facing_vig,person_vig,text_vig,facing_train,person_train,food_train,correct_key_train,facing_exp,person_exp,food_exp,showL_R,consistent,vig_random.thisRepN,vig_random.thisTrialN,vig_random.thisN,vig_random.thisIndex,trainTrials.thisRepN,trainTrials.thisTrialN,trainTrials.thisN,trainTrials.thisIndex,expBlock.thisRepN,expBlock.thisTrialN,expBlock.thisN,expBlock.thisIndex,breakLoop.thisRepN,breakLoop.thisTrialN,breakLoop.thisN,breakLoop.thisIndex,expTrials.thisRepN,expTrials.thisTrialN,expTrials.thisN,expTrials.thisIndex,train_resp.keys,train_resp.corr,train_resp.rt,train_resp.started,train_resp.stopped,exp_resp.keys,exp_resp.rt,exp_resp.started,exp_resp.stopped,session,participant,date,expName,psychopyVersion,frameRate,
C,G,"cannot eat dairy products because she is lactose intolerant. She enjoys eating wheat products. She thinks eating insects, like crickets, is disgusting.",,,,,,,,,,0,0,0,0,,,,,,,,,,,,,,,,,,,,,,,,,,001,100,2019_Nov_13_1004,ACPT_experiment_5_30_19,3.1.0,59.95509965482558,
C,D,"is allergic to gluten, meaning she can’t eat wheat products. She enjoys eating dairy products. She thinks eating insects, like crickets, is disgusting.",,,,,,,,,,0,1,1,1,,,,,,,,,,,,,,,,,,,,,,,,,,001,100,2019_Nov_13_1004,ACPT_experiment_5_30_19,3.1.0,59.95509965482558,
C,U,"did not report her food preferences, so her food preferences are unknown.",,,,,,,,,,0,2,2,2,,,,,,,,,,,,,,,,,,,,,,,,,,001,100,2019_Nov_13_1004,ACPT_experiment_5_30_19,3.1.0,59.95509965482558,
,,,C,G,d,b,,,,,,,,,,0,0,0,3,,,,,,,,,,,,,v,0,1.36770905872595,1066.0943097220197,None,,,,,001,100,2019_Nov_13_1004,ACPT_experiment_5_30_19,3.1.0,59.95509965482558,
,,,C,D,g,b,,,,,,,,,,0,1,1,10,,,,,,,,,,,,,v,0,1.7013107401728575,1070.7478252181422,None,,,,,001,100,2019_Nov_13_1004,ACPT_experiment_5_30_19,3.1.0,59.95509965482558,
,,,C,G,y,b,,,,,,,,,,0,2,2,5,,,,,,,,,,,,,n,0,1.3010126292651876,1075.7349339438026,None,,,,,001,100,2019_Nov_13_1004,ACPT_experiment_5_30_19,3.1.0,59.95509965482558,
,,,C,G,d,b,,,,,,,,,,0,3,3,12,,,,,,,,,,,,,v,0,1.3009854624144737,1080.305073469729,None,,,,,001,100,2019_Nov_13_1004,ACPT_experiment_5_30_19,3.1.0,59.95509965482558,
,,,C,G,g,v,,,,,,,,,,0,4,4,13,,,,,,,,,,,,,b,0,1.0508116700339087,1084.8751867343665,None,,,,,001,100,2019_Nov_13_1004,ACPT_experiment_5_30_19,3.1.0,59.95509965482558,
,,,C,G,g,v,,,,,,,,,,0,5,5,4,,,,,,,,,,,,,v,1,1.5509093197690618,1089.2120786232806,None,,,,,001,100,2019_Nov_13_1004,ACPT_experiment_5_30_19,3.1.0,59.95509965482558,
,,,C,U,d,n,,,,,,,,,,0,6,6,15,,,,,,,,,,,,,b,0,1.3510376680458194,1094.0487995119627,None,,,,,001,100,2019_Nov_13_1004,ACPT_experiment_5_30_19,3.1.0,59.95509965482558,
,,,C,D,d,v,,,,,,,,,,0,7,7,18,,,,,,,,,,,,,n,0,1.0174224031736685,1098.7023388545429,None,,,,,001,100,2019_Nov_13_1004,ACPT_experiment_5_30_19,3.1.0,59.95509965482558,
,,,C,D,d,v,,,,,,,,,,0,8,8,9,,,,,,,,,,,,,v,1,2.2850723287212986,1103.0055800711227,None,,,,,001,100,2019_Nov_13_1004,ACPT_experiment_5_30_19,3.1.0,59.95509965482558,
,,,C,D,y,b,,,,,,,,,,0,9,9,11,,,,,,,,,,,,,n,0,1.818055451164355,1108.559788653976,None,,,,,001,100,2019_Nov_13_1004,ACPT_experiment_5_30_19,3.1.0,59.95509965482558,
,,,C,G,g,v,,,,,,,,,,0,10,10,19,,,,,,,,,,,,,b,0,1.7013077216338388,1113.6636460147286,None,,,,,001,100,2019_Nov_13_1004,ACPT_experiment_5_30_19,3.1.0,59.95509965482558,
,,,C,G,y,b,,,,,,,,,,0,11,11,14,,,,,,,,,,,,,b,1,1.3510367624842274,1118.6340788219004,None,,,,,001,100,2019_Nov_13_1004,ACPT_experiment_5_30_19,3.1.0,59.95509965482558,
,,,C,D,g,b,,,,,,,,,,0,12,12,1,,,,,,,,,,,,,b,1,2.1014470573923063,1123.2878593457438,None,,,,,001,100,2019_Nov_13_1004,ACPT_experiment_5_30_19,3.1.0,59.95509965482558,
,,,C,D,d,v,,,,,,,,,,0,13,13,0,,,,,,,,,,,,,v,1,0.7172296090900545,1128.6583161804856,None,,,,,001,100,2019_Nov_13_1004,ACPT_experiment_5_30_19,3.1.0,59.95509965482558,
,,,C,U,y,n,,,,,,,,,,0,14,14,8,,,,,,,,,,,,,n,1,1.0005276406104713,1132.6782874379576,None,,,,,001,100,2019_Nov_13_1004,ACPT_experiment_5_30_19,3.1.0,59.95509965482558,
,,,C,U,g,n,,,,,,,,,,0,15,15,16,,,,,,,,,,,,,b,0,1.3676121636251537,1136.9479205436025,None,,,,,001,100,2019_Nov_13_1004,ACPT_experiment_5_30_19,3.1.0,59.95509965482558,
,,,C,U,g,n,,,,,,,,,,0,16,16,7,,,,,,,,,,,,,v,0,0.6338231516504038,1141.6014668288226,None,,,,,001,100,2019_Nov_13_1004,ACPT_experiment_5_30_19,3.1.0,59.95509965482558,
,,,C,D,y,b,,,,,,,,,,0,17,17,2,,,,,,,,,,,,,n,0,1.2343014089635744,1145.5210764955125,None,,,,,001,100,2019_Nov_13_1004,ACPT_experiment_5_30_19,3.1.0,59.95509965482558,
,,,C,U,y,n,,,,,,,,,,0,18,18,17,,,,,,,,,,,,,b,0,0.8337331388186158,1150.058109591679,None,,,,,001,100,2019_Nov_13_1004,ACPT_experiment_5_30_19,3.1.0,59.95509965482558,
,,,C,U,d,n,,,,,,,,,,0,19,19,6,,,,,,,,,,,,,n,1,1.5845714625515939,1154.1609530251949,None,,,,,001,100,2019_Nov_13_1004,ACPT_experiment_5_30_19,3.1.0,59.95509965482558,
,,,C,D,d,v,,,,,,,,,,1,0,20,18,,,,,,,,,,,,,v,1,2.0515617769656274,1159.0313294158734,None,,,,,001,100,2019_Nov_13_1004,ACPT_experiment_5_30_19,3.1.0,59.95509965482558,
,,,C,U,y,n,,,,,,,,,,1,1,21,17,,,,,,,,,,,,,b,0,1.2009184810349325,1164.3687003469206,None,,,,,001,100,2019_Nov_13_1004,ACPT_experiment_5_30_19,3.1.0,59.95509965482558,
,,,C,G,y,b,,,,,,,,,,1,2,22,5,,,,,,,,,,,,,n,0,1.117263597838928,1168.8723481003278,None,,,,,001,100,2019_Nov_13_1004,ACPT_experiment_5_30_19,3.1.0,59.95509965482558,
,,,C,D,y,b,,,,,,,,,,1,3,23,11,,,,,,,,,,,,,b,1,1.100836406960525,1173.275447415391,None,,,,,001,100,2019_Nov_13_1004,ACPT_experiment_5_30_19,3.1.0,59.95509965482558,
,,,C,D,y,b,,,,,,,,,,1,4,24,2,,,,,,,,,,,,,b,1,1.2843219199357918,1177.6787688949219,None,,,,,001,100,2019_Nov_13_1004,ACPT_experiment_5_30_19,3.1.0,59.95509965482558,
,,,C,G,g,v,,,,,,,,,,1,5,25,13,,,,,,,,,,,,,b,0,3.619417174460523,1182.2489081189944,None,,,,,001,100,2019_Nov_13_1004,ACPT_experiment_5_30_19,3.1.0,59.95509965482558,
,,,C,D,g,b,,,,,,,,,,1,6,26,10,,,,,,,,,,,,,v,0,2.2683997306255606,1189.1541332401207,None,,,,,001,100,2019_Nov_13_1004,ACPT_experiment_5_30_19,3.1.0,59.95509965482558,
,,,C,G,d,b,,,,,,,,,,1,7,27,12,,,,,,,,,,,,,v,0,1.301008705164577,1194.708333371065,None,,,,,001,100,2019_Nov_13_1004,ACPT_experiment_5_30_19,3.1.0,59.95509965482558,
,,,C,U,g,n,,,,,,,,,,1,8,28,7,,,,,,,,,,,,,b,0,0.9669569595585017,1199.3122578943094,None,,,,,001,100,2019_Nov_13_1004,ACPT_experiment_5_30_19,3.1.0,59.95509965482558,
,,,C,U,d,n,,,,,,,,,,1,9,29,6,,,,,,,,,,,,,b,0,1.5679027885564665,1203.5483604654708,None,,,,,001,100,2019_Nov_13_1004,ACPT_experiment_5_30_19,3.1.0,59.95509965482558,
,,,C,U,g,n,,,,,,,,,,1,10,30,16,,,,,,,,,,,,,v,0,1.0341263940745193,1208.3853578523215,None,,,,,001,100,2019_Nov_13_1004,ACPT_experiment_5_30_19,3.1.0,59.95509965482558,
,,,C,G,d,b,,,,,,,,,,1,11,31,3,,,,,,,,,,,,,v,0,0.9173563273557193,1212.7053000412634,None,,,,,001,100,2019_Nov_13_1004,ACPT_experiment_5_30_19,3.1.0,59.95509965482558,
,,,C,D,d,v,,,,,,,,,,1,12,32,0,,,,,,,,,,,,,v,1,5.937843754990126,1216.8917938301668,None,,,,,001,100,2019_Nov_13_1004,ACPT_experiment_5_30_19,3.1.0,59.95509965482558,
,,,C,D,g,b,,,,,,,,,,1,13,33,1,,,,,,,,,,,,,b,1,1.617912734642232,1226.0987539169316,None,,,,,001,100,2019_Nov_13_1004,ACPT_experiment_5_30_19,3.1.0,59.95509965482558,
,,,C,G,g,v,,,,,,,,,,1,14,34,4,,,,,,,,,,,,,v,1,4.21987339643897,1231.0024758056556,None,,,,,001,100,2019_Nov_13_1004,ACPT_experiment_5_30_19,3.1.0,59.95509965482558,
,,,C,U,d,n,,,,,,,,,,1,15,35,15,,,,,,,,,,,,,n,1,2.7854597581967937,1238.50815865803,None,,,,,001,100,2019_Nov_13_1004,ACPT_experiment_5_30_19,3.1.0,59.95509965482558,
,,,C,G,y,b,,,,,,,,,,1,16,36,14,,,,,,,,,,,,,b,1,2.635362908374418,1244.5793994978962,None,,,,,001,100,2019_Nov_13_1004,ACPT_experiment_5_30_19,3.1.0,59.95509965482558,
,,,C,G,g,v,,,,,,,,,,1,17,37,19,,,,,,,,,,,,,v,1,3.0023194453374344,1250.4838615323733,None,,,,,001,100,2019_Nov_13_1004,ACPT_experiment_5_30_19,3.1.0,59.95509965482558,
,,,C,U,y,n,,,,,,,,,,1,18,38,8,,,,,,,,,,,,,n,1,1.551180384567715,1256.771985905838,None,,,,,001,100,2019_Nov_13_1004,ACPT_experiment_5_30_19,3.1.0,59.95509965482558,
,,,C,D,d,v,,,,,,,,,,1,19,39,9,,,,,,,,,,,,,v,1,2.31844167322447,1261.6089742370718,None,,,,,001,100,2019_Nov_13_1004,ACPT_experiment_5_30_19,3.1.0,59.95509965482558,
,,,C,G,d,b,,,,,,,,,,2,0,40,3,,,,,,,,,,,,,b,1,0.984085960745233,1267.2132247625239,None,,,,,001,100,2019_Nov_13_1004,ACPT_experiment_5_30_19,3.1.0,59.95509965482558,
,,,C,U,d,n,,,,,,,,,,2,1,41,15,,,,,,,,,,,,,v,0,1.317399975428998,1271.5000762181087,None,,,,,001,100,2019_Nov_13_1004,ACPT_experiment_5_30_19,3.1.0,59.95509965482558,
,,,C,G,y,b,,,,,,,,,,2,2,42,5,,,,,,,,,,,,,n,0,1.4344362772842487,1276.1032826309345,None,,,,,001,100,2019_Nov_13_1004,ACPT_experiment_5_30_19,3.1.0,59.95509965482558,
,,,C,D,g,b,,,,,,,,,,2,3,43,1,,,,,,,,,,,,,b,1,3.1854874080138416,1280.840470215925,None,,,,,001,100,2019_Nov_13_1004,ACPT_experiment_5_30_19,3.1.0,59.95509965482558,
,,,C,U,y,n,,,,,,,,,,2,4,44,8,,,,,,,,,,,,,n,1,1.4010699513200962,1287.3117719095367,None,,,,,001,100,2019_Nov_13_1004,ACPT_experiment_5_30_19,3.1.0,59.95509965482558,
,,,C,G,g,v,,,,,,,,,,2,5,45,19,,,,,,,,,,,,,v,1,2.36846580644351,1291.9986570520164,None,,,,,001,100,2019_Nov_13_1004,ACPT_experiment_5_30_19,3.1.0,59.95509965482558,
,,,C,U,g,n,,,,,,,,,,2,6,46,7,,,,,,,,,,,,,b,0,1.5845470123858831,1297.6529283902946,None,,,,,001,100,2019_Nov_13_1004,ACPT_experiment_5_30_19,3.1.0,59.95509965482558,
,,,C,D,y,b,,,,,,,,,,2,7,47,2,,,,,,,,,,,,,b,1,1.6846164085966393,1302.5232869715933,None,,,,,001,100,2019_Nov_13_1004,ACPT_experiment_5_30_19,3.1.0,59.95509965482558,
,,,C,G,g,v,,,,,,,,,,2,8,48,13,,,,,,,,,,,,,v,1,2.3851565157729055,1307.4937475493236,None,,,,,001,100,2019_Nov_13_1004,ACPT_experiment_5_30_19,3.1.0,59.95509965482558,
,,,C,G,g,v,,,,,,,,,,2,9,49,4,,,,,,,,,,,,,v,1,1.5512117773730552,1313.1479684780013,None,,,,,001,100,2019_Nov_13_1004,ACPT_experiment_5_30_19,3.1.0,59.95509965482558,
,,,C,D,d,v,,,,,,,,,,2,10,50,0,,,,,,,,,,,,,v,1,1.5845430882852725,1317.9849891076021,None,,,,,001,100,2019_Nov_13_1004,ACPT_experiment_5_30_19,3.1.0,59.95509965482558,
,,,C,U,g,n,,,,,,,,,,2,11,51,16,,,,,,,,,,,,,n,1,0.7839535072555464,1322.8553286721053,None,,,,,001,100,2019_Nov_13_1004,ACPT_experiment_5_30_19,3.1.0,59.95509965482558,
,,,C,D,g,b,,,,,,,,,,2,12,52,10,,,,,,,,,,,,,b,1,1.8511721439565463,1326.9420162813954,None,,,,,001,100,2019_Nov_13_1004,ACPT_experiment_5_30_19,3.1.0,59.95509965482558,
,,,C,D,d,v,,,,,,,,,,2,13,53,9,,,,,,,,,,,,,v,1,1.0841559606635656,1332.0789915423557,None,,,,,001,100,2019_Nov_13_1004,ACPT_experiment_5_30_19,3.1.0,59.95509965482558,
,,,C,G,y,b,,,,,,,,,,2,14,54,14,,,,,,,,,,,,,b,1,1.4010753846903299,1336.4489611849094,None,,,,,001,100,2019_Nov_13_1004,ACPT_experiment_5_30_19,3.1.0,59.95509965482558,
,,,C,D,d,v,,,,,,,,,,2,15,55,18,,,,,,,,,,,,,v,1,1.7846888233464142,1341.135846327389,None,,,,,001,100,2019_Nov_13_1004,ACPT_experiment_5_30_19,3.1.0,59.95509965482558,
,,,C,G,d,b,,,,,,,,,,2,16,56,12,,,,,,,,,,,,,b,1,0.8840355813297265,1346.2063461159403,None,,,,,001,100,2019_Nov_13_1004,ACPT_experiment_5_30_19,3.1.0,59.95509965482558,
,,,C,U,d,n,,,,,,,,,,2,17,57,6,,,,,,,,,,,,,n,1,0.7670035054293294,1350.3931010084636,None,,,,,001,100,2019_Nov_13_1004,ACPT_experiment_5_30_19,3.1.0,59.95509965482558,
,,,C,U,y,n,,,,,,,,,,2,18,58,17,,,,,,,,,,,,,n,1,1.1841139727866903,1354.4292371457782,None,,,,,001,100,2019_Nov_13_1004,ACPT_experiment_5_30_19,3.1.0,59.95509965482558,
,,,C,D,y,b,,,,,,,,,,2,19,59,11,,,,,,,,,,,,,b,1,1.2006634144927375,1358.916216828898,None,,,,,001,100,2019_Nov_13_1004,ACPT_experiment_5_30_19,3.1.0,59.95509965482558,
,,,C,G,g,v,,,,,,,,,,3,0,60,19,,,,,,,,,,,,,v,1,1.7680261864293243,1363.402696340112,None,,,,,001,100,2019_Nov_13_1004,ACPT_experiment_5_30_19,3.1.0,59.95509965482558,
,,,C,D,y,b,,,,,,,,,,3,1,61,2,,,,,,,,,,,,,b,1,1.5845367493534468,1368.4565235305677,None,,,,,001,100,2019_Nov_13_1004,ACPT_experiment_5_30_19,3.1.0,59.95509965482558,
,,,C,D,g,b,,,,,,,,,,3,2,62,1,,,,,,,,,,,,,b,1,1.734681593945652,1373.310165141248,None,,,,,001,100,2019_Nov_13_1004,ACPT_experiment_5_30_19,3.1.0,59.95509965482558,
,,,C,D,y,b,,,,,,,,,,3,3,63,11,,,,,,,,,,,,,b,1,1.3010177607814057,1378.3139579354522,None,,,,,001,100,2019_Nov_13_1004,ACPT_experiment_5_30_19,3.1.0,59.95509965482558,
,,,C,U,y,n,,,,,,,,,,3,4,64,8,,,,,,,,,,,,,n,1,1.2173480867445505,1382.917713118661,None,,,,,001,100,2019_Nov_13_1004,ACPT_experiment_5_30_19,3.1.0,59.95509965482558,
,,,C,D,d,v,,,,,,,,,,3,5,65,0,,,,,,,,,,,,,b,0,1.2843158828577543,1387.4208709631946,None,,,,,001,100,2019_Nov_13_1004,ACPT_experiment_5_30_19,3.1.0,59.95509965482558,
,,,C,G,d,b,,,,,,,,,,3,6,66,3,,,,,,,,,,,,,b,1,1.2342860144146925,1391.9909929815951,None,,,,,001,100,2019_Nov_13_1004,ACPT_experiment_5_30_19,3.1.0,59.95509965482558,
,,,C,U,d,n,,,,,,,,,,3,7,67,15,,,,,,,,,,,,,v,0,1.067483664421843,1396.5110872445298,None,,,,,001,100,2019_Nov_13_1004,ACPT_experiment_5_30_19,3.1.0,59.95509965482558,
,,,C,G,g,v,,,,,,,,,,3,8,68,13,,,,,,,,,,,,,v,1,1.6009708828712519,1400.8813119536255,None,,,,,001,100,2019_Nov_13_1004,ACPT_experiment_5_30_19,3.1.0,59.95509965482558,
,,,C,U,y,n,,,,,,,,,,3,9,69,17,,,,,,,,,,,,,n,1,1.5345029568100017,1405.7680925942864,None,,,,,001,100,2019_Nov_13_1004,ACPT_experiment_5_30_19,3.1.0,59.95509965482558,
,,,C,U,g,n,,,,,,,,,,3,10,70,7,,,,,,,,,,,,,n,1,1.2509571032408076,1410.571723655173,None,,,,,001,100,2019_Nov_13_1004,ACPT_experiment_5_30_19,3.1.0,59.95509965482558,
,,,C,G,y,b,,,,,,,,,,3,11,71,5,,,,,,,,,,,,,b,1,1.6343323791732018,1415.142087760398,None,,,,,001,100,2019_Nov_13_1004,ACPT_experiment_5_30_19,3.1.0,59.95509965482558,
,,,C,D,d,v,,,,,,,,,,3,12,72,9,,,,,,,,,,,,,v,1,1.9014459103477748,1420.0622398585392,None,,,,,001,100,2019_Nov_13_1004,ACPT_experiment_5_30_19,3.1.0,59.95509965482558,
,,,C,G,y,b,,,,,,,,,,3,13,73,14,,,,,,,,,,,,,b,1,1.1175343607835657,1425.2494831506665,None,,,,,001,100,2019_Nov_13_1004,ACPT_experiment_5_30_19,3.1.0,59.95509965482558,
,,,C,D,d,v,,,,,,,,,,3,14,74,18,,,,,,,,,,,,,v,1,1.2507165256856752,1429.6697495005071,None,,,,,001,100,2019_Nov_13_1004,ACPT_experiment_5_30_19,3.1.0,59.95509965482558,
,,,C,U,g,n,,,,,,,,,,3,15,75,16,,,,,,,,,,,,,n,1,1.26763422914496,1434.2062748784208,None,,,,,001,100,2019_Nov_13_1004,ACPT_experiment_5_30_19,3.1.0,59.95509965482558,
,,,C,G,d,b,,,,,,,,,,3,16,76,12,,,,,,,,,,,,,b,1,1.317528263334907,1438.7765369570288,None,,,,,001,100,2019_Nov_13_1004,ACPT_experiment_5_30_19,3.1.0,59.95509965482558,
,,,C,U,d,n,,,,,,,,,,3,17,77,6,,,,,,,,,,,,,v,0,1.0841773922902576,1443.3798858448936,None,,,,,001,100,2019_Nov_13_1004,ACPT_experiment_5_30_19,3.1.0,59.95509965482558,
,,,C,D,g,b,,,,,,,,,,3,18,78,10,,,,,,,,,,,,,b,1,3.152138589575543,1447.7667997540493,None,,,,,001,100,2019_Nov_13_1004,ACPT_experiment_5_30_19,3.1.0,59.95509965482558,
,,,C,G,g,v,,,,,,,,,,3,19,79,4,,,,,,,,,,,,,b,0,1.4344459366088813,1454.2047369328202,None,,,,,001,100,2019_Nov_13_1004,ACPT_experiment_5_30_19,3.1.0,59.95509965482558,
,,,C,D,y,b,,,,,,,,,,4,0,80,11,,,,,,,,,,,,,b,1,1.434080693394435,1458.9586822387055,None,,,,,001,100,2019_Nov_13_1004,ACPT_experiment_5_30_19,3.1.0,59.95509965482558,
,,,C,G,y,b,,,,,,,,,,4,1,81,14,,,,,,,,,,,,,b,1,1.3843979569319345,1463.6785723880355,None,,,,,001,100,2019_Nov_13_1004,ACPT_experiment_5_30_19,3.1.0,59.95509965482558,
,,,C,U,d,n,,,,,,,,,,4,2,82,6,,,,,,,,,,,,,n,1,0.9502843614627636,1468.3658695610832,None,,,,,001,100,2019_Nov_13_1004,ACPT_experiment_5_30_19,3.1.0,59.95509965482558,
,,,C,G,y,b,,,,,,,,,,4,3,83,5,,,,,,,,,,,,,b,1,0.8173219461968984,1472.6019694155596,None,,,,,001,100,2019_Nov_13_1004,ACPT_experiment_5_30_19,3.1.0,59.95509965482558,
,,,C,U,y,n,,,,,,,,,,4,4,84,8,,,,,,,,,,,,,b,0,0.7002624015917718,1476.7220526306417,None,,,,,001,100,2019_Nov_13_1004,ACPT_experiment_5_30_19,3.1.0,59.95509965482558,
,,,C,D,g,b,,,,,,,,,,4,5,85,1,,,,,,,,,,,,,b,1,1.4677878124075505,1480.7081284122696,None,,,,,001,100,2019_Nov_13_1004,ACPT_experiment_5_30_19,3.1.0,59.95509965482558,
,,,C,G,g,v,,,,,,,,,,4,6,86,13,,,,,,,,,,,,,v,1,1.3677283773754425,1485.461724473197,None,,,,,001,100,2019_Nov_13_1004,ACPT_experiment_5_30_19,3.1.0,59.95509965482558,
,,,C,U,g,n,,,,,,,,,,4,7,87,16,,,,,,,,,,,,,n,1,1.4811472621399844,1490.1352474492592,None,,,,,001,100,2019_Nov_13_1004,ACPT_experiment_5_30_19,3.1.0,59.95509965482558,
,,,C,D,d,v,,,,,,,,,,4,8,88,0,,,,,,,,,,,,,v,1,1.0674833625680549,1494.9021951117177,None,,,,,001,100,2019_Nov_13_1004,ACPT_experiment_5_30_19,3.1.0,59.95509965482558,
,,,C,U,y,n,,,,,,,,,,4,9,89,17,,,,,,,,,,,,,n,1,1.184268521981494,1499.2721765265733,None,,,,,001,100,2019_Nov_13_1004,ACPT_experiment_5_30_19,3.1.0,59.95509965482558,
,,,C,U,g,n,,,,,,,,,,4,10,90,7,,,,,,,,,,,,,b,0,1.3009936124697106,1503.7422194894382,None,,,,,001,100,2019_Nov_13_1004,ACPT_experiment_5_30_19,3.1.0,59.95509965482558,
,,,C,D,d,v,,,,,,,,,,4,11,91,9,,,,,,,,,,,,,v,1,1.1172503162672456,1508.3459737670853,None,,,,,001,100,2019_Nov_13_1004,ACPT_experiment_5_30_19,3.1.0,59.95509965482558,
,,,C,G,g,v,,,,,,,,,,4,12,92,19,,,,,,,,,,,,,v,1,1.3677072476025387,1512.7490359541193,None,,,,,001,100,2019_Nov_13_1004,ACPT_experiment_5_30_19,3.1.0,59.95509965482558,
,,,C,G,d,b,,,,,,,,,,4,13,93,12,,,,,,,,,,,,,b,1,0.9173581384791305,1517.385882776247,None,,,,,001,100,2019_Nov_13_1004,ACPT_experiment_5_30_19,3.1.0,59.95509965482558,
,,,C,G,d,b,,,,,,,,,,4,14,94,3,,,,,,,,,,,,,b,1,1.08416531813441,1521.5890509743692,None,,,,,001,100,2019_Nov_13_1004,ACPT_experiment_5_30_19,3.1.0,59.95509965482558,
,,,C,U,d,n,,,,,,,,,,4,15,95,15,,,,,,,,,,,,,n,1,0.6502645296618539,1525.9759494889763,None,,,,,001,100,2019_Nov_13_1004,ACPT_experiment_5_30_19,3.1.0,59.95509965482558,
,,,C,D,g,b,,,,,,,,,,4,16,96,10,,,,,,,,,,,,,v,0,1.217589871715063,1529.9120177393497,None,,,,,001,100,2019_Nov_13_1004,ACPT_experiment_5_30_19,3.1.0,59.95509965482558,
,,,C,G,g,v,,,,,,,,,,4,17,97,4,,,,,,,,,,,,,v,1,0.8670732034938737,1534.432357107648,None,,,,,001,100,2019_Nov_13_1004,ACPT_experiment_5_30_19,3.1.0,59.95509965482558,
,,,C,D,d,v,,,,,,,,,,4,18,98,18,,,,,,,,,,,,,v,1,1.0341288089057343,1538.5852418800546,None,,,,,001,100,2019_Nov_13_1004,ACPT_experiment_5_30_19,3.1.0,59.95509965482558,
,,,C,D,y,b,,,,,,,,,,4,19,99,2,,,,,,,,,,,,,b,1,1.1672862217883448,1542.9054518134024,None,,,,,001,100,2019_Nov_13_1004,ACPT_experiment_5_30_19,3.1.0,59.95509965482558,
,,,C,D,d,v,,,,,,,,,,5,0,100,0,,,,,,,,,,,,,v,1,0.8673337034063024,1547.3418658374137,None,,,,,001,100,2019_Nov_13_1004,ACPT_experiment_5_30_19,3.1.0,59.95509965482558,
,,,C,U,y,n,,,,,,,,,,5,1,101,8,,,,,,,,,,,,,n,1,0.7672513274781068,1551.5116927634451,None,,,,,001,100,2019_Nov_13_1004,ACPT_experiment_5_30_19,3.1.0,59.95509965482558,
,,,C,U,y,n,,,,,,,,,,5,2,102,17,,,,,,,,,,,,,n,1,0.7006472653092715,1555.5647568672516,None,,,,,001,100,2019_Nov_13_1004,ACPT_experiment_5_30_19,3.1.0,59.95509965482558,
,,,C,U,d,n,,,,,,,,,,5,3,103,6,,,,,,,,,,,,,n,1,0.5835536112140289,1559.568057639605,None,,,,,001,100,2019_Nov_13_1004,ACPT_experiment_5_30_19,3.1.0,59.95509965482558,
,,,C,D,d,v,,,,,,,,,,5,4,104,18,,,,,,,,,,,,,v,1,0.7172172330804187,1563.4373739194007,None,,,,,001,100,2019_Nov_13_1004,ACPT_experiment_5_30_19,3.1.0,59.95509965482558,
,,,C,U,g,n,,,,,,,,,,5,5,105,7,,,,,,,,,,,,,n,1,1.3507795829646057,1567.4573282730546,None,,,,,001,100,2019_Nov_13_1004,ACPT_experiment_5_30_19,3.1.0,59.95509965482558,
,,,C,D,y,b,,,,,,,,,,5,6,106,2,,,,,,,,,,,,,b,1,1.1508792551210263,1572.0939239527404,None,,,,,001,100,2019_Nov_13_1004,ACPT_experiment_5_30_19,3.1.0,59.95509965482558,
,,,C,D,d,v,,,,,,,,,,5,7,107,9,,,,,,,,,,,,,v,1,0.7836697645932418,1576.5308825211803,None,,,,,001,100,2019_Nov_13_1004,ACPT_experiment_5_30_19,3.1.0,59.95509965482558,
,,,C,D,y,b,,,,,,,,,,5,8,108,11,,,,,,,,,,,,,b,1,0.750585068313967,1580.5836918602984,None,,,,,001,100,2019_Nov_13_1004,ACPT_experiment_5_30_19,3.1.0,59.95509965482558,
,,,C,U,d,n,,,,,,,,,,5,9,109,15,,,,,,,,,,,,,n,1,0.9172123430473675,1584.6368836483027,None,,,,,001,100,2019_Nov_13_1004,ACPT_experiment_5_30_19,3.1.0,59.95509965482558,
,,,C,G,d,b,,,,,,,,,,5,10,110,3,,,,,,,,,,,,,b,1,1.1340750487265723,1588.8399256714965,None,,,,,001,100,2019_Nov_13_1004,ACPT_experiment_5_30_19,3.1.0,59.95509965482558,
,,,C,U,g,n,,,,,,,,,,5,11,111,16,,,,,,,,,,,,,n,1,0.9671281107177947,1593.2768929936994,None,,,,,001,100,2019_Nov_13_1004,ACPT_experiment_5_30_19,3.1.0,59.95509965482558,
,,,C,D,g,b,,,,,,,,,,5,12,112,10,,,,,,,,,,,,,b,1,1.117510514325886,1597.5298414270928,None,,,,,001,100,2019_Nov_13_1004,ACPT_experiment_5_30_19,3.1.0,59.95509965482558,
,,,C,G,g,v,,,,,,,,,,5,13,113,13,,,,,,,,,,,,,v,1,1.8843721484240632,1601.9502119165277,None,,,,,001,100,2019_Nov_13_1004,ACPT_experiment_5_30_19,3.1.0,59.95509965482558,
,,,C,G,y,b,,,,,,,,,,5,14,114,14,,,,,,,,,,,,,b,1,1.1341960921390637,1607.1204255174002,None,,,,,001,100,2019_Nov_13_1004,ACPT_experiment_5_30_19,3.1.0,59.95509965482558,
,,,C,D,g,b,,,,,,,,,,5,15,115,1,,,,,,,,,,,,,b,1,2.0982800063147806,1611.5771026916009,None,,,,,001,100,2019_Nov_13_1004,ACPT_experiment_5_30_19,3.1.0,59.95509965482558,
,,,C,G,g,v,,,,,,,,,,5,16,116,4,,,,,,,,,,,,,v,1,2.4518707546135374,1616.961195776098,None,,,,,001,100,2019_Nov_13_1004,ACPT_experiment_5_30_19,3.1.0,59.95509965482558,
,,,C,G,d,b,,,,,,,,,,5,17,117,12,,,,,,,,,,,,,b,1,0.95073261449852,1622.6821876921488,None,,,,,001,100,2019_Nov_13_1004,ACPT_experiment_5_30_19,3.1.0,59.95509965482558,
,,,C,G,g,v,,,,,,,,,,5,18,118,19,,,,,,,,,,,,,v,1,0.8671042944451983,1626.9189978088425,None,,,,,001,100,2019_Nov_13_1004,ACPT_experiment_5_30_19,3.1.0,59.95509965482558,
,,,C,G,y,b,,,,,,,,,,5,19,119,5,,,,,,,,,,,,,b,1,0.9340760146592402,1631.0551604791146,None,,,,,001,100,2019_Nov_13_1004,ACPT_experiment_5_30_19,3.1.0,59.95509965482558,
,,,C,D,g,b,,,,,,,,,,6,0,120,1,,,,,,,,,,,,,b,1,1.3674630478008112,1635.291971199516,None,,,,,001,100,2019_Nov_13_1004,ACPT_experiment_5_30_19,3.1.0,59.95509965482558,
,,,C,D,d,v,,,,,,,,,,6,1,121,0,,,,,,,,,,,,,v,1,2.1016037195645367,1639.9285620495396,None,,,,,001,100,2019_Nov_13_1004,ACPT_experiment_5_30_19,3.1.0,59.95509965482558,
,,,C,U,g,n,,,,,,,,,,6,2,122,7,,,,,,,,,,,,,n,1,1.1008409347691668,1645.3159746213319,None,,,,,001,100,2019_Nov_13_1004,ACPT_experiment_5_30_19,3.1.0,59.95509965482558,
,,,C,G,g,v,,,,,,,,,,6,3,123,13,,,,,,,,,,,,,v,1,1.4508522995681687,1649.7195602230217,None,,,,,001,100,2019_Nov_13_1004,ACPT_experiment_5_30_19,3.1.0,59.95509965482558,
,,,C,U,d,n,,,,,,,,,,6,4,124,6,,,,,,,,,,,,,n,1,0.6838581516096838,1654.4562216766715,None,,,,,001,100,2019_Nov_13_1004,ACPT_experiment_5_30_19,3.1.0,59.95509965482558,
,,,C,G,d,b,,,,,,,,,,6,5,125,12,,,,,,,,,,,,,v,0,0.9307326809064307,1658.4459015938187,None,,,,,001,100,2019_Nov_13_1004,ACPT_experiment_5_30_19,3.1.0,59.95509965482558,
,,,C,G,y,b,,,,,,,,,,6,6,126,5,,,,,,,,,,,,,b,1,0.8673273644744768,1662.6457487953764,None,,,,,001,100,2019_Nov_13_1004,ACPT_experiment_5_30_19,3.1.0,59.95509965482558,
,,,C,G,d,b,,,,,,,,,,6,7,127,3,,,,,,,,,,,,,b,1,1.150876236582235,1666.7822187529148,None,,,,,001,100,2019_Nov_13_1004,ACPT_experiment_5_30_19,3.1.0,59.95509965482558,
,,,C,U,y,n,,,,,,,,,,6,8,128,8,,,,,,,,,,,,,n,1,0.4503177163182954,1671.2189038417246,None,,,,,001,100,2019_Nov_13_1004,ACPT_experiment_5_30_19,3.1.0,59.95509965482558,
,,,C,D,g,b,,,,,,,,,,6,9,129,10,,,,,,,,,,,,,v,0,1.2340258163562794,1674.971983128782,None,,,,,001,100,2019_Nov_13_1004,ACPT_experiment_5_30_19,3.1.0,59.95509965482558,
,,,C,G,g,v,,,,,,,,,,6,10,130,4,,,,,,,,,,,,,v,1,1.017473416482062,1679.4917993842785,None,,,,,001,100,2019_Nov_13_1004,ACPT_experiment_5_30_19,3.1.0,59.95509965482558,
,,,C,G,g,v,,,,,,,,,,6,11,131,19,,,,,,,,,,,,,v,1,1.0505354737190373,1683.795346680709,None,,,,,001,100,2019_Nov_13_1004,ACPT_experiment_5_30_19,3.1.0,59.95509965482558,
,,,C,D,d,v,,,,,,,,,,6,12,132,9,,,,,,,,,,,,,v,1,0.9674006847858436,1688.1316879881165,None,,,,,001,100,2019_Nov_13_1004,ACPT_experiment_5_30_19,3.1.0,59.95509965482558,
,,,C,D,y,b,,,,,,,,,,6,13,133,2,,,,,,,,,,,,,b,1,0.6671927980075907,1692.4016000067616,None,,,,,001,100,2019_Nov_13_1004,ACPT_experiment_5_30_19,3.1.0,59.95509965482558,
,,,C,U,d,n,,,,,,,,,,6,14,134,15,,,,,,,,,,,,,n,1,0.7005551998709052,1696.3712313918393,None,,,,,001,100,2019_Nov_13_1004,ACPT_experiment_5_30_19,3.1.0,59.95509965482558,
,,,C,U,y,n,,,,,,,,,,6,15,135,17,,,,,,,,,,,,,n,1,0.6668993960206535,1700.3745593310434,None,,,,,001,100,2019_Nov_13_1004,ACPT_experiment_5_30_19,3.1.0,59.95509965482558,
,,,C,G,y,b,,,,,,,,,,6,16,136,14,,,,,,,,,,,,,b,1,0.867329175597888,1704.3272712015385,None,,,,,001,100,2019_Nov_13_1004,ACPT_experiment_5_30_19,3.1.0,59.95509965482558,
,,,C,U,g,n,,,,,,,,,,6,17,137,16,,,,,,,,,,,,,n,1,0.6502385702267475,1708.5140212643996,None,,,,,001,100,2019_Nov_13_1004,ACPT_experiment_5_30_19,3.1.0,59.95509965482558,
,,,C,D,d,v,,,,,,,,,,6,18,138,18,,,,,,,,,,,,,v,1,0.6504906182299237,1712.45009162775,None,,,,,001,100,2019_Nov_13_1004,ACPT_experiment_5_30_19,3.1.0,59.95509965482558,
,,,C,D,y,b,,,,,,,,,,6,19,139,11,,,,,,,,,,,,,b,1,0.8670771275947118,1716.4033217813846,None,,,,,001,100,2019_Nov_13_1004,ACPT_experiment_5_30_19,3.1.0,59.95509965482558,
,,,C,U,y,n,,,,,,,,,,7,0,140,8,,,,,,,,,,,,,n,1,0.7172154219570075,1720.5562098741843,None,,,,,001,100,2019_Nov_13_1004,ACPT_experiment_5_30_19,3.1.0,59.95509965482558,
,,,C,U,y,n,,,,,,,,,,7,1,141,17,,,,,,,,,,,,,n,1,0.7168468583499816,1724.5762919120361,None,,,,,001,100,2019_Nov_13_1004,ACPT_experiment_5_30_19,3.1.0,59.95509965482558,
,,,C,G,y,b,,,,,,,,,,7,2,142,14,,,,,,,,,,,,,b,1,0.7005388997606588,1728.578946717052,None,,,,,001,100,2019_Nov_13_1004,ACPT_experiment_5_30_19,3.1.0,59.95509965482558,
,,,C,U,g,n,,,,,,,,,,7,3,143,7,,,,,,,,,,,,,n,1,0.46683033184899614,1732.5822293781719,None,,,,,001,100,2019_Nov_13_1004,ACPT_experiment_5_30_19,3.1.0,59.95509965482558,
,,,C,G,g,v,,,,,,,,,,7,4,144,19,,,,,,,,,,,,,v,1,0.7005742166666096,1736.3347825338883,None,,,,,001,100,2019_Nov_13_1004,ACPT_experiment_5_30_19,3.1.0,59.95509965482558,
,,,C,D,y,b,,,,,,,,,,7,5,145,11,,,,,,,,,,,,,b,1,1.250711394169457,1740.3380808914108,None,,,,,001,100,2019_Nov_13_1004,ACPT_experiment_5_30_19,3.1.0,59.95509965482558,
,,,C,U,d,n,,,,,,,,,,7,6,146,15,,,,,,,,,,,,,n,1,0.5671074035403763,1744.874624984266,None,,,,,001,100,2019_Nov_13_1004,ACPT_experiment_5_30_19,3.1.0,59.95509965482558,
,,,C,G,d,b,,,,,,,,,,7,7,147,12,,,,,,,,,,,,,b,1,1.0004899088733055,1748.7444776584348,None,,,,,001,100,2019_Nov_13_1004,ACPT_experiment_5_30_19,3.1.0,59.95509965482558,
,,,C,G,d,b,,,,,,,,,,7,8,148,3,,,,,,,,,,,,,b,1,0.7505823516289638,1753.014086615768,None,,,,,001,100,2019_Nov_13_1004,ACPT_experiment_5_30_19,3.1.0,59.95509965482558,
,,,C,G,y,b,,,,,,,,,,7,9,149,5,,,,,,,,,,,,,b,1,1.234022797817488,1757.0674082009477,None,,,,,001,100,2019_Nov_13_1004,ACPT_experiment_5_30_19,3.1.0,59.95509965482558,
,,,C,G,g,v,,,,,,,,,,7,10,150,4,0,0,0,0,0,0,0,0,,,,,v,1,3.0856773042999066,1761.5872440769474,None,,,,,001,100,2019_Nov_13_1004,ACPT_experiment_5_30_19,3.1.0,59.95509965482558,
,,,C,G,g,v,L,U,y,L,u,,,,,7,10,150,4,0,0,0,0,,,,,0,0,0,24,,,,,,down,1.0341094902562418,1812.5424628440492,None,001,100,2019_Nov_13_1004,ACPT_experiment_5_30_19,3.1.0,59.95509965482558,
,,,C,G,g,v,L,U,d,L,u,,,,,7,10,150,4,0,0,0,0,,,,,0,1,1,20,,,,,,up,0.8006007496239818,1814.844185735532,None,001,100,2019_Nov_13_1004,ACPT_experiment_5_30_19,3.1.0,59.95509965482558,
,,,C,G,g,v,R,U,d,R,u,,,,,7,10,150,4,0,0,0,0,,,,,0,2,2,9,,,,,,up,0.8506372588526574,1816.92909512352,None,001,100,2019_Nov_13_1004,ACPT_experiment_5_30_19,3.1.0,59.95509965482558,
,,,C,G,g,v,R,G,d,R,i,,,,,7,10,150,4,0,0,0,0,,,,,0,3,3,5,,,,,,up,0.5504124682563543,1819.0640361910746,None,001,100,2019_Nov_13_1004,ACPT_experiment_5_30_19,3.1.0,59.95509965482558,
,,,C,G,g,v,L,D,g,L,i,,,,,7,10,150,4,0,0,0,0,,,,,0,4,4,14,,,,,,up,1.3843792419907004,1820.898764240335,None,001,100,2019_Nov_13_1004,ACPT_experiment_5_30_19,3.1.0,59.95509965482558,
,,,C,G,g,v,R,G,y,L,y,,,,,7,10,150,4,0,0,0,0,,,,,0,5,5,28,,,,,,down,0.8172805922131374,1823.5841271336164,None,001,100,2019_Nov_13_1004,ACPT_experiment_5_30_19,3.1.0,59.95509965482558,
,,,C,G,g,v,L,D,d,L,c ,,,,,7,10,150,4,0,0,0,0,,,,,0,6,6,12,,,,,,up,0.7005150533027518,1825.702399527176,None,001,100,2019_Nov_13_1004,ACPT_experiment_5_30_19,3.1.0,59.95509965482558,
,,,C,G,g,v,L,G,g,R,c ,,,,,7,10,150,4,0,0,0,0,,,,,0,7,7,19,,,,,,up,0.6504966553077338,1827.6872280485054,None,001,100,2019_Nov_13_1004,ACPT_experiment_5_30_19,3.1.0,59.95509965482558,
,,,C,G,g,v,L,D,d,R,c ,,,,,7,10,150,4,0,0,0,0,,,,,0,8,8,13,,,,,,up,0.6671719700887024,1829.6220257958303,None,001,100,2019_Nov_13_1004,ACPT_experiment_5_30_19,3.1.0,59.95509965482558,
,,,C,G,g,v,R,D,g,L,i,,,,,7,10,150,4,0,0,0,0,,,,,0,9,9,2,,,,,,up,0.6337983996309049,1831.5901934913659,None,001,100,2019_Nov_13_1004,ACPT_experiment_5_30_19,3.1.0,59.95509965482558,
,,,C,G,g,v,R,D,y,L,y,,,,,7,10,150,4,0,0,0,0,,,,,0,10,10,26,,,,,,down,0.5670844626442886,1833.5083047553157,None,001,100,2019_Nov_13_1004,ACPT_experiment_5_30_19,3.1.0,59.95509965482558,
,,,C,G,g,v,L,G,g,L,c ,,,,,7,10,150,4,0,0,0,0,,,,,0,11,11,18,,,,,,up,0.5503050082693335,1835.3596948377851,None,001,100,2019_Nov_13_1004,ACPT_experiment_5_30_19,3.1.0,59.95509965482558,
,,,C,G,g,v,R,D,d,L,c,,,,,7,10,150,4,0,0,0,0,,,,,0,12,12,0,,,,,,up,0.6504815626130949,1837.1944240944608,None,001,100,2019_Nov_13_1004,ACPT_experiment_5_30_19,3.1.0,59.95509965482558,
,,,C,G,g,v,R,D,y,R,y,,,,,7,10,150,4,0,0,0,0,,,,,0,13,13,27,,,,,,down,0.8339574162635017,1839.1458971565664,None,001,100,2019_Nov_13_1004,ACPT_experiment_5_30_19,3.1.0,59.95509965482558,
,,,C,G,g,v,R,D,g,R,i,,,,,7,10,150,4,0,0,0,0,,,,,0,14,14,3,,,,,,up,0.8506472200315329,1841.2808421482216,None,001,100,2019_Nov_13_1004,ACPT_experiment_5_30_19,3.1.0,59.95509965482558,
,,,C,G,g,v,L,G,y,L,y,,,,,7,10,150,4,0,0,0,0,,,,,0,15,15,34,,,,,,down,0.8173319073757739,1843.4157904602696,None,001,100,2019_Nov_13_1004,ACPT_experiment_5_30_19,3.1.0,59.95509965482558,
,,,C,G,g,v,R,U,y,R,u,,,,,7,10,150,4,0,0,0,0,,,,,0,16,16,31,,,,,,down,0.6171360645680579,1845.5173751630389,None,001,100,2019_Nov_13_1004,ACPT_experiment_5_30_19,3.1.0,59.95509965482558,
,,,C,G,g,v,R,U,y,L,u,,,,,7,10,150,4,0,0,0,0,,,,,0,17,17,30,,,,,,down,0.63396683410474,1847.4019890964335,None,001,100,2019_Nov_13_1004,ACPT_experiment_5_30_19,3.1.0,59.95509965482558,
,,,C,G,g,v,R,U,g,R,u,,,,,7,10,150,4,0,0,0,0,,,,,0,18,18,11,,,,,,up,0.6838430589145901,1849.320255513286,None,001,100,2019_Nov_13_1004,ACPT_experiment_5_30_19,3.1.0,59.95509965482558,
,,,C,G,g,v,L,U,g,R,u,,,,,7,10,150,4,0,0,0,0,,,,,0,19,19,23,,,,,,up,0.550463179711187,1851.2717074456189,None,001,100,2019_Nov_13_1004,ACPT_experiment_5_30_19,3.1.0,59.95509965482558,
,,,C,G,g,v,L,D,y,L,y,,,,,7,10,150,4,0,0,0,0,,,,,0,20,20,32,,,,,,down,0.6338309998518525,1853.1064508894276,None,001,100,2019_Nov_13_1004,ACPT_experiment_5_30_19,3.1.0,59.95509965482558,
,,,C,G,g,v,R,G,g,L,c ,,,,,7,10,150,4,0,0,0,0,,,,,0,21,21,6,,,,,,up,0.6338146997413787,1855.0245651719163,None,001,100,2019_Nov_13_1004,ACPT_experiment_5_30_19,3.1.0,59.95509965482558,
,,,C,G,g,v,R,G,d,L,i,,,,,7,10,150,4,0,0,0,0,,,,,0,22,22,4,,,,,,up,0.7002587793449493,1856.942955952574,None,001,100,2019_Nov_13_1004,ACPT_experiment_5_30_19,3.1.0,59.95509965482558,
,,,C,G,g,v,L,U,d,R,u,,,,,7,10,150,4,0,0,0,0,,,,,0,23,23,21,,,,,,up,0.6171321404672199,1858.9275203517443,None,001,100,2019_Nov_13_1004,ACPT_experiment_5_30_19,3.1.0,59.95509965482558,
,,,C,G,g,v,L,U,y,R,u,,,,,7,10,150,4,0,0,0,0,,,,,0,24,24,25,,,,,,down,0.8172860255835985,1860.8289523768128,None,001,100,2019_Nov_13_1004,ACPT_experiment_5_30_19,3.1.0,59.95509965482558,
,,,C,G,g,v,R,G,y,R,y,,,,,7,10,150,4,0,0,0,0,,,,,0,25,25,29,,,,,,down,0.5003750534660867,1862.9305479463217,None,001,100,2019_Nov_13_1004,ACPT_experiment_5_30_19,3.1.0,59.95509965482558,
,,,C,G,g,v,L,D,y,R,y,,,,,7,10,150,4,0,0,0,0,,,,,0,26,26,33,,,,,,down,0.5337296071284072,1864.7152349585447,None,001,100,2019_Nov_13_1004,ACPT_experiment_5_30_19,3.1.0,59.95509965482558,
,,,C,G,g,v,R,D,d,R,c ,,,,,7,10,150,4,0,0,0,0,,,,,0,27,27,1,,,,,,up,0.7838982679922992,1866.5332910134173,None,001,100,2019_Nov_13_1004,ACPT_experiment_5_30_19,3.1.0,59.95509965482558,
,,,C,G,g,v,L,G,d,R,i,,,,,7,10,150,4,0,0,0,0,,,,,0,28,28,17,,,,,,up,0.6503731970647095,1868.6015030512901,None,001,100,2019_Nov_13_1004,ACPT_experiment_5_30_19,3.1.0,59.95509965482558,
,,,C,G,g,v,R,G,g,R,c ,,,,,7,10,150,4,0,0,0,0,,,,,0,29,29,7,,,,,,up,0.6004471663613913,1870.536299893053,None,001,100,2019_Nov_13_1004,ACPT_experiment_5_30_19,3.1.0,59.95509965482558,
,,,C,G,g,v,R,U,d,L,u,,,,,7,10,150,4,0,0,0,0,,,,,0,30,30,8,,,,,,up,0.700524712627157,1872.4210572070485,None,001,100,2019_Nov_13_1004,ACPT_experiment_5_30_19,3.1.0,59.95509965482558,
,,,C,G,g,v,L,U,g,L,u,,,,,7,10,150,4,0,0,0,0,,,,,0,31,31,22,,,,,,up,0.5170554997630461,1874.4058926710175,None,001,100,2019_Nov_13_1004,ACPT_experiment_5_30_19,3.1.0,59.95509965482558,
,,,C,G,g,v,L,G,d,L,i,,,,,7,10,150,4,0,0,0,0,,,,,0,32,32,16,,,,,,up,0.46674551090427485,1876.224206207263,None,001,100,2019_Nov_13_1004,ACPT_experiment_5_30_19,3.1.0,59.95509965482558,
,,,C,G,g,v,L,G,y,R,y,,,,,7,10,150,4,0,0,0,0,,,,,0,33,33,35,,,,,,down,0.7839257366968013,1877.958579608381,None,001,100,2019_Nov_13_1004,ACPT_experiment_5_30_19,3.1.0,59.95509965482558,
,,,C,G,g,v,R,U,g,L,u,,,,,7,10,150,4,0,0,0,0,,,,,0,34,34,10,,,,,,up,0.9340385847763173,1880.0268076445102,None,001,100,2019_Nov_13_1004,ACPT_experiment_5_30_19,3.1.0,59.95509965482558,
,,,C,G,g,v,L,D,g,R,i,,,,,7,10,150,4,0,0,0,0,,,,,0,35,35,15,,,,,,up,0.8839972458849843,1882.245153660235,None,001,100,2019_Nov_13_1004,ACPT_experiment_5_30_19,3.1.0,59.95509965482558,
,,,C,G,g,v,R,U,g,L,u,,,,,7,10,150,4,0,0,0,0,,,,,1,0,36,10,,,,,,up,0.5837715497268618,1884.4134589407765,None,001,100,2019_Nov_13_1004,ACPT_experiment_5_30_19,3.1.0,59.95509965482558,
,,,C,G,g,v,L,G,d,R,i,,,,,7,10,150,4,0,0,0,0,,,,,1,1,37,17,,,,,,up,0.6170174359867815,1886.281538827014,None,001,100,2019_Nov_13_1004,ACPT_experiment_5_30_19,3.1.0,59.95509965482558,
,,,C,G,g,v,L,G,g,R,c ,,,,,7,10,150,4,0,0,0,0,,,,,1,2,38,19,,,,,,up,0.6838515108238425,1888.166296442863,None,001,100,2019_Nov_13_1004,ACPT_experiment_5_30_19,3.1.0,59.95509965482558,
,,,C,G,g,v,L,D,y,L,y,,,,,7,10,150,4,0,0,0,0,,,,,1,3,39,32,,,,,,down,0.5170494626850086,1890.1344505549735,None,001,100,2019_Nov_13_1004,ACPT_experiment_5_30_19,3.1.0,59.95509965482558,
,,,C,G,g,v,R,G,g,L,c ,,,,,7,10,150,4,0,0,0,0,,,,,1,4,40,6,,,,,,up,0.5670871793290644,1891.9358162023702,None,001,100,2019_Nov_13_1004,ACPT_experiment_5_30_19,3.1.0,59.95509965482558,
,,,C,G,g,v,R,D,y,R,y,,,,,7,10,150,4,0,0,0,0,,,,,1,5,41,27,,,,,,down,0.6504866941295404,1893.8038924663608,None,001,100,2019_Nov_13_1004,ACPT_experiment_5_30_19,3.1.0,59.95509965482558,
,,,C,G,g,v,L,D,g,L,i,,,,,7,10,150,4,0,0,0,0,,,,,1,6,42,14,,,,,,up,0.5670895941607341,1895.7553718673978,None,001,100,2019_Nov_13_1004,ACPT_experiment_5_30_19,3.1.0,59.95509965482558,
,,,C,G,g,v,L,U,y,L,u,,,,,7,10,150,4,0,0,0,0,,,,,1,7,43,24,,,,,,down,0.6171321404672199,1897.6067673832374,None,001,100,2019_Nov_13_1004,ACPT_experiment_5_30_19,3.1.0,59.95509965482558,
,,,C,G,g,v,R,U,y,L,u,,,,,7,10,150,4,0,0,0,0,,,,,1,8,44,30,,,,,,down,0.5504037144933136,1899.5248843824113,None,001,100,2019_Nov_13_1004,ACPT_experiment_5_30_19,3.1.0,59.95509965482558,
,,,C,G,g,v,R,G,y,R,y,,,,,7,10,150,4,0,0,0,0,,,,,1,9,45,29,,,,,,down,0.8670732034938737,1901.3932066573273,None,001,100,2019_Nov_13_1004,ACPT_experiment_5_30_19,3.1.0,59.95509965482558,
,,,C,G,g,v,L,D,d,R,c ,,,,,7,10,150,4,0,0,0,0,,,,,1,10,46,13,,,,,,up,0.9841107127645046,1903.5445936307017,None,001,100,2019_Nov_13_1004,ACPT_experiment_5_30_19,3.1.0,59.95509965482558,
,,,C,G,g,v,L,U,g,L,u,,,,,7,10,150,4,0,0,0,0,,,,,1,11,47,22,,,,,,up,0.6338044367089424,1905.8129740426778,None,001,100,2019_Nov_13_1004,ACPT_experiment_5_30_19,3.1.0,59.95509965482558,
,,,C,G,g,v,L,G,y,R,y,,,,,7,10,150,4,0,0,0,0,,,,,1,12,48,35,,,,,,down,0.8172624809794797,1907.731105228985,None,001,100,2019_Nov_13_1004,ACPT_experiment_5_30_19,3.1.0,59.95509965482558,
,,,C,G,g,v,L,G,g,L,c ,,,,,7,10,150,4,0,0,0,0,,,,,1,13,49,18,,,,,,up,0.78392271815801,1909.8326829891141,None,001,100,2019_Nov_13_1004,ACPT_experiment_5_30_19,3.1.0,59.95509965482558,
,,,C,G,g,v,L,G,y,L,y,,,,,7,10,150,4,0,0,0,0,,,,,1,14,50,34,,,,,,down,0.567122194381227,1911.8842019028264,None,001,100,2019_Nov_13_1004,ACPT_experiment_5_30_19,3.1.0,59.95509965482558,
,,,C,G,g,v,R,U,d,L,u,,,,,7,10,150,4,0,0,0,0,,,,,1,15,51,8,,,,,,up,0.8339598310944893,1913.7356333392797,None,001,100,2019_Nov_13_1004,ACPT_experiment_5_30_19,3.1.0,59.95509965482558,
,,,C,G,g,v,L,U,y,R,u,,,,,7,10,150,4,0,0,0,0,,,,,1,16,52,25,,,,,,down,0.75056122185606,1915.8539006013232,None,001,100,2019_Nov_13_1004,ACPT_experiment_5_30_19,3.1.0,59.95509965482558,
,,,C,G,g,v,R,G,y,L,y,,,,,7,10,150,4,0,0,0,0,,,,,1,17,53,28,,,,,,down,0.7005277311664031,1917.8887701596898,None,001,100,2019_Nov_13_1004,ACPT_experiment_5_30_19,3.1.0,59.95509965482558,
,,,C,G,g,v,R,G,g,R,c ,,,,,7,10,150,4,0,0,0,0,,,,,1,18,54,7,,,,,,up,0.5670983479230927,1919.873604114389,None,001,100,2019_Nov_13_1004,ACPT_experiment_5_30_19,3.1.0,59.95509965482558,
,,,C,G,g,v,L,U,d,L,u,,,,,7,10,150,4,0,0,0,0,,,,,1,19,55,20,,,,,,up,0.9507419719693644,1921.7249830282647,None,001,100,2019_Nov_13_1004,ACPT_experiment_5_30_19,3.1.0,59.95509965482558,
,,,C,G,g,v,R,U,d,R,u,,,,,7,10,150,4,0,0,0,0,,,,,1,20,56,9,,,,,,up,0.5837950943305259,1923.9600227718577,None,001,100,2019_Nov_13_1004,ACPT_experiment_5_30_19,3.1.0,59.95509965482558,
,,,C,G,g,v,R,D,d,L,c,,,,,7,10,150,4,0,0,0,0,,,,,1,21,57,0,,,,,,up,0.5504335980290307,1925.828108091465,None,001,100,2019_Nov_13_1004,ACPT_experiment_5_30_19,3.1.0,59.95509965482558,
,,,C,G,g,v,R,D,y,L,y,,,,,7,10,150,4,0,0,0,0,,,,,1,22,58,26,,,,,,down,0.6338005126085591,1927.6628304055014,None,001,100,2019_Nov_13_1004,ACPT_experiment_5_30_19,3.1.0,59.95509965482558,
,,,C,G,g,v,R,U,g,R,u,,,,,7,10,150,4,0,0,0,0,,,,,1,23,59,11,,,,,,up,0.767241064445443,1929.5809483102369,None,001,100,2019_Nov_13_1004,ACPT_experiment_5_30_19,3.1.0,59.95509965482558,
,,,C,G,g,v,R,D,d,R,c ,,,,,7,10,150,4,0,0,0,0,,,,,1,24,60,1,,,,,,up,0.533739568306828,1931.6324943908,None,001,100,2019_Nov_13_1004,ACPT_experiment_5_30_19,3.1.0,59.95509965482558,
,,,C,G,g,v,L,D,d,L,c ,,,,,7,10,150,4,0,0,0,0,,,,,1,25,61,12,,,,,,up,0.6838306829049543,1933.467229080846,None,001,100,2019_Nov_13_1004,ACPT_experiment_5_30_19,3.1.0,59.95509965482558,
,,,C,G,g,v,R,G,d,R,i,,,,,7,10,150,4,0,0,0,0,,,,,1,26,62,5,,,,,,up,0.683859962733095,1935.4353560261054,None,001,100,2019_Nov_13_1004,ACPT_experiment_5_30_19,3.1.0,59.95509965482558,
,,,C,G,g,v,L,G,d,L,i,,,,,7,10,150,4,0,0,0,0,,,,,1,27,63,16,,,,,,up,0.6504903163763629,1937.3868481050065,None,001,100,2019_Nov_13_1004,ACPT_experiment_5_30_19,3.1.0,59.95509965482558,
,,,C,G,g,v,L,D,g,R,i,,,,,7,10,150,4,0,0,0,0,,,,,1,28,64,15,,,,,,up,0.6171285182199426,1939.3216473616005,None,001,100,2019_Nov_13_1004,ACPT_experiment_5_30_19,3.1.0,59.95509965482558,
,,,C,G,g,v,R,D,g,L,i,,,,,7,10,150,4,0,0,0,0,,,,,1,29,65,2,,,,,,up,0.8506481255931249,1941.2230808959387,None,001,100,2019_Nov_13_1004,ACPT_experiment_5_30_19,3.1.0,59.95509965482558,
,,,C,G,g,v,L,D,y,R,y,,,,,7,10,150,4,0,0,0,0,,,,,1,30,66,33,,,,,,down,0.4169707090036354,1943.3747132765304,None,001,100,2019_Nov_13_1004,ACPT_experiment_5_30_19,3.1.0,59.95509965482558,
,,,C,G,g,v,L,U,g,R,u,,,,,7,10,150,4,0,0,0,0,,,,,1,31,67,23,,,,,,up,0.5337214570727156,1945.0926929925524,None,001,100,2019_Nov_13_1004,ACPT_experiment_5_30_19,3.1.0,59.95509965482558,
,,,C,G,g,v,R,U,y,R,u,,,,,7,10,150,4,0,0,0,0,,,,,1,32,68,31,,,,,,down,0.5837691348956469,1946.9107188620349,None,001,100,2019_Nov_13_1004,ACPT_experiment_5_30_19,3.1.0,59.95509965482558,
,,,C,G,g,v,R,G,d,L,i,,,,,7,10,150,4,0,0,0,0,,,,,1,33,69,4,,,,,,up,0.750563636687275,1948.7787984464183,None,001,100,2019_Nov_13_1004,ACPT_experiment_5_30_19,3.1.0,59.95509965482558,
,,,C,G,g,v,R,D,g,R,i,,,,,7,10,150,4,0,0,0,0,,,,,1,34,70,3,,,,,,up,0.7005292404360262,1950.8136713251777,None,001,100,2019_Nov_13_1004,ACPT_experiment_5_30_19,3.1.0,59.95509965482558,
,,,C,G,g,v,L,U,d,R,u,,,,,7,10,150,4,0,0,0,0,,,,,1,35,71,21,,,,,,up,0.6502123089380802,1952.815456790973,None,001,100,2019_Nov_13_1004,ACPT_experiment_5_30_19,3.1.0,59.95509965482558,
,,,C,G,g,v,,,,,,,,,,7,10,150,4,1,0,1,0,0,0,0,0,,,,,,,,,,,,,,001,100,2019_Nov_13_1004,ACPT_experiment_5_30_19,3.1.0,59.95509965482558,
,,,C,G,g,v,L,D,g,L,i,,,,,7,10,150,4,1,0,1,0,,,,,0,0,0,14,,,,,,up,0.5835010886362397,1963.2400082587226,None,001,100,2019_Nov_13_1004,ACPT_experiment_5_30_19,3.1.0,59.95509965482558,
,,,C,G,g,v,R,G,g,L,c ,,,,,7,10,150,4,1,0,1,0,,,,,0,1,1,6,,,,,,up,0.6171348571519957,1965.1078101375217,None,001,100,2019_Nov_13_1004,ACPT_experiment_5_30_19,3.1.0,59.95509965482558,
,,,C,G,g,v,R,D,y,L,y,,,,,7,10,150,4,1,0,1,0,,,,,0,2,2,26,,,,,,down,0.6838500015546742,1967.0092481996678,None,001,100,2019_Nov_13_1004,ACPT_experiment_5_30_19,3.1.0,59.95509965482558,
,,,C,G,g,v,L,G,d,R,i,,,,,7,10,150,4,1,0,1,0,,,,,0,3,3,17,,,,,,up,0.4837027572243642,1968.977405330317,None,001,100,2019_Nov_13_1004,ACPT_experiment_5_30_19,3.1.0,59.95509965482558,
,,,C,G,g,v,R,U,g,R,u,,,,,7,10,150,4,1,0,1,0,,,,,0,4,4,11,,,,,,up,0.6171354608600268,1970.7454031424802,None,001,100,2019_Nov_13_1004,ACPT_experiment_5_30_19,3.1.0,59.95509965482558,
,,,C,G,g,v,L,U,g,R,u,,,,,7,10,150,4,1,0,1,0,,,,,0,5,5,23,,,,,,up,0.41698700911410924,1972.64684301575,None,001,100,2019_Nov_13_1004,ACPT_experiment_5_30_19,3.1.0,59.95509965482558,
,,,C,G,g,v,L,D,y,R,y,,,,,7,10,150,4,1,0,1,0,,,,,0,6,6,33,,,,,,down,0.7338907367375214,1974.348126589072,None,001,100,2019_Nov_13_1004,ACPT_experiment_5_30_19,3.1.0,59.95509965482558,
,,,C,G,g,v,L,D,y,L,y,,,,,7,10,150,4,1,0,1,0,,,,,0,7,7,32,,,,,,down,0.6168607738145511,1976.383285323471,None,001,100,2019_Nov_13_1004,ACPT_experiment_5_30_19,3.1.0,59.95509965482558,
,,,C,G,g,v,R,G,y,R,y,,,,,7,10,150,4,1,0,1,0,,,,,0,8,8,29,,,,,,down,0.8006140311954368,1978.3011209948138,None,001,100,2019_Nov_13_1004,ACPT_experiment_5_30_19,3.1.0,59.95509965482558,
,,,C,G,g,v,L,U,d,L,u,,,,,7,10,150,4,1,0,1,0,,,,,0,9,9,20,,,,,,up,1.2008641473335047,1980.4194223663474,None,001,100,2019_Nov_13_1004,ACPT_experiment_5_30_19,3.1.0,59.95509965482558,
,,,C,G,g,v,L,G,y,L,y,,,,,7,10,150,4,1,0,1,0,,,,,0,10,10,34,,,,,,down,0.6338056441245499,1982.954633774251,None,001,100,2019_Nov_13_1004,ACPT_experiment_5_30_19,3.1.0,59.95509965482558,
,,,C,G,g,v,L,D,d,L,c ,,,,,7,10,150,4,1,0,1,0,,,,,0,11,11,12,,,,,,up,0.6337881365984686,1984.9061261550062,None,001,100,2019_Nov_13_1004,ACPT_experiment_5_30_19,3.1.0,59.95509965482558,
,,,C,G,g,v,R,G,y,L,y,,,,,7,10,150,4,1,0,1,0,,,,,0,12,12,28,,,,,,down,0.6838717350346997,1986.824208742836,None,001,100,2019_Nov_13_1004,ACPT_experiment_5_30_19,3.1.0,59.95509965482558,
,,,C,G,g,v,L,G,g,L,c ,,,,,7,10,150,4,1,0,1,0,,,,,0,13,13,18,,,,,,up,0.6838454737458051,1988.7923857958424,None,001,100,2019_Nov_13_1004,ACPT_experiment_5_30_19,3.1.0,59.95509965482558,
,,,C,G,g,v,R,D,y,R,y,,,,,7,10,150,4,1,0,1,0,,,,,0,14,14,27,,,,,,down,0.7839432442233374,1990.7605540950856,None,001,100,2019_Nov_13_1004,ACPT_experiment_5_30_19,3.1.0,59.95509965482558,
,,,C,G,g,v,R,U,g,L,u,,,,,7,10,150,4,1,0,1,0,,,,,0,15,15,10,,,,,,up,0.5504342017366071,1992.8287477198712,None,001,100,2019_Nov_13_1004,ACPT_experiment_5_30_19,3.1.0,59.95509965482558,
,,,C,G,g,v,L,G,d,L,i,,,,,7,10,150,4,1,0,1,0,,,,,0,16,16,16,,,,,,up,0.5837715497268618,1994.6634944840728,None,001,100,2019_Nov_13_1004,ACPT_experiment_5_30_19,3.1.0,59.95509965482558,
,,,C,G,g,v,L,U,y,L,u,,,,,7,10,150,4,1,0,1,0,,,,,0,17,17,24,,,,,,down,0.583769738603678,1996.531572257333,None,001,100,2019_Nov_13_1004,ACPT_experiment_5_30_19,3.1.0,59.95509965482558,
,,,C,G,g,v,R,U,y,L,u,,,,,7,10,150,4,1,0,1,0,,,,,0,18,18,30,,,,,,down,0.5837612866944255,1998.3996536528396,None,001,100,2019_Nov_13_1004,ACPT_experiment_5_30_19,3.1.0,59.95509965482558,
,,,C,G,g,v,R,D,g,L,i,,,,,7,10,150,4,1,0,1,0,,,,,0,19,19,2,,,,,,up,0.5170536886394075,2000.2677326335154,None,001,100,2019_Nov_13_1004,ACPT_experiment_5_30_19,3.1.0,59.95509965482558,
,,,C,G,g,v,R,G,d,L,i,,,,,7,10,150,4,1,0,1,0,,,,,0,20,20,4,,,,,,up,0.4802441152828578,2002.105900609775,None,001,100,2019_Nov_13_1004,ACPT_experiment_5_30_19,3.1.0,59.95509965482558,
,,,C,G,g,v,R,G,g,R,c ,,,,,7,10,150,4,1,0,1,0,,,,,0,21,21,7,,,,,,up,0.7338846996599386,2003.8704554763992,None,001,100,2019_Nov_13_1004,ACPT_experiment_5_30_19,3.1.0,59.95509965482558,
,,,C,G,g,v,L,D,d,R,c ,,,,,7,10,150,4,1,0,1,0,,,,,0,22,22,13,,,,,,up,0.7672410644458978,2005.8886488144233,None,001,100,2019_Nov_13_1004,ACPT_experiment_5_30_19,3.1.0,59.95509965482558,
,,,C,G,g,v,R,D,d,R,c ,,,,,7,10,150,4,1,0,1,0,,,,,0,23,23,1,,,,,,up,0.6338557518711241,2007.9401976116717,None,001,100,2019_Nov_13_1004,ACPT_experiment_5_30_19,3.1.0,59.95509965482558,
,,,C,G,g,v,R,U,y,R,u,,,,,7,10,150,4,1,0,1,0,,,,,0,24,24,31,,,,,,down,0.7172087811713936,2009.85831340343,None,001,100,2019_Nov_13_1004,ACPT_experiment_5_30_19,3.1.0,59.95509965482558,
,,,C,G,g,v,L,U,g,L,u,,,,,7,10,150,4,1,0,1,0,,,,,0,25,25,22,,,,,,up,0.7171988199925181,2011.8598323322346,None,001,100,2019_Nov_13_1004,ACPT_experiment_5_30_19,3.1.0,59.95509965482558,
,,,C,G,g,v,R,G,d,R,i,,,,,7,10,150,4,1,0,1,0,,,,,0,26,26,5,,,,,,up,0.7505690700577361,2013.8613406961533,None,001,100,2019_Nov_13_1004,ACPT_experiment_5_30_19,3.1.0,59.95509965482558,
,,,C,G,g,v,R,U,d,L,u,,,,,7,10,150,4,1,0,1,0,,,,,0,27,27,8,,,,,,up,0.8173041368168015,2015.896189728455,None,001,100,2019_Nov_13_1004,ACPT_experiment_5_30_19,3.1.0,59.95509965482558,
,,,C,G,g,v,R,D,d,L,c,,,,,7,10,150,4,1,0,1,0,,,,,0,28,28,0,,,,,,up,0.6838409459373906,2017.9978022017829,None,001,100,2019_Nov_13_1004,ACPT_experiment_5_30_19,3.1.0,59.95509965482558,
,,,C,G,g,v,R,U,d,R,u,,,,,7,10,150,4,1,0,1,0,,,,,0,29,29,9,,,,,,up,0.6338349239522358,2019.9659291470423,None,001,100,2019_Nov_13_1004,ACPT_experiment_5_30_19,3.1.0,59.95509965482558,
,,,C,G,g,v,L,G,g,R,c ,,,,,7,10,150,4,1,0,1,0,,,,,0,30,30,19,,,,,,up,0.9007329314449635,2021.8840745204823,None,001,100,2019_Nov_13_1004,ACPT_experiment_5_30_19,3.1.0,59.95509965482558,
,,,C,G,g,v,L,D,g,R,i,,,,,7,10,150,4,1,0,1,0,,,,,0,31,31,15,,,,,,up,0.5170796480742865,2024.0690342878859,None,001,100,2019_Nov_13_1004,ACPT_experiment_5_30_19,3.1.0,59.95509965482558,
,,,C,G,g,v,R,D,g,R,i,,,,,7,10,150,4,1,0,1,0,,,,,0,32,32,3,,,,,,up,0.41699546102290697,2025.8704174428083,None,001,100,2019_Nov_13_1004,ACPT_experiment_5_30_19,3.1.0,59.95509965482558,
,,,C,G,g,v,L,U,y,R,u,,,,,7,10,150,4,1,0,1,0,,,,,0,33,33,25,,,,,,down,0.5170395015061331,2027.6050797181044,None,001,100,2019_Nov_13_1004,ACPT_experiment_5_30_19,3.1.0,59.95509965482558,
,,,C,G,g,v,L,G,y,R,y,,,,,7,10,150,4,1,0,1,0,,,,,0,34,34,35,,,,,,down,0.4336574942326479,2029.4231077005645,None,001,100,2019_Nov_13_1004,ACPT_experiment_5_30_19,3.1.0,59.95509965482558,
,,,C,G,g,v,L,U,d,R,u,,,,,7,10,150,4,1,0,1,0,,,,,0,35,35,21,,,,,,up,0.583766418210871,2031.141076549846,None,001,100,2019_Nov_13_1004,ACPT_experiment_5_30_19,3.1.0,59.95509965482558,
,,,C,G,g,v,L,G,d,R,i,,,,,7,10,150,4,1,0,1,0,,,,,1,0,36,17,,,,,,up,0.9006807107211898,2033.0091534175447,None,001,100,2019_Nov_13_1004,ACPT_experiment_5_30_19,3.1.0,59.95509965482558,
,,,C,G,g,v,L,D,d,R,c ,,,,,7,10,150,4,1,0,1,0,,,,,1,1,37,13,,,,,,up,0.6168375310649026,2035.2110957869947,None,001,100,2019_Nov_13_1004,ACPT_experiment_5_30_19,3.1.0,59.95509965482558,
,,,C,G,g,v,R,G,d,L,i,,,,,7,10,150,4,1,0,1,0,,,,,1,2,38,4,,,,,,up,0.650492127499092,2037.1122528231638,None,001,100,2019_Nov_13_1004,ACPT_experiment_5_30_19,3.1.0,59.95509965482558,
,,,C,G,g,v,L,D,y,L,y,,,,,7,10,150,4,1,0,1,0,,,,,1,3,39,32,,,,,,down,0.6004474682158616,2039.0470517779042,None,001,100,2019_Nov_13_1004,ACPT_experiment_5_30_19,3.1.0,59.95509965482558,
,,,C,G,g,v,L,D,d,L,c ,,,,,7,10,150,4,1,0,1,0,,,,,1,4,40,12,,,,,,up,0.5504115626949897,2040.9318127141466,None,001,100,2019_Nov_13_1004,ACPT_experiment_5_30_19,3.1.0,59.95509965482558,
,,,C,G,g,v,R,D,g,R,i,,,,,7,10,150,4,1,0,1,0,,,,,1,5,41,3,,,,,,up,0.7005331645364095,2042.7665289911045,None,001,100,2019_Nov_13_1004,ACPT_experiment_5_30_19,3.1.0,59.95509965482558,
,,,C,G,g,v,L,G,g,L,c ,,,,,7,10,150,4,1,0,1,0,,,,,1,6,42,18,,,,,,up,0.6004411292838086,2044.7513653606354,None,001,100,2019_Nov_13_1004,ACPT_experiment_5_30_19,3.1.0,59.95509965482558,
,,,C,G,g,v,R,D,y,R,y,,,,,7,10,150,4,1,0,1,0,,,,,1,7,43,27,,,,,,down,0.6004510904622293,2046.6361202597998,None,001,100,2019_Nov_13_1004,ACPT_experiment_5_30_19,3.1.0,59.95509965482558,
,,,C,G,g,v,R,U,y,R,u,,,,,7,10,150,4,1,0,1,0,,,,,1,8,44,31,,,,,,down,0.5167814164251467,2048.521151053425,None,001,100,2019_Nov_13_1004,ACPT_experiment_5_30_19,3.1.0,59.95509965482558,
,,,C,G,g,v,L,U,d,L,u,,,,,7,10,150,4,1,0,1,0,,,,,1,9,45,20,,,,,,up,0.7005204866727581,2050.322244730461,None,001,100,2019_Nov_13_1004,ACPT_experiment_5_30_19,3.1.0,59.95509965482558,
,,,C,G,g,v,L,D,g,R,i,,,,,7,10,150,4,1,0,1,0,,,,,1,10,46,15,,,,,,up,0.6504839774443099,2052.307081099992,None,001,100,2019_Nov_13_1004,ACPT_experiment_5_30_19,3.1.0,59.95509965482558,
,,,C,G,g,v,L,U,g,R,u,,,,,7,10,150,4,1,0,1,0,,,,,1,11,47,23,,,,,,up,0.5004417631771503,2054.241872508385,None,001,100,2019_Nov_13_1004,ACPT_experiment_5_30_19,3.1.0,59.95509965482558,
,,,C,G,g,v,L,D,y,R,y,,,,,7,10,150,4,1,0,1,0,,,,,1,12,48,33,,,,,,down,0.4002908664142524,2056.026559520608,None,001,100,2019_Nov_13_1004,ACPT_experiment_5_30_19,3.1.0,59.95509965482558,
,,,C,G,g,v,R,G,g,L,c ,,,,,7,10,150,4,1,0,1,0,,,,,1,13,49,6,,,,,,up,0.7672431774226425,2057.711166873588,None,001,100,2019_Nov_13_1004,ACPT_experiment_5_30_19,3.1.0,59.95509965482558,
,,,C,G,g,v,R,D,y,L,y,,,,,7,10,150,4,1,0,1,0,,,,,1,14,50,26,,,,,,down,0.7005256181892037,2059.762717481959,None,001,100,2019_Nov_13_1004,ACPT_experiment_5_30_19,3.1.0,59.95509965482558,
,,,C,G,g,v,R,G,g,R,c ,,,,,7,10,150,4,1,0,1,0,,,,,1,15,51,7,,,,,,up,0.7002521385597902,2061.764500231069,None,001,100,2019_Nov_13_1004,ACPT_experiment_5_30_19,3.1.0,59.95509965482558,
,,,C,G,g,v,R,G,y,L,y,,,,,7,10,150,4,1,0,1,0,,,,,1,16,52,28,,,,,,down,0.6671635181796773,2063.7490625172622,None,001,100,2019_Nov_13_1004,ACPT_experiment_5_30_19,3.1.0,59.95509965482558,
,,,C,G,g,v,R,U,y,L,u,,,,,7,10,150,4,1,0,1,0,,,,,1,17,53,30,,,,,,down,0.6338337165370831,2065.717189764376,None,001,100,2019_Nov_13_1004,ACPT_experiment_5_30_19,3.1.0,59.95509965482558,
,,,C,G,g,v,R,U,d,R,u,,,,,7,10,150,4,1,0,1,0,,,,,1,18,54,9,,,,,,up,0.6838669053727244,2067.6186299394994,None,001,100,2019_Nov_13_1004,ACPT_experiment_5_30_19,3.1.0,59.95509965482558,
,,,C,G,g,v,R,U,d,L,u,,,,,7,10,150,4,1,0,1,0,,,,,1,19,55,8,,,,,,up,0.5672622545889681,2069.5699792415076,None,001,100,2019_Nov_13_1004,ACPT_experiment_5_30_19,3.1.0,59.95509965482558,
,,,C,G,g,v,L,G,g,R,c ,,,,,7,10,150,4,1,0,1,0,,,,,1,20,56,19,,,,,,up,0.8339550014325141,2071.421529306542,None,001,100,2019_Nov_13_1004,ACPT_experiment_5_30_19,3.1.0,59.95509965482558,
,,,C,G,g,v,R,D,g,L,i,,,,,7,10,150,4,1,0,1,0,,,,,1,21,57,2,,,,,,up,0.6671946091305472,2073.5397736276896,None,001,100,2019_Nov_13_1004,ACPT_experiment_5_30_19,3.1.0,59.95509965482558,
,,,C,G,g,v,R,U,g,L,u,,,,,7,10,150,4,1,0,1,0,,,,,1,22,58,10,,,,,,up,0.5003780720044233,2075.491274762207,None,001,100,2019_Nov_13_1004,ACPT_experiment_5_30_19,3.1.0,59.95509965482558,
,,,C,G,g,v,R,D,d,L,c,,,,,7,10,150,4,1,0,1,0,,,,,1,23,59,0,,,,,,up,0.6671692534036993,2077.27595634106,None,001,100,2019_Nov_13_1004,ACPT_experiment_5_30_19,3.1.0,59.95509965482558,
,,,C,G,g,v,L,U,y,R,u,,,,,7,10,150,4,1,0,1,0,,,,,1,24,60,25,,,,,,down,0.783926642258848,2079.2274318179966,None,001,100,2019_Nov_13_1004,ACPT_experiment_5_30_19,3.1.0,59.95509965482558,
,,,C,G,g,v,L,U,g,L,u,,,,,7,10,150,4,1,0,1,0,,,,,1,25,61,22,,,,,,up,0.8840008681318068,2081.2956613633955,None,001,100,2019_Nov_13_1004,ACPT_experiment_5_30_19,3.1.0,59.95509965482558,
,,,C,G,g,v,L,D,g,L,i,,,,,7,10,150,4,1,0,1,0,,,,,1,26,62,14,,,,,,up,0.550441446230252,2083.4639690587683,None,001,100,2019_Nov_13_1004,ACPT_experiment_5_30_19,3.1.0,59.95509965482558,
,,,C,G,g,v,L,U,y,L,u,,,,,7,10,150,4,1,0,1,0,,,,,1,27,63,24,,,,,,down,0.6671635181796773,2085.2986946931974,None,001,100,2019_Nov_13_1004,ACPT_experiment_5_30_19,3.1.0,59.95509965482558,
,,,C,G,g,v,L,G,y,R,y,,,,,7,10,150,4,1,0,1,0,,,,,1,28,64,35,,,,,,down,1.2676236642587355,2087.2501656423256,None,001,100,2019_Nov_13_1004,ACPT_experiment_5_30_19,3.1.0,59.95509965482558,
,,,C,G,g,v,R,U,g,R,u,,,,,7,10,150,4,1,0,1,0,,,,,1,29,65,11,,,,,,up,0.6671692534032445,2089.8020967375332,None,001,100,2019_Nov_13_1004,ACPT_experiment_5_30_19,3.1.0,59.95509965482558,
,,,C,G,g,v,R,G,d,R,i,,,,,7,10,150,4,1,0,1,0,,,,,1,30,66,5,,,,,,up,0.7338856052219853,2091.7535731200314,None,001,100,2019_Nov_13_1004,ACPT_experiment_5_30_19,3.1.0,59.95509965482558,
,,,C,G,g,v,L,U,d,R,u,,,,,7,10,150,4,1,0,1,0,,,,,1,31,67,21,,,,,,up,0.8840084144794673,2093.771760420978,None,001,100,2019_Nov_13_1004,ACPT_experiment_5_30_19,3.1.0,59.95509965482558,
,,,C,G,g,v,R,D,d,R,c ,,,,,7,10,150,4,1,0,1,0,,,,,1,32,68,1,,,,,,up,0.5003934665533052,2095.9233695588196,None,001,100,2019_Nov_13_1004,ACPT_experiment_5_30_19,3.1.0,59.95509965482558,
,,,C,G,g,v,R,G,y,R,y,,,,,7,10,150,4,1,0,1,0,,,,,1,33,69,29,,,,,,down,0.533741983138043,2097.7080716637374,None,001,100,2019_Nov_13_1004,ACPT_experiment_5_30_19,3.1.0,59.95509965482558,
,,,C,G,g,v,L,G,y,L,y,,,,,7,10,150,4,1,0,1,0,,,,,1,34,70,34,,,,,,down,0.6171490442852701,2099.52609209985,None,001,100,2019_Nov_13_1004,ACPT_experiment_5_30_19,3.1.0,59.95509965482558,
,,,C,G,g,v,L,G,d,L,i,,,,,7,10,150,4,1,0,1,0,,,,,1,35,71,16,,,,,,up,0.6671722719424906,2101.427550989915,None,001,100,2019_Nov_13_1004,ACPT_experiment_5_30_19,3.1.0,59.95509965482558,
,,,C,G,g,v,,,,,,,,,,7,10,150,4,2,0,2,0,0,0,0,0,,,,,,,,,,,,,,001,100,2019_Nov_13_1004,ACPT_experiment_5_30_19,3.1.0,59.95509965482558,
,,,C,G,g,v,R,U,g,R,u,,,,,7,10,150,4,2,0,2,0,,,,,0,0,0,11,,,,,,up,0.5637655790569625,2108.1693074354766,None,001,100,2019_Nov_13_1004,ACPT_experiment_5_30_19,3.1.0,59.95509965482558,
,,,C,G,g,v,L,U,y,R,u,,,,,7,10,150,4,2,0,2,0,,,,,0,1,1,25,,,,,,down,0.5837727571424693,2110.0173798417745,None,001,100,2019_Nov_13_1004,ACPT_experiment_5_30_19,3.1.0,59.95509965482558,
,,,C,G,g,v,R,G,d,L,i,,,,,7,10,150,4,2,0,2,0,,,,,0,2,2,4,,,,,,up,0.600447166361846,2111.88545882245,None,001,100,2019_Nov_13_1004,ACPT_experiment_5_30_19,3.1.0,59.95509965482558,
,,,C,G,g,v,R,U,y,R,u,,,,,7,10,150,4,2,0,2,0,,,,,0,3,3,31,,,,,,down,0.7505624292716675,2113.770220060546,None,001,100,2019_Nov_13_1004,ACPT_experiment_5_30_19,3.1.0,59.95509965482558,
,,,C,G,g,v,R,U,d,R,u,,,,,7,10,150,4,2,0,2,0,,,,,0,4,4,9,,,,,,up,0.600388304851549,2115.8051548193544,None,001,100,2019_Nov_13_1004,ACPT_experiment_5_30_19,3.1.0,59.95509965482558,
,,,C,G,g,v,R,U,d,L,u,,,,,7,10,150,4,2,0,2,0,,,,,0,5,5,8,,,,,,up,0.6004299606897803,2117.6898626293105,None,001,100,2019_Nov_13_1004,ACPT_experiment_5_30_19,3.1.0,59.95509965482558,
,,,C,G,g,v,R,D,g,L,i,,,,,7,10,150,4,2,0,2,0,,,,,0,6,6,2,,,,,,up,0.5337362479140211,2119.574605756173,None,001,100,2019_Nov_13_1004,ACPT_experiment_5_30_19,3.1.0,59.95509965482558,
,,,C,G,g,v,L,U,g,R,u,,,,,7,10,150,4,2,0,2,0,,,,,0,7,7,23,,,,,,up,0.7169500923823762,2121.4095816274817,None,001,100,2019_Nov_13_1004,ACPT_experiment_5_30_19,3.1.0,59.95509965482558,
,,,C,G,g,v,L,U,d,R,u,,,,,7,10,150,4,2,0,2,0,,,,,0,8,8,21,,,,,,up,0.600443242261008,2123.394164137886,None,001,100,2019_Nov_13_1004,ACPT_experiment_5_30_19,3.1.0,59.95509965482558,
,,,C,G,g,v,L,D,g,R,i,,,,,7,10,150,4,2,0,2,0,,,,,0,9,9,15,,,,,,up,0.5837715497268618,2125.2789181314884,None,001,100,2019_Nov_13_1004,ACPT_experiment_5_30_19,3.1.0,59.95509965482558,
,,,C,G,g,v,L,D,g,L,i,,,,,7,10,150,4,2,0,2,0,,,,,0,10,10,14,,,,,,up,0.5170745165582957,2127.130299158341,None,001,100,2019_Nov_13_1004,ACPT_experiment_5_30_19,3.1.0,59.95509965482558,
,,,C,G,g,v,R,U,g,L,u,,,,,7,10,150,4,2,0,2,0,,,,,0,11,11,10,,,,,,up,0.43365357013180983,2128.9316844262407,None,001,100,2019_Nov_13_1004,ACPT_experiment_5_30_19,3.1.0,59.95509965482558,
,,,C,G,g,v,R,G,y,L,y,,,,,7,10,150,4,2,0,2,0,,,,,0,12,12,28,,,,,,down,0.6170183415479187,2130.6496448236135,None,001,100,2019_Nov_13_1004,ACPT_experiment_5_30_19,3.1.0,59.95509965482558,
,,,C,G,g,v,R,D,y,R,y,,,,,7,10,150,4,2,0,2,0,,,,,0,13,13,27,,,,,,down,0.6004610516406501,2132.5510795653668,None,001,100,2019_Nov_13_1004,ACPT_experiment_5_30_19,3.1.0,59.95509965482558,
,,,C,G,g,v,R,D,d,L,c,,,,,7,10,150,4,2,0,2,0,,,,,0,14,14,0,,,,,,up,0.5001048942290254,2134.4361121701154,None,001,100,2019_Nov_13_1004,ACPT_experiment_5_30_19,3.1.0,59.95509965482558,
,,,C,G,g,v,R,U,y,L,u,,,,,7,10,150,4,2,0,2,0,,,,,0,15,15,30,,,,,,down,0.5337407757224355,2136.220521476754,None,001,100,2019_Nov_13_1004,ACPT_experiment_5_30_19,3.1.0,59.95509965482558,
,,,C,G,g,v,L,G,g,R,c ,,,,,7,10,150,4,2,0,2,0,,,,,0,16,16,19,,,,,,up,0.6337959847996899,2138.0385742112335,None,001,100,2019_Nov_13_1004,ACPT_experiment_5_30_19,3.1.0,59.95509965482558,
,,,C,G,g,v,L,G,y,R,y,,,,,7,10,150,4,2,0,2,0,,,,,0,17,17,35,,,,,,down,0.5837682293345097,2139.9733683363115,None,001,100,2019_Nov_13_1004,ACPT_experiment_5_30_19,3.1.0,59.95509965482558,
,,,C,G,g,v,L,G,y,L,y,,,,,7,10,150,4,2,0,2,0,,,,,0,18,18,34,,,,,,down,0.7172187423502692,2141.8581002945793,None,001,100,2019_Nov_13_1004,ACPT_experiment_5_30_19,3.1.0,59.95509965482558,
,,,C,G,g,v,R,D,d,R,c ,,,,,7,10,150,4,2,0,2,0,,,,,0,19,19,1,,,,,,up,0.6504900145218926,2143.8596346179334,None,001,100,2019_Nov_13_1004,ACPT_experiment_5_30_19,3.1.0,59.95509965482558,
,,,C,G,g,v,L,G,g,L,c ,,,,,7,10,150,4,2,0,2,0,,,,,0,20,20,18,,,,,,up,0.8006107108026299,2145.794434478235,None,001,100,2019_Nov_13_1004,ACPT_experiment_5_30_19,3.1.0,59.95509965482558,
,,,C,G,g,v,L,D,d,R,c ,,,,,7,10,150,4,2,0,2,0,,,,,0,21,21,13,,,,,,up,0.6337996070465124,2147.87935292184,None,001,100,2019_Nov_13_1004,ACPT_experiment_5_30_19,3.1.0,59.95509965482558,
,,,C,G,g,v,R,G,d,R,i,,,,,7,10,150,4,2,0,2,0,,,,,0,22,22,5,,,,,,up,0.5504317869058468,2149.7974391319167,None,001,100,2019_Nov_13_1004,ACPT_experiment_5_30_19,3.1.0,59.95509965482558,
,,,C,G,g,v,L,U,d,L,u,,,,,7,10,150,4,2,0,2,0,,,,,0,23,23,20,,,,,,up,0.5504456721846509,2151.632181670164,None,001,100,2019_Nov_13_1004,ACPT_experiment_5_30_19,3.1.0,59.95509965482558,
,,,C,G,g,v,L,U,y,L,u,,,,,7,10,150,4,2,0,2,0,,,,,0,24,24,24,,,,,,down,0.6668945663582235,2153.500526584122,None,001,100,2019_Nov_13_1004,ACPT_experiment_5_30_19,3.1.0,59.95509965482558,
,,,C,G,g,v,L,G,d,R,i,,,,,7,10,150,4,2,0,2,0,,,,,0,25,25,17,,,,,,up,0.5170606312790369,2155.468412046265,None,001,100,2019_Nov_13_1004,ACPT_experiment_5_30_19,3.1.0,59.95509965482558,
,,,C,G,g,v,L,D,y,L,y,,,,,7,10,150,4,2,0,2,0,,,,,0,26,26,32,,,,,,down,0.8172730458654769,2157.2864554232733,None,001,100,2019_Nov_13_1004,ACPT_experiment_5_30_19,3.1.0,59.95509965482558,
,,,C,G,g,v,L,D,y,R,y,,,,,7,10,150,4,2,0,2,0,,,,,0,27,27,33,,,,,,down,0.8339637551953274,2159.404724194586,None,001,100,2019_Nov_13_1004,ACPT_experiment_5_30_19,3.1.0,59.95509965482558,
,,,C,G,g,v,R,G,y,R,y,,,,,7,10,150,4,2,0,2,0,,,,,0,28,28,29,,,,,,down,0.683812269817281,2161.539693636407,None,001,100,2019_Nov_13_1004,ACPT_experiment_5_30_19,3.1.0,59.95509965482558,
,,,C,G,g,v,L,U,g,L,u,,,,,7,10,150,4,2,0,2,0,,,,,0,29,29,22,,,,,,up,0.6671764978968895,2163.5245040465024,None,001,100,2019_Nov_13_1004,ACPT_experiment_5_30_19,3.1.0,59.95509965482558,
,,,C,G,g,v,L,G,d,L,i,,,,,7,10,150,4,2,0,2,0,,,,,0,30,30,16,,,,,,up,0.8172845163139755,2165.475980127147,None,001,100,2019_Nov_13_1004,ACPT_experiment_5_30_19,3.1.0,59.95509965482558,
,,,C,G,g,v,R,G,g,L,c ,,,,,7,10,150,4,2,0,2,0,,,,,0,31,31,6,,,,,,up,0.5837582681556341,2167.5775814318804,None,001,100,2019_Nov_13_1004,ACPT_experiment_5_30_19,3.1.0,59.95509965482558,
,,,C,G,g,v,R,G,g,R,c ,,,,,7,10,150,4,2,0,2,0,,,,,0,32,32,7,,,,,,up,0.5170561034706225,2169.4456471309845,None,001,100,2019_Nov_13_1004,ACPT_experiment_5_30_19,3.1.0,59.95509965482558,
,,,C,G,g,v,R,D,y,L,y,,,,,7,10,150,4,2,0,2,0,,,,,0,33,33,26,,,,,,down,0.8006221812506737,2171.2470124765273,None,001,100,2019_Nov_13_1004,ACPT_experiment_5_30_19,3.1.0,59.95509965482558,
,,,C,G,g,v,L,D,d,L,c ,,,,,7,10,150,4,2,0,2,0,,,,,0,34,34,12,,,,,,up,0.9006752773507287,2173.3319218645156,None,001,100,2019_Nov_13_1004,ACPT_experiment_5_30_19,3.1.0,59.95509965482558,
,,,C,G,g,v,R,D,g,R,i,,,,,7,10,150,4,2,0,2,0,,,,,0,35,35,3,,,,,,up,0.500371733072825,2175.516911213601,None,001,100,2019_Nov_13_1004,ACPT_experiment_5_30_19,3.1.0,59.95509965482558,
,,,C,G,g,v,R,G,y,R,y,,,,,7,10,150,4,2,0,2,0,,,,,1,0,36,29,,,,,,down,0.6172139428731498,2177.3015900757687,None,001,100,2019_Nov_13_1004,ACPT_experiment_5_30_19,3.1.0,59.95509965482558,
,,,C,G,g,v,L,U,d,L,u,,,,,7,10,150,4,2,0,2,0,,,,,1,1,37,20,,,,,,up,1.0841514328549238,2179.203027534207,None,001,100,2019_Nov_13_1004,ACPT_experiment_5_30_19,3.1.0,59.95509965482558,
,,,C,G,g,v,R,D,d,R,c ,,,,,7,10,150,4,2,0,2,0,,,,,1,2,38,1,,,,,,up,0.517054896055015,2181.5714863980106,None,001,100,2019_Nov_13_1004,ACPT_experiment_5_30_19,3.1.0,59.95509965482558,
,,,C,G,g,v,L,U,d,R,u,,,,,7,10,150,4,2,0,2,0,,,,,1,3,39,21,,,,,,up,0.5003895424529219,2183.372824576703,None,001,100,2019_Nov_13_1004,ACPT_experiment_5_30_19,3.1.0,59.95509965482558,
,,,C,G,g,v,R,U,d,L,u,,,,,7,10,150,4,2,0,2,0,,,,,1,4,40,8,,,,,,up,1.0174574182256038,2185.1575016277475,None,001,100,2019_Nov_13_1004,ACPT_experiment_5_30_19,3.1.0,59.95509965482558,
,,,C,G,g,v,R,U,d,R,u,,,,,7,10,150,4,2,0,2,0,,,,,1,5,41,9,,,,,,up,0.6171490442852701,2187.4425887473094,None,001,100,2019_Nov_13_1004,ACPT_experiment_5_30_19,3.1.0,59.95509965482558,
,,,C,G,g,v,L,U,g,R,u,,,,,7,10,150,4,2,0,2,0,,,,,1,6,42,23,,,,,,up,0.7505862757298019,2189.3440044722674,None,001,100,2019_Nov_13_1004,ACPT_experiment_5_30_19,3.1.0,59.95509965482558,
,,,C,G,g,v,R,D,d,L,c,,,,,7,10,150,4,2,0,2,0,,,,,1,7,43,0,,,,,,up,0.6838403422298143,2191.3789036123158,None,001,100,2019_Nov_13_1004,ACPT_experiment_5_30_19,3.1.0,59.95509965482558,
,,,C,G,g,v,R,D,y,L,y,,,,,7,10,150,4,2,0,2,0,,,,,1,8,44,26,,,,,,down,0.9006792014515668,2193.3470547058873,None,001,100,2019_Nov_13_1004,ACPT_experiment_5_30_19,3.1.0,59.95509965482558,
,,,C,G,g,v,L,D,g,L,i,,,,,7,10,150,4,2,0,2,0,,,,,1,9,45,14,,,,,,up,0.8173083627716551,2195.5320126621673,None,001,100,2019_Nov_13_1004,ACPT_experiment_5_30_19,3.1.0,59.95509965482558,
,,,C,G,g,v,R,D,g,R,i,,,,,7,10,150,4,2,0,2,0,,,,,1,10,46,3,,,,,,up,0.5837763793892918,2197.633627550326,None,001,100,2019_Nov_13_1004,ACPT_experiment_5_30_19,3.1.0,59.95509965482558,
,,,C,G,g,v,R,U,g,L,u,,,,,7,10,150,4,2,0,2,0,,,,,1,11,47,10,,,,,,up,0.500390146160953,2199.485004653078,None,001,100,2019_Nov_13_1004,ACPT_experiment_5_30_19,3.1.0,59.95509965482558,
,,,C,G,g,v,L,G,y,R,y,,,,,7,10,150,4,2,0,2,0,,,,,1,12,48,35,,,,,,down,0.6338041348549268,2201.2697140024893,None,001,100,2019_Nov_13_1004,ACPT_experiment_5_30_19,3.1.0,59.95509965482558,
,,,C,G,g,v,L,G,d,R,i,,,,,7,10,150,4,2,0,2,0,,,,,1,13,49,17,,,,,,up,0.6171236885579674,2203.187828586832,None,001,100,2019_Nov_13_1004,ACPT_experiment_5_30_19,3.1.0,59.95509965482558,
,,,C,G,g,v,L,D,g,R,i,,,,,7,10,150,4,2,0,2,0,,,,,1,14,50,15,,,,,,up,0.5003702238036567,2205.089272686056,None,001,100,2019_Nov_13_1004,ACPT_experiment_5_30_19,3.1.0,59.95509965482558,
,,,C,G,g,v,L,U,g,L,u,,,,,7,10,150,4,2,0,2,0,,,,,1,15,51,22,,,,,,up,0.6838333995901849,2206.873945511146,None,001,100,2019_Nov_13_1004,ACPT_experiment_5_30_19,3.1.0,59.95509965482558,
,,,C,G,g,v,L,D,d,L,c ,,,,,7,10,150,4,2,0,2,0,,,,,1,16,52,12,,,,,,up,0.5170413126297717,2208.8587906344396,None,001,100,2019_Nov_13_1004,ACPT_experiment_5_30_19,3.1.0,59.95509965482558,
,,,C,G,g,v,L,U,y,R,u,,,,,7,10,150,4,2,0,2,0,,,,,1,17,53,25,,,,,,down,0.7172290053822508,2210.6601221723463,None,001,100,2019_Nov_13_1004,ACPT_experiment_5_30_19,3.1.0,59.95509965482558,
,,,C,G,g,v,L,G,g,L,c ,,,,,7,10,150,4,2,0,2,0,,,,,1,18,54,18,,,,,,up,0.6838503034086898,2212.661658608677,None,001,100,2019_Nov_13_1004,ACPT_experiment_5_30_19,3.1.0,59.95509965482558,
,,,C,G,g,v,L,G,y,L,y,,,,,7,10,150,4,2,0,2,0,,,,,1,19,55,34,,,,,,down,0.6004695035499026,2214.629811513372,None,001,100,2019_Nov_13_1004,ACPT_experiment_5_30_19,3.1.0,59.95509965482558,
,,,C,G,g,v,R,D,y,R,y,,,,,7,10,150,4,2,0,2,0,,,,,1,20,56,27,,,,,,down,0.7338801718515242,2216.514573355176,None,001,100,2019_Nov_13_1004,ACPT_experiment_5_30_19,3.1.0,59.95509965482558,
,,,C,G,g,v,R,G,g,R,c ,,,,,7,10,150,4,2,0,2,0,,,,,1,21,57,7,,,,,,up,0.7005159588647984,2218.5327757488167,None,001,100,2019_Nov_13_1004,ACPT_experiment_5_30_19,3.1.0,59.95509965482558,
,,,C,G,g,v,L,G,d,L,i,,,,,7,10,150,4,2,0,2,0,,,,,1,22,58,16,,,,,,up,0.600452901585868,2220.517598836776,None,001,100,2019_Nov_13_1004,ACPT_experiment_5_30_19,3.1.0,59.95509965482558,
,,,C,G,g,v,R,G,y,L,y,,,,,7,10,150,4,2,0,2,0,,,,,1,23,59,28,,,,,,down,0.650496957161522,2222.402354037794,None,001,100,2019_Nov_13_1004,ACPT_experiment_5_30_19,3.1.0,59.95509965482558,
,,,C,G,g,v,L,U,y,L,u,,,,,7,10,150,4,2,0,2,0,,,,,1,24,60,24,,,,,,down,0.5337425868456194,2224.320467414721,None,001,100,2019_Nov_13_1004,ACPT_experiment_5_30_19,3.1.0,59.95509965482558,
,,,C,G,g,v,L,D,d,R,c ,,,,,7,10,150,4,2,0,2,0,,,,,1,25,61,13,,,,,,up,0.7338850015139542,2226.1385113954375,None,001,100,2019_Nov_13_1004,ACPT_experiment_5_30_19,3.1.0,59.95509965482558,
,,,C,G,g,v,R,U,y,R,u,,,,,7,10,150,4,2,0,2,0,,,,,1,26,62,31,,,,,,down,0.8504395445506816,2228.190231041991,None,001,100,2019_Nov_13_1004,ACPT_experiment_5_30_19,3.1.0,59.95509965482558,
,,,C,G,g,v,R,D,g,L,i,,,,,7,10,150,4,2,0,2,0,,,,,1,27,63,2,,,,,,up,0.7005570109945438,2230.3416977047937,None,001,100,2019_Nov_13_1004,ACPT_experiment_5_30_19,3.1.0,59.95509965482558,
,,,C,G,g,v,R,G,d,R,i,,,,,7,10,150,4,2,0,2,0,,,,,1,28,64,5,,,,,,up,0.6004483737769988,2232.326526527977,None,001,100,2019_Nov_13_1004,ACPT_experiment_5_30_19,3.1.0,59.95509965482558,
,,,C,G,g,v,L,G,g,R,c ,,,,,7,10,150,4,2,0,2,0,,,,,1,29,65,19,,,,,,up,0.46701385901769754,2234.2112862568038,None,001,100,2019_Nov_13_1004,ACPT_experiment_5_30_19,3.1.0,59.95509965482558,
,,,C,G,g,v,L,D,y,R,y,,,,,7,10,150,4,2,0,2,0,,,,,1,30,66,33,,,,,,down,0.5833574061816762,2235.9796755734696,None,001,100,2019_Nov_13_1004,ACPT_experiment_5_30_19,3.1.0,59.95509965482558,
,,,C,G,g,v,R,G,g,L,c ,,,,,7,10,150,4,2,0,2,0,,,,,1,31,67,6,,,,,,up,0.6004646738874726,2237.8473666718887,None,001,100,2019_Nov_13_1004,ACPT_experiment_5_30_19,3.1.0,59.95509965482558,
,,,C,G,g,v,L,D,y,L,y,,,,,7,10,150,4,2,0,2,0,,,,,1,32,68,32,,,,,,down,0.6004758424819556,2239.7320977245954,None,001,100,2019_Nov_13_1004,ACPT_experiment_5_30_19,3.1.0,59.95509965482558,
,,,C,G,g,v,R,U,g,R,u,,,,,7,10,150,4,2,0,2,0,,,,,1,33,69,11,,,,,,up,0.6171369701296499,2241.6168800924643,None,001,100,2019_Nov_13_1004,ACPT_experiment_5_30_19,3.1.0,59.95509965482558,
,,,C,G,g,v,R,U,y,L,u,,,,,7,10,150,4,2,0,2,0,,,,,1,34,70,30,,,,,,down,0.667167744134531,2243.518322078711,None,001,100,2019_Nov_13_1004,ACPT_experiment_5_30_19,3.1.0,59.95509965482558,
,,,C,G,g,v,R,G,d,L,i,,,,,7,10,150,4,2,0,2,0,,,,,1,35,71,4,,,,,,up,0.7172087811713936,2245.4697948389626,None,001,100,2019_Nov_13_1004,ACPT_experiment_5_30_19,3.1.0,59.95509965482558,
,,,C,G,g,v,,,,,,,,,,7,10,150,4,3,0,3,0,0,0,0,0,,,,,,,,,,,,,,001,100,2019_Nov_13_1004,ACPT_experiment_5_30_19,3.1.0,59.95509965482558,
,,,C,G,g,v,R,G,g,L,c ,,,,,7,10,150,4,3,0,3,0,,,,,0,0,0,6,,,,,,up,0.7502998163822667,2255.911294497415,None,001,100,2019_Nov_13_1004,ACPT_experiment_5_30_19,3.1.0,59.95509965482558,
,,,C,G,g,v,R,U,d,R,u,,,,,7,10,150,4,3,0,3,0,,,,,0,1,1,9,,,,,,up,0.7672464978154494,2257.9458969150837,None,001,100,2019_Nov_13_1004,ACPT_experiment_5_30_19,3.1.0,59.95509965482558,
,,,C,G,g,v,L,D,y,R,y,,,,,7,10,150,4,3,0,3,0,,,,,0,2,2,33,,,,,,down,0.4670147645797442,2260.0141300827295,None,001,100,2019_Nov_13_1004,ACPT_experiment_5_30_19,3.1.0,59.95509965482558,
,,,C,G,g,v,L,U,d,R,u,,,,,7,10,150,4,3,0,3,0,,,,,0,3,3,21,,,,,,up,0.5170545942009994,2261.76545016528,None,001,100,2019_Nov_13_1004,ACPT_experiment_5_30_19,3.1.0,59.95509965482558,
,,,C,G,g,v,L,D,d,R,c ,,,,,7,10,150,4,3,0,3,0,,,,,0,4,4,13,,,,,,up,0.4003228629271689,2263.55010518099,None,001,100,2019_Nov_13_1004,ACPT_experiment_5_30_19,3.1.0,59.95509965482558,
,,,C,G,g,v,R,G,g,R,c ,,,,,7,10,150,4,3,0,3,0,,,,,0,5,5,7,,,,,,up,0.5170485571234167,2265.2347608305936,None,001,100,2019_Nov_13_1004,ACPT_experiment_5_30_19,3.1.0,59.95509965482558,
,,,C,G,g,v,R,G,y,R,y,,,,,7,10,150,4,3,0,3,0,,,,,0,6,6,29,,,,,,down,0.6671490291923874,2267.019442409446,None,001,100,2019_Nov_13_1004,ACPT_experiment_5_30_19,3.1.0,59.95509965482558,
,,,C,G,g,v,L,D,y,L,y,,,,,7,10,150,4,3,0,3,0,,,,,0,7,7,32,,,,,,down,0.7835064616351701,2268.987993761284,None,001,100,2019_Nov_13_1004,ACPT_experiment_5_30_19,3.1.0,59.95509965482558,
,,,C,G,g,v,L,G,y,L,y,,,,,7,10,150,4,3,0,3,0,,,,,0,8,8,34,,,,,,down,0.5335675115861704,2271.072662571717,None,001,100,2019_Nov_13_1004,ACPT_experiment_5_30_19,3.1.0,59.95509965482558,
,,,C,G,g,v,R,U,g,R,u,,,,,7,10,150,4,3,0,3,0,,,,,0,9,9,11,,,,,,up,0.617115840356746,2272.907214338302,None,001,100,2019_Nov_13_1004,ACPT_experiment_5_30_19,3.1.0,59.95509965482558,
,,,C,G,g,v,R,U,y,R,u,,,,,7,10,150,4,3,0,3,0,,,,,0,10,10,31,,,,,,down,0.667191288738195,2274.8086255354515,None,001,100,2019_Nov_13_1004,ACPT_experiment_5_30_19,3.1.0,59.95509965482558,
,,,C,G,g,v,L,G,g,L,c ,,,,,7,10,150,4,3,0,3,0,,,,,0,11,11,18,,,,,,up,0.7171951977456956,2276.793484544024,None,001,100,2019_Nov_13_1004,ACPT_experiment_5_30_19,3.1.0,59.95509965482558,
,,,C,G,g,v,R,U,d,L,u,,,,,7,10,150,4,3,0,3,0,,,,,0,12,12,8,,,,,,down,0.6338065496861418,2278.7949968320436,None,001,100,2019_Nov_13_1004,ACPT_experiment_5_30_19,3.1.0,59.95509965482558,
,,,C,G,g,v,L,G,y,R,y,,,,,7,10,150,4,3,0,3,0,,,,,0,13,13,35,,,,,,down,0.750568466349705,2280.713112020094,None,001,100,2019_Nov_13_1004,ACPT_experiment_5_30_19,3.1.0,59.95509965482558,
,,,C,G,g,v,R,G,y,L,y,,,,,7,10,150,4,3,0,3,0,,,,,0,14,14,28,,,,,,down,0.7338862089295617,2282.7313035469947,None,001,100,2019_Nov_13_1004,ACPT_experiment_5_30_19,3.1.0,59.95509965482558,
,,,C,G,g,v,R,G,d,R,i,,,,,7,10,150,4,3,0,3,0,,,,,0,15,15,5,,,,,,up,0.5337600943717007,2284.7327953089493,None,001,100,2019_Nov_13_1004,ACPT_experiment_5_30_19,3.1.0,59.95509965482558,
,,,C,G,g,v,L,U,y,R,u,,,,,7,10,150,4,3,0,3,0,,,,,0,16,16,25,,,,,,down,0.7005404090305092,2286.5508564953375,None,001,100,2019_Nov_13_1004,ACPT_experiment_5_30_19,3.1.0,59.95509965482558,
,,,C,G,g,v,L,U,y,L,u,,,,,7,10,150,4,3,0,3,0,,,,,0,17,17,24,,,,,,down,0.7173539728951255,2288.5188596805,None,001,100,2019_Nov_13_1004,ACPT_experiment_5_30_19,3.1.0,59.95509965482558,
,,,C,G,g,v,L,G,g,R,c ,,,,,7,10,150,4,3,0,3,0,,,,,0,18,18,19,,,,,,up,0.7839257366968013,2290.520527423276,None,001,100,2019_Nov_13_1004,ACPT_experiment_5_30_19,3.1.0,59.95509965482558,
,,,C,G,g,v,R,D,y,L,y,,,,,7,10,150,4,3,0,3,0,,,,,0,19,19,26,,,,,,down,0.8006291238903032,2292.6054437539037,None,001,100,2019_Nov_13_1004,ACPT_experiment_5_30_19,3.1.0,59.95509965482558,
,,,C,G,g,v,R,U,y,L,u,,,,,7,10,150,4,3,0,3,0,,,,,0,20,20,30,,,,,,down,0.5337268904427219,2294.7070266455494,None,001,100,2019_Nov_13_1004,ACPT_experiment_5_30_19,3.1.0,59.95509965482558,
,,,C,G,g,v,R,D,g,R,i,,,,,7,10,150,4,3,0,3,0,,,,,0,21,21,3,,,,,,up,0.5837706441652699,2296.525066098457,None,001,100,2019_Nov_13_1004,ACPT_experiment_5_30_19,3.1.0,59.95509965482558,
,,,C,G,g,v,L,D,g,L,i,,,,,7,10,150,4,3,0,3,0,,,,,0,22,22,14,,,,,,up,0.7172296090902819,2298.3931248549216,None,001,100,2019_Nov_13_1004,ACPT_experiment_5_30_19,3.1.0,59.95509965482558,
,,,C,G,g,v,L,D,d,L,c ,,,,,7,10,150,4,3,0,3,0,,,,,0,23,23,12,,,,,,up,0.7305594771410142,2300.4146633378223,None,001,100,2019_Nov_13_1004,ACPT_experiment_5_30_19,3.1.0,59.95509965482558,
,,,C,G,g,v,R,D,d,L,c,,,,,7,10,150,4,3,0,3,0,,,,,0,24,24,0,,,,,,up,1.067469477288796,2302.42952783108,None,001,100,2019_Nov_13_1004,ACPT_experiment_5_30_19,3.1.0,59.95509965482558,
,,,C,G,g,v,L,D,g,R,i,,,,,7,10,150,4,3,0,3,0,,,,,0,25,25,15,,,,,,up,0.5003666015568342,2304.781310172688,None,001,100,2019_Nov_13_1004,ACPT_experiment_5_30_19,3.1.0,59.95509965482558,
,,,C,G,g,v,R,D,y,R,y,,,,,7,10,150,4,3,0,3,0,,,,,0,26,26,27,,,,,,down,0.6672009480626002,2306.56599326081,None,001,100,2019_Nov_13_1004,ACPT_experiment_5_30_19,3.1.0,59.95509965482558,
,,,C,G,g,v,R,G,d,L,i,,,,,7,10,150,4,3,0,3,0,,,,,0,27,27,4,,,,,,up,0.5837685311880705,2308.5174696433087,None,001,100,2019_Nov_13_1004,ACPT_experiment_5_30_19,3.1.0,59.95509965482558,
,,,C,G,g,v,L,G,d,R,i,,,,,7,10,150,4,3,0,3,0,,,,,0,28,28,17,,,,,,up,1.1342151089343133,2310.3855453035912,None,001,100,2019_Nov_13_1004,ACPT_experiment_5_30_19,3.1.0,59.95509965482558,
,,,C,G,g,v,L,U,g,L,u,,,,,7,10,150,4,3,0,3,0,,,,,0,29,29,22,,,,,,up,0.5670995553387002,2312.8040442988704,None,001,100,2019_Nov_13_1004,ACPT_experiment_5_30_19,3.1.0,59.95509965482558,
,,,C,G,g,v,R,U,g,L,u,,,,,7,10,150,4,3,0,3,0,,,,,0,30,30,10,,,,,,up,0.5504112608405194,2314.6554452480805,None,001,100,2019_Nov_13_1004,ACPT_experiment_5_30_19,3.1.0,59.95509965482558,
,,,C,G,g,v,R,D,g,L,i,,,,,7,10,150,4,3,0,3,0,,,,,0,31,31,2,,,,,,up,0.5170567071786536,2316.4901566953763,None,001,100,2019_Nov_13_1004,ACPT_experiment_5_30_19,3.1.0,59.95509965482558,
,,,C,G,g,v,R,D,d,R,c ,,,,,7,10,150,4,3,0,3,0,,,,,0,32,32,1,,,,,,up,0.6671689515496837,2318.2915229464807,None,001,100,2019_Nov_13_1004,ACPT_experiment_5_30_19,3.1.0,59.95509965482558,
,,,C,G,g,v,L,U,d,L,u,,,,,7,10,150,4,3,0,3,0,,,,,0,33,33,20,,,,,,up,0.5334793702481875,2320.259952953052,None,001,100,2019_Nov_13_1004,ACPT_experiment_5_30_19,3.1.0,59.95509965482558,
,,,C,G,g,v,L,U,g,R,u,,,,,7,10,150,4,3,0,3,0,,,,,0,34,34,23,,,,,,up,0.5837570607400266,2322.0777243597004,None,001,100,2019_Nov_13_1004,ACPT_experiment_5_30_19,3.1.0,59.95509965482558,
,,,C,G,g,v,L,G,d,L,i,,,,,7,10,150,4,3,0,3,0,,,,,0,35,35,16,,,,,,up,0.7672365366370286,2323.94579669959,None,001,100,2019_Nov_13_1004,ACPT_experiment_5_30_19,3.1.0,59.95509965482558,
,,,C,G,g,v,R,U,g,R,u,,,,,7,10,150,4,3,0,3,0,,,,,1,0,36,11,,,,,,up,0.6004332810821325,2325.9973590802633,None,001,100,2019_Nov_13_1004,ACPT_experiment_5_30_19,3.1.0,59.95509965482558,
,,,C,G,g,v,L,G,d,L,i,,,,,7,10,150,4,3,0,3,0,,,,,1,1,37,16,,,,,,up,0.5003551311087904,2327.882123638752,None,001,100,2019_Nov_13_1004,ACPT_experiment_5_30_19,3.1.0,59.95509965482558,
,,,C,G,g,v,L,D,g,L,i,,,,,7,10,150,4,3,0,3,0,,,,,1,2,38,14,,,,,,up,0.5337350404979588,2329.6667907286183,None,001,100,2019_Nov_13_1004,ACPT_experiment_5_30_19,3.1.0,59.95509965482558,
,,,C,G,g,v,R,U,g,L,u,,,,,7,10,150,4,3,0,3,0,,,,,1,3,39,10,,,,,,up,0.4670201979497506,2331.484832294503,None,001,100,2019_Nov_13_1004,ACPT_experiment_5_30_19,3.1.0,59.95509965482558,
,,,C,G,g,v,L,U,g,L,u,,,,,7,10,150,4,3,0,3,0,,,,,1,4,40,22,,,,,,up,0.4834205238312279,2333.25311083079,None,001,100,2019_Nov_13_1004,ACPT_experiment_5_30_19,3.1.0,59.95509965482558,
,,,C,G,g,v,R,G,y,L,y,,,,,7,10,150,4,3,0,3,0,,,,,1,5,41,28,,,,,,down,0.5837594755712416,2335.0375231559674,None,001,100,2019_Nov_13_1004,ACPT_experiment_5_30_19,3.1.0,59.95509965482558,
,,,C,G,g,v,R,U,y,L,u,,,,,7,10,150,4,3,0,3,0,,,,,1,6,42,30,,,,,,down,0.4336910000147327,2336.9222807718165,None,001,100,2019_Nov_13_1004,ACPT_experiment_5_30_19,3.1.0,59.95509965482558,
,,,C,G,g,v,R,D,y,R,y,,,,,7,10,150,4,3,0,3,0,,,,,1,7,43,27,,,,,,down,0.6838807906515285,2338.640246904413,None,001,100,2019_Nov_13_1004,ACPT_experiment_5_30_19,3.1.0,59.95509965482558,
,,,C,G,g,v,R,D,y,L,y,,,,,7,10,150,4,3,0,3,0,,,,,1,8,44,26,,,,,,down,0.5137163919644081,2340.6284121187095,None,001,100,2019_Nov_13_1004,ACPT_experiment_5_30_19,3.1.0,59.95509965482558,
,,,C,G,g,v,L,U,d,R,u,,,,,7,10,150,4,3,0,3,0,,,,,1,9,45,21,,,,,,up,0.6338056441245499,2342.4264425824085,None,001,100,2019_Nov_13_1004,ACPT_experiment_5_30_19,3.1.0,59.95509965482558,
,,,C,G,g,v,L,G,d,R,i,,,,,7,10,150,4,3,0,3,0,,,,,1,10,46,17,,,,,,up,0.6004459589462385,2344.3445592797284,None,001,100,2019_Nov_13_1004,ACPT_experiment_5_30_19,3.1.0,59.95509965482558,
,,,C,G,g,v,R,U,y,R,u,,,,,7,10,150,4,3,0,3,0,,,,,1,11,47,31,,,,,,down,0.5503487770843094,2346.229374549672,None,001,100,2019_Nov_13_1004,ACPT_experiment_5_30_19,3.1.0,59.95509965482558,
,,,C,G,g,v,L,G,y,L,y,,,,,7,10,150,4,3,0,3,0,,,,,1,12,48,34,,,,,,down,0.6671743849201448,2348.0640328706822,None,001,100,2019_Nov_13_1004,ACPT_experiment_5_30_19,3.1.0,59.95509965482558,
,,,C,G,g,v,R,G,g,R,c ,,,,,7,10,150,4,3,0,3,0,,,,,1,13,49,7,,,,,,up,0.8840093200410593,2350.0155110643036,None,001,100,2019_Nov_13_1004,ACPT_experiment_5_30_19,3.1.0,59.95509965482558,
,,,C,G,g,v,L,D,g,R,i,,,,,7,10,150,4,3,0,3,0,,,,,1,14,50,15,,,,,,up,0.4670201979497506,2352.183814835576,None,001,100,2019_Nov_13_1004,ACPT_experiment_5_30_19,3.1.0,59.95509965482558,
,,,C,G,g,v,R,G,y,R,y,,,,,7,10,150,4,3,0,3,0,,,,,1,15,51,29,,,,,,down,0.7336118237376468,2353.9520930700082,None,001,100,2019_Nov_13_1004,ACPT_experiment_5_30_19,3.1.0,59.95509965482558,
,,,C,G,g,v,R,D,g,R,i,,,,,7,10,150,4,3,0,3,0,,,,,1,16,52,3,,,,,,up,0.850639069976296,2355.9700129284024,None,001,100,2019_Nov_13_1004,ACPT_experiment_5_30_19,3.1.0,59.95509965482558,
,,,C,G,g,v,R,G,g,L,c ,,,,,7,10,150,4,3,0,3,0,,,,,1,17,53,6,,,,,,up,0.5670926126995255,2358.0882792848843,None,001,100,2019_Nov_13_1004,ACPT_experiment_5_30_19,3.1.0,59.95509965482558,
,,,C,G,g,v,R,G,d,L,i,,,,,7,10,150,4,3,0,3,0,,,,,1,18,54,4,,,,,,up,0.4836930978995042,2359.939680837802,None,001,100,2019_Nov_13_1004,ACPT_experiment_5_30_19,3.1.0,59.95509965482558,
,,,C,G,g,v,R,D,d,L,c,,,,,7,10,150,4,3,0,3,0,,,,,1,19,55,0,,,,,,up,0.7004993569003091,2361.7077046093996,None,001,100,2019_Nov_13_1004,ACPT_experiment_5_30_19,3.1.0,59.95509965482558,
,,,C,G,g,v,L,G,g,L,c ,,,,,7,10,150,4,3,0,3,0,,,,,1,20,56,18,,,,,,up,0.6671752904817367,2363.692510793541,None,001,100,2019_Nov_13_1004,ACPT_experiment_5_30_19,3.1.0,59.95509965482558,
,,,C,G,g,v,L,U,g,R,u,,,,,7,10,150,4,3,0,3,0,,,,,1,21,57,23,,,,,,up,0.65051054058722,2365.644002268734,None,001,100,2019_Nov_13_1004,ACPT_experiment_5_30_19,3.1.0,59.95509965482558,
,,,C,G,g,v,L,U,d,L,u,,,,,7,10,150,4,3,0,3,0,,,,,1,22,58,20,,,,,,up,0.6171421016456407,2367.5787885456107,None,001,100,2019_Nov_13_1004,ACPT_experiment_5_30_19,3.1.0,59.95509965482558,
,,,C,G,g,v,R,G,d,R,i,,,,,7,10,150,4,3,0,3,0,,,,,1,23,59,5,,,,,,up,0.5837803034901299,2369.4802287207344,None,001,100,2019_Nov_13_1004,ACPT_experiment_5_30_19,3.1.0,59.95509965482558,
,,,C,G,g,v,L,D,d,R,c ,,,,,7,10,150,4,3,0,3,0,,,,,1,24,60,13,,,,,,up,0.5837751719736843,2371.348301664332,None,001,100,2019_Nov_13_1004,ACPT_experiment_5_30_19,3.1.0,59.95509965482558,
,,,C,G,g,v,L,U,y,R,u,,,,,7,10,150,4,3,0,3,0,,,,,1,25,61,25,,,,,,down,0.5668481110433277,2373.2333061966683,None,001,100,2019_Nov_13_1004,ACPT_experiment_5_30_19,3.1.0,59.95509965482558,
,,,C,G,g,v,L,U,y,L,u,,,,,7,10,150,4,3,0,3,0,,,,,1,26,62,24,,,,,,down,0.7172048570705556,2375.08446324793,None,001,100,2019_Nov_13_1004,ACPT_experiment_5_30_19,3.1.0,59.95509965482558,
,,,C,G,g,v,R,U,d,R,u,,,,,7,10,150,4,3,0,3,0,,,,,1,27,63,9,,,,,,up,0.517090514814754,2377.085978554488,None,001,100,2019_Nov_13_1004,ACPT_experiment_5_30_19,3.1.0,59.95509965482558,
,,,C,G,g,v,L,G,g,R,c ,,,,,7,10,150,4,3,0,3,0,,,,,1,28,64,19,,,,,,up,0.7005539924552977,2378.8873137146416,None,001,100,2019_Nov_13_1004,ACPT_experiment_5_30_19,3.1.0,59.95509965482558,
,,,C,G,g,v,L,D,y,R,y,,,,,7,10,150,4,3,0,3,0,,,,,1,29,65,33,,,,,,down,0.6671623107636151,2380.872174534338,None,001,100,2019_Nov_13_1004,ACPT_experiment_5_30_19,3.1.0,59.95509965482558,
,,,C,G,g,v,R,D,g,L,i,,,,,7,10,150,4,3,0,3,0,,,,,1,30,66,2,,,,,,up,0.6338143978873632,2382.8236442760503,None,001,100,2019_Nov_13_1004,ACPT_experiment_5_30_19,3.1.0,59.95509965482558,
,,,C,G,g,v,R,D,d,R,c ,,,,,7,10,150,4,3,0,3,0,,,,,1,31,67,1,,,,,,up,0.9507468016317944,2384.72506090657,None,001,100,2019_Nov_13_1004,ACPT_experiment_5_30_19,3.1.0,59.95509965482558,
,,,C,G,g,v,L,D,y,L,y,,,,,7,10,150,4,3,0,3,0,,,,,1,32,68,32,,,,,,down,0.7339837077379343,2386.9601042724103,None,001,100,2019_Nov_13_1004,ACPT_experiment_5_30_19,3.1.0,59.95509965482558,
,,,C,G,g,v,L,G,y,R,y,,,,,7,10,150,4,3,0,3,0,,,,,1,33,69,35,,,,,,down,0.6839215409281678,2388.961600260319,None,001,100,2019_Nov_13_1004,ACPT_experiment_5_30_19,3.1.0,59.95509965482558,
,,,C,G,g,v,R,U,d,L,u,,,,,7,10,150,4,3,0,3,0,,,,,1,34,70,8,,,,,,up,0.9507039383784104,2390.929787274504,None,001,100,2019_Nov_13_1004,ACPT_experiment_5_30_19,3.1.0,59.95509965482558,
,,,C,G,g,v,L,D,d,L,c ,,,,,7,10,150,4,3,0,3,0,,,,,1,35,71,12,,,,,,up,0.650501786823952,2393.164781740013,None,001,100,2019_Nov_13_1004,ACPT_experiment_5_30_19,3.1.0,59.95509965482558,
,,,C,G,g,v,,,,,,,,,,7,10,150,4,4,0,4,0,0,0,0,0,,,,,,,,,,,,,,001,100,2019_Nov_13_1004,ACPT_experiment_5_30_19,3.1.0,59.95509965482558,
,,,C,G,g,v,L,U,y,R,u,,,,,7,10,150,4,4,0,4,0,,,,,0,0,0,25,,,,,,down,0.8172694236191091,2400.420298346354,None,001,100,2019_Nov_13_1004,ACPT_experiment_5_30_19,3.1.0,59.95509965482558,
,,,C,G,g,v,R,D,d,L,c,,,,,7,10,150,4,4,0,4,0,,,,,0,1,1,0,,,,,,up,0.783958336917749,2402.5218755027754,None,001,100,2019_Nov_13_1004,ACPT_experiment_5_30_19,3.1.0,59.95509965482558,
,,,C,G,g,v,R,U,d,R,u,,,,,7,10,150,4,4,0,4,0,,,,,0,2,2,9,,,,,,up,0.6004553164166282,2404.5901056518824,None,001,100,2019_Nov_13_1004,ACPT_experiment_5_30_19,3.1.0,59.95509965482558,
,,,C,G,g,v,R,U,g,R,u,,,,,7,10,150,4,4,0,4,0,,,,,0,3,3,11,,,,,,up,0.5671061961247688,2406.458184330704,None,001,100,2019_Nov_13_1004,ACPT_experiment_5_30_19,3.1.0,59.95509965482558,
,,,C,G,g,v,L,U,d,L,u,,,,,7,10,150,4,4,0,4,0,,,,,0,4,4,20,,,,,,up,0.6171276126583507,2408.309584374352,None,001,100,2019_Nov_13_1004,ACPT_experiment_5_30_19,3.1.0,59.95509965482558,
,,,C,G,g,v,R,G,y,L,y,,,,,7,10,150,4,4,0,4,0,,,,,0,5,5,28,,,,,,down,0.6338140960333476,2410.211018210544,None,001,100,2019_Nov_13_1004,ACPT_experiment_5_30_19,3.1.0,59.95509965482558,
,,,C,G,g,v,R,D,g,L,i,,,,,7,10,150,4,4,0,4,0,,,,,0,6,6,2,,,,,,up,0.6671608014944468,2412.129143359773,None,001,100,2019_Nov_13_1004,ACPT_experiment_5_30_19,3.1.0,59.95509965482558,
,,,C,G,g,v,R,G,d,R,i,,,,,7,10,150,4,4,0,4,0,,,,,0,7,7,5,,,,,,up,0.5671375889301089,2414.080627288619,None,001,100,2019_Nov_13_1004,ACPT_experiment_5_30_19,3.1.0,59.95509965482558,
,,,C,G,g,v,L,U,y,L,u,,,,,7,10,150,4,4,0,4,0,,,,,0,8,8,24,,,,,,down,0.6838403422298143,2415.9320164655264,None,001,100,2019_Nov_13_1004,ACPT_experiment_5_30_19,3.1.0,59.95509965482558,
,,,C,G,g,v,R,U,y,L,u,,,,,7,10,150,4,4,0,4,0,,,,,0,9,9,30,,,,,,down,0.6171318386132043,2417.900167559098,None,001,100,2019_Nov_13_1004,ACPT_experiment_5_30_19,3.1.0,59.95509965482558,
,,,C,G,g,v,R,D,y,R,y,,,,,7,10,150,4,4,0,4,0,,,,,0,10,10,27,,,,,,down,0.7672392533222592,2419.8182887842263,None,001,100,2019_Nov_13_1004,ACPT_experiment_5_30_19,3.1.0,59.95509965482558,
,,,C,G,g,v,L,G,y,R,y,,,,,7,10,150,4,4,0,4,0,,,,,0,11,11,35,,,,,,down,0.5170690831882894,2421.886516518502,None,001,100,2019_Nov_13_1004,ACPT_experiment_5_30_19,3.1.0,59.95509965482558,
,,,C,G,g,v,R,U,g,L,u,,,,,7,10,150,4,4,0,4,0,,,,,0,12,12,10,,,,,,up,0.7505624292716675,2423.6878764306744,None,001,100,2019_Nov_13_1004,ACPT_experiment_5_30_19,3.1.0,59.95509965482558,
,,,C,G,g,v,L,D,d,L,c ,,,,,7,10,150,4,4,0,4,0,,,,,0,13,13,12,,,,,,up,0.6835698811387374,2425.739706555754,None,001,100,2019_Nov_13_1004,ACPT_experiment_5_30_19,3.1.0,59.95509965482558,
,,,C,G,g,v,L,U,g,R,u,,,,,7,10,150,4,4,0,4,0,,,,,0,14,14,23,,,,,,up,0.6838509071162662,2427.707582660426,None,001,100,2019_Nov_13_1004,ACPT_experiment_5_30_19,3.1.0,59.95509965482558,
,,,C,G,g,v,L,G,g,L,c ,,,,,7,10,150,4,4,0,4,0,,,,,0,15,15,18,,,,,,up,0.5670886885986874,2429.6757403947827,None,001,100,2019_Nov_13_1004,ACPT_experiment_5_30_19,3.1.0,59.95509965482558,
,,,C,G,g,v,L,D,g,L,i,,,,,7,10,150,4,4,0,4,0,,,,,0,16,16,14,,,,,,up,0.4670123497480745,2431.527139532869,None,001,100,2019_Nov_13_1004,ACPT_experiment_5_30_19,3.1.0,59.95509965482558,
,,,C,G,g,v,R,U,y,R,u,,,,,7,10,150,4,4,0,4,0,,,,,0,17,17,31,,,,,,down,0.6671894776145564,2433.278460219128,None,001,100,2019_Nov_13_1004,ACPT_experiment_5_30_19,3.1.0,59.95509965482558,
,,,C,G,g,v,L,U,d,R,u,,,,,7,10,150,4,4,0,4,0,,,,,0,18,18,21,,,,,,up,0.5837633996720797,2435.229939922019,None,001,100,2019_Nov_13_1004,ACPT_experiment_5_30_19,3.1.0,59.95509965482558,
,,,C,G,g,v,R,G,g,R,c ,,,,,7,10,150,4,4,0,4,0,,,,,0,19,19,7,,,,,,up,0.533729908981968,2437.114696028599,None,001,100,2019_Nov_13_1004,ACPT_experiment_5_30_19,3.1.0,59.95509965482558,
,,,C,G,g,v,R,D,y,L,y,,,,,7,10,150,4,4,0,4,0,,,,,0,20,20,26,,,,,,down,0.7002554589521424,2438.949688501872,None,001,100,2019_Nov_13_1004,ACPT_experiment_5_30_19,3.1.0,59.95509965482558,
,,,C,G,g,v,R,U,d,L,u,,,,,7,10,150,4,4,0,4,0,,,,,0,21,21,8,,,,,,up,0.7839215107424025,2440.9342516936267,None,001,100,2019_Nov_13_1004,ACPT_experiment_5_30_19,3.1.0,59.95509965482558,
,,,C,G,g,v,L,G,d,L,i,,,,,7,10,150,4,4,0,4,0,,,,,0,22,22,16,,,,,,up,0.46703257395938635,2443.0024797297565,None,001,100,2019_Nov_13_1004,ACPT_experiment_5_30_19,3.1.0,59.95509965482558,
,,,C,G,g,v,R,G,y,R,y,,,,,7,10,150,4,4,0,4,0,,,,,0,23,23,29,,,,,,down,0.8172839126059444,2444.7538034345544,None,001,100,2019_Nov_13_1004,ACPT_experiment_5_30_19,3.1.0,59.95509965482558,
,,,C,G,g,v,R,G,d,L,i,,,,,7,10,150,4,4,0,4,0,,,,,0,24,24,4,,,,,,up,0.6004501849006374,2446.855393570693,None,001,100,2019_Nov_13_1004,ACPT_experiment_5_30_19,3.1.0,59.95509965482558,
,,,C,G,g,v,L,D,d,R,c ,,,,,7,10,150,4,4,0,4,0,,,,,0,25,25,13,,,,,,up,0.5504085441557436,2448.7401502809807,None,001,100,2019_Nov_13_1004,ACPT_experiment_5_30_19,3.1.0,59.95509965482558,
,,,C,G,g,v,R,G,g,L,c ,,,,,7,10,150,4,4,0,4,0,,,,,0,26,26,6,,,,,,up,0.5337549628557099,2450.5748535782213,None,001,100,2019_Nov_13_1004,ACPT_experiment_5_30_19,3.1.0,59.95509965482558,
,,,C,G,g,v,L,G,y,L,y,,,,,7,10,150,4,4,0,4,0,,,,,0,27,27,34,,,,,,down,0.6338180201341856,2452.3929005774767,None,001,100,2019_Nov_13_1004,ACPT_experiment_5_30_19,3.1.0,59.95509965482558,
,,,C,G,g,v,R,D,d,R,c ,,,,,7,10,150,4,4,0,4,0,,,,,0,28,28,1,,,,,,up,0.6671749886277212,2454.311016972943,None,001,100,2019_Nov_13_1004,ACPT_experiment_5_30_19,3.1.0,59.95509965482558,
,,,C,G,g,v,L,D,y,L,y,,,,,7,10,150,4,4,0,4,0,,,,,0,29,29,32,,,,,,down,0.6504872978371168,2456.262506335159,None,001,100,2019_Nov_13_1004,ACPT_experiment_5_30_19,3.1.0,59.95509965482558,
,,,C,G,g,v,L,U,g,L,u,,,,,7,10,150,4,4,0,4,0,,,,,0,30,30,22,,,,,,up,0.5166437710486207,2458.214366675813,None,001,100,2019_Nov_13_1004,ACPT_experiment_5_30_19,3.1.0,59.95509965482558,
,,,C,G,g,v,L,G,d,R,i,,,,,7,10,150,4,4,0,4,0,,,,,0,31,31,17,,,,,,up,0.7172042533625245,2460.015345346515,None,001,100,2019_Nov_13_1004,ACPT_experiment_5_30_19,3.1.0,59.95509965482558,
,,,C,G,g,v,L,D,y,R,y,,,,,7,10,150,4,4,0,4,0,,,,,0,32,32,33,,,,,,down,0.7505452236000565,2462.016873330937,None,001,100,2019_Nov_13_1004,ACPT_experiment_5_30_19,3.1.0,59.95509965482558,
,,,C,G,g,v,L,G,g,R,c ,,,,,7,10,150,4,4,0,4,0,,,,,0,33,33,19,,,,,,up,0.7672477052310569,2464.0517290040243,None,001,100,2019_Nov_13_1004,ACPT_experiment_5_30_19,3.1.0,59.95509965482558,
,,,C,G,g,v,L,D,g,R,i,,,,,7,10,150,4,4,0,4,0,,,,,0,34,34,15,,,,,,up,0.5670929145530863,2466.1032781031263,None,001,100,2019_Nov_13_1004,ACPT_experiment_5_30_19,3.1.0,59.95509965482558,
,,,C,G,g,v,R,D,g,R,i,,,,,7,10,150,4,4,0,4,0,,,,,0,35,35,3,,,,,,up,0.5337356442064447,2467.9546781467743,None,001,100,2019_Nov_13_1004,ACPT_experiment_5_30_19,3.1.0,59.95509965482558,
,,,C,G,g,v,L,U,g,R,u,,,,,7,10,150,4,4,0,4,0,,,,,1,0,36,23,,,,,,up,0.517053990493423,2469.7727191089516,None,001,100,2019_Nov_13_1004,ACPT_experiment_5_30_19,3.1.0,59.95509965482558,
,,,C,G,g,v,R,U,d,L,u,,,,,7,10,150,4,4,0,4,0,,,,,1,1,37,8,,,,,,up,0.9504911313815683,2471.591032343343,None,001,100,2019_Nov_13_1004,ACPT_experiment_5_30_19,3.1.0,59.95509965482558,
,,,C,G,g,v,R,D,g,R,i,,,,,7,10,150,4,4,0,4,0,,,,,1,2,38,3,,,,,,up,0.6838496997006587,2473.8257850238815,None,001,100,2019_Nov_13_1004,ACPT_experiment_5_30_19,3.1.0,59.95509965482558,
,,,C,G,g,v,R,U,g,L,u,,,,,7,10,150,4,4,0,4,0,,,,,1,3,39,10,,,,,,up,0.4503373368215762,2475.7939436638003,None,001,100,2019_Nov_13_1004,ACPT_experiment_5_30_19,3.1.0,59.95509965482558,
,,,C,G,g,v,L,D,y,L,y,,,,,7,10,150,4,4,0,4,0,,,,,1,4,40,32,,,,,,down,0.5003832035208688,2477.5285787722455,None,001,100,2019_Nov_13_1004,ACPT_experiment_5_30_19,3.1.0,59.95509965482558,
,,,C,G,g,v,R,G,y,L,y,,,,,7,10,150,4,4,0,4,0,,,,,1,5,41,28,,,,,,down,0.5670895941602794,2479.3132715196925,None,001,100,2019_Nov_13_1004,ACPT_experiment_5_30_19,3.1.0,59.95509965482558,
,,,C,G,g,v,R,D,y,R,y,,,,,7,10,150,4,4,0,4,0,,,,,1,6,42,27,,,,,,down,0.7172160256650386,2481.1479887022124,None,001,100,2019_Nov_13_1004,ACPT_experiment_5_30_19,3.1.0,59.95509965482558,
,,,C,G,g,v,L,U,d,R,u,,,,,7,10,150,4,4,0,4,0,,,,,1,7,43,21,,,,,,up,0.5337314182515911,2483.149501292086,None,001,100,2019_Nov_13_1004,ACPT_experiment_5_30_19,3.1.0,59.95509965482558,
,,,C,G,g,v,R,G,y,R,y,,,,,7,10,150,4,4,0,4,0,,,,,1,8,44,29,,,,,,down,0.567088990452703,2484.984229039492,None,001,100,2019_Nov_13_1004,ACPT_experiment_5_30_19,3.1.0,59.95509965482558,
,,,C,G,g,v,R,G,d,L,i,,,,,7,10,150,4,4,0,4,0,,,,,1,9,45,4,,,,,,up,0.5837772849513385,2486.8356200275234,None,001,100,2019_Nov_13_1004,ACPT_experiment_5_30_19,3.1.0,59.95509965482558,
,,,C,G,g,v,R,D,d,R,c ,,,,,7,10,150,4,4,0,4,0,,,,,1,10,46,1,,,,,,up,0.45034578873082864,2488.6870140340934,None,001,100,2019_Nov_13_1004,ACPT_experiment_5_30_19,3.1.0,59.95509965482558,
,,,C,G,g,v,L,G,y,L,y,,,,,7,10,150,4,4,0,4,0,,,,,1,11,47,34,,,,,,down,0.7338789644359167,2490.4383434741153,None,001,100,2019_Nov_13_1004,ACPT_experiment_5_30_19,3.1.0,59.95509965482558,
,,,C,G,g,v,L,G,g,R,c ,,,,,7,10,150,4,4,0,4,0,,,,,1,12,48,19,,,,,,up,0.6671686496956681,2492.473214843605,None,001,100,2019_Nov_13_1004,ACPT_experiment_5_30_19,3.1.0,59.95509965482558,
,,,C,G,g,v,R,U,y,L,u,,,,,7,10,150,4,4,0,4,0,,,,,1,13,49,30,,,,,,down,0.583758570009195,2494.424706922506,None,001,100,2019_Nov_13_1004,ACPT_experiment_5_30_19,3.1.0,59.95509965482558,
,,,C,G,g,v,L,G,d,R,i,,,,,7,10,150,4,4,0,4,0,,,,,1,14,50,17,,,,,,up,0.5337344367903825,2496.2927668863863,None,001,100,2019_Nov_13_1004,ACPT_experiment_5_30_19,3.1.0,59.95509965482558,
,,,C,G,g,v,L,G,y,R,y,,,,,7,10,150,4,4,0,4,0,,,,,1,15,51,35,,,,,,down,0.7836567848758023,2498.111080422632,None,001,100,2019_Nov_13_1004,ACPT_experiment_5_30_19,3.1.0,59.95509965482558,
,,,C,G,g,v,R,G,g,R,c ,,,,,7,10,150,4,4,0,4,0,,,,,1,16,52,7,,,,,,up,0.5670965368003635,2500.179044336602,None,001,100,2019_Nov_13_1004,ACPT_experiment_5_30_19,3.1.0,59.95509965482558,
,,,C,G,g,v,R,D,d,L,c,,,,,7,10,150,4,4,0,4,0,,,,,1,17,53,0,,,,,,up,0.6004580331018587,2502.0304470969354,None,001,100,2019_Nov_13_1004,ACPT_experiment_5_30_19,3.1.0,59.95509965482558,
,,,C,G,g,v,R,G,g,L,c ,,,,,7,10,150,4,4,0,4,0,,,,,1,18,54,6,,,,,,up,0.550413071964158,2503.9151992794145,None,001,100,2019_Nov_13_1004,ACPT_experiment_5_30_19,3.1.0,59.95509965482558,
,,,C,G,g,v,R,D,g,L,i,,,,,7,10,150,4,4,0,4,0,,,,,1,19,55,2,,,,,,up,0.4670159719953517,2505.749920687889,None,001,100,2019_Nov_13_1004,ACPT_experiment_5_30_19,3.1.0,59.95509965482558,
,,,C,G,g,v,R,D,y,L,y,,,,,7,10,150,4,4,0,4,0,,,,,1,20,56,26,,,,,,down,0.5504103552789275,2507.501246807518,None,001,100,2019_Nov_13_1004,ACPT_experiment_5_30_19,3.1.0,59.95509965482558,
,,,C,G,g,v,L,U,d,L,u,,,,,7,10,150,4,4,0,4,0,,,,,1,21,57,20,,,,,,up,0.4503373368215762,2509.335967008577,None,001,100,2019_Nov_13_1004,ACPT_experiment_5_30_19,3.1.0,59.95509965482558,
,,,C,G,g,v,L,U,g,L,u,,,,,7,10,150,4,4,0,4,0,,,,,1,22,58,22,,,,,,up,0.41673043330183646,2511.070879520753,None,001,100,2019_Nov_13_1004,ACPT_experiment_5_30_19,3.1.0,59.95509965482558,
,,,C,G,g,v,L,D,g,L,i,,,,,7,10,150,4,4,0,4,0,,,,,1,23,59,14,,,,,,up,0.4003304092743747,2512.755203734778,None,001,100,2019_Nov_13_1004,ACPT_experiment_5_30_19,3.1.0,59.95509965482558,
,,,C,G,g,v,R,U,d,R,u,,,,,7,10,150,4,4,0,4,0,,,,,1,24,60,9,,,,,,up,0.55040914786332,2514.4398243693295,None,001,100,2019_Nov_13_1004,ACPT_experiment_5_30_19,3.1.0,59.95509965482558,
,,,C,G,g,v,R,U,y,R,u,,,,,7,10,150,4,4,0,4,0,,,,,1,25,61,31,,,,,,down,1.1508686902348018,2516.257844503588,None,001,100,2019_Nov_13_1004,ACPT_experiment_5_30_19,3.1.0,59.95509965482558,
,,,C,G,g,v,R,U,g,R,u,,,,,7,10,150,4,4,0,4,0,,,,,1,26,62,11,,,,,,up,0.5671140443259901,2518.6763365562274,None,001,100,2019_Nov_13_1004,ACPT_experiment_5_30_19,3.1.0,59.95509965482558,
,,,C,G,g,v,L,D,d,L,c ,,,,,7,10,150,4,4,0,4,0,,,,,1,27,63,12,,,,,,up,0.500376562735255,2520.527759540772,None,001,100,2019_Nov_13_1004,ACPT_experiment_5_30_19,3.1.0,59.95509965482558,
,,,C,G,g,v,L,U,y,L,u,,,,,7,10,150,4,4,0,4,0,,,,,1,28,64,24,,,,,,down,0.5337326256671986,2522.312442025186,None,001,100,2019_Nov_13_1004,ACPT_experiment_5_30_19,3.1.0,59.95509965482558,
,,,C,G,g,v,L,D,y,R,y,,,,,7,10,150,4,4,0,4,0,,,,,1,29,65,33,,,,,,down,0.7138672585415407,2524.1505034470206,None,001,100,2019_Nov_13_1004,ACPT_experiment_5_30_19,3.1.0,59.95509965482558,
,,,C,G,g,v,L,G,g,L,c ,,,,,7,10,150,4,4,0,4,0,,,,,1,30,66,18,,,,,,up,0.48374411120767036,2526.1486754198263,None,001,100,2019_Nov_13_1004,ACPT_experiment_5_30_19,3.1.0,59.95509965482558,
,,,C,G,g,v,L,G,d,L,i,,,,,7,10,150,4,4,0,4,0,,,,,1,31,67,16,,,,,,up,0.48369641829231114,2527.8999997283317,None,001,100,2019_Nov_13_1004,ACPT_experiment_5_30_19,3.1.0,59.95509965482558,
,,,C,G,g,v,L,D,d,R,c ,,,,,7,10,150,4,4,0,4,0,,,,,1,32,68,13,,,,,,up,0.5170748184123113,2529.6679827496537,None,001,100,2019_Nov_13_1004,ACPT_experiment_5_30_19,3.1.0,59.95509965482558,
,,,C,G,g,v,R,G,d,R,i,,,,,7,10,150,4,4,0,4,0,,,,,1,33,69,5,,,,,,up,0.45006506460731543,2531.4863195286493,None,001,100,2019_Nov_13_1004,ACPT_experiment_5_30_19,3.1.0,59.95509965482558,
,,,C,G,g,v,L,U,y,R,u,,,,,7,10,150,4,4,0,4,0,,,,,1,34,70,25,,,,,,down,0.8506586904795768,2533.2206711962863,None,001,100,2019_Nov_13_1004,ACPT_experiment_5_30_19,3.1.0,59.95509965482558,
,,,C,G,g,v,L,D,g,R,i,,,,,7,10,150,4,4,0,4,0,,,,,1,35,71,15,,,,,,up,0.40033161669043693,2535.3556753513053,None,001,100,2019_Nov_13_1004,ACPT_experiment_5_30_19,3.1.0,59.95509965482558,
,,,C,G,g,v,,,,,,,,,,7,10,150,4,5,0,5,0,0,0,0,0,,,,,,,,,,,,,,001,100,2019_Nov_13_1004,ACPT_experiment_5_30_19,3.1.0,59.95509965482558,
,,,C,G,g,v,L,D,y,R,y,,,,,7,10,150,4,5,0,5,0,,,,,0,0,0,33,,,,,,down,0.48035670678609677,2540.162605071568,None,001,100,2019_Nov_13_1004,ACPT_experiment_5_30_19,3.1.0,59.95509965482558,
,,,C,G,g,v,L,U,d,R,u,,,,,7,10,150,4,5,0,5,0,,,,,0,1,1,21,,,,,,up,0.5003780720044233,2541.927271624134,None,001,100,2019_Nov_13_1004,ACPT_experiment_5_30_19,3.1.0,59.95509965482558,
,,,C,G,g,v,R,U,d,R,u,,,,,7,10,150,4,5,0,5,0,,,,,0,2,2,9,,,,,,up,0.5671140443259901,2543.69525494731,None,001,100,2019_Nov_13_1004,ACPT_experiment_5_30_19,3.1.0,59.95509965482558,
,,,C,G,g,v,R,U,g,L,u,,,,,7,10,150,4,5,0,5,0,,,,,0,3,3,10,,,,,,up,0.5004034277321807,2545.5299676020213,None,001,100,2019_Nov_13_1004,ACPT_experiment_5_30_19,3.1.0,59.95509965482558,
,,,C,G,g,v,R,U,d,L,u,,,,,7,10,150,4,5,0,5,0,,,,,0,4,4,8,,,,,,up,0.5668230571700406,2547.314949525501,None,001,100,2019_Nov_13_1004,ACPT_experiment_5_30_19,3.1.0,59.95509965482558,
,,,C,G,g,v,L,U,y,L,u,,,,,7,10,150,4,5,0,5,0,,,,,0,5,5,24,,,,,,down,0.4837465260393401,2549.166077296935,None,001,100,2019_Nov_13_1004,ACPT_experiment_5_30_19,3.1.0,59.95509965482558,
,,,C,G,g,v,L,G,d,L,i,,,,,7,10,150,4,5,0,5,0,,,,,0,6,6,16,,,,,,down,0.4336577960862087,2550.9340841647145,None,001,100,2019_Nov_13_1004,ACPT_experiment_5_30_19,3.1.0,59.95509965482558,
,,,C,G,g,v,L,U,g,R,u,,,,,7,10,150,4,5,0,5,0,,,,,0,7,7,23,,,,,,up,0.5837742664120924,2552.652048184334,None,001,100,2019_Nov_13_1004,ACPT_experiment_5_30_19,3.1.0,59.95509965482558,
,,,C,G,g,v,L,G,y,L,y,,,,,7,10,150,4,5,0,5,0,,,,,0,8,8,34,,,,,,down,0.8502273412618706,2554.537181910138,None,001,100,2019_Nov_13_1004,ACPT_experiment_5_30_19,3.1.0,59.95509965482558,
,,,C,G,g,v,R,G,y,L,y,,,,,7,10,150,4,5,0,5,0,,,,,0,9,9,28,,,,,,down,0.5837775868048993,2556.6717501881308,None,001,100,2019_Nov_13_1004,ACPT_experiment_5_30_19,3.1.0,59.95509965482558,
,,,C,G,g,v,L,G,g,R,c ,,,,,7,10,150,4,5,0,5,0,,,,,0,10,10,19,,,,,,up,0.6838481904310356,2558.5398321873454,None,001,100,2019_Nov_13_1004,ACPT_experiment_5_30_19,3.1.0,59.95509965482558,
,,,C,G,g,v,R,U,y,L,u,,,,,7,10,150,4,5,0,5,0,,,,,0,11,11,30,,,,,,down,0.7338871144906989,2560.507984186478,None,001,100,2019_Nov_13_1004,ACPT_experiment_5_30_19,3.1.0,59.95509965482558,
,,,C,G,g,v,L,U,y,R,u,,,,,7,10,150,4,5,0,5,0,,,,,0,12,12,25,,,,,,down,0.767241064445443,2562.5428573670915,None,001,100,2019_Nov_13_1004,ACPT_experiment_5_30_19,3.1.0,59.95509965482558,
,,,C,G,g,v,R,D,g,R,i,,,,,7,10,150,4,5,0,5,0,,,,,0,13,13,3,,,,,,up,0.6838255513889635,2564.6110902328833,None,001,100,2019_Nov_13_1004,ACPT_experiment_5_30_19,3.1.0,59.95509965482558,
,,,C,G,g,v,L,D,d,R,c ,,,,,7,10,150,4,5,0,5,0,,,,,0,14,14,13,,,,,,up,0.45033854423718367,2566.5792452505557,None,001,100,2019_Nov_13_1004,ACPT_experiment_5_30_19,3.1.0,59.95509965482558,
,,,C,G,g,v,L,U,d,L,u,,,,,7,10,150,4,5,0,5,0,,,,,0,15,15,20,,,,,,up,0.5668970113747491,2568.3307304471878,None,001,100,2019_Nov_13_1004,ACPT_experiment_5_30_19,3.1.0,59.95509965482558,
,,,C,G,g,v,L,G,g,L,c ,,,,,7,10,150,4,5,0,5,0,,,,,0,16,16,18,,,,,,up,0.5837950943309806,2570.181944246982,None,001,100,2019_Nov_13_1004,ACPT_experiment_5_30_19,3.1.0,59.95509965482558,
,,,C,G,g,v,L,D,g,L,i,,,,,7,10,150,4,5,0,5,0,,,,,0,17,17,14,,,,,,up,0.4670108404789062,2572.050051903778,None,001,100,2019_Nov_13_1004,ACPT_experiment_5_30_19,3.1.0,59.95509965482558,
,,,C,G,g,v,R,D,y,R,y,,,,,7,10,150,4,5,0,5,0,,,,,0,18,18,27,,,,,,down,0.6338029274393193,2573.801377721553,None,001,100,2019_Nov_13_1004,ACPT_experiment_5_30_19,3.1.0,59.95509965482558,
,,,C,G,g,v,R,U,y,R,u,,,,,7,10,150,4,5,0,5,0,,,,,0,19,19,31,,,,,,down,0.7338892274683531,2575.7194859669635,None,001,100,2019_Nov_13_1004,ACPT_experiment_5_30_19,3.1.0,59.95509965482558,
,,,C,G,g,v,R,G,d,L,i,,,,,7,10,150,4,5,0,5,0,,,,,0,20,20,4,,,,,,up,0.6838714331811389,2577.7376548548223,None,001,100,2019_Nov_13_1004,ACPT_experiment_5_30_19,3.1.0,59.95509965482558,
,,,C,G,g,v,R,G,g,R,c ,,,,,7,10,150,4,5,0,5,0,,,,,0,21,21,7,,,,,,up,0.4835832230814958,2579.7058352282215,None,001,100,2019_Nov_13_1004,ACPT_experiment_5_30_19,3.1.0,59.95509965482558,
,,,C,G,g,v,R,G,d,R,i,,,,,7,10,150,4,5,0,5,0,,,,,0,22,22,5,,,,,,up,0.5304122328102494,2581.4938495759407,None,001,100,2019_Nov_13_1004,ACPT_experiment_5_30_19,3.1.0,59.95509965482558,
,,,C,G,g,v,R,G,g,L,c ,,,,,7,10,150,4,5,0,5,0,,,,,0,23,23,6,,,,,,up,0.6671982313778244,2583.2918549857663,None,001,100,2019_Nov_13_1004,ACPT_experiment_5_30_19,3.1.0,59.95509965482558,
,,,C,G,g,v,L,D,y,L,y,,,,,7,10,150,4,5,0,5,0,,,,,0,24,24,32,,,,,,down,0.6338029274397741,2585.243356422138,None,001,100,2019_Nov_13_1004,ACPT_experiment_5_30_19,3.1.0,59.95509965482558,
,,,C,G,g,v,L,G,y,R,y,,,,,7,10,150,4,5,0,5,0,,,,,0,25,25,35,,,,,,up,0.8839981514465762,2587.161475836143,None,001,100,2019_Nov_13_1004,ACPT_experiment_5_30_19,3.1.0,59.95509965482558,
,,,C,G,g,v,R,D,d,L,c,,,,,7,10,150,4,5,0,5,0,,,,,0,26,26,0,,,,,,up,0.5670895941602794,2589.3297783999997,None,001,100,2019_Nov_13_1004,ACPT_experiment_5_30_19,3.1.0,59.95509965482558,
,,,C,G,g,v,R,U,g,R,u,,,,,7,10,150,4,5,0,5,0,,,,,0,27,27,11,,,,,,up,0.5671179684268282,2591.1811524842124,None,001,100,2019_Nov_13_1004,ACPT_experiment_5_30_19,3.1.0,59.95509965482558,
,,,C,G,g,v,R,D,g,L,i,,,,,7,10,150,4,5,0,5,0,,,,,0,28,28,2,,,,,,up,0.5671167610107659,2593.032575166903,None,001,100,2019_Nov_13_1004,ACPT_experiment_5_30_19,3.1.0,59.95509965482558,
,,,C,G,g,v,R,G,y,R,y,,,,,7,10,150,4,5,0,5,0,,,,,0,29,29,29,,,,,,down,0.7005247126276117,2594.900658071679,None,001,100,2019_Nov_13_1004,ACPT_experiment_5_30_19,3.1.0,59.95509965482558,
,,,C,G,g,v,L,U,g,L,u,,,,,7,10,150,4,5,0,5,0,,,,,0,30,30,22,,,,,,up,0.5837685311876157,2596.9021697559906,None,001,100,2019_Nov_13_1004,ACPT_experiment_5_30_19,3.1.0,59.95509965482558,
,,,C,G,g,v,L,D,d,L,c ,,,,,7,10,150,4,5,0,5,0,,,,,0,31,31,12,,,,,,up,0.5670895941607341,2598.77024903852,None,001,100,2019_Nov_13_1004,ACPT_experiment_5_30_19,3.1.0,59.95509965482558,
,,,C,G,g,v,L,G,d,R,i,,,,,7,10,150,4,5,0,5,0,,,,,0,32,32,17,,,,,,up,0.516810998107303,2600.6385698041663,None,001,100,2019_Nov_13_1004,ACPT_experiment_5_30_19,3.1.0,59.95509965482558,
,,,C,G,g,v,L,D,g,R,i,,,,,7,10,150,4,5,0,5,0,,,,,0,33,33,15,,,,,,up,0.7172193460578455,2602.43968883693,None,001,100,2019_Nov_13_1004,ACPT_experiment_5_30_19,3.1.0,59.95509965482558,
,,,C,G,g,v,R,D,d,R,c ,,,,,7,10,150,4,5,0,5,0,,,,,0,34,34,1,,,,,,up,0.4836849478442673,2604.4578894194474,None,001,100,2019_Nov_13_1004,ACPT_experiment_5_30_19,3.1.0,59.95509965482558,
