facing_vig,person_vig,text_vig,facing_train,person_train,food_train,correct_key_train,facing_exp,person_exp,food_exp,showL_R,consistent,vig_random.thisRepN,vig_random.thisTrialN,vig_random.thisN,vig_random.thisIndex,trainTrials.thisRepN,trainTrials.thisTrialN,trainTrials.thisN,trainTrials.thisIndex,expBlock.thisRepN,expBlock.thisTrialN,expBlock.thisN,expBlock.thisIndex,breakLoop.thisRepN,breakLoop.thisTrialN,breakLoop.thisN,breakLoop.thisIndex,expTrials.thisRepN,expTrials.thisTrialN,expTrials.thisN,expTrials.thisIndex,train_resp.keys,train_resp.corr,train_resp.rt,train_resp.started,train_resp.stopped,exp_resp.keys,exp_resp.rt,exp_resp.started,exp_resp.stopped,session,participant,date,expName,psychopyVersion,frameRate,
C,D,"is allergic to gluten, meaning she can’t eat wheat products. She enjoys eating dairy products. She thinks eating insects, like crickets, is disgusting.",,,,,,,,,,0,0,0,1,,,,,,,,,,,,,,,,,,,,,,,,,,001,101,2019_Nov_14_1103,ACPT_experiment_5_30_19,3.1.0,59.962062524391335,
C,G,"cannot eat dairy products because she is lactose intolerant. She enjoys eating wheat products. She thinks eating insects, like crickets, is disgusting.",,,,,,,,,,0,1,1,0,,,,,,,,,,,,,,,,,,,,,,,,,,001,101,2019_Nov_14_1103,ACPT_experiment_5_30_19,3.1.0,59.962062524391335,
C,U,"did not report her food preferences, so her food preferences are unknown.",,,,,,,,,,0,2,2,2,,,,,,,,,,,,,,,,,,,,,,,,,,001,101,2019_Nov_14_1103,ACPT_experiment_5_30_19,3.1.0,59.962062524391335,
,,,C,G,y,b,,,,,,,,,,0,0,0,14,,,,,,,,,,,,,b,1,3.135752129899629,1073.0209138284101,None,,,,,001,101,2019_Nov_14_1103,ACPT_experiment_5_30_19,3.1.0,59.962062524391335,
,,,C,U,d,n,,,,,,,,,,0,1,1,6,,,,,,,,,,,,,n,1,4.420158945579033,1079.4425062906903,None,,,,,001,101,2019_Nov_14_1103,ACPT_experiment_5_30_19,3.1.0,59.962062524391335,
,,,C,D,g,b,,,,,,,,,,0,2,2,1,,,,,,,,,,,,,b,1,5.254032199640733,1087.148408370844,None,,,,,001,101,2019_Nov_14_1103,ACPT_experiment_5_30_19,3.1.0,59.962062524391335,
,,,C,U,y,n,,,,,,,,,,0,3,3,8,,,,,,,,,,,,,n,1,2.1516744585899232,1095.6882790917257,None,,,,,001,101,2019_Nov_14_1103,ACPT_experiment_5_30_19,3.1.0,59.962062524391335,
,,,C,G,d,b,,,,,,,,,,0,4,4,3,,,,,,,,,,,,,b,1,3.9864055889343035,1101.1257718471688,None,,,,,001,101,2019_Nov_14_1103,ACPT_experiment_5_30_19,3.1.0,59.962062524391335,
,,,C,D,d,v,,,,,,,,,,0,5,5,9,,,,,,,,,,,,,v,1,2.235060214342411,1108.3980078072175,None,,,,,001,101,2019_Nov_14_1103,ACPT_experiment_5_30_19,3.1.0,59.962062524391335,
,,,C,U,y,n,,,,,,,,,,0,6,6,17,,,,,,,,,,,,,n,1,2.2684373973686434,1113.9188983926742,None,,,,,001,101,2019_Nov_14_1103,ACPT_experiment_5_30_19,3.1.0,59.962062524391335,
,,,C,D,g,b,,,,,,,,,,0,7,7,10,,,,,,,,,,,,,b,1,7.188845978305153,1119.4731565017482,None,,,,,001,101,2019_Nov_14_1103,ACPT_experiment_5_30_19,3.1.0,59.962062524391335,
,,,C,U,g,n,,,,,,,,,,0,8,8,16,,,,,,,,,,,,,n,1,1.6012604925331289,1129.9478162490582,None,,,,,001,101,2019_Nov_14_1103,ACPT_experiment_5_30_19,3.1.0,59.962062524391335,
,,,C,G,g,v,,,,,,,,,,0,9,9,19,,,,,,,,,,,,,v,1,1.634596019357332,1134.834918281398,None,,,,,001,101,2019_Nov_14_1103,ACPT_experiment_5_30_19,3.1.0,59.962062524391335,
,,,C,U,d,n,,,,,,,,,,0,10,10,15,,,,,,,,,,,,,n,1,1.5011536956901637,1139.7553585572707,None,,,,,001,101,2019_Nov_14_1103,ACPT_experiment_5_30_19,3.1.0,59.962062524391335,
,,,C,G,g,v,,,,,,,,,,0,11,11,4,,,,,,,,,,,,,v,1,2.2350442159456634,1144.5423574150454,None,,,,,001,101,2019_Nov_14_1103,ACPT_experiment_5_30_19,3.1.0,59.962062524391335,
,,,C,D,d,v,,,,,,,,,,0,12,12,18,,,,,,,,,,,,,v,1,11.275297389061734,1150.063252830207,None,,,,,001,101,2019_Nov_14_1103,ACPT_experiment_5_30_19,3.1.0,59.962062524391335,
,,,C,G,y,b,,,,,,,,,,0,13,13,5,,,,,,,,,,,,,b,1,2.50194667281653,1164.6243869293703,None,,,,,001,101,2019_Nov_14_1103,ACPT_experiment_5_30_19,3.1.0,59.962062524391335,
,,,C,D,y,b,,,,,,,,,,0,14,14,11,,,,,,,,,,,,,b,1,0.8006500178698843,1170.4121552194617,None,,,,,001,101,2019_Nov_14_1103,ACPT_experiment_5_30_19,3.1.0,59.962062524391335,
,,,C,D,y,b,,,,,,,,,,0,15,15,2,,,,,,,,,,,,,b,1,2.5152513016053035,1174.5186553377896,None,,,,,001,101,2019_Nov_14_1103,ACPT_experiment_5_30_19,3.1.0,59.962062524391335,
,,,C,G,d,b,,,,,,,,,,0,16,16,12,,,,,,,,,,,,,b,1,1.9515272733419806,1180.3197192009736,None,,,,,001,101,2019_Nov_14_1103,ACPT_experiment_5_30_19,3.1.0,59.962062524391335,
,,,C,U,g,n,,,,,,,,,,0,17,17,7,,,,,,,,,,,,,n,1,1.9848658187315777,1185.557086806696,None,,,,,001,101,2019_Nov_14_1103,ACPT_experiment_5_30_19,3.1.0,59.962062524391335,
,,,C,D,d,v,,,,,,,,,,0,18,18,0,,,,,,,,,,,,,v,1,7.389026971485464,1190.8277911466685,None,,,,,001,101,2019_Nov_14_1103,ACPT_experiment_5_30_19,3.1.0,59.962062524391335,
,,,C,G,g,v,,,,,,,,,,0,19,19,13,,,,,,,,,,,,,v,1,2.5519667160906465,1201.502625850028,None,,,,,001,101,2019_Nov_14_1103,ACPT_experiment_5_30_19,3.1.0,59.962062524391335,
,,,C,D,d,v,,,,,,,,,,1,0,20,0,,,,,,,,,,,,,v,1,1.6179124084771956,1207.340434105925,None,,,,,001,101,2019_Nov_14_1103,ACPT_experiment_5_30_19,3.1.0,59.962062524391335,
,,,C,U,y,n,,,,,,,,,,1,1,21,8,,,,,,,,,,,,,n,1,2.2683909114618928,1212.2442085804532,None,,,,,001,101,2019_Nov_14_1103,ACPT_experiment_5_30_19,3.1.0,59.962062524391335,
,,,C,U,g,n,,,,,,,,,,1,2,22,16,,,,,,,,,,,,,n,1,2.435233661109123,1217.7817393094488,None,,,,,001,101,2019_Nov_14_1103,ACPT_experiment_5_30_19,3.1.0,59.962062524391335,
,,,C,G,d,b,,,,,,,,,,1,3,23,3,,,,,,,,,,,,,b,1,3.9363909790777143,1223.5028117936556,None,,,,,001,101,2019_Nov_14_1103,ACPT_experiment_5_30_19,3.1.0,59.962062524391335,
,,,C,D,d,v,,,,,,,,,,1,4,24,9,,,,,,,,,,,,,v,1,3.8196192864593286,1230.7249936006413,None,,,,,001,101,2019_Nov_14_1103,ACPT_experiment_5_30_19,3.1.0,59.962062524391335,
,,,C,G,y,b,,,,,,,,,,1,5,25,5,,,,,,,,,,,,,b,1,2.0182233810830894,1237.8304456730675,None,,,,,001,101,2019_Nov_14_1103,ACPT_experiment_5_30_19,3.1.0,59.962062524391335,
,,,C,D,d,v,,,,,,,,,,1,6,26,18,,,,,,,,,,,,,v,1,7.322311243069407,1243.1344828231554,None,,,,,001,101,2019_Nov_14_1103,ACPT_experiment_5_30_19,3.1.0,59.962062524391335,
,,,C,G,d,b,,,,,,,,,,1,7,27,12,,,,,,,,,,,,,b,1,3.4026174584162163,1253.7426298707571,None,,,,,001,101,2019_Nov_14_1103,ACPT_experiment_5_30_19,3.1.0,59.962062524391335,
,,,C,D,g,b,,,,,,,,,,1,8,28,10,,,,,,,,,,,,,b,1,1.5345263508684184,1260.4310819262794,None,,,,,001,101,2019_Nov_14_1103,ACPT_experiment_5_30_19,3.1.0,59.962062524391335,
,,,C,U,d,n,,,,,,,,,,1,9,29,6,,,,,,,,,,,,,n,1,1.9348309844870073,1265.2514431761103,None,,,,,001,101,2019_Nov_14_1103,ACPT_experiment_5_30_19,3.1.0,59.962062524391335,
,,,C,D,y,b,,,,,,,,,,1,10,30,2,,,,,,,,,,,,,b,1,1.684629344319319,1270.472106946564,None,,,,,001,101,2019_Nov_14_1103,ACPT_experiment_5_30_19,3.1.0,59.962062524391335,
,,,C,D,y,b,,,,,,,,,,1,11,31,11,,,,,,,,,,,,,b,1,2.3351322976836855,1275.425901766223,None,,,,,001,101,2019_Nov_14_1103,ACPT_experiment_5_30_19,3.1.0,59.962062524391335,
,,,C,G,g,v,,,,,,,,,,1,12,32,13,,,,,,,,,,,,,v,1,3.3359011262871263,1281.046871075865,None,,,,,001,101,2019_Nov_14_1103,ACPT_experiment_5_30_19,3.1.0,59.962062524391335,
,,,C,G,y,b,,,,,,,,,,1,13,33,14,,,,,,,,,,,,,b,1,1.0508383763499296,1287.651908699264,None,,,,,001,101,2019_Nov_14_1103,ACPT_experiment_5_30_19,3.1.0,59.962062524391335,
,,,C,U,d,n,,,,,,,,,,1,14,34,15,,,,,,,,,,,,,n,1,2.5851187141395258,1292.0054406622492,None,,,,,001,101,2019_Nov_14_1103,ACPT_experiment_5_30_19,3.1.0,59.962062524391335,
,,,C,U,g,n,,,,,,,,,,1,15,35,7,,,,,,,,,,,,,n,1,1.651271178254774,1297.8764271777138,None,,,,,001,101,2019_Nov_14_1103,ACPT_experiment_5_30_19,3.1.0,59.962062524391335,
,,,C,G,g,v,,,,,,,,,,1,16,36,19,,,,,,,,,,,,,v,1,4.770338187991456,1302.813536575353,None,,,,,001,101,2019_Nov_14_1103,ACPT_experiment_5_30_19,3.1.0,59.962062524391335,
,,,C,G,g,v,,,,,,,,,,1,17,37,4,,,,,,,,,,,,,v,1,0.9173770357203921,1310.8530269569962,None,,,,,001,101,2019_Nov_14_1103,ACPT_experiment_5_30_19,3.1.0,59.962062524391335,
,,,C,U,y,n,,,,,,,,,,1,18,38,17,,,,,,,,,,,,,b,0,1.6008644567548345,1315.0899752839866,None,,,,,001,101,2019_Nov_14_1103,ACPT_experiment_5_30_19,3.1.0,59.962062524391335,
,,,C,D,g,b,,,,,,,,,,1,19,39,1,,,,,,,,,,,,,b,1,5.203995554256835,1319.9766749415605,None,,,,,001,101,2019_Nov_14_1103,ACPT_experiment_5_30_19,3.1.0,59.962062524391335,
,,,C,G,y,b,,,,,,,,,,2,0,40,5,,,,,,,,,,,,,b,1,2.4018462149604147,1328.4665111300542,None,,,,,001,101,2019_Nov_14_1103,ACPT_experiment_5_30_19,3.1.0,59.962062524391335,
,,,C,D,d,v,,,,,,,,,,2,1,41,9,,,,,,,,,,,,,v,1,3.469366391051608,1334.1541756418676,None,,,,,001,101,2019_Nov_14_1103,ACPT_experiment_5_30_19,3.1.0,59.962062524391335,
,,,C,G,d,b,,,,,,,,,,2,2,42,12,,,,,,,,,,,,,b,1,1.167556338504255,1340.9093802523037,None,,,,,001,101,2019_Nov_14_1103,ACPT_experiment_5_30_19,3.1.0,59.962062524391335,
,,,C,U,y,n,,,,,,,,,,2,3,43,17,,,,,,,,,,,,,n,1,1.3010270366864916,1345.3627751120491,None,,,,,001,101,2019_Nov_14_1103,ACPT_experiment_5_30_19,3.1.0,59.962062524391335,
,,,C,D,g,b,,,,,,,,,,2,4,44,10,,,,,,,,,,,,,b,1,7.572495375557764,1349.9496207474451,None,,,,,001,101,2019_Nov_14_1103,ACPT_experiment_5_30_19,3.1.0,59.962062524391335,
,,,C,U,y,n,,,,,,,,,,2,5,45,8,,,,,,,,,,,,,n,1,1.000821351641207,1360.8079151010375,None,,,,,001,101,2019_Nov_14_1103,ACPT_experiment_5_30_19,3.1.0,59.962062524391335,
,,,C,U,g,n,,,,,,,,,,2,6,46,7,,,,,,,,,,,,,n,1,1.701325935030809,1365.0778614792418,None,,,,,001,101,2019_Nov_14_1103,ACPT_experiment_5_30_19,3.1.0,59.962062524391335,
,,,C,G,g,v,,,,,,,,,,2,7,47,4,,,,,,,,,,,,,v,1,1.250966544636185,1370.0650241243745,None,,,,,001,101,2019_Nov_14_1103,ACPT_experiment_5_30_19,3.1.0,59.962062524391335,
,,,C,U,g,n,,,,,,,,,,2,8,48,16,,,,,,,,,,,,,n,1,1.1673220978304926,1374.6187796423121,None,,,,,001,101,2019_Nov_14_1103,ACPT_experiment_5_30_19,3.1.0,59.962062524391335,
,,,C,D,y,b,,,,,,,,,,2,9,49,11,,,,,,,,,,,,,b,1,2.9689939000832055,1379.0885912717579,None,,,,,001,101,2019_Nov_14_1103,ACPT_experiment_5_30_19,3.1.0,59.962062524391335,
,,,C,G,g,v,,,,,,,,,,2,10,50,19,,,,,,,,,,,,,v,1,1.034334973822979,1385.343384451732,None,,,,,001,101,2019_Nov_14_1103,ACPT_experiment_5_30_19,3.1.0,59.962062524391335,
,,,C,D,y,b,,,,,,,,,,2,11,51,2,,,,,,,,,,,,,b,1,1.4343963110716231,1389.680281704596,None,,,,,001,101,2019_Nov_14_1103,ACPT_experiment_5_30_19,3.1.0,59.962062524391335,
,,,C,U,d,n,,,,,,,,,,2,12,52,15,,,,,,,,,,,,,n,1,1.3176620486640331,1394.4003336118462,None,,,,,001,101,2019_Nov_14_1103,ACPT_experiment_5_30_19,3.1.0,59.962062524391335,
,,,C,G,g,v,,,,,,,,,,2,13,53,13,,,,,,,,,,,,,v,1,0.7668511412593944,1399.037578724185,None,,,,,001,101,2019_Nov_14_1103,ACPT_experiment_5_30_19,3.1.0,59.962062524391335,
,,,C,U,d,n,,,,,,,,,,2,14,54,6,,,,,,,,,,,,,n,1,1.3343785619069877,1403.0903139670227,None,,,,,001,101,2019_Nov_14_1103,ACPT_experiment_5_30_19,3.1.0,59.962062524391335,
,,,C,G,d,b,,,,,,,,,,2,15,55,3,,,,,,,,,,,,,b,1,2.118051564341158,1407.7274271680544,None,,,,,001,101,2019_Nov_14_1103,ACPT_experiment_5_30_19,3.1.0,59.962062524391335,
,,,C,D,d,v,,,,,,,,,,2,16,56,0,,,,,,,,,,,,,v,1,4.486756648088431,1413.1313344594594,None,,,,,001,101,2019_Nov_14_1103,ACPT_experiment_5_30_19,3.1.0,59.962062524391335,
,,,C,D,g,b,,,,,,,,,,2,17,57,1,,,,,,,,,,,,,b,1,1.5178391177096273,1420.8872505457566,None,,,,,001,101,2019_Nov_14_1103,ACPT_experiment_5_30_19,3.1.0,59.962062524391335,
,,,C,D,d,v,,,,,,,,,,2,18,58,18,,,,,,,,,,,,,b,0,2.485270306493021,1425.6742303865694,None,,,,,001,101,2019_Nov_14_1103,ACPT_experiment_5_30_19,3.1.0,59.962062524391335,
,,,C,G,y,b,,,,,,,,,,2,19,59,14,,,,,,,,,,,,,b,1,2.9689356417709405,1431.4453518922783,None,,,,,001,101,2019_Nov_14_1103,ACPT_experiment_5_30_19,3.1.0,59.962062524391335,
,,,C,D,g,b,,,,,,,,,,3,0,60,1,,,,,,,,,,,,,b,1,1.4010121853448254,1437.7001828043196,None,,,,,001,101,2019_Nov_14_1103,ACPT_experiment_5_30_19,3.1.0,59.962062524391335,
,,,C,U,d,n,,,,,,,,,,3,1,61,15,,,,,,,,,,,,,n,1,0.9003266691458975,1442.404080557058,None,,,,,001,101,2019_Nov_14_1103,ACPT_experiment_5_30_19,3.1.0,59.962062524391335,
,,,C,D,g,b,,,,,,,,,,3,2,62,10,,,,,,,,,,,,,b,1,4.136531523482063,1446.5902572179934,None,,,,,001,101,2019_Nov_14_1103,ACPT_experiment_5_30_19,3.1.0,59.962062524391335,
,,,C,D,y,b,,,,,,,,,,3,3,63,11,,,,,,,,,,,,,b,1,1.7847451968589212,1453.995907127195,None,,,,,001,101,2019_Nov_14_1103,ACPT_experiment_5_30_19,3.1.0,59.962062524391335,
,,,C,U,y,n,,,,,,,,,,3,4,64,8,,,,,,,,,,,,,n,1,1.3343649783630553,1459.066472432046,None,,,,,001,101,2019_Nov_14_1103,ACPT_experiment_5_30_19,3.1.0,59.962062524391335,
,,,C,D,d,v,,,,,,,,,,3,5,65,0,,,,,,,,,,,,,b,0,1.0505395383768246,1463.7036275911364,None,,,,,001,101,2019_Nov_14_1103,ACPT_experiment_5_30_19,3.1.0,59.962062524391335,
,,,C,U,d,n,,,,,,,,,,3,6,66,6,,,,,,,,,,,,,n,1,1.284338897957923,1468.0399959913452,None,,,,,001,101,2019_Nov_14_1103,ACPT_experiment_5_30_19,3.1.0,59.962062524391335,
,,,C,D,d,v,,,,,,,,,,3,7,67,18,,,,,,,,,,,,,v,1,5.937636137298796,1472.6270945825204,None,,,,,001,101,2019_Nov_14_1103,ACPT_experiment_5_30_19,3.1.0,59.962062524391335,
,,,C,D,y,b,,,,,,,,,,3,8,68,2,,,,,,,,,,,,,b,1,0.9507442574813467,1481.850571354056,None,,,,,001,101,2019_Nov_14_1103,ACPT_experiment_5_30_19,3.1.0,59.962062524391335,
,,,C,U,g,n,,,,,,,,,,3,9,69,16,,,,,,,,,,,,,n,1,1.0837775655390942,1486.104199669648,None,,,,,001,101,2019_Nov_14_1103,ACPT_experiment_5_30_19,3.1.0,59.962062524391335,
,,,C,U,g,n,,,,,,,,,,3,10,70,7,,,,,,,,,,,,,n,1,1.334375543341821,1490.4571722924675,None,,,,,001,101,2019_Nov_14_1103,ACPT_experiment_5_30_19,3.1.0,59.962062524391335,
,,,C,G,y,b,,,,,,,,,,3,11,71,5,,,,,,,,,,,,,b,1,1.617650095145109,1495.0943096420222,None,,,,,001,101,2019_Nov_14_1103,ACPT_experiment_5_30_19,3.1.0,59.962062524391335,
,,,C,G,g,v,,,,,,,,,,3,12,72,19,,,,,,,,,,,,,v,1,0.9007154603675644,1499.9810953287097,None,,,,,001,101,2019_Nov_14_1103,ACPT_experiment_5_30_19,3.1.0,59.962062524391335,
,,,C,G,d,b,,,,,,,,,,3,13,73,12,,,,,,,,,,,,,b,1,1.017448515348633,1504.1676580641576,None,,,,,001,101,2019_Nov_14_1103,ACPT_experiment_5_30_19,3.1.0,59.962062524391335,
,,,C,G,g,v,,,,,,,,,,3,14,74,4,,,,,,,,,,,,,v,1,1.050819359388015,1508.4542524341712,None,,,,,001,101,2019_Nov_14_1103,ACPT_experiment_5_30_19,3.1.0,59.962062524391335,
,,,C,U,y,n,,,,,,,,,,3,15,75,17,,,,,,,,,,,,,n,1,1.6009655786951953,1512.8078580501517,None,,,,,001,101,2019_Nov_14_1103,ACPT_experiment_5_30_19,3.1.0,59.962062524391335,
,,,C,G,y,b,,,,,,,,,,3,16,76,14,,,,,,,,,,,,,b,1,1.2176113971370341,1517.694662753801,None,,,,,001,101,2019_Nov_14_1103,ACPT_experiment_5_30_19,3.1.0,59.962062524391335,
,,,C,G,g,v,,,,,,,,,,3,17,77,13,,,,,,,,,,,,,v,1,0.9338478377412684,1522.1983758910806,None,,,,,001,101,2019_Nov_14_1103,ACPT_experiment_5_30_19,3.1.0,59.962062524391335,
,,,C,G,d,b,,,,,,,,,,3,18,78,3,,,,,,,,,,,,,b,1,0.8673723871297625,1526.4013261161447,None,,,,,001,101,2019_Nov_14_1103,ACPT_experiment_5_30_19,3.1.0,59.962062524391335,
,,,C,D,d,v,,,,,,,,,,3,19,79,9,,,,,,,,,,,,,v,1,4.353078876320751,1530.5714877784324,None,,,,,001,101,2019_Nov_14_1103,ACPT_experiment_5_30_19,3.1.0,59.962062524391335,
,,,C,D,d,v,,,,,,,,,,4,0,80,18,,,,,,,,,,,,,v,1,0.8675130522767631,1538.210202026544,None,,,,,001,101,2019_Nov_14_1103,ACPT_experiment_5_30_19,3.1.0,59.962062524391335,
,,,C,D,d,v,,,,,,,,,,4,1,81,9,,,,,,,,,,,,,v,1,0.8640060830130096,1542.3837855345516,None,,,,,001,101,2019_Nov_14_1103,ACPT_experiment_5_30_19,3.1.0,59.962062524391335,
,,,C,D,y,b,,,,,,,,,,4,2,82,11,,,,,,,,,,,,,b,1,1.5845611851129888,1546.5333883517185,None,,,,,001,101,2019_Nov_14_1103,ACPT_experiment_5_30_19,3.1.0,59.962062524391335,
,,,C,U,g,n,,,,,,,,,,4,3,83,16,,,,,,,,,,,,,n,1,0.6338628098255867,1551.4037832283677,None,,,,,001,101,2019_Nov_14_1103,ACPT_experiment_5_30_19,3.1.0,59.962062524391335,
,,,C,U,d,n,,,,,,,,,,4,4,84,15,,,,,,,,,,,,,n,1,1.3343619597974339,1555.3234540719238,None,,,,,001,101,2019_Nov_14_1103,ACPT_experiment_5_30_19,3.1.0,59.962062524391335,
,,,C,D,g,b,,,,,,,,,,4,5,85,10,,,,,,,,,,,,,b,1,1.351028968568471,1559.9436569678148,None,,,,,001,101,2019_Nov_14_1103,ACPT_experiment_5_30_19,3.1.0,59.962062524391335,
,,,C,U,d,n,,,,,,,,,,4,6,86,6,,,,,,,,,,,,,n,1,1.5011636569556686,1564.5805304947548,None,,,,,001,101,2019_Nov_14_1103,ACPT_experiment_5_30_19,3.1.0,59.962062524391335,
,,,C,G,g,v,,,,,,,,,,4,7,87,13,,,,,,,,,,,,,v,1,0.9507756505611269,1569.3675236172555,None,,,,,001,101,2019_Nov_14_1103,ACPT_experiment_5_30_19,3.1.0,59.962062524391335,
,,,C,D,d,v,,,,,,,,,,4,8,88,0,,,,,,,,,,,,,v,1,2.2185577173850106,1573.6207897050017,None,,,,,001,101,2019_Nov_14_1103,ACPT_experiment_5_30_19,3.1.0,59.962062524391335,
,,,C,D,y,b,,,,,,,,,,4,9,89,2,,,,,,,,,,,,,b,1,0.8006225489248209,1579.124986114599,None,,,,,001,101,2019_Nov_14_1103,ACPT_experiment_5_30_19,3.1.0,59.962062524391335,
,,,C,U,y,n,,,,,,,,,,4,10,90,17,,,,,,,,,,,,,n,1,0.5833767000560783,1583.2451868974942,None,,,,,001,101,2019_Nov_14_1103,ACPT_experiment_5_30_19,3.1.0,59.962062524391335,
,,,C,G,g,v,,,,,,,,,,4,11,91,4,,,,,,,,,,,,,v,1,1.7847125963526196,1587.1144295877364,None,,,,,001,101,2019_Nov_14_1103,ACPT_experiment_5_30_19,3.1.0,59.962062524391335,
,,,C,G,y,b,,,,,,,,,,4,12,92,14,,,,,,,,,,,,,b,1,1.1342328859418558,1592.1682777756312,None,,,,,001,101,2019_Nov_14_1103,ACPT_experiment_5_30_19,3.1.0,59.962062524391335,
,,,C,G,g,v,,,,,,,,,,4,13,93,19,,,,,,,,,,,,,v,1,0.8170284517898381,1596.5886139109982,None,,,,,001,101,2019_Nov_14_1103,ACPT_experiment_5_30_19,3.1.0,59.962062524391335,
,,,C,U,g,n,,,,,,,,,,4,14,94,7,,,,,,,,,,,,,b,0,0.8339644147363288,1600.6914923545776,None,,,,,001,101,2019_Nov_14_1103,ACPT_experiment_5_30_19,3.1.0,59.962062524391335,
,,,C,G,y,b,,,,,,,,,,4,15,95,5,,,,,,,,,,,,,b,1,3.4523836403416226,1604.8282529871722,None,,,,,001,101,2019_Nov_14_1103,ACPT_experiment_5_30_19,3.1.0,59.962062524391335,
,,,C,G,d,b,,,,,,,,,,4,16,96,3,,,,,,,,,,,,,b,1,1.4678344691189977,1611.549767691208,None,,,,,001,101,2019_Nov_14_1103,ACPT_experiment_5_30_19,3.1.0,59.962062524391335,
,,,C,G,d,b,,,,,,,,,,4,17,97,12,,,,,,,,,,,,,b,1,1.3510591542221846,1616.286744996426,None,,,,,001,101,2019_Nov_14_1103,ACPT_experiment_5_30_19,3.1.0,59.962062524391335,
,,,C,U,y,n,,,,,,,,,,4,18,98,8,,,,,,,,,,,,,b,0,0.9169634922629939,1620.940703301586,None,,,,,001,101,2019_Nov_14_1103,ACPT_experiment_5_30_19,3.1.0,59.962062524391335,
,,,C,D,g,b,,,,,,,,,,4,19,99,1,,,,,,,,,,,,,n,0,0.23503757510184187,None,None,,,,,001,101,2019_Nov_14_1103,ACPT_experiment_5_30_19,3.1.0,59.962062524391335,
,,,C,D,y,b,,,,,,,,,,5,0,100,2,,,,,,,,,,,,,b,1,1.283989649942896,1628.4130043419045,None,,,,,001,101,2019_Nov_14_1103,ACPT_experiment_5_30_19,3.1.0,59.962062524391335,
,,,C,U,y,n,,,,,,,,,,5,1,101,8,,,,,,,,,,,,,n,1,1.3677050330350085,1632.9828690377296,None,,,,,001,101,2019_Nov_14_1103,ACPT_experiment_5_30_19,3.1.0,59.962062524391335,
,,,C,D,d,v,,,,,,,,,,5,2,102,9,,,,,,,,,,,,,v,1,1.6009903309313813,1637.6700098284489,None,,,,,001,101,2019_Nov_14_1103,ACPT_experiment_5_30_19,3.1.0,59.962062524391335,
,,,C,U,g,n,,,,,,,,,,5,3,103,16,,,,,,,,,,,,,n,1,1.2509472258175265,1642.5568576975832,None,,,,,001,101,2019_Nov_14_1103,ACPT_experiment_5_30_19,3.1.0,59.962062524391335,
,,,C,G,g,v,,,,,,,,,,5,4,104,19,,,,,,,,,,,,,v,1,0.8170281499335488,1647.110595405985,None,,,,,001,101,2019_Nov_14_1103,ACPT_experiment_5_30_19,3.1.0,59.962062524391335,
,,,C,G,g,v,,,,,,,,,,5,5,105,13,,,,,,,,,,,,,v,1,0.9007205919285752,1651.1967603548867,None,,,,,001,101,2019_Nov_14_1103,ACPT_experiment_5_30_19,3.1.0,59.962062524391335,
,,,C,G,d,b,,,,,,,,,,5,6,106,3,,,,,,,,,,,,,b,1,1.250951149952698,1655.3666494407203,None,,,,,001,101,2019_Nov_14_1103,ACPT_experiment_5_30_19,3.1.0,59.962062524391335,
,,,C,G,d,b,,,,,,,,,,5,7,107,12,,,,,,,,,,,,,b,1,1.401090969901361,1659.8867621418774,None,,,,,001,101,2019_Nov_14_1103,ACPT_experiment_5_30_19,3.1.0,59.962062524391335,
,,,C,D,d,v,,,,,,,,,,5,8,108,18,,,,,,,,,,,,,v,1,1.6007799369240274,1664.5907884855012,None,,,,,001,101,2019_Nov_14_1103,ACPT_experiment_5_30_19,3.1.0,59.962062524391335,
,,,C,U,d,n,,,,,,,,,,5,9,109,15,,,,,,,,,,,,,n,1,0.8172968022524856,1669.4774335070417,None,,,,,001,101,2019_Nov_14_1103,ACPT_experiment_5_30_19,3.1.0,59.962062524391335,
,,,C,G,y,b,,,,,,,,,,5,10,110,14,,,,,,,,,,,,,b,1,1.2173213130035947,1673.5975192825956,None,,,,,001,101,2019_Nov_14_1103,ACPT_experiment_5_30_19,3.1.0,59.962062524391335,
,,,C,D,d,v,,,,,,,,,,5,11,111,0,,,,,,,,,,,,,v,1,0.950611742460751,1678.1006936059541,None,,,,,001,101,2019_Nov_14_1103,ACPT_experiment_5_30_19,3.1.0,59.962062524391335,
,,,C,U,d,n,,,,,,,,,,5,12,112,6,,,,,,,,,,,,,n,1,1.1008409119449425,1682.3539563732782,None,,,,,001,101,2019_Nov_14_1103,ACPT_experiment_5_30_19,3.1.0,59.962062524391335,
,,,C,G,g,v,,,,,,,,,,5,13,113,4,,,,,,,,,,,,,v,1,0.7506511045535262,1686.740607130093,None,,,,,001,101,2019_Nov_14_1103,ACPT_experiment_5_30_19,3.1.0,59.962062524391335,
,,,C,G,y,b,,,,,,,,,,5,14,114,5,,,,,,,,,,,,,b,1,0.7138979580008709,1690.797064565906,None,,,,,001,101,2019_Nov_14_1103,ACPT_experiment_5_30_19,3.1.0,59.962062524391335,
,,,C,D,g,b,,,,,,,,,,5,15,115,10,,,,,,,,,,,,,b,1,2.3684968027355353,1694.7968182509708,None,,,,,001,101,2019_Nov_14_1103,ACPT_experiment_5_30_19,3.1.0,59.962062524391335,
,,,C,U,g,n,,,,,,,,,,5,16,116,7,,,,,,,,,,,,,n,1,1.1507658704092592,1700.4511212762977,None,,,,,001,101,2019_Nov_14_1103,ACPT_experiment_5_30_19,3.1.0,59.962062524391335,
,,,C,D,y,b,,,,,,,,,,5,17,117,11,,,,,,,,,,,,,b,1,1.1504552600313218,1704.9049329999227,None,,,,,001,101,2019_Nov_14_1103,ACPT_experiment_5_30_19,3.1.0,59.962062524391335,
,,,C,U,y,n,,,,,,,,,,5,18,118,17,,,,,,,,,,,,,n,1,1.0842215965071773,1709.341258777988,None,,,,,001,101,2019_Nov_14_1103,ACPT_experiment_5_30_19,3.1.0,59.962062524391335,
,,,C,D,g,b,,,,,,,,,,5,19,119,1,0,0,0,0,0,0,0,0,,,,,b,1,3.385518492939127,1713.7283257949694,None,,,,,001,101,2019_Nov_14_1103,ACPT_experiment_5_30_19,3.1.0,59.962062524391335,
,,,C,D,g,b,L,G,d,L,i,,,,,5,19,119,1,0,0,0,0,,,,,0,0,0,16,,,,,,up,1.1645718829086036,1768.005773610011,None,001,101,2019_Nov_14_1103,ACPT_experiment_5_30_19,3.1.0,59.962062524391335,
,,,C,D,g,b,R,U,d,L,u,,,,,5,19,119,1,0,0,0,0,,,,,0,1,1,8,,,,,,up,0.8006252656339257,1770.4546680906246,None,001,101,2019_Nov_14_1103,ACPT_experiment_5_30_19,3.1.0,59.962062524391335,
,,,C,D,g,b,R,U,g,R,u,,,,,5,19,119,1,0,0,0,0,,,,,0,2,2,11,,,,,,up,0.9840972919846536,1772.5228921961632,None,001,101,2019_Nov_14_1103,ACPT_experiment_5_30_19,3.1.0,59.962062524391335,
,,,C,D,g,b,R,D,y,R,y,,,,,5,19,119,1,0,0,0,0,,,,,0,3,3,27,,,,,,down,0.8506495348995031,1774.7913148025616,None,001,101,2019_Nov_14_1103,ACPT_experiment_5_30_19,3.1.0,59.962062524391335,
,,,C,D,g,b,R,D,g,R,i,,,,,5,19,119,1,0,0,0,0,,,,,0,4,4,3,,,,,,up,0.7172364913160436,1776.9095803831888,None,001,101,2019_Nov_14_1103,ACPT_experiment_5_30_19,3.1.0,59.962062524391335,
,,,C,D,g,b,R,U,g,L,u,,,,,5,19,119,1,0,0,0,0,,,,,0,5,5,10,,,,,,up,0.4836915967969162,1778.9111424907753,None,001,101,2019_Nov_14_1103,ACPT_experiment_5_30_19,3.1.0,59.962062524391335,
,,,C,D,g,b,L,D,g,R,i,,,,,5,19,119,1,0,0,0,0,,,,,0,6,6,15,,,,,,up,0.7505569253135036,1780.6791699669648,None,001,101,2019_Nov_14_1103,ACPT_experiment_5_30_19,3.1.0,59.962062524391335,
,,,C,D,g,b,R,U,y,R,u,,,,,5,19,119,1,0,0,0,0,,,,,0,7,7,31,,,,,,down,0.8339650184495895,1782.7140425472828,None,001,101,2019_Nov_14_1103,ACPT_experiment_5_30_19,3.1.0,59.962062524391335,
,,,C,D,g,b,L,D,d,R,c ,,,,,5,19,119,1,0,0,0,0,,,,,0,8,8,13,,,,,,up,0.5670921435196306,1784.8490086427564,None,001,101,2019_Nov_14_1103,ACPT_experiment_5_30_19,3.1.0,59.962062524391335,
,,,C,D,g,b,R,D,d,R,c ,,,,,5,19,119,1,0,0,0,0,,,,,0,9,9,1,,,,,,up,0.6505153294824595,1786.7004028577362,None,001,101,2019_Nov_14_1103,ACPT_experiment_5_30_19,3.1.0,59.962062524391335,
,,,C,D,g,b,R,G,g,R,c ,,,,,5,19,119,1,0,0,0,0,,,,,0,10,10,7,,,,,,up,0.6338305111760292,1788.6352359552188,None,001,101,2019_Nov_14_1103,ACPT_experiment_5_30_19,3.1.0,59.962062524391335,
,,,C,D,g,b,L,U,d,L,u,,,,,5,19,119,1,0,0,0,0,,,,,0,11,11,20,,,,,,up,0.5504151734828611,1790.5533697452813,None,001,101,2019_Nov_14_1103,ACPT_experiment_5_30_19,3.1.0,59.962062524391335,
,,,C,D,g,b,L,G,y,L,y,,,,,5,19,119,1,0,0,0,0,,,,,0,12,12,34,,,,,,down,0.7672148783881312,1792.3881349854144,None,001,101,2019_Nov_14_1103,ACPT_experiment_5_30_19,3.1.0,59.962062524391335,
,,,C,D,g,b,L,G,g,R,c ,,,,,5,19,119,1,0,0,0,0,,,,,0,13,13,19,,,,,,up,1.1642328980160528,1794.4596837388674,None,001,101,2019_Nov_14_1103,ACPT_experiment_5_30_19,3.1.0,59.962062524391335,
,,,C,D,g,b,R,G,g,L,c ,,,,,5,19,119,1,0,0,0,0,,,,,0,14,14,6,,,,,,up,0.45034369385462014,1796.908228971466,None,001,101,2019_Nov_14_1103,ACPT_experiment_5_30_19,3.1.0,59.962062524391335,
,,,C,D,g,b,L,D,g,L,i,,,,,5,19,119,1,0,0,0,0,,,,,0,15,15,14,,,,,,up,0.383645171261378,1798.6428665866545,None,001,101,2019_Nov_14_1103,ACPT_experiment_5_30_19,3.1.0,59.962062524391335,
,,,C,D,g,b,R,U,y,L,u,,,,,5,19,119,1,0,0,0,0,,,,,0,16,16,30,,,,,,down,0.5504157771961218,1800.327513438653,None,001,101,2019_Nov_14_1103,ACPT_experiment_5_30_19,3.1.0,59.962062524391335,
,,,C,D,g,b,L,G,d,R,i,,,,,5,19,119,1,0,0,0,0,,,,,0,17,17,17,,,,,,up,0.5170717983887698,1802.1789330095821,None,001,101,2019_Nov_14_1103,ACPT_experiment_5_30_19,3.1.0,59.962062524391335,
,,,C,D,g,b,L,U,g,R,u,,,,,5,19,119,1,0,0,0,0,,,,,0,18,18,23,,,,,,up,0.43365978111773984,1803.980308992427,None,001,101,2019_Nov_14_1103,ACPT_experiment_5_30_19,3.1.0,59.962062524391335,
,,,C,D,g,b,L,U,d,R,u,,,,,5,19,119,1,0,0,0,0,,,,,0,19,19,21,,,,,,up,0.4837254047292845,1805.6815875359812,None,001,101,2019_Nov_14_1103,ACPT_experiment_5_30_19,3.1.0,59.962062524391335,
,,,C,D,g,b,L,U,y,L,u,,,,,5,19,119,1,0,0,0,0,,,,,0,20,20,24,,,,,,down,0.6001910148174829,1807.44989936103,None,001,101,2019_Nov_14_1103,ACPT_experiment_5_30_19,3.1.0,59.962062524391335,
,,,C,D,g,b,R,U,d,R,u,,,,,5,19,119,1,0,0,0,0,,,,,0,21,21,9,,,,,,up,0.5170561018489934,1809.334403616,None,001,101,2019_Nov_14_1103,ACPT_experiment_5_30_19,3.1.0,59.962062524391335,
,,,C,D,g,b,R,G,d,L,i,,,,,5,19,119,1,0,0,0,0,,,,,0,22,22,4,,,,,,up,0.5837488891679641,1811.1358146142031,None,001,101,2019_Nov_14_1103,ACPT_experiment_5_30_19,3.1.0,59.962062524391335,
,,,C,D,g,b,R,D,y,L,y,,,,,5,19,119,1,0,0,0,0,,,,,0,23,23,26,,,,,,down,0.6004605727064245,1813.003877649093,None,001,101,2019_Nov_14_1103,ACPT_experiment_5_30_19,3.1.0,59.962062524391335,
,,,C,D,g,b,R,D,d,L,c,,,,,5,19,119,1,0,0,0,0,,,,,0,24,24,0,,,,,,up,0.5670918416631139,1814.8886611213609,None,001,101,2019_Nov_14_1103,ACPT_experiment_5_30_19,3.1.0,59.962062524391335,
,,,C,D,g,b,L,U,y,R,u,,,,,5,19,119,1,0,0,0,0,,,,,0,25,25,25,,,,,,down,0.45031320634439,1816.756795092537,None,001,101,2019_Nov_14_1103,ACPT_experiment_5_30_19,3.1.0,59.962062524391335,
,,,C,D,g,b,R,G,d,R,i,,,,,5,19,119,1,0,0,0,0,,,,,0,26,26,5,,,,,,down,0.5337222050497985,1818.5081003202095,None,001,101,2019_Nov_14_1103,ACPT_experiment_5_30_19,3.1.0,59.962062524391335,
,,,C,D,g,b,L,D,y,L,y,,,,,5,19,119,1,0,0,0,0,,,,,0,27,27,32,,,,,,down,0.6500634502444882,1820.3432268826189,None,001,101,2019_Nov_14_1103,ACPT_experiment_5_30_19,3.1.0,59.962062524391335,
,,,C,D,g,b,L,D,d,L,c ,,,,,5,19,119,1,0,0,0,0,,,,,0,28,28,12,,,,,,up,0.6004865323689046,1822.277638588374,None,001,101,2019_Nov_14_1103,ACPT_experiment_5_30_19,3.1.0,59.962062524391335,
,,,C,D,g,b,L,U,g,L,u,,,,,5,19,119,1,0,0,0,0,,,,,0,29,29,22,,,,,,up,0.6171520318569037,1824.162389761992,None,001,101,2019_Nov_14_1103,ACPT_experiment_5_30_19,3.1.0,59.962062524391335,
,,,C,D,g,b,L,G,y,R,y,,,,,5,19,119,1,0,0,0,0,,,,,0,30,30,35,,,,,,down,0.6338175313449028,1826.0638806918068,None,001,101,2019_Nov_14_1103,ACPT_experiment_5_30_19,3.1.0,59.962062524391335,
,,,C,D,g,b,R,G,y,R,y,,,,,5,19,119,1,0,0,0,0,,,,,0,31,31,29,,,,,,down,0.8170770506926601,1828.0155395745996,None,001,101,2019_Nov_14_1103,ACPT_experiment_5_30_19,3.1.0,59.962062524391335,
,,,C,D,g,b,R,G,y,L,y,,,,,5,19,119,1,0,0,0,0,,,,,0,32,32,28,,,,,,down,0.7338929351080878,1830.1336424545525,None,001,101,2019_Nov_14_1103,ACPT_experiment_5_30_19,3.1.0,59.962062524391335,
,,,C,D,g,b,R,D,g,L,i,,,,,5,19,119,1,0,0,0,0,,,,,0,33,33,2,,,,,,up,0.6838478377412684,1832.1518652319223,None,001,101,2019_Nov_14_1103,ACPT_experiment_5_30_19,3.1.0,59.962062524391335,
,,,C,D,g,b,L,D,y,R,y,,,,,5,19,119,1,0,0,0,0,,,,,0,34,34,33,,,,,,down,0.7505427380563106,1834.1367304469409,None,001,101,2019_Nov_14_1103,ACPT_experiment_5_30_19,3.1.0,59.962062524391335,
,,,C,D,g,b,L,G,g,L,c ,,,,,5,19,119,1,0,0,0,0,,,,,0,35,35,18,,,,,,up,0.8172832187083259,1836.1882784880127,None,001,101,2019_Nov_14_1103,ACPT_experiment_5_30_19,3.1.0,59.962062524391335,
,,,C,D,g,b,R,U,d,R,u,,,,,5,19,119,1,0,0,0,0,,,,,1,0,36,9,,,,,,up,0.7505768478449681,1838.289878871008,None,001,101,2019_Nov_14_1103,ACPT_experiment_5_30_19,3.1.0,59.962062524391335,
,,,C,D,g,b,R,D,d,L,c,,,,,5,19,119,1,0,0,0,0,,,,,1,1,37,0,,,,,,up,0.5170548944226994,1840.308095913104,None,001,101,2019_Nov_14_1103,ACPT_experiment_5_30_19,3.1.0,59.962062524391335,
,,,C,D,g,b,R,U,y,R,u,,,,,5,19,119,1,0,0,0,0,,,,,1,2,38,31,,,,,,down,0.5804610677510027,1842.1294686841952,None,001,101,2019_Nov_14_1103,ACPT_experiment_5_30_19,3.1.0,59.962062524391335,
,,,C,D,g,b,L,D,g,L,i,,,,,5,19,119,1,0,0,0,0,,,,,1,3,39,14,,,,,,up,0.550425738461854,1843.9942429920986,None,001,101,2019_Nov_14_1103,ACPT_experiment_5_30_19,3.1.0,59.962062524391335,
,,,C,D,g,b,R,D,y,R,y,,,,,5,19,119,1,0,0,0,0,,,,,1,4,40,27,,,,,,down,0.6004617801324912,1845.828976537295,None,001,101,2019_Nov_14_1103,ACPT_experiment_5_30_19,3.1.0,59.962062524391335,
,,,C,D,g,b,L,D,g,R,i,,,,,5,19,119,1,0,0,0,0,,,,,1,5,41,15,,,,,,up,0.8172838224213592,1847.7137871766513,None,001,101,2019_Nov_14_1103,ACPT_experiment_5_30_19,3.1.0,59.962062524391335,
,,,C,D,g,b,L,U,y,L,u,,,,,5,19,119,1,0,0,0,0,,,,,1,6,42,24,,,,,,down,0.6672387854257522,1849.815361298128,None,001,101,2019_Nov_14_1103,ACPT_experiment_5_30_19,3.1.0,59.962062524391335,
,,,C,D,g,b,L,G,g,L,c ,,,,,5,19,119,1,0,0,0,0,,,,,1,7,43,18,,,,,,up,0.5504200031875826,1851.7668526505418,None,001,101,2019_Nov_14_1103,ACPT_experiment_5_30_19,3.1.0,59.962062524391335,
,,,C,D,g,b,R,D,g,L,i,,,,,5,19,119,1,0,0,0,0,,,,,1,8,44,2,,,,,,up,0.5003794336687406,1853.6015895161602,None,001,101,2019_Nov_14_1103,ACPT_experiment_5_30_19,3.1.0,59.962062524391335,
,,,C,D,g,b,R,D,y,L,y,,,,,5,19,119,1,0,0,0,0,,,,,1,9,45,26,,,,,,down,0.5501422951722361,1855.4199213844831,None,001,101,2019_Nov_14_1103,ACPT_experiment_5_30_19,3.1.0,59.962062524391335,
,,,C,D,g,b,L,U,y,R,u,,,,,5,19,119,1,0,0,0,0,,,,,1,10,46,25,,,,,,down,0.650471862141103,1857.271084679211,None,001,101,2019_Nov_14_1103,ACPT_experiment_5_30_19,3.1.0,59.962062524391335,
,,,C,D,g,b,R,D,d,R,c ,,,,,5,19,119,1,0,0,0,0,,,,,1,11,47,1,,,,,,down,0.5337430331510404,1859.205875214922,None,001,101,2019_Nov_14_1103,ACPT_experiment_5_30_19,3.1.0,59.962062524391335,
,,,C,D,g,b,R,G,y,R,y,,,,,5,19,119,1,0,0,0,0,,,,,1,12,48,29,,,,,,down,0.7839295804917583,1861.04061208054,None,001,101,2019_Nov_14_1103,ACPT_experiment_5_30_19,3.1.0,59.962062524391335,
,,,C,D,g,b,R,U,g,R,u,,,,,5,19,119,1,0,0,0,0,,,,,1,13,49,11,,,,,,up,0.6004578559975471,1863.1255445491954,None,001,101,2019_Nov_14_1103,ACPT_experiment_5_30_19,3.1.0,59.962062524391335,
,,,C,D,g,b,L,G,g,R,c ,,,,,5,19,119,1,0,0,0,0,,,,,1,14,50,19,,,,,,up,0.8006433770260628,1865.0102887801131,None,001,101,2019_Nov_14_1103,ACPT_experiment_5_30_19,3.1.0,59.962062524391335,
,,,C,D,g,b,L,U,d,L,u,,,,,5,19,119,1,0,0,0,0,,,,,1,15,51,20,,,,,,up,0.5670942565152473,1867.0952508307091,None,001,101,2019_Nov_14_1103,ACPT_experiment_5_30_19,3.1.0,59.962062524391335,
,,,C,D,g,b,L,G,y,R,y,,,,,5,19,119,1,0,0,0,0,,,,,1,16,52,35,,,,,,down,0.7506139761992472,1868.9466359899927,None,001,101,2019_Nov_14_1103,ACPT_experiment_5_30_19,3.1.0,59.962062524391335,
,,,C,D,g,b,R,G,g,R,c ,,,,,5,19,119,1,0,0,0,0,,,,,1,17,53,7,,,,,,up,0.7505943555242993,1870.9815514339393,None,001,101,2019_Nov_14_1103,ACPT_experiment_5_30_19,3.1.0,59.962062524391335,
,,,C,D,g,b,R,D,g,R,i,,,,,5,19,119,1,0,0,0,0,,,,,1,18,54,3,,,,,,up,0.6171502207175763,1873.016422203118,None,001,101,2019_Nov_14_1103,ACPT_experiment_5_30_19,3.1.0,59.962062524391335,
,,,C,D,g,b,L,U,g,R,u,,,,,5,19,119,1,0,0,0,0,,,,,1,19,55,23,,,,,,up,0.48369914321028773,1874.917895323397,None,001,101,2019_Nov_14_1103,ACPT_experiment_5_30_19,3.1.0,59.962062524391335,
,,,C,D,g,b,R,G,y,L,y,,,,,5,19,119,1,0,0,0,0,,,,,1,20,56,28,,,,,,down,0.6338108905010813,1876.7025955436316,None,001,101,2019_Nov_14_1103,ACPT_experiment_5_30_19,3.1.0,59.962062524391335,
,,,C,D,g,b,L,G,d,L,i,,,,,5,19,119,1,0,0,0,0,,,,,1,21,57,16,,,,,,up,0.6171354297471225,1878.6374075111567,None,001,101,2019_Nov_14_1103,ACPT_experiment_5_30_19,3.1.0,59.962062524391335,
,,,C,D,g,b,L,U,g,L,u,,,,,5,19,119,1,0,0,0,0,,,,,1,22,58,22,,,,,,up,0.6502041153912614,1880.555827763074,None,001,101,2019_Nov_14_1103,ACPT_experiment_5_30_19,3.1.0,59.962062524391335,
,,,C,D,g,b,R,U,g,L,u,,,,,5,19,119,1,0,0,0,0,,,,,1,23,59,10,,,,,,up,0.5504462647063519,1882.490353872457,None,001,101,2019_Nov_14_1103,ACPT_experiment_5_30_19,3.1.0,59.962062524391335,
,,,C,D,g,b,L,D,y,R,y,,,,,5,19,119,1,0,0,0,0,,,,,1,24,60,33,,,,,,down,0.5337433350077845,1884.32508771951,None,001,101,2019_Nov_14_1103,ACPT_experiment_5_30_19,3.1.0,59.962062524391335,
,,,C,D,g,b,L,D,d,L,c ,,,,,5,19,119,1,0,0,0,0,,,,,1,25,61,12,,,,,,up,0.600505851186881,1886.1264455909627,None,001,101,2019_Nov_14_1103,ACPT_experiment_5_30_19,3.1.0,59.962062524391335,
,,,C,D,g,b,L,G,d,R,i,,,,,5,19,119,1,0,0,0,0,,,,,1,26,62,17,,,,,,up,0.583792658366292,1887.9945466597765,None,001,101,2019_Nov_14_1103,ACPT_experiment_5_30_19,3.1.0,59.962062524391335,
,,,C,D,g,b,L,U,d,R,u,,,,,5,19,119,1,0,0,0,0,,,,,1,27,63,21,,,,,,up,0.46702428616981706,1889.8459764938275,None,001,101,2019_Nov_14_1103,ACPT_experiment_5_30_19,3.1.0,59.962062524391335,
,,,C,D,g,b,R,G,d,L,i,,,,,5,19,119,1,0,0,0,0,,,,,1,28,64,4,,,,,,up,0.7172217003458172,1891.5973125108667,None,001,101,2019_Nov_14_1103,ACPT_experiment_5_30_19,3.1.0,59.962062524391335,
,,,C,D,g,b,R,U,y,L,u,,,,,5,19,119,1,0,0,0,0,,,,,1,29,65,30,,,,,,down,0.5637593454785019,1893.618865369569,None,001,101,2019_Nov_14_1103,ACPT_experiment_5_30_19,3.1.0,59.962062524391335,
,,,C,D,g,b,L,G,y,L,y,,,,,5,19,119,1,0,0,0,0,,,,,1,30,66,34,,,,,,down,0.6338084756484932,1895.4502655130113,None,001,101,2019_Nov_14_1103,ACPT_experiment_5_30_19,3.1.0,59.962062524391335,
,,,C,D,g,b,L,D,y,L,y,,,,,5,19,119,1,0,0,0,0,,,,,1,31,67,32,,,,,,down,0.5003863763695335,1897.3850744619708,None,001,101,2019_Nov_14_1103,ACPT_experiment_5_30_19,3.1.0,59.962062524391335,
,,,C,D,g,b,R,G,d,R,i,,,,,5,19,119,1,0,0,0,0,,,,,1,32,68,5,,,,,,up,0.5503922323860024,1899.1864782156172,None,001,101,2019_Nov_14_1103,ACPT_experiment_5_30_19,3.1.0,59.962062524391335,
,,,C,D,g,b,R,G,g,L,c ,,,,,5,19,119,1,0,0,0,0,,,,,1,33,69,6,,,,,,up,0.5671156883295225,1901.0044898141527,None,001,101,2019_Nov_14_1103,ACPT_experiment_5_30_19,3.1.0,59.962062524391335,
,,,C,D,g,b,L,D,d,R,c ,,,,,5,19,119,1,0,0,0,0,,,,,1,34,70,13,,,,,,up,0.6004629875587852,1902.8559253834787,None,001,101,2019_Nov_14_1103,ACPT_experiment_5_30_19,3.1.0,59.962062524391335,
,,,C,D,g,b,R,U,d,L,u,,,,,5,19,119,1,0,0,0,0,,,,,1,35,71,8,,,,,,up,0.5338046118849888,1904.7407061390377,None,001,101,2019_Nov_14_1103,ACPT_experiment_5_30_19,3.1.0,59.962062524391335,
,,,C,D,g,b,,,,,,,,,,5,19,119,1,1,0,1,0,0,0,0,0,,,,,,,,,,,,,,001,101,2019_Nov_14_1103,ACPT_experiment_5_30_19,3.1.0,59.962062524391335,
,,,C,D,g,b,R,U,g,R,u,,,,,5,19,119,1,1,0,1,0,,,,,0,0,0,11,,,,,,up,0.73363364034185,1910.8956786821668,None,001,101,2019_Nov_14_1103,ACPT_experiment_5_30_19,3.1.0,59.962062524391335,
,,,C,D,g,b,L,G,d,L,i,,,,,5,19,119,1,1,0,1,0,,,,,0,1,1,16,,,,,,up,0.5670996899330021,1912.9136177143905,None,001,101,2019_Nov_14_1103,ACPT_experiment_5_30_19,3.1.0,59.962062524391335,
,,,C,D,g,b,L,U,y,L,u,,,,,5,19,119,1,1,0,1,0,,,,,0,2,2,24,,,,,,down,0.7339050093696642,1914.7650415113112,None,001,101,2019_Nov_14_1103,ACPT_experiment_5_30_19,3.1.0,59.962062524391335,
,,,C,D,g,b,R,D,d,L,c,,,,,5,19,119,1,1,0,1,0,,,,,0,3,3,0,,,,,,up,0.6004536300060863,1916.7832482902845,None,001,101,2019_Nov_14_1103,ACPT_experiment_5_30_19,3.1.0,59.962062524391335,
,,,C,D,g,b,R,U,y,L,u,,,,,5,19,119,1,1,0,1,0,,,,,0,4,4,30,,,,,,down,0.733923724475062,1918.6680208957168,None,001,101,2019_Nov_14_1103,ACPT_experiment_5_30_19,3.1.0,59.962062524391335,
,,,C,D,g,b,L,U,y,R,u,,,,,5,19,119,1,1,0,1,0,,,,,0,5,5,25,,,,,,down,0.7339128576395524,1920.6862068465894,None,001,101,2019_Nov_14_1103,ACPT_experiment_5_30_19,3.1.0,59.962062524391335,
,,,C,D,g,b,L,G,d,R,i,,,,,5,19,119,1,1,0,1,0,,,,,0,6,6,17,,,,,,up,0.4836973320711877,1922.704442000077,None,001,101,2019_Nov_14_1103,ACPT_experiment_5_30_19,3.1.0,59.962062524391335,
,,,C,D,g,b,R,U,d,L,u,,,,,5,19,119,1,1,0,1,0,,,,,0,7,7,8,,,,,,up,0.48368616337938874,1924.4724752115412,None,001,101,2019_Nov_14_1103,ACPT_experiment_5_30_19,3.1.0,59.962062524391335,
,,,C,D,g,b,R,G,d,R,i,,,,,5,19,119,1,1,0,1,0,,,,,0,8,8,5,,,,,,up,0.5504420387146638,1926.240478841064,None,001,101,2019_Nov_14_1103,ACPT_experiment_5_30_19,3.1.0,59.962062524391335,
,,,C,D,g,b,L,U,g,L,u,,,,,5,19,119,1,1,0,1,0,,,,,0,9,9,22,,,,,,up,0.4503479198460809,1928.0752129899734,None,001,101,2019_Nov_14_1103,ACPT_experiment_5_30_19,3.1.0,59.962062524391335,
,,,C,D,g,b,L,D,y,L,y,,,,,5,19,119,1,1,0,1,0,,,,,0,10,10,32,,,,,,down,0.6835960893881747,1929.826808603636,None,001,101,2019_Nov_14_1103,ACPT_experiment_5_30_19,3.1.0,59.962062524391335,
,,,C,D,g,b,R,D,y,R,y,,,,,5,19,119,1,1,0,1,0,,,,,0,11,11,27,,,,,,down,0.517064553831915,1931.8114139201748,None,001,101,2019_Nov_14_1103,ACPT_experiment_5_30_19,3.1.0,59.962062524391335,
,,,C,D,g,b,L,G,y,L,y,,,,,5,19,119,1,1,0,1,0,,,,,0,12,12,34,,,,,,down,0.5337499758511512,1933.629444535672,None,001,101,2019_Nov_14_1103,ACPT_experiment_5_30_19,3.1.0,59.962062524391335,
,,,C,D,g,b,R,D,g,L,i,,,,,5,19,119,1,1,0,1,0,,,,,0,13,13,2,,,,,,up,0.6505023496511058,1935.4475198259374,None,001,101,2019_Nov_14_1103,ACPT_experiment_5_30_19,3.1.0,59.962062524391335,
,,,C,D,g,b,L,U,d,L,u,,,,,5,19,119,1,1,0,1,0,,,,,0,14,14,20,,,,,,up,0.6505243851784144,1937.3823330008886,None,001,101,2019_Nov_14_1103,ACPT_experiment_5_30_19,3.1.0,59.962062524391335,
,,,C,D,g,b,L,U,g,R,u,,,,,5,19,119,1,1,0,1,0,,,,,0,15,15,23,,,,,,up,0.6004557430014756,1939.3004761485035,None,001,101,2019_Nov_14_1103,ACPT_experiment_5_30_19,3.1.0,59.962062524391335,
,,,C,D,g,b,L,U,d,R,u,,,,,5,19,119,1,1,0,1,0,,,,,0,16,16,21,,,,,,up,0.6670621993507666,1941.1852406038097,None,001,101,2019_Nov_14_1103,ACPT_experiment_5_30_19,3.1.0,59.962062524391335,
,,,C,D,g,b,L,G,g,L,c ,,,,,5,19,119,1,1,0,1,0,,,,,0,17,17,18,,,,,,up,0.6335875166623737,1943.170331607519,None,001,101,2019_Nov_14_1103,ACPT_experiment_5_30_19,3.1.0,59.962062524391335,
,,,C,D,g,b,L,D,d,R,c ,,,,,5,19,119,1,1,0,1,0,,,,,0,18,18,13,,,,,,up,0.583794469505392,1945.08820127311,None,001,101,2019_Nov_14_1103,ACPT_experiment_5_30_19,3.1.0,59.962062524391335,
,,,C,D,g,b,R,U,d,R,u,,,,,5,19,119,1,1,0,1,0,,,,,0,19,19,9,,,,,,up,0.5337584278345275,1946.9563316220078,None,001,101,2019_Nov_14_1103,ACPT_experiment_5_30_19,3.1.0,59.962062524391335,
,,,C,D,g,b,R,D,d,R,c ,,,,,5,19,119,1,1,0,1,0,,,,,0,20,20,1,,,,,,up,0.5504133623435337,1948.774386084172,None,001,101,2019_Nov_14_1103,ACPT_experiment_5_30_19,3.1.0,59.962062524391335,
,,,C,D,g,b,R,G,d,L,i,,,,,5,19,119,1,1,0,1,0,,,,,0,21,21,4,,,,,,up,0.44694569480134305,1950.6291662239437,None,001,101,2019_Nov_14_1103,ACPT_experiment_5_30_19,3.1.0,59.962062524391335,
,,,C,D,g,b,R,D,g,R,i,,,,,5,19,119,1,1,0,1,0,,,,,0,22,22,3,,,,,,up,0.5504574333986056,1952.3604538352683,None,001,101,2019_Nov_14_1103,ACPT_experiment_5_30_19,3.1.0,59.962062524391335,
,,,C,D,g,b,R,G,g,L,c ,,,,,5,19,119,1,1,0,1,0,,,,,0,23,23,6,,,,,,up,0.5337741243743039,1954.1951716839249,None,001,101,2019_Nov_14_1103,ACPT_experiment_5_30_19,3.1.0,59.962062524391335,
,,,C,D,g,b,L,G,y,R,y,,,,,5,19,119,1,1,0,1,0,,,,,0,24,24,35,,,,,,down,0.633815418348604,1956.0132463704767,None,001,101,2019_Nov_14_1103,ACPT_experiment_5_30_19,3.1.0,59.962062524391335,
,,,C,D,g,b,L,D,g,R,i,,,,,5,19,119,1,1,0,1,0,,,,,0,25,25,15,,,,,,up,0.633394630334351,1957.9484628257637,None,001,101,2019_Nov_14_1103,ACPT_experiment_5_30_19,3.1.0,59.962062524391335,
,,,C,D,g,b,L,G,g,R,c ,,,,,5,19,119,1,1,0,1,0,,,,,0,26,26,19,,,,,,up,0.5671033122112021,1959.866190316925,None,001,101,2019_Nov_14_1103,ACPT_experiment_5_30_19,3.1.0,59.962062524391335,
,,,C,D,g,b,R,U,g,L,u,,,,,5,19,119,1,1,0,1,0,,,,,0,27,27,10,,,,,,up,0.5170603278402268,1961.7176104915675,None,001,101,2019_Nov_14_1103,ACPT_experiment_5_30_19,3.1.0,59.962062524391335,
,,,C,D,g,b,L,D,d,L,c ,,,,,5,19,119,1,1,0,1,0,,,,,0,28,28,12,,,,,,up,0.600458459710353,1963.5189867762688,None,001,101,2019_Nov_14_1103,ACPT_experiment_5_30_19,3.1.0,59.962062524391335,
,,,C,D,g,b,R,U,y,R,u,,,,,5,19,119,1,1,0,1,0,,,,,0,29,29,31,,,,,,down,0.6835858262656984,1965.4207119467574,None,001,101,2019_Nov_14_1103,ACPT_experiment_5_30_19,3.1.0,59.962062524391335,
,,,C,D,g,b,L,D,y,R,y,,,,,5,19,119,1,1,0,1,0,,,,,0,30,30,33,,,,,,down,0.8172780871473151,1967.4052961333387,None,001,101,2019_Nov_14_1103,ACPT_experiment_5_30_19,3.1.0,59.962062524391335,
,,,C,D,g,b,R,G,g,R,c ,,,,,5,19,119,1,1,0,1,0,,,,,0,31,31,7,,,,,,up,0.6505117072038047,1969.523581636497,None,001,101,2019_Nov_14_1103,ACPT_experiment_5_30_19,3.1.0,59.962062524391335,
,,,C,D,g,b,R,G,y,L,y,,,,,5,19,119,1,1,0,1,0,,,,,0,32,32,28,,,,,,down,0.7172168706415505,1971.4583872650346,None,001,101,2019_Nov_14_1103,ACPT_experiment_5_30_19,3.1.0,59.962062524391335,
,,,C,D,g,b,L,D,g,L,i,,,,,5,19,119,1,1,0,1,0,,,,,0,33,33,14,,,,,,up,0.6171357316038666,1973.4599237148154,None,001,101,2019_Nov_14_1103,ACPT_experiment_5_30_19,3.1.0,59.962062524391335,
,,,C,D,g,b,R,D,y,L,y,,,,,5,19,119,1,1,0,1,0,,,,,0,34,34,26,,,,,,down,0.5170364811738182,1975.3614013629426,None,001,101,2019_Nov_14_1103,ACPT_experiment_5_30_19,3.1.0,59.962062524391335,
,,,C,D,g,b,R,G,y,R,y,,,,,5,19,119,1,1,0,1,0,,,,,0,35,35,29,,,,,,down,0.8172795964301258,1977.1627682900912,None,001,101,2019_Nov_14_1103,ACPT_experiment_5_30_19,3.1.0,59.962062524391335,
,,,C,D,g,b,L,G,d,R,i,,,,,5,19,119,1,1,0,1,0,,,,,1,0,36,17,,,,,,up,0.6171221480594795,1979.264381049205,None,001,101,2019_Nov_14_1103,ACPT_experiment_5_30_19,3.1.0,59.962062524391335,
,,,C,D,g,b,R,D,y,R,y,,,,,5,19,119,1,1,0,1,0,,,,,1,1,37,27,,,,,,down,0.7005552952882681,1981.16580134459,None,001,101,2019_Nov_14_1103,ACPT_experiment_5_30_19,3.1.0,59.962062524391335,
,,,C,D,g,b,R,G,g,R,c ,,,,,5,19,119,1,1,0,1,0,,,,,1,2,38,7,,,,,,up,0.5837739432608942,1983.1506719930258,None,001,101,2019_Nov_14_1103,ACPT_experiment_5_30_19,3.1.0,59.962062524391335,
,,,C,D,g,b,L,D,y,R,y,,,,,5,19,119,1,1,0,1,0,,,,,1,3,39,33,,,,,,down,0.6504718621408756,1985.0354630117072,None,001,101,2019_Nov_14_1103,ACPT_experiment_5_30_19,3.1.0,59.962062524391335,
,,,C,D,g,b,L,G,y,R,y,,,,,5,19,119,1,1,0,1,0,,,,,1,4,40,35,,,,,,down,0.7505665847224918,1986.9869362527288,None,001,101,2019_Nov_14_1103,ACPT_experiment_5_30_19,3.1.0,59.962062524391335,
,,,C,D,g,b,L,U,g,R,u,,,,,5,19,119,1,1,0,1,0,,,,,1,5,41,23,,,,,,up,0.5337418257249738,1989.021825737013,None,001,101,2019_Nov_14_1103,ACPT_experiment_5_30_19,3.1.0,59.962062524391335,
,,,C,D,g,b,R,D,y,L,y,,,,,5,19,119,1,1,0,1,0,,,,,1,6,42,26,,,,,,down,0.5001050460755323,1990.8568366883683,None,001,101,2019_Nov_14_1103,ACPT_experiment_5_30_19,3.1.0,59.962062524391335,
,,,C,D,g,b,R,D,g,R,i,,,,,5,19,119,1,1,0,1,0,,,,,1,7,43,3,,,,,,up,0.41698462222029775,1992.641259502444,None,001,101,2019_Nov_14_1103,ACPT_experiment_5_30_19,3.1.0,59.962062524391335,
,,,C,D,g,b,L,G,y,L,y,,,,,5,19,119,1,1,0,1,0,,,,,1,8,44,34,,,,,,down,0.4837196694547856,1994.3425615908081,None,001,101,2019_Nov_14_1103,ACPT_experiment_5_30_19,3.1.0,59.962062524391335,
,,,C,D,g,b,R,G,g,L,c ,,,,,5,19,119,1,1,0,1,0,,,,,1,9,45,6,,,,,,up,0.6504908791025628,1996.1105794075884,None,001,101,2019_Nov_14_1103,ACPT_experiment_5_30_19,3.1.0,59.962062524391335,
,,,C,D,g,b,L,G,d,L,i,,,,,5,19,119,1,1,0,1,0,,,,,1,10,46,16,,,,,,up,0.46674929486334804,1998.0623430346,None,001,101,2019_Nov_14_1103,ACPT_experiment_5_30_19,3.1.0,59.962062524391335,
,,,C,D,g,b,L,U,y,R,u,,,,,5,19,119,1,1,0,1,0,,,,,1,11,47,25,,,,,,down,0.45035908853787987,1999.813425492147,None,001,101,2019_Nov_14_1103,ACPT_experiment_5_30_19,3.1.0,59.962062524391335,
,,,C,D,g,b,L,D,g,L,i,,,,,5,19,119,1,1,0,1,0,,,,,1,12,48,14,,,,,,up,0.6338410761550222,2001.5480703518924,None,001,101,2019_Nov_14_1103,ACPT_experiment_5_30_19,3.1.0,59.962062524391335,
,,,C,D,g,b,R,D,g,L,i,,,,,5,19,119,1,1,0,1,0,,,,,1,13,49,2,,,,,,up,0.8006294916253864,2003.4662080660896,None,001,101,2019_Nov_14_1103,ACPT_experiment_5_30_19,3.1.0,59.962062524391335,
,,,C,D,g,b,R,G,y,R,y,,,,,5,19,119,1,1,0,1,0,,,,,1,14,50,29,,,,,,down,0.4670505476888138,2005.5678129769335,None,001,101,2019_Nov_14_1103,ACPT_experiment_5_30_19,3.1.0,59.962062524391335,
,,,C,D,g,b,R,G,d,R,i,,,,,5,19,119,1,1,0,1,0,,,,,1,15,51,5,,,,,,up,0.5670948602282806,2007.3358329067096,None,001,101,2019_Nov_14_1103,ACPT_experiment_5_30_19,3.1.0,59.962062524391335,
,,,C,D,g,b,L,D,y,L,y,,,,,5,19,119,1,1,0,1,0,,,,,1,16,52,32,,,,,,down,0.5838328052859652,2009.2039303532447,None,001,101,2019_Nov_14_1103,ACPT_experiment_5_30_19,3.1.0,59.962062524391335,
,,,C,D,g,b,L,D,g,R,i,,,,,5,19,119,1,1,0,1,0,,,,,1,17,53,15,,,,,,up,0.597025445298641,2011.108830148948,None,001,101,2019_Nov_14_1103,ACPT_experiment_5_30_19,3.1.0,59.962062524391335,
,,,C,D,g,b,R,D,d,R,c ,,,,,5,19,119,1,1,0,1,0,,,,,1,18,54,1,,,,,,up,0.7674041424374991,2012.9901573638508,None,001,101,2019_Nov_14_1103,ACPT_experiment_5_30_19,3.1.0,59.962062524391335,
,,,C,D,g,b,R,U,d,R,u,,,,,5,19,119,1,1,0,1,0,,,,,1,19,55,9,,,,,,up,0.5837537188726856,2015.0417464574116,None,001,101,2019_Nov_14_1103,ACPT_experiment_5_30_19,3.1.0,59.962062524391335,
,,,C,D,g,b,L,U,y,L,u,,,,,5,19,119,1,1,0,1,0,,,,,1,20,56,24,,,,,,down,0.533740316442163,2016.909821566563,None,001,101,2019_Nov_14_1103,ACPT_experiment_5_30_19,3.1.0,59.962062524391335,
,,,C,D,g,b,R,U,g,R,u,,,,,5,19,119,1,1,0,1,0,,,,,1,21,57,11,,,,,,up,0.5504224180399433,2018.7278724064486,None,001,101,2019_Nov_14_1103,ACPT_experiment_5_30_19,3.1.0,59.962062524391335,
,,,C,D,g,b,R,U,y,L,u,,,,,5,19,119,1,1,0,1,0,,,,,1,22,58,30,,,,,,down,0.5170561018485387,2020.5626147054845,None,001,101,2019_Nov_14_1103,ACPT_experiment_5_30_19,3.1.0,59.962062524391335,
,,,C,D,g,b,R,D,d,L,c,,,,,5,19,119,1,1,0,1,0,,,,,1,23,59,0,,,,,,up,0.6838837586697082,2022.363988273477,None,001,101,2019_Nov_14_1103,ACPT_experiment_5_30_19,3.1.0,59.962062524391335,
,,,C,D,g,b,R,U,d,L,u,,,,,5,19,119,1,1,0,1,0,,,,,1,24,60,8,,,,,,up,0.5304096313966511,2024.3521739104185,None,001,101,2019_Nov_14_1103,ACPT_experiment_5_30_19,3.1.0,59.962062524391335,
,,,C,D,g,b,L,U,d,R,u,,,,,5,19,119,1,1,0,1,0,,,,,1,25,61,21,,,,,,up,0.6671717732742763,2026.1669007061028,None,001,101,2019_Nov_14_1103,ACPT_experiment_5_30_19,3.1.0,59.962062524391335,
,,,C,D,g,b,R,G,y,L,y,,,,,5,19,119,1,1,0,1,0,,,,,1,26,62,28,,,,,,down,0.4670315307266719,2028.1183799842552,None,001,101,2019_Nov_14_1103,ACPT_experiment_5_30_19,3.1.0,59.962062524391335,
,,,C,D,g,b,L,D,d,R,c ,,,,,5,19,119,1,1,0,1,0,,,,,1,27,63,13,,,,,,up,0.5170844763633795,2029.8697307922648,None,001,101,2019_Nov_14_1103,ACPT_experiment_5_30_19,3.1.0,59.962062524391335,
,,,C,D,g,b,L,U,g,L,u,,,,,5,19,119,1,1,0,1,0,,,,,1,28,64,22,,,,,,up,0.4667722359599793,2031.6880593401656,None,001,101,2019_Nov_14_1103,ACPT_experiment_5_30_19,3.1.0,59.962062524391335,
,,,C,D,g,b,L,G,g,R,c ,,,,,5,19,119,1,1,0,1,0,,,,,1,29,65,19,,,,,,up,0.45036874794732284,2033.4224476218533,None,001,101,2019_Nov_14_1103,ACPT_experiment_5_30_19,3.1.0,59.962062524391335,
,,,C,D,g,b,L,D,d,L,c ,,,,,5,19,119,1,1,0,1,0,,,,,1,30,66,12,,,,,,up,0.40030674661466037,2035.1571114985609,None,001,101,2019_Nov_14_1103,ACPT_experiment_5_30_19,3.1.0,59.962062524391335,
,,,C,D,g,b,R,U,y,R,u,,,,,5,19,119,1,1,0,1,0,,,,,1,31,67,31,,,,,,down,0.6504772955586304,2036.8417438614456,None,001,101,2019_Nov_14_1103,ACPT_experiment_5_30_19,3.1.0,59.962062524391335,
,,,C,D,g,b,R,U,g,L,u,,,,,5,19,119,1,1,0,1,0,,,,,1,32,68,10,,,,,,up,0.38015661524605093,2038.7966594744316,None,001,101,2019_Nov_14_1103,ACPT_experiment_5_30_19,3.1.0,59.962062524391335,
,,,C,D,g,b,R,G,d,L,i,,,,,5,19,119,1,1,0,1,0,,,,,1,33,69,4,,,,,,up,0.48371604717658556,2040.4611667600411,None,001,101,2019_Nov_14_1103,ACPT_experiment_5_30_19,3.1.0,59.962062524391335,
,,,C,D,g,b,L,U,d,L,u,,,,,5,19,119,1,1,0,1,0,,,,,1,34,70,20,,,,,,up,0.4837039729150092,2042.2291812563994,None,001,101,2019_Nov_14_1103,ACPT_experiment_5_30_19,3.1.0,59.962062524391335,
,,,C,D,g,b,L,G,g,L,c ,,,,,5,19,119,1,1,0,1,0,,,,,1,35,71,18,,,,,,up,0.40030282247971627,2043.9972029973146,None,001,101,2019_Nov_14_1103,ACPT_experiment_5_30_19,3.1.0,59.962062524391335,
,,,C,D,g,b,,,,,,,,,,5,19,119,1,2,0,2,0,0,0,0,0,,,,,,,,,,,,,,001,101,2019_Nov_14_1103,ACPT_experiment_5_30_19,3.1.0,59.962062524391335,
,,,C,D,g,b,R,U,y,R,u,,,,,5,19,119,1,2,0,2,0,,,,,0,0,0,31,,,,,,down,0.7806058381470393,2047.9368772699613,None,001,101,2019_Nov_14_1103,ACPT_experiment_5_30_19,3.1.0,59.962062524391335,
,,,C,D,g,b,R,U,d,R,u,,,,,5,19,119,1,2,0,2,0,,,,,0,1,1,9,,,,,,up,0.6671814326837193,2049.98511183181,None,001,101,2019_Nov_14_1103,ACPT_experiment_5_30_19,3.1.0,59.962062524391335,
,,,C,D,g,b,R,G,y,L,y,,,,,5,19,119,1,2,0,2,0,,,,,0,2,2,28,,,,,,down,0.5504106456346562,2051.936611032494,None,001,101,2019_Nov_14_1103,ACPT_experiment_5_30_19,3.1.0,59.962062524391335,
,,,C,D,g,b,R,D,g,R,i,,,,,5,19,119,1,2,0,2,0,,,,,0,3,3,3,,,,,,up,0.650486049398296,2053.771351520391,None,001,101,2019_Nov_14_1103,ACPT_experiment_5_30_19,3.1.0,59.962062524391335,
,,,C,D,g,b,R,U,g,L,u,,,,,5,19,119,1,2,0,2,0,,,,,0,4,4,10,,,,,,up,0.48359168228262206,2055.70615443222,None,001,101,2019_Nov_14_1103,ACPT_experiment_5_30_19,3.1.0,59.962062524391335,
,,,C,D,g,b,R,D,g,L,i,,,,,5,19,119,1,2,0,2,0,,,,,0,5,5,2,,,,,,up,0.5504151734826337,2057.4741758712785,None,001,101,2019_Nov_14_1103,ACPT_experiment_5_30_19,3.1.0,59.962062524391335,
,,,C,D,g,b,L,D,g,L,i,,,,,5,19,119,1,2,0,2,0,,,,,0,6,6,14,,,,,,up,0.5003966394915551,2059.30891334061,None,001,101,2019_Nov_14_1103,ACPT_experiment_5_30_19,3.1.0,59.962062524391335,
,,,C,D,g,b,R,G,g,R,c ,,,,,5,19,119,1,2,0,2,0,,,,,0,7,7,7,,,,,,up,0.6835939763923307,2061.110553447926,None,001,101,2019_Nov_14_1103,ACPT_experiment_5_30_19,3.1.0,59.962062524391335,
,,,C,D,g,b,R,D,d,R,c ,,,,,5,19,119,1,2,0,2,0,,,,,0,8,8,1,,,,,,up,0.48369853949770913,2063.0784633811795,None,001,101,2019_Nov_14_1103,ACPT_experiment_5_30_19,3.1.0,59.962062524391335,
,,,C,D,g,b,R,U,g,R,u,,,,,5,19,119,1,2,0,2,0,,,,,0,9,9,11,,,,,,up,0.41698341479423107,2064.8464802923904,None,001,101,2019_Nov_14_1103,ACPT_experiment_5_30_19,3.1.0,59.962062524391335,
,,,C,D,g,b,L,G,y,R,y,,,,,5,19,119,1,2,0,2,0,,,,,0,10,10,35,,,,,,down,0.68385447858509,2066.5477802677588,None,001,101,2019_Nov_14_1103,ACPT_experiment_5_30_19,3.1.0,59.962062524391335,
,,,C,D,g,b,R,D,d,L,c,,,,,5,19,119,1,2,0,2,0,,,,,0,11,11,0,,,,,,up,0.600456648571253,2068.515953419914,None,001,101,2019_Nov_14_1103,ACPT_experiment_5_30_19,3.1.0,59.962062524391335,
,,,C,D,g,b,L,G,d,L,i,,,,,5,19,119,1,2,0,2,0,,,,,0,12,12,16,,,,,,up,0.5504453591370293,2070.4007054991016,None,001,101,2019_Nov_14_1103,ACPT_experiment_5_30_19,3.1.0,59.962062524391335,
,,,C,D,g,b,L,D,y,R,y,,,,,5,19,119,1,2,0,2,0,,,,,0,13,13,33,,,,,,down,0.5837905453699932,2072.2354520241292,None,001,101,2019_Nov_14_1103,ACPT_experiment_5_30_19,3.1.0,59.962062524391335,
,,,C,D,g,b,L,U,y,R,u,,,,,5,19,119,1,2,0,2,0,,,,,0,14,14,25,,,,,,down,0.8003732154238605,2074.1204839243283,None,001,101,2019_Nov_14_1103,ACPT_experiment_5_30_19,3.1.0,59.962062524391335,
,,,C,D,g,b,L,U,g,L,u,,,,,5,19,119,1,2,0,2,0,,,,,0,15,15,22,,,,,,up,0.366948580549888,2076.1884825430325,None,001,101,2019_Nov_14_1103,ACPT_experiment_5_30_19,3.1.0,59.962062524391335,
,,,C,D,g,b,R,G,d,R,i,,,,,5,19,119,1,2,0,2,0,,,,,0,16,16,5,,,,,,up,3.335884826034089,2077.839752212005,None,001,101,2019_Nov_14_1103,ACPT_experiment_5_30_19,3.1.0,59.962062524391335,
,,,C,D,g,b,R,G,y,R,y,,,,,5,19,119,1,2,0,2,0,,,,,0,17,17,29,,,,,,down,0.6671889790968635,2082.443252480053,None,001,101,2019_Nov_14_1103,ACPT_experiment_5_30_19,3.1.0,59.962062524391335,
,,,C,D,g,b,L,D,y,L,y,,,,,5,19,119,1,2,0,2,0,,,,,0,18,18,32,,,,,,down,0.9173719041591539,2084.3947631512856,None,001,101,2019_Nov_14_1103,ACPT_experiment_5_30_19,3.1.0,59.962062524391335,
,,,C,D,g,b,R,U,d,L,u,,,,,5,19,119,1,2,0,2,0,,,,,0,19,19,8,,,,,,up,0.5670915398063698,2086.5964492011667,None,001,101,2019_Nov_14_1103,ACPT_experiment_5_30_19,3.1.0,59.962062524391335,
,,,C,D,g,b,R,D,y,R,y,,,,,5,19,119,1,2,0,2,0,,,,,0,20,20,27,,,,,,down,0.7339231207620287,2088.447863338678,None,001,101,2019_Nov_14_1103,ACPT_experiment_5_30_19,3.1.0,59.962062524391335,
,,,C,D,g,b,L,U,d,L,u,,,,,5,19,119,1,2,0,2,0,,,,,0,21,21,20,,,,,,up,0.38364818982699944,2090.466071023221,None,001,101,2019_Nov_14_1103,ACPT_experiment_5_30_19,3.1.0,59.962062524391335,
,,,C,D,g,b,L,U,g,R,u,,,,,5,19,119,1,2,0,2,0,,,,,0,22,22,23,,,,,,up,0.60051701987868,2092.1173144306745,None,001,101,2019_Nov_14_1103,ACPT_experiment_5_30_19,3.1.0,59.962062524391335,
,,,C,D,g,b,R,D,y,L,y,,,,,5,19,119,1,2,0,2,0,,,,,0,23,23,26,,,,,,down,0.6168888129550396,2094.019035073315,None,001,101,2019_Nov_14_1103,ACPT_experiment_5_30_19,3.1.0,59.962062524391335,
,,,C,D,g,b,L,D,g,R,i,,,,,5,19,119,1,2,0,2,0,,,,,0,24,24,15,,,,,,up,0.4336818166448211,2095.9202247503044,None,001,101,2019_Nov_14_1103,ACPT_experiment_5_30_19,3.1.0,59.962062524391335,
,,,C,D,g,b,L,U,y,L,u,,,,,5,19,119,1,2,0,2,0,,,,,0,25,25,24,,,,,,down,0.5837757543995394,2097.6549025124123,None,001,101,2019_Nov_14_1103,ACPT_experiment_5_30_19,3.1.0,59.962062524391335,
,,,C,D,g,b,R,U,y,L,u,,,,,5,19,119,1,2,0,2,0,,,,,0,26,26,30,,,,,,up,0.2668885714697353,2099.522999053378,None,001,101,2019_Nov_14_1103,ACPT_experiment_5_30_19,3.1.0,59.962062524391335,
,,,C,D,g,b,L,G,g,R,c ,,,,,5,19,119,1,2,0,2,0,,,,,0,27,27,19,,,,,,up,0.7672275563627409,2101.10756204963,None,001,101,2019_Nov_14_1103,ACPT_experiment_5_30_19,3.1.0,59.962062524391335,
,,,C,D,g,b,L,G,g,L,c ,,,,,5,19,119,1,2,0,2,0,,,,,0,28,28,18,,,,,,up,0.7005534841487133,2103.1591173352585,None,001,101,2019_Nov_14_1103,ACPT_experiment_5_30_19,3.1.0,59.962062524391335,
,,,C,D,g,b,L,D,d,L,c ,,,,,5,19,119,1,2,0,2,0,,,,,0,29,29,12,,,,,,up,0.5337985747537459,2105.1439668537373,None,001,101,2019_Nov_14_1103,ACPT_experiment_5_30_19,3.1.0,59.962062524391335,
,,,C,D,g,b,L,G,d,R,i,,,,,5,19,119,1,2,0,2,0,,,,,0,30,30,17,,,,,,up,0.7505922425284552,2106.961998676661,None,001,101,2019_Nov_14_1103,ACPT_experiment_5_30_19,3.1.0,59.962062524391335,
,,,C,D,g,b,R,G,g,L,c ,,,,,5,19,119,1,2,0,2,0,,,,,0,31,31,6,,,,,,up,0.5504384164364637,2108.9968923869365,None,001,101,2019_Nov_14_1103,ACPT_experiment_5_30_19,3.1.0,59.962062524391335,
,,,C,D,g,b,L,D,d,R,c ,,,,,5,19,119,1,2,0,2,0,,,,,0,32,32,13,,,,,,up,0.5671187068946892,2110.831642232386,None,001,101,2019_Nov_14_1103,ACPT_experiment_5_30_19,3.1.0,59.962062524391335,
,,,C,D,g,b,R,G,d,L,i,,,,,5,19,119,1,2,0,2,0,,,,,0,33,33,4,,,,,,up,0.4503699553738443,2112.6830672367328,None,001,101,2019_Nov_14_1103,ACPT_experiment_5_30_19,3.1.0,59.962062524391335,
,,,C,D,g,b,L,U,d,R,u,,,,,5,19,119,1,2,0,2,0,,,,,0,34,34,21,,,,,,up,0.4836867670924221,2114.4344144224638,None,001,101,2019_Nov_14_1103,ACPT_experiment_5_30_19,3.1.0,59.962062524391335,
,,,C,D,g,b,L,G,y,L,y,,,,,5,19,119,1,2,0,2,0,,,,,0,35,35,34,,,,,,down,0.5337626538257609,2116.2024020535905,None,001,101,2019_Nov_14_1103,ACPT_experiment_5_30_19,3.1.0,59.962062524391335,
,,,C,D,g,b,L,D,g,L,i,,,,,5,19,119,1,2,0,2,0,,,,,1,0,36,14,,,,,,up,0.45034822170282496,2118.020482475417,None,001,101,2019_Nov_14_1103,ACPT_experiment_5_30_19,3.1.0,59.962062524391335,
,,,C,D,g,b,L,U,d,R,u,,,,,5,19,119,1,2,0,2,0,,,,,1,1,37,21,,,,,,up,0.5837836026698824,2119.755137296428,None,001,101,2019_Nov_14_1103,ACPT_experiment_5_30_19,3.1.0,59.962062524391335,
,,,C,D,g,b,R,U,y,L,u,,,,,5,19,119,1,2,0,2,0,,,,,1,2,38,30,,,,,,up,0.4303345294902101,2121.6432405869054,None,001,101,2019_Nov_14_1103,ACPT_experiment_5_30_19,3.1.0,59.962062524391335,
,,,C,D,g,b,R,D,d,R,c ,,,,,5,19,119,1,2,0,2,0,,,,,1,3,39,1,,,,,,up,0.6171432780170107,2123.3578925825395,None,001,101,2019_Nov_14_1103,ACPT_experiment_5_30_19,3.1.0,59.962062524391335,
,,,C,D,g,b,R,U,y,R,u,,,,,5,19,119,1,2,0,2,0,,,,,1,4,40,31,,,,,,down,0.7172123427931183,2125.2593494025655,None,001,101,2019_Nov_14_1103,ACPT_experiment_5_30_19,3.1.0,59.962062524391335,
,,,C,D,g,b,R,U,g,R,u,,,,,5,19,119,1,2,0,2,0,,,,,1,5,41,11,,,,,,up,0.6504978218035831,2127.260880117072,None,001,101,2019_Nov_14_1103,ACPT_experiment_5_30_19,3.1.0,59.962062524391335,
,,,C,D,g,b,L,D,y,L,y,,,,,5,19,119,1,2,0,2,0,,,,,1,6,42,32,,,,,,down,0.6338193424840028,2129.1956938957364,None,001,101,2019_Nov_14_1103,ACPT_experiment_5_30_19,3.1.0,59.962062524391335,
,,,C,D,g,b,R,D,y,L,y,,,,,5,19,119,1,2,0,2,0,,,,,1,7,43,26,,,,,,down,0.8673319383538001,2131.113824365377,None,001,101,2019_Nov_14_1103,ACPT_experiment_5_30_19,3.1.0,59.962062524391335,
,,,C,D,g,b,L,D,d,L,c ,,,,,5,19,119,1,2,0,2,0,,,,,1,8,44,12,,,,,,up,0.6171450891565655,2133.265473769874,None,001,101,2019_Nov_14_1103,ACPT_experiment_5_30_19,3.1.0,59.962062524391335,
,,,C,D,g,b,L,D,d,R,c ,,,,,5,19,119,1,2,0,2,0,,,,,1,9,45,13,,,,,,up,0.5838165050327007,2135.1669040265247,None,001,101,2019_Nov_14_1103,ACPT_experiment_5_30_19,3.1.0,59.962062524391335,
,,,C,D,g,b,L,U,y,L,u,,,,,5,19,119,1,2,0,2,0,,,,,1,10,46,24,,,,,,down,0.6171239591985795,2137.0683843913607,None,001,101,2019_Nov_14_1103,ACPT_experiment_5_30_19,3.1.0,59.962062524391335,
,,,C,D,g,b,R,G,y,R,y,,,,,5,19,119,1,2,0,2,0,,,,,1,11,47,29,,,,,,down,0.8339674333019502,2138.986512144292,None,001,101,2019_Nov_14_1103,ACPT_experiment_5_30_19,3.1.0,59.962062524391335,
,,,C,D,g,b,R,G,d,L,i,,,,,5,19,119,1,2,0,2,0,,,,,1,12,48,4,,,,,,up,1.3177145717017993,2141.08810015117,None,001,101,2019_Nov_14_1103,ACPT_experiment_5_30_19,3.1.0,59.962062524391335,
,,,C,D,g,b,L,U,g,R,u,,,,,5,19,119,1,2,0,2,0,,,,,1,13,49,23,,,,,,up,0.7505868091107004,2143.6900914383828,None,001,101,2019_Nov_14_1103,ACPT_experiment_5_30_19,3.1.0,59.962062524391335,
,,,C,D,g,b,L,G,d,L,i,,,,,5,19,119,1,2,0,2,0,,,,,1,14,50,16,,,,,,up,0.6671977329365291,2145.7249785078143,None,001,101,2019_Nov_14_1103,ACPT_experiment_5_30_19,3.1.0,59.962062524391335,
,,,C,D,g,b,R,U,d,R,u,,,,,5,19,119,1,2,0,2,0,,,,,1,15,51,9,,,,,,up,0.7505738292793467,2147.6598113034406,None,001,101,2019_Nov_14_1103,ACPT_experiment_5_30_19,3.1.0,59.962062524391335,
,,,C,D,g,b,R,D,d,L,c,,,,,5,19,119,1,2,0,2,0,,,,,1,16,52,0,,,,,,up,0.46704873654925905,2149.694701391438,None,001,101,2019_Nov_14_1103,ACPT_experiment_5_30_19,3.1.0,59.962062524391335,
,,,C,D,g,b,R,G,g,L,c ,,,,,5,19,119,1,2,0,2,0,,,,,1,17,53,6,,,,,,up,0.6504969162338057,2151.4460473697427,None,001,101,2019_Nov_14_1103,ACPT_experiment_5_30_19,3.1.0,59.962062524391335,
,,,C,D,g,b,L,U,g,L,u,,,,,5,19,119,1,2,0,2,0,,,,,1,18,54,22,,,,,,up,0.41697798137647624,2153.3808596391245,None,001,101,2019_Nov_14_1103,ACPT_experiment_5_30_19,3.1.0,59.962062524391335,
,,,C,D,g,b,L,G,y,R,y,,,,,5,19,119,1,2,0,2,0,,,,,1,19,55,35,,,,,,down,0.7338917276820212,2155.0821565959277,None,001,101,2019_Nov_14_1103,ACPT_experiment_5_30_19,3.1.0,59.962062524391335,
,,,C,D,g,b,R,D,g,L,i,,,,,5,19,119,1,2,0,2,0,,,,,1,20,56,2,,,,,,up,0.43366430896594466,2157.1003636767573,None,001,101,2019_Nov_14_1103,ACPT_experiment_5_30_19,3.1.0,59.962062524391335,
,,,C,D,g,b,R,U,g,L,u,,,,,5,19,119,1,2,0,2,0,,,,,1,21,57,10,,,,,,up,0.5167826198253351,2158.835313713463,None,001,101,2019_Nov_14_1103,ACPT_experiment_5_30_19,3.1.0,59.962062524391335,
,,,C,D,g,b,R,G,y,L,y,,,,,5,19,119,1,2,0,2,0,,,,,1,22,58,28,,,,,,down,0.5337188846278877,2160.6364261755502,None,001,101,2019_Nov_14_1103,ACPT_experiment_5_30_19,3.1.0,59.962062524391335,
,,,C,D,g,b,R,G,d,R,i,,,,,5,19,119,1,2,0,2,0,,,,,1,23,59,5,,,,,,up,0.633833227885134,2162.454439283368,None,001,101,2019_Nov_14_1103,ACPT_experiment_5_30_19,3.1.0,59.962062524391335,
,,,C,D,g,b,L,U,y,R,u,,,,,5,19,119,1,2,0,2,0,,,,,1,24,60,25,,,,,,down,0.8339897706855481,2164.372573979,None,001,101,2019_Nov_14_1103,ACPT_experiment_5_30_19,3.1.0,59.962062524391335,
,,,C,D,g,b,R,G,g,R,c ,,,,,5,19,119,1,2,0,2,0,,,,,1,25,61,7,,,,,,up,0.6004560448582197,2166.4908803102603,None,001,101,2019_Nov_14_1103,ACPT_experiment_5_30_19,3.1.0,59.962062524391335,
,,,C,D,g,b,L,G,d,R,i,,,,,5,19,119,1,2,0,2,0,,,,,1,26,62,17,,,,,,up,0.7005317504781488,2168.3756607639625,None,001,101,2019_Nov_14_1103,ACPT_experiment_5_30_19,3.1.0,59.962062524391335,
,,,C,D,g,b,L,U,d,L,u,,,,,5,19,119,1,2,0,2,0,,,,,1,27,63,20,,,,,,up,1.0007709415990576,2170.3438248604216,None,001,101,2019_Nov_14_1103,ACPT_experiment_5_30_19,3.1.0,59.962062524391335,
,,,C,D,g,b,R,D,y,R,y,,,,,5,19,119,1,2,0,2,0,,,,,1,28,64,27,,,,,,down,0.5337318644592415,2172.6289183997255,None,001,101,2019_Nov_14_1103,ACPT_experiment_5_30_19,3.1.0,59.962062524391335,
,,,C,D,g,b,L,D,y,R,y,,,,,5,19,119,1,2,0,2,0,,,,,1,29,65,33,,,,,,down,0.7672849091050011,2174.4469375446747,None,001,101,2019_Nov_14_1103,ACPT_experiment_5_30_19,3.1.0,59.962062524391335,
,,,C,D,g,b,L,D,g,R,i,,,,,5,19,119,1,2,0,2,0,,,,,1,30,66,15,,,,,,up,0.6838804382473427,2176.498533882793,None,001,101,2019_Nov_14_1103,ACPT_experiment_5_30_19,3.1.0,59.962062524391335,
,,,C,D,g,b,L,G,g,L,c ,,,,,5,19,119,1,2,0,2,0,,,,,1,31,67,18,,,,,,up,0.5671042177809795,2178.466703714526,None,001,101,2019_Nov_14_1103,ACPT_experiment_5_30_19,3.1.0,59.962062524391335,
,,,C,D,g,b,R,U,d,L,u,,,,,5,19,119,1,2,0,2,0,,,,,1,32,68,8,,,,,,up,0.5837763581130275,2180.3181241910243,None,001,101,2019_Nov_14_1103,ACPT_experiment_5_30_19,3.1.0,59.962062524391335,
,,,C,D,g,b,L,G,y,L,y,,,,,5,19,119,1,2,0,2,0,,,,,1,33,69,34,,,,,,down,0.6171650116880301,2182.186193263045,None,001,101,2019_Nov_14_1103,ACPT_experiment_5_30_19,3.1.0,59.962062524391335,
,,,C,D,g,b,L,G,g,R,c ,,,,,5,19,119,1,2,0,2,0,,,,,1,34,70,19,,,,,,up,0.5470878088594873,2184.10768067925,None,001,101,2019_Nov_14_1103,ACPT_experiment_5_30_19,3.1.0,59.962062524391335,
,,,C,D,g,b,R,D,g,R,i,,,,,5,19,119,1,2,0,2,0,,,,,1,35,71,3,,,,,,up,0.5837833008131383,2185.9390862561095,None,001,101,2019_Nov_14_1103,ACPT_experiment_5_30_19,3.1.0,59.962062524391335,
,,,C,D,g,b,,,,,,,,,,5,19,119,1,3,0,3,0,0,0,0,0,,,,,,,,,,,,,,001,101,2019_Nov_14_1103,ACPT_experiment_5_30_19,3.1.0,59.962062524391335,
,,,C,D,g,b,R,U,g,R,u,,,,,5,19,119,1,3,0,3,0,,,,,0,0,0,11,,,,,,up,0.4834277741824735,2192.561093952244,None,001,101,2019_Nov_14_1103,ACPT_experiment_5_30_19,3.1.0,59.962062524391335,
,,,C,D,g,b,L,D,g,R,i,,,,,5,19,119,1,3,0,3,0,,,,,0,1,1,15,,,,,,up,0.6838535730153126,2194.3288379851438,None,001,101,2019_Nov_14_1103,ACPT_experiment_5_30_19,3.1.0,59.962062524391335,
,,,C,D,g,b,R,D,d,L,c,,,,,5,19,119,1,3,0,3,0,,,,,0,2,2,0,,,,,,up,0.5504160790524111,2196.297028644978,None,001,101,2019_Nov_14_1103,ACPT_experiment_5_30_19,3.1.0,59.962062524391335,
,,,C,D,g,b,L,G,d,L,i,,,,,5,19,119,1,3,0,3,0,,,,,0,3,3,16,,,,,,up,0.48372087688130705,2198.131744078782,None,001,101,2019_Nov_14_1103,ACPT_experiment_5_30_19,3.1.0,59.962062524391335,
,,,C,D,g,b,R,G,y,R,y,,,,,5,19,119,1,3,0,3,0,,,,,0,4,4,29,,,,,,down,0.6504866531113294,2199.916455165852,None,001,101,2019_Nov_14_1103,ACPT_experiment_5_30_19,3.1.0,59.962062524391335,
,,,C,D,g,b,R,D,g,L,i,,,,,5,19,119,1,3,0,3,0,,,,,0,5,5,2,,,,,,up,0.5504181920482552,2201.851258983251,None,001,101,2019_Nov_14_1103,ACPT_experiment_5_30_19,3.1.0,59.962062524391335,
,,,C,D,g,b,L,G,g,L,c ,,,,,5,19,119,1,3,0,3,0,,,,,0,6,6,18,,,,,,up,0.6504869549676187,2203.6860202992484,None,001,101,2019_Nov_14_1103,ACPT_experiment_5_30_19,3.1.0,59.962062524391335,
,,,C,D,g,b,R,G,d,L,i,,,,,5,19,119,1,3,0,3,0,,,,,0,7,7,4,,,,,,up,0.5670912379496258,2205.620807816394,None,001,101,2019_Nov_14_1103,ACPT_experiment_5_30_19,3.1.0,59.962062524391335,
,,,C,D,g,b,R,G,g,L,c ,,,,,5,19,119,1,3,0,3,0,,,,,0,8,8,6,,,,,,up,0.4170054503215397,2207.455524457624,None,001,101,2019_Nov_14_1103,ACPT_experiment_5_30_19,3.1.0,59.962062524391335,
,,,C,D,g,b,L,U,d,R,u,,,,,5,19,119,1,3,0,3,0,,,,,0,9,9,21,,,,,,up,0.5003884893649229,2209.1568389221065,None,001,101,2019_Nov_14_1103,ACPT_experiment_5_30_19,3.1.0,59.962062524391335,
,,,C,D,g,b,L,U,g,L,u,,,,,5,19,119,1,3,0,3,0,,,,,0,10,10,22,,,,,,up,0.4503415808585487,2210.9248651908697,None,001,101,2019_Nov_14_1103,ACPT_experiment_5_30_19,3.1.0,59.962062524391335,
,,,C,D,g,b,L,G,d,R,i,,,,,5,19,119,1,3,0,3,0,,,,,0,11,11,17,,,,,,up,0.5971226431042851,2212.6795315910977,None,001,101,2019_Nov_14_1103,ACPT_experiment_5_30_19,3.1.0,59.962062524391335,
,,,C,D,g,b,R,G,y,L,y,,,,,5,19,119,1,3,0,3,0,,,,,0,12,12,28,,,,,,down,0.48367831510950055,2214.560995547012,None,001,101,2019_Nov_14_1103,ACPT_experiment_5_30_19,3.1.0,59.962062524391335,
,,,C,D,g,b,R,U,y,L,u,,,,,5,19,119,1,3,0,3,0,,,,,0,13,13,30,,,,,,down,0.5668920126345256,2216.3458457899465,None,001,101,2019_Nov_14_1103,ACPT_experiment_5_30_19,3.1.0,59.962062524391335,
,,,C,D,g,b,L,G,y,R,y,,,,,5,19,119,1,3,0,3,0,,,,,0,14,14,35,,,,,,down,0.683852969302734,2218.2137693671157,None,001,101,2019_Nov_14_1103,ACPT_experiment_5_30_19,3.1.0,59.962062524391335,
,,,C,D,g,b,L,D,y,R,y,,,,,5,19,119,1,3,0,3,0,,,,,0,15,15,33,,,,,,down,0.6838581008637448,2220.198626733864,None,001,101,2019_Nov_14_1103,ACPT_experiment_5_30_19,3.1.0,59.962062524391335,
,,,C,D,g,b,R,U,g,L,u,,,,,5,19,119,1,3,0,3,0,,,,,0,16,16,10,,,,,,up,0.41701239302210524,2222.1834735356333,None,001,101,2019_Nov_14_1103,ACPT_experiment_5_30_19,3.1.0,59.962062524391335,
,,,C,D,g,b,R,U,d,L,u,,,,,5,19,119,1,3,0,3,0,,,,,0,17,17,8,,,,,,up,0.41698794264266326,2223.8847710961495,None,001,101,2019_Nov_14_1103,ACPT_experiment_5_30_19,3.1.0,59.962062524391335,
,,,C,D,g,b,R,D,g,R,i,,,,,5,19,119,1,3,0,3,0,,,,,0,18,18,3,,,,,,up,0.5637717215963676,2225.6060823488783,None,001,101,2019_Nov_14_1103,ACPT_experiment_5_30_19,3.1.0,59.962062524391335,
,,,C,D,g,b,R,G,d,R,i,,,,,5,19,119,1,3,0,3,0,,,,,0,19,19,5,,,,,,up,0.6004747599636175,2227.454150406661,None,001,101,2019_Nov_14_1103,ACPT_experiment_5_30_19,3.1.0,59.962062524391335,
,,,C,D,g,b,L,U,y,R,u,,,,,5,19,119,1,3,0,3,0,,,,,0,20,20,25,,,,,,down,0.6338365483070447,2229.338923615807,None,001,101,2019_Nov_14_1103,ACPT_experiment_5_30_19,3.1.0,59.962062524391335,
,,,C,D,g,b,L,D,d,L,c ,,,,,5,19,119,1,3,0,3,0,,,,,0,21,21,12,,,,,,up,0.6671732825570871,2231.2570791395397,None,001,101,2019_Nov_14_1103,ACPT_experiment_5_30_19,3.1.0,59.962062524391335,
,,,C,D,g,b,L,U,y,L,u,,,,,5,19,119,1,3,0,3,0,,,,,0,22,22,24,,,,,,down,0.6670652179163881,2233.2085707938104,None,001,101,2019_Nov_14_1103,ACPT_experiment_5_30_19,3.1.0,59.962062524391335,
,,,C,D,g,b,R,U,d,R,u,,,,,5,19,119,1,3,0,3,0,,,,,0,23,23,9,,,,,,up,0.5004253158626852,2235.1600666740724,None,001,101,2019_Nov_14_1103,ACPT_experiment_5_30_19,3.1.0,59.962062524391335,
,,,C,D,g,b,L,D,y,L,y,,,,,5,19,119,1,3,0,3,0,,,,,0,24,24,32,,,,,,down,0.43367698694055434,2236.9447671961634,None,001,101,2019_Nov_14_1103,ACPT_experiment_5_30_19,3.1.0,59.962062524391335,
,,,C,D,g,b,L,G,g,R,c ,,,,,5,19,119,1,3,0,3,0,,,,,0,25,25,19,,,,,,up,0.5001451929947507,2238.6796592764135,None,001,101,2019_Nov_14_1103,ACPT_experiment_5_30_19,3.1.0,59.962062524391335,
,,,C,D,g,b,R,U,y,R,u,,,,,5,19,119,1,3,0,3,0,,,,,0,26,26,31,,,,,,down,0.5837766599697716,2240.464121331839,None,001,101,2019_Nov_14_1103,ACPT_experiment_5_30_19,3.1.0,59.962062524391335,
,,,C,D,g,b,L,D,d,R,c ,,,,,5,19,119,1,3,0,3,0,,,,,0,27,27,13,,,,,,up,0.6004762692464283,2242.3321937242818,None,001,101,2019_Nov_14_1103,ACPT_experiment_5_30_19,3.1.0,59.962062524391335,
,,,C,D,g,b,L,U,g,R,u,,,,,5,19,119,1,3,0,3,0,,,,,0,28,28,23,,,,,,up,0.6671645287174215,2244.216993798659,None,001,101,2019_Nov_14_1103,ACPT_experiment_5_30_19,3.1.0,59.962062524391335,
,,,C,D,g,b,R,D,y,R,y,,,,,5,19,119,1,3,0,3,0,,,,,0,29,29,27,,,,,,down,0.5171010784729333,2246.168457682128,None,001,101,2019_Nov_14_1103,ACPT_experiment_5_30_19,3.1.0,59.962062524391335,
,,,C,D,g,b,R,D,d,R,c ,,,,,5,19,119,1,3,0,3,0,,,,,0,30,30,1,,,,,,up,0.6504957088072842,2247.969860530205,None,001,101,2019_Nov_14_1103,ACPT_experiment_5_30_19,3.1.0,59.962062524391335,
,,,C,D,g,b,R,D,y,L,y,,,,,5,19,119,1,3,0,3,0,,,,,0,31,31,26,,,,,,down,0.6338392650154674,2249.9046737051563,None,001,101,2019_Nov_14_1103,ACPT_experiment_5_30_19,3.1.0,59.962062524391335,
,,,C,D,g,b,L,G,y,L,y,,,,,5,19,119,1,3,0,3,0,,,,,0,32,32,34,,,,,,down,0.6005254718620563,2251.8561759244053,None,001,101,2019_Nov_14_1103,ACPT_experiment_5_30_19,3.1.0,59.962062524391335,
,,,C,D,g,b,L,U,d,L,u,,,,,5,19,119,1,3,0,3,0,,,,,0,33,33,20,,,,,,up,0.6838424043235136,2253.740948529838,None,001,101,2019_Nov_14_1103,ACPT_experiment_5_30_19,3.1.0,59.962062524391335,
,,,C,D,g,b,L,D,g,L,i,,,,,5,19,119,1,3,0,3,0,,,,,0,34,34,14,,,,,,up,0.4670242861693623,2255.7091129281534,None,001,101,2019_Nov_14_1103,ACPT_experiment_5_30_19,3.1.0,59.962062524391335,
,,,C,D,g,b,R,G,g,R,c ,,,,,5,19,119,1,3,0,3,0,,,,,0,35,35,7,,,,,,up,0.6671596990131547,2257.4604673584413,None,001,101,2019_Nov_14_1103,ACPT_experiment_5_30_19,3.1.0,59.962062524391335,
,,,C,D,g,b,L,G,d,R,i,,,,,5,19,119,1,3,0,3,0,,,,,1,0,36,17,,,,,,up,0.7004834534322981,2259.4453401198734,None,001,101,2019_Nov_14_1103,ACPT_experiment_5_30_19,3.1.0,59.962062524391335,
,,,C,D,g,b,L,D,g,R,i,,,,,5,19,119,1,3,0,3,0,,,,,1,1,37,15,,,,,,up,0.7505967703764327,2261.4301356060314,None,001,101,2019_Nov_14_1103,ACPT_experiment_5_30_19,3.1.0,59.962062524391335,
,,,C,D,g,b,L,U,y,L,u,,,,,5,19,119,1,3,0,3,0,,,,,1,2,38,24,,,,,,down,0.6171330148945344,2263.465047729556,None,001,101,2019_Nov_14_1103,ACPT_experiment_5_30_19,3.1.0,59.962062524391335,
,,,C,D,g,b,L,D,d,L,c ,,,,,5,19,119,1,3,0,3,0,,,,,1,3,39,12,,,,,,up,0.8673259012230119,2265.366498512451,None,001,101,2019_Nov_14_1103,ACPT_experiment_5_30_19,3.1.0,59.962062524391335,
,,,C,D,g,b,R,D,g,R,i,,,,,5,19,119,1,3,0,3,0,,,,,1,4,40,3,,,,,,up,0.5337360904504749,2267.518148218805,None,001,101,2019_Nov_14_1103,ACPT_experiment_5_30_19,3.1.0,59.962062524391335,
,,,C,D,g,b,R,G,d,L,i,,,,,5,19,119,1,3,0,3,0,,,,,1,5,41,4,,,,,,up,1.0674833495932035,2269.3361990586905,None,001,101,2019_Nov_14_1103,ACPT_experiment_5_30_19,3.1.0,59.962062524391335,
,,,C,D,g,b,L,D,y,R,y,,,,,5,19,119,1,3,0,3,0,,,,,1,6,42,33,,,,,,down,0.667148530320901,2271.6880237210944,None,001,101,2019_Nov_14_1103,ACPT_experiment_5_30_19,3.1.0,59.962062524391335,
,,,C,D,g,b,R,D,d,R,c ,,,,,5,19,119,1,3,0,3,0,,,,,1,7,43,1,,,,,,up,0.6338163239188361,2273.6394927361243,None,001,101,2019_Nov_14_1103,ACPT_experiment_5_30_19,3.1.0,59.962062524391335,
,,,C,D,g,b,R,D,g,L,i,,,,,5,19,119,1,3,0,3,0,,,,,1,8,44,2,,,,,,up,1.084179034734916,2275.540925407627,None,001,101,2019_Nov_14_1103,ACPT_experiment_5_30_19,3.1.0,59.962062524391335,
,,,C,D,g,b,L,G,g,L,c ,,,,,5,19,119,1,3,0,3,0,,,,,1,9,45,18,,,,,,up,0.5670996899330021,2277.909419191797,None,001,101,2019_Nov_14_1103,ACPT_experiment_5_30_19,3.1.0,59.962062524391335,
,,,C,D,g,b,R,G,y,L,y,,,,,5,19,119,1,3,0,3,0,,,,,1,10,46,28,,,,,,down,0.6171242610553236,2279.7608405738656,None,001,101,2019_Nov_14_1103,ACPT_experiment_5_30_19,3.1.0,59.962062524391335,
,,,C,D,g,b,L,U,d,L,u,,,,,5,19,119,1,3,0,3,0,,,,,1,11,47,20,,,,,,up,0.46703032330060523,2281.6622940734696,None,001,101,2019_Nov_14_1103,ACPT_experiment_5_30_19,3.1.0,59.962062524391335,
,,,C,D,g,b,R,D,d,L,c,,,,,5,19,119,1,3,0,3,0,,,,,1,12,48,0,,,,,,up,0.5170609315532602,2283.413631599791,None,001,101,2019_Nov_14_1103,ACPT_experiment_5_30_19,3.1.0,59.962062524391335,
,,,C,D,g,b,L,G,y,L,y,,,,,5,19,119,1,3,0,3,0,,,,,1,13,49,34,,,,,,down,0.600189505535127,2285.2319619588316,None,001,101,2019_Nov_14_1103,ACPT_experiment_5_30_19,3.1.0,59.962062524391335,
,,,C,D,g,b,R,U,y,R,u,,,,,5,19,119,1,3,0,3,0,,,,,1,14,50,31,,,,,,down,0.8506380643507327,2287.133147107973,None,001,101,2019_Nov_14_1103,ACPT_experiment_5_30_19,3.1.0,59.962062524391335,
,,,C,D,g,b,L,G,d,L,i,,,,,5,19,119,1,3,0,3,0,,,,,1,15,51,16,,,,,,up,0.4836955209320877,2289.284796814327,None,001,101,2019_Nov_14_1103,ACPT_experiment_5_30_19,3.1.0,59.962062524391335,
,,,C,D,g,b,L,G,g,R,c ,,,,,5,19,119,1,3,0,3,0,,,,,1,16,52,19,,,,,,up,0.6838828530999308,2291.036107777273,None,001,101,2019_Nov_14_1103,ACPT_experiment_5_30_19,3.1.0,59.962062524391335,
,,,C,D,g,b,R,U,g,L,u,,,,,5,19,119,1,3,0,3,0,,,,,1,17,53,10,,,,,,up,1.1508772554720963,2293.0043041723816,None,001,101,2019_Nov_14_1103,ACPT_experiment_5_30_19,3.1.0,59.962062524391335,
,,,C,D,g,b,L,U,y,R,u,,,,,5,19,119,1,3,0,3,0,,,,,1,18,54,25,,,,,,down,0.7339430432934932,2295.4394747454744,None,001,101,2019_Nov_14_1103,ACPT_experiment_5_30_19,3.1.0,59.962062524391335,
,,,C,D,g,b,R,G,g,R,c ,,,,,5,19,119,1,3,0,3,0,,,,,1,19,55,7,,,,,,up,0.6338108905010813,2297.457709597106,None,001,101,2019_Nov_14_1103,ACPT_experiment_5_30_19,3.1.0,59.962062524391335,
,,,C,D,g,b,R,U,d,R,u,,,,,5,19,119,1,3,0,3,0,,,,,1,20,56,9,,,,,,up,0.6004738543942949,2299.3758455001644,None,001,101,2019_Nov_14_1103,ACPT_experiment_5_30_19,3.1.0,59.962062524391335,
,,,C,D,g,b,L,D,g,L,i,,,,,5,19,119,1,3,0,3,0,,,,,1,21,57,14,,,,,,up,0.6004593652805852,2301.2606156907445,None,001,101,2019_Nov_14_1103,ACPT_experiment_5_30_19,3.1.0,59.962062524391335,
,,,C,D,g,b,L,D,y,L,y,,,,,5,19,119,1,3,0,3,0,,,,,1,22,58,32,,,,,,down,0.5170914190634903,2303.145363845797,None,001,101,2019_Nov_14_1103,ACPT_experiment_5_30_19,3.1.0,59.962062524391335,
,,,C,D,g,b,R,G,d,R,i,,,,,5,19,119,1,3,0,3,0,,,,,1,23,59,5,,,,,,up,0.6338145127792814,2304.9467679013,None,001,101,2019_Nov_14_1103,ACPT_experiment_5_30_19,3.1.0,59.962062524391335,
,,,C,D,g,b,R,U,g,R,u,,,,,5,19,119,1,3,0,3,0,,,,,1,24,60,11,,,,,,up,0.6337997218092823,2306.8649213120375,None,001,101,2019_Nov_14_1103,ACPT_experiment_5_30_19,3.1.0,59.962062524391335,
,,,C,D,g,b,R,D,y,L,y,,,,,5,19,119,1,3,0,3,0,,,,,1,25,61,26,,,,,,down,0.5337415238682297,2308.7830357832813,None,001,101,2019_Nov_14_1103,ACPT_experiment_5_30_19,3.1.0,59.962062524391335,
,,,C,D,g,b,R,U,y,L,u,,,,,5,19,119,1,3,0,3,0,,,,,1,26,62,30,,,,,,down,0.4303559613044854,2310.621101824662,None,001,101,2019_Nov_14_1103,ACPT_experiment_5_30_19,3.1.0,59.962062524391335,
,,,C,D,g,b,R,G,g,L,c ,,,,,5,19,119,1,3,0,3,0,,,,,1,27,63,6,,,,,,up,0.6171459947258882,2312.3357556314354,None,001,101,2019_Nov_14_1103,ACPT_experiment_5_30_19,3.1.0,59.962062524391335,
,,,C,D,g,b,L,U,d,R,u,,,,,5,19,119,1,3,0,3,0,,,,,1,28,64,21,,,,,,up,0.8339761871416158,2314.2372061124743,None,001,101,2019_Nov_14_1103,ACPT_experiment_5_30_19,3.1.0,59.962062524391335,
,,,C,D,g,b,L,D,d,R,c ,,,,,5,19,119,1,3,0,3,0,,,,,1,29,65,13,,,,,,up,0.5671274607343548,2316.338792006356,None,001,101,2019_Nov_14_1103,ACPT_experiment_5_30_19,3.1.0,59.962062524391335,
,,,C,D,g,b,L,G,y,R,y,,,,,5,19,119,1,3,0,3,0,,,,,1,30,66,35,,,,,,down,0.733889312829433,2318.1902296886774,None,001,101,2019_Nov_14_1103,ACPT_experiment_5_30_19,3.1.0,59.962062524391335,
,,,C,D,g,b,R,U,d,L,u,,,,,5,19,119,1,3,0,3,0,,,,,1,31,67,8,,,,,,up,0.5671220273166,2320.2084358639377,None,001,101,2019_Nov_14_1103,ACPT_experiment_5_30_19,3.1.0,59.962062524391335,
,,,C,D,g,b,L,U,g,L,u,,,,,5,19,119,1,3,0,3,0,,,,,1,32,68,22,,,,,,up,0.6339781190231406,2322.059853623727,None,001,101,2019_Nov_14_1103,ACPT_experiment_5_30_19,3.1.0,59.962062524391335,
,,,C,D,g,b,R,G,y,R,y,,,,,5,19,119,1,3,0,3,0,,,,,1,33,69,29,,,,,,down,0.8336894234298597,2323.994946921546,None,001,101,2019_Nov_14_1103,ACPT_experiment_5_30_19,3.1.0,59.962062524391335,
,,,C,D,g,b,L,U,g,R,u,,,,,5,19,119,1,3,0,3,0,,,,,1,34,70,23,,,,,,up,0.6338087775052372,2326.112964074242,None,001,101,2019_Nov_14_1103,ACPT_experiment_5_30_19,3.1.0,59.962062524391335,
,,,C,D,g,b,R,D,y,R,y,,,,,5,19,119,1,3,0,3,0,,,,,1,35,71,27,,,,,,down,0.5504203050440992,2328.031087903039,None,001,101,2019_Nov_14_1103,ACPT_experiment_5_30_19,3.1.0,59.962062524391335,
,,,C,D,g,b,,,,,,,,,,5,19,119,1,4,0,4,0,0,0,0,0,,,,,,,,,,,,,,001,101,2019_Nov_14_1103,ACPT_experiment_5_30_19,3.1.0,59.962062524391335,
,,,C,D,g,b,L,G,y,L,y,,,,,5,19,119,1,4,0,4,0,,,,,0,0,0,34,,,,,,down,0.6335675941309091,2331.7174897489517,None,001,101,2019_Nov_14_1103,ACPT_experiment_5_30_19,3.1.0,59.962062524391335,
,,,C,D,g,b,L,D,y,R,y,,,,,5,19,119,1,4,0,4,0,,,,,0,1,1,33,,,,,,down,0.7839504085932276,2333.6353787333614,None,001,101,2019_Nov_14_1103,ACPT_experiment_5_30_19,3.1.0,59.962062524391335,
,,,C,D,g,b,R,D,y,L,y,,,,,5,19,119,1,4,0,4,0,,,,,0,2,2,26,,,,,,down,0.5170524795703386,2335.7036281948494,None,001,101,2019_Nov_14_1103,ACPT_experiment_5_30_19,3.1.0,59.962062524391335,
,,,C,D,g,b,L,G,y,R,y,,,,,5,19,119,1,4,0,4,0,,,,,0,3,3,35,,,,,,down,0.5837721321213394,2337.5050017628423,None,001,101,2019_Nov_14_1103,ACPT_experiment_5_30_19,3.1.0,59.962062524391335,
,,,C,D,g,b,R,G,g,R,c ,,,,,5,19,119,1,4,0,4,0,,,,,0,4,4,7,,,,,,up,0.6838574971507114,2339.3730949833857,None,001,101,2019_Nov_14_1103,ACPT_experiment_5_30_19,3.1.0,59.962062524391335,
,,,C,D,g,b,L,D,g,L,i,,,,,5,19,119,1,4,0,4,0,,,,,0,5,5,14,,,,,,up,0.4670339455788053,2341.341287152503,None,001,101,2019_Nov_14_1103,ACPT_experiment_5_30_19,3.1.0,59.962062524391335,
,,,C,D,g,b,L,D,d,R,c ,,,,,5,19,119,1,4,0,4,0,,,,,0,6,6,13,,,,,,up,0.4503820296354206,2343.075910580434,None,001,101,2019_Nov_14_1103,ACPT_experiment_5_30_19,3.1.0,59.962062524391335,
,,,C,D,g,b,R,D,d,L,c,,,,,5,19,119,1,4,0,4,0,,,,,0,7,7,0,,,,,,up,0.43341527732172835,2344.8108579004306,None,001,101,2019_Nov_14_1103,ACPT_experiment_5_30_19,3.1.0,59.962062524391335,
,,,C,D,g,b,R,U,g,L,u,,,,,5,19,119,1,4,0,4,0,,,,,0,8,8,10,,,,,,up,0.533763257539249,2346.528562571238,None,001,101,2019_Nov_14_1103,ACPT_experiment_5_30_19,3.1.0,59.962062524391335,
,,,C,D,g,b,L,U,g,R,u,,,,,5,19,119,1,4,0,4,0,,,,,0,9,9,23,,,,,,up,0.6671787159748419,2348.3466239761024,None,001,101,2019_Nov_14_1103,ACPT_experiment_5_30_19,3.1.0,59.962062524391335,
,,,C,D,g,b,R,U,d,L,u,,,,,5,19,119,1,4,0,4,0,,,,,0,10,10,8,,,,,,up,0.5003833578039121,2350.298116837799,None,001,101,2019_Nov_14_1103,ACPT_experiment_5_30_19,3.1.0,59.962062524391335,
,,,C,D,g,b,R,U,y,L,u,,,,,5,19,119,1,4,0,4,0,,,,,0,11,11,30,,,,,,up,0.4670094951993633,2352.099501574484,None,001,101,2019_Nov_14_1103,ACPT_experiment_5_30_19,3.1.0,59.962062524391335,
,,,C,D,g,b,L,G,d,R,i,,,,,5,19,119,1,4,0,4,0,,,,,0,12,12,17,,,,,,up,0.6504929920988616,2353.8675178819813,None,001,101,2019_Nov_14_1103,ACPT_experiment_5_30_19,3.1.0,59.962062524391335,
,,,C,D,g,b,L,D,d,L,c ,,,,,5,19,119,1,4,0,4,0,,,,,0,13,13,12,,,,,,up,0.5003770188168346,2355.8023289439366,None,001,101,2019_Nov_14_1103,ACPT_experiment_5_30_19,3.1.0,59.962062524391335,
,,,C,D,g,b,R,G,y,R,y,,,,,5,19,119,1,4,0,4,0,,,,,0,14,14,29,,,,,,down,0.5671304792999763,2357.587004411935,None,001,101,2019_Nov_14_1103,ACPT_experiment_5_30_19,3.1.0,59.962062524391335,
,,,C,D,g,b,L,U,d,R,u,,,,,5,19,119,1,4,0,4,0,,,,,0,15,15,21,,,,,,up,0.6671702639914656,2359.4384439053956,None,001,101,2019_Nov_14_1103,ACPT_experiment_5_30_19,3.1.0,59.962062524391335,
,,,C,D,g,b,R,D,y,R,y,,,,,5,19,119,1,4,0,4,0,,,,,0,16,16,27,,,,,,down,0.6338130034969254,2361.4066176612637,None,001,101,2019_Nov_14_1103,ACPT_experiment_5_30_19,3.1.0,59.962062524391335,
,,,C,D,g,b,L,U,d,L,u,,,,,5,19,119,1,4,0,4,0,,,,,0,17,17,20,,,,,,up,0.5337354867378963,2363.3414272139366,None,001,101,2019_Nov_14_1103,ACPT_experiment_5_30_19,3.1.0,59.962062524391335,
,,,C,D,g,b,R,G,g,L,c ,,,,,5,19,119,1,4,0,4,0,,,,,0,18,18,6,,,,,,up,0.6471692497534605,2365.17948691633,None,001,101,2019_Nov_14_1103,ACPT_experiment_5_30_19,3.1.0,59.962062524391335,
,,,C,D,g,b,L,G,g,L,c ,,,,,5,19,119,1,4,0,4,0,,,,,0,19,19,18,,,,,,up,0.5004343715590949,2367.110949785561,None,001,101,2019_Nov_14_1103,ACPT_experiment_5_30_19,3.1.0,59.962062524391335,
,,,C,D,g,b,R,G,y,L,y,,,,,5,19,119,1,4,0,4,0,,,,,0,20,20,28,,,,,,down,0.6504963125207723,2368.895673248749,None,001,101,2019_Nov_14_1103,ACPT_experiment_5_30_19,3.1.0,59.962062524391335,
,,,C,D,g,b,L,U,y,L,u,,,,,5,19,119,1,4,0,4,0,,,,,0,21,21,24,,,,,,down,0.5671168957555892,2370.8304710290167,None,001,101,2019_Nov_14_1103,ACPT_experiment_5_30_19,3.1.0,59.962062524391335,
,,,C,D,g,b,L,D,g,R,i,,,,,5,19,119,1,4,0,4,0,,,,,0,22,22,15,,,,,,up,0.6171290907600451,2372.681906900199,None,001,101,2019_Nov_14_1103,ACPT_experiment_5_30_19,3.1.0,59.962062524391335,
,,,C,D,g,b,R,G,d,L,i,,,,,5,19,119,1,4,0,4,0,,,,,0,23,23,4,,,,,,up,0.5170506684307838,2374.583372775921,None,001,101,2019_Nov_14_1103,ACPT_experiment_5_30_19,3.1.0,59.962062524391335,
,,,C,D,g,b,L,D,y,L,y,,,,,5,19,119,1,4,0,4,0,,,,,0,24,24,32,,,,,,down,0.7005815568068101,2376.3847110266984,None,001,101,2019_Nov_14_1103,ACPT_experiment_5_30_19,3.1.0,59.962062524391335,
,,,C,D,g,b,L,U,y,R,u,,,,,5,19,119,1,4,0,4,0,,,,,0,25,25,25,,,,,,down,0.8337531151596522,2378.38651250652,None,001,101,2019_Nov_14_1103,ACPT_experiment_5_30_19,3.1.0,59.962062524391335,
,,,C,D,g,b,R,D,g,R,i,,,,,5,19,119,1,4,0,4,0,,,,,0,26,26,3,,,,,,up,0.7172144557889624,2380.5045544114523,None,001,101,2019_Nov_14_1103,ACPT_experiment_5_30_19,3.1.0,59.962062524391335,
,,,C,D,g,b,R,D,d,R,c ,,,,,5,19,119,1,4,0,4,0,,,,,0,27,27,1,,,,,,up,0.934068796727388,2382.4893815925466,None,001,101,2019_Nov_14_1103,ACPT_experiment_5_30_19,3.1.0,59.962062524391335,
,,,C,D,g,b,L,U,g,L,u,,,,,5,19,119,1,4,0,4,0,,,,,0,28,28,22,,,,,,up,0.9173797524294969,2384.707764534996,None,001,101,2019_Nov_14_1103,ACPT_experiment_5_30_19,3.1.0,59.962062524391335,
,,,C,D,g,b,R,U,y,R,u,,,,,5,19,119,1,4,0,4,0,,,,,0,29,29,31,,,,,,down,0.6338163239188361,2386.909449981164,None,001,101,2019_Nov_14_1103,ACPT_experiment_5_30_19,3.1.0,59.962062524391335,
,,,C,D,g,b,R,G,d,R,i,,,,,5,19,119,1,4,0,4,0,,,,,0,30,30,5,,,,,,up,0.9340280460946815,2388.8275870916486,None,001,101,2019_Nov_14_1103,ACPT_experiment_5_30_19,3.1.0,59.962062524391335,
,,,C,D,g,b,R,U,d,R,u,,,,,5,19,119,1,4,0,4,0,,,,,0,31,31,9,,,,,,up,1.3843919643372828,2391.0459537338447,None,001,101,2019_Nov_14_1103,ACPT_experiment_5_30_19,3.1.0,59.962062524391335,
,,,C,D,g,b,L,G,d,L,i,,,,,5,19,119,1,4,0,4,0,,,,,0,32,32,16,,,,,,up,0.5504193994747766,2393.7146510900643,None,001,101,2019_Nov_14_1103,ACPT_experiment_5_30_19,3.1.0,59.962062524391335,
,,,C,D,g,b,R,D,g,L,i,,,,,5,19,119,1,4,0,4,0,,,,,0,33,33,2,,,,,,up,0.4503424864283261,2395.5493888612523,None,001,101,2019_Nov_14_1103,ACPT_experiment_5_30_19,3.1.0,59.962062524391335,
,,,C,D,g,b,L,G,g,R,c ,,,,,5,19,119,1,4,0,4,0,,,,,0,34,34,19,,,,,,up,0.5504169846221885,2397.267374560497,None,001,101,2019_Nov_14_1103,ACPT_experiment_5_30_19,3.1.0,59.962062524391335,
,,,C,D,g,b,R,U,g,R,u,,,,,5,19,119,1,4,0,4,0,,,,,0,35,35,11,,,,,,up,0.6004545355758637,2399.1021090112627,None,001,101,2019_Nov_14_1103,ACPT_experiment_5_30_19,3.1.0,59.962062524391335,
,,,C,D,g,b,L,D,g,L,i,,,,,5,19,119,1,4,0,4,0,,,,,1,0,36,14,,,,,,up,0.5170376885998849,2400.9869081800707,None,001,101,2019_Nov_14_1103,ACPT_experiment_5_30_19,3.1.0,59.962062524391335,
,,,C,D,g,b,R,G,d,L,i,,,,,5,19,119,1,4,0,4,0,,,,,1,1,37,4,,,,,,up,0.5671181031816559,2402.7882696738016,None,001,101,2019_Nov_14_1103,ACPT_experiment_5_30_19,3.1.0,59.962062524391335,
,,,C,D,g,b,R,G,y,R,y,,,,,5,19,119,1,4,0,4,0,,,,,1,2,38,29,,,,,,down,0.8639976310300881,2404.6596884478295,None,001,101,2019_Nov_14_1103,ACPT_experiment_5_30_19,3.1.0,59.962062524391335,
,,,C,D,g,b,L,G,y,R,y,,,,,5,19,119,1,4,0,4,0,,,,,1,3,39,35,,,,,,down,0.9007051972448608,2406.82467960947,None,001,101,2019_Nov_14_1103,ACPT_experiment_5_30_19,3.1.0,59.962062524391335,
,,,C,D,g,b,R,D,y,L,y,,,,,5,19,119,1,4,0,4,0,,,,,1,4,40,26,,,,,,down,0.7505807719799122,2409.026363848212,None,001,101,2019_Nov_14_1103,ACPT_experiment_5_30_19,3.1.0,59.962062524391335,
,,,C,D,g,b,R,G,y,L,y,,,,,5,19,119,1,4,0,4,0,,,,,1,5,41,28,,,,,,down,0.5501459174506635,2411.0615259089504,None,001,101,2019_Nov_14_1103,ACPT_experiment_5_30_19,3.1.0,59.962062524391335,
,,,C,D,g,b,L,G,d,L,i,,,,,5,19,119,1,4,0,4,0,,,,,1,6,42,16,,,,,,up,0.5337345811681189,2412.895990499971,None,001,101,2019_Nov_14_1103,ACPT_experiment_5_30_19,3.1.0,59.962062524391335,
,,,C,D,g,b,R,D,y,R,y,,,,,5,19,119,1,4,0,4,0,,,,,1,7,43,27,,,,,,down,0.7005326560474714,2414.7140461695612,None,001,101,2019_Nov_14_1103,ACPT_experiment_5_30_19,3.1.0,59.962062524391335,
,,,C,D,g,b,L,D,g,R,i,,,,,5,19,119,1,4,0,4,0,,,,,1,8,44,15,,,,,,up,0.8340178433440997,2416.6988938769005,None,001,101,2019_Nov_14_1103,ACPT_experiment_5_30_19,3.1.0,59.962062524391335,
,,,C,D,g,b,L,U,g,R,u,,,,,5,19,119,1,4,0,4,0,,,,,1,9,45,23,,,,,,up,1.3177239292544982,2418.8171845116203,None,001,101,2019_Nov_14_1103,ACPT_experiment_5_30_19,3.1.0,59.962062524391335,
,,,C,D,g,b,L,G,g,L,c ,,,,,5,19,119,1,4,0,4,0,,,,,1,10,46,18,,,,,,up,0.683820368796205,2421.419193306512,None,001,101,2019_Nov_14_1103,ACPT_experiment_5_30_19,3.1.0,59.962062524391335,
,,,C,D,g,b,R,U,y,L,u,,,,,5,19,119,1,4,0,4,0,,,,,1,11,47,30,,,,,,down,0.5835152522067801,2423.404295177057,None,001,101,2019_Nov_14_1103,ACPT_experiment_5_30_19,3.1.0,59.962062524391335,
,,,C,D,g,b,R,D,d,L,c,,,,,5,19,119,1,4,0,4,0,,,,,1,12,48,0,,,,,,up,0.7338865961205556,2425.2721333288255,None,001,101,2019_Nov_14_1103,ACPT_experiment_5_30_19,3.1.0,59.962062524391335,
,,,C,D,g,b,R,U,g,L,u,,,,,5,19,119,1,4,0,4,0,,,,,1,13,49,10,,,,,,up,0.5337427312942964,2427.290328939107,None,001,101,2019_Nov_14_1103,ACPT_experiment_5_30_19,3.1.0,59.962062524391335,
,,,C,D,g,b,L,U,d,R,u,,,,,5,19,119,1,4,0,4,0,,,,,1,14,50,21,,,,,,up,0.8172871428437247,2429.108389438402,None,001,101,2019_Nov_14_1103,ACPT_experiment_5_30_19,3.1.0,59.962062524391335,
,,,C,D,g,b,L,U,y,L,u,,,,,5,19,119,1,4,0,4,0,,,,,1,15,51,24,,,,,,down,0.6671663398569763,2431.226679167552,None,001,101,2019_Nov_14_1103,ACPT_experiment_5_30_19,3.1.0,59.962062524391335,
,,,C,D,g,b,R,D,g,L,i,,,,,5,19,119,1,4,0,4,0,,,,,1,16,52,2,,,,,,up,0.6171212424897021,2433.1948619791165,None,001,101,2019_Nov_14_1103,ACPT_experiment_5_30_19,3.1.0,59.962062524391335,
,,,C,D,g,b,L,D,d,R,c ,,,,,5,19,119,1,4,0,4,0,,,,,1,17,53,13,,,,,,up,0.6838502525934018,2435.096304008172,None,001,101,2019_Nov_14_1103,ACPT_experiment_5_30_19,3.1.0,59.962062524391335,
,,,C,D,g,b,R,G,g,R,c ,,,,,5,19,119,1,4,0,4,0,,,,,1,18,54,7,,,,,,up,0.5837570392945963,2437.0811755621776,None,001,101,2019_Nov_14_1103,ACPT_experiment_5_30_19,3.1.0,59.962062524391335,
,,,C,D,g,b,L,D,y,L,y,,,,,5,19,119,1,4,0,4,0,,,,,1,19,55,32,,,,,,down,0.6004563467149637,2438.9492485583332,None,001,101,2019_Nov_14_1103,ACPT_experiment_5_30_19,3.1.0,59.962062524391335,
,,,C,D,g,b,L,U,d,L,u,,,,,5,19,119,1,4,0,4,0,,,,,1,20,56,20,,,,,,up,0.6004841175163165,2440.8339976189554,None,001,101,2019_Nov_14_1103,ACPT_experiment_5_30_19,3.1.0,59.962062524391335,
,,,C,D,g,b,L,G,y,L,y,,,,,5,19,119,1,4,0,4,0,,,,,1,21,57,34,,,,,,up,0.45033795858034864,2442.7187979951896,None,001,101,2019_Nov_14_1103,ACPT_experiment_5_30_19,3.1.0,59.962062524391335,
,,,C,D,g,b,R,U,y,R,u,,,,,5,19,119,1,4,0,4,0,,,,,1,22,58,31,,,,,,down,1.3843949829029043,2444.4534570421924,None,001,101,2019_Nov_14_1103,ACPT_experiment_5_30_19,3.1.0,59.962062524391335,
,,,C,D,g,b,L,G,d,R,i,,,,,5,19,119,1,4,0,4,0,,,,,1,23,59,17,,,,,,up,0.717177327434456,2447.1221866970614,None,001,101,2019_Nov_14_1103,ACPT_experiment_5_30_19,3.1.0,59.962062524391335,
,,,C,D,g,b,L,U,g,L,u,,,,,5,19,119,1,4,0,4,0,,,,,1,24,60,22,,,,,,up,0.5337312607462081,2449.1237020168846,None,001,101,2019_Nov_14_1103,ACPT_experiment_5_30_19,3.1.0,59.962062524391335,
,,,C,D,g,b,R,U,d,R,u,,,,,5,19,119,1,4,0,4,0,,,,,1,25,61,9,,,,,,up,0.9674408481928367,2450.941753460483,None,001,101,2019_Nov_14_1103,ACPT_experiment_5_30_19,3.1.0,59.962062524391335,
,,,C,D,g,b,L,D,d,L,c ,,,,,5,19,119,1,4,0,4,0,,,,,1,26,62,12,,,,,,up,0.6338766952262631,2453.193450799799,None,001,101,2019_Nov_14_1103,ACPT_experiment_5_30_19,3.1.0,59.962062524391335,
,,,C,D,g,b,L,G,g,R,c ,,,,,5,19,119,1,4,0,4,0,,,,,1,27,63,19,,,,,,up,1.117519089407324,2455.111608436528,None,001,101,2019_Nov_14_1103,ACPT_experiment_5_30_19,3.1.0,59.962062524391335,
,,,C,D,g,b,R,U,d,L,u,,,,,5,19,119,1,4,0,4,0,,,,,1,28,64,8,,,,,,up,1.9681713410159318,2457.513447708788,None,001,101,2019_Nov_14_1103,ACPT_experiment_5_30_19,3.1.0,59.962062524391335,
,,,C,D,g,b,R,G,d,R,i,,,,,5,19,119,1,4,0,4,0,,,,,1,29,65,5,,,,,,up,0.4003447805380347,2460.74923086954,None,001,101,2019_Nov_14_1103,ACPT_experiment_5_30_19,3.1.0,59.962062524391335,
,,,C,D,g,b,L,U,y,R,u,,,,,5,19,119,1,4,0,4,0,,,,,1,30,66,25,,,,,,down,0.500383055947168,2462.4338744011166,None,001,101,2019_Nov_14_1103,ACPT_experiment_5_30_19,3.1.0,59.962062524391335,
,,,C,D,g,b,R,G,g,L,c ,,,,,5,19,119,1,4,0,4,0,,,,,1,31,67,6,,,,,,up,0.5337545036995834,2464.2185746213513,None,001,101,2019_Nov_14_1103,ACPT_experiment_5_30_19,3.1.0,59.962062524391335,
,,,C,D,g,b,L,D,y,R,y,,,,,5,19,119,1,4,0,4,0,,,,,1,32,68,33,,,,,,down,0.5334671362752488,2466.0535816485713,None,001,101,2019_Nov_14_1103,ACPT_experiment_5_30_19,3.1.0,59.962062524391335,
,,,C,D,g,b,R,D,d,R,c ,,,,,5,19,119,1,4,0,4,0,,,,,1,33,69,1,,,,,,up,0.7005344671870262,2467.8713686658425,None,001,101,2019_Nov_14_1103,ACPT_experiment_5_30_19,3.1.0,59.962062524391335,
,,,C,D,g,b,R,D,g,R,i,,,,,5,19,119,1,4,0,4,0,,,,,1,34,70,3,,,,,,up,0.884029736490902,2469.8395194806135,None,001,101,2019_Nov_14_1103,ACPT_experiment_5_30_19,3.1.0,59.962062524391335,
,,,C,D,g,b,R,U,g,R,u,,,,,5,19,119,1,4,0,4,0,,,,,1,35,71,11,,,,,,up,0.6838517618762125,2472.0078654758227,None,001,101,2019_Nov_14_1103,ACPT_experiment_5_30_19,3.1.0,59.962062524391335,
,,,C,D,g,b,,,,,,,,,,5,19,119,1,5,0,5,0,0,0,0,0,,,,,,,,,,,,,,001,101,2019_Nov_14_1103,ACPT_experiment_5_30_19,3.1.0,59.962062524391335,
,,,C,D,g,b,L,U,d,R,u,,,,,5,19,119,1,5,0,5,0,,,,,0,0,0,21,,,,,,up,0.7172398117381817,2476.294450488283,None,001,101,2019_Nov_14_1103,ACPT_experiment_5_30_19,3.1.0,59.962062524391335,
,,,C,D,g,b,L,U,d,L,u,,,,,5,19,119,1,5,0,5,0,,,,,0,1,1,20,,,,,,up,0.5670987843632247,2478.296005049456,None,001,101,2019_Nov_14_1103,ACPT_experiment_5_30_19,3.1.0,59.962062524391335,
,,,C,D,g,b,L,G,g,L,c ,,,,,5,19,119,1,5,0,5,0,,,,,0,2,2,18,,,,,,up,0.45022989393964963,2480.1474173758284,None,001,101,2019_Nov_14_1103,ACPT_experiment_5_30_19,3.1.0,59.962062524391335,
,,,C,D,g,b,R,U,g,L,u,,,,,5,19,119,1,5,0,5,0,,,,,0,3,3,10,,,,,,up,0.4169861315031085,2481.8820791395397,None,001,101,2019_Nov_14_1103,ACPT_experiment_5_30_19,3.1.0,59.962062524391335,
,,,C,D,g,b,R,G,y,R,y,,,,,5,19,119,1,5,0,5,0,,,,,0,4,4,29,,,,,,down,0.750572923710024,2483.5833836427564,None,001,101,2019_Nov_14_1103,ACPT_experiment_5_30_19,3.1.0,59.962062524391335,
,,,C,D,g,b,R,D,d,R,c ,,,,,5,19,119,1,5,0,5,0,,,,,0,5,5,1,,,,,,up,0.5504163809091551,2485.6182698066186,None,001,101,2019_Nov_14_1103,ACPT_experiment_5_30_19,3.1.0,59.962062524391335,
,,,C,D,g,b,L,G,y,L,y,,,,,5,19,119,1,5,0,5,0,,,,,0,6,6,34,,,,,,up,0.5004011673395325,2487.4529825237137,None,001,101,2019_Nov_14_1103,ACPT_experiment_5_30_19,3.1.0,59.962062524391335,
,,,C,D,g,b,R,U,y,R,u,,,,,5,19,119,1,5,0,5,0,,,,,0,7,7,31,,,,,,down,0.5671144809034558,2489.2377053831888,None,001,101,2019_Nov_14_1103,ACPT_experiment_5_30_19,3.1.0,59.962062524391335,
,,,C,D,g,b,R,G,g,R,c ,,,,,5,19,119,1,5,0,5,0,,,,,0,8,8,7,,,,,,up,1.1172516445144538,2491.1060726894693,None,001,101,2019_Nov_14_1103,ACPT_experiment_5_30_19,3.1.0,59.962062524391335,
,,,C,D,g,b,R,D,g,L,i,,,,,5,19,119,1,5,0,5,0,,,,,0,9,9,2,,,,,,up,0.8506794186964726,2493.507635159284,None,001,101,2019_Nov_14_1103,ACPT_experiment_5_30_19,3.1.0,59.962062524391335,
,,,C,D,g,b,R,U,y,L,u,,,,,5,19,119,1,5,0,5,0,,,,,0,10,10,30,,,,,,down,0.8339674333019502,2495.642603971466,None,001,101,2019_Nov_14_1103,ACPT_experiment_5_30_19,3.1.0,59.962062524391335,
,,,C,D,g,b,L,G,y,R,y,,,,,5,19,119,1,5,0,5,0,,,,,0,11,11,35,,,,,,down,0.7338941425346093,2497.777571878079,None,001,101,2019_Nov_14_1103,ACPT_experiment_5_30_19,3.1.0,59.962062524391335,
,,,C,D,g,b,L,G,d,R,i,,,,,5,19,119,1,5,0,5,0,,,,,0,12,12,17,,,,,,up,0.6338486225681663,2499.8124637772153,None,001,101,2019_Nov_14_1103,ACPT_experiment_5_30_19,3.1.0,59.962062524391335,
,,,C,D,g,b,L,D,g,R,i,,,,,5,19,119,1,5,0,5,0,,,,,0,13,13,15,,,,,,up,1.2009196361300383,2501.7305969635645,None,001,101,2019_Nov_14_1103,ACPT_experiment_5_30_19,3.1.0,59.962062524391335,
,,,C,D,g,b,R,G,d,L,i,,,,,5,19,119,1,5,0,5,0,,,,,0,14,14,4,,,,,,up,0.833939964356432,2504.215876929467,None,001,101,2019_Nov_14_1103,ACPT_experiment_5_30_19,3.1.0,59.962062524391335,
,,,C,D,g,b,R,U,g,R,u,,,,,5,19,119,1,5,0,5,0,,,,,0,15,15,11,,,,,,up,0.733898972238876,2506.3341132300097,None,001,101,2019_Nov_14_1103,ACPT_experiment_5_30_19,3.1.0,59.962062524391335,
,,,C,D,g,b,R,D,y,R,y,,,,,5,19,119,1,5,0,5,0,,,,,0,16,16,27,,,,,,down,0.6004638931285626,2508.3523269516836,None,001,101,2019_Nov_14_1103,ACPT_experiment_5_30_19,3.1.0,59.962062524391335,
,,,C,D,g,b,L,D,d,R,c ,,,,,5,19,119,1,5,0,5,0,,,,,0,17,17,13,,,,,,up,0.8172977078220356,2510.23709050142,None,001,101,2019_Nov_14_1103,ACPT_experiment_5_30_19,3.1.0,59.962062524391335,
,,,C,D,g,b,L,U,g,L,u,,,,,5,19,119,1,5,0,5,0,,,,,0,18,18,22,,,,,,up,0.7172407173079591,2512.3386851491414,None,001,101,2019_Nov_14_1103,ACPT_experiment_5_30_19,3.1.0,59.962062524391335,
,,,C,D,g,b,R,G,g,L,c ,,,,,5,19,119,1,5,0,5,0,,,,,0,19,19,6,,,,,,up,0.900688896992051,2514.340236389892,None,001,101,2019_Nov_14_1103,ACPT_experiment_5_30_19,3.1.0,59.962062524391335,
,,,C,D,g,b,R,U,d,R,u,,,,,5,19,119,1,5,0,5,0,,,,,0,20,20,9,,,,,,up,2.2350855702916306,2516.525243658598,None,001,101,2019_Nov_14_1103,ACPT_experiment_5_30_19,3.1.0,59.962062524391335,
,,,C,D,g,b,L,D,y,R,y,,,,,5,19,119,1,5,0,5,0,,,,,0,21,21,33,,,,,,down,0.8673440126153764,2520.0612657086144,None,001,101,2019_Nov_14_1103,ACPT_experiment_5_30_19,3.1.0,59.962062524391335,
,,,C,D,g,b,L,U,y,L,u,,,,,5,19,119,1,5,0,5,0,,,,,0,22,22,24,,,,,,down,0.6504966143770616,2522.229605364836,None,001,101,2019_Nov_14_1103,ACPT_experiment_5_30_19,3.1.0,59.962062524391335,
,,,C,D,g,b,L,D,g,L,i,,,,,5,19,119,1,5,0,5,0,,,,,0,23,23,14,,,,,,up,0.6838559878679007,2524.1644170305044,None,001,101,2019_Nov_14_1103,ACPT_experiment_5_30_19,3.1.0,59.962062524391335,
,,,C,D,g,b,R,D,d,L,c,,,,,5,19,119,1,5,0,5,0,,,,,0,24,24,0,,,,,,up,1.4511113150319943,2526.1325895789464,None,001,101,2019_Nov_14_1103,ACPT_experiment_5_30_19,3.1.0,59.962062524391335,
,,,C,D,g,b,L,U,g,R,u,,,,,5,19,119,1,5,0,5,0,,,,,0,25,25,23,,,,,,up,1.7346572358637786,2528.8680141341306,None,001,101,2019_Nov_14_1103,ACPT_experiment_5_30_19,3.1.0,59.962062524391335,
,,,C,D,g,b,R,U,d,L,u,,,,,5,19,119,1,5,0,5,0,,,,,0,26,26,8,,,,,,up,0.6671853568186634,2531.8869981936905,None,001,101,2019_Nov_14_1103,ACPT_experiment_5_30_19,3.1.0,59.962062524391335,
,,,C,D,g,b,L,G,g,R,c ,,,,,5,19,119,1,5,0,5,0,,,,,0,27,27,19,,,,,,up,0.6838502525934018,2533.838481999691,None,001,101,2019_Nov_14_1103,ACPT_experiment_5_30_19,3.1.0,59.962062524391335,
,,,C,D,g,b,L,U,y,R,u,,,,,5,19,119,1,5,0,5,0,,,,,0,28,28,25,,,,,,down,0.7338917276820212,2535.806653642563,None,001,101,2019_Nov_14_1103,ACPT_experiment_5_30_19,3.1.0,59.962062524391335,
,,,C,D,g,b,R,D,y,L,y,,,,,5,19,119,1,5,0,5,0,,,,,0,29,29,26,,,,,,down,0.7505662828662025,2537.824862232676,None,001,101,2019_Nov_14_1103,ACPT_experiment_5_30_19,3.1.0,59.962062524391335,
,,,C,D,g,b,R,G,y,L,y,,,,,5,19,119,1,5,0,5,0,,,,,0,30,30,28,,,,,,down,0.4670182490390289,2539.859770733922,None,001,101,2019_Nov_14_1103,ACPT_experiment_5_30_19,3.1.0,59.962062524391335,
,,,C,D,g,b,L,G,d,L,i,,,,,5,19,119,1,5,0,5,0,,,,,0,31,31,16,,,,,,up,0.6337903642565834,2541.6111127880918,None,001,101,2019_Nov_14_1103,ACPT_experiment_5_30_19,3.1.0,59.962062524391335,
,,,C,D,g,b,R,G,d,R,i,,,,,5,19,119,1,5,0,5,0,,,,,0,32,32,5,,,,,,up,1.0174225556866077,2543.545920529625,None,001,101,2019_Nov_14_1103,ACPT_experiment_5_30_19,3.1.0,59.962062524391335,
,,,C,D,g,b,L,D,y,L,y,,,,,5,19,119,1,5,0,5,0,,,,,0,33,33,32,,,,,,down,0.7339149706353965,2545.8643465771884,None,001,101,2019_Nov_14_1103,ACPT_experiment_5_30_19,3.1.0,59.962062524391335,
,,,C,D,g,b,R,D,g,R,i,,,,,5,19,119,1,5,0,5,0,,,,,0,34,34,3,,,,,,up,0.6171133942198139,2547.899258097,None,001,101,2019_Nov_14_1103,ACPT_experiment_5_30_19,3.1.0,59.962062524391335,
,,,C,D,g,b,L,D,d,L,c ,,,,,5,19,119,1,5,0,5,0,,,,,0,35,35,12,,,,,,up,1.6345923970789045,2549.800691070359,None,001,101,2019_Nov_14_1103,ACPT_experiment_5_30_19,3.1.0,59.962062524391335,
,,,C,D,g,b,L,U,y,R,u,,,,,5,19,119,1,5,0,5,0,,,,,1,0,36,25,,,,,,down,0.583766094991006,2552.736272168344,None,001,101,2019_Nov_14_1103,ACPT_experiment_5_30_19,3.1.0,59.962062524391335,
,,,C,D,g,b,L,D,g,L,i,,,,,5,19,119,1,5,0,5,0,,,,,1,1,37,14,,,,,,up,0.6171309018986904,2554.6210480941986,None,001,101,2019_Nov_14_1103,ACPT_experiment_5_30_19,3.1.0,59.962062524391335,
,,,C,D,g,b,L,D,d,R,c ,,,,,5,19,119,1,5,0,5,0,,,,,1,2,38,13,,,,,,up,0.6838584027200341,2556.522497065954,None,001,101,2019_Nov_14_1103,ACPT_experiment_5_30_19,3.1.0,59.962062524391335,
,,,C,D,g,b,R,G,y,R,y,,,,,5,19,119,1,5,0,5,0,,,,,1,3,39,29,,,,,,down,0.6838532711585685,2558.4906675014004,None,001,101,2019_Nov_14_1103,ACPT_experiment_5_30_19,3.1.0,59.962062524391335,
,,,C,D,g,b,L,G,d,R,i,,,,,5,19,119,1,5,0,5,0,,,,,1,4,40,17,,,,,,up,0.650495406950995,2560.458839747986,None,001,101,2019_Nov_14_1103,ACPT_experiment_5_30_19,3.1.0,59.962062524391335,
,,,C,D,g,b,L,U,d,L,u,,,,,5,19,119,1,5,0,5,0,,,,,1,5,41,20,,,,,,up,0.5671051233507569,2562.393651715511,None,001,101,2019_Nov_14_1103,ACPT_experiment_5_30_19,3.1.0,59.962062524391335,
,,,C,D,g,b,R,D,g,L,i,,,,,5,19,119,1,5,0,5,0,,,,,1,6,42,2,,,,,,up,0.6501878151384517,2564.262057961285,None,001,101,2019_Nov_14_1103,ACPT_experiment_5_30_19,3.1.0,59.962062524391335,
,,,C,D,g,b,R,D,y,L,y,,,,,5,19,119,1,5,0,5,0,,,,,1,7,43,26,,,,,,down,0.5670939546585032,2566.1965638462802,None,001,101,2019_Nov_14_1103,ACPT_experiment_5_30_19,3.1.0,59.962062524391335,
,,,C,D,g,b,L,U,d,R,u,,,,,5,19,119,1,5,0,5,0,,,,,1,8,44,21,,,,,,up,0.6005025307649703,2568.0479779837915,None,001,101,2019_Nov_14_1103,ACPT_experiment_5_30_19,3.1.0,59.962062524391335,
,,,C,D,g,b,L,G,d,L,i,,,,,5,19,119,1,5,0,5,0,,,,,1,9,45,16,,,,,,up,1.0841530750726633,2569.932769304329,None,001,101,2019_Nov_14_1103,ACPT_experiment_5_30_19,3.1.0,59.962062524391335,
,,,C,D,g,b,R,D,g,R,i,,,,,5,19,119,1,5,0,5,0,,,,,1,10,46,3,,,,,,up,0.8340018449471245,2572.301231393563,None,001,101,2019_Nov_14_1103,ACPT_experiment_5_30_19,3.1.0,59.962062524391335,
,,,C,D,g,b,L,G,y,R,y,,,,,5,19,119,1,5,0,5,0,,,,,1,11,47,35,,,,,,down,0.6671678491393322,2574.436198998319,None,001,101,2019_Nov_14_1103,ACPT_experiment_5_30_19,3.1.0,59.962062524391335,
,,,C,D,g,b,R,U,d,L,u,,,,,5,19,119,1,5,0,5,0,,,,,1,12,48,8,,,,,,up,0.5003890930779562,2576.404371546761,None,001,101,2019_Nov_14_1103,ACPT_experiment_5_30_19,3.1.0,59.962062524391335,
,,,C,D,g,b,R,G,y,L,y,,,,,5,19,119,1,5,0,5,0,,,,,1,13,49,28,,,,,,down,0.7839295804919857,2578.1890711632827,None,001,101,2019_Nov_14_1103,ACPT_experiment_5_30_19,3.1.0,59.962062524391335,
,,,C,D,g,b,R,D,d,R,c ,,,,,5,19,119,1,5,0,5,0,,,,,1,14,50,1,,,,,,up,0.5671036140679462,2580.257314285783,None,001,101,2019_Nov_14_1103,ACPT_experiment_5_30_19,3.1.0,59.962062524391335,
,,,C,D,g,b,R,D,d,L,c,,,,,5,19,119,1,5,0,5,0,,,,,1,15,51,0,,,,,,up,0.900724817920036,2582.0920270028787,None,001,101,2019_Nov_14_1103,ACPT_experiment_5_30_19,3.1.0,59.962062524391335,
,,,C,D,g,b,R,U,d,R,u,,,,,5,19,119,1,5,0,5,0,,,,,1,16,52,9,,,,,,up,0.6004611764192305,2584.260376620366,None,001,101,2019_Nov_14_1103,ACPT_experiment_5_30_19,3.1.0,59.962062524391335,
,,,C,D,g,b,L,U,g,L,u,,,,,5,19,119,1,5,0,5,0,,,,,1,17,53,22,,,,,,up,0.7504657646386477,2586.1451522443635,None,001,101,2019_Nov_14_1103,ACPT_experiment_5_30_19,3.1.0,59.962062524391335,
,,,C,D,g,b,L,D,y,L,y,,,,,5,19,119,1,5,0,5,0,,,,,1,18,54,32,,,,,,down,0.6838487433110458,2588.1800414267914,None,001,101,2019_Nov_14_1103,ACPT_experiment_5_30_19,3.1.0,59.962062524391335,
,,,C,D,g,b,L,U,y,L,u,,,,,5,19,119,1,5,0,5,0,,,,,1,19,55,24,,,,,,down,0.6671642268611322,2590.1649003028224,None,001,101,2019_Nov_14_1103,ACPT_experiment_5_30_19,3.1.0,59.962062524391335,
,,,C,D,g,b,L,D,y,R,y,,,,,5,19,119,1,5,0,5,0,,,,,1,20,56,33,,,,,,down,1.0508205668138544,2592.1163865236754,None,001,101,2019_Nov_14_1103,ACPT_experiment_5_30_19,3.1.0,59.962062524391335,
,,,C,D,g,b,L,G,y,L,y,,,,,5,19,119,1,5,0,5,0,,,,,1,21,57,34,,,,,,down,0.7172159650717731,2594.468179189286,None,001,101,2019_Nov_14_1103,ACPT_experiment_5_30_19,3.1.0,59.962062524391335,
,,,C,D,g,b,R,U,g,R,u,,,,,5,19,119,1,5,0,5,0,,,,,1,22,58,11,,,,,,up,1.0841437175199644,2596.4697289207543,None,001,101,2019_Nov_14_1103,ACPT_experiment_5_30_19,3.1.0,59.962062524391335,
,,,C,D,g,b,L,G,g,R,c ,,,,,5,19,119,1,5,0,5,0,,,,,1,23,59,19,,,,,,up,0.8840279253522567,2598.838194028553,None,001,101,2019_Nov_14_1103,ACPT_experiment_5_30_19,3.1.0,59.962062524391335,
,,,C,D,g,b,R,U,y,R,u,,,,,5,19,119,1,5,0,5,0,,,,,1,24,60,31,,,,,,down,0.7339158762047191,2601.006493537855,None,001,101,2019_Nov_14_1103,ACPT_experiment_5_30_19,3.1.0,59.962062524391335,
