facing_vig,person_vig,text_vig,facing_train,person_train,food_train,correct_key_train,facing_exp,person_exp,food_exp,showL_R,consistent,vig_random.thisRepN,vig_random.thisTrialN,vig_random.thisN,vig_random.thisIndex,trainTrials.thisRepN,trainTrials.thisTrialN,trainTrials.thisN,trainTrials.thisIndex,expBlock.thisRepN,expBlock.thisTrialN,expBlock.thisN,expBlock.thisIndex,breakLoop.thisRepN,breakLoop.thisTrialN,breakLoop.thisN,breakLoop.thisIndex,expTrials.thisRepN,expTrials.thisTrialN,expTrials.thisN,expTrials.thisIndex,train_resp.keys,train_resp.corr,train_resp.rt,train_resp.started,train_resp.stopped,exp_resp.keys,exp_resp.rt,exp_resp.started,exp_resp.stopped,session,participant,date,expName,psychopyVersion,frameRate,
C,D,"is allergic to gluten, meaning she can’t eat wheat products. She enjoys eating dairy products. She thinks eating insects, like crickets, is disgusting.",,,,,,,,,,0,0,0,1,,,,,,,,,,,,,,,,,,,,,,,,,,001,10,2019_Jun_06_1203,ACPT_experiment_5_30_19,3.1.0,59.93696581977111,
C,U,"did not report her food preferences, so her food preferences are unknown.",,,,,,,,,,0,1,1,2,,,,,,,,,,,,,,,,,,,,,,,,,,001,10,2019_Jun_06_1203,ACPT_experiment_5_30_19,3.1.0,59.93696581977111,
C,G,"cannot eat dairy products because she is lactose intolerant. She enjoys eating wheat products. She thinks eating insects, like crickets, is disgusting.",,,,,,,,,,0,2,2,0,,,,,,,,,,,,,,,,,,,,,,,,,,001,10,2019_Jun_06_1203,ACPT_experiment_5_30_19,3.1.0,59.93696581977111,
,,,C,D,g,b,,,,,,,,,,0,0,0,10,,,,,,,,,,,,,v,0,3.169127013546131,1552.4610101629678,None,,,,,001,10,2019_Jun_06_1203,ACPT_experiment_5_30_19,3.1.0,59.93696581977111,
,,,C,G,y,b,,,,,,,,,,0,1,1,14,,,,,,,,,,,,,b,1,2.552005969550919,1558.9159698769508,None,,,,,001,10,2019_Jun_06_1203,ACPT_experiment_5_30_19,3.1.0,59.93696581977111,
,,,C,U,d,n,,,,,,,,,,0,2,2,15,,,,,,,,,,,,,n,1,6.938725771337886,1564.7538088487972,None,,,,,001,10,2019_Jun_06_1203,ACPT_experiment_5_30_19,3.1.0,59.93696581977111,
,,,C,G,y,b,,,,,,,,,,0,3,3,5,,,,,,,,,,,,,b,1,2.802168973065818,1574.9783881487992,None,,,,,001,10,2019_Jun_06_1203,ACPT_experiment_5_30_19,3.1.0,59.93696581977111,
,,,C,D,y,b,,,,,,,,,,0,4,4,11,,,,,,,,,,,,,b,1,1.084165657453923,1581.0664112542463,None,,,,,001,10,2019_Jun_06_1203,ACPT_experiment_5_30_19,3.1.0,59.93696581977111,
,,,C,U,d,n,,,,,,,,,,0,5,5,6,,,,,,,,,,,,,b,0,1.5843165866335767,1585.4533858244904,None,,,,,001,10,2019_Jun_06_1203,ACPT_experiment_5_30_19,3.1.0,59.93696581977111,
,,,C,U,y,n,,,,,,,,,,0,6,6,8,,,,,,,,,,,,,n,1,4.503512423886605,1590.306863474293,None,,,,,001,10,2019_Jun_06_1203,ACPT_experiment_5_30_19,3.1.0,59.93696581977111,
,,,C,D,y,b,,,,,,,,,,0,7,7,2,,,,,,,,,,,,,b,1,1.6846455518752919,1598.0962236915348,None,,,,,001,10,2019_Jun_06_1203,ACPT_experiment_5_30_19,3.1.0,59.93696581977111,
,,,C,D,d,v,,,,,,,,,,0,8,8,18,,,,,,,,,,,,,v,1,1.9515260751286405,1603.0500444939225,None,,,,,001,10,2019_Jun_06_1203,ACPT_experiment_5_30_19,3.1.0,59.93696581977111,
,,,C,G,g,v,,,,,,,,,,0,9,9,19,,,,,,,,,,,,,v,1,3.3525769044545086,1608.287423493999,None,,,,,001,10,2019_Jun_06_1203,ACPT_experiment_5_30_19,3.1.0,59.93696581977111,
,,,C,U,y,n,,,,,,,,,,0,10,10,17,,,,,,,,,,,,,n,1,1.5845722606654817,1614.9258753590611,None,,,,,001,10,2019_Jun_06_1203,ACPT_experiment_5_30_19,3.1.0,59.93696581977111,
,,,C,D,d,v,,,,,,,,,,0,11,11,9,,,,,,,,,,,,,b,0,2.2183776199799468,1619.7963114115746,None,,,,,001,10,2019_Jun_06_1203,ACPT_experiment_5_30_19,3.1.0,59.93696581977111,
,,,C,G,d,b,,,,,,,,,,0,12,12,12,,,,,,,,,,,,,b,1,2.0349367848220936,1625.3005295803086,None,,,,,001,10,2019_Jun_06_1203,ACPT_experiment_5_30_19,3.1.0,59.93696581977111,
,,,C,D,g,b,,,,,,,,,,0,13,13,1,,,,,,,,,,,,,v,0,1.9515227546871756,1630.62132261052,None,,,,,001,10,2019_Jun_06_1203,ACPT_experiment_5_30_19,3.1.0,59.93696581977111,
,,,C,G,d,b,,,,,,,,,,0,14,14,3,,,,,,,,,,,,,b,1,4.853764113388024,1635.8586994975876,None,,,,,001,10,2019_Jun_06_1203,ACPT_experiment_5_30_19,3.1.0,59.93696581977111,
,,,C,D,d,v,,,,,,,,,,0,15,15,0,,,,,,,,,,,,,v,1,3.7195440006862555,1643.998314121055,None,,,,,001,10,2019_Jun_06_1203,ACPT_experiment_5_30_19,3.1.0,59.93696581977111,
,,,C,G,g,v,,,,,,,,,,0,16,16,13,,,,,,,,,,,,,b,0,3.1357656275094996,1651.0037210080145,None,,,,,001,10,2019_Jun_06_1203,ACPT_experiment_5_30_19,3.1.0,59.93696581977111,
,,,C,U,g,n,,,,,,,,,,0,17,17,16,,,,,,,,,,,,,n,1,1.2342973280710794,1657.4253407679043,None,,,,,001,10,2019_Jun_06_1203,ACPT_experiment_5_30_19,3.1.0,59.93696581977111,
,,,C,U,g,n,,,,,,,,,,0,18,18,7,,,,,,,,,,,,,n,1,1.3507889973834608,1661.9457648064545,None,,,,,001,10,2019_Jun_06_1203,ACPT_experiment_5_30_19,3.1.0,59.93696581977111,
,,,C,G,g,v,,,,,,,,,,0,19,19,4,,,,,,,,,,,,,v,1,4.303335051913564,1666.582408841794,None,,,,,001,10,2019_Jun_06_1203,ACPT_experiment_5_30_19,3.1.0,59.93696581977111,
,,,C,U,y,n,,,,,,,,,,1,0,20,17,,,,,,,,,,,,,n,1,5.687724809014071,1674.1716046669717,None,,,,,001,10,2019_Jun_06_1203,ACPT_experiment_5_30_19,3.1.0,59.93696581977111,
,,,C,G,g,v,,,,,,,,,,1,1,21,13,,,,,,,,,,,,,b,0,7.322323150241573,1683.1451911548256,None,,,,,001,10,2019_Jun_06_1203,ACPT_experiment_5_30_19,3.1.0,59.93696581977111,
,,,C,G,d,b,,,,,,,,,,1,2,22,12,,,,,,,,,,,,,b,1,4.970517493899024,1693.736696498323,None,,,,,001,10,2019_Jun_06_1203,ACPT_experiment_5_30_19,3.1.0,59.93696581977111,
,,,C,U,d,n,,,,,,,,,,1,3,23,15,,,,,,,,,,,,,n,1,1.3010125536848136,1701.9930681246024,None,,,,,001,10,2019_Jun_06_1203,ACPT_experiment_5_30_19,3.1.0,59.93696581977111,
,,,C,D,y,b,,,,,,,,,,1,4,24,11,,,,,,,,,,,,,b,1,3.3857212543298374,1706.6135440224198,None,,,,,001,10,2019_Jun_06_1203,ACPT_experiment_5_30_19,3.1.0,59.93696581977111,
,,,C,D,y,b,,,,,,,,,,1,5,25,2,,,,,,,,,,,,,b,1,0.9841020257108539,1713.268436904962,None,,,,,001,10,2019_Jun_06_1203,ACPT_experiment_5_30_19,3.1.0,59.93696581977111,
,,,C,U,g,n,,,,,,,,,,1,6,26,16,,,,,,,,,,,,,n,1,1.6009879220437142,1717.555336976563,None,,,,,001,10,2019_Jun_06_1203,ACPT_experiment_5_30_19,3.1.0,59.93696581977111,
,,,C,U,g,n,,,,,,,,,,1,7,27,7,,,,,,,,,,,,,n,1,1.3345601863311458,1722.425348314363,None,,,,,001,10,2019_Jun_06_1203,ACPT_experiment_5_30_19,3.1.0,59.93696581977111,
,,,C,D,d,v,,,,,,,,,,1,8,28,18,,,,,,,,,,,,,v,1,2.001293463076763,1727.062674851456,None,,,,,001,10,2019_Jun_06_1203,ACPT_experiment_5_30_19,3.1.0,59.93696581977111,
,,,C,D,g,b,,,,,,,,,,1,9,29,1,,,,,,,,,,,,,b,1,1.1509008057200845,1732.333140848319,None,,,,,001,10,2019_Jun_06_1203,ACPT_experiment_5_30_19,3.1.0,59.93696581977111,
,,,C,G,g,v,,,,,,,,,,1,10,30,4,,,,,,,,,,,,,v,1,2.084948979899309,1736.7699003142952,None,,,,,001,10,2019_Jun_06_1203,ACPT_experiment_5_30_19,3.1.0,59.93696581977111,
,,,C,U,d,n,,,,,,,,,,1,11,31,6,,,,,,,,,,,,,n,1,1.3510485955730474,1742.1407130860434,None,,,,,001,10,2019_Jun_06_1203,ACPT_experiment_5_30_19,3.1.0,59.93696581977111,
,,,C,U,y,n,,,,,,,,,,1,12,32,8,,,,,,,,,,,,,n,1,1.7814056457173137,1746.7976151378352,None,,,,,001,10,2019_Jun_06_1203,ACPT_experiment_5_30_19,3.1.0,59.93696581977111,
,,,C,G,g,v,,,,,,,,,,1,13,33,19,,,,,,,,,,,,,v,1,1.5345313890438774,1751.8648764252248,None,,,,,001,10,2019_Jun_06_1203,ACPT_experiment_5_30_19,3.1.0,59.93696581977111,
,,,C,G,y,b,,,,,,,,,,1,14,34,14,,,,,,,,,,,,,n,0,1.1342327907532308,1756.668564349562,None,,,,,001,10,2019_Jun_06_1203,ACPT_experiment_5_30_19,3.1.0,59.93696581977111,
,,,C,D,g,b,,,,,,,,,,1,15,35,10,,,,,,,,,,,,,b,1,3.3189933506637317,1761.1055831118701,None,,,,,001,10,2019_Jun_06_1203,ACPT_experiment_5_30_19,3.1.0,59.93696581977111,
,,,C,G,d,b,,,,,,,,,,1,16,36,3,,,,,,,,,,,,,b,1,5.704416067074817,1767.710429991198,None,,,,,001,10,2019_Jun_06_1203,ACPT_experiment_5_30_19,3.1.0,59.93696581977111,
,,,C,G,y,b,,,,,,,,,,1,17,37,5,,,,,,,,,,,,,b,1,2.4185731034540368,1776.7006775512773,None,,,,,001,10,2019_Jun_06_1203,ACPT_experiment_5_30_19,3.1.0,59.93696581977111,
,,,C,D,d,v,,,,,,,,,,1,18,38,0,,,,,,,,,,,,,v,1,2.418542917617742,1782.405104485253,None,,,,,001,10,2019_Jun_06_1203,ACPT_experiment_5_30_19,3.1.0,59.93696581977111,
,,,C,D,d,v,,,,,,,,,,1,19,39,9,,,,,,,,,,,,,v,1,1.8180929071731953,1788.1094918757844,None,,,,,001,10,2019_Jun_06_1203,ACPT_experiment_5_30_19,3.1.0,59.93696581977111,
,,,C,D,g,b,,,,,,,,,,2,0,40,10,,,,,,,,,,,,,b,1,1.1675727448464386,1793.2134455562227,None,,,,,001,10,2019_Jun_06_1203,ACPT_experiment_5_30_19,3.1.0,59.93696581977111,
,,,C,U,g,n,,,,,,,,,,2,1,41,16,,,,,,,,,,,,,n,1,1.8014088937134147,1797.6668645851323,None,,,,,001,10,2019_Jun_06_1203,ACPT_experiment_5_30_19,3.1.0,59.93696581977111,
,,,C,D,d,v,,,,,,,,,,2,2,42,18,,,,,,,,,,,,,v,1,11.008529913559869,1802.7541064811412,None,,,,,001,10,2019_Jun_06_1203,ACPT_experiment_5_30_19,3.1.0,59.93696581977111,
,,,C,D,d,v,,,,,,,,,,2,3,43,9,,,,,,,,,,,,,v,1,3.919724391242198,1817.0484636616875,None,,,,,001,10,2019_Jun_06_1203,ACPT_experiment_5_30_19,3.1.0,59.93696581977111,
,,,C,G,d,b,,,,,,,,,,2,4,44,12,,,,,,,,,,,,,b,1,1.1342231312855802,1824.254047316902,None,,,,,001,10,2019_Jun_06_1203,ACPT_experiment_5_30_19,3.1.0,59.93696581977111,
,,,C,U,y,n,,,,,,,,,,2,5,45,17,,,,,,,,,,,,,n,1,1.3508388040136197,1828.6910455528423,None,,,,,001,10,2019_Jun_06_1203,ACPT_experiment_5_30_19,3.1.0,59.93696581977111,
,,,C,G,g,v,,,,,,,,,,2,6,46,4,,,,,,,,,,,,,v,1,1.7847574809557045,1833.327717057292,None,,,,,001,10,2019_Jun_06_1203,ACPT_experiment_5_30_19,3.1.0,59.93696581977111,
,,,C,D,d,v,,,,,,,,,,2,7,47,0,,,,,,,,,,,,,v,1,0.717223615466537,1838.3982954662088,None,,,,,001,10,2019_Jun_06_1203,ACPT_experiment_5_30_19,3.1.0,59.93696581977111,
,,,C,G,d,b,,,,,,,,,,2,8,48,3,,,,,,,,,,,,,b,1,1.1006471239543316,1842.4182978086292,None,,,,,001,10,2019_Jun_06_1203,ACPT_experiment_5_30_19,3.1.0,59.93696581977111,
,,,C,U,y,n,,,,,,,,,,2,9,49,8,,,,,,,,,,,,,n,1,1.7513716443918383,1846.8047731051447,None,,,,,001,10,2019_Jun_06_1203,ACPT_experiment_5_30_19,3.1.0,59.93696581977111,
,,,C,G,g,v,,,,,,,,,,2,10,50,19,,,,,,,,,,,,,v,1,11.025204871269125,1851.8419976744835,None,,,,,001,10,2019_Jun_06_1203,ACPT_experiment_5_30_19,3.1.0,59.93696581977111,
,,,C,D,g,b,,,,,,,,,,2,11,51,1,,,,,,,,,,,,,b,1,2.368508083162851,1866.1530340387562,None,,,,,001,10,2019_Jun_06_1203,ACPT_experiment_5_30_19,3.1.0,59.93696581977111,
,,,C,D,y,b,,,,,,,,,,2,12,52,11,,,,,,,,,,,,,b,1,1.1008599340984802,1871.7907161649982,None,,,,,001,10,2019_Jun_06_1203,ACPT_experiment_5_30_19,3.1.0,59.93696581977111,
,,,C,G,y,b,,,,,,,,,,2,13,53,14,,,,,,,,,,,,,b,1,1.5009242903006452,1876.1943542223344,None,,,,,001,10,2019_Jun_06_1203,ACPT_experiment_5_30_19,3.1.0,59.93696581977111,
,,,C,U,g,n,,,,,,,,,,2,14,54,7,,,,,,,,,,,,,n,1,1.5678879453462287,1880.9811362673163,None,,,,,001,10,2019_Jun_06_1203,ACPT_experiment_5_30_19,3.1.0,59.93696581977111,
,,,C,G,g,v,,,,,,,,,,2,15,55,13,,,,,,,,,,,,,v,1,2.985646333085242,1885.8348792506185,None,,,,,001,10,2019_Jun_06_1203,ACPT_experiment_5_30_19,3.1.0,59.93696581977111,
,,,C,U,d,n,,,,,,,,,,2,16,56,15,,,,,,,,,,,,,n,1,1.3011498992400448,1892.1063809235184,None,,,,,001,10,2019_Jun_06_1203,ACPT_experiment_5_30_19,3.1.0,59.93696581977111,
,,,C,G,y,b,,,,,,,,,,2,17,57,5,,,,,,,,,,,,,b,1,1.5178600536337399,1896.693255156043,None,,,,,001,10,2019_Jun_06_1203,ACPT_experiment_5_30_19,3.1.0,59.93696581977111,
,,,C,D,y,b,,,,,,,,,,2,18,58,2,,,,,,,,,,,,,b,1,1.7346740473049067,1901.4969623993156,None,,,,,001,10,2019_Jun_06_1203,ACPT_experiment_5_30_19,3.1.0,59.93696581977111,
,,,C,U,d,n,,,,,,,,,,2,19,59,6,,,,,,,,,,,,,n,1,1.8681177803018727,1906.5174954087352,None,,,,,001,10,2019_Jun_06_1203,ACPT_experiment_5_30_19,3.1.0,59.93696581977111,
,,,C,D,g,b,,,,,,,,,,3,0,60,1,,,,,,,,,,,,,b,1,3.035684487981598,1911.6714724530102,None,,,,,001,10,2019_Jun_06_1203,ACPT_experiment_5_30_19,3.1.0,59.93696581977111,
,,,C,G,g,v,,,,,,,,,,3,1,61,13,,,,,,,,,,,,,v,1,5.437597424785963,1917.993014695673,None,,,,,001,10,2019_Jun_06_1203,ACPT_experiment_5_30_19,3.1.0,59.93696581977111,
,,,C,U,d,n,,,,,,,,,,3,2,62,6,,,,,,,,,,,,,n,1,1.167588139623149,1926.7164061830254,None,,,,,001,10,2019_Jun_06_1203,ACPT_experiment_5_30_19,3.1.0,59.93696581977111,
,,,C,D,y,b,,,,,,,,,,3,3,63,11,,,,,,,,,,,,,b,1,1.6843977261614782,1931.1867691254447,None,,,,,001,10,2019_Jun_06_1203,ACPT_experiment_5_30_19,3.1.0,59.93696581977111,
,,,C,G,y,b,,,,,,,,,,3,4,64,5,,,,,,,,,,,,,b,1,1.1175478717177612,1936.157024304428,None,,,,,001,10,2019_Jun_06_1203,ACPT_experiment_5_30_19,3.1.0,59.93696581977111,
,,,C,D,y,b,,,,,,,,,,3,5,65,2,,,,,,,,,,,,,b,1,1.6675353144100882,1940.577499115555,None,,,,,001,10,2019_Jun_06_1203,ACPT_experiment_5_30_19,3.1.0,59.93696581977111,
,,,C,G,g,v,,,,,,,,,,3,6,66,4,,,,,,,,,,,,,v,1,2.8188783426285227,1945.530890977212,None,,,,,001,10,2019_Jun_06_1203,ACPT_experiment_5_30_19,3.1.0,59.93696581977111,
,,,C,U,y,n,,,,,,,,,,3,7,67,8,,,,,,,,,,,,,n,1,1.2342964224953903,1951.6356216410713,None,,,,,001,10,2019_Jun_06_1203,ACPT_experiment_5_30_19,3.1.0,59.93696581977111,
,,,C,D,d,v,,,,,,,,,,3,8,68,9,,,,,,,,,,,,,v,1,2.2181442834671543,1956.1726940737963,None,,,,,001,10,2019_Jun_06_1203,ACPT_experiment_5_30_19,3.1.0,59.93696581977111,
,,,C,D,g,b,,,,,,,,,,3,9,69,10,,,,,,,,,,,,,b,1,2.51863039617092,1961.6600154189255,None,,,,,001,10,2019_Jun_06_1203,ACPT_experiment_5_30_19,3.1.0,59.93696581977111,
,,,C,G,d,b,,,,,,,,,,3,10,70,12,,,,,,,,,,,,,b,1,4.236624052316074,1967.4644960233181,None,,,,,001,10,2019_Jun_06_1203,ACPT_experiment_5_30_19,3.1.0,59.93696581977111,
,,,C,G,y,b,,,,,,,,,,3,11,71,14,,,,,,,,,,,,,b,1,0.8506676503229755,1974.9702853648205,None,,,,,001,10,2019_Jun_06_1203,ACPT_experiment_5_30_19,3.1.0,59.93696581977111,
,,,C,G,d,b,,,,,,,,,,3,12,72,3,,,,,,,,,,,,,b,1,2.9356763981777476,1979.0901125690207,None,,,,,001,10,2019_Jun_06_1203,ACPT_experiment_5_30_19,3.1.0,59.93696581977111,
,,,C,D,d,v,,,,,,,,,,3,13,73,18,,,,,,,,,,,,,v,1,1.4177731787985977,1985.311592991091,None,,,,,001,10,2019_Jun_06_1203,ACPT_experiment_5_30_19,3.1.0,59.93696581977111,
,,,C,U,g,n,,,,,,,,,,3,14,74,16,,,,,,,,,,,,,n,1,1.0338639802075704,1990.0321738752464,None,,,,,001,10,2019_Jun_06_1203,ACPT_experiment_5_30_19,3.1.0,59.93696581977111,
,,,C,U,d,n,,,,,,,,,,3,15,75,15,,,,,,,,,,,,,n,1,1.267661732691522,1994.3352103892403,None,,,,,001,10,2019_Jun_06_1203,ACPT_experiment_5_30_19,3.1.0,59.93696581977111,
,,,C,U,y,n,,,,,,,,,,3,16,76,17,,,,,,,,,,,,,n,1,1.0005128573557158,1998.8889949082532,None,,,,,001,10,2019_Jun_06_1203,ACPT_experiment_5_30_19,3.1.0,59.93696581977111,
,,,C,D,d,v,,,,,,,,,,3,17,77,0,,,,,,,,,,,,,v,1,1.4010807133026901,2003.1753661240064,None,,,,,001,10,2019_Jun_06_1203,ACPT_experiment_5_30_19,3.1.0,59.93696581977111,
,,,C,G,g,v,,,,,,,,,,3,18,78,19,,,,,,,,,,,,,v,1,2.368504460862823,2007.862307006857,None,,,,,001,10,2019_Jun_06_1203,ACPT_experiment_5_30_19,3.1.0,59.93696581977111,
,,,C,U,g,n,,,,,,,,,,3,19,79,7,,,,,,,,,,,,,n,1,1.1342258480108285,2013.5166616759425,None,,,,,001,10,2019_Jun_06_1203,ACPT_experiment_5_30_19,3.1.0,59.93696581977111,
,,,C,U,y,n,,,,,,,,,,4,0,80,17,,,,,,,,,,,,,n,1,1.0308269832394217,2017.956739772737,None,,,,,001,10,2019_Jun_06_1203,ACPT_experiment_5_30_19,3.1.0,59.93696581977111,
,,,C,D,g,b,,,,,,,,,,4,1,81,1,,,,,,,,,,,,,b,1,4.887132744025621,2022.2733994564142,None,,,,,001,10,2019_Jun_06_1203,ACPT_experiment_5_30_19,3.1.0,59.93696581977111,
,,,C,G,g,v,,,,,,,,,,4,2,82,13,,,,,,,,,,,,,v,1,13.593836293758613,2030.4463881439697,None,,,,,001,10,2019_Jun_06_1203,ACPT_experiment_5_30_19,3.1.0,59.93696581977111,
,,,C,G,y,b,,,,,,,,,,4,3,83,5,,,,,,,,,,,,,b,1,1.2009634111445848,2047.3093649745297,None,,,,,001,10,2019_Jun_06_1203,ACPT_experiment_5_30_19,3.1.0,59.93696581977111,
,,,C,G,g,v,,,,,,,,,,4,4,84,19,,,,,,,,,,,,,v,1,2.8655767366217333,2051.816178219591,None,,,,,001,10,2019_Jun_06_1203,ACPT_experiment_5_30_19,3.1.0,59.93696581977111,
,,,C,D,d,v,,,,,,,,,,4,5,85,9,,,,,,,,,,,,,v,1,1.1675766690050295,2057.9676133146104,None,,,,,001,10,2019_Jun_06_1203,ACPT_experiment_5_30_19,3.1.0,59.93696581977111,
,,,C,U,d,n,,,,,,,,,,4,6,86,6,,,,,,,,,,,,,n,1,1.217163545652511,2062.438153447887,None,,,,,001,10,2019_Jun_06_1203,ACPT_experiment_5_30_19,3.1.0,59.93696581977111,
,,,C,U,y,n,,,,,,,,,,4,7,87,8,,,,,,,,,,,,,n,1,1.1008647638318507,2066.924519713162,None,,,,,001,10,2019_Jun_06_1203,ACPT_experiment_5_30_19,3.1.0,59.93696581977111,
,,,C,D,d,v,,,,,,,,,,4,8,88,0,,,,,,,,,,,,,v,1,1.0341389731738673,2071.311236798225,None,,,,,001,10,2019_Jun_06_1203,ACPT_experiment_5_30_19,3.1.0,59.93696581977111,
,,,C,D,g,b,,,,,,,,,,4,9,89,10,,,,,,,,,,,,,b,1,1.7013159817097403,2075.614551927487,None,,,,,001,10,2019_Jun_06_1203,ACPT_experiment_5_30_19,3.1.0,59.93696581977111,
,,,C,D,y,b,,,,,,,,,,4,10,90,11,,,,,,,,,,,,,b,1,1.0841804485135071,2080.5850516117425,None,,,,,001,10,2019_Jun_06_1203,ACPT_experiment_5_30_19,3.1.0,59.93696581977111,
,,,C,G,y,b,,,,,,,,,,4,11,91,14,,,,,,,,,,,,,b,1,1.6841689175234933,2084.972218465763,None,,,,,001,10,2019_Jun_06_1203,ACPT_experiment_5_30_19,3.1.0,59.93696581977111,
,,,C,U,g,n,,,,,,,,,,4,12,92,16,,,,,,,,,,,,,n,1,2.0682749277648327,2089.942269588495,None,,,,,001,10,2019_Jun_06_1203,ACPT_experiment_5_30_19,3.1.0,59.93696581977111,
,,,C,G,g,v,,,,,,,,,,4,13,93,4,,,,,,,,,,,,,v,1,3.2024856828584234,2095.29639502634,None,,,,,001,10,2019_Jun_06_1203,ACPT_experiment_5_30_19,3.1.0,59.93696581977111,
,,,C,D,y,b,,,,,,,,,,4,14,94,2,,,,,,,,,,,,,b,1,1.067499755494282,2101.78472910627,None,,,,,001,10,2019_Jun_06_1203,ACPT_experiment_5_30_19,3.1.0,59.93696581977111,
,,,C,D,d,v,,,,,,,,,,4,15,95,18,,,,,,,,,,,,,v,1,1.3174245927621087,2106.1383537610955,None,,,,,001,10,2019_Jun_06_1203,ACPT_experiment_5_30_19,3.1.0,59.93696581977111,
,,,C,G,d,b,,,,,,,,,,4,16,96,3,,,,,,,,,,,,,b,1,1.017461600597926,2110.741633693672,None,,,,,001,10,2019_Jun_06_1203,ACPT_experiment_5_30_19,3.1.0,59.93696581977111,
,,,C,U,g,n,,,,,,,,,,4,17,97,7,,,,,,,,,,,,,n,1,0.9838877062747997,2115.0619011884773,None,,,,,001,10,2019_Jun_06_1203,ACPT_experiment_5_30_19,3.1.0,59.93696581977111,
,,,C,U,d,n,,,,,,,,,,4,18,98,15,,,,,,,,,,,,,n,1,0.9007073145112372,2119.314912527485,None,,,,,001,10,2019_Jun_06_1203,ACPT_experiment_5_30_19,3.1.0,59.93696581977111,
,,,C,G,d,b,,,,,,,,,,4,19,99,12,,,,,,,,,,,,,b,1,1.5845945981836849,2123.501447712699,None,,,,,001,10,2019_Jun_06_1203,ACPT_experiment_5_30_19,3.1.0,59.93696581977111,
,,,C,G,y,b,,,,,,,,,,5,0,100,14,,,,,,,,,,,,,b,1,1.884808736504965,2128.355199449894,None,,,,,001,10,2019_Jun_06_1203,ACPT_experiment_5_30_19,3.1.0,59.93696581977111,
,,,C,G,d,b,,,,,,,,,,5,1,101,3,,,,,,,,,,,,,b,1,1.7513885484604543,2133.50916351426,None,,,,,001,10,2019_Jun_06_1203,ACPT_experiment_5_30_19,3.1.0,59.93696581977111,
,,,C,G,g,v,,,,,,,,,,5,2,102,4,,,,,,,,,,,,,v,1,1.317699887587878,2138.52972580394,None,,,,,001,10,2019_Jun_06_1203,ACPT_experiment_5_30_19,3.1.0,59.93696581977111,
,,,C,D,d,v,,,,,,,,,,5,3,103,18,,,,,,,,,,,,,v,1,1.6676980160664243,2143.150218002109,None,,,,,001,10,2019_Jun_06_1203,ACPT_experiment_5_30_19,3.1.0,59.93696581977111,
,,,C,D,g,b,,,,,,,,,,5,4,104,1,,,,,,,,,,,,,b,1,1.0174634117483947,2148.0870906649698,None,,,,,001,10,2019_Jun_06_1203,ACPT_experiment_5_30_19,3.1.0,59.93696581977111,
,,,C,D,d,v,,,,,,,,,,5,5,105,0,,,,,,,,,,,,,v,1,0.9335799918626435,2152.4075413878,None,,,,,001,10,2019_Jun_06_1203,ACPT_experiment_5_30_19,3.1.0,59.93696581977111,
,,,C,D,g,b,,,,,,,,,,5,6,106,10,,,,,,,,,,,,,b,1,1.1008599340984802,2156.627008716462,None,,,,,001,10,2019_Jun_06_1203,ACPT_experiment_5_30_19,3.1.0,59.93696581977111,
,,,C,D,d,v,,,,,,,,,,5,7,107,9,,,,,,,,,,,,,v,1,1.1509149930625426,2160.9970617107165,None,,,,,001,10,2019_Jun_06_1203,ACPT_experiment_5_30_19,3.1.0,59.93696581977111,
,,,C,U,y,n,,,,,,,,,,5,8,108,17,,,,,,,,,,,,,n,1,1.5178437532831595,2165.4338015558988,None,,,,,001,10,2019_Jun_06_1203,ACPT_experiment_5_30_19,3.1.0,59.93696581977111,
,,,C,U,y,n,,,,,,,,,,5,9,109,8,,,,,,,,,,,,,n,1,1.1842501174232893,2170.237506988022,None,,,,,001,10,2019_Jun_06_1203,ACPT_experiment_5_30_19,3.1.0,59.93696581977111,
,,,C,G,g,v,,,,,,,,,,5,10,110,19,,,,,,,,,,,,,v,1,3.6361565340866946,2174.707605200658,None,,,,,001,10,2019_Jun_06_1203,ACPT_experiment_5_30_19,3.1.0,59.93696581977111,
,,,C,U,d,n,,,,,,,,,,5,11,111,6,,,,,,,,,,,,,n,1,1.3844021332934062,2181.629625224734,None,,,,,001,10,2019_Jun_06_1203,ACPT_experiment_5_30_19,3.1.0,59.93696581977111,
,,,C,U,g,n,,,,,,,,,,5,12,112,16,,,,,,,,,,,,,n,1,2.618427185121618,2186.316838081968,None,,,,,001,10,2019_Jun_06_1203,ACPT_experiment_5_30_19,3.1.0,59.93696581977111,
,,,C,G,y,b,,,,,,,,,,5,13,113,5,,,,,,,,,,,,,b,1,3.4527039264530686,2192.221115777171,None,,,,,001,10,2019_Jun_06_1203,ACPT_experiment_5_30_19,3.1.0,59.93696581977111,
,,,C,U,g,n,,,,,,,,,,5,14,114,7,,,,,,,,,,,,,n,1,1.0508272126517113,2198.959644857602,None,,,,,001,10,2019_Jun_06_1203,ACPT_experiment_5_30_19,3.1.0,59.93696581977111,
,,,C,D,y,b,,,,,,,,,,5,15,115,11,,,,,,,,,,,,,b,1,1.850999392660924,2203.313397500372,None,,,,,001,10,2019_Jun_06_1203,ACPT_experiment_5_30_19,3.1.0,59.93696581977111,
,,,C,D,y,b,,,,,,,,,,5,16,116,2,,,,,,,,,,,,,b,1,0.7839732529346293,2208.433594179205,None,,,,,001,10,2019_Jun_06_1203,ACPT_experiment_5_30_19,3.1.0,59.93696581977111,
,,,C,G,g,v,,,,,,,,,,5,17,117,13,,,,,,,,,,,,,v,1,1.4175392385686791,2212.5203413293602,None,,,,,001,10,2019_Jun_06_1203,ACPT_experiment_5_30_19,3.1.0,59.93696581977111,
,,,C,U,d,n,,,,,,,,,,5,18,118,15,,,,,,,,,,,,,n,1,1.4678451418312761,2217.223731379868,None,,,,,001,10,2019_Jun_06_1203,ACPT_experiment_5_30_19,3.1.0,59.93696581977111,
,,,C,G,d,b,,,,,,,,,,5,19,119,12,0,0,0,0,0,0,0,0,,,,,b,1,1.9345978582541647,2221.9776347103307,None,,,,,001,10,2019_Jun_06_1203,ACPT_experiment_5_30_19,3.1.0,59.93696581977111,
,,,C,G,d,b,R,U,d,L,u,,,,,5,19,119,12,0,0,0,0,,,,,0,0,0,8,,,,,,up,1.417771367648129,2255.7534306202706,None,001,10,2019_Jun_06_1203,ACPT_experiment_5_30_19,3.1.0,59.93696581977111,
,,,C,G,d,b,R,G,g,R,c ,,,,,5,19,119,12,0,0,0,0,,,,,0,1,1,7,,,,,,up,0.850658594572451,2258.455515737084,None,001,10,2019_Jun_06_1203,ACPT_experiment_5_30_19,3.1.0,59.93696581977111,
,,,C,G,d,b,L,U,g,L,u,,,,,5,19,119,12,0,0,0,0,,,,,0,2,2,22,,,,,,up,1.1175279490653338,2260.590496230997,None,001,10,2019_Jun_06_1203,ACPT_experiment_5_30_19,3.1.0,59.93696581977111,
,,,C,G,d,b,R,U,y,R,u,,,,,5,19,119,12,0,0,0,0,,,,,0,3,3,31,,,,,,down,0.500386982418604,2262.9923460794034,None,001,10,2019_Jun_06_1203,ACPT_experiment_5_30_19,3.1.0,59.93696581977111,
,,,C,G,d,b,L,G,g,R,c ,,,,,5,19,119,12,0,0,0,0,,,,,0,4,4,19,,,,,,up,1.0508145346011588,2264.777055866738,None,001,10,2019_Jun_06_1203,ACPT_experiment_5_30_19,3.1.0,59.93696581977111,
,,,C,G,d,b,L,G,d,L,i,,,,,5,19,119,12,0,0,0,0,,,,,0,5,5,16,,,,,,up,0.7839602730255137,2267.0954853459843,None,001,10,2019_Jun_06_1203,ACPT_experiment_5_30_19,3.1.0,59.93696581977111,
,,,C,G,d,b,R,G,d,R,i,,,,,5,19,119,12,0,0,0,0,,,,,0,6,6,5,,,,,,up,0.667180630835901,2269.1470892401985,None,001,10,2019_Jun_06_1203,ACPT_experiment_5_30_19,3.1.0,59.93696581977111,
,,,C,G,d,b,L,U,g,R,u,,,,,5,19,119,12,0,0,0,0,,,,,0,7,7,23,,,,,,up,0.9007199925626992,2271.0985959963928,None,001,10,2019_Jun_06_1203,ACPT_experiment_5_30_19,3.1.0,59.93696581977111,
,,,C,G,d,b,R,U,y,L,u,,,,,5,19,119,12,0,0,0,0,,,,,0,8,8,30,,,,,,down,0.7504651637345887,2273.283749274031,None,001,10,2019_Jun_06_1203,ACPT_experiment_5_30_19,3.1.0,59.93696581977111,
,,,C,G,d,b,L,D,y,R,y,,,,,5,19,119,12,0,0,0,0,,,,,0,9,9,33,,,,,,down,0.8173062642854347,2275.3185112828623,None,001,10,2019_Jun_06_1203,ACPT_experiment_5_30_19,3.1.0,59.93696581977111,
,,,C,G,d,b,L,G,d,R,i,,,,,5,19,119,12,0,0,0,0,,,,,0,10,10,17,,,,,,up,0.783932200196432,2277.420139446489,None,001,10,2019_Jun_06_1203,ACPT_experiment_5_30_19,3.1.0,59.93696581977111,
,,,C,G,d,b,R,D,g,L,i,,,,,5,19,119,12,0,0,0,0,,,,,0,11,11,2,,,,,,up,0.9006858825669042,2279.4884029036366,None,001,10,2019_Jun_06_1203,ACPT_experiment_5_30_19,3.1.0,59.93696581977111,
,,,C,G,d,b,R,D,d,R,c ,,,,,5,19,119,12,0,0,0,0,,,,,0,12,12,1,,,,,,up,0.650259658561481,2281.673660322409,None,001,10,2019_Jun_06_1203,ACPT_experiment_5_30_19,3.1.0,59.93696581977111,
,,,C,G,d,b,R,U,g,L,u,,,,,5,19,119,12,0,0,0,0,,,,,0,13,13,10,,,,,,up,0.9173922335467068,2283.6082442951792,None,001,10,2019_Jun_06_1203,ACPT_experiment_5_30_19,3.1.0,59.93696581977111,
,,,C,G,d,b,R,G,g,L,c ,,,,,5,19,119,12,0,0,0,0,,,,,0,14,14,6,,,,,,up,0.8006156099409054,2285.793266868148,None,001,10,2019_Jun_06_1203,ACPT_experiment_5_30_19,3.1.0,59.93696581977111,
,,,C,G,d,b,L,U,d,R,u,,,,,5,19,119,12,0,0,0,0,,,,,0,15,15,21,,,,,,up,1.017469147056545,2287.878181134336,None,001,10,2019_Jun_06_1203,ACPT_experiment_5_30_19,3.1.0,59.93696581977111,
,,,C,G,d,b,R,D,y,L,y,,,,,5,19,119,12,0,0,0,0,,,,,0,16,16,26,,,,,,down,0.6671797252602119,2290.1799788216176,None,001,10,2019_Jun_06_1203,ACPT_experiment_5_30_19,3.1.0,59.93696581977111,
,,,C,G,d,b,R,G,d,L,i,,,,,5,19,119,12,0,0,0,0,,,,,0,17,17,4,,,,,,down,1.184238344946607,2292.131485577812,None,001,10,2019_Jun_06_1203,ACPT_experiment_5_30_19,3.1.0,59.93696581977111,
,,,C,G,d,b,L,U,y,R,u,,,,,5,19,119,12,0,0,0,0,,,,,0,18,18,25,,,,,,down,0.7839575563002654,2294.600030427323,None,001,10,2019_Jun_06_1203,ACPT_experiment_5_30_19,3.1.0,59.93696581977111,
,,,C,G,d,b,R,D,d,L,c,,,,,5,19,119,12,0,0,0,0,,,,,0,19,19,0,,,,,,up,0.6838592108460944,2296.668310184822,None,001,10,2019_Jun_06_1203,ACPT_experiment_5_30_19,3.1.0,59.93696581977111,
,,,C,G,d,b,R,D,y,R,y,,,,,5,19,119,12,0,0,0,0,,,,,0,20,20,27,,,,,,down,0.717214861573666,2298.636493709876,None,001,10,2019_Jun_06_1203,ACPT_experiment_5_30_19,3.1.0,59.93696581977111,
,,,C,G,d,b,L,G,y,R,y,,,,,5,19,119,12,0,0,0,0,,,,,0,21,21,35,,,,,,down,0.6671815364106806,2300.638039224683,None,001,10,2019_Jun_06_1203,ACPT_experiment_5_30_19,3.1.0,59.93696581977111,
,,,C,G,d,b,L,D,g,R,i,,,,,5,19,119,12,0,0,0,0,,,,,0,22,22,15,,,,,,up,0.7335281929672419,2302.60660701543,None,001,10,2019_Jun_06_1203,ACPT_experiment_5_30_19,3.1.0,59.93696581977111,
,,,C,G,d,b,R,G,y,L,y,,,,,5,19,119,12,0,0,0,0,,,,,0,23,23,28,,,,,,down,0.7171559991938921,2304.641177646061,None,001,10,2019_Jun_06_1203,ACPT_experiment_5_30_19,3.1.0,59.93696581977111,
,,,C,G,d,b,L,D,y,L,y,,,,,5,19,119,12,0,0,0,0,,,,,0,24,24,32,,,,,,down,1.167534106975836,2306.659378497784,None,001,10,2019_Jun_06_1203,ACPT_experiment_5_30_19,3.1.0,59.93696581977111,
,,,C,G,d,b,R,G,y,R,y,,,,,5,19,119,12,0,0,0,0,,,,,0,25,25,29,,,,,,down,0.8173147163197427,2309.111238730118,None,001,10,2019_Jun_06_1203,ACPT_experiment_5_30_19,3.1.0,59.93696581977111,
,,,C,G,d,b,L,U,d,L,u,,,,,5,19,119,12,0,0,0,0,,,,,0,26,26,20,,,,,,down,1.0507991398244485,2311.212859347286,None,001,10,2019_Jun_06_1203,ACPT_experiment_5_30_19,3.1.0,59.93696581977111,
,,,C,G,d,b,L,G,y,L,y,,,,,5,19,119,12,0,0,0,0,,,,,0,27,27,34,,,,,,down,0.6838522681027825,2313.564674964955,None,001,10,2019_Jun_06_1203,ACPT_experiment_5_30_19,3.1.0,59.93696581977111,
,,,C,G,d,b,L,D,d,R,c ,,,,,5,19,119,12,0,0,0,0,,,,,0,28,28,13,,,,,,up,0.8506552741291671,2315.5328539621332,None,001,10,2019_Jun_06_1203,ACPT_experiment_5_30_19,3.1.0,59.93696581977111,
,,,C,G,d,b,R,U,d,R,u,,,,,5,19,119,12,0,0,0,0,,,,,0,29,29,9,,,,,,up,0.7505807754860143,2317.6511525555934,None,001,10,2019_Jun_06_1203,ACPT_experiment_5_30_19,3.1.0,59.93696581977111,
,,,C,G,d,b,L,D,g,L,i,,,,,5,19,119,12,0,0,0,0,,,,,0,30,30,14,,,,,,up,0.8172935862339727,2319.686058550863,None,001,10,2019_Jun_06_1203,ACPT_experiment_5_30_19,3.1.0,59.93696581977111,
,,,C,G,d,b,L,U,y,L,u,,,,,5,19,119,12,0,0,0,0,,,,,0,31,31,24,,,,,,down,0.750573832743612,2321.787677658739,None,001,10,2019_Jun_06_1203,ACPT_experiment_5_30_19,3.1.0,59.93696581977111,
,,,C,G,d,b,R,U,g,R,u,,,,,5,19,119,12,0,0,0,0,,,,,0,32,32,11,,,,,,up,1.0007724555453024,2323.822579729849,None,001,10,2019_Jun_06_1203,ACPT_experiment_5_30_19,3.1.0,59.93696581977111,
,,,C,G,d,b,L,D,d,L,c ,,,,,5,19,119,12,0,0,0,0,,,,,0,33,33,12,,,,,,up,0.6505174456015084,2326.1076764996023,None,001,10,2019_Jun_06_1203,ACPT_experiment_5_30_19,3.1.0,59.93696581977111,
,,,C,G,d,b,L,G,g,L,c ,,,,,5,19,119,12,0,0,0,0,,,,,0,34,34,18,,,,,,up,0.9007175776951044,2328.042479017826,None,001,10,2019_Jun_06_1203,ACPT_experiment_5_30_19,3.1.0,59.93696581977111,
,,,C,G,d,b,R,D,g,R,i,,,,,5,19,119,12,0,0,0,0,,,,,0,35,35,3,,,,,,up,0.5837765620262871,2330.210844140869,None,001,10,2019_Jun_06_1203,ACPT_experiment_5_30_19,3.1.0,59.93696581977111,
,,,C,G,d,b,L,U,y,R,u,,,,,5,19,119,12,0,0,0,0,,,,,1,0,36,25,,,,,,down,0.8672079792031582,2332.078959506305,None,001,10,2019_Jun_06_1203,ACPT_experiment_5_30_19,3.1.0,59.93696581977111,
,,,C,G,d,b,L,D,g,R,i,,,,,5,19,119,12,0,0,0,0,,,,,1,1,37,15,,,,,,up,0.9507346025065999,2334.2306025817343,None,001,10,2019_Jun_06_1203,ACPT_experiment_5_30_19,3.1.0,59.93696581977111,
,,,C,G,d,b,R,D,d,R,c ,,,,,5,19,119,12,0,0,0,0,,,,,1,2,38,1,,,,,,up,0.7505843977869517,2336.465656064999,None,001,10,2019_Jun_06_1203,ACPT_experiment_5_30_19,3.1.0,59.93696581977111,
,,,C,G,d,b,R,G,y,R,y,,,,,5,19,119,12,0,0,0,0,,,,,1,3,39,29,,,,,,down,0.6671791215439953,2338.500564776993,None,001,10,2019_Jun_06_1203,ACPT_experiment_5_30_19,3.1.0,59.93696581977111,
,,,C,G,d,b,R,U,y,L,u,,,,,5,19,119,12,0,0,0,0,,,,,1,4,40,30,,,,,,down,0.9174006855810148,2340.4353606543327,None,001,10,2019_Jun_06_1203,ACPT_experiment_5_30_19,3.1.0,59.93696581977111,
,,,C,G,d,b,R,G,y,L,y,,,,,5,19,119,12,0,0,0,0,,,,,1,5,41,28,,,,,,down,0.8172956992430045,2342.637086861555,None,001,10,2019_Jun_06_1203,ACPT_experiment_5_30_19,3.1.0,59.93696581977111,
,,,C,G,d,b,L,U,y,L,u,,,,,5,19,119,12,0,0,0,0,,,,,1,6,42,24,,,,,,down,0.7505828884950461,2344.7387029508473,None,001,10,2019_Jun_06_1203,ACPT_experiment_5_30_19,3.1.0,59.93696581977111,
,,,C,G,d,b,R,U,y,R,u,,,,,5,19,119,12,0,0,0,0,,,,,1,7,43,31,,,,,,down,1.0007679276695853,2346.790287526126,None,001,10,2019_Jun_06_1203,ACPT_experiment_5_30_19,3.1.0,59.93696581977111,
,,,C,G,d,b,R,D,y,R,y,,,,,5,19,119,12,0,0,0,0,,,,,1,8,44,27,,,,,,down,0.6838592108460944,2349.092060461023,None,001,10,2019_Jun_06_1203,ACPT_experiment_5_30_19,3.1.0,59.93696581977111,
,,,C,G,d,b,L,D,g,L,i,,,,,5,19,119,12,0,0,0,0,,,,,1,9,45,14,,,,,,up,0.8339769959775367,2351.0602433823597,None,001,10,2019_Jun_06_1203,ACPT_experiment_5_30_19,3.1.0,59.93696581977111,
,,,C,G,d,b,L,G,y,L,y,,,,,5,19,119,12,0,0,0,0,,,,,1,10,46,34,,,,,,down,1.4177520487128277,2353.195222668839,None,001,10,2019_Jun_06_1203,ACPT_experiment_5_30_19,3.1.0,59.93696581977111,
,,,C,G,d,b,L,U,d,L,u,,,,,5,19,119,12,0,0,0,0,,,,,1,11,47,20,,,,,,up,0.8006065541903808,2355.913995723271,None,001,10,2019_Jun_06_1203,ACPT_experiment_5_30_19,3.1.0,59.93696581977111,
,,,C,G,d,b,R,U,g,R,u,,,,,5,19,119,12,0,0,0,0,,,,,1,12,48,11,,,,,,up,0.7005380927139413,2357.9989256860945,None,001,10,2019_Jun_06_1203,ACPT_experiment_5_30_19,3.1.0,59.93696581977111,
,,,C,G,d,b,R,D,d,L,c,,,,,5,19,119,12,0,0,0,0,,,,,1,13,49,0,,,,,,up,0.8339824294289429,2359.9837844707163,None,001,10,2019_Jun_06_1203,ACPT_experiment_5_30_19,3.1.0,59.93696581977111,
,,,C,G,d,b,L,G,d,R,i,,,,,5,19,119,12,0,0,0,0,,,,,1,14,50,17,,,,,,up,0.8673392875898571,2362.102088497627,None,001,10,2019_Jun_06_1203,ACPT_experiment_5_30_19,3.1.0,59.93696581977111,
,,,C,G,d,b,L,G,g,R,c ,,,,,5,19,119,12,0,0,0,0,,,,,1,15,51,19,,,,,,up,0.7506040185799066,2364.2370424280043,None,001,10,2019_Jun_06_1203,ACPT_experiment_5_30_19,3.1.0,59.93696581977111,
,,,C,G,d,b,L,G,g,L,c ,,,,,5,19,119,12,0,0,0,0,,,,,1,16,52,18,,,,,,up,0.6171663227496538,2366.2552909733486,None,001,10,2019_Jun_06_1203,ACPT_experiment_5_30_19,3.1.0,59.93696581977111,
,,,C,G,d,b,R,D,y,L,y,,,,,5,19,119,12,0,0,0,0,,,,,1,17,53,26,,,,,,down,1.2176202573518822,2368.1734411732396,None,001,10,2019_Jun_06_1203,ACPT_experiment_5_30_19,3.1.0,59.93696581977111,
,,,C,G,d,b,L,D,d,L,c ,,,,,5,19,119,12,0,0,0,0,,,,,1,18,54,12,,,,,,up,0.8840411106939428,2370.6920447040166,None,001,10,2019_Jun_06_1203,ACPT_experiment_5_30_19,3.1.0,59.93696581977111,
,,,C,G,d,b,L,G,d,L,i,,,,,5,19,119,12,0,0,0,0,,,,,1,19,55,16,,,,,,up,0.6168723127066187,2372.8773268751747,None,001,10,2019_Jun_06_1203,ACPT_experiment_5_30_19,3.1.0,59.93696581977111,
,,,C,G,d,b,R,D,g,R,i,,,,,5,19,119,12,0,0,0,0,,,,,1,20,56,3,,,,,,up,0.700569485982669,2374.7785277281055,None,001,10,2019_Jun_06_1203,ACPT_experiment_5_30_19,3.1.0,59.93696581977111,
,,,C,G,d,b,R,U,g,L,u,,,,,5,19,119,12,0,0,0,0,,,,,1,21,57,10,,,,,,up,0.6671751973854043,2376.7633892294525,None,001,10,2019_Jun_06_1203,ACPT_experiment_5_30_19,3.1.0,59.93696581977111,
,,,C,G,d,b,R,G,g,L,c ,,,,,5,19,119,12,0,0,0,0,,,,,1,22,58,6,,,,,,up,1.067504585228562,2378.7148757611367,None,001,10,2019_Jun_06_1203,ACPT_experiment_5_30_19,3.1.0,59.93696581977111,
,,,C,G,d,b,L,D,y,R,y,,,,,5,19,119,12,0,0,0,0,,,,,1,23,59,33,,,,,,down,0.6004856297304286,2381.0666835304874,None,001,10,2019_Jun_06_1203,ACPT_experiment_5_30_19,3.1.0,59.93696581977111,
,,,C,G,d,b,L,D,d,R,c ,,,,,5,19,119,12,0,0,0,0,,,,,1,24,60,13,,,,,,up,0.7505871145112906,2382.9514862298256,None,001,10,2019_Jun_06_1203,ACPT_experiment_5_30_19,3.1.0,59.93696581977111,
,,,C,G,d,b,R,G,d,L,i,,,,,5,19,119,12,0,0,0,0,,,,,1,25,61,4,,,,,,down,1.1008182776440663,2384.986422712789,None,001,10,2019_Jun_06_1203,ACPT_experiment_5_30_19,3.1.0,59.93696581977111,
,,,C,G,d,b,L,U,d,R,u,,,,,5,19,119,12,0,0,0,0,,,,,1,26,62,21,,,,,,up,0.8673287225474269,2387.371573152959,None,001,10,2019_Jun_06_1203,ACPT_experiment_5_30_19,3.1.0,59.93696581977111,
,,,C,G,d,b,L,D,y,L,y,,,,,5,19,119,12,0,0,0,0,,,,,1,27,63,32,,,,,,down,0.7672732409810123,2389.5232117005135,None,001,10,2019_Jun_06_1203,ACPT_experiment_5_30_19,3.1.0,59.93696581977111,
,,,C,G,d,b,R,U,d,R,u,,,,,5,19,119,12,0,0,0,0,,,,,1,28,64,9,,,,,,down,0.9340662856811832,2391.574808953844,None,001,10,2019_Jun_06_1203,ACPT_experiment_5_30_19,3.1.0,59.93696581977111,
,,,C,G,d,b,R,D,g,L,i,,,,,5,19,119,12,0,0,0,0,,,,,1,29,65,2,,,,,,up,0.7338949508757651,2393.793180536656,None,001,10,2019_Jun_06_1203,ACPT_experiment_5_30_19,3.1.0,59.93696581977111,
,,,C,G,d,b,R,G,g,R,c ,,,,,5,19,119,12,0,0,0,0,,,,,1,30,66,7,,,,,,up,0.9006889011507155,2395.794731183056,None,001,10,2019_Jun_06_1203,ACPT_experiment_5_30_19,3.1.0,59.93696581977111,
,,,C,G,d,b,R,U,d,L,u,,,,,5,19,119,12,0,0,0,0,,,,,1,31,67,8,,,,,,up,0.7839599711660412,2397.9797211553214,None,001,10,2019_Jun_06_1203,ACPT_experiment_5_30_19,3.1.0,59.93696581977111,
,,,C,G,d,b,L,G,y,R,y,,,,,5,19,119,12,0,0,0,0,,,,,1,32,68,35,,,,,,down,0.7672829004477535,2400.0479828013185,None,001,10,2019_Jun_06_1203,ACPT_experiment_5_30_19,3.1.0,59.93696581977111,
,,,C,G,d,b,L,U,g,L,u,,,,,5,19,119,12,0,0,0,0,,,,,1,33,69,22,,,,,,up,0.733894649017202,2402.099587902966,None,001,10,2019_Jun_06_1203,ACPT_experiment_5_30_19,3.1.0,59.93696581977111,
,,,C,G,d,b,R,G,d,R,i,,,,,5,19,119,12,0,0,0,0,,,,,1,34,70,5,,,,,,up,0.6504942025085256,2404.1178132052173,None,001,10,2019_Jun_06_1203,ACPT_experiment_5_30_19,3.1.0,59.93696581977111,
,,,C,G,d,b,L,U,g,R,u,,,,,5,19,119,12,0,0,0,0,,,,,1,35,71,23,,,,,,up,0.6171258737285825,2406.0526398721095,None,001,10,2019_Jun_06_1203,ACPT_experiment_5_30_19,3.1.0,59.93696581977111,
,,,C,G,d,b,,,,,,,,,,5,19,119,12,1,0,1,0,0,0,0,0,,,,,,,,,,,,,,001,10,2019_Jun_06_1203,ACPT_experiment_5_30_19,3.1.0,59.93696581977111,
,,,C,G,d,b,R,D,g,L,i,,,,,5,19,119,12,1,0,1,0,,,,,0,0,0,2,,,,,,up,0.8336932491183688,2426.368579623595,None,001,10,2019_Jun_06_1203,ACPT_experiment_5_30_19,3.1.0,59.93696581977111,
,,,C,G,d,b,R,U,d,L,u,,,,,5,19,119,12,1,0,1,0,,,,,0,1,1,8,,,,,,down,0.8006038374651325,2428.486602922231,None,001,10,2019_Jun_06_1203,ACPT_experiment_5_30_19,3.1.0,59.93696581977111,
,,,C,G,d,b,R,D,y,L,y,,,,,5,19,119,12,1,0,1,0,,,,,0,2,2,26,,,,,,down,0.7338907248586111,2430.571544355672,None,001,10,2019_Jun_06_1203,ACPT_experiment_5_30_19,3.1.0,59.93696581977111,
,,,C,G,d,b,R,U,y,L,u,,,,,5,19,119,12,1,0,1,0,,,,,0,3,3,30,,,,,,down,0.6504942025085256,2432.6064382766062,None,001,10,2019_Jun_06_1203,ACPT_experiment_5_30_19,3.1.0,59.93696581977111,
,,,C,G,d,b,L,D,g,R,i,,,,,5,19,119,12,1,0,1,0,,,,,0,4,4,15,,,,,,up,0.633809283473056,2434.5579456365167,None,001,10,2019_Jun_06_1203,ACPT_experiment_5_30_19,3.1.0,59.93696581977111,
,,,C,G,d,b,R,G,g,L,c ,,,,,5,19,119,12,1,0,1,0,,,,,0,5,5,6,,,,,,up,0.6338068686054612,2436.4761045902997,None,001,10,2019_Jun_06_1203,ACPT_experiment_5_30_19,3.1.0,59.93696581977111,
,,,C,G,d,b,R,G,y,R,y,,,,,5,19,119,12,1,0,1,0,,,,,0,6,6,29,,,,,,down,0.7339181939696573,2438.3775318370017,None,001,10,2019_Jun_06_1203,ACPT_experiment_5_30_19,3.1.0,59.93696581977111,
,,,C,G,d,b,L,G,g,L,c ,,,,,5,19,119,12,1,0,1,0,,,,,0,7,7,18,,,,,,up,0.6004838185808694,2440.395780382346,None,001,10,2019_Jun_06_1203,ACPT_experiment_5_30_19,3.1.0,59.93696581977111,
,,,C,G,d,b,L,U,g,R,u,,,,,5,19,119,12,1,0,1,0,,,,,0,8,8,23,,,,,,up,0.6004632922122255,2442.2805625553156,None,001,10,2019_Jun_06_1203,ACPT_experiment_5_30_19,3.1.0,59.93696581977111,
,,,C,G,d,b,L,G,d,R,i,,,,,5,19,119,12,1,0,1,0,,,,,0,9,9,17,,,,,,up,0.5003676634833027,2444.165367367663,None,001,10,2019_Jun_06_1203,ACPT_experiment_5_30_19,3.1.0,59.93696581977111,
,,,C,G,d,b,R,G,y,L,y,,,,,5,19,119,12,1,0,1,0,,,,,0,10,10,28,,,,,,down,0.7504660693093683,2445.950063571371,None,001,10,2019_Jun_06_1203,ACPT_experiment_5_30_19,3.1.0,59.93696581977111,
,,,C,G,d,b,R,D,d,L,c,,,,,5,19,119,12,1,0,1,0,,,,,0,11,11,0,,,,,,up,0.9340367035611052,2447.9849777168165,None,001,10,2019_Jun_06_1203,ACPT_experiment_5_30_19,3.1.0,59.93696581977111,
,,,C,G,d,b,R,G,d,L,i,,,,,5,19,119,12,1,0,1,0,,,,,0,12,12,4,,,,,,up,0.9006680729244181,2450.186681888378,None,001,10,2019_Jun_06_1203,ACPT_experiment_5_30_19,3.1.0,59.93696581977111,
,,,C,G,d,b,L,U,d,R,u,,,,,5,19,119,12,1,0,1,0,,,,,0,13,13,21,,,,,,up,0.6004660089374738,2452.37167608666,None,001,10,2019_Jun_06_1203,ACPT_experiment_5_30_19,3.1.0,59.93696581977111,
,,,C,G,d,b,R,U,g,R,u,,,,,5,19,119,12,1,0,1,0,,,,,0,14,14,11,,,,,,up,0.5837756564515075,2454.256465202372,None,001,10,2019_Jun_06_1203,ACPT_experiment_5_30_19,3.1.0,59.93696581977111,
,,,C,G,d,b,L,G,d,L,i,,,,,5,19,119,12,1,0,1,0,,,,,0,15,15,16,,,,,,up,0.7672569406295224,2456.124567587898,None,001,10,2019_Jun_06_1203,ACPT_experiment_5_30_19,3.1.0,59.93696581977111,
,,,C,G,d,b,R,U,y,R,u,,,,,5,19,119,12,1,0,1,0,,,,,0,16,16,31,,,,,,down,0.6171729636325836,2458.1761473334436,None,001,10,2019_Jun_06_1203,ACPT_experiment_5_30_19,3.1.0,59.93696581977111,
,,,C,G,d,b,L,U,d,L,u,,,,,5,19,119,12,1,0,1,0,,,,,0,17,17,20,,,,,,up,0.6838616257118701,2460.077615029166,None,001,10,2019_Jun_06_1203,ACPT_experiment_5_30_19,3.1.0,59.93696581977111,
,,,C,G,d,b,L,D,y,R,y,,,,,5,19,119,12,1,0,1,0,,,,,0,18,18,33,,,,,,down,0.6504942025085256,2462.045808515545,None,001,10,2019_Jun_06_1203,ACPT_experiment_5_30_19,3.1.0,59.93696581977111,
,,,C,G,d,b,L,D,y,L,y,,,,,5,19,119,12,1,0,1,0,,,,,0,19,19,32,,,,,,down,0.7839337094883376,2463.9806276359786,None,001,10,2019_Jun_06_1203,ACPT_experiment_5_30_19,3.1.0,59.93696581977111,
,,,C,G,d,b,L,G,y,L,y,,,,,5,19,119,12,1,0,1,0,,,,,0,20,20,34,,,,,,down,0.8172935862339727,2466.0488886782596,None,001,10,2019_Jun_06_1203,ACPT_experiment_5_30_19,3.1.0,59.93696581977111,
,,,C,G,d,b,R,D,d,R,c ,,,,,5,19,119,12,1,0,1,0,,,,,0,21,21,1,,,,,,up,0.7005365834220356,2468.150508389852,None,001,10,2019_Jun_06_1203,ACPT_experiment_5_30_19,3.1.0,59.93696581977111,
,,,C,G,d,b,L,D,d,L,c ,,,,,5,19,119,12,1,0,1,0,,,,,0,22,22,12,,,,,,up,0.567117300951395,2470.118669275528,None,001,10,2019_Jun_06_1203,ACPT_experiment_5_30_19,3.1.0,59.93696581977111,
,,,C,G,d,b,L,U,g,L,u,,,,,5,19,119,12,1,0,1,0,,,,,0,23,23,22,,,,,,up,0.7338783486657121,2471.9701202482966,None,001,10,2019_Jun_06_1203,ACPT_experiment_5_30_19,3.1.0,59.93696581977111,
,,,C,G,d,b,L,D,g,L,i,,,,,5,19,119,12,1,0,1,0,,,,,0,24,24,14,,,,,,up,0.6337875496710694,2473.988371510367,None,001,10,2019_Jun_06_1203,ACPT_experiment_5_30_19,3.1.0,59.93696581977111,
,,,C,G,d,b,L,G,y,R,y,,,,,5,19,119,12,1,0,1,0,,,,,0,25,25,35,,,,,,down,0.7839249555963761,2475.923179462041,None,001,10,2019_Jun_06_1203,ACPT_experiment_5_30_19,3.1.0,59.93696581977111,
,,,C,G,d,b,R,U,d,R,u,,,,,5,19,119,12,1,0,1,0,,,,,0,26,26,9,,,,,,up,0.6338110946226152,2477.991432354145,None,001,10,2019_Jun_06_1203,ACPT_experiment_5_30_19,3.1.0,59.93696581977111,
,,,C,G,d,b,R,G,d,R,i,,,,,5,19,119,12,1,0,1,0,,,,,0,27,27,5,,,,,,down,1.0341229746818499,2479.909578328019,None,001,10,2019_Jun_06_1203,ACPT_experiment_5_30_19,3.1.0,59.93696581977111,
,,,C,G,d,b,R,U,g,L,u,,,,,5,19,119,12,1,0,1,0,,,,,0,28,28,10,,,,,,up,0.6004578587617289,2482.244710837802,None,001,10,2019_Jun_06_1203,ACPT_experiment_5_30_19,3.1.0,59.93696581977111,
,,,C,G,d,b,L,U,y,L,u,,,,,5,19,119,12,1,0,1,0,,,,,0,29,29,24,,,,,,down,0.8506552741300766,2484.1294936144886,None,001,10,2019_Jun_06_1203,ACPT_experiment_5_30_19,3.1.0,59.93696581977111,
,,,C,G,d,b,R,D,y,R,y,,,,,5,19,119,12,1,0,1,0,,,,,0,30,30,27,,,,,,down,0.9173689904528146,2486.2644725991095,None,001,10,2019_Jun_06_1203,ACPT_experiment_5_30_19,3.1.0,59.93696581977111,
,,,C,G,d,b,R,D,g,R,i,,,,,5,19,119,12,1,0,1,0,,,,,0,31,31,3,,,,,,up,0.9340566262135326,2488.4661713372207,None,001,10,2019_Jun_06_1203,ACPT_experiment_5_30_19,3.1.0,59.93696581977111,
,,,C,G,d,b,L,D,d,R,c ,,,,,5,19,119,12,1,0,1,0,,,,,0,32,32,13,,,,,,up,0.6671779141097431,2490.684548051626,None,001,10,2019_Jun_06_1203,ACPT_experiment_5_30_19,3.1.0,59.93696581977111,
,,,C,G,d,b,L,U,y,R,u,,,,,5,19,119,12,1,0,1,0,,,,,0,33,33,25,,,,,,down,0.8006092709147197,2492.652733085971,None,001,10,2019_Jun_06_1203,ACPT_experiment_5_30_19,3.1.0,59.93696581977111,
,,,C,G,d,b,L,G,g,R,c ,,,,,5,19,119,12,1,0,1,0,,,,,0,34,34,19,,,,,,up,0.7505699085859305,2494.7543555142884,None,001,10,2019_Jun_06_1203,ACPT_experiment_5_30_19,3.1.0,59.93696581977111,
,,,C,G,d,b,R,G,g,R,c ,,,,,5,19,119,12,1,0,1,0,,,,,0,35,35,7,,,,,,up,0.6838586071289683,2496.7892518500903,None,001,10,2019_Jun_06_1203,ACPT_experiment_5_30_19,3.1.0,59.93696581977111,
,,,C,G,d,b,R,U,g,R,u,,,,,5,19,119,12,1,0,1,0,,,,,1,0,36,11,,,,,,up,0.6338509399265604,2498.757435677002,None,001,10,2019_Jun_06_1203,ACPT_experiment_5_30_19,3.1.0,59.93696581977111,
,,,C,G,d,b,R,U,d,R,u,,,,,5,19,119,12,1,0,1,0,,,,,1,1,37,9,,,,,,up,0.8006282879914579,2500.675574406275,None,001,10,2019_Jun_06_1203,ACPT_experiment_5_30_19,3.1.0,59.93696581977111,
,,,C,G,d,b,L,D,g,L,i,,,,,5,19,119,12,1,0,1,0,,,,,1,2,38,14,,,,,,up,0.8673661529837773,2502.760523989892,None,001,10,2019_Jun_06_1203,ACPT_experiment_5_30_19,3.1.0,59.93696581977111,
,,,C,G,d,b,R,D,y,R,y,,,,,5,19,119,12,1,0,1,0,,,,,1,3,39,27,,,,,,down,0.8171794837735433,2504.9121800452313,None,001,10,2019_Jun_06_1203,ACPT_experiment_5_30_19,3.1.0,59.93696581977111,
,,,C,G,d,b,R,G,g,L,c ,,,,,5,19,119,12,1,0,1,0,,,,,1,4,40,6,,,,,,up,0.7173177952754486,2507.0138012661155,None,001,10,2019_Jun_06_1203,ACPT_experiment_5_30_19,3.1.0,59.93696581977111,
,,,C,G,d,b,L,U,y,R,u,,,,,5,19,119,12,1,0,1,0,,,,,1,5,41,25,,,,,,down,0.8338662139594817,2509.0153422530466,None,001,10,2019_Jun_06_1203,ACPT_experiment_5_30_19,3.1.0,59.93696581977111,
,,,C,G,d,b,R,G,y,L,y,,,,,5,19,119,12,1,0,1,0,,,,,1,6,42,28,,,,,,down,0.7005257165210423,2511.133648392967,None,001,10,2019_Jun_06_1203,ACPT_experiment_5_30_19,3.1.0,59.93696581977111,
,,,C,G,d,b,L,G,d,L,i,,,,,5,19,119,12,1,0,1,0,,,,,1,7,43,16,,,,,,down,1.0007688332452744,2513.118502045996,None,001,10,2019_Jun_06_1203,ACPT_experiment_5_30_19,3.1.0,59.93696581977111,
,,,C,G,d,b,R,D,y,L,y,,,,,5,19,119,12,1,0,1,0,,,,,1,8,44,26,,,,,,down,0.9674155973843881,2515.403601230617,None,001,10,2019_Jun_06_1203,ACPT_experiment_5_30_19,3.1.0,59.93696581977111,
,,,C,G,d,b,L,G,g,R,c ,,,,,5,19,119,12,1,0,1,0,,,,,1,9,45,19,,,,,,up,0.7338889137081424,2517.655340538491,None,001,10,2019_Jun_06_1203,ACPT_experiment_5_30_19,3.1.0,59.93696581977111,
,,,C,G,d,b,R,U,g,L,u,,,,,5,19,119,12,1,0,1,0,,,,,1,10,46,10,,,,,,up,1.2676387914561928,2519.6735601054334,None,001,10,2019_Jun_06_1203,ACPT_experiment_5_30_19,3.1.0,59.93696581977111,
,,,C,G,d,b,L,U,d,R,u,,,,,5,19,119,12,1,0,1,0,,,,,1,11,47,21,,,,,,up,0.7172239173251,2522.225523512956,None,001,10,2019_Jun_06_1203,ACPT_experiment_5_30_19,3.1.0,59.93696581977111,
,,,C,G,d,b,R,G,d,R,i,,,,,5,19,119,12,1,0,1,0,,,,,1,12,48,5,,,,,,up,0.6504978248085536,2524.2270693296214,None,001,10,2019_Jun_06_1203,ACPT_experiment_5_30_19,3.1.0,59.93696581977111,
,,,C,G,d,b,L,D,d,R,c ,,,,,5,19,119,12,1,0,1,0,,,,,1,13,49,13,,,,,,up,0.5504432488169186,2526.1618727534196,None,001,10,2019_Jun_06_1203,ACPT_experiment_5_30_19,3.1.0,59.93696581977111,
,,,C,G,d,b,R,D,g,L,i,,,,,5,19,119,12,1,0,1,0,,,,,1,14,50,2,,,,,,up,0.7505834922112626,2527.996641222019,None,001,10,2019_Jun_06_1203,ACPT_experiment_5_30_19,3.1.0,59.93696581977111,
,,,C,G,d,b,L,U,g,L,u,,,,,5,19,119,12,1,0,1,0,,,,,1,15,51,22,,,,,,up,0.6505023526842706,2530.0315417838383,None,001,10,2019_Jun_06_1203,ACPT_experiment_5_30_19,3.1.0,59.93696581977111,
,,,C,G,d,b,R,U,y,L,u,,,,,5,19,119,12,1,0,1,0,,,,,1,16,52,30,,,,,,down,0.8506534629796079,2531.9663669414385,None,001,10,2019_Jun_06_1203,ACPT_experiment_5_30_19,3.1.0,59.93696581977111,
,,,C,G,d,b,R,D,g,R,i,,,,,5,19,119,12,1,0,1,0,,,,,1,17,53,3,,,,,,up,0.9840926681017663,2534.101346831635,None,001,10,2019_Jun_06_1203,ACPT_experiment_5_30_19,3.1.0,59.93696581977111,
,,,C,G,d,b,L,G,y,L,y,,,,,5,19,119,12,1,0,1,0,,,,,1,18,54,34,,,,,,down,0.9840920643855497,2536.3697647195195,None,001,10,2019_Jun_06_1203,ACPT_experiment_5_30_19,3.1.0,59.93696581977111,
,,,C,G,d,b,L,G,y,R,y,,,,,5,19,119,12,1,0,1,0,,,,,1,19,55,35,,,,,,down,0.8172914732258505,2538.638175362804,None,001,10,2019_Jun_06_1203,ACPT_experiment_5_30_19,3.1.0,59.93696581977111,
,,,C,G,d,b,R,U,d,L,u,,,,,5,19,119,12,1,0,1,0,,,,,1,20,56,8,,,,,,up,1.0675181688548037,2540.7397718313023,None,001,10,2019_Jun_06_1203,ACPT_experiment_5_30_19,3.1.0,59.93696581977111,
,,,C,G,d,b,R,G,y,R,y,,,,,5,19,119,12,1,0,1,0,,,,,1,21,57,29,,,,,,down,0.7839481986902683,2543.1082708587146,None,001,10,2019_Jun_06_1203,ACPT_experiment_5_30_19,3.1.0,59.93696581977111,
,,,C,G,d,b,R,D,d,R,c ,,,,,5,19,119,12,1,0,1,0,,,,,1,22,58,1,,,,,,down,1.0841849763883147,2545.1932113865805,None,001,10,2019_Jun_06_1203,ACPT_experiment_5_30_19,3.1.0,59.93696581977111,
,,,C,G,d,b,L,U,y,L,u,,,,,5,19,119,12,1,0,1,0,,,,,1,23,59,24,,,,,,down,0.750599490705099,2547.561698641517,None,001,10,2019_Jun_06_1203,ACPT_experiment_5_30_19,3.1.0,59.93696581977111,
,,,C,G,d,b,L,G,g,L,c ,,,,,5,19,119,12,1,0,1,0,,,,,1,24,60,18,,,,,,up,1.2509837563975452,2549.5966004107695,None,001,10,2019_Jun_06_1203,ACPT_experiment_5_30_19,3.1.0,59.93696581977111,
,,,C,G,d,b,L,U,d,L,u,,,,,5,19,119,12,1,0,1,0,,,,,1,25,61,20,,,,,,up,0.6504948062247422,2552.131917235268,None,001,10,2019_Jun_06_1203,ACPT_experiment_5_30_19,3.1.0,59.93696581977111,
,,,C,G,d,b,L,D,g,R,i,,,,,5,19,119,12,1,0,1,0,,,,,1,26,62,15,,,,,,up,0.6838456272198528,2554.066751750477,None,001,10,2019_Jun_06_1203,ACPT_experiment_5_30_19,3.1.0,59.93696581977111,
,,,C,G,d,b,L,D,y,L,y,,,,,5,19,119,12,1,0,1,0,,,,,1,27,63,32,,,,,,down,0.7839291816135301,2556.0349235030544,None,001,10,2019_Jun_06_1203,ACPT_experiment_5_30_19,3.1.0,59.93696581977111,
,,,C,G,d,b,L,U,g,R,u,,,,,5,19,119,12,1,0,1,0,,,,,1,28,64,23,,,,,,up,0.6838486458027546,2558.1198652383537,None,001,10,2019_Jun_06_1203,ACPT_experiment_5_30_19,3.1.0,59.93696581977111,
,,,C,G,d,b,R,D,d,L,c,,,,,5,19,119,12,1,0,1,0,,,,,1,29,65,0,,,,,,up,0.7672774669972569,2560.088025218455,None,001,10,2019_Jun_06_1203,ACPT_experiment_5_30_19,3.1.0,59.93696581977111,
,,,C,G,d,b,L,D,d,L,c ,,,,,5,19,119,12,1,0,1,0,,,,,1,30,66,12,,,,,,up,0.6338159243559858,2562.1229496270844,None,001,10,2019_Jun_06_1203,ACPT_experiment_5_30_19,3.1.0,59.93696581977111,
,,,C,G,d,b,R,G,g,R,c ,,,,,5,19,119,12,1,0,1,0,,,,,1,31,67,7,,,,,,up,0.9006910141597473,2564.041094393525,None,001,10,2019_Jun_06_1203,ACPT_experiment_5_30_19,3.1.0,59.93696581977111,
,,,C,G,d,b,R,U,y,R,u,,,,,5,19,119,12,1,0,1,0,,,,,1,32,68,31,,,,,,down,0.700535375988693,2566.226113042334,None,001,10,2019_Jun_06_1203,ACPT_experiment_5_30_19,3.1.0,59.93696581977111,
,,,C,G,d,b,R,G,d,L,i,,,,,5,19,119,12,1,0,1,0,,,,,1,33,69,4,,,,,,down,0.9173650662942237,2568.2109748455396,None,001,10,2019_Jun_06_1203,ACPT_experiment_5_30_19,3.1.0,59.93696581977111,
,,,C,G,d,b,L,D,y,R,y,,,,,5,19,119,12,1,0,1,0,,,,,1,34,70,33,,,,,,down,0.6171732654920561,2570.4126461145397,None,001,10,2019_Jun_06_1203,ACPT_experiment_5_30_19,3.1.0,59.93696581977111,
,,,C,G,d,b,L,G,d,R,i,,,,,5,19,119,12,1,0,1,0,,,,,1,35,71,17,,,,,,up,0.7839306909054358,2572.314143392381,None,001,10,2019_Jun_06_1203,ACPT_experiment_5_30_19,3.1.0,59.93696581977111,
,,,C,G,d,b,,,,,,,,,,5,19,119,12,2,0,2,0,0,0,0,0,,,,,,,,,,,,,,001,10,2019_Jun_06_1203,ACPT_experiment_5_30_19,3.1.0,59.93696581977111,
,,,C,G,d,b,L,G,d,R,i,,,,,5,19,119,12,2,0,2,0,,,,,0,0,0,17,,,,,,up,1.2173407365107778,2622.169506449506,None,001,10,2019_Jun_06_1203,ACPT_experiment_5_30_19,3.1.0,59.93696581977111,
,,,C,G,d,b,R,U,y,R,u,,,,,5,19,119,12,2,0,2,0,,,,,0,1,1,31,,,,,,down,0.6838589089875313,2624.671169085357,None,001,10,2019_Jun_06_1203,ACPT_experiment_5_30_19,3.1.0,59.93696581977111,
,,,C,G,d,b,L,D,d,R,c ,,,,,5,19,119,12,2,0,2,0,,,,,0,2,2,13,,,,,,down,0.8339591863350506,2626.639369212621,None,001,10,2019_Jun_06_1203,ACPT_experiment_5_30_19,3.1.0,59.93696581977111,
,,,C,G,d,b,R,G,y,L,y,,,,,5,19,119,12,2,0,2,0,,,,,0,3,3,28,,,,,,down,0.7839331057730305,2628.757654222455,None,001,10,2019_Jun_06_1203,ACPT_experiment_5_30_19,3.1.0,59.93696581977111,
,,,C,G,d,b,R,D,y,R,y,,,,,5,19,119,12,2,0,2,0,,,,,0,4,4,27,,,,,,down,0.5837825991930004,2630.825912548011,None,001,10,2019_Jun_06_1203,ACPT_experiment_5_30_19,3.1.0,59.93696581977111,
,,,C,G,d,b,R,U,d,R,u,,,,,5,19,119,12,2,0,2,0,,,,,0,5,5,9,,,,,,down,0.7505997925627526,2632.693997425752,None,001,10,2019_Jun_06_1203,ACPT_experiment_5_30_19,3.1.0,59.93696581977111,
,,,C,G,d,b,L,U,y,L,u,,,,,5,19,119,12,2,0,2,0,,,,,0,6,6,24,,,,,,down,0.7338849895495514,2634.7456164128844,None,001,10,2019_Jun_06_1203,ACPT_experiment_5_30_19,3.1.0,59.93696581977111,
,,,C,G,d,b,R,G,g,L,c ,,,,,5,19,119,12,2,0,2,0,,,,,0,7,7,6,,,,,,up,0.8339643179269842,2636.7638293389427,None,001,10,2019_Jun_06_1203,ACPT_experiment_5_30_19,3.1.0,59.93696581977111,
,,,C,G,d,b,L,G,y,L,y,,,,,5,19,119,12,2,0,2,0,,,,,0,8,8,34,,,,,,down,0.71721908759082,2638.8821276305453,None,001,10,2019_Jun_06_1203,ACPT_experiment_5_30_19,3.1.0,59.93696581977111,
,,,C,G,d,b,L,G,g,R,c ,,,,,5,19,119,12,2,0,2,0,,,,,0,9,9,19,,,,,,up,0.7172227098917574,2640.8836649951763,None,001,10,2019_Jun_06_1203,ACPT_experiment_5_30_19,3.1.0,59.93696581977111,
,,,C,G,d,b,L,D,y,L,y,,,,,5,19,119,12,2,0,2,0,,,,,0,10,10,32,,,,,,down,0.6505017489671445,2642.8852129248507,None,001,10,2019_Jun_06_1203,ACPT_experiment_5_30_19,3.1.0,59.93696581977111,
,,,C,G,d,b,R,D,d,L,c,,,,,5,19,119,12,2,0,2,0,,,,,0,11,11,0,,,,,,up,1.7847061650345495,2644.8200389880267,None,001,10,2019_Jun_06_1203,ACPT_experiment_5_30_19,3.1.0,59.93696581977111,
,,,C,G,d,b,L,G,g,L,c ,,,,,5,19,119,12,2,0,2,0,,,,,0,12,12,18,,,,,,up,0.750565682567867,2647.8890752025773,None,001,10,2019_Jun_06_1203,ACPT_experiment_5_30_19,3.1.0,59.93696581977111,
,,,C,G,d,b,R,U,y,L,u,,,,,5,19,119,12,2,0,2,0,,,,,0,13,13,30,,,,,,down,0.7505765494688603,2649.923971538379,None,001,10,2019_Jun_06_1203,ACPT_experiment_5_30_19,3.1.0,59.93696581977111,
,,,C,G,d,b,R,U,g,L,u,,,,,5,19,119,12,2,0,2,0,,,,,0,14,14,10,,,,,,up,0.7172157671484456,2651.9588763262154,None,001,10,2019_Jun_06_1203,ACPT_experiment_5_30_19,3.1.0,59.93696581977111,
,,,C,G,d,b,L,D,d,L,c ,,,,,5,19,119,12,2,0,2,0,,,,,0,15,15,12,,,,,,down,0.917372612753752,2653.9604136908465,None,001,10,2019_Jun_06_1203,ACPT_experiment_5_30_19,3.1.0,59.93696581977111,
,,,C,G,d,b,R,D,d,R,c ,,,,,5,19,119,12,2,0,2,0,,,,,0,16,16,1,,,,,,up,0.5670958690079715,2656.1621193717,None,001,10,2019_Jun_06_1203,ACPT_experiment_5_30_19,3.1.0,59.93696581977111,
,,,C,G,d,b,R,U,d,L,u,,,,,5,19,119,12,2,0,2,0,,,,,0,17,17,8,,,,,,up,0.5670997931665624,2658.0135434790745,None,001,10,2019_Jun_06_1203,ACPT_experiment_5_30_19,3.1.0,59.93696581977111,
,,,C,G,d,b,L,U,d,R,u,,,,,5,19,119,12,2,0,2,0,,,,,0,18,18,21,,,,,,up,0.6838567959784996,2659.8482926287397,None,001,10,2019_Jun_06_1203,ACPT_experiment_5_30_19,3.1.0,59.93696581977111,
,,,C,G,d,b,L,D,g,R,i,,,,,5,19,119,12,2,0,2,0,,,,,0,19,19,15,,,,,,up,0.6004596699121976,2661.816472229635,None,001,10,2019_Jun_06_1203,ACPT_experiment_5_30_19,3.1.0,59.93696581977111,
,,,C,G,d,b,L,G,y,R,y,,,,,5,19,119,12,2,0,2,0,,,,,0,20,20,35,,,,,,down,0.8339772978360998,2663.7012580249047,None,001,10,2019_Jun_06_1203,ACPT_experiment_5_30_19,3.1.0,59.93696581977111,
,,,C,G,d,b,R,G,g,R,c ,,,,,5,19,119,12,2,0,2,0,,,,,0,21,21,7,,,,,,up,0.6171536446981918,2665.8195617499578,None,001,10,2019_Jun_06_1203,ACPT_experiment_5_30_19,3.1.0,59.93696581977111,
,,,C,G,d,b,L,U,g,R,u,,,,,5,19,119,12,2,0,2,0,,,,,0,22,22,23,,,,,,up,0.8840027746819032,2667.721027936388,None,001,10,2019_Jun_06_1203,ACPT_experiment_5_30_19,3.1.0,59.93696581977111,
,,,C,G,d,b,R,D,g,R,i,,,,,5,19,119,12,2,0,2,0,,,,,0,23,23,3,,,,,,up,0.6671860642854881,2669.8893511011192,None,001,10,2019_Jun_06_1203,ACPT_experiment_5_30_19,3.1.0,59.93696581977111,
,,,C,G,d,b,R,D,g,L,i,,,,,5,19,119,12,2,0,2,0,,,,,0,24,24,2,,,,,,up,1.0674894923104148,2671.840868422356,None,001,10,2019_Jun_06_1203,ACPT_experiment_5_30_19,3.1.0,59.93696581977111,
,,,C,G,d,b,L,D,g,L,i,,,,,5,19,119,12,2,0,2,0,,,,,0,25,25,14,,,,,,up,0.7505750401769546,2674.192681021441,None,001,10,2019_Jun_06_1203,ACPT_experiment_5_30_19,3.1.0,59.93696581977111,
,,,C,G,d,b,R,U,g,R,u,,,,,5,19,119,12,2,0,2,0,,,,,0,26,26,11,,,,,,up,0.5838061441454556,2676.227557736449,None,001,10,2019_Jun_06_1203,ACPT_experiment_5_30_19,3.1.0,59.93696581977111,
,,,C,G,d,b,L,U,g,L,u,,,,,5,19,119,12,2,0,2,0,,,,,0,27,27,22,,,,,,up,0.6171651153163111,2678.0956640461336,None,001,10,2019_Jun_06_1203,ACPT_experiment_5_30_19,3.1.0,59.93696581977111,
,,,C,G,d,b,R,D,y,L,y,,,,,5,19,119,12,2,0,2,0,,,,,0,28,28,26,,,,,,down,0.8006122894994405,2679.9971586072497,None,001,10,2019_Jun_06_1203,ACPT_experiment_5_30_19,3.1.0,59.93696581977111,
,,,C,G,d,b,L,U,y,R,u,,,,,5,19,119,12,2,0,2,0,,,,,0,29,29,25,,,,,,down,0.9173789517790283,2682.082086457065,None,001,10,2019_Jun_06_1203,ACPT_experiment_5_30_19,3.1.0,59.93696581977111,
,,,C,G,d,b,R,G,y,R,y,,,,,5,19,119,12,2,0,2,0,,,,,0,30,30,29,,,,,,down,0.6505050694095189,2684.283788213759,None,001,10,2019_Jun_06_1203,ACPT_experiment_5_30_19,3.1.0,59.93696581977111,
,,,C,G,d,b,R,G,d,R,i,,,,,5,19,119,12,2,0,2,0,,,,,0,31,31,5,,,,,,up,0.7672545257628371,2686.21861518251,None,001,10,2019_Jun_06_1203,ACPT_experiment_5_30_19,3.1.0,59.93696581977111,
,,,C,G,d,b,L,U,d,L,u,,,,,5,19,119,12,2,0,2,0,,,,,0,32,32,20,,,,,,up,0.8673350615727031,2688.2701997577897,None,001,10,2019_Jun_06_1203,ACPT_experiment_5_30_19,3.1.0,59.93696581977111,
,,,C,G,d,b,R,G,d,L,i,,,,,5,19,119,12,2,0,2,0,,,,,0,33,33,4,,,,,,down,0.7839303890468727,2690.4218612465784,None,001,10,2019_Jun_06_1203,ACPT_experiment_5_30_19,3.1.0,59.93696581977111,
,,,C,G,d,b,L,D,y,R,y,,,,,5,19,119,12,2,0,2,0,,,,,0,34,34,33,,,,,,down,0.9173602365608531,2692.5234818637464,None,001,10,2019_Jun_06_1203,ACPT_experiment_5_30_19,3.1.0,59.93696581977111,
,,,C,G,d,b,L,G,d,L,i,,,,,5,19,119,12,2,0,2,0,,,,,0,35,35,16,,,,,,up,0.6838314398764851,2694.7418724636354,None,001,10,2019_Jun_06_1203,ACPT_experiment_5_30_19,3.1.0,59.93696581977111,
,,,C,G,d,b,L,U,g,R,u,,,,,5,19,119,12,2,0,2,0,,,,,1,0,36,23,,,,,,up,0.6338237726740772,2696.7100363678956,None,001,10,2019_Jun_06_1203,ACPT_experiment_5_30_19,3.1.0,59.93696581977111,
,,,C,G,d,b,L,U,y,L,u,,,,,5,19,119,12,2,0,2,0,,,,,1,1,37,24,,,,,,down,1.0007585700604977,2698.611507384059,None,001,10,2019_Jun_06_1203,ACPT_experiment_5_30_19,3.1.0,59.93696581977111,
,,,C,G,d,b,R,D,d,L,c,,,,,5,19,119,12,2,0,2,0,,,,,1,2,38,0,,,,,,up,0.6671685565006555,2700.896600833371,None,001,10,2019_Jun_06_1203,ACPT_experiment_5_30_19,3.1.0,59.93696581977111,
,,,C,G,d,b,R,G,y,R,y,,,,,5,19,119,12,2,0,2,0,,,,,1,3,39,29,,,,,,down,0.7172085225483897,2702.8647846602826,None,001,10,2019_Jun_06_1203,ACPT_experiment_5_30_19,3.1.0,59.93696581977111,
,,,C,G,d,b,R,G,d,L,i,,,,,5,19,119,12,2,0,2,0,,,,,1,4,40,4,,,,,,up,0.7839249555963761,2704.883011169967,None,001,10,2019_Jun_06_1203,ACPT_experiment_5_30_19,3.1.0,59.93696581977111,
,,,C,G,d,b,R,D,g,R,i,,,,,5,19,119,12,2,0,2,0,,,,,1,5,41,3,,,,,,up,0.7172133522817603,2706.951265873222,None,001,10,2019_Jun_06_1203,ACPT_experiment_5_30_19,3.1.0,59.93696581977111,
,,,C,G,d,b,R,G,y,L,y,,,,,5,19,119,12,2,0,2,0,,,,,1,6,42,28,,,,,,down,0.6338222633821715,2708.952811086171,None,001,10,2019_Jun_06_1203,ACPT_experiment_5_30_19,3.1.0,59.93696581977111,
,,,C,G,d,b,R,G,g,L,c ,,,,,5,19,119,12,2,0,2,0,,,,,1,7,43,6,,,,,,up,0.633809283473056,2710.870960682345,None,001,10,2019_Jun_06_1203,ACPT_experiment_5_30_19,3.1.0,59.93696581977111,
,,,C,G,d,b,R,U,g,L,u,,,,,5,19,119,12,2,0,2,0,,,,,1,8,44,10,,,,,,up,0.6171620967324998,2712.7890749610906,None,001,10,2019_Jun_06_1203,ACPT_experiment_5_30_19,3.1.0,59.93696581977111,
,,,C,G,d,b,L,G,y,L,y,,,,,5,19,119,12,2,0,2,0,,,,,1,9,45,34,,,,,,down,0.9505329611220077,2714.7240899875997,None,001,10,2019_Jun_06_1203,ACPT_experiment_5_30_19,3.1.0,59.93696581977111,
,,,C,G,d,b,L,G,y,R,y,,,,,5,19,119,12,2,0,2,0,,,,,1,10,46,35,,,,,,down,0.7507317046665776,2716.958829538169,None,001,10,2019_Jun_06_1203,ACPT_experiment_5_30_19,3.1.0,59.93696581977111,
,,,C,G,d,b,R,U,y,L,u,,,,,5,19,119,12,2,0,2,0,,,,,1,11,47,30,,,,,,down,0.7005583172240222,2719.0105396865265,None,001,10,2019_Jun_06_1203,ACPT_experiment_5_30_19,3.1.0,59.93696581977111,
,,,C,G,d,b,R,U,d,L,u,,,,,5,19,119,12,2,0,2,0,,,,,1,12,48,8,,,,,,up,0.7505759457526437,2720.995426845834,None,001,10,2019_Jun_06_1203,ACPT_experiment_5_30_19,3.1.0,59.93696581977111,
,,,C,G,d,b,R,G,d,R,i,,,,,5,19,119,12,2,0,2,0,,,,,1,13,49,5,,,,,,up,0.767299804517279,2723.030327709511,None,001,10,2019_Jun_06_1203,ACPT_experiment_5_30_19,3.1.0,59.93696581977111,
,,,C,G,d,b,L,D,y,L,y,,,,,5,19,119,12,2,0,2,0,,,,,1,14,50,32,,,,,,down,0.6671751973854043,2725.08190685134,None,001,10,2019_Jun_06_1203,ACPT_experiment_5_30_19,3.1.0,59.93696581977111,
,,,C,G,d,b,R,U,y,R,u,,,,,5,19,119,12,2,0,2,0,,,,,1,15,51,31,,,,,,down,0.8006131950742201,2727.0334142112506,None,001,10,2019_Jun_06_1203,ACPT_experiment_5_30_19,3.1.0,59.93696581977111,
,,,C,G,d,b,L,G,d,R,i,,,,,5,19,119,12,2,0,2,0,,,,,1,16,52,17,,,,,,up,0.6669306921130556,2729.1352805411234,None,001,10,2019_Jun_06_1203,ACPT_experiment_5_30_19,3.1.0,59.93696581977111,
,,,C,G,d,b,L,D,d,L,c ,,,,,5,19,119,12,2,0,2,0,,,,,1,17,53,12,,,,,,up,0.6004687256627221,2731.08653645302,None,001,10,2019_Jun_06_1203,ACPT_experiment_5_30_19,3.1.0,59.93696581977111,
,,,C,G,d,b,L,G,d,L,i,,,,,5,19,119,12,2,0,2,0,,,,,1,18,54,16,,,,,,down,1.4511155477575812,2732.9713267761654,None,001,10,2019_Jun_06_1203,ACPT_experiment_5_30_19,3.1.0,59.93696581977111,
,,,C,G,d,b,R,D,d,R,c ,,,,,5,19,119,12,2,0,2,0,,,,,1,19,55,1,,,,,,up,0.6338497324932177,2735.7067660344146,None,001,10,2019_Jun_06_1203,ACPT_experiment_5_30_19,3.1.0,59.93696581977111,
,,,C,G,d,b,L,U,d,L,u,,,,,5,19,119,12,2,0,2,0,,,,,1,20,56,20,,,,,,up,0.8673450228989168,2737.6249068766965,None,001,10,2019_Jun_06_1203,ACPT_experiment_5_30_19,3.1.0,59.93696581977111,
,,,C,G,d,b,L,G,g,L,c ,,,,,5,19,119,12,2,0,2,0,,,,,1,21,57,18,,,,,,up,0.6171403629305132,2739.776568365485,None,001,10,2019_Jun_06_1203,ACPT_experiment_5_30_19,3.1.0,59.93696581977111,
,,,C,G,d,b,L,D,g,L,i,,,,,5,19,119,12,2,0,2,0,,,,,1,22,58,14,,,,,,up,0.6338455064760637,2741.6780119125388,None,001,10,2019_Jun_06_1203,ACPT_experiment_5_30_19,3.1.0,59.93696581977111,
,,,C,G,d,b,R,D,y,R,y,,,,,5,19,119,12,2,0,2,0,,,,,1,23,59,27,,,,,,down,0.6171394573548241,2743.596180223931,None,001,10,2019_Jun_06_1203,ACPT_experiment_5_30_19,3.1.0,59.93696581977111,
,,,C,G,d,b,R,U,g,R,u,,,,,5,19,119,12,2,0,2,0,,,,,1,24,60,11,,,,,,up,0.5837774676010667,2745.4976488252278,None,001,10,2019_Jun_06_1203,ACPT_experiment_5_30_19,3.1.0,59.93696581977111,
,,,C,G,d,b,R,U,d,R,u,,,,,5,19,119,12,2,0,2,0,,,,,1,25,61,9,,,,,,up,0.6001919215450471,2747.3660150349615,None,001,10,2019_Jun_06_1203,ACPT_experiment_5_30_19,3.1.0,59.93696581977111,
,,,C,G,d,b,L,D,d,R,c ,,,,,5,19,119,12,2,0,2,0,,,,,1,26,62,13,,,,,,up,0.4670201629314761,2749.2505385153163,None,001,10,2019_Jun_06_1203,ACPT_experiment_5_30_19,3.1.0,59.93696581977111,
,,,C,G,d,b,L,U,y,R,u,,,,,5,19,119,12,2,0,2,0,,,,,1,27,63,25,,,,,,down,0.6838537773955977,2751.001892953781,None,001,10,2019_Jun_06_1203,ACPT_experiment_5_30_19,3.1.0,59.93696581977111,
,,,C,G,d,b,L,D,y,R,y,,,,,5,19,119,12,2,0,2,0,,,,,1,28,64,33,,,,,,down,0.6838761149138008,2752.986754455128,None,001,10,2019_Jun_06_1203,ACPT_experiment_5_30_19,3.1.0,59.93696581977111,
,,,C,G,d,b,L,U,g,L,u,,,,,5,19,119,12,2,0,2,0,,,,,1,29,65,22,,,,,,up,0.7338994787505726,2754.97161686205,None,001,10,2019_Jun_06_1203,ACPT_experiment_5_30_19,3.1.0,59.93696581977111,
,,,C,G,d,b,R,D,g,L,i,,,,,5,19,119,12,2,0,2,0,,,,,1,30,66,2,,,,,,up,0.5170504695106501,2756.989837334567,None,001,10,2019_Jun_06_1203,ACPT_experiment_5_30_19,3.1.0,59.93696581977111,
,,,C,G,d,b,R,D,y,L,y,,,,,5,19,119,12,2,0,2,0,,,,,1,31,67,26,,,,,,down,0.8673317411303287,2758.807901867055,None,001,10,2019_Jun_06_1203,ACPT_experiment_5_30_19,3.1.0,59.93696581977111,
,,,C,G,d,b,L,D,g,R,i,,,,,5,19,119,12,2,0,2,0,,,,,1,32,68,15,,,,,,up,0.6671712732268134,2760.976247067447,None,001,10,2019_Jun_06_1203,ACPT_experiment_5_30_19,3.1.0,59.93696581977111,
,,,C,G,d,b,L,G,g,R,c ,,,,,5,19,119,12,2,0,2,0,,,,,1,33,69,19,,,,,,up,0.6004584624779454,2762.927748692048,None,001,10,2019_Jun_06_1203,ACPT_experiment_5_30_19,3.1.0,59.93696581977111,
,,,C,G,d,b,L,U,d,R,u,,,,,5,19,119,12,2,0,2,0,,,,,1,34,70,21,,,,,,up,0.7505853033617313,2764.8125359966098,None,001,10,2019_Jun_06_1203,ACPT_experiment_5_30_19,3.1.0,59.93696581977111,
,,,C,G,d,b,R,G,g,R,c ,,,,,5,19,119,12,2,0,2,0,,,,,1,35,71,7,,,,,,up,0.5471028841966472,2766.8674337692573,None,001,10,2019_Jun_06_1203,ACPT_experiment_5_30_19,3.1.0,59.93696581977111,
,,,C,G,d,b,,,,,,,,,,5,19,119,12,3,0,3,0,0,0,0,0,,,,,,,,,,,,,,001,10,2019_Jun_06_1203,ACPT_experiment_5_30_19,3.1.0,59.93696581977111,
,,,C,G,d,b,R,U,g,L,u,,,,,5,19,119,12,3,0,3,0,,,,,0,0,0,10,,,,,,up,0.7002733629315117,2784.194411575423,None,001,10,2019_Jun_06_1203,ACPT_experiment_5_30_19,3.1.0,59.93696581977111,
,,,C,G,d,b,R,D,d,R,c ,,,,,5,19,119,12,3,0,3,0,,,,,0,1,1,1,,,,,,up,0.6671972330450444,2786.1789829908857,None,001,10,2019_Jun_06_1203,ACPT_experiment_5_30_19,3.1.0,59.93696581977111,
,,,C,G,d,b,L,G,y,L,y,,,,,5,19,119,12,3,0,3,0,,,,,0,2,2,34,,,,,,down,0.7839318983387784,2788.147189457174,None,001,10,2019_Jun_06_1203,ACPT_experiment_5_30_19,3.1.0,59.93696581977111,
,,,C,G,d,b,L,G,y,R,y,,,,,5,19,119,12,3,0,3,0,,,,,0,3,3,35,,,,,,down,0.5837512059242727,2790.232155341143,None,001,10,2019_Jun_06_1203,ACPT_experiment_5_30_19,3.1.0,59.93696581977111,
,,,C,G,d,b,R,G,g,R,c ,,,,,5,19,119,12,3,0,3,0,,,,,0,4,4,7,,,,,,up,0.9006901085840582,2792.1002393133085,None,001,10,2019_Jun_06_1203,ACPT_experiment_5_30_19,3.1.0,59.93696581977111,
,,,C,G,d,b,L,U,g,R,u,,,,,5,19,119,12,3,0,3,0,,,,,0,5,5,23,,,,,,up,0.6338062648892446,2794.268588437859,None,001,10,2019_Jun_06_1203,ACPT_experiment_5_30_19,3.1.0,59.93696581977111,
,,,C,G,d,b,L,G,d,R,i,,,,,5,19,119,12,3,0,3,0,,,,,0,6,6,17,,,,,,down,0.683860116420874,2796.1867223373984,None,001,10,2019_Jun_06_1203,ACPT_experiment_5_30_19,3.1.0,59.93696581977111,
,,,C,G,d,b,R,G,g,L,c ,,,,,5,19,119,12,3,0,3,0,,,,,0,7,7,6,,,,,,up,0.6171370424881388,2798.1549070698857,None,001,10,2019_Jun_06_1203,ACPT_experiment_5_30_19,3.1.0,59.93696581977111,
,,,C,G,d,b,R,D,y,R,y,,,,,5,19,119,12,3,0,3,0,,,,,0,8,8,27,,,,,,down,0.5837901456525287,2800.056360276406,None,001,10,2019_Jun_06_1203,ACPT_experiment_5_30_19,3.1.0,59.93696581977111,
,,,C,G,d,b,R,U,d,R,u,,,,,5,19,119,12,3,0,3,0,,,,,0,9,9,9,,,,,,down,0.8006134969327832,2801.924478660426,None,001,10,2019_Jun_06_1203,ACPT_experiment_5_30_19,3.1.0,59.93696581977111,
,,,C,G,d,b,R,D,y,L,y,,,,,5,19,119,12,3,0,3,0,,,,,0,10,10,26,,,,,,down,0.7338843858324253,2804.009422810592,None,001,10,2019_Jun_06_1203,ACPT_experiment_5_30_19,3.1.0,59.93696581977111,
,,,C,G,d,b,L,D,y,R,y,,,,,5,19,119,12,3,0,3,0,,,,,0,11,11,33,,,,,,down,0.5838073515797078,2806.0276390570916,None,001,10,2019_Jun_06_1203,ACPT_experiment_5_30_19,3.1.0,59.93696581977111,
,,,C,G,d,b,L,G,g,L,c ,,,,,5,19,119,12,3,0,3,0,,,,,0,12,12,18,,,,,,up,0.7005393001472839,2807.8957465742096,None,001,10,2019_Jun_06_1203,ACPT_experiment_5_30_19,3.1.0,59.93696581977111,
,,,C,G,d,b,L,G,g,R,c ,,,,,5,19,119,12,3,0,3,0,,,,,0,13,13,19,,,,,,up,0.6171476075305691,2809.8806053588314,None,001,10,2019_Jun_06_1203,ACPT_experiment_5_30_19,3.1.0,59.93696581977111,
,,,C,G,d,b,L,D,d,L,c ,,,,,5,19,119,12,3,0,3,0,,,,,0,14,14,12,,,,,,up,0.6338126039145209,2811.782070639687,None,001,10,2019_Jun_06_1203,ACPT_experiment_5_30_19,3.1.0,59.93696581977111,
,,,C,G,d,b,L,U,d,R,u,,,,,5,19,119,12,3,0,3,0,,,,,0,15,15,21,,,,,,down,0.7170268038144059,2813.700377805925,None,001,10,2019_Jun_06_1203,ACPT_experiment_5_30_19,3.1.0,59.93696581977111,
,,,C,G,d,b,R,U,d,L,u,,,,,5,19,119,12,3,0,3,0,,,,,0,16,16,8,,,,,,up,0.6672008553459818,2815.7017361685485,None,001,10,2019_Jun_06_1203,ACPT_experiment_5_30_19,3.1.0,59.93696581977111,
,,,C,G,d,b,L,D,g,R,i,,,,,5,19,119,12,3,0,3,0,,,,,0,17,17,15,,,,,,up,0.6504948062247422,2817.6532697901366,None,001,10,2019_Jun_06_1203,ACPT_experiment_5_30_19,3.1.0,59.93696581977111,
,,,C,G,d,b,R,G,d,R,i,,,,,5,19,119,12,3,0,3,0,,,,,0,18,18,5,,,,,,up,0.6338116983397413,2819.5880982681783,None,001,10,2019_Jun_06_1203,ACPT_experiment_5_30_19,3.1.0,59.93696581977111,
,,,C,G,d,b,R,U,y,L,u,,,,,5,19,119,12,3,0,3,0,,,,,0,19,19,30,,,,,,down,0.6171403629305132,2821.506234884443,None,001,10,2019_Jun_06_1203,ACPT_experiment_5_30_19,3.1.0,59.93696581977111,
,,,C,G,d,b,L,D,d,R,c ,,,,,5,19,119,12,3,0,3,0,,,,,0,20,20,13,,,,,,up,0.6671622174753793,2823.4077270306925,None,001,10,2019_Jun_06_1203,ACPT_experiment_5_30_19,3.1.0,59.93696581977111,
,,,C,G,d,b,L,D,y,L,y,,,,,5,19,119,12,3,0,3,0,,,,,0,21,21,32,,,,,,down,0.6505177474609809,2825.3425069095383,None,001,10,2019_Jun_06_1203,ACPT_experiment_5_30_19,3.1.0,59.93696581977111,
,,,C,G,d,b,L,U,y,L,u,,,,,5,19,119,12,3,0,3,0,,,,,0,22,22,24,,,,,,down,0.7505620602678391,2827.294036606968,None,001,10,2019_Jun_06_1203,ACPT_experiment_5_30_19,3.1.0,59.93696581977111,
,,,C,G,d,b,R,D,g,R,i,,,,,5,19,119,12,3,0,3,0,,,,,0,23,23,3,,,,,,up,0.6338228670992976,2829.345613635788,None,001,10,2019_Jun_06_1203,ACPT_experiment_5_30_19,3.1.0,59.93696581977111,
,,,C,G,d,b,L,U,d,L,u,,,,,5,19,119,12,3,0,3,0,,,,,0,24,24,20,,,,,,up,0.6171608892991571,2831.2637375740005,None,001,10,2019_Jun_06_1203,ACPT_experiment_5_30_19,3.1.0,59.93696581977111,
,,,C,G,d,b,L,G,d,L,i,,,,,5,19,119,12,3,0,3,0,,,,,0,25,25,16,,,,,,up,0.5337408219966164,2833.1652263998085,None,001,10,2019_Jun_06_1203,ACPT_experiment_5_30_19,3.1.0,59.93696581977111,
,,,C,G,d,b,R,D,d,L,c,,,,,5,19,119,12,3,0,3,0,,,,,0,26,26,0,,,,,,up,0.5804612516494672,2835.0032890487,None,001,10,2019_Jun_06_1203,ACPT_experiment_5_30_19,3.1.0,59.93696581977111,
,,,C,G,d,b,L,U,g,L,u,,,,,5,19,119,12,3,0,3,0,,,,,0,27,27,22,,,,,,up,0.5337353885461198,2836.868080651725,None,001,10,2019_Jun_06_1203,ACPT_experiment_5_30_19,3.1.0,59.93696581977111,
,,,C,G,d,b,L,D,g,L,i,,,,,5,19,119,12,3,0,3,0,,,,,0,28,28,14,,,,,,up,0.5337444442966444,2838.6861494102295,None,001,10,2019_Jun_06_1203,ACPT_experiment_5_30_19,3.1.0,59.93696581977111,
,,,C,G,d,b,R,U,g,R,u,,,,,5,19,119,12,3,0,3,0,,,,,0,29,29,11,,,,,,up,0.6672286263155911,2840.5042169613007,None,001,10,2019_Jun_06_1203,ACPT_experiment_5_30_19,3.1.0,59.93696581977111,
,,,C,G,d,b,R,G,y,R,y,,,,,5,19,119,12,3,0,3,0,,,,,0,30,30,29,,,,,,down,0.7339166846777516,2842.4557234156364,None,001,10,2019_Jun_06_1203,ACPT_experiment_5_30_19,3.1.0,59.93696581977111,
,,,C,G,d,b,R,D,g,L,i,,,,,5,19,119,12,3,0,3,0,,,,,0,31,31,2,,,,,,up,0.5170818627802873,2844.4739481141705,None,001,10,2019_Jun_06_1203,ACPT_experiment_5_30_19,3.1.0,59.93696581977111,
,,,C,G,d,b,R,G,y,L,y,,,,,5,19,119,12,3,0,3,0,,,,,0,32,32,28,,,,,,down,0.6004617829203198,2846.275327123906,None,001,10,2019_Jun_06_1203,ACPT_experiment_5_30_19,3.1.0,59.93696581977111,
,,,C,G,d,b,L,U,y,R,u,,,,,5,19,119,12,3,0,3,0,,,,,0,33,33,25,,,,,,down,0.7670169632328907,2848.1770335895917,None,001,10,2019_Jun_06_1203,ACPT_experiment_5_30_19,3.1.0,59.93696581977111,
,,,C,G,d,b,R,G,d,L,i,,,,,5,19,119,12,3,0,3,0,,,,,0,34,34,4,,,,,,up,0.583775052735291,2850.2283790930487,None,001,10,2019_Jun_06_1203,ACPT_experiment_5_30_19,3.1.0,59.93696581977111,
,,,C,G,d,b,R,U,y,R,u,,,,,5,19,119,12,3,0,3,0,,,,,0,35,35,31,,,,,,down,0.6336351111986005,2852.1133188360827,None,001,10,2019_Jun_06_1203,ACPT_experiment_5_30_19,3.1.0,59.93696581977111,
,,,C,G,d,b,R,G,d,L,i,,,,,5,19,119,12,3,0,3,0,,,,,1,0,36,4,,,,,,down,0.8673136296292796,2854.0646831151307,None,001,10,2019_Jun_06_1203,ACPT_experiment_5_30_19,3.1.0,59.93696581977111,
,,,C,G,d,b,L,D,g,R,i,,,,,5,19,119,12,3,0,3,0,,,,,1,1,37,15,,,,,,up,0.6671791215439953,2856.216324681268,None,001,10,2019_Jun_06_1203,ACPT_experiment_5_30_19,3.1.0,59.93696581977111,
,,,C,G,d,b,L,G,d,R,i,,,,,5,19,119,12,3,0,3,0,,,,,1,2,38,17,,,,,,up,0.5504314763411458,2858.1678284188783,None,001,10,2019_Jun_06_1203,ACPT_experiment_5_30_19,3.1.0,59.93696581977111,
,,,C,G,d,b,R,D,g,L,i,,,,,5,19,119,12,3,0,3,0,,,,,1,3,39,2,,,,,,up,0.6171448908062303,2860.0025784741183,None,001,10,2019_Jun_06_1203,ACPT_experiment_5_30_19,3.1.0,59.93696581977111,
,,,C,G,d,b,R,U,g,R,u,,,,,5,19,119,12,3,0,3,0,,,,,1,4,40,11,,,,,,up,0.4802832155883152,2861.9074635083434,None,001,10,2019_Jun_06_1203,ACPT_experiment_5_30_19,3.1.0,59.93696581977111,
,,,C,G,d,b,L,U,y,L,u,,,,,5,19,119,12,3,0,3,0,,,,,1,5,41,24,,,,,,down,0.6338201503731398,2863.688756560892,None,001,10,2019_Jun_06_1203,ACPT_experiment_5_30_19,3.1.0,59.93696581977111,
,,,C,G,d,b,R,G,g,R,c ,,,,,5,19,119,12,3,0,3,0,,,,,1,6,42,7,,,,,,up,0.9340460611711023,2865.6235823222087,None,001,10,2019_Jun_06_1203,ACPT_experiment_5_30_19,3.1.0,59.93696581977111,
,,,C,G,d,b,R,D,y,R,y,,,,,5,19,119,12,3,0,3,0,,,,,1,7,43,27,,,,,,down,0.700535375988693,2867.8586358054736,None,001,10,2019_Jun_06_1203,ACPT_experiment_5_30_19,3.1.0,59.93696581977111,
,,,C,G,d,b,R,U,y,L,u,,,,,5,19,119,12,3,0,3,0,,,,,1,8,44,30,,,,,,down,0.6505044656923928,2869.860173471963,None,001,10,2019_Jun_06_1203,ACPT_experiment_5_30_19,3.1.0,59.93696581977111,
,,,C,G,d,b,R,G,y,L,y,,,,,5,19,119,12,3,0,3,0,,,,,1,9,45,28,,,,,,down,0.5003875861348206,2871.7783218607037,None,001,10,2019_Jun_06_1203,ACPT_experiment_5_30_19,3.1.0,59.93696581977111,
,,,C,G,d,b,L,G,d,L,i,,,,,5,19,119,12,3,0,3,0,,,,,1,10,46,16,,,,,,up,0.6837454102433185,2873.563032553613,None,001,10,2019_Jun_06_1203,ACPT_experiment_5_30_19,3.1.0,59.93696581977111,
,,,C,G,d,b,R,U,g,L,u,,,,,5,19,119,12,3,0,3,0,,,,,1,11,47,10,,,,,,up,0.48370025223266566,2875.531219097251,None,001,10,2019_Jun_06_1203,ACPT_experiment_5_30_19,3.1.0,59.93696581977111,
,,,C,G,d,b,R,U,y,R,u,,,,,5,19,119,12,3,0,3,0,,,,,1,12,48,31,,,,,,up,0.6839277326935189,2877.299246984134,None,001,10,2019_Jun_06_1203,ACPT_experiment_5_30_19,3.1.0,59.93696581977111,
,,,C,G,d,b,L,G,g,L,c ,,,,,5,19,119,12,3,0,3,0,,,,,1,13,49,18,,,,,,up,0.5670961708665345,2879.26743171662,None,001,10,2019_Jun_06_1203,ACPT_experiment_5_30_19,3.1.0,59.93696581977111,
,,,C,G,d,b,R,G,y,R,y,,,,,5,19,119,12,3,0,3,0,,,,,1,14,50,29,,,,,,down,0.7003186416859535,2881.1524022492076,None,001,10,2019_Jun_06_1203,ACPT_experiment_5_30_19,3.1.0,59.93696581977111,
,,,C,G,d,b,L,D,d,R,c ,,,,,5,19,119,12,3,0,3,0,,,,,1,15,51,13,,,,,,up,0.5670952652917549,2883.1537615174066,None,001,10,2019_Jun_06_1203,ACPT_experiment_5_30_19,3.1.0,59.93696581977111,
,,,C,G,d,b,L,U,g,R,u,,,,,5,19,119,12,3,0,3,0,,,,,1,16,52,23,,,,,,up,0.48370115780744527,2885.005186530356,None,001,10,2019_Jun_06_1203,ACPT_experiment_5_30_19,3.1.0,59.93696581977111,
,,,C,G,d,b,R,D,d,L,c,,,,,5,19,119,12,3,0,3,0,,,,,1,17,53,0,,,,,,up,0.5670988875908733,2886.7732174358225,None,001,10,2019_Jun_06_1203,ACPT_experiment_5_30_19,3.1.0,59.93696581977111,
,,,C,G,d,b,L,D,d,L,c ,,,,,5,19,119,12,3,0,3,0,,,,,1,18,54,12,,,,,,down,0.8673121203382834,2888.6413361217,None,001,10,2019_Jun_06_1203,ACPT_experiment_5_30_19,3.1.0,59.93696581977111,
,,,C,G,d,b,R,G,d,R,i,,,,,5,19,119,12,3,0,3,0,,,,,1,19,55,5,,,,,,up,0.65049269321662,2890.7929810082796,None,001,10,2019_Jun_06_1203,ACPT_experiment_5_30_19,3.1.0,59.93696581977111,
,,,C,G,d,b,R,D,g,R,i,,,,,5,19,119,12,3,0,3,0,,,,,1,20,56,3,,,,,,up,0.5337417275723055,2892.7278007324294,None,001,10,2019_Jun_06_1203,ACPT_experiment_5_30_19,3.1.0,59.93696581977111,
,,,C,G,d,b,R,G,g,L,c ,,,,,5,19,119,12,3,0,3,0,,,,,1,21,57,6,,,,,,up,0.5504278540402083,2894.5458713020844,None,001,10,2019_Jun_06_1203,ACPT_experiment_5_30_19,3.1.0,59.93696581977111,
,,,C,G,d,b,L,U,g,L,u,,,,,5,19,119,12,3,0,3,0,,,,,1,22,58,22,,,,,,up,0.5671094526342131,2896.380618036883,None,001,10,2019_Jun_06_1203,ACPT_experiment_5_30_19,3.1.0,59.93696581977111,
,,,C,G,d,b,L,G,y,R,y,,,,,5,19,119,12,3,0,3,0,,,,,1,23,59,35,,,,,,down,0.8004067239553478,2898.248900028134,None,001,10,2019_Jun_06_1203,ACPT_experiment_5_30_19,3.1.0,59.93696581977111,
,,,C,G,d,b,L,D,g,L,i,,,,,5,19,119,12,3,0,3,0,,,,,1,24,60,14,,,,,,up,0.5838055404283296,2900.350322324358,None,001,10,2019_Jun_06_1203,ACPT_experiment_5_30_19,3.1.0,59.93696581977111,
,,,C,G,d,b,R,U,d,L,u,,,,,5,19,119,12,3,0,3,0,,,,,1,25,61,8,,,,,,up,0.6338029444468702,2902.2184678756303,None,001,10,2019_Jun_06_1203,ACPT_experiment_5_30_19,3.1.0,59.93696581977111,
,,,C,G,d,b,L,U,y,R,u,,,,,5,19,119,12,3,0,3,0,,,,,1,26,62,25,,,,,,down,0.7338698966314041,2904.1532987685387,None,001,10,2019_Jun_06_1203,ACPT_experiment_5_30_19,3.1.0,59.93696581977111,
,,,C,G,d,b,L,U,d,R,u,,,,,5,19,119,12,3,0,3,0,,,,,1,27,63,21,,,,,,up,0.7005290369634167,2906.188184539298,None,001,10,2019_Jun_06_1203,ACPT_experiment_5_30_19,3.1.0,59.93696581977111,
,,,C,G,d,b,L,D,y,R,y,,,,,5,19,119,12,3,0,3,0,,,,,1,28,64,33,,,,,,down,0.8506398793524568,2908.1897303559635,None,001,10,2019_Jun_06_1203,ACPT_experiment_5_30_19,3.1.0,59.93696581977111,
,,,C,G,d,b,L,G,g,R,c ,,,,,5,19,119,12,3,0,3,0,,,,,1,29,65,19,,,,,,up,0.6338171317902379,2910.341382487144,None,001,10,2019_Jun_06_1203,ACPT_experiment_5_30_19,3.1.0,59.93696581977111,
,,,C,G,d,b,L,G,y,L,y,,,,,5,19,119,12,3,0,3,0,,,,,1,30,66,34,,,,,,down,0.7505883219455427,2912.2595100476574,None,001,10,2019_Jun_06_1203,ACPT_experiment_5_30_19,3.1.0,59.93696581977111,
,,,C,G,d,b,R,D,y,L,y,,,,,5,19,119,12,3,0,3,0,,,,,1,31,67,26,,,,,,down,0.6838423067774784,2914.3111211864725,None,001,10,2019_Jun_06_1203,ACPT_experiment_5_30_19,3.1.0,59.93696581977111,
,,,C,G,d,b,R,D,d,R,c ,,,,,5,19,119,12,3,0,3,0,,,,,1,32,68,1,,,,,,up,0.6338491287760917,2916.2792875056,None,001,10,2019_Jun_06_1203,ACPT_experiment_5_30_19,3.1.0,59.93696581977111,
,,,C,G,d,b,L,D,y,L,y,,,,,5,19,119,12,3,0,3,0,,,,,1,33,69,32,,,,,,down,0.750569304867895,2918.197441629649,None,001,10,2019_Jun_06_1203,ACPT_experiment_5_30_19,3.1.0,59.93696581977111,
,,,C,G,d,b,L,U,d,L,u,,,,,5,19,119,12,3,0,3,0,,,,,1,34,70,20,,,,,,up,0.7169833362113422,2920.2492667860415,None,001,10,2019_Jun_06_1203,ACPT_experiment_5_30_19,3.1.0,59.93696581977111,
,,,C,G,d,b,R,U,d,R,u,,,,,5,19,119,12,3,0,3,0,,,,,1,35,71,9,,,,,,up,0.8673362690069553,2922.2505635695597,None,001,10,2019_Jun_06_1203,ACPT_experiment_5_30_19,3.1.0,59.93696581977111,
,,,C,G,d,b,,,,,,,,,,5,19,119,12,4,0,4,0,0,0,0,0,,,,,,,,,,,,,,001,10,2019_Jun_06_1203,ACPT_experiment_5_30_19,3.1.0,59.93696581977111,
,,,C,G,d,b,L,U,y,L,u,,,,,5,19,119,12,4,0,4,0,,,,,0,0,0,24,,,,,,down,0.7669644398774835,2944.2344684817617,None,001,10,2019_Jun_06_1203,ACPT_experiment_5_30_19,3.1.0,59.93696581977111,
,,,C,G,d,b,L,D,y,L,y,,,,,5,19,119,12,4,0,4,0,,,,,0,1,1,32,,,,,,down,0.8173267906540786,2946.285725540719,None,001,10,2019_Jun_06_1203,ACPT_experiment_5_30_19,3.1.0,59.93696581977111,
,,,C,G,d,b,L,D,y,R,y,,,,,5,19,119,12,4,0,4,0,,,,,0,2,2,33,,,,,,down,0.7839237481630335,2948.3873884180575,None,001,10,2019_Jun_06_1203,ACPT_experiment_5_30_19,3.1.0,59.93696581977111,
,,,C,G,d,b,R,D,g,L,i,,,,,5,19,119,12,4,0,4,0,,,,,0,3,3,2,,,,,,up,0.733898875034356,2950.455635272995,None,001,10,2019_Jun_06_1203,ACPT_experiment_5_30_19,3.1.0,59.93696581977111,
,,,C,G,d,b,R,G,g,R,c ,,,,,5,19,119,12,4,0,4,0,,,,,0,4,4,7,,,,,,up,0.6171397592133872,2952.4738590659545,None,001,10,2019_Jun_06_1203,ACPT_experiment_5_30_19,3.1.0,59.93696581977111,
,,,C,G,d,b,L,D,d,L,c ,,,,,5,19,119,12,4,0,4,0,,,,,0,5,5,12,,,,,,up,0.550450795276447,2954.3752986888485,None,001,10,2019_Jun_06_1203,ACPT_experiment_5_30_19,3.1.0,59.93696581977111,
,,,C,G,d,b,L,D,d,R,c ,,,,,5,19,119,12,4,0,4,0,,,,,0,6,6,13,,,,,,up,0.5337583297823585,2956.1933758993873,None,001,10,2019_Jun_06_1203,ACPT_experiment_5_30_19,3.1.0,59.93696581977111,
,,,C,G,d,b,L,G,d,R,i,,,,,5,19,119,12,4,0,4,0,,,,,0,7,7,17,,,,,,up,0.6004681219455961,2958.0114621656776,None,001,10,2019_Jun_06_1203,ACPT_experiment_5_30_19,3.1.0,59.93696581977111,
,,,C,G,d,b,L,U,d,L,u,,,,,5,19,119,12,4,0,4,0,,,,,0,8,8,20,,,,,,up,0.5170586196863951,2959.8962497720977,None,001,10,2019_Jun_06_1203,ACPT_experiment_5_30_19,3.1.0,59.93696581977111,
,,,C,G,d,b,L,U,g,L,u,,,,,5,19,119,12,4,0,4,0,,,,,0,9,9,22,,,,,,up,0.5671103582089927,2961.6976402524506,None,001,10,2019_Jun_06_1203,ACPT_experiment_5_30_19,3.1.0,59.93696581977111,
,,,C,G,d,b,L,G,g,L,c ,,,,,5,19,119,12,4,0,4,0,,,,,0,10,10,18,,,,,,up,0.516815321847389,2963.5659898599743,None,001,10,2019_Jun_06_1203,ACPT_experiment_5_30_19,3.1.0,59.93696581977111,
,,,C,G,d,b,R,U,g,R,u,,,,,5,19,119,12,4,0,4,0,,,,,0,11,11,11,,,,,,up,0.6171515316900695,2965.36711832727,None,001,10,2019_Jun_06_1203,ACPT_experiment_5_30_19,3.1.0,59.93696581977111,
,,,C,G,d,b,R,D,d,L,c,,,,,5,19,119,12,4,0,4,0,,,,,0,12,12,0,,,,,,up,0.5504172889977781,2967.268597795469,None,001,10,2019_Jun_06_1203,ACPT_experiment_5_30_19,3.1.0,59.93696581977111,
,,,C,G,d,b,L,G,y,R,y,,,,,5,19,119,12,4,0,4,0,,,,,0,13,13,35,,,,,,down,0.8840368846767888,2969.103318872306,None,001,10,2019_Jun_06_1203,ACPT_experiment_5_30_19,3.1.0,59.93696581977111,
,,,C,G,d,b,R,D,y,L,y,,,,,5,19,119,12,4,0,4,0,,,,,0,14,14,26,,,,,,down,0.7338858951252405,2971.271692749242,None,001,10,2019_Jun_06_1203,ACPT_experiment_5_30_19,3.1.0,59.93696581977111,
,,,C,G,d,b,R,U,d,L,u,,,,,5,19,119,12,4,0,4,0,,,,,0,15,15,8,,,,,,up,0.7005356778463465,2973.2899071845914,None,001,10,2019_Jun_06_1203,ACPT_experiment_5_30_19,3.1.0,59.93696581977111,
,,,C,G,d,b,R,U,y,L,u,,,,,5,19,119,12,4,0,4,0,,,,,0,16,16,30,,,,,,down,0.8006150062237793,2975.274768987797,None,001,10,2019_Jun_06_1203,ACPT_experiment_5_30_19,3.1.0,59.93696581977111,
,,,C,G,d,b,R,G,y,R,y,,,,,5,19,119,12,4,0,4,0,,,,,0,17,17,29,,,,,,down,0.8339818257118168,2977.359718873272,None,001,10,2019_Jun_06_1203,ACPT_experiment_5_30_19,3.1.0,59.93696581977111,
,,,C,G,d,b,R,D,y,R,y,,,,,5,19,119,12,4,0,4,0,,,,,0,18,18,27,,,,,,down,0.7672521108952424,2979.4780108258483,None,001,10,2019_Jun_06_1203,ACPT_experiment_5_30_19,3.1.0,59.93696581977111,
,,,C,G,d,b,L,D,g,L,i,,,,,5,19,119,12,4,0,4,0,,,,,0,19,19,14,,,,,,up,0.7339236274192444,2981.5295661208665,None,001,10,2019_Jun_06_1203,ACPT_experiment_5_30_19,3.1.0,59.93696581977111,
,,,C,G,d,b,R,U,d,R,u,,,,,5,19,119,12,4,0,4,0,,,,,0,20,20,9,,,,,,up,0.667172480660156,2983.54782040152,None,001,10,2019_Jun_06_1203,ACPT_experiment_5_30_19,3.1.0,59.93696581977111,
,,,C,G,d,b,L,U,g,R,u,,,,,5,19,119,12,4,0,4,0,,,,,0,21,21,23,,,,,,up,0.6338216596650454,2985.4993196112555,None,001,10,2019_Jun_06_1203,ACPT_experiment_5_30_19,3.1.0,59.93696581977111,
,,,C,G,d,b,R,U,y,R,u,,,,,5,19,119,12,4,0,4,0,,,,,0,22,22,31,,,,,,down,0.7672521108961519,2987.4174704148627,None,001,10,2019_Jun_06_1203,ACPT_experiment_5_30_19,3.1.0,59.93696581977111,
,,,C,G,d,b,R,G,y,L,y,,,,,5,19,119,12,4,0,4,0,,,,,0,23,23,28,,,,,,down,0.6671758011016209,2989.4690471418244,None,001,10,2019_Jun_06_1203,ACPT_experiment_5_30_19,3.1.0,59.93696581977111,
,,,C,G,d,b,R,D,d,R,c ,,,,,5,19,119,12,4,0,4,0,,,,,0,24,24,1,,,,,,down,0.8339706569522605,2991.4205517850096,None,001,10,2019_Jun_06_1203,ACPT_experiment_5_30_19,3.1.0,59.93696581977111,
,,,C,G,d,b,R,U,g,L,u,,,,,5,19,119,12,4,0,4,0,,,,,0,25,25,10,,,,,,up,0.6004551420364805,2993.5388521896202,None,001,10,2019_Jun_06_1203,ACPT_experiment_5_30_19,3.1.0,59.93696581977111,
,,,C,G,d,b,L,G,y,L,y,,,,,5,19,119,12,4,0,4,0,,,,,0,26,26,34,,,,,,down,0.7005417150148787,2995.423631947723,None,001,10,2019_Jun_06_1203,ACPT_experiment_5_30_19,3.1.0,59.93696581977111,
,,,C,G,d,b,L,U,y,R,u,,,,,5,19,119,12,4,0,4,0,,,,,0,27,27,25,,,,,,down,0.6671718769439394,2997.425180179256,None,001,10,2019_Jun_06_1203,ACPT_experiment_5_30_19,3.1.0,59.93696581977111,
,,,C,G,d,b,R,G,g,L,c ,,,,,5,19,119,12,4,0,4,0,,,,,0,28,28,6,,,,,,up,0.6338156224983322,2999.393366119177,None,001,10,2019_Jun_06_1203,ACPT_experiment_5_30_19,3.1.0,59.93696581977111,
,,,C,G,d,b,L,D,g,R,i,,,,,5,19,119,12,4,0,4,0,,,,,0,29,29,15,,,,,,up,0.6672068925136045,3001.2947972900365,None,001,10,2019_Jun_06_1203,ACPT_experiment_5_30_19,3.1.0,59.93696581977111,
,,,C,G,d,b,L,G,g,R,c ,,,,,5,19,119,12,4,0,4,0,,,,,0,30,30,19,,,,,,up,0.5504323819159254,3003.2463303079076,None,001,10,2019_Jun_06_1203,ACPT_experiment_5_30_19,3.1.0,59.93696581977111,
,,,C,G,d,b,R,G,d,L,i,,,,,5,19,119,12,4,0,4,0,,,,,0,31,31,4,,,,,,up,0.8339579789007985,3005.0810969653576,None,001,10,2019_Jun_06_1203,ACPT_experiment_5_30_19,3.1.0,59.93696581977111,
,,,C,G,d,b,R,D,g,R,i,,,,,5,19,119,12,4,0,4,0,,,,,0,32,32,3,,,,,,up,0.6338116983397413,3007.199380164042,None,001,10,2019_Jun_06_1203,ACPT_experiment_5_30_19,3.1.0,59.93696581977111,
,,,C,G,d,b,R,G,d,R,i,,,,,5,19,119,12,4,0,4,0,,,,,0,33,33,5,,,,,,up,0.7505747383193011,3009.117524628624,None,001,10,2019_Jun_06_1203,ACPT_experiment_5_30_19,3.1.0,59.93696581977111,
,,,C,G,d,b,L,G,d,L,i,,,,,5,19,119,12,4,0,4,0,,,,,0,34,34,16,,,,,,down,0.9007076163688907,3011.152423681151,None,001,10,2019_Jun_06_1203,ACPT_experiment_5_30_19,3.1.0,59.93696581977111,
,,,C,G,d,b,L,U,d,R,u,,,,,5,19,119,12,4,0,4,0,,,,,0,35,35,21,,,,,,up,0.617147305672006,3013.3374450466854,None,001,10,2019_Jun_06_1203,ACPT_experiment_5_30_19,3.1.0,59.93696581977111,
,,,C,G,d,b,R,D,d,R,c ,,,,,5,19,119,12,4,0,4,0,,,,,1,0,36,1,,,,,,up,0.550416383422089,3015.2389100256823,None,001,10,2019_Jun_06_1203,ACPT_experiment_5_30_19,3.1.0,59.93696581977111,
,,,C,G,d,b,R,D,g,R,i,,,,,5,19,119,12,4,0,4,0,,,,,1,1,37,3,,,,,,up,0.5170758256126646,3017.05697636932,None,001,10,2019_Jun_06_1203,ACPT_experiment_5_30_19,3.1.0,59.93696581977111,
,,,C,G,d,b,R,D,d,L,c,,,,,5,19,119,12,4,0,4,0,,,,,1,2,38,0,,,,,,up,0.9337804258138931,3018.8586352017564,None,001,10,2019_Jun_06_1203,ACPT_experiment_5_30_19,3.1.0,59.93696581977111,
,,,C,G,d,b,L,D,y,L,y,,,,,5,19,119,12,4,0,4,0,,,,,1,3,39,32,,,,,,down,0.5671332994443219,3021.076712472667,None,001,10,2019_Jun_06_1203,ACPT_experiment_5_30_19,3.1.0,59.93696581977111,
,,,C,G,d,b,L,U,g,L,u,,,,,5,19,119,12,4,0,4,0,,,,,1,4,40,22,,,,,,up,0.7005344704139134,3022.928170991895,None,001,10,2019_Jun_06_1203,ACPT_experiment_5_30_19,3.1.0,59.93696581977111,
,,,C,G,d,b,R,U,d,R,u,,,,,5,19,119,12,4,0,4,0,,,,,1,5,41,9,,,,,,up,0.7505714178769267,3024.913037021117,None,001,10,2019_Jun_06_1203,ACPT_experiment_5_30_19,3.1.0,59.93696581977111,
,,,C,G,d,b,L,D,g,R,i,,,,,5,19,119,12,4,0,4,0,,,,,1,6,42,15,,,,,,up,0.7005607320907075,3026.947912226834,None,001,10,2019_Jun_06_1203,ACPT_experiment_5_30_19,3.1.0,59.93696581977111,
,,,C,G,d,b,L,G,y,R,y,,,,,5,19,119,12,4,0,4,0,,,,,1,7,43,35,,,,,,down,0.8006183266661537,3028.932798480566,None,001,10,2019_Jun_06_1203,ACPT_experiment_5_30_19,3.1.0,59.93696581977111,
,,,C,G,d,b,R,D,y,R,y,,,,,5,19,119,12,4,0,4,0,,,,,1,8,44,27,,,,,,down,0.767244866294277,3031.034424229326,None,001,10,2019_Jun_06_1203,ACPT_experiment_5_30_19,3.1.0,59.93696581977111,
,,,C,G,d,b,R,U,d,L,u,,,,,5,19,119,12,4,0,4,0,,,,,1,9,45,8,,,,,,up,0.7505708141607101,3033.1026789325806,None,001,10,2019_Jun_06_1203,ACPT_experiment_5_30_19,3.1.0,59.93696581977111,
,,,C,G,d,b,L,G,g,L,c ,,,,,5,19,119,12,4,0,4,0,,,,,1,10,46,18,,,,,,up,0.7505958684041616,3035.1375773813916,None,001,10,2019_Jun_06_1203,ACPT_experiment_5_30_19,3.1.0,59.93696581977111,
,,,C,G,d,b,R,U,g,R,u,,,,,5,19,119,12,4,0,4,0,,,,,1,11,47,11,,,,,,up,0.6671908940197682,3037.1724788487854,None,001,10,2019_Jun_06_1203,ACPT_experiment_5_30_19,3.1.0,59.93696581977111,
,,,C,G,d,b,R,U,g,L,u,,,,,5,19,119,12,4,0,4,0,,,,,1,12,48,10,,,,,,up,0.5837838066272525,3039.1073043082433,None,001,10,2019_Jun_06_1203,ACPT_experiment_5_30_19,3.1.0,59.93696581977111,
,,,C,G,d,b,R,G,d,L,i,,,,,5,19,119,12,4,0,4,0,,,,,1,13,49,4,,,,,,up,0.8840157545919283,3040.975413636512,None,001,10,2019_Jun_06_1203,ACPT_experiment_5_30_19,3.1.0,59.93696581977111,
,,,C,G,d,b,L,U,y,R,u,,,,,5,19,119,12,4,0,4,0,,,,,1,14,50,25,,,,,,down,0.9340291571024864,3043.14375400717,None,001,10,2019_Jun_06_1203,ACPT_experiment_5_30_19,3.1.0,59.93696581977111,
,,,C,G,d,b,L,U,d,R,u,,,,,5,19,119,12,4,0,4,0,,,,,1,15,51,21,,,,,,down,1.0171805704640065,3045.3790737295085,None,001,10,2019_Jun_06_1203,ACPT_experiment_5_30_19,3.1.0,59.93696581977111,
,,,C,G,d,b,L,U,g,R,u,,,,,5,19,119,12,4,0,4,0,,,,,1,16,52,23,,,,,,up,0.7672533183294945,3047.680581632764,None,001,10,2019_Jun_06_1203,ACPT_experiment_5_30_19,3.1.0,59.93696581977111,
,,,C,G,d,b,R,U,y,L,u,,,,,5,19,119,12,4,0,4,0,,,,,1,17,53,30,,,,,,down,0.9840805937674304,3049.748846297345,None,001,10,2019_Jun_06_1203,ACPT_experiment_5_30_19,3.1.0,59.93696581977111,
,,,C,G,d,b,R,U,y,R,u,,,,,5,19,119,12,4,0,4,0,,,,,1,18,54,31,,,,,,down,0.6838607201370905,3052.033932502056,None,001,10,2019_Jun_06_1203,ACPT_experiment_5_30_19,3.1.0,59.93696581977111,
,,,C,G,d,b,R,G,g,L,c ,,,,,5,19,119,12,4,0,4,0,,,,,1,19,55,6,,,,,,up,1.3009884050170513,3054.0021299125947,None,001,10,2019_Jun_06_1203,ACPT_experiment_5_30_19,3.1.0,59.93696581977111,
,,,C,G,d,b,L,G,y,L,y,,,,,5,19,119,12,4,0,4,0,,,,,1,20,56,34,,,,,,down,0.7672463755870922,3056.5874513857116,None,001,10,2019_Jun_06_1203,ACPT_experiment_5_30_19,3.1.0,59.93696581977111,
,,,C,G,d,b,R,G,g,R,c ,,,,,5,19,119,12,4,0,4,0,,,,,1,21,57,7,,,,,,up,0.667167952784439,3058.6390395832914,None,001,10,2019_Jun_06_1203,ACPT_experiment_5_30_19,3.1.0,59.93696581977111,
,,,C,G,d,b,R,D,g,L,i,,,,,5,19,119,12,4,0,4,0,,,,,1,22,58,2,,,,,,up,0.7005109254614581,3060.573881946818,None,001,10,2019_Jun_06_1203,ACPT_experiment_5_30_19,3.1.0,59.93696581977111,
,,,C,G,d,b,L,D,d,R,c ,,,,,5,19,119,12,4,0,4,0,,,,,1,23,59,13,,,,,,up,0.7505732290273954,3062.5587171864872,None,001,10,2019_Jun_06_1203,ACPT_experiment_5_30_19,3.1.0,59.93696581977111,
,,,C,G,d,b,L,G,d,R,i,,,,,5,19,119,12,4,0,4,0,,,,,1,24,60,17,,,,,,up,0.8673326467060178,3064.5936177483063,None,001,10,2019_Jun_06_1203,ACPT_experiment_5_30_19,3.1.0,59.93696581977111,
,,,C,G,d,b,R,G,y,L,y,,,,,5,19,119,12,4,0,4,0,,,,,1,25,61,28,,,,,,down,0.8006174210913741,3066.7452753129373,None,001,10,2019_Jun_06_1203,ACPT_experiment_5_30_19,3.1.0,59.93696581977111,
,,,C,G,d,b,L,D,y,R,y,,,,,5,19,119,12,4,0,4,0,,,,,1,26,62,33,,,,,,down,1.1508869202361893,3068.8302185575276,None,001,10,2019_Jun_06_1203,ACPT_experiment_5_30_19,3.1.0,59.93696581977111,
,,,C,G,d,b,L,D,g,L,i,,,,,5,19,119,12,4,0,4,0,,,,,1,27,63,14,,,,,,up,1.5845505268634952,3071.2654291882545,None,001,10,2019_Jun_06_1203,ACPT_experiment_5_30_19,3.1.0,59.93696581977111,
,,,C,G,d,b,L,U,y,L,u,,,,,5,19,119,12,4,0,4,0,,,,,1,28,64,24,,,,,,down,0.8673269113969582,3074.1343064441935,None,001,10,2019_Jun_06_1203,ACPT_experiment_5_30_19,3.1.0,59.93696581977111,
,,,C,G,d,b,R,G,y,R,y,,,,,5,19,119,12,4,0,4,0,,,,,1,29,65,29,,,,,,down,0.7338976676010134,3076.2859634051074,None,001,10,2019_Jun_06_1203,ACPT_experiment_5_30_19,3.1.0,59.93696581977111,
,,,C,G,d,b,R,D,y,L,y,,,,,5,19,119,12,4,0,4,0,,,,,1,30,66,26,,,,,,down,0.8339706569522605,3078.3041865943496,None,001,10,2019_Jun_06_1203,ACPT_experiment_5_30_19,3.1.0,59.93696581977111,
,,,C,G,d,b,L,U,d,L,u,,,,,5,19,119,12,4,0,4,0,,,,,1,31,67,20,,,,,,up,2.3684932921041764,3080.4224854896693,None,001,10,2019_Jun_06_1203,ACPT_experiment_5_30_19,3.1.0,59.93696581977111,
,,,C,G,d,b,L,G,d,L,i,,,,,5,19,119,12,4,0,4,0,,,,,1,32,68,16,,,,,,down,0.8006002151641951,3084.0753145665985,None,001,10,2019_Jun_06_1203,ACPT_experiment_5_30_19,3.1.0,59.93696581977111,
,,,C,G,d,b,L,G,g,R,c ,,,,,5,19,119,12,4,0,4,0,,,,,1,33,69,19,,,,,,up,0.5670970764413141,3086.160245434997,None,001,10,2019_Jun_06_1203,ACPT_experiment_5_30_19,3.1.0,59.93696581977111,
,,,C,G,d,b,L,D,d,L,c ,,,,,5,19,119,12,4,0,4,0,,,,,1,34,70,12,,,,,,up,0.5504224205897117,3088.011670447946,None,001,10,2019_Jun_06_1203,ACPT_experiment_5_30_19,3.1.0,59.93696581977111,
,,,C,G,d,b,R,G,d,R,i,,,,,5,19,119,12,4,0,4,0,,,,,1,35,71,5,,,,,,up,0.5501622186829991,3089.8633589832452,None,001,10,2019_Jun_06_1203,ACPT_experiment_5_30_19,3.1.0,59.93696581977111,
,,,C,G,d,b,,,,,,,,,,5,19,119,12,5,0,5,0,0,0,0,0,,,,,,,,,,,,,,001,10,2019_Jun_06_1203,ACPT_experiment_5_30_19,3.1.0,59.93696581977111,
,,,C,G,d,b,R,U,d,R,u,,,,,5,19,119,12,5,0,5,0,,,,,0,0,0,9,,,,,,down,0.6838432123531675,3119.7194628007874,None,001,10,2019_Jun_06_1203,ACPT_experiment_5_30_19,3.1.0,59.93696581977111,
,,,C,G,d,b,R,U,g,R,u,,,,,5,19,119,12,5,0,5,0,,,,,0,1,1,11,,,,,,up,0.6838631350046853,3121.687627006906,None,001,10,2019_Jun_06_1203,ACPT_experiment_5_30_19,3.1.0,59.93696581977111,
,,,C,G,d,b,R,D,g,L,i,,,,,5,19,119,12,5,0,5,0,,,,,0,2,2,2,,,,,,up,0.6671782159692157,3123.6558144561177,None,001,10,2019_Jun_06_1203,ACPT_experiment_5_30_19,3.1.0,59.93696581977111,
,,,C,G,d,b,R,U,g,L,u,,,,,5,19,119,12,5,0,5,0,,,,,0,3,3,10,,,,,,up,0.583783504769599,3125.6073184955867,None,001,10,2019_Jun_06_1203,ACPT_experiment_5_30_19,3.1.0,59.93696581977111,
,,,C,G,d,b,R,G,y,L,y,,,,,5,19,119,12,5,0,5,0,,,,,0,4,4,28,,,,,,down,0.7005417150139692,3127.475424201555,None,001,10,2019_Jun_06_1203,ACPT_experiment_5_30_19,3.1.0,59.93696581977111,
,,,C,G,d,b,L,U,d,L,u,,,,,5,19,119,12,5,0,5,0,,,,,0,5,5,20,,,,,,up,0.6171569651405662,3129.4602920419275,None,001,10,2019_Jun_06_1203,ACPT_experiment_5_30_19,3.1.0,59.93696581977111,
,,,C,G,d,b,L,U,y,R,u,,,,,5,19,119,12,5,0,5,0,,,,,0,6,6,25,,,,,,down,0.7339242311363705,3131.3450500662284,None,001,10,2019_Jun_06_1203,ACPT_experiment_5_30_19,3.1.0,59.93696581977111,
,,,C,G,d,b,L,U,d,R,u,,,,,5,19,119,12,5,0,5,0,,,,,0,7,7,21,,,,,,down,0.6004539346031379,3133.363300422723,None,001,10,2019_Jun_06_1203,ACPT_experiment_5_30_19,3.1.0,59.93696581977111,
,,,C,G,d,b,R,G,y,R,y,,,,,5,19,119,12,5,0,5,0,,,,,0,8,8,29,,,,,,down,0.6338660328447077,3135.248062069324,None,001,10,2019_Jun_06_1203,ACPT_experiment_5_30_19,3.1.0,59.93696581977111,
,,,C,G,d,b,R,G,d,L,i,,,,,5,19,119,12,5,0,5,0,,,,,0,9,9,4,,,,,,up,0.5504172889986876,3137.166228871424,None,001,10,2019_Jun_06_1203,ACPT_experiment_5_30_19,3.1.0,59.93696581977111,
,,,C,G,d,b,R,U,d,L,u,,,,,5,19,119,12,5,0,5,0,,,,,0,10,10,8,,,,,,down,0.9672245210413166,3139.017820812048,None,001,10,2019_Jun_06_1203,ACPT_experiment_5_30_19,3.1.0,59.93696581977111,
,,,C,G,d,b,L,G,g,L,c ,,,,,5,19,119,12,5,0,5,0,,,,,0,11,11,18,,,,,,up,0.6338171317902379,3141.2693937959657,None,001,10,2019_Jun_06_1203,ACPT_experiment_5_30_19,3.1.0,59.93696581977111,
,,,C,G,d,b,L,D,y,L,y,,,,,5,19,119,12,5,0,5,0,,,,,0,12,12,32,,,,,,down,1.734724155792719,3143.1875391661224,None,001,10,2019_Jun_06_1203,ACPT_experiment_5_30_19,3.1.0,59.93696581977111,
,,,C,G,d,b,L,D,g,R,i,,,,,5,19,119,12,5,0,5,0,,,,,0,13,13,15,,,,,,up,1.0507937063739519,3146.206544772236,None,001,10,2019_Jun_06_1203,ACPT_experiment_5_30_19,3.1.0,59.93696581977111,
,,,C,G,d,b,L,G,y,L,y,,,,,5,19,119,12,5,0,5,0,,,,,0,14,14,34,,,,,,down,0.7005305462553224,3148.5583477118535,None,001,10,2019_Jun_06_1203,ACPT_experiment_5_30_19,3.1.0,59.93696581977111,
,,,C,G,d,b,R,U,y,R,u,,,,,5,19,119,12,5,0,5,0,,,,,0,15,15,31,,,,,,down,0.600505552382856,3150.5598663612673,None,001,10,2019_Jun_06_1203,ACPT_experiment_5_30_19,3.1.0,59.93696581977111,
,,,C,G,d,b,R,U,y,L,u,,,,,5,19,119,12,5,0,5,0,,,,,0,16,16,30,,,,,,down,0.5670988875917828,3152.444676607064,None,001,10,2019_Jun_06_1203,ACPT_experiment_5_30_19,3.1.0,59.93696581977111,
,,,C,G,d,b,L,D,g,L,i,,,,,5,19,119,12,5,0,5,0,,,,,0,17,17,14,,,,,,up,0.6505428017044323,3154.2961049404557,None,001,10,2019_Jun_06_1203,ACPT_experiment_5_30_19,3.1.0,59.93696581977111,
,,,C,G,d,b,R,G,g,L,c ,,,,,5,19,119,12,5,0,5,0,,,,,0,18,18,6,,,,,,up,0.6505165400276383,3156.2309355315065,None,001,10,2019_Jun_06_1203,ACPT_experiment_5_30_19,3.1.0,59.93696581977111,
,,,C,G,d,b,R,D,y,L,y,,,,,5,19,119,12,5,0,5,0,,,,,0,19,19,26,,,,,,down,0.5804627609413728,3158.1857512590514,None,001,10,2019_Jun_06_1203,ACPT_experiment_5_30_19,3.1.0,59.93696581977111,
,,,C,G,d,b,L,G,y,R,y,,,,,5,19,119,12,5,0,5,0,,,,,0,20,20,35,,,,,,down,0.6838383826188874,3160.0505534271188,None,001,10,2019_Jun_06_1203,ACPT_experiment_5_30_19,3.1.0,59.93696581977111,
,,,C,G,d,b,L,D,d,R,c ,,,,,5,19,119,12,5,0,5,0,,,,,0,21,21,13,,,,,,up,0.8006575682529729,3162.018722161113,None,001,10,2019_Jun_06_1203,ACPT_experiment_5_30_19,3.1.0,59.93696581977111,
,,,C,G,d,b,L,U,g,R,u,,,,,5,19,119,12,5,0,5,0,,,,,0,22,22,23,,,,,,up,0.5170882018055636,3164.1036334087175,None,001,10,2019_Jun_06_1203,ACPT_experiment_5_30_19,3.1.0,59.93696581977111,
,,,C,G,d,b,R,D,d,R,c ,,,,,5,19,119,12,5,0,5,0,,,,,0,23,23,1,,,,,,up,0.5504354004997367,3165.905050150748,None,001,10,2019_Jun_06_1203,ACPT_experiment_5_30_19,3.1.0,59.93696581977111,
,,,C,G,d,b,R,G,d,R,i,,,,,5,19,119,12,5,0,5,0,,,,,0,24,24,5,,,,,,up,0.7005386964301579,3167.739798696697,None,001,10,2019_Jun_06_1203,ACPT_experiment_5_30_19,3.1.0,59.93696581977111,
,,,C,G,d,b,L,U,y,L,u,,,,,5,19,119,12,5,0,5,0,,,,,0,25,25,24,,,,,,down,0.6838773223471435,3169.7246354456584,None,001,10,2019_Jun_06_1203,ACPT_experiment_5_30_19,3.1.0,59.93696581977111,
,,,C,G,d,b,R,D,d,L,c,,,,,5,19,119,12,5,0,5,0,,,,,0,26,26,0,,,,,,up,0.583758148666675,3171.6928651550406,None,001,10,2019_Jun_06_1203,ACPT_experiment_5_30_19,3.1.0,59.93696581977111,
,,,C,G,d,b,R,G,g,R,c ,,,,,5,19,119,12,5,0,5,0,,,,,0,27,27,7,,,,,,up,0.5671094526342131,3173.560940373314,None,001,10,2019_Jun_06_1203,ACPT_experiment_5_30_19,3.1.0,59.93696581977111,
,,,C,G,d,b,R,D,g,R,i,,,,,5,19,119,12,5,0,5,0,,,,,0,28,28,3,,,,,,up,0.5170631475621121,3175.4123768568825,None,001,10,2019_Jun_06_1203,ACPT_experiment_5_30_19,3.1.0,59.93696581977111,
,,,C,G,d,b,L,D,d,L,c ,,,,,5,19,119,12,5,0,5,0,,,,,0,29,29,12,,,,,,up,0.6001846769459007,3177.2307206083533,None,001,10,2019_Jun_06_1203,ACPT_experiment_5_30_19,3.1.0,59.93696581977111,
,,,C,G,d,b,L,G,d,R,i,,,,,5,19,119,12,5,0,5,0,,,,,0,30,30,17,,,,,,up,0.55042513731496,3179.1152359385324,None,001,10,2019_Jun_06_1203,ACPT_experiment_5_30_19,3.1.0,59.93696581977111,
,,,C,G,d,b,L,U,g,L,u,,,,,5,19,119,12,5,0,5,0,,,,,0,31,31,22,,,,,,up,0.5670711166221736,3180.950006520141,None,001,10,2019_Jun_06_1203,ACPT_experiment_5_30_19,3.1.0,59.93696581977111,
,,,C,G,d,b,L,D,y,R,y,,,,,5,19,119,12,5,0,5,0,,,,,0,32,32,33,,,,,,down,0.7339378147626121,3182.8013856506195,None,001,10,2019_Jun_06_1203,ACPT_experiment_5_30_19,3.1.0,59.93696581977111,
,,,C,G,d,b,R,D,y,R,y,,,,,5,19,119,12,5,0,5,0,,,,,0,33,33,27,,,,,,down,0.6171343257628905,3184.8196284606556,None,001,10,2019_Jun_06_1203,ACPT_experiment_5_30_19,3.1.0,59.93696581977111,
,,,C,G,d,b,L,G,g,R,c ,,,,,5,19,119,12,5,0,5,0,,,,,0,34,34,19,,,,,,up,0.7505702104435841,3186.721101891686,None,001,10,2019_Jun_06_1203,ACPT_experiment_5_30_19,3.1.0,59.93696581977111,
,,,C,G,d,b,L,G,d,L,i,,,,,5,19,119,12,5,0,5,0,,,,,0,35,35,16,,,,,,up,0.6338452046184102,3188.739297008101,None,001,10,2019_Jun_06_1203,ACPT_experiment_5_30_19,3.1.0,59.93696581977111,
,,,C,G,d,b,L,U,d,L,u,,,,,5,19,119,12,5,0,5,0,,,,,1,0,36,20,,,,,,up,0.45037961707475915,3190.640765609398,None,001,10,2019_Jun_06_1203,ACPT_experiment_5_30_19,3.1.0,59.93696581977111,
,,,C,G,d,b,R,U,g,L,u,,,,,5,19,119,12,5,0,5,0,,,,,1,1,37,10,,,,,,up,0.6171391554971706,3192.375456862629,None,001,10,2019_Jun_06_1203,ACPT_experiment_5_30_19,3.1.0,59.93696581977111,
,,,C,G,d,b,R,U,g,R,u,,,,,5,19,119,12,5,0,5,0,,,,,1,2,38,11,,,,,,up,0.7506025092880009,3194.2602182073724,None,001,10,2019_Jun_06_1203,ACPT_experiment_5_30_19,3.1.0,59.93696581977111,
,,,C,G,d,b,R,U,d,L,u,,,,,5,19,119,12,5,0,5,0,,,,,1,3,39,8,,,,,,up,0.633558439175431,3196.295407345784,None,001,10,2019_Jun_06_1203,ACPT_experiment_5_30_19,3.1.0,59.93696581977111,
,,,C,G,d,b,R,G,y,R,y,,,,,5,19,119,12,5,0,5,0,,,,,1,4,40,29,,,,,,down,0.5337682911076627,3198.2132876842998,None,001,10,2019_Jun_06_1203,ACPT_experiment_5_30_19,3.1.0,59.93696581977111,
,,,C,G,d,b,L,G,y,L,y,,,,,5,19,119,12,5,0,5,0,,,,,1,5,41,34,,,,,,down,0.8173198479116763,3200.0313344071446,None,001,10,2019_Jun_06_1203,ACPT_experiment_5_30_19,3.1.0,59.93696581977111,
,,,C,G,d,b,L,D,g,R,i,,,,,5,19,119,12,5,0,5,0,,,,,1,6,42,15,,,,,,up,0.6171445889476672,3202.1329746451056,None,001,10,2019_Jun_06_1203,ACPT_experiment_5_30_19,3.1.0,59.93696581977111,
,,,C,G,d,b,L,D,d,R,c ,,,,,5,19,119,12,5,0,5,0,,,,,1,7,43,13,,,,,,up,0.6838537773946882,3204.034445057553,None,001,10,2019_Jun_06_1203,ACPT_experiment_5_30_19,3.1.0,59.93696581977111,
,,,C,G,d,b,L,D,y,L,y,,,,,5,19,119,12,5,0,5,0,,,,,1,8,44,32,,,,,,down,0.8006077616237235,3206.0026261677394,None,001,10,2019_Jun_06_1203,ACPT_experiment_5_30_19,3.1.0,59.93696581977111,
,,,C,G,d,b,R,U,y,L,u,,,,,5,19,119,12,5,0,5,0,,,,,1,9,45,30,,,,,,down,0.8339724681027292,3208.087564884455,None,001,10,2019_Jun_06_1203,ACPT_experiment_5_30_19,3.1.0,59.93696581977111,
,,,C,G,d,b,R,G,g,L,c ,,,,,5,19,119,12,5,0,5,0,,,,,1,10,46,6,,,,,,up,0.9507379229489743,3210.205869213225,None,001,10,2019_Jun_06_1203,ACPT_experiment_5_30_19,3.1.0,59.93696581977111,
,,,C,G,d,b,R,G,g,R,c ,,,,,5,19,119,12,5,0,5,0,,,,,1,11,47,7,,,,,,up,0.5838073515787983,3212.424219364094,None,001,10,2019_Jun_06_1203,ACPT_experiment_5_30_19,3.1.0,59.93696581977111,
,,,C,G,d,b,L,G,d,R,i,,,,,5,19,119,12,5,0,5,0,,,,,1,12,48,17,,,,,,up,0.6504981266671166,3214.292348615014,None,001,10,2019_Jun_06_1203,ACPT_experiment_5_30_19,3.1.0,59.93696581977111,
,,,C,G,d,b,R,D,d,L,c,,,,,5,19,119,12,5,0,5,0,,,,,1,13,49,0,,,,,,up,0.5170598271197377,3216.227173168897,None,001,10,2019_Jun_06_1203,ACPT_experiment_5_30_19,3.1.0,59.93696581977111,
,,,C,G,d,b,R,D,y,R,y,,,,,5,19,119,12,5,0,5,0,,,,,1,14,50,27,,,,,,down,0.7672596573538613,3218.0285624418175,None,001,10,2019_Jun_06_1203,ACPT_experiment_5_30_19,3.1.0,59.93696581977111,
,,,C,G,d,b,L,D,g,L,i,,,,,5,19,119,12,5,0,5,0,,,,,1,15,51,14,,,,,,up,0.5837868252110638,3220.0801403762125,None,001,10,2019_Jun_06_1203,ACPT_experiment_5_30_19,3.1.0,59.93696581977111,
,,,C,G,d,b,R,D,d,R,c ,,,,,5,19,119,12,5,0,5,0,,,,,1,16,52,1,,,,,,down,1.034145312200053,3221.9482306874042,None,001,10,2019_Jun_06_1203,ACPT_experiment_5_30_19,3.1.0,59.93696581977111,
,,,C,G,d,b,L,U,g,L,u,,,,,5,19,119,12,5,0,5,0,,,,,1,17,53,22,,,,,,up,0.6503852316400298,3224.266705445404,None,001,10,2019_Jun_06_1203,ACPT_experiment_5_30_19,3.1.0,59.93696581977111,
,,,C,G,d,b,L,U,y,R,u,,,,,5,19,119,12,5,0,5,0,,,,,1,18,54,25,,,,,,down,0.7672714298305436,3226.1848366282184,None,001,10,2019_Jun_06_1203,ACPT_experiment_5_30_19,3.1.0,59.93696581977111,
,,,C,G,d,b,R,D,g,L,i,,,,,5,19,119,12,5,0,5,0,,,,,1,19,55,2,,,,,,up,0.6838709833209577,3228.2364181849143,None,001,10,2019_Jun_06_1203,ACPT_experiment_5_30_19,3.1.0,59.93696581977111,
,,,C,G,d,b,R,G,d,R,i,,,,,5,19,119,12,5,0,5,0,,,,,1,20,56,5,,,,,,up,0.8506516518291392,3230.204616501027,None,001,10,2019_Jun_06_1203,ACPT_experiment_5_30_19,3.1.0,59.93696581977111,
,,,C,G,d,b,R,U,d,R,u,,,,,5,19,119,12,5,0,5,0,,,,,1,21,57,9,,,,,,down,0.9173212968316875,3232.339634425377,None,001,10,2019_Jun_06_1203,ACPT_experiment_5_30_19,3.1.0,59.93696581977111,
,,,C,G,d,b,L,D,y,R,y,,,,,5,19,119,12,5,0,5,0,,,,,1,22,58,33,,,,,,down,0.7172221061737218,3234.5412758103994,None,001,10,2019_Jun_06_1203,ACPT_experiment_5_30_19,3.1.0,59.93696581977111,
,,,C,G,d,b,L,G,g,L,c ,,,,,5,19,119,12,5,0,5,0,,,,,1,23,59,18,,,,,,up,1.1509092577543925,3236.5428122694557,None,001,10,2019_Jun_06_1203,ACPT_experiment_5_30_19,3.1.0,59.93696581977111,
,,,C,G,d,b,R,U,y,R,u,,,,,5,19,119,12,5,0,5,0,,,,,1,24,60,31,,,,,,down,0.900692825310216,3238.9780452377017,None,001,10,2019_Jun_06_1203,ACPT_experiment_5_30_19,3.1.0,59.93696581977111,
,,,C,G,d,b,L,U,y,L,u,,,,,5,19,119,12,5,0,5,0,,,,,1,25,61,24,,,,,,down,0.9673992970319887,3241.163080186863,None,001,10,2019_Jun_06_1203,ACPT_experiment_5_30_19,3.1.0,59.93696581977111,
,,,C,G,d,b,R,D,y,L,y,,,,,5,19,119,12,5,0,5,0,,,,,1,26,62,26,,,,,,down,0.6838362696098557,3243.431498376606,None,001,10,2019_Jun_06_1203,ACPT_experiment_5_30_19,3.1.0,59.93696581977111,
,,,C,G,d,b,L,G,g,R,c ,,,,,5,19,119,12,5,0,5,0,,,,,1,27,63,19,,,,,,up,0.7672466774447457,3245.416343275743,None,001,10,2019_Jun_06_1203,ACPT_experiment_5_30_19,3.1.0,59.93696581977111,
