facing_vig,person_vig,text_vig,facing_train,person_train,food_train,correct_key_train,facing_exp,person_exp,food_exp,showL_R,consistent,vig_random.thisRepN,vig_random.thisTrialN,vig_random.thisN,vig_random.thisIndex,trainTrials.thisRepN,trainTrials.thisTrialN,trainTrials.thisN,trainTrials.thisIndex,expBlock.thisRepN,expBlock.thisTrialN,expBlock.thisN,expBlock.thisIndex,breakLoop.thisRepN,breakLoop.thisTrialN,breakLoop.thisN,breakLoop.thisIndex,expTrials.thisRepN,expTrials.thisTrialN,expTrials.thisN,expTrials.thisIndex,train_resp.keys,train_resp.corr,train_resp.rt,train_resp.started,train_resp.stopped,exp_resp.keys,exp_resp.rt,exp_resp.started,exp_resp.stopped,session,participant,date,expName,psychopyVersion,frameRate,
C,D,"is allergic to gluten, meaning she can’t eat wheat products. She enjoys eating dairy products. She thinks eating insects, like crickets, is disgusting.",,,,,,,,,,0,0,0,1,,,,,,,,,,,,,,,,,,,,,,,,,,001,11,2019_Jun_06_1336,ACPT_experiment_5_30_19,3.1.0,59.95877035009887,
C,G,"cannot eat dairy products because she is lactose intolerant. She enjoys eating wheat products. She thinks eating insects, like crickets, is disgusting.",,,,,,,,,,0,1,1,0,,,,,,,,,,,,,,,,,,,,,,,,,,001,11,2019_Jun_06_1336,ACPT_experiment_5_30_19,3.1.0,59.95877035009887,
C,U,"did not report her food preferences, so her food preferences are unknown.",,,,,,,,,,0,2,2,2,,,,,,,,,,,,,,,,,,,,,,,,,,001,11,2019_Jun_06_1336,ACPT_experiment_5_30_19,3.1.0,59.95877035009887,
,,,C,U,g,n,,,,,,,,,,0,0,0,7,,,,,,,,,,,,,b,0,6.021332632217309,1659.7110590640223,None,,,,,001,11,2019_Jun_06_1336,ACPT_experiment_5_30_19,3.1.0,59.95877035009887,
,,,C,G,d,b,,,,,,,,,,0,1,1,3,,,,,,,,,,,,,v,0,2.7855069952656777,1669.0182470360542,None,,,,,001,11,2019_Jun_06_1336,ACPT_experiment_5_30_19,3.1.0,59.95877035009887,
,,,C,U,d,n,,,,,,,,,,0,2,2,15,,,,,,,,,,,,,v,0,4.736986886066006,1675.0896332179436,None,,,,,001,11,2019_Jun_06_1336,ACPT_experiment_5_30_19,3.1.0,59.95877035009887,
,,,C,G,y,b,,,,,,,,,,0,3,3,14,,,,,,,,,,,,,n,0,2.918928390743531,1683.1124600490457,None,,,,,001,11,2019_Jun_06_1336,ACPT_experiment_5_30_19,3.1.0,59.95877035009887,
,,,C,U,y,n,,,,,,,,,,0,4,4,17,,,,,,,,,,,,,b,0,2.168350030126021,1689.3172591743823,None,,,,,001,11,2019_Jun_06_1336,ACPT_experiment_5_30_19,3.1.0,59.95877035009887,
,,,C,D,g,b,,,,,,,,,,0,5,5,10,,,,,,,,,,,,,b,1,6.90533812362446,1694.7714645443211,None,,,,,001,11,2019_Jun_06_1336,ACPT_experiment_5_30_19,3.1.0,59.95877035009887,
,,,C,G,g,v,,,,,,,,,,0,6,6,13,,,,,,,,,,,,,v,1,10.307975520494438,1704.962657404043,None,,,,,001,11,2019_Jun_06_1336,ACPT_experiment_5_30_19,3.1.0,59.95877035009887,
,,,C,D,d,v,,,,,,,,,,0,7,7,0,,,,,,,,,,,,,b,0,4.320012726348068,1718.556483434617,None,,,,,001,11,2019_Jun_06_1336,ACPT_experiment_5_30_19,3.1.0,59.95877035009887,
,,,C,U,y,n,,,,,,,,,,0,8,8,8,,,,,,,,,,,,,b,0,1.534515692408604,1726.162367801131,None,,,,,001,11,2019_Jun_06_1336,ACPT_experiment_5_30_19,3.1.0,59.95877035009887,
,,,C,D,d,v,,,,,,,,,,0,9,9,18,,,,,,,,,,,,,v,1,6.805312827893431,1730.982741248221,None,,,,,001,11,2019_Jun_06_1336,ACPT_experiment_5_30_19,3.1.0,59.95877035009887,
,,,C,G,d,b,,,,,,,,,,0,10,10,12,,,,,,,,,,,,,b,1,3.619493046993739,1741.0738656464673,None,,,,,001,11,2019_Jun_06_1336,ACPT_experiment_5_30_19,3.1.0,59.95877035009887,
,,,C,D,g,b,,,,,,,,,,0,11,11,1,,,,,,,,,,,,,b,1,3.8029456546282745,1747.979197129207,None,,,,,001,11,2019_Jun_06_1336,ACPT_experiment_5_30_19,3.1.0,59.95877035009887,
,,,C,G,g,v,,,,,,,,,,0,12,12,4,,,,,,,,,,,,,v,1,1.467784770158687,1755.0680201593095,None,,,,,001,11,2019_Jun_06_1336,ACPT_experiment_5_30_19,3.1.0,59.95877035009887,
,,,C,U,d,n,,,,,,,,,,0,13,13,6,,,,,,,,,,,,,v,0,4.7870401338805095,1759.8216705324667,None,,,,,001,11,2019_Jun_06_1336,ACPT_experiment_5_30_19,3.1.0,59.95877035009887,
,,,C,D,d,v,,,,,,,,,,0,14,14,9,,,,,,,,,,,,,v,1,7.772680731655782,1767.8945672135942,None,,,,,001,11,2019_Jun_06_1336,ACPT_experiment_5_30_19,3.1.0,59.95877035009887,
,,,C,G,y,b,,,,,,,,,,0,15,15,5,,,,,,,,,,,,,b,1,1.9181586519243865,1778.9531011720555,None,,,,,001,11,2019_Jun_06_1336,ACPT_experiment_5_30_19,3.1.0,59.95877035009887,
,,,C,G,g,v,,,,,,,,,,0,16,16,19,,,,,,,,,,,,,v,1,2.0182207743764593,1784.140457713871,None,,,,,001,11,2019_Jun_06_1336,ACPT_experiment_5_30_19,3.1.0,59.95877035009887,
,,,C,U,g,n,,,,,,,,,,0,17,17,16,,,,,,,,,,,,,n,1,2.251742930175169,1789.4445501284117,None,,,,,001,11,2019_Jun_06_1336,ACPT_experiment_5_30_19,3.1.0,59.95877035009887,
,,,C,D,y,b,,,,,,,,,,0,18,18,2,,,,,,,,,,,,,b,1,2.518630396172739,1794.9821462853924,None,,,,,001,11,2019_Jun_06_1336,ACPT_experiment_5_30_19,3.1.0,59.95877035009887,
,,,C,D,y,b,,,,,,,,,,0,19,19,11,,,,,,,,,,,,,b,1,3.8029800664808135,1800.7699211425224,None,,,,,001,11,2019_Jun_06_1336,ACPT_experiment_5_30_19,3.1.0,59.95877035009887,
,,,C,U,y,n,,,,,,,,,,1,0,20,8,,,,,,,,,,,,,n,1,1.2009326215920737,1807.858764397135,None,,,,,001,11,2019_Jun_06_1336,ACPT_experiment_5_30_19,3.1.0,59.95877035009887,
,,,C,D,d,v,,,,,,,,,,1,1,21,0,,,,,,,,,,,,,v,1,4.553414138805238,1812.3623172700427,None,,,,,001,11,2019_Jun_06_1336,ACPT_experiment_5_30_19,3.1.0,59.95877035009887,
,,,C,D,y,b,,,,,,,,,,1,2,22,11,,,,,,,,,,,,,b,1,3.88634791228651,1820.2016087843203,None,,,,,001,11,2019_Jun_06_1336,ACPT_experiment_5_30_19,3.1.0,59.95877035009887,
,,,C,G,d,b,,,,,,,,,,1,3,23,3,,,,,,,,,,,,,b,1,1.6512796379629435,1827.3738117345638,None,,,,,001,11,2019_Jun_06_1336,ACPT_experiment_5_30_19,3.1.0,59.95877035009887,
,,,C,D,g,b,,,,,,,,,,1,4,24,1,,,,,,,,,,,,,b,1,2.168358482160329,1832.3109548625162,None,,,,,001,11,2019_Jun_06_1336,ACPT_experiment_5_30_19,3.1.0,59.95877035009887,
,,,C,D,g,b,,,,,,,,,,1,5,25,10,,,,,,,,,,,,,b,1,1.334532113503883,1837.7483325344147,None,,,,,001,11,2019_Jun_06_1336,ACPT_experiment_5_30_19,3.1.0,59.95877035009887,
,,,C,U,d,n,,,,,,,,,,1,6,26,6,,,,,,,,,,,,,n,1,1.0505413527826022,1842.3856756737187,None,,,,,001,11,2019_Jun_06_1336,ACPT_experiment_5_30_19,3.1.0,59.95877035009887,
,,,C,U,y,n,,,,,,,,,,1,7,27,17,,,,,,,,,,,,,n,1,1.1676089678494463,1846.7053974086066,None,,,,,001,11,2019_Jun_06_1336,ACPT_experiment_5_30_19,3.1.0,59.95877035009887,
,,,C,U,g,n,,,,,,,,,,1,8,28,16,,,,,,,,,,,,,n,1,1.3009992719180445,1851.158848434503,None,,,,,001,11,2019_Jun_06_1336,ACPT_experiment_5_30_19,3.1.0,59.95877035009887,
,,,C,G,g,v,,,,,,,,,,1,9,29,19,,,,,,,,,,,,,v,1,2.802170784216287,1855.7457145168519,None,,,,,001,11,2019_Jun_06_1336,ACPT_experiment_5_30_19,3.1.0,59.95877035009887,
,,,C,U,d,n,,,,,,,,,,1,10,30,15,,,,,,,,,,,,,n,1,1.117537608533894,1861.8337388297314,None,,,,,001,11,2019_Jun_06_1336,ACPT_experiment_5_30_19,3.1.0,59.95877035009887,
,,,C,D,d,v,,,,,,,,,,1,11,31,9,,,,,,,,,,,,,v,1,5.420861793545555,1866.2371405319718,None,,,,,001,11,2019_Jun_06_1336,ACPT_experiment_5_30_19,3.1.0,59.95877035009887,
,,,C,G,y,b,,,,,,,,,,1,12,32,14,,,,,,,,,,,,,b,1,3.452677966633928,1874.9438552504653,None,,,,,001,11,2019_Jun_06_1336,ACPT_experiment_5_30_19,3.1.0,59.95877035009887,
,,,C,G,y,b,,,,,,,,,,1,13,33,5,,,,,,,,,,,,,b,1,2.1350185280662117,1881.6656843189412,None,,,,,001,11,2019_Jun_06_1336,ACPT_experiment_5_30_19,3.1.0,59.95877035009887,
,,,C,G,d,b,,,,,,,,,,1,14,34,12,,,,,,,,,,,,,b,1,1.434447834648381,1887.0698799086695,None,,,,,001,11,2019_Jun_06_1336,ACPT_experiment_5_30_19,3.1.0,59.95877035009887,
,,,C,G,g,v,,,,,,,,,,1,15,35,4,,,,,,,,,,,,,v,1,0.9507656939185836,1891.7735129551584,None,,,,,001,11,2019_Jun_06_1336,ACPT_experiment_5_30_19,3.1.0,59.95877035009887,
,,,C,D,y,b,,,,,,,,,,1,16,36,2,,,,,,,,,,,,,b,1,1.5845520361563104,1896.0101146699544,None,,,,,001,11,2019_Jun_06_1336,ACPT_experiment_5_30_19,3.1.0,59.95877035009887,
,,,C,G,g,v,,,,,,,,,,1,17,37,13,,,,,,,,,,,,,v,1,2.1183061399206053,1900.880536836983,None,,,,,001,11,2019_Jun_06_1336,ACPT_experiment_5_30_19,3.1.0,59.95877035009887,
,,,C,U,g,n,,,,,,,,,,1,18,38,7,,,,,,,,,,,,,n,1,1.2009374513254443,1906.2847025427345,None,,,,,001,11,2019_Jun_06_1336,ACPT_experiment_5_30_19,3.1.0,59.95877035009887,
,,,C,D,d,v,,,,,,,,,,1,19,39,18,,,,,,,,,,,,,v,1,2.0847657518752385,1910.7883420489907,None,,,,,001,11,2019_Jun_06_1336,ACPT_experiment_5_30_19,3.1.0,59.95877035009887,
,,,C,G,y,b,,,,,,,,,,2,0,40,5,,,,,,,,,,,,,b,1,1.0674903978851944,1916.1590023822664,None,,,,,001,11,2019_Jun_06_1336,ACPT_experiment_5_30_19,3.1.0,59.95877035009887,
,,,C,U,d,n,,,,,,,,,,2,1,41,6,,,,,,,,,,,,,n,1,0.8503902424890839,1920.5292980706436,None,,,,,001,11,2019_Jun_06_1336,ACPT_experiment_5_30_19,3.1.0,59.95877035009887,
,,,C,D,y,b,,,,,,,,,,2,2,42,11,,,,,,,,,,,,,b,1,4.036482299628915,1924.6655557272807,None,,,,,001,11,2019_Jun_06_1336,ACPT_experiment_5_30_19,3.1.0,59.95877035009887,
,,,C,D,y,b,,,,,,,,,,2,3,43,2,,,,,,,,,,,,,b,1,1.0842227086832281,1931.987871029205,None,,,,,001,11,2019_Jun_06_1336,ACPT_experiment_5_30_19,3.1.0,59.95877035009887,
,,,C,G,y,b,,,,,,,,,,2,4,44,14,,,,,,,,,,,,,b,1,1.347704306794185,1936.3946079644738,None,,,,,001,11,2019_Jun_06_1336,ACPT_experiment_5_30_19,3.1.0,59.95877035009887,
,,,C,G,g,v,,,,,,,,,,2,5,45,19,,,,,,,,,,,,,v,1,2.685420120429626,1941.0114935589463,None,,,,,001,11,2019_Jun_06_1336,ACPT_experiment_5_30_19,3.1.0,59.95877035009887,
,,,C,G,d,b,,,,,,,,,,2,6,46,12,,,,,,,,,,,,,b,1,3.1524460186683427,1946.966085609447,None,,,,,001,11,2019_Jun_06_1336,ACPT_experiment_5_30_19,3.1.0,59.95877035009887,
,,,C,U,g,n,,,,,,,,,,2,7,47,16,,,,,,,,,,,,,n,1,1.0508583040627855,1953.4043863642128,None,,,,,001,11,2019_Jun_06_1336,ACPT_experiment_5_30_19,3.1.0,59.95877035009887,
,,,C,U,y,n,,,,,,,,,,2,8,48,8,,,,,,,,,,,,,n,1,0.7503459296822257,1957.757993209394,None,,,,,001,11,2019_Jun_06_1336,ACPT_experiment_5_30_19,3.1.0,59.95877035009887,
,,,C,D,d,v,,,,,,,,,,2,9,49,9,,,,,,,,,,,,,v,1,2.6353813618170534,1961.810878190492,None,,,,,001,11,2019_Jun_06_1336,ACPT_experiment_5_30_19,3.1.0,59.95877035009887,
,,,C,U,d,n,,,,,,,,,,2,10,50,15,,,,,,,,,,,,,n,1,0.8172745691572345,1967.7321266645977,None,,,,,001,11,2019_Jun_06_1336,ACPT_experiment_5_30_19,3.1.0,59.95877035009887,
,,,C,U,y,n,,,,,,,,,,2,11,51,17,,,,,,,,,,,,,n,1,0.6304963879629213,1971.8552881962514,None,,,,,001,11,2019_Jun_06_1336,ACPT_experiment_5_30_19,3.1.0,59.95877035009887,
,,,C,D,d,v,,,,,,,,,,2,12,52,0,,,,,,,,,,,,,v,1,1.8681183840199083,1975.7716435463299,None,,,,,001,11,2019_Jun_06_1336,ACPT_experiment_5_30_19,3.1.0,59.95877035009887,
,,,C,G,g,v,,,,,,,,,,2,13,53,13,,,,,,,,,,,,,v,1,2.9189522375563683,1980.925600366094,None,,,,,001,11,2019_Jun_06_1336,ACPT_experiment_5_30_19,3.1.0,59.95877035009887,
,,,C,D,d,v,,,,,,,,,,2,14,54,18,,,,,,,,,,,,,v,1,2.051591518022178,1987.1304109620469,None,,,,,001,11,2019_Jun_06_1336,ACPT_experiment_5_30_19,3.1.0,59.95877035009887,
,,,C,U,g,n,,,,,,,,,,2,15,55,7,,,,,,,,,,,,,n,1,0.8506610094391363,1992.467862649617,None,,,,,001,11,2019_Jun_06_1336,ACPT_experiment_5_30_19,3.1.0,59.95877035009887,
,,,C,G,d,b,,,,,,,,,,2,16,56,3,,,,,,,,,,,,,v,0,1.484243899141802,1996.6213084231767,None,,,,,001,11,2019_Jun_06_1336,ACPT_experiment_5_30_19,3.1.0,59.95877035009887,
,,,C,G,g,v,,,,,,,,,,2,17,57,4,,,,,,,,,,,,,v,1,1.4344475327907276,2001.3747299876977,None,,,,,001,11,2019_Jun_06_1336,ACPT_experiment_5_30_19,3.1.0,59.95877035009887,
,,,C,D,g,b,,,,,,,,,,2,18,58,10,,,,,,,,,,,,,b,1,1.7177370765384694,2006.111984018411,None,,,,,001,11,2019_Jun_06_1336,ACPT_experiment_5_30_19,3.1.0,59.95877035009887,
,,,C,D,g,b,,,,,,,,,,2,19,59,1,,,,,,,,,,,,,b,1,1.9348263650335866,2011.098899967763,None,,,,,001,11,2019_Jun_06_1336,ACPT_experiment_5_30_19,3.1.0,59.95877035009887,
,,,C,D,y,b,,,,,,,,,,3,0,60,2,,,,,,,,,,,,,n,0,1.7513580607665062,2016.302910940918,None,,,,,001,11,2019_Jun_06_1336,ACPT_experiment_5_30_19,3.1.0,59.95877035009887,
,,,C,G,d,b,,,,,,,,,,3,1,61,12,,,,,,,,,,,,,b,1,3.4526957762755046,2021.3401041169873,None,,,,,001,11,2019_Jun_06_1336,ACPT_experiment_5_30_19,3.1.0,59.95877035009887,
,,,C,U,y,n,,,,,,,,,,3,2,62,8,,,,,,,,,,,,,n,1,0.7839566507245763,2028.0786724390036,None,,,,,001,11,2019_Jun_06_1336,ACPT_experiment_5_30_19,3.1.0,59.95877035009887,
,,,C,G,d,b,,,,,,,,,,3,3,63,3,,,,,,,,,,,,,b,1,2.6683062606643944,2032.1655436529454,None,,,,,001,11,2019_Jun_06_1336,ACPT_experiment_5_30_19,3.1.0,59.95877035009887,
,,,C,U,d,n,,,,,,,,,,3,4,64,6,,,,,,,,,,,,,n,1,1.3677235532832128,2038.1197423820013,None,,,,,001,11,2019_Jun_06_1336,ACPT_experiment_5_30_19,3.1.0,59.95877035009887,
,,,C,U,y,n,,,,,,,,,,3,5,65,17,,,,,,,,,,,,,n,1,0.864023071637348,2042.7933287491123,None,,,,,001,11,2019_Jun_06_1336,ACPT_experiment_5_30_19,3.1.0,59.95877035009887,
,,,C,G,g,v,,,,,,,,,,3,6,66,19,,,,,,,,,,,,,v,1,1.4677968444921135,2046.9432249702077,None,,,,,001,11,2019_Jun_06_1336,ACPT_experiment_5_30_19,3.1.0,59.95877035009887,
,,,C,G,g,v,,,,,,,,,,3,7,67,13,,,,,,,,,,,,,v,1,1.084331981410287,2051.680045834175,None,,,,,001,11,2019_Jun_06_1336,ACPT_experiment_5_30_19,3.1.0,59.95877035009887,
,,,C,G,y,b,,,,,,,,,,3,8,68,5,,,,,,,,,,,,,b,1,1.1504893727742456,2056.0672938880925,None,,,,,001,11,2019_Jun_06_1336,ACPT_experiment_5_30_19,3.1.0,59.95877035009887,
,,,C,U,d,n,,,,,,,,,,3,9,69,15,,,,,,,,,,,,,n,1,0.750586208936511,2060.503671503244,None,,,,,001,11,2019_Jun_06_1336,ACPT_experiment_5_30_19,3.1.0,59.95877035009887,
,,,C,D,g,b,,,,,,,,,,3,10,70,10,,,,,,,,,,,,,b,1,2.0682710036053322,2064.5401142594274,None,,,,,001,11,2019_Jun_06_1336,ACPT_experiment_5_30_19,3.1.0,59.95877035009887,
,,,C,G,g,v,,,,,,,,,,3,11,71,4,,,,,,,,,,,,,v,1,1.4511532800534042,2069.87753968532,None,,,,,001,11,2019_Jun_06_1336,ACPT_experiment_5_30_19,3.1.0,59.95877035009887,
,,,C,D,d,v,,,,,,,,,,3,12,72,18,,,,,,,,,,,,,v,1,1.2173594517280435,2074.631508820905,None,,,,,001,11,2019_Jun_06_1336,ACPT_experiment_5_30_19,3.1.0,59.95877035009887,
,,,C,U,g,n,,,,,,,,,,3,13,73,16,,,,,,,,,,,,,n,1,1.100849670914613,2079.1347067083807,None,,,,,001,11,2019_Jun_06_1336,ACPT_experiment_5_30_19,3.1.0,59.95877035009887,
,,,C,D,d,v,,,,,,,,,,3,14,74,9,,,,,,,,,,,,,v,1,1.60097313098413,2083.5383725366846,None,,,,,001,11,2019_Jun_06_1336,ACPT_experiment_5_30_19,3.1.0,59.95877035009887,
,,,C,U,g,n,,,,,,,,,,3,15,75,7,,,,,,,,,,,,,n,1,0.9340680968307424,2088.4252016112005,None,,,,,001,11,2019_Jun_06_1336,ACPT_experiment_5_30_19,3.1.0,59.95877035009887,
,,,C,D,d,v,,,,,,,,,,3,16,76,0,,,,,,,,,,,,,v,1,1.500956589145062,2092.6620481331265,None,,,,,001,11,2019_Jun_06_1336,ACPT_experiment_5_30_19,3.1.0,59.95877035009887,
,,,C,G,y,b,,,,,,,,,,3,17,77,14,,,,,,,,,,,,,n,0,1.3176872095373255,2097.448831989259,None,,,,,001,11,2019_Jun_06_1336,ACPT_experiment_5_30_19,3.1.0,59.95877035009887,
,,,C,D,y,b,,,,,,,,,,3,18,78,11,,,,,,,,,,,,,b,1,1.6343278761360125,2102.0860066915975,None,,,,,001,11,2019_Jun_06_1336,ACPT_experiment_5_30_19,3.1.0,59.95877035009887,
,,,C,D,g,b,,,,,,,,,,3,19,79,1,,,,,,,,,,,,,b,1,1.46780227794261,2106.989525816738,None,,,,,001,11,2019_Jun_06_1336,ACPT_experiment_5_30_19,3.1.0,59.95877035009887,
,,,C,D,g,b,,,,,,,,,,4,0,80,1,,,,,,,,,,,,,b,1,0.9509000208872749,2111.726352114156,None,,,,,001,11,2019_Jun_06_1336,ACPT_experiment_5_30_19,3.1.0,59.95877035009887,
,,,C,G,g,v,,,,,,,,,,4,1,81,4,,,,,,,,,,,,,v,1,2.0346557546872646,2115.980037804742,None,,,,,001,11,2019_Jun_06_1336,ACPT_experiment_5_30_19,3.1.0,59.95877035009887,
,,,C,G,g,v,,,,,,,,,,4,2,82,13,,,,,,,,,,,,,v,1,0.9007284445960977,2121.2838546225994,None,,,,,001,11,2019_Jun_06_1336,ACPT_experiment_5_30_19,3.1.0,59.95877035009887,
,,,C,D,d,v,,,,,,,,,,4,3,83,18,,,,,,,,,,,,,v,1,1.5011784550406446,2125.4704359921434,None,,,,,001,11,2019_Jun_06_1336,ACPT_experiment_5_30_19,3.1.0,59.95877035009887,
,,,C,G,d,b,,,,,,,,,,4,4,84,3,,,,,,,,,,,,,b,1,2.28510522178658,2130.257465862838,None,,,,,001,11,2019_Jun_06_1336,ACPT_experiment_5_30_19,3.1.0,59.95877035009887,
,,,C,D,g,b,,,,,,,,,,4,5,85,10,,,,,,,,,,,,,b,1,1.0508275145111838,2135.8284279337313,None,,,,,001,11,2019_Jun_06_1336,ACPT_experiment_5_30_19,3.1.0,59.95877035009887,
,,,C,U,y,n,,,,,,,,,,4,6,86,17,,,,,,,,,,,,,n,1,0.7502940100421256,2140.182077039084,None,,,,,001,11,2019_Jun_06_1336,ACPT_experiment_5_30_19,3.1.0,59.95877035009887,
,,,C,G,y,b,,,,,,,,,,4,7,87,5,,,,,,,,,,,,,b,1,1.0841861838234763,2144.2182309168165,None,,,,,001,11,2019_Jun_06_1336,ACPT_experiment_5_30_19,3.1.0,59.95877035009887,
,,,C,D,d,v,,,,,,,,,,4,8,88,0,,,,,,,,,,,,,v,1,1.1342152829693077,2148.588268516294,None,,,,,001,11,2019_Jun_06_1336,ACPT_experiment_5_30_19,3.1.0,59.95877035009887,
,,,C,G,y,b,,,,,,,,,,4,9,89,14,,,,,,,,,,,,,b,1,0.6671815364115901,2153.0083433650943,None,,,,,001,11,2019_Jun_06_1336,ACPT_experiment_5_30_19,3.1.0,59.95877035009887,
,,,C,D,y,b,,,,,,,,,,4,10,90,11,,,,,,,,,,,,,b,1,0.8337053234536143,2156.9950247704983,None,,,,,001,11,2019_Jun_06_1336,ACPT_experiment_5_30_19,3.1.0,59.95877035009887,
,,,C,G,g,v,,,,,,,,,,4,11,91,19,,,,,,,,,,,,,v,1,1.78474450104477,2161.114598111817,None,,,,,001,11,2019_Jun_06_1336,ACPT_experiment_5_30_19,3.1.0,59.95877035009887,
,,,C,G,d,b,,,,,,,,,,4,12,92,12,,,,,,,,,,,,,b,1,1.284324616066442,2166.185174407725,None,,,,,001,11,2019_Jun_06_1336,ACPT_experiment_5_30_19,3.1.0,59.95877035009887,
,,,C,U,d,n,,,,,,,,,,4,13,93,15,,,,,,,,,,,,,n,1,0.8670890470093582,2170.772293145521,None,,,,,001,11,2019_Jun_06_1336,ACPT_experiment_5_30_19,3.1.0,59.95877035009887,
,,,C,U,y,n,,,,,,,,,,4,14,94,8,,,,,,,,,,,,,n,1,0.8006267787004617,2174.9252435695125,None,,,,,001,11,2019_Jun_06_1336,ACPT_experiment_5_30_19,3.1.0,59.95877035009887,
,,,C,U,g,n,,,,,,,,,,4,15,95,7,,,,,,,,,,,,,n,1,0.6335837952774455,2179.0286499807426,None,,,,,001,11,2019_Jun_06_1336,ACPT_experiment_5_30_19,3.1.0,59.95877035009887,
,,,C,D,y,b,,,,,,,,,,4,16,96,2,,,,,,,,,,,,,b,1,1.1342089439422125,2182.948099680876,None,,,,,001,11,2019_Jun_06_1336,ACPT_experiment_5_30_19,3.1.0,59.95877035009887,
,,,C,D,d,v,,,,,,,,,,4,17,97,9,,,,,,,,,,,,,v,1,0.6505053712680819,2187.384858543135,None,,,,,001,11,2019_Jun_06_1336,ACPT_experiment_5_30_19,3.1.0,59.95877035009887,
,,,C,U,g,n,,,,,,,,,,4,18,98,16,,,,,,,,,,,,,n,1,0.7339127605191607,2191.3212195560754,None,,,,,001,11,2019_Jun_06_1336,ACPT_experiment_5_30_19,3.1.0,59.95877035009887,
,,,C,U,d,n,,,,,,,,,,4,19,99,6,,,,,,,,,,,,,n,1,0.7672602610709873,2195.3409939954345,None,,,,,001,11,2019_Jun_06_1336,ACPT_experiment_5_30_19,3.1.0,59.95877035009887,
,,,C,D,d,v,,,,,,,,,,5,0,100,18,,,,,,,,,,,,,v,1,1.0174649210403004,2199.394124991095,None,,,,,001,11,2019_Jun_06_1336,ACPT_experiment_5_30_19,3.1.0,59.95877035009887,
,,,C,D,d,v,,,,,,,,,,5,1,101,0,,,,,,,,,,,,,v,1,1.9181423515747156,2203.680761238489,None,,,,,001,11,2019_Jun_06_1336,ACPT_experiment_5_30_19,3.1.0,59.95877035009887,
,,,C,U,g,n,,,,,,,,,,5,2,102,16,,,,,,,,,,,,,n,1,1.3176968690058857,2208.884760137309,None,,,,,001,11,2019_Jun_06_1336,ACPT_experiment_5_30_19,3.1.0,59.95877035009887,
,,,C,U,g,n,,,,,,,,,,5,3,103,7,,,,,,,,,,,,,n,1,0.39699173994813464,2213.508316197842,None,,,,,001,11,2019_Jun_06_1336,ACPT_experiment_5_30_19,3.1.0,59.95877035009887,
,,,C,D,d,v,,,,,,,,,,5,4,104,9,,,,,,,,,,,,,v,1,1.9848771979814046,2217.191171729637,None,,,,,001,11,2019_Jun_06_1336,ACPT_experiment_5_30_19,3.1.0,59.95877035009887,
,,,C,D,g,b,,,,,,,,,,5,5,105,1,,,,,,,,,,,,,b,1,0.9007018810607406,2222.4619018525664,None,,,,,001,11,2019_Jun_06_1336,ACPT_experiment_5_30_19,3.1.0,59.95877035009887,
,,,C,D,g,b,,,,,,,,,,5,6,106,10,,,,,,,,,,,,,b,1,0.9675550559459225,2226.631652203627,None,,,,,001,11,2019_Jun_06_1336,ACPT_experiment_5_30_19,3.1.0,59.95877035009887,
,,,C,G,y,b,,,,,,,,,,5,7,107,5,,,,,,,,,,,,,b,1,0.8840139434414596,2230.885065617971,None,,,,,001,11,2019_Jun_06_1336,ACPT_experiment_5_30_19,3.1.0,59.95877035009887,
,,,C,G,g,v,,,,,,,,,,5,8,108,19,,,,,,,,,,,,,v,1,1.3673522674980632,2235.0719965394965,None,,,,,001,11,2019_Jun_06_1336,ACPT_experiment_5_30_19,3.1.0,59.95877035009887,
,,,C,G,g,v,,,,,,,,,,5,9,109,13,,,,,,,,,,,,,v,1,1.4845086289242317,2239.7085134924655,None,,,,,001,11,2019_Jun_06_1336,ACPT_experiment_5_30_19,3.1.0,59.95877035009887,
,,,C,G,d,b,,,,,,,,,,5,10,110,12,,,,,,,,,,,,,b,1,1.1175373066744214,2244.478874744478,None,,,,,001,11,2019_Jun_06_1336,ACPT_experiment_5_30_19,3.1.0,59.95877035009887,
,,,C,U,y,n,,,,,,,,,,5,11,111,17,,,,,,,,,,,,,n,1,0.6638677353257663,2248.9189513319816,None,,,,,001,11,2019_Jun_06_1336,ACPT_experiment_5_30_19,3.1.0,59.95877035009887,
,,,C,G,g,v,,,,,,,,,,5,12,112,4,,,,,,,,,,,,,v,1,1.551240758604763,2252.8686777275634,None,,,,,001,11,2019_Jun_06_1336,ACPT_experiment_5_30_19,3.1.0,59.95877035009887,
,,,C,D,y,b,,,,,,,,,,5,13,113,11,,,,,,,,,,,,,b,1,1.1342355074793886,2257.7057442438636,None,,,,,001,11,2019_Jun_06_1336,ACPT_experiment_5_30_19,3.1.0,59.95877035009887,
,,,C,U,d,n,,,,,,,,,,5,14,114,15,,,,,,,,,,,,,n,1,0.8171218288262025,2262.142670033796,None,,,,,001,11,2019_Jun_06_1336,ACPT_experiment_5_30_19,3.1.0,59.95877035009887,
,,,C,D,y,b,,,,,,,,,,5,15,115,2,,,,,,,,,,,,,b,1,1.0841789392216015,2266.245658673055,None,,,,,001,11,2019_Jun_06_1336,ACPT_experiment_5_30_19,3.1.0,59.95877035009887,
,,,C,G,d,b,,,,,,,,,,5,16,116,3,,,,,,,,,,,,,b,1,1.9846342020009615,2270.6326090946313,None,,,,,001,11,2019_Jun_06_1336,ACPT_experiment_5_30_19,3.1.0,59.95877035009887,
,,,C,G,y,b,,,,,,,,,,5,17,117,14,,,,,,,,,,,,,b,1,0.8172978122529457,2275.903110107063,None,,,,,001,11,2019_Jun_06_1336,ACPT_experiment_5_30_19,3.1.0,59.95877035009887,
,,,C,U,y,n,,,,,,,,,,5,18,118,8,,,,,,,,,,,,,n,1,0.7336471251601324,2280.0398866582236,None,,,,,001,11,2019_Jun_06_1336,ACPT_experiment_5_30_19,3.1.0,59.95877035009887,
,,,C,U,d,n,,,,,,,,,,5,19,119,6,0,0,0,0,0,0,0,0,,,,,n,1,0.6338618068275537,2284.042693940979,None,,,,,001,11,2019_Jun_06_1336,ACPT_experiment_5_30_19,3.1.0,59.95877035009887,
,,,C,U,d,n,L,U,g,R,u,,,,,5,19,119,6,0,0,0,0,,,,,0,0,0,23,,,,,,up,1.2843249179240956,2539.6564903169874,None,001,11,2019_Jun_06_1336,ACPT_experiment_5_30_19,3.1.0,59.95877035009887,
,,,C,U,d,n,R,G,g,R,c ,,,,,5,19,119,6,0,0,0,0,,,,,0,1,1,7,,,,,,up,0.8339658272197994,2542.225141963987,None,001,11,2019_Jun_06_1336,ACPT_experiment_5_30_19,3.1.0,59.95877035009887,
,,,C,U,d,n,L,D,d,R,c ,,,,,5,19,119,6,0,0,0,0,,,,,0,2,2,13,,,,,,up,0.8006313065761788,2544.3434342184228,None,001,11,2019_Jun_06_1336,ACPT_experiment_5_30_19,3.1.0,59.95877035009887,
,,,C,U,d,n,L,D,y,L,y,,,,,5,19,119,6,0,0,0,0,,,,,0,3,3,32,,,,,,down,0.8006307028590527,2546.41167926221,None,001,11,2019_Jun_06_1336,ACPT_experiment_5_30_19,3.1.0,59.95877035009887,
,,,C,U,d,n,L,U,g,L,u,,,,,5,19,119,6,0,0,0,0,,,,,0,4,4,22,,,,,,up,0.9006916178750544,2548.4966394108706,None,001,11,2019_Jun_06_1336,ACPT_experiment_5_30_19,3.1.0,59.95877035009887,
,,,C,U,d,n,R,G,y,L,y,,,,,5,19,119,6,0,0,0,0,,,,,0,5,5,28,,,,,,down,0.8340237840238842,2550.681657757821,None,001,11,2019_Jun_06_1336,ACPT_experiment_5_30_19,3.1.0,59.95877035009887,
,,,C,U,d,n,R,U,y,R,u,,,,,5,19,119,6,0,0,0,0,,,,,0,6,6,31,,,,,,down,0.7672614685052395,2552.799955747565,None,001,11,2019_Jun_06_1336,ACPT_experiment_5_30_19,3.1.0,59.95877035009887,
,,,C,U,d,n,L,G,d,R,i,,,,,5,19,119,6,0,0,0,0,,,,,0,7,7,17,,,,,,up,1.1175285527824599,2554.85154092656,None,001,11,2019_Jun_06_1336,ACPT_experiment_5_30_19,3.1.0,59.95877035009887,
,,,C,U,d,n,L,D,y,R,y,,,,,5,19,119,6,0,0,0,0,,,,,0,8,8,33,,,,,,down,0.783919824005352,2557.2700841460373,None,001,11,2019_Jun_06_1336,ACPT_experiment_5_30_19,3.1.0,59.95877035009887,
,,,C,U,d,n,R,U,d,L,u,,,,,5,19,119,6,0,0,0,0,,,,,0,9,9,8,,,,,,up,0.7672569406295224,2559.3550129014275,None,001,11,2019_Jun_06_1336,ACPT_experiment_5_30_19,3.1.0,59.95877035009887,
,,,C,U,d,n,R,U,y,L,u,,,,,5,19,119,6,0,0,0,0,,,,,0,10,10,30,,,,,,down,0.6505180493186344,2561.389897162895,None,001,11,2019_Jun_06_1336,ACPT_experiment_5_30_19,3.1.0,59.95877035009887,
,,,C,U,d,n,R,U,g,R,u,,,,,5,19,119,6,0,0,0,0,,,,,0,11,11,11,,,,,,up,0.8673365708655183,2563.3247437524387,None,001,11,2019_Jun_06_1336,ACPT_experiment_5_30_19,3.1.0,59.95877035009887,
,,,C,U,d,n,L,G,g,L,c ,,,,,5,19,119,6,0,0,0,0,,,,,0,12,12,18,,,,,,up,0.6171421740800724,2565.4763979966265,None,001,11,2019_Jun_06_1336,ACPT_experiment_5_30_19,3.1.0,59.95877035009887,
,,,C,U,d,n,R,D,g,R,i,,,,,5,19,119,6,0,0,0,0,,,,,0,13,13,3,,,,,,up,0.5499512196893193,2567.3949870985743,None,001,11,2019_Jun_06_1336,ACPT_experiment_5_30_19,3.1.0,59.95877035009887,
,,,C,U,d,n,L,U,d,R,u,,,,,5,19,119,6,0,0,0,0,,,,,0,14,14,21,,,,,,up,1.000772757404775,2569.2292901015826,None,001,11,2019_Jun_06_1336,ACPT_experiment_5_30_19,3.1.0,59.95877035009887,
,,,C,U,d,n,R,G,d,L,i,,,,,5,19,119,6,0,0,0,0,,,,,0,15,15,4,,,,,,up,0.6838573996956256,2571.5143883806268,None,001,11,2019_Jun_06_1336,ACPT_experiment_5_30_19,3.1.0,59.95877035009887,
,,,C,U,d,n,R,G,d,R,i,,,,,5,19,119,6,0,0,0,0,,,,,0,16,16,5,,,,,,up,0.6004741591132188,2573.4658758178866,None,001,11,2019_Jun_06_1336,ACPT_experiment_5_30_19,3.1.0,59.95877035009887,
,,,C,U,d,n,L,U,y,R,u,,,,,5,19,119,6,0,0,0,0,,,,,0,17,17,25,,,,,,down,0.7338964601676707,2575.3506818376663,None,001,11,2019_Jun_06_1336,ACPT_experiment_5_30_19,3.1.0,59.95877035009887,
,,,C,U,d,n,R,D,y,R,y,,,,,5,19,119,6,0,0,0,0,,,,,0,18,18,27,,,,,,down,0.88401303786668,2577.368901706466,None,001,11,2019_Jun_06_1336,ACPT_experiment_5_30_19,3.1.0,59.95877035009887,
,,,C,U,d,n,L,G,y,L,y,,,,,5,19,119,6,0,0,0,0,,,,,0,19,19,34,,,,,,down,0.7172420288261492,2579.5372155135883,None,001,11,2019_Jun_06_1336,ACPT_experiment_5_30_19,3.1.0,59.95877035009887,
,,,C,U,d,n,L,D,g,R,i,,,,,5,19,119,6,0,0,0,0,,,,,0,20,20,15,,,,,,up,0.867329628123116,2581.538783365915,None,001,11,2019_Jun_06_1336,ACPT_experiment_5_30_19,3.1.0,59.95877035009887,
,,,C,U,d,n,R,G,g,L,c ,,,,,5,19,119,6,0,0,0,0,,,,,0,21,21,6,,,,,,up,0.7338964601676707,2583.690442439838,None,001,11,2019_Jun_06_1336,ACPT_experiment_5_30_19,3.1.0,59.95877035009887,
,,,C,U,d,n,L,D,d,L,c ,,,,,5,19,119,6,0,0,0,0,,,,,0,22,22,12,,,,,,up,0.6004373323921754,2585.7086822312885,None,001,11,2019_Jun_06_1336,ACPT_experiment_5_30_19,3.1.0,59.95877035009887,
,,,C,U,d,n,R,D,d,L,c,,,,,5,19,119,6,0,0,0,0,,,,,0,23,23,0,,,,,,up,0.5304128335683345,2587.613459803937,None,001,11,2019_Jun_06_1336,ACPT_experiment_5_30_19,3.1.0,59.95877035009887,
,,,C,U,d,n,L,G,d,L,i,,,,,5,19,119,6,0,0,0,0,,,,,0,24,24,16,,,,,,up,0.8506875729744934,2589.428175217912,None,001,11,2019_Jun_06_1336,ACPT_experiment_5_30_19,3.1.0,59.95877035009887,
,,,C,U,d,n,R,D,y,L,y,,,,,5,19,119,6,0,0,0,0,,,,,0,25,25,26,,,,,,down,0.7172166727232252,2591.563178653061,None,001,11,2019_Jun_06_1336,ACPT_experiment_5_30_19,3.1.0,59.95877035009887,
,,,C,U,d,n,L,D,g,L,i,,,,,5,19,119,6,0,0,0,0,,,,,0,26,26,14,,,,,,up,0.7505729271688324,2593.5647223567175,None,001,11,2019_Jun_06_1336,ACPT_experiment_5_30_19,3.1.0,59.95877035009887,
,,,C,U,d,n,R,U,g,L,u,,,,,5,19,119,6,0,0,0,0,,,,,0,27,27,10,,,,,,up,0.6338364507264487,2595.5996202018105,None,001,11,2019_Jun_06_1336,ACPT_experiment_5_30_19,3.1.0,59.95877035009887,
,,,C,U,d,n,L,U,d,L,u,,,,,5,19,119,6,0,0,0,0,,,,,0,28,28,20,,,,,,up,0.5170592234044307,2597.517772212852,None,001,11,2019_Jun_06_1336,ACPT_experiment_5_30_19,3.1.0,59.95877035009887,
,,,C,U,d,n,R,D,d,R,c ,,,,,5,19,119,6,0,0,0,0,,,,,0,29,29,1,,,,,,up,0.8340367639339092,2599.319155146746,None,001,11,2019_Jun_06_1336,ACPT_experiment_5_30_19,3.1.0,59.95877035009887,
,,,C,U,d,n,L,G,y,R,y,,,,,5,19,119,6,0,0,0,0,,,,,0,30,30,35,,,,,,down,0.8506561797057657,2601.437455551357,None,001,11,2019_Jun_06_1336,ACPT_experiment_5_30_19,3.1.0,59.95877035009887,
,,,C,U,d,n,L,G,g,R,c ,,,,,5,19,119,6,0,0,0,0,,,,,0,31,31,19,,,,,,up,0.7005287351057632,2603.572442384295,None,001,11,2019_Jun_06_1336,ACPT_experiment_5_30_19,3.1.0,59.95877035009887,
,,,C,U,d,n,R,G,y,R,y,,,,,5,19,119,6,0,0,0,0,,,,,0,32,32,29,,,,,,down,0.7339341924616747,2605.573982465652,None,001,11,2019_Jun_06_1336,ACPT_experiment_5_30_19,3.1.0,59.95877035009887,
,,,C,U,d,n,R,U,d,R,u,,,,,5,19,119,6,0,0,0,0,,,,,0,33,33,9,,,,,,up,1.2342789147096482,2607.608880914462,None,001,11,2019_Jun_06_1336,ACPT_experiment_5_30_19,3.1.0,59.95877035009887,
,,,C,U,d,n,R,D,g,L,i,,,,,5,19,119,6,0,0,0,0,,,,,0,34,34,2,,,,,,up,0.8506573871381988,2610.1274883693986,None,001,11,2019_Jun_06_1336,ACPT_experiment_5_30_19,3.1.0,59.95877035009887,
,,,C,U,d,n,L,U,y,L,u,,,,,5,19,119,6,0,0,0,0,,,,,0,35,35,24,,,,,,down,0.6171473056729155,2612.2624625242843,None,001,11,2019_Jun_06_1336,ACPT_experiment_5_30_19,3.1.0,59.95877035009887,
,,,C,U,d,n,L,G,g,R,c ,,,,,5,19,119,6,0,0,0,0,,,,,1,0,36,19,,,,,,up,0.767257242487176,2614.1639350497408,None,001,11,2019_Jun_06_1336,ACPT_experiment_5_30_19,3.1.0,59.95877035009887,
,,,C,U,d,n,L,D,y,L,y,,,,,5,19,119,6,0,0,0,0,,,,,1,1,37,32,,,,,,down,0.7670740144640149,2616.232352152794,None,001,11,2019_Jun_06_1336,ACPT_experiment_5_30_19,3.1.0,59.95877035009887,
,,,C,U,d,n,L,G,y,L,y,,,,,5,19,119,6,0,0,0,0,,,,,1,2,38,34,,,,,,down,0.8172851342005742,2618.300464680762,None,001,11,2019_Jun_06_1336,ACPT_experiment_5_30_19,3.1.0,59.95877035009887,
,,,C,U,d,n,R,U,g,L,u,,,,,5,19,119,6,0,0,0,0,,,,,1,3,39,10,,,,,,up,0.7505714178769267,2620.402078958903,None,001,11,2019_Jun_06_1336,ACPT_experiment_5_30_19,3.1.0,59.95877035009887,
,,,C,U,d,n,R,U,d,R,u,,,,,5,19,119,6,0,0,0,0,,,,,1,4,40,9,,,,,,up,0.5671206213937694,2622.420282225494,None,001,11,2019_Jun_06_1336,ACPT_experiment_5_30_19,3.1.0,59.95877035009887,
,,,C,U,d,n,L,D,d,R,c ,,,,,5,19,119,6,0,0,0,0,,,,,1,5,41,13,,,,,,up,0.7172178801574773,2624.2717256518026,None,001,11,2019_Jun_06_1336,ACPT_experiment_5_30_19,3.1.0,59.95877035009887,
,,,C,U,d,n,L,D,d,L,c ,,,,,5,19,119,6,0,0,0,0,,,,,1,6,42,12,,,,,,up,0.5505860278226464,2626.2564386388367,None,001,11,2019_Jun_06_1336,ACPT_experiment_5_30_19,3.1.0,59.95877035009887,
,,,C,U,d,n,R,D,d,R,c ,,,,,5,19,119,6,0,0,0,0,,,,,1,7,43,1,,,,,,up,0.6304903507952986,2628.111347399128,None,001,11,2019_Jun_06_1336,ACPT_experiment_5_30_19,3.1.0,59.95877035009887,
,,,C,U,d,n,R,G,y,R,y,,,,,5,19,119,6,0,0,0,0,,,,,1,8,44,29,,,,,,down,0.9339920285237895,2630.0262097577524,None,001,11,2019_Jun_06_1336,ACPT_experiment_5_30_19,3.1.0,59.95877035009887,
,,,C,U,d,n,L,U,y,R,u,,,,,5,19,119,6,0,0,0,0,,,,,1,9,45,25,,,,,,down,0.70055228005549,2632.2445351562365,None,001,11,2019_Jun_06_1336,ACPT_experiment_5_30_19,3.1.0,59.95877035009887,
,,,C,U,d,n,R,G,d,L,i,,,,,5,19,119,6,0,0,0,0,,,,,1,10,46,4,,,,,,up,0.5504109499725018,2634.229412957935,None,001,11,2019_Jun_06_1336,ACPT_experiment_5_30_19,3.1.0,59.95877035009887,
,,,C,U,d,n,R,G,g,R,c ,,,,,5,19,119,6,0,0,0,0,,,,,1,11,47,7,,,,,,up,0.4836996485173586,2636.0641554667163,None,001,11,2019_Jun_06_1336,ACPT_experiment_5_30_19,3.1.0,59.95877035009887,
,,,C,U,d,n,R,G,y,L,y,,,,,5,19,119,6,0,0,0,0,,,,,1,12,48,28,,,,,,down,0.6338442990418116,2637.8321797312983,None,001,11,2019_Jun_06_1336,ACPT_experiment_5_30_19,3.1.0,59.95877035009887,
,,,C,U,d,n,R,D,d,L,c,,,,,5,19,119,6,0,0,0,0,,,,,1,13,49,0,,,,,,up,0.9006913160192198,2639.750325101455,None,001,11,2019_Jun_06_1336,ACPT_experiment_5_30_19,3.1.0,59.95877035009887,
,,,C,U,d,n,L,U,g,L,u,,,,,5,19,119,6,0,0,0,0,,,,,1,14,50,22,,,,,,up,0.6671797252602119,2641.935340127964,None,001,11,2019_Jun_06_1336,ACPT_experiment_5_30_19,3.1.0,59.95877035009887,
,,,C,U,d,n,L,D,y,R,y,,,,,5,19,119,6,0,0,0,0,,,,,1,15,51,33,,,,,,down,0.5337344829713402,2643.903528784611,None,001,11,2019_Jun_06_1336,ACPT_experiment_5_30_19,3.1.0,59.95877035009887,
,,,C,U,d,n,R,D,g,R,i,,,,,5,19,119,6,0,0,0,0,,,,,1,16,52,3,,,,,,up,0.8840063969819312,2645.7382761231256,None,001,11,2019_Jun_06_1336,ACPT_experiment_5_30_19,3.1.0,59.95877035009887,
,,,C,U,d,n,R,U,y,R,u,,,,,5,19,119,6,0,0,0,0,,,,,1,17,53,31,,,,,,down,0.6004623866356269,2647.9066083436064,None,001,11,2019_Jun_06_1336,ACPT_experiment_5_30_19,3.1.0,59.95877035009887,
,,,C,U,d,n,L,U,g,R,u,,,,,5,19,119,6,0,0,0,0,,,,,1,18,54,23,,,,,,up,0.5337704041157849,2649.791400477903,None,001,11,2019_Jun_06_1336,ACPT_experiment_5_30_19,3.1.0,59.95877035009887,
,,,C,U,d,n,R,D,g,L,i,,,,,5,19,119,6,0,0,0,0,,,,,1,19,55,2,,,,,,up,1.16756429281304,2651.6094692364077,None,001,11,2019_Jun_06_1336,ACPT_experiment_5_30_19,3.1.0,59.95877035009887,
,,,C,U,d,n,L,G,y,R,y,,,,,5,19,119,6,0,0,0,0,,,,,1,20,56,35,,,,,,down,0.6171418722224189,2654.0613587490025,None,001,11,2019_Jun_06_1336,ACPT_experiment_5_30_19,3.1.0,59.95877035009887,
,,,C,U,d,n,R,U,y,L,u,,,,,5,19,119,6,0,0,0,0,,,,,1,21,57,30,,,,,,down,0.5837774676019762,2655.9628231242823,None,001,11,2019_Jun_06_1336,ACPT_experiment_5_30_19,3.1.0,59.95877035009887,
,,,C,U,d,n,L,U,y,L,u,,,,,5,19,119,6,0,0,0,0,,,,,1,22,58,24,,,,,,down,0.6505117102933582,2657.8476134474276,None,001,11,2019_Jun_06_1336,ACPT_experiment_5_30_19,3.1.0,59.95877035009887,
,,,C,U,d,n,R,G,g,L,c ,,,,,5,19,119,6,0,0,0,0,,,,,1,23,59,6,,,,,,up,0.5671145842261467,2659.7991256370733,None,001,11,2019_Jun_06_1336,ACPT_experiment_5_30_19,3.1.0,59.95877035009887,
,,,C,U,d,n,R,D,y,R,y,,,,,5,19,119,6,0,0,0,0,,,,,1,24,60,27,,,,,,down,0.6338171317893284,2661.6505470277225,None,001,11,2019_Jun_06_1336,ACPT_experiment_5_30_19,3.1.0,59.95877035009887,
,,,C,U,d,n,L,D,g,R,i,,,,,5,19,119,6,0,0,0,0,,,,,1,25,61,15,,,,,,up,0.5003812471095443,2663.568687568146,None,001,11,2019_Jun_06_1336,ACPT_experiment_5_30_19,3.1.0,59.95877035009887,
,,,C,U,d,n,L,G,d,R,i,,,,,5,19,119,6,0,0,0,0,,,,,1,26,62,17,,,,,,up,0.5669914260142832,2665.370356663765,None,001,11,2019_Jun_06_1336,ACPT_experiment_5_30_19,3.1.0,59.95877035009887,
,,,C,U,d,n,R,D,y,L,y,,,,,5,19,119,6,0,0,0,0,,,,,1,27,63,26,,,,,,down,0.6004602736284141,2667.2215027595903,None,001,11,2019_Jun_06_1336,ACPT_experiment_5_30_19,3.1.0,59.95877035009887,
,,,C,U,d,n,R,U,g,R,u,,,,,5,19,119,6,0,0,0,0,,,,,1,28,64,11,,,,,,up,0.6504914857832773,2669.106292177161,None,001,11,2019_Jun_06_1336,ACPT_experiment_5_30_19,3.1.0,59.95877035009887,
,,,C,U,d,n,R,G,d,R,i,,,,,5,19,119,6,0,0,0,0,,,,,1,29,65,5,,,,,,up,0.6004554438950436,2671.0411155236106,None,001,11,2019_Jun_06_1336,ACPT_experiment_5_30_19,3.1.0,59.95877035009887,
,,,C,U,d,n,L,U,d,L,u,,,,,5,19,119,6,0,0,0,0,,,,,1,30,66,20,,,,,,up,0.683860418279437,2672.92590313003,None,001,11,2019_Jun_06_1336,ACPT_experiment_5_30_19,3.1.0,59.95877035009887,
,,,C,U,d,n,L,D,g,L,i,,,,,5,19,119,6,0,0,0,0,,,,,1,31,67,14,,,,,,up,0.6838628331461223,2674.894087862518,None,001,11,2019_Jun_06_1336,ACPT_experiment_5_30_19,3.1.0,59.95877035009887,
,,,C,U,d,n,L,G,d,L,i,,,,,5,19,119,6,0,0,0,0,,,,,1,32,68,16,,,,,,up,0.5337432368633017,2676.862272896862,None,001,11,2019_Jun_06_1336,ACPT_experiment_5_30_19,3.1.0,59.95877035009887,
,,,C,U,d,n,L,U,d,R,u,,,,,5,19,119,6,0,0,0,0,,,,,1,33,69,21,,,,,,up,0.5835350753386592,2678.6972991525035,None,001,11,2019_Jun_06_1336,ACPT_experiment_5_30_19,3.1.0,59.95877035009887,
,,,C,U,d,n,L,G,g,L,c ,,,,,5,19,119,6,0,0,0,0,,,,,1,34,70,18,,,,,,up,0.6004638959275326,2680.565126846921,None,001,11,2019_Jun_06_1336,ACPT_experiment_5_30_19,3.1.0,59.95877035009887,
,,,C,U,d,n,R,U,d,L,u,,,,,5,19,119,6,0,0,0,0,,,,,1,35,71,8,,,,,,up,0.5337362941208994,2682.4499132459077,None,001,11,2019_Jun_06_1336,ACPT_experiment_5_30_19,3.1.0,59.95877035009887,
,,,C,U,d,n,,,,,,,,,,5,19,119,6,1,0,1,0,0,0,0,0,,,,,,,,,,,,,,001,11,2019_Jun_06_1336,ACPT_experiment_5_30_19,3.1.0,59.95877035009887,
,,,C,U,d,n,R,D,y,L,y,,,,,5,19,119,6,1,0,1,0,,,,,0,0,0,26,,,,,,down,0.6836029330970632,2690.0060093962475,None,001,11,2019_Jun_06_1336,ACPT_experiment_5_30_19,3.1.0,59.95877035009887,
,,,C,U,d,n,L,G,d,L,i,,,,,5,19,119,6,1,0,1,0,,,,,0,1,1,16,,,,,,up,1.9681602819600812,2691.9739487178867,None,001,11,2019_Jun_06_1336,ACPT_experiment_5_30_19,3.1.0,59.95877035009887,
,,,C,U,d,n,L,U,g,L,u,,,,,5,19,119,6,1,0,1,0,,,,,0,2,2,22,,,,,,up,0.650510502859106,2695.2264296917547,None,001,11,2019_Jun_06_1336,ACPT_experiment_5_30_19,3.1.0,59.95877035009887,
,,,C,U,d,n,L,D,g,L,i,,,,,5,19,119,6,1,0,1,0,,,,,0,3,3,14,,,,,,up,0.5003788322428591,2697.1612557549306,None,001,11,2019_Jun_06_1336,ACPT_experiment_5_30_19,3.1.0,59.95877035009887,
,,,C,U,d,n,L,D,d,R,c ,,,,,5,19,119,6,1,0,1,0,,,,,0,4,4,13,,,,,,up,0.5838001069787424,2698.9292619080115,None,001,11,2019_Jun_06_1336,ACPT_experiment_5_30_19,3.1.0,59.95877035009887,
,,,C,U,d,n,L,G,g,R,c ,,,,,5,19,119,6,1,0,1,0,,,,,0,5,5,19,,,,,,up,0.5503071106959396,2700.797394479374,None,001,11,2019_Jun_06_1336,ACPT_experiment_5_30_19,3.1.0,59.95877035009887,
,,,C,U,d,n,R,G,d,L,i,,,,,5,19,119,6,1,0,1,0,,,,,0,6,6,4,,,,,,up,0.5337423312885221,2702.632137290013,None,001,11,2019_Jun_06_1336,ACPT_experiment_5_30_19,3.1.0,59.95877035009887,
,,,C,U,d,n,R,G,d,R,i,,,,,5,19,119,6,1,0,1,0,,,,,0,7,7,5,,,,,,up,0.4670159369143221,2704.450210576393,None,001,11,2019_Jun_06_1336,ACPT_experiment_5_30_19,3.1.0,59.95877035009887,
,,,C,U,d,n,R,U,d,R,u,,,,,5,19,119,6,1,0,1,0,,,,,0,8,8,9,,,,,,up,0.5670865113988839,2706.2182532543357,None,001,11,2019_Jun_06_1336,ACPT_experiment_5_30_19,3.1.0,59.95877035009887,
,,,C,U,d,n,R,G,g,L,c ,,,,,5,19,119,6,1,0,1,0,,,,,0,9,9,6,,,,,,up,0.6504990322428057,2708.069665891093,None,001,11,2019_Jun_06_1336,ACPT_experiment_5_30_19,3.1.0,59.95877035009887,
,,,C,U,d,n,R,D,g,L,i,,,,,5,19,119,6,1,0,1,0,,,,,0,10,10,2,,,,,,up,0.4503391680536879,2709.9878127705415,None,001,11,2019_Jun_06_1336,ACPT_experiment_5_30_19,3.1.0,59.95877035009887,
,,,C,U,d,n,L,U,y,R,u,,,,,5,19,119,6,1,0,1,0,,,,,0,11,11,25,,,,,,down,0.6504942025094351,2711.7224847048383,None,001,11,2019_Jun_06_1336,ACPT_experiment_5_30_19,3.1.0,59.95877035009887,
,,,C,U,d,n,R,D,d,L,c,,,,,5,19,119,6,1,0,1,0,,,,,0,12,12,0,,,,,,up,0.7338925360072608,2713.657308051288,None,001,11,2019_Jun_06_1336,ACPT_experiment_5_30_19,3.1.0,59.95877035009887,
,,,C,U,d,n,L,G,y,R,y,,,,,5,19,119,6,1,0,1,0,,,,,0,13,13,35,,,,,,down,0.633814113207336,2715.6755306368123,None,001,11,2019_Jun_06_1336,ACPT_experiment_5_30_19,3.1.0,59.95877035009887,
,,,C,U,d,n,R,D,g,R,i,,,,,5,19,119,6,1,0,1,0,,,,,0,14,14,3,,,,,,up,0.6171512298315065,2717.593674497679,None,001,11,2019_Jun_06_1336,ACPT_experiment_5_30_19,3.1.0,59.95877035009887,
,,,C,U,d,n,R,G,y,L,y,,,,,5,19,119,6,1,0,1,0,,,,,0,15,15,28,,,,,,down,0.6502264541431941,2719.51209335151,None,001,11,2019_Jun_06_1336,ACPT_experiment_5_30_19,3.1.0,59.95877035009887,
,,,C,U,d,n,L,D,y,L,y,,,,,5,19,119,6,1,0,1,0,,,,,0,16,16,32,,,,,,down,0.5837946735282458,2721.446642912426,None,001,11,2019_Jun_06_1336,ACPT_experiment_5_30_19,3.1.0,59.95877035009887,
,,,C,U,d,n,L,G,y,L,y,,,,,5,19,119,6,1,0,1,0,,,,,0,17,17,34,,,,,,down,0.6838184599655506,2723.3314519507912,None,001,11,2019_Jun_06_1336,ACPT_experiment_5_30_19,3.1.0,59.95877035009887,
,,,C,U,d,n,L,U,d,R,u,,,,,5,19,119,6,1,0,1,0,,,,,0,18,18,21,,,,,,up,0.61715545584957,2725.3329696946294,None,001,11,2019_Jun_06_1336,ACPT_experiment_5_30_19,3.1.0,59.95877035009887,
,,,C,U,d,n,R,U,d,L,u,,,,,5,19,119,6,1,0,1,0,,,,,0,19,19,8,,,,,,up,0.6505237846286036,2727.2344156565487,None,001,11,2019_Jun_06_1336,ACPT_experiment_5_30_19,3.1.0,59.95877035009887,
,,,C,U,d,n,R,U,y,R,u,,,,,5,19,119,6,1,0,1,0,,,,,0,20,20,31,,,,,,down,0.6004663107960369,2729.1692598312256,None,001,11,2019_Jun_06_1336,ACPT_experiment_5_30_19,3.1.0,59.95877035009887,
,,,C,U,d,n,R,D,d,R,c ,,,,,5,19,119,6,1,0,1,0,,,,,0,21,21,1,,,,,,up,0.8006104783489718,2731.054049550654,None,001,11,2019_Jun_06_1336,ACPT_experiment_5_30_19,3.1.0,59.95877035009887,
,,,C,U,d,n,L,G,g,L,c ,,,,,5,19,119,6,1,0,1,0,,,,,0,22,22,18,,,,,,up,0.7505759457526437,2733.138988569228,None,001,11,2019_Jun_06_1336,ACPT_experiment_5_30_19,3.1.0,59.95877035009887,
,,,C,U,d,n,R,U,g,R,u,,,,,5,19,119,6,1,0,1,0,,,,,0,23,23,11,,,,,,up,0.7005374889977247,2735.173891244056,None,001,11,2019_Jun_06_1336,ACPT_experiment_5_30_19,3.1.0,59.95877035009887,
,,,C,U,d,n,R,U,g,L,u,,,,,5,19,119,6,1,0,1,0,,,,,0,24,24,10,,,,,,up,0.5838058422868926,2737.1587575751364,None,001,11,2019_Jun_06_1336,ACPT_experiment_5_30_19,3.1.0,59.95877035009887,
,,,C,U,d,n,R,D,y,R,y,,,,,5,19,119,6,1,0,1,0,,,,,0,25,25,27,,,,,,down,0.7839098626773193,2739.043563594916,None,001,11,2019_Jun_06_1336,ACPT_experiment_5_30_19,3.1.0,59.95877035009887,
,,,C,U,d,n,R,U,y,L,u,,,,,5,19,119,6,1,0,1,0,,,,,0,26,26,30,,,,,,down,0.7506320914071694,2741.1284842001296,None,001,11,2019_Jun_06_1336,ACPT_experiment_5_30_19,3.1.0,59.95877035009887,
,,,C,U,d,n,R,G,y,R,y,,,,,5,19,119,6,1,0,1,0,,,,,0,27,27,29,,,,,,down,0.500391208435758,2743.1633841582316,None,001,11,2019_Jun_06_1336,ACPT_experiment_5_30_19,3.1.0,59.95877035009887,
,,,C,U,d,n,L,U,d,L,u,,,,,5,19,119,6,1,0,1,0,,,,,0,28,28,20,,,,,,down,0.817027950875854,2744.9650444999606,None,001,11,2019_Jun_06_1336,ACPT_experiment_5_30_19,3.1.0,59.95877035009887,
,,,C,U,d,n,R,G,g,R,c ,,,,,5,19,119,6,1,0,1,0,,,,,0,29,29,7,,,,,,up,0.7172139559970674,2747.0663946520363,None,001,11,2019_Jun_06_1336,ACPT_experiment_5_30_19,3.1.0,59.95877035009887,
,,,C,U,d,n,L,D,g,R,i,,,,,5,19,119,6,1,0,1,0,,,,,0,30,30,15,,,,,,up,0.5003857749852614,2749.067938657552,None,001,11,2019_Jun_06_1336,ACPT_experiment_5_30_19,3.1.0,59.95877035009887,
,,,C,U,d,n,L,U,g,R,u,,,,,5,19,119,6,1,0,1,0,,,,,0,31,31,23,,,,,,up,0.4503316215941595,2750.852657500638,None,001,11,2019_Jun_06_1336,ACPT_experiment_5_30_19,3.1.0,59.95877035009887,
,,,C,U,d,n,L,U,y,L,u,,,,,5,19,119,6,1,0,1,0,,,,,0,32,32,24,,,,,,down,0.7506022074303473,2752.570615235638,None,001,11,2019_Jun_06_1336,ACPT_experiment_5_30_19,3.1.0,59.95877035009887,
,,,C,U,d,n,L,D,d,L,c ,,,,,5,19,119,6,1,0,1,0,,,,,0,33,33,12,,,,,,up,0.5671212251108955,2754.605542059133,None,001,11,2019_Jun_06_1336,ACPT_experiment_5_30_19,3.1.0,59.95877035009887,
,,,C,U,d,n,L,G,d,R,i,,,,,5,19,119,6,1,0,1,0,,,,,0,34,34,17,,,,,,up,0.8006068560498534,2756.456968581375,None,001,11,2019_Jun_06_1336,ACPT_experiment_5_30_19,3.1.0,59.95877035009887,
,,,C,U,d,n,L,D,y,R,y,,,,,5,19,119,6,1,0,1,0,,,,,0,35,35,33,,,,,,down,0.9173614439951052,2758.558588594826,None,001,11,2019_Jun_06_1336,ACPT_experiment_5_30_19,3.1.0,59.95877035009887,
,,,C,U,d,n,R,U,d,L,u,,,,,5,19,119,6,1,0,1,0,,,,,1,0,36,8,,,,,,up,0.5670937560007587,2760.7936632081746,None,001,11,2019_Jun_06_1336,ACPT_experiment_5_30_19,3.1.0,59.95877035009887,
,,,C,U,d,n,R,D,g,R,i,,,,,5,19,119,6,1,0,1,0,,,,,1,1,37,3,,,,,,up,0.6004491048697673,2762.6450737319246,None,001,11,2019_Jun_06_1336,ACPT_experiment_5_30_19,3.1.0,59.95877035009887,
,,,C,U,d,n,R,D,d,R,c ,,,,,5,19,119,6,1,0,1,0,,,,,1,2,38,1,,,,,,up,0.8173153200350498,2764.513156496656,None,001,11,2019_Jun_06_1336,ACPT_experiment_5_30_19,3.1.0,59.95877035009887,
,,,C,U,d,n,L,G,y,L,y,,,,,5,19,119,6,1,0,1,0,,,,,1,3,39,34,,,,,,down,0.9340922455012333,2766.6147961309016,None,001,11,2019_Jun_06_1336,ACPT_experiment_5_30_19,3.1.0,59.95877035009887,
,,,C,U,d,n,R,G,g,L,c ,,,,,5,19,119,6,1,0,1,0,,,,,1,4,40,6,,,,,,up,0.7338970638847968,2768.8331758638888,None,001,11,2019_Jun_06_1336,ACPT_experiment_5_30_19,3.1.0,59.95877035009887,
,,,C,U,d,n,R,U,g,L,u,,,,,5,19,119,6,1,0,1,0,,,,,1,5,41,10,,,,,,up,0.650472166847976,2770.8347313400227,None,001,11,2019_Jun_06_1336,ACPT_experiment_5_30_19,3.1.0,59.95877035009887,
,,,C,U,d,n,L,D,d,R,c ,,,,,5,19,119,6,1,0,1,0,,,,,1,6,42,13,,,,,,down,0.8339845424361556,2772.769523896919,None,001,11,2019_Jun_06_1336,ACPT_experiment_5_30_19,3.1.0,59.95877035009887,
,,,C,U,d,n,L,U,d,L,u,,,,,5,19,119,6,1,0,1,0,,,,,1,7,43,20,,,,,,up,0.9006937308840861,2774.8878430167497,None,001,11,2019_Jun_06_1336,ACPT_experiment_5_30_19,3.1.0,59.95877035009887,
,,,C,U,d,n,L,G,d,L,i,,,,,5,19,119,6,1,0,1,0,,,,,1,8,44,16,,,,,,up,0.6338210559479194,2777.0728631748498,None,001,11,2019_Jun_06_1336,ACPT_experiment_5_30_19,3.1.0,59.95877035009887,
,,,C,U,d,n,L,D,y,R,y,,,,,5,19,119,6,1,0,1,0,,,,,1,9,45,33,,,,,,down,0.6170639927640877,2779.007762287749,None,001,11,2019_Jun_06_1336,ACPT_experiment_5_30_19,3.1.0,59.95877035009887,
,,,C,U,d,n,L,U,y,L,u,,,,,5,19,119,6,1,0,1,0,,,,,1,10,46,24,,,,,,down,0.767249394171813,2780.925831287741,None,001,11,2019_Jun_06_1336,ACPT_experiment_5_30_19,3.1.0,59.95877035009887,
,,,C,U,d,n,R,D,g,L,i,,,,,5,19,119,6,1,0,1,0,,,,,1,11,47,2,,,,,,up,0.5337254272199061,2782.9774255224875,None,001,11,2019_Jun_06_1336,ACPT_experiment_5_30_19,3.1.0,59.95877035009887,
,,,C,U,d,n,L,U,d,R,u,,,,,5,19,119,6,1,0,1,0,,,,,1,12,48,21,,,,,,up,0.48367127383062325,2784.795507260902,None,001,11,2019_Jun_06_1336,ACPT_experiment_5_30_19,3.1.0,59.95877035009887,
,,,C,U,d,n,R,G,g,R,c ,,,,,5,19,119,6,1,0,1,0,,,,,1,13,49,7,,,,,,up,0.4503382624789083,2786.5635131121235,None,001,11,2019_Jun_06_1336,ACPT_experiment_5_30_19,3.1.0,59.95877035009887,
,,,C,U,d,n,R,G,d,L,i,,,,,5,19,119,6,1,0,1,0,,,,,1,14,50,4,,,,,,up,0.43341698834592535,2788.298450983637,None,001,11,2019_Jun_06_1336,ACPT_experiment_5_30_19,3.1.0,59.95877035009887,
,,,C,U,d,n,L,G,g,R,c ,,,,,5,19,119,6,1,0,1,0,,,,,1,15,51,19,,,,,,up,0.4169811024585215,2790.0161756839807,None,001,11,2019_Jun_06_1336,ACPT_experiment_5_30_19,3.1.0,59.95877035009887,
,,,C,U,d,n,R,G,d,R,i,,,,,5,19,119,6,1,0,1,0,,,,,1,16,52,5,,,,,,up,0.45034460150600353,2791.7174937787004,None,001,11,2019_Jun_06_1336,ACPT_experiment_5_30_19,3.1.0,59.95877035009887,
,,,C,U,d,n,R,U,d,R,u,,,,,5,19,119,6,1,0,1,0,,,,,1,17,53,9,,,,,,up,0.36699969693472667,2793.4521258676923,None,001,11,2019_Jun_06_1336,ACPT_experiment_5_30_19,3.1.0,59.95877035009887,
,,,C,U,d,n,L,U,y,R,u,,,,,5,19,119,6,1,0,1,0,,,,,1,18,54,25,,,,,,down,0.8339546584593336,2795.1368034165534,None,001,11,2019_Jun_06_1336,ACPT_experiment_5_30_19,3.1.0,59.95877035009887,
,,,C,U,d,n,R,U,y,L,u,,,,,5,19,119,6,1,0,1,0,,,,,1,19,55,30,,,,,,down,0.6005025337999541,2797.2550851059477,None,001,11,2019_Jun_06_1336,ACPT_experiment_5_30_19,3.1.0,59.95877035009887,
,,,C,U,d,n,L,D,d,L,c ,,,,,5,19,119,6,1,0,1,0,,,,,1,20,56,12,,,,,,up,0.5670853039646317,2799.156564272287,None,001,11,2019_Jun_06_1336,ACPT_experiment_5_30_19,3.1.0,59.95877035009887,
,,,C,U,d,n,R,D,y,R,y,,,,,5,19,119,6,1,0,1,0,,,,,1,21,57,27,,,,,,down,0.48369602621642116,2801.0079799276264,None,001,11,2019_Jun_06_1336,ACPT_experiment_5_30_19,3.1.0,59.95877035009887,
,,,C,U,d,n,R,G,y,R,y,,,,,5,19,119,6,1,0,1,0,,,,,1,22,58,29,,,,,,down,0.6338020388720906,2802.826052006574,None,001,11,2019_Jun_06_1336,ACPT_experiment_5_30_19,3.1.0,59.95877035009887,
,,,C,U,d,n,L,D,g,L,i,,,,,5,19,119,6,1,0,1,0,,,,,1,23,59,14,,,,,,up,0.5837732415839127,2804.760875956741,None,001,11,2019_Jun_06_1336,ACPT_experiment_5_30_19,3.1.0,59.95877035009887,
,,,C,U,d,n,R,D,y,L,y,,,,,5,19,119,6,1,0,1,0,,,,,1,24,60,26,,,,,,down,0.6171433815143246,2806.628980757134,None,001,11,2019_Jun_06_1336,ACPT_experiment_5_30_19,3.1.0,59.95877035009887,
,,,C,U,d,n,L,U,g,R,u,,,,,5,19,119,6,1,0,1,0,,,,,1,25,61,23,,,,,,up,0.6171442870891042,2808.5304493584317,None,001,11,2019_Jun_06_1336,ACPT_experiment_5_30_19,3.1.0,59.95877035009887,
,,,C,U,d,n,R,G,y,L,y,,,,,5,19,119,6,1,0,1,0,,,,,1,26,62,28,,,,,,down,0.5837774676019762,2810.4319104132683,None,001,11,2019_Jun_06_1336,ACPT_experiment_5_30_19,3.1.0,59.95877035009887,
,,,C,U,d,n,R,U,g,R,u,,,,,5,19,119,6,1,0,1,0,,,,,1,27,63,11,,,,,,up,0.517087598087528,2812.300021552688,None,001,11,2019_Jun_06_1336,ACPT_experiment_5_30_19,3.1.0,59.95877035009887,
,,,C,U,d,n,L,G,y,R,y,,,,,5,19,119,6,1,0,1,0,,,,,1,28,64,35,,,,,,down,0.6338171317911474,2814.1014093163158,None,001,11,2019_Jun_06_1336,ACPT_experiment_5_30_19,3.1.0,59.95877035009887,
,,,C,U,d,n,L,G,g,L,c ,,,,,5,19,119,6,1,0,1,0,,,,,1,29,65,18,,,,,,up,0.5971383223677549,2816.03955763261,None,001,11,2019_Jun_06_1336,ACPT_experiment_5_30_19,3.1.0,59.95877035009887,
,,,C,U,d,n,L,D,g,R,i,,,,,5,19,119,6,1,0,1,0,,,,,1,30,66,15,,,,,,up,0.6171349294800166,2817.9210278156443,None,001,11,2019_Jun_06_1336,ACPT_experiment_5_30_19,3.1.0,59.95877035009887,
,,,C,U,d,n,L,U,g,L,u,,,,,5,19,119,6,1,0,1,0,,,,,1,31,67,22,,,,,,up,0.9507231318893901,2819.822519056319,None,001,11,2019_Jun_06_1336,ACPT_experiment_5_30_19,3.1.0,59.95877035009887,
,,,C,U,d,n,L,G,d,R,i,,,,,5,19,119,6,1,0,1,0,,,,,1,32,68,17,,,,,,up,0.8339772978379187,2822.057541448172,None,001,11,2019_Jun_06_1336,ACPT_experiment_5_30_19,3.1.0,59.95877035009887,
,,,C,U,d,n,R,U,y,R,u,,,,,5,19,119,6,1,0,1,0,,,,,1,33,69,31,,,,,,down,0.5337420294290496,2824.175841249067,None,001,11,2019_Jun_06_1336,ACPT_experiment_5_30_19,3.1.0,59.95877035009887,
,,,C,U,d,n,L,D,y,L,y,,,,,5,19,119,6,1,0,1,0,,,,,1,34,70,32,,,,,,down,0.6171645115991851,2825.99390849828,None,001,11,2019_Jun_06_1336,ACPT_experiment_5_30_19,3.1.0,59.95877035009887,
,,,C,U,d,n,R,D,d,L,c,,,,,5,19,119,6,1,0,1,0,,,,,1,35,71,0,,,,,,up,0.6004578587617289,2827.8953780051506,None,001,11,2019_Jun_06_1336,ACPT_experiment_5_30_19,3.1.0,59.95877035009887,
,,,C,U,d,n,,,,,,,,,,5,19,119,6,2,0,2,0,0,0,0,0,,,,,,,,,,,,,,001,11,2019_Jun_06_1336,ACPT_experiment_5_30_19,3.1.0,59.95877035009887,
,,,C,U,d,n,R,U,g,L,u,,,,,5,19,119,6,2,0,2,0,,,,,0,0,0,10,,,,,,up,1.0842311607175361,2832.8658752745414,None,001,11,2019_Jun_06_1336,ACPT_experiment_5_30_19,3.1.0,59.95877035009887,
,,,C,U,d,n,L,G,d,L,i,,,,,5,19,119,6,2,0,2,0,,,,,0,1,1,16,,,,,,up,0.5637911236735818,2835.254381775967,None,001,11,2019_Jun_06_1336,ACPT_experiment_5_30_19,3.1.0,59.95877035009887,
,,,C,U,d,n,L,D,y,R,y,,,,,5,19,119,6,2,0,2,0,,,,,0,2,2,33,,,,,,down,0.7172142578583589,2837.119151645189,None,001,11,2019_Jun_06_1336,ACPT_experiment_5_30_19,3.1.0,59.95877035009887,
,,,C,U,d,n,R,U,y,L,u,,,,,5,19,119,6,2,0,2,0,,,,,0,3,3,30,,,,,,down,0.9006895048678416,2839.1373760418646,None,001,11,2019_Jun_06_1336,ACPT_experiment_5_30_19,3.1.0,59.95877035009887,
,,,C,U,d,n,R,D,d,R,c ,,,,,5,19,119,6,2,0,2,0,,,,,0,4,4,1,,,,,,up,0.6504872597652138,2841.322407368725,None,001,11,2019_Jun_06_1336,ACPT_experiment_5_30_19,3.1.0,59.95877035009887,
,,,C,U,d,n,R,U,d,L,u,,,,,5,19,119,6,2,0,2,0,,,,,0,5,5,8,,,,,,up,0.4503418847780267,2843.240539758972,None,001,11,2019_Jun_06_1336,ACPT_experiment_5_30_19,3.1.0,59.95877035009887,
,,,C,U,d,n,L,D,g,R,i,,,,,5,19,119,6,2,0,2,0,,,,,0,6,6,15,,,,,,up,0.4169829136098997,2844.9752101839767,None,001,11,2019_Jun_06_1336,ACPT_experiment_5_30_19,3.1.0,59.95877035009887,
,,,C,U,d,n,R,G,g,L,c ,,,,,5,19,119,6,2,0,2,0,,,,,0,7,7,6,,,,,,up,0.533737199695679,2846.6598439633763,None,001,11,2019_Jun_06_1336,ACPT_experiment_5_30_19,3.1.0,59.95877035009887,
,,,C,U,d,n,L,U,y,R,u,,,,,5,19,119,6,2,0,2,0,,,,,0,8,8,25,,,,,,down,0.5167836267191888,2848.4948665967167,None,001,11,2019_Jun_06_1336,ACPT_experiment_5_30_19,3.1.0,59.95877035009887,
,,,C,U,d,n,L,D,y,L,y,,,,,5,19,119,6,2,0,2,0,,,,,0,9,9,32,,,,,,down,0.3669719259651174,2850.295972122778,None,001,11,2019_Jun_06_1336,ACPT_experiment_5_30_19,3.1.0,59.95877035009887,
,,,C,U,d,n,R,U,g,R,u,,,,,5,19,119,6,2,0,2,0,,,,,0,10,10,11,,,,,,up,0.3669471735793195,2851.9472514588815,None,001,11,2019_Jun_06_1336,ACPT_experiment_5_30_19,3.1.0,59.95877035009887,
,,,C,U,d,n,R,G,y,L,y,,,,,5,19,119,6,2,0,2,0,,,,,0,11,11,28,,,,,,down,0.5170655624278879,2853.598524154102,None,001,11,2019_Jun_06_1336,ACPT_experiment_5_30_19,3.1.0,59.95877035009887,
,,,C,U,d,n,L,G,d,R,i,,,,,5,19,119,6,2,0,2,0,,,,,0,12,12,17,,,,,,up,0.6001901103954879,2855.416864886991,None,001,11,2019_Jun_06_1336,ACPT_experiment_5_30_19,3.1.0,59.95877035009887,
,,,C,U,d,n,R,D,y,R,y,,,,,5,19,119,6,2,0,2,0,,,,,0,13,13,27,,,,,,down,0.6338059630306816,2857.318059702755,None,001,11,2019_Jun_06_1336,ACPT_experiment_5_30_19,3.1.0,59.95877035009887,
,,,C,U,d,n,R,G,y,R,y,,,,,5,19,119,6,2,0,2,0,,,,,0,14,14,29,,,,,,down,0.5504275521816453,2859.252898745839,None,001,11,2019_Jun_06_1336,ACPT_experiment_5_30_19,3.1.0,59.95877035009887,
,,,C,U,d,n,L,U,d,L,u,,,,,5,19,119,6,2,0,2,0,,,,,0,15,15,20,,,,,,up,0.5504136666986597,2861.087632802586,None,001,11,2019_Jun_06_1336,ACPT_experiment_5_30_19,3.1.0,59.95877035009887,
,,,C,U,d,n,R,D,g,R,i,,,,,5,19,119,6,2,0,2,0,,,,,0,16,16,3,,,,,,up,0.7839445763911499,2862.9223837634017,None,001,11,2019_Jun_06_1336,ACPT_experiment_5_30_19,3.1.0,59.95877035009887,
,,,C,U,d,n,L,G,y,L,y,,,,,5,19,119,6,2,0,2,0,,,,,0,17,17,34,,,,,,down,0.5838001069787424,2864.990640881524,None,001,11,2019_Jun_06_1336,ACPT_experiment_5_30_19,3.1.0,59.95877035009887,
,,,C,U,d,n,L,D,g,L,i,,,,,5,19,119,6,2,0,2,0,,,,,0,18,18,14,,,,,,up,0.6504932969328365,2866.8587490023583,None,001,11,2019_Jun_06_1336,ACPT_experiment_5_30_19,3.1.0,59.95877035009887,
,,,C,U,d,n,L,G,y,R,y,,,,,5,19,119,6,2,0,2,0,,,,,0,19,19,35,,,,,,down,0.5835214917115081,2868.8105105270097,None,001,11,2019_Jun_06_1336,ACPT_experiment_5_30_19,3.1.0,59.95877035009887,
,,,C,U,d,n,R,D,d,L,c,,,,,5,19,119,6,2,0,2,0,,,,,0,20,20,0,,,,,,up,1.2676342635804758,2870.6783632756706,None,001,11,2019_Jun_06_1336,ACPT_experiment_5_30_19,3.1.0,59.95877035009887,
,,,C,U,d,n,R,D,y,L,y,,,,,5,19,119,6,2,0,2,0,,,,,0,21,21,26,,,,,,down,0.5337833840258099,2873.213624860089,None,001,11,2019_Jun_06_1336,ACPT_experiment_5_30_19,3.1.0,59.95877035009887,
,,,C,U,d,n,L,U,d,R,u,,,,,5,19,119,6,2,0,2,0,,,,,0,22,22,21,,,,,,up,0.43368322742026066,2875.0317159561127,None,001,11,2019_Jun_06_1336,ACPT_experiment_5_30_19,3.1.0,59.95877035009887,
,,,C,U,d,n,L,G,g,R,c ,,,,,5,19,119,6,2,0,2,0,,,,,0,23,23,19,,,,,,up,0.6669041285767889,2876.7666610722263,None,001,11,2019_Jun_06_1336,ACPT_experiment_5_30_19,3.1.0,59.95877035009887,
,,,C,U,d,n,L,U,g,R,u,,,,,5,19,119,6,2,0,2,0,,,,,0,24,24,23,,,,,,up,0.45034309221409785,2878.717892533594,None,001,11,2019_Jun_06_1336,ACPT_experiment_5_30_19,3.1.0,59.95877035009887,
,,,C,U,d,n,L,U,y,L,u,,,,,5,19,119,6,2,0,2,0,,,,,0,25,25,24,,,,,,down,0.6005629054725432,2880.452542432231,None,001,11,2019_Jun_06_1336,ACPT_experiment_5_30_19,3.1.0,59.95877035009887,
,,,C,U,d,n,R,G,d,R,i,,,,,5,19,119,6,2,0,2,0,,,,,0,26,26,5,,,,,,up,0.4670210685053462,2882.3540258245866,None,001,11,2019_Jun_06_1336,ACPT_experiment_5_30_19,3.1.0,59.95877035009887,
,,,C,U,d,n,R,G,g,R,c ,,,,,5,19,119,6,2,0,2,0,,,,,0,27,27,7,,,,,,up,0.6001861862368969,2884.1056443891175,None,001,11,2019_Jun_06_1336,ACPT_experiment_5_30_19,3.1.0,59.95877035009887,
,,,C,U,d,n,R,U,d,R,u,,,,,5,19,119,6,2,0,2,0,,,,,0,28,28,9,,,,,,up,0.6671754992439674,2885.9901612285885,None,001,11,2019_Jun_06_1336,ACPT_experiment_5_30_19,3.1.0,59.95877035009887,
,,,C,U,d,n,L,D,d,L,c ,,,,,5,19,119,6,2,0,2,0,,,,,0,29,29,12,,,,,,up,0.7172079188312637,2887.941670097791,None,001,11,2019_Jun_06_1336,ACPT_experiment_5_30_19,3.1.0,59.95877035009887,
,,,C,U,d,n,R,U,y,R,u,,,,,5,19,119,6,2,0,2,0,,,,,0,30,30,31,,,,,,down,0.6504990322428057,2889.9432128958724,None,001,11,2019_Jun_06_1336,ACPT_experiment_5_30_19,3.1.0,59.95877035009887,
,,,C,U,d,n,R,D,g,L,i,,,,,5,19,119,6,2,0,2,0,,,,,0,31,31,2,,,,,,up,0.8840338660920679,2891.878032016306,None,001,11,2019_Jun_06_1336,ACPT_experiment_5_30_19,3.1.0,59.95877035009887,
,,,C,U,d,n,L,G,g,L,c ,,,,,5,19,119,6,2,0,2,0,,,,,0,32,32,18,,,,,,up,0.683830534302615,2894.046395931915,None,001,11,2019_Jun_06_1336,ACPT_experiment_5_30_19,3.1.0,59.95877035009887,
,,,C,U,d,n,L,U,g,L,u,,,,,5,19,119,6,2,0,2,0,,,,,0,33,33,22,,,,,,up,0.6171436833719781,2896.0145556101597,None,001,11,2019_Jun_06_1336,ACPT_experiment_5_30_19,3.1.0,59.95877035009887,
,,,C,U,d,n,R,G,d,L,i,,,,,5,19,119,6,2,0,2,0,,,,,0,34,34,4,,,,,,up,0.4002958815653983,2897.916034172782,None,001,11,2019_Jun_06_1336,ACPT_experiment_5_30_19,3.1.0,59.95877035009887,
,,,C,U,d,n,L,D,d,R,c ,,,,,5,19,119,6,2,0,2,0,,,,,0,35,35,13,,,,,,up,0.5170565066764539,2899.5839791089875,None,001,11,2019_Jun_06_1336,ACPT_experiment_5_30_19,3.1.0,59.95877035009887,
,,,C,U,d,n,L,D,d,R,c ,,,,,5,19,119,6,2,0,2,0,,,,,1,0,36,13,,,,,,up,0.5172113600165176,2901.3685337411243,None,001,11,2019_Jun_06_1336,ACPT_experiment_5_30_19,3.1.0,59.95877035009887,
,,,C,U,d,n,R,G,g,L,c ,,,,,5,19,119,6,2,0,2,0,,,,,1,1,37,6,,,,,,up,0.5334923925656767,2903.1870272143424,None,001,11,2019_Jun_06_1336,ACPT_experiment_5_30_19,3.1.0,59.95877035009887,
,,,C,U,d,n,R,G,g,R,c ,,,,,5,19,119,6,2,0,2,0,,,,,1,2,38,7,,,,,,up,0.5170607326945174,2905.0048218854554,None,001,11,2019_Jun_06_1336,ACPT_experiment_5_30_19,3.1.0,59.95877035009887,
,,,C,U,d,n,R,D,y,L,y,,,,,5,19,119,6,2,0,2,0,,,,,1,3,39,26,,,,,,down,0.6004608773455402,2906.8062111583768,None,001,11,2019_Jun_06_1336,ACPT_experiment_5_30_19,3.1.0,59.95877035009887,
,,,C,U,d,n,L,U,y,R,u,,,,,5,19,119,6,2,0,2,0,,,,,1,4,40,25,,,,,,down,0.9340545132054103,2908.6909924257707,None,001,11,2019_Jun_06_1336,ACPT_experiment_5_30_19,3.1.0,59.95877035009887,
,,,C,U,d,n,R,G,y,L,y,,,,,5,19,119,6,2,0,2,0,,,,,1,5,41,28,,,,,,down,0.5671055284747126,2910.9093700457506,None,001,11,2019_Jun_06_1336,ACPT_experiment_5_30_19,3.1.0,59.95877035009887,
,,,C,U,d,n,L,U,g,R,u,,,,,5,19,119,6,2,0,2,0,,,,,1,6,42,23,,,,,,up,0.467015333197196,2912.760802001443,None,001,11,2019_Jun_06_1336,ACPT_experiment_5_30_19,3.1.0,59.95877035009887,
,,,C,U,d,n,R,U,y,L,u,,,,,5,19,119,6,2,0,2,0,,,,,1,7,43,30,,,,,,down,0.46699510868711513,2914.5121763625593,None,001,11,2019_Jun_06_1336,ACPT_experiment_5_30_19,3.1.0,59.95877035009887,
,,,C,U,d,n,L,G,g,R,c ,,,,,5,19,119,6,2,0,2,0,,,,,1,8,44,19,,,,,,up,0.6002350872913667,2916.2804481509975,None,001,11,2019_Jun_06_1336,ACPT_experiment_5_30_19,3.1.0,59.95877035009887,
,,,C,U,d,n,R,U,y,R,u,,,,,5,19,119,6,2,0,2,0,,,,,1,9,45,31,,,,,,down,0.5504281558987714,2918.164966197901,None,001,11,2019_Jun_06_1336,ACPT_experiment_5_30_19,3.1.0,59.95877035009887,
,,,C,U,d,n,R,D,d,R,c ,,,,,5,19,119,6,2,0,2,0,,,,,1,10,46,1,,,,,,up,0.6838737000471156,2919.9997186680084,None,001,11,2019_Jun_06_1336,ACPT_experiment_5_30_19,3.1.0,59.95877035009887,
,,,C,U,d,n,L,G,g,L,c ,,,,,5,19,119,6,2,0,2,0,,,,,1,11,47,18,,,,,,up,0.5837819954758743,2921.9678997781957,None,001,11,2019_Jun_06_1336,ACPT_experiment_5_30_19,3.1.0,59.95877035009887,
,,,C,U,d,n,L,D,g,R,i,,,,,5,19,119,6,2,0,2,0,,,,,1,12,48,15,,,,,,up,0.4503560721223039,2923.836012125048,None,001,11,2019_Jun_06_1336,ACPT_experiment_5_30_19,3.1.0,59.95877035009887,
,,,C,U,d,n,R,G,d,L,i,,,,,5,19,119,6,2,0,2,0,,,,,1,13,49,4,,,,,,up,0.40029708899783145,2925.5706837574853,None,001,11,2019_Jun_06_1336,ACPT_experiment_5_30_19,3.1.0,59.95877035009887,
,,,C,U,d,n,L,U,y,L,u,,,,,5,19,119,6,2,0,2,0,,,,,1,14,50,24,,,,,,down,0.6504932969328365,2927.2719921927364,None,001,11,2019_Jun_06_1336,ACPT_experiment_5_30_19,3.1.0,59.95877035009887,
,,,C,U,d,n,L,G,d,R,i,,,,,5,19,119,6,2,0,2,0,,,,,1,15,51,17,,,,,,up,0.43363825052620086,2929.2401938292915,None,001,11,2019_Jun_06_1336,ACPT_experiment_5_30_19,3.1.0,59.95877035009887,
,,,C,U,d,n,R,D,y,R,y,,,,,5,19,119,6,2,0,2,0,,,,,1,16,52,27,,,,,,down,0.46702408708915755,2930.95816273305,None,001,11,2019_Jun_06_1336,ACPT_experiment_5_30_19,3.1.0,59.95877035009887,
,,,C,U,d,n,L,G,y,L,y,,,,,5,19,119,6,2,0,2,0,,,,,1,17,53,34,,,,,,down,0.5838227463555086,2932.7095150585064,None,001,11,2019_Jun_06_1336,ACPT_experiment_5_30_19,3.1.0,59.95877035009887,
,,,C,U,d,n,R,U,d,L,u,,,,,5,19,119,6,2,0,2,0,,,,,1,18,54,8,,,,,,up,0.63381350949021,2934.577626499784,None,001,11,2019_Jun_06_1336,ACPT_experiment_5_30_19,3.1.0,59.95877035009887,
,,,C,U,d,n,R,D,g,R,i,,,,,5,19,119,6,2,0,2,0,,,,,1,19,55,3,,,,,,up,0.4336494192848477,2936.51245980756,None,001,11,2019_Jun_06_1336,ACPT_experiment_5_30_19,3.1.0,59.95877035009887,
,,,C,U,d,n,R,G,y,R,y,,,,,5,19,119,6,2,0,2,0,,,,,1,20,56,29,,,,,,down,0.5003857749852614,2938.2304380689275,None,001,11,2019_Jun_06_1336,ACPT_experiment_5_30_19,3.1.0,59.95877035009887,
,,,C,U,d,n,L,G,d,L,i,,,,,5,19,119,6,2,0,2,0,,,,,1,21,57,16,,,,,,up,0.5337474628795462,2940.015141215379,None,001,11,2019_Jun_06_1336,ACPT_experiment_5_30_19,3.1.0,59.95877035009887,
,,,C,U,d,n,L,D,y,R,y,,,,,5,19,119,6,2,0,2,0,,,,,1,22,58,33,,,,,,down,0.41700223254520097,2941.8331948809664,None,001,11,2019_Jun_06_1336,ACPT_experiment_5_30_19,3.1.0,59.95877035009887,
,,,C,U,d,n,R,U,g,R,u,,,,,5,19,119,6,2,0,2,0,,,,,1,23,59,11,,,,,,up,0.5001282898028876,2943.5514632282193,None,001,11,2019_Jun_06_1336,ACPT_experiment_5_30_19,3.1.0,59.95877035009887,
,,,C,U,d,n,R,U,d,R,u,,,,,5,19,119,6,2,0,2,0,,,,,1,24,60,9,,,,,,up,0.4503433940717514,2945.335917945238,None,001,11,2019_Jun_06_1336,ACPT_experiment_5_30_19,3.1.0,59.95877035009887,
,,,C,U,d,n,L,G,y,R,y,,,,,5,19,119,6,2,0,2,0,,,,,1,25,61,35,,,,,,down,0.45032528256888327,2947.070603463162,None,001,11,2019_Jun_06_1336,ACPT_experiment_5_30_19,3.1.0,59.95877035009887,
,,,C,U,d,n,R,U,g,L,u,,,,,5,19,119,6,2,0,2,0,,,,,1,26,62,10,,,,,,up,0.6004910631818348,2948.805257285956,None,001,11,2019_Jun_06_1336,ACPT_experiment_5_30_19,3.1.0,59.95877035009887,
,,,C,U,d,n,L,D,d,L,c ,,,,,5,19,119,6,2,0,2,0,,,,,1,27,63,12,,,,,,up,0.5969327568236622,2950.710206917869,None,001,11,2019_Jun_06_1336,ACPT_experiment_5_30_19,3.1.0,59.95877035009887,
,,,C,U,d,n,R,D,g,L,i,,,,,5,19,119,6,2,0,2,0,,,,,1,28,64,2,,,,,,up,0.633818037364108,2952.5915140973902,None,001,11,2019_Jun_06_1336,ACPT_experiment_5_30_19,3.1.0,59.95877035009887,
,,,C,U,d,n,L,U,d,L,u,,,,,5,19,119,6,2,0,2,0,,,,,1,29,65,20,,,,,,up,0.4670307279739063,2954.5096534303793,None,001,11,2019_Jun_06_1336,ACPT_experiment_5_30_19,3.1.0,59.95877035009887,
,,,C,U,d,n,L,D,g,L,i,,,,,5,19,119,6,2,0,2,0,,,,,1,30,66,14,,,,,,up,0.4503415829221922,2956.2610015298196,None,001,11,2019_Jun_06_1336,ACPT_experiment_5_30_19,3.1.0,59.95877035009887,
,,,C,U,d,n,R,D,d,L,c,,,,,5,19,119,6,2,0,2,0,,,,,1,31,67,0,,,,,,up,0.5337230123532208,2958.0123680426186,None,001,11,2019_Jun_06_1336,ACPT_experiment_5_30_19,3.1.0,59.95877035009887,
,,,C,U,d,n,L,U,g,L,u,,,,,5,19,119,6,2,0,2,0,,,,,1,32,68,22,,,,,,up,0.6337953979873419,2959.830445555015,None,001,11,2019_Jun_06_1336,ACPT_experiment_5_30_19,3.1.0,59.95877035009887,
,,,C,U,d,n,L,U,d,R,u,,,,,5,19,119,6,2,0,2,0,,,,,1,33,69,21,,,,,,up,0.6504087765915756,2961.731871292426,None,001,11,2019_Jun_06_1336,ACPT_experiment_5_30_19,3.1.0,59.95877035009887,
,,,C,U,d,n,R,G,d,R,i,,,,,5,19,119,6,2,0,2,0,,,,,1,34,70,5,,,,,,up,0.5504224205888022,2963.6667136559518,None,001,11,2019_Jun_06_1336,ACPT_experiment_5_30_19,3.1.0,59.95877035009887,
,,,C,U,d,n,L,D,y,L,y,,,,,5,19,119,6,2,0,2,0,,,,,1,35,71,32,,,,,,down,0.583796484679624,2965.518148026511,None,001,11,2019_Jun_06_1336,ACPT_experiment_5_30_19,3.1.0,59.95877035009887,
,,,C,U,d,n,,,,,,,,,,5,19,119,6,3,0,3,0,0,0,0,0,,,,,,,,,,,,,,001,11,2019_Jun_06_1336,ACPT_experiment_5_30_19,3.1.0,59.95877035009887,
,,,C,U,d,n,L,D,g,L,i,,,,,5,19,119,6,3,0,3,0,,,,,0,0,0,14,,,,,,up,0.9007124461040803,2969.888151214136,None,001,11,2019_Jun_06_1336,ACPT_experiment_5_30_19,3.1.0,59.95877035009887,
,,,C,U,d,n,R,G,y,L,y,,,,,5,19,119,6,3,0,3,0,,,,,0,1,1,28,,,,,,down,0.6671736880925891,2972.073194011613,None,001,11,2019_Jun_06_1336,ACPT_experiment_5_30_19,3.1.0,59.95877035009887,
,,,C,U,d,n,R,D,y,L,y,,,,,5,19,119,6,3,0,3,0,,,,,0,2,2,26,,,,,,down,0.6004587643383275,2974.024700767808,None,001,11,2019_Jun_06_1336,ACPT_experiment_5_30_19,3.1.0,59.95877035009887,
,,,C,U,d,n,R,G,g,R,c ,,,,,5,19,119,6,3,0,3,0,,,,,0,3,3,7,,,,,,up,0.5170459416349331,2975.9095013541373,None,001,11,2019_Jun_06_1336,ACPT_experiment_5_30_19,3.1.0,59.95877035009887,
,,,C,U,d,n,R,G,g,L,c ,,,,,5,19,119,6,3,0,3,0,,,,,0,4,4,6,,,,,,up,0.467049141334428,2977.7108806657307,None,001,11,2019_Jun_06_1336,ACPT_experiment_5_30_19,3.1.0,59.95877035009887,
,,,C,U,d,n,L,U,y,R,u,,,,,5,19,119,6,3,0,3,0,,,,,0,5,5,25,,,,,,down,0.5337649706652883,2979.462223633578,None,001,11,2019_Jun_06_1336,ACPT_experiment_5_30_19,3.1.0,59.95877035009887,
,,,C,U,d,n,L,U,g,R,u,,,,,5,19,119,6,3,0,3,0,,,,,0,6,6,23,,,,,,up,0.767261770362893,2981.280295108809,None,001,11,2019_Jun_06_1336,ACPT_experiment_5_30_19,3.1.0,59.95877035009887,
,,,C,U,d,n,R,U,g,L,u,,,,,5,19,119,6,3,0,3,0,,,,,0,7,7,10,,,,,,up,1.083929000498756,2983.3487946191945,None,001,11,2019_Jun_06_1336,ACPT_experiment_5_30_19,3.1.0,59.95877035009887,
,,,C,U,d,n,L,G,y,L,y,,,,,5,19,119,6,3,0,3,0,,,,,0,8,8,34,,,,,,down,0.5671441663453152,2985.7170461227506,None,001,11,2019_Jun_06_1336,ACPT_experiment_5_30_19,3.1.0,59.95877035009887,
,,,C,U,d,n,R,U,g,R,u,,,,,5,19,119,6,3,0,3,0,,,,,0,9,9,11,,,,,,up,0.6505171437438548,2987.5684491000393,None,001,11,2019_Jun_06_1336,ACPT_experiment_5_30_19,3.1.0,59.95877035009887,
,,,C,U,d,n,R,G,y,R,y,,,,,5,19,119,6,3,0,3,0,,,,,0,10,10,29,,,,,,down,0.5336753187330032,2989.5032706353395,None,001,11,2019_Jun_06_1336,ACPT_experiment_5_30_19,3.1.0,59.95877035009887,
,,,C,U,d,n,L,D,d,L,c ,,,,,5,19,119,6,3,0,3,0,,,,,0,11,11,12,,,,,,up,0.583775656452417,2991.321368372248,None,001,11,2019_Jun_06_1336,ACPT_experiment_5_30_19,3.1.0,59.95877035009887,
,,,C,U,d,n,L,D,y,R,y,,,,,5,19,119,6,3,0,3,0,,,,,0,12,12,33,,,,,,down,0.5337296532379696,2993.206157487959,None,001,11,2019_Jun_06_1336,ACPT_experiment_5_30_19,3.1.0,59.95877035009887,
,,,C,U,d,n,R,D,g,R,i,,,,,5,19,119,6,3,0,3,0,,,,,0,13,13,3,,,,,,up,0.733898271319049,2995.040902411607,None,001,11,2019_Jun_06_1336,ACPT_experiment_5_30_19,3.1.0,59.95877035009887,
,,,C,U,d,n,L,D,d,R,c ,,,,,5,19,119,6,3,0,3,0,,,,,0,14,14,13,,,,,,up,0.5337429350056482,2997.0591231859835,None,001,11,2019_Jun_06_1336,ACPT_experiment_5_30_19,3.1.0,59.95877035009887,
,,,C,U,d,n,R,D,d,R,c ,,,,,5,19,119,6,3,0,3,0,,,,,0,15,15,1,,,,,,up,0.5670919448493805,2998.8771964723637,None,001,11,2019_Jun_06_1336,ACPT_experiment_5_30_19,3.1.0,59.95877035009887,
,,,C,U,d,n,R,U,d,L,u,,,,,5,19,119,6,3,0,3,0,,,,,0,16,16,8,,,,,,up,0.8172860397753539,3000.728624503896,None,001,11,2019_Jun_06_1336,ACPT_experiment_5_30_19,3.1.0,59.95877035009887,
,,,C,U,d,n,R,D,d,L,c,,,,,5,19,119,6,3,0,3,0,,,,,0,17,17,0,,,,,,up,1.1340939359070035,3002.830241498763,None,001,11,2019_Jun_06_1336,ACPT_experiment_5_30_19,3.1.0,59.95877035009887,
,,,C,U,d,n,R,U,y,R,u,,,,,5,19,119,6,3,0,3,0,,,,,0,18,18,31,,,,,,down,0.6671794234025583,3005.248775360631,None,001,11,2019_Jun_06_1336,ACPT_experiment_5_30_19,3.1.0,59.95877035009887,
,,,C,U,d,n,R,U,y,L,u,,,,,5,19,119,6,3,0,3,0,,,,,0,19,19,30,,,,,,down,0.7005350741310394,3007.2002784945234,None,001,11,2019_Jun_06_1336,ACPT_experiment_5_30_19,3.1.0,59.95877035009887,
,,,C,U,d,n,L,D,g,R,i,,,,,5,19,119,6,3,0,3,0,,,,,0,20,20,15,,,,,,up,0.9840977996936999,3009.18514029773,None,001,11,2019_Jun_06_1336,ACPT_experiment_5_30_19,3.1.0,59.95877035009887,
,,,C,U,d,n,R,G,d,R,i,,,,,5,19,119,6,3,0,3,0,,,,,0,21,21,5,,,,,,up,1.2676683735753613,3011.453556374465,None,001,11,2019_Jun_06_1336,ACPT_experiment_5_30_19,3.1.0,59.95877035009887,
,,,C,U,d,n,R,D,y,R,y,,,,,5,19,119,6,3,0,3,0,,,,,0,22,22,27,,,,,,down,0.7505641732750519,3014.005533063755,None,001,11,2019_Jun_06_1336,ACPT_experiment_5_30_19,3.1.0,59.95877035009887,
,,,C,U,d,n,L,G,y,R,y,,,,,5,19,119,6,3,0,3,0,,,,,0,23,23,35,,,,,,down,0.6338364507264487,3016.040422154956,None,001,11,2019_Jun_06_1336,ACPT_experiment_5_30_19,3.1.0,59.95877035009887,
,,,C,U,d,n,R,G,d,L,i,,,,,5,19,119,6,3,0,3,0,,,,,0,24,24,4,,,,,,up,0.5670976801575307,3017.958567525113,None,001,11,2019_Jun_06_1336,ACPT_experiment_5_30_19,3.1.0,59.95877035009887,
,,,C,U,d,n,L,U,g,L,u,,,,,5,19,119,6,3,0,3,0,,,,,0,25,25,22,,,,,,up,0.5838375374150928,3019.8099949529296,None,001,11,2019_Jun_06_1336,ACPT_experiment_5_30_19,3.1.0,59.95877035009887,
,,,C,U,d,n,R,U,d,R,u,,,,,5,19,119,6,3,0,3,0,,,,,0,26,26,9,,,,,,up,0.4499488651927095,3021.6951773900855,None,001,11,2019_Jun_06_1336,ACPT_experiment_5_30_19,3.1.0,59.95877035009887,
,,,C,U,d,n,L,U,y,L,u,,,,,5,19,119,6,3,0,3,0,,,,,0,27,27,24,,,,,,down,0.5838025218454277,3023.4294547955033,None,001,11,2019_Jun_06_1336,ACPT_experiment_5_30_19,3.1.0,59.95877035009887,
,,,C,U,d,n,L,G,d,L,i,,,,,5,19,119,6,3,0,3,0,,,,,0,28,28,16,,,,,,up,0.8006488143601018,3025.297559595896,None,001,11,2019_Jun_06_1336,ACPT_experiment_5_30_19,3.1.0,59.95877035009887,
,,,C,U,d,n,L,G,d,R,i,,,,,5,19,119,6,3,0,3,0,,,,,0,29,29,17,,,,,,up,0.5671194139595173,3027.365797395083,None,001,11,2019_Jun_06_1336,ACPT_experiment_5_30_19,3.1.0,59.95877035009887,
,,,C,U,d,n,R,D,g,L,i,,,,,5,19,119,6,3,0,3,0,,,,,0,30,30,2,,,,,,up,0.6004542364607914,3029.2172510845776,None,001,11,2019_Jun_06_1336,ACPT_experiment_5_30_19,3.1.0,59.95877035009887,
,,,C,U,d,n,L,G,g,L,c ,,,,,5,19,119,6,3,0,3,0,,,,,0,31,31,18,,,,,,up,0.6338307154164795,3031.1020386909986,None,001,11,2019_Jun_06_1336,ACPT_experiment_5_30_19,3.1.0,59.95877035009887,
,,,C,U,d,n,L,U,d,R,u,,,,,5,19,119,6,3,0,3,0,,,,,0,32,32,21,,,,,,up,0.6004267673506547,3033.0202015689392,None,001,11,2019_Jun_06_1336,ACPT_experiment_5_30_19,3.1.0,59.95877035009887,
,,,C,U,d,n,L,U,d,L,u,,,,,5,19,119,6,3,0,3,0,,,,,0,33,33,20,,,,,,up,0.517061638269297,3034.9049659322664,None,001,11,2019_Jun_06_1336,ACPT_experiment_5_30_19,3.1.0,59.95877035009887,
,,,C,U,d,n,L,D,y,L,y,,,,,5,19,119,6,3,0,3,0,,,,,0,34,34,32,,,,,,down,0.6004536327454844,3036.7063576200526,None,001,11,2019_Jun_06_1336,ACPT_experiment_5_30_19,3.1.0,59.95877035009887,
,,,C,U,d,n,L,G,g,R,c ,,,,,5,19,119,6,3,0,3,0,,,,,0,35,35,19,,,,,,up,0.5837792787515355,3038.5911410004555,None,001,11,2019_Jun_06_1336,ACPT_experiment_5_30_19,3.1.0,59.95877035009887,
,,,C,U,d,n,R,U,y,R,u,,,,,5,19,119,6,3,0,3,0,,,,,1,0,36,31,,,,,,down,0.5003655504751805,3040.4592494231492,None,001,11,2019_Jun_06_1336,ACPT_experiment_5_30_19,3.1.0,59.95877035009887,
,,,C,U,d,n,L,D,y,L,y,,,,,5,19,119,6,3,0,3,0,,,,,1,1,37,32,,,,,,down,0.8673462303322594,3042.243961323493,None,001,11,2019_Jun_06_1336,ACPT_experiment_5_30_19,3.1.0,59.95877035009887,
,,,C,U,d,n,R,D,y,L,y,,,,,5,19,119,6,3,0,3,0,,,,,1,2,38,26,,,,,,down,0.7505677955778083,3044.412295958842,None,001,11,2019_Jun_06_1336,ACPT_experiment_5_30_19,3.1.0,59.95877035009887,
,,,C,U,d,n,L,D,d,R,c ,,,,,5,19,119,6,3,0,3,0,,,,,1,3,39,13,,,,,,up,0.6671697639339982,3046.4638787229705,None,001,11,2019_Jun_06_1336,ACPT_experiment_5_30_19,3.1.0,59.95877035009887,
,,,C,U,d,n,R,D,d,R,c ,,,,,5,19,119,6,3,0,3,0,,,,,1,4,40,1,,,,,,up,0.5670982838746568,3048.4153857810234,None,001,11,2019_Jun_06_1336,ACPT_experiment_5_30_19,3.1.0,59.95877035009887,
,,,C,U,d,n,L,U,g,R,u,,,,,5,19,119,6,3,0,3,0,,,,,1,5,41,23,,,,,,up,1.3677178179750626,3050.266809888397,None,001,11,2019_Jun_06_1336,ACPT_experiment_5_30_19,3.1.0,59.95877035009887,
,,,C,U,d,n,R,G,d,L,i,,,,,5,19,119,6,3,0,3,0,,,,,1,6,42,4,,,,,,up,0.6505198604681937,3052.918855341022,None,001,11,2019_Jun_06_1336,ACPT_experiment_5_30_19,3.1.0,59.95877035009887,
,,,C,U,d,n,L,U,d,L,u,,,,,5,19,119,6,3,0,3,0,,,,,1,7,43,20,,,,,,up,0.5170595252602652,3054.8536783856143,None,001,11,2019_Jun_06_1336,ACPT_experiment_5_30_19,3.1.0,59.95877035009887,
,,,C,U,d,n,R,G,y,L,y,,,,,5,19,119,6,3,0,3,0,,,,,1,8,44,28,,,,,,down,0.6171460982386634,3056.6550504526076,None,001,11,2019_Jun_06_1336,ACPT_experiment_5_30_19,3.1.0,59.95877035009887,
,,,C,U,d,n,L,D,g,L,i,,,,,5,19,119,6,3,0,3,0,,,,,1,9,45,14,,,,,,up,0.7672563369123964,3058.556532637531,None,001,11,2019_Jun_06_1336,ACPT_experiment_5_30_19,3.1.0,59.95877035009887,
,,,C,U,d,n,L,U,d,R,u,,,,,5,19,119,6,3,0,3,0,,,,,1,10,46,21,,,,,,up,0.617125571870929,3060.608125061128,None,001,11,2019_Jun_06_1336,ACPT_experiment_5_30_19,3.1.0,59.95877035009887,
,,,C,U,d,n,L,U,g,L,u,,,,,5,19,119,6,3,0,3,0,,,,,1,11,47,22,,,,,,up,0.5004063013529958,3062.4928788594116,None,001,11,2019_Jun_06_1336,ACPT_experiment_5_30_19,3.1.0,59.95877035009887,
,,,C,U,d,n,R,D,y,R,y,,,,,5,19,119,6,3,0,3,0,,,,,1,12,48,27,,,,,,down,1.9181444645819283,3064.2776115879806,None,001,11,2019_Jun_06_1336,ACPT_experiment_5_30_19,3.1.0,59.95877035009887,
,,,C,U,d,n,L,D,d,L,c ,,,,,5,19,119,6,3,0,3,0,,,,,1,13,49,12,,,,,,up,0.6838607201370905,3067.4800809704866,None,001,11,2019_Jun_06_1336,ACPT_experiment_5_30_19,3.1.0,59.95877035009887,
,,,C,U,d,n,L,D,g,R,i,,,,,5,19,119,6,3,0,3,0,,,,,1,14,50,15,,,,,,up,0.41702849422108557,3069.4315626724365,None,001,11,2019_Jun_06_1336,ACPT_experiment_5_30_19,3.1.0,59.95877035009887,
,,,C,U,d,n,L,G,g,R,c ,,,,,5,19,119,6,3,0,3,0,,,,,1,15,51,19,,,,,,up,0.46701986107291305,3071.132897671223,None,001,11,2019_Jun_06_1336,ACPT_experiment_5_30_19,3.1.0,59.95877035009887,
,,,C,U,d,n,L,G,d,L,i,,,,,5,19,119,6,3,0,3,0,,,,,1,16,52,16,,,,,,up,0.4336587768939353,3072.8842463743804,None,001,11,2019_Jun_06_1336,ACPT_experiment_5_30_19,3.1.0,59.95877035009887,
,,,C,U,d,n,L,U,y,R,u,,,,,5,19,119,6,3,0,3,0,,,,,1,17,53,25,,,,,,down,0.5504200057221169,3074.6022409360994,None,001,11,2019_Jun_06_1336,ACPT_experiment_5_30_19,3.1.0,59.95877035009887,
,,,C,U,d,n,R,D,g,L,i,,,,,5,19,119,6,3,0,3,0,,,,,1,18,54,2,,,,,,up,0.4835915832227329,3076.4369843504555,None,001,11,2019_Jun_06_1336,ACPT_experiment_5_30_19,3.1.0,59.95877035009887,
,,,C,U,d,n,L,G,y,R,y,,,,,5,19,119,6,3,0,3,0,,,,,1,19,55,35,,,,,,down,0.5669147539920232,3078.2385435696324,None,001,11,2019_Jun_06_1336,ACPT_experiment_5_30_19,3.1.0,59.95877035009887,
,,,C,U,d,n,L,D,y,R,y,,,,,5,19,119,6,3,0,3,0,,,,,1,20,56,33,,,,,,down,0.5170459416349331,3080.10649110182,None,001,11,2019_Jun_06_1336,ACPT_experiment_5_30_19,3.1.0,59.95877035009887,
,,,C,U,d,n,R,D,d,L,c,,,,,5,19,119,6,3,0,3,0,,,,,1,21,57,0,,,,,,up,0.4670074848800141,3081.907883695181,None,001,11,2019_Jun_06_1336,ACPT_experiment_5_30_19,3.1.0,59.95877035009887,
,,,C,U,d,n,R,U,g,L,u,,,,,5,19,119,6,3,0,3,0,,,,,1,22,58,10,,,,,,up,0.41699166750186123,3083.6592194184286,None,001,11,2019_Jun_06_1336,ACPT_experiment_5_30_19,3.1.0,59.95877035009887,
,,,C,U,d,n,R,G,g,R,c ,,,,,5,19,119,6,3,0,3,0,,,,,1,23,59,7,,,,,,up,0.4500834940226923,3085.3774898786905,None,001,11,2019_Jun_06_1336,ACPT_experiment_5_30_19,3.1.0,59.95877035009887,
,,,C,U,d,n,R,G,d,R,i,,,,,5,19,119,6,3,0,3,0,,,,,1,24,60,5,,,,,,up,0.43368503857163887,3087.0951801671818,None,001,11,2019_Jun_06_1336,ACPT_experiment_5_30_19,3.1.0,59.95877035009887,
,,,C,U,d,n,R,U,d,R,u,,,,,5,19,119,6,3,0,3,0,,,,,1,25,61,9,,,,,,up,0.46705125434345973,3088.8131907273946,None,001,11,2019_Jun_06_1336,ACPT_experiment_5_30_19,3.1.0,59.95877035009887,
,,,C,U,d,n,R,G,y,R,y,,,,,5,19,119,6,3,0,3,0,,,,,1,26,62,29,,,,,,down,0.5837530170738319,3090.5645572401936,None,001,11,2019_Jun_06_1336,ACPT_experiment_5_30_19,3.1.0,59.95877035009887,
,,,C,U,d,n,L,G,y,L,y,,,,,5,19,119,6,3,0,3,0,,,,,1,27,63,34,,,,,,down,0.6168949520815659,3092.4495721459607,None,001,11,2019_Jun_06_1336,ACPT_experiment_5_30_19,3.1.0,59.95877035009887,
,,,C,U,d,n,L,G,d,R,i,,,,,5,19,119,6,3,0,3,0,,,,,1,28,64,17,,,,,,up,0.5170534880944615,3094.3507983549935,None,001,11,2019_Jun_06_1336,ACPT_experiment_5_30_19,3.1.0,59.95877035009887,
,,,C,U,d,n,L,U,y,L,u,,,,,5,19,119,6,3,0,3,0,,,,,1,29,65,24,,,,,,down,0.5837922586615605,3096.168843870404,None,001,11,2019_Jun_06_1336,ACPT_experiment_5_30_19,3.1.0,59.95877035009887,
,,,C,U,d,n,L,G,g,L,c ,,,,,5,19,119,6,3,0,3,0,,,,,1,30,66,18,,,,,,up,0.6504926932175294,3098.053648380892,None,001,11,2019_Jun_06_1336,ACPT_experiment_5_30_19,3.1.0,59.95877035009887,
,,,C,U,d,n,R,D,g,R,i,,,,,5,19,119,6,3,0,3,0,,,,,1,31,67,3,,,,,,up,0.6504993341004592,3099.9884762552174,None,001,11,2019_Jun_06_1336,ACPT_experiment_5_30_19,3.1.0,59.95877035009887,
,,,C,U,d,n,R,G,g,L,c ,,,,,5,19,119,6,3,0,3,0,,,,,1,32,68,6,,,,,,up,0.6171406647899857,3101.923301110961,None,001,11,2019_Jun_06_1336,ACPT_experiment_5_30_19,3.1.0,59.95877035009887,
,,,C,U,d,n,R,U,y,L,u,,,,,5,19,119,6,3,0,3,0,,,,,1,33,69,30,,,,,,down,0.7339015917605138,3103.8247648825236,None,001,11,2019_Jun_06_1336,ACPT_experiment_5_30_19,3.1.0,59.95877035009887,
,,,C,U,d,n,R,U,d,L,u,,,,,5,19,119,6,3,0,3,0,,,,,1,34,70,8,,,,,,up,0.5837786750344094,3105.8429889773415,None,001,11,2019_Jun_06_1336,ACPT_experiment_5_30_19,3.1.0,59.95877035009887,
,,,C,U,d,n,R,U,g,R,u,,,,,5,19,119,6,3,0,3,0,,,,,1,35,71,11,,,,,,up,0.9173768387699965,3107.7110943814514,None,001,11,2019_Jun_06_1336,ACPT_experiment_5_30_19,3.1.0,59.95877035009887,
,,,C,U,d,n,,,,,,,,,,5,19,119,6,4,0,4,0,0,0,0,0,,,,,,,,,,,,,,001,11,2019_Jun_06_1336,ACPT_experiment_5_30_19,3.1.0,59.95877035009887,
,,,C,U,d,n,R,G,d,L,i,,,,,5,19,119,6,4,0,4,0,,,,,0,0,0,4,,,,,,up,0.5835100210952078,3113.1155399099025,None,001,11,2019_Jun_06_1336,ACPT_experiment_5_30_19,3.1.0,59.95877035009887,
,,,C,U,d,n,L,D,d,R,c ,,,,,5,19,119,6,4,0,4,0,,,,,0,1,1,13,,,,,,up,0.5837705248595739,3114.983376358212,None,001,11,2019_Jun_06_1336,ACPT_experiment_5_30_19,3.1.0,59.95877035009887,
,,,C,U,d,n,R,U,y,R,u,,,,,5,19,119,6,4,0,4,0,,,,,0,2,2,31,,,,,,down,0.5337556130562007,3116.8514742158623,None,001,11,2019_Jun_06_1336,ACPT_experiment_5_30_19,3.1.0,59.95877035009887,
,,,C,U,d,n,L,U,d,L,u,,,,,5,19,119,6,4,0,4,0,,,,,0,3,3,20,,,,,,up,0.8339594881945231,3118.669556557994,None,001,11,2019_Jun_06_1336,ACPT_experiment_5_30_19,3.1.0,59.95877035009887,
,,,C,U,d,n,R,D,y,L,y,,,,,5,19,119,6,4,0,4,0,,,,,0,4,4,26,,,,,,down,0.6338168299316749,3120.787846397563,None,001,11,2019_Jun_06_1336,ACPT_experiment_5_30_19,3.1.0,59.95877035009887,
,,,C,U,d,n,R,G,d,R,i,,,,,5,19,119,6,4,0,4,0,,,,,0,5,5,5,,,,,,up,0.45035305353849253,3122.7059917677198,None,001,11,2019_Jun_06_1336,ACPT_experiment_5_30_19,3.1.0,59.95877035009887,
,,,C,U,d,n,R,G,g,L,c ,,,,,5,19,119,6,4,0,4,0,,,,,0,6,6,6,,,,,,up,0.4003254636845668,3124.4239561436025,None,001,11,2019_Jun_06_1336,ACPT_experiment_5_30_19,3.1.0,59.95877035009887,
,,,C,U,d,n,L,G,d,L,i,,,,,5,19,119,6,4,0,4,0,,,,,0,7,7,16,,,,,,up,0.4333883118015365,3126.125564022348,None,001,11,2019_Jun_06_1336,ACPT_experiment_5_30_19,3.1.0,59.95877035009887,
,,,C,U,d,n,R,U,d,R,u,,,,,5,19,119,6,4,0,4,0,,,,,0,8,8,9,,,,,,up,0.5003761155185202,3127.8432860059675,None,001,11,2019_Jun_06_1336,ACPT_experiment_5_30_19,3.1.0,59.95877035009887,
,,,C,U,d,n,L,G,y,L,y,,,,,5,19,119,6,4,0,4,0,,,,,0,9,9,34,,,,,,down,0.5837982958273642,3129.6279680223324,None,001,11,2019_Jun_06_1336,ACPT_experiment_5_30_19,3.1.0,59.95877035009887,
,,,C,U,d,n,L,U,g,L,u,,,,,5,19,119,6,4,0,4,0,,,,,0,10,10,22,,,,,,up,0.5504203075815894,3131.4960969713957,None,001,11,2019_Jun_06_1336,ACPT_experiment_5_30_19,3.1.0,59.95877035009887,
,,,C,U,d,n,R,U,d,L,u,,,,,5,19,119,6,4,0,4,0,,,,,0,11,11,8,,,,,,up,0.48349951642194355,3133.3644408436103,None,001,11,2019_Jun_06_1336,ACPT_experiment_5_30_19,3.1.0,59.95877035009887,
,,,C,U,d,n,L,D,g,R,i,,,,,5,19,119,6,4,0,4,0,,,,,0,12,12,15,,,,,,up,0.5003990567529399,3135.1322163769037,None,001,11,2019_Jun_06_1336,ACPT_experiment_5_30_19,3.1.0,59.95877035009887,
,,,C,U,d,n,L,G,g,R,c ,,,,,5,19,119,6,4,0,4,0,,,,,0,13,13,19,,,,,,up,0.8673368727231718,3136.9169460868907,None,001,11,2019_Jun_06_1336,ACPT_experiment_5_30_19,3.1.0,59.95877035009887,
,,,C,U,d,n,L,U,g,R,u,,,,,5,19,119,6,4,0,4,0,,,,,0,14,14,23,,,,,,up,0.5671052266170591,3139.0686015385127,None,001,11,2019_Jun_06_1336,ACPT_experiment_5_30_19,3.1.0,59.95877035009887,
,,,C,U,d,n,L,D,y,L,y,,,,,5,19,119,6,4,0,4,0,,,,,0,15,15,32,,,,,,down,0.7170521599182393,3140.9368684368455,None,001,11,2019_Jun_06_1336,ACPT_experiment_5_30_19,3.1.0,59.95877035009887,
,,,C,U,d,n,R,U,y,L,u,,,,,5,19,119,6,4,0,4,0,,,,,0,16,16,30,,,,,,down,0.6338107927640522,3142.93825426858,None,001,11,2019_Jun_06_1336,ACPT_experiment_5_30_19,3.1.0,59.95877035009887,
,,,C,U,d,n,L,G,d,R,i,,,,,5,19,119,6,4,0,4,0,,,,,0,17,17,17,,,,,,up,0.5337359922632459,3144.8730782187467,None,001,11,2019_Jun_06_1336,ACPT_experiment_5_30_19,3.1.0,59.95877035009887,
,,,C,U,d,n,L,U,d,R,u,,,,,5,19,119,6,4,0,4,0,,,,,0,18,18,21,,,,,,up,0.5334561695635784,3146.7081050781035,None,001,11,2019_Jun_06_1336,ACPT_experiment_5_30_19,3.1.0,59.95877035009887,
,,,C,U,d,n,L,D,d,L,c ,,,,,5,19,119,6,4,0,4,0,,,,,0,19,19,12,,,,,,up,0.5504242317401804,3148.525892806474,None,001,11,2019_Jun_06_1336,ACPT_experiment_5_30_19,3.1.0,59.95877035009887,
,,,C,U,d,n,R,D,g,L,i,,,,,5,19,119,6,4,0,4,0,,,,,0,20,20,2,,,,,,up,0.5003957363096561,3150.3606467858735,None,001,11,2019_Jun_06_1336,ACPT_experiment_5_30_19,3.1.0,59.95877035009887,
,,,C,U,d,n,R,D,d,L,c,,,,,5,19,119,6,4,0,4,0,,,,,0,21,21,0,,,,,,up,0.4504028601695609,3152.1286472036445,None,001,11,2019_Jun_06_1336,ACPT_experiment_5_30_19,3.1.0,59.95877035009887,
,,,C,U,d,n,R,G,g,R,c ,,,,,5,19,119,6,4,0,4,0,,,,,0,22,22,7,,,,,,up,0.8306526298492827,3153.883357401508,None,001,11,2019_Jun_06_1336,ACPT_experiment_5_30_19,3.1.0,59.95877035009887,
,,,C,U,d,n,L,U,y,L,u,,,,,5,19,119,6,4,0,4,0,,,,,0,23,23,24,,,,,,down,2.702105945041694,3155.998296009553,None,001,11,2019_Jun_06_1336,ACPT_experiment_5_30_19,3.1.0,59.95877035009887,
,,,C,U,d,n,L,G,y,R,y,,,,,5,19,119,6,4,0,4,0,,,,,0,24,24,35,,,,,,down,0.6338129057730839,3159.9847301929603,None,001,11,2019_Jun_06_1336,ACPT_experiment_5_30_19,3.1.0,59.95877035009887,
,,,C,U,d,n,L,G,g,L,c ,,,,,5,19,119,6,4,0,4,0,,,,,0,25,25,18,,,,,,up,0.5170426211934682,3161.9028897504595,None,001,11,2019_Jun_06_1336,ACPT_experiment_5_30_19,3.1.0,59.95877035009887,
,,,C,U,d,n,R,D,g,R,i,,,,,5,19,119,6,4,0,4,0,,,,,0,26,26,3,,,,,,up,0.5337408219966164,3163.704261817453,None,001,11,2019_Jun_06_1336,ACPT_experiment_5_30_19,3.1.0,59.95877035009887,
,,,C,U,d,n,L,U,y,R,u,,,,,5,19,119,6,4,0,4,0,,,,,0,27,27,25,,,,,,down,0.7837039952773921,3165.5392500389407,None,001,11,2019_Jun_06_1336,ACPT_experiment_5_30_19,3.1.0,59.95877035009887,
,,,C,U,d,n,R,U,g,R,u,,,,,5,19,119,6,4,0,4,0,,,,,0,28,28,11,,,,,,up,0.5003842656933557,3167.607271103825,None,001,11,2019_Jun_06_1336,ACPT_experiment_5_30_19,3.1.0,59.95877035009887,
,,,C,U,d,n,R,G,y,L,y,,,,,5,19,119,6,4,0,4,0,,,,,0,29,29,28,,,,,,down,1.634573890700267,3169.391999606378,None,001,11,2019_Jun_06_1336,ACPT_experiment_5_30_19,3.1.0,59.95877035009887,
,,,C,U,d,n,L,D,g,L,i,,,,,5,19,119,6,4,0,4,0,,,,,0,30,30,14,,,,,,up,0.683856494120846,3172.310896301995,None,001,11,2019_Jun_06_1336,ACPT_experiment_5_30_19,3.1.0,59.95877035009887,
,,,C,U,d,n,R,D,d,R,c ,,,,,5,19,119,6,4,0,4,0,,,,,0,31,31,1,,,,,,up,0.5003803415347647,3174.2790801289066,None,001,11,2019_Jun_06_1336,ACPT_experiment_5_30_19,3.1.0,59.95877035009887,
,,,C,U,d,n,R,D,y,R,y,,,,,5,19,119,6,4,0,4,0,,,,,0,32,32,27,,,,,,down,0.633839469308441,3176.0470905080037,None,001,11,2019_Jun_06_1336,ACPT_experiment_5_30_19,3.1.0,59.95877035009887,
,,,C,U,d,n,R,U,g,L,u,,,,,5,19,119,6,4,0,4,0,,,,,0,33,33,10,,,,,,up,0.680527901975438,3177.985271425001,None,001,11,2019_Jun_06_1336,ACPT_experiment_5_30_19,3.1.0,59.95877035009887,
,,,C,U,d,n,R,G,y,R,y,,,,,5,19,119,6,4,0,4,0,,,,,0,34,34,29,,,,,,down,0.6338171317893284,3179.9501221318933,None,001,11,2019_Jun_06_1336,ACPT_experiment_5_30_19,3.1.0,59.95877035009887,
,,,C,U,d,n,L,D,y,R,y,,,,,5,19,119,6,4,0,4,0,,,,,0,35,35,33,,,,,,down,0.5670979820170032,3181.868265389041,None,001,11,2019_Jun_06_1336,ACPT_experiment_5_30_19,3.1.0,59.95877035009887,
,,,C,U,d,n,R,G,y,L,y,,,,,5,19,119,6,4,0,4,0,,,,,1,0,36,28,,,,,,down,0.6338177355064545,3183.7196943261497,None,001,11,2019_Jun_06_1336,ACPT_experiment_5_30_19,3.1.0,59.95877035009887,
,,,C,U,d,n,R,G,d,L,i,,,,,5,19,119,6,4,0,4,0,,,,,1,1,37,4,,,,,,up,0.48372560833558964,3185.6211378732023,None,001,11,2019_Jun_06_1336,ACPT_experiment_5_30_19,3.1.0,59.95877035009887,
,,,C,U,d,n,R,D,d,L,c,,,,,5,19,119,6,4,0,4,0,,,,,1,2,38,0,,,,,,up,0.5337468591624202,3187.389186890172,None,001,11,2019_Jun_06_1336,ACPT_experiment_5_30_19,3.1.0,59.95877035009887,
,,,C,U,d,n,R,G,d,R,i,,,,,5,19,119,6,4,0,4,0,,,,,1,3,39,5,,,,,,up,0.8340002390723384,3189.207258365401,None,001,11,2019_Jun_06_1336,ACPT_experiment_5_30_19,3.1.0,59.95877035009887,
,,,C,U,d,n,L,D,g,R,i,,,,,5,19,119,6,4,0,4,0,,,,,1,4,40,15,,,,,,up,0.9171018458036997,3191.342516569006,None,001,11,2019_Jun_06_1336,ACPT_experiment_5_30_19,3.1.0,59.95877035009887,
,,,C,U,d,n,R,U,d,R,u,,,,,5,19,119,6,4,0,4,0,,,,,1,5,41,9,,,,,,up,0.5170610345539899,3193.5439382011427,None,001,11,2019_Jun_06_1336,ACPT_experiment_5_30_19,3.1.0,59.95877035009887,
,,,C,U,d,n,R,U,g,L,u,,,,,5,19,119,6,4,0,4,0,,,,,1,6,42,10,,,,,,up,0.4837337585104251,3195.3286175007815,None,001,11,2019_Jun_06_1336,ACPT_experiment_5_30_19,3.1.0,59.95877035009887,
,,,C,U,d,n,L,G,y,L,y,,,,,5,19,119,6,4,0,4,0,,,,,1,7,43,34,,,,,,down,0.5837822973353468,3197.0966755735008,None,001,11,2019_Jun_06_1336,ACPT_experiment_5_30_19,3.1.0,59.95877035009887,
,,,C,U,d,n,L,D,y,L,y,,,,,5,19,119,6,4,0,4,0,,,,,1,8,44,32,,,,,,down,0.48368757418211317,3198.964797277962,None,001,11,2019_Jun_06_1336,ACPT_experiment_5_30_19,3.1.0,59.95877035009887,
,,,C,U,d,n,L,D,d,L,c ,,,,,5,19,119,6,4,0,4,0,,,,,1,9,45,12,,,,,,up,0.6337893608197191,3200.7328348243136,None,001,11,2019_Jun_06_1336,ACPT_experiment_5_30_19,3.1.0,59.95877035009887,
,,,C,U,d,n,R,D,g,R,i,,,,,5,19,119,6,4,0,4,0,,,,,1,10,46,3,,,,,,up,0.6171325146133313,3202.6509611773927,None,001,11,2019_Jun_06_1336,ACPT_experiment_5_30_19,3.1.0,59.95877035009887,
,,,C,U,d,n,L,G,g,L,c ,,,,,5,19,119,6,4,0,4,0,,,,,1,11,47,18,,,,,,up,0.4333825764933863,3204.569377616357,None,001,11,2019_Jun_06_1336,ACPT_experiment_5_30_19,3.1.0,59.95877035009887,
,,,C,U,d,n,L,U,g,L,u,,,,,5,19,119,6,4,0,4,0,,,,,1,12,48,22,,,,,,up,0.466913305072012,3206.2870872237854,None,001,11,2019_Jun_06_1336,ACPT_experiment_5_30_19,3.1.0,59.95877035009887,
,,,C,U,d,n,R,U,d,L,u,,,,,5,19,119,6,4,0,4,0,,,,,1,13,49,8,,,,,,up,0.6504999378175853,3208.0384440771177,None,001,11,2019_Jun_06_1336,ACPT_experiment_5_30_19,3.1.0,59.95877035009887,
,,,C,U,d,n,R,D,d,R,c ,,,,,5,19,119,6,4,0,4,0,,,,,1,14,50,1,,,,,,up,0.9340539094882843,3209.973269838434,None,001,11,2019_Jun_06_1336,ACPT_experiment_5_30_19,3.1.0,59.95877035009887,
,,,C,U,d,n,L,G,d,R,i,,,,,5,19,119,6,4,0,4,0,,,,,1,15,51,17,,,,,,up,0.5504341930645751,3212.1749628412363,None,001,11,2019_Jun_06_1336,ACPT_experiment_5_30_19,3.1.0,59.95877035009887,
,,,C,U,d,n,R,D,y,L,y,,,,,5,19,119,6,4,0,4,0,,,,,1,16,52,26,,,,,,down,0.7338931397243869,3214.0097110853258,None,001,11,2019_Jun_06_1336,ACPT_experiment_5_30_19,3.1.0,59.95877035009887,
,,,C,U,d,n,R,D,g,L,i,,,,,5,19,119,6,4,0,4,0,,,,,1,17,53,2,,,,,,up,1.351084818577874,3216.011233055182,None,001,11,2019_Jun_06_1336,ACPT_experiment_5_30_19,3.1.0,59.95877035009887,
,,,C,U,d,n,L,D,g,L,i,,,,,5,19,119,6,4,0,4,0,,,,,1,18,54,14,,,,,,up,0.6171403629305132,3218.646621057882,None,001,11,2019_Jun_06_1336,ACPT_experiment_5_30_19,3.1.0,59.95877035009887,
,,,C,U,d,n,R,D,y,R,y,,,,,5,19,119,6,4,0,4,0,,,,,1,19,55,27,,,,,,down,0.6504960136589943,3220.5480863387365,None,001,11,2019_Jun_06_1336,ACPT_experiment_5_30_19,3.1.0,59.95877035009887,
,,,C,U,d,n,L,G,g,R,c ,,,,,5,19,119,6,4,0,4,0,,,,,1,20,56,19,,,,,,up,0.6004539346031379,3222.4829187409377,None,001,11,2019_Jun_06_1336,ACPT_experiment_5_30_19,3.1.0,59.95877035009887,
,,,C,U,d,n,L,G,y,R,y,,,,,5,19,119,6,4,0,4,0,,,,,1,21,57,35,,,,,,down,0.6004696312393207,3224.3676776708126,None,001,11,2019_Jun_06_1336,ACPT_experiment_5_30_19,3.1.0,59.95877035009887,
,,,C,U,d,n,L,U,d,L,u,,,,,5,19,119,6,4,0,4,0,,,,,1,22,58,20,,,,,,up,0.6171448908062303,3226.2691571390114,None,001,11,2019_Jun_06_1336,ACPT_experiment_5_30_19,3.1.0,59.95877035009887,
,,,C,U,d,n,L,U,y,R,u,,,,,5,19,119,6,4,0,4,0,,,,,1,23,59,25,,,,,,down,0.5671375254605664,3228.153923313488,None,001,11,2019_Jun_06_1336,ACPT_experiment_5_30_19,3.1.0,59.95877035009887,
,,,C,U,d,n,L,U,g,R,u,,,,,5,19,119,6,4,0,4,0,,,,,1,24,60,23,,,,,,up,0.7972846029279026,3230.0253856844283,None,001,11,2019_Jun_06_1336,ACPT_experiment_5_30_19,3.1.0,59.95877035009887,
,,,C,U,d,n,R,U,y,R,u,,,,,5,19,119,6,4,0,4,0,,,,,1,25,61,31,,,,,,down,0.5837554319405172,3232.1070202595256,None,001,11,2019_Jun_06_1336,ACPT_experiment_5_30_19,3.1.0,59.95877035009887,
,,,C,U,d,n,R,G,y,R,y,,,,,5,19,119,6,4,0,4,0,,,,,1,26,62,29,,,,,,down,0.500182624309673,3233.991940985483,None,001,11,2019_Jun_06_1336,ACPT_experiment_5_30_19,3.1.0,59.95877035009887,
,,,C,U,d,n,R,G,g,R,c ,,,,,5,19,119,6,4,0,4,0,,,,,1,27,63,7,,,,,,up,0.5337387089875847,3235.7931699716137,None,001,11,2019_Jun_06_1336,ACPT_experiment_5_30_19,3.1.0,59.95877035009887,
,,,C,U,d,n,R,U,y,L,u,,,,,5,19,119,6,4,0,4,0,,,,,1,28,64,30,,,,,,down,0.5837901456525287,3237.611238730118,None,001,11,2019_Jun_06_1336,ACPT_experiment_5_30_19,3.1.0,59.95877035009887,
,,,C,U,d,n,R,U,g,R,u,,,,,5,19,119,6,4,0,4,0,,,,,1,29,65,11,,,,,,up,0.48370960984357225,3239.4793468509542,None,001,11,2019_Jun_06_1336,ACPT_experiment_5_30_19,3.1.0,59.95877035009887,
,,,C,U,d,n,R,G,g,L,c ,,,,,5,19,119,6,4,0,4,0,,,,,1,30,66,6,,,,,,up,0.567104622901752,3241.2306913280936,None,001,11,2019_Jun_06_1336,ACPT_experiment_5_30_19,3.1.0,59.95877035009887,
,,,C,U,d,n,L,G,d,L,i,,,,,5,19,119,6,4,0,4,0,,,,,1,31,67,16,,,,,,up,0.5001062541414285,3243.0990756493284,None,001,11,2019_Jun_06_1336,ACPT_experiment_5_30_19,3.1.0,59.95877035009887,
,,,C,U,d,n,L,D,d,R,c ,,,,,5,19,119,6,4,0,4,0,,,,,1,32,68,13,,,,,,up,0.46708626991130586,3244.8835068213957,None,001,11,2019_Jun_06_1336,ACPT_experiment_5_30_19,3.1.0,59.95877035009887,
,,,C,U,d,n,L,D,y,R,y,,,,,5,19,119,6,4,0,4,0,,,,,1,33,69,33,,,,,,down,0.5170619401269505,3246.634864278445,None,001,11,2019_Jun_06_1336,ACPT_experiment_5_30_19,3.1.0,59.95877035009887,
,,,C,U,d,n,L,U,y,L,u,,,,,5,19,119,6,4,0,4,0,,,,,1,34,70,24,,,,,,down,0.48358645163170877,3248.4362523439304,None,001,11,2019_Jun_06_1336,ACPT_experiment_5_30_19,3.1.0,59.95877035009887,
,,,C,U,d,n,L,U,d,R,u,,,,,5,19,119,6,4,0,4,0,,,,,1,35,71,21,,,,,,up,0.513725197808526,3250.2242934401347,None,001,11,2019_Jun_06_1336,ACPT_experiment_5_30_19,3.1.0,59.95877035009887,
,,,C,U,d,n,,,,,,,,,,5,19,119,6,5,0,5,0,0,0,0,0,,,,,,,,,,,,,,001,11,2019_Jun_06_1336,ACPT_experiment_5_30_19,3.1.0,59.95877035009887,
,,,C,U,d,n,R,D,g,L,i,,,,,5,19,119,6,5,0,5,0,,,,,0,0,0,2,,,,,,up,0.6838353640341666,3254.324143959875,None,001,11,2019_Jun_06_1336,ACPT_experiment_5_30_19,3.1.0,59.95877035009887,
,,,C,U,d,n,L,U,y,R,u,,,,,5,19,119,6,5,0,5,0,,,,,0,1,1,25,,,,,,down,0.600446690003082,3256.292323258911,None,001,11,2019_Jun_06_1336,ACPT_experiment_5_30_19,3.1.0,59.95877035009887,
,,,C,U,d,n,R,U,g,R,u,,,,,5,19,119,6,5,0,5,0,,,,,0,2,2,11,,,,,,up,1.617915837057808,3258.1770945649805,None,001,11,2019_Jun_06_1336,ACPT_experiment_5_30_19,3.1.0,59.95877035009887,
,,,C,U,d,n,R,D,g,R,i,,,,,5,19,119,6,5,0,5,0,,,,,0,3,3,3,,,,,,up,0.6171479093900416,3261.0793298865137,None,001,11,2019_Jun_06_1336,ACPT_experiment_5_30_19,3.1.0,59.95877035009887,
,,,C,U,d,n,R,G,g,L,c ,,,,,5,19,119,6,5,0,5,0,,,,,0,4,4,6,,,,,,up,0.5838097664454835,3262.9807984878116,None,001,11,2019_Jun_06_1336,ACPT_experiment_5_30_19,3.1.0,59.95877035009887,
,,,C,U,d,n,R,U,g,L,u,,,,,5,19,119,6,5,0,5,0,,,,,0,5,5,10,,,,,,up,0.5003836619762296,3264.8489054012134,None,001,11,2019_Jun_06_1336,ACPT_experiment_5_30_19,3.1.0,59.95877035009887,
,,,C,U,d,n,L,G,d,L,i,,,,,5,19,119,6,5,0,5,0,,,,,0,6,6,16,,,,,,up,0.433507545856628,3266.6505787228507,None,001,11,2019_Jun_06_1336,ACPT_experiment_5_30_19,3.1.0,59.95877035009887,
,,,C,U,d,n,L,U,d,L,u,,,,,5,19,119,6,5,0,5,0,,,,,0,7,7,20,,,,,,up,0.48369753550650785,3268.3682868209853,None,001,11,2019_Jun_06_1336,ACPT_experiment_5_30_19,3.1.0,59.95877035009887,
,,,C,U,d,n,R,G,d,L,i,,,,,5,19,119,6,5,0,5,0,,,,,0,8,8,4,,,,,,up,0.6004623866356269,3270.1363131985763,None,001,11,2019_Jun_06_1336,ACPT_experiment_5_30_19,3.1.0,59.95877035009887,
,,,C,U,d,n,L,G,y,L,y,,,,,5,19,119,6,5,0,5,0,,,,,0,9,9,34,,,,,,down,0.6171690394749021,3272.021098088271,None,001,11,2019_Jun_06_1336,ACPT_experiment_5_30_19,3.1.0,59.95877035009887,
,,,C,U,d,n,R,D,d,R,c ,,,,,5,19,119,6,5,0,5,0,,,,,0,10,10,1,,,,,,up,0.5001844354574132,3273.9394363459214,None,001,11,2019_Jun_06_1336,ACPT_experiment_5_30_19,3.1.0,59.95877035009887,
,,,C,U,d,n,R,G,y,L,y,,,,,5,19,119,6,5,0,5,0,,,,,0,11,11,28,,,,,,down,0.5003812471113633,3275.7239523401877,None,001,11,2019_Jun_06_1336,ACPT_experiment_5_30_19,3.1.0,59.95877035009887,
,,,C,U,d,n,L,G,y,R,y,,,,,5,19,119,6,5,0,5,0,,,,,0,12,12,35,,,,,,up,0.5504194020068098,3277.5086648442484,None,001,11,2019_Jun_06_1336,ACPT_experiment_5_30_19,3.1.0,59.95877035009887,
,,,C,U,d,n,L,G,g,L,c ,,,,,5,19,119,6,5,0,5,0,,,,,0,13,13,18,,,,,,up,0.5670991894494364,3279.343410975329,None,001,11,2019_Jun_06_1336,ACPT_experiment_5_30_19,3.1.0,59.95877035009887,
,,,C,U,d,n,R,G,g,R,c ,,,,,5,19,119,6,5,0,5,0,,,,,0,14,14,7,,,,,,up,0.6471686289460195,3281.21484949946,None,001,11,2019_Jun_06_1336,ACPT_experiment_5_30_19,3.1.0,59.95877035009887,
,,,C,U,d,n,L,D,g,R,i,,,,,5,19,119,6,5,0,5,0,,,,,0,15,15,15,,,,,,up,0.4503433940717514,3283.1463424426147,None,001,11,2019_Jun_06_1336,ACPT_experiment_5_30_19,3.1.0,59.95877035009887,
,,,C,U,d,n,L,D,d,L,c ,,,,,5,19,119,6,5,0,5,0,,,,,0,16,16,12,,,,,,up,0.6338276968326682,3284.8643225151336,None,001,11,2019_Jun_06_1336,ACPT_experiment_5_30_19,3.1.0,59.95877035009887,
,,,C,U,d,n,L,G,d,R,i,,,,,5,19,119,6,5,0,5,0,,,,,0,17,17,17,,,,,,up,0.6338298098416999,3286.782478450332,None,001,11,2019_Jun_06_1336,ACPT_experiment_5_30_19,3.1.0,59.95877035009887,
,,,C,U,d,n,L,U,y,L,u,,,,,5,19,119,6,5,0,5,0,,,,,0,18,18,24,,,,,,down,0.6004705368122814,3288.70061989633,None,001,11,2019_Jun_06_1336,ACPT_experiment_5_30_19,3.1.0,59.95877035009887,
,,,C,U,d,n,R,D,d,L,c,,,,,5,19,119,6,5,0,5,0,,,,,0,19,19,0,,,,,,up,0.9006994661940553,3290.5854093139005,None,001,11,2019_Jun_06_1336,ACPT_experiment_5_30_19,3.1.0,59.95877035009887,
,,,C,U,d,n,R,D,y,R,y,,,,,5,19,119,6,5,0,5,0,,,,,0,20,20,27,,,,,,down,0.5171374047185964,3292.7537291581903,None,001,11,2019_Jun_06_1336,ACPT_experiment_5_30_19,3.1.0,59.95877035009887,
,,,C,U,d,n,L,G,g,R,c ,,,,,5,19,119,6,5,0,5,0,,,,,0,21,21,19,,,,,,up,0.5334791107979981,3294.5720753245278,None,001,11,2019_Jun_06_1336,ACPT_experiment_5_30_19,3.1.0,59.95877035009887,
,,,C,U,d,n,R,U,d,R,u,,,,,5,19,119,6,5,0,5,0,,,,,0,22,22,9,,,,,,up,0.41700977900472935,3296.389886295994,None,001,11,2019_Jun_06_1336,ACPT_experiment_5_30_19,3.1.0,59.95877035009887,
,,,C,U,d,n,L,U,d,R,u,,,,,5,19,119,6,5,0,5,0,,,,,0,23,23,21,,,,,,up,0.36696619065514824,3298.0744965304402,None,001,11,2019_Jun_06_1336,ACPT_experiment_5_30_19,3.1.0,59.95877035009887,
,,,C,U,d,n,L,D,d,R,c ,,,,,5,19,119,6,5,0,5,0,,,,,0,24,24,13,,,,,,up,0.36693751411257836,3299.725792770614,None,001,11,2019_Jun_06_1336,ACPT_experiment_5_30_19,3.1.0,59.95877035009887,
,,,C,U,d,n,L,D,g,L,i,,,,,5,19,119,6,5,0,5,0,,,,,0,25,25,14,,,,,,up,0.7503057825197175,3301.3773368365,None,001,11,2019_Jun_06_1336,ACPT_experiment_5_30_19,3.1.0,59.95877035009887,
,,,C,U,d,n,L,U,g,R,u,,,,,5,19,119,6,5,0,5,0,,,,,0,26,26,23,,,,,,up,0.4503503368123347,3303.395282919768,None,001,11,2019_Jun_06_1336,ACPT_experiment_5_30_19,3.1.0,59.95877035009887,
,,,C,U,d,n,R,D,y,L,y,,,,,5,19,119,6,5,0,5,0,,,,,0,27,27,26,,,,,,down,0.5003875861348206,3305.129957570789,None,001,11,2019_Jun_06_1336,ACPT_experiment_5_30_19,3.1.0,59.95877035009887,
,,,C,U,d,n,L,U,g,L,u,,,,,5,19,119,6,5,0,5,0,,,,,0,28,28,22,,,,,,up,0.7005453373149066,3306.9146652451163,None,001,11,2019_Jun_06_1336,ACPT_experiment_5_30_19,3.1.0,59.95877035009887,
,,,C,U,d,n,L,D,y,R,y,,,,,5,19,119,6,5,0,5,0,,,,,0,29,29,33,,,,,,down,0.5004072069295944,3308.8995315761968,None,001,11,2019_Jun_06_1336,ACPT_experiment_5_30_19,3.1.0,59.95877035009887,
,,,C,U,d,n,L,D,y,L,y,,,,,5,19,119,6,5,0,5,0,,,,,0,30,30,32,,,,,,down,0.6839020747320319,3310.7009169249577,None,001,11,2019_Jun_06_1336,ACPT_experiment_5_30_19,3.1.0,59.95877035009887,
,,,C,U,d,n,R,U,d,L,u,,,,,5,19,119,6,5,0,5,0,,,,,0,31,31,8,,,,,,up,0.5671257529847935,3312.6857844634724,None,001,11,2019_Jun_06_1336,ACPT_experiment_5_30_19,3.1.0,59.95877035009887,
,,,C,U,d,n,R,G,y,R,y,,,,,5,19,119,6,5,0,5,0,,,,,0,32,32,29,,,,,,down,0.4667448681047972,3314.5541693884243,None,001,11,2019_Jun_06_1336,ACPT_experiment_5_30_19,3.1.0,59.95877035009887,
,,,C,U,d,n,R,G,d,R,i,,,,,5,19,119,6,5,0,5,0,,,,,0,33,33,5,,,,,,down,0.4837253064761171,3316.3052430986136,None,001,11,2019_Jun_06_1336,ACPT_experiment_5_30_19,3.1.0,59.95877035009887,
,,,C,U,d,n,R,U,y,R,u,,,,,5,19,119,6,5,0,5,0,,,,,0,34,34,31,,,,,,down,0.633818037364108,3318.0899477543553,None,001,11,2019_Jun_06_1336,ACPT_experiment_5_30_19,3.1.0,59.95877035009887,
,,,C,U,d,n,R,U,y,L,u,,,,,5,19,119,6,5,0,5,0,,,,,0,35,35,30,,,,,,down,0.7839318983387784,3320.0247729119565,None,001,11,2019_Jun_06_1336,ACPT_experiment_5_30_19,3.1.0,59.95877035009887,
,,,C,U,d,n,L,D,y,L,y,,,,,5,19,119,6,5,0,5,0,,,,,1,0,36,32,,,,,,down,0.5003712857851497,3322.0930396895455,None,001,11,2019_Jun_06_1336,ACPT_experiment_5_30_19,3.1.0,59.95877035009887,
,,,C,U,d,n,R,U,d,R,u,,,,,5,19,119,6,5,0,5,0,,,,,1,1,37,9,,,,,,up,0.4336714549444878,3323.8777413267035,None,001,11,2019_Jun_06_1336,ACPT_experiment_5_30_19,3.1.0,59.95877035009887,
,,,C,U,d,n,L,U,y,L,u,,,,,5,19,119,6,5,0,5,0,,,,,1,2,38,24,,,,,,down,0.5003577021579986,3325.5957627538173,None,001,11,2019_Jun_06_1336,ACPT_experiment_5_30_19,3.1.0,59.95877035009887,
,,,C,U,d,n,R,G,y,R,y,,,,,5,19,119,6,5,0,5,0,,,,,1,3,39,29,,,,,,down,0.467032237263993,3327.380442657175,None,001,11,2019_Jun_06_1336,ACPT_experiment_5_30_19,3.1.0,59.95877035009887,
,,,C,U,d,n,L,D,d,R,c ,,,,,5,19,119,6,5,0,5,0,,,,,1,4,40,13,,,,,,up,0.5504169871401245,3329.1317943789145,None,001,11,2019_Jun_06_1336,ACPT_experiment_5_30_19,3.1.0,59.95877035009887,
,,,C,U,d,n,R,D,d,L,c,,,,,5,19,119,6,5,0,5,0,,,,,1,5,41,0,,,,,,up,0.5003232903054595,3330.966619295028,None,001,11,2019_Jun_06_1336,ACPT_experiment_5_30_19,3.1.0,59.95877035009887,
,,,C,U,d,n,R,U,d,L,u,,,,,5,19,119,6,5,0,5,0,,,,,1,6,42,8,,,,,,up,0.8006150062246888,3332.751251202906,None,001,11,2019_Jun_06_1336,ACPT_experiment_5_30_19,3.1.0,59.95877035009887,
,,,C,U,d,n,L,G,y,L,y,,,,,5,19,119,6,5,0,5,0,,,,,1,7,43,34,,,,,,down,0.7505720215940528,3334.836193240064,None,001,11,2019_Jun_06_1336,ACPT_experiment_5_30_19,3.1.0,59.95877035009887,
,,,C,U,d,n,R,G,y,L,y,,,,,5,19,119,6,5,0,5,0,,,,,1,8,44,28,,,,,,down,0.4835058554490388,3336.8879287445234,None,001,11,2019_Jun_06_1336,ACPT_experiment_5_30_19,3.1.0,59.95877035009887,
,,,C,U,d,n,L,G,g,R,c ,,,,,5,19,119,6,5,0,5,0,,,,,1,9,45,19,,,,,,up,0.6505265013529424,3338.672484282235,None,001,11,2019_Jun_06_1336,ACPT_experiment_5_30_19,3.1.0,59.95877035009887,
,,,C,U,d,n,L,U,g,R,u,,,,,5,19,119,6,5,0,5,0,,,,,1,10,46,23,,,,,,up,0.5669041889486834,3340.624231015827,None,001,11,2019_Jun_06_1336,ACPT_experiment_5_30_19,3.1.0,59.95877035009887,
,,,C,U,d,n,R,U,y,L,u,,,,,5,19,119,6,5,0,5,0,,,,,1,11,47,30,,,,,,down,0.6671818382692436,3342.4754115235046,None,001,11,2019_Jun_06_1336,ACPT_experiment_5_30_19,3.1.0,59.95877035009887,
,,,C,U,d,n,R,D,g,R,i,,,,,5,19,119,6,5,0,5,0,,,,,1,12,48,3,,,,,,up,0.46701986107291305,3344.4269191852727,None,001,11,2019_Jun_06_1336,ACPT_experiment_5_30_19,3.1.0,59.95877035009887,
,,,C,U,d,n,R,D,y,L,y,,,,,5,19,119,6,5,0,5,0,,,,,1,13,49,26,,,,,,down,0.6504984285238606,3346.1782690958626,None,001,11,2019_Jun_06_1336,ACPT_experiment_5_30_19,3.1.0,59.95877035009887,
,,,C,U,d,n,L,G,y,R,y,,,,,5,19,119,6,5,0,5,0,,,,,1,14,50,35,,,,,,down,0.6503921743824321,3348.0964129567274,None,001,11,2019_Jun_06_1336,ACPT_experiment_5_30_19,3.1.0,59.95877035009887,
,,,C,U,d,n,L,G,d,R,i,,,,,5,19,119,6,5,0,5,0,,,,,1,15,51,17,,,,,,up,0.9006967494697165,3350.0312366050366,None,001,11,2019_Jun_06_1336,ACPT_experiment_5_30_19,3.1.0,59.95877035009887,
,,,C,U,d,n,R,U,y,R,u,,,,,5,19,119,6,5,0,5,0,,,,,1,16,52,31,,,,,,down,0.6338183392235806,3352.216254951987,None,001,11,2019_Jun_06_1336,ACPT_experiment_5_30_19,3.1.0,59.95877035009887,
,,,C,U,d,n,R,D,g,L,i,,,,,5,19,119,6,5,0,5,0,,,,,1,17,53,2,,,,,,up,0.5170628457035491,3354.134401529578,None,001,11,2019_Jun_06_1336,ACPT_experiment_5_30_19,3.1.0,59.95877035009887,
,,,C,U,d,n,R,G,d,L,i,,,,,5,19,119,6,5,0,5,0,,,,,1,18,54,4,,,,,,up,0.5170637512783287,3355.9357911043553,None,001,11,2019_Jun_06_1336,ACPT_experiment_5_30_19,3.1.0,59.95877035009887,
,,,C,U,d,n,L,G,g,L,c ,,,,,5,19,119,6,5,0,5,0,,,,,1,19,55,18,,,,,,up,0.5337396145623643,3357.7371776605505,None,001,11,2019_Jun_06_1336,ACPT_experiment_5_30_19,3.1.0,59.95877035009887,
,,,C,U,d,n,L,D,y,R,y,,,,,5,19,119,6,5,0,5,0,,,,,1,20,56,33,,,,,,down,0.5835474515297392,3359.572172221062,None,001,11,2019_Jun_06_1336,ACPT_experiment_5_30_19,3.1.0,59.95877035009887,
,,,C,U,d,n,L,U,d,R,u,,,,,5,19,119,6,5,0,5,0,,,,,1,21,57,21,,,,,,up,0.633821961524518,3361.440035534766,None,001,11,2019_Jun_06_1336,ACPT_experiment_5_30_19,3.1.0,59.95877035009887,
,,,C,U,d,n,R,D,y,R,y,,,,,5,19,119,6,5,0,5,0,,,,,1,22,58,27,,,,,,down,0.633821961524518,3363.358177886341,None,001,11,2019_Jun_06_1336,ACPT_experiment_5_30_19,3.1.0,59.95877035009887,
,,,C,U,d,n,R,U,g,R,u,,,,,5,19,119,6,5,0,5,0,,,,,1,23,59,11,,,,,,up,0.617143079654852,3365.276323558355,None,001,11,2019_Jun_06_1336,ACPT_experiment_5_30_19,3.1.0,59.95877035009887,
,,,C,U,d,n,L,D,g,L,i,,,,,5,19,119,6,5,0,5,0,,,,,1,24,60,14,,,,,,up,1.7846225502671587,3367.1611036183167,None,001,11,2019_Jun_06_1336,ACPT_experiment_5_30_19,3.1.0,59.95877035009887,
,,,C,U,d,n,L,D,g,R,i,,,,,5,19,119,6,5,0,5,0,,,,,1,25,61,15,,,,,,up,0.5170848813631892,3370.2134404246317,None,001,11,2019_Jun_06_1336,ACPT_experiment_5_30_19,3.1.0,59.95877035009887,
,,,C,U,d,n,L,U,y,R,u,,,,,5,19,119,6,5,0,5,0,,,,,1,26,62,25,,,,,,down,0.5337368978362065,3372.0148520350685,None,001,11,2019_Jun_06_1336,ACPT_experiment_5_30_19,3.1.0,59.95877035009887,
,,,C,U,d,n,L,G,d,L,i,,,,,5,19,119,6,5,0,5,0,,,,,1,27,63,16,,,,,,up,0.9340714172722073,3373.8328981541963,None,001,11,2019_Jun_06_1336,ACPT_experiment_5_30_19,3.1.0,59.95877035009887,
,,,C,U,d,n,L,D,d,L,c ,,,,,5,19,119,6,5,0,5,0,,,,,1,28,64,12,,,,,,up,0.5837753545929445,3376.051295394971,None,001,11,2019_Jun_06_1336,ACPT_experiment_5_30_19,3.1.0,59.95877035009887,
,,,C,U,d,n,R,G,g,L,c ,,,,,5,19,119,6,5,0,5,0,,,,,1,29,65,6,,,,,,up,0.5170637512783287,3377.9194062325314,None,001,11,2019_Jun_06_1336,ACPT_experiment_5_30_19,3.1.0,59.95877035009887,
,,,C,U,d,n,L,U,d,L,u,,,,,5,19,119,6,5,0,5,0,,,,,1,30,66,20,,,,,,up,0.5003815489671979,3379.720794599876,None,001,11,2019_Jun_06_1336,ACPT_experiment_5_30_19,3.1.0,59.95877035009887,
