facing_vig,person_vig,text_vig,facing_train,person_train,food_train,correct_key_train,facing_exp,person_exp,food_exp,showL_R,consistent,vig_random.thisRepN,vig_random.thisTrialN,vig_random.thisN,vig_random.thisIndex,trainTrials.thisRepN,trainTrials.thisTrialN,trainTrials.thisN,trainTrials.thisIndex,expBlock.thisRepN,expBlock.thisTrialN,expBlock.thisN,expBlock.thisIndex,breakLoop.thisRepN,breakLoop.thisTrialN,breakLoop.thisN,breakLoop.thisIndex,expTrials.thisRepN,expTrials.thisTrialN,expTrials.thisN,expTrials.thisIndex,train_resp.keys,train_resp.corr,train_resp.rt,train_resp.started,train_resp.stopped,exp_resp.keys,exp_resp.rt,exp_resp.started,exp_resp.stopped,session,participant,date,expName,psychopyVersion,frameRate,
C,U,"did not report her food preferences, so her food preferences are unknown.",,,,,,,,,,0,0,0,2,,,,,,,,,,,,,,,,,,,,,,,,,,001,12,2019_Jun_06_1502,ACPT_experiment_5_30_19,3.1.0,59.94640165416856,
C,D,"is allergic to gluten, meaning she can’t eat wheat products. She enjoys eating dairy products. She thinks eating insects, like crickets, is disgusting.",,,,,,,,,,0,1,1,1,,,,,,,,,,,,,,,,,,,,,,,,,,001,12,2019_Jun_06_1502,ACPT_experiment_5_30_19,3.1.0,59.94640165416856,
C,G,"cannot eat dairy products because she is lactose intolerant. She enjoys eating wheat products. She thinks eating insects, like crickets, is disgusting.",,,,,,,,,,0,2,2,0,,,,,,,,,,,,,,,,,,,,,,,,,,001,12,2019_Jun_06_1502,ACPT_experiment_5_30_19,3.1.0,59.94640165416856,
,,,C,G,y,b,,,,,,,,,,0,0,0,5,,,,,,,,,,,,,b,1,4.420138239056541,2842.579381202433,None,,,,,001,12,2019_Jun_06_1502,ACPT_experiment_5_30_19,3.1.0,59.94640165416856,
,,,C,G,g,v,,,,,,,,,,0,1,1,4,,,,,,,,,,,,,b,0,8.389873617943522,2850.2686337166106,None,,,,,001,12,2019_Jun_06_1502,ACPT_experiment_5_30_19,3.1.0,59.94640165416856,
,,,C,D,g,b,,,,,,,,,,0,2,2,1,,,,,,,,,,,,,b,1,11.358781301201816,2861.944335808972,None,,,,,001,12,2019_Jun_06_1502,ACPT_experiment_5_30_19,3.1.0,59.94640165416856,
,,,C,U,d,n,,,,,,,,,,0,3,3,15,,,,,,,,,,,,,b,0,3.7529105183166394,2876.588969733266,None,,,,,001,12,2019_Jun_06_1502,ACPT_experiment_5_30_19,3.1.0,59.94640165416856,
,,,C,G,y,b,,,,,,,,,,0,4,4,14,,,,,,,,,,,,,v,0,3.7695890983231948,2883.6277361951124,None,,,,,001,12,2019_Jun_06_1502,ACPT_experiment_5_30_19,3.1.0,59.94640165416856,
,,,C,G,g,v,,,,,,,,,,0,5,5,19,,,,,,,,,,,,,b,0,1.784744501048408,2890.666480319438,None,,,,,001,12,2019_Jun_06_1502,ACPT_experiment_5_30_19,3.1.0,59.94640165416856,
,,,C,D,y,b,,,,,,,,,,0,6,6,11,,,,,,,,,,,,,v,0,7.872768813926086,2895.737081971447,None,,,,,001,12,2019_Jun_06_1502,ACPT_experiment_5_30_19,3.1.0,59.94640165416856,
,,,C,D,d,v,,,,,,,,,,0,7,7,18,,,,,,,,,,,,,v,1,0.5003815489690169,2906.895703106604,None,,,,,001,12,2019_Jun_06_1502,ACPT_experiment_5_30_19,3.1.0,59.94640165416856,
,,,C,U,y,n,,,,,,,,,,0,8,8,8,,,,,,,,,,,,,v,0,21.23286501014809,2910.7154843075896,None,,,,,001,12,2019_Jun_06_1502,ACPT_experiment_5_30_19,3.1.0,59.94640165416856,
,,,C,D,d,v,,,,,,,,,,0,9,9,9,,,,,,,,,,,,,v,1,12.826348733342456,2935.251111744341,None,,,,,001,12,2019_Jun_06_1502,ACPT_experiment_5_30_19,3.1.0,59.94640165416856,
,,,C,U,g,n,,,,,,,,,,0,10,10,16,,,,,,,,,,,,,v,0,13.310315828366583,2951.363332419709,None,,,,,001,12,2019_Jun_06_1502,ACPT_experiment_5_30_19,3.1.0,59.94640165416856,
,,,C,U,g,n,,,,,,,,,,0,11,11,7,,,,,,,,,,,,,v,0,7.689312583992432,2967.9428198762853,None,,,,,001,12,2019_Jun_06_1502,ACPT_experiment_5_30_19,3.1.0,59.94640165416856,
,,,C,U,y,n,,,,,,,,,,0,12,12,17,,,,,,,,,,,,,b,0,6.0380157401014,2978.9179615384146,None,,,,,001,12,2019_Jun_06_1502,ACPT_experiment_5_30_19,3.1.0,59.94640165416856,
,,,C,U,d,n,,,,,,,,,,0,13,13,6,,,,,,,,,,,,,v,0,17.380074691835034,2988.241849522399,None,,,,,001,12,2019_Jun_06_1502,ACPT_experiment_5_30_19,3.1.0,59.94640165416856,
,,,C,G,d,b,,,,,,,,,,0,14,14,12,,,,,,,,,,,,,b,1,6.5050238286967215,3008.907782572629,None,,,,,001,12,2019_Jun_06_1502,ACPT_experiment_5_30_19,3.1.0,59.94640165416856,
,,,C,D,y,b,,,,,,,,,,0,15,15,2,,,,,,,,,,,,,v,0,14.427822647343419,3018.6986756266288,None,,,,,001,12,2019_Jun_06_1502,ACPT_experiment_5_30_19,3.1.0,59.94640165416856,
,,,C,D,g,b,,,,,,,,,,0,16,16,10,,,,,,,,,,,,,v,0,6.9720611975571956,3036.3956626575837,None,,,,,001,12,2019_Jun_06_1502,ACPT_experiment_5_30_19,3.1.0,59.94640165416856,
,,,C,D,d,v,,,,,,,,,,0,17,17,0,,,,,,,,,,,,,v,1,14.144265657090727,3046.6369063502552,None,,,,,001,12,2019_Jun_06_1502,ACPT_experiment_5_30_19,3.1.0,59.94640165416856,
,,,C,G,g,v,,,,,,,,,,0,18,18,13,,,,,,,,,,,,,v,1,20.83265455450237,3064.067000783625,None,,,,,001,12,2019_Jun_06_1502,ACPT_experiment_5_30_19,3.1.0,59.94640165416856,
,,,C,G,d,b,,,,,,,,,,0,19,19,3,,,,,,,,,,,,,v,0,9.657336124117137,3088.1856383640243,None,,,,,001,12,2019_Jun_06_1502,ACPT_experiment_5_30_19,3.1.0,59.94640165416856,
,,,C,U,g,n,,,,,,,,,,1,0,20,16,,,,,,,,,,,,,v,0,16.562851136735844,3101.1289333653713,None,,,,,001,12,2019_Jun_06_1502,ACPT_experiment_5_30_19,3.1.0,59.94640165416856,
,,,C,G,g,v,,,,,,,,,,1,1,21,4,,,,,,,,,,,,,v,1,4.169853284762212,3120.977657047848,None,,,,,001,12,2019_Jun_06_1502,ACPT_experiment_5_30_19,3.1.0,59.94640165416856,
,,,C,D,g,b,,,,,,,,,,1,2,22,10,,,,,,,,,,,,,b,1,4.987193659042532,3128.433368389151,None,,,,,001,12,2019_Jun_06_1502,ACPT_experiment_5_30_19,3.1.0,59.94640165416856,
,,,C,G,d,b,,,,,,,,,,1,3,23,12,,,,,,,,,,,,,b,1,9.657457471177622,3136.706419802873,None,,,,,001,12,2019_Jun_06_1502,ACPT_experiment_5_30_19,3.1.0,59.94640165416856,
,,,C,D,g,b,,,,,,,,,,1,4,24,1,,,,,,,,,,,,,b,1,5.654349839351198,3149.649762497842,None,,,,,001,12,2019_Jun_06_1502,ACPT_experiment_5_30_19,3.1.0,59.94640165416856,
,,,C,D,y,b,,,,,,,,,,1,5,25,2,,,,,,,,,,,,,b,1,3.619470407615154,3158.573288191421,None,,,,,001,12,2019_Jun_06_1502,ACPT_experiment_5_30_19,3.1.0,59.94640165416856,
,,,C,U,y,n,,,,,,,,,,1,6,26,17,,,,,,,,,,,,,b,0,6.088036990931869,3165.4786217871715,None,,,,,001,12,2019_Jun_06_1502,ACPT_experiment_5_30_19,3.1.0,59.94640165416856,
,,,C,G,y,b,,,,,,,,,,1,7,27,5,,,,,,,,,,,,,v,0,24.43555203253345,3174.8525117030495,None,,,,,001,12,2019_Jun_06_1502,ACPT_experiment_5_30_19,3.1.0,59.94640165416856,
,,,C,U,y,n,,,,,,,,,,1,8,28,8,,,,,,,,,,,,,v,0,45.852104496119864,3202.573886172833,None,,,,,001,12,2019_Jun_06_1502,ACPT_experiment_5_30_19,3.1.0,59.94640165416856,
,,,C,U,g,n,,,,,,,,,,1,9,29,7,,,,,,,,,,,,,b,0,22.534072866194037,3251.6951333187626,None,,,,,001,12,2019_Jun_06_1502,ACPT_experiment_5_30_19,3.1.0,59.94640165416856,
,,,C,U,d,n,,,,,,,,,,1,10,30,6,,,,,,,,,,,,,v,0,9.974367999147944,3277.515055185746,None,,,,,001,12,2019_Jun_06_1502,ACPT_experiment_5_30_19,3.1.0,59.94640165416856,
,,,C,G,g,v,,,,,,,,,,1,11,31,19,,,,,,,,,,,,,v,1,10.17455080457512,3290.775254979757,None,,,,,001,12,2019_Jun_06_1502,ACPT_experiment_5_30_19,3.1.0,59.94640165416856,
,,,C,D,d,v,,,,,,,,,,1,12,32,18,,,,,,,,,,,,,v,1,12.609715552829584,3304.235684970956,None,,,,,001,12,2019_Jun_06_1502,ACPT_experiment_5_30_19,3.1.0,59.94640165416856,
,,,C,G,d,b,,,,,,,,,,1,13,33,3,,,,,,,,,,,,,b,1,3.9030603004321165,3320.131259485899,None,,,,,001,12,2019_Jun_06_1502,ACPT_experiment_5_30_19,3.1.0,59.94640165416856,
,,,C,D,d,v,,,,,,,,,,1,14,34,9,,,,,,,,,,,,,v,1,5.837850442461786,3327.320137091994,None,,,,,001,12,2019_Jun_06_1502,ACPT_experiment_5_30_19,3.1.0,59.94640165416856,
,,,C,G,g,v,,,,,,,,,,1,15,35,13,,,,,,,,,,,,,v,1,4.036442454325879,3336.4438618913464,None,,,,,001,12,2019_Jun_06_1502,ACPT_experiment_5_30_19,3.1.0,59.94640165416856,
,,,C,D,d,v,,,,,,,,,,1,16,36,0,,,,,,,,,,,,,v,1,6.35491570303202,3343.7661560631877,None,,,,,001,12,2019_Jun_06_1502,ACPT_experiment_5_30_19,3.1.0,59.94640165416856,
,,,C,U,d,n,,,,,,,,,,1,17,37,15,,,,,,,,,,,,,b,0,5.0038806910852145,3353.390247922309,None,,,,,001,12,2019_Jun_06_1502,ACPT_experiment_5_30_19,3.1.0,59.94640165416856,
,,,C,D,y,b,,,,,,,,,,1,18,38,11,,,,,,,,,,,,,b,1,15.428707092341938,3361.679996933117,None,,,,,001,12,2019_Jun_06_1502,ACPT_experiment_5_30_19,3.1.0,59.94640165416856,
,,,C,G,y,b,,,,,,,,,,1,19,39,14,,,,,,,,,,,,,b,1,2.83552643494113,3380.394411756539,None,,,,,001,12,2019_Jun_06_1502,ACPT_experiment_5_30_19,3.1.0,59.94640165416856,
,,,C,G,y,b,,,,,,,,,,2,0,40,5,,,,,,,,,,,,,b,1,2.001560909582622,3386.515798964747,None,,,,,001,12,2019_Jun_06_1502,ACPT_experiment_5_30_19,3.1.0,59.94640165416856,
,,,C,D,y,b,,,,,,,,,,2,1,41,11,,,,,,,,,,,,,b,1,3.252482483159838,3391.803238457238,None,,,,,001,12,2019_Jun_06_1502,ACPT_experiment_5_30_19,3.1.0,59.94640165416856,
,,,C,U,y,n,,,,,,,,,,2,2,42,17,,,,,,,,,,,,,v,0,3.2024742122412135,3398.341588354544,None,,,,,001,12,2019_Jun_06_1502,ACPT_experiment_5_30_19,3.1.0,59.94640165416856,
,,,C,G,g,v,,,,,,,,,,2,3,43,19,,,,,,,,,,,,,v,1,8.990279858924623,3404.8299212270413,None,,,,,001,12,2019_Jun_06_1502,ACPT_experiment_5_30_19,3.1.0,59.94640165416856,
,,,C,U,d,n,,,,,,,,,,2,4,44,15,,,,,,,,,,,,,v,0,6.1548032306091045,3417.1060579350724,None,,,,,001,12,2019_Jun_06_1502,ACPT_experiment_5_30_19,3.1.0,59.94640165416856,
,,,C,U,y,n,,,,,,,,,,2,5,45,8,,,,,,,,,,,,,n,1,5.8378480276005575,3426.546671226739,None,,,,,001,12,2019_Jun_06_1502,ACPT_experiment_5_30_19,3.1.0,59.94640165416856,
,,,C,G,g,v,,,,,,,,,,2,6,46,4,,,,,,,,,,,,,v,1,6.838624709162104,3435.6703745941504,None,,,,,001,12,2019_Jun_06_1502,ACPT_experiment_5_30_19,3.1.0,59.94640165416856,
,,,C,D,d,v,,,,,,,,,,2,7,47,0,,,,,,,,,,,,,v,1,4.053157559199462,3445.794852831974,None,,,,,001,12,2019_Jun_06_1502,ACPT_experiment_5_30_19,3.1.0,59.94640165416856,
,,,C,G,g,v,,,,,,,,,,2,8,48,13,,,,,,,,,,,,,v,1,4.970506325142196,3453.1338424878904,None,,,,,001,12,2019_Jun_06_1502,ACPT_experiment_5_30_19,3.1.0,59.94640165416856,
,,,C,U,g,n,,,,,,,,,,2,9,49,7,,,,,,,,,,,,,b,0,2.752154966838134,3461.390182720903,None,,,,,001,12,2019_Jun_06_1502,ACPT_experiment_5_30_19,3.1.0,59.94640165416856,
,,,C,D,y,b,,,,,,,,,,2,10,50,2,,,,,,,,,,,,,b,1,9.824257458618376,3467.4281966498547,None,,,,,001,12,2019_Jun_06_1502,ACPT_experiment_5_30_19,3.1.0,59.94640165416856,
,,,C,D,g,b,,,,,,,,,,2,11,51,10,,,,,,,,,,,,,b,1,2.36850325343039,3480.521635396153,None,,,,,001,12,2019_Jun_06_1502,ACPT_experiment_5_30_19,3.1.0,59.94640165416856,
,,,C,D,d,v,,,,,,,,,,2,12,52,9,,,,,,,,,,,,,v,1,2.2517661732708802,3486.1759930838216,None,,,,,001,12,2019_Jun_06_1502,ACPT_experiment_5_30_19,3.1.0,59.94640165416856,
,,,C,D,g,b,,,,,,,,,,2,13,53,1,,,,,,,,,,,,,b,1,2.6852866990338953,3491.713593164959,None,,,,,001,12,2019_Jun_06_1502,ACPT_experiment_5_30_19,3.1.0,59.94640165416856,
,,,C,G,y,b,,,,,,,,,,2,14,54,14,,,,,,,,,,,,,b,1,5.6877371852096985,3497.684860776886,None,,,,,001,12,2019_Jun_06_1502,ACPT_experiment_5_30_19,3.1.0,59.94640165416856,
,,,C,G,d,b,,,,,,,,,,2,15,55,12,,,,,,,,,,,,,b,1,4.670279508765816,3506.6417738163236,None,,,,,001,12,2019_Jun_06_1502,ACPT_experiment_5_30_19,3.1.0,59.94640165416856,
,,,C,G,d,b,,,,,,,,,,2,16,56,3,,,,,,,,,,,,,b,1,2.501924950767716,3514.581233707193,None,,,,,001,12,2019_Jun_06_1502,ACPT_experiment_5_30_19,3.1.0,59.94640165416856,
,,,C,U,d,n,,,,,,,,,,2,17,57,6,,,,,,,,,,,,,n,1,3.2024793438322376,3520.3690254683916,None,,,,,001,12,2019_Jun_06_1502,ACPT_experiment_5_30_19,3.1.0,59.94640165416856,
,,,C,D,d,v,,,,,,,,,,2,18,58,18,,,,,,,,,,,,,v,1,4.653607871503482,3526.8573649817718,None,,,,,001,12,2019_Jun_06_1502,ACPT_experiment_5_30_19,3.1.0,59.94640165416856,
,,,C,U,g,n,,,,,,,,,,2,19,59,16,,,,,,,,,,,,,v,0,3.4193123545774142,3534.7968176280465,None,,,,,001,12,2019_Jun_06_1502,ACPT_experiment_5_30_19,3.1.0,59.94640165416856,
,,,C,D,d,v,,,,,,,,,,3,0,60,9,,,,,,,,,,,,,v,1,7.705948601971613,3541.5019931707557,None,,,,,001,12,2019_Jun_06_1502,ACPT_experiment_5_30_19,3.1.0,59.94640165416856,
,,,C,U,d,n,,,,,,,,,,3,1,61,6,,,,,,,,,,,,,n,1,6.321552807705302,3552.4937992255527,None,,,,,001,12,2019_Jun_06_1502,ACPT_experiment_5_30_19,3.1.0,59.94640165416856,
,,,C,D,d,v,,,,,,,,,,3,2,62,18,,,,,,,,,,,,,v,1,3.0857646011900215,3562.1012055619194,None,,,,,001,12,2019_Jun_06_1502,ACPT_experiment_5_30_19,3.1.0,59.94640165416856,
,,,C,D,g,b,,,,,,,,,,3,3,63,10,,,,,,,,,,,,,b,1,2.4185927242469916,3568.456088664252,None,,,,,001,12,2019_Jun_06_1502,ACPT_experiment_5_30_19,3.1.0,59.94640165416856,
,,,C,G,y,b,,,,,,,,,,3,4,64,14,,,,,,,,,,,,,b,1,3.5527618228879874,3574.160512579643,None,,,,,001,12,2019_Jun_06_1502,ACPT_experiment_5_30_19,3.1.0,59.94640165416856,
,,,C,G,d,b,,,,,,,,,,3,5,65,3,,,,,,,,,,,,,b,1,5.270735556379805,3580.9991140457114,None,,,,,001,12,2019_Jun_06_1502,ACPT_experiment_5_30_19,3.1.0,59.94640165416856,
,,,C,U,g,n,,,,,,,,,,3,6,66,7,,,,,,,,,,,,,n,1,2.551997215658048,3589.5557130920806,None,,,,,001,12,2019_Jun_06_1502,ACPT_experiment_5_30_19,3.1.0,59.94640165416856,
,,,C,U,y,n,,,,,,,,,,3,7,67,17,,,,,,,,,,,,,n,1,1.5678822100380785,3595.393546630474,None,,,,,001,12,2019_Jun_06_1502,ACPT_experiment_5_30_19,3.1.0,59.94640165416856,
,,,C,U,g,n,,,,,,,,,,3,8,68,16,,,,,,,,,,,,,n,1,0.9674152955230966,3600.2472914249283,None,,,,,001,12,2019_Jun_06_1502,ACPT_experiment_5_30_19,3.1.0,59.94640165416856,
,,,C,G,g,v,,,,,,,,,,3,9,69,19,,,,,,,,,,,,,v,1,2.8017747460471583,3604.517620981811,None,,,,,001,12,2019_Jun_06_1502,ACPT_experiment_5_30_19,3.1.0,59.94640165416856,
,,,C,D,g,b,,,,,,,,,,3,10,70,1,,,,,,,,,,,,,b,1,13.360315043533774,3610.605291516693,None,,,,,001,12,2019_Jun_06_1502,ACPT_experiment_5_30_19,3.1.0,59.94640165416856,
,,,C,D,d,v,,,,,,,,,,3,11,71,0,,,,,,,,,,,,,v,1,4.787041945030069,3627.234764604813,None,,,,,001,12,2019_Jun_06_1502,ACPT_experiment_5_30_19,3.1.0,59.94640165416856,
,,,C,G,g,v,,,,,,,,,,3,12,72,13,,,,,,,,,,,,,v,1,5.2373838298117334,3635.307657965497,None,,,,,001,12,2019_Jun_06_1502,ACPT_experiment_5_30_19,3.1.0,59.94640165416856,
,,,C,U,y,n,,,,,,,,,,3,13,73,8,,,,,,,,,,,,,n,1,1.3844383562973235,3643.8308986444154,None,,,,,001,12,2019_Jun_06_1502,ACPT_experiment_5_30_19,3.1.0,59.94640165416856,
,,,C,U,d,n,,,,,,,,,,3,14,74,15,,,,,,,,,,,,,n,1,0.5837992014021438,3648.517858544341,None,,,,,001,12,2019_Jun_06_1502,ACPT_experiment_5_30_19,3.1.0,59.94640165416856,
,,,C,D,y,b,,,,,,,,,,3,15,75,11,,,,,,,,,,,,,b,1,3.969799976577633,3652.3874973889233,None,,,,,001,12,2019_Jun_06_1502,ACPT_experiment_5_30_19,3.1.0,59.94640165416856,
,,,C,G,d,b,,,,,,,,,,3,16,76,12,,,,,,,,,,,,,b,1,4.2866489254447515,3659.6430971633763,None,,,,,001,12,2019_Jun_06_1502,ACPT_experiment_5_30_19,3.1.0,59.94640165416856,
,,,C,D,y,b,,,,,,,,,,3,17,77,2,,,,,,,,,,,,,b,1,4.319974390335119,3667.215619238277,None,,,,,001,12,2019_Jun_06_1502,ACPT_experiment_5_30_19,3.1.0,59.94640165416856,
,,,C,G,g,v,,,,,,,,,,3,18,78,4,,,,,,,,,,,,,v,1,4.8037190157483565,3674.8214592316126,None,,,,,001,12,2019_Jun_06_1502,ACPT_experiment_5_30_19,3.1.0,59.94640165416856,
,,,C,G,y,b,,,,,,,,,,3,19,79,5,,,,,,,,,,,,,b,1,1.4844823672465282,3682.9110350964675,None,,,,,001,12,2019_Jun_06_1502,ACPT_experiment_5_30_19,3.1.0,59.94640165416856,
,,,C,G,g,v,,,,,,,,,,4,0,80,13,,,,,,,,,,,,,v,1,4.586857328456972,3687.6814023856477,None,,,,,001,12,2019_Jun_06_1502,ACPT_experiment_5_30_19,3.1.0,59.94640165416856,
,,,C,D,g,b,,,,,,,,,,4,1,81,10,,,,,,,,,,,,,b,1,5.570965089478705,3695.554117468784,None,,,,,001,12,2019_Jun_06_1502,ACPT_experiment_5_30_19,3.1.0,59.94640165416856,
,,,C,G,y,b,,,,,,,,,,4,2,82,5,,,,,,,,,,,,,b,1,0.967414993665443,3704.4109469538253,None,,,,,001,12,2019_Jun_06_1502,ACPT_experiment_5_30_19,3.1.0,59.94640165416856,
,,,C,D,y,b,,,,,,,,,,4,3,83,11,,,,,,,,,,,,,b,1,0.9674110695086711,3708.6809154881103,None,,,,,001,12,2019_Jun_06_1502,ACPT_experiment_5_30_19,3.1.0,59.94640165416856,
,,,C,D,g,b,,,,,,,,,,4,4,84,1,,,,,,,,,,,,,b,1,2.9856433144996117,3712.9341831048678,None,,,,,001,12,2019_Jun_06_1502,ACPT_experiment_5_30_19,3.1.0,59.94640165416856,
,,,C,U,d,n,,,,,,,,,,4,5,85,15,,,,,,,,,,,,,n,1,0.9173813666457136,3719.205683872189,None,,,,,001,12,2019_Jun_06_1502,ACPT_experiment_5_30_19,3.1.0,59.94640165416856,
,,,C,D,d,v,,,,,,,,,,4,6,86,9,,,,,,,,,,,,,v,1,3.1357861538745055,3723.408899750424,None,,,,,001,12,2019_Jun_06_1502,ACPT_experiment_5_30_19,3.1.0,59.94640165416856,
,,,C,G,g,v,,,,,,,,,,4,7,87,19,,,,,,,,,,,,,v,1,3.6195271569886245,3729.8305183028806,None,,,,,001,12,2019_Jun_06_1502,ACPT_experiment_5_30_19,3.1.0,59.94640165416856,
,,,C,U,g,n,,,,,,,,,,4,8,88,7,,,,,,,,,,,,,n,1,2.2517577212347533,3736.7358678971195,None,,,,,001,12,2019_Jun_06_1502,ACPT_experiment_5_30_19,3.1.0,59.94640165416856,
,,,C,D,y,b,,,,,,,,,,4,9,89,2,,,,,,,,,,,,,b,1,1.1008629526841105,3742.2734746191436,None,,,,,001,12,2019_Jun_06_1502,ACPT_experiment_5_30_19,3.1.0,59.94640165416856,
,,,C,G,d,b,,,,,,,,,,4,10,90,12,,,,,,,,,,,,,b,1,2.8518083730668877,3746.6772424755745,None,,,,,001,12,2019_Jun_06_1502,ACPT_experiment_5_30_19,3.1.0,59.94640165416856,
,,,C,D,d,v,,,,,,,,,,4,11,91,0,,,,,,,,,,,,,v,1,5.003913593645848,3752.814930035269,None,,,,,001,12,2019_Jun_06_1502,ACPT_experiment_5_30_19,3.1.0,59.94640165416856,
,,,C,G,y,b,,,,,,,,,,4,12,92,14,,,,,,,,,,,,,b,1,1.1842682289243385,3761.104638898918,None,,,,,001,12,2019_Jun_06_1502,ACPT_experiment_5_30_19,3.1.0,59.94640165416856,
,,,C,U,y,n,,,,,,,,,,4,13,93,8,,,,,,,,,,,,,n,1,1.667967877441697,3765.59144195324,None,,,,,001,12,2019_Jun_06_1502,ACPT_experiment_5_30_19,3.1.0,59.94640165416856,
,,,C,G,g,v,,,,,,,,,,4,14,94,4,,,,,,,,,,,,,v,1,2.9856442200762103,3770.5452724150946,None,,,,,001,12,2019_Jun_06_1502,ACPT_experiment_5_30_19,3.1.0,59.94640165416856,
,,,C,U,d,n,,,,,,,,,,4,15,95,6,,,,,,,,,,,,,n,1,7.0220945227192715,3776.81677710658,None,,,,,001,12,2019_Jun_06_1502,ACPT_experiment_5_30_19,3.1.0,59.94640165416856,
,,,C,D,d,v,,,,,,,,,,4,16,96,18,,,,,,,,,,,,,v,1,5.020570138000039,3787.124700405575,None,,,,,001,12,2019_Jun_06_1502,ACPT_experiment_5_30_19,3.1.0,59.94640165416856,
,,,C,U,y,n,,,,,,,,,,4,17,97,17,,,,,,,,,,,,,n,1,1.5178473755840969,3795.4311267889625,None,,,,,001,12,2019_Jun_06_1502,ACPT_experiment_5_30_19,3.1.0,59.94640165416856,
,,,C,U,g,n,,,,,,,,,,4,18,98,16,,,,,,,,,,,,,n,1,1.0674961331933446,3800.218151829924,None,,,,,001,12,2019_Jun_06_1502,ACPT_experiment_5_30_19,3.1.0,59.94640165416856,
,,,C,G,d,b,,,,,,,,,,4,19,99,3,,,,,,,,,,,,,b,1,9.14019087107954,3804.5884312179496,None,,,,,001,12,2019_Jun_06_1502,ACPT_experiment_5_30_19,3.1.0,59.94640165416856,
,,,C,U,d,n,,,,,,,,,,5,0,100,6,,,,,,,,,,,,,n,1,1.0508193643363484,3817.014436074247,None,,,,,001,12,2019_Jun_06_1502,ACPT_experiment_5_30_19,3.1.0,59.94640165416856,
,,,C,G,g,v,,,,,,,,,,5,1,101,13,,,,,,,,,,,,,v,1,2.8519436056121776,3821.368067671816,None,,,,,001,12,2019_Jun_06_1502,ACPT_experiment_5_30_19,3.1.0,59.94640165416856,
,,,C,G,g,v,,,,,,,,,,5,2,102,4,,,,,,,,,,,,,v,1,5.02054900791336,3827.4892010171407,None,,,,,001,12,2019_Jun_06_1502,ACPT_experiment_5_30_19,3.1.0,59.94640165416856,
,,,C,U,g,n,,,,,,,,,,5,3,103,7,,,,,,,,,,,,,n,1,1.3343986921063333,3835.795558576823,None,,,,,001,12,2019_Jun_06_1502,ACPT_experiment_5_30_19,3.1.0,59.94640165416856,
,,,C,U,y,n,,,,,,,,,,5,4,104,8,,,,,,,,,,,,,n,1,1.1142123368299508,3840.435820384615,None,,,,,001,12,2019_Jun_06_1502,ACPT_experiment_5_30_19,3.1.0,59.94640165416856,
,,,C,U,g,n,,,,,,,,,,5,5,105,16,,,,,,,,,,,,,n,1,0.9173868000980292,3844.819209783107,None,,,,,001,12,2019_Jun_06_1502,ACPT_experiment_5_30_19,3.1.0,59.94640165416856,
,,,C,D,g,b,,,,,,,,,,5,6,106,10,,,,,,,,,,,,,b,1,6.371592170035001,3849.0224513193007,None,,,,,001,12,2019_Jun_06_1502,ACPT_experiment_5_30_19,3.1.0,59.94640165416856,
,,,C,D,y,b,,,,,,,,,,5,7,107,2,,,,,,,,,,,,,b,1,2.068283379798231,3858.679878906498,None,,,,,001,12,2019_Jun_06_1502,ACPT_experiment_5_30_19,3.1.0,59.94640165416856,
,,,C,U,y,n,,,,,,,,,,5,8,108,17,,,,,,,,,,,,,n,1,1.0842027860308008,3864.0340010239033,None,,,,,001,12,2019_Jun_06_1502,ACPT_experiment_5_30_19,3.1.0,59.94640165416856,
,,,C,G,d,b,,,,,,,,,,5,9,109,12,,,,,,,,,,,,,b,1,2.918675735298166,3868.420999139098,None,,,,,001,12,2019_Jun_06_1502,ACPT_experiment_5_30_19,3.1.0,59.94640165416856,
,,,C,G,y,b,,,,,,,,,,5,10,110,14,,,,,,,,,,,,,b,1,1.5012004907002847,3874.608816014914,None,,,,,001,12,2019_Jun_06_1502,ACPT_experiment_5_30_19,3.1.0,59.94640165416856,
,,,C,G,g,v,,,,,,,,,,5,11,111,19,,,,,,,,,,,,,v,1,2.2350788393669063,3879.3791905486923,None,,,,,001,12,2019_Jun_06_1502,ACPT_experiment_5_30_19,3.1.0,59.94640165416856,
,,,C,D,d,v,,,,,,,,,,5,12,112,18,,,,,,,,,,,,,v,1,3.619489726555912,3884.9001171814143,None,,,,,001,12,2019_Jun_06_1502,ACPT_experiment_5_30_19,3.1.0,59.94640165416856,
,,,C,G,y,b,,,,,,,,,,5,13,113,5,,,,,,,,,,,,,b,1,1.2009323197344202,3891.8054365898224,None,,,,,001,12,2019_Jun_06_1502,ACPT_experiment_5_30_19,3.1.0,59.94640165416856,
,,,C,U,d,n,,,,,,,,,,5,14,114,15,,,,,,,,,,,,,n,1,1.2171840720184264,3896.3093106400247,None,,,,,001,12,2019_Jun_06_1502,ACPT_experiment_5_30_19,3.1.0,59.94640165416856,
,,,C,D,g,b,,,,,,,,,,5,15,115,1,,,,,,,,,,,,,b,1,4.136533253320522,3900.812379935838,None,,,,,001,12,2019_Jun_06_1502,ACPT_experiment_5_30_19,3.1.0,59.94640165416856,
,,,C,D,d,v,,,,,,,,,,5,16,116,9,,,,,,,,,,,,,v,1,1.4177900828690326,3908.2180914582514,None,,,,,001,12,2019_Jun_06_1502,ACPT_experiment_5_30_19,3.1.0,59.94640165416856,
,,,C,D,d,v,,,,,,,,,,5,17,117,0,,,,,,,,,,,,,v,1,6.0213121058477554,3912.921728127041,None,,,,,001,12,2019_Jun_06_1502,ACPT_experiment_5_30_19,3.1.0,59.94640165416856,
,,,C,G,d,b,,,,,,,,,,5,18,118,3,,,,,,,,,,,,,b,1,2.201760920932429,3922.212189825439,None,,,,,001,12,2019_Jun_06_1502,ACPT_experiment_5_30_19,3.1.0,59.94640165416856,
,,,C,D,y,b,,,,,,,,,,5,19,119,11,,,,,,,,,,,,,b,1,1.3844078686015564,3927.699779824512,None,,,,,001,12,2019_Jun_06_1502,ACPT_experiment_5_30_19,3.1.0,59.94640165416856,
,,,C,G,y,b,,,,,,,,,,6,0,120,5,,,,,,,,,,,,,b,1,1.0172035116993356,3932.3869800036937,None,,,,,001,12,2019_Jun_06_1502,ACPT_experiment_5_30_19,3.1.0,59.94640165416856,
,,,C,D,d,v,,,,,,,,,,6,1,121,18,,,,,,,,,,,,,v,1,5.587659667977277,3936.6900418737914,None,,,,,001,12,2019_Jun_06_1502,ACPT_experiment_5_30_19,3.1.0,59.94640165416856,
,,,C,D,g,b,,,,,,,,,,6,2,122,10,,,,,,,,,,,,,b,1,2.1516792984330095,3945.5468647179496,None,,,,,001,12,2019_Jun_06_1502,ACPT_experiment_5_30_19,3.1.0,59.94640165416856,
,,,C,D,y,b,,,,,,,,,,6,3,123,11,,,,,,,,,,,,,b,1,1.1008777437418757,3950.9676978349507,None,,,,,001,12,2019_Jun_06_1502,ACPT_experiment_5_30_19,3.1.0,59.94640165416856,
,,,C,U,g,n,,,,,,,,,,6,4,124,7,,,,,,,,,,,,,n,1,1.4841083647370397,3955.3713703041412,None,,,,,001,12,2019_Jun_06_1502,ACPT_experiment_5_30_19,3.1.0,59.94640165416856,
,,,C,U,y,n,,,,,,,,,,6,5,125,17,,,,,,,,,,,,,n,1,1.1342382242000895,3960.1247598716745,None,,,,,001,12,2019_Jun_06_1502,ACPT_experiment_5_30_19,3.1.0,59.94640165416856,
,,,C,G,g,v,,,,,,,,,,6,6,126,13,,,,,,,,,,,,,v,1,4.636741837446607,3964.5617744079664,None,,,,,001,12,2019_Jun_06_1502,ACPT_experiment_5_30_19,3.1.0,59.94640165416856,
,,,C,D,d,v,,,,,,,,,,6,7,127,9,,,,,,,,,,,,,v,1,6.922016703632835,3972.484306081964,None,,,,,001,12,2019_Jun_06_1502,ACPT_experiment_5_30_19,3.1.0,59.94640165416856,
,,,C,D,y,b,,,,,,,,,,6,8,128,2,0,0,0,0,0,0,0,0,,,,,b,1,1.0007775871381455,3982.692184162579,None,,,,,001,12,2019_Jun_06_1502,ACPT_experiment_5_30_19,3.1.0,59.94640165416856,
,,,C,D,y,b,L,U,g,R,u,,,,,6,8,128,2,0,0,0,0,,,,,0,0,0,23,,,,,,up,1.6343637972786382,4037.1677601988868,None,001,12,2019_Jun_06_1502,ACPT_experiment_5_30_19,3.1.0,59.94640165416856,
,,,C,D,y,b,L,D,y,L,y,,,,,6,8,128,2,0,0,0,0,,,,,0,1,1,32,,,,,,down,1.1008122404782625,4040.086461894005,None,001,12,2019_Jun_06_1502,ACPT_experiment_5_30_19,3.1.0,59.94640165416856,
,,,C,D,y,b,L,U,y,R,u,,,,,6,8,128,2,0,0,0,0,,,,,0,2,2,25,,,,,,down,0.8506513499705761,4042.4716147490417,None,001,12,2019_Jun_06_1502,ACPT_experiment_5_30_19,3.1.0,59.94640165416856,
,,,C,D,y,b,L,G,d,R,i,,,,,6,8,128,2,0,0,0,0,,,,,0,3,3,17,,,,,,up,1.6844825483603927,4044.6067090435554,None,001,12,2019_Jun_06_1502,ACPT_experiment_5_30_19,3.1.0,59.94640165416856,
,,,C,D,y,b,R,U,g,R,u,,,,,6,8,128,2,0,0,0,0,,,,,0,4,4,11,,,,,,up,1.2509867749831756,4047.5755246600147,None,001,12,2019_Jun_06_1502,ACPT_experiment_5_30_19,3.1.0,59.94640165416856,
,,,C,D,y,b,L,G,y,L,y,,,,,6,8,128,2,0,0,0,0,,,,,0,5,5,34,,,,,,down,0.7672717316891067,4050.127492293557,None,001,12,2019_Jun_06_1502,ACPT_experiment_5_30_19,3.1.0,59.94640165416856,
,,,C,D,y,b,R,D,d,R,c ,,,,,6,8,128,2,0,0,0,0,,,,,0,6,6,1,,,,,,up,0.8673281188312103,4052.1957780882203,None,001,12,2019_Jun_06_1502,ACPT_experiment_5_30_19,3.1.0,59.94640165416856,
,,,C,D,y,b,R,D,y,L,y,,,,,6,8,128,2,0,0,0,0,,,,,0,7,7,26,,,,,,down,0.7672714298314531,4054.3307407724915,None,001,12,2019_Jun_06_1502,ACPT_experiment_5_30_19,3.1.0,59.94640165416856,
,,,C,D,y,b,R,U,d,R,u,,,,,6,8,128,2,0,0,0,0,,,,,0,8,8,9,,,,,,up,1.601236351474654,4056.382337120247,None,001,12,2019_Jun_06_1502,ACPT_experiment_5_30_19,3.1.0,59.94640165416856,
,,,C,D,y,b,L,U,d,L,u,,,,,6,8,128,2,0,0,0,0,,,,,0,9,9,20,,,,,,up,1.1675685188274656,4059.2678956729196,None,001,12,2019_Jun_06_1502,ACPT_experiment_5_30_19,3.1.0,59.94640165416856,
,,,C,D,y,b,R,G,d,R,i,,,,,6,8,128,2,0,0,0,0,,,,,0,10,10,5,,,,,,up,0.7005245090876997,4061.7197951468424,None,001,12,2019_Jun_06_1502,ACPT_experiment_5_30_19,3.1.0,59.94640165416856,
,,,C,D,y,b,L,D,g,R,i,,,,,6,8,128,2,0,0,0,0,,,,,0,11,11,15,,,,,,up,0.7338895174252684,4063.7046551388976,None,001,12,2019_Jun_06_1502,ACPT_experiment_5_30_19,3.1.0,59.94640165416856,
,,,C,D,y,b,R,G,y,R,y,,,,,6,8,128,2,0,0,0,0,,,,,0,12,12,29,,,,,,down,0.6338171317875094,4065.7228756114146,None,001,12,2019_Jun_06_1502,ACPT_experiment_5_30_19,3.1.0,59.94640165416856,
,,,C,D,y,b,L,U,d,R,u,,,,,6,8,128,2,0,0,0,0,,,,,0,13,13,21,,,,,,up,0.8173313185288862,4067.640994418036,None,001,12,2019_Jun_06_1502,ACPT_experiment_5_30_19,3.1.0,59.94640165416856,
,,,C,D,y,b,R,D,y,R,y,,,,,6,8,128,2,0,0,0,0,,,,,0,14,14,27,,,,,,down,0.5337290495190246,4069.7426437117447,None,001,12,2019_Jun_06_1502,ACPT_experiment_5_30_19,3.1.0,59.94640165416856,
,,,C,D,y,b,R,G,g,L,c ,,,,,6,8,128,2,0,0,0,0,,,,,0,15,15,6,,,,,,up,0.8172947936691344,4071.560707942377,None,001,12,2019_Jun_06_1502,ACPT_experiment_5_30_19,3.1.0,59.94640165416856,
,,,C,D,y,b,R,D,g,L,i,,,,,6,8,128,2,0,0,0,0,,,,,0,16,16,2,,,,,,up,0.9173490678003873,4073.662348180338,None,001,12,2019_Jun_06_1502,ACPT_experiment_5_30_19,3.1.0,59.94640165416856,
,,,C,D,y,b,R,G,y,L,y,,,,,6,8,128,2,0,0,0,0,,,,,0,17,17,28,,,,,,down,0.7172205968818162,4075.864025486504,None,001,12,2019_Jun_06_1502,ACPT_experiment_5_30_19,3.1.0,59.94640165416856,
,,,C,D,y,b,L,D,d,R,c ,,,,,6,8,128,2,0,0,0,0,,,,,0,18,18,13,,,,,,up,0.5838058422850736,4077.8655706994523,None,001,12,2019_Jun_06_1502,ACPT_experiment_5_30_19,3.1.0,59.94640165416856,
,,,C,D,y,b,L,G,y,R,y,,,,,6,8,128,2,0,0,0,0,,,,,0,19,19,35,,,,,,down,0.6338110946235247,4079.733683951881,None,001,12,2019_Jun_06_1502,ACPT_experiment_5_30_19,3.1.0,59.94640165416856,
,,,C,D,y,b,R,G,g,R,c ,,,,,6,8,128,2,0,0,0,0,,,,,0,20,20,7,,,,,,up,1.0007618905037816,4081.6518269071694,None,001,12,2019_Jun_06_1502,ACPT_experiment_5_30_19,3.1.0,59.94640165416856,
,,,C,D,y,b,L,D,g,L,i,,,,,6,8,128,2,0,0,0,0,,,,,0,21,21,14,,,,,,up,0.850654670412041,4083.936914621174,None,001,12,2019_Jun_06_1502,ACPT_experiment_5_30_19,3.1.0,59.94640165416856,
,,,C,D,y,b,R,U,y,R,u,,,,,6,8,128,2,0,0,0,0,,,,,0,22,22,31,,,,,,down,0.6838477402307035,4086.088579430403,None,001,12,2019_Jun_06_1502,ACPT_experiment_5_30_19,3.1.0,59.94640165416856,
,,,C,D,y,b,R,U,g,L,u,,,,,6,8,128,2,0,0,0,0,,,,,0,23,23,10,,,,,,up,0.8840172638847434,4088.0734427429034,None,001,12,2019_Jun_06_1502,ACPT_experiment_5_30_19,3.1.0,59.94640165416856,
,,,C,D,y,b,L,G,g,L,c ,,,,,6,8,128,2,0,0,0,0,,,,,0,24,24,18,,,,,,up,0.7672527146132779,4090.2417834154166,None,001,12,2019_Jun_06_1502,ACPT_experiment_5_30_19,3.1.0,59.94640165416856,
,,,C,D,y,b,L,D,y,R,y,,,,,6,8,128,2,0,0,0,0,,,,,0,25,25,33,,,,,,down,1.1175520977340057,4092.2933661795487,None,001,12,2019_Jun_06_1502,ACPT_experiment_5_30_19,3.1.0,59.94640165416856,
,,,C,D,y,b,L,G,d,L,i,,,,,6,8,128,2,0,0,0,0,,,,,0,26,26,16,,,,,,up,0.6505231809132965,4094.6951942941505,None,001,12,2019_Jun_06_1502,ACPT_experiment_5_30_19,3.1.0,59.94640165416856,
,,,C,D,y,b,R,D,d,L,c,,,,,6,8,128,2,0,0,0,0,,,,,0,27,27,0,,,,,,up,0.8673287225465174,4096.6300375632545,None,001,12,2019_Jun_06_1502,ACPT_experiment_5_30_19,3.1.0,59.94640165416856,
,,,C,D,y,b,L,D,d,L,c ,,,,,6,8,128,2,0,0,0,0,,,,,0,28,28,12,,,,,,up,0.5504169871383056,4098.781693618594,None,001,12,2019_Jun_06_1502,ACPT_experiment_5_30_19,3.1.0,59.94640165416856,
,,,C,D,y,b,L,G,g,R,c ,,,,,6,8,128,2,0,0,0,0,,,,,0,29,29,19,,,,,,up,0.6838589089893503,4100.616446088699,None,001,12,2019_Jun_06_1502,ACPT_experiment_5_30_19,3.1.0,59.94640165416856,
,,,C,D,y,b,R,U,y,L,u,,,,,6,8,128,2,0,0,0,0,,,,,0,30,30,30,,,,,,down,0.7169760916112864,4102.601553302751,None,001,12,2019_Jun_06_1502,ACPT_experiment_5_30_19,3.1.0,59.94640165416856,
,,,C,D,y,b,L,U,y,L,u,,,,,6,8,128,2,0,0,0,0,,,,,0,31,31,24,,,,,,down,0.8840157545928378,4104.6028549160055,None,001,12,2019_Jun_06_1502,ACPT_experiment_5_30_19,3.1.0,59.94640165416856,
,,,C,D,y,b,R,G,d,L,i,,,,,6,8,128,2,0,0,0,0,,,,,0,32,32,4,,,,,,up,0.6504963155166479,4106.77119196622,None,001,12,2019_Jun_06_1502,ACPT_experiment_5_30_19,3.1.0,59.94640165416856,
,,,C,D,y,b,L,U,g,L,u,,,,,6,8,128,2,0,0,0,0,,,,,0,33,33,22,,,,,,up,0.6171433815143246,4108.7060174256785,None,001,12,2019_Jun_06_1502,ACPT_experiment_5_30_19,3.1.0,59.94640165416856,
,,,C,D,y,b,R,U,d,L,u,,,,,6,8,128,2,0,0,0,0,,,,,0,34,34,8,,,,,,up,0.5670856058241043,4110.607495686445,None,001,12,2019_Jun_06_1502,ACPT_experiment_5_30_19,3.1.0,59.94640165416856,
,,,C,D,y,b,R,D,g,R,i,,,,,6,8,128,2,0,0,0,0,,,,,0,35,35,3,,,,,,up,0.56710915077565,4112.458918284525,None,001,12,2019_Jun_06_1502,ACPT_experiment_5_30_19,3.1.0,59.94640165416856,
,,,C,D,y,b,R,G,y,L,y,,,,,6,8,128,2,0,0,0,0,,,,,1,0,36,28,,,,,,down,0.5337414257119235,4114.310339675174,None,001,12,2019_Jun_06_1502,ACPT_experiment_5_30_19,3.1.0,59.94640165416856,
,,,C,D,y,b,L,G,d,L,i,,,,,6,8,128,2,0,0,0,0,,,,,1,1,37,16,,,,,,up,0.5835260195854062,4116.145334537547,None,001,12,2019_Jun_06_1502,ACPT_experiment_5_30_19,3.1.0,59.94640165416856,
,,,C,D,y,b,R,D,y,R,y,,,,,6,8,128,2,0,0,0,0,,,,,1,2,38,27,,,,,,down,0.7672506016024272,4118.013195738242,None,001,12,2019_Jun_06_1502,ACPT_experiment_5_30_19,3.1.0,59.94640165416856,
,,,C,D,y,b,R,U,y,L,u,,,,,6,8,128,2,0,0,0,0,,,,,1,3,39,30,,,,,,down,0.7505765494679508,4120.064776993078,None,001,12,2019_Jun_06_1502,ACPT_experiment_5_30_19,3.1.0,59.94640165416856,
,,,C,D,y,b,R,D,d,R,c ,,,,,6,8,128,2,0,0,0,0,,,,,1,4,40,1,,,,,,up,0.7338991768920096,4122.099678460474,None,001,12,2019_Jun_06_1502,ACPT_experiment_5_30_19,3.1.0,59.94640165416856,
,,,C,D,y,b,R,D,y,L,y,,,,,6,8,128,2,0,0,0,0,,,,,1,5,41,26,,,,,,down,0.6004747628321638,4124.101208580503,None,001,12,2019_Jun_06_1502,ACPT_experiment_5_30_19,3.1.0,59.94640165416856,
,,,C,D,y,b,L,D,g,L,i,,,,,6,8,128,2,0,0,0,0,,,,,1,6,42,14,,,,,,up,0.750569304869714,4125.986009166832,None,001,12,2019_Jun_06_1502,ACPT_experiment_5_30_19,3.1.0,59.94640165416856,
,,,C,D,y,b,L,G,g,R,c ,,,,,6,8,128,2,0,0,0,0,,,,,1,7,43,19,,,,,,up,0.6672065906568605,4128.020908823079,None,001,12,2019_Jun_06_1502,ACPT_experiment_5_30_19,3.1.0,59.94640165416856,
,,,C,D,y,b,R,U,d,L,u,,,,,6,8,128,2,0,0,0,0,,,,,1,8,44,8,,,,,,up,0.5501477294819779,4129.989370057823,None,001,12,2019_Jun_06_1502,ACPT_experiment_5_30_19,3.1.0,59.94640165416856,
,,,C,D,y,b,L,D,d,L,c ,,,,,6,8,128,2,0,0,0,0,,,,,1,9,45,12,,,,,,up,0.5670958690097905,4131.823842705229,None,001,12,2019_Jun_06_1502,ACPT_experiment_5_30_19,3.1.0,59.94640165416856,
,,,C,D,y,b,R,D,d,L,c,,,,,6,8,128,2,0,0,0,0,,,,,1,10,46,0,,,,,,up,0.7837257290775597,4133.675442796028,None,001,12,2019_Jun_06_1502,ACPT_experiment_5_30_19,3.1.0,59.94640165416856,
,,,C,D,y,b,L,G,g,L,c ,,,,,6,8,128,2,0,0,0,0,,,,,1,11,47,18,,,,,,up,0.8506942138592422,4135.743531477185,None,001,12,2019_Jun_06_1502,ACPT_experiment_5_30_19,3.1.0,59.94640165416856,
,,,C,D,y,b,L,G,d,R,i,,,,,6,8,128,2,0,0,0,0,,,,,1,12,48,17,,,,,,up,0.7505931516789133,4137.861808638701,None,001,12,2019_Jun_06_1502,ACPT_experiment_5_30_19,3.1.0,59.94640165416856,
,,,C,D,y,b,L,U,y,L,u,,,,,6,8,128,2,0,0,0,0,,,,,1,13,49,24,,,,,,down,0.9840851216431474,4139.913412834774,None,001,12,2019_Jun_06_1502,ACPT_experiment_5_30_19,3.1.0,59.94640165416856,
,,,C,D,y,b,L,U,g,R,u,,,,,6,8,128,2,0,0,0,0,,,,,1,14,50,23,,,,,,up,0.9007082200878358,4142.19850960453,None,001,12,2019_Jun_06_1502,ACPT_experiment_5_30_19,3.1.0,59.94640165416856,
,,,C,D,y,b,L,U,d,R,u,,,,,6,8,128,2,0,0,0,0,,,,,1,15,51,21,,,,,,up,0.5669868981385662,4144.366845749171,None,001,12,2019_Jun_06_1502,ACPT_experiment_5_30_19,3.1.0,59.94640165416856,
,,,C,D,y,b,R,U,g,L,u,,,,,6,8,128,2,0,0,0,0,,,,,1,16,52,10,,,,,,up,0.6672171557002002,4146.218281327163,None,001,12,2019_Jun_06_1502,ACPT_experiment_5_30_19,3.1.0,59.94640165416856,
,,,C,D,y,b,R,U,d,R,u,,,,,6,8,128,2,0,0,0,0,,,,,1,17,53,9,,,,,,up,0.8506299180262431,4148.169801063266,None,001,12,2019_Jun_06_1502,ACPT_experiment_5_30_19,3.1.0,59.94640165416856,
,,,C,D,y,b,R,D,g,L,i,,,,,6,8,128,2,0,0,0,0,,,,,1,18,54,2,,,,,,up,0.5337061082864238,4150.30478668877,None,001,12,2019_Jun_06_1502,ACPT_experiment_5_30_19,3.1.0,59.94640165416856,
,,,C,D,y,b,R,U,g,R,u,,,,,6,8,128,2,0,0,0,0,,,,,1,19,55,11,,,,,,up,0.5170610345521709,4152.122827978163,None,001,12,2019_Jun_06_1502,ACPT_experiment_5_30_19,3.1.0,59.94640165416856,
,,,C,D,y,b,L,U,d,L,u,,,,,6,8,128,2,0,0,0,0,,,,,1,20,56,20,,,,,,up,0.5170664680044865,4153.924215138077,None,001,12,2019_Jun_06_1502,ACPT_experiment_5_30_19,3.1.0,59.94640165416856,
,,,C,D,y,b,R,G,g,L,c ,,,,,6,8,128,2,0,0,0,0,,,,,1,21,57,6,,,,,,up,0.5501395793071424,4155.742560096982,None,001,12,2019_Jun_06_1502,ACPT_experiment_5_30_19,3.1.0,59.94640165416856,
,,,C,D,y,b,R,D,g,R,i,,,,,6,8,128,2,0,0,0,0,,,,,1,22,58,3,,,,,,up,0.5170592234026117,4157.577033649961,None,001,12,2019_Jun_06_1502,ACPT_experiment_5_30_19,3.1.0,59.94640165416856,
,,,C,D,y,b,R,G,d,L,i,,,,,6,8,128,2,0,0,0,0,,,,,1,23,59,4,,,,,,up,0.483703270816477,4159.378420508014,None,001,12,2019_Jun_06_1502,ACPT_experiment_5_30_19,3.1.0,59.94640165416856,
,,,C,D,y,b,L,D,g,R,i,,,,,6,8,128,2,0,0,0,0,,,,,1,24,60,15,,,,,,up,0.5504248354554875,4161.146453526491,None,001,12,2019_Jun_06_1502,ACPT_experiment_5_30_19,3.1.0,59.94640165416856,
,,,C,D,y,b,R,G,d,R,i,,,,,6,8,128,2,0,0,0,0,,,,,1,25,61,5,,,,,,up,0.5170399044654914,4162.997893330501,None,001,12,2019_Jun_06_1502,ACPT_experiment_5_30_19,3.1.0,59.94640165416856,
,,,C,D,y,b,R,G,g,R,c ,,,,,6,8,128,2,0,0,0,0,,,,,1,26,62,7,,,,,,up,0.4336467025568709,4164.799284414568,None,001,12,2019_Jun_06_1502,ACPT_experiment_5_30_19,3.1.0,59.94640165416856,
,,,C,D,y,b,L,D,d,R,c ,,,,,6,8,128,2,0,0,0,0,,,,,1,27,63,13,,,,,,up,0.48370357267413056,4166.517260864786,None,001,12,2019_Jun_06_1502,ACPT_experiment_5_30_19,3.1.0,59.94640165416856,
,,,C,D,y,b,L,G,y,R,y,,,,,6,8,128,2,0,0,0,0,,,,,1,28,64,35,,,,,,down,0.5671188102460292,4168.301946201596,None,001,12,2019_Jun_06_1502,ACPT_experiment_5_30_19,3.1.0,59.94640165416856,
,,,C,D,y,b,R,G,y,R,y,,,,,6,8,128,2,0,0,0,0,,,,,1,29,65,29,,,,,,down,0.6004370305345219,4170.186771540311,None,001,12,2019_Jun_06_1502,ACPT_experiment_5_30_19,3.1.0,59.94640165416856,
,,,C,D,y,b,L,D,y,L,y,,,,,6,8,128,2,0,0,0,0,,,,,1,30,66,32,,,,,,down,0.5504079313868715,4172.088226859838,None,001,12,2019_Jun_06_1502,ACPT_experiment_5_30_19,3.1.0,59.94640165416856,
,,,C,D,y,b,R,U,y,R,u,,,,,6,8,128,2,0,0,0,0,,,,,1,31,67,31,,,,,,down,0.5837759583118896,4173.922966953754,None,001,12,2019_Jun_06_1502,ACPT_experiment_5_30_19,3.1.0,59.94640165416856,
,,,C,D,y,b,L,G,y,L,y,,,,,6,8,128,2,0,0,0,0,,,,,1,32,68,34,,,,,,down,0.6838477402270655,4175.807757578756,None,001,12,2019_Jun_06_1502,ACPT_experiment_5_30_19,3.1.0,59.94640165416856,
,,,C,D,y,b,L,D,y,R,y,,,,,6,8,128,2,0,0,0,0,,,,,1,33,69,33,,,,,,down,0.597126549891982,4177.795946464814,None,001,12,2019_Jun_06_1502,ACPT_experiment_5_30_19,3.1.0,59.94640165416856,
,,,C,D,y,b,L,U,y,R,u,,,,,6,8,128,2,0,0,0,0,,,,,1,34,70,25,,,,,,down,0.5670970764440426,4179.677406988381,None,001,12,2019_Jun_06_1502,ACPT_experiment_5_30_19,3.1.0,59.94640165416856,
,,,C,D,y,b,L,U,g,L,u,,,,,6,8,128,2,0,0,0,0,,,,,1,35,71,22,,,,,,up,0.8172947936691344,4181.528832303191,None,001,12,2019_Jun_06_1502,ACPT_experiment_5_30_19,3.1.0,59.94640165416856,
,,,C,D,y,b,,,,,,,,,,6,8,128,2,1,0,1,0,0,0,0,0,,,,,,,,,,,,,,001,12,2019_Jun_06_1502,ACPT_experiment_5_30_19,3.1.0,59.94640165416856,
,,,C,D,y,b,L,U,y,L,u,,,,,6,8,128,2,1,0,1,0,,,,,0,0,0,24,,,,,,down,0.8503808848799963,4217.556888830395,None,001,12,2019_Jun_06_1502,ACPT_experiment_5_30_19,3.1.0,59.94640165416856,
,,,C,D,y,b,L,G,d,R,i,,,,,6,8,128,2,1,0,1,0,,,,,0,1,1,17,,,,,,up,1.351040747256775,4219.708272911352,None,001,12,2019_Jun_06_1502,ACPT_experiment_5_30_19,3.1.0,59.94640165416856,
,,,C,D,y,b,L,U,y,R,u,,,,,6,8,128,2,1,0,1,0,,,,,0,2,2,25,,,,,,down,4.269992381094198,4222.343639783967,None,001,12,2019_Jun_06_1502,ACPT_experiment_5_30_19,3.1.0,59.94640165416856,
,,,C,D,y,b,L,D,d,L,c ,,,,,6,8,128,2,1,0,1,0,,,,,0,3,3,12,,,,,,up,0.7339133642344677,4227.897922067414,None,001,12,2019_Jun_06_1502,ACPT_experiment_5_30_19,3.1.0,59.94640165416856,
,,,C,D,y,b,L,D,g,R,i,,,,,6,8,128,2,1,0,1,0,,,,,0,4,4,15,,,,,,up,0.8673359671483922,4229.899466978504,None,001,12,2019_Jun_06_1502,ACPT_experiment_5_30_19,3.1.0,59.94640165416856,
,,,C,D,y,b,L,G,y,L,y,,,,,6,8,128,2,1,0,1,0,,,,,0,5,5,34,,,,,,down,0.5837850140596856,4232.051125448712,None,001,12,2019_Jun_06_1502,ACPT_experiment_5_30_19,3.1.0,59.94640165416856,
,,,C,D,y,b,R,U,g,R,u,,,,,6,8,128,2,1,0,1,0,,,,,0,6,6,11,,,,,,up,0.5337528963318618,4233.919219684061,None,001,12,2019_Jun_06_1502,ACPT_experiment_5_30_19,3.1.0,59.94640165416856,
,,,C,D,y,b,L,U,d,L,u,,,,,6,8,128,2,1,0,1,0,,,,,0,7,7,20,,,,,,up,0.7005320555472281,4235.737303837343,None,001,12,2019_Jun_06_1502,ACPT_experiment_5_30_19,3.1.0,59.94640165416856,
,,,C,D,y,b,L,D,g,L,i,,,,,6,8,128,2,1,0,1,0,,,,,0,8,8,14,,,,,,up,0.5671182065270841,4237.722168357273,None,001,12,2019_Jun_06_1502,ACPT_experiment_5_30_19,3.1.0,59.94640165416856,
,,,C,D,y,b,R,D,g,R,i,,,,,6,8,128,2,1,0,1,0,,,,,0,9,9,3,,,,,,up,0.4834346168754564,4239.573861722305,None,001,12,2019_Jun_06_1502,ACPT_experiment_5_30_19,3.1.0,59.94640165416856,
,,,C,D,y,b,L,U,d,R,u,,,,,6,8,128,2,1,0,1,0,,,,,0,10,10,21,,,,,,up,0.5004047920629091,4241.34160435304,None,001,12,2019_Jun_06_1502,ACPT_experiment_5_30_19,3.1.0,59.94640165416856,
,,,C,D,y,b,R,U,d,R,u,,,,,6,8,128,2,1,0,1,0,,,,,0,11,11,9,,,,,,up,0.5170516769430833,4243.12634070391,None,001,12,2019_Jun_06_1502,ACPT_experiment_5_30_19,3.1.0,59.94640165416856,
,,,C,D,y,b,L,G,d,L,i,,,,,6,8,128,2,1,0,1,0,,,,,0,12,12,16,,,,,,up,0.6505231809132965,4244.927696772409,None,001,12,2019_Jun_06_1502,ACPT_experiment_5_30_19,3.1.0,59.94640165416856,
,,,C,D,y,b,R,G,y,L,y,,,,,6,8,128,2,1,0,1,0,,,,,0,13,13,28,,,,,,down,0.8806835401446733,4246.882559288,None,001,12,2019_Jun_06_1502,ACPT_experiment_5_30_19,3.1.0,59.94640165416856,
,,,C,D,y,b,R,G,d,R,i,,,,,6,8,128,2,1,0,1,0,,,,,0,14,14,5,,,,,,up,0.7005504689041118,4249.0308776954425,None,001,12,2019_Jun_06_1502,ACPT_experiment_5_30_19,3.1.0,59.94640165416856,
,,,C,D,y,b,R,G,d,L,i,,,,,6,8,128,2,1,0,1,0,,,,,0,15,15,4,,,,,,up,0.5673207534891844,4251.015750969267,None,001,12,2019_Jun_06_1502,ACPT_experiment_5_30_19,3.1.0,59.94640165416856,
,,,C,D,y,b,L,D,y,L,y,,,,,6,8,128,2,1,0,1,0,,,,,0,16,16,32,,,,,,down,0.767278674433328,4252.900540990553,None,001,12,2019_Jun_06_1502,ACPT_experiment_5_30_19,3.1.0,59.94640165416856,
,,,C,D,y,b,L,D,d,R,c ,,,,,6,8,128,2,1,0,1,0,,,,,0,17,17,13,,,,,,up,1.5011494766404212,4254.98548332957,None,001,12,2019_Jun_06_1502,ACPT_experiment_5_30_19,3.1.0,59.94640165416856,
,,,C,D,y,b,R,G,y,R,y,,,,,6,8,128,2,1,0,1,0,,,,,0,18,18,29,,,,,,down,1.33436699698359,4257.770959233423,None,001,12,2019_Jun_06_1502,ACPT_experiment_5_30_19,3.1.0,59.94640165416856,
,,,C,D,y,b,R,U,y,R,u,,,,,6,8,128,2,1,0,1,0,,,,,0,19,19,31,,,,,,down,0.7839355206415348,4260.38964722417,None,001,12,2019_Jun_06_1502,ACPT_experiment_5_30_19,3.1.0,59.94640165416856,
,,,C,D,y,b,L,U,g,R,u,,,,,6,8,128,2,1,0,1,0,,,,,0,20,20,23,,,,,,up,0.7672762595648237,4262.457882608489,None,001,12,2019_Jun_06_1502,ACPT_experiment_5_30_19,3.1.0,59.94640165416856,
,,,C,D,y,b,R,D,d,L,c,,,,,6,8,128,2,1,0,1,0,,,,,0,21,21,0,,,,,,up,0.5671049247612245,4264.509492238014,None,001,12,2019_Jun_06_1502,ACPT_experiment_5_30_19,3.1.0,59.94640165416856,
,,,C,D,y,b,R,U,g,L,u,,,,,6,8,128,2,1,0,1,0,,,,,0,22,22,10,,,,,,up,0.5837816936182207,4266.360918760254,None,001,12,2019_Jun_06_1502,ACPT_experiment_5_30_19,3.1.0,59.94640165416856,
,,,C,D,y,b,R,U,d,L,u,,,,,6,8,128,2,1,0,1,0,,,,,0,23,23,8,,,,,,up,0.8506721781996021,4268.212325661703,None,001,12,2019_Jun_06_1502,ACPT_experiment_5_30_19,3.1.0,59.94640165416856,
,,,C,D,y,b,R,U,y,L,u,,,,,6,8,128,2,1,0,1,0,,,,,0,24,24,30,,,,,,up,0.41698502661893144,4270.3473194373855,None,001,12,2019_Jun_06_1502,ACPT_experiment_5_30_19,3.1.0,59.94640165416856,
,,,C,D,y,b,R,D,d,R,c ,,,,,6,8,128,2,1,0,1,0,,,,,0,25,25,1,,,,,,up,0.7336356545420131,4272.065572088,None,001,12,2019_Jun_06_1502,ACPT_experiment_5_30_19,3.1.0,59.94640165416856,
,,,C,D,y,b,R,G,g,R,c ,,,,,6,8,128,2,1,0,1,0,,,,,0,26,26,7,,,,,,up,2.9022024189725926,4274.083566770465,None,001,12,2019_Jun_06_1502,ACPT_experiment_5_30_19,3.1.0,59.94640165416856,
,,,C,D,y,b,R,D,g,L,i,,,,,6,8,128,2,1,0,1,0,,,,,0,27,27,2,,,,,,up,0.984093875536928,4278.270098937095,None,001,12,2019_Jun_06_1502,ACPT_experiment_5_30_19,3.1.0,59.94640165416856,
,,,C,D,y,b,R,D,y,L,y,,,,,6,8,128,2,1,0,1,0,,,,,0,28,28,26,,,,,,down,0.6171886602678569,4280.521807757277,None,001,12,2019_Jun_06_1502,ACPT_experiment_5_30_19,3.1.0,59.94640165416856,
,,,C,D,y,b,R,D,y,R,y,,,,,6,8,128,2,1,0,1,0,,,,,0,29,29,27,,,,,,down,0.5671185083847377,4282.423276660431,None,001,12,2019_Jun_06_1502,ACPT_experiment_5_30_19,3.1.0,59.94640165416856,
,,,C,D,y,b,R,G,g,L,c ,,,,,6,8,128,2,1,0,1,0,,,,,0,30,30,6,,,,,,up,0.8840127360053884,4284.27472582205,None,001,12,2019_Jun_06_1502,ACPT_experiment_5_30_19,3.1.0,59.94640165416856,
,,,C,D,y,b,L,G,g,R,c ,,,,,6,8,128,2,1,0,1,0,,,,,0,31,31,19,,,,,,up,0.7172145597178314,4286.443067098282,None,001,12,2019_Jun_06_1502,ACPT_experiment_5_30_19,3.1.0,59.94640165416856,
,,,C,D,y,b,L,U,g,L,u,,,,,6,8,128,2,1,0,1,0,,,,,0,32,32,22,,,,,,up,0.6338228670974786,4288.444603255482,None,001,12,2019_Jun_06_1502,ACPT_experiment_5_30_19,3.1.0,59.94640165416856,
,,,C,D,y,b,L,G,y,R,y,,,,,6,8,128,2,1,0,1,0,,,,,0,33,33,35,,,,,,down,0.6171367406277568,4290.362757681391,None,001,12,2019_Jun_06_1502,ACPT_experiment_5_30_19,3.1.0,59.94640165416856,
,,,C,D,y,b,L,G,g,L,c ,,,,,6,8,128,2,1,0,1,0,,,,,0,34,34,18,,,,,,up,0.6338156224992417,4292.264224169676,None,001,12,2019_Jun_06_1502,ACPT_experiment_5_30_19,3.1.0,59.94640165416856,
,,,C,D,y,b,L,D,y,R,y,,,,,6,8,128,2,1,0,1,0,,,,,0,35,35,33,,,,,,down,0.7672575443466485,4294.182372558416,None,001,12,2019_Jun_06_1502,ACPT_experiment_5_30_19,3.1.0,59.94640165416856,
,,,C,D,y,b,R,D,y,R,y,,,,,6,8,128,2,1,0,1,0,,,,,1,0,36,27,,,,,,down,0.5835045876447111,4296.234223976489,None,001,12,2019_Jun_06_1502,ACPT_experiment_5_30_19,3.1.0,59.94640165416856,
,,,C,D,y,b,R,U,y,R,u,,,,,6,8,128,2,1,0,1,0,,,,,1,1,37,31,,,,,,down,0.5671019061774132,4298.102055293208,None,001,12,2019_Jun_06_1502,ACPT_experiment_5_30_19,3.1.0,59.94640165416856,
,,,C,D,y,b,L,G,d,L,i,,,,,6,8,128,2,1,0,1,0,,,,,1,2,38,16,,,,,,up,5.487585169335944,4299.953484834032,None,001,12,2019_Jun_06_1502,ACPT_experiment_5_30_19,3.1.0,59.94640165416856,
,,,C,D,y,b,L,D,y,R,y,,,,,6,8,128,2,1,0,1,0,,,,,1,3,39,33,,,,,,down,0.733894347158639,4306.725372281917,None,001,12,2019_Jun_06_1502,ACPT_experiment_5_30_19,3.1.0,59.94640165416856,
,,,C,D,y,b,R,G,d,L,i,,,,,6,8,128,2,1,0,1,0,,,,,1,4,40,4,,,,,,up,0.8673326467069273,4308.743595773018,None,001,12,2019_Jun_06_1502,ACPT_experiment_5_30_19,3.1.0,59.94640165416856,
,,,C,D,y,b,R,G,g,R,c ,,,,,6,8,128,2,1,0,1,0,,,,,1,5,41,7,,,,,,up,0.5670406289245875,4310.878552721975,None,001,12,2019_Jun_06_1502,ACPT_experiment_5_30_19,3.1.0,59.94640165416856,
,,,C,D,y,b,L,D,d,R,c ,,,,,6,8,128,2,1,0,1,0,,,,,1,6,42,13,,,,,,up,0.5470533794250514,4312.750040147161,None,001,12,2019_Jun_06_1502,ACPT_experiment_5_30_19,3.1.0,59.94640165416856,
,,,C,D,y,b,R,U,d,L,u,,,,,6,8,128,2,1,0,1,0,,,,,1,7,43,8,,,,,,up,0.5671052266188781,4314.564748316536,None,001,12,2019_Jun_06_1502,ACPT_experiment_5_30_19,3.1.0,59.94640165416856,
,,,C,D,y,b,R,D,d,L,c,,,,,6,8,128,2,1,0,1,0,,,,,1,8,44,0,,,,,,up,0.41698080060086795,4316.39950320151,None,001,12,2019_Jun_06_1502,ACPT_experiment_5_30_19,3.1.0,59.94640165416856,
,,,C,D,y,b,R,D,g,L,i,,,,,6,8,128,2,1,0,1,0,,,,,1,9,45,2,,,,,,up,1.4511378852766939,4318.084111021091,None,001,12,2019_Jun_06_1502,ACPT_experiment_5_30_19,3.1.0,59.94640165416856,
,,,C,D,y,b,R,D,g,R,i,,,,,6,8,128,2,1,0,1,0,,,,,1,10,46,3,,,,,,up,0.7674172274200828,4320.802741598376,None,001,12,2019_Jun_06_1502,ACPT_experiment_5_30_19,3.1.0,59.94640165416856,
,,,C,D,y,b,R,U,y,L,u,,,,,6,8,128,2,1,0,1,0,,,,,1,11,47,30,,,,,,down,1.3510371249540185,4322.854477706553,None,001,12,2019_Jun_06_1502,ACPT_experiment_5_30_19,3.1.0,59.94640165416856,
,,,C,D,y,b,L,D,g,L,i,,,,,6,8,128,2,1,0,1,0,,,,,1,12,48,14,,,,,,up,1.0841686760359153,4325.489840655007,None,001,12,2019_Jun_06_1502,ACPT_experiment_5_30_19,3.1.0,59.94640165416856,
,,,C,D,y,b,R,G,y,R,y,,,,,6,8,128,2,1,0,1,0,,,,,1,13,49,29,,,,,,down,1.2341642085339117,4327.8583369656935,None,001,12,2019_Jun_06_1502,ACPT_experiment_5_30_19,3.1.0,59.94640165416856,
,,,C,D,y,b,R,G,y,L,y,,,,,6,8,128,2,1,0,1,0,,,,,1,14,50,28,,,,,,down,1.0009239884420822,4330.360108874274,None,001,12,2019_Jun_06_1502,ACPT_experiment_5_30_19,3.1.0,59.94640165416856,
,,,C,D,y,b,L,G,g,R,c ,,,,,6,8,128,2,1,0,1,0,,,,,1,15,51,19,,,,,,up,0.4336639084867784,4332.645361101082,None,001,12,2019_Jun_06_1502,ACPT_experiment_5_30_19,3.1.0,59.94640165416856,
,,,C,D,y,b,L,D,g,R,i,,,,,6,8,128,2,1,0,1,0,,,,,1,16,52,15,,,,,,up,0.5837768638848502,4334.363348418201,None,001,12,2019_Jun_06_1502,ACPT_experiment_5_30_19,3.1.0,59.94640165416856,
,,,C,D,y,b,L,G,g,L,c ,,,,,6,8,128,2,1,0,1,0,,,,,1,17,53,18,,,,,,up,0.5004259221459506,4336.231458953904,None,001,12,2019_Jun_06_1502,ACPT_experiment_5_30_19,3.1.0,59.94640165416856,
,,,C,D,y,b,R,U,d,R,u,,,,,6,8,128,2,1,0,1,0,,,,,1,18,54,9,,,,,,up,0.6504791095903784,4338.016181419289,None,001,12,2019_Jun_06_1502,ACPT_experiment_5_30_19,3.1.0,59.94640165416856,
,,,C,D,y,b,L,U,y,R,u,,,,,6,8,128,2,1,0,1,0,,,,,1,19,55,25,,,,,,down,4.119868860652787,4339.950967939019,None,001,12,2019_Jun_06_1502,ACPT_experiment_5_30_19,3.1.0,59.94640165416856,
,,,C,D,y,b,L,G,d,R,i,,,,,6,8,128,2,1,0,1,0,,,,,1,20,56,17,,,,,,up,1.4677944296272472,4345.355159906447,None,001,12,2019_Jun_06_1502,ACPT_experiment_5_30_19,3.1.0,59.94640165416856,
,,,C,D,y,b,L,U,d,L,u,,,,,6,8,128,2,1,0,1,0,,,,,1,21,57,20,,,,,,up,1.0007812094409019,4348.107295856209,None,001,12,2019_Jun_06_1502,ACPT_experiment_5_30_19,3.1.0,59.94640165416856,
,,,C,D,y,b,L,U,g,L,u,,,,,6,8,128,2,1,0,1,0,,,,,1,22,58,22,,,,,,up,0.6171584744333813,4350.375672993216,None,001,12,2019_Jun_06_1502,ACPT_experiment_5_30_19,3.1.0,59.94640165416856,
,,,C,D,y,b,L,U,d,R,u,,,,,6,8,128,2,1,0,1,0,,,,,1,23,59,21,,,,,,up,0.6838776242038875,4352.260480220428,None,001,12,2019_Jun_06_1502,ACPT_experiment_5_30_19,3.1.0,59.94640165416856,
,,,C,D,y,b,L,U,y,L,u,,,,,6,8,128,2,1,0,1,0,,,,,1,24,60,24,,,,,,down,1.4177816308329056,4354.211965242821,None,001,12,2019_Jun_06_1502,ACPT_experiment_5_30_19,3.1.0,59.94640165416856,
,,,C,D,y,b,R,G,g,L,c ,,,,,6,8,128,2,1,0,1,0,,,,,1,25,61,6,,,,,,up,1.1175243267643964,4356.914074206443,None,001,12,2019_Jun_06_1502,ACPT_experiment_5_30_19,3.1.0,59.94640165416856,
,,,C,D,y,b,L,U,g,R,u,,,,,6,8,128,2,1,0,1,0,,,,,1,26,62,23,,,,,,up,0.9504596095393936,4359.332872798093,None,001,12,2019_Jun_06_1502,ACPT_experiment_5_30_19,3.1.0,59.94640165416856,
,,,C,D,y,b,L,G,y,R,y,,,,,6,8,128,2,1,0,1,0,,,,,1,27,63,35,,,,,,down,0.867325100247399,4361.567657627418,None,001,12,2019_Jun_06_1502,ACPT_experiment_5_30_19,3.1.0,59.94640165416856,
,,,C,D,y,b,R,D,y,L,y,,,,,6,8,128,2,1,0,1,0,,,,,1,28,64,26,,,,,,down,1.0674713808075467,4363.719325153374,None,001,12,2019_Jun_06_1502,ACPT_experiment_5_30_19,3.1.0,59.94640165416856,
,,,C,D,y,b,L,D,y,L,y,,,,,6,8,128,2,1,0,1,0,,,,,1,29,65,32,,,,,,down,2.0683039061659656,4366.071107868482,None,001,12,2019_Jun_06_1502,ACPT_experiment_5_30_19,3.1.0,59.94640165416856,
,,,C,D,y,b,L,G,y,L,y,,,,,6,8,128,2,1,0,1,0,,,,,1,30,66,34,,,,,,down,0.8673305336997146,4369.4237143550545,None,001,12,2019_Jun_06_1502,ACPT_experiment_5_30_19,3.1.0,59.94640165416856,
,,,C,D,y,b,R,G,d,R,i,,,,,6,8,128,2,1,0,1,0,,,,,1,31,67,5,,,,,,up,0.9840694250087836,4371.575386107028,None,001,12,2019_Jun_06_1502,ACPT_experiment_5_30_19,3.1.0,59.94640165416856,
,,,C,D,y,b,R,D,d,R,c ,,,,,6,8,128,2,1,0,1,0,,,,,1,32,68,1,,,,,,up,0.5671010006008146,4373.843788298278,None,001,12,2019_Jun_06_1502,ACPT_experiment_5_30_19,3.1.0,59.94640165416856,
,,,C,D,y,b,R,U,g,L,u,,,,,6,8,128,2,1,0,1,0,,,,,1,33,69,10,,,,,,up,0.6838573996974446,4375.695218140963,None,001,12,2019_Jun_06_1502,ACPT_experiment_5_30_19,3.1.0,59.94640165416856,
,,,C,D,y,b,L,D,d,L,c ,,,,,6,8,128,2,1,0,1,0,,,,,1,34,70,12,,,,,,up,0.6337887571062311,4377.663420984953,None,001,12,2019_Jun_06_1502,ACPT_experiment_5_30_19,3.1.0,59.94640165416856,
,,,C,D,y,b,R,U,g,R,u,,,,,6,8,128,2,1,0,1,0,,,,,1,35,71,11,,,,,,up,0.6004536327418464,4379.5815533751975,None,001,12,2019_Jun_06_1502,ACPT_experiment_5_30_19,3.1.0,59.94640165416856,
,,,C,D,y,b,,,,,,,,,,6,8,128,2,2,0,2,0,0,0,0,0,,,,,,,,,,,,,,001,12,2019_Jun_06_1502,ACPT_experiment_5_30_19,3.1.0,59.94640165416856,
,,,C,D,y,b,L,U,y,L,u,,,,,6,8,128,2,2,0,2,0,,,,,0,0,0,24,,,,,,down,0.7836617351058521,4435.958631820942,None,001,12,2019_Jun_06_1502,ACPT_experiment_5_30_19,3.1.0,59.94640165416856,
,,,C,D,y,b,L,G,y,L,y,,,,,6,8,128,2,2,0,2,0,,,,,0,1,1,34,,,,,,down,0.6004738572555652,4438.009937780955,None,001,12,2019_Jun_06_1502,ACPT_experiment_5_30_19,3.1.0,59.94640165416856,
,,,C,D,y,b,R,D,y,L,y,,,,,6,8,128,2,2,0,2,0,,,,,0,2,2,26,,,,,,down,0.483737078953709,4439.8947235762225,None,001,12,2019_Jun_06_1502,ACPT_experiment_5_30_19,3.1.0,59.94640165416856,
,,,C,D,y,b,L,U,y,R,u,,,,,6,8,128,2,2,0,2,0,,,,,0,3,3,25,,,,,,down,0.6504196434943879,4441.6794967538135,None,001,12,2019_Jun_06_1502,ACPT_experiment_5_30_19,3.1.0,59.94640165416856,
,,,C,D,y,b,R,U,d,R,u,,,,,6,8,128,2,2,0,2,0,,,,,0,4,4,9,,,,,,up,0.717210937415075,4443.630936799311,None,001,12,2019_Jun_06_1502,ACPT_experiment_5_30_19,3.1.0,59.94640165416856,
,,,C,D,y,b,R,U,g,R,u,,,,,6,8,128,2,2,0,2,0,,,,,0,5,5,11,,,,,,up,0.550450493417884,4445.615775661279,None,001,12,2019_Jun_06_1502,ACPT_experiment_5_30_19,3.1.0,59.94640165416856,
,,,C,D,y,b,R,G,d,R,i,,,,,6,8,128,2,2,0,2,0,,,,,0,6,6,5,,,,,,up,0.9674225401249714,4447.450550468906,None,001,12,2019_Jun_06_1502,ACPT_experiment_5_30_19,3.1.0,59.94640165416856,
,,,C,D,y,b,R,U,y,L,u,,,,,6,8,128,2,2,0,2,0,,,,,0,7,7,30,,,,,,down,1.0508084974317171,4449.702284947047,None,001,12,2019_Jun_06_1502,ACPT_experiment_5_30_19,3.1.0,59.94640165416856,
,,,C,D,y,b,L,D,y,L,y,,,,,6,8,128,2,2,0,2,0,,,,,0,8,8,32,,,,,,down,0.5837949753877183,4452.037422286563,None,001,12,2019_Jun_06_1502,ACPT_experiment_5_30_19,3.1.0,59.94640165416856,
,,,C,D,y,b,L,D,g,L,i,,,,,6,8,128,2,2,0,2,0,,,,,0,9,9,14,,,,,,up,0.6338213578092109,4453.905522860941,None,001,12,2019_Jun_06_1502,ACPT_experiment_5_30_19,3.1.0,59.94640165416856,
,,,C,D,y,b,R,D,d,L,c,,,,,6,8,128,2,2,0,2,0,,,,,0,10,10,0,,,,,,up,0.43366270105252624,4455.823670947824,None,001,12,2019_Jun_06_1502,ACPT_experiment_5_30_19,3.1.0,59.94640165416856,
,,,C,D,y,b,L,U,d,R,u,,,,,6,8,128,2,2,0,2,0,,,,,0,11,11,21,,,,,,up,0.600344661877898,4457.541663396534,None,001,12,2019_Jun_06_1502,ACPT_experiment_5_30_19,3.1.0,59.94640165416856,
,,,C,D,y,b,R,G,g,L,c ,,,,,6,8,128,2,2,0,2,0,,,,,0,12,12,6,,,,,,up,0.6838613238542166,4459.42645522897,None,001,12,2019_Jun_06_1502,ACPT_experiment_5_30_19,3.1.0,59.94640165416856,
,,,C,D,y,b,R,U,d,L,u,,,,,6,8,128,2,2,0,2,0,,,,,0,13,13,8,,,,,,up,0.5168116995446326,4461.411567574616,None,001,12,2019_Jun_06_1502,ACPT_experiment_5_30_19,3.1.0,59.94640165416856,
,,,C,D,y,b,L,U,d,L,u,,,,,6,8,128,2,2,0,2,0,,,,,0,14,14,20,,,,,,up,0.6171409666494583,4463.212702380939,None,001,12,2019_Jun_06_1502,ACPT_experiment_5_30_19,3.1.0,59.94640165416856,
,,,C,D,y,b,L,D,g,R,i,,,,,6,8,128,2,2,0,2,0,,,,,0,15,15,15,,,,,,up,0.7005383945725043,4465.1141685673665,None,001,12,2019_Jun_06_1502,ACPT_experiment_5_30_19,3.1.0,59.94640165416856,
,,,C,D,y,b,L,G,d,R,i,,,,,6,8,128,2,2,0,2,0,,,,,0,16,16,17,,,,,,up,0.8673359671483922,4467.099031578005,None,001,12,2019_Jun_06_1502,ACPT_experiment_5_30_19,3.1.0,59.94640165416856,
,,,C,D,y,b,R,U,g,L,u,,,,,6,8,128,2,2,0,2,0,,,,,0,17,17,10,,,,,,up,0.6338171317911474,4469.2506933686545,None,001,12,2019_Jun_06_1502,ACPT_experiment_5_30_19,3.1.0,59.94640165416856,
,,,C,D,y,b,L,G,d,L,i,,,,,6,8,128,2,2,0,2,0,,,,,0,18,18,16,,,,,,up,0.7505629658407997,4471.168847190844,None,001,12,2019_Jun_06_1502,ACPT_experiment_5_30_19,3.1.0,59.94640165416856,
,,,C,D,y,b,R,D,g,R,i,,,,,6,8,128,2,2,0,2,0,,,,,0,19,19,3,,,,,,up,1.4844763300789054,4473.203740508065,None,001,12,2019_Jun_06_1502,ACPT_experiment_5_30_19,3.1.0,59.94640165416856,
,,,C,D,y,b,L,G,g,L,c ,,,,,6,8,128,2,2,0,2,0,,,,,0,20,20,18,,,,,,up,0.48369602621460217,4475.972545680224,None,001,12,2019_Jun_06_1502,ACPT_experiment_5_30_19,3.1.0,59.94640165416856,
,,,C,D,y,b,L,U,g,R,u,,,,,6,8,128,2,2,0,2,0,,,,,0,21,21,23,,,,,,up,0.5170691847306443,4477.740575680118,None,001,12,2019_Jun_06_1502,ACPT_experiment_5_30_19,3.1.0,59.94640165416856,
,,,C,D,y,b,R,G,y,R,y,,,,,6,8,128,2,2,0,2,0,,,,,0,22,22,29,,,,,,down,0.7172097299808229,4479.5419709902035,None,001,12,2019_Jun_06_1502,ACPT_experiment_5_30_19,3.1.0,59.94640165416856,
,,,C,D,y,b,R,D,g,L,i,,,,,6,8,128,2,2,0,2,0,,,,,0,23,23,2,,,,,,up,0.5837853159173392,4481.54350020466,None,001,12,2019_Jun_06_1502,ACPT_experiment_5_30_19,3.1.0,59.94640165416856,
,,,C,D,y,b,L,G,g,R,c ,,,,,6,8,128,2,2,0,2,0,,,,,0,24,24,19,,,,,,up,0.6171307034601341,4483.411614966377,None,001,12,2019_Jun_06_1502,ACPT_experiment_5_30_19,3.1.0,59.94640165416856,
,,,C,D,y,b,L,D,d,R,c ,,,,,6,8,128,2,2,0,2,0,,,,,0,25,25,13,,,,,,up,0.5337435387191363,4485.313078134224,None,001,12,2019_Jun_06_1502,ACPT_experiment_5_30_19,3.1.0,59.94640165416856,
,,,C,D,y,b,R,D,d,R,c ,,,,,6,8,128,2,2,0,2,0,,,,,0,26,26,1,,,,,,up,0.5170604308368638,4487.131144779722,None,001,12,2019_Jun_06_1502,ACPT_experiment_5_30_19,3.1.0,59.94640165416856,
,,,C,D,y,b,L,D,y,R,y,,,,,6,8,128,2,2,0,2,0,,,,,0,27,27,33,,,,,,down,0.7172184838746034,4488.932534354501,None,001,12,2019_Jun_06_1502,ACPT_experiment_5_30_19,3.1.0,59.94640165416856,
,,,C,D,y,b,R,G,g,R,c ,,,,,6,8,128,2,2,0,2,0,,,,,0,28,28,7,,,,,,up,1.0007540421865997,4490.934082284175,None,001,12,2019_Jun_06_1502,ACPT_experiment_5_30_19,3.1.0,59.94640165416856,
,,,C,D,y,b,L,U,g,L,u,,,,,6,8,128,2,2,0,2,0,,,,,0,29,29,22,,,,,,up,0.9340819823155471,4493.2191509811,None,001,12,2019_Jun_06_1502,ACPT_experiment_5_30_19,3.1.0,59.94640165416856,
,,,C,D,y,b,R,G,d,L,i,,,,,6,8,128,2,2,0,2,0,,,,,0,30,30,4,,,,,,up,0.6004572550446028,4495.437553051606,None,001,12,2019_Jun_06_1502,ACPT_experiment_5_30_19,3.1.0,59.94640165416856,
,,,C,D,y,b,L,D,d,L,c ,,,,,6,8,128,2,2,0,2,0,,,,,0,31,31,12,,,,,,up,0.5337375015551515,4497.322336733867,None,001,12,2019_Jun_06_1502,ACPT_experiment_5_30_19,3.1.0,59.94640165416856,
,,,C,D,y,b,R,G,y,L,y,,,,,6,8,128,2,2,0,2,0,,,,,0,32,32,28,,,,,,down,0.8172972085340007,4499.140407001663,None,001,12,2019_Jun_06_1502,ACPT_experiment_5_30_19,3.1.0,59.94640165416856,
,,,C,D,y,b,R,D,y,R,y,,,,,6,8,128,2,2,0,2,0,,,,,0,33,33,27,,,,,,down,0.8338121813139878,4501.25886678749,None,001,12,2019_Jun_06_1502,ACPT_experiment_5_30_19,3.1.0,59.94640165416856,
,,,C,D,y,b,R,U,y,R,u,,,,,6,8,128,2,2,0,2,0,,,,,0,34,34,31,,,,,,down,0.5671103582062642,4503.393689409479,None,001,12,2019_Jun_06_1502,ACPT_experiment_5_30_19,3.1.0,59.94640165416856,
,,,C,D,y,b,L,G,y,R,y,,,,,6,8,128,2,2,0,2,0,,,,,0,35,35,35,,,,,,down,0.6171814156659821,4505.245108385263,None,001,12,2019_Jun_06_1502,ACPT_experiment_5_30_19,3.1.0,59.94640165416856,
,,,C,D,y,b,L,U,d,R,u,,,,,6,8,128,2,2,0,2,0,,,,,1,0,36,21,,,,,,up,1.1175333825158305,4507.146577288417,None,001,12,2019_Jun_06_1502,ACPT_experiment_5_30_19,3.1.0,59.94640165416856,
,,,C,D,y,b,R,G,y,L,y,,,,,6,8,128,2,2,0,2,0,,,,,1,1,37,28,,,,,,down,1.3010098369595653,4509.548430457266,None,001,12,2019_Jun_06_1502,ACPT_experiment_5_30_19,3.1.0,59.94640165416856,
,,,C,D,y,b,R,U,g,L,u,,,,,6,8,128,2,2,0,2,0,,,,,1,2,38,10,,,,,,up,0.8339700532378629,4512.133758873128,None,001,12,2019_Jun_06_1502,ACPT_experiment_5_30_19,3.1.0,59.94640165416856,
,,,C,D,y,b,L,D,d,R,c ,,,,,6,8,128,2,2,0,2,0,,,,,1,3,39,13,,,,,,up,0.5671103582062642,4514.252053844286,None,001,12,2019_Jun_06_1502,ACPT_experiment_5_30_19,3.1.0,59.94640165416856,
,,,C,D,y,b,R,D,y,R,y,,,,,6,8,128,2,2,0,2,0,,,,,1,4,40,27,,,,,,down,0.8172932843772287,4516.103486403694,None,001,12,2019_Jun_06_1502,ACPT_experiment_5_30_19,3.1.0,59.94640165416856,
,,,C,D,y,b,L,D,g,R,i,,,,,6,8,128,2,2,0,2,0,,,,,1,5,41,15,,,,,,up,2.21837218652945,4518.205104605995,None,001,12,2019_Jun_06_1502,ACPT_experiment_5_30_19,3.1.0,59.94640165416856,
,,,C,D,y,b,R,D,d,L,c,,,,,6,8,128,2,2,0,2,0,,,,,1,6,42,0,,,,,,up,0.5837985976868367,4521.707783598949,None,001,12,2019_Jun_06_1502,ACPT_experiment_5_30_19,3.1.0,59.94640165416856,
,,,C,D,y,b,L,D,y,L,y,,,,,6,8,128,2,2,0,2,0,,,,,1,7,43,32,,,,,,down,0.8172694375643914,4523.609286008383,None,001,12,2019_Jun_06_1502,ACPT_experiment_5_30_19,3.1.0,59.94640165416856,
,,,C,D,y,b,R,G,g,L,c ,,,,,6,8,128,2,2,0,2,0,,,,,1,8,44,6,,,,,,up,1.4010770910026622,4525.727577055384,None,001,12,2019_Jun_06_1502,ACPT_experiment_5_30_19,3.1.0,59.94640165416856,
,,,C,D,y,b,R,U,y,L,u,,,,,6,8,128,2,2,0,2,0,,,,,1,9,45,30,,,,,,down,0.9173834796529263,4528.42963228822,None,001,12,2019_Jun_06_1502,ACPT_experiment_5_30_19,3.1.0,59.94640165416856,
,,,C,D,y,b,R,D,y,L,y,,,,,6,8,128,2,2,0,2,0,,,,,1,10,46,26,,,,,,down,0.517053186238627,4530.648035566161,None,001,12,2019_Jun_06_1502,ACPT_experiment_5_30_19,3.1.0,59.94640165416856,
,,,C,D,y,b,L,G,d,R,i,,,,,6,8,128,2,2,0,2,0,,,,,1,11,47,17,,,,,,up,0.6671754992457863,4532.449423027929,None,001,12,2019_Jun_06_1502,ACPT_experiment_5_30_19,3.1.0,59.94640165416856,
,,,C,D,y,b,L,U,y,R,u,,,,,6,8,128,2,2,0,2,0,,,,,1,12,48,25,,,,,,down,0.6171590781486884,4534.400897787136,None,001,12,2019_Jun_06_1502,ACPT_experiment_5_30_19,3.1.0,59.94640165416856,
,,,C,D,y,b,L,U,g,R,u,,,,,6,8,128,2,2,0,2,0,,,,,1,13,49,23,,,,,,up,0.7005347722697479,4536.302396272409,None,001,12,2019_Jun_06_1502,ACPT_experiment_5_30_19,3.1.0,59.94640165416856,
,,,C,D,y,b,L,U,y,L,u,,,,,6,8,128,2,2,0,2,0,,,,,1,14,50,24,,,,,,down,0.5671308845776366,4538.287254755172,None,001,12,2019_Jun_06_1502,ACPT_experiment_5_30_19,3.1.0,59.94640165416856,
,,,C,D,y,b,R,G,g,R,c ,,,,,6,8,128,2,2,0,2,0,,,,,1,15,51,7,,,,,,up,0.7169745823193807,4540.155606475708,None,001,12,2019_Jun_06_1502,ACPT_experiment_5_30_19,3.1.0,59.94640165416856,
,,,C,D,y,b,L,D,y,R,y,,,,,6,8,128,2,2,0,2,0,,,,,1,16,52,33,,,,,,down,0.6838598145623109,4542.156903561083,None,001,12,2019_Jun_06_1502,ACPT_experiment_5_30_19,3.1.0,59.94640165416856,
,,,C,D,y,b,L,G,g,R,c ,,,,,6,8,128,2,2,0,2,0,,,,,1,17,53,19,,,,,,up,1.3510455769901455,4544.12508467127,None,001,12,2019_Jun_06_1502,ACPT_experiment_5_30_19,3.1.0,59.94640165416856,
,,,C,D,y,b,R,G,d,L,i,,,,,6,8,128,2,2,0,2,0,,,,,1,18,54,4,,,,,,up,1.1675781782942067,4546.760451845743,None,001,12,2019_Jun_06_1502,ACPT_experiment_5_30_19,3.1.0,59.94640165416856,
,,,C,D,y,b,R,D,d,R,c ,,,,,6,8,128,2,2,0,2,0,,,,,1,19,55,1,,,,,,up,1.6512690729214228,4549.21234679179,None,001,12,2019_Jun_06_1502,ACPT_experiment_5_30_19,3.1.0,59.94640165416856,
,,,C,D,y,b,R,U,y,R,u,,,,,6,8,128,2,2,0,2,0,,,,,1,20,56,31,,,,,,down,0.6338110946235247,4552.147945612369,None,001,12,2019_Jun_06_1502,ACPT_experiment_5_30_19,3.1.0,59.94640165416856,
,,,C,D,y,b,L,D,d,L,c ,,,,,6,8,128,2,2,0,2,0,,,,,1,21,57,12,,,,,,up,0.8173059624277812,4554.06609339739,None,001,12,2019_Jun_06_1502,ACPT_experiment_5_30_19,3.1.0,59.94640165416856,
,,,C,D,y,b,R,U,g,R,u,,,,,6,8,128,2,2,0,2,0,,,,,1,22,58,11,,,,,,up,0.71721033369613,4556.1677094866845,None,001,12,2019_Jun_06_1502,ACPT_experiment_5_30_19,3.1.0,59.94640165416856,
,,,C,D,y,b,R,D,g,L,i,,,,,6,8,128,2,2,0,2,0,,,,,1,23,59,2,,,,,,up,0.750569304869714,4558.152574610331,None,001,12,2019_Jun_06_1502,ACPT_experiment_5_30_19,3.1.0,59.94640165416856,
,,,C,D,y,b,L,D,g,L,i,,,,,6,8,128,2,2,0,2,0,,,,,1,24,60,14,,,,,,up,0.6171358350547962,4560.187482718609,None,001,12,2019_Jun_06_1502,ACPT_experiment_5_30_19,3.1.0,59.94640165416856,
,,,C,D,y,b,L,G,y,L,y,,,,,6,8,128,2,2,0,2,0,,,,,1,25,61,34,,,,,,down,0.7338849895495514,4562.08894105672,None,001,12,2019_Jun_06_1502,ACPT_experiment_5_30_19,3.1.0,59.94640165416856,
,,,C,D,y,b,L,G,g,L,c ,,,,,6,8,128,2,2,0,2,0,,,,,1,26,62,18,,,,,,up,0.9173442380670167,4564.107207713567,None,001,12,2019_Jun_06_1502,ACPT_experiment_5_30_19,3.1.0,59.94640165416856,
,,,C,D,y,b,R,G,d,R,i,,,,,6,8,128,2,2,0,2,0,,,,,1,27,63,5,,,,,,up,0.6504911839219858,4566.308863587792,None,001,12,2019_Jun_06_1502,ACPT_experiment_5_30_19,3.1.0,59.94640165416856,
,,,C,D,y,b,L,G,y,R,y,,,,,6,8,128,2,2,0,2,0,,,,,1,28,64,35,,,,,,down,0.6338110946235247,4568.243688745393,None,001,12,2019_Jun_06_1502,ACPT_experiment_5_30_19,3.1.0,59.94640165416856,
,,,C,D,y,b,R,G,y,R,y,,,,,6,8,128,2,2,0,2,0,,,,,1,29,65,29,,,,,,down,0.6338083778973669,4570.145165798722,None,001,12,2019_Jun_06_1502,ACPT_experiment_5_30_19,3.1.0,59.94640165416856,
,,,C,D,y,b,L,U,d,L,u,,,,,6,8,128,2,2,0,2,0,,,,,1,30,66,20,,,,,,up,0.7339043084830337,4572.063296981536,None,001,12,2019_Jun_06_1502,ACPT_experiment_5_30_19,3.1.0,59.94640165416856,
,,,C,D,y,b,R,U,d,L,u,,,,,6,8,128,2,2,0,2,0,,,,,1,31,67,8,,,,,,up,1.3343648839727393,4574.08151654848,None,001,12,2019_Jun_06_1502,ACPT_experiment_5_30_19,3.1.0,59.94640165416856,
,,,C,D,y,b,R,U,d,R,u,,,,,6,8,128,2,2,0,2,0,,,,,1,32,68,9,,,,,,up,3.0525139971723547,4576.7001858240055,None,001,12,2019_Jun_06_1502,ACPT_experiment_5_30_19,3.1.0,59.94640165416856,
,,,C,D,y,b,R,D,g,R,i,,,,,6,8,128,2,2,0,2,0,,,,,1,33,69,3,,,,,,up,0.683877322346234,4581.03688377125,None,001,12,2019_Jun_06_1502,ACPT_experiment_5_30_19,3.1.0,59.94640165416856,
,,,C,D,y,b,L,U,g,L,u,,,,,6,8,128,2,2,0,2,0,,,,,1,34,70,22,,,,,,up,0.6838586071280588,4583.005067900018,None,001,12,2019_Jun_06_1502,ACPT_experiment_5_30_19,3.1.0,59.94640165416856,
,,,C,D,y,b,L,G,d,L,i,,,,,6,8,128,2,2,0,2,0,,,,,1,35,71,16,,,,,,up,0.7505551175272558,4584.973276781175,None,001,12,2019_Jun_06_1502,ACPT_experiment_5_30_19,3.1.0,59.94640165416856,
,,,C,D,y,b,,,,,,,,,,6,8,128,2,3,0,3,0,0,0,0,0,,,,,,,,,,,,,,001,12,2019_Jun_06_1502,ACPT_experiment_5_30_19,3.1.0,59.94640165416856,
,,,C,D,y,b,R,G,g,L,c ,,,,,6,8,128,2,3,0,3,0,,,,,0,0,0,6,,,,,,up,0.7472530889172049,4592.782603721551,None,001,12,2019_Jun_06_1502,ACPT_experiment_5_30_19,3.1.0,59.94640165416856,
,,,C,D,y,b,R,D,g,R,i,,,,,6,8,128,2,3,0,3,0,,,,,0,1,1,3,,,,,,up,0.5504233261635818,4594.814168144765,None,001,12,2019_Jun_06_1502,ACPT_experiment_5_30_19,3.1.0,59.94640165416856,
,,,C,D,y,b,R,G,d,R,i,,,,,6,8,128,2,3,0,3,0,,,,,0,2,2,5,,,,,,up,0.533796363935835,4596.6489148795645,None,001,12,2019_Jun_06_1502,ACPT_experiment_5_30_19,3.1.0,59.94640165416856,
,,,C,D,y,b,R,U,d,R,u,,,,,6,8,128,2,3,0,3,0,,,,,0,3,3,9,,,,,,up,0.5337631595139101,4598.466988467802,None,001,12,2019_Jun_06_1502,ACPT_experiment_5_30_19,3.1.0,59.94640165416856,
,,,C,D,y,b,L,D,y,R,y,,,,,6,8,128,2,3,0,3,0,,,,,0,4,4,33,,,,,,down,0.8840121322900814,4600.285057226307,None,001,12,2019_Jun_06_1502,ACPT_experiment_5_30_19,3.1.0,59.94640165416856,
,,,C,D,y,b,R,G,y,R,y,,,,,6,8,128,2,3,0,3,0,,,,,0,5,5,29,,,,,,down,0.7338871025567641,4602.470075875119,None,001,12,2019_Jun_06_1502,ACPT_experiment_5_30_19,3.1.0,59.94640165416856,
,,,C,D,y,b,R,D,d,L,c,,,,,6,8,128,2,3,0,3,0,,,,,0,6,6,0,,,,,,up,0.6171331183286384,4604.504978248087,None,001,12,2019_Jun_06_1502,ACPT_experiment_5_30_19,3.1.0,59.94640165416856,
,,,C,D,y,b,L,U,y,R,u,,,,,6,8,128,2,3,0,3,0,,,,,0,7,7,25,,,,,,down,0.567100095024216,4606.406443227084,None,001,12,2019_Jun_06_1502,ACPT_experiment_5_30_19,3.1.0,59.94640165416856,
,,,C,D,y,b,R,U,y,L,u,,,,,6,8,128,2,3,0,3,0,,,,,0,8,8,30,,,,,,down,0.7505886238031962,4608.257867032598,None,001,12,2019_Jun_06_1502,ACPT_experiment_5_30_19,3.1.0,59.94640165416856,
,,,C,D,y,b,L,U,g,L,u,,,,,6,8,128,2,3,0,3,0,,,,,0,9,9,22,,,,,,up,0.483720174885093,4610.29275582194,None,001,12,2019_Jun_06_1502,ACPT_experiment_5_30_19,3.1.0,59.94640165416856,
,,,C,D,y,b,L,G,d,L,i,,,,,6,8,128,2,3,0,3,0,,,,,0,10,10,16,,,,,,up,0.7836556979382294,4612.07776716578,None,001,12,2019_Jun_06_1502,ACPT_experiment_5_30_19,3.1.0,59.94640165416856,
,,,C,D,y,b,R,G,g,R,c ,,,,,6,8,128,2,3,0,3,0,,,,,0,11,11,7,,,,,,up,0.6004530290301773,4614.14574627235,None,001,12,2019_Jun_06_1502,ACPT_experiment_5_30_19,3.1.0,59.94640165416856,
,,,C,D,y,b,L,G,g,L,c ,,,,,6,8,128,2,3,0,3,0,,,,,0,12,12,18,,,,,,up,0.6338156224992417,4616.030529954611,None,001,12,2019_Jun_06_1502,ACPT_experiment_5_30_19,3.1.0,59.94640165416856,
,,,C,D,y,b,R,D,d,R,c ,,,,,6,8,128,2,3,0,3,0,,,,,0,13,13,1,,,,,,up,0.6338286024074478,4617.948677437778,None,001,12,2019_Jun_06_1502,ACPT_experiment_5_30_19,3.1.0,59.94640165416856,
,,,C,D,y,b,L,U,d,R,u,,,,,6,8,128,2,3,0,3,0,,,,,0,14,14,21,,,,,,up,0.5504015923652332,4619.8668369952775,None,001,12,2019_Jun_06_1502,ACPT_experiment_5_30_19,3.1.0,59.94640165416856,
,,,C,D,y,b,R,U,g,R,u,,,,,6,8,128,2,3,0,3,0,,,,,0,15,15,11,,,,,,up,0.6004660089383833,4621.701565920432,None,001,12,2019_Jun_06_1502,ACPT_experiment_5_30_19,3.1.0,59.94640165416856,
,,,C,D,y,b,R,G,d,L,i,,,,,6,8,128,2,3,0,3,0,,,,,0,16,16,4,,,,,,up,0.5837801843263151,4623.586353224995,None,001,12,2019_Jun_06_1502,ACPT_experiment_5_30_19,3.1.0,59.94640165416856,
,,,C,D,y,b,R,G,y,L,y,,,,,6,8,128,2,3,0,3,0,,,,,0,17,17,28,,,,,,down,0.6669011099911586,4625.454736036938,None,001,12,2019_Jun_06_1502,ACPT_experiment_5_30_19,3.1.0,59.94640165416856,
,,,C,D,y,b,R,D,y,R,y,,,,,6,8,128,2,3,0,3,0,,,,,0,18,18,27,,,,,,down,0.617134627620544,4627.389287409003,None,001,12,2019_Jun_06_1502,ACPT_experiment_5_30_19,3.1.0,59.94640165416856,
,,,C,D,y,b,L,U,g,R,u,,,,,6,8,128,2,3,0,3,0,,,,,0,19,19,23,,,,,,up,1.8013904803519836,4629.290753595435,None,001,12,2019_Jun_06_1502,ACPT_experiment_5_30_19,3.1.0,59.94640165416856,
,,,C,D,y,b,R,U,d,L,u,,,,,6,8,128,2,3,0,3,0,,,,,0,20,20,8,,,,,,up,0.7505904349527555,4632.376468691853,None,001,12,2019_Jun_06_1502,ACPT_experiment_5_30_19,3.1.0,59.94640165416856,
,,,C,D,y,b,L,G,y,R,y,,,,,6,8,128,2,3,0,3,0,,,,,0,21,21,35,,,,,,down,0.5504163834229985,4634.411369857391,None,001,12,2019_Jun_06_1502,ACPT_experiment_5_30_19,3.1.0,59.94640165416856,
,,,C,D,y,b,L,G,y,L,y,,,,,6,8,128,2,3,0,3,0,,,,,0,22,22,34,,,,,,down,0.6006184474099427,4636.229286479282,None,001,12,2019_Jun_06_1502,ACPT_experiment_5_30_19,3.1.0,59.94640165416856,
,,,C,D,y,b,L,D,g,R,i,,,,,6,8,128,2,3,0,3,0,,,,,0,23,23,15,,,,,,up,0.633886257353879,4638.11419754577,None,001,12,2019_Jun_06_1502,ACPT_experiment_5_30_19,3.1.0,59.94640165416856,
,,,C,D,y,b,R,D,g,L,i,,,,,6,8,128,2,3,0,3,0,,,,,0,24,24,2,,,,,,up,0.8006134969327832,4640.015687579011,None,001,12,2019_Jun_06_1502,ACPT_experiment_5_30_19,3.1.0,59.94640165416856,
,,,C,D,y,b,L,G,g,R,c ,,,,,6,8,128,2,3,0,3,0,,,,,0,25,25,19,,,,,,up,0.5337230123550398,4642.083966430933,None,001,12,2019_Jun_06_1502,ACPT_experiment_5_30_19,3.1.0,59.94640165416856,
,,,C,D,y,b,R,U,g,L,u,,,,,6,8,128,2,3,0,3,0,,,,,0,26,26,10,,,,,,up,0.6668688111494703,4643.918983932681,None,001,12,2019_Jun_06_1502,ACPT_experiment_5_30_19,3.1.0,59.94640165416856,
,,,C,D,y,b,R,D,y,L,y,,,,,6,8,128,2,3,0,3,0,,,,,0,27,27,26,,,,,,down,0.7839303890468727,4645.870206640158,None,001,12,2019_Jun_06_1502,ACPT_experiment_5_30_19,3.1.0,59.94640165416856,
,,,C,D,y,b,L,D,y,L,y,,,,,6,8,128,2,3,0,3,0,,,,,0,28,28,32,,,,,,down,0.6838815483642975,4647.938437496605,None,001,12,2019_Jun_06_1502,ACPT_experiment_5_30_19,3.1.0,59.94640165416856,
,,,C,D,y,b,L,U,y,L,u,,,,,6,8,128,2,3,0,3,0,,,,,0,29,29,24,,,,,,down,0.6505289162196277,4649.906637020149,None,001,12,2019_Jun_06_1502,ACPT_experiment_5_30_19,3.1.0,59.94640165416856,
,,,C,D,y,b,L,D,d,R,c ,,,,,6,8,128,2,3,0,3,0,,,,,0,30,30,13,,,,,,up,5.387484409016906,4651.841474855801,None,001,12,2019_Jun_06_1502,ACPT_experiment_5_30_19,3.1.0,59.94640165416856,
,,,C,D,y,b,L,U,d,L,u,,,,,6,8,128,2,3,0,3,0,,,,,0,31,31,20,,,,,,up,0.6171328164709848,4658.513283277169,None,001,12,2019_Jun_06_1502,ACPT_experiment_5_30_19,3.1.0,59.94640165416856,
,,,C,D,y,b,L,D,g,L,i,,,,,6,8,128,2,3,0,3,0,,,,,0,32,32,14,,,,,,up,0.8006137987904367,4660.41474674687,None,001,12,2019_Jun_06_1502,ACPT_experiment_5_30_19,3.1.0,59.94640165416856,
,,,C,D,y,b,R,U,y,R,u,,,,,6,8,128,2,3,0,3,0,,,,,0,33,33,31,,,,,,down,0.8172806063230382,4662.516378230941,None,001,12,2019_Jun_06_1502,ACPT_experiment_5_30_19,3.1.0,59.94640165416856,
,,,C,D,y,b,L,G,d,R,i,,,,,6,8,128,2,3,0,3,0,,,,,0,34,34,17,,,,,,up,1.0508051769902522,4664.6346701835155,None,001,12,2019_Jun_06_1502,ACPT_experiment_5_30_19,3.1.0,59.94640165416856,
,,,C,D,y,b,L,D,d,L,c ,,,,,6,8,128,2,3,0,3,0,,,,,0,35,35,12,,,,,,up,0.7339181939678383,4666.969784279941,None,001,12,2019_Jun_06_1502,ACPT_experiment_5_30_19,3.1.0,59.94640165416856,
,,,C,D,y,b,R,D,y,R,y,,,,,6,8,128,2,3,0,3,0,,,,,1,0,36,27,,,,,,down,0.6836630029101798,4669.004864145625,None,001,12,2019_Jun_06_1502,ACPT_experiment_5_30_19,3.1.0,59.94640165416856,
,,,C,D,y,b,L,G,d,L,i,,,,,6,8,128,2,3,0,3,0,,,,,1,1,37,16,,,,,,up,0.6171322127556778,4670.989570793632,None,001,12,2019_Jun_06_1502,ACPT_experiment_5_30_19,3.1.0,59.94640165416856,
,,,C,D,y,b,R,D,d,L,c,,,,,6,8,128,2,3,0,3,0,,,,,1,2,38,0,,,,,,up,0.4503645241529739,4672.89101192582,None,001,12,2019_Jun_06_1502,ACPT_experiment_5_30_19,3.1.0,59.94640165416856,
,,,C,D,y,b,R,U,y,R,u,,,,,6,8,128,2,3,0,3,0,,,,,1,3,39,31,,,,,,down,0.6836630029101798,4674.642545064433,None,001,12,2019_Jun_06_1502,ACPT_experiment_5_30_19,3.1.0,59.94640165416856,
,,,C,D,y,b,L,U,d,L,u,,,,,6,8,128,2,3,0,3,0,,,,,1,4,40,20,,,,,,up,0.6338283005497942,4676.627230582357,None,001,12,2019_Jun_06_1502,ACPT_experiment_5_30_19,3.1.0,59.94640165416856,
,,,C,D,y,b,L,U,g,R,u,,,,,6,8,128,2,3,0,3,0,,,,,1,5,41,23,,,,,,up,0.6671993460513477,4678.5286943539195,None,001,12,2019_Jun_06_1502,ACPT_experiment_5_30_19,3.1.0,59.94640165416856,
,,,C,D,y,b,L,G,g,L,c ,,,,,6,8,128,2,3,0,3,0,,,,,1,6,42,18,,,,,,up,0.7505753420373367,4680.4802201271905,None,001,12,2019_Jun_06_1502,ACPT_experiment_5_30_19,3.1.0,59.94640165416856,
,,,C,D,y,b,R,U,y,L,u,,,,,6,8,128,2,3,0,3,0,,,,,1,7,43,30,,,,,,up,0.6669231456544367,4682.532057659775,None,001,12,2019_Jun_06_1502,ACPT_experiment_5_30_19,3.1.0,59.94640165416856,
,,,C,D,y,b,L,G,d,R,i,,,,,6,8,128,2,3,0,3,0,,,,,1,8,44,17,,,,,,up,1.3510392379612313,4684.483304817781,None,001,12,2019_Jun_06_1502,ACPT_experiment_5_30_19,3.1.0,59.94640165416856,
,,,C,D,y,b,R,D,d,R,c ,,,,,6,8,128,2,3,0,3,0,,,,,1,9,45,1,,,,,,up,0.5837844103443786,4687.118671690396,None,001,12,2019_Jun_06_1502,ACPT_experiment_5_30_19,3.1.0,59.94640165416856,
,,,C,D,y,b,L,D,g,L,i,,,,,6,8,128,2,3,0,3,0,,,,,1,10,46,14,,,,,,up,1.4845016861800104,4688.986779509372,None,001,12,2019_Jun_06_1502,ACPT_experiment_5_30_19,3.1.0,59.94640165416856,
,,,C,D,y,b,R,G,y,R,y,,,,,6,8,128,2,3,0,3,0,,,,,1,11,47,29,,,,,,down,0.6671776122529991,4691.7555786443645,None,001,12,2019_Jun_06_1502,ACPT_experiment_5_30_19,3.1.0,59.94640165416856,
,,,C,D,y,b,L,D,y,L,y,,,,,6,8,128,2,3,0,3,0,,,,,1,12,48,32,,,,,,down,0.6505180493186344,4693.707058837024,None,001,12,2019_Jun_06_1502,ACPT_experiment_5_30_19,3.1.0,59.94640165416856,
,,,C,D,y,b,L,U,g,L,u,,,,,6,8,128,2,3,0,3,0,,,,,1,13,49,22,,,,,,up,0.6838426086360414,4695.641923236211,None,001,12,2019_Jun_06_1502,ACPT_experiment_5_30_19,3.1.0,59.94640165416856,
,,,C,D,y,b,R,U,g,L,u,,,,,6,8,128,2,3,0,3,0,,,,,1,14,50,10,,,,,,up,0.8006104783489718,4697.610093781355,None,001,12,2019_Jun_06_1502,ACPT_experiment_5_30_19,3.1.0,59.94640165416856,
,,,C,D,y,b,R,U,d,L,u,,,,,6,8,128,2,3,0,3,0,,,,,1,15,51,8,,,,,,up,0.5837810899029137,4699.695030083205,None,001,12,2019_Jun_06_1502,ACPT_experiment_5_30_19,3.1.0,59.94640165416856,
,,,C,D,y,b,L,G,y,R,y,,,,,6,8,128,2,3,0,3,0,,,,,1,16,52,35,,,,,,down,0.7338964601658517,4701.563140317046,None,001,12,2019_Jun_06_1502,ACPT_experiment_5_30_19,3.1.0,59.94640165416856,
,,,C,D,y,b,L,G,y,L,y,,,,,6,8,128,2,3,0,3,0,,,,,1,17,53,34,,,,,,down,0.48389736574245035,4703.564540336125,None,001,12,2019_Jun_06_1502,ACPT_experiment_5_30_19,3.1.0,59.94640165416856,
,,,C,D,y,b,R,G,g,R,c ,,,,,6,8,128,2,3,0,3,0,,,,,1,18,54,7,,,,,,up,0.8006113839255704,4705.3327140205965,None,001,12,2019_Jun_06_1502,ACPT_experiment_5_30_19,3.1.0,59.94640165416856,
,,,C,D,y,b,R,D,g,R,i,,,,,6,8,128,2,3,0,3,0,,,,,1,19,55,3,,,,,,up,0.867333552279888,4707.41765515218,None,001,12,2019_Jun_06_1502,ACPT_experiment_5_30_19,3.1.0,59.94640165416856,
,,,C,D,y,b,R,G,d,L,i,,,,,6,8,128,2,3,0,3,0,,,,,1,20,56,4,,,,,,up,0.717177129277843,4709.569350147247,None,001,12,2019_Jun_06_1502,ACPT_experiment_5_30_19,3.1.0,59.94640165416856,
,,,C,D,y,b,R,U,d,R,u,,,,,6,8,128,2,3,0,3,0,,,,,1,21,57,9,,,,,,up,1.0007703425399086,4711.5708582316165,None,001,12,2019_Jun_06_1502,ACPT_experiment_5_30_19,3.1.0,59.94640165416856,
,,,C,D,y,b,L,D,d,R,c ,,,,,6,8,128,2,3,0,3,0,,,,,1,22,58,13,,,,,,up,0.7338970638847968,4713.855951680927,None,001,12,2019_Jun_06_1502,ACPT_experiment_5_30_19,3.1.0,59.94640165416856,
,,,C,D,y,b,R,D,y,L,y,,,,,6,8,128,2,3,0,3,0,,,,,1,23,59,26,,,,,,down,0.8006343251618091,4715.890853752038,None,001,12,2019_Jun_06_1502,ACPT_experiment_5_30_19,3.1.0,59.94640165416856,
,,,C,D,y,b,R,D,g,L,i,,,,,6,8,128,2,3,0,3,0,,,,,1,24,60,2,,,,,,up,0.7338907248595206,4717.992477991507,None,001,12,2019_Jun_06_1502,ACPT_experiment_5_30_19,3.1.0,59.94640165416856,
,,,C,D,y,b,L,D,y,R,y,,,,,6,8,128,2,3,0,3,0,,,,,1,25,61,33,,,,,,down,0.8006180248085002,4720.0106948417215,None,001,12,2019_Jun_06_1502,ACPT_experiment_5_30_19,3.1.0,59.94640165416856,
,,,C,D,y,b,R,G,g,L,c ,,,,,6,8,128,2,3,0,3,0,,,,,1,26,62,6,,,,,,up,0.7505771531868959,4722.095637180739,None,001,12,2019_Jun_06_1502,ACPT_experiment_5_30_19,3.1.0,59.94640165416856,
,,,C,D,y,b,R,G,d,R,i,,,,,6,8,128,2,3,0,3,0,,,,,1,27,63,5,,,,,,up,1.8848011900481652,4724.113841051045,None,001,12,2019_Jun_06_1502,ACPT_experiment_5_30_19,3.1.0,59.94640165416856,
,,,C,D,y,b,R,U,g,R,u,,,,,6,8,128,2,3,0,3,0,,,,,1,28,64,11,,,,,,up,0.550421213156369,4727.2829704794585,None,001,12,2019_Jun_06_1502,ACPT_experiment_5_30_19,3.1.0,59.94640165416856,
,,,C,D,y,b,L,D,g,R,i,,,,,6,8,128,2,3,0,3,0,,,,,1,29,65,15,,,,,,up,0.5003797378194577,4729.117711780806,None,001,12,2019_Jun_06_1502,ACPT_experiment_5_30_19,3.1.0,59.94640165416856,
,,,C,D,y,b,R,G,y,L,y,,,,,6,8,128,2,3,0,3,0,,,,,1,30,66,28,,,,,,down,0.7839361243568419,4730.902425190443,None,001,12,2019_Jun_06_1502,ACPT_experiment_5_30_19,3.1.0,59.94640165416856,
,,,C,D,y,b,L,U,y,R,u,,,,,6,8,128,2,3,0,3,0,,,,,1,31,67,25,,,,,,down,0.6005426809606433,4732.970685930863,None,001,12,2019_Jun_06_1502,ACPT_experiment_5_30_19,3.1.0,59.94640165416856,
,,,C,D,y,b,L,U,y,L,u,,,,,6,8,128,2,3,0,3,0,,,,,1,32,68,24,,,,,,down,0.6171557577072235,4734.85549074321,None,001,12,2019_Jun_06_1502,ACPT_experiment_5_30_19,3.1.0,59.94640165416856,
,,,C,D,y,b,L,U,d,R,u,,,,,6,8,128,2,3,0,3,0,,,,,1,33,69,21,,,,,,up,0.7172163708637527,4736.756938818138,None,001,12,2019_Jun_06_1502,ACPT_experiment_5_30_19,3.1.0,59.94640165416856,
,,,C,D,y,b,L,G,g,R,c ,,,,,6,8,128,2,3,0,3,0,,,,,1,34,70,19,,,,,,up,3.252273899033753,4738.775410436812,None,001,12,2019_Jun_06_1502,ACPT_experiment_5_30_19,3.1.0,59.94640165416856,
,,,C,D,y,b,L,D,d,L,c ,,,,,6,8,128,2,3,0,3,0,,,,,1,35,71,12,,,,,,up,0.7505937553978583,4743.311972728907,None,001,12,2019_Jun_06_1502,ACPT_experiment_5_30_19,3.1.0,59.94640165416856,
,,,C,D,y,b,,,,,,,,,,6,8,128,2,4,0,4,0,0,0,0,0,,,,,,,,,,,,,,001,12,2019_Jun_06_1502,ACPT_experiment_5_30_19,3.1.0,59.94640165416856,
,,,C,D,y,b,R,G,d,L,i,,,,,6,8,128,2,4,0,4,0,,,,,0,0,0,4,,,,,,up,0.9507421489688568,4749.299955445704,None,001,12,2019_Jun_06_1502,ACPT_experiment_5_30_19,3.1.0,59.94640165416856,
,,,C,D,y,b,L,D,y,L,y,,,,,6,8,128,2,4,0,4,0,,,,,0,1,1,32,,,,,,down,1.0508024602677324,4751.551682679246,None,001,12,2019_Jun_06_1502,ACPT_experiment_5_30_19,3.1.0,59.94640165416856,
,,,C,D,y,b,L,U,g,R,u,,,,,6,8,128,2,4,0,4,0,,,,,0,2,2,23,,,,,,up,0.6838492495189712,4753.903495882047,None,001,12,2019_Jun_06_1502,ACPT_experiment_5_30_19,3.1.0,59.94640165416856,
,,,C,D,y,b,L,D,g,R,i,,,,,6,8,128,2,4,0,4,0,,,,,0,3,3,15,,,,,,up,1.9348991128972557,4755.871677595953,None,001,12,2019_Jun_06_1502,ACPT_experiment_5_30_19,3.1.0,59.94640165416856,
,,,C,D,y,b,R,G,d,R,i,,,,,6,8,128,2,4,0,4,0,,,,,0,4,4,5,,,,,,up,0.5671003968855075,4759.090828878909,None,001,12,2019_Jun_06_1502,ACPT_experiment_5_30_19,3.1.0,59.94640165416856,
,,,C,D,y,b,R,D,y,L,y,,,,,6,8,128,2,4,0,4,0,,,,,0,5,5,26,,,,,,down,0.6505461221458972,4760.942227932041,None,001,12,2019_Jun_06_1502,ACPT_experiment_5_30_19,3.1.0,59.94640165416856,
,,,C,D,y,b,L,U,d,R,u,,,,,6,8,128,2,4,0,4,0,,,,,0,6,6,21,,,,,,up,0.9004540553469269,4762.894001229166,None,001,12,2019_Jun_06_1502,ACPT_experiment_5_30_19,3.1.0,59.94640165416856,
,,,C,D,y,b,L,D,g,L,i,,,,,6,8,128,2,4,0,4,0,,,,,0,7,7,14,,,,,,up,0.7672524127556244,4765.078777485711,None,001,12,2019_Jun_06_1502,ACPT_experiment_5_30_19,3.1.0,59.94640165416856,
,,,C,D,y,b,L,G,d,R,i,,,,,6,8,128,2,4,0,4,0,,,,,0,8,8,17,,,,,,up,0.6504932969328365,4767.130365985149,None,001,12,2019_Jun_06_1502,ACPT_experiment_5_30_19,3.1.0,59.94640165416856,
,,,C,D,y,b,R,U,y,R,u,,,,,6,8,128,2,4,0,4,0,,,,,0,9,9,31,,,,,,down,0.7171049851313,4769.0651838981485,None,001,12,2019_Jun_06_1502,ACPT_experiment_5_30_19,3.1.0,59.94640165416856,
,,,C,D,y,b,L,G,y,R,y,,,,,6,8,128,2,4,0,4,0,,,,,0,10,10,35,,,,,,down,0.517032358009601,4771.066742996585,None,001,12,2019_Jun_06_1502,ACPT_experiment_5_30_19,3.1.0,59.94640165416856,
,,,C,D,y,b,R,D,y,R,y,,,,,6,8,128,2,4,0,4,0,,,,,0,11,11,27,,,,,,down,0.5671055284728936,4772.868110233843,None,001,12,2019_Jun_06_1502,ACPT_experiment_5_30_19,3.1.0,59.94640165416856,
,,,C,D,y,b,L,U,y,R,u,,,,,6,8,128,2,4,0,4,0,,,,,0,12,12,25,,,,,,down,0.6171445889485767,4774.719540076525,None,001,12,2019_Jun_06_1502,ACPT_experiment_5_30_19,3.1.0,59.94640165416856,
,,,C,D,y,b,L,G,y,L,y,,,,,6,8,128,2,4,0,4,0,,,,,0,13,13,34,,,,,,down,0.6335527038681903,4776.637958628498,None,001,12,2019_Jun_06_1502,ACPT_experiment_5_30_19,3.1.0,59.94640165416856,
,,,C,D,y,b,L,U,d,L,u,,,,,6,8,128,2,4,0,4,0,,,,,0,14,14,20,,,,,,up,0.60045514203739,4778.555831722415,None,001,12,2019_Jun_06_1502,ACPT_experiment_5_30_19,3.1.0,59.94640165416856,
,,,C,D,y,b,R,U,g,L,u,,,,,6,8,128,2,4,0,4,0,,,,,0,15,15,10,,,,,,up,0.5170613364134624,4780.440622951135,None,001,12,2019_Jun_06_1502,ACPT_experiment_5_30_19,3.1.0,59.94640165416856,
,,,C,D,y,b,R,U,g,R,u,,,,,6,8,128,2,4,0,4,0,,,,,0,16,16,11,,,,,,up,0.7338916304324812,4782.242010111046,None,001,12,2019_Jun_06_1502,ACPT_experiment_5_30_19,3.1.0,59.94640165416856,
,,,C,D,y,b,R,U,y,L,u,,,,,6,8,128,2,4,0,4,0,,,,,0,17,17,30,,,,,,down,0.9007290483132238,4784.26020945348,None,001,12,2019_Jun_06_1502,ACPT_experiment_5_30_19,3.1.0,59.94640165416856,
,,,C,D,y,b,R,D,d,R,c ,,,,,6,8,128,2,4,0,4,0,,,,,0,18,18,1,,,,,,up,0.8840106230018137,4786.445250741666,None,001,12,2019_Jun_06_1502,ACPT_experiment_5_30_19,3.1.0,59.94640165416856,
,,,C,D,y,b,L,U,g,L,u,,,,,6,8,128,2,4,0,4,0,,,,,0,19,19,22,,,,,,up,1.5678016138554085,4788.6135935271905,None,001,12,2019_Jun_06_1502,ACPT_experiment_5_30_19,3.1.0,59.94640165416856,
,,,C,D,y,b,R,G,g,R,c ,,,,,6,8,128,2,4,0,4,0,,,,,0,20,20,7,,,,,,up,0.5337359922596079,4791.465784656661,None,001,12,2019_Jun_06_1502,ACPT_experiment_5_30_19,3.1.0,59.94640165416856,
,,,C,D,y,b,L,D,d,L,c ,,,,,6,8,128,2,4,0,4,0,,,,,0,21,21,12,,,,,,up,0.5003824545419775,4793.283843755698,None,001,12,2019_Jun_06_1502,ACPT_experiment_5_30_19,3.1.0,59.94640165416856,
,,,C,D,y,b,L,G,d,L,i,,,,,6,8,128,2,4,0,4,0,,,,,0,22,22,16,,,,,,up,0.5503080162707192,4795.085328113999,None,001,12,2019_Jun_06_1502,ACPT_experiment_5_30_19,3.1.0,59.94640165416856,
,,,C,D,y,b,L,G,g,R,c ,,,,,6,8,128,2,4,0,4,0,,,,,0,23,23,19,,,,,,up,0.7672557331970893,4796.919992743324,None,001,12,2019_Jun_06_1502,ACPT_experiment_5_30_19,3.1.0,59.94640165416856,
,,,C,D,y,b,R,G,y,L,y,,,,,6,8,128,2,4,0,4,0,,,,,0,24,24,28,,,,,,down,0.8506543685543875,4798.971577016744,None,001,12,2019_Jun_06_1502,ACPT_experiment_5_30_19,3.1.0,59.94640165416856,
,,,C,D,y,b,R,G,y,R,y,,,,,6,8,128,2,4,0,4,0,,,,,0,25,25,29,,,,,,down,0.45040768990293145,4801.106576225875,None,001,12,2019_Jun_06_1502,ACPT_experiment_5_30_19,3.1.0,59.94640165416856,
,,,C,D,y,b,L,U,y,L,u,,,,,6,8,128,2,4,0,4,0,,,,,0,26,26,24,,,,,,down,0.5838097664454835,4802.841220389202,None,001,12,2019_Jun_06_1502,ACPT_experiment_5_30_19,3.1.0,59.94640165416856,
,,,C,D,y,b,R,D,g,R,i,,,,,6,8,128,2,4,0,4,0,,,,,0,27,27,3,,,,,,up,0.8506742912031768,4804.709332132339,None,001,12,2019_Jun_06_1502,ACPT_experiment_5_30_19,3.1.0,59.94640165416856,
,,,C,D,y,b,R,U,d,R,u,,,,,6,8,128,2,4,0,4,0,,,,,0,28,28,9,,,,,,up,0.7505602491182799,4806.844310211383,None,001,12,2019_Jun_06_1502,ACPT_experiment_5_30_19,3.1.0,59.94640165416856,
,,,C,D,y,b,L,D,d,R,c ,,,,,6,8,128,2,4,0,4,0,,,,,0,29,29,13,,,,,,up,0.7672445644384425,4808.862548493546,None,001,12,2019_Jun_06_1502,ACPT_experiment_5_30_19,3.1.0,59.94640165416856,
,,,C,D,y,b,R,D,g,L,i,,,,,6,8,128,2,4,0,4,0,,,,,0,30,30,2,,,,,,up,0.7172199931665091,4810.91411374989,None,001,12,2019_Jun_06_1502,ACPT_experiment_5_30_19,3.1.0,59.94640165416856,
,,,C,D,y,b,L,D,y,R,y,,,,,6,8,128,2,4,0,4,0,,,,,0,31,31,33,,,,,,down,0.6338150187839346,4812.915661679564,None,001,12,2019_Jun_06_1502,ACPT_experiment_5_30_19,3.1.0,59.94640165416856,
,,,C,D,y,b,R,D,d,L,c,,,,,6,8,128,2,4,0,4,0,,,,,0,32,32,0,,,,,,up,0.5670949634331919,4814.833805238572,None,001,12,2019_Jun_06_1502,ACPT_experiment_5_30_19,3.1.0,59.94640165416856,
,,,C,D,y,b,R,U,d,L,u,,,,,6,8,128,2,4,0,4,0,,,,,0,33,33,8,,,,,,up,0.48369602621460217,4816.68523025152,None,001,12,2019_Jun_06_1502,ACPT_experiment_5_30_19,3.1.0,59.94640165416856,
,,,C,D,y,b,L,G,g,L,c ,,,,,6,8,128,2,4,0,4,0,,,,,0,34,34,18,,,,,,up,1.5344043066725135,4818.453260553271,None,001,12,2019_Jun_06_1502,ACPT_experiment_5_30_19,3.1.0,59.94640165416856,
,,,C,D,y,b,R,G,g,L,c ,,,,,6,8,128,2,4,0,4,0,,,,,0,35,35,6,,,,,,up,0.483592790656985,4821.2720987487355,None,001,12,2019_Jun_06_1502,ACPT_experiment_5_30_19,3.1.0,59.94640165416856,
,,,C,D,y,b,L,G,g,R,c ,,,,,6,8,128,2,4,0,4,0,,,,,1,0,36,19,,,,,,up,0.550421213156369,4823.040131465352,None,001,12,2019_Jun_06_1502,ACPT_experiment_5_30_19,3.1.0,59.94640165416856,
,,,C,D,y,b,R,D,y,L,y,,,,,6,8,128,2,4,0,4,0,,,,,1,1,37,26,,,,,,down,0.5170589215449581,4824.874881218735,None,001,12,2019_Jun_06_1502,ACPT_experiment_5_30_19,3.1.0,59.94640165416856,
,,,C,D,y,b,R,U,y,L,u,,,,,6,8,128,2,4,0,4,0,,,,,1,2,38,30,,,,,,down,0.5670859076817578,4826.692953599539,None,001,12,2019_Jun_06_1502,ACPT_experiment_5_30_19,3.1.0,59.94640165416856,
,,,C,D,y,b,R,D,g,R,i,,,,,6,8,128,2,4,0,4,0,,,,,1,3,39,3,,,,,,up,1.9848590864821745,4828.561054475775,None,001,12,2019_Jun_06_1502,ACPT_experiment_5_30_19,3.1.0,59.94640165416856,
,,,C,D,y,b,R,U,g,L,u,,,,,6,8,128,2,4,0,4,0,,,,,1,4,40,10,,,,,,up,0.5337387089894037,4831.81356352247,None,001,12,2019_Jun_06_1502,ACPT_experiment_5_30_19,3.1.0,59.94640165416856,
,,,C,D,y,b,L,D,y,L,y,,,,,6,8,128,2,4,0,4,0,,,,,1,5,41,32,,,,,,down,0.7505919442446611,4833.631628658675,None,001,12,2019_Jun_06_1502,ACPT_experiment_5_30_19,3.1.0,59.94640165416856,
,,,C,D,y,b,L,U,g,R,u,,,,,6,8,128,2,4,0,4,0,,,,,1,6,42,23,,,,,,up,0.8004993944741727,4835.666530729783,None,001,12,2019_Jun_06_1502,ACPT_experiment_5_30_19,3.1.0,59.94640165416856,
,,,C,D,y,b,R,U,g,R,u,,,,,6,8,128,2,4,0,4,0,,,,,1,7,43,11,,,,,,up,0.7505795680517622,4837.751470352074,None,001,12,2019_Jun_06_1502,ACPT_experiment_5_30_19,3.1.0,59.94640165416856,
,,,C,D,y,b,L,G,y,L,y,,,,,6,8,128,2,4,0,4,0,,,,,1,8,44,34,,,,,,down,0.8506785172248783,4839.786347670799,None,001,12,2019_Jun_06_1502,ACPT_experiment_5_30_19,3.1.0,59.94640165416856,
,,,C,D,y,b,L,D,g,R,i,,,,,6,8,128,2,4,0,4,0,,,,,1,9,45,15,,,,,,up,1.267639998888626,4841.921354426389,None,001,12,2019_Jun_06_1502,ACPT_experiment_5_30_19,3.1.0,59.94640165416856,
,,,C,D,y,b,L,G,d,R,i,,,,,6,8,128,2,4,0,4,0,,,,,1,10,46,17,,,,,,up,0.800612289502169,4844.473325078512,None,001,12,2019_Jun_06_1502,ACPT_experiment_5_30_19,3.1.0,59.94640165416856,
,,,C,D,y,b,L,G,g,L,c ,,,,,6,8,128,2,4,0,4,0,,,,,1,11,47,18,,,,,,up,1.0341501419316046,4846.541563179557,None,001,12,2019_Jun_06_1502,ACPT_experiment_5_30_19,3.1.0,59.94640165416856,
,,,C,D,y,b,L,U,y,L,u,,,,,6,8,128,2,4,0,4,0,,,,,1,12,48,24,,,,,,down,0.9340505890431814,4848.860037635701,None,001,12,2019_Jun_06_1502,ACPT_experiment_5_30_19,3.1.0,59.94640165416856,
,,,C,D,y,b,R,D,d,R,c ,,,,,6,8,128,2,4,0,4,0,,,,,1,13,49,1,,,,,,up,0.6839204880925536,4851.078387182852,None,001,12,2019_Jun_06_1502,ACPT_experiment_5_30_19,3.1.0,59.94640165416856,
,,,C,D,y,b,L,U,d,L,u,,,,,6,8,128,2,4,0,4,0,,,,,1,14,50,20,,,,,,up,0.5170598271215567,4853.029918087714,None,001,12,2019_Jun_06_1502,ACPT_experiment_5_30_19,3.1.0,59.94640165416856,
,,,C,D,y,b,L,U,d,R,u,,,,,6,8,128,2,4,0,4,0,,,,,1,15,51,21,,,,,,up,0.4670246908062836,4854.8146281769095,None,001,12,2019_Jun_06_1502,ACPT_experiment_5_30_19,3.1.0,59.94640165416856,
,,,C,D,y,b,L,G,y,R,y,,,,,6,8,128,2,4,0,4,0,,,,,1,16,52,35,,,,,,down,1.0174498281194246,4856.5659795967895,None,001,12,2019_Jun_06_1502,ACPT_experiment_5_30_19,3.1.0,59.94640165416856,
,,,C,D,y,b,L,G,d,L,i,,,,,6,8,128,2,4,0,4,0,,,,,1,17,53,16,,,,,,up,0.7839403503712674,4858.867749211242,None,001,12,2019_Jun_06_1502,ACPT_experiment_5_30_19,3.1.0,59.94640165416856,
,,,C,D,y,b,R,D,g,L,i,,,,,6,8,128,2,4,0,4,0,,,,,1,18,54,2,,,,,,up,0.4670213703648187,4860.936014177683,None,001,12,2019_Jun_06_1502,ACPT_experiment_5_30_19,3.1.0,59.94640165416856,
,,,C,D,y,b,R,G,y,L,y,,,,,6,8,128,2,4,0,4,0,,,,,1,19,55,28,,,,,,down,0.8506513499705761,4862.687361975264,None,001,12,2019_Jun_06_1502,ACPT_experiment_5_30_19,3.1.0,59.94640165416856,
,,,C,D,y,b,L,U,y,R,u,,,,,6,8,128,2,4,0,4,0,,,,,1,20,56,25,,,,,,down,0.8506543685543875,4864.822340959885,None,001,12,2019_Jun_06_1502,ACPT_experiment_5_30_19,3.1.0,59.94640165416856,
,,,C,D,y,b,L,D,y,R,y,,,,,6,8,128,2,4,0,4,0,,,,,1,21,57,33,,,,,,down,0.7005281313868181,4866.974004863541,None,001,12,2019_Jun_06_1502,ACPT_experiment_5_30_19,3.1.0,59.94640165416856,
,,,C,D,y,b,R,G,d,R,i,,,,,6,8,128,2,4,0,4,0,,,,,1,22,58,5,,,,,,up,0.8172830211915425,4868.992224732343,None,001,12,2019_Jun_06_1502,ACPT_experiment_5_30_19,3.1.0,59.94640165416856,
,,,C,D,y,b,R,G,y,R,y,,,,,6,8,128,2,4,0,4,0,,,,,1,23,59,29,,,,,,down,0.9507201133055787,4871.093853197826,None,001,12,2019_Jun_06_1502,ACPT_experiment_5_30_19,3.1.0,59.94640165416856,
,,,C,D,y,b,R,D,d,L,c,,,,,6,8,128,2,4,0,4,0,,,,,1,24,60,0,,,,,,up,4.9037615174056555,4873.328918453566,None,001,12,2019_Jun_06_1502,ACPT_experiment_5_30_19,3.1.0,59.94640165416856,
,,,C,D,y,b,R,G,g,L,c ,,,,,6,8,128,2,4,0,4,0,,,,,1,25,61,6,,,,,,up,0.6004632922122255,4879.517003681465,None,001,12,2019_Jun_06_1502,ACPT_experiment_5_30_19,3.1.0,59.94640165416856,
,,,C,D,y,b,R,D,y,R,y,,,,,6,8,128,2,4,0,4,0,,,,,1,26,62,27,,,,,,down,0.6338222633821715,4881.401789476733,None,001,12,2019_Jun_06_1502,ACPT_experiment_5_30_19,3.1.0,59.94640165416856,
,,,C,D,y,b,L,D,d,L,c ,,,,,6,8,128,2,4,0,4,0,,,,,1,27,63,12,,,,,,up,0.8840073025567108,4883.319937865474,None,001,12,2019_Jun_06_1502,ACPT_experiment_5_30_19,3.1.0,59.94640165416856,
,,,C,D,y,b,R,G,g,R,c ,,,,,6,8,128,2,4,0,4,0,,,,,1,28,64,7,,,,,,up,0.867321176086989,4885.4882842733,None,001,12,2019_Jun_06_1502,ACPT_experiment_5_30_19,3.1.0,59.94640165416856,
,,,C,D,y,b,R,U,y,R,u,,,,,6,8,128,2,4,0,4,0,,,,,1,29,65,31,,,,,,down,0.8673314392726752,4887.639936404479,None,001,12,2019_Jun_06_1502,ACPT_experiment_5_30_19,3.1.0,59.94640165416856,
,,,C,D,y,b,R,G,d,L,i,,,,,6,8,128,2,4,0,4,0,,,,,1,30,66,4,,,,,,up,1.2009332253073808,4889.791590346811,None,001,12,2019_Jun_06_1502,ACPT_experiment_5_30_19,3.1.0,59.94640165416856,
,,,C,D,y,b,L,D,d,R,c ,,,,,6,8,128,2,4,0,4,0,,,,,1,31,67,13,,,,,,up,0.8506610094373173,4892.260163872865,None,001,12,2019_Jun_06_1502,ACPT_experiment_5_30_19,3.1.0,59.94640165416856,
,,,C,D,y,b,R,U,d,R,u,,,,,6,8,128,2,4,0,4,0,,,,,1,32,68,9,,,,,,up,0.6504908820643323,4894.378472125796,None,001,12,2019_Jun_06_1502,ACPT_experiment_5_30_19,3.1.0,59.94640165416856,
,,,C,D,y,b,R,U,d,L,u,,,,,6,8,128,2,4,0,4,0,,,,,1,33,69,8,,,,,,up,0.6172961218471755,4896.296456907303,None,001,12,2019_Jun_06_1502,ACPT_experiment_5_30_19,3.1.0,59.94640165416856,
,,,C,D,y,b,L,D,g,L,i,,,,,6,8,128,2,4,0,4,0,,,,,1,34,70,14,,,,,,up,0.6638469070967403,4898.218088439671,None,001,12,2019_Jun_06_1502,ACPT_experiment_5_30_19,3.1.0,59.94640165416856,
,,,C,D,y,b,L,U,g,L,u,,,,,6,8,128,2,4,0,4,0,,,,,1,35,71,22,,,,,,up,0.5337583297805395,4900.166255736816,None,001,12,2019_Jun_06_1502,ACPT_experiment_5_30_19,3.1.0,59.94640165416856,
,,,C,D,y,b,,,,,,,,,,6,8,128,2,5,0,5,0,0,0,0,0,,,,,,,,,,,,,,001,12,2019_Jun_06_1502,ACPT_experiment_5_30_19,3.1.0,59.94640165416856,
,,,C,D,y,b,R,G,d,L,i,,,,,6,8,128,2,5,0,5,0,,,,,0,0,0,4,,,,,,up,1.5676319694575795,4984.248001999511,None,001,12,2019_Jun_06_1502,ACPT_experiment_5_30_19,3.1.0,59.94640165416856,
,,,C,D,y,b,L,U,y,L,u,,,,,6,8,128,2,5,0,5,0,,,,,0,1,1,24,,,,,,down,0.7673013138082752,4987.0999395679555,None,001,12,2019_Jun_06_1502,ACPT_experiment_5_30_19,3.1.0,59.94640165416856,
,,,C,D,y,b,R,D,y,L,y,,,,,6,8,128,2,5,0,5,0,,,,,0,2,2,26,,,,,,down,1.8681425326867611,4989.134863976584,None,001,12,2019_Jun_06_1502,ACPT_experiment_5_30_19,3.1.0,59.94640165416856,
,,,C,D,y,b,R,G,g,R,c ,,,,,6,8,128,2,5,0,5,0,,,,,0,3,3,7,,,,,,up,0.6837478251109133,4992.287295506054,None,001,12,2019_Jun_06_1502,ACPT_experiment_5_30_19,3.1.0,59.94640165416856,
,,,C,D,y,b,R,U,d,R,u,,,,,6,8,128,2,5,0,5,0,,,,,0,4,4,9,,,,,,up,0.733911251227255,4994.255475408807,None,001,12,2019_Jun_06_1502,ACPT_experiment_5_30_19,3.1.0,59.94640165416856,
,,,C,D,y,b,R,U,y,R,u,,,,,6,8,128,2,5,0,5,0,,,,,0,5,5,31,,,,,,down,0.9340973770922574,4996.256997680519,None,001,12,2019_Jun_06_1502,ACPT_experiment_5_30_19,3.1.0,59.94640165416856,
,,,C,D,y,b,R,D,g,L,i,,,,,6,8,128,2,5,0,5,0,,,,,0,6,6,2,,,,,,up,0.6671748955268413,4998.475396430584,None,001,12,2019_Jun_06_1502,ACPT_experiment_5_30_19,3.1.0,59.94640165416856,
,,,C,D,y,b,L,G,g,L,c ,,,,,6,8,128,2,5,0,5,0,,,,,0,7,7,18,,,,,,up,0.4336578713191557,5000.426904394213,None,001,12,2019_Jun_06_1502,ACPT_experiment_5_30_19,3.1.0,59.94640165416856,
,,,C,D,y,b,L,D,y,L,y,,,,,6,8,128,2,5,0,5,0,,,,,0,8,8,32,,,,,,down,0.45033524389509694,5002.144897446638,None,001,12,2019_Jun_06_1502,ACPT_experiment_5_30_19,3.1.0,59.94640165416856,
,,,C,D,y,b,R,D,g,R,i,,,,,6,8,128,2,5,0,5,0,,,,,0,9,9,3,,,,,,up,0.5835281325962569,5003.896487938344,None,001,12,2019_Jun_06_1502,ACPT_experiment_5_30_19,3.1.0,59.94640165416856,
,,,C,D,y,b,R,G,y,L,y,,,,,6,8,128,2,5,0,5,0,,,,,0,10,10,28,,,,,,down,0.46702650195584283,5005.764348837181,None,001,12,2019_Jun_06_1502,ACPT_experiment_5_30_19,3.1.0,59.94640165416856,
,,,C,D,y,b,L,U,g,R,u,,,,,6,8,128,2,5,0,5,0,,,,,0,11,11,23,,,,,,up,0.6004925724737404,5007.515703275645,None,001,12,2019_Jun_06_1502,ACPT_experiment_5_30_19,3.1.0,59.94640165416856,
,,,C,D,y,b,R,D,d,L,c,,,,,6,8,128,2,5,0,5,0,,,,,0,12,12,0,,,,,,up,0.6838567959784996,5009.400485448614,None,001,12,2019_Jun_06_1502,ACPT_experiment_5_30_19,3.1.0,59.94640165416856,
,,,C,D,y,b,R,G,g,L,c ,,,,,6,8,128,2,5,0,5,0,,,,,0,13,13,6,,,,,,up,0.7839300871892192,5011.368673199688,None,001,12,2019_Jun_06_1502,ACPT_experiment_5_30_19,3.1.0,59.94640165416856,
,,,C,D,y,b,L,D,g,L,i,,,,,6,8,128,2,5,0,5,0,,,,,0,14,14,14,,,,,,up,2.0515803492635314,5013.43693363825,None,001,12,2019_Jun_06_1502,ACPT_experiment_5_30_19,3.1.0,59.94640165416856,
,,,C,D,y,b,R,U,g,R,u,,,,,6,8,128,2,5,0,5,0,,,,,0,15,15,11,,,,,,up,0.8840166601657984,5016.772837094288,None,001,12,2019_Jun_06_1502,ACPT_experiment_5_30_19,3.1.0,59.94640165416856,
,,,C,D,y,b,R,U,g,L,u,,,,,6,8,128,2,5,0,5,0,,,,,0,16,16,10,,,,,,up,3.853002524741896,5018.92447201954,None,001,12,2019_Jun_06_1502,ACPT_experiment_5_30_19,3.1.0,59.94640165416856,
,,,C,D,y,b,L,G,d,L,i,,,,,6,8,128,2,5,0,5,0,,,,,0,17,17,16,,,,,,up,0.8173014345520642,5024.061787086017,None,001,12,2019_Jun_06_1502,ACPT_experiment_5_30_19,3.1.0,59.94640165416856,
,,,C,D,y,b,L,G,g,R,c ,,,,,6,8,128,2,5,0,5,0,,,,,0,18,18,19,,,,,,up,0.9007175776969234,5026.1467092005205,None,001,12,2019_Jun_06_1502,ACPT_experiment_5_30_19,3.1.0,59.94640165416856,
,,,C,D,y,b,L,D,d,L,c ,,,,,6,8,128,2,5,0,5,0,,,,,0,19,19,12,,,,,,up,1.717988826410874,5028.331752299857,None,001,12,2019_Jun_06_1502,ACPT_experiment_5_30_19,3.1.0,59.94640165416856,
,,,C,D,y,b,R,D,d,R,c ,,,,,6,8,128,2,5,0,5,0,,,,,0,20,20,1,,,,,,up,0.9006922215921804,5031.334068157203,None,001,12,2019_Jun_06_1502,ACPT_experiment_5_30_19,3.1.0,59.94640165416856,
,,,C,D,y,b,L,U,d,L,u,,,,,6,8,128,2,5,0,5,0,,,,,0,21,21,20,,,,,,up,0.6171756803596509,5033.519081976277,None,001,12,2019_Jun_06_1502,ACPT_experiment_5_30_19,3.1.0,59.94640165416856,
,,,C,D,y,b,R,G,d,R,i,,,,,6,8,128,2,5,0,5,0,,,,,0,22,22,5,,,,,,up,0.6004599717707606,5035.420544842267,None,001,12,2019_Jun_06_1502,ACPT_experiment_5_30_19,3.1.0,59.94640165416856,
,,,C,D,y,b,R,U,y,L,u,,,,,6,8,128,2,5,0,5,0,,,,,0,23,23,30,,,,,,down,0.5504369097907329,5037.305313129751,None,001,12,2019_Jun_06_1502,ACPT_experiment_5_30_19,3.1.0,59.94640165416856,
,,,C,D,y,b,L,G,y,R,y,,,,,6,8,128,2,5,0,5,0,,,,,0,24,24,35,,,,,,down,0.6672651511762524,5039.140082503925,None,001,12,2019_Jun_06_1502,ACPT_experiment_5_30_19,3.1.0,59.94640165416856,
,,,C,D,y,b,L,D,d,R,c ,,,,,6,8,128,2,5,0,5,0,,,,,0,25,25,13,,,,,,up,0.7839409540902125,5041.091588958263,None,001,12,2019_Jun_06_1502,ACPT_experiment_5_30_19,3.1.0,59.94640165416856,
,,,C,D,y,b,L,G,y,L,y,,,,,6,8,128,2,5,0,5,0,,,,,0,26,26,34,,,,,,down,0.7835491419355094,5043.176804177236,None,001,12,2019_Jun_06_1502,ACPT_experiment_5_30_19,3.1.0,59.94640165416856,
,,,C,D,y,b,R,G,y,R,y,,,,,6,8,128,2,5,0,5,0,,,,,0,27,27,29,,,,,,down,0.9841122888974496,5045.244766681599,None,001,12,2019_Jun_06_1502,ACPT_experiment_5_30_19,3.1.0,59.94640165416856,
,,,C,D,y,b,L,U,g,L,u,,,,,6,8,128,2,5,0,5,0,,,,,0,28,28,22,,,,,,up,1.1008430300316832,5047.5132069070005,None,001,12,2019_Jun_06_1502,ACPT_experiment_5_30_19,3.1.0,59.94640165416856,
,,,C,D,y,b,L,U,d,R,u,,,,,6,8,128,2,5,0,5,0,,,,,0,29,29,21,,,,,,up,1.467819182013045,5049.881675144863,None,001,12,2019_Jun_06_1502,ACPT_experiment_5_30_19,3.1.0,59.94640165416856,
,,,C,D,y,b,L,D,g,R,i,,,,,6,8,128,2,5,0,5,0,,,,,0,30,30,15,,,,,,up,0.7505680974354618,5052.633821659665,None,001,12,2019_Jun_06_1502,ACPT_experiment_5_30_19,3.1.0,59.94640165416856,
,,,C,D,y,b,L,U,y,R,u,,,,,6,8,128,2,5,0,5,0,,,,,0,31,31,25,,,,,,down,0.8673287225465174,5054.668723428918,None,001,12,2019_Jun_06_1502,ACPT_experiment_5_30_19,3.1.0,59.94640165416856,
,,,C,D,y,b,L,D,y,R,y,,,,,6,8,128,2,5,0,5,0,,,,,0,32,32,33,,,,,,down,0.5171042003021284,5056.803686415044,None,001,12,2019_Jun_06_1502,ACPT_experiment_5_30_19,3.1.0,59.94640165416856,
,,,C,D,y,b,R,U,d,L,u,,,,,6,8,128,2,5,0,5,0,,,,,0,33,33,8,,,,,,up,1.7179906375604332,5058.605093799468,None,001,12,2019_Jun_06_1502,ACPT_experiment_5_30_19,3.1.0,59.94640165416856,
,,,C,D,y,b,L,G,d,R,i,,,,,6,8,128,2,5,0,5,0,,,,,0,34,34,17,,,,,,up,0.7839500098416465,5061.607404827077,None,001,12,2019_Jun_06_1502,ACPT_experiment_5_30_19,3.1.0,59.94640165416856,
,,,C,D,y,b,R,D,y,R,y,,,,,6,8,128,2,5,0,5,0,,,,,0,35,35,27,,,,,,down,0.6672056850802619,5063.675669189799,None,001,12,2019_Jun_06_1502,ACPT_experiment_5_30_19,3.1.0,59.94640165416856,
,,,C,D,y,b,L,D,y,L,y,,,,,6,8,128,2,5,0,5,0,,,,,1,0,36,32,,,,,,down,0.9340439481602516,5065.6271756441365,None,001,12,2019_Jun_06_1502,ACPT_experiment_5_30_19,3.1.0,59.94640165416856,
,,,C,D,y,b,R,G,y,R,y,,,,,6,8,128,2,5,0,5,0,,,,,1,1,37,29,,,,,,down,0.5670913411340734,5067.845551452965,None,001,12,2019_Jun_06_1502,ACPT_experiment_5_30_19,3.1.0,59.94640165416856,
,,,C,D,y,b,R,U,g,R,u,,,,,6,8,128,2,5,0,5,0,,,,,1,2,38,11,,,,,,up,0.8339869573064789,5069.696977673348,None,001,12,2019_Jun_06_1502,ACPT_experiment_5_30_19,3.1.0,59.94640165416856,
,,,C,D,y,b,L,U,y,R,u,,,,,6,8,128,2,5,0,5,0,,,,,1,3,39,25,,,,,,down,1.3175755219454004,5071.8320260853925,None,001,12,2019_Jun_06_1502,ACPT_experiment_5_30_19,3.1.0,59.94640165416856,
,,,C,D,y,b,L,G,y,R,y,,,,,6,8,128,2,5,0,5,0,,,,,1,4,40,35,,,,,,down,0.6171279867376143,5074.450646761723,None,001,12,2019_Jun_06_1502,ACPT_experiment_5_30_19,3.1.0,59.94640165416856,
,,,C,D,y,b,L,D,g,R,i,,,,,6,8,128,2,5,0,5,0,,,,,1,5,41,15,,,,,,up,0.6671767066764005,5076.352106307271,None,001,12,2019_Jun_06_1502,ACPT_experiment_5_30_19,3.1.0,59.94640165416856,
,,,C,D,y,b,L,G,d,L,i,,,,,6,8,128,2,5,0,5,0,,,,,1,6,42,16,,,,,,up,0.6671758010998019,5078.303608233729,None,001,12,2019_Jun_06_1502,ACPT_experiment_5_30_19,3.1.0,59.94640165416856,
,,,C,D,y,b,R,G,d,R,i,,,,,6,8,128,2,5,0,5,0,,,,,1,7,43,5,,,,,,up,1.9848747831129003,5080.2551216308075,None,001,12,2019_Jun_06_1502,ACPT_experiment_5_30_19,3.1.0,59.94640165416856,
,,,C,D,y,b,R,U,g,L,u,,,,,6,8,128,2,5,0,5,0,,,,,1,8,44,10,,,,,,up,0.6171427777953795,5083.524303522203,None,001,12,2019_Jun_06_1502,ACPT_experiment_5_30_19,3.1.0,59.94640165416856,
,,,C,D,y,b,R,U,d,L,u,,,,,6,8,128,2,5,0,5,0,,,,,1,9,45,8,,,,,,up,0.8006165155165945,5085.425767897485,None,001,12,2019_Jun_06_1502,ACPT_experiment_5_30_19,3.1.0,59.94640165416856,
,,,C,D,y,b,R,U,y,R,u,,,,,6,8,128,2,5,0,5,0,,,,,1,10,46,31,,,,,,down,1.0341613106938894,5087.510712047648,None,001,12,2019_Jun_06_1502,ACPT_experiment_5_30_19,3.1.0,59.94640165416856,
,,,C,D,y,b,R,D,d,L,c,,,,,6,8,128,2,5,0,5,0,,,,,1,11,47,0,,,,,,up,0.5837798824650235,5089.82916476999,None,001,12,2019_Jun_06_1502,ACPT_experiment_5_30_19,3.1.0,59.94640165416856,
,,,C,D,y,b,L,D,d,R,c ,,,,,6,8,128,2,5,0,5,0,,,,,1,12,48,13,,,,,,up,0.7672678075323347,5091.697269268525,None,001,12,2019_Jun_06_1502,ACPT_experiment_5_30_19,3.1.0,59.94640165416856,
,,,C,D,y,b,R,U,y,L,u,,,,,6,8,128,2,5,0,5,0,,,,,1,13,49,30,,,,,,down,0.7505786624788016,5093.748852032653,None,001,12,2019_Jun_06_1502,ACPT_experiment_5_30_19,3.1.0,59.94640165416856,
,,,C,D,y,b,R,G,g,L,c ,,,,,6,8,128,2,5,0,5,0,,,,,1,14,50,6,,,,,,up,0.86733868387455,5095.783757122348,None,001,12,2019_Jun_06_1502,ACPT_experiment_5_30_19,3.1.0,59.94640165416856,
,,,C,D,y,b,L,D,d,L,c ,,,,,6,8,128,2,5,0,5,0,,,,,1,15,51,12,,,,,,up,0.6171569651378377,5097.9354137814025,None,001,12,2019_Jun_06_1502,ACPT_experiment_5_30_19,3.1.0,59.94640165416856,
,,,C,D,y,b,R,U,d,R,u,,,,,6,8,128,2,5,0,5,0,,,,,1,16,52,9,,,,,,up,0.717232369359408,5099.836879967834,None,001,12,2019_Jun_06_1502,ACPT_experiment_5_30_19,3.1.0,59.94640165416856,
,,,C,D,y,b,L,U,y,L,u,,,,,6,8,128,2,5,0,5,0,,,,,1,17,53,24,,,,,,down,1.301020402002905,5101.8550992329165,None,001,12,2019_Jun_06_1502,ACPT_experiment_5_30_19,3.1.0,59.94640165416856,
,,,C,D,y,b,L,U,d,R,u,,,,,6,8,128,2,5,0,5,0,,,,,1,18,54,21,,,,,,up,0.6505080879906018,5104.457111058518,None,001,12,2019_Jun_06_1502,ACPT_experiment_5_30_19,3.1.0,59.94640165416856,
,,,C,D,y,b,L,D,g,L,i,,,,,6,8,128,2,5,0,5,0,,,,,1,19,55,14,,,,,,up,0.5003848694104818,5106.3919325938205,None,001,12,2019_Jun_06_1502,ACPT_experiment_5_30_19,3.1.0,59.94640165416856,
,,,C,D,y,b,R,D,g,L,i,,,,,6,8,128,2,5,0,5,0,,,,,1,20,56,2,,,,,,up,0.48344669120706385,5108.193599878292,None,001,12,2019_Jun_06_1502,ACPT_experiment_5_30_19,3.1.0,59.94640165416856,
,,,C,D,y,b,L,U,g,L,u,,,,,6,8,128,2,5,0,5,0,,,,,1,21,57,22,,,,,,up,0.5837955791030254,5109.96135216849,None,001,12,2019_Jun_06_1502,ACPT_experiment_5_30_19,3.1.0,59.94640165416856,
,,,C,D,y,b,L,U,g,R,u,,,,,6,8,128,2,5,0,5,0,,,,,1,22,58,23,,,,,,up,0.7005317536859366,5111.812781709314,None,001,12,2019_Jun_06_1502,ACPT_experiment_5_30_19,3.1.0,59.94640165416856,
,,,C,D,y,b,L,G,g,L,c ,,,,,6,8,128,2,5,0,5,0,,,,,1,23,59,18,,,,,,up,0.7671274433923827,5113.797660416587,None,001,12,2019_Jun_06_1502,ACPT_experiment_5_30_19,3.1.0,59.94640165416856,
,,,C,D,y,b,R,D,y,R,y,,,,,6,8,128,2,5,0,5,0,,,,,1,24,60,27,,,,,,down,0.8840392995443835,5115.849199713115,None,001,12,2019_Jun_06_1502,ACPT_experiment_5_30_19,3.1.0,59.94640165416856,
,,,C,D,y,b,R,G,d,L,i,,,,,6,8,128,2,5,0,5,0,,,,,1,25,61,4,,,,,,up,0.7338907248595206,5118.017568760317,None,001,12,2019_Jun_06_1502,ACPT_experiment_5_30_19,3.1.0,59.94640165416856,
