facing_vig,person_vig,text_vig,facing_train,person_train,food_train,correct_key_train,facing_exp,person_exp,food_exp,showL_R,consistent,vig_random.thisRepN,vig_random.thisTrialN,vig_random.thisN,vig_random.thisIndex,trainTrials.thisRepN,trainTrials.thisTrialN,trainTrials.thisN,trainTrials.thisIndex,expBlock.thisRepN,expBlock.thisTrialN,expBlock.thisN,expBlock.thisIndex,breakLoop.thisRepN,breakLoop.thisTrialN,breakLoop.thisN,breakLoop.thisIndex,expTrials.thisRepN,expTrials.thisTrialN,expTrials.thisN,expTrials.thisIndex,train_resp.keys,train_resp.corr,train_resp.rt,train_resp.started,train_resp.stopped,exp_resp.keys,exp_resp.rt,exp_resp.started,exp_resp.stopped,session,participant,date,expName,psychopyVersion,frameRate,
C,U,"did not report her food preferences, so her food preferences are unknown.",,,,,,,,,,0,0,0,2,,,,,,,,,,,,,,,,,,,,,,,,,,001,13,2019_Oct_04_1109,ACPT_experiment_5_30_19,3.1.0,59.95350815287838,
C,D,"is allergic to gluten, meaning she can’t eat wheat products. She enjoys eating dairy products. She thinks eating insects, like crickets, is disgusting.",,,,,,,,,,0,1,1,1,,,,,,,,,,,,,,,,,,,,,,,,,,001,13,2019_Oct_04_1109,ACPT_experiment_5_30_19,3.1.0,59.95350815287838,
C,G,"cannot eat dairy products because she is lactose intolerant. She enjoys eating wheat products. She thinks eating insects, like crickets, is disgusting.",,,,,,,,,,0,2,2,0,,,,,,,,,,,,,,,,,,,,,,,,,,001,13,2019_Oct_04_1109,ACPT_experiment_5_30_19,3.1.0,59.95350815287838,
,,,C,U,g,n,,,,,,,,,,0,0,0,16,,,,,,,,,,,,,v,0,9.073623594903665,1794.8307862321608,None,,,,,001,13,2019_Oct_04_1109,ACPT_experiment_5_30_19,3.1.0,59.95350815287838,
,,,C,U,g,n,,,,,,,,,,0,1,1,7,,,,,,,,,,,,,b,0,1.86812446439626,1806.2894687989287,None,,,,,001,13,2019_Oct_04_1109,ACPT_experiment_5_30_19,3.1.0,59.95350815287838,
,,,C,D,g,b,,,,,,,,,,0,2,2,1,,,,,,,,,,,,,b,1,4.736942591139723,1811.4434081098123,None,,,,,001,13,2019_Oct_04_1109,ACPT_experiment_5_30_19,3.1.0,59.95350815287838,
,,,C,U,d,n,,,,,,,,,,0,3,3,15,,,,,,,,,,,,,v,0,2.418513238295418,1818.09846443441,None,,,,,001,13,2019_Oct_04_1109,ACPT_experiment_5_30_19,3.1.0,59.95350815287838,
,,,C,D,g,b,,,,,,,,,,0,4,4,10,,,,,,,,,,,,,b,1,5.153921199595061,1822.8020366747553,None,,,,,001,13,2019_Oct_04_1109,ACPT_experiment_5_30_19,3.1.0,59.95350815287838,
,,,C,U,d,n,,,,,,,,,,0,5,5,6,,,,,,,,,,,,,v,0,4.570140039500757,1831.2417899265618,None,,,,,001,13,2019_Oct_04_1109,ACPT_experiment_5_30_19,3.1.0,59.95350815287838,
,,,C,D,d,v,,,,,,,,,,0,6,6,9,,,,,,,,,,,,,v,1,3.9530226382048568,1837.7133583731957,None,,,,,001,13,2019_Oct_04_1109,ACPT_experiment_5_30_19,3.1.0,59.95350815287838,
,,,C,G,d,b,,,,,,,,,,0,7,7,3,,,,,,,,,,,,,b,1,2.235044980894145,1844.9521922356303,None,,,,,001,13,2019_Oct_04_1109,ACPT_experiment_5_30_19,3.1.0,59.95350815287838,
,,,C,G,g,v,,,,,,,,,,0,8,8,4,,,,,,,,,,,,,v,1,10.174405368668886,1850.4563733774926,None,,,,,001,13,2019_Oct_04_1109,ACPT_experiment_5_30_19,3.1.0,59.95350815287838,
,,,C,D,y,b,,,,,,,,,,0,9,9,11,,,,,,,,,,,,,b,1,2.8688419732729926,1863.9332925024398,None,,,,,001,13,2019_Oct_04_1109,ACPT_experiment_5_30_19,3.1.0,59.95350815287838,
,,,C,G,d,b,,,,,,,,,,0,10,10,12,,,,,,,,,,,,,b,1,3.252503055525267,1870.0879547555867,None,,,,,001,13,2019_Oct_04_1109,ACPT_experiment_5_30_19,3.1.0,59.95350815287838,
,,,C,D,d,v,,,,,,,,,,0,11,11,0,,,,,,,,,,,,,b,0,1.234281891941464,1876.626260281552,None,,,,,001,13,2019_Oct_04_1109,ACPT_experiment_5_30_19,3.1.0,59.95350815287838,
,,,C,G,y,b,,,,,,,,,,0,12,12,5,,,,,,,,,,,,,b,1,0.9337757719861202,1881.1633140156318,None,,,,,001,13,2019_Oct_04_1109,ACPT_experiment_5_30_19,3.1.0,59.95350815287838,
,,,C,G,g,v,,,,,,,,,,0,13,13,13,,,,,,,,,,,,,b,0,2.535293618698688,1885.3662111577007,None,,,,,001,13,2019_Oct_04_1109,ACPT_experiment_5_30_19,3.1.0,59.95350815287838,
,,,C,U,y,n,,,,,,,,,,0,14,14,17,,,,,,,,,,,,,b,0,1.1341995157645215,1891.187320830306,None,,,,,001,13,2019_Oct_04_1109,ACPT_experiment_5_30_19,3.1.0,59.95350815287838,
,,,C,G,y,b,,,,,,,,,,0,15,15,14,,,,,,,,,,,,,b,1,1.8013493513594767,1895.624051308073,None,,,,,001,13,2019_Oct_04_1109,ACPT_experiment_5_30_19,3.1.0,59.95350815287838,
,,,C,D,y,b,,,,,,,,,,0,16,16,2,,,,,,,,,,,,,b,1,3.4693081578370766,1900.7112239578537,None,,,,,001,13,2019_Oct_04_1109,ACPT_experiment_5_30_19,3.1.0,59.95350815287838,
,,,C,G,g,v,,,,,,,,,,0,17,17,19,,,,,,,,,,,,,v,1,2.7688232884606805,1907.466364469757,None,,,,,001,13,2019_Oct_04_1109,ACPT_experiment_5_30_19,3.1.0,59.95350815287838,
,,,C,D,d,v,,,,,,,,,,0,18,18,18,,,,,,,,,,,,,v,1,1.9348053987337153,1913.5209585339035,None,,,,,001,13,2019_Oct_04_1109,ACPT_experiment_5_30_19,3.1.0,59.95350815287838,
,,,C,U,y,n,,,,,,,,,,0,19,19,8,,,,,,,,,,,,,v,0,1.5512055930071256,1918.7415667049318,None,,,,,001,13,2019_Oct_04_1109,ACPT_experiment_5_30_19,3.1.0,59.95350815287838,
,,,C,U,d,n,,,,,,,,,,1,0,20,6,,,,,,,,,,,,,v,0,5.120560206299615,1923.578612802085,None,,,,,001,13,2019_Oct_04_1109,ACPT_experiment_5_30_19,3.1.0,59.95350815287838,
,,,C,D,d,v,,,,,,,,,,1,1,21,0,,,,,,,,,,,,,v,1,1.9014549703560988,1931.9849784973726,None,,,,,001,13,2019_Oct_04_1109,ACPT_experiment_5_30_19,3.1.0,59.95350815287838,
,,,C,G,d,b,,,,,,,,,,1,2,22,12,,,,,,,,,,,,,b,1,3.5026869605667343,1937.1722640106664,None,,,,,001,13,2019_Oct_04_1109,ACPT_experiment_5_30_19,3.1.0,59.95350815287838,
,,,C,G,y,b,,,,,,,,,,1,3,23,14,,,,,,,,,,,,,b,1,1.401068143421071,1943.9440681153483,None,,,,,001,13,2019_Oct_04_1109,ACPT_experiment_5_30_19,3.1.0,59.95350815287838,
,,,C,D,g,b,,,,,,,,,,1,4,24,1,,,,,,,,,,,,,b,1,1.63415197363247,1948.6480454448451,None,,,,,001,13,2019_Oct_04_1109,ACPT_experiment_5_30_19,3.1.0,59.95350815287838,
,,,C,U,g,n,,,,,,,,,,1,5,25,16,,,,,,,,,,,,,v,0,6.054601912370799,1953.568053920928,None,,,,,001,13,2019_Oct_04_1109,ACPT_experiment_5_30_19,3.1.0,59.95350815287838,
,,,C,D,d,v,,,,,,,,,,1,6,26,18,,,,,,,,,,,,,v,1,4.136491801170905,1962.9084727927698,None,,,,,001,13,2019_Oct_04_1109,ACPT_experiment_5_30_19,3.1.0,59.95350815287838,
,,,C,G,y,b,,,,,,,,,,1,7,27,5,,,,,,,,,,,,,b,1,1.8013719904702157,1970.3307890997812,None,,,,,001,13,2019_Oct_04_1109,ACPT_experiment_5_30_19,3.1.0,59.95350815287838,
,,,C,D,d,v,,,,,,,,,,1,8,28,9,,,,,,,,,,,,,v,1,1.8013777257110632,1975.4179883127854,None,,,,,001,13,2019_Oct_04_1109,ACPT_experiment_5_30_19,3.1.0,59.95350815287838,
,,,C,D,g,b,,,,,,,,,,1,9,29,10,,,,,,,,,,,,,b,1,1.8180624483261454,1980.4884961623688,None,,,,,001,13,2019_Oct_04_1109,ACPT_experiment_5_30_19,3.1.0,59.95350815287838,
,,,C,D,y,b,,,,,,,,,,1,10,30,11,,,,,,,,,,,,,b,1,1.334357929167254,1985.575690545696,None,,,,,001,13,2019_Oct_04_1109,ACPT_experiment_5_30_19,3.1.0,59.95350815287838,
,,,C,G,g,v,,,,,,,,,,1,11,31,19,,,,,,,,,,,,,v,1,3.002045670028565,1990.2127919426498,None,,,,,001,13,2019_Oct_04_1109,ACPT_experiment_5_30_19,3.1.0,59.95350815287838,
,,,C,G,g,v,,,,,,,,,,1,12,32,13,,,,,,,,,,,,,v,1,2.0015328187109844,1996.4839825274362,None,,,,,001,13,2019_Oct_04_1109,ACPT_experiment_5_30_19,3.1.0,59.95350815287838,
,,,C,D,y,b,,,,,,,,,,1,13,33,2,,,,,,,,,,,,,b,1,2.0182395767269554,2001.7713277777962,None,,,,,001,13,2019_Oct_04_1109,ACPT_experiment_5_30_19,3.1.0,59.95350815287838,
,,,C,U,d,n,,,,,,,,,,1,14,34,15,,,,,,,,,,,,,v,0,5.070527772000332,2007.0753571470614,None,,,,,001,13,2019_Oct_04_1109,ACPT_experiment_5_30_19,3.1.0,59.95350815287838,
,,,C,G,d,b,,,,,,,,,,1,15,35,3,,,,,,,,,,,,,b,1,2.6019754586004638,2015.4317130471609,None,,,,,001,13,2019_Oct_04_1109,ACPT_experiment_5_30_19,3.1.0,59.95350815287838,
,,,C,U,g,n,,,,,,,,,,1,16,36,7,,,,,,,,,,,,,v,0,4.703560769862634,2021.3195278024878,None,,,,,001,13,2019_Oct_04_1109,ACPT_experiment_5_30_19,3.1.0,59.95350815287838,
,,,C,G,g,v,,,,,,,,,,1,17,37,4,,,,,,,,,,,,,v,1,1.8514690216975396,2029.3088892316619,None,,,,,001,13,2019_Oct_04_1109,ACPT_experiment_5_30_19,3.1.0,59.95350815287838,
,,,C,U,y,n,,,,,,,,,,1,18,38,17,,,,,,,,,,,,,b,0,1.968220725894298,2034.4461447254948,None,,,,,001,13,2019_Oct_04_1109,ACPT_experiment_5_30_19,3.1.0,59.95350815287838,
,,,C,U,y,n,,,,,,,,,,1,19,39,8,,,,,,,,,,,,,b,0,2.1016263635160612,2039.6834391284124,None,,,,,001,13,2019_Oct_04_1109,ACPT_experiment_5_30_19,3.1.0,59.95350815287838,
,,,C,D,y,b,,,,,,,,,,2,0,40,2,,,,,,,,,,,,,b,1,0.9174227878042984,2045.070877923577,None,,,,,001,13,2019_Oct_04_1109,ACPT_experiment_5_30_19,3.1.0,59.95350815287838,
,,,C,U,g,n,,,,,,,,,,2,1,41,16,,,,,,,,,,,,,v,0,2.0011295406889076,2049.291136546739,None,,,,,001,13,2019_Oct_04_1109,ACPT_experiment_5_30_19,3.1.0,59.95350815287838,
,,,C,U,d,n,,,,,,,,,,2,2,42,6,,,,,,,,,,,,,v,0,2.8355036190882856,2054.561423981942,None,,,,,001,13,2019_Oct_04_1109,ACPT_experiment_5_30_19,3.1.0,59.95350815287838,
,,,C,G,y,b,,,,,,,,,,2,3,43,14,,,,,,,,,,,,,b,1,1.1342200418916946,2060.6827469753393,None,,,,,001,13,2019_Oct_04_1109,ACPT_experiment_5_30_19,3.1.0,59.95350815287838,
,,,C,G,y,b,,,,,,,,,,2,4,44,5,,,,,,,,,,,,,b,1,2.0179730389322685,2065.1196821106655,None,,,,,001,13,2019_Oct_04_1109,ACPT_experiment_5_30_19,3.1.0,59.95350815287838,
,,,C,U,g,n,,,,,,,,,,2,5,45,7,,,,,,,,,,,,,b,0,2.001527083469682,2070.423474825762,None,,,,,001,13,2019_Oct_04_1109,ACPT_experiment_5_30_19,3.1.0,59.95350815287838,
,,,C,D,d,v,,,,,,,,,,2,6,46,0,,,,,,,,,,,,,b,0,1.8514300824276688,2075.7108188687025,None,,,,,001,13,2019_Oct_04_1109,ACPT_experiment_5_30_19,3.1.0,59.95350815287838,
,,,C,D,g,b,,,,,,,,,,2,7,47,1,,,,,,,,,,,,,b,1,1.8180189812342178,2080.8480897571308,None,,,,,001,13,2019_Oct_04_1109,ACPT_experiment_5_30_19,3.1.0,59.95350815287838,
,,,C,D,y,b,,,,,,,,,,2,8,48,11,,,,,,,,,,,,,b,1,0.8506579378308743,2085.9352455030426,None,,,,,001,13,2019_Oct_04_1109,ACPT_experiment_5_30_19,3.1.0,59.95350815287838,
,,,C,U,y,n,,,,,,,,,,2,9,49,8,,,,,,,,,,,,,v,0,2.451682251933562,2090.088563294878,None,,,,,001,13,2019_Oct_04_1109,ACPT_experiment_5_30_19,3.1.0,59.95350815287838,
,,,C,D,d,v,,,,,,,,,,2,10,50,18,,,,,,,,,,,,,v,1,2.401861115999509,2095.826096012166,None,,,,,001,13,2019_Oct_04_1109,ACPT_experiment_5_30_19,3.1.0,59.95350815287838,
,,,C,U,d,n,,,,,,,,,,2,11,51,15,,,,,,,,,,,,,v,0,2.1516597033792095,2101.5137445058654,None,,,,,001,13,2019_Oct_04_1109,ACPT_experiment_5_30_19,3.1.0,59.95350815287838,
,,,C,D,g,b,,,,,,,,,,2,12,52,10,,,,,,,,,,,,,b,1,2.501912702985919,2106.9512039629913,None,,,,,001,13,2019_Oct_04_1109,ACPT_experiment_5_30_19,3.1.0,59.95350815287838,
,,,C,G,d,b,,,,,,,,,,2,13,53,12,,,,,,,,,,,,,b,1,6.5550156043841525,2112.73890736408,None,,,,,001,13,2019_Oct_04_1109,ACPT_experiment_5_30_19,3.1.0,59.95350815287838,
,,,C,G,g,v,,,,,,,,,,2,14,54,19,,,,,,,,,,,,,v,1,4.103146806179666,2122.5630636572546,None,,,,,001,13,2019_Oct_04_1109,ACPT_experiment_5_30_19,3.1.0,59.95350815287838,
,,,C,G,g,v,,,,,,,,,,2,15,55,4,,,,,,,,,,,,,v,1,1.0843186125784996,2129.935174567163,None,,,,,001,13,2019_Oct_04_1109,ACPT_experiment_5_30_19,3.1.0,59.95350815287838,
,,,C,U,y,n,,,,,,,,,,2,16,56,17,,,,,,,,,,,,,b,0,1.7844409543317852,2134.322259890348,None,,,,,001,13,2019_Oct_04_1109,ACPT_experiment_5_30_19,3.1.0,59.95350815287838,
,,,C,D,d,v,,,,,,,,,,2,17,57,9,,,,,,,,,,,,,v,1,1.6846435290931367,2139.3925042206847,None,,,,,001,13,2019_Oct_04_1109,ACPT_experiment_5_30_19,3.1.0,59.95350815287838,
,,,C,G,g,v,,,,,,,,,,2,18,58,13,,,,,,,,,,,,,v,1,2.585304017597082,2144.3629465979607,None,,,,,001,13,2019_Oct_04_1109,ACPT_experiment_5_30_19,3.1.0,59.95350815287838,
,,,C,G,d,b,,,,,,,,,,2,19,59,3,,,,,,,,,,,,,b,1,2.1683187683356664,2150.2173931154766,None,,,,,001,13,2019_Oct_04_1109,ACPT_experiment_5_30_19,3.1.0,59.95350815287838,
,,,C,U,g,n,,,,,,,,,,3,0,60,7,,,,,,,,,,,,,b,0,3.135695508189201,2155.6715629528767,None,,,,,001,13,2019_Oct_04_1109,ACPT_experiment_5_30_19,3.1.0,59.95350815287838,
,,,C,U,y,n,,,,,,,,,,3,1,61,8,,,,,,,,,,,,,b,0,2.3684913689144196,2162.076375605181,None,,,,,001,13,2019_Oct_04_1109,ACPT_experiment_5_30_19,3.1.0,59.95350815287838,
,,,C,U,g,n,,,,,,,,,,3,2,62,16,,,,,,,,,,,,,b,0,1.7180220299674147,2167.7139907590167,None,,,,,001,13,2019_Oct_04_1109,ACPT_experiment_5_30_19,3.1.0,59.95350815287838,
,,,C,D,d,v,,,,,,,,,,3,3,63,9,,,,,,,,,,,,,v,1,1.5344813274127773,2172.717820692811,None,,,,,001,13,2019_Oct_04_1109,ACPT_experiment_5_30_19,3.1.0,59.95350815287838,
,,,C,D,d,v,,,,,,,,,,3,4,64,18,,,,,,,,,,,,,v,1,1.3843973061270844,2177.538135581709,None,,,,,001,13,2019_Oct_04_1109,ACPT_experiment_5_30_19,3.1.0,59.95350815287838,
,,,C,U,y,n,,,,,,,,,,3,5,65,17,,,,,,,,,,,,,v,0,3.735927151568376,2182.2252929576366,None,,,,,001,13,2019_Oct_04_1109,ACPT_experiment_5_30_19,3.1.0,59.95350815287838,
,,,C,G,y,b,,,,,,,,,,3,6,66,14,,,,,,,,,,,,,b,1,1.3176713954230763,2189.2470283148864,None,,,,,001,13,2019_Oct_04_1109,ACPT_experiment_5_30_19,3.1.0,59.95350815287838,
,,,C,U,d,n,,,,,,,,,,3,7,67,6,,,,,,,,,,,,,b,0,5.187045840576502,2193.8841125061163,None,,,,,001,13,2019_Oct_04_1109,ACPT_experiment_5_30_19,3.1.0,59.95350815287838,
,,,C,D,g,b,,,,,,,,,,3,8,68,10,,,,,,,,,,,,,b,1,4.486750234163992,2202.3569783247117,None,,,,,001,13,2019_Oct_04_1109,ACPT_experiment_5_30_19,3.1.0,59.95350815287838,
,,,C,G,g,v,,,,,,,,,,3,9,69,13,,,,,,,,,,,,,v,1,3.8529583733161417,2210.1295488387495,None,,,,,001,13,2019_Oct_04_1109,ACPT_experiment_5_30_19,3.1.0,59.95350815287838,
,,,C,U,d,n,,,,,,,,,,3,10,70,15,,,,,,,,,,,,,v,0,4.003054166939364,2217.2682930804917,None,,,,,001,13,2019_Oct_04_1109,ACPT_experiment_5_30_19,3.1.0,59.95350815287838,
,,,C,G,g,v,,,,,,,,,,3,11,71,4,,,,,,,,,,,,,v,1,13.560306213590593,2224.557177488514,None,,,,,001,13,2019_Oct_04_1109,ACPT_experiment_5_30_19,3.1.0,59.95350815287838,
,,,C,D,y,b,,,,,,,,,,3,12,72,2,,,,,,,,,,,,,b,1,1.617882301377449,2241.403305793107,None,,,,,001,13,2019_Oct_04_1109,ACPT_experiment_5_30_19,3.1.0,59.95350815287838,
,,,C,G,g,v,,,,,,,,,,3,13,73,19,,,,,,,,,,,,,v,1,2.1182609782326836,2246.3070325227427,None,,,,,001,13,2019_Oct_04_1109,ACPT_experiment_5_30_19,3.1.0,59.95350815287838,
,,,C,G,d,b,,,,,,,,,,3,14,74,12,,,,,,,,,,,,,b,1,2.685382469661363,2251.7111104604464,None,,,,,001,13,2019_Oct_04_1109,ACPT_experiment_5_30_19,3.1.0,59.95350815287838,
,,,C,D,y,b,,,,,,,,,,3,15,75,11,,,,,,,,,,,,,b,1,1.0007667112104173,2257.6823117007075,None,,,,,001,13,2019_Oct_04_1109,ACPT_experiment_5_30_19,3.1.0,59.95350815287838,
,,,C,D,g,b,,,,,,,,,,3,16,76,1,,,,,,,,,,,,,b,1,2.998995427201862,2261.9888923468034,None,,,,,001,13,2019_Oct_04_1109,ACPT_experiment_5_30_19,3.1.0,59.95350815287838,
,,,C,G,y,b,,,,,,,,,,3,17,77,5,,,,,,,,,,,,,b,1,1.3343621551343858,2268.273680886946,None,,,,,001,13,2019_Oct_04_1109,ACPT_experiment_5_30_19,3.1.0,59.95350815287838,
,,,C,G,d,b,,,,,,,,,,3,18,78,3,,,,,,,,,,,,,v,0,1.7510690942635847,2272.8941220115244,None,,,,,001,13,2019_Oct_04_1109,ACPT_experiment_5_30_19,3.1.0,59.95350815287838,
,,,C,D,d,v,,,,,,,,,,3,19,79,0,,,,,,,,,,,,,v,1,1.6512819320878407,2277.9143139851444,None,,,,,001,13,2019_Oct_04_1109,ACPT_experiment_5_30_19,3.1.0,59.95350815287838,
,,,C,G,d,b,,,,,,,,,,4,0,80,12,,,,,,,,,,,,,b,1,1.717967997957203,2282.85142646017,None,,,,,001,13,2019_Oct_04_1109,ACPT_experiment_5_30_19,3.1.0,59.95350815287838,
,,,C,U,y,n,,,,,,,,,,4,1,81,17,,,,,,,,,,,,,b,0,2.752107474800141,2287.8552162472747,None,,,,,001,13,2019_Oct_04_1109,ACPT_experiment_5_30_19,3.1.0,59.95350815287838,
,,,C,G,d,b,,,,,,,,,,4,2,82,3,,,,,,,,,,,,,b,1,3.018990289632711,2293.8931068738075,None,,,,,001,13,2019_Oct_04_1109,ACPT_experiment_5_30_19,3.1.0,59.95350815287838,
,,,C,D,g,b,,,,,,,,,,4,3,83,10,,,,,,,,,,,,,b,1,1.2843200614815942,2300.197920160007,None,,,,,001,13,2019_Oct_04_1109,ACPT_experiment_5_30_19,3.1.0,59.95350815287838,
,,,C,G,y,b,,,,,,,,,,4,4,84,5,,,,,,,,,,,,,b,1,0.8837699009100106,2304.784975237341,None,,,,,001,13,2019_Oct_04_1109,ACPT_experiment_5_30_19,3.1.0,59.95350815287838,
,,,C,G,g,v,,,,,,,,,,4,5,85,13,,,,,,,,,,,,,v,1,2.084951300254943,2308.9378634897857,None,,,,,001,13,2019_Oct_04_1109,ACPT_experiment_5_30_19,3.1.0,59.95350815287838,
,,,C,D,d,v,,,,,,,,,,4,6,86,9,,,,,,,,,,,,,v,1,4.153173505237646,2314.3086223920122,None,,,,,001,13,2019_Oct_04_1109,ACPT_experiment_5_30_19,3.1.0,59.95350815287838,
,,,C,G,g,v,,,,,,,,,,4,7,87,4,,,,,,,,,,,,,v,1,1.234278873393123,2321.747607121479,None,,,,,001,13,2019_Oct_04_1109,ACPT_experiment_5_30_19,3.1.0,59.95350815287838,
,,,C,G,g,v,,,,,,,,,,4,8,88,19,,,,,,,,,,,,,v,1,1.8177934956929676,2326.267969793993,None,,,,,001,13,2019_Oct_04_1109,ACPT_experiment_5_30_19,3.1.0,59.95350815287838,
,,,C,U,y,n,,,,,,,,,,4,9,89,8,,,,,,,,,,,,,n,1,2.351785818317694,2331.3715877955274,None,,,,,001,13,2019_Oct_04_1109,ACPT_experiment_5_30_19,3.1.0,59.95350815287838,
,,,C,U,d,n,,,,,,,,,,4,10,90,6,,,,,,,,,,,,,n,1,3.035655995394791,2336.992504341427,None,,,,,001,13,2019_Oct_04_1109,ACPT_experiment_5_30_19,3.1.0,59.95350815287838,
,,,C,D,g,b,,,,,,,,,,4,11,91,1,,,,,,,,,,,,,b,1,3.936396475422498,2343.31398091855,None,,,,,001,13,2019_Oct_04_1109,ACPT_experiment_5_30_19,3.1.0,59.95350815287838,
,,,C,U,g,n,,,,,,,,,,4,12,92,7,,,,,,,,,,,,,n,1,2.4685550300932846,2350.5361240212737,None,,,,,001,13,2019_Oct_04_1109,ACPT_experiment_5_30_19,3.1.0,59.95350815287838,
,,,C,U,g,n,,,,,,,,,,4,13,93,16,,,,,,,,,,,,,n,1,0.7506154064885777,2356.2738082696746,None,,,,,001,13,2019_Oct_04_1109,ACPT_experiment_5_30_19,3.1.0,59.95350815287838,
,,,C,D,d,v,,,,,,,,,,4,14,94,18,,,,,,,,,,,,,v,1,3.885994570839557,2360.327180425561,None,,,,,001,13,2019_Oct_04_1109,ACPT_experiment_5_30_19,3.1.0,59.95350815287838,
,,,C,U,d,n,,,,,,,,,,4,15,95,15,,,,,,,,,,,,,n,1,1.7013279498532938,2367.4989931632904,None,,,,,001,13,2019_Oct_04_1109,ACPT_experiment_5_30_19,3.1.0,59.95350815287838,
,,,C,G,y,b,,,,,,,,,,4,16,96,14,,,,,,,,,,,,,b,1,1.2342785715386526,2372.486116037214,None,,,,,001,13,2019_Oct_04_1109,ACPT_experiment_5_30_19,3.1.0,59.95350815287838,
,,,C,D,d,v,,,,,,,,,,4,17,97,0,,,,,,,,,,,,,v,1,3.6190085216626358,2377.0232859853945,None,,,,,001,13,2019_Oct_04_1109,ACPT_experiment_5_30_19,3.1.0,59.95350815287838,
,,,C,D,y,b,,,,,,,,,,4,18,98,2,,,,,,,,,,,,,b,1,1.3177299552557997,2383.911453608991,None,,,,,001,13,2019_Oct_04_1109,ACPT_experiment_5_30_19,3.1.0,59.95350815287838,
,,,C,D,y,b,,,,,,,,,,4,19,99,11,,,,,,,,,,,,,b,1,0.6304943989330241,2388.534950107928,None,,,,,001,13,2019_Oct_04_1109,ACPT_experiment_5_30_19,3.1.0,59.95350815287838,
,,,C,G,d,b,,,,,,,,,,5,0,100,12,,,,,,,,,,,,,b,1,1.5845744345278945,2392.4512409402055,None,,,,,001,13,2019_Oct_04_1109,ACPT_experiment_5_30_19,3.1.0,59.95350815287838,
,,,C,G,g,v,,,,,,,,,,5,1,101,13,,,,,,,,,,,,,v,1,2.968933706948974,2397.304952743121,None,,,,,001,13,2019_Oct_04_1109,ACPT_experiment_5_30_19,3.1.0,59.95350815287838,
,,,C,D,y,b,,,,,,,,,,5,2,102,11,,,,,,,,,,,,,b,1,0.9674488831524286,2403.559707635508,None,,,,,001,13,2019_Oct_04_1109,ACPT_experiment_5_30_19,3.1.0,59.95350815287838,
,,,C,G,y,b,,,,,,,,,,5,3,103,14,,,,,,,,,,,,,b,1,1.3343389123147062,2407.812941783376,None,,,,,001,13,2019_Oct_04_1109,ACPT_experiment_5_30_19,3.1.0,59.95350815287838,
,,,C,D,g,b,,,,,,,,,,5,4,104,10,,,,,,,,,,,,,b,1,2.13499399761713,2412.4331055033867,None,,,,,001,13,2019_Oct_04_1109,ACPT_experiment_5_30_19,3.1.0,59.95350815287838,
,,,C,G,g,v,,,,,,,,,,5,5,105,4,,,,,,,,,,,,,v,1,1.7847470351066477,2417.853882652736,None,,,,,001,13,2019_Oct_04_1109,ACPT_experiment_5_30_19,3.1.0,59.95350815287838,
,,,C,U,d,n,,,,,,,,,,5,6,106,6,,,,,,,,,,,,,n,1,1.2509871406832644,2422.9243732965956,None,,,,,001,13,2019_Oct_04_1109,ACPT_experiment_5_30_19,3.1.0,59.95350815287838,
,,,C,D,d,v,,,,,,,,,,5,7,107,18,,,,,,,,,,,,,v,1,2.535089866704311,2427.4780045948337,None,,,,,001,13,2019_Oct_04_1109,ACPT_experiment_5_30_19,3.1.0,59.95350815287838,
,,,C,G,y,b,,,,,,,,,,5,8,108,5,,,,,,,,,,,,,b,1,0.8173512784005652,2433.3156169716053,None,,,,,001,13,2019_Oct_04_1109,ACPT_experiment_5_30_19,3.1.0,59.95350815287838,
,,,C,D,d,v,,,,,,,,,,5,9,109,0,,,,,,,,,,,,,v,1,1.8843953440705263,2437.4524631503195,None,,,,,001,13,2019_Oct_04_1109,ACPT_experiment_5_30_19,3.1.0,59.95350815287838,
,,,C,D,g,b,,,,,,,,,,5,10,110,1,,,,,,,,,,,,,b,1,1.484476965610611,2442.6059979757615,None,,,,,001,13,2019_Oct_04_1109,ACPT_experiment_5_30_19,3.1.0,59.95350815287838,
,,,C,G,g,v,,,,,,,,,,5,11,111,19,,,,,,,,,,,,,v,1,1.6846356808678138,2447.376286467457,None,,,,,001,13,2019_Oct_04_1109,ACPT_experiment_5_30_19,3.1.0,59.95350815287838,
,,,C,U,y,n,,,,,,,,,,5,12,112,17,,,,,,,,,,,,,n,1,0.4670324744456593,2452.346727637313,None,,,,,001,13,2019_Oct_04_1109,ACPT_experiment_5_30_19,3.1.0,59.95350815287838,
,,,C,D,y,b,,,,,,,,,,5,13,113,2,,,,,,,,,,,,,b,1,0.8670706892644375,2456.1165144463184,None,,,,,001,13,2019_Oct_04_1109,ACPT_experiment_5_30_19,3.1.0,59.95350815287838,
,,,C,U,d,n,,,,,,,,,,5,14,114,15,,,,,,,,,,,,,n,1,0.8673320955272175,2460.269408735859,None,,,,,001,13,2019_Oct_04_1109,ACPT_experiment_5_30_19,3.1.0,59.95350815287838,
,,,C,G,d,b,,,,,,,,,,5,15,115,3,,,,,,,,,,,,,b,1,3.3192268532452545,2464.4225680539207,None,,,,,001,13,2019_Oct_04_1109,ACPT_experiment_5_30_19,3.1.0,59.95350815287838,
,,,C,U,g,n,,,,,,,,,,5,16,116,16,,,,,,,,,,,,,n,1,1.1509240832142495,2471.0275496845466,None,,,,,001,13,2019_Oct_04_1109,ACPT_experiment_5_30_19,3.1.0,59.95350815287838,
,,,C,U,y,n,,,,,,,,,,5,17,117,8,,,,,,,,,,,,,n,1,0.8838194050981656,2475.4811680332136,None,,,,,001,13,2019_Oct_04_1109,ACPT_experiment_5_30_19,3.1.0,59.95350815287838,
,,,C,D,d,v,,,,,,,,,,5,18,118,9,,,,,,,,,,,,,v,1,2.8021278349074237,2479.650793229155,None,,,,,001,13,2019_Oct_04_1109,ACPT_experiment_5_30_19,3.1.0,59.95350815287838,
,,,C,U,g,n,,,,,,,,,,5,19,119,7,,,,,,,,,,,,,n,1,0.8339759319087534,2485.7387356086947,None,,,,,001,13,2019_Oct_04_1109,ACPT_experiment_5_30_19,3.1.0,59.95350815287838,
,,,C,D,y,b,,,,,,,,,,6,0,120,2,,,,,,,,,,,,,n,0,0.5666475793809695,2489.8756343101454,None,,,,,001,13,2019_Oct_04_1109,ACPT_experiment_5_30_19,3.1.0,59.95350815287838,
,,,C,D,d,v,,,,,,,,,,6,1,121,18,,,,,,,,,,,,,v,1,1.784702662449945,2493.728128128914,None,,,,,001,13,2019_Oct_04_1109,ACPT_experiment_5_30_19,3.1.0,59.95350815287838,
,,,C,G,d,b,,,,,,,,,,6,2,122,12,,,,,,,,,,,,,b,1,2.0515706863966443,2498.7986353747874,None,,,,,001,13,2019_Oct_04_1109,ACPT_experiment_5_30_19,3.1.0,59.95350815287838,
,,,C,U,d,n,,,,,,,,,,6,3,123,15,,,,,,,,,,,,,n,1,0.5504056777681399,2504.1360489801687,None,,,,,001,13,2019_Oct_04_1109,ACPT_experiment_5_30_19,3.1.0,59.95350815287838,
,,,C,D,d,v,,,,,,,,,,6,4,124,0,,,,,,,,,,,,,v,1,1.3841180904305475,2507.98922680193,None,,,,,001,13,2019_Oct_04_1109,ACPT_experiment_5_30_19,3.1.0,59.95350815287838,
,,,C,U,d,n,,,,,,,,,,6,5,125,6,,,,,,,,,,,,,n,1,0.9507342769111347,2512.6591672852173,None,,,,,001,13,2019_Oct_04_1109,ACPT_experiment_5_30_19,3.1.0,59.95350815287838,
,,,C,G,y,b,,,,,,,,,,6,6,126,14,,,,,,,,,,,,,b,1,1.4008200187695365,2516.9126718949933,None,,,,,001,13,2019_Oct_04_1109,ACPT_experiment_5_30_19,3.1.0,59.95350815287838,
,,,C,U,g,n,,,,,,,,,,6,7,127,7,,,,,,,,,,,,,n,1,0.7839124065644683,2521.5993097787978,None,,,,,001,13,2019_Oct_04_1109,ACPT_experiment_5_30_19,3.1.0,59.95350815287838,
,,,C,G,g,v,,,,,,,,,,6,8,128,4,,,,,,,,,,,,,v,1,4.203216202600288,2525.6690488041872,None,,,,,001,13,2019_Oct_04_1109,ACPT_experiment_5_30_19,3.1.0,59.95350815287838,
,,,C,G,d,b,,,,,,,,,,6,9,129,3,,,,,,,,,,,,,b,1,1.9014688556776491,2533.1413718878393,None,,,,,001,13,2019_Oct_04_1109,ACPT_experiment_5_30_19,3.1.0,59.95350815287838,
,,,C,D,g,b,,,,,,,,,,6,10,130,10,,,,,,,,,,,,,b,1,1.617894073714524,2538.328655590004,None,,,,,001,13,2019_Oct_04_1109,ACPT_experiment_5_30_19,3.1.0,59.95350815287838,
,,,C,U,y,n,,,,,,,,,,6,11,131,8,,,,,,,,,,,,,n,1,0.4837205174635528,2543.2323666231896,None,,,,,001,13,2019_Oct_04_1109,ACPT_experiment_5_30_19,3.1.0,59.95350815287838,
,,,C,G,g,v,,,,,,,,,,6,12,132,19,,,,,,,,,,,,,v,1,2.1349879605213573,2547.0018690849665,None,,,,,001,13,2019_Oct_04_1109,ACPT_experiment_5_30_19,3.1.0,59.95350815287838,
,,,C,U,g,n,,,,,,,,,,6,13,133,16,,,,,,,,,,,,,n,1,0.5838059121888364,2552.4059732840383,None,,,,,001,13,2019_Oct_04_1109,ACPT_experiment_5_30_19,3.1.0,59.95350815287838,
,,,C,G,y,b,,,,,,,,,,6,14,134,5,,,,,,,,,,,,,b,1,1.1840529501632773,2556.292437540958,None,,,,,001,13,2019_Oct_04_1109,ACPT_experiment_5_30_19,3.1.0,59.95350815287838,
,,,C,D,d,v,,,,,,,,,,6,15,135,9,,,,,,,,,,,,,v,1,1.6345881538286449,2560.7623391453462,None,,,,,001,13,2019_Oct_04_1109,ACPT_experiment_5_30_19,3.1.0,59.95350815287838,
,,,C,G,g,v,,,,,,,,,,6,16,136,13,,,,,,,,,,,,,v,1,3.25247256818966,2565.682750899452,None,,,,,001,13,2019_Oct_04_1109,ACPT_experiment_5_30_19,3.1.0,59.95350815287838,
,,,C,D,y,b,,,,,,,,,,6,17,137,11,,,,,,,,,,,,,b,1,1.1675553775285152,2572.221040728967,None,,,,,001,13,2019_Oct_04_1109,ACPT_experiment_5_30_19,3.1.0,59.95350815287838,
,,,C,D,g,b,,,,,,,,,,6,18,138,1,,,,,,,,,,,,,b,1,1.550945092308666,2576.674681113035,None,,,,,001,13,2019_Oct_04_1109,ACPT_experiment_5_30_19,3.1.0,59.95350815287838,
,,,C,U,y,n,,,,,,,,,,6,19,139,17,,,,,,,,,,,,,n,1,0.6505704603077902,2581.5114217331234,None,,,,,001,13,2019_Oct_04_1109,ACPT_experiment_5_30_19,3.1.0,59.95350815287838,
,,,C,G,g,v,,,,,,,,,,7,0,140,4,,,,,,,,,,,,,v,1,2.2517061588341676,2585.4477487819404,None,,,,,001,13,2019_Oct_04_1109,ACPT_experiment_5_30_19,3.1.0,59.95350815287838,
,,,C,D,y,b,,,,,,,,,,7,1,141,2,,,,,,,,,,,,,b,1,0.8339683855383555,2590.9852719002456,None,,,,,001,13,2019_Oct_04_1109,ACPT_experiment_5_30_19,3.1.0,59.95350815287838,
,,,C,U,d,n,,,,,,,,,,7,2,142,15,,,,,,,,,,,,,n,1,0.6839139460239494,2595.1050669046085,None,,,,,001,13,2019_Oct_04_1109,ACPT_experiment_5_30_19,3.1.0,59.95350815287838,
,,,C,U,g,n,,,,,,,,,,7,3,143,16,,,,,,,,,,,,,n,1,0.700562144207197,2599.058044868302,None,,,,,001,13,2019_Oct_04_1109,ACPT_experiment_5_30_19,3.1.0,59.95350815287838,
,,,C,D,d,v,,,,,,,,,,7,4,144,0,,,,,,,,,,,,,v,1,1.7177977518458647,2603.0612499626454,None,,,,,001,13,2019_Oct_04_1109,ACPT_experiment_5_30_19,3.1.0,59.95350815287838,
,,,C,G,d,b,,,,,,,,,,7,5,145,12,,,,,,,,,,,,,b,1,3.519350855200173,2608.0648984817003,None,,,,,001,13,2019_Oct_04_1109,ACPT_experiment_5_30_19,3.1.0,59.95350815287838,
,,,C,G,g,v,,,,,,,,,,7,6,146,19,,,,,,,,,,,,,v,1,4.1030816055417745,2614.8534295686704,None,,,,,001,13,2019_Oct_04_1109,ACPT_experiment_5_30_19,3.1.0,59.95350815287838,
,,,C,D,g,b,,,,,,,,,,7,7,147,1,,,,,,,,,,,,,b,1,1.3843988154008002,2622.242344131988,None,,,,,001,13,2019_Oct_04_1109,ACPT_experiment_5_30_19,3.1.0,59.95350815287838,
,,,C,G,y,b,,,,,,,,,,7,8,148,14,,,,,,,,,,,,,b,1,0.9007166334977228,2626.9125146286387,None,,,,,001,13,2019_Oct_04_1109,ACPT_experiment_5_30_19,3.1.0,59.95350815287838,
,,,C,U,y,n,,,,,,,,,,7,9,149,17,,,,,,,,,,,,,n,1,0.6671839451882988,2631.0990470141883,None,,,,,001,13,2019_Oct_04_1109,ACPT_experiment_5_30_19,3.1.0,59.95350815287838,
,,,C,D,d,v,,,,,,,,,,7,10,150,18,,,,,,,,,,,,,v,1,1.9513180641083636,2635.068875418786,None,,,,,001,13,2019_Oct_04_1109,ACPT_experiment_5_30_19,3.1.0,59.95350815287838,
,,,C,G,y,b,,,,,,,,,,7,11,151,5,,,,,,,,,,,,,b,1,1.1175332062925918,2640.3060457593774,None,,,,,001,13,2019_Oct_04_1109,ACPT_experiment_5_30_19,3.1.0,59.95350815287838,
,,,C,D,d,v,,,,,,,,,,7,12,152,9,,,,,,,,,,,,,v,1,4.969991708048383,2644.726485133198,None,,,,,001,13,2019_Oct_04_1109,ACPT_experiment_5_30_19,3.1.0,59.95350815287838,
,,,C,U,g,n,,,,,,,,,,7,13,153,7,,,,,,,,,,,,,n,1,0.9340583080856959,2652.9823158361182,None,,,,,001,13,2019_Oct_04_1109,ACPT_experiment_5_30_19,3.1.0,59.95350815287838,
,,,C,G,d,b,,,,,,,,,,7,14,154,3,,,,,,,,,,,,,b,1,1.5011399546797293,2657.202201668593,None,,,,,001,13,2019_Oct_04_1109,ACPT_experiment_5_30_19,3.1.0,59.95350815287838,
,,,C,U,y,n,,,,,,,,,,7,15,155,8,,,,,,,,,,,,,n,1,0.8673526216543905,2661.9891582808887,None,,,,,001,13,2019_Oct_04_1109,ACPT_experiment_5_30_19,3.1.0,59.95350815287838,
,,,C,G,g,v,,,,,,,,,,7,16,156,13,,,,,,,,,,,,,v,1,1.6676717425561947,2666.1592570870225,None,,,,,001,13,2019_Oct_04_1109,ACPT_experiment_5_30_19,3.1.0,59.95350815287838,
,,,C,U,d,n,,,,,,,,,,7,17,157,6,,,,,,,,,,,,,n,1,0.46702492807571616,2671.112748505743,None,,,,,001,13,2019_Oct_04_1109,ACPT_experiment_5_30_19,3.1.0,59.95350815287838,
,,,C,D,g,b,,,,,,,,,,7,18,158,10,,,,,,,,,,,,,b,1,1.1839904662178924,2674.8825446722476,None,,,,,001,13,2019_Oct_04_1109,ACPT_experiment_5_30_19,3.1.0,59.95350815287838,
,,,C,D,y,b,,,,,,,,,,7,19,159,11,0,0,0,0,0,0,0,0,,,,,b,1,1.000798707820195,2679.335636586131,None,,,,,001,13,2019_Oct_04_1109,ACPT_experiment_5_30_19,3.1.0,59.95350815287838,
,,,C,D,y,b,L,D,y,R,y,,,,,7,19,159,11,0,0,0,0,,,,,0,0,0,33,,,,,,down,1.3844929941010378,2733.026395089909,None,001,13,2019_Oct_04_1109,ACPT_experiment_5_30_19,3.1.0,59.95350815287838,
,,,C,D,y,b,L,D,g,R,i,,,,,7,19,159,11,0,0,0,0,,,,,0,1,1,15,,,,,,up,1.250950918106355,2735.695093440665,None,001,13,2019_Oct_04_1109,ACPT_experiment_5_30_19,3.1.0,59.95350815287838,
,,,C,D,y,b,R,G,d,R,i,,,,,7,19,159,11,0,0,0,0,,,,,0,2,2,5,,,,,,up,3.3191851972819677,2738.230350534932,None,001,13,2019_Oct_04_1109,ACPT_experiment_5_30_19,3.1.0,59.95350815287838,
,,,C,D,y,b,L,D,g,L,i,,,,,7,19,159,11,0,0,0,0,,,,,0,3,3,14,,,,,,up,1.1508896717664356,2742.8338250045053,None,001,13,2019_Oct_04_1109,ACPT_experiment_5_30_19,3.1.0,59.95350815287838,
,,,C,D,y,b,R,G,g,R,c ,,,,,7,19,159,11,0,0,0,0,,,,,0,4,4,7,,,,,,up,0.5337472165215331,2745.2690277950924,None,001,13,2019_Oct_04_1109,ACPT_experiment_5_30_19,3.1.0,59.95350815287838,
,,,C,D,y,b,R,U,y,L,u,,,,,7,19,159,11,0,0,0,0,,,,,0,5,5,30,,,,,,down,0.5837754248532292,2747.087066698744,None,001,13,2019_Oct_04_1109,ACPT_experiment_5_30_19,3.1.0,59.95350815287838,
,,,C,D,y,b,R,G,d,L,i,,,,,7,19,159,11,0,0,0,0,,,,,0,6,6,4,,,,,,down,4.036419688057322,2748.9551344144365,None,001,13,2019_Oct_04_1109,ACPT_experiment_5_30_19,3.1.0,59.95350815287838,
,,,C,D,y,b,R,G,y,L,y,,,,,7,19,159,11,0,0,0,0,,,,,0,7,7,28,,,,,,down,0.4169725713591106,2754.275862693493,None,001,13,2019_Oct_04_1109,ACPT_experiment_5_30_19,3.1.0,59.95350815287838,
,,,C,D,y,b,L,G,y,R,y,,,,,7,19,159,11,0,0,0,0,,,,,0,8,8,35,,,,,,down,1.050819067926568,2755.9771507985115,None,001,13,2019_Oct_04_1109,ACPT_experiment_5_30_19,3.1.0,59.95350815287838,
,,,C,D,y,b,L,U,y,L,u,,,,,7,19,159,11,0,0,0,0,,,,,0,9,9,24,,,,,,down,0.5670813447391083,2758.3122518942146,None,001,13,2019_Oct_04_1109,ACPT_experiment_5_30_19,3.1.0,59.95350815287838,
,,,C,D,y,b,L,U,g,R,u,,,,,7,19,159,11,0,0,0,0,,,,,0,10,10,23,,,,,,down,0.4003439937382609,2760.163659941241,None,001,13,2019_Oct_04_1109,ACPT_experiment_5_30_19,3.1.0,59.95350815287838,
,,,C,D,y,b,R,G,g,L,c ,,,,,7,19,159,11,0,0,0,0,,,,,0,11,11,6,,,,,,up,0.6338323093914369,2761.8482784163853,None,001,13,2019_Oct_04_1109,ACPT_experiment_5_30_19,3.1.0,59.95350815287838,
,,,C,D,y,b,R,U,d,R,u,,,,,7,19,159,11,0,0,0,0,,,,,0,12,12,9,,,,,,up,0.7005896129949178,2763.7663975832297,None,001,13,2019_Oct_04_1109,ACPT_experiment_5_30_19,3.1.0,59.95350815287838,
,,,C,D,y,b,R,D,y,L,y,,,,,7,19,159,11,0,0,0,0,,,,,0,13,13,26,,,,,,down,1.1671976795819319,2765.784925129443,None,001,13,2019_Oct_04_1109,ACPT_experiment_5_30_19,3.1.0,59.95350815287838,
,,,C,D,y,b,L,U,y,R,u,,,,,7,19,159,11,0,0,0,0,,,,,0,14,14,25,,,,,,down,1.1174921540387004,2768.2364754708256,None,001,13,2019_Oct_04_1109,ACPT_experiment_5_30_19,3.1.0,59.95350815287838,
,,,C,D,y,b,L,G,y,L,y,,,,,7,19,159,11,0,0,0,0,,,,,0,15,15,34,,,,,,down,0.5337278978136055,2770.6382780269923,None,001,13,2019_Oct_04_1109,ACPT_experiment_5_30_19,3.1.0,59.95350815287838,
,,,C,D,y,b,R,G,y,R,y,,,,,7,19,159,11,0,0,0,0,,,,,0,16,16,29,,,,,,down,0.5003949770152758,2772.4563317215293,None,001,13,2019_Oct_04_1109,ACPT_experiment_5_30_19,3.1.0,59.95350815287838,
,,,C,D,y,b,L,G,d,L,i,,,,,7,19,159,11,0,0,0,0,,,,,0,17,17,16,,,,,,down,1.233852352550457,2774.2580792193794,None,001,13,2019_Oct_04_1109,ACPT_experiment_5_30_19,3.1.0,59.95350815287838,
,,,C,D,y,b,R,U,g,L,u,,,,,7,19,159,11,0,0,0,0,,,,,0,18,18,10,,,,,,down,0.8673124749648196,2776.776274272522,None,001,13,2019_Oct_04_1109,ACPT_experiment_5_30_19,3.1.0,59.95350815287838,
,,,C,D,y,b,L,U,g,L,u,,,,,7,19,159,11,0,0,0,0,,,,,0,19,19,22,,,,,,up,0.9674727296819583,2778.927870888247,None,001,13,2019_Oct_04_1109,ACPT_experiment_5_30_19,3.1.0,59.95350815287838,
,,,C,D,y,b,R,D,d,L,c,,,,,7,19,159,11,0,0,0,0,,,,,0,20,20,0,,,,,,up,0.8673248510121994,2781.1796060251427,None,001,13,2019_Oct_04_1109,ACPT_experiment_5_30_19,3.1.0,59.95350815287838,
,,,C,D,y,b,L,D,d,R,c ,,,,,7,19,159,11,0,0,0,0,,,,,0,21,21,13,,,,,,up,0.9340453283289207,2783.331236146751,None,001,13,2019_Oct_04_1109,ACPT_experiment_5_30_19,3.1.0,59.95350815287838,
,,,C,D,y,b,L,G,g,R,c ,,,,,7,19,159,11,0,0,0,0,,,,,0,22,22,19,,,,,,up,0.4670149668668273,2785.549591877208,None,001,13,2019_Oct_04_1109,ACPT_experiment_5_30_19,3.1.0,59.95350815287838,
,,,C,D,y,b,R,D,g,L,i,,,,,7,19,159,11,0,0,0,0,,,,,0,23,23,2,,,,,,up,0.9173566816016319,2787.3009229814443,None,001,13,2019_Oct_04_1109,ACPT_experiment_5_30_19,3.1.0,59.95350815287838,
,,,C,D,y,b,L,D,y,L,y,,,,,7,19,159,11,0,0,0,0,,,,,0,24,24,32,,,,,,down,0.6838351619194327,2789.5192744859337,None,001,13,2019_Oct_04_1109,ACPT_experiment_5_30_19,3.1.0,59.95350815287838,
,,,C,D,y,b,R,D,y,R,y,,,,,7,19,159,11,0,0,0,0,,,,,0,25,25,27,,,,,,up,0.3502409254142549,2791.504117450498,None,001,13,2019_Oct_04_1109,ACPT_experiment_5_30_19,3.1.0,59.95350815287838,
,,,C,D,y,b,R,U,g,R,u,,,,,7,19,159,11,0,0,0,0,,,,,0,26,26,11,,,,,,up,0.8006098070814005,2793.1386995672306,None,001,13,2019_Oct_04_1109,ACPT_experiment_5_30_19,3.1.0,59.95350815287838,
,,,C,D,y,b,R,U,d,L,u,,,,,7,19,159,11,0,0,0,0,,,,,0,27,27,8,,,,,,up,1.401085047290053,2795.223601665152,None,001,13,2019_Oct_04_1109,ACPT_experiment_5_30_19,3.1.0,59.95350815287838,
,,,C,D,y,b,L,G,g,L,c ,,,,,7,19,159,11,0,0,0,0,,,,,0,28,28,18,,,,,,up,2.685392430869797,2797.9089461011076,None,001,13,2019_Oct_04_1109,ACPT_experiment_5_30_19,3.1.0,59.95350815287838,
,,,C,D,y,b,R,D,g,R,i,,,,,7,19,159,11,0,0,0,0,,,,,0,29,29,3,,,,,,up,0.3502696016212212,2801.878637161768,None,001,13,2019_Oct_04_1109,ACPT_experiment_5_30_19,3.1.0,59.95350815287838,
,,,C,D,y,b,L,U,d,R,u,,,,,7,19,159,11,0,0,0,0,,,,,0,30,30,21,,,,,,up,0.41694932853897626,2803.5132479547074,None,001,13,2019_Oct_04_1109,ACPT_experiment_5_30_19,3.1.0,59.95350815287838,
,,,C,D,y,b,L,G,d,R,i,,,,,7,19,159,11,0,0,0,0,,,,,0,31,31,17,,,,,,up,0.36693923149550756,2805.2145134206157,None,001,13,2019_Oct_04_1109,ACPT_experiment_5_30_19,3.1.0,59.95350815287838,
,,,C,D,y,b,L,U,d,L,u,,,,,7,19,159,11,0,0,0,0,,,,,0,32,32,20,,,,,,up,0.6471776122743904,2806.8857624444927,None,001,13,2019_Oct_04_1109,ACPT_experiment_5_30_19,3.1.0,59.95350815287838,
,,,C,D,y,b,L,D,d,L,c ,,,,,7,19,159,11,0,0,0,0,,,,,0,33,33,12,,,,,,up,0.45034111102495444,2808.8172646460707,None,001,13,2019_Oct_04_1109,ACPT_experiment_5_30_19,3.1.0,59.95350815287838,
,,,C,D,y,b,R,D,d,R,c ,,,,,7,19,159,11,0,0,0,0,,,,,0,34,34,1,,,,,,up,0.8506307708980785,2810.5519098202726,None,001,13,2019_Oct_04_1109,ACPT_experiment_5_30_19,3.1.0,59.95350815287838,
,,,C,D,y,b,R,U,y,R,u,,,,,7,19,159,11,0,0,0,0,,,,,0,35,35,31,,,,,,up,0.4169807214393586,2812.6868488803148,None,001,13,2019_Oct_04_1109,ACPT_experiment_5_30_19,3.1.0,59.95350815287838,
,,,C,D,y,b,L,D,d,R,c ,,,,,7,19,159,11,0,0,0,0,,,,,1,0,36,13,,,,,,up,0.41703837570730684,2814.388149059526,None,001,13,2019_Oct_04_1109,ACPT_experiment_5_30_19,3.1.0,59.95350815287838,
,,,C,D,y,b,R,G,g,L,c ,,,,,7,19,159,11,0,0,0,0,,,,,1,1,37,6,,,,,,up,1.784705379143361,2816.089415430999,None,001,13,2019_Oct_04_1109,ACPT_experiment_5_30_19,3.1.0,59.95350815287838,
,,,C,D,y,b,L,D,y,L,y,,,,,7,19,159,11,0,0,0,0,,,,,1,2,38,32,,,,,,down,0.7338878204905086,2819.1584257788836,None,001,13,2019_Oct_04_1109,ACPT_experiment_5_30_19,3.1.0,59.95350815287838,
,,,C,D,y,b,L,U,y,R,u,,,,,7,19,159,11,0,0,0,0,,,,,1,3,39,25,,,,,,down,0.7338820852492063,2821.1933093278267,None,001,13,2019_Oct_04_1109,ACPT_experiment_5_30_19,3.1.0,59.95350815287838,
,,,C,D,y,b,L,G,d,L,i,,,,,7,19,159,11,0,0,0,0,,,,,1,4,40,16,,,,,,up,0.5837699914663972,2823.2448637140637,None,001,13,2019_Oct_04_1109,ACPT_experiment_5_30_19,3.1.0,59.95350815287838,
,,,C,D,y,b,R,D,y,L,y,,,,,7,19,159,11,0,0,0,0,,,,,1,5,41,26,,,,,,down,0.40028965987312404,2825.1296297358376,None,001,13,2019_Oct_04_1109,ACPT_experiment_5_30_19,3.1.0,59.95350815287838,
,,,C,D,y,b,L,D,d,L,c ,,,,,7,19,159,11,0,0,0,0,,,,,1,6,42,12,,,,,,up,2.301745535793998,2826.830919350131,None,001,13,2019_Oct_04_1109,ACPT_experiment_5_30_19,3.1.0,59.95350815287838,
,,,C,D,y,b,L,D,y,R,y,,,,,7,19,159,11,0,0,0,0,,,,,1,7,43,33,,,,,,down,0.4837072358518526,2830.4002769819713,None,001,13,2019_Oct_04_1109,ACPT_experiment_5_30_19,3.1.0,59.95350815287838,
,,,C,D,y,b,L,D,g,L,i,,,,,7,19,159,11,0,0,0,0,,,,,1,8,44,14,,,,,,up,0.6671736821249397,2832.1682961292254,None,001,13,2019_Oct_04_1109,ACPT_experiment_5_30_19,3.1.0,59.95350815287838,
,,,C,D,y,b,L,G,d,R,i,,,,,7,19,159,11,0,0,0,0,,,,,1,9,45,17,,,,,,down,0.5337623092618742,2834.119779307913,None,001,13,2019_Oct_04_1109,ACPT_experiment_5_30_19,3.1.0,59.95350815287838,
,,,C,D,y,b,R,U,g,L,u,,,,,7,19,159,11,0,0,0,0,,,,,1,10,46,10,,,,,,up,0.6638520718256586,2835.957826657462,None,001,13,2019_Oct_04_1109,ACPT_experiment_5_30_19,3.1.0,59.95350815287838,
,,,C,D,y,b,R,G,y,R,y,,,,,7,19,159,11,0,0,0,0,,,,,1,11,47,29,,,,,,down,0.5337309163619466,2837.905988527706,None,001,13,2019_Oct_04_1109,ACPT_experiment_5_30_19,3.1.0,59.95350815287838,
,,,C,D,y,b,L,U,g,L,u,,,,,7,19,159,11,0,0,0,0,,,,,1,12,48,22,,,,,,up,0.9340392912326934,2839.7240334684534,None,001,13,2019_Oct_04_1109,ACPT_experiment_5_30_19,3.1.0,59.95350815287838,
,,,C,D,y,b,R,U,g,R,u,,,,,7,19,159,11,0,0,0,0,,,,,1,13,49,11,,,,,,up,0.5337689500670422,2841.925681837185,None,001,13,2019_Oct_04_1109,ACPT_experiment_5_30_19,3.1.0,59.95350815287838,
,,,C,D,y,b,L,G,g,L,c ,,,,,7,19,159,11,0,0,0,0,,,,,1,14,50,18,,,,,,up,0.38360765395100316,2843.7437590763966,None,001,13,2019_Oct_04_1109,ACPT_experiment_5_30_19,3.1.0,59.95350815287838,
,,,C,D,y,b,L,U,g,R,u,,,,,7,19,159,11,0,0,0,0,,,,,1,15,51,23,,,,,,up,0.4336648403441359,2845.4116774343306,None,001,13,2019_Oct_04_1109,ACPT_experiment_5_30_19,3.1.0,59.95350815287838,
,,,C,D,y,b,R,U,y,R,u,,,,,7,19,159,11,0,0,0,0,,,,,1,16,52,31,,,,,,down,0.500350604358573,2847.1463464550625,None,001,13,2019_Oct_04_1109,ACPT_experiment_5_30_19,3.1.0,59.95350815287838,
,,,C,D,y,b,L,U,d,R,u,,,,,7,19,159,11,0,0,0,0,,,,,1,17,53,21,,,,,,up,0.40027939680931013,2848.96439139581,None,001,13,2019_Oct_04_1109,ACPT_experiment_5_30_19,3.1.0,59.95350815287838,
,,,C,D,y,b,L,U,d,L,u,,,,,7,19,159,11,0,0,0,0,,,,,1,18,54,20,,,,,,down,0.6004646752903682,2850.632310357453,None,001,13,2019_Oct_04_1109,ACPT_experiment_5_30_19,3.1.0,59.95350815287838,
,,,C,D,y,b,L,G,g,R,c ,,,,,7,19,159,11,0,0,0,0,,,,,1,19,55,19,,,,,,up,1.0341403824077133,2852.5170857367266,None,001,13,2019_Oct_04_1109,ACPT_experiment_5_30_19,3.1.0,59.95350815287838,
,,,C,D,y,b,R,U,d,L,u,,,,,7,19,159,11,0,0,0,0,,,,,1,20,56,8,,,,,,up,0.48370542472321176,2854.8355045246526,None,001,13,2019_Oct_04_1109,ACPT_experiment_5_30_19,3.1.0,59.95350815287838,
,,,C,D,y,b,L,D,g,R,i,,,,,7,19,159,11,0,0,0,0,,,,,1,21,57,15,,,,,,up,0.5837564080002267,2856.620198735168,None,001,13,2019_Oct_04_1109,ACPT_experiment_5_30_19,3.1.0,59.95350815287838,
,,,C,D,y,b,R,G,g,R,c ,,,,,7,19,159,11,0,0,0,0,,,,,1,22,58,7,,,,,,up,0.40029479140457624,2858.4882724879567,None,001,13,2019_Oct_04_1109,ACPT_experiment_5_30_19,3.1.0,59.95350815287838,
,,,C,D,y,b,R,U,y,L,u,,,,,7,19,159,11,0,0,0,0,,,,,1,23,59,30,,,,,,down,0.5170501178590712,2860.189564517088,None,001,13,2019_Oct_04_1109,ACPT_experiment_5_30_19,3.1.0,59.95350815287838,
,,,C,D,y,b,R,U,d,R,u,,,,,7,19,159,11,0,0,0,0,,,,,1,24,60,9,,,,,,up,0.8839962920151265,2862.007613683803,None,001,13,2019_Oct_04_1109,ACPT_experiment_5_30_19,3.1.0,59.95350815287838,
,,,C,D,y,b,L,G,y,L,y,,,,,7,19,159,11,0,0,0,0,,,,,1,25,61,34,,,,,,down,0.4670191928339591,2864.175916453834,None,001,13,2019_Oct_04_1109,ACPT_experiment_5_30_19,3.1.0,59.95350815287838,
,,,C,D,y,b,R,G,y,L,y,,,,,7,19,159,11,0,0,0,0,,,,,1,26,62,28,,,,,,down,0.733929174599325,2865.9272526896016,None,001,13,2019_Oct_04_1109,ACPT_experiment_5_30_19,3.1.0,59.95350815287838,
,,,C,D,y,b,R,D,y,R,y,,,,,7,19,159,11,0,0,0,0,,,,,1,27,63,27,,,,,,down,0.4169752880525266,2867.9454442714145,None,001,13,2019_Oct_04_1109,ACPT_experiment_5_30_19,3.1.0,59.95350815287838,
,,,C,D,y,b,R,G,d,L,i,,,,,7,19,159,11,0,0,0,0,,,,,1,28,64,4,,,,,,up,0.5170413640698825,2869.663425852838,None,001,13,2019_Oct_04_1109,ACPT_experiment_5_30_19,3.1.0,59.95350815287838,
,,,C,D,y,b,R,D,d,L,c,,,,,7,19,159,11,0,0,0,0,,,,,1,29,65,0,,,,,,down,0.5504120167192923,2871.4647839579866,None,001,13,2019_Oct_04_1109,ACPT_experiment_5_30_19,3.1.0,59.95350815287838,
,,,C,D,y,b,L,U,y,L,u,,,,,7,19,159,11,0,0,0,0,,,,,1,30,66,24,,,,,,down,0.48369576536924797,2873.299508791672,None,001,13,2019_Oct_04_1109,ACPT_experiment_5_30_19,3.1.0,59.95350815287838,
,,,C,D,y,b,R,D,g,L,i,,,,,7,19,159,11,0,0,0,0,,,,,1,31,67,2,,,,,,up,0.5504144315577832,2875.0675164684435,None,001,13,2019_Oct_04_1109,ACPT_experiment_5_30_19,3.1.0,59.95350815287838,
,,,C,D,y,b,L,G,y,R,y,,,,,7,19,159,11,0,0,0,0,,,,,1,32,68,35,,,,,,down,0.5668631037133309,2876.9191714327026,None,001,13,2019_Oct_04_1109,ACPT_experiment_5_30_19,3.1.0,59.95350815287838,
,,,C,D,y,b,R,D,g,R,i,,,,,7,19,159,11,0,0,0,0,,,,,1,33,69,3,,,,,,up,0.6671779080916167,2878.7703108289506,None,001,13,2019_Oct_04_1109,ACPT_experiment_5_30_19,3.1.0,59.95350815287838,
,,,C,D,y,b,R,G,d,R,i,,,,,7,19,159,11,0,0,0,0,,,,,1,34,70,5,,,,,,up,0.4002932821304057,2880.721811817072,None,001,13,2019_Oct_04_1109,ACPT_experiment_5_30_19,3.1.0,59.95350815287838,
,,,C,D,y,b,R,D,d,R,c ,,,,,7,19,159,11,0,0,0,0,,,,,1,35,71,1,,,,,,up,0.40028271721257624,2882.4064345181837,None,001,13,2019_Oct_04_1109,ACPT_experiment_5_30_19,3.1.0,59.95350815287838,
,,,C,D,y,b,,,,,,,,,,7,19,159,11,1,0,1,0,0,0,0,0,,,,,,,,,,,,,,001,13,2019_Oct_04_1109,ACPT_experiment_5_30_19,3.1.0,59.95350815287838,
,,,C,D,y,b,R,G,y,L,y,,,,,7,19,159,11,1,0,1,0,,,,,0,0,0,28,,,,,,down,0.6838116172443733,2889.9788683523648,None,001,13,2019_Oct_04_1109,ACPT_experiment_5_30_19,3.1.0,59.95350815287838,
,,,C,D,y,b,R,U,g,R,u,,,,,7,19,159,11,1,0,1,0,,,,,0,1,1,11,,,,,,up,0.6839245109426884,2891.946989466173,None,001,13,2019_Oct_04_1109,ACPT_experiment_5_30_19,3.1.0,59.95350815287838,
,,,C,D,y,b,R,U,g,L,u,,,,,7,19,159,11,1,0,1,0,,,,,0,2,2,10,,,,,,up,0.45040721722807575,2893.91513563393,None,001,13,2019_Oct_04_1109,ACPT_experiment_5_30_19,3.1.0,59.95350815287838,
,,,C,D,y,b,L,D,y,R,y,,,,,7,19,159,11,1,0,1,0,,,,,0,3,3,33,,,,,,down,0.5837817638043816,2895.649827897482,None,001,13,2019_Oct_04_1109,ACPT_experiment_5_30_19,3.1.0,59.95350815287838,
,,,C,D,y,b,L,D,g,R,i,,,,,7,19,159,11,1,0,1,0,,,,,0,4,4,15,,,,,,up,0.5337792131308561,2897.5011831199167,None,001,13,2019_Oct_04_1109,ACPT_experiment_5_30_19,3.1.0,59.95350815287838,
,,,C,D,y,b,L,G,d,R,i,,,,,7,19,159,11,1,0,1,0,,,,,0,5,5,17,,,,,,down,0.48369093569226607,2899.3192558313067,None,001,13,2019_Oct_04_1109,ACPT_experiment_5_30_19,3.1.0,59.95350815287838,
,,,C,D,y,b,L,D,d,L,c ,,,,,7,19,159,11,1,0,1,0,,,,,0,6,6,12,,,,,,up,0.8673221343187834,2901.0872656210618,None,001,13,2019_Oct_04_1109,ACPT_experiment_5_30_19,3.1.0,59.95350815287838,
,,,C,D,y,b,L,D,y,L,y,,,,,7,19,159,11,1,0,1,0,,,,,0,7,7,32,,,,,,down,0.6168653525314767,2903.239161676755,None,001,13,2019_Oct_04_1109,ACPT_experiment_5_30_19,3.1.0,59.95350815287838,
,,,C,D,y,b,L,G,g,R,c ,,,,,7,19,159,11,1,0,1,0,,,,,0,8,8,19,,,,,,up,0.417001549421002,2905.1403163015784,None,001,13,2019_Oct_04_1109,ACPT_experiment_5_30_19,3.1.0,59.95350815287838,
,,,C,D,y,b,R,D,y,L,y,,,,,7,19,159,11,1,0,1,0,,,,,0,9,9,26,,,,,,down,0.467009231625525,2906.858311164613,None,001,13,2019_Oct_04_1109,ACPT_experiment_5_30_19,3.1.0,59.95350815287838,
,,,C,D,y,b,R,U,y,R,u,,,,,7,19,159,11,1,0,1,0,,,,,0,10,10,31,,,,,,down,0.7172058145688425,2908.6263155209817,None,001,13,2019_Oct_04_1109,ACPT_experiment_5_30_19,3.1.0,59.95350815287838,
,,,C,D,y,b,L,U,y,R,u,,,,,7,19,159,11,1,0,1,0,,,,,0,11,11,25,,,,,,down,0.6338090665713025,2910.6278350580815,None,001,13,2019_Oct_04_1109,ACPT_experiment_5_30_19,3.1.0,59.95350815287838,
,,,C,D,y,b,R,D,d,R,c ,,,,,7,19,159,11,1,0,1,0,,,,,0,12,12,1,,,,,,up,0.6004477714209315,2912.54597143065,None,001,13,2019_Oct_04_1109,ACPT_experiment_5_30_19,3.1.0,59.95350815287838,
,,,C,D,y,b,R,U,d,L,u,,,,,7,19,159,11,1,0,1,0,,,,,0,13,13,8,,,,,,up,1.0174194372161764,2914.430732622747,None,001,13,2019_Oct_04_1109,ACPT_experiment_5_30_19,3.1.0,59.95350815287838,
,,,C,D,y,b,L,U,y,L,u,,,,,7,19,159,11,1,0,1,0,,,,,0,14,14,24,,,,,,down,0.8840071587887905,2916.7324645750746,None,001,13,2019_Oct_04_1109,ACPT_experiment_5_30_19,3.1.0,59.95350815287838,
,,,C,D,y,b,L,G,d,L,i,,,,,7,19,159,11,1,0,1,0,,,,,0,15,15,16,,,,,,up,0.7005488625959515,2918.900754365349,None,001,13,2019_Oct_04_1109,ACPT_experiment_5_30_19,3.1.0,59.95350815287838,
,,,C,D,y,b,R,U,d,R,u,,,,,7,19,159,11,1,0,1,0,,,,,0,16,16,9,,,,,,up,0.38361369104723053,2920.868943094634,None,001,13,2019_Oct_04_1109,ACPT_experiment_5_30_19,3.1.0,59.95350815287838,
,,,C,D,y,b,R,G,y,R,y,,,,,7,19,159,11,1,0,1,0,,,,,0,17,17,29,,,,,,down,0.6972055187511614,2922.556872011449,None,001,13,2019_Oct_04_1109,ACPT_experiment_5_30_19,3.1.0,59.95350815287838,
,,,C,D,y,b,L,U,d,R,u,,,,,7,19,159,11,1,0,1,0,,,,,0,18,18,21,,,,,,up,1.1675375680947582,2924.538400308375,None,001,13,2019_Oct_04_1109,ACPT_experiment_5_30_19,3.1.0,59.95350815287838,
,,,C,D,y,b,R,D,d,L,c,,,,,7,19,159,11,1,0,1,0,,,,,0,19,19,0,,,,,,up,0.867328473269481,2926.9902419396467,None,001,13,2019_Oct_04_1109,ACPT_experiment_5_30_19,3.1.0,59.95350815287838,
,,,C,D,y,b,L,D,g,L,i,,,,,7,19,159,11,1,0,1,0,,,,,0,20,20,14,,,,,,up,0.5670897966738266,2929.1418835317377,None,001,13,2019_Oct_04_1109,ACPT_experiment_5_30_19,3.1.0,59.95350815287838,
,,,C,D,y,b,L,G,y,R,y,,,,,7,19,159,11,1,0,1,0,,,,,0,21,21,35,,,,,,up,0.35026296081514374,2930.9932879565063,None,001,13,2019_Oct_04_1109,ACPT_experiment_5_30_19,3.1.0,59.95350815287838,
,,,C,D,y,b,L,G,y,L,y,,,,,7,19,159,11,1,0,1,0,,,,,0,22,22,34,,,,,,down,0.6972145743952751,2932.6478585967193,None,001,13,2019_Oct_04_1109,ACPT_experiment_5_30_19,3.1.0,59.95350815287838,
,,,C,D,y,b,L,U,g,L,u,,,,,7,19,159,11,1,0,1,0,,,,,0,23,23,22,,,,,,up,0.8840174218521497,2934.6293775361464,None,001,13,2019_Oct_04_1109,ACPT_experiment_5_30_19,3.1.0,59.95350815287838,
,,,C,D,y,b,R,D,y,R,y,,,,,7,19,159,11,1,0,1,0,,,,,0,24,24,27,,,,,,down,0.6004495825500271,2936.7976953989178,None,001,13,2019_Oct_04_1109,ACPT_experiment_5_30_19,3.1.0,59.95350815287838,
,,,C,D,y,b,R,G,d,L,i,,,,,7,19,159,11,1,0,1,0,,,,,0,25,25,4,,,,,,up,0.750563185606552,2938.6824565910147,None,001,13,2019_Oct_04_1109,ACPT_experiment_5_30_19,3.1.0,59.95350815287838,
,,,C,D,y,b,L,U,g,R,u,,,,,7,19,159,11,1,0,1,0,,,,,0,26,26,23,,,,,,up,0.36694406117248946,2940.7173298768944,None,001,13,2019_Oct_04_1109,ACPT_experiment_5_30_19,3.1.0,59.95350815287838,
,,,C,D,y,b,L,G,g,L,c ,,,,,7,19,159,11,1,0,1,0,,,,,0,27,27,18,,,,,,up,0.3502505847682187,2942.3685961125325,None,001,13,2019_Oct_04_1109,ACPT_experiment_5_30_19,3.1.0,59.95350815287838,
,,,C,D,y,b,R,G,g,L,c ,,,,,7,19,159,11,1,0,1,0,,,,,0,28,28,6,,,,,,up,0.4503595241681069,2944.0031501567682,None,001,13,2019_Oct_04_1109,ACPT_experiment_5_30_19,3.1.0,59.95350815287838,
,,,C,D,y,b,R,G,d,R,i,,,,,7,19,159,11,1,0,1,0,,,,,0,29,29,5,,,,,,down,0.5668694426644834,2945.754738743155,None,001,13,2019_Oct_04_1109,ACPT_experiment_5_30_19,3.1.0,59.95350815287838,
,,,C,D,y,b,L,U,d,L,u,,,,,7,19,159,11,1,0,1,0,,,,,0,30,30,20,,,,,,up,0.6504874502352322,2947.6058947414176,None,001,13,2019_Oct_04_1109,ACPT_experiment_5_30_19,3.1.0,59.95350815287838,
,,,C,D,y,b,R,D,g,L,i,,,,,7,19,159,11,1,0,1,0,,,,,0,31,31,2,,,,,,up,0.5504310335718401,2949.540697423458,None,001,13,2019_Oct_04_1109,ACPT_experiment_5_30_19,3.1.0,59.95350815287838,
,,,C,D,y,b,R,G,g,R,c ,,,,,7,19,159,11,1,0,1,0,,,,,0,32,32,7,,,,,,up,0.533656660079032,2951.3754301053687,None,001,13,2019_Oct_04_1109,ACPT_experiment_5_30_19,3.1.0,59.95350815287838,
,,,C,D,y,b,R,U,y,L,u,,,,,7,19,159,11,1,0,1,0,,,,,0,33,33,30,,,,,,down,0.533534710737058,2953.2103061683124,None,001,13,2019_Oct_04_1109,ACPT_experiment_5_30_19,3.1.0,59.95350815287838,
,,,C,D,y,b,R,D,g,R,i,,,,,7,19,159,11,1,0,1,0,,,,,0,34,34,3,,,,,,up,0.48374043988133053,2955.044849285404,None,001,13,2019_Oct_04_1109,ACPT_experiment_5_30_19,3.1.0,59.95350815287838,
,,,C,D,y,b,L,D,d,R,c ,,,,,7,19,159,11,1,0,1,0,,,,,0,35,35,13,,,,,,up,0.5836558903497462,2956.812882619834,None,001,13,2019_Oct_04_1109,ACPT_experiment_5_30_19,3.1.0,59.95350815287838,
,,,C,D,y,b,L,U,d,L,u,,,,,7,19,159,11,1,0,1,0,,,,,1,0,36,20,,,,,,up,0.3169221917919458,2958.6976703751543,None,001,13,2019_Oct_04_1109,ACPT_experiment_5_30_19,3.1.0,59.95350815287838,
,,,C,D,y,b,L,U,g,R,u,,,,,7,19,159,11,1,0,1,0,,,,,1,1,37,23,,,,,,up,0.36694677786590546,2960.2821859479945,None,001,13,2019_Oct_04_1109,ACPT_experiment_5_30_19,3.1.0,59.95350815287838,
,,,C,D,y,b,R,U,y,R,u,,,,,7,19,159,11,1,0,1,0,,,,,1,2,38,31,,,,,,down,0.567008295875894,2961.9334464483914,None,001,13,2019_Oct_04_1109,ACPT_experiment_5_30_19,3.1.0,59.95350815287838,
,,,C,D,y,b,R,D,d,R,c ,,,,,7,19,159,11,1,0,1,0,,,,,1,3,39,1,,,,,,up,0.48370542472321176,2963.7848372896938,None,001,13,2019_Oct_04_1109,ACPT_experiment_5_30_19,3.1.0,59.95350815287838,
,,,C,D,y,b,R,D,y,L,y,,,,,7,19,159,11,1,0,1,0,,,,,1,4,40,26,,,,,,down,0.48037838103800823,2965.5728413381707,None,001,13,2019_Oct_04_1109,ACPT_experiment_5_30_19,3.1.0,59.95350815287838,
,,,C,D,y,b,R,U,g,L,u,,,,,7,19,159,11,1,0,1,0,,,,,1,5,41,10,,,,,,up,0.533729407087776,2967.337533743594,None,001,13,2019_Oct_04_1109,ACPT_experiment_5_30_19,3.1.0,59.95350815287838,
,,,C,D,y,b,R,D,g,L,i,,,,,7,19,159,11,1,0,1,0,,,,,1,6,42,2,,,,,,up,0.3836209355627034,2969.1555850232926,None,001,13,2019_Oct_04_1109,ACPT_experiment_5_30_19,3.1.0,59.95350815287838,
,,,C,D,y,b,R,G,y,R,y,,,,,7,19,159,11,1,0,1,0,,,,,1,7,43,29,,,,,,down,0.5170504197139962,2970.823513946145,None,001,13,2019_Oct_04_1109,ACPT_experiment_5_30_19,3.1.0,59.95350815287838,
,,,C,D,y,b,L,G,g,L,c ,,,,,7,19,159,11,1,0,1,0,,,,,1,8,44,18,,,,,,up,0.45006521573077407,2972.641830556219,None,001,13,2019_Oct_04_1109,ACPT_experiment_5_30_19,3.1.0,59.95350815287838,
,,,C,D,y,b,L,D,d,L,c ,,,,,7,19,159,11,1,0,1,0,,,,,1,9,45,12,,,,,,up,0.4336346548639085,2974.3762285113335,None,001,13,2019_Oct_04_1109,ACPT_experiment_5_30_19,3.1.0,59.95350815287838,
,,,C,D,y,b,R,D,g,R,i,,,,,7,19,159,11,1,0,1,0,,,,,1,10,46,3,,,,,,up,0.41697770289101754,2976.0941796054212,None,001,13,2019_Oct_04_1109,ACPT_experiment_5_30_19,3.1.0,59.95350815287838,
,,,C,D,y,b,R,U,g,R,u,,,,,7,19,159,11,1,0,1,0,,,,,1,11,47,11,,,,,,up,0.35026084783157785,2977.7954683141497,None,001,13,2019_Oct_04_1109,ACPT_experiment_5_30_19,3.1.0,59.95350815287838,
,,,C,D,y,b,R,U,d,L,u,,,,,7,19,159,11,1,0,1,0,,,,,1,12,48,8,,,,,,up,0.39987974104451496,2979.447107340475,None,001,13,2019_Oct_04_1109,ACPT_experiment_5_30_19,3.1.0,59.95350815287838,
,,,C,D,y,b,L,U,y,L,u,,,,,7,19,159,11,1,0,1,0,,,,,1,13,49,24,,,,,,down,0.6171231365369749,2981.164693492101,None,001,13,2019_Oct_04_1109,ACPT_experiment_5_30_19,3.1.0,59.95350815287838,
,,,C,D,y,b,L,D,y,R,y,,,,,7,19,159,11,1,0,1,0,,,,,1,14,50,33,,,,,,down,0.5170739643890556,2983.066113145445,None,001,13,2019_Oct_04_1109,ACPT_experiment_5_30_19,3.1.0,59.95350815287838,
,,,C,D,y,b,L,U,y,R,u,,,,,7,19,159,11,1,0,1,0,,,,,1,15,51,25,,,,,,down,0.5504093000258763,2984.8841810271574,None,001,13,2019_Oct_04_1109,ACPT_experiment_5_30_19,3.1.0,59.95350815287838,
,,,C,D,y,b,R,G,d,L,i,,,,,7,19,159,11,1,0,1,0,,,,,1,16,52,4,,,,,,up,0.9171031235632654,2986.7358550082695,None,001,13,2019_Oct_04_1109,ACPT_experiment_5_30_19,3.1.0,59.95350815287838,
,,,C,D,y,b,L,D,d,R,c ,,,,,7,19,159,11,1,0,1,0,,,,,1,17,53,13,,,,,,up,0.5671477527966999,2988.937236537351,None,001,13,2019_Oct_04_1109,ACPT_experiment_5_30_19,3.1.0,59.95350815287838,
,,,C,D,y,b,L,G,g,R,c ,,,,,7,19,159,11,1,0,1,0,,,,,1,18,54,19,,,,,,up,0.483718706334912,2990.788656356715,None,001,13,2019_Oct_04_1109,ACPT_experiment_5_30_19,3.1.0,59.95350815287838,
,,,C,D,y,b,R,G,y,L,y,,,,,7,19,159,11,1,0,1,0,,,,,1,19,55,28,,,,,,down,0.7839211603541116,2992.556676107679,None,001,13,2019_Oct_04_1109,ACPT_experiment_5_30_19,3.1.0,59.95350815287838,
,,,C,D,y,b,R,G,d,R,i,,,,,7,19,159,11,1,0,1,0,,,,,1,20,56,5,,,,,,up,0.4169626101506765,2994.6249321204,None,001,13,2019_Oct_04_1109,ACPT_experiment_5_30_19,3.1.0,59.95350815287838,
,,,C,D,y,b,R,G,g,R,c ,,,,,7,19,159,11,1,0,1,0,,,,,1,21,57,7,,,,,,up,0.5170193286689937,2996.326219018,None,001,13,2019_Oct_04_1109,ACPT_experiment_5_30_19,3.1.0,59.95350815287838,
,,,C,D,y,b,L,U,d,R,u,,,,,7,19,159,11,1,0,1,0,,,,,1,22,58,21,,,,,,up,0.30022328200084303,2998.1275602192795,None,001,13,2019_Oct_04_1109,ACPT_experiment_5_30_19,3.1.0,59.95350815287838,
,,,C,D,y,b,L,D,y,L,y,,,,,7,19,159,11,1,0,1,0,,,,,1,23,59,32,,,,,,down,0.4833115041997189,2999.7291354184053,None,001,13,2019_Oct_04_1109,ACPT_experiment_5_30_19,3.1.0,59.95350815287838,
,,,C,D,y,b,L,G,y,L,y,,,,,7,19,159,11,1,0,1,0,,,,,1,24,60,34,,,,,,down,0.45033114981652034,3001.496792339891,None,001,13,2019_Oct_04_1109,ACPT_experiment_5_30_19,3.1.0,59.95350815287838,
,,,C,D,y,b,L,D,g,L,i,,,,,7,19,159,11,1,0,1,0,,,,,1,25,61,14,,,,,,up,0.38361278548336486,3003.231438721512,None,001,13,2019_Oct_04_1109,ACPT_experiment_5_30_19,3.1.0,59.95350815287838,
,,,C,D,y,b,R,U,y,L,u,,,,,7,19,159,11,1,0,1,0,,,,,1,26,62,30,,,,,,down,0.5170745680989057,3004.8993474200925,None,001,13,2019_Oct_04_1109,ACPT_experiment_5_30_19,3.1.0,59.95350815287838,
,,,C,D,y,b,L,G,d,L,i,,,,,7,19,159,11,1,0,1,0,,,,,1,27,63,16,,,,,,up,0.5503978295432717,3006.717424659304,None,001,13,2019_Oct_04_1109,ACPT_experiment_5_30_19,3.1.0,59.95350815287838,
,,,C,D,y,b,R,G,g,L,c ,,,,,7,19,159,11,1,0,1,0,,,,,1,28,64,6,,,,,,up,0.5003448691172707,3008.5521715283903,None,001,13,2019_Oct_04_1109,ACPT_experiment_5_30_19,3.1.0,59.95350815287838,
,,,C,D,y,b,L,D,g,R,i,,,,,7,19,159,11,1,0,1,0,,,,,1,29,65,15,,,,,,up,0.41697468434313123,3010.3368446090694,None,001,13,2019_Oct_04_1109,ACPT_experiment_5_30_19,3.1.0,59.95350815287838,
,,,C,D,y,b,L,U,g,L,u,,,,,7,19,159,11,1,0,1,0,,,,,1,30,66,22,,,,,,up,0.3836236522561194,3012.0381212436055,None,001,13,2019_Oct_04_1109,ACPT_experiment_5_30_19,3.1.0,59.95350815287838,
,,,C,D,y,b,R,D,y,R,y,,,,,7,19,159,11,1,0,1,0,,,,,1,31,67,27,,,,,,down,0.5167709021625342,3013.7230141047694,None,001,13,2019_Oct_04_1109,ACPT_experiment_5_30_19,3.1.0,59.95350815287838,
,,,C,D,y,b,L,G,y,R,y,,,,,7,19,159,11,1,0,1,0,,,,,1,32,68,35,,,,,,down,0.6004257360200427,3015.524122274138,None,001,13,2019_Oct_04_1109,ACPT_experiment_5_30_19,3.1.0,59.95350815287838,
,,,C,D,y,b,L,G,d,R,i,,,,,7,19,159,11,1,0,1,0,,,,,1,33,69,17,,,,,,up,0.500370526775896,3017.408861732689,None,001,13,2019_Oct_04_1109,ACPT_experiment_5_30_19,3.1.0,59.95350815287838,
,,,C,D,y,b,R,U,d,R,u,,,,,7,19,159,11,1,0,1,0,,,,,1,34,70,9,,,,,,up,0.45033628134797254,3019.1935508116726,None,001,13,2019_Oct_04_1109,ACPT_experiment_5_30_19,3.1.0,59.95350815287838,
,,,C,D,y,b,R,D,d,L,c,,,,,7,19,159,11,1,0,1,0,,,,,1,35,71,0,,,,,,up,0.5804580405215347,3020.9481896408865,None,001,13,2019_Oct_04_1109,ACPT_experiment_5_30_19,3.1.0,59.95350815287838,
,,,C,D,y,b,,,,,,,,,,7,19,159,11,2,0,2,0,0,0,0,0,,,,,,,,,,,,,,001,13,2019_Oct_04_1109,ACPT_experiment_5_30_19,3.1.0,59.95350815287838,
,,,C,D,y,b,R,G,d,L,i,,,,,7,19,159,11,2,0,2,0,,,,,0,0,0,4,,,,,,up,0.5001045926906045,3030.3856409479326,None,001,13,2019_Oct_04_1109,ACPT_experiment_5_30_19,3.1.0,59.95350815287838,
,,,C,D,y,b,L,U,d,L,u,,,,,7,19,159,11,2,0,2,0,,,,,0,1,1,20,,,,,,up,0.3669796800400036,3032.1700571501706,None,001,13,2019_Oct_04_1109,ACPT_experiment_5_30_19,3.1.0,59.95350815287838,
,,,C,D,y,b,R,U,y,R,u,,,,,7,19,159,11,2,0,2,0,,,,,0,2,2,31,,,,,,down,0.550415940831499,3033.821316141293,None,001,13,2019_Oct_04_1109,ACPT_experiment_5_30_19,3.1.0,59.95350815287838,
,,,C,D,y,b,R,D,d,R,c ,,,,,7,19,159,11,2,0,2,0,,,,,0,3,3,1,,,,,,up,0.533729105232851,3035.6560448990913,None,001,13,2019_Oct_04_1109,ACPT_experiment_5_30_19,3.1.0,59.95350815287838,
,,,C,D,y,b,R,G,y,L,y,,,,,7,19,159,11,2,0,2,0,,,,,0,4,4,28,,,,,,down,0.549991834827324,3037.491155503221,None,001,13,2019_Oct_04_1109,ACPT_experiment_5_30_19,3.1.0,59.95350815287838,
,,,C,D,y,b,L,G,g,R,c ,,,,,7,19,159,11,2,0,2,0,,,,,0,5,5,19,,,,,,up,0.41700637909752913,3039.3254661921105,None,001,13,2019_Oct_04_1109,ACPT_experiment_5_30_19,3.1.0,59.95350815287838,
,,,C,D,y,b,R,G,y,R,y,,,,,7,19,159,11,2,0,2,0,,,,,0,6,6,29,,,,,,down,0.5670925133667879,3041.0267811622075,None,001,13,2019_Oct_04_1109,ACPT_experiment_5_30_19,3.1.0,59.95350815287838,
,,,C,D,y,b,L,U,y,R,u,,,,,7,19,159,11,2,0,2,0,,,,,0,7,7,25,,,,,,down,1.134213401085617,3042.878163551575,None,001,13,2019_Oct_04_1109,ACPT_experiment_5_30_19,3.1.0,59.95350815287838,
,,,C,D,y,b,L,G,d,R,i,,,,,7,19,159,11,2,0,2,0,,,,,0,8,8,17,,,,,,up,0.5170534382618825,3045.296688864063,None,001,13,2019_Oct_04_1109,ACPT_experiment_5_30_19,3.1.0,59.95350815287838,
,,,C,D,y,b,L,D,d,R,c ,,,,,7,19,159,11,2,0,2,0,,,,,0,9,9,13,,,,,,up,0.7338899334745292,3047.0980521007436,None,001,13,2019_Oct_04_1109,ACPT_experiment_5_30_19,3.1.0,59.95350815287838,
,,,C,D,y,b,L,G,y,L,y,,,,,7,19,159,11,2,0,2,0,,,,,0,10,10,34,,,,,,down,1.8347516987637391,3049.116253643765,None,001,13,2019_Oct_04_1109,ACPT_experiment_5_30_19,3.1.0,59.95350815287838,
,,,C,D,y,b,R,U,g,R,u,,,,,7,19,159,11,2,0,2,0,,,,,0,11,11,11,,,,,,up,0.6671721728507691,3052.2352834461917,None,001,13,2019_Oct_04_1109,ACPT_experiment_5_30_19,3.1.0,59.95350815287838,
,,,C,D,y,b,R,D,d,L,c,,,,,7,19,159,11,2,0,2,0,,,,,0,12,12,0,,,,,,up,0.6338123869741139,3054.18676602117,None,001,13,2019_Oct_04_1109,ACPT_experiment_5_30_19,3.1.0,59.95350815287838,
,,,C,D,y,b,R,G,g,R,c ,,,,,7,19,159,11,2,0,2,0,,,,,0,13,13,7,,,,,,up,0.38365927112317877,3056.10490058261,None,001,13,2019_Oct_04_1109,ACPT_experiment_5_30_19,3.1.0,59.95350815287838,
,,,C,D,y,b,R,G,d,R,i,,,,,7,19,159,11,2,0,2,0,,,,,0,14,14,5,,,,,,up,0.4002963006787468,3057.756138745751,None,001,13,2019_Oct_04_1109,ACPT_experiment_5_30_19,3.1.0,59.95350815287838,
,,,C,D,y,b,R,D,y,R,y,,,,,7,19,159,11,2,0,2,0,,,,,0,15,15,27,,,,,,up,0.4169795140196584,3059.4407532967825,None,001,13,2019_Oct_04_1109,ACPT_experiment_5_30_19,3.1.0,59.95350815287838,
,,,C,D,y,b,L,D,y,R,y,,,,,7,19,159,11,2,0,2,0,,,,,0,16,16,33,,,,,,down,0.5670961356245243,3061.1420432129303,None,001,13,2019_Oct_04_1109,ACPT_experiment_5_30_19,3.1.0,59.95350815287838,
,,,C,D,y,b,L,G,g,L,c ,,,,,7,19,159,11,2,0,2,0,,,,,0,17,17,18,,,,,,up,0.6504980151535165,3062.993476313906,None,001,13,2019_Oct_04_1109,ACPT_experiment_5_30_19,3.1.0,59.95350815287838,
,,,C,D,y,b,L,U,g,R,u,,,,,7,19,159,11,2,0,2,0,,,,,0,18,18,23,,,,,,up,0.41697619361730176,3064.9282494141753,None,001,13,2019_Oct_04_1109,ACPT_experiment_5_30_19,3.1.0,59.95350815287838,
,,,C,D,y,b,R,U,y,L,u,,,,,7,19,159,11,2,0,2,0,,,,,0,19,19,30,,,,,,down,0.4670107408996955,3066.62954355629,None,001,13,2019_Oct_04_1109,ACPT_experiment_5_30_19,3.1.0,59.95350815287838,
,,,C,D,y,b,L,U,d,R,u,,,,,7,19,159,11,2,0,2,0,,,,,0,20,20,21,,,,,,up,0.35025994226725743,3068.3808713401236,None,001,13,2019_Oct_04_1109,ACPT_experiment_5_30_19,3.1.0,59.95350815287838,
,,,C,D,y,b,R,D,g,R,i,,,,,7,19,159,11,2,0,2,0,,,,,0,21,21,3,,,,,,up,0.40010371731159466,3070.0323663817057,None,001,13,2019_Oct_04_1109,ACPT_experiment_5_30_19,3.1.0,59.95350815287838,
,,,C,D,y,b,L,U,y,L,u,,,,,7,19,159,11,2,0,2,0,,,,,0,22,22,24,,,,,,down,0.5170522308430918,3071.7167379396174,None,001,13,2019_Oct_04_1109,ACPT_experiment_5_30_19,3.1.0,59.95350815287838,
,,,C,D,y,b,R,U,d,R,u,,,,,7,19,159,11,2,0,2,0,,,,,0,23,23,9,,,,,,up,0.7505511114140972,3073.5181171746026,None,001,13,2019_Oct_04_1109,ACPT_experiment_5_30_19,3.1.0,59.95350815287838,
,,,C,D,y,b,R,U,g,L,u,,,,,7,19,159,11,2,0,2,0,,,,,0,24,24,10,,,,,,up,0.6838855716723629,3075.552976877016,None,001,13,2019_Oct_04_1109,ACPT_experiment_5_30_19,3.1.0,59.95350815287838,
,,,C,D,y,b,R,U,d,L,u,,,,,7,19,159,11,2,0,2,0,,,,,0,25,25,8,,,,,,up,0.45033145167099065,3077.5044941652973,None,001,13,2019_Oct_04_1109,ACPT_experiment_5_30_19,3.1.0,59.95350815287838,
,,,C,D,y,b,L,G,y,R,y,,,,,7,19,159,11,2,0,2,0,,,,,0,26,26,35,,,,,,down,0.4169822307130744,3079.239108248454,None,001,13,2019_Oct_04_1109,ACPT_experiment_5_30_19,3.1.0,59.95350815287838,
,,,C,D,y,b,L,U,g,L,u,,,,,7,19,159,11,2,0,2,0,,,,,0,27,27,22,,,,,,up,0.6171575479852436,3080.940376129201,None,001,13,2019_Oct_04_1109,ACPT_experiment_5_30_19,3.1.0,59.95350815287838,
,,,C,D,y,b,L,G,d,L,i,,,,,7,19,159,11,2,0,2,0,,,,,0,28,28,16,,,,,,up,0.7669985761508542,3082.8587883970636,None,001,13,2019_Oct_04_1109,ACPT_experiment_5_30_19,3.1.0,59.95350815287838,
,,,C,D,y,b,L,D,g,L,i,,,,,7,19,159,11,2,0,2,0,,,,,0,29,29,14,,,,,,up,0.43368838501919527,3084.9100810751825,None,001,13,2019_Oct_04_1109,ACPT_experiment_5_30_19,3.1.0,59.95350815287838,
,,,C,D,y,b,R,D,y,L,y,,,,,7,19,159,11,2,0,2,0,,,,,0,30,30,26,,,,,,down,0.6338066517328116,3086.644727154949,None,001,13,2019_Oct_04_1109,ACPT_experiment_5_30_19,3.1.0,59.95350815287838,
,,,C,D,y,b,L,D,d,L,c ,,,,,7,19,159,11,2,0,2,0,,,,,0,31,31,12,,,,,,up,0.4169958141792449,3088.57951353683,None,001,13,2019_Oct_04_1109,ACPT_experiment_5_30_19,3.1.0,59.95350815287838,
,,,C,D,y,b,L,D,g,R,i,,,,,7,19,159,11,2,0,2,0,,,,,0,32,32,15,,,,,,up,0.5670955319146742,3090.280822771685,None,001,13,2019_Oct_04_1109,ACPT_experiment_5_30_19,3.1.0,59.95350815287838,
,,,C,D,y,b,R,G,g,L,c ,,,,,7,19,159,11,2,0,2,0,,,,,0,33,33,6,,,,,,up,0.7338896316191494,3092.1322290075827,None,001,13,2019_Oct_04_1109,ACPT_experiment_5_30_19,3.1.0,59.95350815287838,
,,,C,D,y,b,R,D,g,L,i,,,,,7,19,159,11,2,0,2,0,,,,,0,34,34,2,,,,,,up,0.4170112087749658,3094.133742809441,None,001,13,2019_Oct_04_1109,ACPT_experiment_5_30_19,3.1.0,59.95350815287838,
,,,C,D,y,b,L,D,y,L,y,,,,,7,19,159,11,2,0,2,0,,,,,0,35,35,32,,,,,,down,0.5168062191746685,3095.8519800618865,None,001,13,2019_Oct_04_1109,ACPT_experiment_5_30_19,3.1.0,59.95350815287838,
,,,C,D,y,b,L,G,g,R,c ,,,,,7,19,159,11,2,0,2,0,,,,,1,0,36,19,,,,,,up,0.5837766322720199,3097.653081288594,None,001,13,2019_Oct_04_1109,ACPT_experiment_5_30_19,3.1.0,59.95350815287838,
,,,C,D,y,b,R,D,d,R,c ,,,,,7,19,159,11,2,0,2,0,,,,,1,1,37,1,,,,,,up,0.3502659793634848,3099.521160776624,None,001,13,2019_Oct_04_1109,ACPT_experiment_5_30_19,3.1.0,59.95350815287838,
,,,C,D,y,b,L,U,y,R,u,,,,,7,19,159,11,2,0,2,0,,,,,1,2,38,25,,,,,,down,0.5504153371221037,3101.1557371581152,None,001,13,2019_Oct_04_1109,ACPT_experiment_5_30_19,3.1.0,59.95350815287838,
,,,C,D,y,b,L,G,g,L,c ,,,,,7,19,159,11,2,0,2,0,,,,,1,3,39,18,,,,,,up,0.39989000410832887,3103.0075201088125,None,001,13,2019_Oct_04_1109,ACPT_experiment_5_30_19,3.1.0,59.95350815287838,
,,,C,D,y,b,R,G,g,R,c ,,,,,7,19,159,11,2,0,2,0,,,,,1,4,40,7,,,,,,up,0.5337288033779259,3104.691756737626,None,001,13,2019_Oct_04_1109,ACPT_experiment_5_30_19,3.1.0,59.95350815287838,
,,,C,D,y,b,R,D,y,L,y,,,,,7,19,159,11,2,0,2,0,,,,,1,5,41,26,,,,,,down,0.5504591060689563,3106.5097995653896,None,001,13,2019_Oct_04_1109,ACPT_experiment_5_30_19,3.1.0,59.95350815287838,
,,,C,D,y,b,R,D,g,L,i,,,,,7,19,159,11,2,0,2,0,,,,,1,6,42,2,,,,,,up,0.4837636827010101,3108.327847524685,None,001,13,2019_Oct_04_1109,ACPT_experiment_5_30_19,3.1.0,59.95350815287838,
,,,C,D,y,b,R,G,d,R,i,,,,,7,19,159,11,2,0,2,0,,,,,1,7,43,5,,,,,,up,0.3469332004365242,3110.115856704693,None,001,13,2019_Oct_04_1109,ACPT_experiment_5_30_19,3.1.0,59.95350815287838,
,,,C,D,y,b,L,U,g,R,u,,,,,7,19,159,11,2,0,2,0,,,,,1,8,44,23,,,,,,up,0.46701738170531826,3111.747109664757,None,001,13,2019_Oct_04_1109,ACPT_experiment_5_30_19,3.1.0,59.95350815287838,
,,,C,D,y,b,R,U,g,L,u,,,,,7,19,159,11,2,0,2,0,,,,,1,9,45,10,,,,,,up,0.4002950932595013,3113.4984401652837,None,001,13,2019_Oct_04_1109,ACPT_experiment_5_30_19,3.1.0,59.95350815287838,
,,,C,D,y,b,L,U,d,L,u,,,,,7,19,159,11,2,0,2,0,,,,,1,10,46,20,,,,,,up,0.3169025712295479,3115.1830501884933,None,001,13,2019_Oct_04_1109,ACPT_experiment_5_30_19,3.1.0,59.95350815287838,
,,,C,D,y,b,R,G,y,R,y,,,,,7,19,159,11,2,0,2,0,,,,,1,11,47,29,,,,,,down,0.45007246024670167,3116.801212007422,None,001,13,2019_Oct_04_1109,ACPT_experiment_5_30_19,3.1.0,59.95350815287838,
,,,C,D,y,b,L,G,d,L,i,,,,,7,19,159,11,2,0,2,0,,,,,1,12,48,16,,,,,,up,0.48370059504622986,3118.535592756813,None,001,13,2019_Oct_04_1109,ACPT_experiment_5_30_19,3.1.0,59.95350815287838,
,,,C,D,y,b,R,U,d,L,u,,,,,7,19,159,11,2,0,2,0,,,,,1,13,49,8,,,,,,up,0.8506395246872671,3120.303604055842,None,001,13,2019_Oct_04_1109,ACPT_experiment_5_30_19,3.1.0,59.95350815287838,
,,,C,D,y,b,L,D,g,L,i,,,,,7,19,159,11,2,0,2,0,,,,,1,14,50,14,,,,,,up,0.4336548791357018,3122.438559416044,None,001,13,2019_Oct_04_1109,ACPT_experiment_5_30_19,3.1.0,59.95350815287838,
,,,C,D,y,b,R,D,y,R,y,,,,,7,19,159,11,2,0,2,0,,,,,1,15,51,27,,,,,,down,0.5334595488902778,3124.173481391104,None,001,13,2019_Oct_04_1109,ACPT_experiment_5_30_19,3.1.0,59.95350815287838,
,,,C,D,y,b,R,D,d,L,c,,,,,7,19,159,11,2,0,2,0,,,,,1,16,52,0,,,,,,up,0.4836915394021162,3125.9912534551054,None,001,13,2019_Oct_04_1109,ACPT_experiment_5_30_19,3.1.0,59.95350815287838,
,,,C,D,y,b,L,U,g,L,u,,,,,7,19,159,11,2,0,2,0,,,,,1,17,53,22,,,,,,up,0.5170688328571487,3127.7592430205887,None,001,13,2019_Oct_04_1109,ACPT_experiment_5_30_19,3.1.0,59.95350815287838,
,,,C,D,y,b,L,G,y,R,y,,,,,7,19,159,11,2,0,2,0,,,,,1,18,54,35,,,,,,down,0.5337384627318897,3129.560620444445,None,001,13,2019_Oct_04_1109,ACPT_experiment_5_30_19,3.1.0,59.95350815287838,
,,,C,D,y,b,L,U,y,L,u,,,,,7,19,159,11,2,0,2,0,,,,,1,19,55,24,,,,,,down,0.4000563261070056,3131.3955943083465,None,001,13,2019_Oct_04_1109,ACPT_experiment_5_30_19,3.1.0,59.95350815287838,
,,,C,D,y,b,L,D,d,R,c ,,,,,7,19,159,11,2,0,2,0,,,,,1,20,56,13,,,,,,up,0.4003017340655788,3133.0799625458553,None,001,13,2019_Oct_04_1109,ACPT_experiment_5_30_19,3.1.0,59.95350815287838,
,,,C,D,y,b,R,U,y,R,u,,,,,7,19,159,11,2,0,2,0,,,,,1,21,57,31,,,,,,down,0.48369063383779576,3134.764578002452,None,001,13,2019_Oct_04_1109,ACPT_experiment_5_30_19,3.1.0,59.95350815287838,
,,,C,D,y,b,R,D,g,R,i,,,,,7,19,159,11,2,0,2,0,,,,,1,22,58,3,,,,,,down,0.45033145167099065,3136.532587792207,None,001,13,2019_Oct_04_1109,ACPT_experiment_5_30_19,3.1.0,59.95350815287838,
,,,C,D,y,b,R,G,y,L,y,,,,,7,19,159,11,2,0,2,0,,,,,1,23,59,28,,,,,,down,0.6168611265643449,3138.284191169479,None,001,13,2019_Oct_04_1109,ACPT_experiment_5_30_19,3.1.0,59.95350815287838,
,,,C,D,y,b,R,G,d,L,i,,,,,7,19,159,11,2,0,2,0,,,,,1,24,60,4,,,,,,up,0.600448676985252,3140.1686812959592,None,001,13,2019_Oct_04_1109,ACPT_experiment_5_30_19,3.1.0,59.95350815287838,
,,,C,D,y,b,R,U,y,L,u,,,,,7,19,159,11,2,0,2,0,,,,,1,25,61,30,,,,,,down,0.6004498844044974,3142.053449128862,None,001,13,2019_Oct_04_1109,ACPT_experiment_5_30_19,3.1.0,59.95350815287838,
,,,C,D,y,b,L,G,d,R,i,,,,,7,19,159,11,2,0,2,0,,,,,1,26,62,17,,,,,,up,0.48369184125704123,3143.9382066987014,None,001,13,2019_Oct_04_1109,ACPT_experiment_5_30_19,3.1.0,59.95350815287838,
,,,C,D,y,b,L,D,y,L,y,,,,,7,19,159,11,2,0,2,0,,,,,1,27,63,32,,,,,,down,0.4670210039630547,3145.7062041124095,None,001,13,2019_Oct_04_1109,ACPT_experiment_5_30_19,3.1.0,59.95350815287838,
,,,C,D,y,b,L,G,y,L,y,,,,,7,19,159,11,2,0,2,0,,,,,1,28,64,34,,,,,,down,0.5504597097788064,3147.4575512149504,None,001,13,2019_Oct_04_1109,ACPT_experiment_5_30_19,3.1.0,59.95350815287838,
,,,C,D,y,b,R,U,d,R,u,,,,,7,19,159,11,2,0,2,0,,,,,1,29,65,9,,,,,,up,0.41698343813231986,3149.2922618614602,None,001,13,2019_Oct_04_1109,ACPT_experiment_5_30_19,3.1.0,59.95350815287838,
,,,C,D,y,b,R,U,g,R,u,,,,,7,19,159,11,2,0,2,0,,,,,1,30,66,11,,,,,,up,0.5500977858646365,3150.993843067497,None,001,13,2019_Oct_04_1109,ACPT_experiment_5_30_19,3.1.0,59.95350815287838,
,,,C,D,y,b,R,G,g,L,c ,,,,,7,19,159,11,2,0,2,0,,,,,1,31,67,6,,,,,,up,0.4336660477638361,3152.8282763094385,None,001,13,2019_Oct_04_1109,ACPT_experiment_5_30_19,3.1.0,59.95350815287838,
,,,C,D,y,b,L,D,d,L,c ,,,,,7,19,159,11,2,0,2,0,,,,,1,32,68,12,,,,,,up,0.43367963123000663,3154.546272078038,None,001,13,2019_Oct_04_1109,ACPT_experiment_5_30_19,3.1.0,59.95350815287838,
,,,C,D,y,b,L,D,g,R,i,,,,,7,19,159,11,2,0,2,0,,,,,1,33,69,15,,,,,,up,0.3169185695342094,3156.2475230549157,None,001,13,2019_Oct_04_1109,ACPT_experiment_5_30_19,3.1.0,59.95350815287838,
,,,C,D,y,b,L,U,d,R,u,,,,,7,19,159,11,2,0,2,0,,,,,1,34,70,21,,,,,,up,0.33356284360525024,3157.86544912524,None,001,13,2019_Oct_04_1109,ACPT_experiment_5_30_19,3.1.0,59.95350815287838,
,,,C,D,y,b,L,D,y,R,y,,,,,7,19,159,11,2,0,2,0,,,,,1,35,71,33,,,,,,up,0.33361446077742585,3159.4833115041997,None,001,13,2019_Oct_04_1109,ACPT_experiment_5_30_19,3.1.0,59.95350815287838,
,,,C,D,y,b,,,,,,,,,,7,19,159,11,3,0,3,0,0,0,0,0,,,,,,,,,,,,,,001,13,2019_Oct_04_1109,ACPT_experiment_5_30_19,3.1.0,59.95350815287838,
,,,C,D,y,b,L,D,d,L,c ,,,,,7,19,159,11,3,0,3,0,,,,,0,0,0,12,,,,,,up,0.9173603038589135,3163.519729984838,None,001,13,2019_Oct_04_1109,ACPT_experiment_5_30_19,3.1.0,59.95350815287838,
,,,C,D,y,b,R,D,g,L,i,,,,,7,19,159,11,3,0,3,0,,,,,0,1,1,2,,,,,,up,0.383623048546724,3165.721397068567,None,001,13,2019_Oct_04_1109,ACPT_experiment_5_30_19,3.1.0,59.95350815287838,
,,,C,D,y,b,L,G,y,L,y,,,,,7,19,159,11,3,0,3,0,,,,,0,2,2,34,,,,,,down,0.783956477366246,3167.3893338396447,None,001,13,2019_Oct_04_1109,ACPT_experiment_5_30_19,3.1.0,59.95350815287838,
,,,C,D,y,b,L,U,g,R,u,,,,,7,19,159,11,3,0,3,0,,,,,0,3,3,23,,,,,,up,0.5337562721656468,3169.4575696280936,None,001,13,2019_Oct_04_1109,ACPT_experiment_5_30_19,3.1.0,59.95350815287838,
,,,C,D,y,b,R,G,g,R,c ,,,,,7,19,159,11,3,0,3,0,,,,,0,4,4,7,,,,,,up,0.5670795336100127,3171.2756187948085,None,001,13,2019_Oct_04_1109,ACPT_experiment_5_30_19,3.1.0,59.95350815287838,
,,,C,D,y,b,L,G,y,R,y,,,,,7,19,159,11,3,0,3,0,,,,,0,5,5,35,,,,,,down,0.6336379148956439,3173.1438516250805,None,001,13,2019_Oct_04_1109,ACPT_experiment_5_30_19,3.1.0,59.95350815287838,
,,,C,D,y,b,R,U,g,R,u,,,,,7,19,159,11,3,0,3,0,,,,,0,6,6,11,,,,,,up,0.46700681678703404,3175.078500964879,None,001,13,2019_Oct_04_1109,ACPT_experiment_5_30_19,3.1.0,59.95350815287838,
,,,C,D,y,b,L,D,d,R,c ,,,,,7,19,159,11,3,0,3,0,,,,,0,7,7,13,,,,,,up,0.5668495202471604,3176.8467501254963,None,001,13,2019_Oct_04_1109,ACPT_experiment_5_30_19,3.1.0,59.95350815287838,
,,,C,D,y,b,R,G,d,L,i,,,,,7,19,159,11,3,0,3,0,,,,,0,8,8,4,,,,,,up,0.7839208584991866,3178.697915179403,None,001,13,2019_Oct_04_1109,ACPT_experiment_5_30_19,3.1.0,59.95350815287838,
,,,C,D,y,b,R,D,y,L,y,,,,,7,19,159,11,3,0,3,0,,,,,0,9,9,26,,,,,,down,0.5337212570079828,3180.7661585142223,None,001,13,2019_Oct_04_1109,ACPT_experiment_5_30_19,3.1.0,59.95350815287838,
,,,C,D,y,b,R,G,g,L,c ,,,,,7,19,159,11,3,0,3,0,,,,,0,10,10,6,,,,,,up,0.5504002443813079,3182.5841901733584,None,001,13,2019_Oct_04_1109,ACPT_experiment_5_30_19,3.1.0,59.95350815287838,
,,,C,D,y,b,R,D,d,L,c,,,,,7,19,159,11,3,0,3,0,,,,,0,11,11,0,,,,,,up,0.3669443630274145,3184.418916214463,None,001,13,2019_Oct_04_1109,ACPT_experiment_5_30_19,3.1.0,59.95350815287838,
,,,C,D,y,b,L,D,y,L,y,,,,,7,19,159,11,3,0,3,0,,,,,0,12,12,32,,,,,,down,0.4670086279156749,3186.0868541929594,None,001,13,2019_Oct_04_1109,ACPT_experiment_5_30_19,3.1.0,59.95350815287838,
,,,C,D,y,b,R,D,y,R,y,,,,,7,19,159,11,3,0,3,0,,,,,0,13,13,27,,,,,,down,0.7838939934213158,3187.8548826977126,None,001,13,2019_Oct_04_1109,ACPT_experiment_5_30_19,3.1.0,59.95350815287838,
,,,C,D,y,b,R,G,y,R,y,,,,,7,19,159,11,3,0,3,0,,,,,0,14,14,29,,,,,,down,0.6470574740610573,3189.9430952373045,None,001,13,2019_Oct_04_1109,ACPT_experiment_5_30_19,3.1.0,59.95350815287838,
,,,C,D,y,b,L,U,g,L,u,,,,,7,19,159,11,3,0,3,0,,,,,0,15,15,22,,,,,,up,0.433665444053986,3191.8745714793695,None,001,13,2019_Oct_04_1109,ACPT_experiment_5_30_19,3.1.0,59.95350815287838,
,,,C,D,y,b,R,U,d,L,u,,,,,7,19,159,11,3,0,3,0,,,,,0,16,16,8,,,,,,up,0.5170507215689213,3193.5925485329703,None,001,13,2019_Oct_04_1109,ACPT_experiment_5_30_19,3.1.0,59.95350815287838,
,,,C,D,y,b,R,G,y,L,y,,,,,7,19,159,11,3,0,3,0,,,,,0,17,17,28,,,,,,down,0.6171653962101118,3195.3939138826345,None,001,13,2019_Oct_04_1109,ACPT_experiment_5_30_19,3.1.0,59.95350815287838,
,,,C,D,y,b,L,D,g,L,i,,,,,7,19,159,11,3,0,3,0,,,,,0,18,18,14,,,,,,up,0.5835215649603924,3197.3122829852596,None,001,13,2019_Oct_04_1109,ACPT_experiment_5_30_19,3.1.0,59.95350815287838,
,,,C,D,y,b,L,G,d,R,i,,,,,7,19,159,11,3,0,3,0,,,,,0,19,19,17,,,,,,up,0.7839326308367163,3199.1801339692006,None,001,13,2019_Oct_04_1109,ACPT_experiment_5_30_19,3.1.0,59.95350815287838,
,,,C,D,y,b,L,U,d,L,u,,,,,7,19,159,11,3,0,3,0,,,,,0,20,20,20,,,,,,up,0.43365186058781546,3201.2483658335373,None,001,13,2019_Oct_04_1109,ACPT_experiment_5_30_19,3.1.0,59.95350815287838,
,,,C,D,y,b,L,U,y,R,u,,,,,7,19,159,11,3,0,3,0,,,,,0,21,21,25,,,,,,down,0.46701858912456373,3202.9496539385564,None,001,13,2019_Oct_04_1109,ACPT_experiment_5_30_19,3.1.0,59.95350815287838,
,,,C,D,y,b,L,G,g,L,c ,,,,,7,19,159,11,3,0,3,0,,,,,0,22,22,18,,,,,,up,1.2842968186619146,3204.7009784019865,None,001,13,2019_Oct_04_1109,ACPT_experiment_5_30_19,3.1.0,59.95350815287838,
,,,C,D,y,b,L,G,d,L,i,,,,,7,19,159,11,3,0,3,0,,,,,0,23,23,16,,,,,,up,0.3502650737991644,3207.25291086137,None,001,13,2019_Oct_04_1109,ACPT_experiment_5_30_19,3.1.0,59.95350815287838,
,,,C,D,y,b,R,U,y,L,u,,,,,7,19,159,11,3,0,3,0,,,,,0,24,24,30,,,,,,down,0.5337620074069491,3208.8874618870573,None,001,13,2019_Oct_04_1109,ACPT_experiment_5_30_19,3.1.0,59.95350815287838,
,,,C,D,y,b,L,G,g,R,c ,,,,,7,19,159,11,3,0,3,0,,,,,0,25,25,19,,,,,,up,0.400344597448111,3210.7055249390933,None,001,13,2019_Oct_04_1109,ACPT_experiment_5_30_19,3.1.0,59.95350815287838,
,,,C,D,y,b,R,D,d,R,c ,,,,,7,19,159,11,3,0,3,0,,,,,0,26,26,1,,,,,,up,0.4836972746434185,3212.3901416031085,None,001,13,2019_Oct_04_1109,ACPT_experiment_5_30_19,3.1.0,59.95350815287838,
,,,C,D,y,b,R,G,d,R,i,,,,,7,19,159,11,3,0,3,0,,,,,0,27,27,5,,,,,,up,0.4003008285008036,3214.158152298428,None,001,13,2019_Oct_04_1109,ACPT_experiment_5_30_19,3.1.0,59.95350815287838,
,,,C,D,y,b,R,D,g,R,i,,,,,7,19,159,11,3,0,3,0,,,,,0,28,28,3,,,,,,up,0.346942859790488,3215.8627544673755,None,001,13,2019_Oct_04_1109,ACPT_experiment_5_30_19,3.1.0,59.95350815287838,
,,,C,D,y,b,R,U,d,R,u,,,,,7,19,159,11,3,0,3,0,,,,,0,29,29,9,,,,,,up,0.3335788419099117,3217.4940185960672,None,001,13,2019_Oct_04_1109,ACPT_experiment_5_30_19,3.1.0,59.95350815287838,
,,,C,D,y,b,L,D,y,R,y,,,,,7,19,159,11,3,0,3,0,,,,,0,30,30,33,,,,,,up,0.38362244483641916,3219.128586525624,None,001,13,2019_Oct_04_1109,ACPT_experiment_5_30_19,3.1.0,59.95350815287838,
,,,C,D,y,b,L,U,y,L,u,,,,,7,19,159,11,3,0,3,0,,,,,0,31,31,24,,,,,,down,0.6171234383919,3220.813201680365,None,001,13,2019_Oct_04_1109,ACPT_experiment_5_30_19,3.1.0,59.95350815287838,
,,,C,D,y,b,L,U,d,R,u,,,,,7,19,159,11,3,0,3,0,,,,,0,32,32,21,,,,,,up,0.44696395944174583,3222.7346940746806,None,001,13,2019_Oct_04_1109,ACPT_experiment_5_30_19,3.1.0,59.95350815287838,
,,,C,D,y,b,L,D,g,R,i,,,,,7,19,159,11,3,0,3,0,,,,,0,33,33,15,,,,,,up,0.4336633310704201,3224.4659720585078,None,001,13,2019_Oct_04_1109,ACPT_experiment_5_30_19,3.1.0,59.95350815287838,
,,,C,D,y,b,R,U,g,L,u,,,,,7,19,159,11,3,0,3,0,,,,,0,34,34,10,,,,,,up,0.7172009848918606,3226.1839500176734,None,001,13,2019_Oct_04_1109,ACPT_experiment_5_30_19,3.1.0,59.95350815287838,
,,,C,D,y,b,R,U,y,R,u,,,,,7,19,159,11,3,0,3,0,,,,,0,35,35,31,,,,,,up,0.38359135379187137,3228.185491590174,None,001,13,2019_Oct_04_1109,ACPT_experiment_5_30_19,3.1.0,59.95350815287838,
,,,C,D,y,b,R,D,g,R,i,,,,,7,19,159,11,3,0,3,0,,,,,1,0,36,3,,,,,,up,0.48342832201024066,3229.8703421916653,None,001,13,2019_Oct_04_1109,ACPT_experiment_5_30_19,3.1.0,59.95350815287838,
,,,C,D,y,b,L,U,g,L,u,,,,,7,19,159,11,3,0,3,0,,,,,1,1,37,22,,,,,,up,0.5504195630892355,3231.621396193188,None,001,13,2019_Oct_04_1109,ACPT_experiment_5_30_19,3.1.0,59.95350815287838,
,,,C,D,y,b,L,U,y,R,u,,,,,7,19,159,11,3,0,3,0,,,,,1,2,38,25,,,,,,down,0.450340205460634,3233.4394486803058,None,001,13,2019_Oct_04_1109,ACPT_experiment_5_30_19,3.1.0,59.95350815287838,
,,,C,D,y,b,L,G,y,L,y,,,,,7,19,159,11,3,0,3,0,,,,,1,3,39,34,,,,,,down,0.517054343826203,3235.1740971749105,None,001,13,2019_Oct_04_1109,ACPT_experiment_5_30_19,3.1.0,59.95350815287838,
,,,C,D,y,b,R,G,g,R,c ,,,,,7,19,159,11,3,0,3,0,,,,,1,4,40,7,,,,,,up,0.4834467351533931,3236.9923932588576,None,001,13,2019_Oct_04_1109,ACPT_experiment_5_30_19,3.1.0,59.95350815287838,
,,,C,D,y,b,L,U,d,L,u,,,,,7,19,159,11,3,0,3,0,,,,,1,5,41,20,,,,,,up,0.6004393194862132,3238.760158848074,None,001,13,2019_Oct_04_1109,ACPT_experiment_5_30_19,3.1.0,59.95350815287838,
,,,C,D,y,b,L,G,d,L,i,,,,,7,19,159,11,3,0,3,0,,,,,1,6,42,16,,,,,,up,0.4169749861980563,3240.6449191346064,None,001,13,2019_Oct_04_1109,ACPT_experiment_5_30_19,3.1.0,59.95350815287838,
,,,C,D,y,b,L,D,g,R,i,,,,,7,19,159,11,3,0,3,0,,,,,1,7,43,15,,,,,,up,0.5837745192889088,3242.3462072396255,None,001,13,2019_Oct_04_1109,ACPT_experiment_5_30_19,3.1.0,59.95350815287838,
,,,C,D,y,b,R,G,y,L,y,,,,,7,19,159,11,3,0,3,0,,,,,1,8,44,28,,,,,,down,0.5334879232418643,3244.2312376862105,None,001,13,2019_Oct_04_1109,ACPT_experiment_5_30_19,3.1.0,59.95350815287838,
,,,C,D,y,b,L,G,g,R,c ,,,,,7,19,159,11,3,0,3,0,,,,,1,9,45,19,,,,,,up,0.517051928987712,3246.0490200132754,None,001,13,2019_Oct_04_1109,ACPT_experiment_5_30_19,3.1.0,59.95350815287838,
,,,C,D,y,b,R,G,d,L,i,,,,,7,19,159,11,3,0,3,0,,,,,1,10,46,4,,,,,,up,0.517037138102296,3247.8503998519705,None,001,13,2019_Oct_04_1109,ACPT_experiment_5_30_19,3.1.0,59.95350815287838,
,,,C,D,y,b,R,D,y,L,y,,,,,7,19,159,11,3,0,3,0,,,,,1,11,47,26,,,,,,down,0.5337333311999828,3249.6517446755074,None,001,13,2019_Oct_04_1109,ACPT_experiment_5_30_19,3.1.0,59.95350815287838,
,,,C,D,y,b,R,G,y,R,y,,,,,7,19,159,11,3,0,3,0,,,,,1,12,48,29,,,,,,down,0.5334758490494096,3251.486734235859,None,001,13,2019_Oct_04_1109,ACPT_experiment_5_30_19,3.1.0,59.95350815287838,
,,,C,D,y,b,R,D,d,L,c,,,,,7,19,159,11,3,0,3,0,,,,,1,13,49,0,,,,,,up,0.6004471677110814,3253.304534372358,None,001,13,2019_Oct_04_1109,ACPT_experiment_5_30_19,3.1.0,59.95350815287838,
,,,C,D,y,b,R,U,g,R,u,,,,,7,19,159,11,3,0,3,0,,,,,1,14,50,11,,,,,,up,0.33357069183011845,3255.1893025071154,None,001,13,2019_Oct_04_1109,ACPT_experiment_5_30_19,3.1.0,59.95350815287838,
,,,C,D,y,b,L,D,y,L,y,,,,,7,19,159,11,3,0,3,0,,,,,1,15,51,32,,,,,,down,0.5003699230660459,3256.807186015912,None,001,13,2019_Oct_04_1109,ACPT_experiment_5_30_19,3.1.0,59.95350815287838,
,,,C,D,y,b,L,U,d,R,u,,,,,7,19,159,11,3,0,3,0,,,,,1,16,52,21,,,,,,up,0.4001589567415067,3258.625361961646,None,001,13,2019_Oct_04_1109,ACPT_experiment_5_30_19,3.1.0,59.95350815287838,
,,,C,D,y,b,R,U,y,L,u,,,,,7,19,159,11,3,0,3,0,,,,,1,17,53,30,,,,,,down,0.38340812792330325,3260.3266923263377,None,001,13,2019_Oct_04_1109,ACPT_experiment_5_30_19,3.1.0,59.95350815287838,
,,,C,D,y,b,L,U,g,R,u,,,,,7,19,159,11,3,0,3,0,,,,,1,18,54,23,,,,,,up,0.3335782382000616,3261.9944546253364,None,001,13,2019_Oct_04_1109,ACPT_experiment_5_30_19,3.1.0,59.95350815287838,
,,,C,D,y,b,R,D,d,R,c ,,,,,7,19,159,11,3,0,3,0,,,,,1,19,55,1,,,,,,up,0.46703126702641384,3263.6123278710693,None,001,13,2019_Oct_04_1109,ACPT_experiment_5_30_19,3.1.0,59.95350815287838,
,,,C,D,y,b,L,G,y,R,y,,,,,7,19,159,11,3,0,3,0,,,,,1,20,56,35,,,,,,down,0.4670354929940004,3265.4137152561343,None,001,13,2019_Oct_04_1109,ACPT_experiment_5_30_19,3.1.0,59.95350815287838,
,,,C,D,y,b,L,D,g,L,i,,,,,7,19,159,11,3,0,3,0,,,,,1,21,57,14,,,,,,up,0.4002990173721628,3267.181719008793,None,001,13,2019_Oct_04_1109,ACPT_experiment_5_30_19,3.1.0,59.95350815287838,
,,,C,D,y,b,L,G,d,R,i,,,,,7,19,159,11,3,0,3,0,,,,,1,22,58,17,,,,,,up,0.5670804391747879,3268.866344124743,None,001,13,2019_Oct_04_1109,ACPT_experiment_5_30_19,3.1.0,59.95350815287838,
,,,C,D,y,b,R,U,d,L,u,,,,,7,19,159,11,3,0,3,0,,,,,1,23,59,8,,,,,,up,0.533758687003683,3270.701031528433,None,001,13,2019_Oct_04_1109,ACPT_experiment_5_30_19,3.1.0,59.95350815287838,
,,,C,D,y,b,R,U,g,L,u,,,,,7,19,159,11,3,0,3,0,,,,,1,24,60,10,,,,,,up,0.5001064038197001,3272.5193719850363,None,001,13,2019_Oct_04_1109,ACPT_experiment_5_30_19,3.1.0,59.95350815287838,
,,,C,D,y,b,R,G,g,L,c ,,,,,7,19,159,11,3,0,3,0,,,,,1,25,61,6,,,,,,up,0.38361701145049665,3274.3037948280803,None,001,13,2019_Oct_04_1109,ACPT_experiment_5_30_19,3.1.0,59.95350815287838,
,,,C,D,y,b,R,D,y,R,y,,,,,7,19,159,11,3,0,3,0,,,,,1,26,62,27,,,,,,down,0.6671724747052394,3275.9717219398035,None,001,13,2019_Oct_04_1109,ACPT_experiment_5_30_19,3.1.0,59.95350815287838,
,,,C,D,y,b,L,D,d,L,c ,,,,,7,19,159,11,3,0,3,0,,,,,1,27,63,12,,,,,,up,0.3836085595157783,3277.923209344459,None,001,13,2019_Oct_04_1109,ACPT_experiment_5_30_19,3.1.0,59.95350815287838,
,,,C,D,y,b,R,D,g,L,i,,,,,7,19,159,11,3,0,3,0,,,,,1,28,64,2,,,,,,up,0.3666947291017095,3279.6247341036465,None,001,13,2019_Oct_04_1109,ACPT_experiment_5_30_19,3.1.0,59.95350815287838,
,,,C,D,y,b,R,U,d,R,u,,,,,7,19,159,11,3,0,3,0,,,,,1,29,65,9,,,,,,up,0.43366061437745884,3281.275748290521,None,001,13,2019_Oct_04_1109,ACPT_experiment_5_30_19,3.1.0,59.95350815287838,
,,,C,D,y,b,L,D,d,R,c ,,,,,7,19,159,11,3,0,3,0,,,,,1,30,66,13,,,,,,up,0.45034171473480455,3282.993715986623,None,001,13,2019_Oct_04_1109,ACPT_experiment_5_30_19,3.1.0,59.95350815287838,
,,,C,D,y,b,L,U,y,L,u,,,,,7,19,159,11,3,0,3,0,,,,,1,31,67,24,,,,,,down,0.4336500494587199,3284.7450510149715,None,001,13,2019_Oct_04_1109,ACPT_experiment_5_30_19,3.1.0,59.95350815287838,
,,,C,D,y,b,L,G,g,L,c ,,,,,7,19,159,11,3,0,3,0,,,,,1,32,68,18,,,,,,up,0.5670961356249791,3286.496388458159,None,001,13,2019_Oct_04_1109,ACPT_experiment_5_30_19,3.1.0,59.95350815287838,
,,,C,D,y,b,R,U,y,R,u,,,,,7,19,159,11,3,0,3,0,,,,,1,33,69,31,,,,,,down,0.5170286861675777,3288.3644745869947,None,001,13,2019_Oct_04_1109,ACPT_experiment_5_30_19,3.1.0,59.95350815287838,
,,,C,D,y,b,R,G,d,R,i,,,,,7,19,159,11,3,0,3,0,,,,,1,34,70,5,,,,,,up,0.5504717839712612,3290.1991885539073,None,001,13,2019_Oct_04_1109,ACPT_experiment_5_30_19,3.1.0,59.95350815287838,
,,,C,D,y,b,L,D,y,R,y,,,,,7,19,159,11,3,0,3,0,,,,,1,35,71,33,,,,,,down,0.6004661845645387,3292.05057064142,None,001,13,2019_Oct_04_1109,ACPT_experiment_5_30_19,3.1.0,59.95350815287838,
,,,C,D,y,b,,,,,,,,,,7,19,159,11,4,0,4,0,0,0,0,0,,,,,,,,,,,,,,001,13,2019_Oct_04_1109,ACPT_experiment_5_30_19,3.1.0,59.95350815287838,
,,,C,D,y,b,R,U,y,R,u,,,,,7,19,159,11,4,0,4,0,,,,,0,0,0,31,,,,,,down,0.7672768862830708,3302.158271832932,None,001,13,2019_Oct_04_1109,ACPT_experiment_5_30_19,3.1.0,59.95350815287838,
,,,C,D,y,b,R,D,y,L,y,,,,,7,19,159,11,4,0,4,0,,,,,0,1,1,26,,,,,,down,0.6504892613643278,3304.209817163525,None,001,13,2019_Oct_04_1109,ACPT_experiment_5_30_19,3.1.0,59.95350815287838,
,,,C,D,y,b,L,D,d,R,c ,,,,,7,19,159,11,4,0,4,0,,,,,0,2,2,13,,,,,,up,0.45032752755832917,3306.1613018514868,None,001,13,2019_Oct_04_1109,ACPT_experiment_5_30_19,3.1.0,59.95350815287838,
,,,C,D,y,b,R,D,y,R,y,,,,,7,19,159,11,4,0,4,0,,,,,0,3,3,27,,,,,,down,0.48369063383779576,3307.8959503460915,None,001,13,2019_Oct_04_1109,ACPT_experiment_5_30_19,3.1.0,59.95350815287838,
,,,C,D,y,b,R,U,d,L,u,,,,,7,19,159,11,4,0,4,0,,,,,0,4,4,8,,,,,,up,0.4336292214770765,3309.6639836805216,None,001,13,2019_Oct_04_1109,ACPT_experiment_5_30_19,3.1.0,59.95350815287838,
,,,C,D,y,b,R,U,g,L,u,,,,,7,19,159,11,4,0,4,0,,,,,0,5,5,10,,,,,,up,0.7005226012279309,3311.365249448285,None,001,13,2019_Oct_04_1109,ACPT_experiment_5_30_19,3.1.0,59.95350815287838,
,,,C,D,y,b,R,D,d,L,c,,,,,7,19,159,11,4,0,4,0,,,,,0,6,6,0,,,,,,up,0.5504582005046359,3313.3500921109944,None,001,13,2019_Oct_04_1109,ACPT_experiment_5_30_19,3.1.0,59.95350815287838,
,,,C,D,y,b,L,D,g,R,i,,,,,7,19,159,11,4,0,4,0,,,,,0,7,7,15,,,,,,up,0.4669914221917679,3315.201512835923,None,001,13,2019_Oct_04_1109,ACPT_experiment_5_30_19,3.1.0,59.95350815287838,
,,,C,D,y,b,R,G,d,R,i,,,,,7,19,159,11,4,0,4,0,,,,,0,8,8,5,,,,,,up,0.30021030224406786,3316.9528255270156,None,001,13,2019_Oct_04_1109,ACPT_experiment_5_30_19,3.1.0,59.95350815287838,
,,,C,D,y,b,L,U,y,L,u,,,,,7,19,159,11,4,0,4,0,,,,,0,9,9,24,,,,,,down,0.35025662186444606,3318.5373598148544,None,001,13,2019_Oct_04_1109,ACPT_experiment_5_30_19,3.1.0,59.95350815287838,
,,,C,D,y,b,R,U,y,L,u,,,,,7,19,159,11,4,0,4,0,,,,,0,10,10,30,,,,,,down,0.40026641705253496,3320.1719588354563,None,001,13,2019_Oct_04_1109,ACPT_experiment_5_30_19,3.1.0,59.95350815287838,
,,,C,D,y,b,L,U,d,R,u,,,,,7,19,159,11,4,0,4,0,,,,,0,11,11,21,,,,,,up,0.49996483391487345,3321.873602525438,None,001,13,2019_Oct_04_1109,ACPT_experiment_5_30_19,3.1.0,59.95350815287838,
,,,C,D,y,b,R,U,d,R,u,,,,,7,19,159,11,4,0,4,0,,,,,0,12,12,9,,,,,,up,0.41697770289101754,3323.6579314916366,None,001,13,2019_Oct_04_1109,ACPT_experiment_5_30_19,3.1.0,59.95350815287838,
,,,C,D,y,b,R,G,y,L,y,,,,,7,19,159,11,4,0,4,0,,,,,0,13,13,28,,,,,,down,0.5671296415080178,3325.3592008816577,None,001,13,2019_Oct_04_1109,ACPT_experiment_5_30_19,3.1.0,59.95350815287838,
,,,C,D,y,b,L,G,y,L,y,,,,,7,19,159,11,4,0,4,0,,,,,0,14,14,34,,,,,,down,0.5170766810824716,3327.193900963249,None,001,13,2019_Oct_04_1109,ACPT_experiment_5_30_19,3.1.0,59.95350815287838,
,,,C,D,y,b,L,D,y,R,y,,,,,7,19,159,11,4,0,4,0,,,,,0,15,15,33,,,,,,down,0.5500008904718925,3329.0123763489514,None,001,13,2019_Oct_04_1109,ACPT_experiment_5_30_19,3.1.0,59.95350815287838,
,,,C,D,y,b,L,G,d,L,i,,,,,7,19,159,11,4,0,4,0,,,,,0,16,16,16,,,,,,up,0.45032541457476327,3330.84670514913,None,001,13,2019_Oct_04_1109,ACPT_experiment_5_30_19,3.1.0,59.95350815287838,
,,,C,D,y,b,L,U,g,L,u,,,,,7,19,159,11,4,0,4,0,,,,,0,17,17,22,,,,,,up,0.6004529029528385,3332.5813457955096,None,001,13,2019_Oct_04_1109,ACPT_experiment_5_30_19,3.1.0,59.95350815287838,
,,,C,D,y,b,L,D,g,L,i,,,,,7,19,159,11,4,0,4,0,,,,,0,18,18,14,,,,,,up,0.43383387903668336,3334.4661087987356,None,001,13,2019_Oct_04_1109,ACPT_experiment_5_30_19,3.1.0,59.95350815287838,
,,,C,D,y,b,L,U,y,R,u,,,,,7,19,159,11,4,0,4,0,,,,,0,19,19,25,,,,,,down,0.5334882250963346,3336.2010090402496,None,001,13,2019_Oct_04_1109,ACPT_experiment_5_30_19,3.1.0,59.95350815287838,
,,,C,D,y,b,R,U,g,R,u,,,,,7,19,159,11,4,0,4,0,,,,,0,20,20,11,,,,,,up,0.40028724503417834,3338.0188297028753,None,001,13,2019_Oct_04_1109,ACPT_experiment_5_30_19,3.1.0,59.95350815287838,
,,,C,D,y,b,R,D,g,R,i,,,,,7,19,159,11,4,0,4,0,,,,,0,21,21,3,,,,,,up,0.3669395333504326,3339.686732968069,None,001,13,2019_Oct_04_1109,ACPT_experiment_5_30_19,3.1.0,59.95350815287838,
,,,C,D,y,b,L,G,y,R,y,,,,,7,19,159,11,4,0,4,0,,,,,0,22,22,35,,,,,,down,0.45030911441517674,3341.3380170131404,None,001,13,2019_Oct_04_1109,ACPT_experiment_5_30_19,3.1.0,59.95350815287838,
,,,C,D,y,b,R,G,d,L,i,,,,,7,19,159,11,4,0,4,0,,,,,0,23,23,4,,,,,,up,0.36364508998440215,3343.092641353324,None,001,13,2019_Oct_04_1109,ACPT_experiment_5_30_19,3.1.0,59.95350815287838,
,,,C,D,y,b,R,D,g,L,i,,,,,7,19,159,11,4,0,4,0,,,,,0,24,24,2,,,,,,up,0.4837271582696303,3344.740556396892,None,001,13,2019_Oct_04_1109,ACPT_experiment_5_30_19,3.1.0,59.95350815287838,
,,,C,D,y,b,L,U,d,L,u,,,,,7,19,159,11,4,0,4,0,,,,,0,25,25,20,,,,,,up,0.3002103022445226,3346.5085918443056,None,001,13,2019_Oct_04_1109,ACPT_experiment_5_30_19,3.1.0,59.95350815287838,
,,,C,D,y,b,R,G,y,R,y,,,,,7,19,159,11,4,0,4,0,,,,,0,26,26,29,,,,,,down,0.5504041684944241,3348.0931161709354,None,001,13,2019_Oct_04_1109,ACPT_experiment_5_30_19,3.1.0,59.95350815287838,
,,,C,D,y,b,L,G,g,L,c ,,,,,7,19,159,11,4,0,4,0,,,,,0,27,27,18,,,,,,up,0.38342805034108096,3349.944740346004,None,001,13,2019_Oct_04_1109,ACPT_experiment_5_30_19,3.1.0,59.95350815287838,
,,,C,D,y,b,R,D,d,R,c ,,,,,7,19,159,11,4,0,4,0,,,,,0,28,28,1,,,,,,up,0.5837739155790587,3351.612454046379,None,001,13,2019_Oct_04_1109,ACPT_experiment_5_30_19,3.1.0,59.95350815287838,
,,,C,D,y,b,R,G,g,L,c ,,,,,7,19,159,11,4,0,4,0,,,,,0,29,29,6,,,,,,up,0.416958686038015,3353.48054741973,None,001,13,2019_Oct_04_1109,ACPT_experiment_5_30_19,3.1.0,59.95350815287838,
,,,C,D,y,b,L,D,y,L,y,,,,,7,19,159,11,4,0,4,0,,,,,0,30,30,32,,,,,,up,0.433665444053986,3355.1818225449924,None,001,13,2019_Oct_04_1109,ACPT_experiment_5_30_19,3.1.0,59.95350815287838,
,,,C,D,y,b,L,G,g,R,c ,,,,,7,19,159,11,4,0,4,0,,,,,0,31,31,19,,,,,,up,0.39990328571957434,3356.9168498673803,None,001,13,2019_Oct_04_1109,ACPT_experiment_5_30_19,3.1.0,59.95350815287838,
,,,C,D,y,b,L,D,d,L,c ,,,,,7,19,159,11,4,0,4,0,,,,,0,32,32,12,,,,,,up,0.38362335040119433,3358.601094646273,None,001,13,2019_Oct_04_1109,ACPT_experiment_5_30_19,3.1.0,59.95350815287838,
,,,C,D,y,b,L,G,d,R,i,,,,,7,19,159,11,4,0,4,0,,,,,0,33,33,17,,,,,,up,0.650485035397196,3360.2690244746896,None,001,13,2019_Oct_04_1109,ACPT_experiment_5_30_19,3.1.0,59.95350815287838,
,,,C,D,y,b,R,G,g,R,c ,,,,,7,19,159,11,4,0,4,0,,,,,0,34,34,7,,,,,,up,0.533754461037006,3362.2038220251984,None,001,13,2019_Oct_04_1109,ACPT_experiment_5_30_19,3.1.0,59.95350815287838,
,,,C,D,y,b,L,U,g,R,u,,,,,7,19,159,11,4,0,4,0,,,,,0,35,35,23,,,,,,up,0.6001836484647356,3364.0388152078076,None,001,13,2019_Oct_04_1109,ACPT_experiment_5_30_19,3.1.0,59.95350815287838,
,,,C,D,y,b,R,D,g,L,i,,,,,7,19,159,11,4,0,4,0,,,,,1,0,36,2,,,,,,up,0.5004167105616943,3365.9232863174348,None,001,13,2019_Oct_04_1109,ACPT_experiment_5_30_19,3.1.0,59.95350815287838,
,,,C,D,y,b,R,U,g,R,u,,,,,7,19,159,11,4,0,4,0,,,,,1,1,37,11,,,,,,up,0.3836215392725535,3367.708008600447,None,001,13,2019_Oct_04_1109,ACPT_experiment_5_30_19,3.1.0,59.95350815287838,
,,,C,D,y,b,L,G,y,R,y,,,,,7,19,159,11,4,0,4,0,,,,,1,2,38,35,,,,,,up,0.3836381412870651,3369.375930278784,None,001,13,2019_Oct_04_1109,ACPT_experiment_5_30_19,3.1.0,59.95350815287838,
,,,C,D,y,b,R,U,d,R,u,,,,,7,19,159,11,4,0,4,0,,,,,1,3,39,9,,,,,,up,0.45007306395609703,3371.060807443498,None,001,13,2019_Oct_04_1109,ACPT_experiment_5_30_19,3.1.0,59.95350815287838,
,,,C,D,y,b,R,G,y,R,y,,,,,7,19,159,11,4,0,4,0,,,,,1,4,40,29,,,,,,down,0.3669497964142465,3372.795193022566,None,001,13,2019_Oct_04_1109,ACPT_experiment_5_30_19,3.1.0,59.95350815287838,
,,,C,D,y,b,R,G,g,L,c ,,,,,7,19,159,11,4,0,4,0,,,,,1,5,41,6,,,,,,up,0.4169749861980563,3374.4464486932857,None,001,13,2019_Oct_04_1109,ACPT_experiment_5_30_19,3.1.0,59.95350815287838,
,,,C,D,y,b,R,D,y,R,y,,,,,7,19,159,11,4,0,4,0,,,,,1,6,42,27,,,,,,down,0.48369938762743914,3376.147735590885,None,001,13,2019_Oct_04_1109,ACPT_experiment_5_30_19,3.1.0,59.95350815287838,
,,,C,D,y,b,R,U,d,L,u,,,,,7,19,159,11,4,0,4,0,,,,,1,7,43,8,,,,,,up,0.6337921627023206,3377.9324391589,None,001,13,2019_Oct_04_1109,ACPT_experiment_5_30_19,3.1.0,59.95350815287838,
,,,C,D,y,b,R,U,y,R,u,,,,,7,19,159,11,4,0,4,0,,,,,1,8,44,31,,,,,,down,0.5170280824581823,3379.8505655702597,None,001,13,2019_Oct_04_1109,ACPT_experiment_5_30_19,3.1.0,59.95350815287838,
,,,C,D,y,b,L,D,y,R,y,,,,,7,19,159,11,4,0,4,0,,,,,1,9,45,33,,,,,,down,0.5671284340887723,3381.6519010362977,None,001,13,2019_Oct_04_1109,ACPT_experiment_5_30_19,3.1.0,59.95350815287838,
,,,C,D,y,b,R,G,y,L,y,,,,,7,19,159,11,4,0,4,0,,,,,1,10,46,28,,,,,,down,0.33357763449066624,3383.486641868288,None,001,13,2019_Oct_04_1109,ACPT_experiment_5_30_19,3.1.0,59.95350815287838,
,,,C,D,y,b,R,U,g,L,u,,,,,7,19,159,11,4,0,4,0,,,,,1,11,47,10,,,,,,up,0.5137384687691338,3385.124527484031,None,001,13,2019_Oct_04_1109,ACPT_experiment_5_30_19,3.1.0,59.95350815287838,
,,,C,D,y,b,R,D,g,R,i,,,,,7,19,159,11,4,0,4,0,,,,,1,12,48,3,,,,,,up,0.38361701145049665,3386.9225787697665,None,001,13,2019_Oct_04_1109,ACPT_experiment_5_30_19,3.1.0,59.95350815287838,
,,,C,D,y,b,L,G,g,L,c ,,,,,7,19,159,11,4,0,4,0,,,,,1,13,49,18,,,,,,up,0.3836037298387964,3388.590526407617,None,001,13,2019_Oct_04_1109,ACPT_experiment_5_30_19,3.1.0,59.95350815287838,
,,,C,D,y,b,L,G,y,L,y,,,,,7,19,159,11,4,0,4,0,,,,,1,14,50,34,,,,,,down,0.43365518099062683,3390.241769400435,None,001,13,2019_Oct_04_1109,ACPT_experiment_5_30_19,3.1.0,59.95350815287838,
,,,C,D,y,b,L,U,y,L,u,,,,,7,19,159,11,4,0,4,0,,,,,1,15,51,24,,,,,,down,0.38332451414225943,3391.9767031478323,None,001,13,2019_Oct_04_1109,ACPT_experiment_5_30_19,3.1.0,59.95350815287838,
,,,C,D,y,b,L,U,g,L,u,,,,,7,19,159,11,4,0,4,0,,,,,1,16,52,22,,,,,,up,0.45033416836440665,3393.627668736083,None,001,13,2019_Oct_04_1109,ACPT_experiment_5_30_19,3.1.0,59.95350815287838,
,,,C,D,y,b,L,U,d,L,u,,,,,7,19,159,11,4,0,4,0,,,,,1,17,53,20,,,,,,up,0.5836809442985214,3395.3456189246062,None,001,13,2019_Oct_04_1109,ACPT_experiment_5_30_19,3.1.0,59.95350815287838,
,,,C,D,y,b,R,D,d,R,c ,,,,,7,19,159,11,4,0,4,0,,,,,1,18,54,1,,,,,,up,0.48369365238568207,3397.2137231647303,None,001,13,2019_Oct_04_1109,ACPT_experiment_5_30_19,3.1.0,59.95350815287838,
,,,C,D,y,b,R,G,g,R,c ,,,,,7,19,159,11,4,0,4,0,,,,,1,19,55,7,,,,,,up,0.4498638785748881,3398.998853555442,None,001,13,2019_Oct_04_1109,ACPT_experiment_5_30_19,3.1.0,59.95350815287838,
,,,C,D,y,b,L,G,d,L,i,,,,,7,19,159,11,4,0,4,0,,,,,1,20,56,16,,,,,,up,0.7671929706466472,3400.733099677589,None,001,13,2019_Oct_04_1109,ACPT_experiment_5_30_19,3.1.0,59.95350815287838,
,,,C,D,y,b,L,U,y,R,u,,,,,7,19,159,11,4,0,4,0,,,,,1,21,57,25,,,,,,down,0.48371780077059157,3402.7845912780263,None,001,13,2019_Oct_04_1109,ACPT_experiment_5_30_19,3.1.0,59.95350815287838,
,,,C,D,y,b,L,G,d,R,i,,,,,7,19,159,11,4,0,4,0,,,,,1,22,58,17,,,,,,up,0.45033809247706813,3404.5526228013273,None,001,13,2019_Oct_04_1109,ACPT_experiment_5_30_19,3.1.0,59.95350815287838,
,,,C,D,y,b,L,D,g,L,i,,,,,7,19,159,11,4,0,4,0,,,,,1,23,59,14,,,,,,up,0.5637660733914345,3406.3072782325557,None,001,13,2019_Oct_04_1109,ACPT_experiment_5_30_19,3.1.0,59.95350815287838,
,,,C,D,y,b,R,D,d,L,c,,,,,7,19,159,11,4,0,4,0,,,,,1,24,60,0,,,,,,up,0.7171949477956332,3408.155363461864,None,001,13,2019_Oct_04_1109,ACPT_experiment_5_30_19,3.1.0,59.95350815287838,
,,,C,D,y,b,L,D,y,L,y,,,,,7,19,159,11,4,0,4,0,,,,,1,25,61,32,,,,,,down,0.5170504197139962,3410.173554439967,None,001,13,2019_Oct_04_1109,ACPT_experiment_5_30_19,3.1.0,59.95350815287838,
,,,C,D,y,b,L,G,g,R,c ,,,,,7,19,159,11,4,0,4,0,,,,,1,26,62,19,,,,,,up,0.3836342171744036,3411.991600286279,None,001,13,2019_Oct_04_1109,ACPT_experiment_5_30_19,3.1.0,59.95350815287838,
,,,C,D,y,b,L,D,g,R,i,,,,,7,19,159,11,4,0,4,0,,,,,1,27,63,15,,,,,,up,0.466744806814404,3413.6764810732507,None,001,13,2019_Oct_04_1109,ACPT_experiment_5_30_19,3.1.0,59.95350815287838,
,,,C,D,y,b,R,U,y,L,u,,,,,7,19,159,11,4,0,4,0,,,,,1,28,64,30,,,,,,down,0.4669914221917679,3415.427559826868,None,001,13,2019_Oct_04_1109,ACPT_experiment_5_30_19,3.1.0,59.95350815287838,
,,,C,D,y,b,L,U,g,R,u,,,,,7,19,159,11,4,0,4,0,,,,,1,29,65,23,,,,,,up,0.35024967920389827,3417.178885195863,None,001,13,2019_Oct_04_1109,ACPT_experiment_5_30_19,3.1.0,59.95350815287838,
,,,C,D,y,b,R,G,d,R,i,,,,,7,19,159,11,4,0,4,0,,,,,1,30,66,5,,,,,,up,0.46700289267437256,3418.81345252171,None,001,13,2019_Oct_04_1109,ACPT_experiment_5_30_19,3.1.0,59.95350815287838,
,,,C,D,y,b,L,D,d,R,c ,,,,,7,19,159,11,4,0,4,0,,,,,1,31,67,13,,,,,,up,0.45033899804138855,3420.5814668392873,None,001,13,2019_Oct_04_1109,ACPT_experiment_5_30_19,3.1.0,59.95350815287838,
,,,C,D,y,b,L,U,d,R,u,,,,,7,19,159,11,4,0,4,0,,,,,1,32,68,21,,,,,,up,0.4837153859321006,3422.3161032597,None,001,13,2019_Oct_04_1109,ACPT_experiment_5_30_19,3.1.0,59.95350815287838,
,,,C,D,y,b,L,D,d,L,c ,,,,,7,19,159,11,4,0,4,0,,,,,1,33,69,12,,,,,,up,0.7339291745988703,3424.0674304398235,None,001,13,2019_Oct_04_1109,ACPT_experiment_5_30_19,3.1.0,59.95350815287838,
,,,C,D,y,b,R,G,d,L,i,,,,,7,19,159,11,4,0,4,0,,,,,1,34,70,4,,,,,,up,0.4670197965438092,3426.0689523917617,None,001,13,2019_Oct_04_1109,ACPT_experiment_5_30_19,3.1.0,59.95350815287838,
,,,C,D,y,b,R,D,y,L,y,,,,,7,19,159,11,4,0,4,0,,,,,1,35,71,26,,,,,,down,0.6138087707536215,3427.840278358429,None,001,13,2019_Oct_04_1109,ACPT_experiment_5_30_19,3.1.0,59.95350815287838,
,,,C,D,y,b,,,,,,,,,,7,19,159,11,5,0,5,0,0,0,0,0,,,,,,,,,,,,,,001,13,2019_Oct_04_1109,ACPT_experiment_5_30_19,3.1.0,59.95350815287838,
,,,C,D,y,b,L,U,y,R,u,,,,,7,19,159,11,5,0,5,0,,,,,0,0,0,25,,,,,,down,0.7505903525393478,3431.1561582455715,None,001,13,2019_Oct_04_1109,ACPT_experiment_5_30_19,3.1.0,59.95350815287838,
,,,C,D,y,b,R,G,d,L,i,,,,,7,19,159,11,5,0,5,0,,,,,0,1,1,4,,,,,,up,0.4837516085090101,3433.191017947985,None,001,13,2019_Oct_04_1109,ACPT_experiment_5_30_19,3.1.0,59.95350815287838,
,,,C,D,y,b,R,D,y,R,y,,,,,7,19,159,11,5,0,5,0,,,,,0,2,2,27,,,,,,down,0.41675734888167426,3434.975956359039,None,001,13,2019_Oct_04_1109,ACPT_experiment_5_30_19,3.1.0,59.95350815287838,
,,,C,D,y,b,R,U,g,L,u,,,,,7,19,159,11,5,0,5,0,,,,,0,3,3,10,,,,,,up,0.36692715730350756,3436.677005093196,None,001,13,2019_Oct_04_1109,ACPT_experiment_5_30_19,3.1.0,59.95350815287838,
,,,C,D,y,b,L,U,g,R,u,,,,,7,19,159,11,5,0,5,0,,,,,0,4,4,23,,,,,,up,0.3502871091995985,3438.3282272580323,None,001,13,2019_Oct_04_1109,ACPT_experiment_5_30_19,3.1.0,59.95350815287838,
,,,C,D,y,b,L,D,y,L,y,,,,,7,19,159,11,5,0,5,0,,,,,0,5,5,32,,,,,,down,0.4336711792952883,3439.962826580489,None,001,13,2019_Oct_04_1109,ACPT_experiment_5_30_19,3.1.0,59.95350815287838,
,,,C,D,y,b,R,D,g,L,i,,,,,7,19,159,11,5,0,5,0,,,,,0,6,6,2,,,,,,up,0.46674209012144274,3441.697754592645,None,001,13,2019_Oct_04_1109,ACPT_experiment_5_30_19,3.1.0,59.95350815287838,
,,,C,D,y,b,R,U,d,L,u,,,,,7,19,159,11,5,0,5,0,,,,,0,7,7,8,,,,,,up,0.40029750809799225,3443.4488058774755,None,001,13,2019_Oct_04_1109,ACPT_experiment_5_30_19,3.1.0,59.95350815287838,
,,,C,D,y,b,L,U,d,R,u,,,,,7,19,159,11,5,0,5,0,,,,,0,8,8,21,,,,,,up,0.46702009839873426,3445.116734196618,None,001,13,2019_Oct_04_1109,ACPT_experiment_5_30_19,3.1.0,59.95350815287838,
,,,C,D,y,b,R,G,y,L,y,,,,,7,19,159,11,5,0,5,0,,,,,0,9,9,28,,,,,,down,0.7005244123565717,3446.8680722435147,None,001,13,2019_Oct_04_1109,ACPT_experiment_5_30_19,3.1.0,59.95350815287838,
,,,C,D,y,b,L,D,g,R,i,,,,,7,19,159,11,5,0,5,0,,,,,0,10,10,15,,,,,,up,0.5668151087988917,3448.8698640536504,None,001,13,2019_Oct_04_1109,ACPT_experiment_5_30_19,3.1.0,59.95350815287838,
,,,C,D,y,b,L,G,g,R,c ,,,,,7,19,159,11,5,0,5,0,,,,,0,11,11,19,,,,,,up,0.6504841298328756,3450.72099288498,None,001,13,2019_Oct_04_1109,ACPT_experiment_5_30_19,3.1.0,59.95350815287838,
,,,C,D,y,b,L,D,y,R,y,,,,,7,19,159,11,5,0,5,0,,,,,0,12,12,33,,,,,,down,0.5671127376390359,3452.6557907373435,None,001,13,2019_Oct_04_1109,ACPT_experiment_5_30_19,3.1.0,59.95350815287838,
,,,C,D,y,b,R,U,d,R,u,,,,,7,19,159,11,5,0,5,0,,,,,0,13,13,9,,,,,,up,0.40031411011250384,3454.5071749378403,None,001,13,2019_Oct_04_1109,ACPT_experiment_5_30_19,3.1.0,59.95350815287838,
,,,C,D,y,b,L,D,g,L,i,,,,,7,19,159,11,5,0,5,0,,,,,0,14,14,14,,,,,,up,0.5504093000258763,3456.2084995672913,None,001,13,2019_Oct_04_1109,ACPT_experiment_5_30_19,3.1.0,59.95350815287838,
,,,C,D,y,b,R,G,g,R,c ,,,,,7,19,159,11,5,0,5,0,,,,,0,15,15,7,,,,,,up,0.33353960078466116,3458.0432455308132,None,001,13,2019_Oct_04_1109,ACPT_experiment_5_30_19,3.1.0,59.95350815287838,
,,,C,D,y,b,R,U,y,R,u,,,,,7,19,159,11,5,0,5,0,,,,,0,16,16,31,,,,,,down,0.7839265937404889,3459.6611079097734,None,001,13,2019_Oct_04_1109,ACPT_experiment_5_30_19,3.1.0,59.95350815287838,
,,,C,D,y,b,R,D,d,R,c ,,,,,7,19,159,11,5,0,5,0,,,,,0,17,17,1,,,,,,up,0.4003056581777855,3461.7293418870936,None,001,13,2019_Oct_04_1109,ACPT_experiment_5_30_19,3.1.0,59.95350815287838,
,,,C,D,y,b,L,D,d,R,c ,,,,,7,19,159,11,5,0,5,0,,,,,0,18,18,13,,,,,,up,0.36667480668438657,3463.4309022651487,None,001,13,2019_Oct_04_1109,ACPT_experiment_5_30_19,3.1.0,59.95350815287838,
,,,C,D,y,b,L,D,d,L,c ,,,,,7,19,159,11,5,0,5,0,,,,,0,19,19,12,,,,,,up,0.5003777712913688,3465.0652012420724,None,001,13,2019_Oct_04_1109,ACPT_experiment_5_30_19,3.1.0,59.95350815287838,
,,,C,D,y,b,R,D,d,L,c,,,,,7,19,159,11,5,0,5,0,,,,,0,20,20,0,,,,,,up,0.3836414616894217,3466.849873719041,None,001,13,2019_Oct_04_1109,ACPT_experiment_5_30_19,3.1.0,59.95350815287838,
,,,C,D,y,b,L,G,y,R,y,,,,,7,19,159,11,5,0,5,0,,,,,0,21,21,35,,,,,,down,0.3335755215066456,3468.5345066832165,None,001,13,2019_Oct_04_1109,ACPT_experiment_5_30_19,3.1.0,59.95350815287838,
,,,C,D,y,b,R,G,g,L,c ,,,,,7,19,159,11,5,0,5,0,,,,,0,22,22,6,,,,,,up,0.38358803338860525,3470.18578770974,None,001,13,2019_Oct_04_1109,ACPT_experiment_5_30_19,3.1.0,59.95350815287838,
,,,C,D,y,b,R,D,g,R,i,,,,,7,19,159,11,5,0,5,0,,,,,0,23,23,3,,,,,,up,0.3836468950762537,3471.8536647135656,None,001,13,2019_Oct_04_1109,ACPT_experiment_5_30_19,3.1.0,59.95350815287838,
,,,C,D,y,b,L,G,y,L,y,,,,,7,19,159,11,5,0,5,0,,,,,0,24,24,34,,,,,,down,0.41697589176192196,3473.521624123753,None,001,13,2019_Oct_04_1109,ACPT_experiment_5_30_19,3.1.0,59.95350815287838,
,,,C,D,y,b,L,G,d,R,i,,,,,7,19,159,11,5,0,5,0,,,,,0,25,25,17,,,,,,up,0.48367886150026607,3475.2229273215125,None,001,13,2019_Oct_04_1109,ACPT_experiment_5_30_19,3.1.0,59.95350815287838,
,,,C,D,y,b,L,U,d,L,u,,,,,7,19,159,11,5,0,5,0,,,,,0,26,26,20,,,,,,up,0.4334496178671543,3477.0078346415216,None,001,13,2019_Oct_04_1109,ACPT_experiment_5_30_19,3.1.0,59.95350815287838,
,,,C,D,y,b,R,D,y,L,y,,,,,7,19,159,11,5,0,5,0,,,,,0,27,27,26,,,,,,down,0.5170443826177689,3478.758933619411,None,001,13,2019_Oct_04_1109,ACPT_experiment_5_30_19,3.1.0,59.95350815287838,
