facing_vig,person_vig,text_vig,facing_train,person_train,food_train,correct_key_train,facing_exp,person_exp,food_exp,showL_R,consistent,vig_random.thisRepN,vig_random.thisTrialN,vig_random.thisN,vig_random.thisIndex,trainTrials.thisRepN,trainTrials.thisTrialN,trainTrials.thisN,trainTrials.thisIndex,expBlock.thisRepN,expBlock.thisTrialN,expBlock.thisN,expBlock.thisIndex,breakLoop.thisRepN,breakLoop.thisTrialN,breakLoop.thisN,breakLoop.thisIndex,expTrials.thisRepN,expTrials.thisTrialN,expTrials.thisN,expTrials.thisIndex,train_resp.keys,train_resp.corr,train_resp.rt,train_resp.started,train_resp.stopped,exp_resp.keys,exp_resp.rt,exp_resp.started,exp_resp.stopped,session,participant,date,expName,psychopyVersion,frameRate,
C,U,"did not report her food preferences, so her food preferences are unknown.",,,,,,,,,,0,0,0,2,,,,,,,,,,,,,,,,,,,,,,,,,,001,14,2019_Oct_07_1559,ACPT_experiment_5_30_19,3.1.0,59.95274755483811,
C,D,"is allergic to gluten, meaning she can’t eat wheat products. She enjoys eating dairy products. She thinks eating insects, like crickets, is disgusting.",,,,,,,,,,0,1,1,1,,,,,,,,,,,,,,,,,,,,,,,,,,001,14,2019_Oct_07_1559,ACPT_experiment_5_30_19,3.1.0,59.95274755483811,
C,G,"cannot eat dairy products because she is lactose intolerant. She enjoys eating wheat products. She thinks eating insects, like crickets, is disgusting.",,,,,,,,,,0,2,2,0,,,,,,,,,,,,,,,,,,,,,,,,,,001,14,2019_Oct_07_1559,ACPT_experiment_5_30_19,3.1.0,59.95274755483811,
,,,C,U,g,n,,,,,,,,,,0,0,0,7,,,,,,,,,,,,,n,1,4.553583961232107,6707.177847078566,None,,,,,001,14,2019_Oct_07_1559,ACPT_experiment_5_30_19,3.1.0,59.95274755483811,
,,,C,U,y,n,,,,,,,,,,0,1,1,8,,,,,,,,,,,,,v,0,3.769636494864244,6715.017325968305,None,,,,,001,14,2019_Oct_07_1559,ACPT_experiment_5_30_19,3.1.0,59.95274755483811,
,,,C,G,d,b,,,,,,,,,,0,2,2,12,,,,,,,,,,,,,n,0,3.7529429272699417,6722.072858900988,None,,,,,001,14,2019_Oct_07_1559,ACPT_experiment_5_30_19,3.1.0,59.95274755483811,
,,,C,G,g,v,,,,,,,,,,0,3,3,13,,,,,,,,,,,,,n,0,3.802991934550846,6729.0950240176435,None,,,,,001,14,2019_Oct_07_1559,ACPT_experiment_5_30_19,3.1.0,59.95274755483811,
,,,C,U,d,n,,,,,,,,,,0,4,4,15,,,,,,,,,,,,,b,0,6.988871256799939,6736.183880996374,None,,,,,001,14,2019_Oct_07_1559,ACPT_experiment_5_30_19,3.1.0,59.95274755483811,
,,,C,G,y,b,,,,,,,,,,0,5,5,14,,,,,,,,,,,,,v,0,1.4678032572710435,6746.475316600323,None,,,,,001,14,2019_Oct_07_1559,ACPT_experiment_5_30_19,3.1.0,59.95274755483811,
,,,C,D,d,v,,,,,,,,,,0,6,6,18,,,,,,,,,,,,,b,0,2.1016489810799612,6751.229030482922,None,,,,,001,14,2019_Oct_07_1559,ACPT_experiment_5_30_19,3.1.0,59.95274755483811,
,,,C,D,y,b,,,,,,,,,,0,7,7,2,,,,,,,,,,,,,v,0,1.7847727568414484,6756.599885654707,None,,,,,001,14,2019_Oct_07_1559,ACPT_experiment_5_30_19,3.1.0,59.95274755483811,
,,,C,U,y,n,,,,,,,,,,0,8,8,17,,,,,,,,,,,,,n,1,1.167600979601957,6761.670546699095,None,,,,,001,14,2019_Oct_07_1559,ACPT_experiment_5_30_19,3.1.0,59.95274755483811,
,,,C,D,g,b,,,,,,,,,,0,9,9,1,,,,,,,,,,,,,b,1,4.853587915622484,6766.140957741445,None,,,,,001,14,2019_Oct_07_1559,ACPT_experiment_5_30_19,3.1.0,59.95274755483811,
,,,C,G,g,v,,,,,,,,,,0,10,10,19,,,,,,,,,,,,,v,1,4.036509594831841,6774.280427605514,None,,,,,001,14,2019_Oct_07_1559,ACPT_experiment_5_30_19,3.1.0,59.95274755483811,
,,,C,U,g,n,,,,,,,,,,0,11,11,16,,,,,,,,,,,,,v,0,2.785535863761652,6781.602826393478,None,,,,,001,14,2019_Oct_07_1559,ACPT_experiment_5_30_19,3.1.0,59.95274755483811,
,,,C,U,d,n,,,,,,,,,,0,12,12,6,,,,,,,,,,,,,v,0,3.4193583442029194,6787.657573881458,None,,,,,001,14,2019_Oct_07_1559,ACPT_experiment_5_30_19,3.1.0,59.95274755483811,
,,,C,G,g,v,,,,,,,,,,0,13,13,4,,,,,,,,,,,,,n,0,0.884043669759194,6794.362825946722,None,,,,,001,14,2019_Oct_07_1559,ACPT_experiment_5_30_19,3.1.0,59.95274755483811,
,,,C,G,y,b,,,,,,,,,,0,14,14,5,,,,,,,,,,,,,v,0,1.4478287525289488,6798.552766217305,None,,,,,001,14,2019_Oct_07_1559,ACPT_experiment_5_30_19,3.1.0,59.95274755483811,
,,,C,D,d,v,,,,,,,,,,0,15,15,0,,,,,,,,,,,,,b,0,0.8173433555521115,6803.286485370413,None,,,,,001,14,2019_Oct_07_1559,ACPT_experiment_5_30_19,3.1.0,59.95274755483811,
,,,C,D,y,b,,,,,,,,,,0,16,16,11,,,,,,,,,,,,,v,0,1.264361005115461,6807.4097177802405,None,,,,,001,14,2019_Oct_07_1559,ACPT_experiment_5_30_19,3.1.0,59.95274755483811,
,,,C,G,d,b,,,,,,,,,,0,17,17,3,,,,,,,,,,,,,v,0,0.96743030687594,6811.95995409284,None,,,,,001,14,2019_Oct_07_1559,ACPT_experiment_5_30_19,3.1.0,59.95274755483811,
,,,C,D,d,v,,,,,,,,,,0,18,18,9,,,,,,,,,,,,,v,1,3.53567117336479,6816.230390672708,None,,,,,001,14,2019_Oct_07_1559,ACPT_experiment_5_30_19,3.1.0,59.95274755483811,
,,,C,D,g,b,,,,,,,,,,0,19,19,10,,,,,,,,,,,,,n,0,6.6051875573730285,6823.035290676421,None,,,,,001,14,2019_Oct_07_1559,ACPT_experiment_5_30_19,3.1.0,59.95274755483811,
,,,C,G,d,b,,,,,,,,,,1,0,20,3,,,,,,,,,,,,,b,1,3.6195281113441524,6832.926376784645,None,,,,,001,14,2019_Oct_07_1559,ACPT_experiment_5_30_19,3.1.0,59.95274755483811,
,,,C,D,y,b,,,,,,,,,,1,1,21,11,,,,,,,,,,,,,b,1,5.604450712438847,6839.831762695482,None,,,,,001,14,2019_Oct_07_1559,ACPT_experiment_5_30_19,3.1.0,59.95274755483811,
,,,C,D,g,b,,,,,,,,,,1,2,22,10,,,,,,,,,,,,,b,1,4.37012919388053,6848.705388506849,None,,,,,001,14,2019_Oct_07_1559,ACPT_experiment_5_30_19,3.1.0,59.95274755483811,
,,,C,U,g,n,,,,,,,,,,1,3,23,16,,,,,,,,,,,,,v,0,1.6513084355610772,6856.361411723653,None,,,,,001,14,2019_Oct_07_1559,ACPT_experiment_5_30_19,3.1.0,59.95274755483811,
,,,C,D,d,v,,,,,,,,,,1,4,24,9,,,,,,,,,,,,,v,1,2.2517812116911955,6861.29860995607,None,,,,,001,14,2019_Oct_07_1559,ACPT_experiment_5_30_19,3.1.0,59.95274755483811,
,,,C,G,d,b,,,,,,,,,,1,5,25,12,,,,,,,,,,,,,b,1,8.273174165570708,6866.836283681375,None,,,,,001,14,2019_Oct_07_1559,ACPT_experiment_5_30_19,3.1.0,59.95274755483811,
,,,C,G,g,v,,,,,,,,,,1,6,26,13,,,,,,,,,,,,,v,1,2.5187201175576774,6878.3786619246175,None,,,,,001,14,2019_Oct_07_1559,ACPT_experiment_5_30_19,3.1.0,59.95274755483811,
,,,C,G,y,b,,,,,,,,,,1,7,27,14,,,,,,,,,,,,,v,0,2.368595433493283,6884.166527860497,None,,,,,001,14,2019_Oct_07_1559,ACPT_experiment_5_30_19,3.1.0,59.95274755483811,
,,,C,U,d,n,,,,,,,,,,1,8,28,6,,,,,,,,,,,,,b,0,4.60361455493603,6889.820979282312,None,,,,,001,14,2019_Oct_07_1559,ACPT_experiment_5_30_19,3.1.0,59.95274755483811,
,,,C,G,g,v,,,,,,,,,,1,9,29,4,,,,,,,,,,,,,v,1,2.652108973358736,6897.710477898727,None,,,,,001,14,2019_Oct_07_1559,ACPT_experiment_5_30_19,3.1.0,59.95274755483811,
,,,C,U,g,n,,,,,,,,,,1,10,30,7,,,,,,,,,,,,,v,0,2.5186552172453958,6903.648461575846,None,,,,,001,14,2019_Oct_07_1559,ACPT_experiment_5_30_19,3.1.0,59.95274755483811,
,,,C,D,d,v,,,,,,,,,,1,11,31,18,,,,,,,,,,,,,b,0,6.021406839527117,6909.453009910429,None,,,,,001,14,2019_Oct_07_1559,ACPT_experiment_5_30_19,3.1.0,59.95274755483811,
,,,C,U,y,n,,,,,,,,,,1,12,32,8,,,,,,,,,,,,,v,0,1.7180232391410755,6918.760303830054,None,,,,,001,14,2019_Oct_07_1559,ACPT_experiment_5_30_19,3.1.0,59.95274755483811,
,,,C,D,y,b,,,,,,,,,,1,13,33,2,,,,,,,,,,,,,v,0,2.3018419915888444,6923.764219884671,None,,,,,001,14,2019_Oct_07_1559,ACPT_experiment_5_30_19,3.1.0,59.95274755483811,
,,,C,D,d,v,,,,,,,,,,1,14,34,0,,,,,,,,,,,,,b,0,5.721184337109662,6929.335230032363,None,,,,,001,14,2019_Oct_07_1559,ACPT_experiment_5_30_19,3.1.0,59.95274755483811,
,,,C,U,d,n,,,,,,,,,,1,15,35,15,,,,,,,,,,,,,v,0,1.4177953032103687,6938.342308392395,None,,,,,001,14,2019_Oct_07_1559,ACPT_experiment_5_30_19,3.1.0,59.95274755483811,
,,,C,G,g,v,,,,,,,,,,1,16,36,19,,,,,,,,,,,,,v,1,1.3508009754968953,6943.062946963164,None,,,,,001,14,2019_Oct_07_1559,ACPT_experiment_5_30_19,3.1.0,59.95274755483811,
,,,C,G,y,b,,,,,,,,,,1,17,37,5,,,,,,,,,,,,,v,0,4.219976436658726,6947.682980693214,None,,,,,001,14,2019_Oct_07_1559,ACPT_experiment_5_30_19,3.1.0,59.95274755483811,
,,,C,D,g,b,,,,,,,,,,1,18,38,1,,,,,,,,,,,,,v,0,1.3343923655502294,6955.1888423988,None,,,,,001,14,2019_Oct_07_1559,ACPT_experiment_5_30_19,3.1.0,59.95274755483811,
,,,C,U,y,n,,,,,,,,,,1,19,39,17,,,,,,,,,,,,,b,0,2.668784429238258,6959.825818430662,None,,,,,001,14,2019_Oct_07_1559,ACPT_experiment_5_30_19,3.1.0,59.95274755483811,
,,,C,G,g,v,,,,,,,,,,2,0,40,13,,,,,,,,,,,,,v,1,1.617937902778067,6965.780489336275,None,,,,,001,14,2019_Oct_07_1559,ACPT_experiment_5_30_19,3.1.0,59.95274755483811,
,,,C,U,d,n,,,,,,,,,,2,1,41,15,,,,,,,,,,,,,v,0,2.251782721001291,6970.6843152247375,None,,,,,001,14,2019_Oct_07_1559,ACPT_experiment_5_30_19,3.1.0,59.95274755483811,
,,,C,D,y,b,,,,,,,,,,2,2,42,11,,,,,,,,,,,,,b,1,3.002360560170928,6976.221989251905,None,,,,,001,14,2019_Oct_07_1559,ACPT_experiment_5_30_19,3.1.0,59.95274755483811,
,,,C,D,d,v,,,,,,,,,,2,3,43,18,,,,,,,,,,,,,b,0,3.4360461764208594,6982.510247457341,None,,,,,001,14,2019_Oct_07_1559,ACPT_experiment_5_30_19,3.1.0,59.95274755483811,
,,,C,U,y,n,,,,,,,,,,2,4,44,17,,,,,,,,,,,,,b,0,3.2692191707674283,6989.2322018441955,None,,,,,001,14,2019_Oct_07_1559,ACPT_experiment_5_30_19,3.1.0,59.95274755483811,
,,,C,U,y,n,,,,,,,,,,2,5,45,8,,,,,,,,,,,,,v,0,5.003964050661125,6995.770613320019,None,,,,,001,14,2019_Oct_07_1559,ACPT_experiment_5_30_19,3.1.0,59.95274755483811,
,,,C,D,g,b,,,,,,,,,,2,6,46,10,,,,,,,,,,,,,b,1,3.3192902139689977,7004.060466865674,None,,,,,001,14,2019_Oct_07_1559,ACPT_experiment_5_30_19,3.1.0,59.95274755483811,
,,,C,G,y,b,,,,,,,,,,2,7,47,14,,,,,,,,,,,,,b,1,2.718850642648249,7010.665641141122,None,,,,,001,14,2019_Oct_07_1559,ACPT_experiment_5_30_19,3.1.0,59.95274755483811,
,,,C,D,y,b,,,,,,,,,,2,8,48,2,,,,,,,,,,,,,v,0,2.5686981872886463,7016.670346564645,None,,,,,001,14,2019_Oct_07_1559,ACPT_experiment_5_30_19,3.1.0,59.95274755483811,
,,,C,G,g,v,,,,,,,,,,2,9,49,4,,,,,,,,,,,,,v,1,2.585378472958837,7022.524931530172,None,,,,,001,14,2019_Oct_07_1559,ACPT_experiment_5_30_19,3.1.0,59.95274755483811,
,,,C,D,d,v,,,,,,,,,,2,10,50,0,,,,,,,,,,,,,v,1,2.785530732108782,7028.3961979888145,None,,,,,001,14,2019_Oct_07_1559,ACPT_experiment_5_30_19,3.1.0,59.95274755483811,
,,,C,G,g,v,,,,,,,,,,2,11,51,19,,,,,,,,,,,,,v,1,3.903081798843232,7034.467620328951,None,,,,,001,14,2019_Oct_07_1559,ACPT_experiment_5_30_19,3.1.0,59.95274755483811,
,,,C,G,y,b,,,,,,,,,,2,12,52,5,,,,,,,,,,,,,v,0,2.56867343461181,7041.656603999128,None,,,,,001,14,2019_Oct_07_1559,ACPT_experiment_5_30_19,3.1.0,59.95274755483811,
,,,C,U,d,n,,,,,,,,,,2,13,53,6,,,,,,,,,,,,,v,0,3.836357939406298,7047.511170551076,None,,,,,001,14,2019_Oct_07_1559,ACPT_experiment_5_30_19,3.1.0,59.95274755483811,
,,,C,G,d,b,,,,,,,,,,2,14,54,12,,,,,,,,,,,,,b,1,3.9531081664817975,7054.633419192924,None,,,,,001,14,2019_Oct_07_1559,ACPT_experiment_5_30_19,3.1.0,59.95274755483811,
,,,C,U,g,n,,,,,,,,,,2,15,55,16,,,,,,,,,,,,,v,0,3.7196010713678334,7061.872420174881,None,,,,,001,14,2019_Oct_07_1559,ACPT_experiment_5_30_19,3.1.0,59.95274755483811,
,,,C,U,g,n,,,,,,,,,,2,16,56,7,,,,,,,,,,,,,n,1,2.1183763572089447,7068.861228644401,None,,,,,001,14,2019_Oct_07_1559,ACPT_experiment_5_30_19,3.1.0,59.95274755483811,
,,,C,D,d,v,,,,,,,,,,2,17,57,9,,,,,,,,,,,,,v,1,6.438407340316189,7074.265460084346,None,,,,,001,14,2019_Oct_07_1559,ACPT_experiment_5_30_19,3.1.0,59.95274755483811,
,,,C,D,g,b,,,,,,,,,,2,18,58,1,,,,,,,,,,,,,b,1,2.3018148240153096,7083.989749373109,None,,,,,001,14,2019_Oct_07_1559,ACPT_experiment_5_30_19,3.1.0,59.95274755483811,
,,,C,G,d,b,,,,,,,,,,2,19,59,3,,,,,,,,,,,,,n,0,3.3192835730060324,7089.577459125633,None,,,,,001,14,2019_Oct_07_1559,ACPT_experiment_5_30_19,3.1.0,59.95274755483811,
,,,C,D,g,b,,,,,,,,,,3,0,60,10,,,,,,,,,,,,,b,1,1.851525293161103,7096.182606535371,None,,,,,001,14,2019_Oct_07_1559,ACPT_experiment_5_30_19,3.1.0,59.95274755483811,
,,,C,D,y,b,,,,,,,,,,3,1,61,2,,,,,,,,,,,,,n,0,2.9523293627416933,7101.303307229321,None,,,,,001,14,2019_Oct_07_1559,ACPT_experiment_5_30_19,3.1.0,59.95274755483811,
,,,C,D,d,v,,,,,,,,,,3,2,62,9,,,,,,,,,,,,,v,1,5.954678452160806,7107.524850631178,None,,,,,001,14,2019_Oct_07_1559,ACPT_experiment_5_30_19,3.1.0,59.95274755483811,
,,,C,G,d,b,,,,,,,,,,3,3,63,3,,,,,,,,,,,,,b,1,3.8030284598435173,7116.765417370885,None,,,,,001,14,2019_Oct_07_1559,ACPT_experiment_5_30_19,3.1.0,59.95274755483811,
,,,C,G,y,b,,,,,,,,,,3,4,64,14,,,,,,,,,,,,,v,0,3.7529794525617035,7123.837622438966,None,,,,,001,14,2019_Oct_07_1559,ACPT_experiment_5_30_19,3.1.0,59.95274755483811,
,,,C,G,g,v,,,,,,,,,,3,5,65,4,,,,,,,,,,,,,v,1,5.8546142461318595,7130.859791781689,None,,,,,001,14,2019_Oct_07_1559,ACPT_experiment_5_30_19,3.1.0,59.95274755483811,
,,,C,U,y,n,,,,,,,,,,3,6,66,17,,,,,,,,,,,,,n,1,5.32085114192796,7140.000286466957,None,,,,,001,14,2019_Oct_07_1559,ACPT_experiment_5_30_19,3.1.0,59.95274755483811,
,,,C,U,d,n,,,,,,,,,,3,7,67,15,,,,,,,,,,,,,v,0,2.6687780901374936,7148.607024990846,None,,,,,001,14,2019_Oct_07_1559,ACPT_experiment_5_30_19,3.1.0,59.95274755483811,
,,,C,G,y,b,,,,,,,,,,3,8,68,5,,,,,,,,,,,,,n,0,3.1190887513266716,7154.561726988236,None,,,,,001,14,2019_Oct_07_1559,ACPT_experiment_5_30_19,3.1.0,59.95274755483811,
,,,C,D,d,v,,,,,,,,,,3,9,69,18,,,,,,,,,,,,,v,1,1.6346372057487315,7160.966698291733,None,,,,,001,14,2019_Oct_07_1559,ACPT_experiment_5_30_19,3.1.0,59.95274755483811,
,,,C,D,d,v,,,,,,,,,,3,10,70,0,,,,,,,,,,,,,v,1,3.0524077562813545,7165.887223483167,None,,,,,001,14,2019_Oct_07_1559,ACPT_experiment_5_30_19,3.1.0,59.95274755483811,
,,,C,U,g,n,,,,,,,,,,3,11,71,7,,,,,,,,,,,,,v,0,6.171517637942088,7172.2255195269945,None,,,,,001,14,2019_Oct_07_1559,ACPT_experiment_5_30_19,3.1.0,59.95274755483811,
,,,C,U,g,n,,,,,,,,,,3,12,72,16,,,,,,,,,,,,,n,1,1.8014364401060448,7181.666238827714,None,,,,,001,14,2019_Oct_07_1559,ACPT_experiment_5_30_19,3.1.0,59.95274755483811,
,,,C,D,y,b,,,,,,,,,,3,13,73,11,,,,,,,,,,,,,n,0,2.785558805267101,7186.753571705638,None,,,,,001,14,2019_Oct_07_1559,ACPT_experiment_5_30_19,3.1.0,59.95274755483811,
,,,C,D,g,b,,,,,,,,,,3,14,74,1,,,,,,,,,,,,,b,1,2.185064898802011,7192.808305911694,None,,,,,001,14,2019_Oct_07_1559,ACPT_experiment_5_30_19,3.1.0,59.95274755483811,
,,,C,U,d,n,,,,,,,,,,3,15,75,6,,,,,,,,,,,,,v,0,2.935678357677716,7198.279253362666,None,,,,,001,14,2019_Oct_07_1559,ACPT_experiment_5_30_19,3.1.0,59.95274755483811,
,,,C,U,y,n,,,,,,,,,,3,16,76,8,,,,,,,,,,,,,n,1,4.386794386454312,7204.48411436582,None,,,,,001,14,2019_Oct_07_1559,ACPT_experiment_5_30_19,3.1.0,59.95274755483811,
,,,C,G,g,v,,,,,,,,,,3,17,77,13,,,,,,,,,,,,,v,1,6.6051902741292,7212.156790700721,None,,,,,001,14,2019_Oct_07_1559,ACPT_experiment_5_30_19,3.1.0,59.95274755483811,
,,,C,G,d,b,,,,,,,,,,3,18,78,12,,,,,,,,,,,,,n,0,9.757652576859073,7222.031190486037,None,,,,,001,14,2019_Oct_07_1559,ACPT_experiment_5_30_19,3.1.0,59.95274755483811,
,,,C,G,g,v,,,,,,,,,,3,19,79,19,,,,,,,,,,,,,v,1,1.5512659635905948,7235.058051668497,None,,,,,001,14,2019_Oct_07_1559,ACPT_experiment_5_30_19,3.1.0,59.95274755483811,
,,,C,G,y,b,,,,,,,,,,4,0,80,14,,,,,,,,,,,,,n,0,2.4018959343120514,7239.895176035304,None,,,,,001,14,2019_Oct_07_1559,ACPT_experiment_5_30_19,3.1.0,59.95274755483811,
,,,C,D,d,v,,,,,,,,,,4,1,81,9,,,,,,,,,,,,,v,1,2.6020635884196963,7245.582957540405,None,,,,,001,14,2019_Oct_07_1559,ACPT_experiment_5_30_19,3.1.0,59.95274755483811,
,,,C,U,g,n,,,,,,,,,,4,2,82,16,,,,,,,,,,,,,n,1,2.485311248310609,7251.470904888442,None,,,,,001,14,2019_Oct_07_1559,ACPT_experiment_5_30_19,3.1.0,59.95274755483811,
,,,C,D,g,b,,,,,,,,,,4,3,83,10,,,,,,,,,,,,,v,0,1.267695975546303,7257.242092047961,None,,,,,001,14,2019_Oct_07_1559,ACPT_experiment_5_30_19,3.1.0,59.95274755483811,
,,,C,G,g,v,,,,,,,,,,4,4,84,4,,,,,,,,,,,,,n,0,1.6510497399003725,7261.812600803013,None,,,,,001,14,2019_Oct_07_1559,ACPT_experiment_5_30_19,3.1.0,59.95274755483811,
,,,C,G,g,v,,,,,,,,,,4,5,85,19,,,,,,,,,,,,,n,0,3.636228621761802,7266.73283952749,None,,,,,001,14,2019_Oct_07_1559,ACPT_experiment_5_30_19,3.1.0,59.95274755483811,
,,,C,U,g,n,,,,,,,,,,4,6,86,7,,,,,,,,,,,,,v,0,7.339106543067828,7273.654946475354,None,,,,,001,14,2019_Oct_07_1559,ACPT_experiment_5_30_19,3.1.0,59.95274755483811,
,,,C,D,g,b,,,,,,,,,,4,7,87,1,,,,,,,,,,,,,b,1,5.287520153055993,7284.279930137079,None,,,,,001,14,2019_Oct_07_1559,ACPT_experiment_5_30_19,3.1.0,59.95274755483811,
,,,C,D,y,b,,,,,,,,,,4,8,88,2,,,,,,,,,,,,,n,0,1.6179659759363858,7292.836607277348,None,,,,,001,14,2019_Oct_07_1559,ACPT_experiment_5_30_19,3.1.0,59.95274755483811,
,,,C,D,d,v,,,,,,,,,,4,9,89,18,,,,,,,,,,,,,v,1,2.8022276201836576,7297.740467578068,None,,,,,001,14,2019_Oct_07_1559,ACPT_experiment_5_30_19,3.1.0,59.95274755483811,
,,,C,U,y,n,,,,,,,,,,4,10,90,8,,,,,,,,,,,,,v,0,2.218415508698854,7303.845263469607,None,,,,,001,14,2019_Oct_07_1559,ACPT_experiment_5_30_19,3.1.0,59.95274755483811,
,,,C,U,d,n,,,,,,,,,,4,11,91,6,,,,,,,,,,,,,v,0,1.5845869910190231,7309.3495603230285,None,,,,,001,14,2019_Oct_07_1559,ACPT_experiment_5_30_19,3.1.0,59.95274755483811,
,,,C,D,y,b,,,,,,,,,,4,12,92,11,,,,,,,,,,,,,v,0,4.503541594912349,7314.220034092285,None,,,,,001,14,2019_Oct_07_1559,ACPT_experiment_5_30_19,3.1.0,59.95274755483811,
,,,C,G,y,b,,,,,,,,,,4,13,93,5,,,,,,,,,,,,,v,0,5.921320295716214,7322.009466087776,None,,,,,001,14,2019_Oct_07_1559,ACPT_experiment_5_30_19,3.1.0,59.95274755483811,
,,,C,G,d,b,,,,,,,,,,4,14,94,3,,,,,,,,,,,,,n,0,3.2025206677308233,7331.199996498402,None,,,,,001,14,2019_Oct_07_1559,ACPT_experiment_5_30_19,3.1.0,59.95274755483811,
,,,C,U,d,n,,,,,,,,,,4,15,95,15,,,,,,,,,,,,,n,1,4.636980257928371,7337.688410283469,None,,,,,001,14,2019_Oct_07_1559,ACPT_experiment_5_30_19,3.1.0,59.95274755483811,
,,,C,U,y,n,,,,,,,,,,4,16,96,17,,,,,,,,,,,,,v,0,2.4519367913226233,7345.594596430242,None,,,,,001,14,2019_Oct_07_1559,ACPT_experiment_5_30_19,3.1.0,59.95274755483811,
,,,C,G,d,b,,,,,,,,,,4,17,97,12,,,,,,,,,,,,,b,1,4.036509594831841,7351.332421810972,None,,,,,001,14,2019_Oct_07_1559,ACPT_experiment_5_30_19,3.1.0,59.95274755483811,
,,,C,G,g,v,,,,,,,,,,4,18,98,13,,,,,,,,,,,,,v,1,2.2851342364838274,7358.654826334313,None,,,,,001,14,2019_Oct_07_1559,ACPT_experiment_5_30_19,3.1.0,59.95274755483811,
,,,C,D,d,v,,,,,,,,,,4,19,99,0,,,,,,,,,,,,,v,1,4.436816829888812,7364.225852178824,None,,,,,001,14,2019_Oct_07_1559,ACPT_experiment_5_30_19,3.1.0,59.95274755483811,
,,,C,D,g,b,,,,,,,,,,5,0,100,10,,,,,,,,,,,,,b,1,2.068298974906611,7371.931882444103,None,,,,,001,14,2019_Oct_07_1559,ACPT_experiment_5_30_19,3.1.0,59.95274755483811,
,,,C,G,d,b,,,,,,,,,,5,1,101,12,,,,,,,,,,,,,n,0,11.392269557860345,7377.28607483821,None,,,,,001,14,2019_Oct_07_1559,ACPT_experiment_5_30_19,3.1.0,59.95274755483811,
,,,C,U,d,n,,,,,,,,,,5,2,102,6,,,,,,,,,,,,,v,0,3.7029262192127135,7391.947550284913,None,,,,,001,14,2019_Oct_07_1559,ACPT_experiment_5_30_19,3.1.0,59.95274755483811,
,,,C,U,d,n,,,,,,,,,,5,3,103,15,,,,,,,,,,,,,v,0,6.905433906880717,7398.936352717195,None,,,,,001,14,2019_Oct_07_1559,ACPT_experiment_5_30_19,3.1.0,59.95274755483811,
,,,C,G,g,v,,,,,,,,,,5,4,104,13,,,,,,,,,,,,,v,1,4.887176694569462,7409.127668572522,None,,,,,001,14,2019_Oct_07_1559,ACPT_experiment_5_30_19,3.1.0,59.95274755483811,
,,,C,G,d,b,,,,,,,,,,5,5,105,3,,,,,,,,,,,,,n,0,2.6854598851168703,7417.2840647397215,None,,,,,001,14,2019_Oct_07_1559,ACPT_experiment_5_30_19,3.1.0,59.95274755483811,
,,,C,D,d,v,,,,,,,,,,5,6,106,18,,,,,,,,,,,,,v,1,2.4352885030157267,7423.255393895084,None,,,,,001,14,2019_Oct_07_1559,ACPT_experiment_5_30_19,3.1.0,59.95274755483811,
,,,C,U,g,n,,,,,,,,,,5,7,107,7,,,,,,,,,,,,,v,0,6.05475744942396,7428.976537782698,None,,,,,001,14,2019_Oct_07_1559,ACPT_experiment_5_30_19,3.1.0,59.95274755483811,
,,,C,U,g,n,,,,,,,,,,5,8,108,16,,,,,,,,,,,,,n,1,2.0015959439415383,7438.300490555797,None,,,,,001,14,2019_Oct_07_1559,ACPT_experiment_5_30_19,3.1.0,59.95274755483811,
,,,C,G,y,b,,,,,,,,,,5,9,109,14,,,,,,,,,,,,,v,0,2.9856887266350896,7443.587977504043,None,,,,,001,14,2019_Oct_07_1559,ACPT_experiment_5_30_19,3.1.0,59.95274755483811,
,,,C,D,d,v,,,,,,,,,,5,10,110,0,,,,,,,,,,,,,v,1,1.2176285546875079,7449.859555121948,None,,,,,001,14,2019_Oct_07_1559,ACPT_experiment_5_30_19,3.1.0,59.95274755483811,
,,,C,D,y,b,,,,,,,,,,5,11,111,11,,,,,,,,,,,,,v,0,6.0347512491798625,7454.383101407793,None,,,,,001,14,2019_Oct_07_1559,ACPT_experiment_5_30_19,3.1.0,59.95274755483811,
,,,C,G,g,v,,,,,,,,,,5,12,112,4,,,,,,,,,,,,,v,1,3.5861590878694187,7463.703723738391,None,,,,,001,14,2019_Oct_07_1559,ACPT_experiment_5_30_19,3.1.0,59.95274755483811,
,,,C,U,y,n,,,,,,,,,,5,13,113,17,,,,,,,,,,,,,b,0,6.905427869643063,7470.575765076569,None,,,,,001,14,2019_Oct_07_1559,ACPT_experiment_5_30_19,3.1.0,59.95274755483811,
,,,C,G,y,b,,,,,,,,,,5,14,114,5,,,,,,,,,,,,,v,0,3.0023723327858534,7480.767072781625,None,,,,,001,14,2019_Oct_07_1559,ACPT_experiment_5_30_19,3.1.0,59.95274755483811,
,,,C,U,y,n,,,,,,,,,,5,15,115,8,,,,,,,,,,,,,n,1,2.268458780605215,7487.055332496371,None,,,,,001,14,2019_Oct_07_1559,ACPT_experiment_5_30_19,3.1.0,59.95274755483811,
,,,C,D,g,b,,,,,,,,,,5,16,116,1,,,,,,,,,,,,,b,1,1.1842842838914294,7492.609681073832,None,,,,,001,14,2019_Oct_07_1559,ACPT_experiment_5_30_19,3.1.0,59.95274755483811,
,,,C,G,g,v,,,,,,,,,,5,17,117,19,,,,,,,,,,,,,v,1,1.7178122376626561,7497.096778740952,None,,,,,001,14,2019_Oct_07_1559,ACPT_experiment_5_30_19,3.1.0,59.95274755483811,
,,,C,D,y,b,,,,,,,,,,5,18,118,2,,,,,,,,,,,,,n,0,1.9848996595901554,7502.100447268799,None,,,,,001,14,2019_Oct_07_1559,ACPT_experiment_5_30_19,3.1.0,59.95274755483811,
,,,C,D,d,v,,,,,,,,,,5,19,119,9,,,,,,,,,,,,,n,0,2.218455052610807,7507.354534101793,None,,,,,001,14,2019_Oct_07_1559,ACPT_experiment_5_30_19,3.1.0,59.95274755483811,
,,,C,U,y,n,,,,,,,,,,6,0,120,17,,,,,,,,,,,,,v,0,4.753745578100279,7512.858864160025,None,,,,,001,14,2019_Oct_07_1559,ACPT_experiment_5_30_19,3.1.0,59.95274755483811,
,,,C,G,y,b,,,,,,,,,,6,1,121,5,,,,,,,,,,,,,v,0,5.020631959991988,7520.898490177263,None,,,,,001,14,2019_Oct_07_1559,ACPT_experiment_5_30_19,3.1.0,59.95274755483811,
,,,C,D,d,v,,,,,,,,,,6,2,122,0,,,,,,,,,,,,,n,0,7.35581822237782,7529.204964843652,None,,,,,001,14,2019_Oct_07_1559,ACPT_experiment_5_30_19,3.1.0,59.95274755483811,
,,,C,U,y,n,,,,,,,,,,6,3,123,8,,,,,,,,,,,,,n,1,1.2175081117839,7539.846654751171,None,,,,,001,14,2019_Oct_07_1559,ACPT_experiment_5_30_19,3.1.0,59.95274755483811,
,,,C,U,g,n,,,,,,,,,,6,4,124,7,,,,,,,,,,,,,v,0,2.665437082468088,7544.370193490468,None,,,,,001,14,2019_Oct_07_1559,ACPT_experiment_5_30_19,3.1.0,59.95274755483811,
,,,C,G,g,v,,,,,,,,,,6,5,125,4,,,,,,,,,,,,,b,0,3.853030980390031,7550.321520369793,None,,,,,001,14,2019_Oct_07_1559,ACPT_experiment_5_30_19,3.1.0,59.95274755483811,
,,,C,U,d,n,,,,,,,,,,6,6,126,6,,,,,,,,,,,,,v,0,1.3844314113885048,7557.460445674968,None,,,,,001,14,2019_Oct_07_1559,ACPT_experiment_5_30_19,3.1.0,59.95274755483811,
,,,C,D,g,b,,,,,,,,,,6,7,127,1,,,,,,,,,,,,,b,1,1.1673712626852648,7562.147711901782,None,,,,,001,14,2019_Oct_07_1559,ACPT_experiment_5_30_19,3.1.0,59.95274755483811,
,,,C,D,d,v,,,,,,,,,,6,8,128,18,,,,,,,,,,,,,v,1,1.4344786074989315,7566.584247698228,None,,,,,001,14,2019_Oct_07_1559,ACPT_experiment_5_30_19,3.1.0,59.95274755483811,
,,,C,G,d,b,,,,,,,,,,6,9,129,3,,,,,,,,,,,,,b,1,4.253074086272136,7571.321562630461,None,,,,,001,14,2019_Oct_07_1559,ACPT_experiment_5_30_19,3.1.0,59.95274755483811,
,,,C,U,d,n,,,,,,,,,,6,10,130,15,,,,,,,,,,,,,n,1,2.985689934082984,7578.860523796831,None,,,,,001,14,2019_Oct_07_1559,ACPT_experiment_5_30_19,3.1.0,59.95274755483811,
,,,C,G,y,b,,,,,,,,,,6,11,131,14,,,,,,,,,,,,,b,1,7.305742953109075,7585.132097490531,None,,,,,001,14,2019_Oct_07_1559,ACPT_experiment_5_30_19,3.1.0,59.95274755483811,
,,,C,D,y,b,,,,,,,,,,6,12,132,11,,,,,,,,,,,,,v,0,3.702943123480509,7595.723717562296,None,,,,,001,14,2019_Oct_07_1559,ACPT_experiment_5_30_19,3.1.0,59.95274755483811,
,,,C,D,g,b,,,,,,,,,,6,13,133,10,,,,,,,,,,,,,b,1,1.2843810910071625,7602.695823106504,None,,,,,001,14,2019_Oct_07_1559,ACPT_experiment_5_30_19,3.1.0,59.95274755483811,
,,,C,D,d,v,,,,,,,,,,6,14,134,9,,,,,,,,,,,,,v,1,2.3682709319355126,7607.266360840299,None,,,,,001,14,2019_Oct_07_1559,ACPT_experiment_5_30_19,3.1.0,59.95274755483811,
,,,C,G,d,b,,,,,,,,,,6,15,135,12,,,,,,,,,,,,,b,1,2.0515875974597293,7612.920547831077,None,,,,,001,14,2019_Oct_07_1559,ACPT_experiment_5_30_19,3.1.0,59.95274755483811,
,,,C,U,g,n,,,,,,,,,,6,16,136,16,,,,,,,,,,,,,n,1,3.5027639986201393,7618.258024017945,None,,,,,001,14,2019_Oct_07_1559,ACPT_experiment_5_30_19,3.1.0,59.95274755483811,
,,,C,G,g,v,,,,,,,,,,6,17,137,13,,,,,,,,,,,,,v,1,2.5686915463265905,7625.04667449294,None,,,,,001,14,2019_Oct_07_1559,ACPT_experiment_5_30_19,3.1.0,59.95274755483811,
,,,C,G,g,v,,,,,,,,,,6,18,138,19,,,,,,,,,,,,,v,1,2.5353306731249177,7630.884581587691,None,,,,,001,14,2019_Oct_07_1559,ACPT_experiment_5_30_19,3.1.0,59.95274755483811,
,,,C,D,y,b,,,,,,,,,,6,19,139,2,,,,,,,,,,,,,v,0,3.285911229051635,7636.705802963258,None,,,,,001,14,2019_Oct_07_1559,ACPT_experiment_5_30_19,3.1.0,59.95274755483811,
,,,C,D,y,b,,,,,,,,,,7,0,140,2,,,,,,,,,,,,,n,0,2.26846511970507,7643.277609724542,None,,,,,001,14,2019_Oct_07_1559,ACPT_experiment_5_30_19,3.1.0,59.95274755483811,
,,,C,G,g,v,,,,,,,,,,7,1,141,19,,,,,,,,,,,,,v,1,2.0850266528977954,7648.831957396417,None,,,,,001,14,2019_Oct_07_1559,ACPT_experiment_5_30_19,3.1.0,59.95274755483811,
,,,C,U,d,n,,,,,,,,,,7,2,142,6,,,,,,,,,,,,,n,1,7.689375336010016,7654.202828265022,None,,,,,001,14,2019_Oct_07_1559,ACPT_experiment_5_30_19,3.1.0,59.95274755483811,
,,,C,G,d,b,,,,,,,,,,7,3,143,3,,,,,,,,,,,,,b,1,6.588519346179055,7665.178083738307,None,,,,,001,14,2019_Oct_07_1559,ACPT_experiment_5_30_19,3.1.0,59.95274755483811,
,,,C,U,g,n,,,,,,,,,,7,4,144,7,,,,,,,,,,,,,n,1,2.785528317212993,7675.052476580798,None,,,,,001,14,2019_Oct_07_1559,ACPT_experiment_5_30_19,3.1.0,59.95274755483811,
,,,C,G,g,v,,,,,,,,,,7,5,145,4,,,,,,,,,,,,,v,1,1.801421347010546,7681.12389982652,None,,,,,001,14,2019_Oct_07_1559,ACPT_experiment_5_30_19,3.1.0,59.95274755483811,
,,,C,U,y,n,,,,,,,,,,7,6,146,8,,,,,,,,,,,,,n,1,2.2851629133665483,7686.211209159215,None,,,,,001,14,2019_Oct_07_1559,ACPT_experiment_5_30_19,3.1.0,59.95274755483811,
,,,C,D,d,v,,,,,,,,,,7,7,147,9,,,,,,,,,,,,,v,1,1.4177910771431925,7691.78223711676,None,,,,,001,14,2019_Oct_07_1559,ACPT_experiment_5_30_19,3.1.0,59.95274755483811,
,,,C,G,y,b,,,,,,,,,,7,8,148,5,,,,,,,,,,,,,n,0,2.718786044199078,7696.50261578442,None,,,,,001,14,2019_Oct_07_1559,ACPT_experiment_5_30_19,3.1.0,59.95274755483811,
,,,C,G,y,b,,,,,,,,,,7,9,149,14,,,,,,,,,,,,,n,0,5.337526899669683,7702.5072991720235,None,,,,,001,14,2019_Oct_07_1559,ACPT_experiment_5_30_19,3.1.0,59.95274755483811,
,,,C,U,y,n,,,,,,,,,,7,10,150,17,,,,,,,,,,,,,n,1,1.9015296248790037,7711.130688399115,None,,,,,001,14,2019_Oct_07_1559,ACPT_experiment_5_30_19,3.1.0,59.95274755483811,
,,,C,D,g,b,,,,,,,,,,7,11,151,1,,,,,,,,,,,,,v,0,1.117557405835214,7716.318110839469,None,,,,,001,14,2019_Oct_07_1559,ACPT_experiment_5_30_19,3.1.0,59.95274755483811,
,,,C,D,y,b,,,,,,,,,,7,12,152,11,,,,,,,,,,,,,v,0,7.05526729419762,7720.721824888093,None,,,,,001,14,2019_Oct_07_1559,ACPT_experiment_5_30_19,3.1.0,59.95274755483811,
,,,C,G,g,v,,,,,,,,,,7,13,153,13,,,,,,,,,,,,,v,1,1.6846668938678704,7731.062978658664,None,,,,,001,14,2019_Oct_07_1559,ACPT_experiment_5_30_19,3.1.0,59.95274755483811,
,,,C,G,d,b,,,,,,,,,,7,14,154,12,,,,,,,,,,,,,v,0,1.4845122198230456,7736.016856271166,None,,,,,001,14,2019_Oct_07_1559,ACPT_experiment_5_30_19,3.1.0,59.95274755483811,
,,,C,D,g,b,,,,,,,,,,7,15,155,10,,,,,,,,,,,,,b,1,2.2517836265869846,7740.787254665503,None,,,,,001,14,2019_Oct_07_1559,ACPT_experiment_5_30_19,3.1.0,59.95274755483811,
,,,C,U,g,n,,,,,,,,,,7,16,156,16,,,,,,,,,,,,,v,0,1.851474278497335,7746.324924164741,None,,,,,001,14,2019_Oct_07_1559,ACPT_experiment_5_30_19,3.1.0,59.95274755483811,
,,,C,D,d,v,,,,,,,,,,7,17,157,18,,,,,,,,,,,,,v,1,2.1016344917088645,7751.462297295951,None,,,,,001,14,2019_Oct_07_1559,ACPT_experiment_5_30_19,3.1.0,59.95274755483811,
,,,C,U,d,n,,,,,,,,,,7,18,158,15,,,,,,,,,,,,,n,1,2.752172877524572,7756.849821584515,None,,,,,001,14,2019_Oct_07_1559,ACPT_experiment_5_30_19,3.1.0,59.95274755483811,
,,,C,D,d,v,,,,,,,,,,7,19,159,0,,,,,,,,,,,,,v,1,1.1509092231808609,7762.887889692412,None,,,,,001,14,2019_Oct_07_1559,ACPT_experiment_5_30_19,3.1.0,59.95274755483811,
,,,C,G,g,v,,,,,,,,,,8,0,160,19,,,,,,,,,,,,,v,1,2.5515608826808602,7767.341800056932,None,,,,,001,14,2019_Oct_07_1559,ACPT_experiment_5_30_19,3.1.0,59.95274755483811,
,,,C,D,d,v,,,,,,,,,,8,1,161,18,,,,,,,,,,,,,v,1,2.0182701923731656,7773.17927156494,None,,,,,001,14,2019_Oct_07_1559,ACPT_experiment_5_30_19,3.1.0,59.95274755483811,
,,,C,G,d,b,,,,,,,,,,8,2,162,12,,,,,,,,,,,,,b,1,4.003117931713859,7778.48347109808,None,,,,,001,14,2019_Oct_07_1559,ACPT_experiment_5_30_19,3.1.0,59.95274755483811,
,,,C,G,y,b,,,,,,,,,,8,3,163,14,,,,,,,,,,,,,n,0,3.78632311963338,7785.772462224245,None,,,,,001,14,2019_Oct_07_1559,ACPT_experiment_5_30_19,3.1.0,59.95274755483811,
,,,C,G,d,b,,,,,,,,,,8,4,164,3,,,,,,,,,,,,,b,1,2.201766012944063,7792.827961348393,None,,,,,001,14,2019_Oct_07_1559,ACPT_experiment_5_30_19,3.1.0,59.95274755483811,
,,,C,D,y,b,,,,,,,,,,8,5,165,11,,,,,,,,,,,,,b,1,5.837941808871619,7798.315584255245,None,,,,,001,14,2019_Oct_07_1559,ACPT_experiment_5_30_19,3.1.0,59.95274755483811,
,,,C,U,g,n,,,,,,,,,,8,6,166,16,,,,,,,,,,,,,n,1,3.652881437998076,7807.439410427457,None,,,,,001,14,2019_Oct_07_1559,ACPT_experiment_5_30_19,3.1.0,59.95274755483811,
,,,C,U,d,n,,,,,,,,,,8,7,167,15,,,,,,,,,,,,,n,1,4.0698746941016,7814.378184982793,None,,,,,001,14,2019_Oct_07_1559,ACPT_experiment_5_30_19,3.1.0,59.95274755483811,
,,,C,D,g,b,,,,,,,,,,8,8,168,1,,,,,,,,,,,,,b,1,2.185084217964686,7821.733912344734,None,,,,,001,14,2019_Oct_07_1559,ACPT_experiment_5_30_19,3.1.0,59.95274755483811,
,,,C,D,d,v,,,,,,,,,,8,9,169,0,,,,,,,,,,,,,v,1,1.5512297401601245,7827.188207583194,None,,,,,001,14,2019_Oct_07_1559,ACPT_experiment_5_30_19,3.1.0,59.95274755483811,
,,,C,G,g,v,,,,,,,,,,8,10,170,13,,,,,,,,,,,,,v,1,1.584604499010311,7832.02532229042,None,,,,,001,14,2019_Oct_07_1559,ACPT_experiment_5_30_19,3.1.0,59.95274755483811,
,,,C,D,g,b,,,,,,,,,,8,11,171,10,,,,,,,,,,,,,b,1,1.1509164678645902,7836.895800889467,None,,,,,001,14,2019_Oct_07_1559,ACPT_experiment_5_30_19,3.1.0,59.95274755483811,
,,,C,D,d,v,,,,,,,,,,8,12,172,9,,,,,,,,,,,,,v,1,2.748831869856076,7841.352625127046,None,,,,,001,14,2019_Oct_07_1559,ACPT_experiment_5_30_19,3.1.0,59.95274755483811,
,,,C,G,y,b,,,,,,,,,,8,13,173,5,,,,,,,,,,,,,v,0,1.8681452064483892,7847.387342567691,None,,,,,001,14,2019_Oct_07_1559,ACPT_experiment_5_30_19,3.1.0,59.95274755483811,
,,,C,U,y,n,,,,,,,,,,8,14,174,8,,,,,,,,,,,,,v,0,2.5186045044447383,7852.541427680074,None,,,,,001,14,2019_Oct_07_1559,ACPT_experiment_5_30_19,3.1.0,59.95274755483811,
,,,C,U,y,n,,,,,,,,,,8,15,175,17,,,,,,,,,,,,,b,0,2.5686975835651538,7858.329240488255,None,,,,,001,14,2019_Oct_07_1559,ACPT_experiment_5_30_19,3.1.0,59.95274755483811,
,,,C,G,g,v,,,,,,,,,,8,16,176,4,,,,,,,,,,,,,v,1,2.1684072527768876,7864.183821831438,None,,,,,001,14,2019_Oct_07_1559,ACPT_experiment_5_30_19,3.1.0,59.95274755483811,
,,,C,U,d,n,,,,,,,,,,8,17,177,6,,,,,,,,,,,,,v,0,7.155615854149801,7869.638094128394,None,,,,,001,14,2019_Oct_07_1559,ACPT_experiment_5_30_19,3.1.0,59.95274755483811,
,,,C,D,y,b,,,,,,,,,,8,18,178,2,,,,,,,,,,,,,b,1,3.1691519461182907,7880.079608835257,None,,,,,001,14,2019_Oct_07_1559,ACPT_experiment_5_30_19,3.1.0,59.95274755483811,
,,,C,U,g,n,,,,,,,,,,8,19,179,7,,,,,,,,,,,,,v,0,1.8680259709926759,7886.534646352165,None,,,,,001,14,2019_Oct_07_1559,ACPT_experiment_5_30_19,3.1.0,59.95274755483811,
,,,C,G,y,b,,,,,,,,,,9,0,180,14,,,,,,,,,,,,,v,0,1.7013616689109767,7891.688682562916,None,,,,,001,14,2019_Oct_07_1559,ACPT_experiment_5_30_19,3.1.0,59.95274755483811,
,,,C,U,d,n,,,,,,,,,,9,1,181,15,,,,,,,,,,,,,v,0,3.185858191913212,7896.675917124415,None,,,,,001,14,2019_Oct_07_1559,ACPT_experiment_5_30_19,3.1.0,59.95274755483811,
,,,C,D,d,v,,,,,,,,,,9,2,182,18,,,,,,,,,,,,,v,1,1.1175640467972698,7903.147648812642,None,,,,,001,14,2019_Oct_07_1559,ACPT_experiment_5_30_19,3.1.0,59.95274755483811,
,,,C,U,y,n,,,,,,,,,,9,3,183,8,,,,,,,,,,,,,n,1,1.617704563517691,7907.568024129635,None,,,,,001,14,2019_Oct_07_1559,ACPT_experiment_5_30_19,3.1.0,59.95274755483811,
,,,C,G,d,b,,,,,,,,,,9,4,184,12,,,,,,,,,,,,,b,1,2.451961544000369,7912.471613660217,None,,,,,001,14,2019_Oct_07_1559,ACPT_experiment_5_30_19,3.1.0,59.95274755483811,
,,,C,G,g,v,,,,,,,,,,9,5,185,13,,,,,,,,,,,,,v,1,3.469400408659567,7918.192759359002,None,,,,,001,14,2019_Oct_07_1559,ACPT_experiment_5_30_19,3.1.0,59.95274755483811,
,,,C,G,g,v,,,,,,,,,,9,6,186,4,,,,,,,,,,,,,v,1,1.2509933520959748,7924.931364147197,None,,,,,001,14,2019_Oct_07_1559,ACPT_experiment_5_30_19,3.1.0,59.95274755483811,
,,,C,D,d,v,,,,,,,,,,9,7,187,0,,,,,,,,,,,,,v,1,1.150493559323877,7929.485334491678,None,,,,,001,14,2019_Oct_07_1559,ACPT_experiment_5_30_19,3.1.0,59.95274755483811,
,,,C,D,g,b,,,,,,,,,,9,8,188,10,,,,,,,,,,,,,b,1,1.1675819623014831,7933.921746826601,None,,,,,001,14,2019_Oct_07_1559,ACPT_experiment_5_30_19,3.1.0,59.95274755483811,
,,,C,U,g,n,,,,,,,,,,9,9,189,16,,,,,,,,,,,,,n,1,2.701694924464391,7938.392303366395,None,,,,,001,14,2019_Oct_07_1559,ACPT_experiment_5_30_19,3.1.0,59.95274755483811,
,,,C,G,d,b,,,,,,,,,,9,10,190,3,,,,,,,,,,,,,b,1,5.487642226014941,7944.379919481354,None,,,,,001,14,2019_Oct_07_1559,ACPT_experiment_5_30_19,3.1.0,59.95274755483811,
,,,C,D,y,b,,,,,,,,,,9,11,191,11,,,,,,,,,,,,,b,1,1.918191496972213,7953.153446070709,None,,,,,001,14,2019_Oct_07_1559,ACPT_experiment_5_30_19,3.1.0,59.95274755483811,
,,,C,G,g,v,,,,,,,,,,9,12,192,19,,,,,,,,,,,,,v,1,3.385997772864357,7958.357524345919,None,,,,,001,14,2019_Oct_07_1559,ACPT_experiment_5_30_19,3.1.0,59.95274755483811,
,,,C,U,y,n,,,,,,,,,,9,13,193,17,,,,,,,,,,,,,n,1,1.2009866054813756,7965.029411613775,None,,,,,001,14,2019_Oct_07_1559,ACPT_experiment_5_30_19,3.1.0,59.95274755483811,
,,,C,U,g,n,,,,,,,,,,9,14,194,7,,,,,,,,,,,,,n,1,3.2492534200209775,7969.536264935751,None,,,,,001,14,2019_Oct_07_1559,ACPT_experiment_5_30_19,3.1.0,59.95274755483811,
,,,C,D,g,b,,,,,,,,,,9,15,195,1,,,,,,,,,,,,,b,1,1.7847425706495414,7976.07138339995,None,,,,,001,14,2019_Oct_07_1559,ACPT_experiment_5_30_19,3.1.0,59.95274755483811,
,,,C,U,d,n,,,,,,,,,,9,16,196,6,,,,,,,,,,,,,n,1,1.584584576125053,7981.1420208991085,None,,,,,001,14,2019_Oct_07_1559,ACPT_experiment_5_30_19,3.1.0,59.95274755483811,
,,,C,G,y,b,,,,,,,,,,9,17,197,5,,,,,,,,,,,,,b,1,3.702908711222335,7986.0124985925695,None,,,,,001,14,2019_Oct_07_1559,ACPT_experiment_5_30_19,3.1.0,59.95274755483811,
,,,C,D,d,v,,,,,,,,,,9,18,198,9,,,,,,,,,,,,,v,1,2.018265664444698,7993.001291667132,None,,,,,001,14,2019_Oct_07_1559,ACPT_experiment_5_30_19,3.1.0,59.95274755483811,
,,,C,D,y,b,,,,,,,,,,9,19,199,2,,,,,,,,,,,,,b,1,1.5512563040083478,7998.288770465107,None,,,,,001,14,2019_Oct_07_1559,ACPT_experiment_5_30_19,3.1.0,59.95274755483811,
,,,C,U,y,n,,,,,,,,,,10,0,200,8,,,,,,,,,,,,,n,1,2.3185026562332496,8003.125885474193,None,,,,,001,14,2019_Oct_07_1559,ACPT_experiment_5_30_19,3.1.0,59.95274755483811,
,,,C,G,d,b,,,,,,,,,,10,1,201,3,,,,,,,,,,,,,b,1,2.0182913227072277,8008.730251665297,None,,,,,001,14,2019_Oct_07_1559,ACPT_experiment_5_30_19,3.1.0,59.95274755483811,
,,,C,D,y,b,,,,,,,,,,10,2,202,11,,,,,,,,,,,,,b,1,3.1191276915142225,8014.034420408522,None,,,,,001,14,2019_Oct_07_1559,ACPT_experiment_5_30_19,3.1.0,59.95274755483811,
,,,C,G,g,v,,,,,,,,,,10,3,203,4,,,,,,,,,,,,,v,1,1.4845354631906957,8020.439435783858,None,,,,,001,14,2019_Oct_07_1559,ACPT_experiment_5_30_19,3.1.0,59.95274755483811,
,,,C,G,g,v,,,,,,,,,,10,4,204,19,,,,,,,,,,,,,v,1,1.1175586132831086,8025.193155703696,None,,,,,001,14,2019_Oct_07_1559,ACPT_experiment_5_30_19,3.1.0,59.95274755483811,
,,,C,D,d,v,,,,,,,,,,10,5,205,0,,,,,,,,,,,,,v,1,2.5684213799140707,8029.6135603012945,None,,,,,001,14,2019_Oct_07_1559,ACPT_experiment_5_30_19,3.1.0,59.95274755483811,
,,,C,D,g,b,,,,,,,,,,10,6,206,1,,,,,,,,,,,,,b,1,4.136618476424701,8035.4511634210985,None,,,,,001,14,2019_Oct_07_1559,ACPT_experiment_5_30_19,3.1.0,59.95274755483811,
,,,C,U,d,n,,,,,,,,,,10,7,207,6,,,,,,,,,,,,,n,1,1.4344731739838608,8042.873662638521,None,,,,,001,14,2019_Oct_07_1559,ACPT_experiment_5_30_19,3.1.0,59.95274755483811,
,,,C,U,g,n,,,,,,,,,,10,8,208,16,,,,,,,,,,,,,n,1,1.9679470944738569,8047.594298492532,None,,,,,001,14,2019_Oct_07_1559,ACPT_experiment_5_30_19,3.1.0,59.95274755483811,
,,,C,G,d,b,,,,,,,,,,10,9,209,12,,,,,,,,,,,,,b,1,2.6354205374173034,8052.848128441038,None,,,,,001,14,2019_Oct_07_1559,ACPT_experiment_5_30_19,3.1.0,59.95274755483811,
,,,C,G,y,b,,,,,,,,,,10,10,210,5,,,,,,,,,,,,,b,1,2.1516976865004835,8058.769431832486,None,,,,,001,14,2019_Oct_07_1559,ACPT_experiment_5_30_19,3.1.0,59.95274755483811,
,,,C,G,y,b,,,,,,,,,,10,11,211,14,,,,,,,,,,,,,b,1,1.9014964200687245,8064.207030182871,None,,,,,001,14,2019_Oct_07_1559,ACPT_experiment_5_30_19,3.1.0,59.95274755483811,
,,,C,U,y,n,,,,,,,,,,10,12,212,17,,,,,,,,,,,,,n,1,1.5512234010602697,8069.39441700352,None,,,,,001,14,2019_Oct_07_1559,ACPT_experiment_5_30_19,3.1.0,59.95274755483811,
,,,C,D,d,v,,,,,,,,,,10,13,213,9,,,,,,,,,,,,,v,1,2.935646360316241,8074.231532616331,None,,,,,001,14,2019_Oct_07_1559,ACPT_experiment_5_30_19,3.1.0,59.95274755483811,
,,,C,D,d,v,,,,,,,,,,10,14,214,18,,,,,,,,,,,,,v,1,2.902288807594232,8080.436386676661,None,,,,,001,14,2019_Oct_07_1559,ACPT_experiment_5_30_19,3.1.0,59.95274755483811,
,,,C,U,d,n,,,,,,,,,,10,15,215,15,,,,,,,,,,,,,n,1,1.3344177219514677,8086.62453992471,None,,,,,001,14,2019_Oct_07_1559,ACPT_experiment_5_30_19,3.1.0,59.95274755483811,
,,,C,D,g,b,,,,,,,,,,10,16,216,10,,,,,,,,,,,,,b,1,3.96950560753794,8091.261807857044,None,,,,,001,14,2019_Oct_07_1559,ACPT_experiment_5_30_19,3.1.0,59.95274755483811,
,,,C,U,g,n,,,,,,,,,,10,17,217,7,,,,,,,,,,,,,n,1,1.2843451694388932,8098.5172153359135,None,,,,,001,14,2019_Oct_07_1559,ACPT_experiment_5_30_19,3.1.0,59.95274755483811,
,,,C,G,g,v,,,,,,,,,,10,18,218,13,,,,,,,,,,,,,v,1,2.068016130293472,8103.104413432494,None,,,,,001,14,2019_Oct_07_1559,ACPT_experiment_5_30_19,3.1.0,59.95274755483811,
,,,C,D,y,b,,,,,,,,,,10,19,219,2,,,,,,,,,,,,,b,1,1.2176333844799956,8108.458317246609,None,,,,,001,14,2019_Oct_07_1559,ACPT_experiment_5_30_19,3.1.0,59.95274755483811,
,,,C,U,g,n,,,,,,,,,,11,0,220,16,,,,,,,,,,,,,n,1,1.0672321949023171,8112.978813217808,None,,,,,001,14,2019_Oct_07_1559,ACPT_experiment_5_30_19,3.1.0,59.95274755483811,
,,,C,G,d,b,,,,,,,,,,11,1,221,12,,,,,,,,,,,,,b,1,3.7863083284009917,8117.331949698938,None,,,,,001,14,2019_Oct_07_1559,ACPT_experiment_5_30_19,3.1.0,59.95274755483811,
,,,C,D,y,b,,,,,,,,,,11,2,222,11,,,,,,,,,,,,,b,1,1.684666893866961,8124.404125486412,None,,,,,001,14,2019_Oct_07_1559,ACPT_experiment_5_30_19,3.1.0,59.95274755483811,
,,,C,G,y,b,,,,,,,,,,11,3,223,5,,,,,,,,,,,,,b,1,1.1342588218394667,8129.374687912513,None,,,,,001,14,2019_Oct_07_1559,ACPT_experiment_5_30_19,3.1.0,59.95274755483811,
,,,C,U,d,n,,,,,,,,,,11,4,224,15,,,,,,,,,,,,,n,1,1.3172460050827794,8133.811925537911,None,,,,,001,14,2019_Oct_07_1559,ACPT_experiment_5_30_19,3.1.0,59.95274755483811,
,,,C,G,y,b,,,,,,,,,,11,5,225,14,,,,,,,,,,,,,b,1,3.2025194602829288,8138.415093035351,None,,,,,001,14,2019_Oct_07_1559,ACPT_experiment_5_30_19,3.1.0,59.95274755483811,
,,,C,G,d,b,,,,,,,,,,11,6,226,3,,,,,,,,,,,,,b,1,7.756116401576946,8144.886799065315,None,,,,,001,14,2019_Oct_07_1559,ACPT_experiment_5_30_19,3.1.0,59.95274755483811,
,,,C,D,g,b,,,,,,,,,,11,7,227,10,,,,,,,,,,,,,b,1,0.8340215281878045,8155.928796811614,None,,,,,001,14,2019_Oct_07_1559,ACPT_experiment_5_30_19,3.1.0,59.95274755483811,
,,,C,U,g,n,,,,,,,,,,11,8,228,7,,,,,,,,,,,,,n,1,1.0506137909251265,8160.065617837382,None,,,,,001,14,2019_Oct_07_1559,ACPT_experiment_5_30_19,3.1.0,59.95274755483811,
,,,C,D,d,v,,,,,,,,,,11,9,229,0,,,,,,,,,,,,,v,1,2.0849816754725907,8164.402093352005,None,,,,,001,14,2019_Oct_07_1559,ACPT_experiment_5_30_19,3.1.0,59.95274755483811,
,,,C,U,y,n,,,,,,,,,,11,10,230,17,,,,,,,,,,,,,n,1,2.018265664444698,8169.7729642206095,None,,,,,001,14,2019_Oct_07_1559,ACPT_experiment_5_30_19,3.1.0,59.95274755483811,
,,,C,U,y,n,,,,,,,,,,11,11,231,8,,,,,,,,,,,,,n,1,1.2009509857762168,8175.060435472035,None,,,,,001,14,2019_Oct_07_1559,ACPT_experiment_5_30_19,3.1.0,59.95274755483811,
,,,C,G,g,v,,,,,,,,,,11,12,232,19,,,,,,,,,,,,,v,1,2.485047420997944,8179.564204368969,None,,,,,001,14,2019_Oct_07_1559,ACPT_experiment_5_30_19,3.1.0,59.95274755483811,
,,,C,D,d,v,,,,,,,,,,11,13,233,9,,,,,,,,,,,,,v,1,3.052399002284801,8185.33514762406,None,,,,,001,14,2019_Oct_07_1559,ACPT_experiment_5_30_19,3.1.0,59.95274755483811,
,,,C,G,g,v,,,,,,,,,,11,14,234,13,,,,,,,,,,,,,v,1,1.3510702363255405,8191.673435819478,None,,,,,001,14,2019_Oct_07_1559,ACPT_experiment_5_30_19,3.1.0,59.95274755483811,
,,,C,D,g,b,,,,,,,,,,11,15,235,1,,,,,,,,,,,,,b,1,1.0670664727094845,8196.327499650593,None,,,,,001,14,2019_Oct_07_1559,ACPT_experiment_5_30_19,3.1.0,59.95274755483811,
,,,C,D,y,b,,,,,,,,,,11,16,236,2,,,,,,,,,,,,,b,1,0.7673154786043597,8200.66377865311,None,,,,,001,14,2019_Oct_07_1559,ACPT_experiment_5_30_19,3.1.0,59.95274755483811,
,,,C,G,g,v,,,,,,,,,,11,17,237,4,,,,,,,,,,,,,v,1,1.3174591195966059,8204.733907514943,None,,,,,001,14,2019_Oct_07_1559,ACPT_experiment_5_30_19,3.1.0,59.95274755483811,
,,,C,D,d,v,,,,,,,,,,11,18,238,18,,,,,,,,,,,,,v,1,3.619512414523342,8209.337260053737,None,,,,,001,14,2019_Oct_07_1559,ACPT_experiment_5_30_19,3.1.0,59.95274755483811,
,,,C,U,d,n,,,,,,,,,,11,19,239,6,,,,,,,,,,,,,n,1,0.817323432665944,8216.242655322292,None,,,,,001,14,2019_Oct_07_1559,ACPT_experiment_5_30_19,3.1.0,59.95274755483811,
,,,C,G,g,v,,,,,,,,,,12,0,240,4,,,,,,,,,,,,,v,1,2.0680445053130825,8220.36282564486,None,,,,,001,14,2019_Oct_07_1559,ACPT_experiment_5_30_19,3.1.0,59.95274755483811,
,,,C,U,y,n,,,,,,,,,,12,1,241,17,,,,,,,,,,,,,n,1,1.0008446096380794,8225.716739118556,None,,,,,001,14,2019_Oct_07_1559,ACPT_experiment_5_30_19,3.1.0,59.95274755483811,
,,,C,U,d,n,,,,,,,,,,12,2,242,6,,,,,,,,,,,,,n,1,0.9669880791698233,8230.02052600646,None,,,,,001,14,2019_Oct_07_1559,ACPT_experiment_5_30_19,3.1.0,59.95274755483811,
,,,C,D,d,v,,,,,,,,,,12,3,243,0,,,,,,,,,,,,,v,1,0.9841190446786641,8234.273436483574,None,,,,,001,14,2019_Oct_07_1559,ACPT_experiment_5_30_19,3.1.0,59.95274755483811,
,,,C,D,d,v,,,,,,,,,,12,4,244,9,,,,,,,,,,,,,v,1,0.91739760013661,8238.543445023248,None,,,,,001,14,2019_Oct_07_1559,ACPT_experiment_5_30_19,3.1.0,59.95274755483811,
,,,C,G,d,b,,,,,,,,,,12,5,245,3,,,,,,,,,,,,,b,1,1.5011922036319447,8242.746733023965,None,,,,,001,14,2019_Oct_07_1559,ACPT_experiment_5_30_19,3.1.0,59.95274755483811,
,,,C,G,d,b,,,,,,,,,,12,6,246,12,,,,,,,,,,,,,b,1,2.351853869855404,8247.517132625748,None,,,,,001,14,2019_Oct_07_1559,ACPT_experiment_5_30_19,3.1.0,59.95274755483811,
,,,C,D,g,b,,,,,,,,,,12,7,247,1,,,,,,,,,,,,,b,1,1.7180229372788745,8253.154877801768,None,,,,,001,14,2019_Oct_07_1559,ACPT_experiment_5_30_19,3.1.0,59.95274755483811,
,,,C,G,y,b,,,,,,,,,,12,8,248,14,,,,,,,,,,,,,n,0,5.737829606798186,8258.158800195484,None,,,,,001,14,2019_Oct_07_1559,ACPT_experiment_5_30_19,3.1.0,59.95274755483811,
,,,C,D,y,b,,,,,,,,,,12,9,249,11,,,,,,,,,,,,,b,1,2.2351286973189417,8267.182516882382,None,,,,,001,14,2019_Oct_07_1559,ACPT_experiment_5_30_19,3.1.0,59.95274755483811,
,,,C,U,d,n,,,,,,,,,,12,10,250,15,,,,,,,,,,,,,n,1,0.9841220632988552,8272.703505492225,None,,,,,001,14,2019_Oct_07_1559,ACPT_experiment_5_30_19,3.1.0,59.95274755483811,
,,,C,D,g,b,,,,,,,,,,12,11,251,10,,,,,,,,,,,,,b,1,1.0505688134981028,8276.990469615635,None,,,,,001,14,2019_Oct_07_1559,ACPT_experiment_5_30_19,3.1.0,59.95274755483811,
,,,C,U,g,n,,,,,,,,,,12,12,252,7,,,,,,,,,,,,,n,1,1.0174738806435926,8281.326929131576,None,,,,,001,14,2019_Oct_07_1559,ACPT_experiment_5_30_19,3.1.0,59.95274755483811,
,,,C,G,y,b,,,,,,,,,,12,13,253,5,,,,,,,,,,,,,n,0,1.8678122527562664,8285.647216093586,None,,,,,001,14,2019_Oct_07_1559,ACPT_experiment_5_30_19,3.1.0,59.95274755483811,
,,,C,U,y,n,,,,,,,,,,12,14,254,8,,,,,,,,,,,,,n,1,1.3510980076207488,8290.8010068906,None,,,,,001,14,2019_Oct_07_1559,ACPT_experiment_5_30_19,3.1.0,59.95274755483811,
,,,C,D,y,b,,,,,,,,,,12,15,255,2,,,,,,,,,,,,,b,1,1.2173813297813467,8295.47159524664,None,,,,,001,14,2019_Oct_07_1559,ACPT_experiment_5_30_19,3.1.0,59.95274755483811,
,,,C,D,d,v,,,,,,,,,,12,16,256,18,,,,,,,,,,,,,v,1,0.7673067246087157,8299.95816133493,None,,,,,001,14,2019_Oct_07_1559,ACPT_experiment_5_30_19,3.1.0,59.95274755483811,
,,,C,U,g,n,,,,,,,,,,12,17,257,16,,,,,,,,,,,,,n,1,0.9171476584724587,8304.028274801803,None,,,,,001,14,2019_Oct_07_1559,ACPT_experiment_5_30_19,3.1.0,59.95274755483811,
,,,C,G,g,v,,,,,,,,,,12,18,258,19,,,,,,,,,,,,,v,1,6.004722025927549,8308.231306521757,None,,,,,001,14,2019_Oct_07_1559,ACPT_experiment_5_30_19,3.1.0,59.95274755483811,
,,,C,G,g,v,,,,,,,,,,12,19,259,13,,,,,,,,,,,,,v,1,0.9507768869170832,8317.505218437846,None,,,,,001,14,2019_Oct_07_1559,ACPT_experiment_5_30_19,3.1.0,59.95274755483811,
,,,C,U,d,n,,,,,,,,,,13,0,260,15,,,,,,,,,,,,,n,1,1.0505597576411674,8321.758838290458,None,,,,,001,14,2019_Oct_07_1559,ACPT_experiment_5_30_19,3.1.0,59.95274755483811,
,,,C,D,d,v,,,,,,,,,,13,1,261,9,,,,,,,,,,,,,v,1,1.2676986923033837,8326.095269431378,None,,,,,001,14,2019_Oct_07_1559,ACPT_experiment_5_30_19,3.1.0,59.95274755483811,
,,,C,U,g,n,,,,,,,,,,13,2,262,7,,,,,,,,,,,,,n,1,1.0337523881062225,8330.665943304899,None,,,,,001,14,2019_Oct_07_1559,ACPT_experiment_5_30_19,3.1.0,59.95274755483811,
,,,C,G,d,b,,,,,,,,,,13,3,263,3,,,,,,,,,,,,,b,1,1.7513850179293513,8334.985580660068,None,,,,,001,14,2019_Oct_07_1559,ACPT_experiment_5_30_19,3.1.0,59.95274755483811,
,,,C,D,y,b,,,,,,,,,,13,4,264,11,0,0,0,0,0,0,0,0,,,,,b,1,0.7839616538767586,8340.02285788975,None,,,,,001,14,2019_Oct_07_1559,ACPT_experiment_5_30_19,3.1.0,59.95274755483811,
,,,C,D,y,b,R,D,d,R,c ,,,,,13,4,264,11,0,0,0,0,,,,,0,0,0,1,,,,,,up,1.0838285629597522,8380.7716541399,None,001,14,2019_Oct_07_1559,ACPT_experiment_5_30_19,3.1.0,59.95274755483811,
,,,C,D,y,b,R,G,y,L,y,,,,,13,4,264,11,0,0,0,0,,,,,0,1,1,28,,,,,,down,1.5678919141155347,8383.13993835376,None,001,14,2019_Oct_07_1559,ACPT_experiment_5_30_19,3.1.0,59.95274755483811,
,,,C,D,y,b,R,U,y,R,u,,,,,13,4,264,11,0,0,0,0,,,,,0,2,2,31,,,,,,down,0.7839510887097276,8385.975485492063,None,001,14,2019_Oct_07_1559,ACPT_experiment_5_30_19,3.1.0,59.95274755483811,
,,,C,D,y,b,R,U,y,L,u,,,,,13,4,264,11,0,0,0,0,,,,,0,3,3,30,,,,,,down,0.617144609666866,8388.043774203665,None,001,14,2019_Oct_07_1559,ACPT_experiment_5_30_19,3.1.0,59.95274755483811,
,,,C,D,y,b,L,D,d,R,c ,,,,,13,4,264,11,0,0,0,0,,,,,0,4,4,13,,,,,,up,0.850669212772118,8389.945256436224,None,001,14,2019_Oct_07_1559,ACPT_experiment_5_30_19,3.1.0,59.95274755483811,
,,,C,D,y,b,R,D,y,R,y,,,,,13,4,264,11,0,0,0,0,,,,,0,5,5,27,,,,,,down,0.7337309257218294,8392.097106864852,None,001,14,2019_Oct_07_1559,ACPT_experiment_5_30_19,3.1.0,59.95274755483811,
,,,C,D,y,b,R,D,d,L,c,,,,,13,4,264,11,0,0,0,0,,,,,0,6,6,0,,,,,,up,0.7172248143779143,8394.131870792233,None,001,14,2019_Oct_07_1559,ACPT_experiment_5_30_19,3.1.0,59.95274755483811,
,,,C,D,y,b,L,D,d,L,c ,,,,,13,4,264,11,0,0,0,0,,,,,0,7,7,12,,,,,,up,0.633851761047481,8396.13341089172,None,001,14,2019_Oct_07_1559,ACPT_experiment_5_30_19,3.1.0,59.95274755483811,
,,,C,D,y,b,R,G,g,L,c ,,,,,13,4,264,11,0,0,0,0,,,,,0,8,8,6,,,,,,up,0.6670964174118126,8398.051579145325,None,001,14,2019_Oct_07_1559,ACPT_experiment_5_30_19,3.1.0,59.95274755483811,
,,,C,D,y,b,R,D,g,L,i,,,,,13,4,264,11,0,0,0,0,,,,,0,9,9,2,,,,,,up,0.6672147472818324,8400.003103744204,None,001,14,2019_Oct_07_1559,ACPT_experiment_5_30_19,3.1.0,59.95274755483811,
,,,C,D,y,b,R,U,d,R,u,,,,,13,4,264,11,0,0,0,0,,,,,0,10,10,9,,,,,,up,0.5671109973427519,8401.954660340445,None,001,14,2019_Oct_07_1559,ACPT_experiment_5_30_19,3.1.0,59.95274755483811,
,,,C,D,y,b,L,U,g,L,u,,,,,13,4,264,11,0,0,0,0,,,,,0,11,11,22,,,,,,up,0.600191742687457,8403.82306695931,None,001,14,2019_Oct_07_1559,ACPT_experiment_5_30_19,3.1.0,59.95274755483811,
,,,C,D,y,b,L,G,y,L,y,,,,,13,4,264,11,0,0,0,0,,,,,0,12,12,34,,,,,,down,0.5838045649379637,8405.707576402005,None,001,14,2019_Oct_07_1559,ACPT_experiment_5_30_19,3.1.0,59.95274755483811,
,,,C,D,y,b,R,G,d,L,i,,,,,13,4,264,11,0,0,0,0,,,,,0,13,13,4,,,,,,up,0.4836944758972095,8407.575742135063,None,001,14,2019_Oct_07_1559,ACPT_experiment_5_30_19,3.1.0,59.95274755483811,
,,,C,D,y,b,R,G,g,R,c ,,,,,13,4,264,11,0,0,0,0,,,,,0,14,14,7,,,,,,up,0.4837267751208856,8409.327080666257,None,001,14,2019_Oct_07_1559,ACPT_experiment_5_30_19,3.1.0,59.95274755483811,
,,,C,D,y,b,L,D,g,R,i,,,,,13,4,264,11,0,0,0,0,,,,,0,15,15,15,,,,,,up,0.36668525129971385,8411.095412815788,None,001,14,2019_Oct_07_1559,ACPT_experiment_5_30_19,3.1.0,59.95274755483811,
,,,C,D,y,b,R,G,d,R,i,,,,,13,4,264,11,0,0,0,0,,,,,0,16,16,5,,,,,,up,0.850669212772118,8412.746435689978,None,001,14,2019_Oct_07_1559,ACPT_experiment_5_30_19,3.1.0,59.95274755483811,
,,,C,D,y,b,L,G,d,L,i,,,,,13,4,264,11,0,0,0,0,,,,,0,17,17,16,,,,,,up,0.4670371317315585,8414.881439507022,None,001,14,2019_Oct_07_1559,ACPT_experiment_5_30_19,3.1.0,59.95274755483811,
,,,C,D,y,b,L,G,g,L,c ,,,,,13,4,264,11,0,0,0,0,,,,,0,18,18,18,,,,,,up,0.46701600139931543,8416.632826939847,None,001,14,2019_Oct_07_1559,ACPT_experiment_5_30_19,3.1.0,59.95274755483811,
,,,C,D,y,b,R,U,g,R,u,,,,,13,4,264,11,0,0,0,0,,,,,0,19,19,11,,,,,,up,0.5001562135403219,8418.384457975237,None,001,14,2019_Oct_07_1559,ACPT_experiment_5_30_19,3.1.0,59.95274755483811,
,,,C,D,y,b,R,U,d,L,u,,,,,13,4,264,11,0,0,0,0,,,,,0,20,20,8,,,,,,up,0.5171036470037507,8420.152206021963,None,001,14,2019_Oct_07_1559,ACPT_experiment_5_30_19,3.1.0,59.95274755483811,
,,,C,D,y,b,R,U,g,L,u,,,,,13,4,264,11,0,0,0,0,,,,,0,21,21,10,,,,,,up,0.43369255907418847,8421.936944366547,None,001,14,2019_Oct_07_1559,ACPT_experiment_5_30_19,3.1.0,59.95274755483811,
,,,C,D,y,b,L,U,d,L,u,,,,,13,4,264,11,0,0,0,0,,,,,0,22,22,20,,,,,,up,0.38363328848572564,8423.654973341065,None,001,14,2019_Oct_07_1559,ACPT_experiment_5_30_19,3.1.0,59.95274755483811,
,,,C,D,y,b,L,U,y,R,u,,,,,13,4,264,11,0,0,0,0,,,,,0,23,23,25,,,,,,down,0.7806390597852442,8425.342961319715,None,001,14,2019_Oct_07_1559,ACPT_experiment_5_30_19,3.1.0,59.95274755483811,
,,,C,D,y,b,L,D,y,L,y,,,,,13,4,264,11,0,0,0,0,,,,,0,24,24,32,,,,,,down,0.6671927113620768,8427.424608930343,None,001,14,2019_Oct_07_1559,ACPT_experiment_5_30_19,3.1.0,59.95274755483811,
,,,C,D,y,b,L,G,y,R,y,,,,,13,4,264,11,0,0,0,0,,,,,0,25,25,35,,,,,,down,0.5671070731386862,8429.376116323092,None,001,14,2019_Oct_07_1559,ACPT_experiment_5_30_19,3.1.0,59.95274755483811,
,,,C,D,y,b,L,U,d,R,u,,,,,13,4,264,11,0,0,0,0,,,,,0,26,26,21,,,,,,up,1.8681189444614574,8431.244249756925,None,001,14,2019_Oct_07_1559,ACPT_experiment_5_30_19,3.1.0,59.95274755483811,
,,,C,D,y,b,R,G,y,R,y,,,,,13,4,264,11,0,0,0,0,,,,,0,27,27,29,,,,,,down,0.5671131103754306,8434.413389326704,None,001,14,2019_Oct_07_1559,ACPT_experiment_5_30_19,3.1.0,59.95274755483811,
,,,C,D,y,b,L,G,g,R,c ,,,,,13,4,264,11,0,0,0,0,,,,,0,28,28,19,,,,,,down,0.5337507278636622,8436.281524873571,None,001,14,2019_Oct_07_1559,ACPT_experiment_5_30_19,3.1.0,59.95274755483811,
,,,C,D,y,b,L,D,g,L,i,,,,,13,4,264,11,0,0,0,0,,,,,0,29,29,14,,,,,,up,0.6338345549174846,8438.099606583366,None,001,14,2019_Oct_07_1559,ACPT_experiment_5_30_19,3.1.0,59.95274755483811,
,,,C,D,y,b,R,D,y,L,y,,,,,13,4,264,11,0,0,0,0,,,,,0,30,30,26,,,,,,down,0.7506140625991975,8440.017759442013,None,001,14,2019_Oct_07_1559,ACPT_experiment_5_30_19,3.1.0,59.95274755483811,
,,,C,D,y,b,L,U,g,R,u,,,,,13,4,264,11,0,0,0,0,,,,,0,31,31,23,,,,,,up,2.135013174762207,8442.052702373509,None,001,14,2019_Oct_07_1559,ACPT_experiment_5_30_19,3.1.0,59.95274755483811,
,,,C,D,y,b,R,D,g,R,i,,,,,13,4,264,11,0,0,0,0,,,,,0,32,32,3,,,,,,up,0.4503843154961942,8445.472046832065,None,001,14,2019_Oct_07_1559,ACPT_experiment_5_30_19,3.1.0,59.95274755483811,
,,,C,D,y,b,L,G,d,R,i,,,,,13,4,264,11,0,0,0,0,,,,,0,33,33,17,,,,,,up,0.48374066076939926,8447.20673858426,None,001,14,2019_Oct_07_1559,ACPT_experiment_5_30_19,3.1.0,59.95274755483811,
,,,C,D,y,b,L,D,y,R,y,,,,,13,4,264,11,0,0,0,0,,,,,0,34,34,33,,,,,,down,0.7007434557090164,8448.991466665539,None,001,14,2019_Oct_07_1559,ACPT_experiment_5_30_19,3.1.0,59.95274755483811,
,,,C,D,y,b,L,U,y,L,u,,,,,13,4,264,11,0,0,0,0,,,,,0,35,35,24,,,,,,down,0.6338242916135641,8450.976358174858,None,001,14,2019_Oct_07_1559,ACPT_experiment_5_30_19,3.1.0,59.95274755483811,
,,,C,D,y,b,R,G,d,L,i,,,,,13,4,264,11,0,0,0,0,,,,,1,0,36,4,,,,,,up,0.5337480111084005,8452.894529447081,None,001,14,2019_Oct_07_1559,ACPT_experiment_5_30_19,3.1.0,59.95274755483811,
,,,C,D,y,b,R,D,g,R,i,,,,,13,4,264,11,0,0,0,0,,,,,1,1,37,3,,,,,,up,0.46703230194179923,8454.712614175494,None,001,14,2019_Oct_07_1559,ACPT_experiment_5_30_19,3.1.0,59.95274755483811,
,,,C,D,y,b,R,D,d,R,c ,,,,,13,4,264,11,0,0,0,0,,,,,1,2,38,1,,,,,,up,0.41659087417247065,8456.481033864982,None,001,14,2019_Oct_07_1559,ACPT_experiment_5_30_19,3.1.0,59.95274755483811,
,,,C,D,y,b,R,U,g,R,u,,,,,13,4,264,11,0,0,0,0,,,,,1,3,39,11,,,,,,up,0.5003892509375873,8458.18199647244,None,001,14,2019_Oct_07_1559,ACPT_experiment_5_30_19,3.1.0,59.95274755483811,
,,,C,D,y,b,L,U,d,R,u,,,,,13,4,264,11,0,0,0,0,,,,,1,4,40,21,,,,,,up,0.35027090597395727,8459.96672636489,None,001,14,2019_Oct_07_1559,ACPT_experiment_5_30_19,3.1.0,59.95274755483811,
,,,C,D,y,b,L,G,g,L,c ,,,,,13,4,264,11,0,0,0,0,,,,,1,5,41,18,,,,,,up,0.4169935579648154,8461.601331573276,None,001,14,2019_Oct_07_1559,ACPT_experiment_5_30_19,3.1.0,59.95274755483811,
,,,C,D,y,b,R,D,y,L,y,,,,,13,4,264,11,0,0,0,0,,,,,1,6,42,26,,,,,,down,0.5804611423718598,8463.322674991616,None,001,14,2019_Oct_07_1559,ACPT_experiment_5_30_19,3.1.0,59.95274755483811,
,,,C,D,y,b,R,U,d,R,u,,,,,13,4,264,11,0,0,0,0,,,,,1,7,43,9,,,,,,up,0.43367022129314137,8465.187475266188,None,001,14,2019_Oct_07_1559,ACPT_experiment_5_30_19,3.1.0,59.95274755483811,
,,,C,D,y,b,R,G,d,R,i,,,,,13,4,264,11,0,0,0,0,,,,,1,8,44,5,,,,,,up,0.43369376652117353,8466.905461678176,None,001,14,2019_Oct_07_1559,ACPT_experiment_5_30_19,3.1.0,59.95274755483811,
,,,C,D,y,b,L,D,y,L,y,,,,,13,4,264,11,0,0,0,0,,,,,1,9,45,32,,,,,,down,0.7172314553390606,8468.623495784346,None,001,14,2019_Oct_07_1559,ACPT_experiment_5_30_19,3.1.0,59.95274755483811,
,,,C,D,y,b,L,D,d,L,c ,,,,,13,4,264,11,0,0,0,0,,,,,1,10,46,12,,,,,,down,0.5335146718480246,8470.625328086167,None,001,14,2019_Oct_07_1559,ACPT_experiment_5_30_19,3.1.0,59.95274755483811,
,,,C,D,y,b,R,G,g,L,c ,,,,,13,4,264,11,0,0,0,0,,,,,1,11,47,6,,,,,,up,0.4503544311664882,8472.44315230775,None,001,14,2019_Oct_07_1559,ACPT_experiment_5_30_19,3.1.0,59.95274755483811,
,,,C,D,y,b,R,U,d,L,u,,,,,13,4,264,11,0,0,0,0,,,,,1,12,48,8,,,,,,up,1.5678882917727606,8474.17784647484,None,001,14,2019_Oct_07_1559,ACPT_experiment_5_30_19,3.1.0,59.95274755483811,
,,,C,D,y,b,L,U,g,R,u,,,,,13,4,264,11,0,0,0,0,,,,,1,13,49,23,,,,,,up,0.9838796681815438,8477.047027973242,None,001,14,2019_Oct_07_1559,ACPT_experiment_5_30_19,3.1.0,59.95274755483811,
,,,C,D,y,b,R,U,y,L,u,,,,,13,4,264,11,0,0,0,0,,,,,1,14,50,30,,,,,,down,0.6505045772828453,8479.31520209806,None,001,14,2019_Oct_07_1559,ACPT_experiment_5_30_19,3.1.0,59.95274755483811,
,,,C,D,y,b,L,G,d,R,i,,,,,13,4,264,11,0,0,0,0,,,,,1,15,51,17,,,,,,up,2.018249967626616,8481.250044901959,None,001,14,2019_Oct_07_1559,ACPT_experiment_5_30_19,3.1.0,59.95274755483811,
,,,C,D,y,b,L,D,g,L,i,,,,,13,4,264,11,0,0,0,0,,,,,1,16,52,14,,,,,,up,0.6171488357340422,8484.552631285029,None,001,14,2019_Oct_07_1559,ACPT_experiment_5_30_19,3.1.0,59.95274755483811,
,,,C,D,y,b,L,D,d,R,c ,,,,,13,4,264,11,0,0,0,0,,,,,1,17,53,13,,,,,,up,0.5837767936409364,8486.454121667859,None,001,14,2019_Oct_07_1559,ACPT_experiment_5_30_19,3.1.0,59.95274755483811,
,,,C,D,y,b,R,U,g,L,u,,,,,13,4,264,11,0,0,0,0,,,,,1,18,54,10,,,,,,up,0.5170656124046218,8488.322250271902,None,001,14,2019_Oct_07_1559,ACPT_experiment_5_30_19,3.1.0,59.95274755483811,
,,,C,D,y,b,L,U,g,L,u,,,,,13,4,264,11,0,0,0,0,,,,,1,19,55,22,,,,,,up,0.6338291214051424,8490.123659846297,None,001,14,2019_Oct_07_1559,ACPT_experiment_5_30_19,3.1.0,59.95274755483811,
,,,C,D,y,b,R,G,y,L,y,,,,,13,4,264,11,0,0,0,0,,,,,1,20,56,28,,,,,,down,0.850668005323314,8492.041823571974,None,001,14,2019_Oct_07_1559,ACPT_experiment_5_30_19,3.1.0,59.95274755483811,
,,,C,D,y,b,L,G,d,L,i,,,,,13,4,264,11,0,0,0,0,,,,,1,21,57,16,,,,,,up,0.7505847819938936,8494.176829803913,None,001,14,2019_Oct_07_1559,ACPT_experiment_5_30_19,3.1.0,59.95274755483811,
,,,C,D,y,b,L,U,d,L,u,,,,,13,4,264,11,0,0,0,0,,,,,1,22,58,20,,,,,,up,0.5171090805197309,8496.21173651198,None,001,14,2019_Oct_07_1559,ACPT_experiment_5_30_19,3.1.0,59.95274755483811,
,,,C,D,y,b,R,G,y,R,y,,,,,13,4,264,11,0,0,0,0,,,,,1,23,59,29,,,,,,down,0.6671721847524168,8498.013188347042,None,001,14,2019_Oct_07_1559,ACPT_experiment_5_30_19,3.1.0,59.95274755483811,
,,,C,D,y,b,L,G,y,L,y,,,,,13,4,264,11,0,0,0,0,,,,,1,24,60,34,,,,,,down,0.9841087813729246,8499.96468909883,None,001,14,2019_Oct_07_1559,ACPT_experiment_5_30_19,3.1.0,59.95274755483811,
,,,C,D,y,b,R,U,y,R,u,,,,,13,4,264,11,0,0,0,0,,,,,1,25,61,31,,,,,,down,0.9170374788736808,8502.250132743777,None,001,14,2019_Oct_07_1559,ACPT_experiment_5_30_19,3.1.0,59.95274755483811,
,,,C,D,y,b,R,D,y,R,y,,,,,13,4,264,11,0,0,0,0,,,,,1,26,62,27,,,,,,down,0.7671778295716649,8504.451508449265,None,001,14,2019_Oct_07_1559,ACPT_experiment_5_30_19,3.1.0,59.95274755483811,
,,,C,D,y,b,R,D,g,L,i,,,,,13,4,264,11,0,0,0,0,,,,,1,27,63,2,,,,,,up,0.617153967386912,8506.503138911117,None,001,14,2019_Oct_07_1559,ACPT_experiment_5_30_19,3.1.0,59.95274755483811,
,,,C,D,y,b,L,G,y,R,y,,,,,13,4,264,11,0,0,0,0,,,,,1,28,64,35,,,,,,down,0.6171509487667208,8508.404629897672,None,001,14,2019_Oct_07_1559,ACPT_experiment_5_30_19,3.1.0,59.95274755483811,
,,,C,D,y,b,R,G,g,R,c ,,,,,13,4,264,11,0,0,0,0,,,,,1,29,65,7,,,,,,up,0.917388242418383,8510.30611696002,None,001,14,2019_Oct_07_1559,ACPT_experiment_5_30_19,3.1.0,59.95274755483811,
,,,C,D,y,b,L,G,g,R,c ,,,,,13,4,264,11,0,0,0,0,,,,,1,30,66,19,,,,,,up,0.46703894290476455,8512.507833769472,None,001,14,2019_Oct_07_1559,ACPT_experiment_5_30_19,3.1.0,59.95274755483811,
,,,C,D,y,b,L,D,y,R,y,,,,,13,4,264,11,0,0,0,0,,,,,1,31,67,33,,,,,,down,0.6171557785582991,8514.25920912782,None,001,14,2019_Oct_07_1559,ACPT_experiment_5_30_19,3.1.0,59.95274755483811,
,,,C,D,y,b,L,D,g,R,i,,,,,13,4,264,11,0,0,0,0,,,,,1,32,68,15,,,,,,up,0.5170927799772471,8516.143999302094,None,001,14,2019_Oct_07_1559,ACPT_experiment_5_30_19,3.1.0,59.95274755483811,
,,,C,D,y,b,L,U,y,R,u,,,,,13,4,264,11,0,0,0,0,,,,,1,33,69,25,,,,,,down,0.4670320000805077,8517.945426384482,None,001,14,2019_Oct_07_1559,ACPT_experiment_5_30_19,3.1.0,59.95274755483811,
,,,C,D,y,b,R,D,d,L,c,,,,,13,4,264,11,0,0,0,0,,,,,1,34,70,0,,,,,,up,0.5337519353124662,8519.696796913038,None,001,14,2019_Oct_07_1559,ACPT_experiment_5_30_19,3.1.0,59.95274755483811,
,,,C,D,y,b,L,U,y,L,u,,,,,13,4,264,11,0,0,0,0,,,,,1,35,71,24,,,,,,down,0.7505431250483525,8521.531602980342,None,001,14,2019_Oct_07_1559,ACPT_experiment_5_30_19,3.1.0,59.95274755483811,
,,,C,D,y,b,,,,,,,,,,13,4,264,11,1,0,1,0,0,0,0,0,,,,,,,,,,,,,,001,14,2019_Oct_07_1559,ACPT_experiment_5_30_19,3.1.0,59.95274755483811,
,,,C,D,y,b,L,G,d,R,i,,,,,13,4,264,11,1,0,1,0,,,,,0,0,0,17,,,,,,up,0.7336340280471632,8530.13857937142,None,001,14,2019_Oct_07_1559,ACPT_experiment_5_30_19,3.1.0,59.95274755483811,
,,,C,D,y,b,L,U,g,L,u,,,,,13,4,264,11,1,0,1,0,,,,,0,1,1,22,,,,,,up,0.5004088719633728,8532.15655253167,None,001,14,2019_Oct_07_1559,ACPT_experiment_5_30_19,3.1.0,59.95274755483811,
,,,C,D,y,b,L,D,d,R,c ,,,,,13,4,264,11,1,0,1,0,,,,,0,2,2,13,,,,,,up,0.7506158737724036,8533.941275179433,None,001,14,2019_Oct_07_1559,ACPT_experiment_5_30_19,3.1.0,59.95274755483811,
,,,C,D,y,b,R,G,g,R,c ,,,,,13,4,264,11,1,0,1,0,,,,,0,3,3,7,,,,,,up,0.46703290566620126,8535.976206942038,None,001,14,2019_Oct_07_1559,ACPT_experiment_5_30_19,3.1.0,59.95274755483811,
,,,C,D,y,b,R,U,g,R,u,,,,,13,4,264,11,1,0,1,0,,,,,0,4,4,11,,,,,,up,0.5337504260041896,8537.727577772457,None,001,14,2019_Oct_07_1559,ACPT_experiment_5_30_19,3.1.0,59.95274755483811,
,,,C,D,y,b,R,G,y,L,y,,,,,13,4,264,11,1,0,1,0,,,,,0,5,5,28,,,,,,up,0.5836774810723,8539.54566551949,None,001,14,2019_Oct_07_1559,ACPT_experiment_5_30_19,3.1.0,59.95274755483811,
,,,C,D,y,b,L,D,y,L,y,,,,,13,4,264,11,1,0,1,0,,,,,0,6,6,32,,,,,,down,0.5671073749999778,8541.413795632841,None,001,14,2019_Oct_07_1559,ACPT_experiment_5_30_19,3.1.0,59.95274755483811,
,,,C,D,y,b,L,D,y,R,y,,,,,13,4,264,11,1,0,1,0,,,,,0,7,7,33,,,,,,down,0.9174015243424947,8543.265241838182,None,001,14,2019_Oct_07_1559,ACPT_experiment_5_30_19,3.1.0,59.95274755483811,
,,,C,D,y,b,R,U,y,L,u,,,,,13,4,264,11,1,0,1,0,,,,,0,8,8,30,,,,,,down,0.5837939997691137,8545.466964081148,None,001,14,2019_Oct_07_1559,ACPT_experiment_5_30_19,3.1.0,59.95274755483811,
,,,C,D,y,b,R,D,y,R,y,,,,,13,4,264,11,1,0,1,0,,,,,0,9,9,27,,,,,,down,0.6671878815723176,8547.33509902429,None,001,14,2019_Oct_07_1559,ACPT_experiment_5_30_19,3.1.0,59.95274755483811,
,,,C,D,y,b,L,G,d,L,i,,,,,13,4,264,11,1,0,1,0,,,,,0,10,10,16,,,,,,up,0.6504994456317945,8549.286632075304,None,001,14,2019_Oct_07_1559,ACPT_experiment_5_30_19,3.1.0,59.95274755483811,
,,,C,D,y,b,L,D,g,L,i,,,,,13,4,264,11,1,0,1,0,,,,,0,11,11,14,,,,,,up,0.6505326504411642,8551.221447711629,None,001,14,2019_Oct_07_1559,ACPT_experiment_5_30_19,3.1.0,59.95274755483811,
,,,C,D,y,b,L,G,y,R,y,,,,,13,4,264,11,1,0,1,0,,,,,0,12,12,35,,,,,,down,0.5504298060859583,8553.1563176831,None,001,14,2019_Oct_07_1559,ACPT_experiment_5_30_19,3.1.0,59.95274755483811,
,,,C,D,y,b,R,G,d,L,i,,,,,13,4,264,11,1,0,1,0,,,,,0,13,13,4,,,,,,up,0.6838754119271471,8554.991085112079,None,001,14,2019_Oct_07_1559,ACPT_experiment_5_30_19,3.1.0,59.95274755483811,
,,,C,D,y,b,L,U,g,R,u,,,,,13,4,264,11,1,0,1,0,,,,,0,14,14,23,,,,,,up,0.4503556386134733,8556.959292109661,None,001,14,2019_Oct_07_1559,ACPT_experiment_5_30_19,3.1.0,59.95274755483811,
,,,C,D,y,b,R,U,d,R,u,,,,,13,4,264,11,1,0,1,0,,,,,0,15,15,9,,,,,,up,0.7005372840230848,8558.69399231399,None,001,14,2019_Oct_07_1559,ACPT_experiment_5_30_19,3.1.0,59.95274755483811,
,,,C,D,y,b,R,G,g,L,c ,,,,,13,4,264,11,1,0,1,0,,,,,0,16,16,6,,,,,,up,0.7005771297936008,8560.678869333939,None,001,14,2019_Oct_07_1559,ACPT_experiment_5_30_19,3.1.0,59.95274755483811,
,,,C,D,y,b,L,D,g,R,i,,,,,13,4,264,11,1,0,1,0,,,,,0,17,17,15,,,,,,up,0.5170912706671515,8562.647052786291,None,001,14,2019_Oct_07_1559,ACPT_experiment_5_30_19,3.1.0,59.95274755483811,
,,,C,D,y,b,L,G,g,R,c ,,,,,13,4,264,11,1,0,1,0,,,,,0,18,18,19,,,,,,up,0.43367595666859415,8564.431820109618,None,001,14,2019_Oct_07_1559,ACPT_experiment_5_30_19,3.1.0,59.95274755483811,
,,,C,D,y,b,R,D,d,L,c,,,,,13,4,264,11,1,0,1,0,,,,,0,19,19,0,,,,,,up,0.6838763175146596,8566.149815879324,None,001,14,2019_Oct_07_1559,ACPT_experiment_5_30_19,3.1.0,59.95274755483811,
,,,C,D,y,b,L,U,d,R,u,,,,,13,4,264,11,1,0,1,0,,,,,0,20,20,21,,,,,,up,0.5304429250063549,8568.138034510665,None,001,14,2019_Oct_07_1559,ACPT_experiment_5_30_19,3.1.0,59.95274755483811,
,,,C,D,y,b,L,G,y,L,y,,,,,13,4,264,11,1,0,1,0,,,,,0,21,21,34,,,,,,down,0.7839480700913555,8569.952793626366,None,001,14,2019_Oct_07_1559,ACPT_experiment_5_30_19,3.1.0,59.95274755483811,
,,,C,D,y,b,R,U,y,R,u,,,,,13,4,264,11,1,0,1,0,,,,,0,22,22,31,,,,,,down,0.567112808514139,8572.021078413763,None,001,14,2019_Oct_07_1559,ACPT_experiment_5_30_19,3.1.0,59.95274755483811,
,,,C,D,y,b,R,G,d,R,i,,,,,13,4,264,11,1,0,1,0,,,,,0,23,23,5,,,,,,up,2.0516129538591485,8573.87252582655,None,001,14,2019_Oct_07_1559,ACPT_experiment_5_30_19,3.1.0,59.95274755483811,
,,,C,D,y,b,R,U,g,L,u,,,,,13,4,264,11,1,0,1,0,,,,,0,24,24,10,,,,,,up,0.5671119029284455,8577.208470667925,None,001,14,2019_Oct_07_1559,ACPT_experiment_5_30_19,3.1.0,59.95274755483811,
,,,C,D,y,b,R,U,d,L,u,,,,,13,4,264,11,1,0,1,0,,,,,0,25,25,8,,,,,,up,0.4670516211044742,8579.059898459689,None,001,14,2019_Oct_07_1559,ACPT_experiment_5_30_19,3.1.0,59.95274755483811,
,,,C,D,y,b,L,U,d,L,u,,,,,13,4,264,11,1,0,1,0,,,,,0,26,26,20,,,,,,up,0.500391967696487,8580.81129011858,None,001,14,2019_Oct_07_1559,ACPT_experiment_5_30_19,3.1.0,59.95274755483811,
,,,C,D,y,b,L,U,y,L,u,,,,,13,4,264,11,1,0,1,0,,,,,0,27,27,24,,,,,,down,0.7169603833408473,8582.5962928942,None,001,14,2019_Oct_07_1559,ACPT_experiment_5_30_19,3.1.0,59.95274755483811,
,,,C,D,y,b,R,D,g,L,i,,,,,13,4,264,11,1,0,1,0,,,,,0,28,28,2,,,,,,up,0.6171527599399269,8584.59758757995,None,001,14,2019_Oct_07_1559,ACPT_experiment_5_30_19,3.1.0,59.95274755483811,
,,,C,D,y,b,R,G,y,R,y,,,,,13,4,264,11,1,0,1,0,,,,,0,29,29,29,,,,,,down,0.700550867808488,8586.499073434852,None,001,14,2019_Oct_07_1559,ACPT_experiment_5_30_19,3.1.0,59.95274755483811,
,,,C,D,y,b,R,D,g,R,i,,,,,13,4,264,11,1,0,1,0,,,,,0,30,30,3,,,,,,down,0.5837973202505964,8588.483957699485,None,001,14,2019_Oct_07_1559,ACPT_experiment_5_30_19,3.1.0,59.95274755483811,
,,,C,D,y,b,R,D,y,L,y,,,,,13,4,264,11,1,0,1,0,,,,,0,31,31,26,,,,,,down,0.7672686900077679,8590.352089925871,None,001,14,2019_Oct_07_1559,ACPT_experiment_5_30_19,3.1.0,59.95274755483811,
,,,C,D,y,b,L,U,y,R,u,,,,,13,4,264,11,1,0,1,0,,,,,0,32,32,25,,,,,,down,0.7172344739592518,8592.420370789063,None,001,14,2019_Oct_07_1559,ACPT_experiment_5_30_19,3.1.0,59.95274755483811,
,,,C,D,y,b,L,D,d,L,c ,,,,,13,4,264,11,1,0,1,0,,,,,0,33,33,12,,,,,,up,0.5504319191204559,8594.42194228219,None,001,14,2019_Oct_07_1559,ACPT_experiment_5_30_19,3.1.0,59.95274755483811,
,,,C,D,y,b,R,D,d,R,c ,,,,,13,4,264,11,1,0,1,0,,,,,0,34,34,1,,,,,,up,0.5170707440556725,8596.240030331084,None,001,14,2019_Oct_07_1559,ACPT_experiment_5_30_19,3.1.0,59.95274755483811,
,,,C,D,y,b,L,G,g,L,c ,,,,,13,4,264,11,1,0,1,0,,,,,0,35,35,18,,,,,,up,0.6004933027415973,8598.041442018513,None,001,14,2019_Oct_07_1559,ACPT_experiment_5_30_19,3.1.0,59.95274755483811,
,,,C,D,y,b,L,G,d,R,i,,,,,13,4,264,11,1,0,1,0,,,,,1,0,36,17,,,,,,up,0.5671454096009256,8599.909551907118,None,001,14,2019_Oct_07_1559,ACPT_experiment_5_30_19,3.1.0,59.95274755483811,
,,,C,D,y,b,L,U,g,L,u,,,,,13,4,264,11,1,0,1,0,,,,,1,1,37,22,,,,,,up,0.5000898039197637,8601.778010748094,None,001,14,2019_Oct_07_1559,ACPT_experiment_5_30_19,3.1.0,59.95274755483811,
,,,C,D,y,b,L,D,y,R,y,,,,,13,4,264,11,1,0,1,0,,,,,1,2,38,33,,,,,,down,0.6671890890193026,8603.56242942091,None,001,14,2019_Oct_07_1559,ACPT_experiment_5_30_19,3.1.0,59.95274755483811,
,,,C,D,y,b,L,D,g,R,i,,,,,13,4,264,11,1,0,1,0,,,,,1,3,39,15,,,,,,up,0.5170976097670064,8605.497252301922,None,001,14,2019_Oct_07_1559,ACPT_experiment_5_30_19,3.1.0,59.95274755483811,
,,,C,D,y,b,L,G,g,R,c ,,,,,13,4,264,11,1,0,1,0,,,,,1,4,40,19,,,,,,up,0.4003344026295963,8607.281985514854,None,001,14,2019_Oct_07_1559,ACPT_experiment_5_30_19,3.1.0,59.95274755483811,
,,,C,D,y,b,L,D,y,L,y,,,,,13,4,264,11,1,0,1,0,,,,,1,5,41,32,,,,,,down,0.7169703447834763,8608.983595012394,None,001,14,2019_Oct_07_1559,ACPT_experiment_5_30_19,3.1.0,59.95274755483811,
,,,C,D,y,b,R,U,y,R,u,,,,,13,4,264,11,1,0,1,0,,,,,1,6,42,31,,,,,,down,0.5671134122385411,8610.984900867037,None,001,14,2019_Oct_07_1559,ACPT_experiment_5_30_19,3.1.0,59.95274755483811,
,,,C,D,y,b,L,G,y,L,y,,,,,13,4,264,11,1,0,1,0,,,,,1,7,43,34,,,,,,down,0.5671161289938027,8612.836346468652,None,001,14,2019_Oct_07_1559,ACPT_experiment_5_30_19,3.1.0,59.95274755483811,
,,,C,D,y,b,R,G,y,L,y,,,,,13,4,264,11,1,0,1,0,,,,,1,8,44,28,,,,,,down,0.40031749836271047,8614.68779871123,None,001,14,2019_Oct_07_1559,ACPT_experiment_5_30_19,3.1.0,59.95274755483811,
,,,C,D,y,b,L,U,g,R,u,,,,,13,4,264,11,1,0,1,0,,,,,1,9,45,23,,,,,,up,0.583790075565048,8616.372451115727,None,001,14,2019_Oct_07_1559,ACPT_experiment_5_30_19,3.1.0,59.95274755483811,
,,,C,D,y,b,L,U,d,L,u,,,,,13,4,264,11,1,0,1,0,,,,,1,10,46,20,,,,,,up,0.40033319518261123,8618.223882529832,None,001,14,2019_Oct_07_1559,ACPT_experiment_5_30_19,3.1.0,59.95274755483811,
,,,C,D,y,b,L,D,d,R,c ,,,,,13,4,264,11,1,0,1,0,,,,,1,11,47,13,,,,,,up,0.3002354824802751,8619.90854791439,None,001,14,2019_Oct_07_1559,ACPT_experiment_5_30_19,3.1.0,59.95274755483811,
,,,C,D,y,b,R,G,g,R,c ,,,,,13,4,264,11,1,0,1,0,,,,,1,12,48,7,,,,,,up,0.3969804148964613,8621.513138388897,None,001,14,2019_Oct_07_1559,ACPT_experiment_5_30_19,3.1.0,59.95274755483811,
,,,C,D,y,b,R,G,y,R,y,,,,,13,4,264,11,1,0,1,0,,,,,1,13,49,29,,,,,,down,0.4837500184876262,8623.1777643684,None,001,14,2019_Oct_07_1559,ACPT_experiment_5_30_19,3.1.0,59.95274755483811,
,,,C,D,y,b,R,D,d,R,c ,,,,,13,4,264,11,1,0,1,0,,,,,1,14,50,1,,,,,,up,0.5504298060877773,8624.945830577584,None,001,14,2019_Oct_07_1559,ACPT_experiment_5_30_19,3.1.0,59.95274755483811,
,,,C,D,y,b,R,U,g,L,u,,,,,13,4,264,11,1,0,1,0,,,,,1,15,51,10,,,,,,up,0.617154571109495,8626.780596195393,None,001,14,2019_Oct_07_1559,ACPT_experiment_5_30_19,3.1.0,59.95274755483811,
,,,C,D,y,b,R,D,y,L,y,,,,,13,4,264,11,1,0,1,0,,,,,1,16,52,26,,,,,,down,0.6004658333058615,8628.682090200566,None,001,14,2019_Oct_07_1559,ACPT_experiment_5_30_19,3.1.0,59.95274755483811,
,,,C,D,y,b,L,U,y,R,u,,,,,13,4,264,11,1,0,1,0,,,,,1,17,53,25,,,,,,down,0.633831234437821,8630.566895166074,None,001,14,2019_Oct_07_1559,ACPT_experiment_5_30_19,3.1.0,59.95274755483811,
,,,C,D,y,b,R,D,d,L,c,,,,,13,4,264,11,1,0,1,0,,,,,1,18,54,0,,,,,,up,0.5838121114848036,8632.485037157692,None,001,14,2019_Oct_07_1559,ACPT_experiment_5_30_19,3.1.0,59.95274755483811,
,,,C,D,y,b,R,G,d,R,i,,,,,13,4,264,11,1,0,1,0,,,,,1,19,55,5,,,,,,up,0.4503565441991668,8634.35318870324,None,001,14,2019_Oct_07_1559,ACPT_experiment_5_30_19,3.1.0,59.95274755483811,
,,,C,D,y,b,L,U,y,L,u,,,,,13,4,264,11,1,0,1,0,,,,,1,20,56,24,,,,,,down,0.6004718705444247,8636.087881662885,None,001,14,2019_Oct_07_1559,ACPT_experiment_5_30_19,3.1.0,59.95274755483811,
,,,C,D,y,b,R,U,d,R,u,,,,,13,4,264,11,1,0,1,0,,,,,1,21,57,9,,,,,,down,0.6171711735150893,8637.972685420944,None,001,14,2019_Oct_07_1559,ACPT_experiment_5_30_19,3.1.0,59.95274755483811,
,,,C,D,y,b,R,U,g,R,u,,,,,13,4,264,11,1,0,1,0,,,,,1,22,58,11,,,,,,up,0.43368833300701226,8639.8574789157,None,001,14,2019_Oct_07_1559,ACPT_experiment_5_30_19,3.1.0,59.95274755483811,
,,,C,D,y,b,R,D,g,R,i,,,,,13,4,264,11,1,0,1,0,,,,,1,23,59,3,,,,,,up,0.4334051865298534,8641.592466492571,None,001,14,2019_Oct_07_1559,ACPT_experiment_5_30_19,3.1.0,59.95274755483811,
,,,C,D,y,b,L,G,g,L,c ,,,,,13,4,264,11,1,0,1,0,,,,,1,24,60,18,,,,,,up,0.7839510887097276,8643.310196321932,None,001,14,2019_Oct_07_1559,ACPT_experiment_5_30_19,3.1.0,59.95274755483811,
,,,C,D,y,b,L,G,y,R,y,,,,,13,4,264,11,1,0,1,0,,,,,1,25,61,35,,,,,,down,0.6338276120950468,8645.378483524226,None,001,14,2019_Oct_07_1559,ACPT_experiment_5_30_19,3.1.0,59.95274755483811,
,,,C,D,y,b,L,D,g,L,i,,,,,13,4,264,11,1,0,1,0,,,,,1,26,62,14,,,,,,up,1.4344614013698447,8647.296652985278,None,001,14,2019_Oct_07_1559,ACPT_experiment_5_30_19,3.1.0,59.95274755483811,
,,,C,D,y,b,L,U,d,R,u,,,,,13,4,264,11,1,0,1,0,,,,,1,27,63,21,,,,,,up,0.600517753557142,8650.01545050023,None,001,14,2019_Oct_07_1559,ACPT_experiment_5_30_19,3.1.0,59.95274755483811,
,,,C,D,y,b,R,D,g,L,i,,,,,13,4,264,11,1,0,1,0,,,,,1,28,64,2,,,,,,up,0.5671085824469628,8651.900253352704,None,001,14,2019_Oct_07_1559,ACPT_experiment_5_30_19,3.1.0,59.95274755483811,
,,,C,D,y,b,R,G,d,L,i,,,,,13,4,264,11,1,0,1,0,,,,,1,29,65,4,,,,,,up,0.5169445657775213,8653.751714651138,None,001,14,2019_Oct_07_1559,ACPT_experiment_5_30_19,3.1.0,59.95274755483811,
,,,C,D,y,b,R,U,y,L,u,,,,,13,4,264,11,1,0,1,0,,,,,1,30,66,30,,,,,,down,0.6171503450423188,8655.553111245472,None,001,14,2019_Oct_07_1559,ACPT_experiment_5_30_19,3.1.0,59.95274755483811,
,,,C,D,y,b,R,D,y,R,y,,,,,13,4,264,11,1,0,1,0,,,,,1,31,67,27,,,,,,down,0.6171929075735534,8657.437901721609,None,001,14,2019_Oct_07_1559,ACPT_experiment_5_30_19,3.1.0,59.95274755483811,
,,,C,D,y,b,L,G,d,L,i,,,,,13,4,264,11,1,0,1,0,,,,,1,32,68,16,,,,,,up,0.7505989695036988,8659.339410518016,None,001,14,2019_Oct_07_1559,ACPT_experiment_5_30_19,3.1.0,59.95274755483811,
,,,C,D,y,b,R,G,g,L,c ,,,,,13,4,264,11,1,0,1,0,,,,,1,33,69,6,,,,,,up,0.5170722533675871,8661.374334130349,None,001,14,2019_Oct_07_1559,ACPT_experiment_5_30_19,3.1.0,59.95274755483811,
,,,C,D,y,b,L,D,d,L,c ,,,,,13,4,264,11,1,0,1,0,,,,,1,34,70,12,,,,,,up,0.8673413481683383,8663.17574944012,None,001,14,2019_Oct_07_1559,ACPT_experiment_5_30_19,3.1.0,59.95274755483811,
,,,C,D,y,b,R,U,d,L,u,,,,,13,4,264,11,1,0,1,0,,,,,1,35,71,8,,,,,,up,0.6338179525137093,8665.327440183797,None,001,14,2019_Oct_07_1559,ACPT_experiment_5_30_19,3.1.0,59.95274755483811,
,,,C,D,y,b,,,,,,,,,,13,4,264,11,2,0,2,0,0,0,0,0,,,,,,,,,,,,,,001,14,2019_Oct_07_1559,ACPT_experiment_5_30_19,3.1.0,59.95274755483811,
,,,C,D,y,b,R,U,g,L,u,,,,,13,4,264,11,2,0,2,0,,,,,0,0,0,10,,,,,,up,0.6171424966323684,8672.016006831738,None,001,14,2019_Oct_07_1559,ACPT_experiment_5_30_19,3.1.0,59.95274755483811,
,,,C,D,y,b,L,U,y,L,u,,,,,13,4,264,11,2,0,2,0,,,,,0,1,1,24,,,,,,down,0.6505072940399259,8673.934164822038,None,001,14,2019_Oct_07_1559,ACPT_experiment_5_30_19,3.1.0,59.95274755483811,
,,,C,D,y,b,L,G,g,L,c ,,,,,13,4,264,11,2,0,2,0,,,,,0,2,2,18,,,,,,up,0.43368591811122315,8675.885711758698,None,001,14,2019_Oct_07_1559,ACPT_experiment_5_30_19,3.1.0,59.95274755483811,
,,,C,D,y,b,L,G,d,R,i,,,,,13,4,264,11,2,0,2,0,,,,,0,3,3,17,,,,,,up,0.7172507745017356,8677.587008829158,None,001,14,2019_Oct_07_1559,ACPT_experiment_5_30_19,3.1.0,59.95274755483811,
,,,C,D,y,b,R,G,y,L,y,,,,,13,4,264,11,2,0,2,0,,,,,0,4,4,28,,,,,,down,0.6171687586211192,8679.605266645194,None,001,14,2019_Oct_07_1559,ACPT_experiment_5_30_19,3.1.0,59.95274755483811,
,,,C,D,y,b,R,G,d,R,i,,,,,13,4,264,11,2,0,2,0,,,,,0,5,5,5,,,,,,up,0.483684212593289,8681.523457840303,None,001,14,2019_Oct_07_1559,ACPT_experiment_5_30_19,3.1.0,59.95274755483811,
,,,C,D,y,b,L,U,g,R,u,,,,,13,4,264,11,2,0,2,0,,,,,0,6,6,23,,,,,,up,0.5171099861054245,8683.291484505578,None,001,14,2019_Oct_07_1559,ACPT_experiment_5_30_19,3.1.0,59.95274755483811,
,,,C,D,y,b,R,D,d,L,c,,,,,13,4,264,11,2,0,2,0,,,,,0,7,7,0,,,,,,up,0.5168298582484567,8685.109817364486,None,001,14,2019_Oct_07_1559,ACPT_experiment_5_30_19,3.1.0,59.95274755483811,
,,,C,D,y,b,R,U,y,R,u,,,,,13,4,264,11,2,0,2,0,,,,,0,8,8,31,,,,,,down,0.6171427984954789,8686.910989977277,None,001,14,2019_Oct_07_1559,ACPT_experiment_5_30_19,3.1.0,59.95274755483811,
,,,C,D,y,b,L,D,d,L,c ,,,,,13,4,264,11,2,0,2,0,,,,,0,9,9,12,,,,,,up,0.6171479301483487,8688.812471606112,None,001,14,2019_Oct_07_1559,ACPT_experiment_5_30_19,3.1.0,59.95274755483811,
,,,C,D,y,b,L,U,d,L,u,,,,,13,4,264,11,2,0,2,0,,,,,0,10,10,20,,,,,,up,0.5837885662567714,8690.71396289453,None,001,14,2019_Oct_07_1559,ACPT_experiment_5_30_19,3.1.0,59.95274755483811,
,,,C,D,y,b,R,U,d,R,u,,,,,13,4,264,11,2,0,2,0,,,,,0,11,11,9,,,,,,up,1.1509052989749762,8692.582088781814,None,001,14,2019_Oct_07_1559,ACPT_experiment_5_30_19,3.1.0,59.95274755483811,
,,,C,D,y,b,R,U,y,L,u,,,,,13,4,264,11,2,0,2,0,,,,,0,12,12,30,,,,,,down,0.6672026728065248,8695.000637834224,None,001,14,2019_Oct_07_1559,ACPT_experiment_5_30_19,3.1.0,59.95274755483811,
,,,C,D,y,b,L,G,d,L,i,,,,,13,4,264,11,2,0,2,0,,,,,0,13,13,16,,,,,,up,0.6171587971784902,8696.952176318751,None,001,14,2019_Oct_07_1559,ACPT_experiment_5_30_19,3.1.0,59.95274755483811,
,,,C,D,y,b,R,G,g,L,c ,,,,,13,4,264,11,2,0,2,0,,,,,0,14,14,6,,,,,,up,0.5170951948712172,8698.85366489041,None,001,14,2019_Oct_07_1559,ACPT_experiment_5_30_19,3.1.0,59.95274755483811,
,,,C,D,y,b,L,G,g,R,c ,,,,,13,4,264,11,2,0,2,0,,,,,0,15,15,19,,,,,,up,0.6171524580768164,8700.655071446186,None,001,14,2019_Oct_07_1559,ACPT_experiment_5_30_19,3.1.0,59.95274755483811,
,,,C,D,y,b,L,U,y,R,u,,,,,13,4,264,11,2,0,2,0,,,,,0,16,16,25,,,,,,down,0.7172396056121215,8702.556560017845,None,001,14,2019_Oct_07_1559,ACPT_experiment_5_30_19,3.1.0,59.95274755483811,
,,,C,D,y,b,R,D,d,R,c ,,,,,13,4,264,11,2,0,2,0,,,,,0,17,17,1,,,,,,up,0.6169749632717867,8704.575046041487,None,001,14,2019_Oct_07_1559,ACPT_experiment_5_30_19,3.1.0,59.95274755483811,
,,,C,D,y,b,L,D,g,R,i,,,,,13,4,264,11,2,0,2,0,,,,,0,18,18,15,,,,,,up,0.5504316172591643,8706.476292821753,None,001,14,2019_Oct_07_1559,ACPT_experiment_5_30_19,3.1.0,59.95274755483811,
,,,C,D,y,b,R,G,y,R,y,,,,,13,4,264,11,2,0,2,0,,,,,0,19,19,29,,,,,,down,0.650510312660117,8708.311063571213,None,001,14,2019_Oct_07_1559,ACPT_experiment_5_30_19,3.1.0,59.95274755483811,
,,,C,D,y,b,R,U,d,L,u,,,,,13,4,264,11,2,0,2,0,,,,,0,20,20,8,,,,,,up,0.6004616072386852,8710.245918147726,None,001,14,2019_Oct_07_1559,ACPT_experiment_5_30_19,3.1.0,59.95274755483811,
,,,C,D,y,b,L,U,g,L,u,,,,,13,4,264,11,2,0,2,0,,,,,0,21,21,22,,,,,,up,0.9507557565812021,8712.130718585306,None,001,14,2019_Oct_07_1559,ACPT_experiment_5_30_19,3.1.0,59.95274755483811,
,,,C,D,y,b,L,D,g,L,i,,,,,13,4,264,11,2,0,2,0,,,,,0,22,22,14,,,,,,up,0.4837131913354824,8714.365802305198,None,001,14,2019_Oct_07_1559,ACPT_experiment_5_30_19,3.1.0,59.95274755483811,
,,,C,D,y,b,R,D,y,R,y,,,,,13,4,264,11,2,0,2,0,,,,,0,23,23,27,,,,,,down,0.6506370946626703,8716.133850100807,None,001,14,2019_Oct_07_1559,ACPT_experiment_5_30_19,3.1.0,59.95274755483811,
,,,C,D,y,b,R,D,y,L,y,,,,,13,4,264,11,2,0,2,0,,,,,0,24,24,26,,,,,,up,0.5336260588937876,8718.068713129453,None,001,14,2019_Oct_07_1559,ACPT_experiment_5_30_19,3.1.0,59.95274755483811,
,,,C,D,y,b,R,G,d,L,i,,,,,13,4,264,11,2,0,2,0,,,,,0,25,25,4,,,,,,up,0.6171527599381079,8719.88679212249,None,001,14,2019_Oct_07_1559,ACPT_experiment_5_30_19,3.1.0,59.95274755483811,
,,,C,D,y,b,L,D,y,R,y,,,,,13,4,264,11,2,0,2,0,,,,,0,26,26,33,,,,,,down,0.5837897737037565,8721.788278581116,None,001,14,2019_Oct_07_1559,ACPT_experiment_5_30_19,3.1.0,59.95274755483811,
,,,C,D,y,b,R,D,g,R,i,,,,,13,4,264,11,2,0,2,0,,,,,0,27,27,3,,,,,,up,0.5501786569748219,8723.67333680877,None,001,14,2019_Oct_07_1559,ACPT_experiment_5_30_19,3.1.0,59.95274755483811,
,,,C,D,y,b,L,D,d,R,c ,,,,,13,4,264,11,2,0,2,0,,,,,0,28,28,13,,,,,,up,0.45038763597767684,8725.507874218969,None,001,14,2019_Oct_07_1559,ACPT_experiment_5_30_19,3.1.0,59.95274755483811,
,,,C,D,y,b,R,D,g,L,i,,,,,13,4,264,11,2,0,2,0,,,,,0,29,29,2,,,,,,up,0.5170631975088327,8727.242552689242,None,001,14,2019_Oct_07_1559,ACPT_experiment_5_30_19,3.1.0,59.95274755483811,
,,,C,D,y,b,L,U,d,R,u,,,,,13,4,264,11,2,0,2,0,,,,,0,30,30,21,,,,,,up,0.4503544311683072,8729.043950189161,None,001,14,2019_Oct_07_1559,ACPT_experiment_5_30_19,3.1.0,59.95274755483811,
,,,C,D,y,b,L,G,y,L,y,,,,,13,4,264,11,2,0,2,0,,,,,0,31,31,34,,,,,,down,0.5971381075614772,8730.798656895597,None,001,14,2019_Oct_07_1559,ACPT_experiment_5_30_19,3.1.0,59.95274755483811,
,,,C,D,y,b,L,G,y,R,y,,,,,13,4,264,11,2,0,2,0,,,,,0,32,32,35,,,,,,down,0.7005378877456678,8732.680137153979,None,001,14,2019_Oct_07_1559,ACPT_experiment_5_30_19,3.1.0,59.95274755483811,
,,,C,D,y,b,R,G,g,R,c ,,,,,13,4,264,11,2,0,2,0,,,,,0,33,33,7,,,,,,up,0.6171699660681043,8734.681679064637,None,001,14,2019_Oct_07_1559,ACPT_experiment_5_30_19,3.1.0,59.95274755483811,
,,,C,D,y,b,L,D,y,L,y,,,,,13,4,264,11,2,0,2,0,,,,,0,34,34,32,,,,,,down,0.6505075959012174,8736.583189370354,None,001,14,2019_Oct_07_1559,ACPT_experiment_5_30_19,3.1.0,59.95274755483811,
,,,C,D,y,b,R,U,g,R,u,,,,,13,4,264,11,2,0,2,0,,,,,0,35,35,11,,,,,,up,0.48357524043967715,8738.518057832516,None,001,14,2019_Oct_07_1559,ACPT_experiment_5_30_19,3.1.0,59.95274755483811,
,,,C,D,y,b,L,D,g,L,i,,,,,13,4,264,11,2,0,2,0,,,,,1,0,36,14,,,,,,up,0.5170601788886415,8740.286100798334,None,001,14,2019_Oct_07_1559,ACPT_experiment_5_30_19,3.1.0,59.95274755483811,
,,,C,D,y,b,R,D,y,R,y,,,,,13,4,264,11,2,0,2,0,,,,,1,1,37,27,,,,,,down,0.5837882643936609,8742.087495279633,None,001,14,2019_Oct_07_1559,ACPT_experiment_5_30_19,3.1.0,59.95274755483811,
,,,C,D,y,b,R,U,d,R,u,,,,,13,4,264,11,2,0,2,0,,,,,1,2,38,9,,,,,,up,0.5334856931040122,8743.972565279902,None,001,14,2019_Oct_07_1559,ACPT_experiment_5_30_19,3.1.0,59.95274755483811,
,,,C,D,y,b,L,D,g,R,i,,,,,13,4,264,11,2,0,2,0,,,,,1,3,39,15,,,,,,up,0.48371379505988443,8745.790392821964,None,001,14,2019_Oct_07_1559,ACPT_experiment_5_30_19,3.1.0,59.95274755483811,
,,,C,D,y,b,R,D,g,L,i,,,,,13,4,264,11,2,0,2,0,,,,,1,4,40,2,,,,,,up,0.6005041697699198,8747.541762746798,None,001,14,2019_Oct_07_1559,ACPT_experiment_5_30_19,3.1.0,59.95274755483811,
,,,C,D,y,b,L,G,d,L,i,,,,,13,4,264,11,2,0,2,0,,,,,1,5,41,16,,,,,,up,0.5170653105415113,8749.426577070024,None,001,14,2019_Oct_07_1559,ACPT_experiment_5_30_19,3.1.0,59.95274755483811,
,,,C,D,y,b,L,G,y,R,y,,,,,13,4,264,11,2,0,2,0,,,,,1,6,42,35,,,,,,down,0.6168859140052518,8751.22824654753,None,001,14,2019_Oct_07_1559,ACPT_experiment_5_30_19,3.1.0,59.95274755483811,
,,,C,D,y,b,R,D,d,L,c,,,,,13,4,264,11,2,0,2,0,,,,,1,7,43,0,,,,,,up,0.7839504849871446,8753.129467065808,None,001,14,2019_Oct_07_1559,ACPT_experiment_5_30_19,3.1.0,59.95274755483811,
,,,C,D,y,b,R,U,g,L,u,,,,,13,4,264,11,2,0,2,0,,,,,1,8,44,10,,,,,,up,0.5004463028399186,8755.197753362514,None,001,14,2019_Oct_07_1559,ACPT_experiment_5_30_19,3.1.0,59.95274755483811,
,,,C,D,y,b,R,D,y,L,y,,,,,13,4,264,11,2,0,2,0,,,,,1,9,45,26,,,,,,down,0.617145213391268,8756.99916444622,None,001,14,2019_Oct_07_1559,ACPT_experiment_5_30_19,3.1.0,59.95274755483811,
,,,C,D,y,b,R,U,y,R,u,,,,,13,4,264,11,2,0,2,0,,,,,1,10,46,31,,,,,,down,0.7339041944633209,8758.900650602984,None,001,14,2019_Oct_07_1559,ACPT_experiment_5_30_19,3.1.0,59.95274755483811,
,,,C,D,y,b,L,U,d,R,u,,,,,13,4,264,11,2,0,2,0,,,,,1,11,47,21,,,,,,up,0.5671031489328016,8760.93557934697,None,001,14,2019_Oct_07_1559,ACPT_experiment_5_30_19,3.1.0,59.95274755483811,
,,,C,D,y,b,L,D,d,L,c ,,,,,13,4,264,11,2,0,2,0,,,,,1,12,48,12,,,,,,up,0.4670422633844282,8762.787018609484,None,001,14,2019_Oct_07_1559,ACPT_experiment_5_30_19,3.1.0,59.95274755483811,
,,,C,D,y,b,R,G,d,L,i,,,,,13,4,264,11,2,0,2,0,,,,,1,13,49,4,,,,,,up,0.6168804804910906,8764.55534834412,None,001,14,2019_Oct_07_1559,ACPT_experiment_5_30_19,3.1.0,59.95274755483811,
,,,C,D,y,b,R,U,y,L,u,,,,,13,4,264,11,2,0,2,0,,,,,1,14,50,30,,,,,,down,0.5837876606692589,8766.473243714556,None,001,14,2019_Oct_07_1559,ACPT_experiment_5_30_19,3.1.0,59.95274755483811,
,,,C,D,y,b,L,U,g,L,u,,,,,13,4,264,11,2,0,2,0,,,,,1,15,51,22,,,,,,up,0.5504240707105055,8768.358056830335,None,001,14,2019_Oct_07_1559,ACPT_experiment_5_30_19,3.1.0,59.95274755483811,
,,,C,D,y,b,L,G,y,L,y,,,,,13,4,264,11,2,0,2,0,,,,,1,16,52,34,,,,,,down,0.7339011758413108,8770.192821844417,None,001,14,2019_Oct_07_1559,ACPT_experiment_5_30_19,3.1.0,59.95274755483811,
,,,C,D,y,b,R,U,g,R,u,,,,,13,4,264,11,2,0,2,0,,,,,1,17,53,11,,,,,,up,0.6171485338727507,8772.211069397148,None,001,14,2019_Oct_07_1559,ACPT_experiment_5_30_19,3.1.0,59.95274755483811,
,,,C,D,y,b,R,G,y,L,y,,,,,13,4,264,11,2,0,2,0,,,,,1,18,54,28,,,,,,down,0.6671842592295434,8774.112554346464,None,001,14,2019_Oct_07_1559,ACPT_experiment_5_30_19,3.1.0,59.95274755483811,
,,,C,D,y,b,R,D,d,R,c ,,,,,13,4,264,11,2,0,2,0,,,,,1,19,55,1,,,,,,up,0.5003651019851532,8776.06411154643,None,001,14,2019_Oct_07_1559,ACPT_experiment_5_30_19,3.1.0,59.95274755483811,
,,,C,D,y,b,R,G,d,R,i,,,,,13,4,264,11,2,0,2,0,,,,,1,20,56,5,,,,,,up,0.45033662131390884,8777.865508140761,None,001,14,2019_Oct_07_1559,ACPT_experiment_5_30_19,3.1.0,59.95274755483811,
,,,C,D,y,b,R,G,g,L,c ,,,,,13,4,264,11,2,0,2,0,,,,,1,21,57,6,,,,,,up,0.5504264856044756,8779.600183592416,None,001,14,2019_Oct_07_1559,ACPT_experiment_5_30_19,3.1.0,59.95274755483811,
,,,C,D,y,b,L,D,y,R,y,,,,,13,4,264,11,2,0,2,0,,,,,1,22,58,33,,,,,,down,0.5671103936183499,8781.434954341876,None,001,14,2019_Oct_07_1559,ACPT_experiment_5_30_19,3.1.0,59.95274755483811,
,,,C,D,y,b,R,G,g,R,c ,,,,,13,4,264,11,2,0,2,0,,,,,1,23,59,7,,,,,,up,0.3502751320411335,8783.286401754662,None,001,14,2019_Oct_07_1559,ACPT_experiment_5_30_19,3.1.0,59.95274755483811,
,,,C,D,y,b,L,U,y,R,u,,,,,13,4,264,11,2,0,2,0,,,,,1,24,60,25,,,,,,down,0.5335527064489725,8784.954536275198,None,001,14,2019_Oct_07_1559,ACPT_experiment_5_30_19,3.1.0,59.95274755483811,
,,,C,D,y,b,L,D,y,L,y,,,,,13,4,264,11,2,0,2,0,,,,,1,25,61,32,,,,,,down,0.5837885662549525,8786.789142208052,None,001,14,2019_Oct_07_1559,ACPT_experiment_5_30_19,3.1.0,59.95274755483811,
,,,C,D,y,b,R,G,y,R,y,,,,,13,4,264,11,2,0,2,0,,,,,1,26,62,29,,,,,,down,0.5337199379500817,8788.657290734982,None,001,14,2019_Oct_07_1559,ACPT_experiment_5_30_19,3.1.0,59.95274755483811,
,,,C,D,y,b,L,D,d,R,c ,,,,,13,4,264,11,2,0,2,0,,,,,1,27,63,13,,,,,,up,1.6679654778636177,8790.47536821871,None,001,14,2019_Oct_07_1559,ACPT_experiment_5_30_19,3.1.0,59.95274755483811,
,,,C,D,y,b,L,U,d,L,u,,,,,13,4,264,11,2,0,2,0,,,,,1,28,64,20,,,,,,up,0.6671939188108809,8793.427667998983,None,001,14,2019_Oct_07_1559,ACPT_experiment_5_30_19,3.1.0,59.95274755483811,
,,,C,D,y,b,L,G,g,L,c ,,,,,13,4,264,11,2,0,2,0,,,,,1,29,65,18,,,,,,up,0.4837171155413671,8795.379198031376,None,001,14,2019_Oct_07_1559,ACPT_experiment_5_30_19,3.1.0,59.95274755483811,
,,,C,D,y,b,L,G,g,R,c ,,,,,13,4,264,11,2,0,2,0,,,,,1,30,66,19,,,,,,up,0.6004745873015054,8797.147247336294,None,001,14,2019_Oct_07_1559,ACPT_experiment_5_30_19,3.1.0,59.95274755483811,
,,,C,D,y,b,R,U,d,L,u,,,,,13,4,264,11,2,0,2,0,,,,,1,31,67,8,,,,,,up,0.5337709526120307,8799.032057735316,None,001,14,2019_Oct_07_1559,ACPT_experiment_5_30_19,3.1.0,59.95274755483811,
,,,C,D,y,b,L,U,y,L,u,,,,,13,4,264,11,2,0,2,0,,,,,1,32,68,24,,,,,,down,0.6336624936266162,8800.866982132491,None,001,14,2019_Oct_07_1559,ACPT_experiment_5_30_19,3.1.0,59.95274755483811,
,,,C,D,y,b,L,U,g,R,u,,,,,13,4,264,11,2,0,2,0,,,,,1,33,69,23,,,,,,up,0.5671094880326564,8802.801676420328,None,001,14,2019_Oct_07_1559,ACPT_experiment_5_30_19,3.1.0,59.95274755483811,
,,,C,D,y,b,L,G,d,R,i,,,,,13,4,264,11,2,0,2,0,,,,,1,34,70,17,,,,,,up,0.4336789752869663,8804.653119003324,None,001,14,2019_Oct_07_1559,ACPT_experiment_5_30_19,3.1.0,59.95274755483811,
,,,C,D,y,b,R,D,g,R,i,,,,,13,4,264,11,2,0,2,0,,,,,1,35,71,3,,,,,,up,0.3836589467500744,8806.371127753093,None,001,14,2019_Oct_07_1559,ACPT_experiment_5_30_19,3.1.0,59.95274755483811,
,,,C,D,y,b,,,,,,,,,,13,4,264,11,3,0,3,0,0,0,0,0,,,,,,,,,,,,,,001,14,2019_Oct_07_1559,ACPT_experiment_5_30_19,3.1.0,59.95274755483811,
,,,C,D,y,b,L,D,g,L,i,,,,,13,4,264,11,3,0,3,0,,,,,0,0,0,14,,,,,,up,0.6305019993815222,8815.63170793773,None,001,14,2019_Oct_07_1559,ACPT_experiment_5_30_19,3.1.0,59.95274755483811,
,,,C,D,y,b,L,G,d,L,i,,,,,13,4,264,11,3,0,3,0,,,,,0,1,1,16,,,,,,up,0.4670289814603166,8817.546544541385,None,001,14,2019_Oct_07_1559,ACPT_experiment_5_30_19,3.1.0,59.95274755483811,
,,,C,D,y,b,L,G,y,L,y,,,,,13,4,264,11,3,0,3,0,,,,,0,2,2,34,,,,,,down,0.6672099174920731,8819.281212748352,None,001,14,2019_Oct_07_1559,ACPT_experiment_5_30_19,3.1.0,59.95274755483811,
,,,C,D,y,b,R,D,g,R,i,,,,,13,4,264,11,3,0,3,0,,,,,0,3,3,3,,,,,,up,0.5003904583863914,8821.232760288736,None,001,14,2019_Oct_07_1559,ACPT_experiment_5_30_19,3.1.0,59.95274755483811,
,,,C,D,y,b,R,D,d,R,c ,,,,,13,4,264,11,3,0,3,0,,,,,0,4,4,1,,,,,,up,0.6672153510062344,8823.000793594972,None,001,14,2019_Oct_07_1559,ACPT_experiment_5_30_19,3.1.0,59.95274755483811,
,,,C,D,y,b,L,U,y,R,u,,,,,13,4,264,11,3,0,3,0,,,,,0,5,5,25,,,,,,down,0.5504500308361457,8824.95232121247,None,001,14,2019_Oct_07_1559,ACPT_experiment_5_30_19,3.1.0,59.95274755483811,
,,,C,D,y,b,R,D,y,L,y,,,,,13,4,264,11,3,0,3,0,,,,,0,6,6,26,,,,,,down,0.483714700645578,8826.787106753163,None,001,14,2019_Oct_07_1559,ACPT_experiment_5_30_19,3.1.0,59.95274755483811,
,,,C,D,y,b,R,G,d,L,i,,,,,13,4,264,11,3,0,3,0,,,,,0,7,7,4,,,,,,up,0.5001396111347276,8828.572109830646,None,001,14,2019_Oct_07_1559,ACPT_experiment_5_30_19,3.1.0,59.95274755483811,
,,,C,D,y,b,R,D,d,L,c,,,,,13,4,264,11,3,0,3,0,,,,,0,8,8,0,,,,,,up,0.48371409692117595,8830.356568349234,None,001,14,2019_Oct_07_1559,ACPT_experiment_5_30_19,3.1.0,59.95274755483811,
,,,C,D,y,b,L,G,g,L,c ,,,,,13,4,264,11,3,0,3,0,,,,,0,9,9,18,,,,,,up,0.500392571420889,8832.124619767184,None,001,14,2019_Oct_07_1559,ACPT_experiment_5_30_19,3.1.0,59.95274755483811,
,,,C,D,y,b,L,U,g,L,u,,,,,13,4,264,11,3,0,3,0,,,,,0,10,10,22,,,,,,up,0.4503568460622773,8833.909347848463,None,001,14,2019_Oct_07_1559,ACPT_experiment_5_30_19,3.1.0,59.95274755483811,
,,,C,D,y,b,L,D,d,R,c ,,,,,13,4,264,11,3,0,3,0,,,,,0,11,11,13,,,,,,up,0.5334736186268856,8835.660994580672,None,001,14,2019_Oct_07_1559,ACPT_experiment_5_30_19,3.1.0,59.95274755483811,
,,,C,D,y,b,L,D,g,R,i,,,,,13,4,264,11,3,0,3,0,,,,,0,12,12,15,,,,,,up,0.5170906669427495,8837.462135196103,None,001,14,2019_Oct_07_1559,ACPT_experiment_5_30_19,3.1.0,59.95274755483811,
,,,C,D,y,b,R,G,y,L,y,,,,,13,4,264,11,3,0,3,0,,,,,0,13,13,28,,,,,,down,0.667195729980449,8839.263537827674,None,001,14,2019_Oct_07_1559,ACPT_experiment_5_30_19,3.1.0,59.95274755483811,
,,,C,D,y,b,L,U,d,L,u,,,,,13,4,264,11,3,0,3,0,,,,,0,14,14,20,,,,,,up,0.41698842631194566,8841.215067256344,None,001,14,2019_Oct_07_1559,ACPT_experiment_5_30_19,3.1.0,59.95274755483811,
,,,C,D,y,b,R,U,d,R,u,,,,,13,4,264,11,3,0,3,0,,,,,0,15,15,9,,,,,,up,0.43035034395506955,8842.93640886351,None,001,14,2019_Oct_07_1559,ACPT_experiment_5_30_19,3.1.0,59.95274755483811,
,,,C,D,y,b,R,G,g,R,c ,,,,,13,4,264,11,3,0,3,0,,,,,0,16,16,7,,,,,,up,0.4503517144094076,8844.651091396843,None,001,14,2019_Oct_07_1559,ACPT_experiment_5_30_19,3.1.0,59.95274755483811,
,,,C,D,y,b,L,D,y,R,y,,,,,13,4,264,11,3,0,3,0,,,,,0,17,17,33,,,,,,down,0.4336949739699776,8846.38578163973,None,001,14,2019_Oct_07_1559,ACPT_experiment_5_30_19,3.1.0,59.95274755483811,
,,,C,D,y,b,R,U,y,R,u,,,,,13,4,264,11,3,0,3,0,,,,,0,18,18,31,,,,,,down,0.48373824587542913,8848.103791295087,None,001,14,2019_Oct_07_1559,ACPT_experiment_5_30_19,3.1.0,59.95274755483811,
,,,C,D,y,b,R,U,y,L,u,,,,,13,4,264,11,3,0,3,0,,,,,0,19,19,30,,,,,,down,0.5671088843100733,8849.871841807451,None,001,14,2019_Oct_07_1559,ACPT_experiment_5_30_19,3.1.0,59.95274755483811,
,,,C,D,y,b,R,D,g,L,i,,,,,13,4,264,11,3,0,3,0,,,,,0,20,20,2,,,,,,down,0.5170662161290238,8851.723289823962,None,001,14,2019_Oct_07_1559,ACPT_experiment_5_30_19,3.1.0,59.95274755483811,
,,,C,D,y,b,R,U,d,L,u,,,,,13,4,264,11,3,0,3,0,,,,,0,21,21,8,,,,,,up,0.45035111068682454,8853.524697285326,None,001,14,2019_Oct_07_1559,ACPT_experiment_5_30_19,3.1.0,59.95274755483811,
,,,C,D,y,b,R,U,g,L,u,,,,,13,4,264,11,3,0,3,0,,,,,0,22,22,10,,,,,,up,0.43369648327825416,8855.242691847585,None,001,14,2019_Oct_07_1559,ACPT_experiment_5_30_19,3.1.0,59.95274755483811,
,,,C,D,y,b,L,D,d,L,c ,,,,,13,4,264,11,3,0,3,0,,,,,0,23,23,12,,,,,,up,0.5168035962633439,8856.977672481633,None,001,14,2019_Oct_07_1559,ACPT_experiment_5_30_19,3.1.0,59.95274755483811,
,,,C,D,y,b,L,G,d,R,i,,,,,13,4,264,11,3,0,3,0,,,,,0,24,24,17,,,,,,up,0.6505344616125512,8858.762138244907,None,001,14,2019_Oct_07_1559,ACPT_experiment_5_30_19,3.1.0,59.95274755483811,
,,,C,D,y,b,R,G,d,R,i,,,,,13,4,264,11,3,0,3,0,,,,,0,25,25,5,,,,,,up,0.4837089652683062,8860.680301970584,None,001,14,2019_Oct_07_1559,ACPT_experiment_5_30_19,3.1.0,59.95274755483811,
,,,C,D,y,b,L,D,y,L,y,,,,,13,4,264,11,3,0,3,0,,,,,0,26,26,32,,,,,,down,0.7172356814062368,8862.44834795502,None,001,14,2019_Oct_07_1559,ACPT_experiment_5_30_19,3.1.0,59.95274755483811,
,,,C,D,y,b,L,G,y,R,y,,,,,13,4,264,11,3,0,3,0,,,,,0,27,27,35,,,,,,down,1.3343977990643907,8864.449912807186,None,001,14,2019_Oct_07_1559,ACPT_experiment_5_30_19,3.1.0,59.95274755483811,
,,,C,D,y,b,L,U,d,R,u,,,,,13,4,264,11,3,0,3,0,,,,,0,28,28,21,,,,,,up,0.6004540606918454,8867.068638871422,None,001,14,2019_Oct_07_1559,ACPT_experiment_5_30_19,3.1.0,59.95274755483811,
,,,C,D,y,b,L,G,g,R,c ,,,,,13,4,264,11,3,0,3,0,,,,,0,29,29,19,,,,,,up,0.6004718705444247,8868.953442629481,None,001,14,2019_Oct_07_1559,ACPT_experiment_5_30_19,3.1.0,59.95274755483811,
,,,C,D,y,b,R,G,g,L,c ,,,,,13,4,264,11,3,0,3,0,,,,,0,30,30,6,,,,,,up,0.8840291803880973,8870.838248500575,None,001,14,2019_Oct_07_1559,ACPT_experiment_5_30_19,3.1.0,59.95274755483811,
,,,C,D,y,b,R,G,y,R,y,,,,,13,4,264,11,3,0,3,0,,,,,0,31,31,29,,,,,,down,0.6338556852515467,8872.989908756199,None,001,14,2019_Oct_07_1559,ACPT_experiment_5_30_19,3.1.0,59.95274755483811,
,,,C,D,y,b,R,U,g,R,u,,,,,13,4,264,11,3,0,3,0,,,,,0,32,32,11,,,,,,up,0.6338590057330293,8874.908098442,None,001,14,2019_Oct_07_1559,ACPT_experiment_5_30_19,3.1.0,59.95274755483811,
,,,C,D,y,b,L,U,g,R,u,,,,,13,4,264,11,3,0,3,0,,,,,0,33,33,23,,,,,,up,0.45035111068500555,8876.826267903052,None,001,14,2019_Oct_07_1559,ACPT_experiment_5_30_19,3.1.0,59.95274755483811,
,,,C,D,y,b,R,D,y,R,y,,,,,13,4,264,11,3,0,3,0,,,,,0,34,34,27,,,,,,down,0.6004751910259074,8878.560957240354,None,001,14,2019_Oct_07_1559,ACPT_experiment_5_30_19,3.1.0,59.95274755483811,
,,,C,D,y,b,L,U,y,L,u,,,,,13,4,264,11,3,0,3,0,,,,,0,35,35,24,,,,,,down,0.7005864875136467,8880.429061997305,None,001,14,2019_Oct_07_1559,ACPT_experiment_5_30_19,3.1.0,59.95274755483811,
,,,C,D,y,b,R,D,d,L,c,,,,,13,4,264,11,3,0,3,0,,,,,1,0,36,0,,,,,,up,0.5137406034154992,8882.43398838375,None,001,14,2019_Oct_07_1559,ACPT_experiment_5_30_19,3.1.0,59.95274755483811,
,,,C,D,y,b,L,G,g,R,c ,,,,,13,4,264,11,3,0,3,0,,,,,1,1,37,19,,,,,,up,0.5170873464630859,8884.232063591438,None,001,14,2019_Oct_07_1559,ACPT_experiment_5_30_19,3.1.0,59.95274755483811,
,,,C,D,y,b,R,U,d,L,u,,,,,13,4,264,11,3,0,3,0,,,,,1,2,38,8,,,,,,up,0.4670289814603166,8886.033474071419,None,001,14,2019_Oct_07_1559,ACPT_experiment_5_30_19,3.1.0,59.95274755483811,
,,,C,D,y,b,L,D,g,R,i,,,,,13,4,264,11,3,0,3,0,,,,,1,3,39,15,,,,,,up,0.5170794980513165,8887.784842486943,None,001,14,2019_Oct_07_1559,ACPT_experiment_5_30_19,3.1.0,59.95274755483811,
,,,C,D,y,b,L,D,d,L,c ,,,,,13,4,264,11,3,0,3,0,,,,,1,4,40,12,,,,,,up,0.48343034672143403,8889.58652826499,None,001,14,2019_Oct_07_1559,ACPT_experiment_5_30_19,3.1.0,59.95274755483811,
,,,C,D,y,b,R,U,y,L,u,,,,,13,4,264,11,3,0,3,0,,,,,1,5,41,30,,,,,,down,0.6171518543524144,8891.354302573704,None,001,14,2019_Oct_07_1559,ACPT_experiment_5_30_19,3.1.0,59.95274755483811,
,,,C,D,y,b,R,U,g,R,u,,,,,13,4,264,11,3,0,3,0,,,,,1,6,42,11,,,,,,up,0.6171935112979554,8893.239089427498,None,001,14,2019_Oct_07_1559,ACPT_experiment_5_30_19,3.1.0,59.95274755483811,
,,,C,D,y,b,R,D,g,R,i,,,,,13,4,264,11,3,0,3,0,,,,,1,7,43,3,,,,,,up,0.48383453982387437,8895.140598827627,None,001,14,2019_Oct_07_1559,ACPT_experiment_5_30_19,3.1.0,59.95274755483811,
,,,C,D,y,b,L,U,d,R,u,,,,,13,4,264,11,3,0,3,0,,,,,1,8,44,21,,,,,,up,0.45007822751540516,8896.92560341442,None,001,14,2019_Oct_07_1559,ACPT_experiment_5_30_19,3.1.0,59.95274755483811,
,,,C,D,y,b,R,G,g,R,c ,,,,,13,4,264,11,3,0,3,0,,,,,1,9,45,7,,,,,,up,0.4003443640722253,8898.660020170413,None,001,14,2019_Oct_07_1559,ACPT_experiment_5_30_19,3.1.0,59.95274755483811,
,,,C,D,y,b,L,G,d,R,i,,,,,13,4,264,11,3,0,3,0,,,,,1,10,46,17,,,,,,up,0.4837720544092008,8900.34464902968,None,001,14,2019_Oct_07_1559,ACPT_experiment_5_30_19,3.1.0,59.95274755483811,
,,,C,D,y,b,L,G,y,L,y,,,,,13,4,264,11,3,0,3,0,,,,,1,11,47,34,,,,,,down,0.6671791275766736,8902.096054272357,None,001,14,2019_Oct_07_1559,ACPT_experiment_5_30_19,3.1.0,59.95274755483811,
,,,C,D,y,b,R,D,y,L,y,,,,,13,4,264,11,3,0,3,0,,,,,1,12,48,26,,,,,,down,0.7505597274539468,8904.080953026361,None,001,14,2019_Oct_07_1559,ACPT_experiment_5_30_19,3.1.0,59.95274755483811,
,,,C,D,y,b,R,D,y,R,y,,,,,13,4,264,11,3,0,3,0,,,,,1,13,49,27,,,,,,down,0.5337247677398409,8906.132536095893,None,001,14,2019_Oct_07_1559,ACPT_experiment_5_30_19,3.1.0,59.95274755483811,
,,,C,D,y,b,R,G,d,L,i,,,,,13,4,264,11,3,0,3,0,,,,,1,14,50,4,,,,,,up,0.5004073626532772,8907.950621126167,None,001,14,2019_Oct_07_1559,ACPT_experiment_5_30_19,3.1.0,59.95274755483811,
,,,C,D,y,b,L,U,y,L,u,,,,,13,4,264,11,3,0,3,0,,,,,1,15,51,24,,,,,,down,0.6505112182458106,8909.735352829788,None,001,14,2019_Oct_07_1559,ACPT_experiment_5_30_19,3.1.0,59.95274755483811,
,,,C,D,y,b,L,U,g,L,u,,,,,13,4,264,11,3,0,3,0,,,,,1,16,52,22,,,,,,up,0.5835069290878891,8911.670479383887,None,001,14,2019_Oct_07_1559,ACPT_experiment_5_30_19,3.1.0,59.95274755483811,
,,,C,D,y,b,R,U,g,L,u,,,,,13,4,264,11,3,0,3,0,,,,,1,17,53,10,,,,,,up,0.517079196190025,8913.52165029116,None,001,14,2019_Oct_07_1559,ACPT_experiment_5_30_19,3.1.0,59.95274755483811,
,,,C,D,y,b,L,D,g,L,i,,,,,13,4,264,11,3,0,3,0,,,,,1,18,54,14,,,,,,up,0.5003877416293108,8915.323061676727,None,001,14,2019_Oct_07_1559,ACPT_experiment_5_30_19,3.1.0,59.95274755483811,
,,,C,D,y,b,L,G,d,L,i,,,,,13,4,264,11,3,0,3,0,,,,,1,19,55,16,,,,,,up,0.5170728570901701,8917.10779036173,None,001,14,2019_Oct_07_1559,ACPT_experiment_5_30_19,3.1.0,59.95274755483811,
,,,C,D,y,b,L,U,d,L,u,,,,,13,4,264,11,3,0,3,0,,,,,1,20,56,20,,,,,,up,0.5501560173306643,8918.92615672731,None,001,14,2019_Oct_07_1559,ACPT_experiment_5_30_19,3.1.0,59.95274755483811,
,,,C,D,y,b,R,G,y,R,y,,,,,13,4,264,11,3,0,3,0,,,,,1,21,57,29,,,,,,down,0.6337080747762229,8920.760655801045,None,001,14,2019_Oct_07_1559,ACPT_experiment_5_30_19,3.1.0,59.95274755483811,
,,,C,D,y,b,L,D,d,R,c ,,,,,13,4,264,11,3,0,3,0,,,,,1,22,58,13,,,,,,up,1.167589508850142,8922.67881137645,None,001,14,2019_Oct_07_1559,ACPT_experiment_5_30_19,3.1.0,59.95274755483811,
,,,C,D,y,b,R,U,d,R,u,,,,,13,4,264,11,3,0,3,0,,,,,1,23,59,9,,,,,,up,0.5336885443102801,8925.130786806098,None,001,14,2019_Oct_07_1559,ACPT_experiment_5_30_19,3.1.0,59.95274755483811,
,,,C,D,y,b,L,U,y,R,u,,,,,13,4,264,11,3,0,3,0,,,,,1,24,60,25,,,,,,down,0.5837870569466759,8926.965505031585,None,001,14,2019_Oct_07_1559,ACPT_experiment_5_30_19,3.1.0,59.95274755483811,
,,,C,D,y,b,L,G,y,R,y,,,,,13,4,264,11,3,0,3,0,,,,,1,25,61,35,,,,,,down,0.5003871379067277,8928.850313015711,None,001,14,2019_Oct_07_1559,ACPT_experiment_5_30_19,3.1.0,59.95274755483811,
,,,C,D,y,b,R,D,g,L,i,,,,,13,4,264,11,3,0,3,0,,,,,1,26,62,2,,,,,,up,0.6505148405885848,8930.635040191404,None,001,14,2019_Oct_07_1559,ACPT_experiment_5_30_19,3.1.0,59.95274755483811,
,,,C,D,y,b,L,D,y,L,y,,,,,13,4,264,11,3,0,3,0,,,,,1,27,63,32,,,,,,down,0.6333917234896944,8932.586978341105,None,001,14,2019_Oct_07_1559,ACPT_experiment_5_30_19,3.1.0,59.95274755483811,
,,,C,D,y,b,R,G,d,R,i,,,,,13,4,264,11,3,0,3,0,,,,,1,28,64,5,,,,,,up,0.7672753309689142,8934.504736062507,None,001,14,2019_Oct_07_1559,ACPT_experiment_5_30_19,3.1.0,59.95274755483811,
,,,C,D,y,b,L,G,g,L,c ,,,,,13,4,264,11,3,0,3,0,,,,,1,29,65,18,,,,,,up,0.6505057847298303,8936.556345394025,None,001,14,2019_Oct_07_1559,ACPT_experiment_5_30_19,3.1.0,59.95274755483811,
,,,C,D,y,b,L,D,y,R,y,,,,,13,4,264,11,3,0,3,0,,,,,1,30,66,33,,,,,,down,0.5504298060859583,8938.491191216543,None,001,14,2019_Oct_07_1559,ACPT_experiment_5_30_19,3.1.0,59.95274755483811,
,,,C,D,y,b,R,D,d,R,c ,,,,,13,4,264,11,3,0,3,0,,,,,1,31,67,1,,,,,,up,0.5504168260249571,8940.32597404048,None,001,14,2019_Oct_07_1559,ACPT_experiment_5_30_19,3.1.0,59.95274755483811,
,,,C,D,y,b,R,G,y,L,y,,,,,13,4,264,11,3,0,3,0,,,,,1,32,68,28,,,,,,down,0.7339138540428394,8942.160731508015,None,001,14,2019_Oct_07_1559,ACPT_experiment_5_30_19,3.1.0,59.95274755483811,
,,,C,D,y,b,R,G,g,L,c ,,,,,13,4,264,11,3,0,3,0,,,,,1,33,69,6,,,,,,up,0.5671405798111664,8944.162272814949,None,001,14,2019_Oct_07_1559,ACPT_experiment_5_30_19,3.1.0,59.95274755483811,
,,,C,D,y,b,L,U,g,R,u,,,,,13,4,264,11,3,0,3,0,,,,,1,34,70,23,,,,,,up,0.6338550815289636,8946.013741056207,None,001,14,2019_Oct_07_1559,ACPT_experiment_5_30_19,3.1.0,59.95274755483811,
,,,C,D,y,b,R,U,y,R,u,,,,,13,4,264,11,3,0,3,0,,,,,1,35,71,31,,,,,,down,0.6669961992574827,8947.948749884159,None,001,14,2019_Oct_07_1559,ACPT_experiment_5_30_19,3.1.0,59.95274755483811,
,,,C,D,y,b,,,,,,,,,,13,4,264,11,4,0,4,0,0,0,0,0,,,,,,,,,,,,,,001,14,2019_Oct_07_1559,ACPT_experiment_5_30_19,3.1.0,59.95274755483811,
,,,C,D,y,b,R,G,y,R,y,,,,,13,4,264,11,4,0,4,0,,,,,0,0,0,29,,,,,,down,0.7505718019310734,8957.689560377363,None,001,14,2019_Oct_07_1559,ACPT_experiment_5_30_19,3.1.0,59.95274755483811,
,,,C,D,y,b,R,U,g,L,u,,,,,13,4,264,11,4,0,4,0,,,,,0,1,1,10,,,,,,up,0.5337455962107924,8959.741157332543,None,001,14,2019_Oct_07_1559,ACPT_experiment_5_30_19,3.1.0,59.95274755483811,
,,,C,D,y,b,R,G,g,L,c ,,,,,13,4,264,11,4,0,4,0,,,,,0,2,2,6,,,,,,up,0.6338300269890169,8961.559243872127,None,001,14,2019_Oct_07_1559,ACPT_experiment_5_30_19,3.1.0,59.95274755483811,
,,,C,D,y,b,R,G,g,R,c ,,,,,13,4,264,11,4,0,4,0,,,,,0,3,3,7,,,,,,up,0.4670555453085399,8963.46070799297,None,001,14,2019_Oct_07_1559,ACPT_experiment_5_30_19,3.1.0,59.95274755483811,
,,,C,D,y,b,L,D,d,R,c ,,,,,13,4,264,11,4,0,4,0,,,,,0,4,4,13,,,,,,up,0.46702234049735125,8965.212105387238,None,001,14,2019_Oct_07_1559,ACPT_experiment_5_30_19,3.1.0,59.95274755483811,
,,,C,D,y,b,L,G,d,R,i,,,,,13,4,264,11,4,0,4,0,,,,,0,5,5,17,,,,,,up,0.40030904622653907,8966.963475312072,None,001,14,2019_Oct_07_1559,ACPT_experiment_5_30_19,3.1.0,59.95274755483811,
,,,C,D,y,b,R,D,g,L,i,,,,,13,4,264,11,4,0,4,0,,,,,0,6,6,2,,,,,,up,0.4670111716077372,8968.648146432006,None,001,14,2019_Oct_07_1559,ACPT_experiment_5_30_19,3.1.0,59.95274755483811,
,,,C,D,y,b,L,D,g,R,i,,,,,13,4,264,11,4,0,4,0,,,,,0,7,7,15,,,,,,up,0.39999450611321663,8970.416480996433,None,001,14,2019_Oct_07_1559,ACPT_experiment_5_30_19,3.1.0,59.95274755483811,
