facing_vig,person_vig,text_vig,facing_train,person_train,food_train,correct_key_train,facing_exp,person_exp,food_exp,showL_R,consistent,vig_random.thisRepN,vig_random.thisTrialN,vig_random.thisN,vig_random.thisIndex,trainTrials.thisRepN,trainTrials.thisTrialN,trainTrials.thisN,trainTrials.thisIndex,expBlock.thisRepN,expBlock.thisTrialN,expBlock.thisN,expBlock.thisIndex,breakLoop.thisRepN,breakLoop.thisTrialN,breakLoop.thisN,breakLoop.thisIndex,expTrials.thisRepN,expTrials.thisTrialN,expTrials.thisN,expTrials.thisIndex,train_resp.keys,train_resp.corr,train_resp.rt,train_resp.started,train_resp.stopped,exp_resp.keys,exp_resp.rt,exp_resp.started,exp_resp.stopped,session,participant,date,expName,psychopyVersion,frameRate,
C,D,"is allergic to gluten, meaning she can’t eat wheat products. She enjoys eating dairy products. She thinks eating insects, like crickets, is disgusting.",,,,,,,,,,0,0,0,1,,,,,,,,,,,,,,,,,,,,,,,,,,001,15,2019_Oct_07_1656,ACPT_experiment_5_30_19,3.1.0,59.954483591865866,
C,G,"cannot eat dairy products because she is lactose intolerant. She enjoys eating wheat products. She thinks eating insects, like crickets, is disgusting.",,,,,,,,,,0,1,1,0,,,,,,,,,,,,,,,,,,,,,,,,,,001,15,2019_Oct_07_1656,ACPT_experiment_5_30_19,3.1.0,59.954483591865866,
C,U,"did not report her food preferences, so her food preferences are unknown.",,,,,,,,,,0,2,2,2,,,,,,,,,,,,,,,,,,,,,,,,,,001,15,2019_Oct_07_1656,ACPT_experiment_5_30_19,3.1.0,59.954483591865866,
,,,C,G,g,v,,,,,,,,,,0,0,0,13,,,,,,,,,,,,,v,1,2.368536570420474,192.46011543803252,None,,,,,001,15,2019_Oct_07_1656,ACPT_experiment_5_30_19,3.1.0,59.954483591865866,
,,,C,U,y,n,,,,,,,,,,0,1,1,8,,,,,,,,,,,,,n,1,3.1524692455550394,198.1145659542617,None,,,,,001,15,2019_Oct_07_1656,ACPT_experiment_5_30_19,3.1.0,59.954483591865866,
,,,C,G,g,v,,,,,,,,,,0,2,2,19,,,,,,,,,,,,,v,1,1.334394478582908,204.55292077060403,None,,,,,001,15,2019_Oct_07_1656,ACPT_experiment_5_30_19,3.1.0,59.954483591865866,
,,,C,G,d,b,,,,,,,,,,0,3,3,3,,,,,,,,,,,,,b,1,1.717748242936068,209.19015942233273,None,,,,,001,15,2019_Oct_07_1656,ACPT_experiment_5_30_19,3.1.0,59.954483591865866,
,,,C,G,d,b,,,,,,,,,,0,4,4,12,,,,,,,,,,,,,b,1,1.4344677404696995,214.19380591425943,None,,,,,001,15,2019_Oct_07_1656,ACPT_experiment_5_30_19,3.1.0,59.954483591865866,
,,,C,D,d,v,,,,,,,,,,0,5,5,0,,,,,,,,,,,,,b,0,1.217621913725452,218.9308594340746,None,,,,,001,15,2019_Oct_07_1656,ACPT_experiment_5_30_19,3.1.0,59.954483591865866,
,,,C,U,y,n,,,,,,,,,,0,6,6,17,,,,,,,,,,,,,n,1,1.5512490593227994,223.43435544783642,None,,,,,001,15,2019_Oct_07_1656,ACPT_experiment_5_30_19,3.1.0,59.954483591865866,
,,,C,G,y,b,,,,,,,,,,0,7,7,14,,,,,,,,,,,,,b,1,2.2851487258558336,228.2714816258158,None,,,,,001,15,2019_Oct_07_1656,ACPT_experiment_5_30_19,3.1.0,59.954483591865866,
,,,C,U,d,n,,,,,,,,,,0,8,8,15,,,,,,,,,,,,,n,1,1.9015275118454156,233.84249750888375,None,,,,,001,15,2019_Oct_07_1656,ACPT_experiment_5_30_19,3.1.0,59.954483591865866,
,,,C,G,y,b,,,,,,,,,,0,9,9,5,,,,,,,,,,,,,n,0,1.534550360076537,239.02991391199976,None,,,,,001,15,2019_Oct_07_1656,ACPT_experiment_5_30_19,3.1.0,59.954483591865866,
,,,C,U,g,n,,,,,,,,,,0,10,10,7,,,,,,,,,,,,,n,1,1.918184554147956,243.85035588010396,None,,,,,001,15,2019_Oct_07_1656,ACPT_experiment_5_30_19,3.1.0,59.954483591865866,
,,,C,D,y,b,,,,,,,,,,0,11,11,11,,,,,,,,,,,,,b,1,1.784734722239591,249.0544311366939,None,,,,,001,15,2019_Oct_07_1656,ACPT_experiment_5_30_19,3.1.0,59.954483591865866,
,,,C,D,d,v,,,,,,,,,,0,12,12,18,,,,,,,,,,,,,b,0,1.7680695296658087,254.1250662209568,None,,,,,001,15,2019_Oct_07_1656,ACPT_experiment_5_30_19,3.1.0,59.954483591865866,
,,,C,G,g,v,,,,,,,,,,0,13,13,4,,,,,,,,,,,,,b,0,2.101666187209048,259.1790228307218,None,,,,,001,15,2019_Oct_07_1656,ACPT_experiment_5_30_19,3.1.0,59.954483591865866,
,,,C,D,g,b,,,,,,,,,,0,14,14,10,,,,,,,,,,,,,b,1,3.069085023333173,264.56657730547704,None,,,,,001,15,2019_Oct_07_1656,ACPT_experiment_5_30_19,3.1.0,59.954483591865866,
,,,C,U,g,n,,,,,,,,,,0,15,15,16,,,,,,,,,,,,,n,1,1.1009000616704725,270.9215306934693,None,,,,,001,15,2019_Oct_07_1656,ACPT_experiment_5_30_19,3.1.0,59.954483591865866,
,,,C,U,d,n,,,,,,,,,,0,16,16,6,,,,,,,,,,,,,n,1,0.9504964571988239,275.3085883035146,None,,,,,001,15,2019_Oct_07_1656,ACPT_experiment_5_30_19,3.1.0,59.954483591865866,
,,,C,D,g,b,,,,,,,,,,0,17,17,1,,,,,,,,,,,,,b,1,2.852234668660458,279.54498753763073,None,,,,,001,15,2019_Oct_07_1656,ACPT_experiment_5_30_19,3.1.0,59.954483591865866,
,,,C,D,y,b,,,,,,,,,,0,18,18,2,,,,,,,,,,,,,b,1,1.317716607809416,285.66643201933766,None,,,,,001,15,2019_Oct_07_1656,ACPT_experiment_5_30_19,3.1.0,59.954483591865866,
,,,C,D,d,v,,,,,,,,,,0,19,19,9,,,,,,,,,,,,,v,1,2.715484882302917,290.290046435417,None,,,,,001,15,2019_Oct_07_1656,ACPT_experiment_5_30_19,3.1.0,59.954483591865866,
,,,C,D,d,v,,,,,,,,,,1,0,20,0,,,,,,,,,,,,,v,1,2.468616473268412,296.27473599911536,None,,,,,001,15,2019_Oct_07_1656,ACPT_experiment_5_30_19,3.1.0,59.954483591865866,
,,,C,U,g,n,,,,,,,,,,1,1,21,7,,,,,,,,,,,,,n,1,1.167599470292771,302.0292477027542,None,,,,,001,15,2019_Oct_07_1656,ACPT_experiment_5_30_19,3.1.0,59.954483591865866,
,,,C,U,g,n,,,,,,,,,,1,2,22,16,,,,,,,,,,,,,n,1,0.8337347593696904,306.48300170280163,None,,,,,001,15,2019_Oct_07_1656,ACPT_experiment_5_30_19,3.1.0,59.954483591865866,
,,,C,U,d,n,,,,,,,,,,1,3,23,15,,,,,,,,,,,,,n,1,0.8173324885228794,310.58594416218693,None,,,,,001,15,2019_Oct_07_1656,ACPT_experiment_5_30_19,3.1.0,59.954483591865866,
,,,C,G,g,v,,,,,,,,,,1,4,24,4,,,,,,,,,,,,,b,0,5.52053853373036,314.7062741697064,None,,,,,001,15,2019_Oct_07_1656,ACPT_experiment_5_30_19,3.1.0,59.954483591865866,
,,,C,G,d,b,,,,,,,,,,1,5,25,12,,,,,,,,,,,,,v,0,1.8681455083114997,323.49604938219454,None,,,,,001,15,2019_Oct_07_1656,ACPT_experiment_5_30_19,3.1.0,59.954483591865866,
,,,C,G,g,v,,,,,,,,,,1,6,26,13,,,,,,,,,,,,,v,1,1.7013498962951417,328.6334071184465,None,,,,,001,15,2019_Oct_07_1656,ACPT_experiment_5_30_19,3.1.0,59.954483591865866,
,,,C,G,y,b,,,,,,,,,,1,7,27,5,,,,,,,,,,,,,b,1,1.4344722683999862,333.60396471475724,None,,,,,001,15,2019_Oct_07_1656,ACPT_experiment_5_30_19,3.1.0,59.954483591865866,
,,,C,U,d,n,,,,,,,,,,1,8,28,6,,,,,,,,,,,,,n,1,0.7671403986933001,338.34111694341846,None,,,,,001,15,2019_Oct_07_1656,ACPT_experiment_5_30_19,3.1.0,59.954483591865866,
,,,C,D,y,b,,,,,,,,,,1,9,29,2,,,,,,,,,,,,,b,1,1.1508883947080903,342.4108717983381,None,,,,,001,15,2019_Oct_07_1656,ACPT_experiment_5_30_19,3.1.0,59.954483591865866,
,,,C,U,y,n,,,,,,,,,,1,10,30,17,,,,,,,,,,,,,n,1,0.8170753021713608,346.8812674457313,None,,,,,001,15,2019_Oct_07_1656,ACPT_experiment_5_30_19,3.1.0,59.954483591865866,
,,,C,D,g,b,,,,,,,,,,1,11,31,1,,,,,,,,,,,,,v,0,4.1365801399624615,350.98424582668304,None,,,,,001,15,2019_Oct_07_1656,ACPT_experiment_5_30_19,3.1.0,59.954483591865866,
,,,C,G,g,v,,,,,,,,,,1,12,32,19,,,,,,,,,,,,,v,1,2.7688821419396845,358.4066904070987,None,,,,,001,15,2019_Oct_07_1656,ACPT_experiment_5_30_19,3.1.0,59.954483591865866,
,,,C,G,d,b,,,,,,,,,,1,13,33,3,,,,,,,,,,,,,b,1,2.4185768237057346,364.44477330622976,None,,,,,001,15,2019_Oct_07_1656,ACPT_experiment_5_30_19,3.1.0,59.954483591865866,
,,,C,D,y,b,,,,,,,,,,1,14,34,11,,,,,,,,,,,,,b,1,1.2176261397926282,370.1492471714773,None,,,,,001,15,2019_Oct_07_1656,ACPT_experiment_5_30_19,3.1.0,59.954483591865866,
,,,C,U,y,n,,,,,,,,,,1,15,35,8,,,,,,,,,,,,,n,1,0.7002052359166555,374.68648319700696,None,,,,,001,15,2019_Oct_07_1656,ACPT_experiment_5_30_19,3.1.0,59.954483591865866,
,,,C,D,g,b,,,,,,,,,,1,16,36,10,,,,,,,,,,,,,b,1,2.785526807903807,378.67258215398397,None,,,,,001,15,2019_Oct_07_1656,ACPT_experiment_5_30_19,3.1.0,59.954483591865866,
,,,C,D,d,v,,,,,,,,,,1,17,37,18,,,,,,,,,,,,,v,1,1.4345009452808881,384.7439724967571,None,,,,,001,15,2019_Oct_07_1656,ACPT_experiment_5_30_19,3.1.0,59.954483591865866,
,,,C,G,y,b,,,,,,,,,,1,18,38,14,,,,,,,,,,,,,b,1,1.150960841567212,389.4643409011114,None,,,,,001,15,2019_Oct_07_1656,ACPT_experiment_5_30_19,3.1.0,59.954483591865866,
,,,C,D,d,v,,,,,,,,,,1,19,39,9,,,,,,,,,,,,,v,1,4.720108199384413,393.91812327617845,None,,,,,001,15,2019_Oct_07_1656,ACPT_experiment_5_30_19,3.1.0,59.954483591865866,
,,,C,G,g,v,,,,,,,,,,2,0,40,13,,,,,,,,,,,,,v,1,1.7847480041637027,401.9241179519395,None,,,,,001,15,2019_Oct_07_1656,ACPT_experiment_5_30_19,3.1.0,59.954483591865866,
,,,C,U,g,n,,,,,,,,,,2,1,41,16,,,,,,,,,,,,,n,1,0.4837237565025134,406.9947533380637,None,,,,,001,15,2019_Oct_07_1656,ACPT_experiment_5_30_19,3.1.0,59.954483591865866,
,,,C,D,y,b,,,,,,,,,,2,2,42,11,,,,,,,,,,,,,b,1,1.017463013613451,410.7810689111502,None,,,,,001,15,2019_Oct_07_1656,ACPT_experiment_5_30_19,3.1.0,59.954483591865866,
,,,C,G,g,v,,,,,,,,,,2,3,43,19,,,,,,,,,,,,,v,1,1.9348633305089606,415.08441960858727,None,,,,,001,15,2019_Oct_07_1656,ACPT_experiment_5_30_19,3.1.0,59.954483591865866,
,,,C,U,d,n,,,,,,,,,,2,4,44,15,,,,,,,,,,,,,n,1,0.9341267874369805,420.30515220934103,None,,,,,001,15,2019_Oct_07_1656,ACPT_experiment_5_30_19,3.1.0,59.954483591865866,
,,,C,G,d,b,,,,,,,,,,2,5,45,12,,,,,,,,,,,,,b,1,1.5176294904613314,424.5420618919543,None,,,,,001,15,2019_Oct_07_1656,ACPT_experiment_5_30_19,3.1.0,59.954483591865866,
,,,C,U,y,n,,,,,,,,,,2,6,46,17,,,,,,,,,,,,,n,1,0.7172459447101573,429.3455799718231,None,,,,,001,15,2019_Oct_07_1656,ACPT_experiment_5_30_19,3.1.0,59.954483591865866,
,,,C,D,d,v,,,,,,,,,,2,7,47,0,,,,,,,,,,,,,v,1,2.2351096800175583,433.3487093742915,None,,,,,001,15,2019_Oct_07_1656,ACPT_experiment_5_30_19,3.1.0,59.954483591865866,
,,,C,U,g,n,,,,,,,,,,2,8,48,7,,,,,,,,,,,,,n,1,1.5012030706602673,438.8697100586123,None,,,,,001,15,2019_Oct_07_1656,ACPT_experiment_5_30_19,3.1.0,59.954483591865866,
,,,C,U,d,n,,,,,,,,,,2,9,49,6,,,,,,,,,,,,,n,1,0.617163928829541,443.640107245501,None,,,,,001,15,2019_Oct_07_1656,ACPT_experiment_5_30_19,3.1.0,59.954483591865866,
,,,C,D,d,v,,,,,,,,,,2,10,50,18,,,,,,,,,,,,,v,1,1.8014415717589145,447.54316580097657,None,,,,,001,15,2019_Oct_07_1656,ACPT_experiment_5_30_19,3.1.0,59.954483591865866,
,,,C,U,y,n,,,,,,,,,,2,11,51,8,,,,,,,,,,,,,n,1,0.6671990504619316,452.63048268021885,None,,,,,001,15,2019_Oct_07_1656,ACPT_experiment_5_30_19,3.1.0,59.954483591865866,
,,,C,D,g,b,,,,,,,,,,2,12,52,1,,,,,,,,,,,,,b,1,3.9531142037194513,456.58357364057156,None,,,,,001,15,2019_Oct_07_1656,ACPT_experiment_5_30_19,3.1.0,59.954483591865866,
,,,C,D,y,b,,,,,,,,,,2,13,53,2,,,,,,,,,,,,,b,1,0.9674179305366124,463.8225927342428,None,,,,,001,15,2019_Oct_07_1656,ACPT_experiment_5_30_19,3.1.0,59.954483591865866,
,,,C,G,d,b,,,,,,,,,,2,14,54,3,,,,,,,,,,,,,b,1,2.0345450774930214,468.1096347380262,None,,,,,001,15,2019_Oct_07_1656,ACPT_experiment_5_30_19,3.1.0,59.954483591865866,
,,,C,G,y,b,,,,,,,,,,2,15,55,14,,,,,,,,,,,,,b,1,0.9174163155767019,473.41341377751996,None,,,,,001,15,2019_Oct_07_1656,ACPT_experiment_5_30_19,3.1.0,59.954483591865866,
,,,C,D,d,v,,,,,,,,,,2,16,56,9,,,,,,,,,,,,,v,1,2.1681410105666146,477.6336292888154,None,,,,,001,15,2019_Oct_07_1656,ACPT_experiment_5_30_19,3.1.0,59.954483591865866,
,,,C,D,g,b,,,,,,,,,,2,17,57,10,,,,,,,,,,,,,b,1,2.368556493305732,483.07098222546483,None,,,,,001,15,2019_Oct_07_1656,ACPT_experiment_5_30_19,3.1.0,59.954483591865866,
,,,C,G,y,b,,,,,,,,,,2,18,58,5,,,,,,,,,,,,,b,1,1.5512140433402237,488.7254067815684,None,,,,,001,15,2019_Oct_07_1656,ACPT_experiment_5_30_19,3.1.0,59.954483591865866,
,,,C,G,g,v,,,,,,,,,,2,19,59,4,,,,,,,,,,,,,v,1,3.252573599216703,493.5458457310524,None,,,,,001,15,2019_Oct_07_1656,ACPT_experiment_5_30_19,3.1.0,59.954483591865866,
,,,C,U,g,n,,,,,,,,,,3,0,60,16,,,,,,,,,,,,,n,1,1.034168957547081,500.0842967507888,None,,,,,001,15,2019_Oct_07_1656,ACPT_experiment_5_30_19,3.1.0,59.954483591865866,
,,,C,G,d,b,,,,,,,,,,3,1,61,3,,,,,,,,,,,,,b,1,1.5679127425883053,504.42101345307856,None,,,,,001,15,2019_Oct_07_1656,ACPT_experiment_5_30_19,3.1.0,59.954483591865866,
,,,C,U,y,n,,,,,,,,,,3,2,62,8,,,,,,,,,,,,,n,1,0.9341023366214358,509.274792145432,None,,,,,001,15,2019_Oct_07_1656,ACPT_experiment_5_30_19,3.1.0,59.954483591865866,
,,,C,G,g,v,,,,,,,,,,3,3,63,19,,,,,,,,,,,,,v,1,1.4509104608132475,513.5117136006593,None,,,,,001,15,2019_Oct_07_1656,ACPT_experiment_5_30_19,3.1.0,59.954483591865866,
,,,C,U,d,n,,,,,,,,,,3,4,64,15,,,,,,,,,,,,,n,1,1.034168353824498,518.2485105378473,None,,,,,001,15,2019_Oct_07_1656,ACPT_experiment_5_30_19,3.1.0,59.954483591865866,
,,,C,G,d,b,,,,,,,,,,3,5,65,12,,,,,,,,,,,,,b,1,1.1842722094152123,522.5852547095728,None,,,,,001,15,2019_Oct_07_1656,ACPT_experiment_5_30_19,3.1.0,59.954483591865866,
,,,C,D,g,b,,,,,,,,,,3,6,66,1,,,,,,,,,,,,,b,1,1.6179436381535197,527.0554091692957,None,,,,,001,15,2019_Oct_07_1656,ACPT_experiment_5_30_19,3.1.0,59.954483591865866,
,,,C,D,d,v,,,,,,,,,,3,7,67,18,,,,,,,,,,,,,v,1,2.318494807825118,531.9425638279463,None,,,,,001,15,2019_Oct_07_1656,ACPT_experiment_5_30_19,3.1.0,59.954483591865866,
,,,C,D,y,b,,,,,,,,,,3,8,68,11,,,,,,,,,,,,,b,1,0.8840451790692896,537.5302705618524,None,,,,,001,15,2019_Oct_07_1656,ACPT_experiment_5_30_19,3.1.0,59.954483591865866,
,,,C,D,d,v,,,,,,,,,,3,9,69,9,,,,,,,,,,,,,v,1,1.714679212853298,541.7202189827058,None,,,,,001,15,2019_Oct_07_1656,ACPT_experiment_5_30_19,3.1.0,59.954483591865866,
,,,C,G,g,v,,,,,,,,,,3,10,70,4,,,,,,,,,,,,,v,1,3.5027594706916716,546.7207961426866,None,,,,,001,15,2019_Oct_07_1656,ACPT_experiment_5_30_19,3.1.0,59.954483591865866,
,,,C,D,d,v,,,,,,,,,,3,11,71,0,,,,,,,,,,,,,v,1,1.9849038856573316,553.5094435990632,None,,,,,001,15,2019_Oct_07_1656,ACPT_experiment_5_30_19,3.1.0,59.954483591865866,
,,,C,D,g,b,,,,,,,,,,3,12,72,10,,,,,,,,,,,,,b,1,1.5011807328774012,558.7635579014914,None,,,,,001,15,2019_Oct_07_1656,ACPT_experiment_5_30_19,3.1.0,59.954483591865866,
,,,C,G,g,v,,,,,,,,,,3,13,73,13,,,,,,,,,,,,,v,1,4.453488059702067,563.5506447317694,None,,,,,001,15,2019_Oct_07_1656,ACPT_experiment_5_30_19,3.1.0,59.954483591865866,
,,,C,D,y,b,,,,,,,,,,3,14,74,2,,,,,,,,,,,,,b,1,0.7339084205286781,571.2900355683887,None,,,,,001,15,2019_Oct_07_1656,ACPT_experiment_5_30_19,3.1.0,59.954483591865866,
,,,C,G,y,b,,,,,,,,,,3,15,75,14,,,,,,,,,,,,,b,1,0.7836748850586446,575.3268038588812,None,,,,,001,15,2019_Oct_07_1656,ACPT_experiment_5_30_19,3.1.0,59.954483591865866,
,,,C,U,d,n,,,,,,,,,,3,16,76,6,,,,,,,,,,,,,n,1,1.0008120085494738,579.3963715594145,None,,,,,001,15,2019_Oct_07_1656,ACPT_experiment_5_30_19,3.1.0,59.954483591865866,
,,,C,U,g,n,,,,,,,,,,3,17,77,7,,,,,,,,,,,,,n,1,0.5671755957919231,583.6830682331693,None,,,,,001,15,2019_Oct_07_1656,ACPT_experiment_5_30_19,3.1.0,59.954483591865866,
,,,C,U,y,n,,,,,,,,,,3,18,78,17,,,,,,,,,,,,,n,1,0.6505205759658566,587.5194005143112,None,,,,,001,15,2019_Oct_07_1656,ACPT_experiment_5_30_19,3.1.0,59.954483591865866,
,,,C,G,y,b,,,,,,,,,,3,19,79,5,,,,,,,,,,,,,b,1,1.1340028429349331,591.4894259280663,None,,,,,001,15,2019_Oct_07_1656,ACPT_experiment_5_30_19,3.1.0,59.954483591865866,
,,,C,G,d,b,,,,,,,,,,4,0,80,12,,,,,,,,,,,,,b,1,1.7680671147700195,595.9092989468336,None,,,,,001,15,2019_Oct_07_1656,ACPT_experiment_5_30_19,3.1.0,59.954483591865866,
,,,C,G,y,b,,,,,,,,,,4,1,81,5,,,,,,,,,,,,,b,1,0.8006392227907781,600.9465782895477,None,,,,,001,15,2019_Oct_07_1656,ACPT_experiment_5_30_19,3.1.0,59.954483591865866,
,,,C,D,y,b,,,,,,,,,,4,2,82,2,,,,,,,,,,,,,b,1,1.0837917358057894,605.0668446042018,None,,,,,001,15,2019_Oct_07_1656,ACPT_experiment_5_30_19,3.1.0,59.954483591865866,
,,,C,G,g,v,,,,,,,,,,4,3,83,13,,,,,,,,,,,,,v,1,2.602074455448019,609.4365321741025,None,,,,,001,15,2019_Oct_07_1656,ACPT_experiment_5_30_19,3.1.0,59.954483591865866,
,,,C,D,g,b,,,,,,,,,,4,4,84,10,,,,,,,,,,,,,b,1,2.1683725386556034,615.3244997468883,None,,,,,001,15,2019_Oct_07_1656,ACPT_experiment_5_30_19,3.1.0,59.954483591865866,
,,,C,U,d,n,,,,,,,,,,4,5,85,15,,,,,,,,,,,,,n,1,0.6505199722414545,620.7787620824001,None,,,,,001,15,2019_Oct_07_1656,ACPT_experiment_5_30_19,3.1.0,59.954483591865866,
,,,C,U,g,n,,,,,,,,,,4,6,86,7,,,,,,,,,,,,,n,1,0.7003105857238552,624.7321081160699,None,,,,,001,15,2019_Oct_07_1656,ACPT_experiment_5_30_19,3.1.0,59.954483591865866,
,,,C,U,g,n,,,,,,,,,,4,7,87,16,,,,,,,,,,,,,n,1,0.5671263922995422,628.7016345520806,None,,,,,001,15,2019_Oct_07_1656,ACPT_experiment_5_30_19,3.1.0,59.954483591865866,
,,,C,G,g,v,,,,,,,,,,4,8,88,4,,,,,,,,,,,,,v,1,1.4675835017969803,632.5715716108516,None,,,,,001,15,2019_Oct_07_1656,ACPT_experiment_5_30_19,3.1.0,59.954483591865866,
,,,C,U,y,n,,,,,,,,,,4,9,89,17,,,,,,,,,,,,,n,1,0.7005795446893899,637.3250503430208,None,,,,,001,15,2019_Oct_07_1656,ACPT_experiment_5_30_19,3.1.0,59.954483591865866,
,,,C,D,y,b,,,,,,,,,,4,10,90,11,,,,,,,,,,,,,b,1,0.8340127741939796,641.3114922151308,None,,,,,001,15,2019_Oct_07_1656,ACPT_experiment_5_30_19,3.1.0,59.954483591865866,
,,,C,G,d,b,,,,,,,,,,4,11,91,3,,,,,,,,,,,,,b,1,1.2176373086840613,645.4313944843179,None,,,,,001,15,2019_Oct_07_1656,ACPT_experiment_5_30_19,3.1.0,59.954483591865866,
,,,C,G,y,b,,,,,,,,,,4,12,92,14,,,,,,,,,,,,,b,1,0.6502449760373565,649.9518774754561,None,,,,,001,15,2019_Oct_07_1656,ACPT_experiment_5_30_19,3.1.0,59.954483591865866,
,,,C,D,d,v,,,,,,,,,,4,13,93,9,,,,,,,,,,,,,v,1,1.3844875577051425,653.8880119464866,None,,,,,001,15,2019_Oct_07_1656,ACPT_experiment_5_30_19,3.1.0,59.954483591865866,
,,,C,D,g,b,,,,,,,,,,4,14,94,1,,,,,,,,,,,,,b,1,1.917906539325486,658.5586090565212,None,,,,,001,15,2019_Oct_07_1656,ACPT_experiment_5_30_19,3.1.0,59.954483591865866,
,,,C,G,g,v,,,,,,,,,,4,15,95,19,,,,,,,,,,,,,v,1,2.7354934974409844,663.7624084113213,None,,,,,001,15,2019_Oct_07_1656,ACPT_experiment_5_30_19,3.1.0,59.954483591865866,
,,,C,D,d,v,,,,,,,,,,4,16,96,18,,,,,,,,,,,,,v,1,1.7680634924272454,669.7837917056186,None,,,,,001,15,2019_Oct_07_1656,ACPT_experiment_5_30_19,3.1.0,59.954483591865866,
,,,C,D,d,v,,,,,,,,,,4,17,97,0,,,,,,,,,,,,,v,1,0.8341492157778703,674.820913778276,None,,,,,001,15,2019_Oct_07_1656,ACPT_experiment_5_30_19,3.1.0,59.954483591865866,
,,,C,U,d,n,,,,,,,,,,4,18,98,6,,,,,,,,,,,,,n,1,0.7503523483192112,678.9578809052109,None,,,,,001,15,2019_Oct_07_1656,ACPT_experiment_5_30_19,3.1.0,59.954483591865866,
,,,C,U,y,n,,,,,,,,,,4,19,99,8,,,,,,,,,,,,,n,1,0.650520274102746,682.9941296913494,None,,,,,001,15,2019_Oct_07_1656,ACPT_experiment_5_30_19,3.1.0,59.954483591865866,
,,,C,G,d,b,,,,,,,,,,5,0,100,12,,,,,,,,,,,,,b,1,1.9846629998501157,686.9474612356462,None,,,,,001,15,2019_Oct_07_1656,ACPT_experiment_5_30_19,3.1.0,59.954483591865866,
,,,C,U,g,n,,,,,,,,,,5,1,101,16,,,,,,,,,,,,,n,1,1.0341737873368402,692.2180137304913,None,,,,,001,15,2019_Oct_07_1656,ACPT_experiment_5_30_19,3.1.0,59.954483591865866,
,,,C,G,y,b,,,,,,,,,,5,2,102,5,,,,,,,,,,,,,b,1,0.8504367790974356,696.5549830912041,None,,,,,001,15,2019_Oct_07_1656,ACPT_experiment_5_30_19,3.1.0,59.954483591865866,
,,,C,G,g,v,,,,,,,,,,5,3,103,13,,,,,,,,,,,,,v,1,1.8347879555894906,700.6746296833498,None,,,,,001,15,2019_Oct_07_1656,ACPT_experiment_5_30_19,3.1.0,59.954483591865866,
,,,C,U,y,n,,,,,,,,,,5,4,104,17,,,,,,,,,,,,,n,1,0.6171669474479131,705.7953053227611,None,,,,,001,15,2019_Oct_07_1656,ACPT_experiment_5_30_19,3.1.0,59.954483591865866,
,,,C,G,g,v,,,,,,,,,,5,5,105,19,,,,,,,,,,,,,v,1,1.951293976375382,709.7152814273722,None,,,,,001,15,2019_Oct_07_1656,ACPT_experiment_5_30_19,3.1.0,59.954483591865866,
,,,C,G,g,v,,,,,,,,,,5,6,106,4,,,,,,,,,,,,,v,1,1.1676130540799932,714.9357963856855,None,,,,,001,15,2019_Oct_07_1656,ACPT_experiment_5_30_19,3.1.0,59.954483591865866,
,,,C,D,g,b,,,,,,,,,,5,7,107,1,,,,,,,,,,,,,b,1,2.802204678679118,719.389275691392,None,,,,,001,15,2019_Oct_07_1656,ACPT_experiment_5_30_19,3.1.0,59.954483591865866,
,,,C,D,d,v,,,,,,,,,,5,8,108,9,,,,,,,,,,,,,v,1,0.9341817263066332,725.4606950129091,None,,,,,001,15,2019_Oct_07_1656,ACPT_experiment_5_30_19,3.1.0,59.954483591865866,
,,,C,D,y,b,,,,,,,,,,5,9,109,2,,,,,,,,,,,,,b,1,0.7306111828365829,729.7006743293296,None,,,,,001,15,2019_Oct_07_1656,ACPT_experiment_5_30_19,3.1.0,59.954483591865866,
,,,C,G,y,b,,,,,,,,,,5,10,110,14,,,,,,,,,,,,,b,1,0.750605006742262,733.7171565935841,None,,,,,001,15,2019_Oct_07_1656,ACPT_experiment_5_30_19,3.1.0,59.954483591865866,
,,,C,D,d,v,,,,,,,,,,5,11,111,18,,,,,,,,,,,,,v,1,1.0841950233243551,737.7536526046297,None,,,,,001,15,2019_Oct_07_1656,ACPT_experiment_5_30_19,3.1.0,59.954483591865866,
,,,C,D,y,b,,,,,,,,,,5,12,112,11,,,,,,,,,,,,,b,1,0.8673618747798173,742.1070604596207,None,,,,,001,15,2019_Oct_07_1656,ACPT_experiment_5_30_19,3.1.0,59.954483591865866,
,,,C,U,d,n,,,,,,,,,,5,13,113,6,,,,,,,,,,,,,n,1,0.9340640001591964,746.2769996616116,None,,,,,001,15,2019_Oct_07_1656,ACPT_experiment_5_30_19,3.1.0,59.954483591865866,
,,,C,U,g,n,,,,,,,,,,5,14,114,7,,,,,,,,,,,,,n,1,0.617164532552124,750.4969604014514,None,,,,,001,15,2019_Oct_07_1656,ACPT_experiment_5_30_19,3.1.0,59.954483591865866,
,,,C,U,y,n,,,,,,,,,,5,15,115,8,,,,,,,,,,,,,n,1,0.46676998393741087,754.4002870103068,None,,,,,001,15,2019_Oct_07_1656,ACPT_experiment_5_30_19,3.1.0,59.954483591865866,
,,,C,D,d,v,,,,,,,,,,5,16,116,0,,,,,,,,,,,,,v,1,1.0842176629666938,758.1529253589051,None,,,,,001,15,2019_Oct_07_1656,ACPT_experiment_5_30_19,3.1.0,59.954483591865866,
,,,C,D,g,b,,,,,,,,,,5,17,117,10,,,,,,,,,,,,,b,1,1.0505594557798759,762.5399917229461,None,,,,,001,15,2019_Oct_07_1656,ACPT_experiment_5_30_19,3.1.0,59.954483591865866,
,,,C,G,d,b,,,,,,,,,,5,18,118,3,,,,,,,,,,,,,b,1,1.71802444658897,766.8764473146803,None,,,,,001,15,2019_Oct_07_1656,ACPT_experiment_5_30_19,3.1.0,59.954483591865866,
,,,C,U,d,n,,,,,,,,,,5,19,119,15,0,0,0,0,0,0,0,0,,,,,n,1,0.6338408940173395,771.8803612562642,None,,,,,001,15,2019_Oct_07_1656,ACPT_experiment_5_30_19,3.1.0,59.954483591865866,
,,,C,U,d,n,R,D,d,R,c ,,,,,5,19,119,15,0,0,0,0,,,,,0,0,0,1,,,,,,up,0.9174015243424947,813.7464643668609,None,001,15,2019_Oct_07_1656,ACPT_experiment_5_30_19,3.1.0,59.954483591865866,
,,,C,U,d,n,R,U,d,L,u,,,,,5,19,119,15,0,0,0,0,,,,,0,1,1,8,,,,,,up,0.8504579094314977,815.9483625953235,None,001,15,2019_Oct_07_1656,ACPT_experiment_5_30_19,3.1.0,59.954483591865866,
,,,C,U,d,n,L,G,g,R,c ,,,,,5,19,119,15,0,0,0,0,,,,,0,2,2,19,,,,,,up,0.7005575087696343,818.0831937473522,None,001,15,2019_Oct_07_1656,ACPT_experiment_5_30_19,3.1.0,59.954483591865866,
,,,C,U,d,n,R,G,y,R,y,,,,,5,19,119,15,0,0,0,0,,,,,0,3,3,29,,,,,,down,0.5835606605087378,820.0850040132536,None,001,15,2019_Oct_07_1656,ACPT_experiment_5_30_19,3.1.0,59.954483591865866,
,,,C,U,d,n,L,G,g,L,c ,,,,,5,19,119,15,0,0,0,0,,,,,0,4,4,18,,,,,,up,0.5003895528006979,821.9528865998363,None,001,15,2019_Oct_07_1656,ACPT_experiment_5_30_19,3.1.0,59.954483591865866,
,,,C,U,d,n,L,U,y,R,u,,,,,5,19,119,15,0,0,0,0,,,,,0,5,5,25,,,,,,down,0.6671836555069603,823.7376210202146,None,001,15,2019_Oct_07_1656,ACPT_experiment_5_30_19,3.1.0,59.954483591865866,
,,,C,U,d,n,R,D,y,R,y,,,,,5,19,119,15,0,0,0,0,,,,,0,6,6,27,,,,,,down,0.7172227013434167,825.6891468265403,None,001,15,2019_Oct_07_1656,ACPT_experiment_5_30_19,3.1.0,59.954483591865866,
,,,C,U,d,n,R,U,y,L,u,,,,,5,19,119,15,0,0,0,0,,,,,0,7,7,30,,,,,,down,0.5304211909478909,827.7107172752239,None,001,15,2019_Oct_07_1656,ACPT_experiment_5_30_19,3.1.0,59.954483591865866,
,,,C,U,d,n,R,D,y,L,y,,,,,5,19,119,15,0,0,0,0,,,,,0,8,8,26,,,,,,down,0.6671924095007853,829.525478805821,None,001,15,2019_Oct_07_1656,ACPT_experiment_5_30_19,3.1.0,59.954483591865866,
,,,C,U,d,n,L,U,d,L,u,,,,,5,19,119,15,0,0,0,0,,,,,0,9,9,20,,,,,,up,0.6338348567805951,831.477002499114,None,001,15,2019_Oct_07_1656,ACPT_experiment_5_30_19,3.1.0,59.954483591865866,
,,,C,U,d,n,L,D,y,R,y,,,,,5,19,119,15,0,0,0,0,,,,,0,10,10,33,,,,,,down,0.7506068179136491,833.411856773766,None,001,15,2019_Oct_07_1656,ACPT_experiment_5_30_19,3.1.0,59.954483591865866,
,,,C,U,d,n,R,U,g,L,u,,,,,5,19,119,15,0,0,0,0,,,,,0,11,11,10,,,,,,up,0.7672698974547529,835.4634597661825,None,001,15,2019_Oct_07_1656,ACPT_experiment_5_30_19,3.1.0,59.954483591865866,
,,,C,U,d,n,R,U,d,R,u,,,,,5,19,119,15,0,0,0,0,,,,,0,12,12,9,,,,,,up,0.9340703392590513,837.4983818692072,None,001,15,2019_Oct_07_1656,ACPT_experiment_5_30_19,3.1.0,59.954483591865866,
,,,C,U,d,n,L,U,g,R,u,,,,,5,19,119,15,0,0,0,0,,,,,0,13,13,23,,,,,,up,0.5504370507733256,839.7167880201869,None,001,15,2019_Oct_07_1656,ACPT_experiment_5_30_19,3.1.0,59.954483591865866,
,,,C,U,d,n,R,G,d,R,i,,,,,5,19,119,15,0,0,0,0,,,,,0,14,14,5,,,,,,up,0.5338322305815382,841.5515590715077,None,001,15,2019_Oct_07_1656,ACPT_experiment_5_30_19,3.1.0,59.954483591865866,
,,,C,U,d,n,R,D,g,L,i,,,,,5,19,119,15,0,0,0,0,,,,,0,15,15,2,,,,,,up,0.5337486148309836,843.3696492334366,None,001,15,2019_Oct_07_1656,ACPT_experiment_5_30_19,3.1.0,59.954483591865866,
,,,C,U,d,n,L,G,y,R,y,,,,,5,19,119,15,0,0,0,0,,,,,0,16,16,35,,,,,,down,0.8173282624557032,845.187737282331,None,001,15,2019_Oct_07_1656,ACPT_experiment_5_30_19,3.1.0,59.954483591865866,
,,,C,U,d,n,R,D,d,L,c,,,,,5,19,119,15,0,0,0,0,,,,,0,17,17,0,,,,,,up,0.9173954871057504,847.2893814336203,None,001,15,2019_Oct_07_1656,ACPT_experiment_5_30_19,3.1.0,59.954483591865866,
,,,C,U,d,n,L,G,d,R,i,,,,,5,19,119,15,0,0,0,0,,,,,0,18,18,17,,,,,,up,0.7672701993160445,849.491100959829,None,001,15,2019_Oct_07_1656,ACPT_experiment_5_30_19,3.1.0,59.954483591865866,
,,,C,U,d,n,R,G,d,L,i,,,,,5,19,119,15,0,0,0,0,,,,,0,19,19,4,,,,,,up,0.5170601788904605,851.542724478857,None,001,15,2019_Oct_07_1656,ACPT_experiment_5_30_19,3.1.0,59.954483591865866,
,,,C,U,d,n,L,D,d,L,c ,,,,,5,19,119,15,0,0,0,0,,,,,0,20,20,12,,,,,,up,0.5337736693691113,853.3274226758058,None,001,15,2019_Oct_07_1656,ACPT_experiment_5_30_19,3.1.0,59.954483591865866,
,,,C,U,d,n,R,U,y,R,u,,,,,5,19,119,15,0,0,0,0,,,,,0,21,21,31,,,,,,down,0.6171470245626551,855.1455348736545,None,001,15,2019_Oct_07_1656,ACPT_experiment_5_30_19,3.1.0,59.954483591865866,
,,,C,U,d,n,L,U,g,L,u,,,,,5,19,119,15,0,0,0,0,,,,,0,22,22,22,,,,,,up,0.5003961937636632,857.047020426693,None,001,15,2019_Oct_07_1656,ACPT_experiment_5_30_19,3.1.0,59.954483591865866,
,,,C,U,d,n,L,U,y,L,u,,,,,5,19,119,15,0,0,0,0,,,,,0,23,23,24,,,,,,down,0.6970290448516607,858.8852988115996,None,001,15,2019_Oct_07_1656,ACPT_experiment_5_30_19,3.1.0,59.954483591865866,
,,,C,U,d,n,L,D,g,R,i,,,,,5,19,119,15,0,0,0,0,,,,,0,24,24,15,,,,,,up,0.7005433212598291,860.883364782314,None,001,15,2019_Oct_07_1656,ACPT_experiment_5_30_19,3.1.0,59.954483591865866,
,,,C,U,d,n,L,D,g,L,i,,,,,5,19,119,15,0,0,0,0,,,,,0,25,25,14,,,,,,up,0.5004200408548058,862.8515418955649,None,001,15,2019_Oct_07_1656,ACPT_experiment_5_30_19,3.1.0,59.954483591865866,
,,,C,U,d,n,R,G,g,R,c ,,,,,5,19,119,15,0,0,0,0,,,,,0,26,26,7,,,,,,down,0.3836347977976402,864.6362950313833,None,001,15,2019_Oct_07_1656,ACPT_experiment_5_30_19,3.1.0,59.954483591865866,
,,,C,U,d,n,L,G,y,L,y,,,,,5,19,119,15,0,0,0,0,,,,,0,27,27,34,,,,,,down,0.7672723123487231,866.3042656408998,None,001,15,2019_Oct_07_1656,ACPT_experiment_5_30_19,3.1.0,59.954483591865866,
,,,C,U,d,n,R,G,g,L,c ,,,,,5,19,119,15,0,0,0,0,,,,,0,28,28,6,,,,,,up,0.8339943606151792,868.3558704444877,None,001,15,2019_Oct_07_1656,ACPT_experiment_5_30_19,3.1.0,59.954483591865866,
,,,C,U,d,n,L,G,d,L,i,,,,,5,19,119,15,0,0,0,0,,,,,0,29,29,16,,,,,,up,0.46703441497447784,870.474193372138,None,001,15,2019_Oct_07_1656,ACPT_experiment_5_30_19,3.1.0,59.954483591865866,
,,,C,U,d,n,R,U,g,R,u,,,,,5,19,119,15,0,0,0,0,,,,,0,30,30,11,,,,,,up,0.6502338071459235,872.2425176732595,None,001,15,2019_Oct_07_1656,ACPT_experiment_5_30_19,3.1.0,59.954483591865866,
,,,C,U,d,n,R,D,g,R,i,,,,,5,19,119,15,0,0,0,0,,,,,0,31,31,3,,,,,,up,0.40030723505697097,874.177102988946,None,001,15,2019_Oct_07_1656,ACPT_experiment_5_30_19,3.1.0,59.954483591865866,
,,,C,U,d,n,L,D,d,R,c ,,,,,5,19,119,15,0,0,0,0,,,,,0,32,32,13,,,,,,up,0.45034326227687416,875.861749054342,None,001,15,2019_Oct_07_1656,ACPT_experiment_5_30_19,3.1.0,59.954483591865866,
,,,C,U,d,n,L,D,y,L,y,,,,,5,19,119,15,0,0,0,0,,,,,0,33,33,32,,,,,,down,0.5170737626758637,877.5964356748864,None,001,15,2019_Oct_07_1656,ACPT_experiment_5_30_19,3.1.0,59.954483591865866,
,,,C,U,d,n,R,G,y,L,y,,,,,5,19,119,15,0,0,0,0,,,,,0,34,34,28,,,,,,down,0.7169555535492691,879.4148011348789,None,001,15,2019_Oct_07_1656,ACPT_experiment_5_30_19,3.1.0,59.954483591865866,
,,,C,U,d,n,L,U,d,R,u,,,,,5,19,119,15,0,0,0,0,,,,,0,35,35,21,,,,,,up,0.6838684691047092,881.4160934057345,None,001,15,2019_Oct_07_1656,ACPT_experiment_5_30_19,3.1.0,59.954483591865866,
,,,C,U,d,n,L,D,g,L,i,,,,,5,19,119,15,0,0,0,0,,,,,1,0,36,14,,,,,,up,0.4336744473584986,883.3842988940069,None,001,15,2019_Oct_07_1656,ACPT_experiment_5_30_19,3.1.0,59.954483591865866,
,,,C,U,d,n,R,G,g,R,c ,,,,,5,19,119,15,0,0,0,0,,,,,1,1,37,7,,,,,,up,0.45034960137672897,885.1023215294244,None,001,15,2019_Oct_07_1656,ACPT_experiment_5_30_19,3.1.0,59.954483591865866,
,,,C,U,d,n,R,U,g,R,u,,,,,5,19,119,15,0,0,0,0,,,,,1,2,38,11,,,,,,up,0.4003174983608915,886.8370012071446,None,001,15,2019_Oct_07_1656,ACPT_experiment_5_30_19,3.1.0,59.954483591865866,
,,,C,U,d,n,R,G,y,L,y,,,,,5,19,119,15,0,0,0,0,,,,,1,3,39,28,,,,,,down,0.7339111372857587,888.5216536116423,None,001,15,2019_Oct_07_1656,ACPT_experiment_5_30_19,3.1.0,59.954483591865866,
,,,C,U,d,n,L,U,y,R,u,,,,,5,19,119,15,0,0,0,0,,,,,1,4,40,25,,,,,,down,0.7672584267020284,890.5399017680957,None,001,15,2019_Oct_07_1656,ACPT_experiment_5_30_19,3.1.0,59.954483591865866,
,,,C,U,d,n,L,U,d,L,u,,,,,5,19,119,15,0,0,0,0,,,,,1,5,41,20,,,,,,up,0.5804505772048287,892.611521224062,None,001,15,2019_Oct_07_1656,ACPT_experiment_5_30_19,3.1.0,59.954483591865866,
,,,C,U,d,n,L,U,g,R,u,,,,,5,19,119,15,0,0,0,0,,,,,1,6,42,23,,,,,,up,0.5337480111084005,894.4596345720038,None,001,15,2019_Oct_07_1656,ACPT_experiment_5_30_19,3.1.0,59.954483591865866,
,,,C,U,d,n,R,D,g,L,i,,,,,5,19,119,15,0,0,0,0,,,,,1,7,43,2,,,,,,up,0.4670338112500758,896.2777283562737,None,001,15,2019_Oct_07_1656,ACPT_experiment_5_30_19,3.1.0,59.954483591865866,
,,,C,U,d,n,L,G,y,R,y,,,,,5,19,119,15,0,0,0,0,,,,,1,8,44,35,,,,,,down,0.4169974821688811,898.0290946587647,None,001,15,2019_Oct_07_1656,ACPT_experiment_5_30_19,3.1.0,59.954483591865866,
,,,C,U,d,n,L,G,d,R,i,,,,,5,19,119,15,0,0,0,0,,,,,1,9,45,17,,,,,,up,0.6138189969551604,899.750433549174,None,001,15,2019_Oct_07_1656,ACPT_experiment_5_30_19,3.1.0,59.954483591865866,
,,,C,U,d,n,L,D,d,L,c ,,,,,5,19,119,15,0,0,0,0,,,,,1,10,46,12,,,,,,up,0.6171708716537978,901.6485726610299,None,001,15,2019_Oct_07_1656,ACPT_experiment_5_30_19,3.1.0,59.954483591865866,
,,,C,U,d,n,L,D,y,R,y,,,,,5,19,119,15,0,0,0,0,,,,,1,11,47,33,,,,,,down,0.5672006503318698,903.550079948127,None,001,15,2019_Oct_07_1656,ACPT_experiment_5_30_19,3.1.0,59.954483591865866,
,,,C,U,d,n,L,G,y,L,y,,,,,5,19,119,15,0,0,0,0,,,,,1,12,48,34,,,,,,down,0.8673727418081398,905.4015074380277,None,001,15,2019_Oct_07_1656,ACPT_experiment_5_30_19,3.1.0,59.954483591865866,
,,,C,U,d,n,L,D,g,R,i,,,,,5,19,119,15,0,0,0,0,,,,,1,13,49,15,,,,,,up,0.717229342306382,907.5532129729381,None,001,15,2019_Oct_07_1656,ACPT_experiment_5_30_19,3.1.0,59.954483591865866,
,,,C,U,d,n,R,D,d,L,c,,,,,5,19,119,15,0,0,0,0,,,,,1,14,50,0,,,,,,up,0.6171503450441378,909.5547847679263,None,001,15,2019_Oct_07_1656,ACPT_experiment_5_30_19,3.1.0,59.954483591865866,
,,,C,U,d,n,R,G,g,L,c ,,,,,5,19,119,15,0,0,0,0,,,,,1,15,51,6,,,,,,up,0.5504361451876321,911.4562657930383,None,001,15,2019_Oct_07_1656,ACPT_experiment_5_30_19,3.1.0,59.954483591865866,
,,,C,U,d,n,R,D,d,R,c ,,,,,5,19,119,15,0,0,0,0,,,,,1,16,52,1,,,,,,up,0.43366991943003086,913.2910410704262,None,001,15,2019_Oct_07_1656,ACPT_experiment_5_30_19,3.1.0,59.954483591865866,
,,,C,U,d,n,R,D,g,R,i,,,,,5,19,119,15,0,0,0,0,,,,,1,17,53,3,,,,,,up,0.6338472331190133,915.0090646114295,None,001,15,2019_Oct_07_1656,ACPT_experiment_5_30_19,3.1.0,59.954483591865866,
,,,C,U,d,n,L,D,d,R,c ,,,,,5,19,119,15,0,0,0,0,,,,,1,18,54,13,,,,,,up,0.5504322209817474,916.9272180738008,None,001,15,2019_Oct_07_1656,ACPT_experiment_5_30_19,3.1.0,59.954483591865866,
,,,C,U,d,n,L,G,g,R,c ,,,,,5,19,119,15,0,0,0,0,,,,,1,19,55,19,,,,,,up,0.43340277163588325,918.7789377660338,None,001,15,2019_Oct_07_1656,ACPT_experiment_5_30_19,3.1.0,59.954483591865866,
,,,C,U,d,n,R,G,y,R,y,,,,,5,19,119,15,0,0,0,0,,,,,1,20,56,29,,,,,,up,0.43367595666859415,920.5133536164412,None,001,15,2019_Oct_07_1656,ACPT_experiment_5_30_19,3.1.0,59.954483591865866,
,,,C,U,d,n,L,U,d,R,u,,,,,5,19,119,15,0,0,0,0,,,,,1,21,57,21,,,,,,up,0.5504376544959086,922.2480495947038,None,001,15,2019_Oct_07_1656,ACPT_experiment_5_30_19,3.1.0,59.954483591865866,
,,,C,U,d,n,R,U,d,L,u,,,,,5,19,119,15,0,0,0,0,,,,,1,22,58,8,,,,,,up,0.6338230841647601,924.0828230609222,None,001,15,2019_Oct_07_1656,ACPT_experiment_5_30_19,3.1.0,59.954483591865866,
,,,C,U,d,n,R,U,g,L,u,,,,,5,19,119,15,0,0,0,0,,,,,1,23,59,10,,,,,,up,0.6501683031110588,926.0346655203957,None,001,15,2019_Oct_07_1656,ACPT_experiment_5_30_19,3.1.0,59.954483591865866,
,,,C,U,d,n,L,G,g,L,c ,,,,,5,19,119,15,0,0,0,0,,,,,1,24,60,18,,,,,,up,0.5837952072179178,927.9691919730085,None,001,15,2019_Oct_07_1656,ACPT_experiment_5_30_19,3.1.0,59.954483591865866,
,,,C,U,d,n,R,D,y,L,y,,,,,5,19,119,15,0,0,0,0,,,,,1,25,61,26,,,,,,down,0.5671155252712197,929.8373184640168,None,001,15,2019_Oct_07_1656,ACPT_experiment_5_30_19,3.1.0,59.954483591865866,
,,,C,U,d,n,L,D,y,L,y,,,,,5,19,119,15,0,0,0,0,,,,,1,26,62,32,,,,,,down,0.533757066963517,931.6887701028718,None,001,15,2019_Oct_07_1656,ACPT_experiment_5_30_19,3.1.0,59.954483591865866,
,,,C,U,d,n,R,U,y,R,u,,,,,5,19,119,15,0,0,0,0,,,,,1,27,63,31,,,,,,down,0.5303270100303052,933.526984794913,None,001,15,2019_Oct_07_1656,ACPT_experiment_5_30_19,3.1.0,59.954483591865866,
,,,C,U,d,n,L,U,g,L,u,,,,,5,19,119,15,0,0,0,0,,,,,1,28,64,22,,,,,,up,0.6171491375953337,935.358310394342,None,001,15,2019_Oct_07_1656,ACPT_experiment_5_30_19,3.1.0,59.954483591865866,
,,,C,U,d,n,R,D,y,R,y,,,,,5,19,119,15,0,0,0,0,,,,,1,29,65,27,,,,,,down,0.65050850148873,937.2597992678639,None,001,15,2019_Oct_07_1656,ACPT_experiment_5_30_19,3.1.0,59.954483591865866,
,,,C,U,d,n,R,U,y,L,u,,,,,5,19,119,15,0,0,0,0,,,,,1,30,66,30,,,,,,down,0.5504295042246667,939.1779678233306,None,001,15,2019_Oct_07_1656,ACPT_experiment_5_30_19,3.1.0,59.954483591865866,
,,,C,U,d,n,L,U,y,L,u,,,,,5,19,119,15,0,0,0,0,,,,,1,31,67,24,,,,,,down,0.43370402982691303,941.0127325355515,None,001,15,2019_Oct_07_1656,ACPT_experiment_5_30_19,3.1.0,59.954483591865866,
,,,C,U,d,n,L,G,d,L,i,,,,,5,19,119,15,0,0,0,0,,,,,1,32,68,16,,,,,,up,0.5504316172591643,942.7307433983551,None,001,15,2019_Oct_07_1656,ACPT_experiment_5_30_19,3.1.0,59.954483591865866,
,,,C,U,d,n,R,U,d,R,u,,,,,5,19,119,15,0,0,0,0,,,,,1,33,69,9,,,,,,down,0.5838646354586672,944.5655141478146,None,001,15,2019_Oct_07_1656,ACPT_experiment_5_30_19,3.1.0,59.954483591865866,
,,,C,U,d,n,R,G,d,R,i,,,,,5,19,119,15,0,0,0,0,,,,,1,34,70,5,,,,,,up,0.5971655769953941,946.4536543856157,None,001,15,2019_Oct_07_1656,ACPT_experiment_5_30_19,3.1.0,59.954483591865866,
,,,C,U,d,n,R,G,d,L,i,,,,,5,19,119,15,0,0,0,0,,,,,1,35,71,4,,,,,,up,0.5005293148660712,948.3183025217841,None,001,15,2019_Oct_07_1656,ACPT_experiment_5_30_19,3.1.0,59.954483591865866,
,,,C,U,d,n,,,,,,,,,,5,19,119,15,1,0,1,0,0,0,0,0,,,,,,,,,,,,,,001,15,2019_Oct_07_1656,ACPT_experiment_5_30_19,3.1.0,59.954483591865866,
,,,C,U,d,n,R,D,y,L,y,,,,,5,19,119,15,1,0,1,0,,,,,0,0,0,26,,,,,,down,0.6669309970820905,960.2113591845864,None,001,15,2019_Oct_07_1656,ACPT_experiment_5_30_19,3.1.0,59.954483591865866,
,,,C,U,d,n,L,U,g,L,u,,,,,5,19,119,15,1,0,1,0,,,,,0,1,1,22,,,,,,up,0.6004993399783416,962.1625936941637,None,001,15,2019_Oct_07_1656,ACPT_experiment_5_30_19,3.1.0,59.954483591865866,
,,,C,U,d,n,R,G,d,R,i,,,,,5,19,119,15,1,0,1,0,,,,,0,2,2,5,,,,,,up,0.48373039746547875,964.0474282421401,None,001,15,2019_Oct_07_1656,ACPT_experiment_5_30_19,3.1.0,59.954483591865866,
,,,C,U,d,n,R,U,g,R,u,,,,,5,19,119,15,1,0,1,0,,,,,0,3,3,11,,,,,,up,0.40031297043424274,965.8154781507819,None,001,15,2019_Oct_07_1656,ACPT_experiment_5_30_19,3.1.0,59.954483591865866,
,,,C,U,d,n,L,U,y,L,u,,,,,5,19,119,15,1,0,1,0,,,,,0,4,4,24,,,,,,down,0.7669936938036699,967.5170870446,None,001,15,2019_Oct_07_1656,ACPT_experiment_5_30_19,3.1.0,59.954483591865866,
,,,C,U,d,n,R,U,d,L,u,,,,,5,19,119,15,1,0,1,0,,,,,0,5,5,8,,,,,,up,0.617216754664696,969.5684029663353,None,001,15,2019_Oct_07_1656,ACPT_experiment_5_30_19,3.1.0,59.954483591865866,
,,,C,U,d,n,L,D,y,L,y,,,,,5,19,119,15,1,0,1,0,,,,,0,6,6,32,,,,,,down,0.567204876397227,971.469916592534,None,001,15,2019_Oct_07_1656,ACPT_experiment_5_30_19,3.1.0,59.954483591865866,
,,,C,U,d,n,L,D,d,L,c ,,,,,5,19,119,15,1,0,1,0,,,,,0,7,7,12,,,,,,up,0.5838048667992553,973.3213703444217,None,001,15,2019_Oct_07_1656,ACPT_experiment_5_30_19,3.1.0,59.954483591865866,
,,,C,U,d,n,R,D,d,R,c ,,,,,5,19,119,15,1,0,1,0,,,,,0,8,8,1,,,,,,up,0.533797516460254,975.1894898926057,None,001,15,2019_Oct_07_1656,ACPT_experiment_5_30_19,3.1.0,59.954483591865866,
,,,C,U,d,n,L,D,g,R,i,,,,,5,19,119,15,1,0,1,0,,,,,0,9,9,15,,,,,,up,0.7339479644397215,977.0075794508102,None,001,15,2019_Oct_07_1656,ACPT_experiment_5_30_19,3.1.0,59.954483591865866,
,,,C,U,d,n,R,D,y,R,y,,,,,5,19,119,15,1,0,1,0,,,,,0,10,10,27,,,,,,down,0.6171871721962816,979.025829418435,None,001,15,2019_Oct_07_1656,ACPT_experiment_5_30_19,3.1.0,59.954483591865866,
,,,C,U,d,n,R,U,d,R,u,,,,,5,19,119,15,1,0,1,0,,,,,0,11,11,9,,,,,,up,0.6171920019878598,980.9273137640266,None,001,15,2019_Oct_07_1656,ACPT_experiment_5_30_19,3.1.0,59.954483591865866,
,,,C,U,d,n,L,D,y,R,y,,,,,5,19,119,15,1,0,1,0,,,,,0,12,12,33,,,,,,down,0.7005840726178576,982.8288035431342,None,001,15,2019_Oct_07_1656,ACPT_experiment_5_30_19,3.1.0,59.954483591865866,
,,,C,U,d,n,L,U,d,R,u,,,,,5,19,119,15,1,0,1,0,,,,,0,13,13,21,,,,,,up,0.5171124010012136,984.8136914301103,None,001,15,2019_Oct_07_1656,ACPT_experiment_5_30_19,3.1.0,59.954483591865866,
,,,C,U,d,n,R,G,g,L,c ,,,,,5,19,119,15,1,0,1,0,,,,,0,14,14,6,,,,,,up,0.716994191874619,986.6320140257121,None,001,15,2019_Oct_07_1656,ACPT_experiment_5_30_19,3.1.0,59.954483591865866,
,,,C,U,d,n,R,D,g,L,i,,,,,5,19,119,15,1,0,1,0,,,,,0,15,15,2,,,,,,up,0.567162012004701,988.6166537821937,None,001,15,2019_Oct_07_1656,ACPT_experiment_5_30_19,3.1.0,59.954483591865866,
,,,C,U,d,n,L,U,d,L,u,,,,,5,19,119,15,1,0,1,0,,,,,0,16,16,20,,,,,,up,0.5170918743897346,990.4681229290381,None,001,15,2019_Oct_07_1656,ACPT_experiment_5_30_19,3.1.0,59.954483591865866,
,,,C,U,d,n,R,G,g,R,c ,,,,,5,19,119,15,1,0,1,0,,,,,0,17,17,7,,,,,,up,0.6005023585985327,992.2695186177862,None,001,15,2019_Oct_07_1656,ACPT_experiment_5_30_19,3.1.0,59.954483591865866,
,,,C,U,d,n,L,G,g,L,c ,,,,,5,19,119,15,1,0,1,0,,,,,0,18,18,18,,,,,,up,0.5002343957767152,994.1712501882866,None,001,15,2019_Oct_07_1656,ACPT_experiment_5_30_19,3.1.0,59.954483591865866,
,,,C,U,d,n,L,G,y,L,y,,,,,5,19,119,15,1,0,1,0,,,,,0,19,19,34,,,,,,down,0.567122769956768,995.9557512694046,None,001,15,2019_Oct_07_1656,ACPT_experiment_5_30_19,3.1.0,59.954483591865866,
,,,C,U,d,n,L,G,d,L,i,,,,,5,19,119,15,1,0,1,0,,,,,0,20,20,16,,,,,,down,0.43370191679241543,997.807198078468,None,001,15,2019_Oct_07_1656,ACPT_experiment_5_30_19,3.1.0,59.954483591865866,
,,,C,U,d,n,R,G,y,R,y,,,,,5,19,119,15,1,0,1,0,,,,,0,21,21,29,,,,,,down,0.8006618624331168,999.5418816803922,None,001,15,2019_Oct_07_1656,ACPT_experiment_5_30_19,3.1.0,59.954483591865866,
,,,C,U,d,n,L,D,d,R,c ,,,,,5,19,119,15,1,0,1,0,,,,,0,22,22,13,,,,,,up,0.5838172431376734,1001.643527944716,None,001,15,2019_Oct_07_1656,ACPT_experiment_5_30_19,3.1.0,59.954483591865866,
,,,C,U,d,n,R,U,g,L,u,,,,,5,19,119,15,1,0,1,0,,,,,0,23,23,10,,,,,,up,0.5337818196403532,1003.5116562468957,None,001,15,2019_Oct_07_1656,ACPT_experiment_5_30_19,3.1.0,59.954483591865866,
,,,C,U,d,n,R,G,y,L,y,,,,,5,19,119,15,1,0,1,0,,,,,0,24,24,28,,,,,,down,0.6672316515505372,1005.3297307120047,None,001,15,2019_Oct_07_1656,ACPT_experiment_5_30_19,3.1.0,59.954483591865866,
,,,C,U,d,n,L,G,g,R,c ,,,,,5,19,119,15,1,0,1,0,,,,,0,25,25,19,,,,,,up,0.6836478080458619,1007.2982048573795,None,001,15,2019_Oct_07_1656,ACPT_experiment_5_30_19,3.1.0,59.954483591865866,
,,,C,U,d,n,L,D,g,L,i,,,,,5,19,119,15,1,0,1,0,,,,,0,26,26,14,,,,,,up,0.6505338578881492,1009.2661531593021,None,001,15,2019_Oct_07_1656,ACPT_experiment_5_30_19,3.1.0,59.954483591865866,
,,,C,U,d,n,R,D,d,L,c,,,,,5,19,119,15,1,0,1,0,,,,,0,27,27,0,,,,,,up,0.9174132969565107,1011.2010098488481,None,001,15,2019_Oct_07_1656,ACPT_experiment_5_30_19,3.1.0,59.954483591865866,
,,,C,U,d,n,L,G,y,R,y,,,,,5,19,119,15,1,0,1,0,,,,,0,28,28,35,,,,,,down,0.6004923971559037,1013.4027393365013,None,001,15,2019_Oct_07_1656,ACPT_experiment_5_30_19,3.1.0,59.954483591865866,
,,,C,U,d,n,L,U,g,R,u,,,,,5,19,119,15,1,0,1,0,,,,,0,29,29,23,,,,,,up,0.6672090119063796,1015.2875379629077,None,001,15,2019_Oct_07_1656,ACPT_experiment_5_30_19,3.1.0,59.954483591865866,
,,,C,U,d,n,R,G,d,L,i,,,,,5,19,119,15,1,0,1,0,,,,,0,30,30,4,,,,,,up,0.5171000246627955,1017.239059543168,None,001,15,2019_Oct_07_1656,ACPT_experiment_5_30_19,3.1.0,59.954483591865866,
,,,C,U,d,n,R,D,g,R,i,,,,,5,19,119,15,1,0,1,0,,,,,0,31,31,3,,,,,,up,0.6171660418640386,1019.0404706268728,None,001,15,2019_Oct_07_1656,ACPT_experiment_5_30_19,3.1.0,59.954483591865866,
,,,C,U,d,n,L,G,d,R,i,,,,,5,19,119,15,1,0,1,0,,,,,0,32,32,17,,,,,,up,0.600242153628642,1020.9589153859924,None,001,15,2019_Oct_07_1656,ACPT_experiment_5_30_19,3.1.0,59.954483591865866,
,,,C,U,d,n,R,U,y,L,u,,,,,5,19,119,15,1,0,1,0,,,,,0,33,33,30,,,,,,down,0.6171609102093498,1022.8434577316348,None,001,15,2019_Oct_07_1656,ACPT_experiment_5_30_19,3.1.0,59.954483591865866,
,,,C,U,d,n,L,U,y,R,u,,,,,5,19,119,15,1,0,1,0,,,,,0,34,34,25,,,,,,down,0.617195020608051,1024.7449475107405,None,001,15,2019_Oct_07_1656,ACPT_experiment_5_30_19,3.1.0,59.954483591865866,
,,,C,U,d,n,R,U,y,R,u,,,,,5,19,119,15,1,0,1,0,,,,,0,35,35,31,,,,,,down,0.5004339265015005,1026.646423706061,None,001,15,2019_Oct_07_1656,ACPT_experiment_5_30_19,3.1.0,59.954483591865866,
,,,C,U,d,n,R,D,d,R,c ,,,,,5,19,119,15,1,0,1,0,,,,,1,0,36,1,,,,,,up,0.7839649743582413,1028.4311469575478,None,001,15,2019_Oct_07_1656,ACPT_experiment_5_30_19,3.1.0,59.954483591865866,
,,,C,U,d,n,R,G,d,L,i,,,,,5,19,119,15,1,0,1,0,,,,,1,1,37,4,,,,,,up,0.6672440278871363,1030.4827354605932,None,001,15,2019_Oct_07_1656,ACPT_experiment_5_30_19,3.1.0,59.954483591865866,
,,,C,U,d,n,L,G,g,L,c ,,,,,5,19,119,15,1,0,1,0,,,,,1,2,38,18,,,,,,up,0.617194416883649,1032.4342968866258,None,001,15,2019_Oct_07_1656,ACPT_experiment_5_30_19,3.1.0,59.954483591865866,
,,,C,U,d,n,L,D,d,R,c ,,,,,5,19,119,15,1,0,1,0,,,,,1,3,39,13,,,,,,up,0.5335246332906536,1034.3527147800341,None,001,15,2019_Oct_07_1656,ACPT_experiment_5_30_19,3.1.0,59.954483591865866,
,,,C,U,d,n,L,U,g,L,u,,,,,5,19,119,15,1,0,1,0,,,,,1,4,40,22,,,,,,up,0.5337742730953323,1036.1705513779543,None,001,15,2019_Oct_07_1656,ACPT_experiment_5_30_19,3.1.0,59.954483591865866,
,,,C,U,d,n,L,D,g,L,i,,,,,5,19,119,15,1,0,1,0,,,,,1,5,41,14,,,,,,up,0.5838552777386212,1037.9886324840245,None,001,15,2019_Oct_07_1656,ACPT_experiment_5_30_19,3.1.0,59.954483591865866,
,,,C,U,d,n,R,U,d,L,u,,,,,5,19,119,15,1,0,1,0,,,,,1,6,42,8,,,,,,up,0.5171163252052793,1039.8567577675858,None,001,15,2019_Oct_07_1656,ACPT_experiment_5_30_19,3.1.0,59.954483591865866,
,,,C,U,d,n,L,U,g,R,u,,,,,5,19,119,15,1,0,1,0,,,,,1,7,43,23,,,,,,up,0.4667890012387943,1041.6751274536455,None,001,15,2019_Oct_07_1656,ACPT_experiment_5_30_19,3.1.0,59.954483591865866,
,,,C,U,d,n,R,U,g,R,u,,,,,5,19,119,15,1,0,1,0,,,,,1,8,44,11,,,,,,up,0.5504705574439868,1043.4262172506224,None,001,15,2019_Oct_07_1656,ACPT_experiment_5_30_19,3.1.0,59.954483591865866,
,,,C,U,d,n,R,D,g,R,i,,,,,5,19,119,15,1,0,1,0,,,,,1,9,45,3,,,,,,up,0.5505055734265625,1045.2442790375317,None,001,15,2019_Oct_07_1656,ACPT_experiment_5_30_19,3.1.0,59.954483591865866,
,,,C,U,d,n,L,G,d,R,i,,,,,5,19,119,15,1,0,1,0,,,,,1,10,46,17,,,,,,up,0.7006033917805325,1047.0790657856724,None,001,15,2019_Oct_07_1656,ACPT_experiment_5_30_19,3.1.0,59.954483591865866,
,,,C,U,d,n,L,D,d,L,c ,,,,,5,19,119,15,1,0,1,0,,,,,1,11,47,12,,,,,,up,0.6505519696038391,1049.0639723880868,None,001,15,2019_Oct_07_1656,ACPT_experiment_5_30_19,3.1.0,59.954483591865866,
,,,C,U,d,n,L,U,d,R,u,,,,,5,19,119,15,1,0,1,0,,,,,1,12,48,21,,,,,,up,0.5004275874016457,1050.9988082491618,None,001,15,2019_Oct_07_1656,ACPT_experiment_5_30_19,3.1.0,59.954483591865866,
,,,C,U,d,n,R,D,y,R,y,,,,,5,19,119,15,1,0,1,0,,,,,1,13,49,27,,,,,,down,0.717238096302026,1052.8002320110663,None,001,15,2019_Oct_07_1656,ACPT_experiment_5_30_19,3.1.0,59.954483591865866,
,,,C,U,d,n,L,G,y,L,y,,,,,5,19,119,15,1,0,1,0,,,,,1,14,50,34,,,,,,down,0.6004923971559037,1054.8351595476051,None,001,15,2019_Oct_07_1656,ACPT_experiment_5_30_19,3.1.0,59.954483591865866,
,,,C,U,d,n,R,U,d,R,u,,,,,5,19,119,15,1,0,1,0,,,,,1,15,51,9,,,,,,up,0.5838356567146548,1056.7199548535318,None,001,15,2019_Oct_07_1656,ACPT_experiment_5_30_19,3.1.0,59.954483591865866,
,,,C,U,d,n,R,U,y,R,u,,,,,5,19,119,15,1,0,1,0,,,,,1,16,52,31,,,,,,up,0.3836728323967691,1058.588068364479,None,001,15,2019_Oct_07_1656,ACPT_experiment_5_30_19,3.1.0,59.954483591865866,
,,,C,U,d,n,R,G,y,L,y,,,,,5,19,119,15,1,0,1,0,,,,,1,17,53,28,,,,,,down,0.8840397455533093,1060.2727322397277,None,001,15,2019_Oct_07_1656,ACPT_experiment_5_30_19,3.1.0,59.954483591865866,
,,,C,U,d,n,L,D,g,R,i,,,,,5,19,119,15,1,0,1,0,,,,,1,18,54,15,,,,,,up,0.5668704133968276,1062.4580534192955,None,001,15,2019_Oct_07_1656,ACPT_experiment_5_30_19,3.1.0,59.954483591865866,
,,,C,U,d,n,R,U,g,L,u,,,,,5,19,119,15,1,0,1,0,,,,,1,19,55,10,,,,,,up,0.650529631820973,1064.3092297600833,None,001,15,2019_Oct_07_1656,ACPT_experiment_5_30_19,3.1.0,59.954483591865866,
,,,C,U,d,n,R,G,y,R,y,,,,,5,19,119,15,1,0,1,0,,,,,1,20,56,29,,,,,,down,0.7339189856957091,1066.2774343427682,None,001,15,2019_Oct_07_1656,ACPT_experiment_5_30_19,3.1.0,59.954483591865866,
,,,C,U,d,n,R,D,d,L,c,,,,,5,19,119,15,1,0,1,0,,,,,1,21,57,0,,,,,,up,0.6505326504411642,1068.31235916255,None,001,15,2019_Oct_07_1656,ACPT_experiment_5_30_19,3.1.0,59.954483591865866,
,,,C,U,d,n,R,G,d,R,i,,,,,5,19,119,15,1,0,1,0,,,,,1,22,58,5,,,,,,up,0.7005780353792943,1070.2472203800262,None,001,15,2019_Oct_07_1656,ACPT_experiment_5_30_19,3.1.0,59.954483591865866,
,,,C,U,d,n,L,U,y,R,u,,,,,5,19,119,15,1,0,1,0,,,,,1,23,59,25,,,,,,down,0.7839553147769038,1072.2320714398484,None,001,15,2019_Oct_07_1656,ACPT_experiment_5_30_19,3.1.0,59.954483591865866,
,,,C,U,d,n,R,D,y,L,y,,,,,5,19,119,15,1,0,1,0,,,,,1,24,60,26,,,,,,down,0.7839821804882376,1074.3003716222029,None,001,15,2019_Oct_07_1656,ACPT_experiment_5_30_19,3.1.0,59.954483591865866,
,,,C,U,d,n,L,D,y,L,y,,,,,5,19,119,15,1,0,1,0,,,,,1,25,61,32,,,,,,down,0.9007846296753996,1076.3519568047668,None,001,15,2019_Oct_07_1656,ACPT_experiment_5_30_19,3.1.0,59.954483591865866,
,,,C,U,d,n,L,G,d,L,i,,,,,5,19,119,15,1,0,1,0,,,,,1,26,62,16,,,,,,up,0.8006223185220733,1078.5537107432356,None,001,15,2019_Oct_07_1656,ACPT_experiment_5_30_19,3.1.0,59.954483591865866,
,,,C,U,d,n,R,G,g,L,c ,,,,,5,19,119,15,1,0,1,0,,,,,1,27,63,6,,,,,,up,0.884082911807127,1080.638673703268,None,001,15,2019_Oct_07_1656,ACPT_experiment_5_30_19,3.1.0,59.954483591865866,
,,,C,U,d,n,R,D,g,L,i,,,,,5,19,119,15,1,0,1,0,,,,,1,28,64,2,,,,,,up,0.43368169204586593,1082.807032356277,None,001,15,2019_Oct_07_1656,ACPT_experiment_5_30_19,3.1.0,59.954483591865866,
,,,C,U,d,n,R,G,g,R,c ,,,,,5,19,119,15,1,0,1,0,,,,,1,29,65,7,,,,,,up,0.5671318258155225,1084.5250471432846,None,001,15,2019_Oct_07_1656,ACPT_experiment_5_30_19,3.1.0,59.954483591865866,
,,,C,U,d,n,L,G,g,R,c ,,,,,5,19,119,15,1,0,1,0,,,,,1,30,66,19,,,,,,up,0.4004989173718059,1086.3598082331628,None,001,15,2019_Oct_07_1656,ACPT_experiment_5_30_19,3.1.0,59.954483591865866,
,,,C,U,d,n,L,U,y,L,u,,,,,5,19,119,15,1,0,1,0,,,,,1,31,67,24,,,,,,down,0.5671469189110212,1088.0444618451056,None,001,15,2019_Oct_07_1656,ACPT_experiment_5_30_19,3.1.0,59.954483591865866,
,,,C,U,d,n,R,U,y,L,u,,,,,5,19,119,15,1,0,1,0,,,,,1,32,68,30,,,,,,down,0.5671212606484914,1089.9126022217642,None,001,15,2019_Oct_07_1656,ACPT_experiment_5_30_19,3.1.0,59.954483591865866,
,,,C,U,d,n,L,U,d,L,u,,,,,5,19,119,15,1,0,1,0,,,,,1,33,69,20,,,,,,up,0.5169925618210982,1091.7974585037973,None,001,15,2019_Oct_07_1656,ACPT_experiment_5_30_19,3.1.0,59.954483591865866,
,,,C,U,d,n,L,D,y,R,y,,,,,5,19,119,15,1,0,1,0,,,,,1,34,70,33,,,,,,down,0.6671755052338995,1093.6154946324423,None,001,15,2019_Oct_07_1656,ACPT_experiment_5_30_19,3.1.0,59.954483591865866,
,,,C,U,d,n,L,G,y,R,y,,,,,5,19,119,15,1,0,1,0,,,,,1,35,71,35,,,,,,down,0.7172205883107381,1098.8529183858955,None,001,15,2019_Oct_07_1656,ACPT_experiment_5_30_19,3.1.0,59.954483591865866,
,,,C,U,d,n,,,,,,,,,,5,19,119,15,2,0,2,0,0,0,0,0,,,,,,,,,,,,,,001,15,2019_Oct_07_1656,ACPT_experiment_5_30_19,3.1.0,59.954483591865866,
,,,C,U,d,n,R,U,y,R,u,,,,,5,19,119,15,2,0,2,0,,,,,0,0,0,31,,,,,,down,0.6672132379735558,1113.7645957027544,None,001,15,2019_Oct_07_1656,ACPT_experiment_5_30_19,3.1.0,59.954483591865866,
,,,C,U,d,n,L,U,y,L,u,,,,,5,19,119,15,2,0,2,0,,,,,0,1,1,24,,,,,,down,0.5671218643728935,1115.7327912295823,None,001,15,2019_Oct_07_1656,ACPT_experiment_5_30_19,3.1.0,59.954483591865866,
,,,C,U,d,n,L,G,g,L,c ,,,,,5,19,119,15,2,0,2,0,,,,,0,2,2,18,,,,,,up,0.6171557785564801,1117.6009134945252,None,001,15,2019_Oct_07_1656,ACPT_experiment_5_30_19,3.1.0,59.954483591865866,
,,,C,U,d,n,L,D,g,R,i,,,,,5,19,119,15,2,0,2,0,,,,,0,3,3,15,,,,,,up,0.5504310135347623,1119.5024074996982,None,001,15,2019_Oct_07_1656,ACPT_experiment_5_30_19,3.1.0,59.954483591865866,
,,,C,U,d,n,R,G,d,R,i,,,,,5,19,119,15,2,0,2,0,,,,,0,4,4,5,,,,,,up,0.4970609214706201,1121.3571856568487,None,001,15,2019_Oct_07_1656,ACPT_experiment_5_30_19,3.1.0,59.954483591865866,
,,,C,U,d,n,L,G,d,R,i,,,,,5,19,119,15,2,0,2,0,,,,,0,5,5,17,,,,,,down,0.4503378287608939,1123.1385995961682,None,001,15,2019_Oct_07_1656,ACPT_experiment_5_30_19,3.1.0,59.954483591865866,
,,,C,U,d,n,L,U,g,L,u,,,,,5,19,119,15,2,0,2,0,,,,,0,6,6,22,,,,,,up,0.5504346358775365,1124.8732717273415,None,001,15,2019_Oct_07_1656,ACPT_experiment_5_30_19,3.1.0,59.954483591865866,
,,,C,U,d,n,R,D,d,L,c,,,,,5,19,119,15,2,0,2,0,,,,,0,7,7,0,,,,,,up,0.5504340321549535,1126.7080433823867,None,001,15,2019_Oct_07_1656,ACPT_experiment_5_30_19,3.1.0,59.954483591865866,
,,,C,U,d,n,L,D,y,L,y,,,,,5,19,119,15,2,0,2,0,,,,,0,8,8,32,,,,,,down,0.666798781563557,1128.5597669988256,None,001,15,2019_Oct_07_1656,ACPT_experiment_5_30_19,3.1.0,59.954483591865866,
,,,C,U,d,n,L,U,g,R,u,,,,,5,19,119,15,2,0,2,0,,,,,0,9,9,23,,,,,,up,0.5337289938070171,1130.5110428634853,None,001,15,2019_Oct_07_1656,ACPT_experiment_5_30_19,3.1.0,59.954483591865866,
,,,C,U,d,n,L,G,g,R,c ,,,,,5,19,119,15,2,0,2,0,,,,,0,10,10,19,,,,,,up,0.5837952072179178,1132.3291082727374,None,001,15,2019_Oct_07_1656,ACPT_experiment_5_30_19,3.1.0,59.954483591865866,
,,,C,U,d,n,L,G,y,L,y,,,,,5,19,119,15,2,0,2,0,,,,,0,11,11,34,,,,,,down,0.8339892289641284,1134.19723385816,None,001,15,2019_Oct_07_1656,ACPT_experiment_5_30_19,3.1.0,59.954483591865866,
,,,C,U,d,n,R,U,d,L,u,,,,,5,19,119,15,2,0,2,0,,,,,0,12,12,8,,,,,,up,0.6838657523476286,1136.3155607100143,None,001,15,2019_Oct_07_1656,ACPT_experiment_5_30_19,3.1.0,59.954483591865866,
,,,C,U,d,n,R,U,d,R,u,,,,,5,19,119,15,2,0,2,0,,,,,0,13,13,9,,,,,,up,0.5170722533675871,1138.2837649908397,None,001,15,2019_Oct_07_1656,ACPT_experiment_5_30_19,3.1.0,59.954483591865866,
,,,C,U,d,n,L,U,d,R,u,,,,,5,19,119,15,2,0,2,0,,,,,0,14,14,21,,,,,,up,0.5169786761725845,1140.0851763764076,None,001,15,2019_Oct_07_1656,ACPT_experiment_5_30_19,3.1.0,59.954483591865866,
,,,C,U,d,n,R,D,d,R,c ,,,,,5,19,119,15,2,0,2,0,,,,,0,15,15,1,,,,,,up,0.7305843171270681,1141.9065885287037,None,001,15,2019_Oct_07_1656,ACPT_experiment_5_30_19,3.1.0,59.954483591865866,
,,,C,U,d,n,R,D,g,L,i,,,,,5,19,119,15,2,0,2,0,,,,,0,16,16,2,,,,,,up,0.5838495423613494,1143.9048111657503,None,001,15,2019_Oct_07_1656,ACPT_experiment_5_30_19,3.1.0,59.954483591865866,
,,,C,U,d,n,R,G,d,L,i,,,,,5,19,119,15,2,0,2,0,,,,,0,17,17,4,,,,,,up,0.5337522371755767,1145.772959390817,None,001,15,2019_Oct_07_1656,ACPT_experiment_5_30_19,3.1.0,59.954483591865866,
,,,C,U,d,n,R,G,y,R,y,,,,,5,19,119,15,2,0,2,0,,,,,0,18,18,29,,,,,,down,0.683864846761935,1147.5910528732275,None,001,15,2019_Oct_07_1656,ACPT_experiment_5_30_19,3.1.0,59.954483591865866,
,,,C,U,d,n,L,U,d,L,u,,,,,5,19,119,15,2,0,2,0,,,,,0,19,19,20,,,,,,up,0.5003889490762958,1149.5592601726712,None,001,15,2019_Oct_07_1656,ACPT_experiment_5_30_19,3.1.0,59.954483591865866,
,,,C,U,d,n,L,D,g,L,i,,,,,5,19,119,15,2,0,2,0,,,,,0,20,20,14,,,,,,up,0.6671912020538002,1151.3439813111254,None,001,15,2019_Oct_07_1656,ACPT_experiment_5_30_19,3.1.0,59.954483591865866,
,,,C,U,d,n,R,U,g,R,u,,,,,5,19,119,15,2,0,2,0,,,,,0,21,21,11,,,,,,up,0.7339838860061718,1153.2955131546896,None,001,15,2019_Oct_07_1656,ACPT_experiment_5_30_19,3.1.0,59.954483591865866,
,,,C,U,d,n,L,G,y,R,y,,,,,5,19,119,15,2,0,2,0,,,,,0,22,22,35,,,,,,down,0.6338855695812526,1155.313798138297,None,001,15,2019_Oct_07_1656,ACPT_experiment_5_30_19,3.1.0,59.954483591865866,
,,,C,U,d,n,R,D,y,R,y,,,,,5,19,119,15,2,0,2,0,,,,,0,23,23,27,,,,,,down,0.5504829337842239,1157.248614076485,None,001,15,2019_Oct_07_1656,ACPT_experiment_5_30_19,3.1.0,59.954483591865866,
,,,C,U,d,n,R,U,g,L,u,,,,,5,19,119,15,2,0,2,0,,,,,0,24,24,10,,,,,,up,0.7173675950634788,1159.100061489271,None,001,15,2019_Oct_07_1656,ACPT_experiment_5_30_19,3.1.0,59.954483591865866,
,,,C,U,d,n,R,G,y,L,y,,,,,5,19,119,15,2,0,2,0,,,,,0,25,25,28,,,,,,down,0.7505232021630945,1161.1185447961561,None,001,15,2019_Oct_07_1656,ACPT_experiment_5_30_19,3.1.0,59.954483591865866,
,,,C,U,d,n,R,D,g,R,i,,,,,5,19,119,15,2,0,2,0,,,,,0,26,26,3,,,,,,up,0.6338487424291088,1163.153230239439,None,001,15,2019_Oct_07_1656,ACPT_experiment_5_30_19,3.1.0,59.954483591865866,
,,,C,U,d,n,L,D,d,R,c ,,,,,5,19,119,15,2,0,2,0,,,,,0,27,27,13,,,,,,up,0.6339414140365989,1165.0713942669772,None,001,15,2019_Oct_07_1656,ACPT_experiment_5_30_19,3.1.0,59.954483591865866,
,,,C,U,d,n,R,G,g,R,c ,,,,,5,19,119,15,2,0,2,0,,,,,0,28,28,7,,,,,,up,0.5337504260023707,1166.9895679540969,None,001,15,2019_Oct_07_1656,ACPT_experiment_5_30_19,3.1.0,59.954483591865866,
,,,C,U,d,n,L,D,y,R,y,,,,,5,19,119,15,2,0,2,0,,,,,0,29,29,33,,,,,,down,0.6338291214033234,1168.8076511732015,None,001,15,2019_Oct_07_1656,ACPT_experiment_5_30_19,3.1.0,59.954483591865866,
,,,C,U,d,n,L,D,d,L,c ,,,,,5,19,119,15,2,0,2,0,,,,,0,30,30,12,,,,,,up,0.7506798684971727,1170.7258142951541,None,001,15,2019_Oct_07_1656,ACPT_experiment_5_30_19,3.1.0,59.954483591865866,
,,,C,U,d,n,R,D,y,L,y,,,,,5,19,119,15,2,0,2,0,,,,,0,31,31,26,,,,,,up,0.6838633374518395,1172.777425739705,None,001,15,2019_Oct_07_1656,ACPT_experiment_5_30_19,3.1.0,59.954483591865866,
,,,C,U,d,n,R,G,g,L,c ,,,,,5,19,119,15,2,0,2,0,,,,,0,32,32,6,,,,,,up,0.7840645887899882,1174.7623169471608,None,001,15,2019_Oct_07_1656,ACPT_experiment_5_30_19,3.1.0,59.954483591865866,
,,,C,U,d,n,L,G,d,L,i,,,,,5,19,119,15,2,0,2,0,,,,,0,33,33,16,,,,,,up,1.03401953590037,1176.830590565667,None,001,15,2019_Oct_07_1656,ACPT_experiment_5_30_19,3.1.0,59.954483591865866,
,,,C,U,d,n,R,U,y,L,u,,,,,5,19,119,15,2,0,2,0,,,,,0,34,34,30,,,,,,down,0.5338403808527801,1179.1490542817137,None,001,15,2019_Oct_07_1656,ACPT_experiment_5_30_19,3.1.0,59.954483591865866,
,,,C,U,d,n,L,U,y,R,u,,,,,5,19,119,15,2,0,2,0,,,,,0,35,35,25,,,,,,down,0.7507166956511355,1180.9671661776993,None,001,15,2019_Oct_07_1656,ACPT_experiment_5_30_19,3.1.0,59.954483591865866,
,,,C,U,d,n,R,G,d,L,i,,,,,5,19,119,15,2,0,2,0,,,,,1,0,36,4,,,,,,up,0.6838766193759511,1183.0020846583811,None,001,15,2019_Oct_07_1656,ACPT_experiment_5_30_19,3.1.0,59.954483591865866,
,,,C,U,d,n,R,U,y,L,u,,,,,5,19,119,15,2,0,2,0,,,,,1,1,37,30,,,,,,down,0.6338285176807403,1184.9702928634106,None,001,15,2019_Oct_07_1656,ACPT_experiment_5_30_19,3.1.0,59.954483591865866,
,,,C,U,d,n,R,U,g,R,u,,,,,5,19,119,15,2,0,2,0,,,,,1,2,38,11,,,,,,up,0.6371432633623044,1186.9084558465056,None,001,15,2019_Oct_07_1656,ACPT_experiment_5_30_19,3.1.0,59.954483591865866,
,,,C,U,d,n,L,D,d,R,c ,,,,,5,19,119,15,2,0,2,0,,,,,1,3,39,13,,,,,,up,0.78393901423442,1188.823307241395,None,001,15,2019_Oct_07_1656,ACPT_experiment_5_30_19,3.1.0,59.954483591865866,
,,,C,U,d,n,R,G,y,R,y,,,,,5,19,119,15,2,0,2,0,,,,,1,4,40,29,,,,,,down,0.7672569173919328,1190.908281370319,None,001,15,2019_Oct_07_1656,ACPT_experiment_5_30_19,3.1.0,59.954483591865866,
,,,C,U,d,n,R,D,d,L,c,,,,,5,19,119,15,2,0,2,0,,,,,1,5,41,0,,,,,,up,0.7505687833127013,1192.9932488582817,None,001,15,2019_Oct_07_1656,ACPT_experiment_5_30_19,3.1.0,59.954483591865866,
,,,C,U,d,n,L,D,d,L,c ,,,,,5,19,119,15,2,0,2,0,,,,,1,6,42,12,,,,,,up,0.7339292490014486,1195.028138662081,None,001,15,2019_Oct_07_1656,ACPT_experiment_5_30_19,3.1.0,59.954483591865866,
,,,C,U,d,n,R,U,d,L,u,,,,,5,19,119,15,2,0,2,0,,,,,1,7,43,8,,,,,,up,0.6171726828251849,1197.0463816868814,None,001,15,2019_Oct_07_1656,ACPT_experiment_5_30_19,3.1.0,59.954483591865866,
,,,C,U,d,n,R,D,y,R,y,,,,,5,19,119,15,2,0,2,0,,,,,1,8,44,27,,,,,,down,0.6338303288503084,1198.9478932000475,None,001,15,2019_Oct_07_1656,ACPT_experiment_5_30_19,3.1.0,59.954483591865866,
,,,C,U,d,n,L,U,g,R,u,,,,,5,19,119,15,2,0,2,0,,,,,1,9,45,23,,,,,,up,0.6671902964681067,1200.8660596424797,None,001,15,2019_Oct_07_1656,ACPT_experiment_5_30_19,3.1.0,59.954483591865866,
,,,C,U,d,n,R,U,d,R,u,,,,,5,19,119,15,2,0,2,0,,,,,1,10,46,9,,,,,,up,0.5671275997483463,1202.8175923916297,None,001,15,2019_Oct_07_1656,ACPT_experiment_5_30_19,3.1.0,59.954483591865866,
,,,C,U,d,n,R,D,g,L,i,,,,,5,19,119,15,2,0,2,0,,,,,1,11,47,2,,,,,,up,0.7672783495891053,1204.6690370876604,None,001,15,2019_Oct_07_1656,ACPT_experiment_5_30_19,3.1.0,59.954483591865866,
,,,C,U,d,n,L,U,g,L,u,,,,,5,19,119,15,2,0,2,0,,,,,1,12,48,22,,,,,,up,0.6838627337292564,1206.7206449098685,None,001,15,2019_Oct_07_1656,ACPT_experiment_5_30_19,3.1.0,59.954483591865866,
,,,C,U,d,n,R,D,g,R,i,,,,,5,19,119,15,2,0,2,0,,,,,1,13,49,3,,,,,,up,0.6338556852533657,1208.6721429448971,None,001,15,2019_Oct_07_1656,ACPT_experiment_5_30_19,3.1.0,59.954483591865866,
,,,C,U,d,n,R,U,y,R,u,,,,,5,19,119,15,2,0,2,0,,,,,1,14,50,31,,,,,,down,0.6170386561352643,1210.5903317251123,None,001,15,2019_Oct_07_1656,ACPT_experiment_5_30_19,3.1.0,59.954483591865866,
,,,C,U,d,n,L,G,g,R,c ,,,,,5,19,119,15,2,0,2,0,,,,,1,15,51,19,,,,,,up,0.517069234747396,1212.491824220977,None,001,15,2019_Oct_07_1656,ACPT_experiment_5_30_19,3.1.0,59.954483591865866,
,,,C,U,d,n,L,D,y,L,y,,,,,5,19,119,15,2,0,2,0,,,,,1,16,52,32,,,,,,down,0.7170772039007716,1214.343389058049,None,001,15,2019_Oct_07_1656,ACPT_experiment_5_30_19,3.1.0,59.954483591865866,
,,,C,U,d,n,L,G,y,L,y,,,,,5,19,119,15,2,0,2,0,,,,,1,17,53,34,,,,,,down,0.7172438316792977,1216.3615203939407,None,001,15,2019_Oct_07_1656,ACPT_experiment_5_30_19,3.1.0,59.954483591865866,
,,,C,U,d,n,L,U,y,L,u,,,,,5,19,119,15,2,0,2,0,,,,,1,18,54,24,,,,,,down,0.700540302641457,1218.3797643243288,None,001,15,2019_Oct_07_1656,ACPT_experiment_5_30_19,3.1.0,59.954483591865866,
,,,C,U,d,n,L,G,g,L,c ,,,,,5,19,119,15,2,0,2,0,,,,,1,19,55,18,,,,,,up,0.5837852457752888,1220.3813288746314,None,001,15,2019_Oct_07_1656,ACPT_experiment_5_30_19,3.1.0,59.954483591865866,
,,,C,U,d,n,R,D,y,L,y,,,,,5,19,119,15,2,0,2,0,,,,,1,20,56,26,,,,,,down,0.7839516924341297,1222.2494559693641,None,001,15,2019_Oct_07_1656,ACPT_experiment_5_30_19,3.1.0,59.954483591865866,
,,,C,U,d,n,L,G,y,R,y,,,,,5,19,119,15,2,0,2,0,,,,,1,21,57,35,,,,,,down,0.7339135521815479,1224.317739549313,None,001,15,2019_Oct_07_1656,ACPT_experiment_5_30_19,3.1.0,59.954483591865866,
,,,C,U,d,n,L,U,y,R,u,,,,,5,19,119,15,2,0,2,0,,,,,1,22,58,25,,,,,,down,0.5504497289730352,1226.3359901206622,None,001,15,2019_Oct_07_1656,ACPT_experiment_5_30_19,3.1.0,59.954483591865866,
,,,C,U,d,n,L,G,d,L,i,,,,,5,19,119,15,2,0,2,0,,,,,1,23,59,16,,,,,,up,0.8673395369969512,1228.170757549642,None,001,15,2019_Oct_07_1656,ACPT_experiment_5_30_19,3.1.0,59.954483591865866,
,,,C,U,d,n,R,G,g,L,c ,,,,,5,19,119,15,2,0,2,0,,,,,1,24,60,6,,,,,,up,0.7505820652349939,1230.322441350494,None,001,15,2019_Oct_07_1656,ACPT_experiment_5_30_19,3.1.0,59.954483591865866,
,,,C,U,d,n,R,G,d,R,i,,,,,5,19,119,15,2,0,2,0,,,,,1,25,61,5,,,,,,up,0.7339337769299163,1232.3406632449605,None,001,15,2019_Oct_07_1656,ACPT_experiment_5_30_19,3.1.0,59.954483591865866,
,,,C,U,d,n,L,D,g,R,i,,,,,5,19,119,15,2,0,2,0,,,,,1,26,62,15,,,,,,up,0.7339337769299163,1234.3589077790712,None,001,15,2019_Oct_07_1656,ACPT_experiment_5_30_19,3.1.0,59.954483591865866,
,,,C,U,d,n,L,D,g,L,i,,,,,5,19,119,15,2,0,2,0,,,,,1,27,63,14,,,,,,up,0.4671781012457359,1236.3603449436469,None,001,15,2019_Oct_07_1656,ACPT_experiment_5_30_19,3.1.0,59.954483591865866,
,,,C,U,d,n,L,U,d,L,u,,,,,5,19,119,15,2,0,2,0,,,,,1,28,64,20,,,,,,up,0.6338309325747105,1238.1118657994375,None,001,15,2019_Oct_07_1656,ACPT_experiment_5_30_19,3.1.0,59.954483591865866,
,,,C,U,d,n,L,D,y,R,y,,,,,5,19,119,15,2,0,2,0,,,,,1,29,65,33,,,,,,down,0.7002794939471642,1240.0469829958165,None,001,15,2019_Oct_07_1656,ACPT_experiment_5_30_19,3.1.0,59.954483591865866,
,,,C,U,d,n,L,G,d,R,i,,,,,5,19,119,15,2,0,2,0,,,,,1,30,66,17,,,,,,up,0.833991945721209,1242.0315973958968,None,001,15,2019_Oct_07_1656,ACPT_experiment_5_30_19,3.1.0,59.954483591865866,
,,,C,U,d,n,L,U,d,R,u,,,,,5,19,119,15,2,0,2,0,,,,,1,31,67,21,,,,,,up,0.867344668649821,1244.1499230403042,None,001,15,2019_Oct_07_1656,ACPT_experiment_5_30_19,3.1.0,59.954483591865866,
,,,C,U,d,n,R,G,g,R,c ,,,,,5,19,119,15,2,0,2,0,,,,,1,32,68,7,,,,,,up,0.6004730779914098,1246.3016047281235,None,001,15,2019_Oct_07_1656,ACPT_experiment_5_30_19,3.1.0,59.954483591865866,
,,,C,U,d,n,R,U,g,L,u,,,,,5,19,119,15,2,0,2,0,,,,,1,33,69,10,,,,,,up,0.5504207502290228,1248.1864235792782,None,001,15,2019_Oct_07_1656,ACPT_experiment_5_30_19,3.1.0,59.954483591865866,
,,,C,U,d,n,R,G,y,L,y,,,,,5,19,119,15,2,0,2,0,,,,,1,34,70,28,,,,,,down,0.7172302478920756,1250.0211852728808,None,001,15,2019_Oct_07_1656,ACPT_experiment_5_30_19,3.1.0,59.954483591865866,
,,,C,U,d,n,R,D,d,R,c ,,,,,5,19,119,15,2,0,2,0,,,,,1,35,71,1,,,,,,up,0.5337519353124662,1252.0227483138751,None,001,15,2019_Oct_07_1656,ACPT_experiment_5_30_19,3.1.0,59.954483591865866,
,,,C,U,d,n,,,,,,,,,,5,19,119,15,3,0,3,0,0,0,0,0,,,,,,,,,,,,,,001,15,2019_Oct_07_1656,ACPT_experiment_5_30_19,3.1.0,59.954483591865866,
,,,C,U,d,n,R,D,y,R,y,,,,,5,19,119,15,3,0,3,0,,,,,0,0,0,27,,,,,,down,0.8139730672755832,1297.9119888383539,None,001,15,2019_Oct_07_1656,ACPT_experiment_5_30_19,3.1.0,59.954483591865866,
,,,C,U,d,n,L,U,g,R,u,,,,,5,19,119,15,3,0,3,0,,,,,0,1,1,23,,,,,,up,0.6338267065075343,1300.0102986229358,None,001,15,2019_Oct_07_1656,ACPT_experiment_5_30_19,3.1.0,59.954483591865866,
,,,C,U,d,n,R,U,g,L,u,,,,,5,19,119,15,3,0,3,0,,,,,0,2,2,10,,,,,,up,0.5671164308569132,1301.9284644616455,None,001,15,2019_Oct_07_1656,ACPT_experiment_5_30_19,3.1.0,59.954483591865866,
,,,C,U,d,n,R,G,y,L,y,,,,,5,19,119,15,3,0,3,0,,,,,0,3,3,28,,,,,,down,0.6338285176789213,1303.7799145911886,None,001,15,2019_Oct_07_1656,ACPT_experiment_5_30_19,3.1.0,59.954483591865866,
,,,C,U,d,n,R,D,g,L,i,,,,,5,19,119,15,3,0,3,0,,,,,0,4,4,2,,,,,,up,0.6504961251503119,1305.6980864671368,None,001,15,2019_Oct_07_1656,ACPT_experiment_5_30_19,3.1.0,59.954483591865866,
,,,C,U,d,n,L,G,y,L,y,,,,,5,19,119,15,3,0,3,0,,,,,0,5,5,34,,,,,,down,0.6838582057989697,1307.6496119716012,None,001,15,2019_Oct_07_1656,ACPT_experiment_5_30_19,3.1.0,59.954483591865866,
,,,C,U,d,n,R,G,g,R,c ,,,,,5,19,119,15,3,0,3,0,,,,,0,6,6,7,,,,,,up,0.5170677254373004,1309.6344968399571,None,001,15,2019_Oct_07_1656,ACPT_experiment_5_30_19,3.1.0,59.954483591865866,
,,,C,U,d,n,L,D,y,R,y,,,,,5,19,119,15,3,0,3,0,,,,,0,7,7,33,,,,,,down,0.9673116751419002,1311.4526669952938,None,001,15,2019_Oct_07_1656,ACPT_experiment_5_30_19,3.1.0,59.954483591865866,
,,,C,U,d,n,R,U,d,R,u,,,,,5,19,119,15,3,0,3,0,,,,,0,8,8,9,,,,,,up,0.7005390951926529,1313.7377061452735,None,001,15,2019_Oct_07_1656,ACPT_experiment_5_30_19,3.1.0,59.954483591865866,
,,,C,U,d,n,L,U,y,L,u,,,,,5,19,119,15,3,0,3,0,,,,,0,9,9,24,,,,,,down,0.7005442268455226,1315.7225916173538,None,001,15,2019_Oct_07_1656,ACPT_experiment_5_30_19,3.1.0,59.954483591865866,
,,,C,U,d,n,L,D,g,R,i,,,,,5,19,119,15,3,0,3,0,,,,,0,10,10,15,,,,,,up,0.6171464208382531,1317.707478296883,None,001,15,2019_Oct_07_1656,ACPT_experiment_5_30_19,3.1.0,59.954483591865866,
,,,C,U,d,n,L,D,d,R,c ,,,,,5,19,119,15,3,0,3,0,,,,,0,11,11,13,,,,,,up,0.7172483596077655,1319.5922690748794,None,001,15,2019_Oct_07_1656,ACPT_experiment_5_30_19,3.1.0,59.954483591865866,
,,,C,U,d,n,R,G,y,R,y,,,,,5,19,119,15,3,0,3,0,,,,,0,12,12,29,,,,,,down,0.6505217834110226,1321.593852038759,None,001,15,2019_Oct_07_1656,ACPT_experiment_5_30_19,3.1.0,59.954483591865866,
,,,C,U,d,n,R,U,y,R,u,,,,,5,19,119,15,3,0,3,0,,,,,0,13,13,31,,,,,,down,0.7839435421610688,1323.5287032947926,None,001,15,2019_Oct_07_1656,ACPT_experiment_5_30_19,3.1.0,59.954483591865866,
,,,C,U,d,n,L,G,g,R,c ,,,,,5,19,119,15,3,0,3,0,,,,,0,14,14,19,,,,,,up,0.7005436231211206,1325.596988685913,None,001,15,2019_Oct_07_1656,ACPT_experiment_5_30_19,3.1.0,59.954483591865866,
,,,C,U,d,n,L,U,d,R,u,,,,,5,19,119,15,3,0,3,0,,,,,0,15,15,21,,,,,,up,0.583829921337383,1327.581871139375,None,001,15,2019_Oct_07_1656,ACPT_experiment_5_30_19,3.1.0,59.954483591865866,
,,,C,U,d,n,R,D,y,L,y,,,,,5,19,119,15,3,0,3,0,,,,,0,16,16,26,,,,,,down,0.7339111372857587,1329.4500042713462,None,001,15,2019_Oct_07_1656,ACPT_experiment_5_30_19,3.1.0,59.954483591865866,
,,,C,U,d,n,L,D,d,L,c ,,,,,5,19,119,15,3,0,3,0,,,,,0,17,17,12,,,,,,up,0.7505787447553303,1331.4849278836791,None,001,15,2019_Oct_07_1656,ACPT_experiment_5_30_19,3.1.0,59.954483591865866,
,,,C,U,d,n,R,U,y,L,u,,,,,5,19,119,15,3,0,3,0,,,,,0,18,18,30,,,,,,down,0.7672726142118336,1333.519852703459,None,001,15,2019_Oct_07_1656,ACPT_experiment_5_30_19,3.1.0,59.954483591865866,
,,,C,U,d,n,L,D,g,L,i,,,,,5,19,119,15,3,0,3,0,,,,,0,19,19,14,,,,,,up,0.8506876263490994,1335.5714581107732,None,001,15,2019_Oct_07_1656,ACPT_experiment_5_30_19,3.1.0,59.954483591865866,
,,,C,U,d,n,R,D,d,L,c,,,,,5,19,119,15,3,0,3,0,,,,,0,20,20,0,,,,,,up,0.7837606138436968,1337.7232904276862,None,001,15,2019_Oct_07_1656,ACPT_experiment_5_30_19,3.1.0,59.954483591865866,
,,,C,U,d,n,R,D,g,R,i,,,,,5,19,119,15,3,0,3,0,,,,,0,21,21,3,,,,,,up,0.9507630012685695,1339.7914052668257,None,001,15,2019_Oct_07_1656,ACPT_experiment_5_30_19,3.1.0,59.954483591865866,
,,,C,U,d,n,L,U,g,L,u,,,,,5,19,119,15,3,0,3,0,,,,,0,22,22,22,,,,,,up,0.5504310135347623,1342.0265083058803,None,001,15,2019_Oct_07_1656,ACPT_experiment_5_30_19,3.1.0,59.954483591865866,
,,,C,U,d,n,R,G,g,L,c ,,,,,5,19,119,15,3,0,3,0,,,,,0,23,23,6,,,,,,up,0.6338194618219859,1343.8612778478928,None,001,15,2019_Oct_07_1656,ACPT_experiment_5_30_19,3.1.0,59.954483591865866,
,,,C,U,d,n,R,U,d,L,u,,,,,5,19,119,15,3,0,3,0,,,,,0,24,24,8,,,,,,up,0.5504781039926456,1345.779419235787,None,001,15,2019_Oct_07_1656,ACPT_experiment_5_30_19,3.1.0,59.954483591865866,
,,,C,U,d,n,L,G,d,L,i,,,,,5,19,119,15,3,0,3,0,,,,,0,25,25,16,,,,,,up,0.5337446906250989,1347.6142168509577,None,001,15,2019_Oct_07_1656,ACPT_experiment_5_30_19,3.1.0,59.954483591865866,
,,,C,U,d,n,R,D,d,R,c ,,,,,5,19,119,15,3,0,3,0,,,,,0,26,26,1,,,,,,up,0.6337171306349774,1349.4323000700624,None,001,15,2019_Oct_07_1656,ACPT_experiment_5_30_19,3.1.0,59.954483591865866,
,,,C,U,d,n,L,U,d,L,u,,,,,5,19,119,15,3,0,3,0,,,,,0,27,27,20,,,,,,up,0.5170728570901701,1351.3337895473069,None,001,15,2019_Oct_07_1656,ACPT_experiment_5_30_19,3.1.0,59.954483591865866,
,,,C,U,d,n,L,G,d,R,i,,,,,5,19,119,15,3,0,3,0,,,,,0,28,28,17,,,,,,up,0.5001809662171581,1353.1687251133717,None,001,15,2019_Oct_07_1656,ACPT_experiment_5_30_19,3.1.0,59.954483591865866,
,,,C,U,d,n,R,G,d,R,i,,,,,5,19,119,15,3,0,3,0,,,,,0,29,29,5,,,,,,up,0.6004851524685364,1354.9532627197805,None,001,15,2019_Oct_07_1656,ACPT_experiment_5_30_19,3.1.0,59.954483591865866,
,,,C,U,d,n,R,U,g,R,u,,,,,5,19,119,15,3,0,3,0,,,,,0,30,30,11,,,,,,up,0.7172220976208337,1356.8380966640325,None,001,15,2019_Oct_07_1656,ACPT_experiment_5_30_19,3.1.0,59.954483591865866,
,,,C,U,d,n,L,D,y,L,y,,,,,5,19,119,15,3,0,3,0,,,,,0,31,31,32,,,,,,down,0.7839535036055167,1358.8396627236452,None,001,15,2019_Oct_07_1656,ACPT_experiment_5_30_19,3.1.0,59.954483591865866,
,,,C,U,d,n,L,G,y,R,y,,,,,5,19,119,15,3,0,3,0,,,,,0,32,32,35,,,,,,down,0.68358803938645,1360.9249043022264,None,001,15,2019_Oct_07_1656,ACPT_experiment_5_30_19,3.1.0,59.954483591865866,
,,,C,U,d,n,R,G,d,L,i,,,,,5,19,119,15,3,0,3,0,,,,,0,33,33,4,,,,,,up,0.6505009549400711,1362.8928347942947,None,001,15,2019_Oct_07_1656,ACPT_experiment_5_30_19,3.1.0,59.954483591865866,
,,,C,U,d,n,L,U,y,R,u,,,,,5,19,119,15,3,0,3,0,,,,,0,34,34,25,,,,,,down,0.8173110563275259,1364.8276766926065,None,001,15,2019_Oct_07_1656,ACPT_experiment_5_30_19,3.1.0,59.954483591865866,
,,,C,U,d,n,L,G,g,L,c ,,,,,5,19,119,15,3,0,3,0,,,,,0,35,35,18,,,,,,up,0.6671803350236587,1366.92933563513,None,001,15,2019_Oct_07_1656,ACPT_experiment_5_30_19,3.1.0,59.954483591865866,
,,,C,U,d,n,R,U,g,L,u,,,,,5,19,119,15,3,0,3,0,,,,,1,0,36,10,,,,,,up,0.6171506469054293,1368.880852989323,None,001,15,2019_Oct_07_1656,ACPT_experiment_5_30_19,3.1.0,59.954483591865866,
,,,C,U,d,n,R,U,y,R,u,,,,,5,19,119,15,3,0,3,0,,,,,1,1,37,31,,,,,,down,0.6838690728272923,1370.7823400516718,None,001,15,2019_Oct_07_1656,ACPT_experiment_5_30_19,3.1.0,59.954483591865866,
,,,C,U,d,n,R,U,g,R,u,,,,,5,19,119,15,3,0,3,0,,,,,1,2,38,11,,,,,,up,0.6505100107970065,1372.7505476529786,None,001,15,2019_Oct_07_1656,ACPT_experiment_5_30_19,3.1.0,59.954483591865866,
,,,C,U,d,n,L,D,g,R,i,,,,,5,19,119,15,3,0,3,0,,,,,1,3,39,15,,,,,,up,0.6672733084942593,1374.6853913624618,None,001,15,2019_Oct_07_1656,ACPT_experiment_5_30_19,3.1.0,59.954483591865866,
,,,C,U,d,n,R,U,d,R,u,,,,,5,19,119,15,3,0,3,0,,,,,1,4,40,9,,,,,,up,0.6838666579315031,1376.6369198855446,None,001,15,2019_Oct_07_1656,ACPT_experiment_5_30_19,3.1.0,59.954483591865866,
,,,C,U,d,n,R,D,g,R,i,,,,,5,19,119,15,3,0,3,0,,,,,1,5,41,3,,,,,,up,0.5504400693916978,1378.6051286942984,None,001,15,2019_Oct_07_1656,ACPT_experiment_5_30_19,3.1.0,59.954483591865866,
,,,C,U,d,n,L,U,d,L,u,,,,,5,19,119,15,3,0,3,0,,,,,1,6,42,20,,,,,,up,0.6505069921786344,1380.439893104658,None,001,15,2019_Oct_07_1656,ACPT_experiment_5_30_19,3.1.0,59.954483591865866,
,,,C,U,d,n,L,G,y,R,y,,,,,5,19,119,15,3,0,3,0,,,,,1,7,43,35,,,,,,down,0.7172242106535123,1382.374743153243,None,001,15,2019_Oct_07_1656,ACPT_experiment_5_30_19,3.1.0,59.954483591865866,
,,,C,U,d,n,L,G,g,R,c ,,,,,5,19,119,15,3,0,3,0,,,,,1,8,44,19,,,,,,up,0.8673389332743682,1384.3763074016842,None,001,15,2019_Oct_07_1656,ACPT_experiment_5_30_19,3.1.0,59.954483591865866,
,,,C,U,d,n,L,U,g,R,u,,,,,5,19,119,15,3,0,3,0,,,,,1,9,45,23,,,,,,up,0.6505094070726045,1386.527993315569,None,001,15,2019_Oct_07_1656,ACPT_experiment_5_30_19,3.1.0,59.954483591865866,
,,,C,U,d,n,R,G,y,L,y,,,,,5,19,119,15,3,0,3,0,,,,,1,10,46,28,,,,,,down,1.1842764354823885,1388.462840949258,None,001,15,2019_Oct_07_1656,ACPT_experiment_5_30_19,3.1.0,59.954483591865866,
,,,C,U,d,n,R,G,d,L,i,,,,,5,19,119,15,3,0,3,0,,,,,1,11,47,4,,,,,,up,0.7505881024753762,1390.9147575158331,None,001,15,2019_Oct_07_1656,ACPT_experiment_5_30_19,3.1.0,59.954483591865866,
,,,C,U,d,n,R,D,d,R,c ,,,,,5,19,119,15,3,0,3,0,,,,,1,12,48,1,,,,,,up,1.0174527503077115,1392.9330144262822,None,001,15,2019_Oct_07_1656,ACPT_experiment_5_30_19,3.1.0,59.954483591865866,
,,,C,U,d,n,L,G,g,L,c ,,,,,5,19,119,15,3,0,3,0,,,,,1,13,49,18,,,,,,up,0.7005961470949842,1395.2348047994838,None,001,15,2019_Oct_07_1656,ACPT_experiment_5_30_19,3.1.0,59.954483591865866,
,,,C,U,d,n,R,G,d,R,i,,,,,5,19,119,15,3,0,3,0,,,,,1,14,50,5,,,,,,down,0.7839486738157575,1397.219688762254,None,001,15,2019_Oct_07_1656,ACPT_experiment_5_30_19,3.1.0,59.954483591865866,
,,,C,U,d,n,L,D,d,L,c ,,,,,5,19,119,15,3,0,3,0,,,,,1,15,51,12,,,,,,up,0.583788868118063,1399.287973851513,None,001,15,2019_Oct_07_1656,ACPT_experiment_5_30_19,3.1.0,59.954483591865866,
,,,C,U,d,n,L,U,y,L,u,,,,,5,19,119,15,3,0,3,0,,,,,1,16,52,24,,,,,,down,0.7838617375837202,1401.172937898249,None,001,15,2019_Oct_07_1656,ACPT_experiment_5_30_19,3.1.0,59.954483591865866,
,,,C,U,d,n,L,D,y,L,y,,,,,5,19,119,15,3,0,3,0,,,,,1,17,53,32,,,,,,down,0.7505856875795871,1403.257746606845,None,001,15,2019_Oct_07_1656,ACPT_experiment_5_30_19,3.1.0,59.954483591865866,
,,,C,U,d,n,L,D,d,R,c ,,,,,5,19,119,15,3,0,3,0,,,,,1,18,54,13,,,,,,up,0.783947768228245,1405.2759947632985,None,001,15,2019_Oct_07_1656,ACPT_experiment_5_30_19,3.1.0,59.954483591865866,
,,,C,U,d,n,L,D,y,R,y,,,,,5,19,119,15,3,0,3,0,,,,,1,19,55,33,,,,,,down,0.9173867331101064,1407.327600472474,None,001,15,2019_Oct_07_1656,ACPT_experiment_5_30_19,3.1.0,59.954483591865866,
,,,C,U,d,n,L,G,d,R,i,,,,,5,19,119,15,3,0,3,0,,,,,1,20,56,17,,,,,,up,0.9340679243650811,1409.529321809854,None,001,15,2019_Oct_07_1656,ACPT_experiment_5_30_19,3.1.0,59.954483591865866,
,,,C,U,d,n,R,D,y,L,y,,,,,5,19,119,15,3,0,3,0,,,,,1,21,57,26,,,,,,down,0.7172133436233707,1411.7477303757296,None,001,15,2019_Oct_07_1656,ACPT_experiment_5_30_19,3.1.0,59.954483591865866,
,,,C,U,d,n,R,D,y,R,y,,,,,5,19,119,15,3,0,3,0,,,,,1,22,58,27,,,,,,up,0.9509260067025025,1413.7324335232133,None,001,15,2019_Oct_07_1656,ACPT_experiment_5_30_19,3.1.0,59.954483591865866,
,,,C,U,d,n,R,G,y,R,y,,,,,5,19,119,15,3,0,3,0,,,,,1,23,59,29,,,,,,down,0.7671500582728186,1415.984373514273,None,001,15,2019_Oct_07_1656,ACPT_experiment_5_30_19,3.1.0,59.954483591865866,
,,,C,U,d,n,R,D,d,L,c,,,,,5,19,119,15,3,0,3,0,,,,,1,24,60,0,,,,,,up,0.6838355661548121,1418.052684563656,None,001,15,2019_Oct_07_1656,ACPT_experiment_5_30_19,3.1.0,59.954483591865866,
,,,C,U,d,n,L,D,g,L,i,,,,,5,19,119,15,3,0,3,0,,,,,1,25,61,14,,,,,,up,0.5837891699793545,1420.0208652992515,None,001,15,2019_Oct_07_1656,ACPT_experiment_5_30_19,3.1.0,59.954483591865866,
,,,C,U,d,n,R,U,d,L,u,,,,,5,19,119,15,3,0,3,0,,,,,1,26,62,8,,,,,,up,0.600476700334184,1421.8889926958473,None,001,15,2019_Oct_07_1656,ACPT_experiment_5_30_19,3.1.0,59.954483591865866,
,,,C,U,d,n,L,U,d,R,u,,,,,5,19,119,15,3,0,3,0,,,,,1,27,63,21,,,,,,up,0.8006244315565709,1423.7737994725267,None,001,15,2019_Oct_07_1656,ACPT_experiment_5_30_19,3.1.0,59.954483591865866,
,,,C,U,d,n,R,U,y,L,u,,,,,5,19,119,15,3,0,3,0,,,,,1,28,64,30,,,,,,down,0.6171283091225632,1425.8754593206359,None,001,15,2019_Oct_07_1656,ACPT_experiment_5_30_19,3.1.0,59.954483591865866,
,,,C,U,d,n,L,G,d,L,i,,,,,5,19,119,15,3,0,3,0,,,,,1,29,65,16,,,,,,up,0.8506598550520721,1427.7936145941785,None,001,15,2019_Oct_07_1656,ACPT_experiment_5_30_19,3.1.0,59.954483591865866,
,,,C,U,d,n,R,G,g,R,c ,,,,,5,19,119,15,3,0,3,0,,,,,1,30,66,7,,,,,,up,0.9674275901197689,1429.9286265614937,None,001,15,2019_Oct_07_1656,ACPT_experiment_5_30_19,3.1.0,59.954483591865866,
,,,C,U,d,n,R,G,g,L,c ,,,,,5,19,119,15,3,0,3,0,,,,,1,31,67,6,,,,,,up,1.000783935391155,1432.1803784925796,None,001,15,2019_Oct_07_1656,ACPT_experiment_5_30_19,3.1.0,59.954483591865866,
,,,C,U,d,n,L,U,g,L,u,,,,,5,19,119,15,3,0,3,0,,,,,1,32,68,22,,,,,,up,0.6004712668200227,1434.4654985415527,None,001,15,2019_Oct_07_1656,ACPT_experiment_5_30_19,3.1.0,59.954483591865866,
,,,C,U,d,n,L,U,y,R,u,,,,,5,19,119,15,3,0,3,0,,,,,1,33,69,25,,,,,,down,0.9007318038402445,1436.3336060152615,None,001,15,2019_Oct_07_1656,ACPT_experiment_5_30_19,3.1.0,59.954483591865866,
,,,C,U,d,n,R,D,g,L,i,,,,,5,19,119,15,3,0,3,0,,,,,1,34,70,2,,,,,,up,0.800625035279154,1438.5186736308224,None,001,15,2019_Oct_07_1656,ACPT_experiment_5_30_19,3.1.0,59.954483591865866,
,,,C,U,d,n,L,G,y,L,y,,,,,5,19,119,15,3,0,3,0,,,,,1,35,71,34,,,,,,down,0.7839486738139385,1440.603635383408,None,001,15,2019_Oct_07_1656,ACPT_experiment_5_30_19,3.1.0,59.954483591865866,
,,,C,U,d,n,,,,,,,,,,5,19,119,15,4,0,4,0,0,0,0,0,,,,,,,,,,,,,,001,15,2019_Oct_07_1656,ACPT_experiment_5_30_19,3.1.0,59.954483591865866,
,,,C,U,d,n,L,U,d,R,u,,,,,5,19,119,15,4,0,4,0,,,,,0,0,0,21,,,,,,up,0.6005050753556134,1445.0237601550107,None,001,15,2019_Oct_07_1656,ACPT_experiment_5_30_19,3.1.0,59.954483591865866,
,,,C,U,d,n,R,U,d,L,u,,,,,5,19,119,15,4,0,4,0,,,,,0,1,1,8,,,,,,up,0.617144609666866,1446.908572365206,None,001,15,2019_Oct_07_1656,ACPT_experiment_5_30_19,3.1.0,59.954483591865866,
,,,C,U,d,n,R,G,d,R,i,,,,,5,19,119,15,4,0,4,0,,,,,0,2,2,5,,,,,,up,0.5003907602495019,1448.8100561070733,None,001,15,2019_Oct_07_1656,ACPT_experiment_5_30_19,3.1.0,59.954483591865866,
,,,C,U,d,n,R,D,g,R,i,,,,,5,19,119,15,4,0,4,0,,,,,0,3,3,3,,,,,,up,0.7172296441676735,1450.5947917349004,None,001,15,2019_Oct_07_1656,ACPT_experiment_5_30_19,3.1.0,59.954483591865866,
,,,C,U,d,n,R,D,d,R,c ,,,,,5,19,119,15,4,0,4,0,,,,,0,4,4,1,,,,,,up,0.5004303041587264,1452.5796518505795,None,001,15,2019_Oct_07_1656,ACPT_experiment_5_30_19,3.1.0,59.954483591865866,
,,,C,U,d,n,L,U,y,R,u,,,,,5,19,119,15,4,0,4,0,,,,,0,5,5,25,,,,,,down,0.8338135453286668,1454.3813237429786,None,001,15,2019_Oct_07_1656,ACPT_experiment_5_30_19,3.1.0,59.954483591865866,
,,,C,U,d,n,L,D,y,L,y,,,,,5,19,119,15,4,0,4,0,,,,,0,6,6,32,,,,,,down,0.6505589124280959,1456.4993849563489,None,001,15,2019_Oct_07_1656,ACPT_experiment_5_30_19,3.1.0,59.954483591865866,
,,,C,U,d,n,L,D,d,L,c ,,,,,5,19,119,15,4,0,4,0,,,,,0,7,7,12,,,,,,up,0.9173728474597738,1458.4342703227776,None,001,15,2019_Oct_07_1656,ACPT_experiment_5_30_19,3.1.0,59.954483591865866,
,,,C,U,d,n,L,G,y,R,y,,,,,5,19,119,15,4,0,4,0,,,,,0,8,8,35,,,,,,down,0.6671836555069603,1460.6359792838193,None,001,15,2019_Oct_07_1656,ACPT_experiment_5_30_19,3.1.0,59.954483591865866,
,,,C,U,d,n,R,D,y,L,y,,,,,5,19,119,15,4,0,4,0,,,,,0,9,9,26,,,,,,down,0.5837946034953347,1462.5875047882837,None,001,15,2019_Oct_07_1656,ACPT_experiment_5_30_19,3.1.0,59.954483591865866,
,,,C,U,d,n,R,G,d,L,i,,,,,5,19,119,15,4,0,4,0,,,,,0,10,10,4,,,,,,up,0.6004594942060066,1464.4723157910303,None,001,15,2019_Oct_07_1656,ACPT_experiment_5_30_19,3.1.0,59.954483591865866,
,,,C,U,d,n,L,D,g,R,i,,,,,5,19,119,15,4,0,4,0,,,,,0,11,11,15,,,,,,up,0.7338951386045665,1466.3571267937768,None,001,15,2019_Oct_07_1656,ACPT_experiment_5_30_19,3.1.0,59.954483591865866,
,,,C,U,d,n,L,D,y,R,y,,,,,5,19,119,15,4,0,4,0,,,,,0,12,12,33,,,,,,down,0.8139842361670162,1468.3953775281316,None,001,15,2019_Oct_07_1656,ACPT_experiment_5_30_19,3.1.0,59.954483591865866,
,,,C,U,d,n,L,G,g,R,c ,,,,,5,19,119,15,4,0,4,0,,,,,0,13,13,19,,,,,,up,0.750605006742262,1470.4936978778805,None,001,15,2019_Oct_07_1656,ACPT_experiment_5_30_19,3.1.0,59.954483591865866,
,,,C,U,d,n,L,D,g,L,i,,,,,5,19,119,15,4,0,4,0,,,,,0,14,14,14,,,,,,up,0.7505820652368129,1472.5286202827647,None,001,15,2019_Oct_07_1656,ACPT_experiment_5_30_19,3.1.0,59.954483591865866,
,,,C,U,d,n,R,D,g,L,i,,,,,5,19,119,15,4,0,4,0,,,,,0,15,15,2,,,,,,up,0.6505063884542324,1474.5635390653079,None,001,15,2019_Oct_07_1656,ACPT_experiment_5_30_19,3.1.0,59.954483591865866,
,,,C,U,d,n,L,G,d,L,i,,,,,5,19,119,15,4,0,4,0,,,,,0,16,16,16,,,,,,up,0.9507482100343623,1476.4983888120314,None,001,15,2019_Oct_07_1656,ACPT_experiment_5_30_19,3.1.0,59.954483591865866,
,,,C,U,d,n,L,U,g,L,u,,,,,5,19,119,15,4,0,4,0,,,,,0,17,17,22,,,,,,up,0.9007299926670385,1478.7334689095806,None,001,15,2019_Oct_07_1656,ACPT_experiment_5_30_19,3.1.0,59.954483591865866,
,,,C,U,d,n,R,U,y,L,u,,,,,5,19,119,15,4,0,4,0,,,,,0,18,18,30,,,,,,down,1.033875849627293,1480.935465545028,None,001,15,2019_Oct_07_1656,ACPT_experiment_5_30_19,3.1.0,59.954483591865866,
,,,C,U,d,n,L,U,y,L,u,,,,,5,19,119,15,4,0,4,0,,,,,0,19,19,24,,,,,,down,0.6505344616125512,1483.2536491332176,None,001,15,2019_Oct_07_1656,ACPT_experiment_5_30_19,3.1.0,59.954483591865866,
,,,C,U,d,n,R,G,g,L,c ,,,,,5,19,119,15,4,0,4,0,,,,,0,20,20,6,,,,,,up,0.6838708840004983,1485.188524840065,None,001,15,2019_Oct_07_1656,ACPT_experiment_5_30_19,3.1.0,59.954483591865866,
,,,C,U,d,n,L,G,g,L,c ,,,,,5,19,119,15,4,0,4,0,,,,,0,21,21,18,,,,,,up,0.8006289594850386,1487.1567282153046,None,001,15,2019_Oct_07_1656,ACPT_experiment_5_30_19,3.1.0,59.954483591865866,
,,,C,U,d,n,L,G,d,R,i,,,,,5,19,119,15,4,0,4,0,,,,,0,22,22,17,,,,,,up,2.1016411326691014,1489.2417074758814,None,001,15,2019_Oct_07_1656,ACPT_experiment_5_30_19,3.1.0,59.954483591865866,
,,,C,U,d,n,R,D,d,L,c,,,,,5,19,119,15,4,0,4,0,,,,,0,23,23,0,,,,,,up,0.8840095593623118,1492.6276907593729,None,001,15,2019_Oct_07_1656,ACPT_experiment_5_30_19,3.1.0,59.954483591865866,
,,,C,U,d,n,R,U,y,R,u,,,,,5,19,119,15,4,0,4,0,,,,,0,24,24,31,,,,,,down,0.6838956366755156,1494.7960394509373,None,001,15,2019_Oct_07_1656,ACPT_experiment_5_30_19,3.1.0,59.954483591865866,
,,,C,U,d,n,R,G,y,L,y,,,,,5,19,119,15,4,0,4,0,,,,,0,25,25,28,,,,,,down,0.6004679463385401,1496.7642482596893,None,001,15,2019_Oct_07_1656,ACPT_experiment_5_30_19,3.1.0,59.954483591865866,
,,,C,U,d,n,R,G,g,R,c ,,,,,5,19,119,15,4,0,4,0,,,,,0,26,26,7,,,,,,up,0.6338354605049972,1498.6490565456788,None,001,15,2019_Oct_07_1656,ACPT_experiment_5_30_19,3.1.0,59.954483591865866,
,,,C,U,d,n,R,D,y,R,y,,,,,5,19,119,15,4,0,4,0,,,,,0,27,27,27,,,,,,down,0.8673425556171424,1500.5672238936986,None,001,15,2019_Oct_07_1656,ACPT_experiment_5_30_19,3.1.0,59.954483591865866,
,,,C,U,d,n,L,G,y,L,y,,,,,5,19,119,15,4,0,4,0,,,,,0,28,28,34,,,,,,down,0.6004703612361482,1502.7189061852405,None,001,15,2019_Oct_07_1656,ACPT_experiment_5_30_19,3.1.0,59.954483591865866,
,,,C,U,d,n,L,U,g,R,u,,,,,5,19,119,15,4,0,4,0,,,,,0,29,29,23,,,,,,up,0.567193707507613,1504.6037211121911,None,001,15,2019_Oct_07_1656,ACPT_experiment_5_30_19,3.1.0,59.954483591865866,
,,,C,U,d,n,L,U,d,L,u,,,,,5,19,119,15,4,0,4,0,,,,,0,30,30,20,,,,,,up,0.5838196580334625,1506.4384571475312,None,001,15,2019_Oct_07_1656,ACPT_experiment_5_30_19,3.1.0,59.954483591865866,
,,,C,U,d,n,R,U,g,L,u,,,,,5,19,119,15,4,0,4,0,,,,,0,31,31,10,,,,,,up,0.6671936169477704,1508.3066114098365,None,001,15,2019_Oct_07_1656,ACPT_experiment_5_30_19,3.1.0,59.954483591865866,
,,,C,U,d,n,R,U,d,R,u,,,,,5,19,119,15,4,0,4,0,,,,,0,32,32,9,,,,,,up,0.5304239077049715,1510.278144321992,None,001,15,2019_Oct_07_1656,ACPT_experiment_5_30_19,3.1.0,59.954483591865866,
,,,C,U,d,n,R,U,g,R,u,,,,,5,19,119,15,4,0,4,0,,,,,0,33,33,11,,,,,,up,0.6505299336840835,1512.0762050403082,None,001,15,2019_Oct_07_1656,ACPT_experiment_5_30_19,3.1.0,59.954483591865866,
,,,C,U,d,n,R,G,y,R,y,,,,,5,19,119,15,4,0,4,0,,,,,0,34,34,29,,,,,,down,0.8840174077740812,1514.0110789359842,None,001,15,2019_Oct_07_1656,ACPT_experiment_5_30_19,3.1.0,59.954483591865866,
,,,C,U,d,n,L,D,d,R,c ,,,,,5,19,119,15,4,0,4,0,,,,,0,35,35,13,,,,,,up,0.7339090242530801,1516.1794375889913,None,001,15,2019_Oct_07_1656,ACPT_experiment_5_30_19,3.1.0,59.954483591865866,
,,,C,U,d,n,R,G,y,L,y,,,,,5,19,119,15,4,0,4,0,,,,,1,0,36,28,,,,,,down,0.9507379467286228,1518.1976893677893,None,001,15,2019_Oct_07_1656,ACPT_experiment_5_30_19,3.1.0,59.954483591865866,
,,,C,U,d,n,R,G,g,L,c ,,,,,5,19,119,15,4,0,4,0,,,,,1,1,37,6,,,,,,up,1.0841977400814358,1520.4327694653384,None,001,15,2019_Oct_07_1656,ACPT_experiment_5_30_19,3.1.0,59.954483591865866,
,,,C,U,d,n,R,D,y,R,y,,,,,5,19,119,15,4,0,4,0,,,,,1,2,38,27,,,,,,down,0.6500496713779285,1522.8183980610793,None,001,15,2019_Oct_07_1656,ACPT_experiment_5_30_19,3.1.0,59.954483591865866,
,,,C,U,d,n,L,U,y,R,u,,,,,5,19,119,15,4,0,4,0,,,,,1,3,39,25,,,,,,down,0.5671360518808797,1524.752787770245,None,001,15,2019_Oct_07_1656,ACPT_experiment_5_30_19,3.1.0,59.954483591865866,
,,,C,U,d,n,L,G,y,L,y,,,,,5,19,119,15,4,0,4,0,,,,,1,4,40,34,,,,,,down,0.6671930132233683,1526.6042623506037,None,001,15,2019_Oct_07_1656,ACPT_experiment_5_30_19,3.1.0,59.954483591865866,
,,,C,U,d,n,R,G,d,R,i,,,,,5,19,119,15,4,0,4,0,,,,,1,5,41,5,,,,,,up,0.6338200655463879,1528.5557987220964,None,001,15,2019_Oct_07_1656,ACPT_experiment_5_30_19,3.1.0,59.954483591865866,
,,,C,U,d,n,R,G,y,R,y,,,,,5,19,119,15,4,0,4,0,,,,,1,6,42,29,,,,,,down,0.9507479081730708,1530.4739561086735,None,001,15,2019_Oct_07_1656,ACPT_experiment_5_30_19,3.1.0,59.954483591865866,
,,,C,U,d,n,R,U,y,L,u,,,,,5,19,119,15,4,0,4,0,,,,,1,7,43,30,,,,,,down,0.8173098488787218,1532.7090337913269,None,001,15,2019_Oct_07_1656,ACPT_experiment_5_30_19,3.1.0,59.954483591865866,
,,,C,U,d,n,L,G,d,R,i,,,,,5,19,119,15,4,0,4,0,,,,,1,8,44,17,,,,,,up,0.68386363931495,1534.8106863947505,None,001,15,2019_Oct_07_1656,ACPT_experiment_5_30_19,3.1.0,59.954483591865866,
,,,C,U,d,n,L,D,y,L,y,,,,,5,19,119,15,4,0,4,0,,,,,1,9,45,32,,,,,,down,0.7506098365338403,1536.778865922899,None,001,15,2019_Oct_07_1656,ACPT_experiment_5_30_19,3.1.0,59.954483591865866,
,,,C,U,d,n,L,U,y,L,u,,,,,5,19,119,15,4,0,4,0,,,,,1,10,46,24,,,,,,down,0.6171521562137059,1538.8138164009415,None,001,15,2019_Oct_07_1656,ACPT_experiment_5_30_19,3.1.0,59.954483591865866,
,,,C,U,d,n,L,U,d,L,u,,,,,5,19,119,15,4,0,4,0,,,,,1,11,47,20,,,,,,up,0.6004923971559037,1540.6986008398399,None,001,15,2019_Oct_07_1656,ACPT_experiment_5_30_19,3.1.0,59.954483591865866,
,,,C,U,d,n,L,U,g,L,u,,,,,5,19,119,15,4,0,4,0,,,,,1,12,48,22,,,,,,up,0.6004969250843715,1542.566732462501,None,001,15,2019_Oct_07_1656,ACPT_experiment_5_30_19,3.1.0,59.954483591865866,
,,,C,U,d,n,L,D,g,L,i,,,,,5,19,119,15,4,0,4,0,,,,,1,13,49,14,,,,,,up,0.6505127275540872,1544.4515576527574,None,001,15,2019_Oct_07_1656,ACPT_experiment_5_30_19,3.1.0,59.954483591865866,
,,,C,U,d,n,R,U,y,R,u,,,,,5,19,119,15,4,0,4,0,,,,,1,14,50,31,,,,,,down,0.7005369821581553,1546.4030958354215,None,001,15,2019_Oct_07_1656,ACPT_experiment_5_30_19,3.1.0,59.954483591865866,
,,,C,U,d,n,R,U,g,R,u,,,,,5,19,119,15,4,0,4,0,,,,,1,15,51,11,,,,,,up,0.633800142659311,1548.4046887607437,None,001,15,2019_Oct_07_1656,ACPT_experiment_5_30_19,3.1.0,59.954483591865866,
,,,C,U,d,n,R,U,d,L,u,,,,,5,19,119,15,4,0,4,0,,,,,1,16,52,8,,,,,,up,0.6671948243965744,1550.3061392978016,None,001,15,2019_Oct_07_1656,ACPT_experiment_5_30_19,3.1.0,59.954483591865866,
,,,C,U,d,n,R,D,g,R,i,,,,,5,19,119,15,4,0,4,0,,,,,1,17,53,3,,,,,,up,0.5837849439121783,1552.2576729525372,None,001,15,2019_Oct_07_1656,ACPT_experiment_5_30_19,3.1.0,59.954483591865866,
,,,C,U,d,n,L,U,g,R,u,,,,,5,19,119,15,4,0,4,0,,,,,1,18,54,23,,,,,,up,0.5334965601323347,1554.1427284634356,None,001,15,2019_Oct_07_1656,ACPT_experiment_5_30_19,3.1.0,59.954483591865866,
,,,C,U,d,n,R,D,d,R,c ,,,,,5,19,119,15,4,0,4,0,,,,,1,19,55,1,,,,,,up,0.5003847230091196,1555.960570494868,None,001,15,2019_Oct_07_1656,ACPT_experiment_5_30_19,3.1.0,59.954483591865866,
,,,C,U,d,n,L,D,y,R,y,,,,,5,19,119,15,4,0,4,0,,,,,1,20,56,33,,,,,,down,0.567112204789737,1557.7452970668382,None,001,15,2019_Oct_07_1656,ACPT_experiment_5_30_19,3.1.0,59.954483591865866,
,,,C,U,d,n,L,G,d,L,i,,,,,5,19,119,15,4,0,4,0,,,,,1,21,57,16,,,,,,up,0.5504651239316445,1559.5967456870712,None,001,15,2019_Oct_07_1656,ACPT_experiment_5_30_19,3.1.0,59.954483591865866,
,,,C,U,d,n,L,D,d,L,c ,,,,,5,19,119,15,4,0,4,0,,,,,1,22,58,12,,,,,,up,0.4637078966770787,1561.4515232404992,None,001,15,2019_Oct_07_1656,ACPT_experiment_5_30_19,3.1.0,59.954483591865866,
,,,C,U,d,n,R,U,d,R,u,,,,,5,19,119,15,4,0,4,0,,,,,1,23,59,9,,,,,,up,0.5170641030945262,1563.199569665654,None,001,15,2019_Oct_07_1656,ACPT_experiment_5_30_19,3.1.0,59.954483591865866,
,,,C,U,d,n,R,D,g,L,i,,,,,5,19,119,15,4,0,4,0,,,,,1,24,60,2,,,,,,up,0.48370775781950215,1565.0009804474976,None,001,15,2019_Oct_07_1656,ACPT_experiment_5_30_19,3.1.0,59.954483591865866,
,,,C,U,d,n,L,D,g,R,i,,,,,5,19,119,15,4,0,4,0,,,,,1,25,61,15,,,,,,up,0.5337899699134141,1566.7690255263478,None,001,15,2019_Oct_07_1656,ACPT_experiment_5_30_19,3.1.0,59.954483591865866,
,,,C,U,d,n,L,G,g,R,c ,,,,,5,19,119,15,4,0,4,0,,,,,1,26,62,19,,,,,,up,0.550159337812147,1568.6040658384973,None,001,15,2019_Oct_07_1656,ACPT_experiment_5_30_19,3.1.0,59.954483591865866,
,,,C,U,d,n,L,G,y,R,y,,,,,5,19,119,15,4,0,4,0,,,,,1,27,63,35,,,,,,up,0.4003123667098407,1570.438560686167,None,001,15,2019_Oct_07_1656,ACPT_experiment_5_30_19,3.1.0,59.954483591865866,
,,,C,U,d,n,R,D,y,L,y,,,,,5,19,119,15,4,0,4,0,,,,,1,28,64,26,,,,,,down,0.5504240707105055,1572.12321731673,None,001,15,2019_Oct_07_1656,ACPT_experiment_5_30_19,3.1.0,59.954483591865866,
,,,C,U,d,n,L,G,g,L,c ,,,,,5,19,119,15,4,0,4,0,,,,,1,29,65,18,,,,,,up,0.6171512506280123,1573.9579850475711,None,001,15,2019_Oct_07_1656,ACPT_experiment_5_30_19,3.1.0,59.954483591865866,
,,,C,U,d,n,L,D,d,R,c ,,,,,5,19,119,15,4,0,4,0,,,,,1,30,66,13,,,,,,up,0.7503094839266851,1575.876428599242,None,001,15,2019_Oct_07_1656,ACPT_experiment_5_30_19,3.1.0,59.954483591865866,
,,,C,U,d,n,R,G,d,L,i,,,,,5,19,119,15,4,0,4,0,,,,,1,31,67,4,,,,,,up,0.533748312969692,1577.9110760079238,None,001,15,2019_Oct_07_1656,ACPT_experiment_5_30_19,3.1.0,59.954483591865866,
,,,C,U,d,n,R,U,g,L,u,,,,,5,19,119,15,4,0,4,0,,,,,1,32,68,10,,,,,,up,0.583778302949213,1579.7291758294323,None,001,15,2019_Oct_07_1656,ACPT_experiment_5_30_19,3.1.0,59.954483591865866,
,,,C,U,d,n,R,G,g,R,c ,,,,,5,19,119,15,4,0,4,0,,,,,1,33,69,7,,,,,,up,0.800636204170587,1581.5972836050041,None,001,15,2019_Oct_07_1656,ACPT_experiment_5_30_19,3.1.0,59.954483591865866,
,,,C,U,d,n,L,U,d,R,u,,,,,5,19,119,15,4,0,4,0,,,,,1,34,70,21,,,,,,up,0.6671915039150917,1583.6822625637178,None,001,15,2019_Oct_07_1656,ACPT_experiment_5_30_19,3.1.0,59.954483591865866,
,,,C,U,d,n,R,D,d,L,c,,,,,5,19,119,15,4,0,4,0,,,,,1,35,71,0,,,,,,up,0.5671209587871999,1585.617096009899,None,001,15,2019_Oct_07_1656,ACPT_experiment_5_30_19,3.1.0,59.954483591865866,
,,,C,U,d,n,,,,,,,,,,5,19,119,15,5,0,5,0,0,0,0,0,,,,,,,,,,,,,,001,15,2019_Oct_07_1656,ACPT_experiment_5_30_19,3.1.0,59.954483591865866,
,,,C,U,d,n,L,U,d,R,u,,,,,5,19,119,15,5,0,5,0,,,,,0,0,0,21,,,,,,up,0.5667231047809764,1588.9700006610765,None,001,15,2019_Oct_07_1656,ACPT_experiment_5_30_19,3.1.0,59.954483591865866,
,,,C,U,d,n,L,U,g,L,u,,,,,5,19,119,15,5,0,5,0,,,,,0,1,1,22,,,,,,up,0.5170647068171093,1590.804504564605,None,001,15,2019_Oct_07_1656,ACPT_experiment_5_30_19,3.1.0,59.954483591865866,
,,,C,U,d,n,L,U,g,R,u,,,,,5,19,119,15,5,0,5,0,,,,,0,2,2,23,,,,,,up,0.533930637564481,1592.5890744702392,None,001,15,2019_Oct_07_1656,ACPT_experiment_5_30_19,3.1.0,59.954483591865866,
,,,C,U,d,n,L,G,y,R,y,,,,,5,19,119,15,5,0,5,0,,,,,0,3,3,35,,,,,,down,0.6672032765309268,1594.4073212985004,None,001,15,2019_Oct_07_1656,ACPT_experiment_5_30_19,3.1.0,59.954483591865866,
,,,C,U,d,n,R,U,d,R,u,,,,,5,19,119,15,5,0,5,0,,,,,0,4,4,9,,,,,,up,0.6505121238315041,1596.358845897379,None,001,15,2019_Oct_07_1656,ACPT_experiment_5_30_19,3.1.0,59.954483591865866,
,,,C,U,d,n,R,G,d,R,i,,,,,5,19,119,15,5,0,5,0,,,,,0,5,5,5,,,,,,up,0.7506047048809705,1598.2936944366538,None,001,15,2019_Oct_07_1656,ACPT_experiment_5_30_19,3.1.0,59.954483591865866,
,,,C,U,d,n,R,D,y,R,y,,,,,5,19,119,15,5,0,5,0,,,,,0,6,6,27,,,,,,down,0.5836844238947378,1600.328621067607,None,001,15,2019_Oct_07_1656,ACPT_experiment_5_30_19,3.1.0,59.954483591865866,
,,,C,U,d,n,L,G,y,L,y,,,,,5,19,119,15,5,0,5,0,,,,,0,7,7,34,,,,,,down,2.331844349129824,1602.216764022165,None,001,15,2019_Oct_07_1656,ACPT_experiment_5_30_19,3.1.0,59.954483591865866,
,,,C,U,d,n,L,D,y,L,y,,,,,5,19,119,15,5,0,5,0,,,,,0,8,8,32,,,,,,down,0.6004776059216965,1605.8496051495222,None,001,15,2019_Oct_07_1656,ACPT_experiment_5_30_19,3.1.0,59.954483591865866,
,,,C,U,d,n,R,D,d,R,c ,,,,,5,19,119,15,5,0,5,0,,,,,0,9,9,1,,,,,,up,0.6671878815723176,1607.7510943249054,None,001,15,2019_Oct_07_1656,ACPT_experiment_5_30_19,3.1.0,59.954483591865866,
,,,C,U,d,n,L,U,d,L,u,,,,,5,19,119,15,5,0,5,0,,,,,0,10,10,20,,,,,,up,0.567121562507964,1609.7026177163352,None,001,15,2019_Oct_07_1656,ACPT_experiment_5_30_19,3.1.0,59.954483591865866,
,,,C,U,d,n,R,D,g,L,i,,,,,5,19,119,15,5,0,5,0,,,,,0,11,11,2,,,,,,up,0.5170523304786911,1611.5707665451264,None,001,15,2019_Oct_07_1656,ACPT_experiment_5_30_19,3.1.0,59.954483591865866,
,,,C,U,d,n,L,U,y,L,u,,,,,5,19,119,15,5,0,5,0,,,,,0,12,12,24,,,,,,down,0.6336522303208767,1613.4056779622388,None,001,15,2019_Oct_07_1656,ACPT_experiment_5_30_19,3.1.0,59.954483591865866,
,,,C,U,d,n,L,D,d,L,c ,,,,,5,19,119,15,5,0,5,0,,,,,0,13,13,12,,,,,,up,0.683853074147919,1615.3403737593853,None,001,15,2019_Oct_07_1656,ACPT_experiment_5_30_19,3.1.0,59.954483591865866,
,,,C,U,d,n,L,D,y,R,y,,,,,5,19,119,15,5,0,5,0,,,,,0,14,14,33,,,,,,down,0.6004875673643255,1617.291871794414,None,001,15,2019_Oct_07_1656,ACPT_experiment_5_30_19,3.1.0,59.954483591865866,
,,,C,U,d,n,L,D,g,L,i,,,,,5,19,119,15,5,0,5,0,,,,,0,15,15,14,,,,,,down,0.5504518420075328,1619.1766997014274,None,001,15,2019_Oct_07_1656,ACPT_experiment_5_30_19,3.1.0,59.954483591865866,
,,,C,U,d,n,R,G,g,R,c ,,,,,5,19,119,15,5,0,5,0,,,,,0,16,16,7,,,,,,up,0.4837086634070147,1620.9947934856991,None,001,15,2019_Oct_07_1656,ACPT_experiment_5_30_19,3.1.0,59.954483591865866,
,,,C,U,d,n,R,U,d,L,u,,,,,5,19,119,15,5,0,5,0,,,,,0,17,17,8,,,,,,up,0.5170671217128984,1622.7628409794452,None,001,15,2019_Oct_07_1656,ACPT_experiment_5_30_19,3.1.0,59.954483591865866,
,,,C,U,d,n,L,D,g,R,i,,,,,5,19,119,15,5,0,5,0,,,,,0,18,18,15,,,,,,up,0.5668381141713326,1624.5811994966152,None,001,15,2019_Oct_07_1656,ACPT_experiment_5_30_19,3.1.0,59.954483591865866,
,,,C,U,d,n,R,U,g,L,u,,,,,5,19,119,15,5,0,5,0,,,,,0,19,19,10,,,,,,up,1.2176421384738205,1626.4323833839499,None,001,15,2019_Oct_07_1656,ACPT_experiment_5_30_19,3.1.0,59.954483591865866,
,,,C,U,d,n,L,G,g,L,c ,,,,,5,19,119,15,5,0,5,0,,,,,0,20,20,18,,,,,,up,0.7672659732488682,1628.934339901949,None,001,15,2019_Oct_07_1656,ACPT_experiment_5_30_19,3.1.0,59.954483591865866,
,,,C,U,d,n,L,G,d,R,i,,,,,5,19,119,15,5,0,5,0,,,,,0,21,21,17,,,,,,up,0.7169555535510881,1630.98621457009,None,001,15,2019_Oct_07_1656,ACPT_experiment_5_30_19,3.1.0,59.954483591865866,
,,,C,U,d,n,R,G,y,L,y,,,,,5,19,119,15,5,0,5,0,,,,,0,22,22,28,,,,,,down,2.8522334612134728,1632.9875092558395,None,001,15,2019_Oct_07_1656,ACPT_experiment_5_30_19,3.1.0,59.954483591865866,
,,,C,U,d,n,R,G,d,L,i,,,,,5,19,119,15,5,0,5,0,,,,,0,23,23,4,,,,,,down,0.5003986086594523,1637.1240773213249,None,001,15,2019_Oct_07_1656,ACPT_experiment_5_30_19,3.1.0,59.954483591865866,
,,,C,U,d,n,L,G,g,R,c ,,,,,5,19,119,15,5,0,5,0,,,,,0,24,24,19,,,,,,up,0.5170713477800746,1638.9088060063277,None,001,15,2019_Oct_07_1656,ACPT_experiment_5_30_19,3.1.0,59.954483591865866,
,,,C,U,d,n,R,D,g,R,i,,,,,5,19,119,15,5,0,5,0,,,,,0,25,25,3,,,,,,up,0.5337513315880642,1640.7102179956182,None,001,15,2019_Oct_07_1656,ACPT_experiment_5_30_19,3.1.0,59.954483591865866,
,,,C,U,d,n,R,U,g,R,u,,,,,5,19,119,15,5,0,5,0,,,,,0,26,26,11,,,,,,up,0.7505859894426976,1642.5283096668554,None,001,15,2019_Oct_07_1656,ACPT_experiment_5_30_19,3.1.0,59.954483591865866,
,,,C,U,d,n,L,D,d,R,c ,,,,,5,19,119,15,5,0,5,0,,,,,0,27,27,13,,,,,,up,0.5337516334511747,1644.5632347884984,None,001,15,2019_Oct_07_1656,ACPT_experiment_5_30_19,3.1.0,59.954483591865866,
,,,C,U,d,n,R,U,y,L,u,,,,,5,19,119,15,5,0,5,0,,,,,0,28,28,30,,,,,,down,0.5838051686623658,1646.397983200177,None,001,15,2019_Oct_07_1656,ACPT_experiment_5_30_19,3.1.0,59.954483591865866,
,,,C,U,d,n,L,U,y,R,u,,,,,5,19,119,15,5,0,5,0,,,,,0,29,29,25,,,,,,down,0.5504177316106507,1648.2995013543023,None,001,15,2019_Oct_07_1656,ACPT_experiment_5_30_19,3.1.0,59.954483591865866,
,,,C,U,d,n,R,D,d,L,c,,,,,5,19,119,15,5,0,5,0,,,,,0,30,30,0,,,,,,up,0.6338297251277254,1650.1342597274233,None,001,15,2019_Oct_07_1656,ACPT_experiment_5_30_19,3.1.0,59.954483591865866,
,,,C,U,d,n,R,G,y,R,y,,,,,5,19,119,15,5,0,5,0,,,,,0,31,31,29,,,,,,down,0.6338372716763843,1652.0691106815939,None,001,15,2019_Oct_07_1656,ACPT_experiment_5_30_19,3.1.0,59.954483591865866,
,,,C,U,d,n,R,D,y,L,y,,,,,5,19,119,15,5,0,5,0,,,,,0,32,32,26,,,,,,down,0.6171594009010732,1654.003957107836,None,001,15,2019_Oct_07_1656,ACPT_experiment_5_30_19,3.1.0,59.954483591865866,
,,,C,U,d,n,L,G,d,L,i,,,,,5,19,119,15,5,0,5,0,,,,,0,33,33,16,,,,,,up,0.6838639411744225,1655.9054429627377,None,001,15,2019_Oct_07_1656,ACPT_experiment_5_30_19,3.1.0,59.954483591865866,
,,,C,U,d,n,R,G,g,L,c ,,,,,5,19,119,15,5,0,5,0,,,,,0,34,34,6,,,,,,up,0.7005638478713081,1657.8736514696284,None,001,15,2019_Oct_07_1656,ACPT_experiment_5_30_19,3.1.0,59.954483591865866,
,,,C,U,d,n,R,U,y,R,u,,,,,5,19,119,15,5,0,5,0,,,,,0,35,35,31,,,,,,down,0.7338963460515515,1659.858552034806,None,001,15,2019_Oct_07_1656,ACPT_experiment_5_30_19,3.1.0,59.954483591865866,
,,,C,U,d,n,L,G,d,L,i,,,,,5,19,119,15,5,0,5,0,,,,,1,0,36,16,,,,,,up,0.6171479301483487,1661.8767829851295,None,001,15,2019_Oct_07_1656,ACPT_experiment_5_30_19,3.1.0,59.954483591865866,
,,,C,U,d,n,L,G,d,R,i,,,,,5,19,119,15,5,0,5,0,,,,,1,1,37,17,,,,,,up,0.6338182543750008,1663.778272462374,None,001,15,2019_Oct_07_1656,ACPT_experiment_5_30_19,3.1.0,59.954483591865866,
,,,C,U,d,n,L,G,g,R,c ,,,,,5,19,119,15,5,0,5,0,,,,,1,2,38,19,,,,,,up,0.46702686842763796,1665.696437395498,None,001,15,2019_Oct_07_1656,ACPT_experiment_5_30_19,3.1.0,59.954483591865866,
,,,C,U,d,n,R,D,y,R,y,,,,,5,19,119,15,5,0,5,0,,,,,1,3,39,27,,,,,,down,0.5168280470770696,1667.464736038357,None,001,15,2019_Oct_07_1656,ACPT_experiment_5_30_19,3.1.0,59.954483591865866,
,,,C,U,d,n,L,D,g,R,i,,,,,5,19,119,15,5,0,5,0,,,,,1,4,40,15,,,,,,up,0.6838787324104487,1669.265893859916,None,001,15,2019_Oct_07_1656,ACPT_experiment_5_30_19,3.1.0,59.954483591865866,
,,,C,U,d,n,L,U,y,R,u,,,,,5,19,119,15,5,0,5,0,,,,,1,5,41,25,,,,,,down,0.7172426242304937,1671.2341099133555,None,001,15,2019_Oct_07_1656,ACPT_experiment_5_30_19,3.1.0,59.954483591865866,
,,,C,U,d,n,R,G,y,R,y,,,,,5,19,119,15,5,0,5,0,,,,,1,6,42,29,,,,,,down,0.7839468626425514,1673.2356711431785,None,001,15,2019_Oct_07_1656,ACPT_experiment_5_30_19,3.1.0,59.954483591865866,
,,,C,U,d,n,R,U,d,L,u,,,,,5,19,119,15,5,0,5,0,,,,,1,7,43,8,,,,,,up,0.9007082586085744,1675.3039562324375,None,001,15,2019_Oct_07_1656,ACPT_experiment_5_30_19,3.1.0,59.954483591865866,
,,,C,U,d,n,R,D,g,L,i,,,,,5,19,119,15,5,0,5,0,,,,,1,8,44,2,,,,,,up,0.667167053099547,1677.4890181126193,None,001,15,2019_Oct_07_1656,ACPT_experiment_5_30_19,3.1.0,59.954483591865866,
,,,C,U,d,n,R,G,y,L,y,,,,,5,19,119,15,5,0,5,0,,,,,1,9,45,28,,,,,,down,0.6838569983519847,1679.4572100171063,None,001,15,2019_Oct_07_1656,ACPT_experiment_5_30_19,3.1.0,59.954483591865866,
,,,C,U,d,n,L,D,d,L,c ,,,,,5,19,119,15,5,0,5,0,,,,,1,10,46,12,,,,,,up,0.5003847230091196,1681.4587739636845,None,001,15,2019_Oct_07_1656,ACPT_experiment_5_30_19,3.1.0,59.954483591865866,
,,,C,U,d,n,L,U,y,L,u,,,,,5,19,119,15,5,0,5,0,,,,,1,11,47,24,,,,,,down,0.6004700593730377,1683.2434981207589,None,001,15,2019_Oct_07_1656,ACPT_experiment_5_30_19,3.1.0,59.954483591865866,
,,,C,U,d,n,R,U,d,R,u,,,,,5,19,119,15,5,0,5,0,,,,,1,12,48,9,,,,,,up,0.7005556975982472,1685.128307010471,None,001,15,2019_Oct_07_1656,ACPT_experiment_5_30_19,3.1.0,59.954483591865866,
,,,C,U,d,n,L,G,y,R,y,,,,,5,19,119,15,5,0,5,0,,,,,1,13,49,35,,,,,,down,0.6669134890926216,1687.130154707249,None,001,15,2019_Oct_07_1656,ACPT_experiment_5_30_19,3.1.0,59.954483591865866,
,,,C,U,d,n,R,G,d,L,i,,,,,5,19,119,15,5,0,5,0,,,,,1,14,50,4,,,,,,up,1.3510563506770268,1689.081407630405,None,001,15,2019_Oct_07_1656,ACPT_experiment_5_30_19,3.1.0,59.954483591865866,
,,,C,U,d,n,R,U,g,R,u,,,,,5,19,119,15,5,0,5,0,,,,,1,15,51,11,,,,,,up,0.7005556975982472,1691.7168031132824,None,001,15,2019_Oct_07_1656,ACPT_experiment_5_30_19,3.1.0,59.954483591865866,
,,,C,U,d,n,R,D,d,L,c,,,,,5,19,119,15,5,0,5,0,,,,,1,16,52,0,,,,,,up,0.5304217946704739,1693.7216878427826,None,001,15,2019_Oct_07_1656,ACPT_experiment_5_30_19,3.1.0,59.954483591865866,
,,,C,U,d,n,R,U,y,L,u,,,,,5,19,119,15,5,0,5,0,,,,,1,17,53,30,,,,,,down,1.3177437753802224,1695.536431563527,None,001,15,2019_Oct_07_1656,ACPT_experiment_5_30_19,3.1.0,59.954483591865866,
,,,C,U,d,n,R,G,d,R,i,,,,,5,19,119,15,5,0,5,0,,,,,1,18,54,5,,,,,,up,0.6838633374518395,1698.1384936426366,None,001,15,2019_Oct_07_1656,ACPT_experiment_5_30_19,3.1.0,59.954483591865866,
,,,C,U,d,n,R,G,g,L,c ,,,,,5,19,119,15,5,0,5,0,,,,,1,19,55,6,,,,,,up,1.0839342146300623,1700.1236230191444,None,001,15,2019_Oct_07_1656,ACPT_experiment_5_30_19,3.1.0,59.954483591865866,
,,,C,U,d,n,L,U,g,R,u,,,,,5,19,119,15,5,0,5,0,,,,,1,20,56,23,,,,,,up,0.917582339629007,1702.475195553694,None,001,15,2019_Oct_07_1656,ACPT_experiment_5_30_19,3.1.0,59.954483591865866,
,,,C,U,d,n,L,U,g,L,u,,,,,5,19,119,15,5,0,5,0,,,,,1,21,57,22,,,,,,up,0.5004218520261929,1704.660245963125,None,001,15,2019_Oct_07_1656,ACPT_experiment_5_30_19,3.1.0,59.954483591865866,
,,,C,U,d,n,R,D,d,R,c ,,,,,5,19,119,15,5,0,5,0,,,,,1,22,58,1,,,,,,up,0.4003428547639487,1706.4449903449458,None,001,15,2019_Oct_07_1656,ACPT_experiment_5_30_19,3.1.0,59.954483591865866,
,,,C,U,d,n,R,D,g,R,i,,,,,5,19,119,15,5,0,5,0,,,,,1,23,59,3,,,,,,up,0.5501575266389409,1708.129914123303,None,001,15,2019_Oct_07_1656,ACPT_experiment_5_30_19,3.1.0,59.954483591865866,
,,,C,U,d,n,L,D,y,L,y,,,,,5,19,119,15,5,0,5,0,,,,,1,24,60,32,,,,,,down,0.6336627954897267,1709.9812519602146,None,001,15,2019_Oct_07_1656,ACPT_experiment_5_30_19,3.1.0,59.954483591865866,
,,,C,U,d,n,L,U,d,L,u,,,,,5,19,119,15,5,0,5,0,,,,,1,25,61,20,,,,,,up,0.7839504849871446,1711.915938399643,None,001,15,2019_Oct_07_1656,ACPT_experiment_5_30_19,3.1.0,59.954483591865866,
