facing_vig,person_vig,text_vig,facing_train,person_train,food_train,correct_key_train,facing_exp,person_exp,food_exp,showL_R,consistent,vig_random.thisRepN,vig_random.thisTrialN,vig_random.thisN,vig_random.thisIndex,trainTrials.thisRepN,trainTrials.thisTrialN,trainTrials.thisN,trainTrials.thisIndex,expBlock.thisRepN,expBlock.thisTrialN,expBlock.thisN,expBlock.thisIndex,breakLoop.thisRepN,breakLoop.thisTrialN,breakLoop.thisN,breakLoop.thisIndex,expTrials.thisRepN,expTrials.thisTrialN,expTrials.thisN,expTrials.thisIndex,train_resp.keys,train_resp.corr,train_resp.rt,train_resp.started,train_resp.stopped,exp_resp.keys,exp_resp.rt,exp_resp.started,exp_resp.stopped,session,participant,date,expName,psychopyVersion,frameRate,
C,D,"is allergic to gluten, meaning she can’t eat wheat products. She enjoys eating dairy products. She thinks eating insects, like crickets, is disgusting.",,,,,,,,,,0,0,0,1,,,,,,,,,,,,,,,,,,,,,,,,,,001,16,2019_Oct_09_1400,ACPT_experiment_5_30_19,3.1.0,59.962514955087215,
C,G,"cannot eat dairy products because she is lactose intolerant. She enjoys eating wheat products. She thinks eating insects, like crickets, is disgusting.",,,,,,,,,,0,1,1,0,,,,,,,,,,,,,,,,,,,,,,,,,,001,16,2019_Oct_09_1400,ACPT_experiment_5_30_19,3.1.0,59.962514955087215,
C,U,"did not report her food preferences, so her food preferences are unknown.",,,,,,,,,,0,2,2,2,,,,,,,,,,,,,,,,,,,,,,,,,,001,16,2019_Oct_09_1400,ACPT_experiment_5_30_19,3.1.0,59.962514955087215,
,,,C,G,g,v,,,,,,,,,,0,0,0,4,,,,,,,,,,,,,v,1,16.579293786530116,964.4519472804542,None,,,,,001,16,2019_Oct_09_1400,ACPT_experiment_5_30_19,3.1.0,59.962514955087215,
,,,C,U,g,n,,,,,,,,,,0,1,1,16,,,,,,,,,,,,,b,0,1.1175341118571396,984.3170435374244,None,,,,,001,16,2019_Oct_09_1400,ACPT_experiment_5_30_19,3.1.0,59.962514955087215,
,,,C,D,y,b,,,,,,,,,,0,2,2,2,,,,,,,,,,,,,b,1,1.7009008253012325,988.7374412552814,None,,,,,001,16,2019_Oct_09_1400,ACPT_experiment_5_30_19,3.1.0,59.962514955087215,
,,,C,G,y,b,,,,,,,,,,0,3,3,14,,,,,,,,,,,,,b,1,0.7672756788638253,993.7241756420677,None,,,,,001,16,2019_Oct_09_1400,ACPT_experiment_5_30_19,3.1.0,59.962514955087215,
,,,C,G,g,v,,,,,,,,,,0,4,4,19,,,,,,,,,,,,,v,1,3.0825575916333037,997.7972770281548,None,,,,,001,16,2019_Oct_09_1400,ACPT_experiment_5_30_19,3.1.0,59.962514955087215,
,,,C,D,y,b,,,,,,,,,,0,5,5,11,,,,,,,,,,,,,b,1,0.9840877238366375,1004.1654620144401,None,,,,,001,16,2019_Oct_09_1400,ACPT_experiment_5_30_19,3.1.0,59.962514955087215,
,,,C,U,d,n,,,,,,,,,,0,6,6,6,,,,,,,,,,,,,n,1,2.3513964256164854,1008.4524275314526,None,,,,,001,16,2019_Oct_09_1400,ACPT_experiment_5_30_19,3.1.0,59.962514955087215,
,,,C,G,y,b,,,,,,,,,,0,7,7,5,,,,,,,,,,,,,b,1,1.267632018463928,1014.0896768372619,None,,,,,001,16,2019_Oct_09_1400,ACPT_experiment_5_30_19,3.1.0,59.962514955087215,
,,,C,G,d,b,,,,,,,,,,0,8,8,12,,,,,,,,,,,,,b,1,2.7988134691236155,1018.6631496556894,None,,,,,001,16,2019_Oct_09_1400,ACPT_experiment_5_30_19,3.1.0,59.962514955087215,
,,,C,U,y,n,,,,,,,,,,0,9,9,17,,,,,,,,,,,,,n,1,1.2175971693263818,1024.747767708237,None,,,,,001,16,2019_Oct_09_1400,ACPT_experiment_5_30_19,3.1.0,59.962514955087215,
,,,C,U,y,n,,,,,,,,,,0,10,10,8,,,,,,,,,,,,,b,0,0.5470946323875978,1029.2711945088986,None,,,,,001,16,2019_Oct_09_1400,ACPT_experiment_5_30_19,3.1.0,59.962514955087215,
,,,C,U,g,n,,,,,,,,,,0,11,11,7,,,,,,,,,,,,,n,1,1.3010259139334721,1033.0874156429009,None,,,,,001,16,2019_Oct_09_1400,ACPT_experiment_5_30_19,3.1.0,59.962514955087215,
,,,C,G,g,v,,,,,,,,,,0,12,12,13,,,,,,,,,,,,,b,0,3.9526148323604957,1037.6913175388813,None,,,,,001,16,2019_Oct_09_1400,ACPT_experiment_5_30_19,3.1.0,59.962514955087215,
,,,C,D,g,b,,,,,,,,,,0,13,13,10,,,,,,,,,,,,,b,1,2.535294524263236,1044.9631124369917,None,,,,,001,16,2019_Oct_09_1400,ACPT_experiment_5_30_19,3.1.0,59.962514955087215,
,,,C,D,d,v,,,,,,,,,,0,14,14,0,,,,,,,,,,,,,v,1,1.901468251967799,1050.7842027908891,None,,,,,001,16,2019_Oct_09_1400,ACPT_experiment_5_30_19,3.1.0,59.962514955087215,
,,,C,G,d,b,,,,,,,,,,0,15,15,3,,,,,,,,,,,,,b,1,2.985614203596697,1055.971488304183,None,,,,,001,16,2019_Oct_09_1400,ACPT_experiment_5_30_19,3.1.0,59.962514955087215,
,,,C,U,d,n,,,,,,,,,,0,16,16,15,,,,,,,,,,,,,n,1,1.2843203633365192,1062.2429327488621,None,,,,,001,16,2019_Oct_09_1400,ACPT_experiment_5_30_19,3.1.0,59.962514955087215,
,,,C,D,g,b,,,,,,,,,,0,17,17,1,,,,,,,,,,,,,b,1,3.3356332657278926,1066.8300101634513,None,,,,,001,16,2019_Oct_09_1400,ACPT_experiment_5_30_19,3.1.0,59.962514955087215,
,,,C,D,d,v,,,,,,,,,,0,18,18,18,,,,,,,,,,,,,v,1,1.3510505000074318,1073.4347478953928,None,,,,,001,16,2019_Oct_09_1400,ACPT_experiment_5_30_19,3.1.0,59.962514955087215,
,,,C,D,d,v,,,,,,,,,,0,19,19,9,,,,,,,,,,,,,v,1,1.5680056241587863,1078.0547960050121,None,,,,,001,16,2019_Oct_09_1400,ACPT_experiment_5_30_19,3.1.0,59.962514955087215,
,,,C,D,g,b,,,,,,,,,,1,0,20,10,,,,,,,,,,,,,b,1,1.3510450666208271,1082.891939299413,None,,,,,001,16,2019_Oct_09_1400,ACPT_experiment_5_30_19,3.1.0,59.962514955087215,
,,,C,D,y,b,,,,,,,,,,1,1,21,2,,,,,,,,,,,,,n,0,1.0672324230699815,1087.5457402098677,None,,,,,001,16,2019_Oct_09_1400,ACPT_experiment_5_30_19,3.1.0,59.962514955087215,
,,,C,G,g,v,,,,,,,,,,1,2,22,4,,,,,,,,,,,,,v,1,8.940205883089902,1091.898766953298,None,,,,,001,16,2019_Oct_09_1400,ACPT_experiment_5_30_19,3.1.0,59.962514955087215,
,,,C,D,d,v,,,,,,,,,,1,3,23,0,,,,,,,,,,,,,v,1,2.4018357601955813,1104.1247520640077,None,,,,,001,16,2019_Oct_09_1400,ACPT_experiment_5_30_19,3.1.0,59.962514955087215,
,,,C,U,y,n,,,,,,,,,,1,4,24,8,,,,,,,,,,,,,n,1,1.0675315611840688,1109.8123791260155,None,,,,,001,16,2019_Oct_09_1400,ACPT_experiment_5_30_19,3.1.0,59.962514955087215,
,,,C,G,y,b,,,,,,,,,,1,5,25,14,,,,,,,,,,,,,b,1,2.8188155760701648,1114.1990816973052,None,,,,,001,16,2019_Oct_09_1400,ACPT_experiment_5_30_19,3.1.0,59.962514955087215,
,,,C,U,d,n,,,,,,,,,,1,6,26,15,,,,,,,,,,,,,n,1,1.4177652420830782,1120.30370064938,None,,,,,001,16,2019_Oct_09_1400,ACPT_experiment_5_30_19,3.1.0,59.962514955087215,
,,,C,G,g,v,,,,,,,,,,1,7,27,13,,,,,,,,,,,,,v,1,4.536422253823048,1125.0243279881888,None,,,,,001,16,2019_Oct_09_1400,ACPT_experiment_5_30_19,3.1.0,59.962514955087215,
,,,C,D,g,b,,,,,,,,,,1,8,28,1,,,,,,,,,,,,,b,1,2.7354577673431777,1132.8465614662414,None,,,,,001,16,2019_Oct_09_1400,ACPT_experiment_5_30_19,3.1.0,59.962514955087215,
,,,C,G,d,b,,,,,,,,,,1,9,29,3,,,,,,,,,,,,,b,1,5.954561192157371,1138.867779142497,None,,,,,001,16,2019_Oct_09_1400,ACPT_experiment_5_30_19,3.1.0,59.962514955087215,
,,,C,U,g,n,,,,,,,,,,1,10,30,16,,,,,,,,,,,,,n,1,1.1342272864067127,1148.1081358624338,None,,,,,001,16,2019_Oct_09_1400,ACPT_experiment_5_30_19,3.1.0,59.962514955087215,
,,,C,G,d,b,,,,,,,,,,1,11,31,12,,,,,,,,,,,,,b,1,3.335622097100213,1152.5451419336396,None,,,,,001,16,2019_Oct_09_1400,ACPT_experiment_5_30_19,3.1.0,59.962514955087215,
,,,C,U,d,n,,,,,,,,,,1,12,32,6,,,,,,,,,,,,,n,1,1.0841806649318642,1159.1665671048895,None,,,,,001,16,2019_Oct_09_1400,ACPT_experiment_5_30_19,3.1.0,59.962514955087215,
,,,C,U,g,n,,,,,,,,,,1,13,33,7,,,,,,,,,,,,,n,1,0.4500899678253063,1163.536810439105,None,,,,,001,16,2019_Oct_09_1400,ACPT_experiment_5_30_19,3.1.0,59.962514955087215,
,,,C,U,y,n,,,,,,,,,,1,14,34,17,,,,,,,,,,,,,n,1,0.40033071212678806,1167.2560148343528,None,,,,,001,16,2019_Oct_09_1400,ACPT_experiment_5_30_19,3.1.0,59.962514955087215,
,,,C,D,y,b,,,,,,,,,,1,15,35,11,,,,,,,,,,,,,n,0,1.0672444972622088,1170.9590926365236,None,,,,,001,16,2019_Oct_09_1400,ACPT_experiment_5_30_19,3.1.0,59.962514955087215,
,,,C,G,g,v,,,,,,,,,,1,16,36,19,,,,,,,,,,,,,v,1,3.569419813930608,1175.3121456413223,None,,,,,001,16,2019_Oct_09_1400,ACPT_experiment_5_30_19,3.1.0,59.962514955087215,
,,,C,G,y,b,,,,,,,,,,1,17,37,5,,,,,,,,,,,,,b,1,1.234287929037464,1182.1506774678364,None,,,,,001,16,2019_Oct_09_1400,ACPT_experiment_5_30_19,3.1.0,59.962514955087215,
,,,C,D,d,v,,,,,,,,,,1,18,38,9,,,,,,,,,,,,,v,1,1.9014347460843055,1186.6707908082794,None,,,,,001,16,2019_Oct_09_1400,ACPT_experiment_5_30_19,3.1.0,59.962514955087215,
,,,C,D,d,v,,,,,,,,,,1,19,39,18,,,,,,,,,,,,,v,1,1.3010358751419062,1191.8580612288329,None,,,,,001,16,2019_Oct_09_1400,ACPT_experiment_5_30_19,3.1.0,59.962514955087215,
,,,C,D,d,v,,,,,,,,,,2,0,40,18,,,,,,,,,,,,,v,1,1.0007682204843604,1196.444871501918,None,,,,,001,16,2019_Oct_09_1400,ACPT_experiment_5_30_19,3.1.0,59.962514955087215,
,,,C,G,y,b,,,,,,,,,,2,1,41,14,,,,,,,,,,,,,b,1,1.451119896427599,1200.7314563800182,None,,,,,001,16,2019_Oct_09_1400,ACPT_experiment_5_30_19,3.1.0,59.962514955087215,
,,,C,U,y,n,,,,,,,,,,2,2,42,17,,,,,,,,,,,,,n,1,0.40031773237024026,1205.468386595111,None,,,,,001,16,2019_Oct_09_1400,ACPT_experiment_5_30_19,3.1.0,59.962514955087215,
,,,C,G,g,v,,,,,,,,,,2,3,43,13,,,,,,,,,,,,,v,1,2.551708784971197,1209.1714474934129,None,,,,,001,16,2019_Oct_09_1400,ACPT_experiment_5_30_19,3.1.0,59.962514955087215,
,,,C,D,d,v,,,,,,,,,,2,4,44,9,,,,,,,,,,,,,v,1,1.0007851243535697,1215.0089678044683,None,,,,,001,16,2019_Oct_09_1400,ACPT_experiment_5_30_19,3.1.0,59.962514955087215,
,,,C,U,g,n,,,,,,,,,,2,5,45,16,,,,,,,,,,,,,n,1,0.8337398814496737,1219.3124800964488,None,,,,,001,16,2019_Oct_09_1400,ACPT_experiment_5_30_19,3.1.0,59.962514955087215,
,,,C,G,g,v,,,,,,,,,,2,6,46,19,,,,,,,,,,,,,v,1,3.2524825293985486,1223.4320375410784,None,,,,,001,16,2019_Oct_09_1400,ACPT_experiment_5_30_19,3.1.0,59.962514955087215,
,,,C,D,g,b,,,,,,,,,,2,7,47,10,,,,,,,,,,,,,b,1,1.351041142508393,1229.9703349169645,None,,,,,001,16,2019_Oct_09_1400,ACPT_experiment_5_30_19,3.1.0,59.962514955087215,
,,,C,U,y,n,,,,,,,,,,2,8,48,8,,,,,,,,,,,,,n,1,1.1506134746175576,1234.6241379404023,None,,,,,001,16,2019_Oct_09_1400,ACPT_experiment_5_30_19,3.1.0,59.962514955087215,
,,,C,U,d,n,,,,,,,,,,2,9,49,6,,,,,,,,,,,,,n,1,0.8006418036911782,1239.0438649368775,None,,,,,001,16,2019_Oct_09_1400,ACPT_experiment_5_30_19,3.1.0,59.962514955087215,
,,,C,G,y,b,,,,,,,,,,2,10,50,5,,,,,,,,,,,,,n,0,1.050352098539861,1243.1640662378113,None,,,,,001,16,2019_Oct_09_1400,ACPT_experiment_5_30_19,3.1.0,59.962514955087215,
,,,C,D,d,v,,,,,,,,,,2,11,51,0,,,,,,,,,,,,,v,1,2.3851459060488196,1247.5003243429906,None,,,,,001,16,2019_Oct_09_1400,ACPT_experiment_5_30_19,3.1.0,59.962514955087215,
,,,C,U,d,n,,,,,,,,,,2,12,52,15,,,,,,,,,,,,,n,1,1.0341340434570157,1253.1712820769785,None,,,,,001,16,2019_Oct_09_1400,ACPT_experiment_5_30_19,3.1.0,59.962514955087215,
,,,C,D,y,b,,,,,,,,,,2,13,53,2,,,,,,,,,,,,,b,1,1.6345881538288722,1257.4912306650676,None,,,,,001,16,2019_Oct_09_1400,ACPT_experiment_5_30_19,3.1.0,59.962514955087215,
,,,C,G,d,b,,,,,,,,,,2,14,54,3,,,,,,,,,,,,,b,1,3.135687358109408,1262.411680151024,None,,,,,001,16,2019_Oct_09_1400,ACPT_experiment_5_30_19,3.1.0,59.962514955087215,
,,,C,D,g,b,,,,,,,,,,2,15,55,1,,,,,,,,,,,,,b,1,4.436734703733919,1268.8331877890073,None,,,,,001,16,2019_Oct_09_1400,ACPT_experiment_5_30_19,3.1.0,59.962514955087215,
,,,C,G,g,v,,,,,,,,,,2,16,56,4,,,,,,,,,,,,,v,1,1.2843366634963331,1276.5556902498784,None,,,,,001,16,2019_Oct_09_1400,ACPT_experiment_5_30_19,3.1.0,59.962514955087215,
,,,C,G,d,b,,,,,,,,,,2,17,57,12,,,,,,,,,,,,,b,1,1.7677547224429873,1281.1261131273336,None,,,,,001,16,2019_Oct_09_1400,ACPT_experiment_5_30_19,3.1.0,59.962514955087215,
,,,C,D,y,b,,,,,,,,,,2,18,58,11,,,,,,,,,,,,,b,1,1.2342867216184459,1286.1796826962636,None,,,,,001,16,2019_Oct_09_1400,ACPT_experiment_5_30_19,3.1.0,59.962514955087215,
,,,C,U,g,n,,,,,,,,,,2,19,59,7,,,,,,,,,,,,,n,1,0.5668555573431604,1290.71671047083,None,,,,,001,16,2019_Oct_09_1400,ACPT_experiment_5_30_19,3.1.0,59.962514955087215,
,,,C,D,d,v,,,,,,,,,,3,0,60,18,,,,,,,,,,,,,v,1,2.1850213003845056,1294.569388119176,None,,,,,001,16,2019_Oct_09_1400,ACPT_experiment_5_30_19,3.1.0,59.962514955087215,
,,,C,D,d,v,,,,,,,,,,3,1,61,9,,,,,,,,,,,,,v,1,0.9507146563487368,1300.0402206437898,None,,,,,001,16,2019_Oct_09_1400,ACPT_experiment_5_30_19,3.1.0,59.962514955087215,
,,,C,G,d,b,,,,,,,,,,3,2,62,12,,,,,,,,,,,,,b,1,1.4173535121258283,1304.2938112821857,None,,,,,001,16,2019_Oct_09_1400,ACPT_experiment_5_30_19,3.1.0,59.962514955087215,
,,,C,U,d,n,,,,,,,,,,3,3,63,15,,,,,,,,,,,,,n,1,1.2176004897291932,1308.9970083170056,None,,,,,001,16,2019_Oct_09_1400,ACPT_experiment_5_30_19,3.1.0,59.962514955087215,
,,,C,D,g,b,,,,,,,,,,3,4,64,10,,,,,,,,,,,,,b,1,2.301537255976882,1313.5173761210508,None,,,,,001,16,2019_Oct_09_1400,ACPT_experiment_5_30_19,3.1.0,59.962514955087215,
,,,C,U,d,n,,,,,,,,,,3,5,65,6,,,,,,,,,,,,,n,1,1.1676251059889182,1319.104656080216,None,,,,,001,16,2019_Oct_09_1400,ACPT_experiment_5_30_19,3.1.0,59.962514955087215,
,,,C,U,g,n,,,,,,,,,,3,6,66,16,,,,,,,,,,,,,n,1,0.9171061421113791,1323.5583320831515,None,,,,,001,16,2019_Oct_09_1400,ACPT_experiment_5_30_19,3.1.0,59.962514955087215,
,,,C,D,y,b,,,,,,,,,,3,7,67,11,,,,,,,,,,,,,n,0,1.6512837432169363,1327.7612533736046,None,,,,,001,16,2019_Oct_09_1400,ACPT_experiment_5_30_19,3.1.0,59.962514955087215,
,,,C,G,y,b,,,,,,,,,,3,8,68,5,,,,,,,,,,,,,b,1,3.052332266075382,1332.698333550166,None,,,,,001,16,2019_Oct_09_1400,ACPT_experiment_5_30_19,3.1.0,59.962514955087215,
,,,C,G,g,v,,,,,,,,,,3,9,69,4,,,,,,,,,,,,,v,1,2.5686687991701547,1339.0197853751947,None,,,,,001,16,2019_Oct_09_1400,ACPT_experiment_5_30_19,3.1.0,59.962514955087215,
,,,C,G,d,b,,,,,,,,,,3,10,70,3,,,,,,,,,,,,,b,1,3.3358943701362023,1344.85756437582,None,,,,,001,16,2019_Oct_09_1400,ACPT_experiment_5_30_19,3.1.0,59.962514955087215,
,,,C,D,d,v,,,,,,,,,,3,11,71,0,,,,,,,,,,,,,v,1,1.7346684170220215,1351.479259103413,None,,,,,001,16,2019_Oct_09_1400,ACPT_experiment_5_30_19,3.1.0,59.962514955087215,
,,,C,D,g,b,,,,,,,,,,3,12,72,1,,,,,,,,,,,,,b,1,1.951527551344725,1356.4830549276135,None,,,,,001,16,2019_Oct_09_1400,ACPT_experiment_5_30_19,3.1.0,59.962514955087215,
,,,C,D,y,b,,,,,,,,,,3,13,73,2,,,,,,,,,,,,,b,1,1.200924520903527,1361.7036890581558,None,,,,,001,16,2019_Oct_09_1400,ACPT_experiment_5_30_19,3.1.0,59.962514955087215,
,,,C,G,y,b,,,,,,,,,,3,14,74,14,,,,,,,,,,,,,b,1,1.2505524697610326,1366.2074992204598,None,,,,,001,16,2019_Oct_09_1400,ACPT_experiment_5_30_19,3.1.0,59.962514955087215,
,,,C,U,y,n,,,,,,,,,,3,15,75,8,,,,,,,,,,,,,b,0,0.6671845488976942,1370.7438801201743,None,,,,,001,16,2019_Oct_09_1400,ACPT_experiment_5_30_19,3.1.0,59.962514955087215,
,,,C,G,g,v,,,,,,,,,,3,16,76,13,,,,,,,,,,,,,v,1,2.465237042052422,1374.733584758264,None,,,,,001,16,2019_Oct_09_1400,ACPT_experiment_5_30_19,3.1.0,59.962514955087215,
,,,C,U,g,n,,,,,,,,,,3,17,77,7,,,,,,,,,,,,,n,1,1.4344179680883826,1380.4846263837403,None,,,,,001,16,2019_Oct_09_1400,ACPT_experiment_5_30_19,3.1.0,59.962514955087215,
,,,C,U,y,n,,,,,,,,,,3,18,78,17,,,,,,,,,,,,,n,1,0.7172544131929044,1385.1881645144922,None,,,,,001,16,2019_Oct_09_1400,ACPT_experiment_5_30_19,3.1.0,59.962514955087215,
,,,C,G,g,v,,,,,,,,,,3,19,79,19,,,,,,,,,,,,,v,1,1.5175877212709565,1389.208147302731,None,,,,,001,16,2019_Oct_09_1400,ACPT_experiment_5_30_19,3.1.0,59.962514955087215,
,,,C,D,g,b,,,,,,,,,,4,0,80,10,,,,,,,,,,,,,b,1,2.0682840852184654,1394.0115287406525,None,,,,,001,16,2019_Oct_09_1400,ACPT_experiment_5_30_19,3.1.0,59.962514955087215,
,,,C,D,d,v,,,,,,,,,,4,1,81,18,,,,,,,,,,,,,v,1,2.05159785332944,1399.348912462408,None,,,,,001,16,2019_Oct_09_1400,ACPT_experiment_5_30_19,3.1.0,59.962514955087215,
,,,C,G,d,b,,,,,,,,,,4,2,82,3,,,,,,,,,,,,,b,1,4.136477613994657,1404.68633240674,None,,,,,001,16,2019_Oct_09_1400,ACPT_experiment_5_30_19,3.1.0,59.962514955087215,
,,,C,U,y,n,,,,,,,,,,4,3,83,8,,,,,,,,,,,,,n,1,0.6672074898629035,1412.1086106800458,None,,,,,001,16,2019_Oct_09_1400,ACPT_experiment_5_30_19,3.1.0,59.962514955087215,
,,,C,G,g,v,,,,,,,,,,4,4,84,4,,,,,,,,,,,,,v,1,2.9186600906591593,1416.078543224552,None,,,,,001,16,2019_Oct_09_1400,ACPT_experiment_5_30_19,3.1.0,59.962514955087215,
,,,C,D,d,v,,,,,,,,,,4,5,85,9,,,,,,,,,,,,,v,1,1.1175304895996305,1422.2830163505691,None,,,,,001,16,2019_Oct_09_1400,ACPT_experiment_5_30_19,3.1.0,59.962514955087215,
,,,C,G,d,b,,,,,,,,,,4,6,86,12,,,,,,,,,,,,,b,1,4.853414777785247,1426.703315663759,None,,,,,001,16,2019_Oct_09_1400,ACPT_experiment_5_30_19,3.1.0,59.962514955087215,
,,,C,U,d,n,,,,,,,,,,4,7,87,15,,,,,,,,,,,,,n,1,0.9174182599822416,1434.8425498158535,None,,,,,001,16,2019_Oct_09_1400,ACPT_experiment_5_30_19,3.1.0,59.962514955087215,
,,,C,D,y,b,,,,,,,,,,4,8,88,11,,,,,,,,,,,,,b,1,1.417702154428298,1439.062464324535,None,,,,,001,16,2019_Oct_09_1400,ACPT_experiment_5_30_19,3.1.0,59.962514955087215,
,,,C,G,g,v,,,,,,,,,,4,9,89,13,,,,,,,,,,,,,v,1,3.7028610704192033,1443.7659734772255,None,,,,,001,16,2019_Oct_09_1400,ACPT_experiment_5_30_19,3.1.0,59.962514955087215,
,,,C,U,g,n,,,,,,,,,,4,10,90,7,,,,,,,,,,,,,n,1,1.1342137029405421,1450.7546158882483,None,,,,,001,16,2019_Oct_09_1400,ACPT_experiment_5_30_19,3.1.0,59.962514955087215,
,,,C,U,d,n,,,,,,,,,,4,11,91,6,,,,,,,,,,,,,n,1,0.4837313842365347,1455.1579742040917,None,,,,,001,16,2019_Oct_09_1400,ACPT_experiment_5_30_19,3.1.0,59.962514955087215,
,,,C,D,g,b,,,,,,,,,,4,12,92,1,,,,,,,,,,,,,b,1,1.451130763200581,1458.9274977957052,None,,,,,001,16,2019_Oct_09_1400,ACPT_experiment_5_30_19,3.1.0,59.962514955087215,
,,,C,D,y,b,,,,,,,,,,4,13,93,2,,,,,,,,,,,,,b,1,1.184263946673127,1463.6644213699924,None,,,,,001,16,2019_Oct_09_1400,ACPT_experiment_5_30_19,3.1.0,59.962514955087215,
,,,C,G,y,b,,,,,,,,,,4,14,94,14,,,,,,,,,,,,,n,0,1.28431010027316,1468.1344971446042,None,,,,,001,16,2019_Oct_09_1400,ACPT_experiment_5_30_19,3.1.0,59.962514955087215,
,,,C,D,d,v,,,,,,,,,,4,15,95,0,,,,,,,,,,,,,v,1,1.6345987187471565,1472.70461424314,None,,,,,001,16,2019_Oct_09_1400,ACPT_experiment_5_30_19,3.1.0,59.962514955087215,
,,,C,U,g,n,,,,,,,,,,4,16,96,16,,,,,,,,,,,,,n,1,1.6346056614074769,1477.6250356565993,None,,,,,001,16,2019_Oct_09_1400,ACPT_experiment_5_30_19,3.1.0,59.962514955087215,
,,,C,G,g,v,,,,,,,,,,4,17,97,19,,,,,,,,,,,,,v,1,2.9189021782144664,1482.545426280868,None,,,,,001,16,2019_Oct_09_1400,ACPT_experiment_5_30_19,3.1.0,59.962514955087215,
,,,C,U,y,n,,,,,,,,,,4,18,98,17,,,,,,,,,,,,,n,1,0.6171309847620705,1488.7501487389563,None,,,,,001,16,2019_Oct_09_1400,ACPT_experiment_5_30_19,3.1.0,59.962514955087215,
,,,C,G,y,b,,,,,,,,,,4,19,99,5,,,,,,,,,,,,,b,1,1.2506846821665931,1492.6700491510182,None,,,,,001,16,2019_Oct_09_1400,ACPT_experiment_5_30_19,3.1.0,59.962514955087215,
,,,C,D,y,b,,,,,,,,,,5,0,100,2,,,,,,,,,,,,,b,1,1.0174526412447449,1497.2065520000747,None,,,,,001,16,2019_Oct_09_1400,ACPT_experiment_5_30_19,3.1.0,59.962514955087215,
,,,C,U,g,n,,,,,,,,,,5,1,101,7,,,,,,,,,,,,,n,1,0.366707407003787,1501.5267662203946,None,,,,,001,16,2019_Oct_09_1400,ACPT_experiment_5_30_19,3.1.0,59.962514955087215,
,,,C,G,g,v,,,,,,,,,,5,2,102,19,,,,,,,,,,,,,v,1,1.5012341333792847,1505.179248327196,None,,,,,001,16,2019_Oct_09_1400,ACPT_experiment_5_30_19,3.1.0,59.962514955087215,
,,,C,U,d,n,,,,,,,,,,5,3,103,6,,,,,,,,,,,,,n,1,0.7839368568040754,1509.9662375398107,None,,,,,001,16,2019_Oct_09_1400,ACPT_experiment_5_30_19,3.1.0,59.962514955087215,
,,,C,G,d,b,,,,,,,,,,5,4,104,12,,,,,,,,,,,,,b,1,1.9345445961801033,1514.052948351737,None,,,,,001,16,2019_Oct_09_1400,ACPT_experiment_5_30_19,3.1.0,59.962514955087215,
,,,C,D,d,v,,,,,,,,,,5,5,105,0,,,,,,,,,,,,,v,1,1.150883634669981,1519.2733041721467,None,,,,,001,16,2019_Oct_09_1400,ACPT_experiment_5_30_19,3.1.0,59.962514955087215,
,,,C,D,d,v,,,,,,,,,,5,6,106,18,,,,,,,,,,,,,v,1,2.2016906284043216,1523.6933131010119,None,,,,,001,16,2019_Oct_09_1400,ACPT_experiment_5_30_19,3.1.0,59.962514955087215,
,,,C,U,g,n,,,,,,,,,,5,7,107,16,,,,,,,,,,,,,n,1,0.7005461459025355,1529.180848761384,None,,,,,001,16,2019_Oct_09_1400,ACPT_experiment_5_30_19,3.1.0,59.962514955087215,
,,,C,G,d,b,,,,,,,,,,5,8,108,3,,,,,,,,,,,,,b,1,1.8678171762026068,1533.1841368657992,None,,,,,001,16,2019_Oct_09_1400,ACPT_experiment_5_30_19,3.1.0,59.962514955087215,
,,,C,D,d,v,,,,,,,,,,5,9,109,9,,,,,,,,,,,,,v,1,0.9674241310581237,1538.3377860942132,None,,,,,001,16,2019_Oct_09_1400,ACPT_experiment_5_30_19,3.1.0,59.962514955087215,
,,,C,U,y,n,,,,,,,,,,5,10,110,8,,,,,,,,,,,,,n,1,0.38337914986232136,1542.6079328650762,None,,,,,001,16,2019_Oct_09_1400,ACPT_experiment_5_30_19,3.1.0,59.962514955087215,
,,,C,D,g,b,,,,,,,,,,5,11,111,1,,,,,,,,,,,,,b,1,1.1508890680565855,1546.2771295781185,None,,,,,001,16,2019_Oct_09_1400,ACPT_experiment_5_30_19,3.1.0,59.962514955087215,
,,,C,G,g,v,,,,,,,,,,5,12,112,4,,,,,,,,,,,,,v,1,3.1187798666464914,1550.7307799233954,None,,,,,001,16,2019_Oct_09_1400,ACPT_experiment_5_30_19,3.1.0,59.962514955087215,
,,,C,U,y,n,,,,,,,,,,5,13,113,17,,,,,,,,,,,,,n,1,0.316930040016814,1557.135367090159,None,,,,,001,16,2019_Oct_09_1400,ACPT_experiment_5_30_19,3.1.0,59.962514955087215,
,,,C,G,y,b,,,,,,,,,,5,14,114,5,,,,,,,,,,,,,b,1,1.0839192586688569,1560.755034560866,None,,,,,001,16,2019_Oct_09_1400,ACPT_experiment_5_30_19,3.1.0,59.962514955087215,
,,,C,D,g,b,,,,,,,,,,5,15,115,10,,,,,,,,,,,,,b,1,1.1675602072052698,1565.1247713827152,None,,,,,001,16,2019_Oct_09_1400,ACPT_experiment_5_30_19,3.1.0,59.962514955087215,
,,,C,G,y,b,,,,,,,,,,5,16,116,14,,,,,,,,,,,,,b,1,0.9836669382352738,1569.5952042515646,None,,,,,001,16,2019_Oct_09_1400,ACPT_experiment_5_30_19,3.1.0,59.962514955087215,
,,,C,D,y,b,,,,,,,,,,5,17,117,11,,,,,,,,,,,,,b,1,1.384400022820273,1573.8647270885408,None,,,,,001,16,2019_Oct_09_1400,ACPT_experiment_5_30_19,3.1.0,59.962514955087215,
,,,C,U,d,n,,,,,,,,,,5,18,118,15,,,,,,,,,,,,,n,1,0.983842315878519,1578.5518663531802,None,,,,,001,16,2019_Oct_09_1400,ACPT_experiment_5_30_19,3.1.0,59.962514955087215,
,,,C,G,g,v,,,,,,,,,,5,19,119,13,0,0,0,0,0,0,0,0,,,,,v,1,1.7012693900210252,1582.821570303041,None,,,,,001,16,2019_Oct_09_1400,ACPT_experiment_5_30_19,3.1.0,59.962514955087215,
,,,C,G,g,v,L,G,y,L,y,,,,,5,19,119,13,0,0,0,0,,,,,0,0,0,34,,,,,,down,1.3147114071834949,1624.8230635787722,None,001,16,2019_Oct_09_1400,ACPT_experiment_5_30_19,3.1.0,59.962514955087215,
,,,C,G,g,v,R,D,g,L,i,,,,,5,19,119,13,0,0,0,0,,,,,0,1,1,2,,,,,,down,1.9181188649899923,1627.438736001106,None,001,16,2019_Oct_09_1400,ACPT_experiment_5_30_19,3.1.0,59.962514955087215,
,,,C,G,g,v,R,D,y,R,y,,,,,5,19,119,13,0,0,0,0,,,,,0,2,2,27,,,,,,down,1.1341949879424646,1630.6411643626593,None,001,16,2019_Oct_09_1400,ACPT_experiment_5_30_19,3.1.0,59.962514955087215,
,,,C,G,g,v,L,U,y,L,u,,,,,5,19,119,13,0,0,0,0,,,,,0,3,3,24,,,,,,down,2.0515712901064944,1633.0596760916806,None,001,16,2019_Oct_09_1400,ACPT_experiment_5_30_19,3.1.0,59.962514955087215,
,,,C,G,g,v,R,U,y,L,u,,,,,5,19,119,13,0,0,0,0,,,,,0,4,4,30,,,,,,down,0.850629563478833,1636.395541483755,None,001,16,2019_Oct_09_1400,ACPT_experiment_5_30_19,3.1.0,59.962514955087215,
,,,C,G,g,v,R,G,y,R,y,,,,,5,19,119,13,0,0,0,0,,,,,0,5,5,29,,,,,,down,1.0341645307926228,1638.5304642436377,None,001,16,2019_Oct_09_1400,ACPT_experiment_5_30_19,3.1.0,59.962514955087215,
,,,C,G,g,v,R,U,d,L,u,,,,,5,19,119,13,0,0,0,0,,,,,0,6,6,8,,,,,,down,1.1508782012833763,1640.8489117077706,None,001,16,2019_Oct_09_1400,ACPT_experiment_5_30_19,3.1.0,59.962514955087215,
,,,C,G,g,v,R,D,y,L,y,,,,,5,19,119,13,0,0,0,0,,,,,0,7,7,26,,,,,,down,4.0864596687265475,1643.284093670376,None,001,16,2019_Oct_09_1400,ACPT_experiment_5_30_19,3.1.0,59.962514955087215,
,,,C,G,g,v,R,G,y,L,y,,,,,5,19,119,13,0,0,0,0,,,,,0,8,8,28,,,,,,down,0.8340139656147585,1648.6548175574453,None,001,16,2019_Oct_09_1400,ACPT_experiment_5_30_19,3.1.0,59.962514955087215,
,,,C,G,g,v,L,D,d,L,c ,,,,,5,19,119,13,0,0,0,0,,,,,0,9,9,12,,,,,,up,1.6845750080519792,1650.773142830752,None,001,16,2019_Oct_09_1400,ACPT_experiment_5_30_19,3.1.0,59.962514955087215,
,,,C,G,g,v,L,G,y,R,y,,,,,5,19,119,13,0,0,0,0,,,,,0,10,10,35,,,,,,down,1.2676308110444552,1653.7420303539157,None,001,16,2019_Oct_09_1400,ACPT_experiment_5_30_19,3.1.0,59.962514955087215,
,,,C,G,g,v,R,G,g,R,c ,,,,,5,19,119,13,0,0,0,0,,,,,0,11,11,7,,,,,,up,1.7513356320582716,1656.2939640207178,None,001,16,2019_Oct_09_1400,ACPT_experiment_5_30_19,3.1.0,59.962514955087215,
,,,C,G,g,v,R,G,d,L,i,,,,,5,19,119,13,0,0,0,0,,,,,0,12,12,4,,,,,,down,1.6179233536313404,1659.3129002783403,None,001,16,2019_Oct_09_1400,ACPT_experiment_5_30_19,3.1.0,59.962514955087215,
,,,C,G,g,v,L,D,y,L,y,,,,,5,19,119,13,0,0,0,0,,,,,0,13,13,32,,,,,,down,1.0841580258211252,1662.2151255821645,None,001,16,2019_Oct_09_1400,ACPT_experiment_5_30_19,3.1.0,59.962514955087215,
,,,C,G,g,v,R,U,g,L,u,,,,,5,19,119,13,0,0,0,0,,,,,0,14,14,10,,,,,,down,1.651248124349877,1664.5835961230973,None,001,16,2019_Oct_09_1400,ACPT_experiment_5_30_19,3.1.0,59.962514955087215,
,,,C,G,g,v,R,D,d,R,c ,,,,,5,19,119,13,0,0,0,0,,,,,0,15,15,1,,,,,,up,1.1675399829332491,1667.5191694404607,None,001,16,2019_Oct_09_1400,ACPT_experiment_5_30_19,3.1.0,59.962514955087215,
,,,C,G,g,v,R,U,y,R,u,,,,,5,19,119,13,0,0,0,0,,,,,0,16,16,31,,,,,,down,0.8840213459643564,1669.9876731552367,None,001,16,2019_Oct_09_1400,ACPT_experiment_5_30_19,3.1.0,59.962514955087215,
,,,C,G,g,v,L,U,d,R,u,,,,,5,19,119,13,0,0,0,0,,,,,0,17,17,21,,,,,,down,0.9673918325938757,1672.1893722355758,None,001,16,2019_Oct_09_1400,ACPT_experiment_5_30_19,3.1.0,59.962514955087215,
,,,C,G,g,v,L,G,g,L,c ,,,,,5,19,119,13,0,0,0,0,,,,,0,18,18,18,,,,,,up,2.1683549909130306,1674.4410512274771,None,001,16,2019_Oct_09_1400,ACPT_experiment_5_30_19,3.1.0,59.962514955087215,
,,,C,G,g,v,L,U,g,R,u,,,,,5,19,119,13,0,0,0,0,,,,,0,19,19,23,,,,,,down,1.5678543949002233,1677.893699414794,None,001,16,2019_Oct_09_1400,ACPT_experiment_5_30_19,3.1.0,59.962514955087215,
,,,C,G,g,v,R,G,d,R,i,,,,,5,19,119,13,0,0,0,0,,,,,0,20,20,5,,,,,,down,2.5352501516067605,1680.7458681359349,None,001,16,2019_Oct_09_1400,ACPT_experiment_5_30_19,3.1.0,59.962514955087215,
,,,C,G,g,v,R,U,d,R,u,,,,,5,19,119,13,0,0,0,0,,,,,0,21,21,9,,,,,,down,2.3351041142504982,1684.5654238599923,None,001,16,2019_Oct_09_1400,ACPT_experiment_5_30_19,3.1.0,59.962514955087215,
,,,C,G,g,v,R,D,g,R,i,,,,,5,19,119,13,0,0,0,0,,,,,0,22,22,3,,,,,,down,1.2342674029105183,1688.1848389800807,None,001,16,2019_Oct_09_1400,ACPT_experiment_5_30_19,3.1.0,59.962514955087215,
,,,C,G,g,v,L,G,d,R,i,,,,,5,19,119,13,0,0,0,0,,,,,0,23,23,17,,,,,,down,1.3176707917141357,1690.703411049878,None,001,16,2019_Oct_09_1400,ACPT_experiment_5_30_19,3.1.0,59.962514955087215,
,,,C,G,g,v,L,G,d,L,i,,,,,5,19,119,13,0,0,0,0,,,,,0,24,24,16,,,,,,down,0.7672503230601251,1693.288705709976,None,001,16,2019_Oct_09_1400,ACPT_experiment_5_30_19,3.1.0,59.962514955087215,
,,,C,G,g,v,L,U,d,L,u,,,,,5,19,119,13,0,0,0,0,,,,,0,25,25,20,,,,,,down,0.7505758635084021,1695.3402694537122,None,001,16,2019_Oct_09_1400,ACPT_experiment_5_30_19,3.1.0,59.962514955087215,
,,,C,G,g,v,L,U,g,L,u,,,,,5,19,119,13,0,0,0,0,,,,,0,26,26,22,,,,,,down,0.5837856879165884,1697.3751385136247,None,001,16,2019_Oct_09_1400,ACPT_experiment_5_30_19,3.1.0,59.962514955087215,
,,,C,G,g,v,L,G,g,R,c ,,,,,5,19,119,13,0,0,0,0,,,,,0,27,27,19,,,,,,down,1.2009172763882816,1699.2432246424605,None,001,16,2019_Oct_09_1400,ACPT_experiment_5_30_19,3.1.0,59.962514955087215,
,,,C,G,g,v,R,G,g,L,c ,,,,,5,19,119,13,0,0,0,0,,,,,0,28,28,6,,,,,,up,1.2509475977035436,1701.728449906138,None,001,16,2019_Oct_09_1400,ACPT_experiment_5_30_19,3.1.0,59.962514955087215,
,,,C,G,g,v,L,U,y,R,u,,,,,5,19,119,13,0,0,0,0,,,,,0,29,29,25,,,,,,down,0.984084101578901,1704.2637018688733,None,001,16,2019_Oct_09_1400,ACPT_experiment_5_30_19,3.1.0,59.962514955087215,
,,,C,G,g,v,L,D,g,L,i,,,,,5,19,119,13,0,0,0,0,,,,,0,30,30,14,,,,,,down,1.2175838877151364,1706.532095467016,None,001,16,2019_Oct_09_1400,ACPT_experiment_5_30_19,3.1.0,59.962514955087215,
,,,C,G,g,v,L,D,g,R,i,,,,,5,19,119,13,0,0,0,0,,,,,0,31,31,15,,,,,,down,0.7839745886549281,1709.0172902433583,None,001,16,2019_Oct_09_1400,ACPT_experiment_5_30_19,3.1.0,59.962514955087215,
,,,C,G,g,v,L,D,d,R,c ,,,,,5,19,119,13,0,0,0,0,,,,,0,32,32,13,,,,,,up,1.0507257947911057,1711.0856229272008,None,001,16,2019_Oct_09_1400,ACPT_experiment_5_30_19,3.1.0,59.962514955087215,
,,,C,G,g,v,L,D,y,R,y,,,,,5,19,119,13,0,0,0,0,,,,,0,33,33,33,,,,,,down,1.0674941311876864,1713.4039556865068,None,001,16,2019_Oct_09_1400,ACPT_experiment_5_30_19,3.1.0,59.962514955087215,
,,,C,G,g,v,R,D,d,L,c,,,,,5,19,119,13,0,0,0,0,,,,,0,34,34,0,,,,,,up,1.734632798154962,1715.755803686915,None,001,16,2019_Oct_09_1400,ACPT_experiment_5_30_19,3.1.0,59.962514955087215,
,,,C,G,g,v,R,U,g,R,u,,,,,5,19,119,13,0,0,0,0,,,,,0,35,35,11,,,,,,down,1.5011109766182926,1718.774745076069,None,001,16,2019_Oct_09_1400,ACPT_experiment_5_30_19,3.1.0,59.962514955087215,
,,,C,G,g,v,L,U,y,R,u,,,,,5,19,119,13,0,0,0,0,,,,,1,0,36,25,,,,,,down,0.5003992029824076,1721.5601453249783,None,001,16,2019_Oct_09_1400,ACPT_experiment_5_30_19,3.1.0,59.962514955087215,
,,,C,G,g,v,L,D,g,R,i,,,,,5,19,119,13,0,0,0,0,,,,,1,1,37,15,,,,,,down,1.6012561385946356,1723.344856137508,None,001,16,2019_Oct_09_1400,ACPT_experiment_5_30_19,3.1.0,59.962514955087215,
,,,C,G,g,v,L,G,y,R,y,,,,,5,19,119,13,0,0,0,0,,,,,1,2,38,35,,,,,,down,1.0008119894314405,1726.2303761925905,None,001,16,2019_Oct_09_1400,ACPT_experiment_5_30_19,3.1.0,59.962514955087215,
,,,C,G,g,v,R,D,d,R,c ,,,,,5,19,119,13,0,0,0,0,,,,,1,3,39,1,,,,,,up,1.1008403335981711,1728.5154403261722,None,001,16,2019_Oct_09_1400,ACPT_experiment_5_30_19,3.1.0,59.962514955087215,
,,,C,G,g,v,L,U,g,R,u,,,,,5,19,119,13,0,0,0,0,,,,,1,4,40,23,,,,,,down,0.9674479775876534,1730.9005714413356,None,001,16,2019_Oct_09_1400,ACPT_experiment_5_30_19,3.1.0,59.962514955087215,
,,,C,G,g,v,L,U,d,R,u,,,,,5,19,119,13,0,0,0,0,,,,,1,5,41,21,,,,,,down,0.36700533769862886,1733.1355946886833,None,001,16,2019_Oct_09_1400,ACPT_experiment_5_30_19,3.1.0,59.962514955087215,
,,,C,G,g,v,R,D,y,R,y,,,,,5,19,119,13,0,0,0,0,,,,,1,6,42,27,,,,,,down,1.0674923200590456,1734.80354836363,None,001,16,2019_Oct_09_1400,ACPT_experiment_5_30_19,3.1.0,59.962514955087215,
,,,C,G,g,v,L,U,d,L,u,,,,,5,19,119,13,0,0,0,0,,,,,1,7,43,20,,,,,,down,0.633830498262796,1737.1720252435139,None,001,16,2019_Oct_09_1400,ACPT_experiment_5_30_19,3.1.0,59.962514955087215,
,,,C,G,g,v,R,G,y,R,y,,,,,5,19,119,13,0,0,0,0,,,,,1,8,44,29,,,,,,down,1.3674451401525403,1739.1070950670583,None,001,16,2019_Oct_09_1400,ACPT_experiment_5_30_19,3.1.0,59.962514955087215,
,,,C,G,g,v,L,G,d,L,i,,,,,5,19,119,13,0,0,0,0,,,,,1,9,45,16,,,,,,down,1.6012416495641446,1741.758823744261,None,001,16,2019_Oct_09_1400,ACPT_experiment_5_30_19,3.1.0,59.962514955087215,
,,,C,G,g,v,L,U,g,L,u,,,,,5,19,119,13,0,0,0,0,,,,,1,10,46,22,,,,,,down,0.7338778592820745,1744.6443516475688,None,001,16,2019_Oct_09_1400,ACPT_experiment_5_30_19,3.1.0,59.962514955087215,
,,,C,G,g,v,R,U,y,R,u,,,,,5,19,119,13,0,0,0,0,,,,,1,11,47,31,,,,,,down,0.3668136598957972,1746.6626733288035,None,001,16,2019_Oct_09_1400,ACPT_experiment_5_30_19,3.1.0,59.962514955087215,
,,,C,G,g,v,L,D,y,R,y,,,,,5,19,119,13,0,0,0,0,,,,,1,12,48,33,,,,,,down,1.1508941995880377,1748.3304803023134,None,001,16,2019_Oct_09_1400,ACPT_experiment_5_30_19,3.1.0,59.962514955087215,
,,,C,G,g,v,R,G,d,R,i,,,,,5,19,119,13,0,0,0,0,,,,,1,13,49,5,,,,,,down,2.068199867727344,1750.7823650988225,None,001,16,2019_Oct_09_1400,ACPT_experiment_5_30_19,3.1.0,59.962514955087215,
,,,C,G,g,v,R,U,d,R,u,,,,,5,19,119,13,0,0,0,0,,,,,1,14,50,9,,,,,,down,0.7839284048695845,1754.134884726177,None,001,16,2019_Oct_09_1400,ACPT_experiment_5_30_19,3.1.0,59.962514955087215,
,,,C,G,g,v,R,U,d,L,u,,,,,5,19,119,13,0,0,0,0,,,,,1,15,51,8,,,,,,down,0.5005226615990068,1756.1862954295257,None,001,16,2019_Oct_09_1400,ACPT_experiment_5_30_19,3.1.0,59.962514955087215,
,,,C,G,g,v,R,D,g,R,i,,,,,5,19,119,13,0,0,0,0,,,,,1,16,52,3,,,,,,down,3.085677562920864,1757.9711284932523,None,001,16,2019_Oct_09_1400,ACPT_experiment_5_30_19,3.1.0,59.962514955087215,
,,,C,G,g,v,R,D,d,L,c,,,,,5,19,119,13,0,0,0,0,,,,,1,17,53,0,,,,,,up,1.1008539170643417,1762.3244199633486,None,001,16,2019_Oct_09_1400,ACPT_experiment_5_30_19,3.1.0,59.962514955087215,
,,,C,G,g,v,R,G,y,L,y,,,,,5,19,119,13,0,0,0,0,,,,,1,18,54,28,,,,,,down,1.2676332258834009,1764.709572812058,None,001,16,2019_Oct_09_1400,ACPT_experiment_5_30_19,3.1.0,59.962514955087215,
,,,C,G,g,v,L,D,d,L,c ,,,,,5,19,119,13,0,0,0,0,,,,,1,19,55,12,,,,,,up,1.0841562146920296,1767.2615128178113,None,001,16,2019_Oct_09_1400,ACPT_experiment_5_30_19,3.1.0,59.962514955087215,
,,,C,G,g,v,L,G,y,L,y,,,,,5,19,119,13,0,0,0,0,,,,,1,20,56,34,,,,,,down,1.2008988632451292,1769.6299863772924,None,001,16,2019_Oct_09_1400,ACPT_experiment_5_30_19,3.1.0,59.962514955087215,
,,,C,G,g,v,R,G,g,L,c ,,,,,5,19,119,13,0,0,0,0,,,,,1,21,57,6,,,,,,up,1.5845370045317395,1772.11519594452,None,001,16,2019_Oct_09_1400,ACPT_experiment_5_30_19,3.1.0,59.962514955087215,
,,,C,G,g,v,L,D,y,L,y,,,,,5,19,119,13,0,0,0,0,,,,,1,22,58,32,,,,,,down,0.9006698460025291,1774.984052406824,None,001,16,2019_Oct_09_1400,ACPT_experiment_5_30_19,3.1.0,59.962514955087215,
,,,C,G,g,v,R,G,d,L,i,,,,,5,19,119,13,0,0,0,0,,,,,1,23,59,4,,,,,,down,4.520088286494229,1777.1690411068894,None,001,16,2019_Oct_09_1400,ACPT_experiment_5_30_19,3.1.0,59.962514955087215,
,,,C,G,g,v,R,U,y,L,u,,,,,5,19,119,13,0,0,0,0,,,,,1,24,60,30,,,,,,down,0.6838897976399494,1782.9734144397075,None,001,16,2019_Oct_09_1400,ACPT_experiment_5_30_19,3.1.0,59.962514955087215,
,,,C,G,g,v,R,U,g,L,u,,,,,5,19,119,13,0,0,0,0,,,,,1,25,61,10,,,,,,down,0.33360208473004604,1784.9248976183958,None,001,16,2019_Oct_09_1400,ACPT_experiment_5_30_19,3.1.0,59.962514955087215,
,,,C,G,g,v,L,D,d,R,c ,,,,,5,19,119,13,0,0,0,0,,,,,1,26,62,13,,,,,,up,0.9173083848322676,1786.542867457667,None,001,16,2019_Oct_09_1400,ACPT_experiment_5_30_19,3.1.0,59.962514955087215,
,,,C,G,g,v,R,U,g,R,u,,,,,5,19,119,13,0,0,0,0,,,,,1,27,63,11,,,,,,down,0.8172773239725757,1788.7444847353531,None,001,16,2019_Oct_09_1400,ACPT_experiment_5_30_19,3.1.0,59.962514955087215,
,,,C,G,g,v,R,D,y,L,y,,,,,5,19,119,13,0,0,0,0,,,,,1,28,64,26,,,,,,down,0.9507581234411191,1790.8460567650036,None,001,16,2019_Oct_09_1400,ACPT_experiment_5_30_19,3.1.0,59.962514955087215,
,,,C,G,g,v,L,G,g,L,c ,,,,,5,19,119,13,0,0,0,0,,,,,1,29,65,18,,,,,,up,1.7179797702947326,1793.081100236624,None,001,16,2019_Oct_09_1400,ACPT_experiment_5_30_19,3.1.0,59.962514955087215,
,,,C,G,g,v,L,G,g,R,c ,,,,,5,19,119,13,0,0,0,0,,,,,1,30,66,19,,,,,,up,0.700727560642008,1796.0665547590274,None,001,16,2019_Oct_09_1400,ACPT_experiment_5_30_19,3.1.0,59.962514955087215,
,,,C,G,g,v,L,D,g,L,i,,,,,5,19,119,13,0,0,0,0,,,,,1,31,67,14,,,,,,down,2.101615798597777,1798.0515465380122,None,001,16,2019_Oct_09_1400,ACPT_experiment_5_30_19,3.1.0,59.962514955087215,
,,,C,G,g,v,L,U,y,L,u,,,,,5,19,119,13,0,0,0,0,,,,,1,32,68,24,,,,,,down,0.9340417060711843,1801.437451307046,None,001,16,2019_Oct_09_1400,ACPT_experiment_5_30_19,3.1.0,59.962514955087215,
,,,C,G,g,v,R,G,g,R,c ,,,,,5,19,119,13,0,0,0,0,,,,,1,33,69,7,,,,,,up,1.401063313744089,1803.655797680004,None,001,16,2019_Oct_09_1400,ACPT_experiment_5_30_19,3.1.0,59.962514955087215,
,,,C,G,g,v,L,G,d,R,i,,,,,5,19,119,13,0,0,0,0,,,,,1,34,70,17,,,,,,down,0.950745747394194,1806.3411475493463,None,001,16,2019_Oct_09_1400,ACPT_experiment_5_30_19,3.1.0,59.962514955087215,
,,,C,G,g,v,R,D,g,L,i,,,,,5,19,119,13,0,0,0,0,,,,,1,35,71,2,,,,,,down,2.4185416126470045,1808.5761735133874,None,001,16,2019_Oct_09_1400,ACPT_experiment_5_30_19,3.1.0,59.962514955087215,
,,,C,G,g,v,,,,,,,,,,5,19,119,13,1,0,1,0,0,0,0,0,,,,,,,,,,,,,,001,16,2019_Oct_09_1400,ACPT_experiment_5_30_19,3.1.0,59.962514955087215,
,,,C,G,g,v,R,G,y,L,y,,,,,5,19,119,13,1,0,1,0,,,,,0,0,0,28,,,,,,down,3.318985671254268,1839.81674092798,None,001,16,2019_Oct_09_1400,ACPT_experiment_5_30_19,3.1.0,59.962514955087215,
,,,C,G,g,v,L,G,y,L,y,,,,,5,19,119,13,1,0,1,0,,,,,0,1,1,34,,,,,,down,0.9006861461621156,1844.4367528150224,None,001,16,2019_Oct_09_1400,ACPT_experiment_5_30_19,3.1.0,59.962514955087215,
,,,C,G,g,v,L,U,g,R,u,,,,,5,19,119,13,1,0,1,0,,,,,0,2,2,23,,,,,,down,1.2676308110444552,1846.621737590975,None,001,16,2019_Oct_09_1400,ACPT_experiment_5_30_19,3.1.0,59.962514955087215,
,,,C,G,g,v,L,G,g,L,c ,,,,,5,19,119,13,1,0,1,0,,,,,0,3,3,18,,,,,,up,1.2843113076924055,1849.1736739744706,None,001,16,2019_Oct_09_1400,ACPT_experiment_5_30_19,3.1.0,59.962514955087215,
,,,C,G,g,v,L,U,y,L,u,,,,,5,19,119,13,1,0,1,0,,,,,0,4,4,24,,,,,,down,1.2676398666885689,1851.7422902509047,None,001,16,2019_Oct_09_1400,ACPT_experiment_5_30_19,3.1.0,59.962514955087215,
,,,C,G,g,v,L,D,d,R,c ,,,,,5,19,119,13,1,0,1,0,,,,,0,5,5,13,,,,,,up,2.4685749525106075,1854.2942320677867,None,001,16,2019_Oct_09_1400,ACPT_experiment_5_30_19,3.1.0,59.962514955087215,
,,,C,G,g,v,R,U,y,R,u,,,,,5,19,119,13,1,0,1,0,,,,,0,6,6,31,,,,,,down,1.0841607425145412,1858.0470799924292,None,001,16,2019_Oct_09_1400,ACPT_experiment_5_30_19,3.1.0,59.962514955087215,
,,,C,G,g,v,L,U,y,R,u,,,,,5,19,119,13,1,0,1,0,,,,,0,7,7,25,,,,,,down,0.617133097745409,1860.4155447981207,None,001,16,2019_Oct_09_1400,ACPT_experiment_5_30_19,3.1.0,59.962514955087215,
,,,C,G,g,v,L,D,g,R,i,,,,,5,19,119,13,1,0,1,0,,,,,0,8,8,15,,,,,,down,5.704389361308586,1862.3169898072688,None,001,16,2019_Oct_09_1400,ACPT_experiment_5_30_19,3.1.0,59.962514955087215,
,,,C,G,g,v,L,U,d,R,u,,,,,5,19,119,13,1,0,1,0,,,,,0,9,9,21,,,,,,down,1.1842401001431426,1869.3056219552282,None,001,16,2019_Oct_09_1400,ACPT_experiment_5_30_19,3.1.0,59.962514955087215,
,,,C,G,g,v,R,G,d,L,i,,,,,5,19,119,13,1,0,1,0,,,,,0,10,10,4,,,,,,down,2.5686280487711883,1871.7741800038698,None,001,16,2019_Oct_09_1400,ACPT_experiment_5_30_19,3.1.0,59.962514955087215,
,,,C,G,g,v,L,G,d,R,i,,,,,5,19,119,13,1,0,1,0,,,,,0,11,11,17,,,,,,down,0.9006882591456815,1875.6270834396114,None,001,16,2019_Oct_09_1400,ACPT_experiment_5_30_19,3.1.0,59.962514955087215,
,,,C,G,g,v,R,U,d,R,u,,,,,5,19,119,13,1,0,1,0,,,,,0,12,12,9,,,,,,down,0.9507046951403026,1877.8120935713678,None,001,16,2019_Oct_09_1400,ACPT_experiment_5_30_19,3.1.0,59.962514955087215,
,,,C,G,g,v,L,U,d,L,u,,,,,5,19,119,13,1,0,1,0,,,,,0,13,13,20,,,,,,down,0.8840177237070748,1880.0471014241207,None,001,16,2019_Oct_09_1400,ACPT_experiment_5_30_19,3.1.0,59.962514955087215,
,,,C,G,g,v,L,G,y,R,y,,,,,5,19,119,13,1,0,1,0,,,,,0,14,14,35,,,,,,down,1.0674316472427563,1882.2154561131783,None,001,16,2019_Oct_09_1400,ACPT_experiment_5_30_19,3.1.0,59.962514955087215,
,,,C,G,g,v,L,D,y,R,y,,,,,5,19,119,13,1,0,1,0,,,,,0,15,15,33,,,,,,down,1.184118452655639,1884.5672048033553,None,001,16,2019_Oct_09_1400,ACPT_experiment_5_30_19,3.1.0,59.962514955087215,
,,,C,G,g,v,R,D,d,L,c,,,,,5,19,119,13,1,0,1,0,,,,,0,16,16,0,,,,,,up,0.9839051016783742,1887.0526093687881,None,001,16,2019_Oct_09_1400,ACPT_experiment_5_30_19,3.1.0,59.962514955087215,
,,,C,G,g,v,R,U,d,L,u,,,,,5,19,119,13,1,0,1,0,,,,,0,17,17,8,,,,,,down,0.9173539649082159,1889.3208127984021,None,001,16,2019_Oct_09_1400,ACPT_experiment_5_30_19,3.1.0,59.962514955087215,
,,,C,G,g,v,R,D,g,R,i,,,,,5,19,119,13,1,0,1,0,,,,,0,18,18,3,,,,,,down,1.00074859992219,1891.5224865229375,None,001,16,2019_Oct_09_1400,ACPT_experiment_5_30_19,3.1.0,59.962514955087215,
,,,C,G,g,v,L,D,d,L,c ,,,,,5,19,119,13,1,0,1,0,,,,,0,19,19,12,,,,,,up,0.9672840704274677,1893.8075500528093,None,001,16,2019_Oct_09_1400,ACPT_experiment_5_30_19,3.1.0,59.962514955087215,
,,,C,G,g,v,L,U,g,L,u,,,,,5,19,119,13,1,0,1,0,,,,,0,20,20,22,,,,,,down,3.2024558303405684,1896.0592384022098,None,001,16,2019_Oct_09_1400,ACPT_experiment_5_30_19,3.1.0,59.962514955087215,
,,,C,G,g,v,R,U,g,R,u,,,,,5,19,119,13,1,0,1,0,,,,,0,21,21,11,,,,,,down,0.31686031155641103,1900.5460414609652,None,001,16,2019_Oct_09_1400,ACPT_experiment_5_30_19,3.1.0,59.962514955087215,
,,,C,G,g,v,R,D,y,R,y,,,,,5,19,119,13,1,0,1,0,,,,,0,22,22,27,,,,,,down,0.9340383856683729,1902.1638920675878,None,001,16,2019_Oct_09_1400,ACPT_experiment_5_30_19,3.1.0,59.962514955087215,
,,,C,G,g,v,R,D,d,R,c ,,,,,5,19,119,13,1,0,1,0,,,,,0,23,23,1,,,,,,up,1.1508634103979603,1904.3989391614655,None,001,16,2019_Oct_09_1400,ACPT_experiment_5_30_19,3.1.0,59.962514955087215,
,,,C,G,g,v,R,G,d,R,i,,,,,5,19,119,13,1,0,1,0,,,,,0,24,24,5,,,,,,up,1.63457638149157,1906.8341024090728,None,001,16,2019_Oct_09_1400,ACPT_experiment_5_30_19,3.1.0,59.962514955087215,
,,,C,G,g,v,L,G,d,L,i,,,,,5,19,119,13,1,0,1,0,,,,,0,25,25,16,,,,,,down,1.0341213655551655,1909.7529828537413,None,001,16,2019_Oct_09_1400,ACPT_experiment_5_30_19,3.1.0,59.962514955087215,
,,,C,G,g,v,R,G,y,R,y,,,,,5,19,119,13,1,0,1,0,,,,,0,26,26,29,,,,,,down,0.8506515988792671,1912.0714043583607,None,001,16,2019_Oct_09_1400,ACPT_experiment_5_30_19,3.1.0,59.962514955087215,
,,,C,G,g,v,R,G,g,R,c ,,,,,5,19,119,13,1,0,1,0,,,,,0,27,27,7,,,,,,up,0.767272962170864,1914.1896626199004,None,001,16,2019_Oct_09_1400,ACPT_experiment_5_30_19,3.1.0,59.962514955087215,
,,,C,G,g,v,L,D,g,L,i,,,,,5,19,119,13,1,0,1,0,,,,,0,28,28,14,,,,,,down,1.3343594384414246,1916.2412206283952,None,001,16,2019_Oct_09_1400,ACPT_experiment_5_30_19,3.1.0,59.962514955087215,
,,,C,G,g,v,R,G,g,L,c ,,,,,5,19,119,13,1,0,1,0,,,,,0,29,29,6,,,,,,up,1.1842168573230083,1918.843220537235,None,001,16,2019_Oct_09_1400,ACPT_experiment_5_30_19,3.1.0,59.962514955087215,
,,,C,G,g,v,R,U,y,L,u,,,,,5,19,119,13,1,0,1,0,,,,,0,30,30,30,,,,,,down,0.7672497193507297,1921.3117568523303,None,001,16,2019_Oct_09_1400,ACPT_experiment_5_30_19,3.1.0,59.962514955087215,
,,,C,G,g,v,R,U,g,L,u,,,,,5,19,119,13,1,0,1,0,,,,,0,31,31,10,,,,,,down,0.817280342520462,1923.3633187849377,None,001,16,2019_Oct_09_1400,ACPT_experiment_5_30_19,3.1.0,59.962514955087215,
,,,C,G,g,v,L,D,y,L,y,,,,,5,19,119,13,1,0,1,0,,,,,0,32,32,32,,,,,,down,0.9840750459347873,1925.4815891206695,None,001,16,2019_Oct_09_1400,ACPT_experiment_5_30_19,3.1.0,59.962514955087215,
,,,C,G,g,v,L,G,g,R,c ,,,,,5,19,119,13,1,0,1,0,,,,,0,33,33,19,,,,,,up,1.100851502225396,1927.7666330299794,None,001,16,2019_Oct_09_1400,ACPT_experiment_5_30_19,3.1.0,59.962514955087215,
,,,C,G,g,v,R,D,g,L,i,,,,,5,19,119,13,1,0,1,0,,,,,0,34,34,2,,,,,,down,1.0841492720314818,1930.1518248179586,None,001,16,2019_Oct_09_1400,ACPT_experiment_5_30_19,3.1.0,59.962514955087215,
,,,C,G,g,v,R,D,y,L,y,,,,,5,19,119,13,1,0,1,0,,,,,0,35,35,26,,,,,,down,0.7172251332763153,1932.5202452509939,None,001,16,2019_Oct_09_1400,ACPT_experiment_5_30_19,3.1.0,59.962514955087215,
,,,C,G,g,v,L,D,y,L,y,,,,,5,19,119,13,1,0,1,0,,,,,1,0,36,32,,,,,,down,0.8005895828091525,1934.521796180993,None,001,16,2019_Oct_09_1400,ACPT_experiment_5_30_19,3.1.0,59.962514955087215,
,,,C,G,g,v,R,D,y,L,y,,,,,5,19,119,13,1,0,1,0,,,,,1,1,37,26,,,,,,down,0.7838499226195381,1936.6234412595072,None,001,16,2019_Oct_09_1400,ACPT_experiment_5_30_19,3.1.0,59.962514955087215,
,,,C,G,g,v,R,U,g,R,u,,,,,5,19,119,13,1,0,1,0,,,,,1,2,38,11,,,,,,down,1.10081256295598,1938.70830954969,None,001,16,2019_Oct_09_1400,ACPT_experiment_5_30_19,3.1.0,59.962514955087215,
,,,C,G,g,v,L,U,y,L,u,,,,,5,19,119,13,1,0,1,0,,,,,1,3,39,24,,,,,,down,0.5337333312004375,1941.0934349296117,None,001,16,2019_Oct_09_1400,ACPT_experiment_5_30_19,3.1.0,59.962514955087215,
,,,C,G,g,v,R,U,y,R,u,,,,,5,19,119,13,1,0,1,0,,,,,1,4,40,31,,,,,,down,1.9180916980571965,1942.9281769690215,None,001,16,2019_Oct_09_1400,ACPT_experiment_5_30_19,3.1.0,59.962514955087215,
,,,C,G,g,v,L,D,d,L,c ,,,,,5,19,119,13,1,0,1,0,,,,,1,5,41,12,,,,,,up,6.254766966579609,1946.147270432627,None,001,16,2019_Oct_09_1400,ACPT_experiment_5_30_19,3.1.0,59.962514955087215,
,,,C,G,g,v,L,U,g,R,u,,,,,5,19,119,13,1,0,1,0,,,,,1,6,42,23,,,,,,down,2.1516301216083775,1953.6863293881916,None,001,16,2019_Oct_09_1400,ACPT_experiment_5_30_19,3.1.0,59.962514955087215,
,,,C,G,g,v,L,G,y,L,y,,,,,5,19,119,13,1,0,1,0,,,,,1,7,43,34,,,,,,down,1.7012826716322706,1957.1389473900272,None,001,16,2019_Oct_09_1400,ACPT_experiment_5_30_19,3.1.0,59.962514955087215,
,,,C,G,g,v,R,G,y,L,y,,,,,5,19,119,13,1,0,1,0,,,,,1,8,44,28,,,,,,down,4.019741606247862,1960.141199830599,None,001,16,2019_Oct_09_1400,ACPT_experiment_5_30_19,3.1.0,59.962514955087215,
,,,C,G,g,v,R,U,d,L,u,,,,,5,19,119,13,1,0,1,0,,,,,1,9,45,8,,,,,,down,6.071277579341768,1965.445248518572,None,001,16,2019_Oct_09_1400,ACPT_experiment_5_30_19,3.1.0,59.962514955087215,
,,,C,G,g,v,L,D,d,R,c ,,,,,5,19,119,13,1,0,1,0,,,,,1,10,46,13,,,,,,up,2.3017669674850367,1972.8008298592358,None,001,16,2019_Oct_09_1400,ACPT_experiment_5_30_19,3.1.0,59.962514955087215,
,,,C,G,g,v,L,U,d,R,u,,,,,5,19,119,13,1,0,1,0,,,,,1,11,47,21,,,,,,down,0.6504962040248756,1976.3868845897387,None,001,16,2019_Oct_09_1400,ACPT_experiment_5_30_19,3.1.0,59.962514955087215,
,,,C,G,g,v,L,U,y,R,u,,,,,5,19,119,13,1,0,1,0,,,,,1,12,48,25,,,,,,down,0.6671773043822213,1978.3383695795555,None,001,16,2019_Oct_09_1400,ACPT_experiment_5_30_19,3.1.0,59.962514955087215,
,,,C,G,g,v,R,G,d,L,i,,,,,5,19,119,13,1,0,1,0,,,,,1,13,49,4,,,,,,down,2.501898213955428,1980.3065305381979,None,001,16,2019_Oct_09_1400,ACPT_experiment_5_30_19,3.1.0,59.962514955087215,
,,,C,G,g,v,L,D,g,R,i,,,,,5,19,119,13,1,0,1,0,,,,,1,14,50,15,,,,,,down,0.9674123587205941,1984.0927261745246,None,001,16,2019_Oct_09_1400,ACPT_experiment_5_30_19,3.1.0,59.962514955087215,
,,,C,G,g,v,L,U,g,L,u,,,,,5,19,119,13,1,0,1,0,,,,,1,15,51,22,,,,,,down,1.2009661768670412,1986.3444253906982,None,001,16,2019_Oct_09_1400,ACPT_experiment_5_30_19,3.1.0,59.962514955087215,
,,,C,G,g,v,R,D,y,R,y,,,,,5,19,119,13,1,0,1,0,,,,,1,16,52,27,,,,,,down,1.0172633782808589,1988.8464826821369,None,001,16,2019_Oct_09_1400,ACPT_experiment_5_30_19,3.1.0,59.962514955087215,
,,,C,G,g,v,L,D,g,L,i,,,,,5,19,119,13,1,0,1,0,,,,,1,17,53,14,,,,,,down,1.6345926816511565,1991.1647713706411,None,001,16,2019_Oct_09_1400,ACPT_experiment_5_30_19,3.1.0,59.962514955087215,
,,,C,G,g,v,L,U,d,L,u,,,,,5,19,119,13,1,0,1,0,,,,,1,18,54,20,,,,,,down,1.6180682439385237,1994.0836518153096,None,001,16,2019_Oct_09_1400,ACPT_experiment_5_30_19,3.1.0,59.962514955087215,
,,,C,G,g,v,L,G,g,L,c ,,,,,5,19,119,13,1,0,1,0,,,,,1,19,55,18,,,,,,up,1.601244969966956,1996.9858300297838,None,001,16,2019_Oct_09_1400,ACPT_experiment_5_30_19,3.1.0,59.962514955087215,
,,,C,G,g,v,R,G,d,R,i,,,,,5,19,119,13,1,0,1,0,,,,,1,20,56,5,,,,,,down,3.569431586268365,1999.8713703091385,None,001,16,2019_Oct_09_1400,ACPT_experiment_5_30_19,3.1.0,59.962514955087215,
,,,C,G,g,v,R,D,g,R,i,,,,,5,19,119,13,1,0,1,0,,,,,1,21,57,3,,,,,,down,1.2008590184104833,2004.7251035437453,None,001,16,2019_Oct_09_1400,ACPT_experiment_5_30_19,3.1.0,59.962514955087215,
,,,C,G,g,v,R,D,g,L,i,,,,,5,19,119,13,1,0,1,0,,,,,1,22,58,2,,,,,,down,1.0341446083752999,2007.19357767675,None,001,16,2019_Oct_09_1400,ACPT_experiment_5_30_19,3.1.0,59.962514955087215,
,,,C,G,g,v,R,D,d,L,c,,,,,5,19,119,13,1,0,1,0,,,,,1,23,59,0,,,,,,up,0.6671920952676373,2009.5120003887887,None,001,16,2019_Oct_09_1400,ACPT_experiment_5_30_19,3.1.0,59.962514955087215,
,,,C,G,g,v,R,G,g,L,c ,,,,,5,19,119,13,1,0,1,0,,,,,1,24,60,6,,,,,,up,1.11751690613346,2011.463500471346,None,001,16,2019_Oct_09_1400,ACPT_experiment_5_30_19,3.1.0,59.962514955087215,
,,,C,G,g,v,L,D,y,R,y,,,,,5,19,119,13,1,0,1,0,,,,,1,25,61,33,,,,,,down,0.9340483468772618,2013.8653247610591,None,001,16,2019_Oct_09_1400,ACPT_experiment_5_30_19,3.1.0,59.962514955087215,
,,,C,G,g,v,L,G,d,R,i,,,,,5,19,119,13,1,0,1,0,,,,,1,26,62,17,,,,,,down,1.2676459037847962,2016.0836823026448,None,001,16,2019_Oct_09_1400,ACPT_experiment_5_30_19,3.1.0,59.962514955087215,
,,,C,G,g,v,L,G,g,R,c ,,,,,5,19,119,13,1,0,1,0,,,,,1,27,63,19,,,,,,up,1.217609847228232,2018.618916154092,None,001,16,2019_Oct_09_1400,ACPT_experiment_5_30_19,3.1.0,59.962514955087215,
,,,C,G,g,v,L,G,y,R,y,,,,,5,19,119,13,1,0,1,0,,,,,1,28,64,35,,,,,,down,0.7505245481916063,2021.1208771538472,None,001,16,2019_Oct_09_1400,ACPT_experiment_5_30_19,3.1.0,59.962514955087215,
,,,C,G,g,v,R,D,d,R,c ,,,,,5,19,119,13,1,0,1,0,,,,,1,29,65,1,,,,,,up,0.9841308890740947,2023.155692483604,None,001,16,2019_Oct_09_1400,ACPT_experiment_5_30_19,3.1.0,59.962514955087215,
,,,C,G,g,v,R,U,d,R,u,,,,,5,19,119,13,1,0,1,0,,,,,1,30,66,9,,,,,,down,0.7505637893159474,2025.4241032874702,None,001,16,2019_Oct_09_1400,ACPT_experiment_5_30_19,3.1.0,59.962514955087215,
,,,C,G,g,v,R,U,g,L,u,,,,,5,19,119,13,1,0,1,0,,,,,1,31,67,10,,,,,,down,0.6004855032720116,2027.4422773617043,None,001,16,2019_Oct_09_1400,ACPT_experiment_5_30_19,3.1.0,59.962514955087215,
,,,C,G,g,v,L,G,d,L,i,,,,,5,19,119,13,1,0,1,0,,,,,1,32,68,16,,,,,,down,1.3843816096768933,2029.3270663244439,None,001,16,2019_Oct_09_1400,ACPT_experiment_5_30_19,3.1.0,59.962514955087215,
,,,C,G,g,v,R,G,g,R,c ,,,,,5,19,119,13,1,0,1,0,,,,,1,33,69,7,,,,,,up,1.4510851831246327,2031.9957698067315,None,001,16,2019_Oct_09_1400,ACPT_experiment_5_30_19,3.1.0,59.962514955087215,
,,,C,G,g,v,R,U,y,L,u,,,,,5,19,119,13,1,0,1,0,,,,,1,34,70,30,,,,,,down,0.817285775907294,2034.7311675049677,None,001,16,2019_Oct_09_1400,ACPT_experiment_5_30_19,3.1.0,59.962514955087215,
,,,C,G,g,v,R,G,y,R,y,,,,,5,19,119,13,1,0,1,0,,,,,1,35,71,29,,,,,,down,0.7505692227027794,2036.8327582496163,None,001,16,2019_Oct_09_1400,ACPT_experiment_5_30_19,3.1.0,59.962514955087215,
,,,C,G,g,v,,,,,,,,,,5,19,119,13,2,0,2,0,0,0,0,0,,,,,,,,,,,,,,001,16,2019_Oct_09_1400,ACPT_experiment_5_30_19,3.1.0,59.962514955087215,
,,,C,G,g,v,R,G,y,L,y,,,,,5,19,119,13,2,0,2,0,,,,,0,0,0,28,,,,,,down,1.414461441218009,2071.512402459392,None,001,16,2019_Oct_09_1400,ACPT_experiment_5_30_19,3.1.0,59.962514955087215,
,,,C,G,g,v,R,D,d,R,c ,,,,,5,19,119,13,2,0,2,0,,,,,0,1,1,1,,,,,,up,1.534470460639568,2074.2111573988686,None,001,16,2019_Oct_09_1400,ACPT_experiment_5_30_19,3.1.0,59.962514955087215,
,,,C,G,g,v,R,D,g,L,i,,,,,5,19,119,13,2,0,2,0,,,,,0,2,2,2,,,,,,down,1.1341014129520772,2077.013231805475,None,001,16,2019_Oct_09_1400,ACPT_experiment_5_30_19,3.1.0,59.962514955087215,
,,,C,G,g,v,R,U,g,L,u,,,,,5,19,119,13,2,0,2,0,,,,,0,3,3,10,,,,,,down,1.2175434391706403,2079.4318023961837,None,001,16,2019_Oct_09_1400,ACPT_experiment_5_30_19,3.1.0,59.962514955087215,
,,,C,G,g,v,L,G,d,R,i,,,,,5,19,119,13,2,0,2,0,,,,,0,4,4,17,,,,,,down,1.7346545317009259,2081.933658048611,None,001,16,2019_Oct_09_1400,ACPT_experiment_5_30_19,3.1.0,59.962514955087215,
,,,C,G,g,v,R,D,y,L,y,,,,,5,19,119,13,2,0,2,0,,,,,0,5,5,26,,,,,,down,1.1175425637916305,2084.952605776716,None,001,16,2019_Oct_09_1400,ACPT_experiment_5_30_19,3.1.0,59.962514955087215,
,,,C,G,g,v,L,U,g,R,u,,,,,5,19,119,13,2,0,2,0,,,,,0,6,6,23,,,,,,down,0.51706007906796,2087.354439725783,None,001,16,2019_Oct_09_1400,ACPT_experiment_5_30_19,3.1.0,59.962514955087215,
,,,C,G,g,v,L,U,y,L,u,,,,,5,19,119,13,2,0,2,0,,,,,0,7,7,24,,,,,,down,0.9174152414343553,2089.1557803233527,None,001,16,2019_Oct_09_1400,ACPT_experiment_5_30_19,3.1.0,59.962514955087215,
,,,C,G,g,v,L,D,g,L,i,,,,,5,19,119,13,2,0,2,0,,,,,0,8,8,14,,,,,,down,1.1175211321005918,2091.357467933209,None,001,16,2019_Oct_09_1400,ACPT_experiment_5_30_19,3.1.0,59.962514955087215,
,,,C,G,g,v,L,G,y,R,y,,,,,5,19,119,13,2,0,2,0,,,,,0,9,9,35,,,,,,down,0.8506688046036288,2093.759275319053,None,001,16,2019_Oct_09_1400,ACPT_experiment_5_30_19,3.1.0,59.962514955087215,
,,,C,G,g,v,L,U,d,L,u,,,,,5,19,119,13,2,0,2,0,,,,,0,10,10,20,,,,,,down,0.83396717811911,2095.894254827639,None,001,16,2019_Oct_09_1400,ACPT_experiment_5_30_19,3.1.0,59.962514955087215,
,,,C,G,g,v,L,U,d,R,u,,,,,5,19,119,13,2,0,2,0,,,,,0,11,11,21,,,,,,down,0.36695553165554884,2098.012504939099,None,001,16,2019_Oct_09_1400,ACPT_experiment_5_30_19,3.1.0,59.962514955087215,
,,,C,G,g,v,L,U,y,R,u,,,,,5,19,119,13,2,0,2,0,,,,,0,12,12,25,,,,,,down,0.38339122405432136,2099.6807136813577,None,001,16,2019_Oct_09_1400,ACPT_experiment_5_30_19,3.1.0,59.962514955087215,
,,,C,G,g,v,L,G,g,R,c ,,,,,5,19,119,13,2,0,2,0,,,,,0,13,13,19,,,,,,up,1.3510492925884137,2101.3483673126257,None,001,16,2019_Oct_09_1400,ACPT_experiment_5_30_19,3.1.0,59.962514955087215,
,,,C,G,g,v,L,D,d,L,c ,,,,,5,19,119,13,2,0,2,0,,,,,0,14,14,12,,,,,,up,1.1842591169961452,2103.983720366536,None,001,16,2019_Oct_09_1400,ACPT_experiment_5_30_19,3.1.0,59.962514955087215,
,,,C,G,g,v,R,U,d,L,u,,,,,5,19,119,13,2,0,2,0,,,,,0,15,15,8,,,,,,down,0.7839299141433003,2106.4522675484045,None,001,16,2019_Oct_09_1400,ACPT_experiment_5_30_19,3.1.0,59.962514955087215,
,,,C,G,g,v,R,G,g,L,c ,,,,,5,19,119,13,2,0,2,0,,,,,0,16,16,6,,,,,,up,1.4844805878683474,2108.5205063554017,None,001,16,2019_Oct_09_1400,ACPT_experiment_5_30_19,3.1.0,59.962514955087215,
,,,C,G,g,v,R,G,d,L,i,,,,,5,19,119,13,2,0,2,0,,,,,0,17,17,4,,,,,,up,1.8515197333053948,2111.2725757964968,None,001,16,2019_Oct_09_1400,ACPT_experiment_5_30_19,3.1.0,59.962514955087215,
,,,C,G,g,v,R,U,y,L,u,,,,,5,19,119,13,2,0,2,0,,,,,0,18,18,30,,,,,,down,0.817128509552731,2114.408432193298,None,001,16,2019_Oct_09_1400,ACPT_experiment_5_30_19,3.1.0,59.962514955087215,
,,,C,G,g,v,L,D,g,R,i,,,,,5,19,119,13,2,0,2,0,,,,,0,19,19,15,,,,,,down,1.2509702368138278,2116.5098994793307,None,001,16,2019_Oct_09_1400,ACPT_experiment_5_30_19,3.1.0,59.962514955087215,
,,,C,G,g,v,L,G,y,L,y,,,,,5,19,119,13,2,0,2,0,,,,,0,20,20,34,,,,,,down,1.3009924080497512,2119.045151140211,None,001,16,2019_Oct_09_1400,ACPT_experiment_5_30_19,3.1.0,59.962514955087215,
,,,C,G,g,v,L,G,d,L,i,,,,,5,19,119,13,2,0,2,0,,,,,0,21,21,16,,,,,,down,1.1842352704666155,2121.6304515355505,None,001,16,2019_Oct_09_1400,ACPT_experiment_5_30_19,3.1.0,59.962514955087215,
,,,C,G,g,v,R,G,y,R,y,,,,,5,19,119,13,2,0,2,0,,,,,0,22,22,29,,,,,,down,0.7839610051887576,2124.099003245241,None,001,16,2019_Oct_09_1400,ACPT_experiment_5_30_19,3.1.0,59.962514955087215,
,,,C,G,g,v,R,U,g,R,u,,,,,5,19,119,13,2,0,2,0,,,,,0,23,23,11,,,,,,down,1.6012319902101808,2126.1672245446593,None,001,16,2019_Oct_09_1400,ACPT_experiment_5_30_19,3.1.0,59.962514955087215,
,,,C,G,g,v,R,G,g,R,c ,,,,,5,19,119,13,2,0,2,0,,,,,0,24,24,7,,,,,,up,2.335128564490333,2129.0527524479667,None,001,16,2019_Oct_09_1400,ACPT_experiment_5_30_19,3.1.0,59.962514955087215,
,,,C,G,g,v,R,U,d,R,u,,,,,5,19,119,13,2,0,2,0,,,,,0,25,25,9,,,,,,down,0.5168711179585443,2132.6723154769106,None,001,16,2019_Oct_09_1400,ACPT_experiment_5_30_19,3.1.0,59.962514955087215,
,,,C,G,g,v,L,U,g,L,u,,,,,5,19,119,13,2,0,2,0,,,,,0,26,26,22,,,,,,down,0.35029918339205324,2134.473513297157,None,001,16,2019_Oct_09_1400,ACPT_experiment_5_30_19,3.1.0,59.962514955087215,
,,,C,G,g,v,R,U,y,R,u,,,,,5,19,119,13,2,0,2,0,,,,,0,27,27,31,,,,,,down,0.4003011303557287,2136.108119864129,None,001,16,2019_Oct_09_1400,ACPT_experiment_5_30_19,3.1.0,59.962514955087215,
,,,C,G,g,v,R,D,y,R,y,,,,,5,19,119,13,2,0,2,0,,,,,0,28,28,27,,,,,,down,1.214264692254801,2137.812719316383,None,001,16,2019_Oct_09_1400,ACPT_experiment_5_30_19,3.1.0,59.962514955087215,
,,,C,G,g,v,R,D,d,L,c,,,,,5,19,119,13,2,0,2,0,,,,,0,29,29,0,,,,,,up,1.2008973539709586,2140.3113104090703,None,001,16,2019_Oct_09_1400,ACPT_experiment_5_30_19,3.1.0,59.962514955087215,
,,,C,G,g,v,L,G,g,L,c ,,,,,5,19,119,13,2,0,2,0,,,,,0,30,30,18,,,,,,up,1.2843481339791651,2142.796513939202,None,001,16,2019_Oct_09_1400,ACPT_experiment_5_30_19,3.1.0,59.962514955087215,
,,,C,G,g,v,L,D,d,R,c ,,,,,5,19,119,13,2,0,2,0,,,,,0,31,31,13,,,,,,down,0.9840756496446375,2145.365136252732,None,001,16,2019_Oct_09_1400,ACPT_experiment_5_30_19,3.1.0,59.962514955087215,
,,,C,G,g,v,L,D,y,R,y,,,,,5,19,119,13,2,0,2,0,,,,,0,32,32,33,,,,,,down,0.8840560592675502,2147.6168261114067,None,001,16,2019_Oct_09_1400,ACPT_experiment_5_30_19,3.1.0,59.962514955087215,
,,,C,G,g,v,L,D,y,L,y,,,,,5,19,119,13,2,0,2,0,,,,,0,33,33,32,,,,,,down,0.8506682008942335,2149.7851512186935,None,001,16,2019_Oct_09_1400,ACPT_experiment_5_30_19,3.1.0,59.962514955087215,
,,,C,G,g,v,R,G,d,R,i,,,,,5,19,119,13,2,0,2,0,,,,,0,34,34,5,,,,,,down,2.885515527260395,2151.9201219734905,None,001,16,2019_Oct_09_1400,ACPT_experiment_5_30_19,3.1.0,59.962514955087215,
,,,C,G,g,v,R,D,g,R,i,,,,,5,19,119,13,2,0,2,0,,,,,0,35,35,3,,,,,,down,1.2509409568979208,2156.089950921427,None,001,16,2019_Oct_09_1400,ACPT_experiment_5_30_19,3.1.0,59.962514955087215,
,,,C,G,g,v,L,D,d,R,c ,,,,,5,19,119,13,2,0,2,0,,,,,1,0,36,13,,,,,,up,0.7839021435011091,2158.6252116379515,None,001,16,2019_Oct_09_1400,ACPT_experiment_5_30_19,3.1.0,59.962514955087215,
,,,C,G,g,v,R,D,y,R,y,,,,,5,19,119,13,2,0,2,0,,,,,1,1,37,27,,,,,,down,0.8506331857365694,2160.7267969492136,None,001,16,2019_Oct_09_1400,ACPT_experiment_5_30_19,3.1.0,59.962514955087215,
,,,C,G,g,v,R,D,g,L,i,,,,,5,19,119,13,2,0,2,0,,,,,1,2,38,2,,,,,,down,1.0341126117655222,2162.8784261652577,None,001,16,2019_Oct_09_1400,ACPT_experiment_5_30_19,3.1.0,59.962514955087215,
,,,C,G,g,v,R,D,y,L,y,,,,,5,19,119,13,2,0,2,0,,,,,1,3,39,26,,,,,,down,0.7672388525775204,2165.1801747195996,None,001,16,2019_Oct_09_1400,ACPT_experiment_5_30_19,3.1.0,59.962514955087215,
,,,C,G,g,v,L,U,g,L,u,,,,,5,19,119,13,2,0,2,0,,,,,1,4,40,22,,,,,,down,0.7005491644504218,2167.2317230687404,None,001,16,2019_Oct_09_1400,ACPT_experiment_5_30_19,3.1.0,59.962514955087215,
,,,C,G,g,v,L,U,d,L,u,,,,,5,19,119,13,2,0,2,0,,,,,1,5,41,20,,,,,,down,0.4003035451942196,2169.2165618073373,None,001,16,2019_Oct_09_1400,ACPT_experiment_5_30_19,3.1.0,59.962514955087215,
,,,C,G,g,v,R,D,g,R,i,,,,,5,19,119,13,2,0,2,0,,,,,1,6,42,3,,,,,,down,1.034100235718597,2170.9011986956248,None,001,16,2019_Oct_09_1400,ACPT_experiment_5_30_19,3.1.0,59.962514955087215,
,,,C,G,g,v,L,G,g,R,c ,,,,,5,19,119,13,2,0,2,0,,,,,1,7,43,19,,,,,,up,1.2342677047654433,2173.2196072204874,None,001,16,2019_Oct_09_1400,ACPT_experiment_5_30_19,3.1.0,59.962514955087215,
,,,C,G,g,v,L,U,d,R,u,,,,,5,19,119,13,2,0,2,0,,,,,1,8,44,21,,,,,,down,0.600426037874513,2175.738236642698,None,001,16,2019_Oct_09_1400,ACPT_experiment_5_30_19,3.1.0,59.962514955087215,
,,,C,G,g,v,L,D,d,L,c ,,,,,5,19,119,13,2,0,2,0,,,,,1,9,45,12,,,,,,up,1.3510130700115042,2177.6229613103637,None,001,16,2019_Oct_09_1400,ACPT_experiment_5_30_19,3.1.0,59.962514955087215,
,,,C,G,g,v,R,U,d,L,u,,,,,5,19,119,13,2,0,2,0,,,,,1,10,46,8,,,,,,down,1.1008315798085277,2180.258279952826,None,001,16,2019_Oct_09_1400,ACPT_experiment_5_30_19,3.1.0,59.962514955087215,
,,,C,G,g,v,L,G,d,R,i,,,,,5,19,119,13,2,0,2,0,,,,,1,11,47,17,,,,,,down,1.4678012986400972,2182.6434014086353,None,001,16,2019_Oct_09_1400,ACPT_experiment_5_30_19,3.1.0,59.962514955087215,
,,,C,G,g,v,R,U,d,R,u,,,,,5,19,119,13,2,0,2,0,,,,,1,12,48,9,,,,,,down,0.9007054648700432,2185.378838046142,None,001,16,2019_Oct_09_1400,ACPT_experiment_5_30_19,3.1.0,59.962514955087215,
,,,C,G,g,v,L,D,g,R,i,,,,,5,19,119,13,2,0,2,0,,,,,1,13,49,15,,,,,,down,1.9014450091476647,2187.563825538788,None,001,16,2019_Oct_09_1400,ACPT_experiment_5_30_19,3.1.0,59.962514955087215,
,,,C,G,g,v,R,G,g,L,c ,,,,,5,19,119,13,2,0,2,0,,,,,1,14,50,6,,,,,,up,1.0007627870982105,2190.7495700832906,None,001,16,2019_Oct_09_1400,ACPT_experiment_5_30_19,3.1.0,59.962514955087215,
,,,C,G,g,v,L,U,y,L,u,,,,,5,19,119,13,2,0,2,0,,,,,1,15,51,24,,,,,,down,0.6338359316491733,2193.0346438762263,None,001,16,2019_Oct_09_1400,ACPT_experiment_5_30_19,3.1.0,59.962514955087215,
,,,C,G,g,v,R,G,g,R,c ,,,,,5,19,119,13,2,0,2,0,,,,,1,16,52,7,,,,,,up,1.334342534571988,2194.952769080167,None,001,16,2019_Oct_09_1400,ACPT_experiment_5_30_19,3.1.0,59.962514955087215,
,,,C,G,g,v,R,U,y,L,u,,,,,5,19,119,13,2,0,2,0,,,,,1,17,53,30,,,,,,down,0.7172055127139174,2197.57142473356,None,001,16,2019_Oct_09_1400,ACPT_experiment_5_30_19,3.1.0,59.962514955087215,
,,,C,G,g,v,L,U,g,R,u,,,,,5,19,119,13,2,0,2,0,,,,,1,18,54,23,,,,,,down,0.38362516152983517,2199.5729394409827,None,001,16,2019_Oct_09_1400,ACPT_experiment_5_30_19,3.1.0,59.962514955087215,
,,,C,G,g,v,R,G,d,L,i,,,,,5,19,119,13,2,0,2,0,,,,,1,19,55,4,,,,,,down,4.086439746309225,2201.2408710805284,None,001,16,2019_Oct_09_1400,ACPT_experiment_5_30_19,3.1.0,59.962514955087215,
,,,C,G,g,v,L,G,y,L,y,,,,,5,19,119,13,2,0,2,0,,,,,1,20,56,34,,,,,,down,0.8006170515968734,2206.628277275374,None,001,16,2019_Oct_09_1400,ACPT_experiment_5_30_19,3.1.0,59.962514955087215,
,,,C,G,g,v,R,G,y,L,y,,,,,5,19,119,13,2,0,2,0,,,,,1,21,57,28,,,,,,down,0.7172242277119949,2208.7298683218773,None,001,16,2019_Oct_09_1400,ACPT_experiment_5_30_19,3.1.0,59.962514955087215,
,,,C,G,g,v,L,G,y,R,y,,,,,5,19,119,13,2,0,2,0,,,,,1,22,58,35,,,,,,down,0.7673085810379234,2210.7480689593344,None,001,16,2019_Oct_09_1400,ACPT_experiment_5_30_19,3.1.0,59.962514955087215,
,,,C,G,g,v,R,U,g,R,u,,,,,5,19,119,13,2,0,2,0,,,,,1,23,59,11,,,,,,down,1.050666933103912,2212.816335235119,None,001,16,2019_Oct_09_1400,ACPT_experiment_5_30_19,3.1.0,59.962514955087215,
,,,C,G,g,v,L,D,y,R,y,,,,,5,19,119,13,2,0,2,0,,,,,1,24,60,33,,,,,,down,0.8673224361737084,2215.1514305955807,None,001,16,2019_Oct_09_1400,ACPT_experiment_5_30_19,3.1.0,59.962514955087215,
,,,C,G,g,v,R,G,y,R,y,,,,,5,19,119,13,2,0,2,0,,,,,1,25,61,29,,,,,,down,0.9338892693936032,2217.3031817609663,None,001,16,2019_Oct_09_1400,ACPT_experiment_5_30_19,3.1.0,59.962514955087215,
,,,C,G,g,v,R,G,d,R,i,,,,,5,19,119,13,2,0,2,0,,,,,1,26,62,5,,,,,,down,1.9181221853928037,2219.521414636517,None,001,16,2019_Oct_09_1400,ACPT_experiment_5_30_19,3.1.0,59.962514955087215,
,,,C,G,g,v,L,G,d,L,i,,,,,5,19,119,13,2,0,2,0,,,,,1,27,63,16,,,,,,down,0.7505776746374977,2222.7238336405712,None,001,16,2019_Oct_09_1400,ACPT_experiment_5_30_19,3.1.0,59.962514955087215,
,,,C,G,g,v,L,U,y,R,u,,,,,5,19,119,13,2,0,2,0,,,,,1,28,64,25,,,,,,down,1.651257783703386,2224.75871628395,None,001,16,2019_Oct_09_1400,ACPT_experiment_5_30_19,3.1.0,59.962514955087215,
,,,C,G,g,v,L,G,g,L,c ,,,,,5,19,119,13,2,0,2,0,,,,,1,29,65,18,,,,,,up,1.2509557477837916,2227.694276923411,None,001,16,2019_Oct_09_1400,ACPT_experiment_5_30_19,3.1.0,59.962514955087215,
,,,C,G,g,v,L,D,y,L,y,,,,,5,19,119,13,2,0,2,0,,,,,1,30,66,32,,,,,,down,0.833815345151379,2230.229659891133,None,001,16,2019_Oct_09_1400,ACPT_experiment_5_30_19,3.1.0,59.962514955087215,
,,,C,G,g,v,R,U,g,L,u,,,,,5,19,119,13,2,0,2,0,,,,,1,31,67,10,,,,,,down,1.7346267610587347,2232.347837557439,None,001,16,2019_Oct_09_1400,ACPT_experiment_5_30_19,3.1.0,59.962514955087215,
,,,C,G,g,v,R,D,d,L,c,,,,,5,19,119,13,2,0,2,0,,,,,1,32,68,0,,,,,,up,1.3510233330748633,2235.366772909497,None,001,16,2019_Oct_09_1400,ACPT_experiment_5_30_19,3.1.0,59.962514955087215,
,,,C,G,g,v,R,U,y,R,u,,,,,5,19,119,13,2,0,2,0,,,,,1,33,69,31,,,,,,down,0.7172260388406357,2238.002101815023,None,001,16,2019_Oct_09_1400,ACPT_experiment_5_30_19,3.1.0,59.962514955087215,
,,,C,G,g,v,L,D,g,L,i,,,,,5,19,119,13,2,0,2,0,,,,,1,34,70,14,,,,,,down,1.117519019117026,2240.0036198428484,None,001,16,2019_Oct_09_1400,ACPT_experiment_5_30_19,3.1.0,59.962514955087215,
,,,C,G,g,v,R,D,d,R,c ,,,,,5,19,119,13,2,0,2,0,,,,,1,35,71,1,,,,,,up,0.950730654653853,2242.405443830706,None,001,16,2019_Oct_09_1400,ACPT_experiment_5_30_19,3.1.0,59.962514955087215,
,,,C,G,g,v,,,,,,,,,,5,19,119,13,3,0,3,0,0,0,0,0,,,,,,,,,,,,,,001,16,2019_Oct_09_1400,ACPT_experiment_5_30_19,3.1.0,59.962514955087215,
,,,C,G,g,v,R,G,y,R,y,,,,,5,19,119,13,3,0,3,0,,,,,0,0,0,29,,,,,,down,1.033860261146856,2256.466387712577,None,001,16,2019_Oct_09_1400,ACPT_experiment_5_30_19,3.1.0,59.962514955087215,
,,,C,G,g,v,L,D,g,R,i,,,,,5,19,119,13,3,0,3,0,,,,,0,1,1,15,,,,,,down,1.3176931289694949,2258.784520644001,None,001,16,2019_Oct_09_1400,ACPT_experiment_5_30_19,3.1.0,59.962514955087215,
,,,C,G,g,v,L,D,d,L,c ,,,,,5,19,119,13,3,0,3,0,,,,,0,2,2,12,,,,,,up,0.9841058351253196,2261.36981409668,None,001,16,2019_Oct_09_1400,ACPT_experiment_5_30_19,3.1.0,59.962514955087215,
,,,C,G,g,v,R,D,y,L,y,,,,,5,19,119,13,3,0,3,0,,,,,0,3,3,26,,,,,,down,0.8840602852346819,2263.6382022614357,None,001,16,2019_Oct_09_1400,ACPT_experiment_5_30_19,3.1.0,59.962514955087215,
,,,C,G,g,v,L,U,y,L,u,,,,,5,19,119,13,3,0,3,0,,,,,0,4,4,24,,,,,,down,0.6338105758454731,2265.806542159608,None,001,16,2019_Oct_09_1400,ACPT_experiment_5_30_19,3.1.0,59.962514955087215,
,,,C,G,g,v,L,D,y,L,y,,,,,5,19,119,13,3,0,3,0,,,,,0,5,5,32,,,,,,down,0.8838118587282224,2267.741498485745,None,001,16,2019_Oct_09_1400,ACPT_experiment_5_30_19,3.1.0,59.962514955087215,
,,,C,G,g,v,L,D,g,L,i,,,,,5,19,119,13,3,0,3,0,,,,,0,6,6,14,,,,,,down,1.1675493404322879,2269.926334749133,None,001,16,2019_Oct_09_1400,ACPT_experiment_5_30_19,3.1.0,59.962514955087215,
,,,C,G,g,v,L,U,d,R,u,,,,,5,19,119,13,3,0,3,0,,,,,0,7,7,21,,,,,,down,0.6838674603836807,2272.3781935861284,None,001,16,2019_Oct_09_1400,ACPT_experiment_5_30_19,3.1.0,59.962514955087215,
,,,C,G,g,v,L,G,y,L,y,,,,,5,19,119,13,3,0,3,0,,,,,0,8,8,34,,,,,,down,1.01742788915044,2274.3463554503355,None,001,16,2019_Oct_09_1400,ACPT_experiment_5_30_19,3.1.0,59.962514955087215,
,,,C,G,g,v,L,U,g,R,u,,,,,5,19,119,13,3,0,3,0,,,,,0,9,9,23,,,,,,down,0.7005262234856673,2276.64810732508,None,001,16,2019_Oct_09_1400,ACPT_experiment_5_30_19,3.1.0,59.962514955087215,
,,,C,G,g,v,R,G,d,L,i,,,,,5,19,119,13,3,0,3,0,,,,,0,10,10,4,,,,,,down,1.367706546415775,2278.632941535855,None,001,16,2019_Oct_09_1400,ACPT_experiment_5_30_19,3.1.0,59.962514955087215,
,,,C,G,g,v,R,U,y,R,u,,,,,5,19,119,13,3,0,3,0,,,,,0,11,11,31,,,,,,down,0.5837790471109656,2281.2849482213355,None,001,16,2019_Oct_09_1400,ACPT_experiment_5_30_19,3.1.0,59.962514955087215,
,,,C,G,g,v,L,G,g,L,c ,,,,,5,19,119,13,3,0,3,0,,,,,0,12,12,18,,,,,,up,1.3343497790874608,2283.153037670574,None,001,16,2019_Oct_09_1400,ACPT_experiment_5_30_19,3.1.0,59.962514955087215,
,,,C,G,g,v,R,G,d,R,i,,,,,5,19,119,13,3,0,3,0,,,,,0,13,13,5,,,,,,down,1.1175126801658735,2285.771696040661,None,001,16,2019_Oct_09_1400,ACPT_experiment_5_30_19,3.1.0,59.962514955087215,
,,,C,G,g,v,L,G,d,R,i,,,,,5,19,119,13,3,0,3,0,,,,,0,14,14,17,,,,,,down,1.2476311189366243,2288.1935133816764,None,001,16,2019_Oct_09_1400,ACPT_experiment_5_30_19,3.1.0,59.962514955087215,
,,,C,G,g,v,R,U,d,L,u,,,,,5,19,119,13,3,0,3,0,,,,,0,15,15,8,,,,,,down,0.6171014029910111,2290.7254721084646,None,001,16,2019_Oct_09_1400,ACPT_experiment_5_30_19,3.1.0,59.962514955087215,
,,,C,G,g,v,R,U,y,L,u,,,,,5,19,119,13,3,0,3,0,,,,,0,16,16,30,,,,,,down,0.467029455897773,2292.62689749705,None,001,16,2019_Oct_09_1400,ACPT_experiment_5_30_19,3.1.0,59.962514955087215,
,,,C,G,g,v,L,G,g,R,c ,,,,,5,19,119,13,3,0,3,0,,,,,0,17,17,19,,,,,,up,2.101618213436268,2294.378223771609,None,001,16,2019_Oct_09_1400,ACPT_experiment_5_30_19,3.1.0,59.962514955087215,
,,,C,G,g,v,R,D,d,R,c ,,,,,5,19,119,13,3,0,3,0,,,,,0,18,18,1,,,,,,up,1.5011508214524838,2297.764127635079,None,001,16,2019_Oct_09_1400,ACPT_experiment_5_30_19,3.1.0,59.962514955087215,
,,,C,G,g,v,R,U,g,L,u,,,,,5,19,119,13,3,0,3,0,,,,,0,19,19,10,,,,,,down,1.567883674816585,2300.5495740677743,None,001,16,2019_Oct_09_1400,ACPT_experiment_5_30_19,3.1.0,59.962514955087215,
,,,C,G,g,v,L,D,d,R,c ,,,,,5,19,119,13,3,0,3,0,,,,,0,20,20,13,,,,,,up,1.3510384258147496,2303.4017406759313,None,001,16,2019_Oct_09_1400,ACPT_experiment_5_30_19,3.1.0,59.962514955087215,
,,,C,G,g,v,R,D,g,R,i,,,,,5,19,119,13,3,0,3,0,,,,,0,21,21,3,,,,,,down,3.435948673815801,2306.0370704870215,None,001,16,2019_Oct_09_1400,ACPT_experiment_5_30_19,3.1.0,59.962514955087215,
,,,C,G,g,v,R,G,g,L,c ,,,,,5,19,119,13,3,0,3,0,,,,,0,22,22,6,,,,,,up,1.0508531775199117,2310.7573205073213,None,001,16,2019_Oct_09_1400,ACPT_experiment_5_30_19,3.1.0,59.962514955087215,
,,,C,G,g,v,L,D,y,R,y,,,,,5,19,119,13,3,0,3,0,,,,,0,23,23,33,,,,,,down,0.7839196510799411,2313.1091084386226,None,001,16,2019_Oct_09_1400,ACPT_experiment_5_30_19,3.1.0,59.962514955087215,
,,,C,G,g,v,R,G,g,R,c ,,,,,5,19,119,13,3,0,3,0,,,,,0,24,24,7,,,,,,up,1.2342885327470867,2315.1939987642063,None,001,16,2019_Oct_09_1400,ACPT_experiment_5_30_19,3.1.0,59.962514955087215,
,,,C,G,g,v,L,U,y,R,u,,,,,5,19,119,13,3,0,3,0,,,,,0,25,25,25,,,,,,down,0.600451393678668,2317.712601623194,None,001,16,2019_Oct_09_1400,ACPT_experiment_5_30_19,3.1.0,59.962514955087215,
,,,C,G,g,v,R,U,g,R,u,,,,,5,19,119,13,3,0,3,0,,,,,0,26,26,11,,,,,,down,0.3502584329930869,2319.597367343113,None,001,16,2019_Oct_09_1400,ACPT_experiment_5_30_19,3.1.0,59.962514955087215,
,,,C,G,g,v,R,D,y,R,y,,,,,5,19,119,13,3,0,3,0,,,,,0,27,27,27,,,,,,down,0.9840768570634282,2321.231939800492,None,001,16,2019_Oct_09_1400,ACPT_experiment_5_30_19,3.1.0,59.962514955087215,
,,,C,G,g,v,R,D,g,L,i,,,,,5,19,119,13,3,0,3,0,,,,,0,28,28,2,,,,,,down,1.417704569266789,2323.500365395244,None,001,16,2019_Oct_09_1400,ACPT_experiment_5_30_19,3.1.0,59.962514955087215,
,,,C,G,g,v,L,U,d,L,u,,,,,5,19,119,13,3,0,3,0,,,,,0,29,29,20,,,,,,down,0.6171358144392798,2326.202374933252,None,001,16,2019_Oct_09_1400,ACPT_experiment_5_30_19,3.1.0,59.962514955087215,
,,,C,G,g,v,L,G,d,L,i,,,,,5,19,119,13,3,0,3,0,,,,,0,30,30,16,,,,,,up,1.064145353956519,2328.123833821684,None,001,16,2019_Oct_09_1400,ACPT_experiment_5_30_19,3.1.0,59.962514955087215,
,,,C,G,g,v,R,D,d,L,c,,,,,5,19,119,13,3,0,3,0,,,,,0,31,31,0,,,,,,up,1.1175072467790415,2330.4722895777686,None,001,16,2019_Oct_09_1400,ACPT_experiment_5_30_19,3.1.0,59.962514955087215,
,,,C,G,g,v,R,U,d,R,u,,,,,5,19,119,13,3,0,3,0,,,,,0,32,32,9,,,,,,down,0.8172679664739917,2332.874122319416,None,001,16,2019_Oct_09_1400,ACPT_experiment_5_30_19,3.1.0,59.962514955087215,
,,,C,G,g,v,L,G,y,R,y,,,,,5,19,119,13,3,0,3,0,,,,,0,33,33,35,,,,,,down,1.0173134861784092,2334.9924717411072,None,001,16,2019_Oct_09_1400,ACPT_experiment_5_30_19,3.1.0,59.962514955087215,
,,,C,G,g,v,R,G,y,L,y,,,,,5,19,119,13,3,0,3,0,,,,,0,34,34,28,,,,,,down,0.9173624168424794,2337.310805405978,None,001,16,2019_Oct_09_1400,ACPT_experiment_5_30_19,3.1.0,59.962514955087215,
,,,C,G,g,v,L,U,g,L,u,,,,,5,19,119,13,3,0,3,0,,,,,0,35,35,22,,,,,,down,0.9340290281697889,2339.5124875824476,None,001,16,2019_Oct_09_1400,ACPT_experiment_5_30_19,3.1.0,59.962514955087215,
,,,C,G,g,v,R,G,d,L,i,,,,,5,19,119,13,3,0,3,0,,,,,1,0,36,4,,,,,,down,1.5009217136539519,2341.747755935899,None,001,16,2019_Oct_09_1400,ACPT_experiment_5_30_19,3.1.0,59.962514955087215,
,,,C,G,g,v,R,D,d,L,c,,,,,5,19,119,13,3,0,3,0,,,,,1,1,37,0,,,,,,up,2.1182727505702132,2344.5329572624905,None,001,16,2019_Oct_09_1400,ACPT_experiment_5_30_19,3.1.0,59.962514955087215,
,,,C,G,g,v,L,D,d,R,c ,,,,,5,19,119,13,3,0,3,0,,,,,1,2,38,13,,,,,,up,0.667171267285994,2347.935541924463,None,001,16,2019_Oct_09_1400,ACPT_experiment_5_30_19,3.1.0,59.962514955087215,
,,,C,G,g,v,L,U,d,R,u,,,,,5,19,119,13,3,0,3,0,,,,,1,3,39,21,,,,,,down,1.1842364778854062,2349.8870184623456,None,001,16,2019_Oct_09_1400,ACPT_experiment_5_30_19,3.1.0,59.962514955087215,
,,,C,G,g,v,L,D,g,L,i,,,,,5,19,119,13,3,0,3,0,,,,,1,4,40,14,,,,,,down,0.9505921032973674,2352.355573190584,None,001,16,2019_Oct_09_1400,ACPT_experiment_5_30_19,3.1.0,59.962514955087215,
,,,C,G,g,v,R,U,g,L,u,,,,,5,19,119,13,3,0,3,0,,,,,1,5,41,10,,,,,,down,0.6171252495205408,2354.5905910045453,None,001,16,2019_Oct_09_1400,ACPT_experiment_5_30_19,3.1.0,59.962514955087215,
,,,C,G,g,v,R,U,y,R,u,,,,,5,19,119,13,3,0,3,0,,,,,1,6,42,31,,,,,,down,0.4002963006787468,2356.492033297,None,001,16,2019_Oct_09_1400,ACPT_experiment_5_30_19,3.1.0,59.962514955087215,
,,,C,G,g,v,R,G,g,R,c ,,,,,5,19,119,13,3,0,3,0,,,,,1,7,43,7,,,,,,up,1.1842277240962176,2358.176647244322,None,001,16,2019_Oct_09_1400,ACPT_experiment_5_30_19,3.1.0,59.962514955087215,
,,,C,G,g,v,R,D,g,R,i,,,,,5,19,119,13,3,0,3,0,,,,,1,8,44,3,,,,,,down,0.9006785997921725,2360.645184464982,None,001,16,2019_Oct_09_1400,ACPT_experiment_5_30_19,3.1.0,59.962514955087215,
,,,C,G,g,v,R,D,y,L,y,,,,,5,19,119,13,3,0,3,0,,,,,1,9,45,26,,,,,,down,0.8506515988792671,2362.8301725613373,None,001,16,2019_Oct_09_1400,ACPT_experiment_5_30_19,3.1.0,59.962514955087215,
,,,C,G,g,v,L,G,g,L,c ,,,,,5,19,119,13,3,0,3,0,,,,,1,10,46,18,,,,,,up,1.4843414328020117,2364.965130034523,None,001,16,2019_Oct_09_1400,ACPT_experiment_5_30_19,3.1.0,59.962514955087215,
,,,C,G,g,v,R,D,d,R,c ,,,,,5,19,119,13,3,0,3,0,,,,,1,11,47,1,,,,,,up,2.051580043895683,2367.733898989118,None,001,16,2019_Oct_09_1400,ACPT_experiment_5_30_19,3.1.0,59.962514955087215,
,,,C,G,g,v,L,U,y,L,u,,,,,5,19,119,13,3,0,3,0,,,,,1,12,48,24,,,,,,down,0.6671785118014668,2371.069764381193,None,001,16,2019_Oct_09_1400,ACPT_experiment_5_30_19,3.1.0,59.962514955087215,
,,,C,G,g,v,R,U,g,R,u,,,,,5,19,119,13,3,0,3,0,,,,,1,13,49,11,,,,,,down,0.36675962788558536,2373.0214009021233,None,001,16,2019_Oct_09_1400,ACPT_experiment_5_30_19,3.1.0,59.962514955087215,
,,,C,G,g,v,L,U,g,L,u,,,,,5,19,119,13,3,0,3,0,,,,,1,14,50,22,,,,,,down,0.3669609650419261,2374.6558173005665,None,001,16,2019_Oct_09_1400,ACPT_experiment_5_30_19,3.1.0,59.962514955087215,
,,,C,G,g,v,L,G,g,R,c ,,,,,5,19,119,13,3,0,3,0,,,,,1,15,51,19,,,,,,up,1.2506831728924226,2376.3240181946003,None,001,16,2019_Oct_09_1400,ACPT_experiment_5_30_19,3.1.0,59.962514955087215,
,,,C,G,g,v,L,U,y,R,u,,,,,5,19,119,13,3,0,3,0,,,,,1,16,52,25,,,,,,down,0.583776934126945,2378.8590054306696,None,001,16,2019_Oct_09_1400,ACPT_experiment_5_30_19,3.1.0,59.962514955087215,
,,,C,G,g,v,L,G,d,R,i,,,,,5,19,119,13,3,0,3,0,,,,,1,17,53,17,,,,,,down,1.1175226413743076,2380.727093974344,None,001,16,2019_Oct_09_1400,ACPT_experiment_5_30_19,3.1.0,59.962514955087215,
,,,C,G,g,v,L,U,g,R,u,,,,,5,19,119,13,3,0,3,0,,,,,1,18,54,23,,,,,,down,0.5671097190911496,2383.128899549059,None,001,16,2019_Oct_09_1400,ACPT_experiment_5_30_19,3.1.0,59.962514955087215,
,,,C,G,g,v,L,D,y,L,y,,,,,5,19,119,13,3,0,3,0,,,,,1,19,55,32,,,,,,down,2.2183512026344943,2384.9803187647135,None,001,16,2019_Oct_09_1400,ACPT_experiment_5_30_19,3.1.0,59.962514955087215,
,,,C,G,g,v,L,U,d,L,u,,,,,5,19,119,13,3,0,3,0,,,,,1,20,56,20,,,,,,down,1.5678556023199235,2388.482976445364,None,001,16,2019_Oct_09_1400,ACPT_experiment_5_30_19,3.1.0,59.962514955087215,
,,,C,G,g,v,R,G,y,R,y,,,,,5,19,119,13,3,0,3,0,,,,,1,21,57,29,,,,,,down,0.9841230408492265,2391.3351216218293,None,001,16,2019_Oct_09_1400,ACPT_experiment_5_30_19,3.1.0,59.962514955087215,
,,,C,G,g,v,L,G,d,L,i,,,,,5,19,119,13,3,0,3,0,,,,,1,22,58,16,,,,,,down,1.3677134890767775,2393.603525181181,None,001,16,2019_Oct_09_1400,ACPT_experiment_5_30_19,3.1.0,59.962514955087215,
,,,C,G,g,v,R,G,d,R,i,,,,,5,19,119,13,3,0,3,0,,,,,1,23,59,5,,,,,,down,1.2342601583950454,2396.2555542039167,None,001,16,2019_Oct_09_1400,ACPT_experiment_5_30_19,3.1.0,59.962514955087215,
,,,C,G,g,v,R,U,d,R,u,,,,,5,19,119,13,3,0,3,0,,,,,1,24,60,9,,,,,,down,0.6171500016148457,2398.7574267602135,None,001,16,2019_Oct_09_1400,ACPT_experiment_5_30_19,3.1.0,59.962514955087215,
,,,C,G,g,v,R,G,g,L,c ,,,,,5,19,119,13,3,0,3,0,,,,,1,25,61,6,,,,,,up,1.1508615992688647,2400.658898332584,None,001,16,2019_Oct_09_1400,ACPT_experiment_5_30_19,3.1.0,59.962514955087215,
,,,C,G,g,v,L,D,g,R,i,,,,,5,19,119,13,3,0,3,0,,,,,1,26,62,15,,,,,,down,0.9006909758390975,2403.094060674627,None,001,16,2019_Oct_09_1400,ACPT_experiment_5_30_19,3.1.0,59.962514955087215,
,,,C,G,g,v,R,U,y,L,u,,,,,5,19,119,13,3,0,3,0,,,,,1,27,63,30,,,,,,down,0.6838499528048487,2405.2790575247723,None,001,16,2019_Oct_09_1400,ACPT_experiment_5_30_19,3.1.0,59.962514955087215,
,,,C,G,g,v,R,D,y,R,y,,,,,5,19,119,13,3,0,3,0,,,,,1,28,64,27,,,,,,down,1.2009094281634134,2407.230537081203,None,001,16,2019_Oct_09_1400,ACPT_experiment_5_30_19,3.1.0,59.962514955087215,
,,,C,G,g,v,R,D,g,L,i,,,,,5,19,119,13,3,0,3,0,,,,,1,29,65,2,,,,,,down,1.2009350858220387,2409.7157605337516,None,001,16,2019_Oct_09_1400,ACPT_experiment_5_30_19,3.1.0,59.962514955087215,
,,,C,G,g,v,R,U,d,L,u,,,,,5,19,119,13,3,0,3,0,,,,,1,30,66,8,,,,,,down,0.5337357460384737,2412.200977949204,None,001,16,2019_Oct_09_1400,ACPT_experiment_5_30_19,3.1.0,59.962514955087215,
,,,C,G,g,v,L,G,y,R,y,,,,,5,19,119,13,3,0,3,0,,,,,1,31,67,35,,,,,,down,1.0674705865130818,2414.0190298326124,None,001,16,2019_Oct_09_1400,ACPT_experiment_5_30_19,3.1.0,59.962514955087215,
,,,C,G,g,v,L,D,y,R,y,,,,,5,19,119,13,3,0,3,0,,,,,1,32,68,33,,,,,,down,0.8673438678652019,2416.370810519398,None,001,16,2019_Oct_09_1400,ACPT_experiment_5_30_19,3.1.0,59.962514955087215,
,,,C,G,g,v,L,D,d,L,c ,,,,,5,19,119,13,3,0,3,0,,,,,1,33,69,12,,,,,,up,1.2342689121846888,2418.522441848426,None,001,16,2019_Oct_09_1400,ACPT_experiment_5_30_19,3.1.0,59.962514955087215,
,,,C,G,g,v,L,G,y,L,y,,,,,5,19,119,13,3,0,3,0,,,,,1,34,70,34,,,,,,down,1.4344206847817986,2421.0410202571743,None,001,16,2019_Oct_09_1400,ACPT_experiment_5_30_19,3.1.0,59.962514955087215,
,,,C,G,g,v,R,G,y,L,y,,,,,5,19,119,13,3,0,3,0,,,,,1,35,71,28,,,,,,down,0.6839006644122492,2423.75974983481,None,001,16,2019_Oct_09_1400,ACPT_experiment_5_30_19,3.1.0,59.962514955087215,
,,,C,G,g,v,,,,,,,,,,5,19,119,13,4,0,4,0,0,0,0,0,,,,,,,,,,,,,,001,16,2019_Oct_09_1400,ACPT_experiment_5_30_19,3.1.0,59.962514955087215,
,,,C,G,g,v,R,G,g,R,c ,,,,,5,19,119,13,4,0,4,0,,,,,0,0,0,7,,,,,,up,1.1475490446146068,2439.6251168555423,None,001,16,2019_Oct_09_1400,ACPT_experiment_5_30_19,3.1.0,59.962514955087215,
,,,C,G,g,v,L,D,g,L,i,,,,,5,19,119,13,4,0,4,0,,,,,0,1,1,14,,,,,,down,0.9340577043763005,2442.05696785035,None,001,16,2019_Oct_09_1400,ACPT_experiment_5_30_19,3.1.0,59.962514955087215,
,,,C,G,g,v,R,D,g,R,i,,,,,5,19,119,13,4,0,4,0,,,,,0,2,2,3,,,,,,down,1.434427023732951,2444.2753214678232,None,001,16,2019_Oct_09_1400,ACPT_experiment_5_30_19,3.1.0,59.962514955087215,
,,,C,G,g,v,R,G,g,L,c ,,,,,5,19,119,13,4,0,4,0,,,,,0,3,3,6,,,,,,up,1.0507873731721702,2446.994059799248,None,001,16,2019_Oct_09_1400,ACPT_experiment_5_30_19,3.1.0,59.962514955087215,
,,,C,G,g,v,L,G,d,R,i,,,,,5,19,119,13,4,0,4,0,,,,,0,4,4,17,,,,,,down,1.1508718623326786,2449.32915515971,None,001,16,2019_Oct_09_1400,ACPT_experiment_5_30_19,3.1.0,59.962514955087215,
,,,C,G,g,v,L,U,y,R,u,,,,,5,19,119,13,4,0,4,0,,,,,0,5,5,25,,,,,,down,0.8506775583932722,2451.7643241425585,None,001,16,2019_Oct_09_1400,ACPT_experiment_5_30_19,3.1.0,59.962514955087215,
,,,C,G,g,v,L,G,g,L,c ,,,,,5,19,119,13,4,0,4,0,,,,,0,6,6,18,,,,,,up,0.9340531765542437,2453.899311197515,None,001,16,2019_Oct_09_1400,ACPT_experiment_5_30_19,3.1.0,59.962514955087215,
,,,C,G,g,v,R,G,d,L,i,,,,,5,19,119,13,4,0,4,0,,,,,0,7,7,4,,,,,,down,1.1840677410486933,2456.134455186786,None,001,16,2019_Oct_09_1400,ACPT_experiment_5_30_19,3.1.0,59.962514955087215,
,,,C,G,g,v,R,G,y,L,y,,,,,5,19,119,13,4,0,4,0,,,,,0,8,8,28,,,,,,down,1.0174215501992876,2458.6195545770092,None,001,16,2019_Oct_09_1400,ACPT_experiment_5_30_19,3.1.0,59.962514955087215,
,,,C,G,g,v,R,D,y,R,y,,,,,5,19,119,13,4,0,4,0,,,,,0,9,9,27,,,,,,down,0.8339499723952031,2460.9379763834836,None,001,16,2019_Oct_09_1400,ACPT_experiment_5_30_19,3.1.0,59.962514955087215,
,,,C,G,g,v,L,U,g,L,u,,,,,5,19,119,13,4,0,4,0,,,,,0,10,10,22,,,,,,down,0.8840328164469611,2463.0562355505876,None,001,16,2019_Oct_09_1400,ACPT_experiment_5_30_19,3.1.0,59.962514955087215,
,,,C,G,g,v,L,G,g,R,c ,,,,,5,19,119,13,4,0,4,0,,,,,0,11,11,19,,,,,,up,0.967399982673669,2465.224556733762,None,001,16,2019_Oct_09_1400,ACPT_experiment_5_30_19,3.1.0,59.962514955087215,
,,,C,G,g,v,R,U,g,L,u,,,,,5,19,119,13,4,0,4,0,,,,,0,12,12,10,,,,,,down,1.000757957420774,2467.4762622888866,None,001,16,2019_Oct_09_1400,ACPT_experiment_5_30_19,3.1.0,59.962514955087215,
,,,C,G,g,v,R,U,d,L,u,,,,,5,19,119,13,4,0,4,0,,,,,0,13,13,8,,,,,,down,0.3836405561251013,2469.7446332479185,None,001,16,2019_Oct_09_1400,ACPT_experiment_5_30_19,3.1.0,59.962514955087215,
,,,C,G,g,v,R,U,d,R,u,,,,,5,19,119,13,4,0,4,0,,,,,0,14,14,9,,,,,,down,0.3502493773489732,2471.412593865525,None,001,16,2019_Oct_09_1400,ACPT_experiment_5_30_19,3.1.0,59.962514955087215,
,,,C,G,g,v,R,U,g,R,u,,,,,5,19,119,13,4,0,4,0,,,,,0,15,15,11,,,,,,down,0.4336240899456243,2473.0471874527407,None,001,16,2019_Oct_09_1400,ACPT_experiment_5_30_19,3.1.0,59.962514955087215,
,,,C,G,g,v,L,G,y,L,y,,,,,5,19,119,13,4,0,4,0,,,,,0,16,16,34,,,,,,down,1.1842343649018403,2474.7651294911843,None,001,16,2019_Oct_09_1400,ACPT_experiment_5_30_19,3.1.0,59.962514955087215,
,,,C,G,g,v,R,G,d,R,i,,,,,5,19,119,13,4,0,4,0,,,,,0,17,17,5,,,,,,down,1.4008148872376296,2477.2505965405626,None,001,16,2019_Oct_09_1400,ACPT_experiment_5_30_19,3.1.0,59.962514955087215,
,,,C,G,g,v,L,D,d,R,c ,,,,,5,19,119,13,4,0,4,0,,,,,0,18,18,13,,,,,,up,0.9173584927302727,2479.935723641057,None,001,16,2019_Oct_09_1400,ACPT_experiment_5_30_19,3.1.0,59.962514955087215,
,,,C,G,g,v,L,D,d,L,c ,,,,,5,19,119,13,4,0,4,0,,,,,0,19,19,12,,,,,,up,0.6504934873319144,2482.137394648899,None,001,16,2019_Oct_09_1400,ACPT_experiment_5_30_19,3.1.0,59.962514955087215,
,,,C,G,g,v,R,G,y,R,y,,,,,5,19,119,13,4,0,4,0,,,,,0,20,20,29,,,,,,down,0.8006276165151576,2484.0888708849266,None,001,16,2019_Oct_09_1400,ACPT_experiment_5_30_19,3.1.0,59.962514955087215,
,,,C,G,g,v,L,U,y,L,u,,,,,5,19,119,13,4,0,4,0,,,,,0,21,21,24,,,,,,down,0.8172824555044826,2486.173791094136,None,001,16,2019_Oct_09_1400,ACPT_experiment_5_30_19,3.1.0,59.962514955087215,
,,,C,G,g,v,L,U,g,R,u,,,,,5,19,119,13,4,0,4,0,,,,,0,22,22,23,,,,,,down,0.5670952300602039,2488.258708888507,None,001,16,2019_Oct_09_1400,ACPT_experiment_5_30_19,3.1.0,59.962514955087215,
,,,C,G,g,v,L,U,d,R,u,,,,,5,19,119,13,4,0,4,0,,,,,0,23,23,21,,,,,,down,0.35027231831463723,2490.0934243646934,None,001,16,2019_Oct_09_1400,ACPT_experiment_5_30_19,3.1.0,59.962514955087215,
,,,C,G,g,v,R,D,d,L,c,,,,,5,19,119,13,4,0,4,0,,,,,0,24,24,0,,,,,,up,1.1476601271833715,2491.748011003211,None,001,16,2019_Oct_09_1400,ACPT_experiment_5_30_19,3.1.0,59.962514955087215,
,,,C,G,g,v,R,D,y,L,y,,,,,5,19,119,13,4,0,4,0,,,,,0,25,25,26,,,,,,down,0.9173678502293114,2494.1798647147125,None,001,16,2019_Oct_09_1400,ACPT_experiment_5_30_19,3.1.0,59.962514955087215,
,,,C,G,g,v,L,D,g,R,i,,,,,5,19,119,13,4,0,4,0,,,,,0,26,26,15,,,,,,down,1.0508248031678704,2496.3815161019916,None,001,16,2019_Oct_09_1400,ACPT_experiment_5_30_19,3.1.0,59.962514955087215,
,,,C,G,g,v,L,G,d,L,i,,,,,5,19,119,13,4,0,4,0,,,,,0,27,27,16,,,,,,down,1.2343039273423528,2498.716644666482,None,001,16,2019_Oct_09_1400,ACPT_experiment_5_30_19,3.1.0,59.962514955087215,
,,,C,G,g,v,L,G,y,R,y,,,,,5,19,119,13,4,0,4,0,,,,,0,28,28,35,,,,,,down,0.8339934394875854,2501.218522656165,None,001,16,2019_Oct_09_1400,ACPT_experiment_5_30_19,3.1.0,59.962514955087215,
,,,C,G,g,v,R,U,y,L,u,,,,,5,19,119,13,4,0,4,0,,,,,0,29,29,30,,,,,,down,0.8840077624981859,2503.336814121734,None,001,16,2019_Oct_09_1400,ACPT_experiment_5_30_19,3.1.0,59.962514955087215,
,,,C,G,g,v,L,D,y,L,y,,,,,5,19,119,13,4,0,4,0,,,,,0,30,30,32,,,,,,down,0.7672485119314842,2505.5051277585376,None,001,16,2019_Oct_09_1400,ACPT_experiment_5_30_19,3.1.0,59.962514955087215,
,,,C,G,g,v,R,D,g,L,i,,,,,5,19,119,13,4,0,4,0,,,,,0,31,31,2,,,,,,down,1.1508667308007716,2507.556689993,None,001,16,2019_Oct_09_1400,ACPT_experiment_5_30_19,3.1.0,59.962514955087215,
,,,C,G,g,v,L,D,y,R,y,,,,,5,19,119,13,4,0,4,0,,,,,0,32,32,33,,,,,,down,0.7505435650436993,2509.9918964058447,None,001,16,2019_Oct_09_1400,ACPT_experiment_5_30_19,3.1.0,59.962514955087215,
,,,C,G,g,v,R,U,y,R,u,,,,,5,19,119,13,4,0,4,0,,,,,0,33,33,31,,,,,,down,0.5671405082812271,2512.0267431285015,None,001,16,2019_Oct_09_1400,ACPT_experiment_5_30_19,3.1.0,59.962514955087215,
,,,C,G,g,v,L,U,d,L,u,,,,,5,19,119,13,4,0,4,0,,,,,0,34,34,20,,,,,,down,0.4336458234915881,2513.878181662864,None,001,16,2019_Oct_09_1400,ACPT_experiment_5_30_19,3.1.0,59.962514955087215,
,,,C,G,g,v,R,D,d,R,c ,,,,,5,19,119,13,4,0,4,0,,,,,0,35,35,1,,,,,,down,1.2009311617093772,2515.596097138084,None,001,16,2019_Oct_09_1400,ACPT_experiment_5_30_19,3.1.0,59.962514955087215,
,,,C,G,g,v,L,G,y,R,y,,,,,5,19,119,13,4,0,4,0,,,,,1,0,36,35,,,,,,down,0.9340519691345435,2518.0813323629704,None,001,16,2019_Oct_09_1400,ACPT_experiment_5_30_19,3.1.0,59.962514955087215,
,,,C,G,g,v,R,D,g,R,i,,,,,5,19,119,13,4,0,4,0,,,,,1,1,37,3,,,,,,down,0.9674066234792917,2520.299699865765,None,001,16,2019_Oct_09_1400,ACPT_experiment_5_30_19,3.1.0,59.962514955087215,
,,,C,G,g,v,L,U,g,R,u,,,,,5,19,119,13,4,0,4,0,,,,,1,2,38,23,,,,,,down,0.6004441491631951,2522.5514036097607,None,001,16,2019_Oct_09_1400,ACPT_experiment_5_30_19,3.1.0,59.962514955087215,
,,,C,G,g,v,L,D,g,L,i,,,,,5,19,119,13,4,0,4,0,,,,,1,3,39,14,,,,,,down,1.2175962637620614,2524.4361705370993,None,001,16,2019_Oct_09_1400,ACPT_experiment_5_30_19,3.1.0,59.962514955087215,
,,,C,G,g,v,R,D,d,L,c,,,,,5,19,119,13,4,0,4,0,,,,,1,4,40,0,,,,,,up,0.733871218475997,2526.938067543635,None,001,16,2019_Oct_09_1400,ACPT_experiment_5_30_19,3.1.0,59.962514955087215,
,,,C,G,g,v,R,U,d,R,u,,,,,5,19,119,13,4,0,4,0,,,,,1,5,41,9,,,,,,down,0.8673004007728196,2528.956273614479,None,001,16,2019_Oct_09_1400,ACPT_experiment_5_30_19,3.1.0,59.962514955087215,
,,,C,G,g,v,R,D,y,R,y,,,,,5,19,119,13,4,0,4,0,,,,,1,6,42,27,,,,,,down,0.9505169414501324,2531.124743310218,None,001,16,2019_Oct_09_1400,ACPT_experiment_5_30_19,3.1.0,59.962514955087215,
,,,C,G,g,v,L,G,g,R,c ,,,,,5,19,119,13,4,0,4,0,,,,,1,7,43,19,,,,,,up,1.117536526695858,2533.3762873730207,None,001,16,2019_Oct_09_1400,ACPT_experiment_5_30_19,3.1.0,59.962514955087215,
,,,C,G,g,v,L,U,g,L,u,,,,,5,19,119,13,4,0,4,0,,,,,1,8,44,22,,,,,,down,2.13498131971528,2535.778103814509,None,001,16,2019_Oct_09_1400,ACPT_experiment_5_30_19,3.1.0,59.962514955087215,
,,,C,G,g,v,L,U,y,R,u,,,,,5,19,119,13,4,0,4,0,,,,,1,9,45,25,,,,,,down,0.6338341205205325,2539.1973493525666,None,001,16,2019_Oct_09_1400,ACPT_experiment_5_30_19,3.1.0,59.962514955087215,
,,,C,G,g,v,L,U,d,L,u,,,,,5,19,119,13,4,0,4,0,,,,,1,10,46,20,,,,,,down,0.4003005266463333,2541.1321689384763,None,001,16,2019_Oct_09_1400,ACPT_experiment_5_30_19,3.1.0,59.962514955087215,
,,,C,G,g,v,L,D,y,R,y,,,,,5,19,119,13,4,0,4,0,,,,,1,11,47,33,,,,,,down,0.9006855424527203,2542.8167822820888,None,001,16,2019_Oct_09_1400,ACPT_experiment_5_30_19,3.1.0,59.962514955087215,
,,,C,G,g,v,R,G,d,L,i,,,,,5,19,119,13,4,0,4,0,,,,,1,12,48,4,,,,,,down,1.0005901261479266,2545.0185912375773,None,001,16,2019_Oct_09_1400,ACPT_experiment_5_30_19,3.1.0,59.962514955087215,
,,,C,G,g,v,R,U,g,L,u,,,,,5,19,119,13,4,0,4,0,,,,,1,13,49,10,,,,,,down,0.5837874990456839,2547.303500519643,None,001,16,2019_Oct_09_1400,ACPT_experiment_5_30_19,3.1.0,59.962514955087215,
,,,C,G,g,v,R,G,g,R,c ,,,,,5,19,119,13,4,0,4,0,,,,,1,14,50,7,,,,,,up,1.1174749483147934,2549.1716391712152,None,001,16,2019_Oct_09_1400,ACPT_experiment_5_30_19,3.1.0,59.962514955087215,
,,,C,G,g,v,L,D,y,L,y,,,,,5,19,119,13,4,0,4,0,,,,,1,15,51,32,,,,,,down,0.7505873339914615,2551.5734269364966,None,001,16,2019_Oct_09_1400,ACPT_experiment_5_30_19,3.1.0,59.962514955087215,
,,,C,G,g,v,L,G,g,L,c ,,,,,5,19,119,13,4,0,4,0,,,,,1,16,52,18,,,,,,up,0.9840825923047305,2553.6082999205214,None,001,16,2019_Oct_09_1400,ACPT_experiment_5_30_19,3.1.0,59.962514955087215,
,,,C,G,g,v,R,D,d,R,c ,,,,,5,19,119,13,4,0,4,0,,,,,1,17,53,1,,,,,,up,2.418508408618436,2555.8766901982613,None,001,16,2019_Oct_09_1400,ACPT_experiment_5_30_19,3.1.0,59.962514955087215,
,,,C,G,g,v,R,D,g,L,i,,,,,5,19,119,13,4,0,4,0,,,,,1,18,54,2,,,,,,down,0.6838273136945645,2559.5795198757805,None,001,16,2019_Oct_09_1400,ACPT_experiment_5_30_19,3.1.0,59.962514955087215,
,,,C,G,g,v,L,U,y,L,u,,,,,5,19,119,13,4,0,4,0,,,,,1,19,55,24,,,,,,down,0.6171545294373573,2561.547642197008,None,001,16,2019_Oct_09_1400,ACPT_experiment_5_30_19,3.1.0,59.962514955087215,
,,,C,G,g,v,L,D,d,R,c ,,,,,5,19,119,13,4,0,4,0,,,,,1,20,56,13,,,,,,up,0.9507185804613982,2563.4491077322823,None,001,16,2019_Oct_09_1400,ACPT_experiment_5_30_19,3.1.0,59.962514955087215,
,,,C,G,g,v,R,U,g,R,u,,,,,5,19,119,13,4,0,4,0,,,,,1,21,57,11,,,,,,down,0.8006079959527597,2565.6841339981784,None,001,16,2019_Oct_09_1400,ACPT_experiment_5_30_19,3.1.0,59.962514955087215,
,,,C,G,g,v,R,U,y,L,u,,,,,5,19,119,13,4,0,4,0,,,,,1,22,58,30,,,,,,down,0.38363451902932866,2567.7690303608583,None,001,16,2019_Oct_09_1400,ACPT_experiment_5_30_19,3.1.0,59.962514955087215,
,,,C,G,g,v,R,G,g,L,c ,,,,,5,19,119,13,4,0,4,0,,,,,1,23,59,6,,,,,,up,0.9507143544938117,2569.453663928743,None,001,16,2019_Oct_09_1400,ACPT_experiment_5_30_19,3.1.0,59.962514955087215,
,,,C,G,g,v,R,G,d,R,i,,,,,5,19,119,13,4,0,4,0,,,,,1,24,60,5,,,,,,down,0.7839428939000754,2571.68868898722,None,001,16,2019_Oct_09_1400,ACPT_experiment_5_30_19,3.1.0,59.962514955087215,
,,,C,G,g,v,L,G,y,L,y,,,,,5,19,119,13,4,0,4,0,,,,,1,25,61,34,,,,,,down,0.8006104107907959,2573.756928096072,None,001,16,2019_Oct_09_1400,ACPT_experiment_5_30_19,3.1.0,59.962514955087215,
,,,C,G,g,v,R,U,y,R,u,,,,,5,19,119,13,4,0,4,0,,,,,1,26,62,31,,,,,,down,0.6338262722952095,2575.8418289865735,None,001,16,2019_Oct_09_1400,ACPT_experiment_5_30_19,3.1.0,59.962514955087215,
,,,C,G,g,v,L,D,g,R,i,,,,,5,19,119,13,4,0,4,0,,,,,1,27,63,15,,,,,,down,2.6186586719413754,2577.7599647554325,None,001,16,2019_Oct_09_1400,ACPT_experiment_5_30_19,3.1.0,59.962514955087215,
,,,C,G,g,v,L,D,d,L,c ,,,,,5,19,119,13,4,0,4,0,,,,,1,28,64,12,,,,,,up,1.0508133326852658,2581.6629311128086,None,001,16,2019_Oct_09_1400,ACPT_experiment_5_30_19,3.1.0,59.962514955087215,
,,,C,G,g,v,L,U,d,R,u,,,,,5,19,119,13,4,0,4,0,,,,,1,29,65,21,,,,,,down,0.5670952300602039,2583.998037340043,None,001,16,2019_Oct_09_1400,ACPT_experiment_5_30_19,3.1.0,59.962514955087215,
,,,C,G,g,v,R,G,y,R,y,,,,,5,19,119,13,4,0,4,0,,,,,1,30,66,29,,,,,,down,0.8339783467472444,2585.8661005279137,None,001,16,2019_Oct_09_1400,ACPT_experiment_5_30_19,3.1.0,59.962514955087215,
,,,C,G,g,v,L,G,d,L,i,,,,,5,19,119,13,4,0,4,0,,,,,1,31,67,16,,,,,,down,1.2175853969888522,2588.0010779235163,None,001,16,2019_Oct_09_1400,ACPT_experiment_5_30_19,3.1.0,59.962514955087215,
,,,C,G,g,v,R,D,y,L,y,,,,,5,19,119,13,4,0,4,0,,,,,1,32,68,26,,,,,,down,0.6838861753817582,2590.5029707040853,None,001,16,2019_Oct_09_1400,ACPT_experiment_5_30_19,3.1.0,59.962514955087215,
,,,C,G,g,v,R,U,d,L,u,,,,,5,19,119,13,4,0,4,0,,,,,1,33,69,8,,,,,,down,0.650485035397196,2592.4711383035337,None,001,16,2019_Oct_09_1400,ACPT_experiment_5_30_19,3.1.0,59.962514955087215,
,,,C,G,g,v,L,G,d,R,i,,,,,5,19,119,13,4,0,4,0,,,,,1,34,70,17,,,,,,down,0.9006819201949838,2594.4059340429135,None,001,16,2019_Oct_09_1400,ACPT_experiment_5_30_19,3.1.0,59.962514955087215,
,,,C,G,g,v,R,G,y,L,y,,,,,5,19,119,13,4,0,4,0,,,,,1,35,71,28,,,,,,down,0.7172061164233128,2596.5909287800746,None,001,16,2019_Oct_09_1400,ACPT_experiment_5_30_19,3.1.0,59.962514955087215,
,,,C,G,g,v,,,,,,,,,,5,19,119,13,5,0,5,0,0,0,0,0,,,,,,,,,,,,,,001,16,2019_Oct_09_1400,ACPT_experiment_5_30_19,3.1.0,59.962514955087215,
,,,C,G,g,v,L,D,y,L,y,,,,,5,19,119,13,5,0,5,0,,,,,0,0,0,32,,,,,,down,0.7473330373145473,2606.485093353127,None,001,16,2019_Oct_09_1400,ACPT_experiment_5_30_19,3.1.0,59.962514955087215,
,,,C,G,g,v,L,G,y,R,y,,,,,5,19,119,13,5,0,5,0,,,,,0,1,1,35,,,,,,down,0.7672602842685592,2608.533311036325,None,001,16,2019_Oct_09_1400,ACPT_experiment_5_30_19,3.1.0,59.962514955087215,
,,,C,G,g,v,R,D,g,R,i,,,,,5,19,119,13,5,0,5,0,,,,,0,2,2,3,,,,,,down,1.0674271194206995,2610.6015821417864,None,001,16,2019_Oct_09_1400,ACPT_experiment_5_30_19,3.1.0,59.962514955087215,
,,,C,G,g,v,R,U,y,L,u,,,,,5,19,119,13,5,0,5,0,,,,,0,3,3,30,,,,,,down,0.9837230832295063,2612.9702657922135,None,001,16,2019_Oct_09_1400,ACPT_experiment_5_30_19,3.1.0,59.962514955087215,
,,,C,G,g,v,L,D,d,L,c ,,,,,5,19,119,13,5,0,5,0,,,,,0,4,4,12,,,,,,up,1.2510496246286493,2615.238415793526,None,001,16,2019_Oct_09_1400,ACPT_experiment_5_30_19,3.1.0,59.962514955087215,
,,,C,G,g,v,R,G,d,R,i,,,,,5,19,119,13,5,0,5,0,,,,,0,5,5,5,,,,,,down,1.067481151431366,2617.7736722840837,None,001,16,2019_Oct_09_1400,ACPT_experiment_5_30_19,3.1.0,59.962514955087215,
,,,C,G,g,v,R,G,y,R,y,,,,,5,19,119,13,5,0,5,0,,,,,0,6,6,29,,,,,,down,0.9841019110122033,2620.1087576833365,None,001,16,2019_Oct_09_1400,ACPT_experiment_5_30_19,3.1.0,59.962514955087215,
,,,C,G,g,v,L,U,g,R,u,,,,,5,19,119,13,5,0,5,0,,,,,0,7,7,23,,,,,,down,0.43366272736057,2622.377160940833,None,001,16,2019_Oct_09_1400,ACPT_experiment_5_30_19,3.1.0,59.962514955087215,
,,,C,G,g,v,L,G,d,L,i,,,,,5,19,119,13,5,0,5,0,,,,,0,8,8,16,,,,,,down,1.0674868866726683,2624.095154294594,None,001,16,2019_Oct_09_1400,ACPT_experiment_5_30_19,3.1.0,59.962514955087215,
,,,C,G,g,v,R,G,g,R,c ,,,,,5,19,119,13,5,0,5,0,,,,,0,9,9,7,,,,,,up,0.8172921148579917,2626.4469159645273,None,001,16,2019_Oct_09_1400,ACPT_experiment_5_30_19,3.1.0,59.962514955087215,
,,,C,G,g,v,L,G,d,R,i,,,,,5,19,119,13,5,0,5,0,,,,,0,10,10,17,,,,,,down,0.8840349294309817,2628.5485058036115,None,001,16,2019_Oct_09_1400,ACPT_experiment_5_30_19,3.1.0,59.962514955087215,
,,,C,G,g,v,R,D,y,R,y,,,,,5,19,119,13,5,0,5,0,,,,,0,11,11,27,,,,,,down,0.8172912092936713,2630.716824873802,None,001,16,2019_Oct_09_1400,ACPT_experiment_5_30_19,3.1.0,59.962514955087215,
,,,C,G,g,v,R,G,d,L,i,,,,,5,19,119,13,5,0,5,0,,,,,0,12,12,4,,,,,,down,1.26760515338583,2632.818444294657,None,001,16,2019_Oct_09_1400,ACPT_experiment_5_30_19,3.1.0,59.962514955087215,
,,,C,G,g,v,L,U,y,R,u,,,,,5,19,119,13,5,0,5,0,,,,,0,13,13,25,,,,,,down,0.5670991541728654,2635.370358944607,None,001,16,2019_Oct_09_1400,ACPT_experiment_5_30_19,3.1.0,59.962514955087215,
,,,C,G,g,v,R,D,d,L,c,,,,,5,19,119,13,5,0,5,0,,,,,0,14,14,0,,,,,,up,1.384407871044914,2637.2217467673613,None,001,16,2019_Oct_09_1400,ACPT_experiment_5_30_19,3.1.0,59.962514955087215,
,,,C,G,g,v,R,D,g,L,i,,,,,5,19,119,13,5,0,5,0,,,,,0,15,15,2,,,,,,down,0.8339668762646397,2639.8737800160648,None,001,16,2019_Oct_09_1400,ACPT_experiment_5_30_19,3.1.0,59.962514955087215,
,,,C,G,g,v,R,U,g,L,u,,,,,5,19,119,13,5,0,5,0,,,,,0,16,16,10,,,,,,down,0.7839148214029592,2641.9920696705044,None,001,16,2019_Oct_09_1400,ACPT_experiment_5_30_19,3.1.0,59.962514955087215,
,,,C,G,g,v,L,D,g,R,i,,,,,5,19,119,13,5,0,5,0,,,,,0,17,17,15,,,,,,down,1.2676350370120417,2644.060282819843,None,001,16,2019_Oct_09_1400,ACPT_experiment_5_30_19,3.1.0,59.962514955087215,
,,,C,G,g,v,R,U,d,R,u,,,,,5,19,119,13,5,0,5,0,,,,,0,18,18,9,,,,,,down,0.36693953335088736,2646.61222493858,None,001,16,2019_Oct_09_1400,ACPT_experiment_5_30_19,3.1.0,59.962514955087215,
,,,C,G,g,v,L,G,y,L,y,,,,,5,19,119,13,5,0,5,0,,,,,0,19,19,34,,,,,,down,0.8172933222772372,2648.263472761075,None,001,16,2019_Oct_09_1400,ACPT_experiment_5_30_19,3.1.0,59.962514955087215,
,,,C,G,g,v,R,G,y,L,y,,,,,5,19,119,13,5,0,5,0,,,,,0,20,20,28,,,,,,down,0.9173747928898592,2650.3817358522915,None,001,16,2019_Oct_09_1400,ACPT_experiment_5_30_19,3.1.0,59.962514955087215,
,,,C,G,g,v,L,U,d,L,u,,,,,5,19,119,13,5,0,5,0,,,,,0,21,21,20,,,,,,down,0.6171225328275796,2652.600106675489,None,001,16,2019_Oct_09_1400,ACPT_experiment_5_30_19,3.1.0,59.962514955087215,
,,,C,G,g,v,R,G,g,L,c ,,,,,5,19,119,13,5,0,5,0,,,,,0,22,22,6,,,,,,down,1.0841483664676161,2654.50155379762,None,001,16,2019_Oct_09_1400,ACPT_experiment_5_30_19,3.1.0,59.962514955087215,
,,,C,G,g,v,R,D,d,R,c ,,,,,5,19,119,13,5,0,5,0,,,,,0,23,23,1,,,,,,up,0.8673523197994655,2656.8700155847637,None,001,16,2019_Oct_09_1400,ACPT_experiment_5_30_19,3.1.0,59.962514955087215,
,,,C,G,g,v,R,U,d,L,u,,,,,5,19,119,13,5,0,5,0,,,,,0,24,24,8,,,,,,down,0.9673930400131212,2659.021649932339,None,001,16,2019_Oct_09_1400,ACPT_experiment_5_30_19,3.1.0,59.962514955087215,
,,,C,G,g,v,L,D,g,L,i,,,,,5,19,119,13,5,0,5,0,,,,,0,25,25,14,,,,,,down,1.5011396528248042,2661.2733554874635,None,001,16,2019_Oct_09_1400,ACPT_experiment_5_30_19,3.1.0,59.962514955087215,
,,,C,G,g,v,L,G,g,L,c ,,,,,5,19,119,13,5,0,5,0,,,,,0,26,26,18,,,,,,up,1.13419498794201,2664.0588010145943,None,001,16,2019_Oct_09_1400,ACPT_experiment_5_30_19,3.1.0,59.962514955087215,
,,,C,G,g,v,L,D,y,R,y,,,,,5,19,119,13,5,0,5,0,,,,,0,27,27,33,,,,,,down,0.7005226012279309,2666.4773124417607,None,001,16,2019_Oct_09_1400,ACPT_experiment_5_30_19,3.1.0,59.962514955087215,
,,,C,G,g,v,R,U,y,R,u,,,,,5,19,119,13,5,0,5,0,,,,,0,28,28,31,,,,,,down,0.7337076131707363,2668.4789820006995,None,001,16,2019_Oct_09_1400,ACPT_experiment_5_30_19,3.1.0,59.962514955087215,
,,,C,G,g,v,R,U,g,R,u,,,,,5,19,119,13,5,0,5,0,,,,,0,29,29,11,,,,,,down,0.5003762620171983,2670.5137028499016,None,001,16,2019_Oct_09_1400,ACPT_experiment_5_30_19,3.1.0,59.962514955087215,
,,,C,G,g,v,L,U,y,L,u,,,,,5,19,119,13,5,0,5,0,,,,,0,30,30,24,,,,,,down,0.4169958141792449,2672.315045560455,None,001,16,2019_Oct_09_1400,ACPT_experiment_5_30_19,3.1.0,59.962514955087215,
,,,C,G,g,v,R,D,y,L,y,,,,,5,19,119,13,5,0,5,0,,,,,0,31,31,26,,,,,,down,1.1008228260188844,2674.0330428383286,None,001,16,2019_Oct_09_1400,ACPT_experiment_5_30_19,3.1.0,59.962514955087215,
,,,C,G,g,v,L,U,g,L,u,,,,,5,19,119,13,5,0,5,0,,,,,0,32,32,22,,,,,,down,1.4677593408214307,2676.4182086667947,None,001,16,2019_Oct_09_1400,ACPT_experiment_5_30_19,3.1.0,59.962514955087215,
,,,C,G,g,v,L,D,d,R,c ,,,,,5,19,119,13,5,0,5,0,,,,,0,33,33,13,,,,,,up,1.2342661954917276,2679.1702717689386,None,001,16,2019_Oct_09_1400,ACPT_experiment_5_30_19,3.1.0,59.962514955087215,
,,,C,G,g,v,L,U,d,R,u,,,,,5,19,119,13,5,0,5,0,,,,,0,34,34,21,,,,,,down,0.58377723598187,2681.672185377489,None,001,16,2019_Oct_09_1400,ACPT_experiment_5_30_19,3.1.0,59.962514955087215,
,,,C,G,g,v,L,G,g,R,c ,,,,,5,19,119,13,5,0,5,0,,,,,0,35,35,19,,,,,,up,0.9674020956572349,2683.5402527913266,None,001,16,2019_Oct_09_1400,ACPT_experiment_5_30_19,3.1.0,59.962514955087215,
,,,C,G,g,v,R,D,y,L,y,,,,,5,19,119,13,5,0,5,0,,,,,1,0,36,26,,,,,,down,0.7339128744397385,2685.791941744437,None,001,16,2019_Oct_09_1400,ACPT_experiment_5_30_19,3.1.0,59.962514955087215,
,,,C,G,g,v,L,U,d,R,u,,,,,5,19,119,13,5,0,5,0,,,,,1,1,37,21,,,,,,down,1.4677768484002627,2687.8101617006014,None,001,16,2019_Oct_09_1400,ACPT_experiment_5_30_19,3.1.0,59.962514955087215,
,,,C,G,g,v,L,G,d,L,i,,,,,5,19,119,13,5,0,5,0,,,,,1,2,38,16,,,,,,down,1.1508975199913039,2690.5622447251626,None,001,16,2019_Oct_09_1400,ACPT_experiment_5_30_19,3.1.0,59.962514955087215,
,,,C,G,g,v,R,D,g,L,i,,,,,5,19,119,13,5,0,5,0,,,,,1,3,39,2,,,,,,down,1.0841444423549547,2692.997442686073,None,001,16,2019_Oct_09_1400,ACPT_experiment_5_30_19,3.1.0,59.962514955087215,
,,,C,G,g,v,L,D,g,L,i,,,,,5,19,119,13,5,0,5,0,,,,,1,4,40,14,,,,,,down,0.7172082294068787,2695.3492167320533,None,001,16,2019_Oct_09_1400,ACPT_experiment_5_30_19,3.1.0,59.962514955087215,
,,,C,G,g,v,R,G,g,L,c ,,,,,5,19,119,13,5,0,5,0,,,,,1,5,41,6,,,,,,up,1.2675918717741297,2697.3507700768914,None,001,16,2019_Oct_09_1400,ACPT_experiment_5_30_19,3.1.0,59.962514955087215,
,,,C,G,g,v,R,G,d,R,i,,,,,5,19,119,13,5,0,5,0,,,,,1,6,42,5,,,,,,down,0.6838378786128487,2699.9026868398246,None,001,16,2019_Oct_09_1400,ACPT_experiment_5_30_19,3.1.0,59.962514955087215,
,,,C,G,g,v,L,U,g,R,u,,,,,5,19,119,13,5,0,5,0,,,,,1,7,43,23,,,,,,down,0.6172010150776259,2701.8708115758905,None,001,16,2019_Oct_09_1400,ACPT_experiment_5_30_19,3.1.0,59.962514955087215,
,,,C,G,g,v,L,D,g,R,i,,,,,5,19,119,13,5,0,5,0,,,,,1,8,44,15,,,,,,down,1.2009227097746589,2703.7722713759235,None,001,16,2019_Oct_09_1400,ACPT_experiment_5_30_19,3.1.0,59.962514955087215,
,,,C,G,g,v,R,D,d,R,c ,,,,,5,19,119,13,5,0,5,0,,,,,1,9,45,1,,,,,,up,0.7172109461007494,2706.2574945266174,None,001,16,2019_Oct_09_1400,ACPT_experiment_5_30_19,3.1.0,59.962514955087215,
,,,C,G,g,v,L,D,d,R,c ,,,,,5,19,119,13,5,0,5,0,,,,,1,10,46,13,,,,,,up,0.7171982681988993,2708.2590231193612,None,001,16,2019_Oct_09_1400,ACPT_experiment_5_30_19,3.1.0,59.962514955087215,
,,,C,G,g,v,R,G,d,L,i,,,,,5,19,119,13,5,0,5,0,,,,,1,11,47,4,,,,,,down,1.184213838775122,2710.2605499009765,None,001,16,2019_Oct_09_1400,ACPT_experiment_5_30_19,3.1.0,59.962514955087215,
,,,C,G,g,v,L,G,d,R,i,,,,,5,19,119,13,5,0,5,0,,,,,1,12,48,17,,,,,,down,0.6171186087153728,2712.7290856123623,None,001,16,2019_Oct_09_1400,ACPT_experiment_5_30_19,3.1.0,59.962514955087215,
,,,C,G,g,v,R,G,y,L,y,,,,,5,19,119,13,5,0,5,0,,,,,1,13,49,28,,,,,,down,0.934035970829882,2714.6638744090815,None,001,16,2019_Oct_09_1400,ACPT_experiment_5_30_19,3.1.0,59.962514955087215,
,,,C,G,g,v,R,U,y,L,u,,,,,5,19,119,13,5,0,5,0,,,,,1,14,50,30,,,,,,down,0.5670913059479972,2716.8989055046545,None,001,16,2019_Oct_09_1400,ACPT_experiment_5_30_19,3.1.0,59.962514955087215,
,,,C,G,g,v,R,U,g,R,u,,,,,5,19,119,13,5,0,5,0,,,,,1,15,51,11,,,,,,down,0.3836474987856491,2718.73360649181,None,001,16,2019_Oct_09_1400,ACPT_experiment_5_30_19,3.1.0,59.962514955087215,
,,,C,G,g,v,L,G,y,R,y,,,,,5,19,119,13,5,0,5,0,,,,,1,16,52,35,,,,,,down,0.9337727534380065,2720.418515351279,None,001,16,2019_Oct_09_1400,ACPT_experiment_5_30_19,3.1.0,59.962514955087215,
,,,C,G,g,v,R,U,g,L,u,,,,,5,19,119,13,5,0,5,0,,,,,1,17,53,10,,,,,,down,1.3176436247808851,2722.6366145051497,None,001,16,2019_Oct_09_1400,ACPT_experiment_5_30_19,3.1.0,59.962514955087215,
,,,C,G,g,v,R,G,y,R,y,,,,,5,19,119,13,5,0,5,0,,,,,1,18,54,29,,,,,,down,1.1675019492276988,2725.2386192436666,None,001,16,2019_Oct_09_1400,ACPT_experiment_5_30_19,3.1.0,59.962514955087215,
,,,C,G,g,v,L,G,y,L,y,,,,,5,19,119,13,5,0,5,0,,,,,1,19,55,34,,,,,,down,0.6838375767579237,2727.6904382358275,None,001,16,2019_Oct_09_1400,ACPT_experiment_5_30_19,3.1.0,59.962514955087215,
,,,C,G,g,v,L,U,d,L,u,,,,,5,19,119,13,5,0,5,0,,,,,1,20,56,20,,,,,,down,0.7672509267699752,2729.6585807813267,None,001,16,2019_Oct_09_1400,ACPT_experiment_5_30_19,3.1.0,59.962514955087215,
,,,C,G,g,v,L,U,y,L,u,,,,,5,19,119,13,5,0,5,0,,,,,1,21,57,24,,,,,,down,0.4503353757836521,2731.7268241161464,None,001,16,2019_Oct_09_1400,ACPT_experiment_5_30_19,3.1.0,59.962514955087215,
,,,C,G,g,v,R,D,d,L,c,,,,,5,19,119,13,5,0,5,0,,,,,1,22,58,0,,,,,,up,1.0174644135818198,2733.4781534092535,None,001,16,2019_Oct_09_1400,ACPT_experiment_5_30_19,3.1.0,59.962514955087215,
