facing_vig,person_vig,text_vig,facing_train,person_train,food_train,correct_key_train,facing_exp,person_exp,food_exp,showL_R,consistent,vig_random.thisRepN,vig_random.thisTrialN,vig_random.thisN,vig_random.thisIndex,trainTrials.thisRepN,trainTrials.thisTrialN,trainTrials.thisN,trainTrials.thisIndex,expBlock.thisRepN,expBlock.thisTrialN,expBlock.thisN,expBlock.thisIndex,breakLoop.thisRepN,breakLoop.thisTrialN,breakLoop.thisN,breakLoop.thisIndex,expTrials.thisRepN,expTrials.thisTrialN,expTrials.thisN,expTrials.thisIndex,train_resp.keys,train_resp.corr,train_resp.rt,train_resp.started,train_resp.stopped,exp_resp.keys,exp_resp.rt,exp_resp.started,exp_resp.stopped,session,participant,date,expName,psychopyVersion,frameRate,
C,U,"did not report her food preferences, so her food preferences are unknown.",,,,,,,,,,0,0,0,2,,,,,,,,,,,,,,,,,,,,,,,,,,001,17,2019_Oct_09_1557,ACPT_experiment_5_30_19,3.1.0,59.955461205144466,
C,D,"is allergic to gluten, meaning she can’t eat wheat products. She enjoys eating dairy products. She thinks eating insects, like crickets, is disgusting.",,,,,,,,,,0,1,1,1,,,,,,,,,,,,,,,,,,,,,,,,,,001,17,2019_Oct_09_1557,ACPT_experiment_5_30_19,3.1.0,59.955461205144466,
C,G,"cannot eat dairy products because she is lactose intolerant. She enjoys eating wheat products. She thinks eating insects, like crickets, is disgusting.",,,,,,,,,,0,2,2,0,,,,,,,,,,,,,,,,,,,,,,,,,,001,17,2019_Oct_09_1557,ACPT_experiment_5_30_19,3.1.0,59.955461205144466,
,,,C,G,y,b,,,,,,,,,,0,0,0,14,,,,,,,,,,,,,b,1,2.3851661303197034,95.13265220802168,None,,,,,001,17,2019_Oct_09_1557,ACPT_experiment_5_30_19,3.1.0,59.955461205144466,
,,,C,G,g,v,,,,,,,,,,0,1,1,19,,,,,,,,,,,,,b,0,4.036444742005187,100.78696023455268,None,,,,,001,17,2019_Oct_09_1557,ACPT_experiment_5_30_19,3.1.0,59.955461205144466,
,,,C,U,y,n,,,,,,,,,,0,2,2,8,,,,,,,,,,,,,n,1,2.5185874643939314,108.10919205240316,None,,,,,001,17,2019_Oct_09_1557,ACPT_experiment_5_30_19,3.1.0,59.955461205144466,
,,,C,D,y,b,,,,,,,,,,0,3,3,2,,,,,,,,,,,,,b,1,1.7013288554171595,113.91357413901096,None,,,,,001,17,2019_Oct_09_1557,ACPT_experiment_5_30_19,3.1.0,59.955461205144466,
,,,C,D,d,v,,,,,,,,,,0,4,4,9,,,,,,,,,,,,,v,1,7.822646113574592,118.88402225152822,None,,,,,001,17,2019_Oct_09_1557,ACPT_experiment_5_30_19,3.1.0,59.955461205144466,
,,,C,U,d,n,,,,,,,,,,0,5,5,6,,,,,,,,,,,,,b,0,1.651267141203789,129.99248562642788,None,,,,,001,17,2019_Oct_09_1557,ACPT_experiment_5_30_19,3.1.0,59.955461205144466,
,,,C,D,g,b,,,,,,,,,,0,6,6,1,,,,,,,,,,,,,b,1,1.7513440839920804,134.92957636790743,None,,,,,001,17,2019_Oct_09_1557,ACPT_experiment_5_30_19,3.1.0,59.955461205144466,
,,,C,U,y,n,,,,,,,,,,0,7,7,17,,,,,,,,,,,,,b,0,1.7180087483557145,139.96671235742178,None,,,,,001,17,2019_Oct_09_1557,ACPT_experiment_5_30_19,3.1.0,59.955461205144466,
,,,C,D,d,v,,,,,,,,,,0,8,8,0,,,,,,,,,,,,,v,1,1.6512683486216702,144.97054168750583,None,,,,,001,17,2019_Oct_09_1557,ACPT_experiment_5_30_19,3.1.0,59.955461205144466,
,,,C,G,y,b,,,,,,,,,,0,9,9,5,,,,,,,,,,,,,b,1,1.634587851975084,149.9076236751971,None,,,,,001,17,2019_Oct_09_1557,ACPT_experiment_5_30_19,3.1.0,59.955461205144466,
,,,C,G,g,v,,,,,,,,,,0,10,10,13,,,,,,,,,,,,,v,1,2.8021719057087466,154.81133018056062,None,,,,,001,17,2019_Oct_09_1557,ACPT_experiment_5_30_19,3.1.0,59.955461205144466,
,,,C,G,d,b,,,,,,,,,,0,11,11,3,,,,,,,,,,,,,b,1,2.418517162408534,160.8993127067879,None,,,,,001,17,2019_Oct_09_1557,ACPT_experiment_5_30_19,3.1.0,59.955461205144466,
,,,C,D,g,b,,,,,,,,,,0,12,12,10,,,,,,,,,,,,,b,1,1.0341237803932017,166.6036510546346,None,,,,,001,17,2019_Oct_09_1557,ACPT_experiment_5_30_19,3.1.0,59.955461205144466,
,,,C,U,g,n,,,,,,,,,,0,13,13,7,,,,,,,,,,,,,v,0,3.3522959529418586,170.940522226927,None,,,,,001,17,2019_Oct_09_1557,ACPT_experiment_5_30_19,3.1.0,59.955461205144466,
,,,C,U,g,n,,,,,,,,,,0,14,14,16,,,,,,,,,,,,,n,1,2.001535233548566,177.56197607438298,None,,,,,001,17,2019_Oct_09_1557,ACPT_experiment_5_30_19,3.1.0,59.955461205144466,
,,,C,U,d,n,,,,,,,,,,0,15,15,15,,,,,,,,,,,,,n,1,0.7172233221481292,182.83265109115928,None,,,,,001,17,2019_Oct_09_1557,ACPT_experiment_5_30_19,3.1.0,59.955461205144466,
,,,C,D,d,v,,,,,,,,,,0,16,16,18,,,,,,,,,,,,,v,1,1.3675456578039302,186.85251525045896,None,,,,,001,17,2019_Oct_09_1557,ACPT_experiment_5_30_19,3.1.0,59.955461205144466,
,,,C,D,y,b,,,,,,,,,,0,17,17,11,,,,,,,,,,,,,b,1,1.8681018252846116,191.50590684579402,None,,,,,001,17,2019_Oct_09_1557,ACPT_experiment_5_30_19,3.1.0,59.955461205144466,
,,,C,G,d,b,,,,,,,,,,0,18,18,12,,,,,,,,,,,,,b,1,2.985638955691684,196.65980631184357,None,,,,,001,17,2019_Oct_09_1557,ACPT_experiment_5_30_19,3.1.0,59.955461205144466,
,,,C,G,g,v,,,,,,,,,,0,19,19,4,,,,,,,,,,,,,v,1,1.2509672182659415,202.91457840995463,None,,,,,001,17,2019_Oct_09_1557,ACPT_experiment_5_30_19,3.1.0,59.955461205144466,
,,,C,U,g,n,,,,,,,,,,1,0,20,16,,,,,,,,,,,,,n,1,0.5334963751774922,207.46829452939346,None,,,,,001,17,2019_Oct_09_1557,ACPT_experiment_5_30_19,3.1.0,59.955461205144466,
,,,C,U,g,n,,,,,,,,,,1,1,21,7,,,,,,,,,,,,,n,1,1.1175220376644575,211.27093280078043,None,,,,,001,17,2019_Oct_09_1557,ACPT_experiment_5_30_19,3.1.0,59.955461205144466,
,,,C,D,g,b,,,,,,,,,,1,2,22,1,,,,,,,,,,,,,v,0,2.401599407881804,215.6912028340539,None,,,,,001,17,2019_Oct_09_1557,ACPT_experiment_5_30_19,3.1.0,59.955461205144466,
,,,C,D,d,v,,,,,,,,,,1,3,23,18,,,,,,,,,,,,,v,1,1.2509765757658897,221.37861950326078,None,,,,,001,17,2019_Oct_09_1557,ACPT_experiment_5_30_19,3.1.0,59.955461205144466,
,,,C,U,y,n,,,,,,,,,,1,4,24,8,,,,,,,,,,,,,n,1,8.65656982460132,225.93209051659687,None,,,,,001,17,2019_Oct_09_1557,ACPT_experiment_5_30_19,3.1.0,59.955461205144466,
,,,C,G,y,b,,,,,,,,,,1,5,25,5,,,,,,,,,,,,,b,1,1.4677925448504539,237.8744869600232,None,,,,,001,17,2019_Oct_09_1557,ACPT_experiment_5_30_19,3.1.0,59.955461205144466,
,,,C,D,d,v,,,,,,,,,,1,6,26,9,,,,,,,,,,,,,v,1,3.802906318454916,242.6280976717626,None,,,,,001,17,2019_Oct_09_1557,ACPT_experiment_5_30_19,3.1.0,59.955461205144466,
,,,C,U,d,n,,,,,,,,,,1,7,27,15,,,,,,,,,,,,,n,1,0.6004658827096137,249.71682336452795,None,,,,,001,17,2019_Oct_09_1557,ACPT_experiment_5_30_19,3.1.0,59.955461205144466,
,,,C,G,d,b,,,,,,,,,,1,8,28,12,,,,,,,,,,,,,b,1,1.6510700300132157,253.6200146037354,None,,,,,001,17,2019_Oct_09_1557,ACPT_experiment_5_30_19,3.1.0,59.955461205144466,
,,,C,G,y,b,,,,,,,,,,1,9,29,14,,,,,,,,,,,,,b,1,1.2843185522069689,258.5568717095939,None,,,,,001,17,2019_Oct_09_1557,ACPT_experiment_5_30_19,3.1.0,59.955461205144466,
,,,C,G,g,v,,,,,,,,,,1,10,30,4,,,,,,,,,,,,,v,1,2.635115796030732,263.12728522954967,None,,,,,001,17,2019_Oct_09_1557,ACPT_experiment_5_30_19,3.1.0,59.955461205144466,
,,,C,D,y,b,,,,,,,,,,1,11,31,11,,,,,,,,,,,,,b,1,1.150884842088999,269.04817723465385,None,,,,,001,17,2019_Oct_09_1557,ACPT_experiment_5_30_19,3.1.0,59.955461205144466,
,,,C,D,d,v,,,,,,,,,,1,12,32,0,,,,,,,,,,,,,v,1,1.3143482758496248,273.50489351920623,None,,,,,001,17,2019_Oct_09_1557,ACPT_experiment_5_30_19,3.1.0,59.955461205144466,
,,,C,U,y,n,,,,,,,,,,1,13,33,17,,,,,,,,,,,,,n,1,0.6838777234479494,278.10506690460716,None,,,,,001,17,2019_Oct_09_1557,ACPT_experiment_5_30_19,3.1.0,59.955461205144466,
,,,C,G,g,v,,,,,,,,,,1,14,34,13,,,,,,,,,,,,,v,1,2.3682248311197327,282.0916717956825,None,,,,,001,17,2019_Oct_09_1557,ACPT_experiment_5_30_19,3.1.0,59.955461205144466,
,,,C,D,g,b,,,,,,,,,,1,15,35,10,,,,,,,,,,,,,b,1,1.5678661672372982,287.7457241511911,None,,,,,001,17,2019_Oct_09_1557,ACPT_experiment_5_30_19,3.1.0,59.955461205144466,
,,,C,G,d,b,,,,,,,,,,1,16,36,3,,,,,,,,,,,,,b,1,2.1516461199134937,292.599413918706,None,,,,,001,17,2019_Oct_09_1557,ACPT_experiment_5_30_19,3.1.0,59.955461205144466,
,,,C,G,g,v,,,,,,,,,,1,17,37,19,,,,,,,,,,,,,v,1,1.934815661796165,298.0201961995863,None,,,,,001,17,2019_Oct_09_1557,ACPT_experiment_5_30_19,3.1.0,59.955461205144466,
,,,C,U,d,n,,,,,,,,,,1,18,38,6,,,,,,,,,,,,,n,1,0.6505194468445552,303.2408146336784,None,,,,,001,17,2019_Oct_09_1557,ACPT_experiment_5_30_19,3.1.0,59.955461205144466,
,,,C,D,y,b,,,,,,,,,,1,19,39,2,,,,,,,,,,,,,b,1,2.101604931824113,307.1938496479306,None,,,,,001,17,2019_Oct_09_1557,ACPT_experiment_5_30_19,3.1.0,59.955461205144466,
,,,C,D,g,b,,,,,,,,,,2,0,40,1,,,,,,,,,,,,,b,1,2.0682502774798195,312.5812667095488,None,,,,,001,17,2019_Oct_09_1557,ACPT_experiment_5_30_19,3.1.0,59.955461205144466,
,,,C,D,d,v,,,,,,,,,,2,1,41,18,,,,,,,,,,,,,v,1,1.2009124467112997,317.9186561665465,None,,,,,001,17,2019_Oct_09_1557,ACPT_experiment_5_30_19,3.1.0,59.955461205144466,
,,,C,D,g,b,,,,,,,,,,2,2,42,10,,,,,,,,,,,,,b,1,0.9838217897522554,322.4056675051179,None,,,,,001,17,2019_Oct_09_1557,ACPT_experiment_5_30_19,3.1.0,59.955461205144466,
,,,C,U,y,n,,,,,,,,,,2,3,43,8,,,,,,,,,,,,,n,1,1.2342830993620737,326.6753138007098,None,,,,,001,17,2019_Oct_09_1557,ACPT_experiment_5_30_19,3.1.0,59.955461205144466,
,,,C,U,y,n,,,,,,,,,,2,4,44,17,,,,,,,,,,,,,n,1,1.050791900994227,331.1954265374443,None,,,,,001,17,2019_Oct_09_1557,ACPT_experiment_5_30_19,3.1.0,59.955461205144466,
,,,C,G,d,b,,,,,,,,,,2,5,45,12,,,,,,,,,,,,,b,1,0.9674322811388265,335.5320206070228,None,,,,,001,17,2019_Oct_09_1557,ACPT_experiment_5_30_19,3.1.0,59.955461205144466,
,,,C,U,d,n,,,,,,,,,,2,6,46,15,,,,,,,,,,,,,n,1,1.93456602787046,339.8021978652214,None,,,,,001,17,2019_Oct_09_1557,ACPT_experiment_5_30_19,3.1.0,59.955461205144466,
,,,C,U,g,n,,,,,,,,,,2,7,47,16,,,,,,,,,,,,,n,1,1.2676969172480312,345.00590699672284,None,,,,,001,17,2019_Oct_09_1557,ACPT_experiment_5_30_19,3.1.0,59.955461205144466,
,,,C,D,y,b,,,,,,,,,,2,8,48,2,,,,,,,,,,,,,b,1,1.7342612148877379,349.57642254360326,None,,,,,001,17,2019_Oct_09_1557,ACPT_experiment_5_30_19,3.1.0,59.955461205144466,
,,,C,G,g,v,,,,,,,,,,2,9,49,4,,,,,,,,,,,,,v,1,3.3525627925919252,354.59653029973197,None,,,,,001,17,2019_Oct_09_1557,ACPT_experiment_5_30_19,3.1.0,59.955461205144466,
,,,C,G,g,v,,,,,,,,,,2,10,50,19,,,,,,,,,,,,,v,1,1.9014344442293805,361.2182313662761,None,,,,,001,17,2019_Oct_09_1557,ACPT_experiment_5_30_19,3.1.0,59.955461205144466,
,,,C,U,g,n,,,,,,,,,,2,11,51,7,,,,,,,,,,,,,n,1,0.8340009858584381,366.4054776384437,None,,,,,001,17,2019_Oct_09_1557,ACPT_experiment_5_30_19,3.1.0,59.955461205144466,
,,,C,G,y,b,,,,,,,,,,2,12,52,14,,,,,,,,,,,,,b,1,3.886293407098492,370.52530433756147,None,,,,,001,17,2019_Oct_09_1557,ACPT_experiment_5_30_19,3.1.0,59.955461205144466,
,,,C,G,g,v,,,,,,,,,,2,13,53,13,,,,,,,,,,,,,v,1,8.906828891489567,377.68073964087125,None,,,,,001,17,2019_Oct_09_1557,ACPT_experiment_5_30_19,3.1.0,59.955461205144466,
,,,C,G,y,b,,,,,,,,,,2,14,54,5,,,,,,,,,,,,,b,1,1.5511847650250274,389.85665911325304,None,,,,,001,17,2019_Oct_09_1557,ACPT_experiment_5_30_19,3.1.0,59.955461205144466,
,,,C,U,d,n,,,,,,,,,,2,15,55,6,,,,,,,,,,,,,n,1,1.21760501755125,394.6936632525867,None,,,,,001,17,2019_Oct_09_1557,ACPT_experiment_5_30_19,3.1.0,59.955461205144466,
,,,C,G,d,b,,,,,,,,,,2,16,56,3,,,,,,,,,,,,,b,1,1.0674911126407096,399.1970840221911,None,,,,,001,17,2019_Oct_09_1557,ACPT_experiment_5_30_19,3.1.0,59.955461205144466,
,,,C,D,d,v,,,,,,,,,,2,17,57,0,,,,,,,,,,,,,v,1,1.9348310563909763,403.5503745867227,None,,,,,001,17,2019_Oct_09_1557,ACPT_experiment_5_30_19,3.1.0,59.955461205144466,
,,,C,D,y,b,,,,,,,,,,2,18,58,11,,,,,,,,,,,,,b,1,1.9348310563927953,408.77102924339124,None,,,,,001,17,2019_Oct_09_1557,ACPT_experiment_5_30_19,3.1.0,59.955461205144466,
,,,C,D,d,v,,,,,,,,,,2,19,59,9,,,,,,,,,,,,,v,1,1.4677886207373376,413.97498348099543,None,,,,,001,17,2019_Oct_09_1557,ACPT_experiment_5_30_19,3.1.0,59.955461205144466,
,,,C,D,y,b,,,,,,,,,,3,0,60,11,,,,,,,,,,,,,b,1,5.320720732685004,418.7119170164897,None,,,,,001,17,2019_Oct_09_1557,ACPT_experiment_5_30_19,3.1.0,59.955461205144466,
,,,C,G,g,v,,,,,,,,,,3,1,61,4,,,,,,,,,,,,,v,1,5.420785903139404,427.3184589346147,None,,,,,001,17,2019_Oct_09_1557,ACPT_experiment_5_30_19,3.1.0,59.955461205144466,
,,,C,D,g,b,,,,,,,,,,3,2,62,10,,,,,,,,,,,,,b,1,1.3176635471972986,436.02507568254623,None,,,,,001,17,2019_Oct_09_1557,ACPT_experiment_5_30_19,3.1.0,59.955461205144466,
,,,C,G,y,b,,,,,,,,,,3,3,63,5,,,,,,,,,,,,,b,1,1.3174256856091233,440.6454989976901,None,,,,,001,17,2019_Oct_09_1557,ACPT_experiment_5_30_19,3.1.0,59.955461205144466,
,,,C,D,d,v,,,,,,,,,,3,4,64,18,,,,,,,,,,,,,v,1,1.2509629922988097,445.24874134091624,None,,,,,001,17,2019_Oct_09_1557,ACPT_experiment_5_30_19,3.1.0,59.955461205144466,
,,,C,D,d,v,,,,,,,,,,3,5,65,9,,,,,,,,,,,,,v,1,1.117664513134514,449.76870616879387,None,,,,,001,17,2019_Oct_09_1557,ACPT_experiment_5_30_19,3.1.0,59.955461205144466,
,,,C,D,g,b,,,,,,,,,,3,6,66,1,,,,,,,,,,,,,b,1,1.3176738102629315,454.1555134837017,None,,,,,001,17,2019_Oct_09_1557,ACPT_experiment_5_30_19,3.1.0,59.955461205144466,
,,,C,U,g,n,,,,,,,,,,3,7,67,16,,,,,,,,,,,,,n,1,1.4008218298986321,458.77593740255725,None,,,,,001,17,2019_Oct_09_1557,ACPT_experiment_5_30_19,3.1.0,59.955461205144466,
,,,C,G,y,b,,,,,,,,,,3,8,68,14,,,,,,,,,,,,,b,1,1.5844977634060342,463.4626178478884,None,,,,,001,17,2019_Oct_09_1557,ACPT_experiment_5_30_19,3.1.0,59.955461205144466,
,,,C,D,d,v,,,,,,,,,,3,9,69,0,,,,,,,,,,,,,v,1,2.5019090807290922,468.3329482672161,None,,,,,001,17,2019_Oct_09_1557,ACPT_experiment_5_30_19,3.1.0,59.955461205144466,
,,,C,U,d,n,,,,,,,,,,3,10,70,15,,,,,,,,,,,,,n,1,1.367745787540116,474.1206734018524,None,,,,,001,17,2019_Oct_09_1557,ACPT_experiment_5_30_19,3.1.0,59.955461205144466,
,,,C,D,y,b,,,,,,,,,,3,11,71,2,,,,,,,,,,,,,b,1,1.6510075460682856,478.79114937556733,None,,,,,001,17,2019_Oct_09_1557,ACPT_experiment_5_30_19,3.1.0,59.955461205144466,
,,,C,G,d,b,,,,,,,,,,3,12,72,12,,,,,,,,,,,,,b,1,1.3843834208055341,483.7279793144935,None,,,,,001,17,2019_Oct_09_1557,ACPT_experiment_5_30_19,3.1.0,59.955461205144466,
,,,C,G,g,v,,,,,,,,,,3,13,73,13,,,,,,,,,,,,,v,1,1.6343225215987331,488.4151490664681,None,,,,,001,17,2019_Oct_09_1557,ACPT_experiment_5_30_19,3.1.0,59.955461205144466,
,,,C,U,d,n,,,,,,,,,,3,14,74,6,,,,,,,,,,,,,n,1,2.1516415920905274,493.3352728510872,None,,,,,001,17,2019_Oct_09_1557,ACPT_experiment_5_30_19,3.1.0,59.955461205144466,
,,,C,U,g,n,,,,,,,,,,3,15,75,7,,,,,,,,,,,,,n,1,1.4511153686053149,498.7727356286159,None,,,,,001,17,2019_Oct_09_1557,ACPT_experiment_5_30_19,3.1.0,59.955461205144466,
,,,C,U,y,n,,,,,,,,,,3,16,76,8,,,,,,,,,,,,,n,1,1.3844145118491724,503.4929759895622,None,,,,,001,17,2019_Oct_09_1557,ACPT_experiment_5_30_19,3.1.0,59.955461205144466,
,,,C,G,g,v,,,,,,,,,,3,17,77,19,,,,,,,,,,,,,v,1,2.38515767838544,508.1632023293532,None,,,,,001,17,2019_Oct_09_1557,ACPT_experiment_5_30_19,3.1.0,59.955461205144466,
,,,C,U,y,n,,,,,,,,,,3,18,78,17,,,,,,,,,,,,,n,1,2.168306694144121,513.8341808913228,None,,,,,001,17,2019_Oct_09_1557,ACPT_experiment_5_30_19,3.1.0,59.955461205144466,
,,,C,G,d,b,,,,,,,,,,3,19,79,3,,,,,,,,,,,,,b,1,1.4344535869549873,519.2882979041315,None,,,,,001,17,2019_Oct_09_1557,ACPT_experiment_5_30_19,3.1.0,59.955461205144466,
,,,C,G,y,b,,,,,,,,,,4,0,80,14,,,,,,,,,,,,,b,1,1.5008806614005152,524.0088395161747,None,,,,,001,17,2019_Oct_09_1557,ACPT_experiment_5_30_19,3.1.0,59.955461205144466,
,,,C,D,y,b,,,,,,,,,,4,1,81,11,,,,,,,,,,,,,b,1,1.6512683486216702,528.795533816643,None,,,,,001,17,2019_Oct_09_1557,ACPT_experiment_5_30_19,3.1.0,59.955461205144466,
,,,C,D,y,b,,,,,,,,,,4,2,82,2,,,,,,,,,,,,,b,1,2.268396918545477,533.7326206340094,None,,,,,001,17,2019_Oct_09_1557,ACPT_experiment_5_30_19,3.1.0,59.955461205144466,
,,,C,D,g,b,,,,,,,,,,4,3,83,10,,,,,,,,,,,,,b,1,2.8521844175902515,539.2868405491208,None,,,,,001,17,2019_Oct_09_1557,ACPT_experiment_5_30_19,3.1.0,59.955461205144466,
,,,C,G,d,b,,,,,,,,,,4,4,84,3,,,,,,,,,,,,,b,1,1.3343639662634814,545.4248352853774,None,,,,,001,17,2019_Oct_09_1557,ACPT_experiment_5_30_19,3.1.0,59.955461205144466,
,,,C,D,d,v,,,,,,,,,,4,5,85,0,,,,,,,,,,,,,v,1,1.5845445509021374,550.0450107777251,None,,,,,001,17,2019_Oct_09_1557,ACPT_experiment_5_30_19,3.1.0,59.955461205144466,
,,,C,D,d,v,,,,,,,,,,4,6,86,18,,,,,,,,,,,,,v,1,1.2009205967915477,554.8986990359663,None,,,,,001,17,2019_Oct_09_1557,ACPT_experiment_5_30_19,3.1.0,59.955461205144466,
,,,C,U,g,n,,,,,,,,,,4,7,87,7,,,,,,,,,,,,,v,0,1.2674098533261713,559.4023688357847,None,,,,,001,17,2019_Oct_09_1557,ACPT_experiment_5_30_19,3.1.0,59.955461205144466,
,,,C,U,y,n,,,,,,,,,,4,8,88,17,,,,,,,,,,,,,n,1,1.651262311524988,563.938903379596,None,,,,,001,17,2019_Oct_09_1557,ACPT_experiment_5_30_19,3.1.0,59.955461205144466,
,,,C,U,d,n,,,,,,,,,,4,9,89,6,,,,,,,,,,,,,n,1,0.9674063216261857,568.8593039650732,None,,,,,001,17,2019_Oct_09_1557,ACPT_experiment_5_30_19,3.1.0,59.955461205144466,
,,,C,D,g,b,,,,,,,,,,4,10,90,1,,,,,,,,,,,,,b,1,3.785954152481281,573.1294845436751,None,,,,,001,17,2019_Oct_09_1557,ACPT_experiment_5_30_19,3.1.0,59.955461205144466,
,,,C,D,d,v,,,,,,,,,,4,11,91,9,,,,,,,,,,,,,v,1,1.3843982116904954,580.1845700274462,None,,,,,001,17,2019_Oct_09_1557,ACPT_experiment_5_30_19,3.1.0,59.955461205144466,
,,,C,G,y,b,,,,,,,,,,4,12,92,5,,,,,,,,,,,,,b,1,1.4175110803353164,584.8717050661198,None,,,,,001,17,2019_Oct_09_1557,ACPT_experiment_5_30_19,3.1.0,59.955461205144466,
,,,C,U,y,n,,,,,,,,,,4,13,93,8,,,,,,,,,,,,,n,1,1.1341934786687489,589.5750394448769,None,,,,,001,17,2019_Oct_09_1557,ACPT_experiment_5_30_19,3.1.0,59.955461205144466,
,,,C,G,g,v,,,,,,,,,,4,14,94,13,,,,,,,,,,,,,v,1,1.7676723160802794,594.028744124018,None,,,,,001,17,2019_Oct_09_1557,ACPT_experiment_5_30_19,3.1.0,59.955461205144466,
,,,C,G,d,b,,,,,,,,,,4,15,95,12,,,,,,,,,,,,,b,1,1.7180093520655646,599.0655761457419,None,,,,,001,17,2019_Oct_09_1557,ACPT_experiment_5_30_19,3.1.0,59.955461205144466,
,,,C,G,g,v,,,,,,,,,,4,16,96,19,,,,,,,,,,,,,v,1,1.6346053595534613,604.0526905677307,None,,,,,001,17,2019_Oct_09_1557,ACPT_experiment_5_30_19,3.1.0,59.955461205144466,
,,,C,U,d,n,,,,,,,,,,4,17,97,15,,,,,,,,,,,,,n,1,1.3343564198930835,608.9730996051421,None,,,,,001,17,2019_Oct_09_1557,ACPT_experiment_5_30_19,3.1.0,59.955461205144466,
,,,C,G,g,v,,,,,,,,,,4,18,98,4,,,,,,,,,,,,,v,1,2.351540712214046,613.6102013039508,None,,,,,001,17,2019_Oct_09_1557,ACPT_experiment_5_30_19,3.1.0,59.955461205144466,
,,,C,U,g,n,,,,,,,,,,4,19,99,16,,,,,,,,,,,,,n,1,1.3010002562732552,619.2475653145884,None,,,,,001,17,2019_Oct_09_1557,ACPT_experiment_5_30_19,3.1.0,59.955461205144466,
,,,C,U,g,n,,,,,,,,,,5,0,100,16,,,,,,,,,,,,,n,1,1.1809187916987867,623.854396409617,None,,,,,001,17,2019_Oct_09_1557,ACPT_experiment_5_30_19,3.1.0,59.955461205144466,
,,,C,G,g,v,,,,,,,,,,5,1,101,4,,,,,,,,,,,,,v,1,1.5011710457238223,628.3211016734513,None,,,,,001,17,2019_Oct_09_1557,ACPT_experiment_5_30_19,3.1.0,59.955461205144466,
,,,C,U,y,n,,,,,,,,,,5,2,102,17,,,,,,,,,,,,,n,1,1.3843810059661337,633.1081074880803,None,,,,,001,17,2019_Oct_09_1557,ACPT_experiment_5_30_19,3.1.0,59.955461205144466,
,,,C,G,g,v,,,,,,,,,,5,3,103,13,,,,,,,,,,,,,v,1,1.6675090428161639,637.7953967745598,None,,,,,001,17,2019_Oct_09_1557,ACPT_experiment_5_30_19,3.1.0,59.955461205144466,
,,,C,D,d,v,,,,,,,,,,5,4,104,9,,,,,,,,,,,,,v,1,1.4010741805159341,642.7487478307958,None,,,,,001,17,2019_Oct_09_1557,ACPT_experiment_5_30_19,3.1.0,59.955461205144466,
,,,C,G,g,v,,,,,,,,,,5,5,105,19,,,,,,,,,,,,,v,1,1.8509600944926206,647.452750516095,None,,,,,001,17,2019_Oct_09_1557,ACPT_experiment_5_30_19,3.1.0,59.955461205144466,
,,,C,U,d,n,,,,,,,,,,5,6,106,15,,,,,,,,,,,,,n,1,7.7058642238971515,652.5895562462665,None,,,,,001,17,2019_Oct_09_1557,ACPT_experiment_5_30_19,3.1.0,59.955461205144466,
,,,C,D,y,b,,,,,,,,,,5,7,107,11,,,,,,,,,,,,,b,1,5.670939018989884,663.5812821041454,None,,,,,001,17,2019_Oct_09_1557,ACPT_experiment_5_30_19,3.1.0,59.955461205144466,
,,,C,D,g,b,,,,,,,,,,5,8,108,10,,,,,,,,,,,,,b,1,2.40182791197185,672.538035365913,None,,,,,001,17,2019_Oct_09_1557,ACPT_experiment_5_30_19,3.1.0,59.955461205144466,
,,,C,G,y,b,,,,,,,,,,5,9,109,14,,,,,,,,,,,,,b,1,0.9507306546529435,678.2423655636776,None,,,,,001,17,2019_Oct_09_1557,ACPT_experiment_5_30_19,3.1.0,59.955461205144466,
,,,C,G,d,b,,,,,,,,,,5,10,110,12,,,,,,,,,,,,,b,1,2.0682502774798195,682.478915592641,None,,,,,001,17,2019_Oct_09_1557,ACPT_experiment_5_30_19,3.1.0,59.955461205144466,
,,,C,U,d,n,,,,,,,,,,5,11,111,6,,,,,,,,,,,,,n,1,4.470074567194388,687.8329813203181,None,,,,,001,17,2019_Oct_09_1557,ACPT_experiment_5_30_19,3.1.0,59.955461205144466,
,,,C,D,d,v,,,,,,,,,,5,12,112,18,,,,,,,,,,,,,v,1,2.5686292561895243,695.5888689228705,None,,,,,001,17,2019_Oct_09_1557,ACPT_experiment_5_30_19,3.1.0,59.955461205144466,
,,,C,G,y,b,,,,,,,,,,5,13,113,5,,,,,,,,,,,,,b,1,1.1342037417325628,701.4433178552244,None,,,,,001,17,2019_Oct_09_1557,ACPT_experiment_5_30_19,3.1.0,59.955461205144466,
,,,C,D,y,b,,,,,,,,,,5,14,114,2,,,,,,,,,,,,,b,1,0.9838229971719556,705.8802919298196,None,,,,,001,17,2019_Oct_09_1557,ACPT_experiment_5_30_19,3.1.0,59.955461205144466,
,,,C,G,d,b,,,,,,,,,,5,15,115,3,,,,,,,,,,,,,b,1,0.8506603526693652,710.1499282642035,None,,,,,001,17,2019_Oct_09_1557,ACPT_experiment_5_30_19,3.1.0,59.955461205144466,
,,,C,U,y,n,,,,,,,,,,5,16,116,8,,,,,,,,,,,,,n,1,1.1005638345941406,714.303355629334,None,,,,,001,17,2019_Oct_09_1557,ACPT_experiment_5_30_19,3.1.0,59.955461205144466,
,,,C,D,g,b,,,,,,,,,,5,17,117,1,,,,,,,,,,,,,b,1,1.0007697297569393,718.6897475920287,None,,,,,001,17,2019_Oct_09_1557,ACPT_experiment_5_30_19,3.1.0,59.955461205144466,
,,,C,U,g,n,,,,,,,,,,5,18,118,7,,,,,,,,,,,,,v,0,0.8670897061165306,722.9932571673144,None,,,,,001,17,2019_Oct_09_1557,ACPT_experiment_5_30_19,3.1.0,59.955461205144466,
,,,C,D,d,v,,,,,,,,,,5,19,119,0,0,0,0,0,0,0,0,0,,,,,v,1,1.534535057568064,727.1461825479018,None,,,,,001,17,2019_Oct_09_1557,ACPT_experiment_5_30_19,3.1.0,59.955461205144466,
,,,C,D,d,v,L,U,g,R,u,,,,,5,19,119,0,0,0,0,0,,,,,0,0,0,23,,,,,,up,0.8339674799735803,780.7535394740044,None,001,17,2019_Oct_09_1557,ACPT_experiment_5_30_19,3.1.0,59.955461205144466,
,,,C,D,d,v,R,D,g,R,i,,,,,5,19,119,0,0,0,0,0,,,,,0,1,1,3,,,,,,up,0.7672415692704817,782.8718218839294,None,001,17,2019_Oct_09_1557,ACPT_experiment_5_30_19,3.1.0,59.955461205144466,
,,,C,D,d,v,L,D,d,R,c ,,,,,5,19,119,0,0,0,0,0,,,,,0,2,2,13,,,,,,up,0.5670913059475424,784.923376270166,None,001,17,2019_Oct_09_1557,ACPT_experiment_5_30_19,3.1.0,59.955461205144466,
,,,C,D,d,v,R,U,y,L,u,,,,,5,19,119,0,0,0,0,0,,,,,0,3,3,30,,,,,,down,1.1008204111803934,786.7747933728369,None,001,17,2019_Oct_09_1557,ACPT_experiment_5_30_19,3.1.0,59.955461205144466,
,,,C,D,d,v,L,D,g,L,i,,,,,5,19,119,0,0,0,0,0,,,,,0,4,4,14,,,,,,up,0.7505674115727743,789.159923280582,None,001,17,2019_Oct_09_1557,ACPT_experiment_5_30_19,3.1.0,59.955461205144466,
,,,C,D,d,v,R,G,g,L,c ,,,,,5,19,119,0,0,0,0,0,,,,,0,5,5,6,,,,,,up,0.550417148251654,791.194802603557,None,001,17,2019_Oct_09_1557,ACPT_experiment_5_30_19,3.1.0,59.955461205144466,
,,,C,D,d,v,R,D,y,L,y,,,,,5,19,119,0,0,0,0,0,,,,,0,6,6,26,,,,,,down,0.6171195142796932,793.0295416244189,None,001,17,2019_Oct_09_1557,ACPT_experiment_5_30_19,3.1.0,59.955461205144466,
,,,C,D,d,v,R,U,d,L,u,,,,,5,19,119,0,0,0,0,0,,,,,0,7,7,8,,,,,,up,0.5337378590211301,794.9309715408253,None,001,17,2019_Oct_09_1557,ACPT_experiment_5_30_19,3.1.0,59.955461205144466,
,,,C,D,d,v,R,D,d,L,c,,,,,5,19,119,0,0,0,0,0,,,,,0,8,8,0,,,,,,up,0.48370934883496375,796.749009237059,None,001,17,2019_Oct_09_1557,ACPT_experiment_5_30_19,3.1.0,59.955461205144466,
,,,C,D,d,v,L,D,y,L,y,,,,,5,19,119,0,0,0,0,0,,,,,0,9,9,32,,,,,,down,0.7005316568720446,798.5170274787488,None,001,17,2019_Oct_09_1557,ACPT_experiment_5_30_19,3.1.0,59.955461205144466,
,,,C,D,d,v,L,G,g,L,c ,,,,,5,19,119,0,0,0,0,0,,,,,0,10,10,18,,,,,,up,0.750565600445043,800.501871952587,None,001,17,2019_Oct_09_1557,ACPT_experiment_5_30_19,3.1.0,59.955461205144466,
,,,C,D,d,v,L,U,y,R,u,,,,,5,19,119,0,0,0,0,0,,,,,0,11,11,25,,,,,,down,0.7339388339532888,802.5367500681423,None,001,17,2019_Oct_09_1557,ACPT_experiment_5_30_19,3.1.0,59.955461205144466,
,,,C,D,d,v,R,G,d,R,i,,,,,5,19,119,0,0,0,0,0,,,,,0,12,12,5,,,,,,up,0.7672418711263163,804.554947385197,None,001,17,2019_Oct_09_1557,ACPT_experiment_5_30_19,3.1.0,59.955461205144466,
,,,C,D,d,v,R,G,d,L,i,,,,,5,19,119,0,0,0,0,0,,,,,0,13,13,4,,,,,,up,1.067482056996596,806.5898239914804,None,001,17,2019_Oct_09_1557,ACPT_experiment_5_30_19,3.1.0,59.955461205144466,
,,,C,D,d,v,L,G,g,R,c ,,,,,5,19,119,0,0,0,0,0,,,,,0,14,14,19,,,,,,up,0.7338796704116248,808.9416140357644,None,001,17,2019_Oct_09_1557,ACPT_experiment_5_30_19,3.1.0,59.955461205144466,
,,,C,D,d,v,R,D,y,R,y,,,,,5,19,119,0,0,0,0,0,,,,,0,15,15,27,,,,,,down,0.8337567853195651,810.9766617937239,None,001,17,2019_Oct_09_1557,ACPT_experiment_5_30_19,3.1.0,59.955461205144466,
,,,C,D,d,v,L,G,d,L,i,,,,,5,19,119,0,0,0,0,0,,,,,0,16,16,16,,,,,,up,0.8173041890513559,813.1114444929754,None,001,17,2019_Oct_09_1557,ACPT_experiment_5_30_19,3.1.0,59.955461205144466,
,,,C,D,d,v,L,D,g,R,i,,,,,5,19,119,0,0,0,0,0,,,,,0,17,17,15,,,,,,up,0.8673236435915896,815.2130385580276,None,001,17,2019_Oct_09_1557,ACPT_experiment_5_30_19,3.1.0,59.955461205144466,
,,,C,D,d,v,L,D,y,R,y,,,,,5,19,119,0,0,0,0,0,,,,,0,18,18,33,,,,,,down,0.8005832438575453,817.3646876964885,None,001,17,2019_Oct_09_1557,ACPT_experiment_5_30_19,3.1.0,59.955461205144466,
,,,C,D,d,v,R,D,g,L,i,,,,,5,19,119,0,0,0,0,0,,,,,0,19,19,2,,,,,,up,0.7672442859638977,819.449589190699,None,001,17,2019_Oct_09_1557,ACPT_experiment_5_30_19,3.1.0,59.955461205144466,
,,,C,D,d,v,L,U,y,L,u,,,,,5,19,119,0,0,0,0,0,,,,,0,20,20,24,,,,,,down,0.7839196510794864,821.5011465954849,None,001,17,2019_Oct_09_1557,ACPT_experiment_5_30_19,3.1.0,59.955461205144466,
,,,C,D,d,v,R,D,d,R,c ,,,,,5,19,119,0,0,0,0,0,,,,,0,21,21,1,,,,,,up,0.7172073238434677,823.5693869117567,None,001,17,2019_Oct_09_1557,ACPT_experiment_5_30_19,3.1.0,59.955461205144466,
,,,C,D,d,v,L,G,y,R,y,,,,,5,19,119,0,0,0,0,0,,,,,0,22,22,35,,,,,,down,0.9673978696901031,825.5875815121162,None,001,17,2019_Oct_09_1557,ACPT_experiment_5_30_19,3.1.0,59.955461205144466,
,,,C,D,d,v,L,U,d,L,u,,,,,5,19,119,0,0,0,0,0,,,,,0,23,23,20,,,,,,up,0.5670891929639765,827.8559726954209,None,001,17,2019_Oct_09_1557,ACPT_experiment_5_30_19,3.1.0,59.955461205144466,
,,,C,D,d,v,L,G,y,L,y,,,,,5,19,119,0,0,0,0,0,,,,,0,24,24,34,,,,,,down,0.9173666428105207,829.7073762146247,None,001,17,2019_Oct_09_1557,ACPT_experiment_5_30_19,3.1.0,59.955461205144466,
,,,C,D,d,v,R,G,y,R,y,,,,,5,19,119,0,0,0,0,0,,,,,0,25,25,29,,,,,,down,0.7172055127139174,831.9090496373065,None,001,17,2019_Oct_09_1557,ACPT_experiment_5_30_19,3.1.0,59.955461205144466,
,,,C,D,d,v,R,G,g,R,c ,,,,,5,19,119,0,0,0,0,0,,,,,0,26,26,7,,,,,,up,0.6171291736318381,833.9105724948076,None,001,17,2019_Oct_09_1557,ACPT_experiment_5_30_19,3.1.0,59.955461205144466,
,,,C,D,d,v,L,D,d,L,c ,,,,,5,19,119,0,0,0,0,0,,,,,0,27,27,12,,,,,,up,0.6671896804291464,835.8120081464567,None,001,17,2019_Oct_09_1557,ACPT_experiment_5_30_19,3.1.0,59.955461205144466,
,,,C,D,d,v,R,U,y,R,u,,,,,5,19,119,0,0,0,0,0,,,,,0,28,28,31,,,,,,down,0.7672310043526522,837.7801742366319,None,001,17,2019_Oct_09_1557,ACPT_experiment_5_30_19,3.1.0,59.955461205144466,
,,,C,D,d,v,L,U,g,L,u,,,,,5,19,119,0,0,0,0,0,,,,,0,29,29,22,,,,,,up,0.6838421045795258,839.8484130436282,None,001,17,2019_Oct_09_1557,ACPT_experiment_5_30_19,3.1.0,59.955461205144466,
,,,C,D,d,v,L,G,d,R,i,,,,,5,19,119,0,0,0,0,0,,,,,0,30,30,17,,,,,,up,0.7172163794875814,841.8165604188052,None,001,17,2019_Oct_09_1557,ACPT_experiment_5_30_19,3.1.0,59.955461205144466,
,,,C,D,d,v,R,G,y,L,y,,,,,5,19,119,0,0,0,0,0,,,,,0,31,31,28,,,,,,down,0.8673248510112899,843.8180896152589,None,001,17,2019_Oct_09_1557,ACPT_experiment_5_30_19,3.1.0,59.955461205144466,
,,,C,D,d,v,R,U,g,L,u,,,,,5,19,119,0,0,0,0,0,,,,,0,32,32,10,,,,,,up,0.8172878888908599,845.9697224535594,None,001,17,2019_Oct_09_1557,ACPT_experiment_5_30_19,3.1.0,59.955461205144466,
,,,C,D,d,v,R,U,g,R,u,,,,,5,19,119,0,0,0,0,0,,,,,0,33,33,11,,,,,,up,0.43379524162264715,848.0544992817358,None,001,17,2019_Oct_09_1557,ACPT_experiment_5_30_19,3.1.0,59.955461205144466,
,,,C,D,d,v,L,U,d,R,u,,,,,5,19,119,0,0,0,0,0,,,,,0,34,34,21,,,,,,up,0.6004492806951021,849.7726118681458,None,001,17,2019_Oct_09_1557,ACPT_experiment_5_30_19,3.1.0,59.955461205144466,
,,,C,D,d,v,R,U,d,R,u,,,,,5,19,119,0,0,0,0,0,,,,,0,35,35,9,,,,,,up,0.5671136432029016,851.657354647099,None,001,17,2019_Oct_09_1557,ACPT_experiment_5_30_19,3.1.0,59.955461205144466,
,,,C,D,d,v,L,D,d,R,c ,,,,,5,19,119,0,0,0,0,0,,,,,1,0,36,13,,,,,,up,0.6171303810515383,853.5087814091239,None,001,17,2019_Oct_09_1557,ACPT_experiment_5_30_19,3.1.0,59.955461205144466,
,,,C,D,d,v,R,G,g,L,c ,,,,,5,19,119,0,0,0,0,0,,,,,1,1,37,6,,,,,,up,1.0174592820512771,855.4102246071434,None,001,17,2019_Oct_09_1557,ACPT_experiment_5_30_19,3.1.0,59.955461205144466,
,,,C,D,d,v,L,U,y,R,u,,,,,5,19,119,0,0,0,0,0,,,,,1,2,38,25,,,,,,down,0.8006122219194367,857.71197225592,None,001,17,2019_Oct_09_1557,ACPT_experiment_5_30_19,3.1.0,59.955461205144466,
,,,C,D,d,v,R,D,d,L,c,,,,,5,19,119,0,0,0,0,0,,,,,1,3,39,0,,,,,,up,0.7005310531621944,859.7968885410173,None,001,17,2019_Oct_09_1557,ACPT_experiment_5_30_19,3.1.0,59.955461205144466,
,,,C,D,d,v,L,U,g,L,u,,,,,5,19,119,0,0,0,0,0,,,,,1,4,40,22,,,,,,up,0.7005310531621944,861.7817251666311,None,001,17,2019_Oct_09_1557,ACPT_experiment_5_30_19,3.1.0,59.955461205144466,
,,,C,D,d,v,R,U,y,R,u,,,,,5,19,119,0,0,0,0,0,,,,,1,5,41,31,,,,,,down,0.8172779276828805,863.766566320066,None,001,17,2019_Oct_09_1557,ACPT_experiment_5_30_19,3.1.0,59.955461205144466,
,,,C,D,d,v,L,U,g,R,u,,,,,5,19,119,0,0,0,0,0,,,,,1,6,42,23,,,,,,up,0.8673221343178739,865.8681649129394,None,001,17,2019_Oct_09_1557,ACPT_experiment_5_30_19,3.1.0,59.955461205144466,
,,,C,D,d,v,L,G,y,L,y,,,,,5,19,119,0,0,0,0,0,,,,,1,7,43,34,,,,,,down,0.7505613744779112,868.0197998642252,None,001,17,2019_Oct_09_1557,ACPT_experiment_5_30_19,3.1.0,59.955461205144466,
,,,C,D,d,v,L,U,d,L,u,,,,,5,19,119,0,0,0,0,0,,,,,1,8,44,20,,,,,,up,0.8506715212970448,870.0546788853462,None,001,17,2019_Oct_09_1557,ACPT_experiment_5_30_19,3.1.0,59.955461205144466,
,,,C,D,d,v,L,G,g,R,c ,,,,,5,19,119,0,0,0,0,0,,,,,1,9,45,19,,,,,,up,0.7005219975180808,872.1896321325639,None,001,17,2019_Oct_09_1557,ACPT_experiment_5_30_19,3.1.0,59.955461205144466,
,,,C,D,d,v,R,U,y,L,u,,,,,5,19,119,0,0,0,0,0,,,,,1,10,46,30,,,,,,down,1.0507955232533277,874.1744690600317,None,001,17,2019_Oct_09_1557,ACPT_experiment_5_30_19,3.1.0,59.955461205144466,
,,,C,D,d,v,R,U,g,R,u,,,,,5,19,119,0,0,0,0,0,,,,,1,11,47,11,,,,,,up,0.95072280642853,876.5095719668643,None,001,17,2019_Oct_09_1557,ACPT_experiment_5_30_19,3.1.0,59.955461205144466,
,,,C,D,d,v,L,G,d,R,i,,,,,5,19,119,0,0,0,0,0,,,,,1,12,48,17,,,,,,up,0.6504708482207207,878.7446184570326,None,001,17,2019_Oct_09_1557,ACPT_experiment_5_30_19,3.1.0,59.955461205144466,
,,,C,D,d,v,R,G,d,L,i,,,,,5,19,119,0,0,0,0,0,,,,,1,13,49,4,,,,,,up,0.8338802439357096,880.6794075556063,None,001,17,2019_Oct_09_1557,ACPT_experiment_5_30_19,3.1.0,59.955461205144466,
,,,C,D,d,v,R,D,g,L,i,,,,,5,19,119,0,0,0,0,0,,,,,1,14,50,2,,,,,,up,0.5670882874001109,882.7976833247249,None,001,17,2019_Oct_09_1557,ACPT_experiment_5_30_19,3.1.0,59.955461205144466,
,,,C,D,d,v,L,U,d,R,u,,,,,5,19,119,0,0,0,0,0,,,,,1,15,51,21,,,,,,up,0.45033447022069595,884.6490895606221,None,001,17,2019_Oct_09_1557,ACPT_experiment_5_30_19,3.1.0,59.955461205144466,
,,,C,D,d,v,L,D,d,L,c ,,,,,5,19,119,0,0,0,0,0,,,,,1,16,52,12,,,,,,up,1.0007567500015284,886.3837368478071,None,001,17,2019_Oct_09_1557,ACPT_experiment_5_30_19,3.1.0,59.955461205144466,
,,,C,D,d,v,L,U,y,L,u,,,,,5,19,119,0,0,0,0,0,,,,,1,17,53,24,,,,,,down,1.184220177725365,888.6854989856165,None,001,17,2019_Oct_09_1557,ACPT_experiment_5_30_19,3.1.0,59.955461205144466,
,,,C,D,d,v,L,G,g,L,c ,,,,,5,19,119,0,0,0,0,0,,,,,1,18,54,18,,,,,,up,1.6345733629441384,891.1540244339376,None,001,17,2019_Oct_09_1557,ACPT_experiment_5_30_19,3.1.0,59.955461205144466,
,,,C,D,d,v,R,D,y,L,y,,,,,5,19,119,0,0,0,0,0,,,,,1,19,55,26,,,,,,down,1.300972485632883,894.0895935253338,None,001,17,2019_Oct_09_1557,ACPT_experiment_5_30_19,3.1.0,59.955461205144466,
,,,C,D,d,v,R,D,y,R,y,,,,,5,19,119,0,0,0,0,0,,,,,1,20,56,27,,,,,,down,1.067632380689247,896.674739069158,None,001,17,2019_Oct_09_1557,ACPT_experiment_5_30_19,3.1.0,59.955461205144466,
,,,C,D,d,v,L,D,y,R,y,,,,,5,19,119,0,0,0,0,0,,,,,1,21,57,33,,,,,,down,1.0674959423158725,899.0433249186262,None,001,17,2019_Oct_09_1557,ACPT_experiment_5_30_19,3.1.0,59.955461205144466,
,,,C,D,d,v,L,G,y,R,y,,,,,5,19,119,0,0,0,0,0,,,,,1,22,58,35,,,,,,down,1.2509388439139002,901.395138507587,None,001,17,2019_Oct_09_1557,ACPT_experiment_5_30_19,3.1.0,59.955461205144466,
,,,C,D,d,v,R,G,g,R,c ,,,,,5,19,119,0,0,0,0,0,,,,,1,23,59,7,,,,,,down,0.9840777626286581,903.9303922814506,None,001,17,2019_Oct_09_1557,ACPT_experiment_5_30_19,3.1.0,59.955461205144466,
,,,C,D,d,v,R,D,g,R,i,,,,,5,19,119,0,0,0,0,0,,,,,1,24,60,3,,,,,,up,1.5011423695177655,906.1820999495594,None,001,17,2019_Oct_09_1557,ACPT_experiment_5_30_19,3.1.0,59.955461205144466,
,,,C,D,d,v,R,U,d,R,u,,,,,5,19,119,0,0,0,0,0,,,,,1,25,61,9,,,,,,up,0.6004538085180684,908.967546382255,None,001,17,2019_Oct_09_1557,ACPT_experiment_5_30_19,3.1.0,59.955461205144466,
,,,C,D,d,v,R,U,d,L,u,,,,,5,19,119,0,0,0,0,0,,,,,1,26,62,8,,,,,,up,0.8506476747661509,910.8523130077374,None,001,17,2019_Oct_09_1557,ACPT_experiment_5_30_19,3.1.0,59.955461205144466,
,,,C,D,d,v,R,U,g,L,u,,,,,5,19,119,0,0,0,0,0,,,,,1,27,63,10,,,,,,up,0.6838659511104197,912.9705682507301,None,001,17,2019_Oct_09_1557,ACPT_experiment_5_30_19,3.1.0,59.955461205144466,
,,,C,D,d,v,R,G,d,R,i,,,,,5,19,119,0,0,0,0,0,,,,,1,28,64,5,,,,,,up,0.9140196767075395,914.9587705574431,None,001,17,2019_Oct_09_1557,ACPT_experiment_5_30_19,3.1.0,59.955461205144466,
,,,C,D,d,v,R,G,y,L,y,,,,,5,19,119,0,0,0,0,0,,,,,1,29,65,28,,,,,,down,0.7505665060089086,917.1404189322111,None,001,17,2019_Oct_09_1557,ACPT_experiment_5_30_19,3.1.0,59.955461205144466,
,,,C,D,d,v,L,D,g,L,i,,,,,5,19,119,0,0,0,0,0,,,,,1,30,66,14,,,,,,up,0.6171343051646545,919.1752994626077,None,001,17,2019_Oct_09_1557,ACPT_experiment_5_30_19,3.1.0,59.955461205144466,
,,,C,D,d,v,L,G,d,L,i,,,,,5,19,119,0,0,0,0,0,,,,,1,31,67,16,,,,,,up,0.5837585209828831,921.0767544329628,None,001,17,2019_Oct_09_1557,ACPT_experiment_5_30_19,3.1.0,59.955461205144466,
,,,C,D,d,v,L,D,g,R,i,,,,,5,19,119,0,0,0,0,0,,,,,1,32,68,15,,,,,,up,0.8172637405059504,922.9448327135742,None,001,17,2019_Oct_09_1557,ACPT_experiment_5_30_19,3.1.0,59.955461205144466,
,,,C,D,d,v,R,D,d,R,c ,,,,,5,19,119,0,0,0,0,0,,,,,1,33,69,1,,,,,,up,0.650510089344607,925.0464246656429,None,001,17,2019_Oct_09_1557,ACPT_experiment_5_30_19,3.1.0,59.955461205144466,
,,,C,D,d,v,L,D,y,L,y,,,,,5,19,119,0,0,0,0,0,,,,,1,34,70,32,,,,,,down,0.9838715957939712,926.9980768830228,None,001,17,2019_Oct_09_1557,ACPT_experiment_5_30_19,3.1.0,59.955461205144466,
,,,C,D,d,v,R,G,y,R,y,,,,,5,19,119,0,0,0,0,0,,,,,1,35,71,29,,,,,,down,0.6838587065940374,929.2662917831185,None,001,17,2019_Oct_09_1557,ACPT_experiment_5_30_19,3.1.0,59.955461205144466,
,,,C,D,d,v,,,,,,,,,,5,19,119,0,1,0,1,0,0,0,0,0,,,,,,,,,,,,,,001,17,2019_Oct_09_1557,ACPT_experiment_5_30_19,3.1.0,59.955461205144466,
,,,C,D,d,v,R,G,d,R,i,,,,,5,19,119,0,1,0,1,0,,,,,0,0,0,5,,,,,,up,0.6136738416553271,935.391065882528,None,001,17,2019_Oct_09_1557,ACPT_experiment_5_30_19,3.1.0,59.955461205144466,
,,,C,D,d,v,R,D,y,L,y,,,,,5,19,119,0,1,0,1,0,,,,,0,1,1,26,,,,,,down,0.6671480244658596,937.2890691431639,None,001,17,2019_Oct_09_1557,ACPT_experiment_5_30_19,3.1.0,59.955461205144466,
,,,C,D,d,v,L,D,y,L,y,,,,,5,19,119,0,1,0,1,0,,,,,0,2,2,32,,,,,,down,0.8673505086717341,939.2405064399209,None,001,17,2019_Oct_09_1557,ACPT_experiment_5_30_19,3.1.0,59.955461205144466,
,,,C,D,d,v,L,D,y,R,y,,,,,5,19,119,0,1,0,1,0,,,,,0,3,3,33,,,,,,down,1.6512550670104247,941.3921649358799,None,001,17,2019_Oct_09_1557,ACPT_experiment_5_30_19,3.1.0,59.955461205144466,
,,,C,D,d,v,L,U,y,R,u,,,,,5,19,119,0,1,0,1,0,,,,,0,4,4,25,,,,,,down,0.7338845000886067,944.3277270846156,None,001,17,2019_Oct_09_1557,ACPT_experiment_5_30_19,3.1.0,59.955461205144466,
,,,C,D,d,v,L,D,g,R,i,,,,,5,19,119,0,1,0,1,0,,,,,0,5,5,15,,,,,,up,0.5837699914663972,946.3459250053802,None,001,17,2019_Oct_09_1557,ACPT_experiment_5_30_19,3.1.0,59.955461205144466,
,,,C,D,d,v,L,U,y,L,u,,,,,5,19,119,0,1,0,1,0,,,,,0,6,6,24,,,,,,down,0.8339514816689189,948.2140144546192,None,001,17,2019_Oct_09_1557,ACPT_experiment_5_30_19,3.1.0,59.955461205144466,
,,,C,D,d,v,R,G,g,R,c ,,,,,5,19,119,0,1,0,1,0,,,,,0,7,7,7,,,,,,up,0.5170558531008282,950.3322826773674,None,001,17,2019_Oct_09_1557,ACPT_experiment_5_30_19,3.1.0,59.955461205144466,
,,,C,D,d,v,L,G,d,L,i,,,,,5,19,119,0,1,0,1,0,,,,,0,8,8,16,,,,,,up,0.9507161656219978,952.1336555734015,None,001,17,2019_Oct_09_1557,ACPT_experiment_5_30_19,3.1.0,59.955461205144466,
,,,C,D,d,v,R,U,g,R,u,,,,,5,19,119,0,1,0,1,0,,,,,0,9,9,11,,,,,,up,0.7672448896737478,954.3686809337323,None,001,17,2019_Oct_09_1557,ACPT_experiment_5_30_19,3.1.0,59.955461205144466,
,,,C,D,d,v,R,D,g,L,i,,,,,5,19,119,0,1,0,1,0,,,,,0,10,10,2,,,,,,up,0.7505668078629242,956.4202422626313,None,001,17,2019_Oct_09_1557,ACPT_experiment_5_30_19,3.1.0,59.955461205144466,
,,,C,D,d,v,R,U,d,L,u,,,,,5,19,119,0,1,0,1,0,,,,,0,11,11,8,,,,,,up,1.267623566529437,958.4551224911702,None,001,17,2019_Oct_09_1557,ACPT_experiment_5_30_19,3.1.0,59.955461205144466,
,,,C,D,d,v,L,G,g,L,c ,,,,,5,19,119,0,1,0,1,0,,,,,0,12,12,18,,,,,,up,1.217290786697049,961.0240342834604,None,001,17,2019_Oct_09_1557,ACPT_experiment_5_30_19,3.1.0,59.955461205144466,
,,,C,D,d,v,L,U,g,R,u,,,,,5,19,119,0,1,0,1,0,,,,,0,13,13,23,,,,,,up,0.7672470026573137,963.5256381889794,None,001,17,2019_Oct_09_1557,ACPT_experiment_5_30_19,3.1.0,59.955461205144466,
,,,C,D,d,v,L,U,d,R,u,,,,,5,19,119,0,1,0,1,0,,,,,0,14,14,21,,,,,,up,1.601233499482987,965.5604933635695,None,001,17,2019_Oct_09_1557,ACPT_experiment_5_30_19,3.1.0,59.955461205144466,
,,,C,D,d,v,R,U,d,R,u,,,,,5,19,119,0,1,0,1,0,,,,,0,15,15,9,,,,,,up,3.936321615430643,968.4460372651829,None,001,17,2019_Oct_09_1557,ACPT_experiment_5_30_19,3.1.0,59.955461205144466,
,,,C,D,d,v,R,D,d,L,c,,,,,5,19,119,0,1,0,1,0,,,,,0,16,16,0,,,,,,up,0.6504886576549325,973.6666698864501,None,001,17,2019_Oct_09_1557,ACPT_experiment_5_30_19,3.1.0,59.955461205144466,
,,,C,D,d,v,L,G,d,R,i,,,,,5,19,119,0,1,0,1,0,,,,,0,17,17,17,,,,,,up,0.7505659022990585,975.6014662295402,None,001,17,2019_Oct_09_1557,ACPT_experiment_5_30_19,3.1.0,59.955461205144466,
,,,C,D,d,v,L,D,d,L,c ,,,,,5,19,119,0,1,0,1,0,,,,,0,18,18,12,,,,,,up,0.583720487276878,977.6363687953362,None,001,17,2019_Oct_09_1557,ACPT_experiment_5_30_19,3.1.0,59.955461205144466,
,,,C,D,d,v,R,U,y,L,u,,,,,5,19,119,0,1,0,1,0,,,,,0,19,19,30,,,,,,down,1.017434831810533,979.5044331906265,None,001,17,2019_Oct_09_1557,ACPT_experiment_5_30_19,3.1.0,59.955461205144466,
,,,C,D,d,v,L,D,g,L,i,,,,,5,19,119,0,1,0,1,0,,,,,0,20,20,14,,,,,,up,0.717222114728429,981.8061838579506,None,001,17,2019_Oct_09_1557,ACPT_experiment_5_30_19,3.1.0,59.955461205144466,
,,,C,D,d,v,R,U,y,R,u,,,,,5,19,119,0,1,0,1,0,,,,,0,21,21,31,,,,,,down,0.7839302159991348,983.8076988672292,None,001,17,2019_Oct_09_1557,ACPT_experiment_5_30_19,3.1.0,59.955461205144466,
,,,C,D,d,v,L,U,g,L,u,,,,,5,19,119,0,1,0,1,0,,,,,0,22,22,22,,,,,,up,0.6504910724925139,985.8759337501142,None,001,17,2019_Oct_09_1557,ACPT_experiment_5_30_19,3.1.0,59.955461205144466,
,,,C,D,d,v,L,D,d,R,c ,,,,,5,19,119,0,1,0,1,0,,,,,0,23,23,13,,,,,,up,0.7005298457443132,987.810737035863,None,001,17,2019_Oct_09_1557,ACPT_experiment_5_30_19,3.1.0,59.955461205144466,
,,,C,D,d,v,R,G,y,L,y,,,,,5,19,119,0,1,0,1,0,,,,,0,24,24,28,,,,,,down,0.7505707319760404,989.7955742651866,None,001,17,2019_Oct_09_1557,ACPT_experiment_5_30_19,3.1.0,59.955461205144466,
,,,C,D,d,v,R,G,d,L,i,,,,,5,19,119,0,1,0,1,0,,,,,0,25,25,4,,,,,,up,0.6504892613629636,991.8304557011452,None,001,17,2019_Oct_09_1557,ACPT_experiment_5_30_19,3.1.0,59.955461205144466,
,,,C,D,d,v,R,D,y,R,y,,,,,5,19,119,0,1,0,1,0,,,,,0,26,26,27,,,,,,down,0.8840032346761291,993.7652626091531,None,001,17,2019_Oct_09_1557,ACPT_experiment_5_30_19,3.1.0,59.955461205144466,
,,,C,D,d,v,R,D,g,R,i,,,,,5,19,119,0,1,0,1,0,,,,,0,27,27,3,,,,,,up,0.7672421729803318,995.9335723218446,None,001,17,2019_Oct_09_1557,ACPT_experiment_5_30_19,3.1.0,59.955461205144466,
,,,C,D,d,v,L,G,y,R,y,,,,,5,19,119,0,1,0,1,0,,,,,0,28,28,35,,,,,,down,0.7505933710872341,997.9851058801014,None,001,17,2019_Oct_09_1557,ACPT_experiment_5_30_19,3.1.0,59.955461205144466,
,,,C,D,d,v,R,G,y,R,y,,,,,5,19,119,0,1,0,1,0,,,,,0,29,29,29,,,,,,down,0.6504874502352322,1000.0200129737186,None,001,17,2019_Oct_09_1557,ACPT_experiment_5_30_19,3.1.0,59.955461205144466,
,,,C,D,d,v,L,G,g,R,c ,,,,,5,19,119,0,1,0,1,0,,,,,0,30,30,19,,,,,,up,1.5344870626540796,1001.95481324092,None,001,17,2019_Oct_09_1557,ACPT_experiment_5_30_19,3.1.0,59.955461205144466,
,,,C,D,d,v,L,G,y,L,y,,,,,5,19,119,0,1,0,1,0,,,,,0,31,31,34,,,,,,down,1.2343262645972572,1004.7569142107495,None,001,17,2019_Oct_09_1557,ACPT_experiment_5_30_19,3.1.0,59.955461205144466,
,,,C,D,d,v,L,U,d,L,u,,,,,5,19,119,0,1,0,1,0,,,,,0,32,32,20,,,,,,up,2.918881953943128,1007.2755143530449,None,001,17,2019_Oct_09_1557,ACPT_experiment_5_30_19,3.1.0,59.955461205144466,
,,,C,D,d,v,R,G,g,L,c ,,,,,5,19,119,0,1,0,1,0,,,,,0,33,33,6,,,,,,up,1.8847620976612234,1011.4787064072607,None,001,17,2019_Oct_09_1557,ACPT_experiment_5_30_19,3.1.0,59.955461205144466,
,,,C,D,d,v,R,U,g,L,u,,,,,5,19,119,0,1,0,1,0,,,,,0,34,34,10,,,,,,up,0.6004583363392157,1014.6310956937086,None,001,17,2019_Oct_09_1557,ACPT_experiment_5_30_19,3.1.0,59.955461205144466,
,,,C,D,d,v,R,D,d,R,c ,,,,,5,19,119,0,1,0,1,0,,,,,0,35,35,1,,,,,,up,1.1008355039211892,1016.5158647340304,None,001,17,2019_Oct_09_1557,ACPT_experiment_5_30_19,3.1.0,59.955461205144466,
,,,C,D,d,v,L,D,y,R,y,,,,,5,19,119,0,1,0,1,0,,,,,1,0,36,33,,,,,,down,1.2009079188883334,1018.9010058104031,None,001,17,2019_Oct_09_1557,ACPT_experiment_5_30_19,3.1.0,59.955461205144466,
,,,C,D,d,v,R,U,g,R,u,,,,,5,19,119,0,1,0,1,0,,,,,1,1,37,11,,,,,,up,0.9340417060702748,1021.38622413142,None,001,17,2019_Oct_09_1557,ACPT_experiment_5_30_19,3.1.0,59.955461205144466,
,,,C,D,d,v,R,U,y,R,u,,,,,5,19,119,0,1,0,1,0,,,,,1,2,38,31,,,,,,down,1.5845300618711917,1023.604580163732,None,001,17,2019_Oct_09_1557,ACPT_experiment_5_30_19,3.1.0,59.955461205144466,
,,,C,D,d,v,L,D,y,L,y,,,,,5,19,119,0,1,0,1,0,,,,,1,3,39,32,,,,,,down,1.13419408237678,1026.4734209295857,None,001,17,2019_Oct_09_1557,ACPT_experiment_5_30_19,3.1.0,59.955461205144466,
,,,C,D,d,v,R,G,g,L,c ,,,,,5,19,119,0,1,0,1,0,,,,,1,4,40,6,,,,,,up,0.6338160092327598,1028.8919248103812,None,001,17,2019_Oct_09_1557,ACPT_experiment_5_30_19,3.1.0,59.955461205144466,
,,,C,D,d,v,R,D,d,L,c,,,,,5,19,119,0,1,0,1,0,,,,,1,5,41,0,,,,,,up,0.4670092316264345,1030.8100500143228,None,001,17,2019_Oct_09_1557,ACPT_experiment_5_30_19,3.1.0,59.955461205144466,
,,,C,D,d,v,R,D,y,R,y,,,,,5,19,119,0,1,0,1,0,,,,,1,6,42,27,,,,,,down,0.6505097874905914,1032.5446779827998,None,001,17,2019_Oct_09_1557,ACPT_experiment_5_30_19,3.1.0,59.955461205144466,
,,,C,D,d,v,L,U,g,L,u,,,,,5,19,119,0,1,0,1,0,,,,,1,7,43,22,,,,,,up,0.5003705267754412,1034.4795039076598,None,001,17,2019_Oct_09_1557,ACPT_experiment_5_30_19,3.1.0,59.955461205144466,
,,,C,D,d,v,R,G,g,R,c ,,,,,5,19,119,0,1,0,1,0,,,,,1,8,44,7,,,,,,up,0.9673987752539688,1036.2641917792243,None,001,17,2019_Oct_09_1557,ACPT_experiment_5_30_19,3.1.0,59.955461205144466,
,,,C,D,d,v,L,G,y,R,y,,,,,5,19,119,0,1,0,1,0,,,,,1,9,45,35,,,,,,down,1.0505211372328631,1038.532850405889,None,001,17,2019_Oct_09_1557,ACPT_experiment_5_30_19,3.1.0,59.955461205144466,
,,,C,D,d,v,L,D,g,R,i,,,,,5,19,119,0,1,0,1,0,,,,,1,10,46,15,,,,,,up,0.5337309163605823,1040.8676855675058,None,001,17,2019_Oct_09_1557,ACPT_experiment_5_30_19,3.1.0,59.955461205144466,
,,,C,D,d,v,R,G,d,R,i,,,,,5,19,119,0,1,0,1,0,,,,,1,11,47,5,,,,,,up,0.5504162426859693,1042.6857296026883,None,001,17,2019_Oct_09_1557,ACPT_experiment_5_30_19,3.1.0,59.955461205144466,
,,,C,D,d,v,L,G,d,R,i,,,,,5,19,119,0,1,0,1,0,,,,,1,12,48,17,,,,,,up,0.5003656970984593,1044.52045986976,None,001,17,2019_Oct_09_1557,ACPT_experiment_5_30_19,3.1.0,59.955461205144466,
,,,C,D,d,v,R,U,d,R,u,,,,,5,19,119,0,1,0,1,0,,,,,1,13,49,9,,,,,,up,0.8839492026654625,1046.3051878880142,None,001,17,2019_Oct_09_1557,ACPT_experiment_5_30_19,3.1.0,59.955461205144466,
,,,C,D,d,v,L,U,g,R,u,,,,,5,19,119,0,1,0,1,0,,,,,1,14,50,23,,,,,,up,1.0507828453501133,1048.4901448933251,None,001,17,2019_Oct_09_1557,ACPT_experiment_5_30_19,3.1.0,59.955461205144466,
,,,C,D,d,v,L,U,d,R,u,,,,,5,19,119,0,1,0,1,0,,,,,1,15,51,21,,,,,,up,0.5337369534572645,1050.8252399519315,None,001,17,2019_Oct_09_1557,ACPT_experiment_5_30_19,3.1.0,59.955461205144466,
,,,C,D,d,v,L,D,g,L,i,,,,,5,19,119,0,1,0,1,0,,,,,1,16,52,14,,,,,,up,1.034116837732654,1052.643288816791,None,001,17,2019_Oct_09_1557,ACPT_experiment_5_30_19,3.1.0,59.955461205144466,
,,,C,D,d,v,L,D,d,L,c ,,,,,5,19,119,0,1,0,1,0,,,,,1,17,53,12,,,,,,up,1.167553868255709,1054.9617145473785,None,001,17,2019_Oct_09_1557,ACPT_experiment_5_30_19,3.1.0,59.955461205144466,
,,,C,D,d,v,R,D,d,R,c ,,,,,5,19,119,0,1,0,1,0,,,,,1,18,54,1,,,,,,up,0.6171294754876726,1057.413578214051,None,001,17,2019_Oct_09_1557,ACPT_experiment_5_30_19,3.1.0,59.955461205144466,
,,,C,D,d,v,R,U,y,L,u,,,,,5,19,119,0,1,0,1,0,,,,,1,19,55,30,,,,,,down,0.9840940627873351,1059.3150039044904,None,001,17,2019_Oct_09_1557,ACPT_experiment_5_30_19,3.1.0,59.955461205144466,
,,,C,D,d,v,R,U,g,L,u,,,,,5,19,119,0,1,0,1,0,,,,,1,20,56,10,,,,,,up,0.850640128397572,1061.583409576826,None,001,17,2019_Oct_09_1557,ACPT_experiment_5_30_19,3.1.0,59.955461205144466,
,,,C,D,d,v,L,U,y,L,u,,,,,5,19,119,0,1,0,1,0,,,,,1,21,57,24,,,,,,down,1.0174357373762177,1063.7183637296093,None,001,17,2019_Oct_09_1557,ACPT_experiment_5_30_19,3.1.0,59.955461205144466,
,,,C,D,d,v,L,G,g,R,c ,,,,,5,19,119,0,1,0,1,0,,,,,1,22,58,19,,,,,,up,0.6336937580344966,1066.0201131895155,None,001,17,2019_Oct_09_1557,ACPT_experiment_5_30_19,3.1.0,59.955461205144466,
,,,C,D,d,v,R,U,d,L,u,,,,,5,19,119,0,1,0,1,0,,,,,1,23,59,8,,,,,,up,1.4510987665926223,1067.938235374908,None,001,17,2019_Oct_09_1557,ACPT_experiment_5_30_19,3.1.0,59.955461205144466,
,,,C,D,d,v,R,D,g,R,i,,,,,5,19,119,0,1,0,1,0,,,,,1,24,60,3,,,,,,up,0.8673233417375741,1070.6736436380615,None,001,17,2019_Oct_09_1557,ACPT_experiment_5_30_19,3.1.0,59.955461205144466,
,,,C,D,d,v,R,G,y,L,y,,,,,5,19,119,0,1,0,1,0,,,,,1,25,61,28,,,,,,down,1.1172690833354864,1072.842201777259,None,001,17,2019_Oct_09_1557,ACPT_experiment_5_30_19,3.1.0,59.955461205144466,
,,,C,D,d,v,L,G,y,L,y,,,,,5,19,119,0,1,0,1,0,,,,,1,26,62,34,,,,,,down,1.6846006657106045,1075.243791223933,None,001,17,2019_Oct_09_1557,ACPT_experiment_5_30_19,3.1.0,59.955461205144466,
,,,C,D,d,v,L,D,d,R,c ,,,,,5,19,119,0,1,0,1,0,,,,,1,27,63,13,,,,,,up,0.5170748699529213,1078.2126811619346,None,001,17,2019_Oct_09_1557,ACPT_experiment_5_30_19,3.1.0,59.955461205144466,
,,,C,D,d,v,R,D,g,L,i,,,,,5,19,119,0,1,0,1,0,,,,,1,28,64,2,,,,,,up,1.6846133436119999,1080.0140676414358,None,001,17,2019_Oct_09_1557,ACPT_experiment_5_30_19,3.1.0,59.955461205144466,
,,,C,D,d,v,R,D,y,L,y,,,,,5,19,119,0,1,0,1,0,,,,,1,29,65,26,,,,,,down,1.050813634539736,1082.9829865574993,None,001,17,2019_Oct_09_1557,ACPT_experiment_5_30_19,3.1.0,59.955461205144466,
,,,C,D,d,v,L,U,d,L,u,,,,,5,19,119,0,1,0,1,0,,,,,1,30,66,20,,,,,,up,1.300986069099963,1085.3180921810235,None,001,17,2019_Oct_09_1557,ACPT_experiment_5_30_19,3.1.0,59.955461205144466,
,,,C,D,d,v,R,G,d,L,i,,,,,5,19,119,0,1,0,1,0,,,,,1,31,67,4,,,,,,up,1.0674805477228801,1087.9033862374126,None,001,17,2019_Oct_09_1557,ACPT_experiment_5_30_19,3.1.0,59.955461205144466,
,,,C,D,d,v,L,G,d,L,i,,,,,5,19,119,0,1,0,1,0,,,,,1,32,68,16,,,,,,up,0.8839944808860309,1090.2551793002458,None,001,17,2019_Oct_09_1557,ACPT_experiment_5_30_19,3.1.0,59.955461205144466,
,,,C,D,d,v,L,G,g,L,c ,,,,,5,19,119,0,1,0,1,0,,,,,1,33,69,18,,,,,,up,1.3677309966551547,1092.4234660719721,None,001,17,2019_Oct_09_1557,ACPT_experiment_5_30_19,3.1.0,59.955461205144466,
,,,C,D,d,v,L,U,y,R,u,,,,,5,19,119,0,1,0,1,0,,,,,1,34,70,25,,,,,,down,1.6343735350601492,1095.0923394985166,None,001,17,2019_Oct_09_1557,ACPT_experiment_5_30_19,3.1.0,59.955461205144466,
,,,C,D,d,v,R,G,y,R,y,,,,,5,19,119,0,1,0,1,0,,,,,1,35,71,29,,,,,,down,0.9173720761973527,1098.0110596582817,None,001,17,2019_Oct_09_1557,ACPT_experiment_5_30_19,3.1.0,59.955461205144466,
,,,C,D,d,v,,,,,,,,,,5,19,119,0,2,0,2,0,0,0,0,0,,,,,,,,,,,,,,001,17,2019_Oct_09_1557,ACPT_experiment_5_30_19,3.1.0,59.955461205144466,
,,,C,D,d,v,R,U,g,R,u,,,,,5,19,119,0,2,0,2,0,,,,,0,0,0,11,,,,,,down,1.634595398345482,1108.986072419193,None,001,17,2019_Oct_09_1557,ACPT_experiment_5_30_19,3.1.0,59.955461205144466,
,,,C,D,d,v,R,G,g,L,c ,,,,,5,19,119,0,2,0,2,0,,,,,0,1,1,6,,,,,,up,0.7505689208483091,1111.904941393379,None,001,17,2019_Oct_09_1557,ACPT_experiment_5_30_19,3.1.0,59.955461205144466,
,,,C,D,d,v,R,U,g,L,u,,,,,5,19,119,0,2,0,2,0,,,,,0,2,2,10,,,,,,up,0.5837745192893635,1113.9398234330474,None,001,17,2019_Oct_09_1557,ACPT_experiment_5_30_19,3.1.0,59.955461205144466,
,,,C,D,d,v,L,G,g,L,c ,,,,,5,19,119,0,2,0,2,0,,,,,0,3,3,18,,,,,,up,0.6504910724925139,1115.8079062414818,None,001,17,2019_Oct_09_1557,ACPT_experiment_5_30_19,3.1.0,59.955461205144466,
,,,C,D,d,v,R,U,d,L,u,,,,,5,19,119,0,2,0,2,0,,,,,0,4,4,8,,,,,,up,0.4503281312681793,1117.7427086216667,None,001,17,2019_Oct_09_1557,ACPT_experiment_5_30_19,3.1.0,59.955461205144466,
,,,C,D,d,v,L,G,d,L,i,,,,,5,19,119,0,2,0,2,0,,,,,0,5,5,16,,,,,,up,0.6338042368934111,1119.4773616440943,None,001,17,2019_Oct_09_1557,ACPT_experiment_5_30_19,3.1.0,59.955461205144466,
,,,C,D,d,v,L,U,d,R,u,,,,,5,19,119,0,2,0,2,0,,,,,0,6,6,21,,,,,,up,0.7338893297655886,1121.3954811127933,None,001,17,2019_Oct_09_1557,ACPT_experiment_5_30_19,3.1.0,59.955461205144466,
,,,C,D,d,v,L,U,g,L,u,,,,,5,19,119,0,2,0,2,0,,,,,0,7,7,22,,,,,,up,0.4136464332386822,1123.433694422114,None,001,17,2019_Oct_09_1557,ACPT_experiment_5_30_19,3.1.0,59.955461205144466,
,,,C,D,d,v,R,G,g,R,c ,,,,,5,19,119,0,2,0,2,0,,,,,0,8,8,7,,,,,,up,0.6171288717796415,1125.131652464901,None,001,17,2019_Oct_09_1557,ACPT_experiment_5_30_19,3.1.0,59.955461205144466,
,,,C,D,d,v,R,D,y,R,y,,,,,5,19,119,0,2,0,2,0,,,,,0,9,9,27,,,,,,down,0.8339644614261488,1127.0330977759022,None,001,17,2019_Oct_09_1557,ACPT_experiment_5_30_19,3.1.0,59.955461205144466,
,,,C,D,d,v,R,D,g,R,i,,,,,5,19,119,0,2,0,2,0,,,,,0,10,10,3,,,,,,up,0.5170612864876603,1129.1513659986504,None,001,17,2019_Oct_09_1557,ACPT_experiment_5_30_19,3.1.0,59.955461205144466,
,,,C,D,d,v,L,U,g,R,u,,,,,5,19,119,0,2,0,2,0,,,,,0,11,11,23,,,,,,up,0.6338425724552508,1130.9527367817009,None,001,17,2019_Oct_09_1557,ACPT_experiment_5_30_19,3.1.0,59.955461205144466,
,,,C,D,d,v,L,D,g,L,i,,,,,5,19,119,0,2,0,2,0,,,,,0,12,12,14,,,,,,up,0.6171303810515383,1132.8708604763688,None,001,17,2019_Oct_09_1557,ACPT_experiment_5_30_19,3.1.0,59.955461205144466,
,,,C,D,d,v,R,D,d,L,c,,,,,5,19,119,0,2,0,2,0,,,,,0,13,13,0,,,,,,up,0.6337945775394473,1134.7723130318864,None,001,17,2019_Oct_09_1557,ACPT_experiment_5_30_19,3.1.0,59.955461205144466,
,,,C,D,d,v,R,U,y,R,u,,,,,5,19,119,0,2,0,2,0,,,,,0,14,14,31,,,,,,down,1.1673105732788827,1136.707345425435,None,001,17,2019_Oct_09_1557,ACPT_experiment_5_30_19,3.1.0,59.955461205144466,
,,,C,D,d,v,L,G,y,L,y,,,,,5,19,119,0,2,0,2,0,,,,,0,15,15,34,,,,,,down,0.7505616763337457,1139.158968211972,None,001,17,2019_Oct_09_1557,ACPT_experiment_5_30_19,3.1.0,59.955461205144466,
,,,C,D,d,v,L,D,d,L,c ,,,,,5,19,119,0,2,0,2,0,,,,,0,16,16,12,,,,,,up,0.850661861943081,1141.1938261032556,None,001,17,2019_Oct_09_1557,ACPT_experiment_5_30_19,3.1.0,59.955461205144466,
,,,C,D,d,v,L,G,d,R,i,,,,,5,19,119,0,2,0,2,0,,,,,0,17,17,17,,,,,,up,0.95073638989561,1143.3287793504733,None,001,17,2019_Oct_09_1557,ACPT_experiment_5_30_19,3.1.0,59.955461205144466,
,,,C,D,d,v,L,D,d,R,c ,,,,,5,19,119,0,2,0,2,0,,,,,0,18,18,13,,,,,,up,2.1015943669062835,1145.5638324814481,None,001,17,2019_Oct_09_1557,ACPT_experiment_5_30_19,3.1.0,59.955461205144466,
,,,C,D,d,v,R,G,d,L,i,,,,,5,19,119,0,2,0,2,0,,,,,0,19,19,4,,,,,,up,1.1174993985532637,1148.949746909837,None,001,17,2019_Oct_09_1557,ACPT_experiment_5_30_19,3.1.0,59.955461205144466,
,,,C,D,d,v,R,D,g,L,i,,,,,5,19,119,0,2,0,2,0,,,,,0,20,20,2,,,,,,up,1.7346478908948484,1151.351560030922,None,001,17,2019_Oct_09_1557,ACPT_experiment_5_30_19,3.1.0,59.955461205144466,
,,,C,D,d,v,L,G,y,R,y,,,,,5,19,119,0,2,0,2,0,,,,,0,21,21,35,,,,,,down,2.318424523167778,1154.370515305396,None,001,17,2019_Oct_09_1557,ACPT_experiment_5_30_19,3.1.0,59.955461205144466,
,,,C,D,d,v,L,D,y,R,y,,,,,5,19,119,0,2,0,2,0,,,,,0,22,22,33,,,,,,down,1.117532602584106,1157.9732312138385,None,001,17,2019_Oct_09_1557,ACPT_experiment_5_30_19,3.1.0,59.955461205144466,
,,,C,D,d,v,R,G,y,R,y,,,,,5,19,119,0,2,0,2,0,,,,,0,23,23,29,,,,,,down,0.9006849387424154,1160.3750724074216,None,001,17,2019_Oct_09_1557,ACPT_experiment_5_30_19,3.1.0,59.955461205144466,
,,,C,D,d,v,R,G,d,R,i,,,,,5,19,119,0,2,0,2,0,,,,,0,24,24,5,,,,,,up,0.900669544149423,1162.5600722761137,None,001,17,2019_Oct_09_1557,ACPT_experiment_5_30_19,3.1.0,59.955461205144466,
,,,C,D,d,v,R,U,y,L,u,,,,,5,19,119,0,2,0,2,0,,,,,0,25,25,30,,,,,,down,1.1175048319400958,1164.761742982102,None,001,17,2019_Oct_09_1557,ACPT_experiment_5_30_19,3.1.0,59.955461205144466,
,,,C,D,d,v,L,D,y,L,y,,,,,5,19,119,0,2,0,2,0,,,,,0,26,26,32,,,,,,down,1.5344852515245293,1167.180245051768,None,001,17,2019_Oct_09_1557,ACPT_experiment_5_30_19,3.1.0,59.955461205144466,
,,,C,D,d,v,R,U,d,R,u,,,,,5,19,119,0,2,0,2,0,,,,,0,27,27,9,,,,,,up,1.1508688437843375,1169.999045233244,None,001,17,2019_Oct_09_1557,ACPT_experiment_5_30_19,3.1.0,59.955461205144466,
,,,C,D,d,v,R,G,y,L,y,,,,,5,19,119,0,2,0,2,0,,,,,0,28,28,28,,,,,,down,1.2175769450550433,1172.4509101073363,None,001,17,2019_Oct_09_1557,ACPT_experiment_5_30_19,3.1.0,59.955461205144466,
,,,C,D,d,v,L,U,y,L,u,,,,,5,19,119,0,2,0,2,0,,,,,0,29,29,24,,,,,,down,2.101651719320216,1174.9528104342753,None,001,17,2019_Oct_09_1557,ACPT_experiment_5_30_19,3.1.0,59.955461205144466,
,,,C,D,d,v,L,U,d,L,u,,,,,5,19,119,0,2,0,2,0,,,,,0,30,30,20,,,,,,up,0.817283059213878,1178.3720707632183,None,001,17,2019_Oct_09_1557,ACPT_experiment_5_30_19,3.1.0,59.955461205144466,
,,,C,D,d,v,L,G,g,R,c ,,,,,5,19,119,0,2,0,2,0,,,,,0,31,31,19,,,,,,up,1.9681784662225255,1180.4736415854495,None,001,17,2019_Oct_09_1557,ACPT_experiment_5_30_19,3.1.0,59.955461205144466,
,,,C,D,d,v,L,U,y,R,u,,,,,5,19,119,0,2,0,2,0,,,,,0,32,32,25,,,,,,down,0.8839974994352815,1183.7261358871856,None,001,17,2019_Oct_09_1557,ACPT_experiment_5_30_19,3.1.0,59.955461205144466,
,,,C,D,d,v,L,D,g,R,i,,,,,5,19,119,0,2,0,2,0,,,,,0,33,33,15,,,,,,up,3.435942033011088,1185.8944486184246,None,001,17,2019_Oct_09_1557,ACPT_experiment_5_30_19,3.1.0,59.955461205144466,
,,,C,D,d,v,R,D,d,R,c ,,,,,5,19,119,0,2,0,2,0,,,,,0,34,34,1,,,,,,up,0.8339587261853012,1190.6146956201774,None,001,17,2019_Oct_09_1557,ACPT_experiment_5_30_19,3.1.0,59.955461205144466,
,,,C,D,d,v,R,D,y,L,y,,,,,5,19,119,0,2,0,2,0,,,,,0,35,35,26,,,,,,down,1.0674977534454229,1192.732947542765,None,001,17,2019_Oct_09_1557,ACPT_experiment_5_30_19,3.1.0,59.955461205144466,
,,,C,D,d,v,L,U,d,L,u,,,,,5,19,119,0,2,0,2,0,,,,,1,0,36,20,,,,,,up,0.9006755812442861,1195.0847566039029,None,001,17,2019_Oct_09_1557,ACPT_experiment_5_30_19,3.1.0,59.955461205144466,
,,,C,D,d,v,L,D,y,R,y,,,,,5,19,119,0,2,0,2,0,,,,,1,1,37,33,,,,,,down,1.6010258233764034,1197.2865812558412,None,001,17,2019_Oct_09_1557,ACPT_experiment_5_30_19,3.1.0,59.955461205144466,
,,,C,D,d,v,L,G,d,R,i,,,,,5,19,119,0,2,0,2,0,,,,,1,2,38,17,,,,,,up,2.2016580280851485,1200.1886375209742,None,001,17,2019_Oct_09_1557,ACPT_experiment_5_30_19,3.1.0,59.955461205144466,
,,,C,D,d,v,R,D,y,L,y,,,,,5,19,119,0,2,0,2,0,,,,,1,3,39,26,,,,,,down,4.169815364470196,1203.6746213457827,None,001,17,2019_Oct_09_1557,ACPT_experiment_5_30_19,3.1.0,59.955461205144466,
,,,C,D,d,v,R,U,y,R,u,,,,,5,19,119,0,2,0,2,0,,,,,1,4,40,31,,,,,,down,0.9840765552089579,1209.128750130929,None,001,17,2019_Oct_09_1557,ACPT_experiment_5_30_19,3.1.0,59.955461205144466,
,,,C,D,d,v,L,D,d,R,c ,,,,,5,19,119,0,2,0,2,0,,,,,1,5,41,13,,,,,,up,0.6504910724925139,1211.3971388993941,None,001,17,2019_Oct_09_1557,ACPT_experiment_5_30_19,3.1.0,59.955461205144466,
,,,C,D,d,v,L,D,g,L,i,,,,,5,19,119,0,2,0,2,0,,,,,1,6,42,14,,,,,,up,0.8673194176262768,1213.3152625940602,None,001,17,2019_Oct_09_1557,ACPT_experiment_5_30_19,3.1.0,59.955461205144466,
,,,C,D,d,v,R,G,g,L,c ,,,,,5,19,119,0,2,0,2,0,,,,,1,7,43,6,,,,,,up,0.8006019588574418,1215.466897545346,None,001,17,2019_Oct_09_1557,ACPT_experiment_5_30_19,3.1.0,59.955461205144466,
,,,C,D,d,v,R,U,g,R,u,,,,,5,19,119,0,2,0,2,0,,,,,1,8,44,11,,,,,,up,0.7672403618507815,1217.5518099063302,None,001,17,2019_Oct_09_1557,ACPT_experiment_5_30_19,3.1.0,59.955461205144466,
,,,C,D,d,v,L,D,y,L,y,,,,,5,19,119,0,2,0,2,0,,,,,1,9,45,32,,,,,,down,0.6338141981032095,1219.6033667074062,None,001,17,2019_Oct_09_1557,ACPT_experiment_5_30_19,3.1.0,59.955461205144466,
,,,C,D,d,v,L,G,y,R,y,,,,,5,19,119,0,2,0,2,0,,,,,1,10,46,35,,,,,,down,0.7672457952376135,1221.5214928169116,None,001,17,2019_Oct_09_1557,ACPT_experiment_5_30_19,3.1.0,59.955461205144466,
,,,C,D,d,v,L,U,d,R,u,,,,,5,19,119,0,2,0,2,0,,,,,1,11,47,21,,,,,,up,0.633800916491964,1223.573053240245,None,001,17,2019_Oct_09_1557,ACPT_experiment_5_30_19,3.1.0,59.955461205144466,
,,,C,D,d,v,L,U,g,R,u,,,,,5,19,119,0,2,0,2,0,,,,,1,12,48,23,,,,,,up,3.152394116126743,1225.4911711996701,None,001,17,2019_Oct_09_1557,ACPT_experiment_5_30_19,3.1.0,59.955461205144466,
,,,C,D,d,v,R,G,y,R,y,,,,,5,19,119,0,2,0,2,0,,,,,1,13,49,29,,,,,,down,0.8839981031451316,1229.9445528941687,None,001,17,2019_Oct_09_1557,ACPT_experiment_5_30_19,3.1.0,59.955461205144466,
,,,C,D,d,v,L,G,g,L,c ,,,,,5,19,119,0,2,0,2,0,,,,,1,14,50,18,,,,,,up,2.568600881839302,1232.1462284298323,None,001,17,2019_Oct_09_1557,ACPT_experiment_5_30_19,3.1.0,59.955461205144466,
,,,C,D,d,v,R,U,d,R,u,,,,,5,19,119,0,2,0,2,0,,,,,1,15,51,9,,,,,,up,0.6671694561573531,1235.9991475620227,None,001,17,2019_Oct_09_1557,ACPT_experiment_5_30_19,3.1.0,59.955461205144466,
,,,C,D,d,v,R,D,g,L,i,,,,,5,19,119,0,2,0,2,0,,,,,1,16,52,2,,,,,,up,1.1509074812001927,1237.9506274203086,None,001,17,2019_Oct_09_1557,ACPT_experiment_5_30_19,3.1.0,59.955461205144466,
,,,C,D,d,v,L,G,d,L,i,,,,,5,19,119,0,2,0,2,0,,,,,1,17,53,16,,,,,,up,0.783960703332923,1240.3858114958985,None,001,17,2019_Oct_09_1557,ACPT_experiment_5_30_19,3.1.0,59.955461205144466,
,,,C,D,d,v,R,U,g,L,u,,,,,5,19,119,0,2,0,2,0,,,,,1,18,54,10,,,,,,up,0.7338893297637696,1242.4540481899112,None,001,17,2019_Oct_09_1557,ACPT_experiment_5_30_19,3.1.0,59.955461205144466,
,,,C,D,d,v,R,U,d,L,u,,,,,5,19,119,0,2,0,2,0,,,,,1,19,55,8,,,,,,up,0.5670822503034287,1244.4722557700297,None,001,17,2019_Oct_09_1557,ACPT_experiment_5_30_19,3.1.0,59.955461205144466,
,,,C,D,d,v,L,U,y,R,u,,,,,5,19,119,0,2,0,2,0,,,,,1,20,56,25,,,,,,down,1.100829466824507,1246.3403313339477,None,001,17,2019_Oct_09_1557,ACPT_experiment_5_30_19,3.1.0,59.955461205144466,
,,,C,D,d,v,L,D,d,L,c ,,,,,5,19,119,0,2,0,2,0,,,,,1,21,57,12,,,,,,up,1.5011330120178172,1248.7588340073235,None,001,17,2019_Oct_09_1557,ACPT_experiment_5_30_19,3.1.0,59.955461205144466,
,,,C,D,d,v,R,G,d,L,i,,,,,5,19,119,0,2,0,2,0,,,,,1,22,58,4,,,,,,up,0.9006807127771026,1251.5442834585665,None,001,17,2019_Oct_09_1557,ACPT_experiment_5_30_19,3.1.0,59.955461205144466,
,,,C,D,d,v,R,G,d,R,i,,,,,5,19,119,0,2,0,2,0,,,,,1,23,59,5,,,,,,up,0.7172278499692766,1253.7125738525501,None,001,17,2019_Oct_09_1557,ACPT_experiment_5_30_19,3.1.0,59.955461205144466,
,,,C,D,d,v,R,D,y,R,y,,,,,5,19,119,0,2,0,2,0,,,,,1,24,60,27,,,,,,down,1.0341198562800855,1255.7141124065038,None,001,17,2019_Oct_09_1557,ACPT_experiment_5_30_19,3.1.0,59.955461205144466,
,,,C,D,d,v,R,G,y,L,y,,,,,5,19,119,0,2,0,2,0,,,,,1,25,61,28,,,,,,down,1.0008038393516472,1258.0325405519288,None,001,17,2019_Oct_09_1557,ACPT_experiment_5_30_19,3.1.0,59.955461205144466,
,,,C,D,d,v,L,D,g,R,i,,,,,5,19,119,0,2,0,2,0,,,,,1,26,62,15,,,,,,up,0.6004498844031332,1260.3176083077688,None,001,17,2019_Oct_09_1557,ACPT_experiment_5_30_19,3.1.0,59.955461205144466,
,,,C,D,d,v,R,D,d,L,c,,,,,5,19,119,0,2,0,2,0,,,,,1,27,63,0,,,,,,up,2.3517867238806502,1262.2023722165577,None,001,17,2019_Oct_09_1557,ACPT_experiment_5_30_19,3.1.0,59.955461205144466,
,,,C,D,d,v,R,G,g,R,c ,,,,,5,19,119,0,2,0,2,0,,,,,1,28,64,7,,,,,,up,1.98482938109737,1265.8384699462786,None,001,17,2019_Oct_09_1557,ACPT_experiment_5_30_19,3.1.0,59.955461205144466,
,,,C,D,d,v,R,U,y,L,u,,,,,5,19,119,0,2,0,2,0,,,,,1,29,65,30,,,,,,down,0.9674241310585785,1269.1075892033768,None,001,17,2019_Oct_09_1557,ACPT_experiment_5_30_19,3.1.0,59.955461205144466,
,,,C,D,d,v,R,D,g,R,i,,,,,5,19,119,0,2,0,2,0,,,,,1,30,66,3,,,,,,up,0.9006831276128651,1271.3593225291443,None,001,17,2019_Oct_09_1557,ACPT_experiment_5_30_19,3.1.0,59.955461205144466,
,,,C,D,d,v,L,U,y,L,u,,,,,5,19,119,0,2,0,2,0,,,,,1,31,67,24,,,,,,down,1.2008961465508037,1273.5443211904185,None,001,17,2019_Oct_09_1557,ACPT_experiment_5_30_19,3.1.0,59.955461205144466,
,,,C,D,d,v,L,G,y,L,y,,,,,5,19,119,0,2,0,2,0,,,,,1,32,68,34,,,,,,down,1.1842349686121452,1276.0295349836124,None,001,17,2019_Oct_09_1557,ACPT_experiment_5_30_19,3.1.0,59.955461205144466,
,,,C,D,d,v,L,G,g,R,c ,,,,,5,19,119,0,2,0,2,0,,,,,1,33,69,19,,,,,,up,1.200921804209429,1278.4980918248348,None,001,17,2019_Oct_09_1557,ACPT_experiment_5_30_19,3.1.0,59.955461205144466,
,,,C,D,d,v,R,D,d,R,c ,,,,,5,19,119,0,2,0,2,0,,,,,1,34,70,1,,,,,,up,1.3343530994898174,1280.9832932419831,None,001,17,2019_Oct_09_1557,ACPT_experiment_5_30_19,3.1.0,59.955461205144466,
,,,C,D,d,v,L,U,g,L,u,,,,,5,19,119,0,2,0,2,0,,,,,1,35,71,22,,,,,,up,1.3510553296837315,1283.6019467823935,None,001,17,2019_Oct_09_1557,ACPT_experiment_5_30_19,3.1.0,59.955461205144466,
,,,C,D,d,v,,,,,,,,,,5,19,119,0,3,0,3,0,0,0,0,0,,,,,,,,,,,,,,001,17,2019_Oct_09_1557,ACPT_experiment_5_30_19,3.1.0,59.955461205144466,
,,,C,D,d,v,L,G,d,L,i,,,,,5,19,119,0,3,0,3,0,,,,,0,0,0,16,,,,,,up,0.8503793258423684,1293.292907528892,None,001,17,2019_Oct_09_1557,ACPT_experiment_5_30_19,3.1.0,59.955461205144466,
,,,C,D,d,v,L,U,d,R,u,,,,,5,19,119,0,3,0,3,0,,,,,0,1,1,21,,,,,,up,0.867317304640892,1295.4275957475893,None,001,17,2019_Oct_09_1557,ACPT_experiment_5_30_19,3.1.0,59.955461205144466,
,,,C,D,d,v,L,U,y,R,u,,,,,5,19,119,0,3,0,3,0,,,,,0,2,2,25,,,,,,down,1.401059993340823,1297.5792297933094,None,001,17,2019_Oct_09_1557,ACPT_experiment_5_30_19,3.1.0,59.955461205144466,
,,,C,D,d,v,L,D,y,L,y,,,,,5,19,119,0,3,0,3,0,,,,,0,3,3,32,,,,,,down,0.734044181281206,1300.2646101499886,None,001,17,2019_Oct_09_1557,ACPT_experiment_5_30_19,3.1.0,59.955461205144466,
,,,C,D,d,v,R,U,d,R,u,,,,,5,19,119,0,3,0,3,0,,,,,0,4,4,9,,,,,,up,0.7839447050300805,1302.2827766778519,None,001,17,2019_Oct_09_1557,ACPT_experiment_5_30_19,3.1.0,59.955461205144466,
,,,C,D,d,v,R,G,g,R,c ,,,,,5,19,119,0,3,0,3,0,,,,,0,5,5,7,,,,,,down,1.0674660586901155,1304.3510378221054,None,001,17,2019_Oct_09_1557,ACPT_experiment_5_30_19,3.1.0,59.955461205144466,
,,,C,D,d,v,R,U,g,R,u,,,,,5,19,119,0,3,0,3,0,,,,,0,6,6,11,,,,,,up,0.8006203719996847,1306.7028221311484,None,001,17,2019_Oct_09_1557,ACPT_experiment_5_30_19,3.1.0,59.955461205144466,
,,,C,D,d,v,R,U,g,L,u,,,,,5,19,119,0,3,0,3,0,,,,,0,7,7,10,,,,,,up,0.9173823392593476,1308.771034978632,None,001,17,2019_Oct_09_1557,ACPT_experiment_5_30_19,3.1.0,59.955461205144466,
,,,C,D,d,v,R,G,y,L,y,,,,,5,19,119,0,3,0,3,0,,,,,0,8,8,28,,,,,,down,0.9339200585836807,1310.9895612570563,None,001,17,2019_Oct_09_1557,ACPT_experiment_5_30_19,3.1.0,59.955461205144466,
,,,C,D,d,v,L,D,y,R,y,,,,,5,19,119,0,3,0,3,0,,,,,0,9,9,33,,,,,,down,0.6838439157090761,1313.2244323695813,None,001,17,2019_Oct_09_1557,ACPT_experiment_5_30_19,3.1.0,59.955461205144466,
,,,C,D,d,v,L,D,g,L,i,,,,,5,19,119,0,3,0,3,0,,,,,0,10,10,14,,,,,,up,0.6504898650746327,1315.175918566816,None,001,17,2019_Oct_09_1557,ACPT_experiment_5_30_19,3.1.0,59.955461205144466,
,,,C,D,d,v,L,D,g,R,i,,,,,5,19,119,0,3,0,3,0,,,,,0,11,11,15,,,,,,up,0.9673984733999532,1317.0940410540643,None,001,17,2019_Oct_09_1557,ACPT_experiment_5_30_19,3.1.0,59.955461205144466,
,,,C,D,d,v,R,D,g,L,i,,,,,5,19,119,0,3,0,3,0,,,,,0,12,12,2,,,,,,up,0.8005968273246253,1319.3457559666876,None,001,17,2019_Oct_09_1557,ACPT_experiment_5_30_19,3.1.0,59.955461205144466,
,,,C,D,d,v,L,U,g,R,u,,,,,5,19,119,0,3,0,3,0,,,,,0,13,13,23,,,,,,up,0.6838508583696239,1321.4306650072685,None,001,17,2019_Oct_09_1557,ACPT_experiment_5_30_19,3.1.0,59.955461205144466,
,,,C,D,d,v,R,D,d,R,c ,,,,,5,19,119,0,3,0,3,0,,,,,0,14,14,1,,,,,,up,0.7339065354881313,1323.3988033268015,None,001,17,2019_Oct_09_1557,ACPT_experiment_5_30_19,3.1.0,59.955461205144466,
,,,C,D,d,v,L,G,g,L,c ,,,,,5,19,119,0,3,0,3,0,,,,,0,15,15,18,,,,,,up,5.6042484252993745,1325.417025999659,None,001,17,2019_Oct_09_1557,ACPT_experiment_5_30_19,3.1.0,59.955461205144466,
,,,C,D,d,v,L,D,d,L,c ,,,,,5,19,119,0,3,0,3,0,,,,,0,16,16,12,,,,,,up,0.6171343051646545,1332.3055875437803,None,001,17,2019_Oct_09_1557,ACPT_experiment_5_30_19,3.1.0,59.955461205144466,
,,,C,D,d,v,L,U,g,L,u,,,,,5,19,119,0,3,0,3,0,,,,,0,17,17,22,,,,,,up,1.1175473934690672,1334.2070349677651,None,001,17,2019_Oct_09_1557,ACPT_experiment_5_30_19,3.1.0,59.955461205144466,
,,,C,D,d,v,R,G,d,L,i,,,,,5,19,119,0,3,0,3,0,,,,,0,18,18,4,,,,,,up,8.823363622452234,1336.6088568426403,None,001,17,2019_Oct_09_1557,ACPT_experiment_5_30_19,3.1.0,59.955461205144466,
,,,C,D,d,v,R,G,d,R,i,,,,,5,19,119,0,3,0,3,0,,,,,0,19,19,5,,,,,,up,3.3360111879464966,1346.699701858006,None,001,17,2019_Oct_09_1557,ACPT_experiment_5_30_19,3.1.0,59.955461205144466,
,,,C,D,d,v,L,G,d,R,i,,,,,5,19,119,0,3,0,3,0,,,,,0,20,20,17,,,,,,up,1.467793752270154,1351.320004431227,None,001,17,2019_Oct_09_1557,ACPT_experiment_5_30_19,3.1.0,59.955461205144466,
,,,C,D,d,v,L,G,g,R,c ,,,,,5,19,119,0,3,0,3,0,,,,,0,21,21,19,,,,,,up,0.7672439841098821,1354.0721143208666,None,001,17,2019_Oct_09_1557,ACPT_experiment_5_30_19,3.1.0,59.955461205144466,
,,,C,D,d,v,L,G,y,L,y,,,,,5,19,119,0,3,0,3,0,,,,,0,22,22,34,,,,,,down,0.7839302159991348,1356.1236665941196,None,001,17,2019_Oct_09_1557,ACPT_experiment_5_30_19,3.1.0,59.955461205144466,
,,,C,D,d,v,R,D,d,L,c,,,,,5,19,119,0,3,0,3,0,,,,,0,23,23,0,,,,,,up,0.650491676204183,1358.1919020807145,None,001,17,2019_Oct_09_1557,ACPT_experiment_5_30_19,3.1.0,59.955461205144466,
,,,C,D,d,v,L,U,y,L,u,,,,,5,19,119,0,3,0,3,0,,,,,0,24,24,24,,,,,,down,0.8506440525106882,1360.1267032534815,None,001,17,2019_Oct_09_1557,ACPT_experiment_5_30_19,3.1.0,59.955461205144466,
,,,C,D,d,v,R,U,d,L,u,,,,,5,19,119,0,3,0,3,0,,,,,0,25,25,8,,,,,,up,1.15087669201057,1362.2616583118288,None,001,17,2019_Oct_09_1557,ACPT_experiment_5_30_19,3.1.0,59.955461205144466,
,,,C,D,d,v,R,G,y,R,y,,,,,5,19,119,0,3,0,3,0,,,,,0,26,26,29,,,,,,down,0.7005322605800757,1364.6968426892727,None,001,17,2019_Oct_09_1557,ACPT_experiment_5_30_19,3.1.0,59.955461205144466,
,,,C,D,d,v,R,D,g,R,i,,,,,5,19,119,0,3,0,3,0,,,,,0,27,27,3,,,,,,up,0.8506691064576444,1366.6816847482714,None,001,17,2019_Oct_09_1557,ACPT_experiment_5_30_19,3.1.0,59.955461205144466,
,,,C,D,d,v,L,U,d,L,u,,,,,5,19,119,0,3,0,3,0,,,,,0,28,28,20,,,,,,up,0.4503423184451094,1368.816633467668,None,001,17,2019_Oct_09_1557,ACPT_experiment_5_30_19,3.1.0,59.955461205144466,
,,,C,D,d,v,R,U,y,L,u,,,,,5,19,119,0,3,0,3,0,,,,,0,29,29,30,,,,,,down,0.6504838279779506,1370.5679666848882,None,001,17,2019_Oct_09_1557,ACPT_experiment_5_30_19,3.1.0,59.955461205144466,
,,,C,D,d,v,R,D,y,R,y,,,,,5,19,119,0,3,0,3,0,,,,,0,30,30,27,,,,,,down,0.7339140818585292,1372.5194447320446,None,001,17,2019_Oct_09_1557,ACPT_experiment_5_30_19,3.1.0,59.955461205144466,
,,,C,D,d,v,R,D,y,L,y,,,,,5,19,119,0,3,0,3,0,,,,,0,31,31,26,,,,,,down,0.9006704497132887,1374.5376462750664,None,001,17,2019_Oct_09_1557,ACPT_experiment_5_30_19,3.1.0,59.955461205144466,
,,,C,D,d,v,L,G,y,R,y,,,,,5,19,119,0,3,0,3,0,,,,,0,32,32,35,,,,,,down,1.2841217428740492,1376.7394724362784,None,001,17,2019_Oct_09_1557,ACPT_experiment_5_30_19,3.1.0,59.955461205144466,
,,,C,D,d,v,R,G,g,L,c ,,,,,5,19,119,0,3,0,3,0,,,,,0,33,33,6,,,,,,up,0.8506383172680216,1379.32461224486,None,001,17,2019_Oct_09_1557,ACPT_experiment_5_30_19,3.1.0,59.955461205144466,
,,,C,D,d,v,L,D,d,R,c ,,,,,5,19,119,0,3,0,3,0,,,,,0,34,34,13,,,,,,up,2.2683878629013634,1381.4595663976434,None,001,17,2019_Oct_09_1557,ACPT_experiment_5_30_19,3.1.0,59.955461205144466,
,,,C,D,d,v,R,U,y,R,u,,,,,5,19,119,0,3,0,3,0,,,,,0,35,35,31,,,,,,down,1.3009999544192397,1385.012246853239,None,001,17,2019_Oct_09_1557,ACPT_experiment_5_30_19,3.1.0,59.955461205144466,
,,,C,D,d,v,L,D,d,R,c ,,,,,5,19,119,0,3,0,3,0,,,,,1,0,36,13,,,,,,up,1.017460791323174,1387.5975418151902,None,001,17,2019_Oct_09_1557,ACPT_experiment_5_30_19,3.1.0,59.955461205144466,
,,,C,D,d,v,R,G,y,L,y,,,,,5,19,119,0,3,0,3,0,,,,,1,1,37,28,,,,,,down,1.300986069098144,1389.9159859589217,None,001,17,2019_Oct_09_1557,ACPT_experiment_5_30_19,3.1.0,59.955461205144466,
,,,C,D,d,v,L,G,d,R,i,,,,,5,19,119,0,3,0,3,0,,,,,1,2,38,17,,,,,,up,0.6838463305466576,1392.5179647379246,None,001,17,2019_Oct_09_1557,ACPT_experiment_5_30_19,3.1.0,59.955461205144466,
,,,C,D,d,v,R,U,g,R,u,,,,,5,19,119,0,3,0,3,0,,,,,1,3,39,11,,,,,,up,0.8506863121820061,1394.4861214705998,None,001,17,2019_Oct_09_1557,ACPT_experiment_5_30_19,3.1.0,59.955461205144466,
,,,C,D,d,v,R,G,y,R,y,,,,,5,19,119,0,3,0,3,0,,,,,1,4,40,29,,,,,,down,1.1842168573220988,1396.6210810567682,None,001,17,2019_Oct_09_1557,ACPT_experiment_5_30_19,3.1.0,59.955461205144466,
,,,C,D,d,v,L,G,g,R,c ,,,,,5,19,119,0,3,0,3,0,,,,,1,5,41,19,,,,,,up,1.2509439754448977,1399.089620994122,None,001,17,2019_Oct_09_1557,ACPT_experiment_5_30_19,3.1.0,59.955461205144466,
,,,C,D,d,v,L,D,y,L,y,,,,,5,19,119,0,3,0,3,0,,,,,1,6,42,32,,,,,,down,3.052340114300023,1401.6248469973434,None,001,17,2019_Oct_09_1557,ACPT_experiment_5_30_19,3.1.0,59.955461205144466,
,,,C,D,d,v,L,D,y,R,y,,,,,5,19,119,0,3,0,3,0,,,,,1,7,43,33,,,,,,down,5.887793021780453,1405.9615029471588,None,001,17,2019_Oct_09_1557,ACPT_experiment_5_30_19,3.1.0,59.955461205144466,
,,,C,D,d,v,R,G,d,L,i,,,,,5,19,119,0,3,0,3,0,,,,,1,8,44,4,,,,,,up,1.4677813762227743,1413.1502895844078,None,001,17,2019_Oct_09_1557,ACPT_experiment_5_30_19,3.1.0,59.955461205144466,
,,,C,D,d,v,R,U,y,L,u,,,,,5,19,119,0,3,0,3,0,,,,,1,9,45,30,,,,,,down,25.502700845887375,1415.902377136792,None,001,17,2019_Oct_09_1557,ACPT_experiment_5_30_19,3.1.0,59.955461205144466,
,,,C,D,d,v,L,U,y,L,u,,,,,5,19,119,0,3,0,3,0,,,,,1,10,46,24,,,,,,down,4.253225695932997,1442.6893859699685,None,001,17,2019_Oct_09_1557,ACPT_experiment_5_30_19,3.1.0,59.955461205144466,
,,,C,D,d,v,R,U,d,R,u,,,,,5,19,119,0,3,0,3,0,,,,,1,11,47,9,,,,,,up,1.2008901094559405,1448.2269380663347,None,001,17,2019_Oct_09_1557,ACPT_experiment_5_30_19,3.1.0,59.955461205144466,
,,,C,D,d,v,R,D,y,R,y,,,,,5,19,119,0,3,0,3,0,,,,,1,12,48,27,,,,,,down,1.250946390284298,1450.7121373704995,None,001,17,2019_Oct_09_1557,ACPT_experiment_5_30_19,3.1.0,59.955461205144466,
,,,C,D,d,v,L,G,y,L,y,,,,,5,19,119,0,3,0,3,0,,,,,1,13,49,34,,,,,,down,0.9840834978695057,1453.2473926536386,None,001,17,2019_Oct_09_1557,ACPT_experiment_5_30_19,3.1.0,59.955461205144466,
,,,C,D,d,v,R,D,d,L,c,,,,,5,19,119,0,3,0,3,0,,,,,1,14,50,0,,,,,,up,3.4025813415701123,1455.5157835350874,None,001,17,2019_Oct_09_1557,ACPT_experiment_5_30_19,3.1.0,59.955461205144466,
,,,C,D,d,v,R,U,y,R,u,,,,,5,19,119,0,3,0,3,0,,,,,1,15,51,31,,,,,,down,1.2342598565410299,1460.20267558064,None,001,17,2019_Oct_09_1557,ACPT_experiment_5_30_19,3.1.0,59.955461205144466,
,,,C,D,d,v,R,D,y,L,y,,,,,5,19,119,0,3,0,3,0,,,,,1,16,52,26,,,,,,down,0.8506814825050242,1462.721249461565,None,001,17,2019_Oct_09_1557,ACPT_experiment_5_30_19,3.1.0,59.955461205144466,
,,,C,D,d,v,R,U,d,L,u,,,,,5,19,119,0,3,0,3,0,,,,,1,17,53,8,,,,,,up,0.9005681209328031,1464.856206029186,None,001,17,2019_Oct_09_1557,ACPT_experiment_5_30_19,3.1.0,59.955461205144466,
,,,C,D,d,v,R,U,g,L,u,,,,,5,19,119,0,3,0,3,0,,,,,1,18,54,10,,,,,,up,3.385911107985521,1467.0411898995753,None,001,17,2019_Oct_09_1557,ACPT_experiment_5_30_19,3.1.0,59.955461205144466,
,,,C,D,d,v,R,D,g,R,i,,,,,5,19,119,0,3,0,3,0,,,,,1,19,55,3,,,,,,up,0.6838665548202698,1471.7113908835618,None,001,17,2019_Oct_09_1557,ACPT_experiment_5_30_19,3.1.0,59.955461205144466,
,,,C,D,d,v,L,D,d,L,c ,,,,,5,19,119,0,3,0,3,0,,,,,1,20,56,12,,,,,,up,0.6004465640016861,1473.6795732738956,None,001,17,2019_Oct_09_1557,ACPT_experiment_5_30_19,3.1.0,59.955461205144466,
,,,C,D,d,v,R,G,g,R,c ,,,,,5,19,119,0,3,0,3,0,,,,,1,21,57,7,,,,,,up,0.6171659999181429,1475.5643335604273,None,001,17,2019_Oct_09_1557,ACPT_experiment_5_30_19,3.1.0,59.955461205144466,
,,,C,D,d,v,L,U,d,L,u,,,,,5,19,119,0,3,0,3,0,,,,,1,22,58,20,,,,,,up,0.5504186575253698,1477.4657740417533,None,001,17,2019_Oct_09_1557,ACPT_experiment_5_30_19,3.1.0,59.955461205144466,
,,,C,D,d,v,L,U,d,R,u,,,,,5,19,119,0,3,0,3,0,,,,,1,23,59,21,,,,,,up,0.48382707221207966,1479.2836912979183,None,001,17,2019_Oct_09_1557,ACPT_experiment_5_30_19,3.1.0,59.955461205144466,
,,,C,D,d,v,L,U,g,R,u,,,,,5,19,119,0,3,0,3,0,,,,,1,24,60,23,,,,,,up,0.9007003333372268,1481.0351352958514,None,001,17,2019_Oct_09_1557,ACPT_experiment_5_30_19,3.1.0,59.955461205144466,
,,,C,D,d,v,R,G,g,L,c ,,,,,5,19,119,0,3,0,3,0,,,,,1,25,61,6,,,,,,up,1.667659970218665,1483.2371033288237,None,001,17,2019_Oct_09_1557,ACPT_experiment_5_30_19,3.1.0,59.955461205144466,
,,,C,D,d,v,R,D,g,L,i,,,,,5,19,119,0,3,0,3,0,,,,,1,26,62,2,,,,,,up,1.1008611615779955,1486.1723835451685,None,001,17,2019_Oct_09_1557,ACPT_experiment_5_30_19,3.1.0,59.955461205144466,
,,,C,D,d,v,L,U,y,R,u,,,,,5,19,119,0,3,0,3,0,,,,,1,27,63,25,,,,,,down,0.6838348600649624,1488.557530658638,None,001,17,2019_Oct_09_1557,ACPT_experiment_5_30_19,3.1.0,59.955461205144466,
,,,C,D,d,v,L,U,g,L,u,,,,,5,19,119,0,3,0,3,0,,,,,1,28,64,22,,,,,,up,0.9173569834565569,1490.5256919191343,None,001,17,2019_Oct_09_1557,ACPT_experiment_5_30_19,3.1.0,59.955461205144466,
,,,C,D,d,v,L,D,g,L,i,,,,,5,19,119,0,3,0,3,0,,,,,1,29,65,14,,,,,,up,1.0341497399076616,1492.7273650399602,None,001,17,2019_Oct_09_1557,ACPT_experiment_5_30_19,3.1.0,59.955461205144466,
,,,C,D,d,v,L,G,g,L,c ,,,,,5,19,119,0,3,0,3,0,,,,,1,30,66,18,,,,,,up,1.050791900994227,1495.0457877519984,None,001,17,2019_Oct_09_1557,ACPT_experiment_5_30_19,3.1.0,59.955461205144466,
,,,C,D,d,v,R,D,d,R,c ,,,,,5,19,119,0,3,0,3,0,,,,,1,31,67,1,,,,,,up,0.6805126460567408,1497.4009090659365,None,001,17,2019_Oct_09_1557,ACPT_experiment_5_30_19,3.1.0,59.955461205144466,
,,,C,D,d,v,L,G,y,R,y,,,,,5,19,119,0,3,0,3,0,,,,,1,32,68,35,,,,,,down,1.2843064780154236,1499.3657330196856,None,001,17,2019_Oct_09_1557,ACPT_experiment_5_30_19,3.1.0,59.955461205144466,
,,,C,D,d,v,L,G,d,L,i,,,,,5,19,119,0,3,0,3,0,,,,,1,33,69,16,,,,,,up,1.4844603635956446,1501.934353522087,None,001,17,2019_Oct_09_1557,ACPT_experiment_5_30_19,3.1.0,59.955461205144466,
,,,C,D,d,v,R,G,d,R,i,,,,,5,19,119,0,3,0,3,0,,,,,1,34,70,5,,,,,,up,0.6671896804291464,1504.703096819023,None,001,17,2019_Oct_09_1557,ACPT_experiment_5_30_19,3.1.0,59.955461205144466,
,,,C,D,d,v,L,D,g,R,i,,,,,5,19,119,0,3,0,3,0,,,,,1,35,71,15,,,,,,up,0.7672572657211276,1506.6545830162595,None,001,17,2019_Oct_09_1557,ACPT_experiment_5_30_19,3.1.0,59.955461205144466,
,,,C,D,d,v,,,,,,,,,,5,19,119,0,4,0,4,0,0,0,0,0,,,,,,,,,,,,,,001,17,2019_Oct_09_1557,ACPT_experiment_5_30_19,3.1.0,59.955461205144466,
,,,C,D,d,v,L,U,d,R,u,,,,,5,19,119,0,4,0,4,0,,,,,0,0,0,21,,,,,,up,1.2673506897845073,1545.7178677821594,None,001,17,2019_Oct_09_1557,ACPT_experiment_5_30_19,3.1.0,59.955461205144466,
,,,C,D,d,v,L,G,g,L,c ,,,,,5,19,119,0,4,0,4,0,,,,,0,1,1,18,,,,,,up,0.717197664489504,1548.2695391371344,None,001,17,2019_Oct_09_1557,ACPT_experiment_5_30_19,3.1.0,59.955461205144466,
,,,C,D,d,v,R,G,y,R,y,,,,,5,19,119,0,4,0,4,0,,,,,0,2,2,29,,,,,,up,0.43365880324745376,1550.2710484111722,None,001,17,2019_Oct_09_1557,ACPT_experiment_5_30_19,3.1.0,59.955461205144466,
,,,C,D,d,v,R,D,y,L,y,,,,,5,19,119,0,4,0,4,0,,,,,0,3,3,26,,,,,,down,0.8006043736950232,1551.9890206350956,None,001,17,2019_Oct_09_1557,ACPT_experiment_5_30_19,3.1.0,59.955461205144466,
,,,C,D,d,v,R,U,d,L,u,,,,,5,19,119,0,4,0,4,0,,,,,0,4,4,8,,,,,,up,0.6004489788392675,1554.0739369201929,None,001,17,2019_Oct_09_1557,ACPT_experiment_5_30_19,3.1.0,59.955461205144466,
,,,C,D,d,v,L,D,d,R,c ,,,,,5,19,119,0,4,0,4,0,,,,,0,5,5,13,,,,,,up,0.6671622116409708,1555.9587017345475,None,001,17,2019_Oct_09_1557,ACPT_experiment_5_30_19,3.1.0,59.955461205144466,
,,,C,D,d,v,R,D,d,R,c ,,,,,5,19,119,0,4,0,4,0,,,,,0,6,6,1,,,,,,up,0.6004719198044768,1557.9101758575907,None,001,17,2019_Oct_09_1557,ACPT_experiment_5_30_19,3.1.0,59.955461205144466,
,,,C,D,d,v,R,D,g,R,i,,,,,5,19,119,0,4,0,4,0,,,,,0,7,7,3,,,,,,up,0.6505119004741573,1559.7782417621547,None,001,17,2019_Oct_09_1557,ACPT_experiment_5_30_19,3.1.0,59.955461205144466,
,,,C,D,d,v,L,U,g,L,u,,,,,5,19,119,0,4,0,4,0,,,,,0,8,8,22,,,,,,up,0.6838608195776033,1561.7130691962902,None,001,17,2019_Oct_09_1557,ACPT_experiment_5_30_19,3.1.0,59.955461205144466,
,,,C,D,d,v,R,D,g,L,i,,,,,5,19,119,0,4,0,4,0,,,,,0,9,9,2,,,,,,up,0.7172233221481292,1563.681209326951,None,001,17,2019_Oct_09_1557,ACPT_experiment_5_30_19,3.1.0,59.955461205144466,
,,,C,D,d,v,R,U,g,L,u,,,,,5,19,119,0,4,0,4,0,,,,,0,10,10,10,,,,,,up,0.6004489788410865,1565.6827496920323,None,001,17,2019_Oct_09_1557,ACPT_experiment_5_30_19,3.1.0,59.955461205144466,
,,,C,D,d,v,L,U,y,R,u,,,,,5,19,119,0,4,0,4,0,,,,,0,11,11,25,,,,,,down,0.9507158637679822,1567.567513600823,None,001,17,2019_Oct_09_1557,ACPT_experiment_5_30_19,3.1.0,59.955461205144466,
,,,C,D,d,v,R,D,d,L,c,,,,,5,19,119,0,4,0,4,0,,,,,0,12,12,0,,,,,,up,0.6838451231287763,1569.8025416778473,None,001,17,2019_Oct_09_1557,ACPT_experiment_5_30_19,3.1.0,59.955461205144466,
,,,C,D,d,v,R,D,y,R,y,,,,,5,19,119,0,4,0,4,0,,,,,0,13,13,27,,,,,,down,0.6171376255679206,1571.7540179138741,None,001,17,2019_Oct_09_1557,ACPT_experiment_5_30_19,3.1.0,59.955461205144466,
,,,C,D,d,v,R,G,g,R,c ,,,,,5,19,119,0,4,0,4,0,,,,,0,14,14,7,,,,,,up,0.7505728449596063,1573.655463828587,None,001,17,2019_Oct_09_1557,ACPT_experiment_5_30_19,3.1.0,59.955461205144466,
,,,C,D,d,v,L,D,g,L,i,,,,,5,19,119,0,4,0,4,0,,,,,0,15,15,14,,,,,,up,0.6838436138550605,1575.6903497923686,None,001,17,2019_Oct_09_1557,ACPT_experiment_5_30_19,3.1.0,59.955461205144466,
,,,C,D,d,v,L,G,d,L,i,,,,,5,19,119,0,4,0,4,0,,,,,0,16,16,16,,,,,,up,0.7338845000867877,1577.6585092417372,None,001,17,2019_Oct_09_1557,ACPT_experiment_5_30_19,3.1.0,59.955461205144466,
,,,C,D,d,v,R,U,y,R,u,,,,,5,19,119,0,4,0,4,0,,,,,0,17,17,31,,,,,,down,0.6338102739919123,1579.676706558792,None,001,17,2019_Oct_09_1557,ACPT_experiment_5_30_19,3.1.0,59.955461205144466,
,,,C,D,d,v,R,G,g,L,c ,,,,,5,19,119,0,4,0,4,0,,,,,0,18,18,6,,,,,,up,0.5671293396535475,1581.594825423781,None,001,17,2019_Oct_09_1557,ACPT_experiment_5_30_19,3.1.0,59.955461205144466,
,,,C,D,d,v,R,U,g,R,u,,,,,5,19,119,0,4,0,4,0,,,,,0,19,19,11,,,,,,up,0.8339614428787172,1583.446233168952,None,001,17,2019_Oct_09_1557,ACPT_experiment_5_30_19,3.1.0,59.955461205144466,
,,,C,D,d,v,R,U,y,L,u,,,,,5,19,119,0,4,0,4,0,,,,,0,20,20,30,,,,,,down,1.6345757777817198,1585.5478275358582,None,001,17,2019_Oct_09_1557,ACPT_experiment_5_30_19,3.1.0,59.955461205144466,
,,,C,D,d,v,L,G,y,R,y,,,,,5,19,119,0,4,0,4,0,,,,,0,21,21,35,,,,,,down,0.8172845684875938,1588.4667134139145,None,001,17,2019_Oct_09_1557,ACPT_experiment_5_30_19,3.1.0,59.955461205144466,
,,,C,D,d,v,L,U,d,L,u,,,,,5,19,119,0,4,0,4,0,,,,,0,22,22,20,,,,,,up,1.3510260497678246,1590.5683050641273,None,001,17,2019_Oct_09_1557,ACPT_experiment_5_30_19,3.1.0,59.955461205144466,
,,,C,D,d,v,L,D,y,R,y,,,,,5,19,119,0,4,0,4,0,,,,,0,23,23,33,,,,,,down,8.38969938581613,1593.2036433271514,None,001,17,2019_Oct_09_1557,ACPT_experiment_5_30_19,3.1.0,59.955461205144466,
,,,C,D,d,v,R,G,y,L,y,,,,,5,19,119,0,4,0,4,0,,,,,0,24,24,28,,,,,,down,1.1506816938035627,1602.8944878595503,None,001,17,2019_Oct_09_1557,ACPT_experiment_5_30_19,3.1.0,59.955461205144466,
,,,C,D,d,v,L,G,g,R,c ,,,,,5,19,119,0,4,0,4,0,,,,,0,25,25,19,,,,,,down,1.1341871397162322,1605.3461909394646,None,001,17,2019_Oct_09_1557,ACPT_experiment_5_30_19,3.1.0,59.955461205144466,
,,,C,D,d,v,L,D,g,R,i,,,,,5,19,119,0,4,0,4,0,,,,,0,26,26,15,,,,,,down,1.167551755270324,1607.764694216552,None,001,17,2019_Oct_09_1557,ACPT_experiment_5_30_19,3.1.0,59.955461205144466,
,,,C,D,d,v,R,U,d,R,u,,,,,5,19,119,0,4,0,4,0,,,,,0,27,27,9,,,,,,down,1.0507988436547748,1610.216556072095,None,001,17,2019_Oct_09_1557,ACPT_experiment_5_30_19,3.1.0,59.955461205144466,
,,,C,D,d,v,L,U,y,L,u,,,,,5,19,119,0,4,0,4,0,,,,,0,28,28,24,,,,,,down,1.0007492036311305,1612.568344908961,None,001,17,2019_Oct_09_1557,ACPT_experiment_5_30_19,3.1.0,59.955461205144466,
,,,C,D,d,v,L,D,d,L,c ,,,,,5,19,119,0,4,0,4,0,,,,,0,29,29,12,,,,,,up,2.0682318643375766,1614.87009074661,None,001,17,2019_Oct_09_1557,ACPT_experiment_5_30_19,3.1.0,59.955461205144466,
,,,C,D,d,v,L,G,y,L,y,,,,,5,19,119,0,4,0,4,0,,,,,0,30,30,34,,,,,,down,0.9173482296664588,1618.2393156227063,None,001,17,2019_Oct_09_1557,ACPT_experiment_5_30_19,3.1.0,59.955461205144466,
,,,C,D,d,v,R,G,d,L,i,,,,,5,19,119,0,4,0,4,0,,,,,0,31,31,4,,,,,,up,0.6171506053233315,1620.457667730905,None,001,17,2019_Oct_09_1557,ACPT_experiment_5_30_19,3.1.0,59.955461205144466,
,,,C,D,d,v,L,D,y,L,y,,,,,5,19,119,0,4,0,4,0,,,,,0,32,32,32,,,,,,down,1.7680230713667697,1622.3591076085213,None,001,17,2019_Oct_09_1557,ACPT_experiment_5_30_19,3.1.0,59.955461205144466,
,,,C,D,d,v,L,U,g,R,u,,,,,5,19,119,0,4,0,4,0,,,,,0,33,33,23,,,,,,up,0.8506452599285694,1625.4114238762922,None,001,17,2019_Oct_09_1557,ACPT_experiment_5_30_19,3.1.0,59.955461205144466,
,,,C,D,d,v,R,G,d,R,i,,,,,5,19,119,0,4,0,4,0,,,,,0,34,34,5,,,,,,up,0.5837736137254979,1627.5463780290738,None,001,17,2019_Oct_09_1557,ACPT_experiment_5_30_19,3.1.0,59.955461205144466,
,,,C,D,d,v,L,G,d,R,i,,,,,5,19,119,0,4,0,4,0,,,,,0,35,35,17,,,,,,up,0.63381721665246,1629.397774907473,None,001,17,2019_Oct_09_1557,ACPT_experiment_5_30_19,3.1.0,59.955461205144466,
,,,C,D,d,v,L,U,g,R,u,,,,,5,19,119,0,4,0,4,0,,,,,1,0,36,23,,,,,,up,1.1341992139095964,1631.3159043373817,None,001,17,2019_Oct_09_1557,ACPT_experiment_5_30_19,3.1.0,59.955461205144466,
,,,C,D,d,v,R,G,d,R,i,,,,,5,19,119,0,4,0,4,0,,,,,1,1,37,5,,,,,,up,0.8840008198367286,1633.7344097274508,None,001,17,2019_Oct_09_1557,ACPT_experiment_5_30_19,3.1.0,59.955461205144466,
,,,C,D,d,v,R,D,g,R,i,,,,,5,19,119,0,4,0,4,0,,,,,1,2,38,3,,,,,,up,0.8006007514359226,1635.902726080949,None,001,17,2019_Oct_09_1557,ACPT_experiment_5_30_19,3.1.0,59.955461205144466,
,,,C,D,d,v,R,D,y,R,y,,,,,5,19,119,0,4,0,4,0,,,,,1,3,39,27,,,,,,down,0.7839338382564165,1637.9709522100438,None,001,17,2019_Oct_09_1557,ACPT_experiment_5_30_19,3.1.0,59.955461205144466,
,,,C,D,d,v,L,G,g,R,c ,,,,,5,19,119,0,4,0,4,0,,,,,1,4,40,19,,,,,,up,0.5337360478933988,1640.0391922244617,None,001,17,2019_Oct_09_1557,ACPT_experiment_5_30_19,3.1.0,59.955461205144466,
,,,C,D,d,v,R,D,d,L,c,,,,,5,19,119,0,4,0,4,0,,,,,1,5,41,0,,,,,,up,1.3009821449868468,1641.8572450134325,None,001,17,2019_Oct_09_1557,ACPT_experiment_5_30_19,3.1.0,59.955461205144466,
,,,C,D,d,v,L,G,g,L,c ,,,,,5,19,119,0,4,0,4,0,,,,,1,6,42,18,,,,,,up,1.6512532558808743,1644.4425381642577,None,001,17,2019_Oct_09_1557,ACPT_experiment_5_30_19,3.1.0,59.955461205144466,
,,,C,D,d,v,R,D,d,R,c ,,,,,5,19,119,0,4,0,4,0,,,,,1,7,43,1,,,,,,up,1.0341183470081887,1647.3780972944442,None,001,17,2019_Oct_09_1557,ACPT_experiment_5_30_19,3.1.0,59.955461205144466,
,,,C,D,d,v,R,D,y,L,y,,,,,5,19,119,0,4,0,4,0,,,,,1,8,44,26,,,,,,down,1.734670530006042,1649.6798232096753,None,001,17,2019_Oct_09_1557,ACPT_experiment_5_30_19,3.1.0,59.955461205144466,
,,,C,D,d,v,L,G,y,R,y,,,,,5,19,119,0,4,0,4,0,,,,,1,9,45,35,,,,,,down,1.884752136453244,1652.7154879588597,None,001,17,2019_Oct_09_1557,ACPT_experiment_5_30_19,3.1.0,59.955461205144466,
,,,C,D,d,v,R,U,d,R,u,,,,,5,19,119,0,4,0,4,0,,,,,1,10,46,9,,,,,,up,0.984111872221547,1655.9012388423143,None,001,17,2019_Oct_09_1557,ACPT_experiment_5_30_19,3.1.0,59.955461205144466,
,,,C,D,d,v,L,U,y,L,u,,,,,5,19,119,0,4,0,4,0,,,,,1,11,47,24,,,,,,down,2.768774387983285,1658.169621573683,None,001,17,2019_Oct_09_1557,ACPT_experiment_5_30_19,3.1.0,59.955461205144466,
,,,C,D,d,v,L,U,g,L,u,,,,,5,19,119,0,4,0,4,0,,,,,1,12,48,22,,,,,,up,3.002273268553836,1662.2227039489535,None,001,17,2019_Oct_09_1557,ACPT_experiment_5_30_19,3.1.0,59.955461205144466,
,,,C,D,d,v,R,U,y,R,u,,,,,5,19,119,0,4,0,4,0,,,,,1,13,49,31,,,,,,down,0.8673136823836103,1666.5259693237022,None,001,17,2019_Oct_09_1557,ACPT_experiment_5_30_19,3.1.0,59.955461205144466,
,,,C,D,d,v,R,G,g,R,c ,,,,,5,19,119,0,4,0,4,0,,,,,1,14,50,7,,,,,,up,0.7672370414475154,1668.694282054943,None,001,17,2019_Oct_09_1557,ACPT_experiment_5_30_19,3.1.0,59.955461205144466,
,,,C,D,d,v,L,G,d,L,i,,,,,5,19,119,0,4,0,4,0,,,,,1,15,51,16,,,,,,up,1.5344964201522089,1670.7458364411796,None,001,17,2019_Oct_09_1557,ACPT_experiment_5_30_19,3.1.0,59.955461205144466,
,,,C,D,d,v,R,D,g,L,i,,,,,5,19,119,0,4,0,4,0,,,,,1,16,52,2,,,,,,up,0.7338802741214749,1673.564645678298,None,001,17,2019_Oct_09_1557,ACPT_experiment_5_30_19,3.1.0,59.955461205144466,
,,,C,D,d,v,R,U,g,L,u,,,,,5,19,119,0,4,0,4,0,,,,,1,17,53,10,,,,,,up,3.435967690667894,1675.5661377466113,None,001,17,2019_Oct_09_1557,ACPT_experiment_5_30_19,3.1.0,59.955461205144466,
,,,C,D,d,v,R,U,y,L,u,,,,,5,19,119,0,4,0,4,0,,,,,1,18,54,30,,,,,,down,0.750555337381229,1680.2864128208603,None,001,17,2019_Oct_09_1557,ACPT_experiment_5_30_19,3.1.0,59.955461205144466,
,,,C,D,d,v,R,G,y,R,y,,,,,5,19,119,0,4,0,4,0,,,,,1,19,55,29,,,,,,down,0.8506398265417374,1682.3212897289977,None,001,17,2019_Oct_09_1557,ACPT_experiment_5_30_19,3.1.0,59.955461205144466,
,,,C,D,d,v,R,G,d,L,i,,,,,5,19,119,0,4,0,4,0,,,,,1,20,56,4,,,,,,up,0.900677694226033,1684.4395667055342,None,001,17,2019_Oct_09_1557,ACPT_experiment_5_30_19,3.1.0,59.955461205144466,
,,,C,D,d,v,L,G,d,R,i,,,,,5,19,119,0,4,0,4,0,,,,,1,21,57,17,,,,,,up,1.084156516548319,1686.6245554056004,None,001,17,2019_Oct_09_1557,ACPT_experiment_5_30_19,3.1.0,59.955461205144466,
,,,C,D,d,v,L,D,d,R,c ,,,,,5,19,119,0,4,0,4,0,,,,,1,22,58,13,,,,,,up,1.000763088954045,1688.9930250409689,None,001,17,2019_Oct_09_1557,ACPT_experiment_5_30_19,3.1.0,59.955461205144466,
,,,C,D,d,v,R,G,g,L,c ,,,,,5,19,119,0,4,0,4,0,,,,,1,23,59,6,,,,,,up,0.9507182786073827,1691.2780909856792,None,001,17,2019_Oct_09_1557,ACPT_experiment_5_30_19,3.1.0,59.955461205144466,
,,,C,D,d,v,L,D,g,L,i,,,,,5,19,119,0,4,0,4,0,,,,,1,24,60,14,,,,,,up,0.6004556196476187,1693.5131154404462,None,001,17,2019_Oct_09_1557,ACPT_experiment_5_30_19,3.1.0,59.955461205144466,
,,,C,D,d,v,L,U,y,R,u,,,,,5,19,119,0,4,0,4,0,,,,,1,25,61,25,,,,,,down,2.752087250528348,1695.3978787455271,None,001,17,2019_Oct_09_1557,ACPT_experiment_5_30_19,3.1.0,59.955461205144466,
,,,C,D,d,v,L,D,d,L,c ,,,,,5,19,119,0,4,0,4,0,,,,,1,26,62,12,,,,,,up,1.3510166922696953,1699.4342878686657,None,001,17,2019_Oct_09_1557,ACPT_experiment_5_30_19,3.1.0,59.955461205144466,
,,,C,D,d,v,R,U,g,R,u,,,,,5,19,119,0,4,0,4,0,,,,,1,27,63,11,,,,,,up,1.017434831812352,1702.0696134537884,None,001,17,2019_Oct_09_1557,ACPT_experiment_5_30_19,3.1.0,59.955461205144466,
,,,C,D,d,v,L,D,g,R,i,,,,,5,19,119,0,4,0,4,0,,,,,1,28,64,15,,,,,,up,1.084151083159668,1704.3713574803078,None,001,17,2019_Oct_09_1557,ACPT_experiment_5_30_19,3.1.0,59.955461205144466,
,,,C,D,d,v,L,U,d,L,u,,,,,5,19,119,0,4,0,4,0,,,,,1,29,65,20,,,,,,up,1.7680266936258704,1706.739804174711,None,001,17,2019_Oct_09_1557,ACPT_experiment_5_30_19,3.1.0,59.955461205144466,
,,,C,D,d,v,L,D,y,L,y,,,,,5,19,119,0,4,0,4,0,,,,,1,30,66,32,,,,,,down,1.2342637806523271,1709.792144289011,None,001,17,2019_Oct_09_1557,ACPT_experiment_5_30_19,3.1.0,59.955461205144466,
,,,C,D,d,v,R,U,d,L,u,,,,,5,19,119,0,4,0,4,0,,,,,1,31,67,8,,,,,,up,5.1038709558615665,1712.310723301469,None,001,17,2019_Oct_09_1557,ACPT_experiment_5_30_19,3.1.0,59.955461205144466,
,,,C,D,d,v,L,U,d,R,u,,,,,5,19,119,0,4,0,4,0,,,,,1,32,68,21,,,,,,up,1.317660528649867,1718.6989013390576,None,001,17,2019_Oct_09_1557,ACPT_experiment_5_30_19,3.1.0,59.955461205144466,
,,,C,D,d,v,L,D,y,R,y,,,,,5,19,119,0,4,0,4,0,,,,,1,33,69,33,,,,,,down,1.3343437419916881,1721.334233263131,None,001,17,2019_Oct_09_1557,ACPT_experiment_5_30_19,3.1.0,59.955461205144466,
,,,C,D,d,v,R,G,y,L,y,,,,,5,19,119,0,4,0,4,0,,,,,1,34,70,28,,,,,,down,0.9173793207119161,1723.9695497926095,None,001,17,2019_Oct_09_1557,ACPT_experiment_5_30_19,3.1.0,59.955461205144466,
,,,C,D,d,v,L,G,y,L,y,,,,,5,19,119,0,4,0,4,0,,,,,1,35,71,34,,,,,,down,0.6671649283343868,1726.1545647540443,None,001,17,2019_Oct_09_1557,ACPT_experiment_5_30_19,3.1.0,59.955461205144466,
,,,C,D,d,v,,,,,,,,,,5,19,119,0,5,0,5,0,0,0,0,0,,,,,,,,,,,,,,001,17,2019_Oct_09_1557,ACPT_experiment_5_30_19,3.1.0,59.955461205144466,
,,,C,D,d,v,R,U,y,L,u,,,,,5,19,119,0,5,0,5,0,,,,,0,0,0,30,,,,,,down,0.8003819067016593,1729.974355924851,None,001,17,2019_Oct_09_1557,ACPT_experiment_5_30_19,3.1.0,59.955461205144466,
,,,C,D,d,v,L,G,g,R,c ,,,,,5,19,119,0,5,0,5,0,,,,,0,1,1,19,,,,,,up,0.6171288717778225,1732.059049139245,None,001,17,2019_Oct_09_1557,ACPT_experiment_5_30_19,3.1.0,59.955461205144466,
,,,C,D,d,v,R,U,d,L,u,,,,,5,19,119,0,5,0,5,0,,,,,0,2,2,8,,,,,,up,1.9514780471563427,1733.960489620571,None,001,17,2019_Oct_09_1557,ACPT_experiment_5_30_19,3.1.0,59.955461205144466,
,,,C,D,d,v,R,G,g,L,c ,,,,,5,19,119,0,5,0,5,0,,,,,0,3,3,6,,,,,,up,0.6505112967643072,1737.1962548270349,None,001,17,2019_Oct_09_1557,ACPT_experiment_5_30_19,3.1.0,59.955461205144466,
,,,C,D,d,v,R,D,d,L,c,,,,,5,19,119,0,5,0,5,0,,,,,0,4,4,0,,,,,,up,0.7672470026573137,1739.131078940767,None,001,17,2019_Oct_09_1557,ACPT_experiment_5_30_19,3.1.0,59.955461205144466,
,,,C,D,d,v,R,G,y,R,y,,,,,5,19,119,0,5,0,5,0,,,,,0,5,5,29,,,,,,down,0.8339551039262005,1741.1826381566807,None,001,17,2019_Oct_09_1557,ACPT_experiment_5_30_19,3.1.0,59.955461205144466,
,,,C,D,d,v,R,D,y,R,y,,,,,5,19,119,0,5,0,5,0,,,,,0,6,6,27,,,,,,down,0.7839265937418531,1743.3009136239434,None,001,17,2019_Oct_09_1557,ACPT_experiment_5_30_19,3.1.0,59.955461205144466,
,,,C,D,d,v,R,D,g,R,i,,,,,5,19,119,0,5,0,5,0,,,,,0,7,7,3,,,,,,down,1.3009872765178443,1745.3691442808613,None,001,17,2019_Oct_09_1557,ACPT_experiment_5_30_19,3.1.0,59.955461205144466,
,,,C,D,d,v,L,D,g,R,i,,,,,5,19,119,0,5,0,5,0,,,,,0,8,8,15,,,,,,down,0.6171445682284684,1747.954445279911,None,001,17,2019_Oct_09_1557,ACPT_experiment_5_30_19,3.1.0,59.955461205144466,
,,,C,D,d,v,L,G,y,R,y,,,,,5,19,119,0,5,0,5,0,,,,,0,9,9,35,,,,,,down,0.7005398069522926,1749.8725671634493,None,001,17,2019_Oct_09_1557,ACPT_experiment_5_30_19,3.1.0,59.955461205144466,
,,,C,D,d,v,L,D,g,L,i,,,,,5,19,119,0,5,0,5,0,,,,,0,10,10,14,,,,,,up,0.5504162426859693,1751.8740815690162,None,001,17,2019_Oct_09_1557,ACPT_experiment_5_30_19,3.1.0,59.955461205144466,
,,,C,D,d,v,L,U,g,R,u,,,,,5,19,119,0,5,0,5,0,,,,,0,11,11,23,,,,,,up,0.7505785802022729,1753.7088091193946,None,001,17,2019_Oct_09_1557,ACPT_experiment_5_30_19,3.1.0,59.955461205144466,
,,,C,D,d,v,L,D,y,R,y,,,,,5,19,119,0,5,0,5,0,,,,,0,12,12,33,,,,,,down,0.9507424269904732,1755.7436658032602,None,001,17,2019_Oct_09_1557,ACPT_experiment_5_30_19,3.1.0,59.955461205144466,
,,,C,D,d,v,L,D,d,L,c ,,,,,5,19,119,0,5,0,5,0,,,,,0,13,13,12,,,,,,up,0.6805183812975883,1757.9987291912603,None,001,17,2019_Oct_09_1557,ACPT_experiment_5_30_19,3.1.0,59.955461205144466,
,,,C,D,d,v,L,U,y,L,u,,,,,5,19,119,0,5,0,5,0,,,,,0,14,14,24,,,,,,down,0.7672467008032982,1759.9635606913798,None,001,17,2019_Oct_09_1557,ACPT_experiment_5_30_19,3.1.0,59.955461205144466,
,,,C,D,d,v,R,D,d,R,c ,,,,,5,19,119,0,5,0,5,0,,,,,0,15,15,1,,,,,,up,3.5694044193351147,1762.0151165868901,None,001,17,2019_Oct_09_1557,ACPT_experiment_5_30_19,3.1.0,59.955461205144466,
,,,C,D,d,v,R,U,g,L,u,,,,,5,19,119,0,5,0,5,0,,,,,0,16,16,10,,,,,,up,1.4844612691595103,1766.8687982043248,None,001,17,2019_Oct_09_1557,ACPT_experiment_5_30_19,3.1.0,59.955461205144466,
,,,C,D,d,v,L,D,y,L,y,,,,,5,19,119,0,5,0,5,0,,,,,0,17,17,32,,,,,,down,1.868085826981769,1769.6375719885982,None,001,17,2019_Oct_09_1557,ACPT_experiment_5_30_19,3.1.0,59.955461205144466,
,,,C,D,d,v,R,G,d,L,i,,,,,5,19,119,0,5,0,5,0,,,,,0,18,18,4,,,,,,up,1.567851376352337,1772.7899615769002,None,001,17,2019_Oct_09_1557,ACPT_experiment_5_30_19,3.1.0,59.955461205144466,
,,,C,D,d,v,R,D,g,L,i,,,,,5,19,119,0,5,0,5,0,,,,,0,19,19,2,,,,,,up,1.7846923993874952,1775.642123355381,None,001,17,2019_Oct_09_1557,ACPT_experiment_5_30_19,3.1.0,59.955461205144466,
,,,C,D,d,v,R,U,g,R,u,,,,,5,19,119,0,5,0,5,0,,,,,0,20,20,11,,,,,,up,0.7505631856056425,1778.7111222327821,None,001,17,2019_Oct_09_1557,ACPT_experiment_5_30_19,3.1.0,59.955461205144466,
,,,C,D,d,v,R,U,d,R,u,,,,,5,19,119,0,5,0,5,0,,,,,0,21,21,9,,,,,,up,0.6838511602236395,1780.7460003483393,None,001,17,2019_Oct_09_1557,ACPT_experiment_5_30_19,3.1.0,59.955461205144466,
,,,C,D,d,v,R,D,y,L,y,,,,,5,19,119,0,5,0,5,0,,,,,0,22,22,26,,,,,,down,1.6178877347629168,1782.730846633307,None,001,17,2019_Oct_09_1557,ACPT_experiment_5_30_19,3.1.0,59.955461205144466,
,,,C,D,d,v,R,G,d,R,i,,,,,5,19,119,0,5,0,5,0,,,,,0,23,23,5,,,,,,up,0.6338458928566979,1785.6497231538633,None,001,17,2019_Oct_09_1557,ACPT_experiment_5_30_19,3.1.0,59.955461205144466,
,,,C,D,d,v,R,U,y,R,u,,,,,5,19,119,0,5,0,5,0,,,,,0,24,24,31,,,,,,down,1.1508926903134125,1787.567849263367,None,001,17,2019_Oct_09_1557,ACPT_experiment_5_30_19,3.1.0,59.955461205144466,
,,,C,D,d,v,R,G,g,R,c ,,,,,5,19,119,0,5,0,5,0,,,,,0,25,25,7,,,,,,up,0.8006052792607079,1790.00302790557,None,001,17,2019_Oct_09_1557,ACPT_experiment_5_30_19,3.1.0,59.955461205144466,
,,,C,D,d,v,L,G,d,R,i,,,,,5,19,119,0,5,0,5,0,,,,,0,26,26,17,,,,,,up,0.8006149386128527,1792.0879384554264,None,001,17,2019_Oct_09_1557,ACPT_experiment_5_30_19,3.1.0,59.955461205144466,
,,,C,D,d,v,L,U,d,R,u,,,,,5,19,119,0,5,0,5,0,,,,,0,27,27,21,,,,,,up,0.667152552287007,1794.1728656072955,None,001,17,2019_Oct_09_1557,ACPT_experiment_5_30_19,3.1.0,59.955461205144466,
,,,C,D,d,v,L,G,y,L,y,,,,,5,19,119,0,5,0,5,0,,,,,0,28,28,34,,,,,,down,2.168332653656762,1796.124319204213,None,001,17,2019_Oct_09_1557,ACPT_experiment_5_30_19,3.1.0,59.955461205144466,
,,,C,D,d,v,L,U,y,R,u,,,,,5,19,119,0,5,0,5,0,,,,,0,29,29,25,,,,,,down,0.8339843838439265,1799.5769384134692,None,001,17,2019_Oct_09_1557,ACPT_experiment_5_30_19,3.1.0,59.955461205144466,
,,,C,D,d,v,L,G,g,L,c ,,,,,5,19,119,0,5,0,5,0,,,,,0,30,30,18,,,,,,up,1.7846866641448287,1801.6952331994398,None,001,17,2019_Oct_09_1557,ACPT_experiment_5_30_19,3.1.0,59.955461205144466,
,,,C,D,d,v,L,D,d,R,c ,,,,,5,19,119,0,5,0,5,0,,,,,0,31,31,13,,,,,,up,2.6520374746705784,1804.7642296620033,None,001,17,2019_Oct_09_1557,ACPT_experiment_5_30_19,3.1.0,59.955461205144466,
,,,C,D,d,v,L,U,d,L,u,,,,,5,19,119,0,5,0,5,0,,,,,0,32,32,20,,,,,,down,1.2342643843621772,1808.7005539941274,None,001,17,2019_Oct_09_1557,ACPT_experiment_5_30_19,3.1.0,59.955461205144466,
,,,C,D,d,v,R,G,y,L,y,,,,,5,19,119,0,5,0,5,0,,,,,0,33,33,28,,,,,,down,1.1675813370420656,1811.2191284787623,None,001,17,2019_Oct_09_1557,ACPT_experiment_5_30_19,3.1.0,59.955461205144466,
,,,C,D,d,v,L,U,g,L,u,,,,,5,19,119,0,5,0,5,0,,,,,0,34,34,22,,,,,,up,0.8172842666335782,1813.6709924472907,None,001,17,2019_Oct_09_1557,ACPT_experiment_5_30_19,3.1.0,59.955461205144466,
,,,C,D,d,v,L,G,d,L,i,,,,,5,19,119,0,5,0,5,0,,,,,0,35,35,16,,,,,,up,0.6504871483793977,1815.7725883234707,None,001,17,2019_Oct_09_1557,ACPT_experiment_5_30_19,3.1.0,59.955461205144466,
,,,C,D,d,v,R,G,y,L,y,,,,,5,19,119,0,5,0,5,0,,,,,1,0,36,28,,,,,,down,0.7672584731390089,1817.7073653478528,None,001,17,2019_Oct_09_1557,ACPT_experiment_5_30_19,3.1.0,59.955461205144466,
,,,C,D,d,v,R,U,d,R,u,,,,,5,19,119,0,5,0,5,0,,,,,1,1,37,9,,,,,,up,0.9340302355885797,1819.7589496177152,None,001,17,2019_Oct_09_1557,ACPT_experiment_5_30_19,3.1.0,59.955461205144466,
,,,C,D,d,v,L,U,y,R,u,,,,,5,19,119,0,5,0,5,0,,,,,1,2,38,25,,,,,,down,0.7505942766510998,1821.9772715404342,None,001,17,2019_Oct_09_1557,ACPT_experiment_5_30_19,3.1.0,59.955461205144466,
,,,C,D,d,v,L,G,g,R,c ,,,,,5,19,119,0,5,0,5,0,,,,,1,3,39,19,,,,,,up,0.9006761849541363,1824.0121771247777,None,001,17,2019_Oct_09_1557,ACPT_experiment_5_30_19,3.1.0,59.955461205144466,
,,,C,D,d,v,R,D,g,L,i,,,,,5,19,119,0,5,0,5,0,,,,,1,4,40,2,,,,,,up,1.667915641241052,1826.1971785027454,None,001,17,2019_Oct_09_1557,ACPT_experiment_5_30_19,3.1.0,59.955461205144466,
,,,C,D,d,v,L,G,g,L,c ,,,,,5,19,119,0,5,0,5,0,,,,,1,5,41,18,,,,,,up,2.3017440265193727,1829.132732199545,None,001,17,2019_Oct_09_1557,ACPT_experiment_5_30_19,3.1.0,59.955461205144466,
,,,C,D,d,v,R,G,y,R,y,,,,,5,19,119,0,5,0,5,0,,,,,1,6,42,29,,,,,,down,0.9340377819571586,1832.718786024483,None,001,17,2019_Oct_09_1557,ACPT_experiment_5_30_19,3.1.0,59.955461205144466,
,,,C,D,d,v,R,U,g,L,u,,,,,5,19,119,0,5,0,5,0,,,,,1,7,43,10,,,,,,up,0.6504937891859299,1834.9371345104246,None,001,17,2019_Oct_09_1557,ACPT_experiment_5_30_19,3.1.0,59.955461205144466,
,,,C,D,d,v,R,U,y,R,u,,,,,5,19,119,0,5,0,5,0,,,,,1,8,44,31,,,,,,down,1.1342121936668264,1836.8552388863845,None,001,17,2019_Oct_09_1557,ACPT_experiment_5_30_19,3.1.0,59.955461205144466,
,,,C,D,d,v,L,D,g,R,i,,,,,5,19,119,0,5,0,5,0,,,,,1,9,45,15,,,,,,up,1.6512544633005746,1839.273756954357,None,001,17,2019_Oct_09_1557,ACPT_experiment_5_30_19,3.1.0,59.955461205144466,
,,,C,D,d,v,R,D,g,R,i,,,,,5,19,119,0,5,0,5,0,,,,,1,10,46,3,,,,,,up,8.272946172344746,1842.209317895673,None,001,17,2019_Oct_09_1557,ACPT_experiment_5_30_19,3.1.0,59.955461205144466,
,,,C,D,d,v,L,D,d,L,c ,,,,,5,19,119,0,5,0,5,0,,,,,1,11,47,12,,,,,,down,0.7839253863203339,1851.766571149743,None,001,17,2019_Oct_09_1557,ACPT_experiment_5_30_19,3.1.0,59.955461205144466,
,,,C,D,d,v,R,G,g,L,c ,,,,,5,19,119,0,5,0,5,0,,,,,1,12,48,6,,,,,,up,0.7338848019426223,1853.8348178049655,None,001,17,2019_Oct_09_1557,ACPT_experiment_5_30_19,3.1.0,59.955461205144466,
,,,C,D,d,v,L,U,g,R,u,,,,,5,19,119,0,5,0,5,0,,,,,1,13,49,23,,,,,,up,1.3510287664612406,1855.85300697194,None,001,17,2019_Oct_09_1557,ACPT_experiment_5_30_19,3.1.0,59.955461205144466,
,,,C,D,d,v,R,G,d,L,i,,,,,5,19,119,0,5,0,5,0,,,,,1,14,50,4,,,,,,up,1.4177429048268095,1858.4883467442378,None,001,17,2019_Oct_09_1557,ACPT_experiment_5_30_19,3.1.0,59.955461205144466,
,,,C,D,d,v,R,D,d,R,c ,,,,,5,19,119,0,5,0,5,0,,,,,1,15,51,1,,,,,,up,13.526950653682434,1861.1903903918392,None,001,17,2019_Oct_09_1557,ACPT_experiment_5_30_19,3.1.0,59.955461205144466,
,,,C,D,d,v,R,U,d,L,u,,,,,5,19,119,0,5,0,5,0,,,,,1,16,52,8,,,,,,up,0.9507179767515481,1876.001637864183,None,001,17,2019_Oct_09_1557,ACPT_experiment_5_30_19,3.1.0,59.955461205144466,
,,,C,D,d,v,L,D,y,L,y,,,,,5,19,119,0,5,0,5,0,,,,,1,17,53,32,,,,,,down,0.7504502919091465,1878.23667167645,None,001,17,2019_Oct_09_1557,ACPT_experiment_5_30_19,3.1.0,59.955461205144466,
,,,C,D,d,v,R,G,d,R,i,,,,,5,19,119,0,5,0,5,0,,,,,1,18,54,5,,,,,,up,1.0007525240343966,1880.2715464716039,None,001,17,2019_Oct_09_1557,ACPT_experiment_5_30_19,3.1.0,59.955461205144466,
,,,C,D,d,v,L,D,g,L,i,,,,,5,19,119,0,5,0,5,0,,,,,1,19,55,14,,,,,,up,0.9340368763951119,1882.5566169441354,None,001,17,2019_Oct_09_1557,ACPT_experiment_5_30_19,3.1.0,59.955461205144466,
,,,C,D,d,v,L,U,g,L,u,,,,,5,19,119,0,5,0,5,0,,,,,1,20,56,22,,,,,,up,0.8673399437520857,1884.7582644073027,None,001,17,2019_Oct_09_1557,ACPT_experiment_5_30_19,3.1.0,59.955461205144466,
,,,C,D,d,v,L,U,y,L,u,,,,,5,19,119,0,5,0,5,0,,,,,1,21,57,24,,,,,,down,0.9674199050914467,1886.8932191637941,None,001,17,2019_Oct_09_1557,ACPT_experiment_5_30_19,3.1.0,59.955461205144466,
,,,C,D,d,v,L,G,y,R,y,,,,,5,19,119,0,5,0,5,0,,,,,1,22,58,35,,,,,,down,0.8173410153358418,1889.1449446413371,None,001,17,2019_Oct_09_1557,ACPT_experiment_5_30_19,3.1.0,59.955461205144466,
,,,C,D,d,v,R,U,y,L,u,,,,,5,19,119,0,5,0,5,0,,,,,1,23,59,30,,,,,,down,0.9507273342496774,1891.2465371971139,None,001,17,2019_Oct_09_1557,ACPT_experiment_5_30_19,3.1.0,59.955461205144466,
,,,C,D,d,v,L,G,d,L,i,,,,,5,19,119,0,5,0,5,0,,,,,1,24,60,16,,,,,,up,0.7839268955940497,1893.4815725186545,None,001,17,2019_Oct_09_1557,ACPT_experiment_5_30_19,3.1.0,59.955461205144466,
,,,C,D,d,v,R,D,y,L,y,,,,,5,19,119,0,5,0,5,0,,,,,1,25,61,26,,,,,,down,1.5011423695177655,1895.549809212669,None,001,17,2019_Oct_09_1557,ACPT_experiment_5_30_19,3.1.0,59.955461205144466,
,,,C,D,d,v,L,U,d,L,u,,,,,5,19,119,0,5,0,5,0,,,,,1,26,62,20,,,,,,up,0.9006758830983017,1898.3352577583464,None,001,17,2019_Oct_09_1557,ACPT_experiment_5_30_19,3.1.0,59.955461205144466,
,,,C,D,d,v,L,U,d,R,u,,,,,5,19,119,0,5,0,5,0,,,,,1,27,63,21,,,,,,up,3.953004828770645,1900.5202467602667,None,001,17,2019_Oct_09_1557,ACPT_experiment_5_30_19,3.1.0,59.955461205144466,
