facing_vig,person_vig,text_vig,facing_train,person_train,food_train,correct_key_train,facing_exp,person_exp,food_exp,showL_R,consistent,vig_random.thisRepN,vig_random.thisTrialN,vig_random.thisN,vig_random.thisIndex,trainTrials.thisRepN,trainTrials.thisTrialN,trainTrials.thisN,trainTrials.thisIndex,expBlock.thisRepN,expBlock.thisTrialN,expBlock.thisN,expBlock.thisIndex,breakLoop.thisRepN,breakLoop.thisTrialN,breakLoop.thisN,breakLoop.thisIndex,expTrials.thisRepN,expTrials.thisTrialN,expTrials.thisN,expTrials.thisIndex,train_resp.keys,train_resp.corr,train_resp.rt,train_resp.started,train_resp.stopped,exp_resp.keys,exp_resp.rt,exp_resp.started,exp_resp.stopped,session,participant,date,expName,psychopyVersion,frameRate,
C,D,"is allergic to gluten, meaning she can’t eat wheat products. She enjoys eating dairy products. She thinks eating insects, like crickets, is disgusting.",,,,,,,,,,0,0,0,1,,,,,,,,,,,,,,,,,,,,,,,,,,001,19,2019_Oct_11_1055,ACPT_experiment_5_30_19,3.1.0,59.97043883750859,
C,U,"did not report her food preferences, so her food preferences are unknown.",,,,,,,,,,0,1,1,2,,,,,,,,,,,,,,,,,,,,,,,,,,001,19,2019_Oct_11_1055,ACPT_experiment_5_30_19,3.1.0,59.97043883750859,
C,G,"cannot eat dairy products because she is lactose intolerant. She enjoys eating wheat products. She thinks eating insects, like crickets, is disgusting.",,,,,,,,,,0,2,2,0,,,,,,,,,,,,,,,,,,,,,,,,,,001,19,2019_Oct_11_1055,ACPT_experiment_5_30_19,3.1.0,59.97043883750859,
,,,C,U,y,n,,,,,,,,,,0,0,0,17,,,,,,,,,,,,,n,1,2.3684862373829674,1120.3450055556377,None,,,,,001,19,2019_Oct_11_1055,ACPT_experiment_5_30_19,3.1.0,59.97043883750859,
,,,C,D,y,b,,,,,,,,,,0,1,1,2,,,,,,,,,,,,,b,1,2.185011641030542,1125.999304526524,None,,,,,001,19,2019_Oct_11_1055,ACPT_experiment_5_30_19,3.1.0,59.97043883750859,
,,,C,G,g,v,,,,,,,,,,0,2,2,4,,,,,,,,,,,,,b,0,19.21461544754061,1131.4701331270255,None,,,,,001,19,2019_Oct_11_1055,ACPT_experiment_5_30_19,3.1.0,59.97043883750859,
,,,C,G,y,b,,,,,,,,,,0,3,3,5,,,,,,,,,,,,,b,1,1.8847974146740398,1153.9538614927142,None,,,,,001,19,2019_Oct_11_1055,ACPT_experiment_5_30_19,3.1.0,59.97043883750859,
,,,C,U,d,n,,,,,,,,,,0,4,4,6,,,,,,,,,,,,,b,0,8.8067341392657,1159.124457151861,None,,,,,001,19,2019_Oct_11_1055,ACPT_experiment_5_30_19,3.1.0,59.97043883750859,
,,,C,G,d,b,,,,,,,,,,0,5,5,12,,,,,,,,,,,,,b,1,4.319963982684385,1171.2170046283397,None,,,,,001,19,2019_Oct_11_1055,ACPT_experiment_5_30_19,3.1.0,59.97043883750859,
,,,C,G,y,b,,,,,,,,,,0,6,6,14,,,,,,,,,,,,,b,1,1.017462602453179,1178.8227843630757,None,,,,,001,19,2019_Oct_11_1055,ACPT_experiment_5_30_19,3.1.0,59.97043883750859,
,,,C,D,d,v,,,,,,,,,,0,7,7,0,,,,,,,,,,,,,b,0,6.237894792129055,1183.1429089325175,None,,,,,001,19,2019_Oct_11_1055,ACPT_experiment_5_30_19,3.1.0,59.97043883750859,
,,,C,D,y,b,,,,,,,,,,0,8,8,11,,,,,,,,,,,,,b,1,1.7180021075503191,1192.6499468282757,None,,,,,001,19,2019_Oct_11_1055,ACPT_experiment_5_30_19,3.1.0,59.97043883750859,
,,,C,D,g,b,,,,,,,,,,0,9,9,10,,,,,,,,,,,,,v,0,5.370765844887046,1197.6370893227615,None,,,,,001,19,2019_Oct_11_1055,ACPT_experiment_5_30_19,3.1.0,59.97043883750859,
,,,C,U,d,n,,,,,,,,,,0,10,10,15,,,,,,,,,,,,,n,1,5.053898590670087,1206.2936434509127,None,,,,,001,19,2019_Oct_11_1055,ACPT_experiment_5_30_19,3.1.0,59.97043883750859,
,,,C,D,g,b,,,,,,,,,,0,11,11,1,,,,,,,,,,,,,b,1,10.55808275108052,1214.633343002749,None,,,,,001,19,2019_Oct_11_1055,ACPT_experiment_5_30_19,3.1.0,59.97043883750859,
,,,C,U,g,n,,,,,,,,,,0,12,12,16,,,,,,,,,,,,,v,0,8.239645248156421,1228.477169664437,None,,,,,001,19,2019_Oct_11_1055,ACPT_experiment_5_30_19,3.1.0,59.97043883750859,
,,,C,D,d,v,,,,,,,,,,0,13,13,18,,,,,,,,,,,,,v,1,11.792324798187337,1240.0026240238392,None,,,,,001,19,2019_Oct_11_1055,ACPT_experiment_5_30_19,3.1.0,59.97043883750859,
,,,C,U,g,n,,,,,,,,,,0,14,14,7,,,,,,,,,,,,,b,0,2.752113511896596,1255.0807654796427,None,,,,,001,19,2019_Oct_11_1055,ACPT_experiment_5_30_19,3.1.0,59.97043883750859,
,,,C,U,y,n,,,,,,,,,,0,15,15,8,,,,,,,,,,,,,b,0,1.501152632581352,1261.1019994560575,None,,,,,001,19,2019_Oct_11_1055,ACPT_experiment_5_30_19,3.1.0,59.97043883750859,
,,,C,D,d,v,,,,,,,,,,0,16,16,9,,,,,,,,,,,,,v,1,6.538335107736657,1265.888967236981,None,,,,,001,19,2019_Oct_11_1055,ACPT_experiment_5_30_19,3.1.0,59.97043883750859,
,,,C,G,g,v,,,,,,,,,,0,17,17,19,,,,,,,,,,,,,b,0,4.269923398305764,1275.7131033058836,None,,,,,001,19,2019_Oct_11_1055,ACPT_experiment_5_30_19,3.1.0,59.97043883750859,
,,,C,G,d,b,,,,,,,,,,0,18,18,3,,,,,,,,,,,,,v,0,12.009154350738982,1283.2521637707218,None,,,,,001,19,2019_Oct_11_1055,ACPT_experiment_5_30_19,3.1.0,59.97043883750859,
,,,C,G,g,v,,,,,,,,,,0,19,19,13,,,,,,,,,,,,,v,1,20.165340366952705,1298.5304440193656,None,,,,,001,19,2019_Oct_11_1055,ACPT_experiment_5_30_19,3.1.0,59.97043883750859,
,,,C,G,d,b,,,,,,,,,,1,0,20,3,,,,,,,,,,,,,b,1,1.351038727669902,1321.981600440225,None,,,,,001,19,2019_Oct_11_1055,ACPT_experiment_5_30_19,3.1.0,59.97043883750859,
,,,C,D,g,b,,,,,,,,,,1,1,21,1,,,,,,,,,,,,,b,1,5.153683639862038,1326.635383239391,None,,,,,001,19,2019_Oct_11_1055,ACPT_experiment_5_30_19,3.1.0,59.97043883750859,
,,,C,U,g,n,,,,,,,,,,1,2,22,7,,,,,,,,,,,,,n,1,1.2676187368524552,1335.0749088926727,None,,,,,001,19,2019_Oct_11_1055,ACPT_experiment_5_30_19,3.1.0,59.97043883750859,
,,,C,D,g,b,,,,,,,,,,1,3,23,10,,,,,,,,,,,,,b,1,13.510086025601368,1339.6452683806183,None,,,,,001,19,2019_Oct_11_1055,ACPT_experiment_5_30_19,3.1.0,59.97043883750859,
,,,C,U,g,n,,,,,,,,,,1,4,24,16,,,,,,,,,,,,,n,1,1.0174333225368173,1356.441144198758,None,,,,,001,19,2019_Oct_11_1055,ACPT_experiment_5_30_19,3.1.0,59.97043883750859,
,,,C,D,d,v,,,,,,,,,,1,5,25,0,,,,,,,,,,,,,v,1,10.84114860583827,1360.7614906314832,None,,,,,001,19,2019_Oct_11_1055,ACPT_experiment_5_30_19,3.1.0,59.97043883750859,
,,,C,G,g,v,,,,,,,,,,1,6,26,4,,,,,,,,,,,,,b,0,10.708154698173757,1374.8884731006615,None,,,,,001,19,2019_Oct_11_1055,ACPT_experiment_5_30_19,3.1.0,59.97043883750859,
,,,C,G,y,b,,,,,,,,,,1,7,27,5,,,,,,,,,,,,,b,1,1.2009314635643022,1388.865758828272,None,,,,,001,19,2019_Oct_11_1055,ACPT_experiment_5_30_19,3.1.0,59.97043883750859,
,,,C,D,d,v,,,,,,,,,,1,8,28,18,,,,,,,,,,,,,b,0,2.101626967225684,1393.3525027234848,None,,,,,001,19,2019_Oct_11_1055,ACPT_experiment_5_30_19,3.1.0,59.97043883750859,
,,,C,D,y,b,,,,,,,,,,1,9,29,2,,,,,,,,,,,,,b,1,1.2676371499956076,1398.7232522682125,None,,,,,001,19,2019_Oct_11_1055,ACPT_experiment_5_30_19,3.1.0,59.97043883750859,
,,,C,G,g,v,,,,,,,,,,1,10,30,19,,,,,,,,,,,,,v,1,11.174932105307562,1403.2936331878493,None,,,,,001,19,2019_Oct_11_1055,ACPT_experiment_5_30_19,3.1.0,59.97043883750859,
,,,C,G,g,v,,,,,,,,,,1,11,31,13,,,,,,,,,,,,,v,1,2.2017108526765696,1417.7376739853376,None,,,,,001,19,2019_Oct_11_1055,ACPT_experiment_5_30_19,3.1.0,59.97043883750859,
,,,C,D,y,b,,,,,,,,,,1,12,32,11,,,,,,,,,,,,,b,1,1.1675716776878744,1423.2251963640983,None,,,,,001,19,2019_Oct_11_1055,ACPT_experiment_5_30_19,3.1.0,59.97043883750859,
,,,C,G,d,b,,,,,,,,,,1,13,33,12,,,,,,,,,,,,,b,1,3.3690168981340776,1427.6955054724767,None,,,,,001,19,2019_Oct_11_1055,ACPT_experiment_5_30_19,3.1.0,59.97043883750859,
,,,C,G,y,b,,,,,,,,,,1,14,34,14,,,,,,,,,,,,,b,1,0.7505797876210636,1434.3336404202905,None,,,,,001,19,2019_Oct_11_1055,ACPT_experiment_5_30_19,3.1.0,59.97043883750859,
,,,C,U,d,n,,,,,,,,,,1,15,35,6,,,,,,,,,,,,,n,1,1.2671873863328074,1438.3871481089852,None,,,,,001,19,2019_Oct_11_1055,ACPT_experiment_5_30_19,3.1.0,59.97043883750859,
,,,C,U,y,n,,,,,,,,,,1,16,36,8,,,,,,,,,,,,,n,1,1.9014558759206466,1442.9235006343479,None,,,,,001,19,2019_Oct_11_1055,ACPT_experiment_5_30_19,3.1.0,59.97043883750859,
,,,C,U,d,n,,,,,,,,,,1,17,37,15,,,,,,,,,,,,,n,1,1.2843369653510308,1448.0940944823658,None,,,,,001,19,2019_Oct_11_1055,ACPT_experiment_5_30_19,3.1.0,59.97043883750859,
,,,C,U,y,n,,,,,,,,,,1,18,38,17,,,,,,,,,,,,,n,1,0.6471703677586902,1452.684244477038,None,,,,,001,19,2019_Oct_11_1055,ACPT_experiment_5_30_19,3.1.0,59.97043883750859,
,,,C,D,d,v,,,,,,,,,,1,19,39,9,,,,,,,,,,,,,b,0,4.586832610340707,1456.6172321061224,None,,,,,001,19,2019_Oct_11_1055,ACPT_experiment_5_30_19,3.1.0,59.97043883750859,
,,,C,G,g,v,,,,,,,,,,2,0,40,13,,,,,,,,,,,,,v,1,34.85987447065986,1464.4898783555311,None,,,,,001,19,2019_Oct_11_1055,ACPT_experiment_5_30_19,3.1.0,59.97043883750859,
,,,C,U,g,n,,,,,,,,,,2,1,41,7,,,,,,,,,,,,,n,1,0.8339949487615286,1502.6188222772469,None,,,,,001,19,2019_Oct_11_1055,ACPT_experiment_5_30_19,3.1.0,59.97043883750859,
,,,C,D,g,b,,,,,,,,,,2,2,42,10,,,,,,,,,,,,,b,1,1.8648079856293407,1506.7586480647635,None,,,,,001,19,2019_Oct_11_1055,ACPT_experiment_5_30_19,3.1.0,59.97043883750859,
,,,C,D,d,v,,,,,,,,,,2,3,43,9,,,,,,,,,,,,,b,0,1.4844962843180838,1511.8925538758006,None,,,,,001,19,2019_Oct_11_1055,ACPT_experiment_5_30_19,3.1.0,59.97043883750859,
,,,C,U,g,n,,,,,,,,,,2,4,44,16,,,,,,,,,,,,,n,1,1.1842482502231633,1516.6628456878984,None,,,,,001,19,2019_Oct_11_1055,ACPT_experiment_5_30_19,3.1.0,59.97043883750859,
,,,C,G,g,v,,,,,,,,,,2,5,45,4,,,,,,,,,,,,,v,1,21.64979258046924,1521.1329136142856,None,,,,,001,19,2019_Oct_11_1055,ACPT_experiment_5_30_19,3.1.0,59.97043883750859,
,,,C,G,d,b,,,,,,,,,,2,6,46,12,,,,,,,,,,,,,b,1,1.9014667426938558,1546.0518499020934,None,,,,,001,19,2019_Oct_11_1055,ACPT_experiment_5_30_19,3.1.0,59.97043883750859,
,,,C,D,y,b,,,,,,,,,,2,7,47,11,,,,,,,,,,,,,b,1,1.8013976481286136,1551.2391176059532,None,,,,,001,19,2019_Oct_11_1055,ACPT_experiment_5_30_19,3.1.0,59.97043883750859,
,,,C,G,g,v,,,,,,,,,,2,8,48,19,,,,,,,,,,,,,v,1,6.204725174781288,1556.3263053484748,None,,,,,001,19,2019_Oct_11_1055,ACPT_experiment_5_30_19,3.1.0,59.97043883750859,
,,,C,D,y,b,,,,,,,,,,2,9,49,2,,,,,,,,,,,,,b,1,0.8673523197996929,1565.8168511049846,None,,,,,001,19,2019_Oct_11_1055,ACPT_experiment_5_30_19,3.1.0,59.97043883750859,
,,,C,U,d,n,,,,,,,,,,2,10,50,6,,,,,,,,,,,,,n,1,1.3339546511449498,1569.9870597862687,None,,,,,001,19,2019_Oct_11_1055,ACPT_experiment_5_30_19,3.1.0,59.97043883750859,
,,,C,G,d,b,,,,,,,,,,2,11,51,3,,,,,,,,,,,,,v,0,5.1539245199981,1574.6068561489785,None,,,,,001,19,2019_Oct_11_1055,ACPT_experiment_5_30_19,3.1.0,59.97043883750859,
,,,C,D,d,v,,,,,,,,,,2,12,52,18,,,,,,,,,,,,,b,0,4.470054946630626,1583.0466208712676,None,,,,,001,19,2019_Oct_11_1055,ACPT_experiment_5_30_19,3.1.0,59.97043883750859,
,,,C,U,y,n,,,,,,,,,,2,13,53,8,,,,,,,,,,,,,n,1,3.335875655138125,1590.802494286643,None,,,,,001,19,2019_Oct_11_1055,ACPT_experiment_5_30_19,3.1.0,59.97043883750859,
,,,C,D,g,b,,,,,,,,,,2,14,54,1,,,,,,,,,,,,,b,1,17.630109534053872,1597.4241869012521,None,,,,,001,19,2019_Oct_11_1055,ACPT_experiment_5_30_19,3.1.0,59.97043883750859,
,,,C,U,y,n,,,,,,,,,,2,15,55,17,,,,,,,,,,,,,n,1,1.9514916306227406,1618.3400738517971,None,,,,,001,19,2019_Oct_11_1055,ACPT_experiment_5_30_19,3.1.0,59.97043883750859,
,,,C,D,d,v,,,,,,,,,,2,16,56,0,,,,,,,,,,,,,b,0,3.6861452567591186,1623.5773821400358,None,,,,,001,19,2019_Oct_11_1055,ACPT_experiment_5_30_19,3.1.0,59.97043883750859,
,,,C,G,y,b,,,,,,,,,,2,17,57,14,,,,,,,,,,,,,b,1,3.5526913223686734,1630.549362769409,None,,,,,001,19,2019_Oct_11_1055,ACPT_experiment_5_30_19,3.1.0,59.97043883750859,
,,,C,G,y,b,,,,,,,,,,2,18,58,5,,,,,,,,,,,,,b,1,0.8840125921751678,1637.3878737679418,None,,,,,001,19,2019_Oct_11_1055,ACPT_experiment_5_30_19,3.1.0,59.97043883750859,
,,,C,U,d,n,,,,,,,,,,2,19,59,15,,,,,,,,,,,,,n,1,1.6179450871773042,1641.5576948676533,None,,,,,001,19,2019_Oct_11_1055,ACPT_experiment_5_30_19,3.1.0,59.97043883750859,
,,,C,G,y,b,,,,,,,,,,3,0,60,5,,,,,,,,,,,,,b,1,3.202450396954191,1646.461427634385,None,,,,,001,19,2019_Oct_11_1055,ACPT_experiment_5_30_19,3.1.0,59.97043883750859,
,,,C,G,d,b,,,,,,,,,,3,1,61,12,,,,,,,,,,,,,b,1,10.157750831534486,1652.9329885346488,None,,,,,001,19,2019_Oct_11_1055,ACPT_experiment_5_30_19,3.1.0,59.97043883750859,
,,,C,G,y,b,,,,,,,,,,3,2,62,14,,,,,,,,,,,,,b,1,1.9514973658640429,1666.359870093765,None,,,,,001,19,2019_Oct_11_1055,ACPT_experiment_5_30_19,3.1.0,59.97043883750859,
,,,C,D,y,b,,,,,,,,,,3,3,63,11,,,,,,,,,,,,,b,1,1.3676839073052633,1671.5972176231287,None,,,,,001,19,2019_Oct_11_1055,ACPT_experiment_5_30_19,3.1.0,59.97043883750859,
,,,C,G,g,v,,,,,,,,,,3,4,64,4,,,,,,,,,,,,,v,1,3.986095058304727,1676.2676703540242,None,,,,,001,19,2019_Oct_11_1055,ACPT_experiment_5_30_19,3.1.0,59.97043883750859,
,,,C,D,y,b,,,,,,,,,,3,5,65,2,,,,,,,,,,,,,b,1,0.9507620475535532,1683.5395881070413,None,,,,,001,19,2019_Oct_11_1055,ACPT_experiment_5_30_19,3.1.0,59.97043883750859,
,,,C,U,y,n,,,,,,,,,,3,6,66,17,,,,,,,,,,,,,n,1,1.1642241078757252,1687.8295105937452,None,,,,,001,19,2019_Oct_11_1055,ACPT_experiment_5_30_19,3.1.0,59.97043883750859,
,,,C,G,g,v,,,,,,,,,,3,7,67,13,,,,,,,,,,,,,v,1,3.9863742740014914,1692.27955467964,None,,,,,001,19,2019_Oct_11_1055,ACPT_experiment_5_30_19,3.1.0,59.97043883750859,
,,,C,U,g,n,,,,,,,,,,3,8,68,16,,,,,,,,,,,,,n,1,1.4511579301333768,1699.535042777354,None,,,,,001,19,2019_Oct_11_1055,ACPT_experiment_5_30_19,3.1.0,59.97043883750859,
,,,C,D,d,v,,,,,,,,,,3,9,69,9,,,,,,,,,,,,,v,1,1.2342837030703322,1704.2719938204284,None,,,,,001,19,2019_Oct_11_1055,ACPT_experiment_5_30_19,3.1.0,59.97043883750859,
,,,C,D,g,b,,,,,,,,,,3,10,70,10,,,,,,,,,,,,,b,1,2.785425604713282,1708.7921285925627,None,,,,,001,19,2019_Oct_11_1055,ACPT_experiment_5_30_19,3.1.0,59.97043883750859,
,,,C,U,d,n,,,,,,,,,,3,11,71,15,,,,,,,,,,,,,n,1,0.9340957380816235,1714.8633509324748,None,,,,,001,19,2019_Oct_11_1055,ACPT_experiment_5_30_19,3.1.0,59.97043883750859,
,,,C,D,g,b,,,,,,,,,,3,12,72,1,,,,,,,,,,,,,b,1,2.9854023015222992,1719.1001671973777,None,,,,,001,19,2019_Oct_11_1055,ACPT_experiment_5_30_19,3.1.0,59.97043883750859,
,,,C,U,g,n,,,,,,,,,,3,13,73,7,,,,,,,,,,,,,n,1,2.4351922256689704,1725.3713662340986,None,,,,,001,19,2019_Oct_11_1055,ACPT_experiment_5_30_19,3.1.0,59.97043883750859,
,,,C,D,d,v,,,,,,,,,,3,14,74,18,,,,,,,,,,,,,v,1,3.2358150125073735,1731.092368476578,None,,,,,001,19,2019_Oct_11_1055,ACPT_experiment_5_30_19,3.1.0,59.97043883750859,
,,,C,G,g,v,,,,,,,,,,3,15,75,19,,,,,,,,,,,,,v,1,5.137224704642449,1737.6140122208935,None,,,,,001,19,2019_Oct_11_1055,ACPT_experiment_5_30_19,3.1.0,59.97043883750859,
,,,C,D,d,v,,,,,,,,,,3,16,76,0,,,,,,,,,,,,,v,1,2.1516458180583413,1746.037044829363,None,,,,,001,19,2019_Oct_11_1055,ACPT_experiment_5_30_19,3.1.0,59.97043883750859,
,,,C,G,d,b,,,,,,,,,,3,17,77,3,,,,,,,,,,,,,b,1,1.0674874903820637,1751.474507606892,None,,,,,001,19,2019_Oct_11_1055,ACPT_experiment_5_30_19,3.1.0,59.97043883750859,
,,,C,U,d,n,,,,,,,,,,3,18,78,6,,,,,,,,,,,,,n,1,1.034097519025181,1755.8278458644834,None,,,,,001,19,2019_Oct_11_1055,ACPT_experiment_5_30_19,3.1.0,59.97043883750859,
,,,C,U,y,n,,,,,,,,,,3,19,79,8,,,,,,,,,,,,,n,1,1.467813674686795,1760.1310596220596,None,,,,,001,19,2019_Oct_11_1055,ACPT_experiment_5_30_19,3.1.0,59.97043883750859,
,,,C,D,d,v,,,,,,,,,,4,0,80,0,,,,,,,,,,,,,v,1,1.801384970226536,1764.884687539524,None,,,,,001,19,2019_Oct_11_1055,ACPT_experiment_5_30_19,3.1.0,59.97043883750859,
,,,C,U,d,n,,,,,,,,,,4,1,81,6,,,,,,,,,,,,,n,1,1.1008605578699644,1769.9718858469637,None,,,,,001,19,2019_Oct_11_1055,ACPT_experiment_5_30_19,3.1.0,59.97043883750859,
,,,C,G,d,b,,,,,,,,,,4,2,82,12,,,,,,,,,,,,,b,1,2.668690804385733,1774.3752429553879,None,,,,,001,19,2019_Oct_11_1055,ACPT_experiment_5_30_19,3.1.0,59.97043883750859,
,,,C,G,g,v,,,,,,,,,,4,3,83,4,,,,,,,,,,,,,b,0,9.707390099947133,1780.3297546433569,None,,,,,001,19,2019_Oct_11_1055,ACPT_experiment_5_30_19,3.1.0,59.97043883750859,
,,,C,G,y,b,,,,,,,,,,4,4,84,14,,,,,,,,,,,,,b,1,1.2176303733551777,1793.3062473983887,None,,,,,001,19,2019_Oct_11_1055,ACPT_experiment_5_30_19,3.1.0,59.97043883750859,
,,,C,U,y,n,,,,,,,,,,4,5,85,8,,,,,,,,,,,,,n,1,1.1642654619843142,1797.829694121468,None,,,,,001,19,2019_Oct_11_1055,ACPT_experiment_5_30_19,3.1.0,59.97043883750859,
,,,C,G,d,b,,,,,,,,,,4,6,86,3,,,,,,,,,,,,,b,1,2.285081339305634,1802.2797529982483,None,,,,,001,19,2019_Oct_11_1055,ACPT_experiment_5_30_19,3.1.0,59.97043883750859,
,,,C,D,y,b,,,,,,,,,,4,7,87,2,,,,,,,,,,,,,b,1,0.7505997100383865,1807.850647674767,None,,,,,001,19,2019_Oct_11_1055,ACPT_experiment_5_30_19,3.1.0,59.97043883750859,
,,,C,G,y,b,,,,,,,,,,4,8,88,5,,,,,,,,,,,,,b,1,1.1839943903305539,1811.9040041342032,None,,,,,001,19,2019_Oct_11_1055,ACPT_experiment_5_30_19,3.1.0,59.97043883750859,
,,,C,U,g,n,,,,,,,,,,4,9,89,7,,,,,,,,,,,,,n,1,1.3510610649254886,1816.3737871096528,None,,,,,001,19,2019_Oct_11_1055,ACPT_experiment_5_30_19,3.1.0,59.97043883750859,
,,,C,G,g,v,,,,,,,,,,4,10,90,13,,,,,,,,,,,,,v,1,2.0179389293393797,1821.027591038655,None,,,,,001,19,2019_Oct_11_1055,ACPT_experiment_5_30_19,3.1.0,59.97043883750859,
,,,C,G,g,v,,,,,,,,,,4,11,91,19,,,,,,,,,,,,,v,1,1.1175332062925918,1826.314663412269,None,,,,,001,19,2019_Oct_11_1055,ACPT_experiment_5_30_19,3.1.0,59.97043883750859,
,,,C,D,d,v,,,,,,,,,,4,12,92,18,,,,,,,,,,,,,v,1,1.8180627501810704,1830.7180081446463,None,,,,,001,19,2019_Oct_11_1055,ACPT_experiment_5_30_19,3.1.0,59.97043883750859,
,,,C,D,g,b,,,,,,,,,,4,13,93,1,,,,,,,,,,,,,b,1,2.45187634457443,1835.8052118854725,None,,,,,001,19,2019_Oct_11_1055,ACPT_experiment_5_30_19,3.1.0,59.97043883750859,
,,,C,U,g,n,,,,,,,,,,4,14,94,16,,,,,,,,,,,,,n,1,1.2676166238688893,1841.5429229989518,None,,,,,001,19,2019_Oct_11_1055,ACPT_experiment_5_30_19,3.1.0,59.97043883750859,
,,,C,D,d,v,,,,,,,,,,4,15,95,9,,,,,,,,,,,,,v,1,1.3343639662634814,1846.0963523563237,None,,,,,001,19,2019_Oct_11_1055,ACPT_experiment_5_30_19,3.1.0,59.97043883750859,
,,,C,D,y,b,,,,,,,,,,4,16,96,11,,,,,,,,,,,,,b,1,1.0341201581354653,1850.699866067022,None,,,,,001,19,2019_Oct_11_1055,ACPT_experiment_5_30_19,3.1.0,59.97043883750859,
,,,C,U,d,n,,,,,,,,,,4,17,97,15,,,,,,,,,,,,,n,1,1.1008557281929825,1855.036488510953,None,,,,,001,19,2019_Oct_11_1055,ACPT_experiment_5_30_19,3.1.0,59.97043883750859,
,,,C,U,y,n,,,,,,,,,,4,18,98,17,,,,,,,,,,,,,n,1,0.9841100610924514,1859.4231364465227,None,,,,,001,19,2019_Oct_11_1055,ACPT_experiment_5_30_19,3.1.0,59.97043883750859,
,,,C,D,g,b,,,,,,,,,,4,19,99,10,,,,,,,,,,,,,b,1,1.4508672439537804,1863.7099724678228,None,,,,,001,19,2019_Oct_11_1055,ACPT_experiment_5_30_19,3.1.0,59.97043883750859,
,,,C,D,g,b,,,,,,,,,,5,0,100,1,,,,,,,,,,,,,b,1,1.1677226050915124,1868.4298273601798,None,,,,,001,19,2019_Oct_11_1055,ACPT_experiment_5_30_19,3.1.0,59.97043883750859,
,,,C,D,d,v,,,,,,,,,,5,1,101,18,,,,,,,,,,,,,v,1,1.0171701051449418,1872.9003175814428,None,,,,,001,19,2019_Oct_11_1055,ACPT_experiment_5_30_19,3.1.0,59.97043883750859,
,,,C,G,g,v,,,,,,,,,,5,2,102,4,,,,,,,,,,,,,v,1,2.8521750600916675,1877.203308268316,None,,,,,001,19,2019_Oct_11_1055,ACPT_experiment_5_30_19,3.1.0,59.97043883750859,
,,,C,D,g,b,,,,,,,,,,5,3,103,10,,,,,,,,,,,,,b,1,2.451893852153262,1883.3245977558304,None,,,,,001,19,2019_Oct_11_1055,ACPT_experiment_5_30_19,3.1.0,59.97043883750859,
,,,C,D,d,v,,,,,,,,,,5,4,104,0,,,,,,,,,,,,,v,1,1.2675921736295095,1889.0456784805592,None,,,,,001,19,2019_Oct_11_1055,ACPT_experiment_5_30_19,3.1.0,59.97043883750859,
,,,C,U,g,n,,,,,,,,,,5,5,105,7,,,,,,,,,,,,,n,1,1.1339580319186098,1893.6160186497973,None,,,,,001,19,2019_Oct_11_1055,ACPT_experiment_5_30_19,3.1.0,59.97043883750859,
,,,C,D,y,b,,,,,,,,,,5,6,106,11,,,,,,,,,,,,,b,1,0.8506552211374583,1898.0357945467513,None,,,,,001,19,2019_Oct_11_1055,ACPT_experiment_5_30_19,3.1.0,59.97043883750859,
,,,C,D,y,b,,,,,,,,,,5,7,107,2,,,,,,,,,,,,,b,1,0.6671833414784487,1902.1722667273593,None,,,,,001,19,2019_Oct_11_1055,ACPT_experiment_5_30_19,3.1.0,59.97043883750859,
,,,C,G,g,v,,,,,,,,,,5,8,108,19,,,,,,,,,,,,,v,1,1.451111142638183,1906.1252679338731,None,,,,,001,19,2019_Oct_11_1055,ACPT_experiment_5_30_19,3.1.0,59.97043883750859,
,,,C,U,d,n,,,,,,,,,,5,9,109,6,,,,,,,,,,,,,n,1,0.9006891647104567,1910.8622047897716,None,,,,,001,19,2019_Oct_11_1055,ACPT_experiment_5_30_19,3.1.0,59.97043883750859,
,,,C,U,y,n,,,,,,,,,,5,10,110,17,,,,,,,,,,,,,b,0,0.9173756984541797,1915.0487078954047,None,,,,,001,19,2019_Oct_11_1055,ACPT_experiment_5_30_19,3.1.0,59.97043883750859,
,,,C,G,d,b,,,,,,,,,,5,11,111,12,,,,,,,,,,,,,n,0,0.23907987410257192,None,None,,,,,001,19,2019_Oct_11_1055,ACPT_experiment_5_30_19,3.1.0,59.97043883750859,
,,,C,G,g,v,,,,,,,,,,5,12,112,13,,,,,,,,,,,,,v,1,1.6979649854461059,1922.5410617622101,None,,,,,001,19,2019_Oct_11_1055,ACPT_experiment_5_30_19,3.1.0,59.97043883750859,
,,,C,D,d,v,,,,,,,,,,5,13,113,9,,,,,,,,,,,,,v,1,1.0007766724188514,1927.5248464238202,None,,,,,001,19,2019_Oct_11_1055,ACPT_experiment_5_30_19,3.1.0,59.97043883750859,
,,,C,U,g,n,,,,,,,,,,5,14,114,16,,,,,,,,,,,,,n,1,1.6508904264032935,1931.8284906263516,None,,,,,001,19,2019_Oct_11_1055,ACPT_experiment_5_30_19,3.1.0,59.97043883750859,
,,,C,G,y,b,,,,,,,,,,5,15,115,14,,,,,,,,,,,,,b,1,0.9340727971166416,1936.7651986159353,None,,,,,001,19,2019_Oct_11_1055,ACPT_experiment_5_30_19,3.1.0,59.97043883750859,
,,,C,U,y,n,,,,,,,,,,5,16,116,8,,,,,,,,,,,,,n,1,0.7671214310571486,1941.0017622283644,None,,,,,001,19,2019_Oct_11_1055,ACPT_experiment_5_30_19,3.1.0,59.97043883750859,
,,,C,G,y,b,,,,,,,,,,5,17,117,5,,,,,,,,,,,,,b,1,0.9340531765537889,1945.0548243793637,None,,,,,001,19,2019_Oct_11_1055,ACPT_experiment_5_30_19,3.1.0,59.97043883750859,
,,,C,G,d,b,,,,,,,,,,5,18,118,3,,,,,,,,,,,,,b,1,1.7847014550306994,1949.274696930227,None,,,,,001,19,2019_Oct_11_1055,ACPT_experiment_5_30_19,3.1.0,59.97043883750859,
,,,C,U,d,n,,,,,,,,,,5,19,119,15,,,,,,,,,,,,,n,1,0.9507572178763439,1954.3285131145349,None,,,,,001,19,2019_Oct_11_1055,ACPT_experiment_5_30_19,3.1.0,59.97043883750859,
,,,C,U,d,n,,,,,,,,,,6,0,120,6,,,,,,,,,,,,,n,1,0.9838245064447619,1958.5653529241126,None,,,,,001,19,2019_Oct_11_1055,ACPT_experiment_5_30_19,3.1.0,59.97043883750859,
,,,C,G,y,b,,,,,,,,,,6,1,121,14,,,,,,,,,,,,,b,1,0.7506045397153684,1962.8349910696256,None,,,,,001,19,2019_Oct_11_1055,ACPT_experiment_5_30_19,3.1.0,59.97043883750859,
,,,C,D,g,b,,,,,,,,,,6,2,122,10,,,,,,,,,,,,,b,1,3.3523007826188405,1966.8883481327712,None,,,,,001,19,2019_Oct_11_1055,ACPT_experiment_5_30_19,3.1.0,59.97043883750859,
,,,C,G,d,b,,,,,,,,,,6,3,123,3,,,,,,,,,,,,,b,1,1.5178500330985116,1973.5264272374457,None,,,,,001,19,2019_Oct_11_1055,ACPT_experiment_5_30_19,3.1.0,59.97043883750859,
,,,C,D,y,b,,,,,,,,,,6,4,124,11,,,,,,,,,,,,,b,1,1.3176801492131744,1978.3301084171912,None,,,,,001,19,2019_Oct_11_1055,ACPT_experiment_5_30_19,3.1.0,59.97043883750859,
,,,C,G,y,b,,,,,,,,,,6,5,125,5,,,,,,,,,,,,,b,1,0.7837023156189389,1982.9505045654028,None,,,,,001,19,2019_Oct_11_1055,ACPT_experiment_5_30_19,3.1.0,59.97043883750859,
,,,C,U,y,n,,,,,,,,,,6,6,126,17,,,,,,,,,,,,,b,0,0.9840831960145806,1987.0200407443617,None,,,,,001,19,2019_Oct_11_1055,ACPT_experiment_5_30_19,3.1.0,59.97043883750859,
,,,C,U,y,n,,,,,,,,,,6,7,127,8,,,,,,,,,,,,,n,1,0.23890479831425182,None,None,,,,,001,19,2019_Oct_11_1055,ACPT_experiment_5_30_19,3.1.0,59.97043883750859,
,,,C,G,g,v,,,,,,,,,,6,8,128,19,,,,,,,,,,,,,v,1,1.634333992080883,1994.5593387689332,None,,,,,001,19,2019_Oct_11_1055,ACPT_experiment_5_30_19,3.1.0,59.97043883750859,
,,,C,D,d,v,,,,,,,,,,6,9,129,9,,,,,,,,,,,,,v,1,1.7513410654446488,1999.4794782500026,None,,,,,001,19,2019_Oct_11_1055,ACPT_experiment_5_30_19,3.1.0,59.97043883750859,
,,,C,U,g,n,,,,,,,,,,6,10,130,7,,,,,,,,,,,,,n,1,0.6505010337018575,2004.5166438212887,None,,,,,001,19,2019_Oct_11_1055,ACPT_experiment_5_30_19,3.1.0,59.97043883750859,
,,,C,U,d,n,,,,,,,,,,6,11,131,15,,,,,,,,,,,,,n,1,0.7839302159982253,2008.452984151717,None,,,,,001,19,2019_Oct_11_1055,ACPT_experiment_5_30_19,3.1.0,59.97043883750859,
,,,C,U,g,n,,,,,,,,,,6,12,132,16,,,,,,,,,,,,,n,1,0.833975026344433,2012.5060432841683,None,,,,,001,19,2019_Oct_11_1055,ACPT_experiment_5_30_19,3.1.0,59.97043883750859,
,,,C,D,g,b,,,,,,,,,,6,13,133,1,,,,,,,,,,,,,b,1,11.655539292289632,2016.6458434140259,None,,,,,001,19,2019_Oct_11_1055,ACPT_experiment_5_30_19,3.1.0,59.97043883750859,
,,,C,D,d,v,,,,,,,,,,6,14,134,0,0,0,0,0,0,0,0,0,,,,,v,1,0.8173017742119555,2031.5705146413165,None,,,,,001,19,2019_Oct_11_1055,ACPT_experiment_5_30_19,3.1.0,59.97043883750859,
,,,C,D,d,v,R,D,d,R,c ,,,,,6,14,134,0,0,0,0,0,,,,,0,0,0,1,,,,,,up,2.4351907163950273,2065.329480559192,None,001,19,2019_Oct_11_1055,ACPT_experiment_5_30_19,3.1.0,59.97043883750859,
,,,C,D,d,v,R,G,y,R,y,,,,,6,14,134,0,0,0,0,0,,,,,0,1,1,29,,,,,,down,1.567858620867355,2069.048975338764,None,001,19,2019_Oct_11_1055,ACPT_experiment_5_30_19,3.1.0,59.97043883750859,
,,,C,D,d,v,L,G,y,R,y,,,,,6,14,134,0,0,0,0,0,,,,,0,2,2,35,,,,,,down,1.9181487486157494,2071.901135909825,None,001,19,2019_Oct_11_1055,ACPT_experiment_5_30_19,3.1.0,59.97043883750859,
,,,C,D,d,v,L,U,y,L,u,,,,,6,14,134,0,0,0,0,0,,,,,0,3,3,24,,,,,,down,1.2009079188892429,2075.1035715158937,None,001,19,2019_Oct_11_1055,ACPT_experiment_5_30_19,3.1.0,59.97043883750859,
,,,C,D,d,v,R,G,d,R,i,,,,,6,14,134,0,0,0,0,0,,,,,0,4,4,5,,,,,,up,0.9006731664053405,2077.5887997981195,None,001,19,2019_Oct_11_1055,ACPT_experiment_5_30_19,3.1.0,59.97043883750859,
,,,C,D,d,v,R,D,y,R,y,,,,,6,14,134,0,0,0,0,0,,,,,0,5,5,27,,,,,,down,0.933988881480218,2079.7738370968086,None,001,19,2019_Oct_11_1055,ACPT_experiment_5_30_19,3.1.0,59.97043883750859,
,,,C,D,d,v,L,G,d,R,i,,,,,6,14,134,0,0,0,0,0,,,,,0,6,6,17,,,,,,up,1.0507973343806043,2081.992132758159,None,001,19,2019_Oct_11_1055,ACPT_experiment_5_30_19,3.1.0,59.97043883750859,
,,,C,D,d,v,R,U,d,L,u,,,,,6,14,134,0,0,0,0,0,,,,,0,7,7,8,,,,,,up,2.618657766377055,2084.3272389853933,None,001,19,2019_Oct_11_1055,ACPT_experiment_5_30_19,3.1.0,59.97043883750859,
,,,C,D,d,v,R,U,d,R,u,,,,,6,14,134,0,0,0,0,0,,,,,0,8,8,9,,,,,,up,0.8172866814716144,2088.2302035316407,None,001,19,2019_Oct_11_1055,ACPT_experiment_5_30_19,3.1.0,59.97043883750859,
,,,C,D,d,v,R,D,d,L,c,,,,,6,14,134,0,0,0,0,0,,,,,0,9,9,0,,,,,,up,1.651255972574745,2090.331794879999,None,001,19,2019_Oct_11_1055,ACPT_experiment_5_30_19,3.1.0,59.97043883750859,
,,,C,D,d,v,R,G,y,L,y,,,,,6,14,134,0,0,0,0,0,,,,,0,10,10,28,,,,,,down,0.9006858443076453,2093.26735551946,None,001,19,2019_Oct_11_1055,ACPT_experiment_5_30_19,3.1.0,59.97043883750859,
,,,C,D,d,v,L,U,y,R,u,,,,,6,14,134,0,0,0,0,0,,,,,0,11,11,25,,,,,,down,1.000757957420774,2095.4523523696053,None,001,19,2019_Oct_11_1055,ACPT_experiment_5_30_19,3.1.0,59.97043883750859,
,,,C,D,d,v,L,G,y,L,y,,,,,6,14,134,0,0,0,0,0,,,,,0,12,12,34,,,,,,down,0.8172812480852372,2097.737422540283,None,001,19,2019_Oct_11_1055,ACPT_experiment_5_30_19,3.1.0,59.97043883750859,
,,,C,D,d,v,L,U,g,L,u,,,,,6,14,134,0,0,0,0,0,,,,,0,13,13,22,,,,,,up,0.8673284732699358,2099.8390169071895,None,001,19,2019_Oct_11_1055,ACPT_experiment_5_30_19,3.1.0,59.97043883750859,
,,,C,D,d,v,R,U,g,L,u,,,,,6,14,134,0,0,0,0,0,,,,,0,14,14,10,,,,,,up,1.7846721751143377,2101.990678119843,None,001,19,2019_Oct_11_1055,ACPT_experiment_5_30_19,3.1.0,59.97043883750859,
,,,C,D,d,v,R,D,g,L,i,,,,,6,14,134,0,0,0,0,0,,,,,0,15,15,2,,,,,,up,0.9674226217839532,2105.059654961844,None,001,19,2019_Oct_11_1055,ACPT_experiment_5_30_19,3.1.0,59.97043883750859,
,,,C,D,d,v,R,G,g,R,c ,,,,,6,14,134,0,0,0,0,0,,,,,0,16,16,7,,,,,,up,0.7172284536791267,2107.3113390852773,None,001,19,2019_Oct_11_1055,ACPT_experiment_5_30_19,3.1.0,59.97043883750859,
,,,C,D,d,v,L,G,g,R,c ,,,,,6,14,134,0,0,0,0,0,,,,,0,17,17,19,,,,,,up,1.1675583960764016,2109.3128749225366,None,001,19,2019_Oct_11_1055,ACPT_experiment_5_30_19,3.1.0,59.97043883750859,
,,,C,D,d,v,R,U,g,R,u,,,,,6,14,134,0,0,0,0,0,,,,,0,18,18,11,,,,,,up,0.8840086680629611,2111.7647382873542,None,001,19,2019_Oct_11_1055,ACPT_experiment_5_30_19,3.1.0,59.97043883750859,
,,,C,D,d,v,R,G,d,L,i,,,,,6,14,134,0,0,0,0,0,,,,,0,19,19,4,,,,,,up,0.717239320452336,2113.9330250590806,None,001,19,2019_Oct_11_1055,ACPT_experiment_5_30_19,3.1.0,59.97043883750859,
,,,C,D,d,v,L,U,g,R,u,,,,,6,14,134,0,0,0,0,0,,,,,0,20,20,23,,,,,,up,0.5504065833324603,2115.9345992319004,None,001,19,2019_Oct_11_1055,ACPT_experiment_5_30_19,3.1.0,59.97043883750859,
,,,C,D,d,v,L,D,g,L,i,,,,,6,14,134,0,0,0,0,0,,,,,0,21,21,14,,,,,,up,0.6167077843219886,2117.7863800696136,None,001,19,2019_Oct_11_1055,ACPT_experiment_5_30_19,3.1.0,59.97043883750859,
,,,C,D,d,v,L,G,d,L,i,,,,,6,14,134,0,0,0,0,0,,,,,0,22,22,16,,,,,,up,0.7005509755795174,2119.6873940300966,None,001,19,2019_Oct_11_1055,ACPT_experiment_5_30_19,3.1.0,59.97043883750859,
,,,C,D,d,v,R,U,y,L,u,,,,,6,14,134,0,0,0,0,0,,,,,0,23,23,30,,,,,,down,0.8006019588565323,2121.6889416396934,None,001,19,2019_Oct_11_1055,ACPT_experiment_5_30_19,3.1.0,59.97043883750859,
,,,C,D,d,v,R,U,y,R,u,,,,,6,14,134,0,0,0,0,0,,,,,0,24,24,31,,,,,,down,3.1524083033013994,2123.790533893616,None,001,19,2019_Oct_11_1055,ACPT_experiment_5_30_19,3.1.0,59.97043883750859,
,,,C,D,d,v,L,U,d,R,u,,,,,6,14,134,0,0,0,0,0,,,,,0,25,25,21,,,,,,up,0.9173584927302727,2128.227239015579,None,001,19,2019_Oct_11_1055,ACPT_experiment_5_30_19,3.1.0,59.97043883750859,
,,,C,D,d,v,L,G,g,L,c ,,,,,6,14,134,0,0,0,0,0,,,,,0,26,26,18,,,,,,up,0.9840774607732783,2130.428912740114,None,001,19,2019_Oct_11_1055,ACPT_experiment_5_30_19,3.1.0,59.97043883750859,
,,,C,D,d,v,R,D,g,R,i,,,,,6,14,134,0,0,0,0,0,,,,,0,27,27,3,,,,,,up,1.1675783184932698,2132.6972954714834,None,001,19,2019_Oct_11_1055,ACPT_experiment_5_30_19,3.1.0,59.97043883750859,
,,,C,D,d,v,L,D,d,R,c ,,,,,6,14,134,0,0,0,0,0,,,,,0,28,28,13,,,,,,up,0.8006092033720051,2135.1491552140437,None,001,19,2019_Oct_11_1055,ACPT_experiment_5_30_19,3.1.0,59.97043883750859,
,,,C,D,d,v,R,D,y,L,y,,,,,6,14,134,0,0,0,0,0,,,,,0,29,29,26,,,,,,down,0.7338838963783019,2137.234074517689,None,001,19,2019_Oct_11_1055,ACPT_experiment_5_30_19,3.1.0,59.97043883750859,
,,,C,D,d,v,L,D,y,R,y,,,,,6,14,134,0,0,0,0,0,,,,,0,30,30,33,,,,,,down,0.7839933036530056,2139.252256440148,None,001,19,2019_Oct_11_1055,ACPT_experiment_5_30_19,3.1.0,59.97043883750859,
,,,C,D,d,v,L,U,d,L,u,,,,,6,14,134,0,0,0,0,0,,,,,0,31,31,20,,,,,,down,0.6838363693386782,2141.3205097361756,None,001,19,2019_Oct_11_1055,ACPT_experiment_5_30_19,3.1.0,59.97043883750859,
,,,C,D,d,v,L,D,y,L,y,,,,,6,14,134,0,0,0,0,0,,,,,0,32,32,32,,,,,,down,0.9340640433269982,2143.3053490784823,None,001,19,2019_Oct_11_1055,ACPT_experiment_5_30_19,3.1.0,59.97043883750859,
,,,C,D,d,v,L,D,g,R,i,,,,,6,14,134,0,0,0,0,0,,,,,0,33,33,15,,,,,,down,0.5504153371221037,2145.5237014885365,None,001,19,2019_Oct_11_1055,ACPT_experiment_5_30_19,3.1.0,59.97043883750859,
,,,C,D,d,v,R,G,g,L,c ,,,,,6,14,134,0,0,0,0,0,,,,,0,34,34,6,,,,,,up,0.6671748895437304,2147.3584239073834,None,001,19,2019_Oct_11_1055,ACPT_experiment_5_30_19,3.1.0,59.97043883750859,
,,,C,D,d,v,L,D,d,L,c ,,,,,6,14,134,0,0,0,0,0,,,,,0,35,35,12,,,,,,up,1.050788882445886,2149.3099107083294,None,001,19,2019_Oct_11_1055,ACPT_experiment_5_30_19,3.1.0,59.97043883750859,
,,,C,D,d,v,L,U,d,L,u,,,,,6,14,134,0,0,0,0,0,,,,,1,0,36,20,,,,,,up,0.5670976448986949,2151.645010596613,None,001,19,2019_Oct_11_1055,ACPT_experiment_5_30_19,3.1.0,59.97043883750859,
,,,C,D,d,v,R,D,d,R,c ,,,,,6,14,134,0,0,0,0,0,,,,,1,1,37,1,,,,,,up,1.0674763217543841,2153.4964174362203,None,001,19,2019_Oct_11_1055,ACPT_experiment_5_30_19,3.1.0,59.97043883750859,
,,,C,D,d,v,R,D,g,L,i,,,,,6,14,134,0,0,0,0,0,,,,,1,2,38,2,,,,,,up,0.5837727081598132,2155.8315242671642,None,001,19,2019_Oct_11_1055,ACPT_experiment_5_30_19,3.1.0,59.97043883750859,
,,,C,D,d,v,R,G,d,L,i,,,,,6,14,134,0,0,0,0,0,,,,,1,3,39,4,,,,,,up,0.5837820656588519,2157.6996052644686,None,001,19,2019_Oct_11_1055,ACPT_experiment_5_30_19,3.1.0,59.97043883750859,
,,,C,D,d,v,R,U,y,L,u,,,,,6,14,134,0,0,0,0,0,,,,,1,4,40,30,,,,,,down,1.0174393596330447,2159.5676926007236,None,001,19,2019_Oct_11_1055,ACPT_experiment_5_30_19,3.1.0,59.97043883750859,
,,,C,D,d,v,L,D,g,L,i,,,,,6,14,134,0,0,0,0,0,,,,,1,5,41,14,,,,,,up,0.7672711510417685,2161.8694405513556,None,001,19,2019_Oct_11_1055,ACPT_experiment_5_30_19,3.1.0,59.97043883750859,
,,,C,D,d,v,R,G,d,R,i,,,,,6,14,134,0,0,0,0,0,,,,,1,6,42,5,,,,,,up,0.9340323485726003,2163.921002785818,None,001,19,2019_Oct_11_1055,ACPT_experiment_5_30_19,3.1.0,59.97043883750859,
,,,C,D,d,v,L,D,d,R,c ,,,,,6,14,134,0,0,0,0,0,,,,,1,7,43,13,,,,,,up,0.7338995928280383,2166.1393479513567,None,001,19,2019_Oct_11_1055,ACPT_experiment_5_30_19,3.1.0,59.97043883750859,
,,,C,D,d,v,R,U,d,L,u,,,,,6,14,134,0,0,0,0,0,,,,,1,8,44,8,,,,,,up,0.783926895595414,2168.1575452684106,None,001,19,2019_Oct_11_1055,ACPT_experiment_5_30_19,3.1.0,59.97043883750859,
,,,C,D,d,v,L,D,y,L,y,,,,,6,14,134,0,0,0,0,0,,,,,1,9,45,32,,,,,,down,1.2676480167688169,2170.225763549281,None,001,19,2019_Oct_11_1055,ACPT_experiment_5_30_19,3.1.0,59.97043883750859,
,,,C,D,d,v,R,U,y,R,u,,,,,6,14,134,0,0,0,0,0,,,,,1,10,46,31,,,,,,down,0.8006046755499483,2172.7777192514845,None,001,19,2019_Oct_11_1055,ACPT_experiment_5_30_19,3.1.0,59.97043883750859,
,,,C,D,d,v,L,G,g,L,c ,,,,,6,14,134,0,0,0,0,0,,,,,1,11,47,18,,,,,,up,0.6504983170084415,2174.8626355365814,None,001,19,2019_Oct_11_1055,ACPT_experiment_5_30_19,3.1.0,59.97043883750859,
,,,C,D,d,v,L,U,g,L,u,,,,,6,14,134,0,0,0,0,0,,,,,1,12,48,22,,,,,,up,0.5504111111545171,2176.7974403316057,None,001,19,2019_Oct_11_1055,ACPT_experiment_5_30_19,3.1.0,59.97043883750859,
,,,C,D,d,v,L,U,y,R,u,,,,,6,14,134,0,0,0,0,0,,,,,1,13,49,25,,,,,,down,1.6679307339813931,2178.632164863436,None,001,19,2019_Oct_11_1055,ACPT_experiment_5_30_19,3.1.0,59.97043883750859,
,,,C,D,d,v,R,G,y,L,y,,,,,6,14,134,0,0,0,0,0,,,,,1,14,50,28,,,,,,down,1.2843064780154236,2181.5844120366414,None,001,19,2019_Oct_11_1055,ACPT_experiment_5_30_19,3.1.0,59.97043883750859,
,,,C,D,d,v,L,G,y,R,y,,,,,6,14,134,0,0,0,0,0,,,,,1,15,51,35,,,,,,down,0.6005292722188642,2184.152992090498,None,001,19,2019_Oct_11_1055,ACPT_experiment_5_30_19,3.1.0,59.97043883750859,
,,,C,D,d,v,R,U,d,R,u,,,,,6,14,134,0,0,0,0,0,,,,,1,16,52,9,,,,,,down,0.5170630976158463,2186.0377904107368,None,001,19,2019_Oct_11_1055,ACPT_experiment_5_30_19,3.1.0,59.97043883750859,
,,,C,D,d,v,L,U,g,R,u,,,,,6,14,134,0,0,0,0,0,,,,,1,17,53,23,,,,,,up,1.9481600591152528,2187.859158471057,None,001,19,2019_Oct_11_1055,ACPT_experiment_5_30_19,3.1.0,59.97043883750859,
,,,C,D,d,v,L,D,y,R,y,,,,,6,14,134,0,0,0,0,0,,,,,1,18,54,33,,,,,,down,0.9507188823163233,2191.091625611897,None,001,19,2019_Oct_11_1055,ACPT_experiment_5_30_19,3.1.0,59.97043883750859,
,,,C,D,d,v,L,D,d,L,c ,,,,,6,14,134,0,0,0,0,0,,,,,1,19,55,12,,,,,,up,1.200935689531434,2193.326652783358,None,001,19,2019_Oct_11_1055,ACPT_experiment_5_30_19,3.1.0,59.97043883750859,
,,,C,D,d,v,R,D,g,R,i,,,,,6,14,134,0,0,0,0,0,,,,,1,20,56,3,,,,,,up,0.8172881907453302,2195.8118753303424,None,001,19,2019_Oct_11_1055,ACPT_experiment_5_30_19,3.1.0,59.97043883750859,
,,,C,D,d,v,L,U,y,L,u,,,,,6,14,134,0,0,0,0,0,,,,,1,21,57,24,,,,,,down,0.9674217162196328,2197.913448869267,None,001,19,2019_Oct_11_1055,ACPT_experiment_5_30_19,3.1.0,59.97043883750859,
,,,C,D,d,v,L,G,d,R,i,,,,,6,14,134,0,0,0,0,0,,,,,1,22,58,17,,,,,,up,0.7005256197758172,2200.16518008205,None,001,19,2019_Oct_11_1055,ACPT_experiment_5_30_19,3.1.0,59.97043883750859,
,,,C,D,d,v,L,D,g,R,i,,,,,6,14,134,0,0,0,0,0,,,,,1,23,59,15,,,,,,up,1.2342864197635208,2202.1500399504835,None,001,19,2019_Oct_11_1055,ACPT_experiment_5_30_19,3.1.0,59.97043883750859,
,,,C,D,d,v,R,U,g,R,u,,,,,6,14,134,0,0,0,0,0,,,,,1,24,60,11,,,,,,up,0.7339140818585292,2204.6685999460888,None,001,19,2019_Oct_11_1055,ACPT_experiment_5_30_19,3.1.0,59.97043883750859,
,,,C,D,d,v,R,G,g,R,c ,,,,,6,14,134,0,0,0,0,0,,,,,1,25,61,7,,,,,,up,0.5672301591594078,2206.6867927353205,None,001,19,2019_Oct_11_1055,ACPT_experiment_5_30_19,3.1.0,59.97043883750859,
,,,C,D,d,v,L,G,g,R,c ,,,,,6,14,134,0,0,0,0,0,,,,,1,26,62,19,,,,,,up,0.5671000597371858,2208.5382001786375,None,001,19,2019_Oct_11_1055,ACPT_experiment_5_30_19,3.1.0,59.97043883750859,
,,,C,D,d,v,R,D,d,L,c,,,,,6,14,134,0,0,0,0,0,,,,,1,27,63,0,,,,,,up,0.7672427766901819,2210.3896091312286,None,001,19,2019_Oct_11_1055,ACPT_experiment_5_30_19,3.1.0,59.97043883750859,
,,,C,D,d,v,R,G,y,R,y,,,,,6,14,134,0,0,0,0,0,,,,,1,28,64,29,,,,,,down,1.0672248766995835,2212.5081275916123,None,001,19,2019_Oct_11_1055,ACPT_experiment_5_30_19,3.1.0,59.97043883750859,
,,,C,D,d,v,R,U,g,L,u,,,,,6,14,134,0,0,0,0,0,,,,,1,29,65,10,,,,,,up,0.8006239942574211,2214.876356648699,None,001,19,2019_Oct_11_1055,ACPT_experiment_5_30_19,3.1.0,59.97043883750859,
,,,C,D,d,v,L,U,d,R,u,,,,,6,14,134,0,0,0,0,0,,,,,1,30,66,21,,,,,,up,1.5678574134481096,2216.9612626707326,None,001,19,2019_Oct_11_1055,ACPT_experiment_5_30_19,3.1.0,59.97043883750859,
,,,C,D,d,v,R,G,g,L,c ,,,,,6,14,134,0,0,0,0,0,,,,,1,31,67,6,,,,,,up,0.6671757951080508,2219.813427769616,None,001,19,2019_Oct_11_1055,ACPT_experiment_5_30_19,3.1.0,59.97043883750859,
,,,C,D,d,v,R,D,y,R,y,,,,,6,14,134,0,0,0,0,0,,,,,1,32,68,27,,,,,,down,1.0007344127461693,2221.7649338892693,None,001,19,2019_Oct_11_1055,ACPT_experiment_5_30_19,3.1.0,59.97043883750859,
,,,C,D,d,v,R,D,y,L,y,,,,,6,14,134,0,0,0,0,0,,,,,1,33,69,26,,,,,,down,0.9673987752539688,2224.066654672969,None,001,19,2019_Oct_11_1055,ACPT_experiment_5_30_19,3.1.0,59.97043883750859,
,,,C,D,d,v,L,G,d,L,i,,,,,6,14,134,0,0,0,0,0,,,,,1,34,70,16,,,,,,up,1.0009580871578692,2226.3350452525633,None,001,19,2019_Oct_11_1055,ACPT_experiment_5_30_19,3.1.0,59.97043883750859,
,,,C,D,d,v,L,G,y,L,y,,,,,6,14,134,0,0,0,0,0,,,,,1,35,71,34,,,,,,down,0.9506917153835275,2228.636798636582,None,001,19,2019_Oct_11_1055,ACPT_experiment_5_30_19,3.1.0,59.97043883750859,
,,,C,D,d,v,,,,,,,,,,6,14,134,0,1,0,1,0,0,0,0,0,,,,,,,,,,,,,,001,19,2019_Oct_11_1055,ACPT_experiment_5_30_19,3.1.0,59.97043883750859,
,,,C,D,d,v,R,G,g,L,c ,,,,,6,14,134,0,1,0,1,0,,,,,0,0,0,6,,,,,,up,0.8173105280015989,2234.1409719302196,None,001,19,2019_Oct_11_1055,ACPT_experiment_5_30_19,3.1.0,59.97043883750859,
,,,C,D,d,v,L,U,g,R,u,,,,,6,14,134,0,1,0,1,0,,,,,0,1,1,23,,,,,,up,0.6835816038810663,2236.2428367590333,None,001,19,2019_Oct_11_1055,ACPT_experiment_5_30_19,3.1.0,59.97043883750859,
,,,C,D,d,v,R,U,g,R,u,,,,,6,14,134,0,1,0,1,0,,,,,0,2,2,11,,,,,,up,0.7005334680006854,2238.2107296706067,None,001,19,2019_Oct_11_1055,ACPT_experiment_5_30_19,3.1.0,59.97043883750859,
,,,C,D,d,v,R,U,d,R,u,,,,,6,14,134,0,1,0,1,0,,,,,0,3,3,9,,,,,,up,0.5671193784446587,2240.178869197558,None,001,19,2019_Oct_11_1055,ACPT_experiment_5_30_19,3.1.0,59.97043883750859,
,,,C,D,d,v,R,D,y,R,y,,,,,6,14,134,0,1,0,1,0,,,,,0,4,4,27,,,,,,down,0.9340703822776959,2242.0302700000693,None,001,19,2019_Oct_11_1055,ACPT_experiment_5_30_19,3.1.0,59.97043883750859,
,,,C,D,d,v,L,U,d,L,u,,,,,6,14,134,0,1,0,1,0,,,,,0,5,5,20,,,,,,up,0.7172157757772766,2244.248642030686,None,001,19,2019_Oct_11_1055,ACPT_experiment_5_30_19,3.1.0,59.97043883750859,
,,,C,D,d,v,R,G,d,R,i,,,,,6,14,134,0,1,0,1,0,,,,,0,6,6,5,,,,,,up,0.7005189789701944,2246.2501769623805,None,001,19,2019_Oct_11_1055,ACPT_experiment_5_30_19,3.1.0,59.97043883750859,
,,,C,D,d,v,L,D,g,L,i,,,,,6,14,134,0,1,0,1,0,,,,,0,7,7,14,,,,,,up,0.6004628641617273,2248.235002117511,None,001,19,2019_Oct_11_1055,ACPT_experiment_5_30_19,3.1.0,59.97043883750859,
,,,C,D,d,v,L,D,d,R,c ,,,,,6,14,134,0,1,0,1,0,,,,,0,8,8,13,,,,,,up,1.1342224567297308,2250.103063494253,None,001,19,2019_Oct_11_1055,ACPT_experiment_5_30_19,3.1.0,59.97043883750859,
,,,C,D,d,v,R,G,y,L,y,,,,,6,14,134,0,1,0,1,0,,,,,0,9,9,28,,,,,,down,0.833984685697942,2252.521569789888,None,001,19,2019_Oct_11_1055,ACPT_experiment_5_30_19,3.1.0,59.97043883750859,
,,,C,D,d,v,L,D,g,R,i,,,,,6,14,134,0,1,0,1,0,,,,,0,10,10,15,,,,,,up,1.25070128418065,2254.6567883674816,None,001,19,2019_Oct_11_1055,ACPT_experiment_5_30_19,3.1.0,59.97043883750859,
,,,C,D,d,v,R,U,d,L,u,,,,,6,14,134,0,1,0,1,0,,,,,0,11,11,8,,,,,,up,0.9006861461621156,2257.1918003556452,None,001,19,2019_Oct_11_1055,ACPT_experiment_5_30_19,3.1.0,59.97043883750859,
,,,C,D,d,v,L,U,y,R,u,,,,,6,14,134,0,1,0,1,0,,,,,0,12,12,25,,,,,,down,0.8673393400426903,2259.393452950344,None,001,19,2019_Oct_11_1055,ACPT_experiment_5_30_19,3.1.0,59.97043883750859,
,,,C,D,d,v,R,U,g,L,u,,,,,6,14,134,0,1,0,1,0,,,,,0,13,13,10,,,,,,up,0.7005319587269696,2261.5617843965815,None,001,19,2019_Oct_11_1055,ACPT_experiment_5_30_19,3.1.0,59.97043883750859,
,,,C,D,d,v,R,G,g,R,c ,,,,,6,14,134,0,1,0,1,0,,,,,0,14,14,7,,,,,,up,0.6838493490954534,2263.5466282667103,None,001,19,2019_Oct_11_1055,ACPT_experiment_5_30_19,3.1.0,59.97043883750859,
,,,C,D,d,v,L,G,y,R,y,,,,,6,14,134,0,1,0,1,0,,,,,0,15,15,35,,,,,,down,0.9674102457370282,2265.514784395676,None,001,19,2019_Oct_11_1055,ACPT_experiment_5_30_19,3.1.0,59.97043883750859,
,,,C,D,d,v,L,D,y,L,y,,,,,6,14,134,0,1,0,1,0,,,,,0,16,16,32,,,,,,down,0.6838511602240942,2267.76649810088,None,001,19,2019_Oct_11_1055,ACPT_experiment_5_30_19,3.1.0,59.97043883750859,
,,,C,D,d,v,L,G,g,R,c ,,,,,6,14,134,0,1,0,1,0,,,,,0,17,17,19,,,,,,up,1.33432291400959,2269.734699809922,None,001,19,2019_Oct_11_1055,ACPT_experiment_5_30_19,3.1.0,59.97043883750859,
,,,C,D,d,v,R,U,y,R,u,,,,,6,14,134,0,1,0,1,0,,,,,0,18,18,31,,,,,,down,1.0841441405004844,2272.3700021522245,None,001,19,2019_Oct_11_1055,ACPT_experiment_5_30_19,3.1.0,59.97043883750859,
,,,C,D,d,v,L,U,d,R,u,,,,,6,14,134,0,1,0,1,0,,,,,0,19,19,21,,,,,,up,1.1172881001893984,2274.7887366500936,None,001,19,2019_Oct_11_1055,ACPT_experiment_5_30_19,3.1.0,59.97043883750859,
,,,C,D,d,v,R,D,d,L,c,,,,,6,14,134,0,1,0,1,0,,,,,0,20,20,0,,,,,,up,1.10083731504983,2277.1903200596707,None,001,19,2019_Oct_11_1055,ACPT_experiment_5_30_19,3.1.0,59.97043883750859,
,,,C,D,d,v,R,D,d,R,c ,,,,,6,14,134,0,1,0,1,0,,,,,0,21,21,1,,,,,,up,0.7672780937023163,2279.558783657943,None,001,19,2019_Oct_11_1055,ACPT_experiment_5_30_19,3.1.0,59.97043883750859,
,,,C,D,d,v,R,G,y,R,y,,,,,6,14,134,0,1,0,1,0,,,,,0,22,22,29,,,,,,down,0.8339671781195648,2281.6103386478894,None,001,19,2019_Oct_11_1055,ACPT_experiment_5_30_19,3.1.0,59.97043883750859,
,,,C,D,d,v,R,U,y,L,u,,,,,6,14,134,0,1,0,1,0,,,,,0,23,23,30,,,,,,down,0.9340380838139026,2283.7286165299915,None,001,19,2019_Oct_11_1055,ACPT_experiment_5_30_19,3.1.0,59.97043883750859,
,,,C,D,d,v,R,D,g,L,i,,,,,6,14,134,0,1,0,1,0,,,,,0,24,24,2,,,,,,up,1.4344279292972715,2285.9469635066594,None,001,19,2019_Oct_11_1055,ACPT_experiment_5_30_19,3.1.0,59.97043883750859,
,,,C,D,d,v,L,U,g,L,u,,,,,6,14,134,0,1,0,1,0,,,,,0,25,25,22,,,,,,up,0.8173265263062603,2288.6656951972786,None,001,19,2019_Oct_11_1055,ACPT_experiment_5_30_19,3.1.0,59.97043883750859,
,,,C,D,d,v,L,G,g,L,c ,,,,,6,14,134,0,1,0,1,0,,,,,0,26,26,18,,,,,,up,0.7672451915282181,2290.7672916771685,None,001,19,2019_Oct_11_1055,ACPT_experiment_5_30_19,3.1.0,59.97043883750859,
,,,C,D,d,v,R,D,y,L,y,,,,,6,14,134,0,1,0,1,0,,,,,0,27,27,26,,,,,,down,0.6671745876892601,2292.818847270825,None,001,19,2019_Oct_11_1055,ACPT_experiment_5_30_19,3.1.0,59.97043883750859,
,,,C,D,d,v,L,G,d,R,i,,,,,6,14,134,0,1,0,1,0,,,,,0,28,28,17,,,,,,up,0.6838674603836807,2294.7703096215314,None,001,19,2019_Oct_11_1055,ACPT_experiment_5_30_19,3.1.0,59.97043883750859,
,,,C,D,d,v,L,G,d,L,i,,,,,6,14,134,0,1,0,1,0,,,,,0,29,29,16,,,,,,up,1.1842005571638765,2296.7218287209416,None,001,19,2019_Oct_11_1055,ACPT_experiment_5_30_19,3.1.0,59.97043883750859,
,,,C,D,d,v,L,G,y,L,y,,,,,6,14,134,0,1,0,1,0,,,,,0,30,30,34,,,,,,down,0.9841037221412989,2299.1903309264435,None,001,19,2019_Oct_11_1055,ACPT_experiment_5_30_19,3.1.0,59.97043883750859,
,,,C,D,d,v,L,U,y,L,u,,,,,6,14,134,0,1,0,1,0,,,,,0,31,31,24,,,,,,down,0.6337912571375455,2301.4754403382462,None,001,19,2019_Oct_11_1055,ACPT_experiment_5_30_19,3.1.0,59.97043883750859,
,,,C,D,d,v,L,D,d,L,c ,,,,,6,14,134,0,1,0,1,0,,,,,0,32,32,12,,,,,,up,0.8005977328889458,2303.3935447142053,None,001,19,2019_Oct_11_1055,ACPT_experiment_5_30_19,3.1.0,59.97043883750859,
,,,C,D,d,v,R,D,g,R,i,,,,,6,14,134,0,1,0,1,0,,,,,0,33,33,3,,,,,,up,0.8673571494764474,2305.478447415836,None,001,19,2019_Oct_11_1055,ACPT_experiment_5_30_19,3.1.0,59.97043883750859,
,,,C,D,d,v,L,D,y,R,y,,,,,6,14,134,0,1,0,1,0,,,,,0,34,34,33,,,,,,down,1.0841770426741277,2307.646786408444,None,001,19,2019_Oct_11_1055,ACPT_experiment_5_30_19,3.1.0,59.97043883750859,
,,,C,D,d,v,R,G,d,L,i,,,,,6,14,134,0,1,0,1,0,,,,,0,35,35,4,,,,,,up,0.9507249194120959,2310.031912090221,None,001,19,2019_Oct_11_1055,ACPT_experiment_5_30_19,3.1.0,59.97043883750859,
,,,C,D,d,v,R,U,g,L,u,,,,,6,14,134,0,1,0,1,0,,,,,1,0,36,10,,,,,,up,0.7672409655606316,2312.2669431857935,None,001,19,2019_Oct_11_1055,ACPT_experiment_5_30_19,3.1.0,59.97043883750859,
,,,C,D,d,v,R,U,y,L,u,,,,,6,14,134,0,1,0,1,0,,,,,1,1,37,30,,,,,,down,1.0841592332403707,2314.318500590579,None,001,19,2019_Oct_11_1055,ACPT_experiment_5_30_19,3.1.0,59.97043883750859,
,,,C,D,d,v,R,U,d,L,u,,,,,6,14,134,0,1,0,1,0,,,,,1,2,38,8,,,,,,up,0.8339617447327328,2316.686968716673,None,001,19,2019_Oct_11_1055,ACPT_experiment_5_30_19,3.1.0,59.97043883750859,
,,,C,D,d,v,L,U,g,L,u,,,,,6,14,134,0,1,0,1,0,,,,,1,3,39,22,,,,,,up,0.7339068373435111,2318.805218828133,None,001,19,2019_Oct_11_1055,ACPT_experiment_5_30_19,3.1.0,59.97043883750859,
,,,C,D,d,v,R,U,y,R,u,,,,,6,14,134,0,1,0,1,0,,,,,1,4,40,31,,,,,,down,0.8339626502970532,2320.8234387842977,None,001,19,2019_Oct_11_1055,ACPT_experiment_5_30_19,3.1.0,59.97043883750859,
,,,C,D,d,v,R,D,y,R,y,,,,,6,14,134,0,1,0,1,0,,,,,1,5,41,27,,,,,,down,0.717202192311106,2322.9417169682547,None,001,19,2019_Oct_11_1055,ACPT_experiment_5_30_19,3.1.0,59.97043883750859,
,,,C,D,d,v,L,D,d,R,c ,,,,,6,14,134,0,1,0,1,0,,,,,1,6,42,13,,,,,,up,0.6505100893459712,2324.943213564389,None,001,19,2019_Oct_11_1055,ACPT_experiment_5_30_19,3.1.0,59.97043883750859,
,,,C,D,d,v,L,G,y,L,y,,,,,6,14,134,0,1,0,1,0,,,,,1,7,43,34,,,,,,down,0.6671839451878441,2326.878018057558,None,001,19,2019_Oct_11_1055,ACPT_experiment_5_30_19,3.1.0,59.97043883750859,
,,,C,D,d,v,R,G,d,L,i,,,,,6,14,134,0,1,0,1,0,,,,,1,8,44,4,,,,,,up,0.6838466324020374,2328.8295193475346,None,001,19,2019_Oct_11_1055,ACPT_experiment_5_30_19,3.1.0,59.97043883750859,
,,,C,D,d,v,L,U,y,L,u,,,,,6,14,134,0,1,0,1,0,,,,,1,9,45,24,,,,,,up,0.7505849191529705,2330.8143330321827,None,001,19,2019_Oct_11_1055,ACPT_experiment_5_30_19,3.1.0,59.97043883750859,
,,,C,D,d,v,L,G,y,R,y,,,,,6,14,134,0,1,0,1,0,,,,,1,10,46,35,,,,,,down,0.7839214622090367,2332.865915189062,None,001,19,2019_Oct_11_1055,ACPT_experiment_5_30_19,3.1.0,59.97043883750859,
,,,C,D,d,v,L,D,y,L,y,,,,,6,14,134,0,1,0,1,0,,,,,1,11,47,32,,,,,,down,0.7005192808246647,2334.950833587143,None,001,19,2019_Oct_11_1055,ACPT_experiment_5_30_19,3.1.0,59.97043883750859,
,,,C,D,d,v,R,U,g,R,u,,,,,6,14,134,0,1,0,1,0,,,,,1,12,48,11,,,,,,up,0.8673405474623905,2336.952353727952,None,001,19,2019_Oct_11_1055,ACPT_experiment_5_30_19,3.1.0,59.97043883750859,
,,,C,D,d,v,L,G,g,L,c ,,,,,6,14,134,0,1,0,1,0,,,,,1,13,49,18,,,,,,up,0.800591092083323,2339.103995923753,None,001,19,2019_Oct_11_1055,ACPT_experiment_5_30_19,3.1.0,59.97043883750859,
,,,C,D,d,v,R,D,g,R,i,,,,,6,14,134,0,1,0,1,0,,,,,1,14,50,3,,,,,,up,0.7839510439798687,2341.172198810028,None,001,19,2019_Oct_11_1055,ACPT_experiment_5_30_19,3.1.0,59.97043883750859,
,,,C,D,d,v,R,G,d,R,i,,,,,6,14,134,0,1,0,1,0,,,,,1,15,51,5,,,,,,up,1.1508709567683582,2343.2404575394426,None,001,19,2019_Oct_11_1055,ACPT_experiment_5_30_19,3.1.0,59.97043883750859,
,,,C,D,d,v,L,D,g,L,i,,,,,6,14,134,0,1,0,1,0,,,,,1,16,52,14,,,,,,up,0.8006155423227028,2345.6756388983385,None,001,19,2019_Oct_11_1055,ACPT_experiment_5_30_19,3.1.0,59.97043883750859,
,,,C,D,d,v,R,G,g,L,c ,,,,,6,14,134,0,1,0,1,0,,,,,1,17,53,6,,,,,,up,0.667171267285994,2347.7605536741617,None,001,19,2019_Oct_11_1055,ACPT_experiment_5_30_19,3.1.0,59.97043883750859,
,,,C,D,d,v,L,G,g,R,c ,,,,,6,14,134,0,1,0,1,0,,,,,1,18,54,19,,,,,,up,0.6504904687835733,2349.695360582169,None,001,19,2019_Oct_11_1055,ACPT_experiment_5_30_19,3.1.0,59.97043883750859,
,,,C,D,d,v,L,G,d,L,i,,,,,6,14,134,0,1,0,1,0,,,,,1,19,55,16,,,,,,up,0.5671048894141677,2351.630153001146,None,001,19,2019_Oct_11_1055,ACPT_experiment_5_30_19,3.1.0,59.97043883750859,
,,,C,D,d,v,L,G,d,R,i,,,,,6,14,134,0,1,0,1,0,,,,,1,20,56,17,,,,,,up,0.5337592907135331,2353.4648606291075,None,001,19,2019_Oct_11_1055,ACPT_experiment_5_30_19,3.1.0,59.97043883750859,
,,,C,D,d,v,L,U,d,L,u,,,,,6,14,134,0,1,0,1,0,,,,,1,21,57,20,,,,,,up,0.5504141297028582,2355.282933340497,None,001,19,2019_Oct_11_1055,ACPT_experiment_5_30_19,3.1.0,59.97043883750859,
,,,C,D,d,v,L,U,y,R,u,,,,,6,14,134,0,1,0,1,0,,,,,1,22,58,25,,,,,,down,1.1008406354526414,2357.1009785830993,None,001,19,2019_Oct_11_1055,ACPT_experiment_5_30_19,3.1.0,59.97043883750859,
,,,C,D,d,v,R,D,y,L,y,,,,,6,14,134,0,1,0,1,0,,,,,1,23,59,26,,,,,,down,0.8006161460325529,2359.4861229798744,None,001,19,2019_Oct_11_1055,ACPT_experiment_5_30_19,3.1.0,59.97043883750859,
,,,C,D,d,v,L,D,d,L,c ,,,,,6,14,134,0,1,0,1,0,,,,,1,24,60,12,,,,,,down,0.6505079763624053,2361.571048924325,None,001,19,2019_Oct_11_1055,ACPT_experiment_5_30_19,3.1.0,59.97043883750859,
,,,C,D,d,v,L,U,d,R,u,,,,,6,14,134,0,1,0,1,0,,,,,1,25,61,21,,,,,,up,0.6838593103043422,2363.4891539039936,None,001,19,2019_Oct_11_1055,ACPT_experiment_5_30_19,3.1.0,59.97043883750859,
,,,C,D,d,v,R,D,d,L,c,,,,,6,14,134,0,1,0,1,0,,,,,1,26,62,0,,,,,,up,2.4685408429177187,2365.4573245219904,None,001,19,2019_Oct_11_1055,ACPT_experiment_5_30_19,3.1.0,59.97043883750859,
,,,C,D,d,v,L,U,g,R,u,,,,,6,14,134,0,1,0,1,0,,,,,1,27,63,23,,,,,,up,1.467777753964583,2369.2101802948578,None,001,19,2019_Oct_11_1055,ACPT_experiment_5_30_19,3.1.0,59.97043883750859,
,,,C,D,d,v,R,G,g,R,c ,,,,,6,14,134,0,1,0,1,0,,,,,1,28,64,7,,,,,,up,1.3843785911285522,2371.962275091756,None,001,19,2019_Oct_11_1055,ACPT_experiment_5_30_19,3.1.0,59.97043883750859,
,,,C,D,d,v,R,D,g,L,i,,,,,6,14,134,0,1,0,1,0,,,,,1,29,65,2,,,,,,up,0.7506108786660661,2374.630954425659,None,001,19,2019_Oct_11_1055,ACPT_experiment_5_30_19,3.1.0,59.97043883750859,
,,,C,D,d,v,L,D,g,R,i,,,,,6,14,134,0,1,0,1,0,,,,,1,30,66,15,,,,,,up,0.633860080033628,2376.665824692991,None,001,19,2019_Oct_11_1055,ACPT_experiment_5_30_19,3.1.0,59.97043883750859,
,,,C,D,d,v,R,G,y,L,y,,,,,6,14,134,0,1,0,1,0,,,,,1,31,67,28,,,,,,down,1.0507858638979997,2378.583963178543,None,001,19,2019_Oct_11_1055,ACPT_experiment_5_30_19,3.1.0,59.97043883750859,
,,,C,D,d,v,R,D,d,R,c ,,,,,6,14,134,0,1,0,1,0,,,,,1,32,68,1,,,,,,up,0.7505565448009293,2380.9190703113422,None,001,19,2019_Oct_11_1055,ACPT_experiment_5_30_19,3.1.0,59.97043883750859,
,,,C,D,d,v,R,G,y,R,y,,,,,6,14,134,0,1,0,1,0,,,,,1,33,69,29,,,,,,down,0.7172347926302791,2382.953910695048,None,001,19,2019_Oct_11_1055,ACPT_experiment_5_30_19,3.1.0,59.97043883750859,
,,,C,D,d,v,L,D,y,R,y,,,,,6,14,134,0,1,0,1,0,,,,,1,34,70,33,,,,,,down,0.6839402073924248,2384.9554549842414,None,001,19,2019_Oct_11_1055,ACPT_experiment_5_30_19,3.1.0,59.97043883750859,
,,,C,D,d,v,R,U,d,R,u,,,,,6,14,134,0,1,0,1,0,,,,,1,35,71,9,,,,,,up,0.8172830592143328,2386.9236216781255,None,001,19,2019_Oct_11_1055,ACPT_experiment_5_30_19,3.1.0,59.97043883750859,
,,,C,D,d,v,,,,,,,,,,6,14,134,0,2,0,2,0,0,0,0,0,,,,,,,,,,,,,,001,19,2019_Oct_11_1055,ACPT_experiment_5_30_19,3.1.0,59.97043883750859,
,,,C,D,d,v,R,G,y,L,y,,,,,6,14,134,0,2,0,2,0,,,,,0,0,0,28,,,,,,down,0.7169721789482537,2391.2438011851423,None,001,19,2019_Oct_11_1055,ACPT_experiment_5_30_19,3.1.0,59.97043883750859,
,,,C,D,d,v,L,G,y,R,y,,,,,6,14,134,0,2,0,2,0,,,,,0,1,1,35,,,,,,down,0.5004046363692396,2393.245079238396,None,001,19,2019_Oct_11_1055,ACPT_experiment_5_30_19,3.1.0,59.97043883750859,
,,,C,D,d,v,R,G,g,L,c ,,,,,6,14,134,0,2,0,2,0,,,,,0,2,2,6,,,,,,up,0.9674030012220101,2395.029767411815,None,001,19,2019_Oct_11_1055,ACPT_experiment_5_30_19,3.1.0,59.97043883750859,
,,,C,D,d,v,R,G,y,R,y,,,,,6,14,134,0,2,0,2,0,,,,,0,3,3,29,,,,,,down,0.46702824847852753,2397.2647803961,None,001,19,2019_Oct_11_1055,ACPT_experiment_5_30_19,3.1.0,59.97043883750859,
,,,C,D,d,v,L,U,d,L,u,,,,,6,14,134,0,2,0,2,0,,,,,0,4,4,20,,,,,,up,0.6839000607028538,2399.0161247819474,None,001,19,2019_Oct_11_1055,ACPT_experiment_5_30_19,3.1.0,59.97043883750859,
,,,C,D,d,v,R,U,y,R,u,,,,,6,14,134,0,2,0,2,0,,,,,0,5,5,31,,,,,,down,0.4336542754263064,2400.9842866461545,None,001,19,2019_Oct_11_1055,ACPT_experiment_5_30_19,3.1.0,59.97043883750859,
,,,C,D,d,v,R,U,d,L,u,,,,,6,14,134,0,2,0,2,0,,,,,0,6,6,8,,,,,,up,0.8673233417375741,2402.7022624923366,None,001,19,2019_Oct_11_1055,ACPT_experiment_5_30_19,3.1.0,59.97043883750859,
,,,C,D,d,v,R,U,y,L,u,,,,,6,14,134,0,2,0,2,0,,,,,0,7,7,30,,,,,,down,0.7002720617379055,2404.854159755449,None,001,19,2019_Oct_11_1055,ACPT_experiment_5_30_19,3.1.0,59.97043883750859,
,,,C,D,d,v,L,G,y,L,y,,,,,6,14,134,0,2,0,2,0,,,,,0,8,8,34,,,,,,down,0.6171297773430524,2406.8387346729446,None,001,19,2019_Oct_11_1055,ACPT_experiment_5_30_19,3.1.0,59.97043883750859,
,,,C,D,d,v,R,G,d,L,i,,,,,6,14,134,0,2,0,2,0,,,,,0,9,9,4,,,,,,up,0.7673472184528691,2408.740173946851,None,001,19,2019_Oct_11_1055,ACPT_experiment_5_30_19,3.1.0,59.97043883750859,
,,,C,D,d,v,L,G,d,R,i,,,,,6,14,134,0,2,0,2,0,,,,,0,10,10,17,,,,,,down,0.46701738170531826,2410.7917358794584,None,001,19,2019_Oct_11_1055,ACPT_experiment_5_30_19,3.1.0,59.97043883750859,
,,,C,D,d,v,L,U,g,L,u,,,,,6,14,134,0,2,0,2,0,,,,,0,11,11,22,,,,,,up,1.5845367026772692,2412.543063361437,None,001,19,2019_Oct_11_1055,ACPT_experiment_5_30_19,3.1.0,59.97043883750859,
,,,C,D,d,v,L,D,y,R,y,,,,,6,14,134,0,2,0,2,0,,,,,0,12,12,33,,,,,,down,0.9006843350334748,2415.4119077495484,None,001,19,2019_Oct_11_1055,ACPT_experiment_5_30_19,3.1.0,59.97043883750859,
,,,C,D,d,v,L,U,d,R,u,,,,,6,14,134,0,2,0,2,0,,,,,0,13,13,21,,,,,,up,1.0674745106252885,2417.5969018830006,None,001,19,2019_Oct_11_1055,ACPT_experiment_5_30_19,3.1.0,59.97043883750859,
,,,C,D,d,v,R,D,g,R,i,,,,,6,14,134,0,2,0,2,0,,,,,0,14,14,3,,,,,,up,1.0675225055397277,2419.9486659677723,None,001,19,2019_Oct_11_1055,ACPT_experiment_5_30_19,3.1.0,59.97043883750859,
,,,C,D,d,v,R,G,d,R,i,,,,,6,14,134,0,2,0,2,0,,,,,0,15,15,5,,,,,,up,0.7504521030377873,2422.3004717085073,None,001,19,2019_Oct_11_1055,ACPT_experiment_5_30_19,3.1.0,59.97043883750859,
,,,C,D,d,v,L,D,g,L,i,,,,,6,14,134,0,2,0,2,0,,,,,0,16,16,14,,,,,,up,0.7005244123565717,2424.335349824064,None,001,19,2019_Oct_11_1055,ACPT_experiment_5_30_19,3.1.0,59.97043883750859,
,,,C,D,d,v,L,D,d,R,c ,,,,,6,14,134,0,2,0,2,0,,,,,0,17,17,13,,,,,,up,0.6004746364988023,2426.303486332467,None,001,19,2019_Oct_11_1055,ACPT_experiment_5_30_19,3.1.0,59.97043883750859,
,,,C,D,d,v,R,G,g,R,c ,,,,,6,14,134,0,2,0,2,0,,,,,0,18,18,7,,,,,,up,0.583782367513777,2428.1882704655295,None,001,19,2019_Oct_11_1055,ACPT_experiment_5_30_19,3.1.0,59.97043883750859,
,,,C,D,d,v,R,D,g,L,i,,,,,6,14,134,0,2,0,2,0,,,,,0,19,19,2,,,,,,up,0.900686749871511,2430.05635689622,None,001,19,2019_Oct_11_1055,ACPT_experiment_5_30_19,3.1.0,59.97043883750859,
,,,C,D,d,v,L,D,d,L,c ,,,,,6,14,134,0,2,0,2,0,,,,,0,20,20,12,,,,,,up,0.5670351609537647,2432.2414077783756,None,001,19,2019_Oct_11_1055,ACPT_experiment_5_30_19,3.1.0,59.97043883750859,
,,,C,D,d,v,L,D,g,R,i,,,,,6,14,134,0,2,0,2,0,,,,,0,21,21,15,,,,,,up,0.6004480732758566,2434.0927569637147,None,001,19,2019_Oct_11_1055,ACPT_experiment_5_30_19,3.1.0,59.97043883750859,
,,,C,D,d,v,R,U,d,R,u,,,,,6,14,134,0,2,0,2,0,,,,,0,22,22,9,,,,,,down,1.1342245697132967,2435.977513326135,None,001,19,2019_Oct_11_1055,ACPT_experiment_5_30_19,3.1.0,59.97043883750859,
,,,C,D,d,v,L,G,g,L,c ,,,,,6,14,134,0,2,0,2,0,,,,,0,23,23,18,,,,,,up,0.8006197682902894,2438.396023847737,None,001,19,2019_Oct_11_1055,ACPT_experiment_5_30_19,3.1.0,59.97043883750859,
,,,C,D,d,v,R,D,d,R,c ,,,,,6,14,134,0,2,0,2,0,,,,,0,24,24,1,,,,,,up,0.7172160776322016,2440.4809334920283,None,001,19,2019_Oct_11_1055,ACPT_experiment_5_30_19,3.1.0,59.97043883750859,
,,,C,D,d,v,R,D,d,L,c,,,,,6,14,134,0,2,0,2,0,,,,,0,25,25,0,,,,,,up,0.6505472174872011,2442.4657547230468,None,001,19,2019_Oct_11_1055,ACPT_experiment_5_30_19,3.1.0,59.97043883750859,
,,,C,D,d,v,R,U,g,L,u,,,,,6,14,134,0,2,0,2,0,,,,,0,26,26,10,,,,,,up,0.733888726054829,2444.400579742343,None,001,19,2019_Oct_11_1055,ACPT_experiment_5_30_19,3.1.0,59.97043883750859,
,,,C,D,d,v,R,D,y,L,y,,,,,6,14,134,0,2,0,2,0,,,,,0,27,27,26,,,,,,down,1.4844760600462905,2446.418775550123,None,001,19,2019_Oct_11_1055,ACPT_experiment_5_30_19,3.1.0,59.97043883750859,
,,,C,D,d,v,R,D,y,R,y,,,,,6,14,134,0,2,0,2,0,,,,,0,28,28,27,,,,,,down,0.8504315467248489,2449.2044076235243,None,001,19,2019_Oct_11_1055,ACPT_experiment_5_30_19,3.1.0,59.97043883750859,
,,,C,D,d,v,R,U,g,R,u,,,,,6,14,134,0,2,0,2,0,,,,,0,29,29,11,,,,,,up,1.0507831472045837,2451.372549806798,None,001,19,2019_Oct_11_1055,ACPT_experiment_5_30_19,3.1.0,59.97043883750859,
,,,C,D,d,v,L,U,y,R,u,,,,,6,14,134,0,2,0,2,0,,,,,0,30,30,25,,,,,,down,1.0841510831605774,2453.707647280243,None,001,19,2019_Oct_11_1055,ACPT_experiment_5_30_19,3.1.0,59.97043883750859,
,,,C,D,d,v,L,D,y,L,y,,,,,6,14,134,0,2,0,2,0,,,,,0,31,31,32,,,,,,down,0.7338881223454337,2456.076112689644,None,001,19,2019_Oct_11_1055,ACPT_experiment_5_30_19,3.1.0,59.97043883750859,
,,,C,D,d,v,L,G,d,L,i,,,,,6,14,134,0,2,0,2,0,,,,,0,32,32,16,,,,,,up,1.3010047840966763,2458.0942891787163,None,001,19,2019_Oct_11_1055,ACPT_experiment_5_30_19,3.1.0,59.97043883750859,
,,,C,D,d,v,L,U,y,L,u,,,,,6,14,134,0,2,0,2,0,,,,,0,33,33,24,,,,,,down,0.7172248314213903,2460.6795841406692,None,001,19,2019_Oct_11_1055,ACPT_experiment_5_30_19,3.1.0,59.97043883750859,
,,,C,D,d,v,L,U,g,R,u,,,,,6,14,134,0,2,0,2,0,,,,,0,34,34,23,,,,,,up,0.7338787648463949,2462.6811320521206,None,001,19,2019_Oct_11_1055,ACPT_experiment_5_30_19,3.1.0,59.97043883750859,
,,,C,D,d,v,L,G,g,R,c ,,,,,6,14,134,0,2,0,2,0,,,,,0,35,35,19,,,,,,up,0.7505915599585933,2464.6826201963204,None,001,19,2019_Oct_11_1055,ACPT_experiment_5_30_19,3.1.0,59.97043883750859,
,,,C,D,d,v,L,G,g,R,c ,,,,,6,14,134,0,2,0,2,0,,,,,1,0,36,19,,,,,,up,0.7338666906543949,2466.7175306103413,None,001,19,2019_Oct_11_1055,ACPT_experiment_5_30_19,3.1.0,59.97043883750859,
,,,C,D,d,v,L,D,g,R,i,,,,,6,14,134,0,2,0,2,0,,,,,1,1,37,15,,,,,,up,0.9840825923051852,2468.735717664332,None,001,19,2019_Oct_11_1055,ACPT_experiment_5_30_19,3.1.0,59.97043883750859,
,,,C,D,d,v,L,G,y,R,y,,,,,6,14,134,0,2,0,2,0,,,,,1,2,38,35,,,,,,down,0.850636506138926,2471.020789042429,None,001,19,2019_Oct_11_1055,ACPT_experiment_5_30_19,3.1.0,59.97043883750859,
,,,C,D,d,v,R,U,d,R,u,,,,,6,14,134,0,2,0,2,0,,,,,1,3,39,9,,,,,,up,1.367671833113036,2473.1891298461655,None,001,19,2019_Oct_11_1055,ACPT_experiment_5_30_19,3.1.0,59.97043883750859,
,,,C,D,d,v,R,U,y,R,u,,,,,6,14,134,0,2,0,2,0,,,,,1,4,40,31,,,,,,down,0.8006158441780826,2475.824437621855,None,001,19,2019_Oct_11_1055,ACPT_experiment_5_30_19,3.1.0,59.97043883750859,
,,,C,D,d,v,R,U,y,L,u,,,,,6,14,134,0,2,0,2,0,,,,,1,5,41,30,,,,,,down,0.8007616400495863,2477.892517653224,None,001,19,2019_Oct_11_1055,ACPT_experiment_5_30_19,3.1.0,59.97043883750859,
,,,C,D,d,v,L,G,d,L,i,,,,,6,14,134,0,2,0,2,0,,,,,1,6,42,16,,,,,,up,0.967405114205576,2479.977586676853,None,001,19,2019_Oct_11_1055,ACPT_experiment_5_30_19,3.1.0,59.97043883750859,
,,,C,D,d,v,L,U,y,R,u,,,,,6,14,134,0,2,0,2,0,,,,,1,7,43,25,,,,,,down,0.7672717547516186,2482.22929615609,None,001,19,2019_Oct_11_1055,ACPT_experiment_5_30_19,3.1.0,59.97043883750859,
,,,C,D,d,v,R,D,y,L,y,,,,,6,14,134,0,2,0,2,0,,,,,1,8,44,26,,,,,,down,0.7672747732990501,2484.264150726972,None,001,19,2019_Oct_11_1055,ACPT_experiment_5_30_19,3.1.0,59.97043883750859,
,,,C,D,d,v,R,U,g,R,u,,,,,6,14,134,0,2,0,2,0,,,,,1,9,45,11,,,,,,up,0.7839259900310935,2486.315728959739,None,001,19,2019_Oct_11_1055,ACPT_experiment_5_30_19,3.1.0,59.97043883750859,
,,,C,D,d,v,R,D,g,R,i,,,,,6,14,134,0,2,0,2,0,,,,,1,10,46,3,,,,,,up,1.2342628750884614,2488.383978935364,None,001,19,2019_Oct_11_1055,ACPT_experiment_5_30_19,3.1.0,59.97043883750859,
,,,C,D,d,v,L,G,d,R,i,,,,,6,14,134,0,2,0,2,0,,,,,1,11,47,17,,,,,,down,2.9689481959799195,2490.902546779194,None,001,19,2019_Oct_11_1055,ACPT_experiment_5_30_19,3.1.0,59.97043883750859,
,,,C,D,d,v,R,D,d,R,c ,,,,,6,14,134,0,2,0,2,0,,,,,1,12,48,1,,,,,,up,0.73389114089332,2495.1557751918212,None,001,19,2019_Oct_11_1055,ACPT_experiment_5_30_19,3.1.0,59.97043883750859,
,,,C,D,d,v,R,D,d,L,c,,,,,6,14,134,0,2,0,2,0,,,,,1,13,49,0,,,,,,down,1.0674669642553454,2497.157302577146,None,001,19,2019_Oct_11_1055,ACPT_experiment_5_30_19,3.1.0,59.97043883750859,
,,,C,D,d,v,R,D,y,R,y,,,,,6,14,134,0,2,0,2,0,,,,,1,14,50,27,,,,,,down,0.8506470710572103,2499.5090787361096,None,001,19,2019_Oct_11_1055,ACPT_experiment_5_30_19,3.1.0,59.97043883750859,
,,,C,D,d,v,L,D,y,L,y,,,,,6,14,134,0,2,0,2,0,,,,,1,15,51,32,,,,,,down,0.7338838963778471,2501.644033190747,None,001,19,2019_Oct_11_1055,ACPT_experiment_5_30_19,3.1.0,59.97043883750859,
,,,C,D,d,v,R,U,d,L,u,,,,,6,14,134,0,2,0,2,0,,,,,1,16,52,8,,,,,,up,0.8673239454478789,2503.662233526349,None,001,19,2019_Oct_11_1055,ACPT_experiment_5_30_19,3.1.0,59.97043883750859,
,,,C,D,d,v,L,G,y,L,y,,,,,6,14,134,0,2,0,2,0,,,,,1,17,53,34,,,,,,down,0.9006843350334748,2505.8138687794894,None,001,19,2019_Oct_11_1055,ACPT_experiment_5_30_19,3.1.0,59.97043883750859,
,,,C,D,d,v,R,G,d,L,i,,,,,6,14,134,0,2,0,2,0,,,,,1,18,54,4,,,,,,up,1.2342571398471591,2507.998870761166,None,001,19,2019_Oct_11_1055,ACPT_experiment_5_30_19,3.1.0,59.97043883750859,
,,,C,D,d,v,R,U,g,L,u,,,,,6,14,134,0,2,0,2,0,,,,,1,19,55,10,,,,,,up,0.9507212971548142,2510.5174352845934,None,001,19,2019_Oct_11_1055,ACPT_experiment_5_30_19,3.1.0,59.97043883750859,
,,,C,D,d,v,L,D,d,R,c ,,,,,6,14,134,0,2,0,2,0,,,,,1,20,56,13,,,,,,up,1.3677035278678886,2512.7524651727467,None,001,19,2019_Oct_11_1055,ACPT_experiment_5_30_19,3.1.0,59.97043883750859,
,,,C,D,d,v,R,G,y,L,y,,,,,6,14,134,0,2,0,2,0,,,,,1,21,57,28,,,,,,down,0.6838991551385334,2515.4044778953235,None,001,19,2019_Oct_11_1055,ACPT_experiment_5_30_19,3.1.0,59.97043883750859,
,,,C,D,d,v,L,D,d,L,c ,,,,,6,14,134,0,2,0,2,0,,,,,1,22,58,12,,,,,,up,0.9340411023613342,2517.3726382502564,None,001,19,2019_Oct_11_1055,ACPT_experiment_5_30_19,3.1.0,59.97043883750859,
,,,C,D,d,v,L,D,g,L,i,,,,,6,14,134,0,2,0,2,0,,,,,1,23,59,14,,,,,,up,0.9673978696901031,2519.574312276646,None,001,19,2019_Oct_11_1055,ACPT_experiment_5_30_19,3.1.0,59.97043883750859,
,,,C,D,d,v,L,U,d,R,u,,,,,6,14,134,0,2,0,2,0,,,,,1,24,60,21,,,,,,up,0.7338612572671082,2521.8260401690263,None,001,19,2019_Oct_11_1055,ACPT_experiment_5_30_19,3.1.0,59.97043883750859,
,,,C,D,d,v,L,U,g,R,u,,,,,6,14,134,0,2,0,2,0,,,,,1,25,61,23,,,,,,up,0.7505930692323091,2523.8442175636633,None,001,19,2019_Oct_11_1055,ACPT_experiment_5_30_19,3.1.0,59.97043883750859,
,,,C,D,d,v,R,D,g,L,i,,,,,6,14,134,0,2,0,2,0,,,,,1,26,62,2,,,,,,up,0.55041835566999,2525.879095377365,None,001,19,2019_Oct_11_1055,ACPT_experiment_5_30_19,3.1.0,59.97043883750859,
,,,C,D,d,v,R,G,g,L,c ,,,,,6,14,134,0,2,0,2,0,,,,,1,27,63,6,,,,,,up,0.5670967393343744,2527.7138226258894,None,001,19,2019_Oct_11_1055,ACPT_experiment_5_30_19,3.1.0,59.97043883750859,
,,,C,D,d,v,L,D,y,R,y,,,,,6,14,134,0,2,0,2,0,,,,,1,28,64,33,,,,,,down,1.0676151749657947,2529.565200487435,None,001,19,2019_Oct_11_1055,ACPT_experiment_5_30_19,3.1.0,59.97043883750859,
,,,C,D,d,v,L,U,y,L,u,,,,,6,14,134,0,2,0,2,0,,,,,1,29,65,24,,,,,,down,1.050789184300811,2531.9336975915908,None,001,19,2019_Oct_11_1055,ACPT_experiment_5_30_19,3.1.0,59.97043883750859,
,,,C,D,d,v,L,G,g,L,c ,,,,,6,14,134,0,2,0,2,0,,,,,1,30,66,18,,,,,,up,2.78545186608153,2534.285478278377,None,001,19,2019_Oct_11_1055,ACPT_experiment_5_30_19,3.1.0,59.97043883750859,
,,,C,D,d,v,R,G,g,R,c ,,,,,6,14,134,0,2,0,2,0,,,,,1,31,67,7,,,,,,up,0.8006089015170801,2538.3552326983613,None,001,19,2019_Oct_11_1055,ACPT_experiment_5_30_19,3.1.0,59.97043883750859,
,,,C,D,d,v,R,G,y,R,y,,,,,6,14,134,0,2,0,2,0,,,,,1,32,68,29,,,,,,down,1.000768220484133,2540.4401314758798,None,001,19,2019_Oct_11_1055,ACPT_experiment_5_30_19,3.1.0,59.97043883750859,
,,,C,D,d,v,L,U,g,L,u,,,,,6,14,134,0,2,0,2,0,,,,,1,33,69,22,,,,,,up,0.7839193492254708,2542.7419062915897,None,001,19,2019_Oct_11_1055,ACPT_experiment_5_30_19,3.1.0,59.97043883750859,
,,,C,D,d,v,L,U,d,L,u,,,,,6,14,134,0,2,0,2,0,,,,,1,34,70,20,,,,,,up,0.967397567835178,2544.810133024395,None,001,19,2019_Oct_11_1055,ACPT_experiment_5_30_19,3.1.0,59.97043883750859,
,,,C,D,d,v,R,G,d,R,i,,,,,6,14,134,0,2,0,2,0,,,,,1,35,71,5,,,,,,up,0.617126155085316,2547.0618452203253,None,001,19,2019_Oct_11_1055,ACPT_experiment_5_30_19,3.1.0,59.97043883750859,
,,,C,D,d,v,,,,,,,,,,6,14,134,0,3,0,3,0,0,0,0,0,,,,,,,,,,,,,,001,19,2019_Oct_11_1055,ACPT_experiment_5_30_19,3.1.0,59.97043883750859,
,,,C,D,d,v,L,U,d,R,u,,,,,6,14,134,0,3,0,3,0,,,,,0,0,0,21,,,,,,up,0.5303371627642264,2562.693745357096,None,001,19,2019_Oct_11_1055,ACPT_experiment_5_30_19,3.1.0,59.97043883750859,
,,,C,D,d,v,R,U,y,R,u,,,,,6,14,134,0,3,0,3,0,,,,,0,1,1,31,,,,,,down,0.9173636242617249,2564.5084185796463,None,001,19,2019_Oct_11_1055,ACPT_experiment_5_30_19,3.1.0,59.97043883750859,
,,,C,D,d,v,L,D,g,R,i,,,,,6,14,134,0,3,0,3,0,,,,,0,2,2,15,,,,,,up,0.6171418515350524,2566.7100907949075,None,001,19,2019_Oct_11_1055,ACPT_experiment_5_30_19,3.1.0,59.97043883750859,
,,,C,D,d,v,L,D,y,R,y,,,,,6,14,134,0,3,0,3,0,,,,,0,3,3,33,,,,,,down,0.6504533406423434,2568.628245580619,None,001,19,2019_Oct_11_1055,ACPT_experiment_5_30_19,3.1.0,59.97043883750859,
,,,C,D,d,v,L,G,y,L,y,,,,,6,14,134,0,3,0,3,0,,,,,0,4,4,34,,,,,,down,0.8840195348357156,2570.5629906083914,None,001,19,2019_Oct_11_1055,ACPT_experiment_5_30_19,3.1.0,59.97043883750859,
,,,C,D,d,v,R,U,y,L,u,,,,,6,14,134,0,3,0,3,0,,,,,0,5,5,30,,,,,,down,0.6004507899692726,2572.748011305066,None,001,19,2019_Oct_11_1055,ACPT_experiment_5_30_19,3.1.0,59.97043883750859,
,,,C,D,d,v,L,U,y,R,u,,,,,6,14,134,0,3,0,3,0,,,,,0,6,6,25,,,,,,down,0.600454110372084,2574.6327721953085,None,001,19,2019_Oct_11_1055,ACPT_experiment_5_30_19,3.1.0,59.97043883750859,
,,,C,D,d,v,R,U,g,L,u,,,,,6,14,134,0,3,0,3,0,,,,,0,7,7,10,,,,,,up,0.8339662725547896,2576.517537311518,None,001,19,2019_Oct_11_1055,ACPT_experiment_5_30_19,3.1.0,59.97043883750859,
,,,C,D,d,v,L,G,d,L,i,,,,,6,14,134,0,3,0,3,0,,,,,0,8,8,16,,,,,,up,0.7171895144092559,2578.6358345123276,None,001,19,2019_Oct_11_1055,ACPT_experiment_5_30_19,3.1.0,59.97043883750859,
,,,C,D,d,v,L,G,y,R,y,,,,,6,14,134,0,3,0,3,0,,,,,0,9,9,35,,,,,,down,0.984069310693485,2580.6540170384965,None,001,19,2019_Oct_11_1055,ACPT_experiment_5_30_19,3.1.0,59.97043883750859,
,,,C,D,d,v,R,D,g,L,i,,,,,6,14,134,0,3,0,3,0,,,,,0,10,10,2,,,,,,up,0.7338941594412063,2582.9390802665134,None,001,19,2019_Oct_11_1055,ACPT_experiment_5_30_19,3.1.0,59.97043883750859,
,,,C,D,d,v,L,G,d,R,i,,,,,6,14,134,0,3,0,3,0,,,,,0,11,11,17,,,,,,up,2.885514923550545,2584.957291468889,None,001,19,2019_Oct_11_1055,ACPT_experiment_5_30_19,3.1.0,59.97043883750859,
,,,C,D,d,v,L,U,y,L,u,,,,,6,14,134,0,3,0,3,0,,,,,0,12,12,24,,,,,,down,0.9840759514991078,2589.1271152852933,None,001,19,2019_Oct_11_1055,ACPT_experiment_5_30_19,3.1.0,59.97043883750859,
,,,C,D,d,v,L,G,g,R,c ,,,,,6,14,134,0,3,0,3,0,,,,,0,13,13,19,,,,,,up,0.6671703617216735,2591.3955049593233,None,001,19,2019_Oct_11_1055,ACPT_experiment_5_30_19,3.1.0,59.97043883750859,
,,,C,D,d,v,R,G,d,L,i,,,,,6,14,134,0,3,0,3,0,,,,,0,14,14,4,,,,,,up,3.4693000077572833,2593.3469799879317,None,001,19,2019_Oct_11_1055,ACPT_experiment_5_30_19,3.1.0,59.97043883750859,
,,,C,D,d,v,L,D,g,L,i,,,,,6,14,134,0,3,0,3,0,,,,,0,15,15,14,,,,,,up,0.6171629813716208,2598.1005885866884,None,001,19,2019_Oct_11_1055,ACPT_experiment_5_30_19,3.1.0,59.97043883750859,
,,,C,D,d,v,R,G,y,R,y,,,,,6,14,134,0,3,0,3,0,,,,,0,16,16,29,,,,,,down,0.8172975482448237,2600.0020351051103,None,001,19,2019_Oct_11_1055,ACPT_experiment_5_30_19,3.1.0,59.97043883750859,
,,,C,D,d,v,R,U,g,R,u,,,,,6,14,134,0,3,0,3,0,,,,,0,17,17,11,,,,,,up,0.9674011900929145,2602.103628868307,None,001,19,2019_Oct_11_1055,ACPT_experiment_5_30_19,3.1.0,59.97043883750859,
,,,C,D,d,v,L,D,d,L,c ,,,,,6,14,134,0,3,0,3,0,,,,,0,18,18,12,,,,,,up,3.2691337461296825,2604.3553567606873,None,001,19,2019_Oct_11_1055,ACPT_experiment_5_30_19,3.1.0,59.97043883750859,
,,,C,D,d,v,R,G,y,L,y,,,,,6,14,134,0,3,0,3,0,,,,,0,19,19,28,,,,,,down,0.8006055811142687,2608.9254756703517,None,001,19,2019_Oct_11_1055,ACPT_experiment_5_30_19,3.1.0,59.97043883750859,
,,,C,D,d,v,R,D,d,L,c,,,,,6,14,134,0,3,0,3,0,,,,,0,20,20,0,,,,,,up,0.8506648804909673,2611.027063698307,None,001,19,2019_Oct_11_1055,ACPT_experiment_5_30_19,3.1.0,59.97043883750859,
,,,C,D,d,v,R,G,g,L,c ,,,,,6,14,134,0,3,0,3,0,,,,,0,21,21,6,,,,,,up,3.6694581193060003,2613.162022077057,None,001,19,2019_Oct_11_1055,ACPT_experiment_5_30_19,3.1.0,59.97043883750859,
,,,C,D,d,v,L,U,g,R,u,,,,,6,14,134,0,3,0,3,0,,,,,0,22,22,23,,,,,,up,0.7505646948807225,2618.115786674378,None,001,19,2019_Oct_11_1055,ACPT_experiment_5_30_19,3.1.0,59.97043883750859,
,,,C,D,d,v,R,D,y,R,y,,,,,6,14,134,0,3,0,3,0,,,,,0,23,23,27,,,,,,up,1.7680472197512245,2620.150662978806,None,001,19,2019_Oct_11_1055,ACPT_experiment_5_30_19,3.1.0,59.97043883750859,
,,,C,D,d,v,R,G,g,R,c ,,,,,6,14,134,0,3,0,3,0,,,,,0,24,24,7,,,,,,up,0.5504240909112923,2623.202977133593,None,001,19,2019_Oct_11_1055,ACPT_experiment_5_30_19,3.1.0,59.97043883750859,
,,,C,D,d,v,L,D,y,L,y,,,,,6,14,134,0,3,0,3,0,,,,,0,25,25,32,,,,,,down,1.0174441893100266,2625.037703778407,None,001,19,2019_Oct_11_1055,ACPT_experiment_5_30_19,3.1.0,59.97043883750859,
,,,C,D,d,v,R,D,d,R,c ,,,,,6,14,134,0,3,0,3,0,,,,,0,26,26,1,,,,,,up,0.5337650259548354,2627.3394520308943,None,001,19,2019_Oct_11_1055,ACPT_experiment_5_30_19,3.1.0,59.97043883750859,
,,,C,D,d,v,L,U,d,L,u,,,,,6,14,134,0,3,0,3,0,,,,,0,27,27,20,,,,,,up,2.7354438820216274,2629.157472823257,None,001,19,2019_Oct_11_1055,ACPT_experiment_5_30_19,3.1.0,59.97043883750859,
,,,C,D,d,v,L,D,d,R,c ,,,,,6,14,134,0,3,0,3,0,,,,,0,28,28,13,,,,,,up,0.6004522992429884,2633.177217749908,None,001,19,2019_Oct_11_1055,ACPT_experiment_5_30_19,3.1.0,59.97043883750859,
,,,C,D,d,v,R,D,g,R,i,,,,,6,14,134,0,3,0,3,0,,,,,0,29,29,3,,,,,,up,0.6338123869741139,2635.0619813568433,None,001,19,2019_Oct_11_1055,ACPT_experiment_5_30_19,3.1.0,59.97043883750859,
,,,C,D,d,v,R,D,y,L,y,,,,,6,14,134,0,3,0,3,0,,,,,0,30,30,26,,,,,,down,4.219852326591081,2636.980124672072,None,001,19,2019_Oct_11_1055,ACPT_experiment_5_30_19,3.1.0,59.97043883750859,
,,,C,D,d,v,L,U,g,L,u,,,,,6,14,134,0,3,0,3,0,,,,,0,31,31,22,,,,,,up,0.9841046277060741,2642.4842566116013,None,001,19,2019_Oct_11_1055,ACPT_experiment_5_30_19,3.1.0,59.97043883750859,
,,,C,D,d,v,L,G,g,L,c ,,,,,6,14,134,0,3,0,3,0,,,,,0,32,32,18,,,,,,up,14.227468425232473,2644.75267133958,None,001,19,2019_Oct_11_1055,ACPT_experiment_5_30_19,3.1.0,59.97043883750859,
,,,C,D,d,v,R,U,d,L,u,,,,,6,14,134,0,3,0,3,0,,,,,0,33,33,8,,,,,,up,0.7672500212052,2660.2644462428284,None,001,19,2019_Oct_11_1055,ACPT_experiment_5_30_19,3.1.0,59.97043883750859,
,,,C,D,d,v,R,G,d,R,i,,,,,6,14,134,0,3,0,3,0,,,,,0,34,34,5,,,,,,up,0.867338736333295,2662.316010288419,None,001,19,2019_Oct_11_1055,ACPT_experiment_5_30_19,3.1.0,59.97043883750859,
,,,C,D,d,v,R,U,d,R,u,,,,,6,14,134,0,3,0,3,0,,,,,0,35,35,9,,,,,,up,1.8180524871177113,2664.467634674786,None,001,19,2019_Oct_11_1055,ACPT_experiment_5_30_19,3.1.0,59.97043883750859,
,,,C,D,d,v,R,U,d,R,u,,,,,6,14,134,0,3,0,3,0,,,,,1,0,36,9,,,,,,up,3.2858257132602375,2667.5533065024656,None,001,19,2019_Oct_11_1055,ACPT_experiment_5_30_19,3.1.0,59.97043883750859,
,,,C,D,d,v,L,G,d,R,i,,,,,6,14,134,0,3,0,3,0,,,,,1,1,37,17,,,,,,up,0.8172848703429736,2672.1234489568046,None,001,19,2019_Oct_11_1055,ACPT_experiment_5_30_19,3.1.0,59.97043883750859,
,,,C,D,d,v,R,G,g,R,c ,,,,,6,14,134,0,3,0,3,0,,,,,1,2,38,7,,,,,,up,0.884008366208036,2674.225040305163,None,001,19,2019_Oct_11_1055,ACPT_experiment_5_30_19,3.1.0,59.97043883750859,
,,,C,D,d,v,L,G,g,L,c ,,,,,6,14,134,0,3,0,3,0,,,,,1,3,39,18,,,,,,up,3.6360941074622133,2676.3933563568057,None,001,19,2019_Oct_11_1055,ACPT_experiment_5_30_19,3.1.0,59.97043883750859,
,,,C,D,d,v,L,D,g,L,i,,,,,6,14,134,0,3,0,3,0,,,,,1,4,40,14,,,,,,up,0.6170192984836831,2681.313758753412,None,001,19,2019_Oct_11_1055,ACPT_experiment_5_30_19,3.1.0,59.97043883750859,
,,,C,D,d,v,L,U,d,R,u,,,,,6,14,134,0,3,0,3,0,,,,,1,5,41,21,,,,,,up,1.4511038981227102,2683.2152010458663,None,001,19,2019_Oct_11_1055,ACPT_experiment_5_30_19,3.1.0,59.97043883750859,
,,,C,D,d,v,L,G,y,L,y,,,,,6,14,134,0,3,0,3,0,,,,,1,6,42,34,,,,,,up,2.935551281962489,2685.9672928242167,None,001,19,2019_Oct_11_1055,ACPT_experiment_5_30_19,3.1.0,59.97043883750859,
,,,C,D,d,v,L,D,d,L,c ,,,,,6,14,134,0,3,0,3,0,,,,,1,7,43,12,,,,,,up,0.46700892977059993,2690.20384224947,None,001,19,2019_Oct_11_1055,ACPT_experiment_5_30_19,3.1.0,59.97043883750859,
,,,C,D,d,v,L,G,y,R,y,,,,,6,14,134,0,3,0,3,0,,,,,1,8,44,35,,,,,,up,9.236757114194916e-05,2691.97184479471,None,001,19,2019_Oct_11_1055,ACPT_experiment_5_30_19,3.1.0,59.97043883750859,
,,,C,D,d,v,L,D,y,L,y,,,,,6,14,134,0,3,0,3,0,,,,,1,9,45,32,,,,,,up,0.0833735051774056,2693.2561606302243,None,001,19,2019_Oct_11_1055,ACPT_experiment_5_30_19,3.1.0,59.97043883750859,
,,,C,D,d,v,L,U,g,R,u,,,,,6,14,134,0,3,0,3,0,,,,,1,10,46,23,,,,,,up,8.844345893521677e-05,2694.657235716306,None,001,19,2019_Oct_11_1055,ACPT_experiment_5_30_19,3.1.0,59.97043883750859,
,,,C,D,d,v,R,G,d,L,i,,,,,6,14,134,0,3,0,3,0,,,,,1,11,47,4,,,,,,up,0.016830518486585788,2695.9582127297604,None,001,19,2019_Oct_11_1055,ACPT_experiment_5_30_19,3.1.0,59.97043883750859,
,,,C,D,d,v,R,U,y,R,u,,,,,6,14,134,0,3,0,3,0,,,,,1,12,48,31,,,,,,up,0.00010685660208764602,2697.259169820798,None,001,19,2019_Oct_11_1055,ACPT_experiment_5_30_19,3.1.0,59.97043883750859,
,,,C,D,d,v,R,U,g,L,u,,,,,6,14,134,0,3,0,3,0,,,,,1,13,49,10,,,,,,up,0.08335901614645991,2698.5435152380833,None,001,19,2019_Oct_11_1055,ACPT_experiment_5_30_19,3.1.0,59.97043883750859,
,,,C,D,d,v,R,U,g,R,u,,,,,6,14,134,0,3,0,3,0,,,,,1,14,50,11,,,,,,up,0.5170585697937895,2699.9112066917587,None,001,19,2019_Oct_11_1055,ACPT_experiment_5_30_19,3.1.0,59.97043883750859,
,,,C,D,d,v,L,U,y,R,u,,,,,6,14,134,0,3,0,3,0,,,,,1,15,51,25,,,,,,up,0.14992916976962078,2701.7294040691836,None,001,19,2019_Oct_11_1055,ACPT_experiment_5_30_19,3.1.0,59.97043883750859,
,,,C,D,d,v,R,U,d,L,u,,,,,6,14,134,0,3,0,3,0,,,,,1,16,52,8,,,,,,up,9.266942561225733e-05,2703.2139543855124,None,001,19,2019_Oct_11_1055,ACPT_experiment_5_30_19,3.1.0,59.97043883750859,
,,,C,D,d,v,R,U,y,L,u,,,,,6,14,134,0,3,0,3,0,,,,,1,17,53,30,,,,,,up,0.08310908036628462,2704.5149501139654,None,001,19,2019_Oct_11_1055,ACPT_experiment_5_30_19,3.1.0,59.97043883750859,
,,,C,D,d,v,R,D,d,R,c ,,,,,6,14,134,0,3,0,3,0,,,,,1,18,54,1,,,,,,up,0.1000413239230511,2705.8824052153263,None,001,19,2019_Oct_11_1055,ACPT_experiment_5_30_19,3.1.0,59.97043883750859,
,,,C,D,d,v,R,D,g,L,i,,,,,6,14,134,0,3,0,3,0,,,,,1,19,55,2,,,,,,up,0.06670840312472137,2707.250095159728,None,001,19,2019_Oct_11_1055,ACPT_experiment_5_30_19,3.1.0,59.97043883750859,
,,,C,D,d,v,R,D,d,L,c,,,,,6,14,134,0,3,0,3,0,,,,,1,20,56,0,,,,,,up,4.303290428696982,2708.5844367887357,None,001,19,2019_Oct_11_1055,ACPT_experiment_5_30_19,3.1.0,59.97043883750859,
,,,C,D,d,v,L,G,g,R,c ,,,,,6,14,134,0,3,0,3,0,,,,,1,21,57,19,,,,,,up,0.31681714631895375,2714.1720330917387,None,001,19,2019_Oct_11_1055,ACPT_experiment_5_30_19,3.1.0,59.97043883750859,
,,,C,D,d,v,R,D,y,L,y,,,,,6,14,134,0,3,0,3,0,,,,,1,22,58,26,,,,,,up,0.4503257164296883,2715.773247876225,None,001,19,2019_Oct_11_1055,ACPT_experiment_5_30_19,3.1.0,59.97043883750859,
,,,C,D,d,v,L,D,d,R,c ,,,,,6,14,134,0,3,0,3,0,,,,,1,23,59,13,,,,,,up,6.429507402572199e-05,2717.507902407926,None,001,19,2019_Oct_11_1055,ACPT_experiment_5_30_19,3.1.0,59.97043883750859,
,,,C,D,d,v,L,U,d,L,u,,,,,6,14,134,0,3,0,3,0,,,,,1,24,60,20,,,,,,up,0.06640926501086142,2718.8091704094145,None,001,19,2019_Oct_11_1055,ACPT_experiment_5_30_19,3.1.0,59.97043883750859,
,,,C,D,d,v,L,D,y,R,y,,,,,6,14,134,0,3,0,3,0,,,,,1,25,61,33,,,,,,up,0.11625817158710561,2720.177044485248,None,001,19,2019_Oct_11_1055,ACPT_experiment_5_30_19,3.1.0,59.97043883750859,
,,,C,D,d,v,R,D,g,R,i,,,,,6,14,134,0,3,0,3,0,,,,,1,26,62,3,,,,,,up,3.8862668438755463,2721.577657129765,None,001,19,2019_Oct_11_1055,ACPT_experiment_5_30_19,3.1.0,59.97043883750859,
,,,C,D,d,v,L,U,y,L,u,,,,,6,14,134,0,3,0,3,0,,,,,1,27,63,24,,,,,,up,0.06671111981813738,2726.748253996331,None,001,19,2019_Oct_11_1055,ACPT_experiment_5_30_19,3.1.0,59.97043883750859,
,,,C,D,d,v,R,G,y,R,y,,,,,6,14,134,0,3,0,3,0,,,,,1,28,64,29,,,,,,up,0.033348013538670784,2728.115952392667,None,001,19,2019_Oct_11_1055,ACPT_experiment_5_30_19,3.1.0,59.97043883750859,
,,,C,D,d,v,L,D,g,R,i,,,,,6,14,134,0,3,0,3,0,,,,,1,29,65,15,,,,,,up,0.18348425570593463,2729.4503027754645,None,001,19,2019_Oct_11_1055,ACPT_experiment_5_30_19,3.1.0,59.97043883750859,
,,,C,D,d,v,R,G,g,L,c ,,,,,6,14,134,0,3,0,3,0,,,,,1,30,66,6,,,,,,up,0.04973269247557255,2730.9183552173035,None,001,19,2019_Oct_11_1055,ACPT_experiment_5_30_19,3.1.0,59.97043883750859,
,,,C,D,d,v,L,U,g,L,u,,,,,6,14,134,0,3,0,3,0,,,,,1,31,67,22,,,,,,up,0.4503036810287995,2732.235752830417,None,001,19,2019_Oct_11_1055,ACPT_experiment_5_30_19,3.1.0,59.97043883750859,
,,,C,D,d,v,R,D,y,R,y,,,,,6,14,134,0,3,0,3,0,,,,,1,32,68,27,,,,,,up,0.3168929118755841,2733.987076388283,None,001,19,2019_Oct_11_1055,ACPT_experiment_5_30_19,3.1.0,59.97043883750859,
,,,C,D,d,v,R,G,y,L,y,,,,,6,14,134,0,3,0,3,0,,,,,1,33,69,28,,,,,,up,1.6512420872536495,2735.6049734805456,None,001,19,2019_Oct_11_1055,ACPT_experiment_5_30_19,3.1.0,59.97043883750859,
,,,C,D,d,v,R,G,d,R,i,,,,,6,14,134,0,3,0,3,0,,,,,1,34,70,5,,,,,,up,0.06668998998156894,2738.5405320070236,None,001,19,2019_Oct_11_1055,ACPT_experiment_5_30_19,3.1.0,59.97043883750859,
,,,C,D,d,v,L,G,d,L,i,,,,,6,14,134,0,3,0,3,0,,,,,1,35,71,16,,,,,,up,0.10003951279441026,2739.891557453082,None,001,19,2019_Oct_11_1055,ACPT_experiment_5_30_19,3.1.0,59.97043883750859,
,,,C,D,d,v,,,,,,,,,,6,14,134,0,4,0,4,0,0,0,0,0,,,,,,,,,,,,,,001,19,2019_Oct_11_1055,ACPT_experiment_5_30_19,3.1.0,59.97043883750859,
,,,C,D,d,v,L,D,y,L,y,,,,,6,14,134,0,4,0,4,0,,,,,0,0,0,32,,,,,,up,0.04974537037742266,2743.5781047804444,None,001,19,2019_Oct_11_1055,ACPT_experiment_5_30_19,3.1.0,59.97043883750859,
,,,C,D,d,v,L,G,y,L,y,,,,,6,14,134,0,4,0,4,0,,,,,0,1,1,34,,,,,,up,0.03043994432573527,2744.932047049505,None,001,19,2019_Oct_11_1055,ACPT_experiment_5_30_19,3.1.0,59.97043883750859,
,,,C,D,d,v,L,U,d,L,u,,,,,6,14,134,0,4,0,4,0,,,,,0,2,2,20,,,,,,up,0.083069537386109,2746.263342057943,None,001,19,2019_Oct_11_1055,ACPT_experiment_5_30_19,3.1.0,59.97043883750859,
,,,C,D,d,v,L,U,d,R,u,,,,,6,14,134,0,4,0,4,0,,,,,0,3,3,21,,,,,,up,0.01681995356830157,2747.6140946272562,None,001,19,2019_Oct_11_1055,ACPT_experiment_5_30_19,3.1.0,59.97043883750859,
,,,C,D,d,v,L,D,g,L,i,,,,,6,14,134,0,4,0,4,0,,,,,0,4,4,14,,,,,,up,0.033331713379538996,2748.9150782815163,None,001,19,2019_Oct_11_1055,ACPT_experiment_5_30_19,3.1.0,59.97043883750859,
,,,C,D,d,v,L,G,g,R,c ,,,,,6,14,134,0,4,0,4,0,,,,,0,5,5,19,,,,,,up,0.11673208363390586,2750.2327430361343,None,001,19,2019_Oct_11_1055,ACPT_experiment_5_30_19,3.1.0,59.97043883750859,
,,,C,D,d,v,R,D,y,L,y,,,,,6,14,134,0,4,0,4,0,,,,,0,6,6,26,,,,,,up,0.08337410888680097,2751.6338099721356,None,001,19,2019_Oct_11_1055,ACPT_experiment_5_30_19,3.1.0,59.97043883750859,
,,,C,D,d,v,L,D,y,R,y,,,,,6,14,134,0,4,0,4,0,,,,,0,7,7,33,,,,,,up,0.2498735982994731,2753.0184735142025,None,001,19,2019_Oct_11_1055,ACPT_experiment_5_30_19,3.1.0,59.97043883750859,
,,,C,D,d,v,L,D,d,L,c ,,,,,6,14,134,0,4,0,4,0,,,,,0,8,8,12,,,,,,up,0.016713700676518783,2754.536013240559,None,001,19,2019_Oct_11_1055,ACPT_experiment_5_30_19,3.1.0,59.97043883750859,
,,,C,D,d,v,L,G,g,L,c ,,,,,6,14,134,0,4,0,4,0,,,,,0,9,9,18,,,,,,up,0.48370119875608,2755.8370017244965,None,001,19,2019_Oct_11_1055,ACPT_experiment_5_30_19,3.1.0,59.97043883750859,
,,,C,D,d,v,R,G,d,L,i,,,,,6,14,134,0,4,0,4,0,,,,,0,10,10,4,,,,,,up,2.3517695181581075,2757.6050106086873,None,001,19,2019_Oct_11_1055,ACPT_experiment_5_30_19,3.1.0,59.97043883750859,
,,,C,D,d,v,R,D,g,L,i,,,,,6,14,134,0,4,0,4,0,,,,,0,11,11,2,,,,,,up,0.13339869496121537,2761.241100490182,None,001,19,2019_Oct_11_1055,ACPT_experiment_5_30_19,3.1.0,59.97043883750859,
,,,C,D,d,v,L,D,g,R,i,,,,,6,14,134,0,4,0,4,0,,,,,0,12,12,15,,,,,,up,8.389707837750393,2762.6588455079927,None,001,19,2019_Oct_11_1055,ACPT_experiment_5_30_19,3.1.0,59.97043883750859,
,,,C,D,d,v,R,D,y,R,y,,,,,6,14,134,0,4,0,4,0,,,,,0,13,13,27,,,,,,up,6.912475100762094e-05,2772.3328558996463,None,001,19,2019_Oct_11_1055,ACPT_experiment_5_30_19,3.1.0,59.97043883750859,
,,,C,D,d,v,R,U,g,R,u,,,,,6,14,134,0,4,0,4,0,,,,,0,14,14,11,,,,,,up,0.10004072021365573,2773.617168716613,None,001,19,2019_Oct_11_1055,ACPT_experiment_5_30_19,3.1.0,59.97043883750859,
,,,C,D,d,v,R,U,d,R,u,,,,,6,14,134,0,4,0,4,0,,,,,0,15,15,9,,,,,,up,16.679326658518676,2775.001551533709,None,001,19,2019_Oct_11_1055,ACPT_experiment_5_30_19,3.1.0,59.97043883750859,
,,,C,D,d,v,R,G,g,R,c ,,,,,6,14,134,0,4,0,4,0,,,,,0,16,16,7,,,,,,up,7.805929394349278,2792.965187990646,None,001,19,2019_Oct_11_1055,ACPT_experiment_5_30_19,3.1.0,59.97043883750859,
,,,C,D,d,v,R,D,d,L,c,,,,,6,14,134,0,4,0,4,0,,,,,0,17,17,0,,,,,,up,31.373932301814875,2802.0554232593013,None,001,19,2019_Oct_11_1055,ACPT_experiment_5_30_19,3.1.0,59.97043883750859,
,,,C,D,d,v,L,U,g,L,u,,,,,6,14,134,0,4,0,4,0,,,,,0,18,18,22,,,,,,up,0.0001750757883201004,2834.7135452213215,None,001,19,2019_Oct_11_1055,ACPT_experiment_5_30_19,3.1.0,59.97043883750859,
,,,C,D,d,v,L,U,y,R,u,,,,,6,14,134,0,4,0,4,0,,,,,0,19,19,25,,,,,,up,9.123602902756375,2835.9978399269994,None,001,19,2019_Oct_11_1055,ACPT_experiment_5_30_19,3.1.0,59.97043883750859,
,,,C,D,d,v,R,U,g,L,u,,,,,6,14,134,0,4,0,4,0,,,,,0,20,20,10,,,,,,up,6.671737123100229,2846.4224325211126,None,001,19,2019_Oct_11_1055,ACPT_experiment_5_30_19,3.1.0,59.97043883750859,
,,,C,D,d,v,R,D,d,R,c ,,,,,6,14,134,0,4,0,4,0,,,,,0,21,21,1,,,,,,up,0.5003771675815187,2854.37847310368,None,001,19,2019_Oct_11_1055,ACPT_experiment_5_30_19,3.1.0,59.97043883750859,
,,,C,D,d,v,L,G,y,R,y,,,,,6,14,134,0,4,0,4,0,,,,,0,22,22,35,,,,,,up,5.5041738973468455,2856.179843283021,None,001,19,2019_Oct_11_1055,ACPT_experiment_5_30_19,3.1.0,59.97043883750859,
,,,C,D,d,v,R,U,d,L,u,,,,,6,14,134,0,4,0,4,0,,,,,0,23,23,8,,,,,,up,0.5504458244572561,2862.984992080839,None,001,19,2019_Oct_11_1055,ACPT_experiment_5_30_19,3.1.0,59.97043883750859,
,,,C,D,d,v,L,D,d,R,c ,,,,,6,14,134,0,4,0,4,0,,,,,0,24,24,13,,,,,,up,17.79686892045538,2864.8197344221035,None,001,19,2019_Oct_11_1055,ACPT_experiment_5_30_19,3.1.0,59.97043883750859,
,,,C,D,d,v,R,G,y,L,y,,,,,6,14,134,0,4,0,4,0,,,,,0,25,25,28,,,,,,up,27.887847657501425,2883.90088567219,None,001,19,2019_Oct_11_1055,ACPT_experiment_5_30_19,3.1.0,59.97043883750859,
,,,C,D,d,v,L,U,g,R,u,,,,,6,14,134,0,4,0,4,0,,,,,0,26,26,23,,,,,,up,0.8006067885335142,2913.073029846498,None,001,19,2019_Oct_11_1055,ACPT_experiment_5_30_19,3.1.0,59.97043883750859,
,,,C,D,d,v,R,G,d,R,i,,,,,6,14,134,0,4,0,4,0,,,,,0,27,27,5,,,,,,down,7.439004651884716,2915.1579464334495,None,001,19,2019_Oct_11_1055,ACPT_experiment_5_30_19,3.1.0,59.97043883750859,
,,,C,D,d,v,R,U,y,R,u,,,,,6,14,134,0,4,0,4,0,,,,,0,28,28,31,,,,,,up,0.6170899325084065,2923.881244583593,None,001,19,2019_Oct_11_1055,ACPT_experiment_5_30_19,3.1.0,59.97043883750859,
,,,C,D,d,v,L,G,d,R,i,,,,,6,14,134,0,4,0,4,0,,,,,0,29,29,17,,,,,,up,6.838534845062441,2925.782665142501,None,001,19,2019_Oct_11_1055,ACPT_experiment_5_30_19,3.1.0,59.97043883750859,
,,,C,D,d,v,R,G,g,L,c ,,,,,6,14,134,0,4,0,4,0,,,,,0,30,30,6,,,,,,up,0.8172833610688031,2933.9055070692884,None,001,19,2019_Oct_11_1055,ACPT_experiment_5_30_19,3.1.0,59.97043883750859,
,,,C,D,d,v,L,U,y,L,u,,,,,6,14,134,0,4,0,4,0,,,,,0,31,31,24,,,,,,up,2.018181318749612,2936.0071255845796,None,001,19,2019_Oct_11_1055,ACPT_experiment_5_30_19,3.1.0,59.97043883750859,
,,,C,D,d,v,R,D,g,R,i,,,,,6,14,134,0,4,0,4,0,,,,,0,32,32,3,,,,,,up,28.3715748157706,2939.309588931105,None,001,19,2019_Oct_11_1055,ACPT_experiment_5_30_19,3.1.0,59.97043883750859,
,,,C,D,d,v,R,U,y,L,u,,,,,6,14,134,0,4,0,4,0,,,,,0,33,33,30,,,,,,up,24.685424427479575,2968.965443057958,None,001,19,2019_Oct_11_1055,ACPT_experiment_5_30_19,3.1.0,59.97043883750859,
,,,C,D,d,v,R,G,y,R,y,,,,,6,14,134,0,4,0,4,0,,,,,0,34,34,29,,,,,,up,0.633804840603716,2994.951858384213,None,001,19,2019_Oct_11_1055,ACPT_experiment_5_30_19,3.1.0,59.97043883750859,
,,,C,D,d,v,L,G,d,L,i,,,,,6,14,134,0,4,0,4,0,,,,,0,35,35,16,,,,,,up,3.1690803480141767,2996.886659255125,None,001,19,2019_Oct_11_1055,ACPT_experiment_5_30_19,3.1.0,59.97043883750859,
,,,C,D,d,v,L,G,d,L,i,,,,,6,14,134,0,4,0,4,0,,,,,1,0,36,16,,,,,,up,0.46701858912456373,3001.3400382329296,None,001,19,2019_Oct_11_1055,ACPT_experiment_5_30_19,3.1.0,59.97043883750859,
,,,C,D,d,v,L,G,y,L,y,,,,,6,14,134,0,4,0,4,0,,,,,1,1,37,34,,,,,,up,5.8544652325140305,3003.091367827892,None,001,19,2019_Oct_11_1055,ACPT_experiment_5_30_19,3.1.0,59.97043883750859,
,,,C,D,d,v,L,U,d,L,u,,,,,6,14,134,0,4,0,4,0,,,,,1,2,38,20,,,,,,up,2.185024922642242,3010.230124747536,None,001,19,2019_Oct_11_1055,ACPT_experiment_5_30_19,3.1.0,59.97043883750859,
,,,C,D,d,v,L,G,g,R,c ,,,,,6,14,134,0,4,0,4,0,,,,,1,3,39,19,,,,,,up,12.109206239580544,3013.699419321907,None,001,19,2019_Oct_11_1055,ACPT_experiment_5_30_19,3.1.0,59.97043883750859,
,,,C,D,d,v,R,G,g,L,c ,,,,,6,14,134,0,4,0,4,0,,,,,1,4,40,6,,,,,,up,8.573203262084462,3027.076243996485,None,001,19,2019_Oct_11_1055,ACPT_experiment_5_30_19,3.1.0,59.97043883750859,
,,,C,D,d,v,R,U,d,R,u,,,,,6,14,134,0,4,0,4,0,,,,,1,5,41,9,,,,,,up,0.550418657524915,3036.933722947395,None,001,19,2019_Oct_11_1055,ACPT_experiment_5_30_19,3.1.0,59.97043883750859,
,,,C,D,d,v,R,G,y,R,y,,,,,6,14,134,0,4,0,4,0,,,,,1,6,42,29,,,,,,up,9.290419943426514,3038.7684538181766,None,001,19,2019_Oct_11_1055,ACPT_experiment_5_30_19,3.1.0,59.97043883750859,
,,,C,D,d,v,L,D,y,R,y,,,,,6,14,134,0,4,0,4,0,,,,,1,7,43,33,,,,,,up,11.525416929405765,3049.343150959702,None,001,19,2019_Oct_11_1055,ACPT_experiment_5_30_19,3.1.0,59.97043883750859,
,,,C,D,d,v,R,D,d,L,c,,,,,6,14,134,0,4,0,4,0,,,,,1,8,44,0,,,,,,up,0.500402523385219,3062.1528728578496,None,001,19,2019_Oct_11_1055,ACPT_experiment_5_30_19,3.1.0,59.97043883750859,
,,,C,D,d,v,L,D,d,L,c ,,,,,6,14,134,0,4,0,4,0,,,,,1,9,45,12,,,,,,up,0.4337472467068437,3063.9208639326066,None,001,19,2019_Oct_11_1055,ACPT_experiment_5_30_19,3.1.0,59.97043883750859,
,,,C,D,d,v,R,D,g,R,i,,,,,6,14,134,0,4,0,4,0,,,,,1,10,46,3,,,,,,up,0.583779952675286,3065.6388512492713,None,001,19,2019_Oct_11_1055,ACPT_experiment_5_30_19,3.1.0,59.97043883750859,
,,,C,D,d,v,R,U,g,R,u,,,,,6,14,134,0,4,0,4,0,,,,,1,11,47,11,,,,,,up,0.5668142032345713,3067.5239064479506,None,001,19,2019_Oct_11_1055,ACPT_experiment_5_30_19,3.1.0,59.97043883750859,
,,,C,D,d,v,R,G,d,R,i,,,,,6,14,134,0,4,0,4,0,,,,,1,12,48,5,,,,,,up,0.13345695293901372,3069.375024714362,None,001,19,2019_Oct_11_1055,ACPT_experiment_5_30_19,3.1.0,59.97043883750859,
,,,C,D,d,v,L,U,y,R,u,,,,,6,14,134,0,4,0,4,0,,,,,1,13,49,25,,,,,,up,0.05003092502511208,3070.7927691284635,None,001,19,2019_Oct_11_1055,ACPT_experiment_5_30_19,3.1.0,59.97043883750859,
,,,C,D,d,v,R,G,y,L,y,,,,,6,14,134,0,4,0,4,0,,,,,1,14,50,28,,,,,,up,0.5001848860692917,3072.14394640749,None,001,19,2019_Oct_11_1055,ACPT_experiment_5_30_19,3.1.0,59.97043883750859,
,,,C,D,d,v,L,U,y,L,u,,,,,6,14,134,0,4,0,4,0,,,,,1,15,51,24,,,,,,up,0.30019762434221775,3073.978541141754,None,001,19,2019_Oct_11_1055,ACPT_experiment_5_30_19,3.1.0,59.97043883750859,
,,,C,D,d,v,L,D,g,R,i,,,,,6,14,134,0,4,0,4,0,,,,,1,16,52,15,,,,,,up,0.03333624120114109,3075.563061846126,None,001,19,2019_Oct_11_1055,ACPT_experiment_5_30_19,3.1.0,59.97043883750859,
,,,C,D,d,v,L,U,g,R,u,,,,,6,14,134,0,4,0,4,0,,,,,1,17,53,23,,,,,,up,0.11670944452407639,3076.8807262988885,None,001,19,2019_Oct_11_1055,ACPT_experiment_5_30_19,3.1.0,59.97043883750859,
,,,C,D,d,v,R,D,g,L,i,,,,,6,14,134,0,4,0,4,0,,,,,1,18,54,2,,,,,,up,0.1167363096014924,3078.2817911219067,None,001,19,2019_Oct_11_1055,ACPT_experiment_5_30_19,3.1.0,59.97043883750859,
,,,C,D,d,v,L,U,d,R,u,,,,,6,14,134,0,4,0,4,0,,,,,1,19,55,21,,,,,,up,0.08335479017932812,3079.6828499078288,None,001,19,2019_Oct_11_1055,ACPT_experiment_5_30_19,3.1.0,59.97043883750859,
,,,C,D,d,v,L,G,g,L,c ,,,,,6,14,134,0,4,0,4,0,,,,,1,20,56,18,,,,,,up,0.09670160233599745,3081.0705621834486,None,001,19,2019_Oct_11_1055,ACPT_experiment_5_30_19,3.1.0,59.97043883750859,
,,,C,D,d,v,R,G,d,L,i,,,,,6,14,134,0,4,0,4,0,,,,,1,21,57,4,,,,,,up,0.050026699057980295,3082.451615843876,None,001,19,2019_Oct_11_1055,ACPT_experiment_5_30_19,3.1.0,59.97043883750859,
,,,C,D,d,v,L,D,y,L,y,,,,,6,14,134,0,4,0,4,0,,,,,1,22,58,32,,,,,,up,0.06667731207971883,3083.8026494400137,None,001,19,2019_Oct_11_1055,ACPT_experiment_5_30_19,3.1.0,59.97043883750859,
,,,C,D,d,v,R,U,y,L,u,,,,,6,14,134,0,4,0,4,0,,,,,1,23,59,30,,,,,,up,0.1500800971730314,3085.170349043769,None,001,19,2019_Oct_11_1055,ACPT_experiment_5_30_19,3.1.0,59.97043883750859,
,,,C,D,d,v,R,U,g,L,u,,,,,6,14,134,0,4,0,4,0,,,,,1,24,60,10,,,,,,up,0.06670991239843715,3086.604771841535,None,001,19,2019_Oct_11_1055,ACPT_experiment_5_30_19,3.1.0,59.97043883750859,
,,,C,D,d,v,L,D,g,L,i,,,,,6,14,134,0,4,0,4,0,,,,,1,25,61,14,,,,,,up,0.09976271193590946,3087.956069862484,None,001,19,2019_Oct_11_1055,ACPT_experiment_5_30_19,3.1.0,59.97043883750859,
,,,C,D,d,v,L,G,y,R,y,,,,,6,14,134,0,4,0,4,0,,,,,1,26,62,35,,,,,,up,0.38359497604915305,3089.340182519528,None,001,19,2019_Oct_11_1055,ACPT_experiment_5_30_19,3.1.0,59.97043883750859,
,,,C,D,d,v,L,U,g,L,u,,,,,6,14,134,0,4,0,4,0,,,,,1,27,63,22,,,,,,up,0.033309677978195396,3091.008135892619,None,001,19,2019_Oct_11_1055,ACPT_experiment_5_30_19,3.1.0,59.97043883750859,
,,,C,D,d,v,R,G,g,R,c ,,,,,6,14,134,0,4,0,4,0,,,,,1,28,64,7,,,,,,up,0.03336370998840721,3092.3257843470774,None,001,19,2019_Oct_11_1055,ACPT_experiment_5_30_19,3.1.0,59.97043883750859,
,,,C,D,d,v,L,G,d,R,i,,,,,6,14,134,0,4,0,4,0,,,,,1,29,65,17,,,,,,up,0.01664789632877728,3093.6434515165333,None,001,19,2019_Oct_11_1055,ACPT_experiment_5_30_19,3.1.0,59.97043883750859,
,,,C,D,d,v,L,D,d,R,c ,,,,,6,14,134,0,4,0,4,0,,,,,1,30,66,13,,,,,,up,0.08310153399588671,3094.9613915627356,None,001,19,2019_Oct_11_1055,ACPT_experiment_5_30_19,3.1.0,59.97043883750859,
,,,C,D,d,v,R,D,y,L,y,,,,,6,14,134,0,4,0,4,0,,,,,1,31,67,26,,,,,,up,0.18344531643606388,3096.328823119422,None,001,19,2019_Oct_11_1055,ACPT_experiment_5_30_19,3.1.0,59.97043883750859,
,,,C,D,d,v,R,U,y,R,u,,,,,6,14,134,0,4,0,4,0,,,,,1,32,68,31,,,,,,up,0.45033296094470643,3097.7966057030635,None,001,19,2019_Oct_11_1055,ACPT_experiment_5_30_19,3.1.0,59.97043883750859,
,,,C,D,d,v,R,U,d,L,u,,,,,6,14,134,0,4,0,4,0,,,,,1,33,69,8,,,,,,up,0.4003304102720904,3099.5145471377973,None,001,19,2019_Oct_11_1055,ACPT_experiment_5_30_19,3.1.0,59.97043883750859,
,,,C,D,d,v,R,D,y,R,y,,,,,6,14,134,0,4,0,4,0,,,,,1,34,70,27,,,,,,up,0.15011088636310888,3101.199187044633,None,001,19,2019_Oct_11_1055,ACPT_experiment_5_30_19,3.1.0,59.97043883750859,
,,,C,D,d,v,R,D,d,R,c ,,,,,6,14,134,0,4,0,4,0,,,,,1,35,71,1,,,,,,up,0.10006788714599679,3102.6169281383313,None,001,19,2019_Oct_11_1055,ACPT_experiment_5_30_19,3.1.0,59.97043883750859,
,,,C,D,d,v,,,,,,,,,,6,14,134,0,5,0,5,0,0,0,0,0,,,,,,,,,,,,,,001,19,2019_Oct_11_1055,ACPT_experiment_5_30_19,3.1.0,59.97043883750859,
,,,C,D,d,v,L,D,g,L,i,,,,,6,14,134,0,5,0,5,0,,,,,0,0,0,14,,,,,,up,1.117250066483848,3152.338288984322,None,001,19,2019_Oct_11_1055,ACPT_experiment_5_30_19,3.1.0,59.97043883750859,
,,,C,D,d,v,R,G,g,L,c ,,,,,6,14,134,0,5,0,5,0,,,,,0,1,1,6,,,,,,up,0.016798823732187884,3154.739844019547,None,001,19,2019_Oct_11_1055,ACPT_experiment_5_30_19,3.1.0,59.97043883750859,
,,,C,D,d,v,L,U,d,L,u,,,,,6,14,134,0,5,0,5,0,,,,,0,2,2,20,,,,,,up,0.0667120253824578,3156.0408297867907,None,001,19,2019_Oct_11_1055,ACPT_experiment_5_30_19,3.1.0,59.97043883750859,
,,,C,D,d,v,R,G,y,R,y,,,,,6,14,134,0,5,0,5,0,,,,,0,3,3,29,,,,,,up,0.050017341558486805,3157.4085390499,None,001,19,2019_Oct_11_1055,ACPT_experiment_5_30_19,3.1.0,59.97043883750859,
,,,C,D,d,v,R,G,g,R,c ,,,,,6,14,134,0,5,0,5,0,,,,,0,4,4,7,,,,,,up,0.030416097796205577,3158.7628921433534,None,001,19,2019_Oct_11_1055,ACPT_experiment_5_30_19,3.1.0,59.97043883750859,
,,,C,D,d,v,L,G,y,R,y,,,,,6,14,134,0,5,0,5,0,,,,,0,5,5,35,,,,,,up,6.489878342108568e-05,3160.094183831389,None,001,19,2019_Oct_11_1055,ACPT_experiment_5_30_19,3.1.0,59.97043883750859,
,,,C,D,d,v,R,D,d,R,c ,,,,,6,14,134,0,5,0,5,0,,,,,0,6,6,1,,,,,,up,0.04975714271495235,3161.3951369983133,None,001,19,2019_Oct_11_1055,ACPT_experiment_5_30_19,3.1.0,59.97043883750859,
,,,C,D,d,v,L,D,y,L,y,,,,,6,14,134,0,5,0,5,0,,,,,0,7,7,32,,,,,,up,0.15011873458843183,3162.74592307351,None,001,19,2019_Oct_11_1055,ACPT_experiment_5_30_19,3.1.0,59.97043883750859,
,,,C,D,d,v,L,G,d,L,i,,,,,6,14,134,0,5,0,5,0,,,,,0,8,8,16,,,,,,up,0.00019680933428389835,3164.2137056571514,None,001,19,2019_Oct_11_1055,ACPT_experiment_5_30_19,3.1.0,59.97043883750859,
,,,C,D,d,v,L,U,g,L,u,,,,,6,14,134,0,5,0,5,0,,,,,0,9,9,22,,,,,,up,0.15007738047961539,3165.498021492666,None,001,19,2019_Oct_11_1055,ACPT_experiment_5_30_19,3.1.0,59.97043883750859,
,,,C,D,d,v,L,G,g,R,c ,,,,,6,14,134,0,5,0,5,0,,,,,0,10,10,19,,,,,,up,0.266864703543888,3166.9324313106745,None,001,19,2019_Oct_11_1055,ACPT_experiment_5_30_19,3.1.0,59.97043883750859,
,,,C,D,d,v,R,U,g,R,u,,,,,6,14,134,0,5,0,5,0,,,,,0,11,11,11,,,,,,up,0.09960121961421464,3168.500702265209,None,001,19,2019_Oct_11_1055,ACPT_experiment_5_30_19,3.1.0,59.97043883750859,
,,,C,D,d,v,R,U,y,R,u,,,,,6,14,134,0,5,0,5,0,,,,,0,12,12,31,,,,,,up,0.11675411903524946,3169.8846733523483,None,001,19,2019_Oct_11_1055,ACPT_experiment_5_30_19,3.1.0,59.97043883750859,
,,,C,D,d,v,L,G,d,R,i,,,,,6,14,134,0,5,0,5,0,,,,,0,13,13,17,,,,,,up,0.15010092515467477,3171.2857170455295,None,001,19,2019_Oct_11_1055,ACPT_experiment_5_30_19,3.1.0,59.97043883750859,
,,,C,D,d,v,R,U,y,L,u,,,,,6,14,134,0,5,0,5,0,,,,,0,14,14,30,,,,,,up,0.08337893856378287,3172.736821849217,None,001,19,2019_Oct_11_1055,ACPT_experiment_5_30_19,3.1.0,59.97043883750859,
,,,C,D,d,v,R,G,d,L,i,,,,,6,14,134,0,5,0,5,0,,,,,0,15,15,4,,,,,,up,0.03334922095791626,3174.1212273054234,None,001,19,2019_Oct_11_1055,ACPT_experiment_5_30_19,3.1.0,59.97043883750859,
,,,C,D,d,v,R,D,y,R,y,,,,,6,14,134,0,5,0,5,0,,,,,0,16,16,27,,,,,,up,0.09974943032466399,3175.4558726003675,None,001,19,2019_Oct_11_1055,ACPT_experiment_5_30_19,3.1.0,59.97043883750859,
,,,C,D,d,v,R,U,d,L,u,,,,,6,14,134,0,5,0,5,0,,,,,0,17,17,8,,,,,,up,0.01665182044098401,3176.8399580904784,None,001,19,2019_Oct_11_1055,ACPT_experiment_5_30_19,3.1.0,59.97043883750859,
,,,C,D,d,v,L,D,d,L,c ,,,,,6,14,134,0,5,0,5,0,,,,,0,18,18,12,,,,,,up,6.399321910066647e-05,3178.140946272561,None,001,19,2019_Oct_11_1055,ACPT_experiment_5_30_19,3.1.0,59.97043883750859,
,,,C,D,d,v,L,U,y,R,u,,,,,6,14,134,0,5,0,5,0,,,,,0,19,19,25,,,,,,up,0.25016368076921935,3179.4252512413022,None,001,19,2019_Oct_11_1055,ACPT_experiment_5_30_19,3.1.0,59.97043883750859,
,,,C,D,d,v,R,D,y,L,y,,,,,6,14,134,0,5,0,5,0,,,,,0,20,20,26,,,,,,up,0.1500779841894655,3180.959749472584,None,001,19,2019_Oct_11_1055,ACPT_experiment_5_30_19,3.1.0,59.97043883750859,
,,,C,D,d,v,R,D,g,R,i,,,,,6,14,134,0,5,0,5,0,,,,,0,21,21,3,,,,,,up,0.2468435797445636,3182.4141804143924,None,001,19,2019_Oct_11_1055,ACPT_experiment_5_30_19,3.1.0,59.97043883750859,
,,,C,D,d,v,R,U,d,R,u,,,,,6,14,134,0,5,0,5,0,,,,,0,22,22,9,,,,,,up,0.06668697143368263,3183.9453612613424,None,001,19,2019_Oct_11_1055,ACPT_experiment_5_30_19,3.1.0,59.97043883750859,
,,,C,D,d,v,L,G,g,L,c ,,,,,6,14,134,0,5,0,5,0,,,,,0,23,23,18,,,,,,up,1.4510743163518782,3185.2963797647403,None,001,19,2019_Oct_11_1055,ACPT_experiment_5_30_19,3.1.0,59.97043883750859,
,,,C,D,d,v,R,U,g,L,u,,,,,6,14,134,0,5,0,5,0,,,,,0,24,24,10,,,,,,up,0.016672950277552445,3188.015107833102,None,001,19,2019_Oct_11_1055,ACPT_experiment_5_30_19,3.1.0,59.97043883750859,
,,,C,D,d,v,R,G,d,R,i,,,,,6,14,134,0,5,0,5,0,,,,,0,25,25,5,,,,,,down,0.24687618006373668,3189.336094499873,None,001,19,2019_Oct_11_1055,ACPT_experiment_5_30_19,3.1.0,59.97043883750859,
,,,C,D,d,v,L,G,y,L,y,,,,,6,14,134,0,5,0,5,0,,,,,0,26,26,34,,,,,,down,0.1667847422054365,3190.8672744412593,None,001,19,2019_Oct_11_1055,ACPT_experiment_5_30_19,3.1.0,59.97043883750859,
,,,C,D,d,v,R,G,y,L,y,,,,,6,14,134,0,5,0,5,0,,,,,0,27,27,28,,,,,,down,0.8506440525097787,3192.3016972390246,None,001,19,2019_Oct_11_1055,ACPT_experiment_5_30_19,3.1.0,59.97043883750859,
,,,C,D,d,v,R,D,d,L,c,,,,,6,14,134,0,5,0,5,0,,,,,0,28,28,0,,,,,,up,0.08339976654542625,3194.4366263378583,None,001,19,2019_Oct_11_1055,ACPT_experiment_5_30_19,3.1.0,59.97043883750859,
,,,C,D,d,v,L,U,g,R,u,,,,,6,14,134,0,5,0,5,0,,,,,0,29,29,23,,,,,,down,0.1164549809213895,3195.8213143301646,None,001,19,2019_Oct_11_1055,ACPT_experiment_5_30_19,3.1.0,59.97043883750859,
,,,C,D,d,v,L,D,g,R,i,,,,,6,14,134,0,5,0,5,0,,,,,0,30,30,15,,,,,,up,23.501190364432205,3197.2221032578886,None,001,19,2019_Oct_11_1055,ACPT_experiment_5_30_19,3.1.0,59.97043883750859,
,,,C,D,d,v,L,U,y,L,u,,,,,6,14,134,0,5,0,5,0,,,,,0,31,31,24,,,,,,up,0.05001039889793901,3222.007585309451,None,001,19,2019_Oct_11_1055,ACPT_experiment_5_30_19,3.1.0,59.97043883750859,
,,,C,D,d,v,L,U,d,R,u,,,,,6,14,134,0,5,0,5,0,,,,,0,32,32,21,,,,,,up,0.13341016544382,3223.341934786684,None,001,19,2019_Oct_11_1055,ACPT_experiment_5_30_19,3.1.0,59.97043883750859,
,,,C,D,d,v,R,D,g,L,i,,,,,6,14,134,0,5,0,5,0,,,,,0,33,33,2,,,,,,up,11.792282840369353,3224.7596788989304,None,001,19,2019_Oct_11_1055,ACPT_experiment_5_30_19,3.1.0,59.97043883750859,
,,,C,D,d,v,L,D,y,R,y,,,,,6,14,134,0,5,0,5,0,,,,,0,34,34,33,,,,,,up,7.672458857944548,3237.8362827063456,None,001,19,2019_Oct_11_1055,ACPT_experiment_5_30_19,3.1.0,59.97043883750859,
,,,C,D,d,v,L,D,d,R,c ,,,,,6,14,134,0,5,0,5,0,,,,,0,35,35,13,,,,,,up,0.00014790885552429245,3246.793070983271,None,001,19,2019_Oct_11_1055,ACPT_experiment_5_30_19,3.1.0,59.97043883750859,
,,,C,D,d,v,R,D,y,L,y,,,,,6,14,134,0,5,0,5,0,,,,,1,0,36,26,,,,,,up,0.05001824712326197,3248.0773792724153,None,001,19,2019_Oct_11_1055,ACPT_experiment_5_30_19,3.1.0,59.97043883750859,
,,,C,D,d,v,L,D,y,R,y,,,,,6,14,134,0,5,0,5,0,,,,,1,1,37,33,,,,,,up,0.11677192846900653,3249.4117184865845,None,001,19,2019_Oct_11_1055,ACPT_experiment_5_30_19,3.1.0,59.97043883750859,
,,,C,D,d,v,L,G,d,R,i,,,,,6,14,134,0,5,0,5,0,,,,,1,2,38,17,,,,,,up,0.049835021255148604,3250.8296470321184,None,001,19,2019_Oct_11_1055,ACPT_experiment_5_30_19,3.1.0,59.97043883750859,
,,,C,D,d,v,R,U,g,R,u,,,,,6,14,134,0,5,0,5,0,,,,,1,3,39,11,,,,,,up,0.10008931883749028,3252.163792757356,None,001,19,2019_Oct_11_1055,ACPT_experiment_5_30_19,3.1.0,59.97043883750859,
,,,C,D,d,v,R,G,g,L,c ,,,,,6,14,134,0,5,0,5,0,,,,,1,4,40,6,,,,,,up,26.353224156474425,3253.548196402434,None,001,19,2019_Oct_11_1055,ACPT_experiment_5_30_19,3.1.0,59.97043883750859,
,,,C,D,d,v,R,U,y,L,u,,,,,6,14,134,0,5,0,5,0,,,,,1,5,41,30,,,,,,up,0.8172863796166894,3281.185846873282,None,001,19,2019_Oct_11_1055,ACPT_experiment_5_30_19,3.1.0,59.97043883750859,
,,,C,D,d,v,L,G,y,L,y,,,,,6,14,134,0,5,0,5,0,,,,,1,6,42,34,,,,,,down,15.945457854880715,3283.2874394290598,None,001,19,2019_Oct_11_1055,ACPT_experiment_5_30_19,3.1.0,59.97043883750859,
,,,C,D,d,v,R,G,d,L,i,,,,,6,14,134,0,5,0,5,0,,,,,1,7,43,4,,,,,,down,0.8172993593734645,3300.5171762931686,None,001,19,2019_Oct_11_1055,ACPT_experiment_5_30_19,3.1.0,59.97043883750859,
,,,C,D,d,v,R,U,d,R,u,,,,,6,14,134,0,5,0,5,0,,,,,1,8,44,9,,,,,,up,7.4890192767497865,3302.6187929973307,None,001,19,2019_Oct_11_1055,ACPT_experiment_5_30_19,3.1.0,59.97043883750859,
,,,C,D,d,v,L,G,d,L,i,,,,,6,14,134,0,5,0,5,0,,,,,1,9,45,16,,,,,,up,14.394294219691801,3311.375420747869,None,001,19,2019_Oct_11_1055,ACPT_experiment_5_30_19,3.1.0,59.97043883750859,
,,,C,D,d,v,L,U,g,L,u,,,,,6,14,134,0,5,0,5,0,,,,,1,10,46,22,,,,,,up,0.5837705951762473,3327.05400031574,None,001,19,2019_Oct_11_1055,ACPT_experiment_5_30_19,3.1.0,59.97043883750859,
,,,C,D,d,v,R,D,d,R,c ,,,,,6,14,134,0,5,0,5,0,,,,,1,11,47,1,,,,,,up,41.38142282885656,3328.922085237157,None,001,19,2019_Oct_11_1055,ACPT_experiment_5_30_19,3.1.0,59.97043883750859,
,,,C,D,d,v,R,G,y,R,y,,,,,6,14,134,0,5,0,5,0,,,,,1,12,48,29,,,,,,up,0.21682804327747363,3371.5878079032227,None,001,19,2019_Oct_11_1055,ACPT_experiment_5_30_19,3.1.0,59.97043883750859,
,,,C,D,d,v,L,D,d,R,c ,,,,,6,14,134,0,5,0,5,0,,,,,1,13,49,13,,,,,,up,0.6504925817671392,3373.088946952338,None,001,19,2019_Oct_11_1055,ACPT_experiment_5_30_19,3.1.0,59.97043883750859,
,,,C,D,d,v,R,D,g,R,i,,,,,6,14,134,0,5,0,5,0,,,,,1,14,50,3,,,,,,up,0.9840795737568442,3375.0237529547812,None,001,19,2019_Oct_11_1055,ACPT_experiment_5_30_19,3.1.0,59.97043883750859,
,,,C,D,d,v,R,G,d,R,i,,,,,6,14,134,0,5,0,5,0,,,,,1,15,51,5,,,,,,down,25.152454487086743,3377.292145949214,None,001,19,2019_Oct_11_1055,ACPT_experiment_5_30_19,3.1.0,59.97043883750859,
,,,C,D,d,v,L,U,y,L,u,,,,,6,14,134,0,5,0,5,0,,,,,1,16,52,24,,,,,,down,32.508013792350084,3403.7288924252857,None,001,19,2019_Oct_11_1055,ACPT_experiment_5_30_19,3.1.0,59.97043883750859,
