facing_vig,person_vig,text_vig,facing_train,person_train,food_train,correct_key_train,facing_exp,person_exp,food_exp,showL_R,consistent,vig_random.thisRepN,vig_random.thisTrialN,vig_random.thisN,vig_random.thisIndex,trainTrials.thisRepN,trainTrials.thisTrialN,trainTrials.thisN,trainTrials.thisIndex,expBlock.thisRepN,expBlock.thisTrialN,expBlock.thisN,expBlock.thisIndex,breakLoop.thisRepN,breakLoop.thisTrialN,breakLoop.thisN,breakLoop.thisIndex,expTrials.thisRepN,expTrials.thisTrialN,expTrials.thisN,expTrials.thisIndex,train_resp.keys,train_resp.corr,train_resp.rt,train_resp.started,train_resp.stopped,exp_resp.keys,exp_resp.rt,exp_resp.started,exp_resp.stopped,session,participant,date,expName,psychopyVersion,frameRate,
C,G,"cannot eat dairy products because she is lactose intolerant. She enjoys eating wheat products. She thinks eating insects, like crickets, is disgusting.",,,,,,,,,,0,0,0,0,,,,,,,,,,,,,,,,,,,,,,,,,,001,20,2019_Oct_11_1201,ACPT_experiment_5_30_19,3.1.0,59.970004597768074,
C,U,"did not report her food preferences, so her food preferences are unknown.",,,,,,,,,,0,1,1,2,,,,,,,,,,,,,,,,,,,,,,,,,,001,20,2019_Oct_11_1201,ACPT_experiment_5_30_19,3.1.0,59.970004597768074,
C,D,"is allergic to gluten, meaning she can’t eat wheat products. She enjoys eating dairy products. She thinks eating insects, like crickets, is disgusting.",,,,,,,,,,0,2,2,1,,,,,,,,,,,,,,,,,,,,,,,,,,001,20,2019_Oct_11_1201,ACPT_experiment_5_30_19,3.1.0,59.970004597768074,
,,,C,G,y,b,,,,,,,,,,0,0,0,5,,,,,,,,,,,,,b,1,1.4177598086962462,226.02556076322253,None,,,,,001,20,2019_Oct_11_1201,ACPT_experiment_5_30_19,3.1.0,59.970004597768074,
,,,C,U,d,n,,,,,,,,,,0,1,1,15,,,,,,,,,,,,,v,0,3.1690996667221043,230.72913904066354,None,,,,,001,20,2019_Oct_11_1201,ACPT_experiment_5_30_19,3.1.0,59.970004597768074,
,,,C,U,d,n,,,,,,,,,,0,2,2,6,,,,,,,,,,,,,n,1,0.834124142618748,237.16721609272554,None,,,,,001,20,2019_Oct_11_1201,ACPT_experiment_5_30_19,3.1.0,59.970004597768074,
,,,C,D,g,b,,,,,,,,,,0,3,3,1,,,,,,,,,,,,,v,0,3.0020474811572058,241.3041147941758,None,,,,,001,20,2019_Oct_11_1201,ACPT_experiment_5_30_19,3.1.0,59.970004597768074,
,,,C,D,d,v,,,,,,,,,,0,4,4,0,,,,,,,,,,,,,b,0,2.652027513462599,247.575272778643,None,,,,,001,20,2019_Oct_11_1201,ACPT_experiment_5_30_19,3.1.0,59.970004597768074,
,,,C,G,g,v,,,,,,,,,,0,5,5,13,,,,,,,,,,,,,v,1,4.219883417636083,253.51311513859218,None,,,,,001,20,2019_Oct_11_1201,ACPT_experiment_5_30_19,3.1.0,59.970004597768074,
,,,C,G,g,v,,,,,,,,,,0,6,6,19,,,,,,,,,,,,,b,0,2.0182081838274826,261.00213924501895,None,,,,,001,20,2019_Oct_11_1201,ACPT_experiment_5_30_19,3.1.0,59.970004597768074,
,,,C,G,d,b,,,,,,,,,,0,7,7,3,,,,,,,,,,,,,b,1,2.218373238035383,266.28948962691084,None,,,,,001,20,2019_Oct_11_1201,ACPT_experiment_5_30_19,3.1.0,59.970004597768074,
,,,C,U,y,n,,,,,,,,,,0,8,8,17,,,,,,,,,,,,,n,1,1.3010026711135652,271.7936677502248,None,,,,,001,20,2019_Oct_11_1201,ACPT_experiment_5_30_19,3.1.0,59.970004597768074,
,,,C,G,y,b,,,,,,,,,,0,9,9,14,,,,,,,,,,,,,b,1,2.001278958819057,276.3974199262211,None,,,,,001,20,2019_Oct_11_1201,ACPT_experiment_5_30_19,3.1.0,59.970004597768074,
,,,C,D,g,b,,,,,,,,,,0,10,10,10,,,,,,,,,,,,,b,1,3.002288361293722,281.6845206741873,None,,,,,001,20,2019_Oct_11_1201,ACPT_experiment_5_30_19,3.1.0,59.970004597768074,
,,,C,U,g,n,,,,,,,,,,0,11,11,16,,,,,,,,,,,,,v,0,2.785456695758512,287.9726275042258,None,,,,,001,20,2019_Oct_11_1201,ACPT_experiment_5_30_19,3.1.0,59.970004597768074,
,,,C,D,y,b,,,,,,,,,,0,12,12,2,,,,,,,,,,,,,b,1,2.652018759672501,294.0439105169544,None,,,,,001,20,2019_Oct_11_1201,ACPT_experiment_5_30_19,3.1.0,59.970004597768074,
,,,C,U,y,n,,,,,,,,,,0,13,13,8,,,,,,,,,,,,,b,0,0.7172263406955608,299.9817432175496,None,,,,,001,20,2019_Oct_11_1201,ACPT_experiment_5_30_19,3.1.0,59.970004597768074,
,,,C,D,d,v,,,,,,,,,,0,14,14,18,,,,,,,,,,,,,b,0,2.701635539901872,304.0018736127886,None,,,,,001,20,2019_Oct_11_1201,ACPT_experiment_5_30_19,3.1.0,59.970004597768074,
,,,C,G,g,v,,,,,,,,,,0,15,15,4,,,,,,,,,,,,,v,1,1.4344345701028942,309.98934965683657,None,,,,,001,20,2019_Oct_11_1201,ACPT_experiment_5_30_19,3.1.0,59.970004597768074,
,,,C,G,d,b,,,,,,,,,,0,16,16,12,,,,,,,,,,,,,v,0,1.150882427250508,314.6929218971818,None,,,,,001,20,2019_Oct_11_1201,ACPT_experiment_5_30_19,3.1.0,59.970004597768074,
,,,C,U,g,n,,,,,,,,,,0,17,17,7,,,,,,,,,,,,,n,1,2.3851631117731813,319.12962973583853,None,,,,,001,20,2019_Oct_11_1201,ACPT_experiment_5_30_19,3.1.0,59.970004597768074,
,,,C,D,y,b,,,,,,,,,,0,18,18,11,,,,,,,,,,,,,b,1,2.018215730196971,324.8006004495828,None,,,,,001,20,2019_Oct_11_1201,ACPT_experiment_5_30_19,3.1.0,59.970004597768074,
,,,C,D,d,v,,,,,,,,,,0,19,19,9,,,,,,,,,,,,,b,0,1.751344385847915,330.0879505296198,None,,,,,001,20,2019_Oct_11_1201,ACPT_experiment_5_30_19,3.1.0,59.970004597768074,
,,,C,G,g,v,,,,,,,,,,1,0,20,4,,,,,,,,,,,,,v,1,2.4018245915676744,335.12512213800164,None,,,,,001,20,2019_Oct_11_1201,ACPT_experiment_5_30_19,3.1.0,59.970004597768074,
,,,C,G,y,b,,,,,,,,,,1,1,21,14,,,,,,,,,,,,,b,1,1.3176970530821563,340.7960668922333,None,,,,,001,20,2019_Oct_11_1201,ACPT_experiment_5_30_19,3.1.0,59.970004597768074,
,,,C,U,g,n,,,,,,,,,,1,2,22,16,,,,,,,,,,,,,b,0,3.4526306797370125,345.39958422518885,None,,,,,001,20,2019_Oct_11_1201,ACPT_experiment_5_30_19,3.1.0,59.970004597768074,
,,,C,U,y,n,,,,,,,,,,1,3,23,8,,,,,,,,,,,,,b,0,1.4344345701028942,352.1213561974264,None,,,,,001,20,2019_Oct_11_1201,ACPT_experiment_5_30_19,3.1.0,59.970004597768074,
,,,C,U,d,n,,,,,,,,,,1,4,24,6,,,,,,,,,,,,,n,1,1.6179070534708444,356.82492873962656,None,,,,,001,20,2019_Oct_11_1201,ACPT_experiment_5_30_19,3.1.0,59.970004597768074,
,,,C,D,d,v,,,,,,,,,,1,5,25,0,,,,,,,,,,,,,b,0,3.8029054128901407,361.72865667668157,None,,,,,001,20,2019_Oct_11_1201,ACPT_experiment_5_30_19,3.1.0,59.970004597768074,
,,,C,G,g,v,,,,,,,,,,1,6,26,19,,,,,,,,,,,,,b,0,2.918900668940296,368.8173721063822,None,,,,,001,20,2019_Oct_11_1201,ACPT_experiment_5_30_19,3.1.0,59.970004597768074,
,,,C,G,y,b,,,,,,,,,,1,7,27,5,,,,,,,,,,,,,n,0,0.9173950171616525,375.0053859953259,None,,,,,001,20,2019_Oct_11_1201,ACPT_experiment_5_30_19,3.1.0,59.970004597768074,
,,,C,D,g,b,,,,,,,,,,1,8,28,10,,,,,,,,,,,,,v,0,1.2173538743518293,379.22552085801635,None,,,,,001,20,2019_Oct_11_1201,ACPT_experiment_5_30_19,3.1.0,59.970004597768074,
,,,C,D,g,b,,,,,,,,,,1,9,29,1,,,,,,,,,,,,,b,1,1.1008403335981711,383.7120211563997,None,,,,,001,20,2019_Oct_11_1201,ACPT_experiment_5_30_19,3.1.0,59.970004597768074,
,,,C,D,d,v,,,,,,,,,,1,10,30,18,,,,,,,,,,,,,v,1,3.2691431036282665,388.098697164467,None,,,,,001,20,2019_Oct_11_1201,ACPT_experiment_5_30_19,3.1.0,59.970004597768074,
,,,C,G,d,b,,,,,,,,,,1,11,31,3,,,,,,,,,,,,,b,1,1.334386001664825,394.65367654627426,None,,,,,001,20,2019_Oct_11_1201,ACPT_experiment_5_30_19,3.1.0,59.970004597768074,
,,,C,U,y,n,,,,,,,,,,1,12,32,17,,,,,,,,,,,,,n,1,1.551171483413782,399.29052981857694,None,,,,,001,20,2019_Oct_11_1201,ACPT_experiment_5_30_19,3.1.0,59.970004597768074,
,,,C,D,d,v,,,,,,,,,,1,13,33,9,,,,,,,,,,,,,v,1,1.8347353986036978,404.14420600262474,None,,,,,001,20,2019_Oct_11_1201,ACPT_experiment_5_30_19,3.1.0,59.970004597768074,
,,,C,U,d,n,,,,,,,,,,1,14,34,15,,,,,,,,,,,,,n,1,1.1008279575507913,409.26477164231073,None,,,,,001,20,2019_Oct_11_1201,ACPT_experiment_5_30_19,3.1.0,59.970004597768074,
,,,C,U,g,n,,,,,,,,,,1,15,35,7,,,,,,,,,,,,,n,1,1.4008043223193454,413.65170000099624,None,,,,,001,20,2019_Oct_11_1201,ACPT_experiment_5_30_19,3.1.0,59.970004597768074,
,,,C,G,d,b,,,,,,,,,,1,16,36,12,,,,,,,,,,,,,b,1,2.3684750687543783,418.33831916980307,None,,,,,001,20,2019_Oct_11_1201,ACPT_experiment_5_30_19,3.1.0,59.970004597768074,
,,,C,D,y,b,,,,,,,,,,1,17,37,11,,,,,,,,,,,,,b,1,2.5019256827426943,423.992613612867,None,,,,,001,20,2019_Oct_11_1201,ACPT_experiment_5_30_19,3.1.0,59.970004597768074,
,,,C,D,y,b,,,,,,,,,,1,18,38,2,,,,,,,,,,,,,b,1,1.3009933136145264,429.7803447845981,None,,,,,001,20,2019_Oct_11_1201,ACPT_experiment_5_30_19,3.1.0,59.970004597768074,
,,,C,G,g,v,,,,,,,,,,1,19,39,13,,,,,,,,,,,,,b,0,3.002054121963738,434.38407794374143,None,,,,,001,20,2019_Oct_11_1201,ACPT_experiment_5_30_19,3.1.0,59.970004597768074,
,,,C,G,d,b,,,,,,,,,,2,0,40,3,,,,,,,,,,,,,b,1,1.3344068296464684,440.65527033965645,None,,,,,001,20,2019_Oct_11_1201,ACPT_experiment_5_30_19,3.1.0,59.970004597768074,
,,,C,U,y,n,,,,,,,,,,2,1,41,17,,,,,,,,,,,,,n,1,1.9845706915284609,445.2924019220909,None,,,,,001,20,2019_Oct_11_1201,ACPT_experiment_5_30_19,3.1.0,59.970004597768074,
,,,C,U,y,n,,,,,,,,,,2,2,42,8,,,,,,,,,,,,,n,1,0.8006101089367803,450.546118735796,None,,,,,001,20,2019_Oct_11_1201,ACPT_experiment_5_30_19,3.1.0,59.970004597768074,
,,,C,D,d,v,,,,,,,,,,2,3,43,9,,,,,,,,,,,,,v,1,1.9845743137857426,454.6495061202577,None,,,,,001,20,2019_Oct_11_1201,ACPT_experiment_5_30_19,3.1.0,59.970004597768074,
,,,C,D,y,b,,,,,,,,,,2,4,44,11,,,,,,,,,,,,,b,1,1.417745017811285,459.90322021726934,None,,,,,001,20,2019_Oct_11_1201,ACPT_experiment_5_30_19,3.1.0,59.970004597768074,
,,,C,G,y,b,,,,,,,,,,2,5,45,5,,,,,,,,,,,,,b,1,1.8345071963694863,464.62372077705913,None,,,,,001,20,2019_Oct_11_1201,ACPT_experiment_5_30_19,3.1.0,59.970004597768074,
,,,C,G,g,v,,,,,,,,,,2,6,46,13,,,,,,,,,,,,,v,1,3.3525546425116772,469.7273505509311,None,,,,,001,20,2019_Oct_11_1201,ACPT_experiment_5_30_19,3.1.0,59.970004597768074,
,,,C,G,y,b,,,,,,,,,,2,7,47,14,,,,,,,,,,,,,b,1,1.2342734400072004,476.36572517146124,None,,,,,001,20,2019_Oct_11_1201,ACPT_experiment_5_30_19,3.1.0,59.970004597768074,
,,,C,D,d,v,,,,,,,,,,2,8,48,18,,,,,,,,,,,,,v,1,1.0341376657152068,480.88580862827894,None,,,,,001,20,2019_Oct_11_1201,ACPT_experiment_5_30_19,3.1.0,59.970004597768074,
,,,C,D,g,b,,,,,,,,,,2,9,49,10,,,,,,,,,,,,,b,1,1.517822866165261,485.18909120875105,None,,,,,001,20,2019_Oct_11_1201,ACPT_experiment_5_30_19,3.1.0,59.970004597768074,
,,,C,D,g,b,,,,,,,,,,2,10,50,1,,,,,,,,,,,,,b,1,2.0515993626040654,489.9760369542737,None,,,,,001,20,2019_Oct_11_1201,ACPT_experiment_5_30_19,3.1.0,59.970004597768074,
,,,C,G,g,v,,,,,,,,,,2,11,51,4,,,,,,,,,,,,,v,1,1.9181747081292997,495.3134206760287,None,,,,,001,20,2019_Oct_11_1201,ACPT_experiment_5_30_19,3.1.0,59.970004597768074,
,,,C,G,d,b,,,,,,,,,,2,12,52,12,,,,,,,,,,,,,b,1,1.3010005581290898,500.50071494311123,None,,,,,001,20,2019_Oct_11_1201,ACPT_experiment_5_30_19,3.1.0,59.970004597768074,
,,,C,U,d,n,,,,,,,,,,2,13,53,6,,,,,,,,,,,,,n,1,1.1506318877609374,505.0877799816535,None,,,,,001,20,2019_Oct_11_1201,ACPT_experiment_5_30_19,3.1.0,59.970004597768074,
,,,C,U,g,n,,,,,,,,,,2,14,54,16,,,,,,,,,,,,,n,1,1.250959671896453,509.5075558786075,None,,,,,001,20,2019_Oct_11_1201,ACPT_experiment_5_30_19,3.1.0,59.970004597768074,
,,,C,D,d,v,,,,,,,,,,2,15,55,0,,,,,,,,,,,,,v,1,1.6009962416055714,514.0612433218403,None,,,,,001,20,2019_Oct_11_1201,ACPT_experiment_5_30_19,3.1.0,59.970004597768074,
,,,C,U,g,n,,,,,,,,,,2,16,56,7,,,,,,,,,,,,,n,1,2.1683214850290824,518.948060748884,None,,,,,001,20,2019_Oct_11_1201,ACPT_experiment_5_30_19,3.1.0,59.970004597768074,
,,,C,D,y,b,,,,,,,,,,2,17,57,2,,,,,,,,,,,,,b,1,1.317673508407097,524.402204626771,None,,,,,001,20,2019_Oct_11_1201,ACPT_experiment_5_30_19,3.1.0,59.970004597768074,
,,,C,U,d,n,,,,,,,,,,2,18,58,15,,,,,,,,,,,,,n,1,1.0505845267407494,529.0393005903379,None,,,,,001,20,2019_Oct_11_1201,ACPT_experiment_5_30_19,3.1.0,59.970004597768074,
,,,C,G,g,v,,,,,,,,,,2,19,59,19,,,,,,,,,,,,,v,1,2.084911757275222,533.3756893986483,None,,,,,001,20,2019_Oct_11_1201,ACPT_experiment_5_30_19,3.1.0,59.970004597768074,
,,,C,U,d,n,,,,,,,,,,3,0,60,6,,,,,,,,,,,,,n,1,1.3009987470013584,538.7464295858772,None,,,,,001,20,2019_Oct_11_1201,ACPT_experiment_5_30_19,3.1.0,59.970004597768074,
,,,C,U,d,n,,,,,,,,,,3,1,61,15,,,,,,,,,,,,,n,1,1.1339245260351163,543.3335242061903,None,,,,,001,20,2019_Oct_11_1201,ACPT_experiment_5_30_19,3.1.0,59.970004597768074,
,,,C,G,y,b,,,,,,,,,,3,2,62,5,,,,,,,,,,,,,b,1,1.8347320782013412,547.75326780468,None,,,,,001,20,2019_Oct_11_1201,ACPT_experiment_5_30_19,3.1.0,59.970004597768074,
,,,C,U,y,n,,,,,,,,,,3,3,63,17,,,,,,,,,,,,,n,1,5.38744302113264,552.8738129182393,None,,,,,001,20,2019_Oct_11_1201,ACPT_experiment_5_30_19,3.1.0,59.970004597768074,
,,,C,U,g,n,,,,,,,,,,3,4,64,16,,,,,,,,,,,,,n,1,2.3017539877282616,561.5303978355805,None,,,,,001,20,2019_Oct_11_1201,ACPT_experiment_5_30_19,3.1.0,59.970004597768074,
,,,C,G,d,b,,,,,,,,,,3,5,65,12,,,,,,,,,,,,,b,1,1.9514861972365907,567.1179733106019,None,,,,,001,20,2019_Oct_11_1201,ACPT_experiment_5_30_19,3.1.0,59.970004597768074,
,,,C,G,d,b,,,,,,,,,,3,6,66,3,,,,,,,,,,,,,b,1,4.319957643733687,572.3552819006954,None,,,,,001,20,2019_Oct_11_1201,ACPT_experiment_5_30_19,3.1.0,59.970004597768074,
,,,C,G,g,v,,,,,,,,,,3,7,67,19,,,,,,,,,,,,,b,0,0.8840089699178861,579.961062239141,None,,,,,001,20,2019_Oct_11_1201,ACPT_experiment_5_30_19,3.1.0,59.970004597768074,
,,,C,D,y,b,,,,,,,,,,3,8,68,2,,,,,,,,,,,,,b,1,0.8170506310125347,584.1478137712811,None,,,,,001,20,2019_Oct_11_1201,ACPT_experiment_5_30_19,3.1.0,59.970004597768074,
,,,C,D,y,b,,,,,,,,,,3,9,69,11,,,,,,,,,,,,,b,1,1.584560549206799,588.2339903001985,None,,,,,001,20,2019_Oct_11_1201,ACPT_experiment_5_30_19,3.1.0,59.970004597768074,
,,,C,G,g,v,,,,,,,,,,3,10,70,13,,,,,,,,,,,,,v,1,3.0523123436578317,593.10438380718,None,,,,,001,20,2019_Oct_11_1201,ACPT_experiment_5_30_19,3.1.0,59.970004597768074,
,,,C,D,g,b,,,,,,,,,,3,11,71,1,,,,,,,,,,,,,b,1,1.1008481818225846,599.4425161288573,None,,,,,001,20,2019_Oct_11_1201,ACPT_experiment_5_30_19,3.1.0,59.970004597768074,
,,,C,U,y,n,,,,,,,,,,3,12,72,8,,,,,,,,,,,,,n,1,1.3343488735226856,603.8458638797829,None,,,,,001,20,2019_Oct_11_1201,ACPT_experiment_5_30_19,3.1.0,59.970004597768074,
,,,C,G,y,b,,,,,,,,,,3,13,73,14,,,,,,,,,,,,,b,1,1.534510305474214,608.4660342405987,None,,,,,001,20,2019_Oct_11_1201,ACPT_experiment_5_30_19,3.1.0,59.970004597768074,
,,,C,D,g,b,,,,,,,,,,3,14,74,10,,,,,,,,,,,,,b,1,1.951493139896229,613.2863627129627,None,,,,,001,20,2019_Oct_11_1201,ACPT_experiment_5_30_19,3.1.0,59.970004597768074,
,,,C,D,d,v,,,,,,,,,,3,15,75,0,,,,,,,,,,,,,v,1,0.7839422901906801,618.5069941268112,None,,,,,001,20,2019_Oct_11_1201,ACPT_experiment_5_30_19,3.1.0,59.970004597768074,
,,,C,U,g,n,,,,,,,,,,3,16,76,7,,,,,,,,,,,,,n,1,1.250682871038407,622.5937067498662,None,,,,,001,20,2019_Oct_11_1201,ACPT_experiment_5_30_19,3.1.0,59.970004597768074,
,,,C,G,g,v,,,,,,,,,,3,17,77,4,,,,,,,,,,,,,v,1,1.7680475216056948,627.1301845449743,None,,,,,001,20,2019_Oct_11_1201,ACPT_experiment_5_30_19,3.1.0,59.970004597768074,
,,,C,D,d,v,,,,,,,,,,3,18,78,9,,,,,,,,,,,,,v,1,1.2175962637620614,632.184049327906,None,,,,,001,20,2019_Oct_11_1201,ACPT_experiment_5_30_19,3.1.0,59.970004597768074,
,,,C,D,d,v,,,,,,,,,,3,19,79,18,,,,,,,,,,,,,v,1,1.0838899787522678,636.6877411631258,None,,,,,001,20,2019_Oct_11_1201,ACPT_experiment_5_30_19,3.1.0,59.970004597768074,
,,,C,D,g,b,,,,,,,,,,4,0,80,10,,,,,,,,,,,,,b,1,0.8172921148589012,641.0407733399425,None,,,,,001,20,2019_Oct_11_1201,ACPT_experiment_5_30_19,3.1.0,59.970004597768074,
,,,C,G,g,v,,,,,,,,,,4,1,81,13,,,,,,,,,,,,,v,1,1.4008070390127614,645.160840013632,None,,,,,001,20,2019_Oct_11_1201,ACPT_experiment_5_30_19,3.1.0,59.970004597768074,
,,,C,G,d,b,,,,,,,,,,4,2,82,12,,,,,,,,,,,,,b,1,1.0674868866726683,649.8307765728077,None,,,,,001,20,2019_Oct_11_1201,ACPT_experiment_5_30_19,3.1.0,59.970004597768074,
,,,C,G,y,b,,,,,,,,,,4,3,83,14,,,,,,,,,,,,,b,1,1.1840088793614996,654.1843542012612,None,,,,,001,20,2019_Oct_11_1201,ACPT_experiment_5_30_19,3.1.0,59.970004597768074,
,,,C,G,y,b,,,,,,,,,,4,4,84,5,,,,,,,,,,,,,b,1,0.7338953668613613,658.6541429119516,None,,,,,001,20,2019_Oct_11_1201,ACPT_experiment_5_30_19,3.1.0,59.970004597768074,
,,,C,D,y,b,,,,,,,,,,4,5,85,2,,,,,,,,,,,,,b,1,0.9473990831456831,662.7105447845379,None,,,,,001,20,2019_Oct_11_1201,ACPT_experiment_5_30_19,3.1.0,59.970004597768074,
,,,C,G,d,b,,,,,,,,,,4,6,86,3,,,,,,,,,,,,,b,1,1.4677892244471877,666.943773203202,None,,,,,001,20,2019_Oct_11_1201,ACPT_experiment_5_30_19,3.1.0,59.970004597768074,
,,,C,U,d,n,,,,,,,,,,4,7,87,15,,,,,,,,,,,,,n,1,0.9173720761973527,671.6973799908301,None,,,,,001,20,2019_Oct_11_1201,ACPT_experiment_5_30_19,3.1.0,59.970004597768074,
,,,C,U,g,n,,,,,,,,,,4,8,88,7,,,,,,,,,,,,,n,1,1.451126537233904,675.8838755500929,None,,,,,001,20,2019_Oct_11_1201,ACPT_experiment_5_30_19,3.1.0,59.970004597768074,
,,,C,U,g,n,,,,,,,,,,4,9,89,16,,,,,,,,,,,,,n,1,0.9173699632128773,680.6041482095034,None,,,,,001,20,2019_Oct_11_1201,ACPT_experiment_5_30_19,3.1.0,59.970004597768074,
,,,C,D,g,b,,,,,,,,,,4,10,90,1,,,,,,,,,,,,,b,1,1.6009497559653028,684.8242833740487,None,,,,,001,20,2019_Oct_11_1201,ACPT_experiment_5_30_19,3.1.0,59.970004597768074,
,,,C,U,y,n,,,,,,,,,,4,11,91,17,,,,,,,,,,,,,n,1,0.5670979467540747,689.7110588432743,None,,,,,001,20,2019_Oct_11_1201,ACPT_experiment_5_30_19,3.1.0,59.970004597768074,
,,,C,G,g,v,,,,,,,,,,4,12,92,19,,,,,,,,,,,,,v,1,3.152262507429441,693.5974778219734,None,,,,,001,20,2019_Oct_11_1201,ACPT_experiment_5_30_19,3.1.0,59.970004597768074,
,,,C,D,d,v,,,,,,,,,,4,13,93,18,,,,,,,,,,,,,v,1,0.8339747244899627,700.035566344518,None,,,,,001,20,2019_Oct_11_1201,ACPT_experiment_5_30_19,3.1.0,59.970004597768074,
,,,C,D,y,b,,,,,,,,,,4,14,94,11,,,,,,,,,,,,,b,1,0.8670558983794763,704.1556315089338,None,,,,,001,20,2019_Oct_11_1201,ACPT_experiment_5_30_19,3.1.0,59.970004597768074,
,,,C,D,d,v,,,,,,,,,,4,15,95,9,,,,,,,,,,,,,v,1,0.7005458440480652,708.2918302090866,None,,,,,001,20,2019_Oct_11_1201,ACPT_experiment_5_30_19,3.1.0,59.970004597768074,
,,,C,D,d,v,,,,,,,,,,4,16,96,0,,,,,,,,,,,,,b,0,0.8170147102900955,712.278464078222,None,,,,,001,20,2019_Oct_11_1201,ACPT_experiment_5_30_19,3.1.0,59.970004597768074,
,,,C,U,y,n,,,,,,,,,,4,17,97,8,,,,,,,,,,,,,n,1,0.9840810830310147,716.3813114444329,None,,,,,001,20,2019_Oct_11_1201,ACPT_experiment_5_30_19,3.1.0,59.970004597768074,
,,,C,G,g,v,,,,,,,,,,4,18,98,4,,,,,,,,,,,,,v,1,1.2840604663479098,720.6681528991194,None,,,,,001,20,2019_Oct_11_1201,ACPT_experiment_5_30_19,3.1.0,59.970004597768074,
,,,C,U,d,n,,,,,,,,,,4,19,99,6,,,,,,,,,,,,,n,1,1.017445698584197,725.2380324379219,None,,,,,001,20,2019_Oct_11_1201,ACPT_experiment_5_30_19,3.1.0,59.970004597768074,
,,,C,U,d,n,,,,,,,,,,5,0,100,15,,,,,,,,,,,,,n,1,2.0849150776775787,729.5246339180367,None,,,,,001,20,2019_Oct_11_1201,ACPT_experiment_5_30_19,3.1.0,59.970004597768074,
,,,C,U,y,n,,,,,,,,,,5,1,101,8,,,,,,,,,,,,,n,1,1.0341032542664834,734.8787099087767,None,,,,,001,20,2019_Oct_11_1201,ACPT_experiment_5_30_19,3.1.0,59.970004597768074,
,,,C,D,d,v,,,,,,,,,,5,2,102,0,,,,,,,,,,,,,v,1,1.0170297426593606,739.2157063508139,None,,,,,001,20,2019_Oct_11_1201,ACPT_experiment_5_30_19,3.1.0,59.970004597768074,
,,,C,G,g,v,,,,,,,,,,5,3,103,4,,,,,,,,,,,,,b,0,1.7513507247986126,743.518578106894,None,,,,,001,20,2019_Oct_11_1201,ACPT_experiment_5_30_19,3.1.0,59.970004597768074,
,,,C,D,y,b,,,,,,,,,,5,4,104,2,,,,,,,,,,,,,b,1,1.5345730912740692,748.5557355280998,None,,,,,001,20,2019_Oct_11_1201,ACPT_experiment_5_30_19,3.1.0,59.970004597768074,
,,,C,G,y,b,,,,,,,,,,5,5,105,14,,,,,,,,,,,,,b,1,1.2009245209037545,753.3760646041737,None,,,,,001,20,2019_Oct_11_1201,ACPT_experiment_5_30_19,3.1.0,59.970004597768074,
,,,C,D,d,v,,,,,,,,,,5,6,106,9,,,,,,,,,,,,,v,1,0.8172921148579917,757.8628048771288,None,,,,,001,20,2019_Oct_11_1201,ACPT_experiment_5_30_19,3.1.0,59.970004597768074,
,,,C,D,y,b,,,,,,,,,,5,7,107,11,,,,,,,,,,,,,b,1,1.0174411707621402,761.9492385863423,None,,,,,001,20,2019_Oct_11_1201,ACPT_experiment_5_30_19,3.1.0,59.970004597768074,
,,,C,D,g,b,,,,,,,,,,5,8,108,10,,,,,,,,,,,,,b,1,1.0307852662253936,766.2725253867447,None,,,,,001,20,2019_Oct_11_1201,ACPT_experiment_5_30_19,3.1.0,59.970004597768074,
,,,C,G,g,v,,,,,,,,,,5,9,109,19,,,,,,,,,,,,,v,1,1.0674802458670456,770.5891345551008,None,,,,,001,20,2019_Oct_11_1201,ACPT_experiment_5_30_19,3.1.0,59.970004597768074,
,,,C,U,g,n,,,,,,,,,,5,10,110,7,,,,,,,,,,,,,n,1,0.6972106502835231,774.9624426211749,None,,,,,001,20,2019_Oct_11_1201,ACPT_experiment_5_30_19,3.1.0,59.970004597768074,
,,,C,G,d,b,,,,,,,,,,5,11,111,3,,,,,,,,,,,,,b,1,1.3844187378181232,778.9454741550408,None,,,,,001,20,2019_Oct_11_1201,ACPT_experiment_5_30_19,3.1.0,59.970004597768074,
,,,C,D,d,v,,,,,,,,,,5,12,112,18,,,,,,,,,,,,,v,1,0.6505278987797283,783.6156630648347,None,,,,,001,20,2019_Oct_11_1201,ACPT_experiment_5_30_19,3.1.0,59.970004597768074,
,,,C,U,y,n,,,,,,,,,,5,13,113,17,,,,,,,,,,,,,n,1,1.7179770536013166,787.5520139601813,None,,,,,001,20,2019_Oct_11_1201,ACPT_experiment_5_30_19,3.1.0,59.970004597768074,
,,,C,D,g,b,,,,,,,,,,5,14,114,1,,,,,,,,,,,,,b,1,1.200908824454018,792.5558128029306,None,,,,,001,20,2019_Oct_11_1201,ACPT_experiment_5_30_19,3.1.0,59.970004597768074,
,,,C,G,g,v,,,,,,,,,,5,15,115,13,,,,,,,,,,,,,v,1,1.6009497559662123,797.0594989029096,None,,,,,001,20,2019_Oct_11_1201,ACPT_experiment_5_30_19,3.1.0,59.970004597768074,
,,,C,G,y,b,,,,,,,,,,5,16,116,5,,,,,,,,,,,,,b,1,1.0007636926620762,801.9295990070186,None,,,,,001,20,2019_Oct_11_1201,ACPT_experiment_5_30_19,3.1.0,59.970004597768074,
,,,C,U,g,n,,,,,,,,,,5,17,117,16,,,,,,,,,,,,,n,1,0.7336134344704988,806.2331384659319,None,,,,,001,20,2019_Oct_11_1201,ACPT_experiment_5_30_19,3.1.0,59.970004597768074,
,,,C,U,d,n,,,,,,,,,,5,18,118,6,,,,,,,,,,,,,n,1,0.6505266913609375,810.252552257859,None,,,,,001,20,2019_Oct_11_1201,ACPT_experiment_5_30_19,3.1.0,59.970004597768074,
,,,C,G,d,b,,,,,,,,,,5,19,119,12,,,,,,,,,,,,,b,1,1.234027428338777,814.2058245299895,None,,,,,001,20,2019_Oct_11_1201,ACPT_experiment_5_30_19,3.1.0,59.970004597768074,
,,,C,G,y,b,,,,,,,,,,6,0,120,5,,,,,,,,,,,,,b,1,1.017445396729272,818.7090004953443,None,,,,,001,20,2019_Oct_11_1201,ACPT_experiment_5_30_19,3.1.0,59.970004597768074,
,,,C,U,d,n,,,,,,,,,,6,1,121,15,,,,,,,,,,,,,n,1,1.000496551157994,823.0292147156633,None,,,,,001,20,2019_Oct_11_1201,ACPT_experiment_5_30_19,3.1.0,59.970004597768074,
,,,C,D,y,b,,,,,,,,,,6,2,122,2,,,,,,,,,,,,,b,1,0.8006312387724392,827.3155363763726,None,,,,,001,20,2019_Oct_11_1201,ACPT_experiment_5_30_19,3.1.0,59.970004597768074,
,,,C,U,y,n,,,,,,,,,,6,3,123,8,,,,,,,,,,,,,n,1,0.6168937268839727,831.4188935753527,None,,,,,001,20,2019_Oct_11_1201,ACPT_experiment_5_30_19,3.1.0,59.970004597768074,
,,,C,U,d,n,,,,,,,,,,6,4,124,6,,,,,,,,,,,,,n,1,0.5170842274528695,835.304911087158,None,,,,,001,20,2019_Oct_11_1201,ACPT_experiment_5_30_19,3.1.0,59.970004597768074,
,,,C,G,d,b,,,,,,,,,,6,5,125,12,,,,,,,,,,,,,b,1,1.8344827461296518,839.1247523658631,None,,,,,001,20,2019_Oct_11_1201,ACPT_experiment_5_30_19,3.1.0,59.970004597768074,
,,,C,U,g,n,,,,,,,,,,6,6,126,7,,,,,,,,,,,,,n,1,0.5337393682966649,844.2450596178342,None,,,,,001,20,2019_Oct_11_1201,ACPT_experiment_5_30_19,3.1.0,59.970004597768074,
,,,C,U,y,n,,,,,,,,,,6,7,127,17,0,0,0,0,0,0,0,0,,,,,n,1,0.9640774668096128,848.08463073045,None,,,,,001,20,2019_Oct_11_1201,ACPT_experiment_5_30_19,3.1.0,59.970004597768074,
,,,C,U,y,n,R,G,g,R,c ,,,,,6,7,127,17,0,0,0,0,,,,,0,0,0,7,,,,,,up,0.900682825759759,896.4847217698598,None,001,20,2019_Oct_11_1201,ACPT_experiment_5_30_19,3.1.0,59.970004597768074,
,,,C,U,y,n,L,G,y,R,y,,,,,6,7,127,17,0,0,0,0,,,,,0,1,1,35,,,,,,down,0.6838623288522285,898.669715903312,None,001,20,2019_Oct_11_1201,ACPT_experiment_5_30_19,3.1.0,59.970004597768074,
,,,C,U,y,n,R,U,g,R,u,,,,,6,7,127,17,0,0,0,0,,,,,0,2,2,11,,,,,,up,0.5337300107976262,900.637878371228,None,001,20,2019_Oct_11_1201,ACPT_experiment_5_30_19,3.1.0,59.970004597768074,
,,,C,U,y,n,R,G,d,R,i,,,,,6,7,127,17,0,0,0,0,,,,,0,3,3,5,,,,,,up,0.6838282192593397,902.4559420269734,None,001,20,2019_Oct_11_1201,ACPT_experiment_5_30_19,3.1.0,59.970004597768074,
,,,C,U,y,n,L,U,y,L,u,,,,,6,7,127,17,0,0,0,0,,,,,0,4,4,24,,,,,,down,0.8339671781195648,904.4240812520702,None,001,20,2019_Oct_11_1201,ACPT_experiment_5_30_19,3.1.0,59.970004597768074,
,,,C,U,y,n,L,G,y,L,y,,,,,6,7,127,17,0,0,0,0,,,,,0,5,5,34,,,,,,down,0.7172033997303515,906.5423564174789,None,001,20,2019_Oct_11_1201,ACPT_experiment_5_30_19,3.1.0,59.970004597768074,
,,,C,U,y,n,L,U,d,R,u,,,,,6,7,127,17,0,0,0,0,,,,,0,6,6,21,,,,,,up,0.8005871679706615,908.5438907454645,None,001,20,2019_Oct_11_1201,ACPT_experiment_5_30_19,3.1.0,59.970004597768074,
,,,C,U,y,n,L,D,g,R,i,,,,,6,7,127,17,0,0,0,0,,,,,0,7,7,15,,,,,,up,0.4169716657952449,910.6287961637881,None,001,20,2019_Oct_11_1201,ACPT_experiment_5_30_19,3.1.0,59.970004597768074,
,,,C,U,y,n,L,G,g,L,c ,,,,,6,7,127,17,0,0,0,0,,,,,0,8,8,18,,,,,,up,0.6671721728507691,912.3300866836453,None,001,20,2019_Oct_11_1201,ACPT_experiment_5_30_19,3.1.0,59.970004597768074,
,,,C,U,y,n,L,U,g,R,u,,,,,6,7,127,17,0,0,0,0,,,,,0,9,9,23,,,,,,up,0.4336551809901721,914.2815710697523,None,001,20,2019_Oct_11_1201,ACPT_experiment_5_30_19,3.1.0,59.970004597768074,
,,,C,U,y,n,L,U,y,R,u,,,,,6,7,127,17,0,0,0,0,,,,,0,10,10,25,,,,,,down,0.533734236764758,915.9995384640006,None,001,20,2019_Oct_11_1201,ACPT_experiment_5_30_19,3.1.0,59.970004597768074,
,,,C,U,y,n,R,D,y,R,y,,,,,6,7,127,17,0,0,0,0,,,,,0,11,11,27,,,,,,down,0.550435863248822,917.8175613693465,None,001,20,2019_Oct_11_1201,ACPT_experiment_5_30_19,3.1.0,59.970004597768074,
,,,C,U,y,n,R,U,y,R,u,,,,,6,7,127,17,0,0,0,0,,,,,0,12,12,31,,,,,,down,0.5670891929639765,919.6523142755295,None,001,20,2019_Oct_11_1201,ACPT_experiment_5_30_19,3.1.0,59.970004597768074,
,,,C,U,y,n,R,D,d,L,c,,,,,6,7,127,17,0,0,0,0,,,,,0,13,13,0,,,,,,up,0.7972845745252926,921.5237352962758,None,001,20,2019_Oct_11_1201,ACPT_experiment_5_30_19,3.1.0,59.970004597768074,
,,,C,U,y,n,L,U,d,L,u,,,,,6,7,127,17,0,0,0,0,,,,,0,14,14,20,,,,,,up,0.6671649283352963,923.5886404187813,None,001,20,2019_Oct_11_1201,ACPT_experiment_5_30_19,3.1.0,59.970004597768074,
,,,C,U,y,n,R,D,g,L,i,,,,,6,7,127,17,0,0,0,0,,,,,0,15,15,2,,,,,,up,0.5671193784446587,925.540088280457,None,001,20,2019_Oct_11_1201,ACPT_experiment_5_30_19,3.1.0,59.970004597768074,
,,,C,U,y,n,R,U,g,L,u,,,,,6,7,127,17,0,0,0,0,,,,,0,16,16,10,,,,,,up,0.4503411110244997,927.3915210795785,None,001,20,2019_Oct_11_1201,ACPT_experiment_5_30_19,3.1.0,59.970004597768074,
,,,C,U,y,n,L,G,d,L,i,,,,,6,7,127,17,0,0,0,0,,,,,0,17,17,16,,,,,,up,0.9674008882375347,929.1261728945856,None,001,20,2019_Oct_11_1201,ACPT_experiment_5_30_19,3.1.0,59.970004597768074,
,,,C,U,y,n,L,U,g,L,u,,,,,6,7,127,17,0,0,0,0,,,,,0,18,18,22,,,,,,up,0.45033326280008623,931.3778853923714,None,001,20,2019_Oct_11_1201,ACPT_experiment_5_30_19,3.1.0,59.970004597768074,
,,,C,U,y,n,R,G,d,L,i,,,,,6,7,127,17,0,0,0,0,,,,,0,19,19,4,,,,,,up,0.4670125520287911,933.112534188831,None,001,20,2019_Oct_11_1201,ACPT_experiment_5_30_19,3.1.0,59.970004597768074,
,,,C,U,y,n,R,D,y,L,y,,,,,6,7,127,17,0,0,0,0,,,,,0,20,20,26,,,,,,down,0.666900201669705,934.8808108182357,None,001,20,2019_Oct_11_1201,ACPT_experiment_5_30_19,3.1.0,59.970004597768074,
,,,C,U,y,n,R,G,y,L,y,,,,,6,7,127,17,0,0,0,0,,,,,0,21,21,28,,,,,,down,0.4169786084557927,936.832021723887,None,001,20,2019_Oct_11_1201,ACPT_experiment_5_30_19,3.1.0,59.970004597768074,
,,,C,U,y,n,L,D,d,L,c ,,,,,6,7,127,17,0,0,0,0,,,,,0,22,22,12,,,,,,up,0.6504880539450824,938.5333149604376,None,001,20,2019_Oct_11_1201,ACPT_experiment_5_30_19,3.1.0,59.970004597768074,
,,,C,U,y,n,L,D,g,L,i,,,,,6,7,127,17,0,0,0,0,,,,,0,23,23,14,,,,,,up,0.533726388539435,940.4681260944126,None,001,20,2019_Oct_11_1201,ACPT_experiment_5_30_19,3.1.0,59.970004597768074,
,,,C,U,y,n,R,G,g,L,c ,,,,,6,7,127,17,0,0,0,0,,,,,0,24,24,6,,,,,,up,0.5670647427250515,942.2861903538678,None,001,20,2019_Oct_11_1201,ACPT_experiment_5_30_19,3.1.0,59.970004597768074,
,,,C,U,y,n,L,D,d,R,c ,,,,,6,7,127,17,0,0,0,0,,,,,0,25,25,13,,,,,,up,0.5837699914663972,944.1375709321073,None,001,20,2019_Oct_11_1201,ACPT_experiment_5_30_19,3.1.0,59.970004597768074,
,,,C,U,y,n,R,U,y,L,u,,,,,6,7,127,17,0,0,0,0,,,,,0,26,26,30,,,,,,down,0.6671619097869552,946.0223375575906,None,001,20,2019_Oct_11_1201,ACPT_experiment_5_30_19,3.1.0,59.970004597768074,
,,,C,U,y,n,R,D,d,R,c ,,,,,6,7,127,17,0,0,0,0,,,,,0,27,27,1,,,,,,up,0.533742386845006,948.0071648257053,None,001,20,2019_Oct_11_1201,ACPT_experiment_5_30_19,3.1.0,59.970004597768074,
,,,C,U,y,n,L,G,d,R,i,,,,,6,7,127,17,0,0,0,0,,,,,0,28,28,17,,,,,,up,0.5003810916941802,949.8085187048864,None,001,20,2019_Oct_11_1201,ACPT_experiment_5_30_19,3.1.0,59.970004597768074,
,,,C,U,y,n,R,G,y,R,y,,,,,6,7,127,17,0,0,0,0,,,,,0,29,29,29,,,,,,down,0.5170540419721874,951.5932340452382,None,001,20,2019_Oct_11_1201,ACPT_experiment_5_30_19,3.1.0,59.970004597768074,
,,,C,U,y,n,R,D,g,R,i,,,,,6,7,127,17,0,0,0,0,,,,,0,30,30,3,,,,,,up,0.650491676202364,953.3946015078864,None,001,20,2019_Oct_11_1201,ACPT_experiment_5_30_19,3.1.0,59.970004597768074,
,,,C,U,y,n,R,U,d,L,u,,,,,6,7,127,17,0,0,0,0,,,,,0,31,31,8,,,,,,down,0.5504138278483879,955.3294023787976,None,001,20,2019_Oct_11_1201,ACPT_experiment_5_30_19,3.1.0,59.970004597768074,
,,,C,U,y,n,L,G,g,R,c ,,,,,6,7,127,17,0,0,0,0,,,,,0,32,32,19,,,,,,up,0.6004453565819858,957.1641275143375,None,001,20,2019_Oct_11_1201,ACPT_experiment_5_30_19,3.1.0,59.970004597768074,
,,,C,U,y,n,L,D,y,R,y,,,,,6,7,127,17,0,0,0,0,,,,,0,33,33,33,,,,,,down,0.5670876836902607,959.0488959509503,None,001,20,2019_Oct_11_1201,ACPT_experiment_5_30_19,3.1.0,59.970004597768074,
,,,C,U,y,n,L,D,y,L,y,,,,,6,7,127,17,0,0,0,0,,,,,0,34,34,32,,,,,,down,0.7505634874605676,960.9002991683001,None,001,20,2019_Oct_11_1201,ACPT_experiment_5_30_19,3.1.0,59.970004597768074,
,,,C,U,y,n,R,U,d,R,u,,,,,6,7,127,17,0,0,0,0,,,,,0,35,35,9,,,,,,up,0.550409300026331,962.9351769820014,None,001,20,2019_Oct_11_1201,ACPT_experiment_5_30_19,3.1.0,59.970004597768074,
,,,C,U,y,n,R,U,y,L,u,,,,,6,7,127,17,0,0,0,0,,,,,1,0,36,30,,,,,,down,0.6338021239107547,964.7699072490741,None,001,20,2019_Oct_11_1201,ACPT_experiment_5_30_19,3.1.0,59.970004597768074,
,,,C,U,y,n,L,G,y,R,y,,,,,6,7,127,17,0,0,0,0,,,,,1,1,37,35,,,,,,down,0.6504850353967413,966.6880333585787,None,001,20,2019_Oct_11_1201,ACPT_experiment_5_30_19,3.1.0,59.970004597768074,
,,,C,U,y,n,L,G,d,R,i,,,,,6,7,127,17,0,0,0,0,,,,,1,2,38,17,,,,,,up,0.6504838279779506,968.6228306072326,None,001,20,2019_Oct_11_1201,ACPT_experiment_5_30_19,3.1.0,59.970004597768074,
,,,C,U,y,n,R,U,d,L,u,,,,,6,7,127,17,0,0,0,0,,,,,1,3,39,8,,,,,,up,0.6671622116418803,970.5576308744348,None,001,20,2019_Oct_11_1201,ACPT_experiment_5_30_19,3.1.0,59.970004597768074,
,,,C,U,y,n,R,G,y,L,y,,,,,6,7,127,17,0,0,0,0,,,,,1,4,40,28,,,,,,down,0.5670931170761833,972.5091134494132,None,001,20,2019_Oct_11_1201,ACPT_experiment_5_30_19,3.1.0,59.970004597768074,
,,,C,U,y,n,L,D,y,R,y,,,,,6,7,127,17,0,0,0,0,,,,,1,5,41,33,,,,,,down,0.5668860446785402,974.3773655983932,None,001,20,2019_Oct_11_1201,ACPT_experiment_5_30_19,3.1.0,59.970004597768074,
,,,C,U,y,n,R,G,d,L,i,,,,,6,7,127,17,0,0,0,0,,,,,1,6,42,4,,,,,,up,1.0174251724565693,976.2619631851849,None,001,20,2019_Oct_11_1201,ACPT_experiment_5_30_19,3.1.0,59.970004597768074,
,,,C,U,y,n,R,D,y,L,y,,,,,6,7,127,17,0,0,0,0,,,,,1,7,43,26,,,,,,down,1.2676643169279487,978.5637069098493,None,001,20,2019_Oct_11_1201,ACPT_experiment_5_30_19,3.1.0,59.970004597768074,
,,,C,U,y,n,R,U,y,R,u,,,,,6,7,127,17,0,0,0,0,,,,,1,8,44,31,,,,,,down,1.484481795287138,981.1156203523797,None,001,20,2019_Oct_11_1201,ACPT_experiment_5_30_19,3.1.0,59.970004597768074,
,,,C,U,y,n,R,G,g,L,c ,,,,,6,7,127,17,0,0,0,0,,,,,1,9,45,6,,,,,,up,0.6671643246254462,983.8844197943108,None,001,20,2019_Oct_11_1201,ACPT_experiment_5_30_19,3.1.0,59.970004597768074,
,,,C,U,y,n,L,D,y,L,y,,,,,6,7,127,17,0,0,0,0,,,,,1,10,46,32,,,,,,down,0.6338295926989304,985.8358999544507,None,001,20,2019_Oct_11_1201,ACPT_experiment_5_30_19,3.1.0,59.970004597768074,
,,,C,U,y,n,R,D,d,L,c,,,,,6,7,127,17,0,0,0,0,,,,,1,11,47,0,,,,,,up,0.6338015202009046,987.7540236491168,None,001,20,2019_Oct_11_1201,ACPT_experiment_5_30_19,3.1.0,59.970004597768074,
,,,C,U,y,n,R,G,d,R,i,,,,,6,7,127,17,0,0,0,0,,,,,1,12,48,5,,,,,,up,0.8339641595712237,989.6721428159617,None,001,20,2019_Oct_11_1201,ACPT_experiment_5_30_19,3.1.0,59.970004597768074,
,,,C,U,y,n,R,U,g,R,u,,,,,6,7,127,17,0,0,0,0,,,,,1,13,49,11,,,,,,up,0.8840002161286975,991.7904164720967,None,001,20,2019_Oct_11_1201,ACPT_experiment_5_30_19,3.1.0,59.970004597768074,
,,,C,U,y,n,L,U,g,L,u,,,,,6,7,127,17,0,0,0,0,,,,,1,14,50,22,,,,,,up,0.9006849387424154,993.9420487066882,None,001,20,2019_Oct_11_1201,ACPT_experiment_5_30_19,3.1.0,59.970004597768074,
,,,C,U,y,n,L,U,d,L,u,,,,,6,7,127,17,0,0,0,0,,,,,1,15,51,20,,,,,,up,0.7839999444586283,996.1103644564764,None,001,20,2019_Oct_11_1201,ACPT_experiment_5_30_19,3.1.0,59.970004597768074,
,,,C,U,y,n,R,G,g,R,c ,,,,,6,7,127,17,0,0,0,0,,,,,1,16,52,7,,,,,,up,0.5003687156468004,998.1786047727473,None,001,20,2019_Oct_11_1201,ACPT_experiment_5_30_19,3.1.0,59.970004597768074,
,,,C,U,y,n,L,D,d,R,c ,,,,,6,7,127,17,0,0,0,0,,,,,1,17,53,13,,,,,,up,0.4836966709335684,999.9632893239086,None,001,20,2019_Oct_11_1201,ACPT_experiment_5_30_19,3.1.0,59.970004597768074,
,,,C,U,y,n,R,D,d,R,c ,,,,,6,7,127,17,0,0,0,0,,,,,1,18,54,1,,,,,,up,0.43365065316902474,1001.7313102822918,None,001,20,2019_Oct_11_1201,ACPT_experiment_5_30_19,3.1.0,59.970004597768074,
,,,C,U,y,n,R,U,g,L,u,,,,,6,7,127,17,0,0,0,0,,,,,1,19,55,10,,,,,,up,0.6171391348416364,1003.4492662060566,None,001,20,2019_Oct_11_1201,ACPT_experiment_5_30_19,3.1.0,59.970004597768074,
,,,C,U,y,n,R,D,y,R,y,,,,,6,7,127,17,0,0,0,0,,,,,1,20,56,27,,,,,,down,0.43338713392222417,1005.3676618719046,None,001,20,2019_Oct_11_1201,ACPT_experiment_5_30_19,3.1.0,59.970004597768074,
,,,C,U,y,n,L,U,g,R,u,,,,,6,7,127,17,0,0,0,0,,,,,1,21,57,23,,,,,,up,0.6004359990838566,1007.0853732932756,None,001,20,2019_Oct_11_1201,ACPT_experiment_5_30_19,3.1.0,59.970004597768074,
,,,C,U,y,n,R,D,g,R,i,,,,,6,7,127,17,0,0,0,0,,,,,1,22,58,3,,,,,,up,0.45035378892680455,1008.9701085258594,None,001,20,2019_Oct_11_1201,ACPT_experiment_5_30_19,3.1.0,59.970004597768074,
,,,C,U,y,n,R,D,g,L,i,,,,,6,7,127,17,0,0,0,0,,,,,1,23,59,2,,,,,,up,0.5837733118687538,1010.7047769428809,None,001,20,2019_Oct_11_1201,ACPT_experiment_5_30_19,3.1.0,59.970004597768074,
,,,C,U,y,n,L,G,g,R,c ,,,,,6,7,127,17,0,0,0,0,,,,,1,24,60,19,,,,,,up,0.40002976288360514,1012.5731347410438,None,001,20,2019_Oct_11_1201,ACPT_experiment_5_30_19,3.1.0,59.970004597768074,
,,,C,U,y,n,L,G,d,L,i,,,,,6,7,127,17,0,0,0,0,,,,,1,25,61,16,,,,,,up,0.467036096702941,1014.240772675862,None,001,20,2019_Oct_11_1201,ACPT_experiment_5_30_19,3.1.0,59.970004597768074,
,,,C,U,y,n,L,U,y,L,u,,,,,6,7,127,17,0,0,0,0,,,,,1,26,62,24,,,,,,down,0.6505915901434491,1015.9921246080794,None,001,20,2019_Oct_11_1201,ACPT_experiment_5_30_19,3.1.0,59.970004597768074,
,,,C,U,y,n,L,D,g,R,i,,,,,6,7,127,17,0,0,0,0,,,,,1,27,63,15,,,,,,up,0.4669023750238921,1017.9269306105225,None,001,20,2019_Oct_11_1201,ACPT_experiment_5_30_19,3.1.0,59.970004597768074,
,,,C,U,y,n,R,U,d,R,u,,,,,6,7,127,17,0,0,0,0,,,,,1,28,64,9,,,,,,up,0.46669530262624903,1019.6951112500992,None,001,20,2019_Oct_11_1201,ACPT_experiment_5_30_19,3.1.0,59.970004597768074,
,,,C,U,y,n,L,U,d,R,u,,,,,6,7,127,17,0,0,0,0,,,,,1,29,65,21,,,,,,up,0.46700591122316837,1021.446270297095,None,001,20,2019_Oct_11_1201,ACPT_experiment_5_30_19,3.1.0,59.970004597768074,
,,,C,U,y,n,L,U,y,R,u,,,,,6,7,127,17,0,0,0,0,,,,,1,30,66,25,,,,,,down,0.5504114130098969,1023.1975977790735,None,001,20,2019_Oct_11_1201,ACPT_experiment_5_30_19,3.1.0,59.970004597768074,
,,,C,U,y,n,L,G,y,L,y,,,,,6,7,127,17,0,0,0,0,,,,,1,31,67,34,,,,,,down,0.7672388525770657,1025.0323229146143,None,001,20,2019_Oct_11_1201,ACPT_experiment_5_30_19,3.1.0,59.970004597768074,
,,,C,U,y,n,L,G,g,L,c ,,,,,6,7,127,17,0,0,0,0,,,,,1,32,68,18,,,,,,up,0.5670888911090515,1027.0838803193992,None,001,20,2019_Oct_11_1201,ACPT_experiment_5_30_19,3.1.0,59.970004597768074,
,,,C,U,y,n,L,D,d,L,c ,,,,,6,7,127,17,0,0,0,0,,,,,1,33,69,12,,,,,,up,0.5003747527434825,1028.9352856497326,None,001,20,2019_Oct_11_1201,ACPT_experiment_5_30_19,3.1.0,59.970004597768074,
,,,C,U,y,n,R,G,y,R,y,,,,,6,7,127,17,0,0,0,0,,,,,1,34,70,29,,,,,,down,0.6171312866163134,1030.7199732194422,None,001,20,2019_Oct_11_1201,ACPT_experiment_5_30_19,3.1.0,59.970004597768074,
,,,C,U,y,n,L,D,g,L,i,,,,,6,7,127,17,0,0,0,0,,,,,1,35,71,14,,,,,,up,0.5501527234391688,1032.6383580185166,None,001,20,2019_Oct_11_1201,ACPT_experiment_5_30_19,3.1.0,59.970004597768074,
,,,C,U,y,n,,,,,,,,,,6,7,127,17,1,0,1,0,0,0,0,0,,,,,,,,,,,,,,001,20,2019_Oct_11_1201,ACPT_experiment_5_30_19,3.1.0,59.970004597768074,
,,,C,U,y,n,R,U,g,L,u,,,,,6,7,127,17,1,0,1,0,,,,,0,0,0,10,,,,,,up,0.5168062191751233,1042.028815059899,None,001,20,2019_Oct_11_1201,ACPT_experiment_5_30_19,3.1.0,59.970004597768074,
,,,C,U,y,n,R,G,y,R,y,,,,,6,7,127,17,1,0,1,0,,,,,0,1,1,29,,,,,,down,0.8339581224754511,1043.8299274552346,None,001,20,2019_Oct_11_1201,ACPT_experiment_5_30_19,3.1.0,59.970004597768074,
,,,C,U,y,n,L,U,y,R,u,,,,,6,7,127,17,1,0,1,0,,,,,0,2,2,25,,,,,,down,0.633617992478321,1045.965038874372,None,001,20,2019_Oct_11_1201,ACPT_experiment_5_30_19,3.1.0,59.970004597768074,
,,,C,U,y,n,L,U,g,L,u,,,,,6,7,127,17,1,0,1,0,,,,,0,3,3,22,,,,,,up,0.9340383856688277,1047.8996851956217,None,001,20,2019_Oct_11_1201,ACPT_experiment_5_30_19,3.1.0,59.970004597768074,
,,,C,U,y,n,R,U,y,L,u,,,,,6,7,127,17,1,0,1,0,,,,,0,4,4,30,,,,,,down,0.6671413836602369,1050.1180526984162,None,001,20,2019_Oct_11_1201,ACPT_experiment_5_30_19,3.1.0,59.970004597768074,
,,,C,U,y,n,L,G,g,R,c ,,,,,6,7,127,17,1,0,1,0,,,,,0,5,5,19,,,,,,up,0.4670354929940004,1052.0694939192863,None,001,20,2019_Oct_11_1201,ACPT_experiment_5_30_19,3.1.0,59.970004597768074,
,,,C,U,y,n,R,G,g,L,c ,,,,,6,7,127,17,1,0,1,0,,,,,0,6,6,6,,,,,,up,0.46690750655579905,1053.82084434223,None,001,20,2019_Oct_11_1201,ACPT_experiment_5_30_19,3.1.0,59.970004597768074,
,,,C,U,y,n,L,U,y,L,u,,,,,6,7,127,17,1,0,1,0,,,,,0,7,7,24,,,,,,down,0.7005241105016466,1055.5888526227109,None,001,20,2019_Oct_11_1201,ACPT_experiment_5_30_19,3.1.0,59.970004597768074,
,,,C,U,y,n,R,D,y,L,y,,,,,6,7,127,17,1,0,1,0,,,,,0,8,8,26,,,,,,down,0.6004444510181202,1057.573697700259,None,001,20,2019_Oct_11_1201,ACPT_experiment_5_30_19,3.1.0,59.970004597768074,
,,,C,U,y,n,L,U,d,R,u,,,,,6,7,127,17,1,0,1,0,,,,,0,9,9,21,,,,,,up,0.5002549163846197,1059.4751469353741,None,001,20,2019_Oct_11_1201,ACPT_experiment_5_30_19,3.1.0,59.970004597768074,
,,,C,U,y,n,R,U,d,L,u,,,,,6,7,127,17,1,0,1,0,,,,,0,10,10,8,,,,,,up,0.5637702993581115,1061.2798417435624,None,001,20,2019_Oct_11_1201,ACPT_experiment_5_30_19,3.1.0,59.970004597768074,
,,,C,U,y,n,R,U,d,R,u,,,,,6,7,127,17,1,0,1,0,,,,,0,11,11,9,,,,,,up,0.5337360478933988,1063.1112298742082,None,001,20,2019_Oct_11_1201,ACPT_experiment_5_30_19,3.1.0,59.970004597768074,
,,,C,U,y,n,L,D,g,R,i,,,,,6,7,127,17,1,0,1,0,,,,,0,12,12,15,,,,,,down,0.5837621432410742,1064.929287191003,None,001,20,2019_Oct_11_1201,ACPT_experiment_5_30_19,3.1.0,59.970004597768074,
,,,C,U,y,n,R,G,d,L,i,,,,,6,7,127,17,1,0,1,0,,,,,0,13,13,4,,,,,,up,0.6504832242681005,1066.7973684901617,None,001,20,2019_Oct_11_1201,ACPT_experiment_5_30_19,3.1.0,59.970004597768074,
,,,C,U,y,n,L,U,g,R,u,,,,,6,7,127,17,1,0,1,0,,,,,0,14,14,23,,,,,,up,0.5170486085853554,1068.7321717759123,None,001,20,2019_Oct_11_1201,ACPT_experiment_5_30_19,3.1.0,59.970004597768074,
,,,C,U,y,n,R,U,y,R,u,,,,,6,7,127,17,1,0,1,0,,,,,0,15,15,31,,,,,,down,0.6004501862598772,1070.5335386348497,None,001,20,2019_Oct_11_1201,ACPT_experiment_5_30_19,3.1.0,59.970004597768074,
,,,C,U,y,n,R,G,g,R,c ,,,,,6,7,127,17,1,0,1,0,,,,,0,16,16,7,,,,,,up,0.5670919096573925,1072.418300128802,None,001,20,2019_Oct_11_1201,ACPT_experiment_5_30_19,3.1.0,59.970004597768074,
,,,C,U,y,n,R,D,g,R,i,,,,,6,7,127,17,1,0,1,0,,,,,0,17,17,3,,,,,,up,0.48343647209003393,1074.286638608257,None,001,20,2019_Oct_11_1201,ACPT_experiment_5_30_19,3.1.0,59.970004597768074,
,,,C,U,y,n,L,D,y,L,y,,,,,6,7,127,17,1,0,1,0,,,,,0,18,18,32,,,,,,down,0.6838508583687144,1076.0543936325548,None,001,20,2019_Oct_11_1201,ACPT_experiment_5_30_19,3.1.0,59.970004597768074,
,,,C,U,y,n,L,G,y,R,y,,,,,6,7,127,17,1,0,1,0,,,,,0,19,19,35,,,,,,down,0.9674084346079326,1078.0392163728466,None,001,20,2019_Oct_11_1201,ACPT_experiment_5_30_19,3.1.0,59.970004597768074,
,,,C,U,y,n,R,U,g,R,u,,,,,6,7,127,17,1,0,1,0,,,,,0,20,20,11,,,,,,up,0.9006740719705704,1080.3076193284878,None,001,20,2019_Oct_11_1201,ACPT_experiment_5_30_19,3.1.0,59.970004597768074,
,,,C,U,y,n,L,G,d,R,i,,,,,6,7,127,17,1,0,1,0,,,,,0,21,21,17,,,,,,up,0.5504135259934628,1082.4926167823432,None,001,20,2019_Oct_11_1201,ACPT_experiment_5_30_19,3.1.0,59.970004597768074,
,,,C,U,y,n,R,D,d,L,c,,,,,6,7,127,17,1,0,1,0,,,,,0,22,22,0,,,,,,up,0.6171267587951661,1084.3106668546225,None,001,20,2019_Oct_11_1201,ACPT_experiment_5_30_19,3.1.0,59.970004597768074,
,,,C,U,y,n,L,G,d,L,i,,,,,6,7,127,17,1,0,1,0,,,,,0,23,23,16,,,,,,up,0.7339068373430564,1086.2120825838538,None,001,20,2019_Oct_11_1201,ACPT_experiment_5_30_19,3.1.0,59.970004597768074,
,,,C,U,y,n,R,D,g,L,i,,,,,6,7,127,17,1,0,1,0,,,,,0,24,24,2,,,,,,up,0.6505043541046689,1088.2302838250198,None,001,20,2019_Oct_11_1201,ACPT_experiment_5_30_19,3.1.0,59.970004597768074,
,,,C,U,y,n,L,D,g,L,i,,,,,6,7,127,17,1,0,1,0,,,,,0,25,25,14,,,,,,up,0.7172040034402016,1090.1651070331873,None,001,20,2019_Oct_11_1201,ACPT_experiment_5_30_19,3.1.0,59.970004597768074,
,,,C,U,y,n,R,G,d,R,i,,,,,6,7,127,17,1,0,1,0,,,,,0,26,26,5,,,,,,up,0.5504096018803466,1092.1666247591584,None,001,20,2019_Oct_11_1201,ACPT_experiment_5_30_19,3.1.0,59.970004597768074,
,,,C,U,y,n,L,U,d,L,u,,,,,6,7,127,17,1,0,1,0,,,,,0,27,27,20,,,,,,up,0.38333326793144806,1094.0183080977686,None,001,20,2019_Oct_11_1201,ACPT_experiment_5_30_19,3.1.0,59.970004597768074,
,,,C,U,y,n,R,D,y,R,y,,,,,6,7,127,17,1,0,1,0,,,,,0,28,28,27,,,,,,up,0.33357189924845443,1095.7193206093489,None,001,20,2019_Oct_11_1201,ACPT_experiment_5_30_19,3.1.0,59.970004597768074,
,,,C,U,y,n,L,D,d,L,c ,,,,,6,7,127,17,1,0,1,0,,,,,0,29,29,12,,,,,,up,0.6671613060780146,1097.3539018205165,None,001,20,2019_Oct_11_1201,ACPT_experiment_5_30_19,3.1.0,59.970004597768074,
,,,C,U,y,n,R,D,d,R,c ,,,,,6,7,127,17,1,0,1,0,,,,,0,30,30,1,,,,,,up,0.40029177285668993,1099.3053819806573,None,001,20,2019_Oct_11_1201,ACPT_experiment_5_30_19,3.1.0,59.970004597768074,
,,,C,U,y,n,L,D,d,R,c ,,,,,6,7,127,17,1,0,1,0,,,,,0,31,31,13,,,,,,up,0.48342258676893834,1101.0069432642767,None,001,20,2019_Oct_11_1201,ACPT_experiment_5_30_19,3.1.0,59.970004597768074,
,,,C,U,y,n,L,G,g,L,c ,,,,,6,7,127,17,1,0,1,0,,,,,0,32,32,18,,,,,,up,0.5837718025959475,1102.7746816865601,None,001,20,2019_Oct_11_1201,ACPT_experiment_5_30_19,3.1.0,59.970004597768074,
,,,C,U,y,n,L,D,y,R,y,,,,,6,7,127,17,1,0,1,0,,,,,0,33,33,33,,,,,,down,0.4503755224732231,1104.6427660042673,None,001,20,2019_Oct_11_1201,ACPT_experiment_5_30_19,3.1.0,59.970004597768074,
,,,C,U,y,n,L,G,y,L,y,,,,,6,7,127,17,1,0,1,0,,,,,0,34,34,34,,,,,,down,0.7172151720678812,1106.3774160081457,None,001,20,2019_Oct_11_1201,ACPT_experiment_5_30_19,3.1.0,59.970004597768074,
,,,C,U,y,n,R,G,y,L,y,,,,,6,7,127,17,1,0,1,0,,,,,0,35,35,28,,,,,,down,0.6000287969491183,1108.3960054345944,None,001,20,2019_Oct_11_1201,ACPT_experiment_5_30_19,3.1.0,59.970004597768074,
,,,C,U,y,n,R,U,d,L,u,,,,,6,7,127,17,1,0,1,0,,,,,1,0,36,8,,,,,,up,0.6671664376090121,1110.2803754228617,None,001,20,2019_Oct_11_1201,ACPT_experiment_5_30_19,3.1.0,59.970004597768074,
,,,C,U,y,n,L,D,d,L,c ,,,,,6,7,127,17,1,0,1,0,,,,,1,1,37,12,,,,,,up,0.5337309163614918,1112.2151793123212,None,001,20,2019_Oct_11_1201,ACPT_experiment_5_30_19,3.1.0,59.970004597768074,
,,,C,U,y,n,R,U,y,L,u,,,,,6,7,127,17,1,0,1,0,,,,,1,2,38,30,,,,,,down,0.6337991053633232,1114.0499101831028,None,001,20,2019_Oct_11_1201,ACPT_experiment_5_30_19,3.1.0,59.970004597768074,
,,,C,U,y,n,R,U,y,R,u,,,,,6,7,127,17,1,0,1,0,,,,,1,3,39,31,,,,,,down,0.7338866130712631,1115.9847083373206,None,001,20,2019_Oct_11_1201,ACPT_experiment_5_30_19,3.1.0,59.970004597768074,
,,,C,U,y,n,R,G,y,R,y,,,,,6,7,127,17,1,0,1,0,,,,,1,4,40,29,,,,,,down,0.4836957653697027,1118.0029047488106,None,001,20,2019_Oct_11_1201,ACPT_experiment_5_30_19,3.1.0,59.970004597768074,
,,,C,U,y,n,L,D,y,R,y,,,,,6,7,127,17,1,0,1,0,,,,,1,5,41,33,,,,,,down,0.517051627132787,1119.7709166515488,None,001,20,2019_Oct_11_1201,ACPT_experiment_5_30_19,3.1.0,59.970004597768074,
,,,C,U,y,n,L,G,d,L,i,,,,,6,7,127,17,1,0,1,0,,,,,1,6,42,16,,,,,,up,0.6335639604676544,1121.5892024724326,None,001,20,2019_Oct_11_1201,ACPT_experiment_5_30_19,3.1.0,59.970004597768074,
,,,C,U,y,n,L,G,g,L,c ,,,,,6,7,127,17,1,0,1,0,,,,,1,7,43,18,,,,,,up,0.41701634030596324,1123.4904099218475,None,001,20,2019_Oct_11_1201,ACPT_experiment_5_30_19,3.1.0,59.970004597768074,
,,,C,U,y,n,L,G,g,R,c ,,,,,6,7,127,17,1,0,1,0,,,,,1,8,44,19,,,,,,up,0.7172350944847494,1125.1749982115107,None,001,20,2019_Oct_11_1201,ACPT_experiment_5_30_19,3.1.0,59.970004597768074,
,,,C,U,y,n,R,G,y,L,y,,,,,6,7,127,17,1,0,1,0,,,,,1,9,45,28,,,,,,down,0.6838499528057582,1127.1765406895756,None,001,20,2019_Oct_11_1201,ACPT_experiment_5_30_19,3.1.0,59.970004597768074,
,,,C,U,y,n,R,D,y,L,y,,,,,6,7,127,17,1,0,1,0,,,,,1,10,46,26,,,,,,down,0.48371538593164587,1129.144678103543,None,001,20,2019_Oct_11_1201,ACPT_experiment_5_30_19,3.1.0,59.970004597768074,
,,,C,U,y,n,R,U,g,R,u,,,,,6,7,127,17,1,0,1,0,,,,,1,11,47,11,,,,,,up,0.6004477714204768,1130.9127132491021,None,001,20,2019_Oct_11_1201,ACPT_experiment_5_30_19,3.1.0,59.970004597768074,
,,,C,U,y,n,R,D,d,R,c ,,,,,6,7,127,17,1,0,1,0,,,,,1,12,48,1,,,,,,up,0.6338111795548684,1132.797476554183,None,001,20,2019_Oct_11_1201,ACPT_experiment_5_30_19,3.1.0,59.970004597768074,
,,,C,U,y,n,R,U,d,R,u,,,,,6,7,127,17,1,0,1,0,,,,,1,13,49,9,,,,,,up,0.58043389213708,1134.735616241117,None,001,20,2019_Oct_11_1201,ACPT_experiment_5_30_19,3.1.0,59.970004597768074,
,,,C,U,y,n,L,U,y,R,u,,,,,6,7,127,17,1,0,1,0,,,,,1,14,50,25,,,,,,down,0.6171231365369749,1136.6003620446563,None,001,20,2019_Oct_11_1201,ACPT_experiment_5_30_19,3.1.0,59.970004597768074,
,,,C,U,y,n,L,G,d,R,i,,,,,6,7,127,17,1,0,1,0,,,,,1,15,51,17,,,,,,up,0.6338217444726979,1138.5018013185627,None,001,20,2019_Oct_11_1201,ACPT_experiment_5_30_19,3.1.0,59.970004597768074,
,,,C,U,y,n,L,U,d,R,u,,,,,6,7,127,17,1,0,1,0,,,,,1,16,52,21,,,,,,up,0.7505646948811773,1140.419928333632,None,001,20,2019_Oct_11_1201,ACPT_experiment_5_30_19,3.1.0,59.970004597768074,
,,,C,U,y,n,R,D,g,L,i,,,,,6,7,127,17,1,0,1,0,,,,,1,17,53,2,,,,,,up,0.717227246260336,1142.4547813952395,None,001,20,2019_Oct_11_1201,ACPT_experiment_5_30_19,3.1.0,59.970004597768074,
,,,C,U,y,n,L,D,y,L,y,,,,,6,7,127,17,1,0,1,0,,,,,1,18,54,32,,,,,,down,0.6338114814097935,1144.456326288143,None,001,20,2019_Oct_11_1201,ACPT_experiment_5_30_19,3.1.0,59.970004597768074,
,,,C,U,y,n,L,U,y,L,u,,,,,6,7,127,17,1,0,1,0,,,,,1,19,55,24,,,,,,down,0.6671616079320302,1146.3911304794574,None,001,20,2019_Oct_11_1201,ACPT_experiment_5_30_19,3.1.0,59.970004597768074,
,,,C,U,y,n,R,G,g,R,c ,,,,,6,7,127,17,1,0,1,0,,,,,1,20,56,7,,,,,,up,0.6671622116418803,1148.3592938529382,None,001,20,2019_Oct_11_1201,ACPT_experiment_5_30_19,3.1.0,59.970004597768074,
,,,C,U,y,n,L,G,y,R,y,,,,,6,7,127,17,1,0,1,0,,,,,1,21,57,35,,,,,,down,0.7005235067917965,1150.3107719000946,None,001,20,2019_Oct_11_1201,ACPT_experiment_5_30_19,3.1.0,59.970004597768074,
,,,C,U,y,n,R,D,g,R,i,,,,,6,7,127,17,1,0,1,0,,,,,1,22,58,3,,,,,,up,0.5671048894146224,1152.2955976589355,None,001,20,2019_Oct_11_1201,ACPT_experiment_5_30_19,3.1.0,59.970004597768074,
,,,C,U,y,n,R,D,d,L,c,,,,,6,7,127,17,1,0,1,0,,,,,1,23,59,0,,,,,,up,0.8472958789880067,1154.1670334705668,None,001,20,2019_Oct_11_1201,ACPT_experiment_5_30_19,3.1.0,59.970004597768074,
,,,C,U,y,n,L,U,g,R,u,,,,,6,7,127,17,1,0,1,0,,,,,1,24,60,23,,,,,,up,0.5170993201927558,1156.2986500147463,None,001,20,2019_Oct_11_1201,ACPT_experiment_5_30_19,3.1.0,59.970004597768074,
,,,C,U,y,n,R,U,g,L,u,,,,,6,7,127,17,1,0,1,0,,,,,1,25,61,10,,,,,,up,0.4336536717164563,1158.1000192885222,None,001,20,2019_Oct_11_1201,ACPT_experiment_5_30_19,3.1.0,59.970004597768074,
,,,C,U,y,n,L,U,g,L,u,,,,,6,7,127,17,1,0,1,0,,,,,1,26,62,22,,,,,,up,0.5170558531008282,1159.8179863809155,None,001,20,2019_Oct_11_1201,ACPT_experiment_5_30_19,3.1.0,59.970004597768074,
,,,C,U,y,n,R,G,g,L,c ,,,,,6,7,127,17,1,0,1,0,,,,,1,27,63,6,,,,,,up,0.5837748211433791,1161.6193547491275,None,001,20,2019_Oct_11_1201,ACPT_experiment_5_30_19,3.1.0,59.970004597768074,
,,,C,U,y,n,L,G,y,L,y,,,,,6,7,127,17,1,0,1,0,,,,,1,28,64,34,,,,,,down,0.7172109461007494,1163.4874405761084,None,001,20,2019_Oct_11_1201,ACPT_experiment_5_30_19,3.1.0,59.970004597768074,
,,,C,U,y,n,L,D,d,R,c ,,,,,6,7,127,17,1,0,1,0,,,,,1,29,65,13,,,,,,up,1.2009124467112997,1165.488960415063,None,001,20,2019_Oct_11_1201,ACPT_experiment_5_30_19,3.1.0,59.970004597768074,
,,,C,U,y,n,R,G,d,R,i,,,,,6,7,127,17,1,0,1,0,,,,,1,30,66,5,,,,,,up,0.7005464477579153,1167.974154587695,None,001,20,2019_Oct_11_1201,ACPT_experiment_5_30_19,3.1.0,59.970004597768074,
,,,C,U,y,n,L,D,g,L,i,,,,,6,7,127,17,1,0,1,0,,,,,1,31,67,14,,,,,,up,0.7171982681984446,1169.9590259266115,None,001,20,2019_Oct_11_1201,ACPT_experiment_5_30_19,3.1.0,59.970004597768074,
,,,C,U,y,n,L,U,d,L,u,,,,,6,7,127,17,1,0,1,0,,,,,1,32,68,20,,,,,,up,0.5837690859025315,1171.9605385210507,None,001,20,2019_Oct_11_1201,ACPT_experiment_5_30_19,3.1.0,59.970004597768074,
,,,C,U,y,n,R,D,y,R,y,,,,,6,7,127,17,1,0,1,0,,,,,1,33,69,27,,,,,,down,0.5504047722033647,1173.8286309888372,None,001,20,2019_Oct_11_1201,ACPT_experiment_5_30_19,3.1.0,59.970004597768074,
,,,C,U,y,n,R,G,d,L,i,,,,,6,7,127,17,1,0,1,0,,,,,1,34,70,4,,,,,,up,0.6338117832647185,1175.6633500872822,None,001,20,2019_Oct_11_1201,ACPT_experiment_5_30_19,3.1.0,59.970004597768074,
,,,C,U,y,n,L,D,g,R,i,,,,,6,7,127,17,1,0,1,0,,,,,1,35,71,15,,,,,,up,0.7505622800417768,1177.5814725745295,None,001,20,2019_Oct_11_1201,ACPT_experiment_5_30_19,3.1.0,59.970004597768074,
,,,C,U,y,n,,,,,,,,,,6,7,127,17,2,0,2,0,0,0,0,0,,,,,,,,,,,,,,001,20,2019_Oct_11_1201,ACPT_experiment_5_30_19,3.1.0,59.970004597768074,
,,,C,U,y,n,L,U,g,R,u,,,,,6,7,127,17,2,0,2,0,,,,,0,0,0,23,,,,,,up,0.6335307564395407,1187.339155307619,None,001,20,2019_Oct_11_1201,ACPT_experiment_5_30_19,3.1.0,59.970004597768074,
,,,C,U,y,n,L,U,g,L,u,,,,,6,7,127,17,2,0,2,0,,,,,0,1,1,22,,,,,,up,0.5838240234770637,1189.240300574943,None,001,20,2019_Oct_11_1201,ACPT_experiment_5_30_19,3.1.0,59.970004597768074,
,,,C,U,y,n,L,G,d,R,i,,,,,6,7,127,17,2,0,2,0,,,,,0,2,2,17,,,,,,up,0.4003038470491447,1191.1084072299063,None,001,20,2019_Oct_11_1201,ACPT_experiment_5_30_19,3.1.0,59.970004597768074,
,,,C,U,y,n,L,G,y,L,y,,,,,6,7,127,17,2,0,2,0,,,,,0,3,3,34,,,,,,down,0.8506621637980061,1192.793021479083,None,001,20,2019_Oct_11_1201,ACPT_experiment_5_30_19,3.1.0,59.970004597768074,
,,,C,U,y,n,R,D,d,R,c ,,,,,6,7,127,17,2,0,2,0,,,,,0,4,4,1,,,,,,up,0.7839271974507938,1194.9279756318656,None,001,20,2019_Oct_11_1201,ACPT_experiment_5_30_19,3.1.0,59.970004597768074,
,,,C,U,y,n,L,D,g,R,i,,,,,6,7,127,17,2,0,2,0,,,,,0,5,5,15,,,,,,up,0.6004510918237429,1196.996213533298,None,001,20,2019_Oct_11_1201,ACPT_experiment_5_30_19,3.1.0,59.970004597768074,
,,,C,U,y,n,R,G,g,R,c ,,,,,6,7,127,17,2,0,2,0,,,,,0,6,6,7,,,,,,up,0.550408998171406,1198.8809828754756,None,001,20,2019_Oct_11_1201,ACPT_experiment_5_30_19,3.1.0,59.970004597768074,
,,,C,U,y,n,R,G,y,R,y,,,,,6,7,127,17,2,0,2,0,,,,,0,7,7,29,,,,,,down,0.6669125777161753,1200.7493364476704,None,001,20,2019_Oct_11_1201,ACPT_experiment_5_30_19,3.1.0,59.970004597768074,
,,,C,U,y,n,R,G,g,L,c ,,,,,6,7,127,17,2,0,2,0,,,,,0,8,8,6,,,,,,up,0.6671634190615805,1202.717223624003,None,001,20,2019_Oct_11_1201,ACPT_experiment_5_30_19,3.1.0,59.970004597768074,
,,,C,U,y,n,L,D,d,R,c ,,,,,6,7,127,17,2,0,2,0,,,,,0,9,9,13,,,,,,up,0.533729407087776,1204.6687065008364,None,001,20,2019_Oct_11_1201,ACPT_experiment_5_30_19,3.1.0,59.970004597768074,
,,,C,U,y,n,R,D,g,R,i,,,,,6,7,127,17,2,0,2,0,,,,,0,10,10,3,,,,,,up,0.45031515151185886,1206.486764723195,None,001,20,2019_Oct_11_1201,ACPT_experiment_5_30_19,3.1.0,59.970004597768074,
,,,C,U,y,n,L,D,y,R,y,,,,,6,7,127,17,2,0,2,0,,,,,0,11,11,33,,,,,,down,0.5337288033779259,1208.2214074825588,None,001,20,2019_Oct_11_1201,ACPT_experiment_5_30_19,3.1.0,59.970004597768074,
,,,C,U,y,n,R,D,y,L,y,,,,,6,7,127,17,2,0,2,0,,,,,0,12,12,26,,,,,,down,0.7672159116118564,1210.039467516046,None,001,20,2019_Oct_11_1201,ACPT_experiment_5_30_19,3.1.0,59.970004597768074,
,,,C,U,y,n,R,U,y,R,u,,,,,6,7,127,17,2,0,2,0,,,,,0,13,13,31,,,,,,down,0.717216681341597,1212.0743202757994,None,001,20,2019_Oct_11_1201,ACPT_experiment_5_30_19,3.1.0,59.970004597768074,
,,,C,U,y,n,R,G,d,R,i,,,,,6,7,127,17,2,0,2,0,,,,,0,14,14,5,,,,,,up,0.6168596172901744,1214.092800128953,None,001,20,2019_Oct_11_1201,ACPT_experiment_5_30_19,3.1.0,59.970004597768074,
,,,C,U,y,n,R,U,d,R,u,,,,,6,7,127,17,2,0,2,0,,,,,0,15,15,9,,,,,,up,0.46701557057622267,1215.993969846516,None,001,20,2019_Oct_11_1201,ACPT_experiment_5_30_19,3.1.0,59.970004597768074,
,,,C,U,y,n,L,D,y,L,y,,,,,6,7,127,17,2,0,2,0,,,,,0,16,16,32,,,,,,down,0.5337324256361171,1217.7452982340592,None,001,20,2019_Oct_11_1201,ACPT_experiment_5_30_19,3.1.0,59.970004597768074,
,,,C,U,y,n,L,U,d,L,u,,,,,6,7,127,17,2,0,2,0,,,,,0,17,17,20,,,,,,down,0.4336591051023788,1219.5633446840811,None,001,20,2019_Oct_11_1201,ACPT_experiment_5_30_19,3.1.0,59.970004597768074,
,,,C,U,y,n,R,U,g,R,u,,,,,6,7,127,17,2,0,2,0,,,,,0,18,18,11,,,,,,up,0.6638490532777723,1221.301316298258,None,001,20,2019_Oct_11_1201,ACPT_experiment_5_30_19,3.1.0,59.970004597768074,
,,,C,U,y,n,L,U,y,R,u,,,,,6,7,127,17,2,0,2,0,,,,,0,19,19,25,,,,,,down,0.6671733802695599,1223.2494775647929,None,001,20,2019_Oct_11_1201,ACPT_experiment_5_30_19,3.1.0,59.970004597768074,
,,,C,U,y,n,L,D,d,L,c ,,,,,6,7,127,17,2,0,2,0,,,,,0,20,20,12,,,,,,up,0.5170464956017895,1225.2009643657384,None,001,20,2019_Oct_11_1201,ACPT_experiment_5_30_19,3.1.0,59.970004597768074,
,,,C,U,y,n,R,G,y,L,y,,,,,6,7,127,17,2,0,2,0,,,,,0,21,21,28,,,,,,down,0.7338757462985086,1227.0190099101956,None,001,20,2019_Oct_11_1201,ACPT_experiment_5_30_19,3.1.0,59.970004597768074,
,,,C,U,y,n,R,U,g,L,u,,,,,6,7,127,17,2,0,2,0,,,,,0,22,22,10,,,,,,up,0.5003563396003301,1229.0539025147827,None,001,20,2019_Oct_11_1201,ACPT_experiment_5_30_19,3.1.0,59.970004597768074,
,,,C,U,y,n,R,D,d,L,c,,,,,6,7,127,17,2,0,2,0,,,,,0,23,23,0,,,,,,up,0.6504826205582503,1230.838576802881,None,001,20,2019_Oct_11_1201,ACPT_experiment_5_30_19,3.1.0,59.970004597768074,
,,,C,U,y,n,L,G,g,L,c ,,,,,6,7,127,17,2,0,2,0,,,,,0,24,24,18,,,,,,up,0.5670876836902607,1232.7733782775022,None,001,20,2019_Oct_11_1201,ACPT_experiment_5_30_19,3.1.0,59.970004597768074,
,,,C,U,y,n,L,D,g,L,i,,,,,6,7,127,17,2,0,2,0,,,,,0,25,25,14,,,,,,up,0.43338653021146456,1234.6417372830838,None,001,20,2019_Oct_11_1201,ACPT_experiment_5_30_19,3.1.0,59.970004597768074,
,,,C,U,y,n,R,D,y,R,y,,,,,6,7,127,17,2,0,2,0,,,,,0,26,26,27,,,,,,down,0.7172344907758088,1236.3594061429267,None,001,20,2019_Oct_11_1201,ACPT_experiment_5_30_19,3.1.0,59.970004597768074,
,,,C,U,y,n,L,G,d,L,i,,,,,6,7,127,17,2,0,2,0,,,,,0,27,27,16,,,,,,up,0.6671474207560095,1238.3609730712315,None,001,20,2019_Oct_11_1201,ACPT_experiment_5_30_19,3.1.0,59.970004597768074,
,,,C,U,y,n,L,U,y,L,u,,,,,6,7,127,17,2,0,2,0,,,,,0,28,28,24,,,,,,down,0.6338057461680364,1240.312436327502,None,001,20,2019_Oct_11_1201,ACPT_experiment_5_30_19,3.1.0,59.970004597768074,
,,,C,U,y,n,R,D,g,L,i,,,,,6,7,127,17,2,0,2,0,,,,,0,29,29,2,,,,,,up,0.6004749383537273,1242.2305322515267,None,001,20,2019_Oct_11_1201,ACPT_experiment_5_30_19,3.1.0,59.970004597768074,
,,,C,U,y,n,L,U,d,R,u,,,,,6,7,127,17,2,0,2,0,,,,,0,30,30,21,,,,,,up,0.6504892613638731,1244.1153212142654,None,001,20,2019_Oct_11_1201,ACPT_experiment_5_30_19,3.1.0,59.970004597768074,
,,,C,U,y,n,L,G,g,R,c ,,,,,6,7,127,17,2,0,2,0,,,,,0,31,31,19,,,,,,up,0.8172667590542915,1246.050134461224,None,001,20,2019_Oct_11_1201,ACPT_experiment_5_30_19,3.1.0,59.970004597768074,
,,,C,U,y,n,R,U,d,L,u,,,,,6,7,127,17,2,0,2,0,,,,,0,32,32,8,,,,,,up,0.8172679664730822,1248.1517221873246,None,001,20,2019_Oct_11_1201,ACPT_experiment_5_30_19,3.1.0,59.970004597768074,
,,,C,U,y,n,R,U,y,L,u,,,,,6,7,127,17,2,0,2,0,,,,,0,33,33,30,,,,,,down,0.833901071917353,1250.2867318813924,None,001,20,2019_Oct_11_1201,ACPT_experiment_5_30_19,3.1.0,59.970004597768074,
,,,C,U,y,n,R,G,d,L,i,,,,,6,7,127,17,2,0,2,0,,,,,0,34,34,4,,,,,,up,0.5837591246936427,1252.4216317003093,None,001,20,2019_Oct_11_1201,ACPT_experiment_5_30_19,3.1.0,59.970004597768074,
,,,C,U,y,n,L,G,y,R,y,,,,,6,7,127,17,2,0,2,0,,,,,0,35,35,35,,,,,,down,0.733896574280152,1254.2897142068878,None,001,20,2019_Oct_11_1201,ACPT_experiment_5_30_19,3.1.0,59.970004597768074,
,,,C,U,y,n,L,U,g,L,u,,,,,6,7,127,17,2,0,2,0,,,,,1,0,36,22,,,,,,up,0.7672460970925385,1256.3079109202317,None,001,20,2019_Oct_11_1201,ACPT_experiment_5_30_19,3.1.0,59.970004597768074,
,,,C,U,y,n,R,D,g,L,i,,,,,6,7,127,17,2,0,2,0,,,,,1,1,37,2,,,,,,up,0.6504717537854958,1258.3594825121927,None,001,20,2019_Oct_11_1201,ACPT_experiment_5_30_19,3.1.0,59.970004597768074,
,,,C,U,y,n,R,D,y,R,y,,,,,6,7,127,17,2,0,2,0,,,,,1,2,38,27,,,,,,down,0.8172733998599142,1260.3109572389467,None,001,20,2019_Oct_11_1201,ACPT_experiment_5_30_19,3.1.0,59.970004597768074,
,,,C,U,y,n,R,G,d,L,i,,,,,6,7,127,17,2,0,2,0,,,,,1,3,39,4,,,,,,up,0.6337930682666411,1262.4292314987906,None,001,20,2019_Oct_11_1201,ACPT_experiment_5_30_19,3.1.0,59.970004597768074,
,,,C,U,y,n,R,U,d,R,u,,,,,6,7,127,17,2,0,2,0,,,,,1,4,40,9,,,,,,up,1.3009785227286557,1264.3473518730552,None,001,20,2019_Oct_11_1201,ACPT_experiment_5_30_19,3.1.0,59.970004597768074,
,,,C,U,y,n,R,G,y,R,y,,,,,6,7,127,17,2,0,2,0,,,,,1,5,41,29,,,,,,down,0.6838390860320942,1266.9326501554106,None,001,20,2019_Oct_11_1201,ACPT_experiment_5_30_19,3.1.0,59.970004597768074,
,,,C,U,y,n,L,D,y,R,y,,,,,6,7,127,17,2,0,2,0,,,,,1,6,42,33,,,,,,down,0.6838502546597738,1268.900805378812,None,001,20,2019_Oct_11_1201,ACPT_experiment_5_30_19,3.1.0,59.970004597768074,
,,,C,U,y,n,L,D,g,L,i,,,,,6,7,127,17,2,0,2,0,,,,,1,7,43,14,,,,,,up,0.8506422413811379,1270.8689663374544,None,001,20,2019_Oct_11_1201,ACPT_experiment_5_30_19,3.1.0,59.970004597768074,
,,,C,U,y,n,L,U,y,L,u,,,,,6,7,127,17,2,0,2,0,,,,,1,8,44,24,,,,,,down,0.8840234589479223,1273.0039174716885,None,001,20,2019_Oct_11_1201,ACPT_experiment_5_30_19,3.1.0,59.970004597768074,
,,,C,U,y,n,R,D,g,R,i,,,,,6,7,127,17,2,0,2,0,,,,,1,9,45,3,,,,,,up,0.5336180226640863,1275.172237145589,None,001,20,2019_Oct_11_1201,ACPT_experiment_5_30_19,3.1.0,59.970004597768074,
,,,C,U,y,n,R,G,d,R,i,,,,,6,7,127,17,2,0,2,0,,,,,1,10,46,5,,,,,,up,0.9674202069463718,1276.9902802752076,None,001,20,2019_Oct_11_1201,ACPT_experiment_5_30_19,3.1.0,59.970004597768074,
,,,C,U,y,n,R,U,y,L,u,,,,,6,7,127,17,2,0,2,0,,,,,1,11,47,30,,,,,,down,0.6504626981413821,1279.2753643312062,None,001,20,2019_Oct_11_1201,ACPT_experiment_5_30_19,3.1.0,59.970004597768074,
,,,C,U,y,n,L,G,y,R,y,,,,,6,7,127,17,2,0,2,0,,,,,1,12,48,35,,,,,,down,0.5170449863280737,1281.226835435702,None,001,20,2019_Oct_11_1201,ACPT_experiment_5_30_19,3.1.0,59.970004597768074,
,,,C,U,y,n,R,U,y,R,u,,,,,6,7,127,17,2,0,2,0,,,,,1,13,49,31,,,,,,down,0.533734236764758,1283.028198672383,None,001,20,2019_Oct_11_1201,ACPT_experiment_5_30_19,3.1.0,59.970004597768074,
,,,C,U,y,n,L,G,y,L,y,,,,,6,7,127,17,2,0,2,0,,,,,1,14,50,34,,,,,,down,0.46699987412648625,1284.8629307505835,None,001,20,2019_Oct_11_1201,ACPT_experiment_5_30_19,3.1.0,59.970004597768074,
,,,C,U,y,n,R,D,y,L,y,,,,,6,7,127,17,2,0,2,0,,,,,1,15,51,26,,,,,,down,0.4002953951139716,1286.6309287680015,None,001,20,2019_Oct_11_1201,ACPT_experiment_5_30_19,3.1.0,59.970004597768074,
,,,C,U,y,n,R,G,g,L,c ,,,,,6,7,127,17,2,0,2,0,,,,,1,16,52,6,,,,,,up,0.5504126204286877,1288.3322253249544,None,001,20,2019_Oct_11_1201,ACPT_experiment_5_30_19,3.1.0,59.970004597768074,
,,,C,U,y,n,R,U,g,R,u,,,,,6,7,127,17,2,0,2,0,,,,,1,17,53,11,,,,,,up,0.5003765638712139,1290.166951969769,None,001,20,2019_Oct_11_1201,ACPT_experiment_5_30_19,3.1.0,59.970004597768074,
,,,C,U,y,n,R,G,g,R,c ,,,,,6,7,127,17,2,0,2,0,,,,,1,18,54,7,,,,,,up,2.652013024430744,1291.9349632687981,None,001,20,2019_Oct_11_1201,ACPT_experiment_5_30_19,3.1.0,59.970004597768074,
,,,C,U,y,n,L,G,g,L,c ,,,,,6,7,127,17,2,0,2,0,,,,,1,19,55,18,,,,,,up,0.717229962953752,1295.8545802391964,None,001,20,2019_Oct_11_1201,ACPT_experiment_5_30_19,3.1.0,59.970004597768074,
,,,C,U,y,n,L,U,d,R,u,,,,,6,7,127,17,2,0,2,0,,,,,1,20,56,21,,,,,,up,0.7503796578839683,1297.8729517264737,None,001,20,2019_Oct_11_1201,ACPT_experiment_5_30_19,3.1.0,59.970004597768074,
,,,C,U,y,n,L,D,d,L,c ,,,,,6,7,127,17,2,0,2,0,,,,,1,21,57,12,,,,,,up,0.7005144511476828,1299.9076837443044,None,001,20,2019_Oct_11_1201,ACPT_experiment_5_30_19,3.1.0,59.970004597768074,
,,,C,U,y,n,R,D,d,R,c ,,,,,6,7,127,17,2,0,2,0,,,,,1,22,58,1,,,,,,up,0.767232513626368,1301.8925236903206,None,001,20,2019_Oct_11_1201,ACPT_experiment_5_30_19,3.1.0,59.970004597768074,
,,,C,U,y,n,L,D,d,R,c ,,,,,6,7,127,17,2,0,2,0,,,,,1,23,59,13,,,,,,up,0.5837612376772086,1303.9440792839769,None,001,20,2019_Oct_11_1201,ACPT_experiment_5_30_19,3.1.0,59.970004597768074,
,,,C,U,y,n,R,D,d,L,c,,,,,6,7,127,17,2,0,2,0,,,,,1,24,60,0,,,,,,up,0.5170760773726215,1305.7954640881835,None,001,20,2019_Oct_11_1201,ACPT_experiment_5_30_19,3.1.0,59.970004597768074,
,,,C,U,y,n,L,G,g,R,c ,,,,,6,7,127,17,2,0,2,0,,,,,1,25,61,19,,,,,,up,0.9507182786073827,1307.5968523788124,None,001,20,2019_Oct_11_1201,ACPT_experiment_5_30_19,3.1.0,59.970004597768074,
,,,C,U,y,n,L,D,g,R,i,,,,,6,7,127,17,2,0,2,0,,,,,1,26,62,15,,,,,,up,0.6171258532303909,1309.8318864929333,None,001,20,2019_Oct_11_1201,ACPT_experiment_5_30_19,3.1.0,59.970004597768074,
,,,C,U,y,n,R,U,g,L,u,,,,,6,7,127,17,2,0,2,0,,,,,1,27,63,10,,,,,,up,0.7505613744779112,1311.7333263705495,None,001,20,2019_Oct_11_1201,ACPT_experiment_5_30_19,3.1.0,59.970004597768074,
,,,C,U,y,n,R,G,y,L,y,,,,,6,7,127,17,2,0,2,0,,,,,1,28,64,28,,,,,,down,0.7839232733376775,1313.7682044861058,None,001,20,2019_Oct_11_1201,ACPT_experiment_5_30_19,3.1.0,59.970004597768074,
,,,C,U,y,n,L,U,d,L,u,,,,,6,7,127,17,2,0,2,0,,,,,1,29,65,20,,,,,,up,0.9507155619130572,1315.8364408782654,None,001,20,2019_Oct_11_1201,ACPT_experiment_5_30_19,3.1.0,59.970004597768074,
,,,C,U,y,n,R,U,d,L,u,,,,,6,7,127,17,2,0,2,0,,,,,1,30,66,8,,,,,,up,0.8172712868763483,1318.0714758979502,None,001,20,2019_Oct_11_1201,ACPT_experiment_5_30_19,3.1.0,59.970004597768074,
,,,C,U,y,n,L,U,g,R,u,,,,,6,7,127,17,2,0,2,0,,,,,1,31,67,23,,,,,,up,0.5337351423286236,1320.173062718487,None,001,20,2019_Oct_11_1201,ACPT_experiment_5_30_19,3.1.0,59.970004597768074,
,,,C,U,y,n,L,G,d,R,i,,,,,6,7,127,17,2,0,2,0,,,,,1,32,68,17,,,,,,up,0.6004477714204768,1321.9911133944752,None,001,20,2019_Oct_11_1201,ACPT_experiment_5_30_19,3.1.0,59.970004597768074,
,,,C,U,y,n,L,U,y,R,u,,,,,6,7,127,17,2,0,2,0,,,,,1,33,69,25,,,,,,down,0.5504114130089874,1323.875876699556,None,001,20,2019_Oct_11_1201,ACPT_experiment_5_30_19,3.1.0,59.970004597768074,
,,,C,U,y,n,L,G,d,L,i,,,,,6,7,127,17,2,0,2,0,,,,,1,34,70,16,,,,,,up,0.800603166275323,1325.710602136951,None,001,20,2019_Oct_11_1201,ACPT_experiment_5_30_19,3.1.0,59.970004597768074,
,,,C,U,y,n,L,D,y,L,y,,,,,6,7,127,17,2,0,2,0,,,,,1,35,71,32,,,,,,down,0.7338848019426223,1327.7955175164843,None,001,20,2019_Oct_11_1201,ACPT_experiment_5_30_19,3.1.0,59.970004597768074,
,,,C,U,y,n,,,,,,,,,,6,7,127,17,3,0,3,0,0,0,0,0,,,,,,,,,,,,,,001,20,2019_Oct_11_1201,ACPT_experiment_5_30_19,3.1.0,59.970004597768074,
,,,C,U,y,n,L,D,d,R,c ,,,,,6,7,127,17,3,0,3,0,,,,,0,0,0,13,,,,,,up,1.133928450147323,1540.2237537999754,None,001,20,2019_Oct_11_1201,ACPT_experiment_5_30_19,3.1.0,59.970004597768074,
,,,C,U,y,n,L,U,g,L,u,,,,,6,7,127,17,3,0,3,0,,,,,0,1,1,22,,,,,,up,0.5670867781254856,1542.6419911429766,None,001,20,2019_Oct_11_1201,ACPT_experiment_5_30_19,3.1.0,59.970004597768074,
,,,C,U,y,n,R,U,g,L,u,,,,,6,7,127,17,3,0,3,0,,,,,0,2,2,10,,,,,,up,0.4503396017507839,1544.4767111469855,None,001,20,2019_Oct_11_1201,ACPT_experiment_5_30_19,3.1.0,59.970004597768074,
,,,C,U,y,n,R,D,d,R,c ,,,,,6,7,127,17,3,0,3,0,,,,,0,3,3,1,,,,,,up,0.5337285015230009,1546.2113665842508,None,001,20,2019_Oct_11_1201,ACPT_experiment_5_30_19,3.1.0,59.970004597768074,
,,,C,U,y,n,L,U,g,R,u,,,,,6,7,127,17,3,0,3,0,,,,,0,4,4,23,,,,,,up,0.5837781415457357,1548.0294063934662,None,001,20,2019_Oct_11_1201,ACPT_experiment_5_30_19,3.1.0,59.970004597768074,
,,,C,U,y,n,L,U,y,R,u,,,,,6,7,127,17,3,0,3,0,,,,,0,5,5,25,,,,,,down,0.6338102739910028,1549.88081927017,None,001,20,2019_Oct_11_1201,ACPT_experiment_5_30_19,3.1.0,59.970004597768074,
,,,C,U,y,n,L,D,g,L,i,,,,,6,7,127,17,3,0,3,0,,,,,0,6,6,14,,,,,,up,0.567105191268638,1551.79896137798,None,001,20,2019_Oct_11_1201,ACPT_experiment_5_30_19,3.1.0,59.970004597768074,
,,,C,U,y,n,L,G,d,R,i,,,,,6,7,127,17,3,0,3,0,,,,,0,7,7,17,,,,,,up,0.6671839451882988,1553.650349502589,None,001,20,2019_Oct_11_1201,ACPT_experiment_5_30_19,3.1.0,59.970004597768074,
,,,C,U,y,n,R,U,y,R,u,,,,,6,7,127,17,3,0,3,0,,,,,0,8,8,31,,,,,,down,0.7005295438884787,1555.6018278516003,None,001,20,2019_Oct_11_1201,ACPT_experiment_5_30_19,3.1.0,59.970004597768074,
,,,C,U,y,n,R,U,d,R,u,,,,,6,7,127,17,3,0,3,0,,,,,0,9,9,9,,,,,,up,0.5003786768556893,1557.5866659864878,None,001,20,2019_Oct_11_1201,ACPT_experiment_5_30_19,3.1.0,59.970004597768074,
,,,C,U,y,n,L,D,g,R,i,,,,,6,7,127,17,3,0,3,0,,,,,0,10,10,15,,,,,,up,0.8003583620275094,1559.388281875642,None,001,20,2019_Oct_11_1201,ACPT_experiment_5_30_19,3.1.0,59.970004597768074,
,,,C,U,y,n,R,G,d,L,i,,,,,6,7,127,17,3,0,3,0,,,,,0,11,11,4,,,,,,up,0.7505649967351928,1561.4729521490708,None,001,20,2019_Oct_11_1201,ACPT_experiment_5_30_19,3.1.0,59.970004597768074,
,,,C,U,y,n,L,G,y,R,y,,,,,6,7,127,17,3,0,3,0,,,,,0,12,12,35,,,,,,down,0.6838457268377169,1563.5078332831754,None,001,20,2019_Oct_11_1201,ACPT_experiment_5_30_19,3.1.0,59.970004597768074,
,,,C,U,y,n,L,U,y,L,u,,,,,6,7,127,17,3,0,3,0,,,,,0,13,13,24,,,,,,down,0.7672331173353086,1565.4759984677858,None,001,20,2019_Oct_11_1201,ACPT_experiment_5_30_19,3.1.0,59.970004597768074,
,,,C,U,y,n,R,U,g,R,u,,,,,6,7,127,17,3,0,3,0,,,,,0,14,14,11,,,,,,up,0.5170431751985234,1567.5275531558773,None,001,20,2019_Oct_11_1201,ACPT_experiment_5_30_19,3.1.0,59.970004597768074,
,,,C,U,y,n,R,G,d,R,i,,,,,6,7,127,17,3,0,3,0,,,,,0,15,15,5,,,,,,up,0.5003810916941802,1569.3289124684452,None,001,20,2019_Oct_11_1201,ACPT_experiment_5_30_19,3.1.0,59.970004597768074,
,,,C,U,y,n,L,G,y,L,y,,,,,6,7,127,17,3,0,3,0,,,,,0,16,16,34,,,,,,down,0.650290037191553,1571.1304408197057,None,001,20,2019_Oct_11_1201,ACPT_experiment_5_30_19,3.1.0,59.970004597768074,
,,,C,U,y,n,R,G,g,L,c ,,,,,6,7,127,17,3,0,3,0,,,,,0,17,17,6,,,,,,up,0.6338380446331939,1573.0817694487323,None,001,20,2019_Oct_11_1201,ACPT_experiment_5_30_19,3.1.0,59.970004597768074,
,,,C,U,y,n,R,D,g,L,i,,,,,6,7,127,17,3,0,3,0,,,,,0,18,18,2,,,,,,up,0.5504093000254215,1574.9831900076406,None,001,20,2019_Oct_11_1201,ACPT_experiment_5_30_19,3.1.0,59.970004597768074,
,,,C,U,y,n,R,D,d,L,c,,,,,6,7,127,17,3,0,3,0,,,,,0,19,19,0,,,,,,up,0.7005416180809334,1576.8012400799198,None,001,20,2019_Oct_11_1201,ACPT_experiment_5_30_19,3.1.0,59.970004597768074,
,,,C,U,y,n,L,G,g,L,c ,,,,,6,7,127,17,3,0,3,0,,,,,0,20,20,18,,,,,,up,0.647154067599331,1578.80610899796,None,001,20,2019_Oct_11_1201,ACPT_experiment_5_30_19,3.1.0,59.970004597768074,
,,,C,U,y,n,L,D,d,L,c ,,,,,6,7,127,17,3,0,3,0,,,,,0,21,21,12,,,,,,up,0.55040628147799,1580.7375807122025,None,001,20,2019_Oct_11_1201,ACPT_experiment_5_30_19,3.1.0,59.970004597768074,
,,,C,U,y,n,R,U,d,L,u,,,,,6,7,127,17,3,0,3,0,,,,,0,22,22,8,,,,,,up,0.5837793489654359,1582.555620219564,None,001,20,2019_Oct_11_1201,ACPT_experiment_5_30_19,3.1.0,59.970004597768074,
,,,C,U,y,n,L,G,g,R,c ,,,,,6,7,127,17,3,0,3,0,,,,,0,23,23,19,,,,,,up,0.5337556684562514,1584.4236873315467,None,001,20,2019_Oct_11_1201,ACPT_experiment_5_30_19,3.1.0,59.970004597768074,
,,,C,U,y,n,R,G,y,R,y,,,,,6,7,127,17,3,0,3,0,,,,,0,24,24,29,,,,,,down,0.7005189789697397,1586.241760948501,None,001,20,2019_Oct_11_1201,ACPT_experiment_5_30_19,3.1.0,59.970004597768074,
,,,C,U,y,n,L,U,d,L,u,,,,,6,7,127,17,3,0,3,0,,,,,0,25,25,20,,,,,,up,0.8339931376331151,1588.2265758405683,None,001,20,2019_Oct_11_1201,ACPT_experiment_5_30_19,3.1.0,59.970004597768074,
,,,C,U,y,n,L,D,y,L,y,,,,,6,7,127,17,3,0,3,0,,,,,0,26,26,32,,,,,,down,0.6504856391065914,1590.3448742487972,None,001,20,2019_Oct_11_1201,ACPT_experiment_5_30_19,3.1.0,59.970004597768074,
,,,C,U,y,n,R,U,y,L,u,,,,,6,7,127,17,3,0,3,0,,,,,0,27,27,30,,,,,,down,0.6838478398212828,1592.279676327128,None,001,20,2019_Oct_11_1201,ACPT_experiment_5_30_19,3.1.0,59.970004597768074,
,,,C,U,y,n,R,G,g,R,c ,,,,,6,7,127,17,3,0,3,0,,,,,0,28,28,7,,,,,,up,0.6004577326302751,1594.247834870932,None,001,20,2019_Oct_11_1201,ACPT_experiment_5_30_19,3.1.0,59.970004597768074,
,,,C,U,y,n,R,G,y,L,y,,,,,6,7,127,17,3,0,3,0,,,,,0,29,29,28,,,,,,down,0.600451393678668,1596.1325981760128,None,001,20,2019_Oct_11_1201,ACPT_experiment_5_30_19,3.1.0,59.970004597768074,
,,,C,U,y,n,L,D,y,R,y,,,,,6,7,127,17,3,0,3,0,,,,,0,30,30,33,,,,,,down,0.5333243179366036,1598.034420201814,None,001,20,2019_Oct_11_1201,ACPT_experiment_5_30_19,3.1.0,59.970004597768074,
,,,C,U,y,n,L,G,d,L,i,,,,,6,7,127,17,3,0,3,0,,,,,0,31,31,16,,,,,,up,0.5003614711313276,1599.8520932574393,None,001,20,2019_Oct_11_1201,ACPT_experiment_5_30_19,3.1.0,59.970004597768074,
,,,C,U,y,n,R,D,y,L,y,,,,,6,7,127,17,3,0,3,0,,,,,0,32,32,26,,,,,,down,0.6838744030437738,1601.6367539620715,None,001,20,2019_Oct_11_1201,ACPT_experiment_5_30_19,3.1.0,59.970004597768074,
,,,C,U,y,n,R,D,y,R,y,,,,,6,7,127,17,3,0,3,0,,,,,0,33,33,27,,,,,,down,0.9173850559527637,1603.638293421588,None,001,20,2019_Oct_11_1201,ACPT_experiment_5_30_19,3.1.0,59.970004597768074,
,,,C,U,y,n,L,U,d,R,u,,,,,6,7,127,17,3,0,3,0,,,,,0,34,34,21,,,,,,up,0.6504802057197594,1605.8566488501901,None,001,20,2019_Oct_11_1201,ACPT_experiment_5_30_19,3.1.0,59.970004597768074,
,,,C,U,y,n,R,D,g,R,i,,,,,6,7,127,17,3,0,3,0,,,,,0,35,35,3,,,,,,up,1.0508024659120565,1607.791451230376,None,001,20,2019_Oct_11_1201,ACPT_experiment_5_30_19,3.1.0,59.970004597768074,
,,,C,U,y,n,R,G,g,R,c ,,,,,6,7,127,17,3,0,3,0,,,,,1,0,36,7,,,,,,up,0.6338069535877366,1610.1265556464814,None,001,20,2019_Oct_11_1201,ACPT_experiment_5_30_19,3.1.0,59.970004597768074,
,,,C,U,y,n,R,G,g,L,c ,,,,,6,7,127,17,3,0,3,0,,,,,1,1,37,6,,,,,,up,0.6338199333440571,1612.0279964296615,None,001,20,2019_Oct_11_1201,ACPT_experiment_5_30_19,3.1.0,59.970004597768074,
,,,C,U,y,n,L,D,y,L,y,,,,,6,7,127,17,3,0,3,0,,,,,1,2,38,32,,,,,,down,0.7003439031823291,1613.9629536613638,None,001,20,2019_Oct_11_1201,ACPT_experiment_5_30_19,3.1.0,59.970004597768074,
,,,C,U,y,n,L,D,y,R,y,,,,,6,7,127,17,3,0,3,0,,,,,1,3,39,33,,,,,,up,0.6003445370770351,1615.9643225729142,None,001,20,2019_Oct_11_1201,ACPT_experiment_5_30_19,3.1.0,59.970004597768074,
,,,C,U,y,n,L,G,d,R,i,,,,,6,7,127,17,3,0,3,0,,,,,1,4,40,17,,,,,,up,0.667166135754087,1617.8657648653689,None,001,20,2019_Oct_11_1201,ACPT_experiment_5_30_19,3.1.0,59.970004597768074,
,,,C,U,y,n,L,G,y,L,y,,,,,6,7,127,17,3,0,3,0,,,,,1,5,41,34,,,,,,down,0.7505595633492703,1619.8172462329276,None,001,20,2019_Oct_11_1201,ACPT_experiment_5_30_19,3.1.0,59.970004597768074,
,,,C,U,y,n,R,U,d,L,u,,,,,6,7,127,17,3,0,3,0,,,,,1,6,42,8,,,,,,up,0.5837702933213222,1621.852123141065,None,001,20,2019_Oct_11_1201,ACPT_experiment_5_30_19,3.1.0,59.970004597768074,
,,,C,U,y,n,L,U,y,R,u,,,,,6,7,127,17,3,0,3,0,,,,,1,7,43,25,,,,,,down,1.050526268762951,1623.7371566061984,None,001,20,2019_Oct_11_1201,ACPT_experiment_5_30_19,3.1.0,59.970004597768074,
,,,C,U,y,n,R,D,y,L,y,,,,,6,7,127,17,3,0,3,0,,,,,1,8,44,26,,,,,,down,0.5337592907135331,1626.071968223141,None,001,20,2019_Oct_11_1201,ACPT_experiment_5_30_19,3.1.0,59.970004597768074,
,,,C,U,y,n,L,G,d,L,i,,,,,6,7,127,17,3,0,3,0,,,,,1,9,45,16,,,,,,up,0.46701285388280667,1627.8900430475142,None,001,20,2019_Oct_11_1201,ACPT_experiment_5_30_19,3.1.0,59.970004597768074,
,,,C,U,y,n,R,G,d,R,i,,,,,6,7,127,17,3,0,3,0,,,,,1,10,46,5,,,,,,down,0.4336585013934382,1629.6413714350574,None,001,20,2019_Oct_11_1201,ACPT_experiment_5_30_19,3.1.0,59.970004597768074,
,,,C,U,y,n,L,D,d,R,c ,,,,,6,7,127,17,3,0,3,0,,,,,1,11,47,13,,,,,,up,0.7505468854469655,1631.3593581480127,None,001,20,2019_Oct_11_1201,ACPT_experiment_5_30_19,3.1.0,59.970004597768074,
,,,C,U,y,n,R,U,d,R,u,,,,,6,7,127,17,3,0,3,0,,,,,1,12,48,9,,,,,,up,0.48370783956215746,1633.394221472684,None,001,20,2019_Oct_11_1201,ACPT_experiment_5_30_19,3.1.0,59.970004597768074,
,,,C,U,y,n,R,D,g,R,i,,,,,6,7,127,17,3,0,3,0,,,,,1,13,49,3,,,,,,up,0.35025903670339176,1635.1622264327616,None,001,20,2019_Oct_11_1201,ACPT_experiment_5_30_19,3.1.0,59.970004597768074,
,,,C,U,y,n,R,U,g,R,u,,,,,6,7,127,17,3,0,3,0,,,,,1,14,50,11,,,,,,up,0.4333826060992578,1636.8137567913564,None,001,20,2019_Oct_11_1201,ACPT_experiment_5_30_19,3.1.0,59.970004597768074,
,,,C,U,y,n,L,U,g,R,u,,,,,6,7,127,17,3,0,3,0,,,,,1,15,51,23,,,,,,up,0.4169767973262424,1638.5314564403898,None,001,20,2019_Oct_11_1201,ACPT_experiment_5_30_19,3.1.0,59.970004597768074,
,,,C,U,y,n,L,G,y,R,y,,,,,6,7,127,17,3,0,3,0,,,,,1,16,52,35,,,,,,down,0.5170579660843941,1640.23274152686,None,001,20,2019_Oct_11_1201,ACPT_experiment_5_30_19,3.1.0,59.970004597768074,
,,,C,U,y,n,L,D,g,R,i,,,,,6,7,127,17,3,0,3,0,,,,,1,17,53,15,,,,,,up,0.5170516271336965,1642.0341177432974,None,001,20,2019_Oct_11_1201,ACPT_experiment_5_30_19,3.1.0,59.970004597768074,
,,,C,U,y,n,L,G,g,L,c ,,,,,6,7,127,17,3,0,3,0,,,,,1,18,54,18,,,,,,up,0.7002590819811303,1643.8524343533718,None,001,20,2019_Oct_11_1201,ACPT_experiment_5_30_19,3.1.0,59.970004597768074,
,,,C,U,y,n,R,D,g,L,i,,,,,6,7,127,17,3,0,3,0,,,,,1,19,55,2,,,,,,up,0.5837730100147382,1645.8370038374806,None,001,20,2019_Oct_11_1201,ACPT_experiment_5_30_19,3.1.0,59.970004597768074,
,,,C,U,y,n,L,D,d,L,c ,,,,,6,7,127,17,3,0,3,0,,,,,1,20,56,12,,,,,,up,0.48369546351477766,1647.7050839292206,None,001,20,2019_Oct_11_1201,ACPT_experiment_5_30_19,3.1.0,59.970004597768074,
,,,C,U,y,n,L,U,d,L,u,,,,,6,7,127,17,3,0,3,0,,,,,1,21,57,20,,,,,,up,0.5003844120965368,1649.47309402083,None,001,20,2019_Oct_11_1201,ACPT_experiment_5_30_19,3.1.0,59.970004597768074,
,,,C,U,y,n,L,G,g,R,c ,,,,,6,7,127,17,3,0,3,0,,,,,1,22,58,19,,,,,,up,0.6004637697260478,1651.2577830998134,None,001,20,2019_Oct_11_1201,ACPT_experiment_5_30_19,3.1.0,59.970004597768074,
,,,C,U,y,n,R,D,y,R,y,,,,,6,7,127,17,3,0,3,0,,,,,1,23,59,27,,,,,,down,0.5504379762332974,1653.1425255769127,None,001,20,2019_Oct_11_1201,ACPT_experiment_5_30_19,3.1.0,59.970004597768074,
,,,C,U,y,n,L,U,g,L,u,,,,,6,7,127,17,3,0,3,0,,,,,1,24,60,22,,,,,,up,0.5504071870418557,1654.9772763701121,None,001,20,2019_Oct_11_1201,ACPT_experiment_5_30_19,3.1.0,59.970004597768074,
,,,C,U,y,n,R,D,d,R,c ,,,,,6,7,127,17,3,0,3,0,,,,,1,25,61,1,,,,,,up,0.7002992286697918,1656.8289545771913,None,001,20,2019_Oct_11_1201,ACPT_experiment_5_30_19,3.1.0,59.970004597768074,
,,,C,U,y,n,L,U,d,R,u,,,,,6,7,127,17,3,0,3,0,,,,,1,26,62,21,,,,,,up,0.5003593581486712,1658.8135237594452,None,001,20,2019_Oct_11_1201,ACPT_experiment_5_30_19,3.1.0,59.970004597768074,
,,,C,U,y,n,R,G,d,L,i,,,,,6,7,127,17,3,0,3,0,,,,,1,27,63,4,,,,,,up,0.5003702249205162,1660.5982064994778,None,001,20,2019_Oct_11_1201,ACPT_experiment_5_30_19,3.1.0,59.970004597768074,
,,,C,U,y,n,R,U,y,R,u,,,,,6,7,127,17,3,0,3,0,,,,,1,28,64,31,,,,,,down,0.5670828540123694,1662.3995745658349,None,001,20,2019_Oct_11_1201,ACPT_experiment_5_30_19,3.1.0,59.970004597768074,
,,,C,U,y,n,R,G,y,R,y,,,,,6,7,127,17,3,0,3,0,,,,,1,29,65,29,,,,,,down,0.5839182021773013,1664.2676576761232,None,001,20,2019_Oct_11_1201,ACPT_experiment_5_30_19,3.1.0,59.970004597768074,
,,,C,U,y,n,L,D,g,L,i,,,,,6,7,127,17,3,0,3,0,,,,,1,30,66,14,,,,,,up,0.6671694561573531,1666.1357428993942,None,001,20,2019_Oct_11_1201,ACPT_experiment_5_30_19,3.1.0,59.970004597768074,
,,,C,U,y,n,R,U,g,L,u,,,,,6,7,127,17,3,0,3,0,,,,,1,31,67,10,,,,,,up,0.5170727569693554,1668.087204948246,None,001,20,2019_Oct_11_1201,ACPT_experiment_5_30_19,3.1.0,59.970004597768074,
,,,C,U,y,n,R,G,y,L,y,,,,,6,7,127,17,3,0,3,0,,,,,1,32,68,28,,,,,,down,0.6168907083356316,1669.9055103896917,None,001,20,2019_Oct_11_1201,ACPT_experiment_5_30_19,3.1.0,59.970004597768074,
,,,C,U,y,n,R,U,y,L,u,,,,,6,7,127,17,3,0,3,0,,,,,1,33,69,30,,,,,,down,0.6669723449676894,1671.8235528854157,None,001,20,2019_Oct_11_1201,ACPT_experiment_5_30_19,3.1.0,59.970004597768074,
,,,C,U,y,n,R,D,d,L,c,,,,,6,7,127,17,3,0,3,0,,,,,1,34,70,0,,,,,,up,0.5670846651419197,1673.791555672139,None,001,20,2019_Oct_11_1201,ACPT_experiment_5_30_19,3.1.0,59.970004597768074,
,,,C,U,y,n,L,U,y,L,u,,,,,6,7,127,17,3,0,3,0,,,,,1,35,71,24,,,,,,down,0.7338766518623743,1675.6596405935552,None,001,20,2019_Oct_11_1201,ACPT_experiment_5_30_19,3.1.0,59.970004597768074,
,,,C,U,y,n,,,,,,,,,,6,7,127,17,4,0,4,0,0,0,0,0,,,,,,,,,,,,,,001,20,2019_Oct_11_1201,ACPT_experiment_5_30_19,3.1.0,59.970004597768074,
,,,C,U,y,n,L,G,y,L,y,,,,,6,7,127,17,4,0,4,0,,,,,0,0,0,34,,,,,,down,0.5503902831733285,1683.6824197647284,None,001,20,2019_Oct_11_1201,ACPT_experiment_5_30_19,3.1.0,59.970004597768074,
,,,C,U,y,n,L,D,g,L,i,,,,,6,7,127,17,4,0,4,0,,,,,0,1,1,14,,,,,,up,0.43364974760424957,1685.5171286001096,None,001,20,2019_Oct_11_1201,ACPT_experiment_5_30_19,3.1.0,59.970004597768074,
,,,C,U,y,n,L,G,y,R,y,,,,,6,7,127,17,4,0,4,0,,,,,0,2,2,35,,,,,,down,0.5668772908893516,1687.2519428130036,None,001,20,2019_Oct_11_1201,ACPT_experiment_5_30_19,3.1.0,59.970004597768074,
,,,C,U,y,n,L,D,d,L,c ,,,,,6,7,127,17,4,0,4,0,,,,,0,3,3,12,,,,,,up,0.4336509550239498,1689.1198602050017,None,001,20,2019_Oct_11_1201,ACPT_experiment_5_30_19,3.1.0,59.970004597768074,
,,,C,U,y,n,L,U,y,R,u,,,,,6,7,127,17,4,0,4,0,,,,,0,4,4,25,,,,,,up,0.6001951189473402,1690.8547550131298,None,001,20,2019_Oct_11_1201,ACPT_experiment_5_30_19,3.1.0,59.970004597768074,
,,,C,U,y,n,R,U,g,R,u,,,,,6,7,127,17,4,0,4,0,,,,,0,5,5,11,,,,,,up,0.7005268271950627,1692.7392707972685,None,001,20,2019_Oct_11_1201,ACPT_experiment_5_30_19,3.1.0,59.970004597768074,
,,,C,U,y,n,R,D,d,L,c,,,,,6,7,127,17,4,0,4,0,,,,,0,6,6,0,,,,,,up,0.5170558531008282,1694.7241149692518,None,001,20,2019_Oct_11_1201,ACPT_experiment_5_30_19,3.1.0,59.970004597768074,
,,,C,U,y,n,L,U,y,L,u,,,,,6,7,127,17,4,0,4,0,,,,,0,7,7,24,,,,,,down,0.6838418027246007,1696.5254800170615,None,001,20,2019_Oct_11_1201,ACPT_experiment_5_30_19,3.1.0,59.970004597768074,
,,,C,U,y,n,R,G,g,R,c ,,,,,6,7,127,17,4,0,4,0,,,,,0,8,8,7,,,,,,up,0.7839558736568506,1698.4936439942521,None,001,20,2019_Oct_11_1201,ACPT_experiment_5_30_19,3.1.0,59.970004597768074,
,,,C,U,y,n,L,U,g,R,u,,,,,6,7,127,17,4,0,4,0,,,,,0,9,9,23,,,,,,up,0.8339593298942418,1700.5618788771371,None,001,20,2019_Oct_11_1201,ACPT_experiment_5_30_19,3.1.0,59.970004597768074,
,,,C,U,y,n,L,U,g,L,u,,,,,6,7,127,17,4,0,4,0,,,,,0,10,10,22,,,,,,up,0.7839655330108144,1702.6633214110752,None,001,20,2019_Oct_11_1201,ACPT_experiment_5_30_19,3.1.0,59.970004597768074,
,,,C,U,y,n,R,G,d,L,i,,,,,6,7,127,17,4,0,4,0,,,,,0,11,11,4,,,,,,up,0.8172773239721209,1704.7317123528956,None,001,20,2019_Oct_11_1201,ACPT_experiment_5_30_19,3.1.0,59.970004597768074,
,,,C,U,y,n,L,G,d,L,i,,,,,6,7,127,17,4,0,4,0,,,,,0,12,12,16,,,,,,up,0.8006022607114573,1706.8333033993986,None,001,20,2019_Oct_11_1201,ACPT_experiment_5_30_19,3.1.0,59.970004597768074,
,,,C,U,y,n,R,U,d,R,u,,,,,6,7,127,17,4,0,4,0,,,,,0,13,13,9,,,,,,up,0.6004689012579547,1708.9182205900597,None,001,20,2019_Oct_11_1201,ACPT_experiment_5_30_19,3.1.0,59.970004597768074,
,,,C,U,y,n,R,G,d,R,i,,,,,6,7,127,17,4,0,4,0,,,,,0,14,14,5,,,,,,up,0.5003611692764025,1710.8029968748979,None,001,20,2019_Oct_11_1201,ACPT_experiment_5_30_19,3.1.0,59.970004597768074,
,,,C,U,y,n,L,D,g,R,i,,,,,6,7,127,17,4,0,4,0,,,,,0,15,15,15,,,,,,up,0.5670867781254856,1712.5876753889634,None,001,20,2019_Oct_11_1201,ACPT_experiment_5_30_19,3.1.0,59.970004597768074,
,,,C,U,y,n,R,D,g,R,i,,,,,6,7,127,17,4,0,4,0,,,,,0,16,16,3,,,,,,up,0.4169635157149969,1714.439098830585,None,001,20,2019_Oct_11_1201,ACPT_experiment_5_30_19,3.1.0,59.970004597768074,
,,,C,U,y,n,R,U,y,L,u,,,,,6,7,127,17,4,0,4,0,,,,,0,17,17,30,,,,,,down,0.6835921687998052,1716.157320688435,None,001,20,2019_Oct_11_1201,ACPT_experiment_5_30_19,3.1.0,59.970004597768074,
,,,C,U,y,n,L,U,d,L,u,,,,,6,7,127,17,4,0,4,0,,,,,0,18,18,20,,,,,,up,0.5670873818353357,1718.1252120907347,None,001,20,2019_Oct_11_1201,ACPT_experiment_5_30_19,3.1.0,59.970004597768074,
,,,C,U,y,n,R,D,g,L,i,,,,,6,7,127,17,4,0,4,0,,,,,0,19,19,2,,,,,,up,0.5504123185737626,1719.9766192321968,None,001,20,2019_Oct_11_1201,ACPT_experiment_5_30_19,3.1.0,59.970004597768074,
,,,C,U,y,n,L,G,d,R,i,,,,,6,7,127,17,4,0,4,0,,,,,0,20,20,17,,,,,,up,0.6671860581718647,1721.8113401417695,None,001,20,2019_Oct_11_1201,ACPT_experiment_5_30_19,3.1.0,59.970004597768074,
,,,C,U,y,n,R,U,y,R,u,,,,,6,7,127,17,4,0,4,0,,,,,0,21,21,31,,,,,,down,0.5337257848295849,1723.76282664086,None,001,20,2019_Oct_11_1201,ACPT_experiment_5_30_19,3.1.0,59.970004597768074,
,,,C,U,y,n,R,G,y,L,y,,,,,6,7,127,17,4,0,4,0,,,,,0,22,22,28,,,,,,down,0.5337354441844582,1725.5641919905247,None,001,20,2019_Oct_11_1201,ACPT_experiment_5_30_19,3.1.0,59.970004597768074,
,,,C,U,y,n,R,D,y,R,y,,,,,6,7,127,17,4,0,4,0,,,,,0,23,23,27,,,,,,down,0.4670409263799229,1727.3822142921617,None,001,20,2019_Oct_11_1201,ACPT_experiment_5_30_19,3.1.0,59.970004597768074,
,,,C,U,y,n,R,G,g,L,c ,,,,,6,7,127,17,4,0,4,0,,,,,0,24,24,6,,,,,,up,0.6334290313689053,1729.1506499990492,None,001,20,2019_Oct_11_1201,ACPT_experiment_5_30_19,3.1.0,59.970004597768074,
,,,C,U,y,n,L,G,g,L,c ,,,,,6,7,127,17,4,0,4,0,,,,,0,25,25,18,,,,,,up,0.6506652427169684,1731.0683785657739,None,001,20,2019_Oct_11_1201,ACPT_experiment_5_30_19,3.1.0,59.970004597768074,
,,,C,U,y,n,R,G,y,R,y,,,,,6,7,127,17,4,0,4,0,,,,,0,26,26,29,,,,,,down,0.6338766820481396,1733.0031755125729,None,001,20,2019_Oct_11_1201,ACPT_experiment_5_30_19,3.1.0,59.970004597768074,
,,,C,U,y,n,L,D,y,L,y,,,,,6,7,127,17,4,0,4,0,,,,,0,27,27,32,,,,,,down,0.5337200495878278,1734.937982118725,None,001,20,2019_Oct_11_1201,ACPT_experiment_5_30_19,3.1.0,59.970004597768074,
,,,C,U,y,n,R,U,d,L,u,,,,,6,7,127,17,4,0,4,0,,,,,0,28,28,8,,,,,,up,0.5837642562255496,1736.772701519024,None,001,20,2019_Oct_11_1201,ACPT_experiment_5_30_19,3.1.0,59.970004597768074,
,,,C,U,y,n,L,D,y,R,y,,,,,6,7,127,17,4,0,4,0,,,,,0,29,29,33,,,,,,down,0.6338093684262276,1738.6574627111213,None,001,20,2019_Oct_11_1201,ACPT_experiment_5_30_19,3.1.0,59.970004597768074,
,,,C,U,y,n,L,U,d,R,u,,,,,6,7,127,17,4,0,4,0,,,,,0,30,30,21,,,,,,up,0.7672300987878771,1740.6089513231964,None,001,20,2019_Oct_11_1201,ACPT_experiment_5_30_19,3.1.0,59.970004597768074,
,,,C,U,y,n,L,D,d,R,c ,,,,,6,7,127,17,4,0,4,0,,,,,0,31,31,13,,,,,,up,2.0682179790155715,1742.677197676564,None,001,20,2019_Oct_11_1201,ACPT_experiment_5_30_19,3.1.0,59.970004597768074,
,,,C,U,y,n,R,D,d,R,c ,,,,,6,7,127,17,4,0,4,0,,,,,0,32,32,1,,,,,,up,0.5671082098169791,1746.0297100594025,None,001,20,2019_Oct_11_1201,ACPT_experiment_5_30_19,3.1.0,59.970004597768074,
,,,C,U,y,n,R,D,y,L,y,,,,,6,7,127,17,4,0,4,0,,,,,0,33,33,26,,,,,,down,0.5670937207869429,1747.8811274639284,None,001,20,2019_Oct_11_1201,ACPT_experiment_5_30_19,3.1.0,59.970004597768074,
,,,C,U,y,n,R,U,g,L,u,,,,,6,7,127,17,4,0,4,0,,,,,0,34,34,10,,,,,,up,0.6004519973885181,1749.732536416519,None,001,20,2019_Oct_11_1201,ACPT_experiment_5_30_19,3.1.0,59.970004597768074,
,,,C,U,y,n,L,G,g,R,c ,,,,,6,7,127,17,4,0,4,0,,,,,0,35,35,19,,,,,,up,0.46704334121841384,1751.6172773843437,None,001,20,2019_Oct_11_1201,ACPT_experiment_5_30_19,3.1.0,59.970004597768074,
,,,C,U,y,n,R,D,y,R,y,,,,,6,7,127,17,4,0,4,0,,,,,1,0,36,27,,,,,,down,0.6671670413188622,1753.3686332406742,None,001,20,2019_Oct_11_1201,ACPT_experiment_5_30_19,3.1.0,59.970004597768074,
,,,C,U,y,n,R,U,y,L,u,,,,,6,7,127,17,4,0,4,0,,,,,1,1,37,30,,,,,,down,0.48369908577296883,1755.3201155137976,None,001,20,2019_Oct_11_1201,ACPT_experiment_5_30_19,3.1.0,59.970004597768074,
,,,C,U,y,n,L,U,g,R,u,,,,,6,7,127,17,4,0,4,0,,,,,1,2,38,23,,,,,,up,0.4333856246475989,1757.1050729417057,None,001,20,2019_Oct_11_1201,ACPT_experiment_5_30_19,3.1.0,59.970004597768074,
,,,C,U,y,n,R,G,d,R,i,,,,,6,7,127,17,4,0,4,0,,,,,1,3,39,5,,,,,,up,0.6504811112845346,1758.8227816463832,None,001,20,2019_Oct_11_1201,ACPT_experiment_5_30_19,3.1.0,59.970004597768074,
,,,C,U,y,n,L,D,d,R,c ,,,,,6,7,127,17,4,0,4,0,,,,,1,4,40,13,,,,,,up,0.4837156877865709,1760.7408757592784,None,001,20,2019_Oct_11_1201,ACPT_experiment_5_30_19,3.1.0,59.970004597768074,
,,,C,U,y,n,R,D,y,L,y,,,,,6,7,127,17,4,0,4,0,,,,,1,5,41,26,,,,,,down,0.6504949966056301,1762.5089027547574,None,001,20,2019_Oct_11_1201,ACPT_experiment_5_30_19,3.1.0,59.970004597768074,
,,,C,U,y,n,L,U,y,R,u,,,,,6,7,127,17,4,0,4,0,,,,,1,6,42,25,,,,,,down,0.7334616015032225,1764.4607819669527,None,001,20,2019_Oct_11_1201,ACPT_experiment_5_30_19,3.1.0,59.970004597768074,
,,,C,U,y,n,R,D,g,R,i,,,,,6,7,127,17,4,0,4,0,,,,,1,7,43,3,,,,,,up,0.7005271290499877,1766.478584759774,None,001,20,2019_Oct_11_1201,ACPT_experiment_5_30_19,3.1.0,59.970004597768074,
,,,C,U,y,n,L,D,y,L,y,,,,,6,7,127,17,4,0,4,0,,,,,1,8,44,32,,,,,,down,0.5170480048755053,1768.4634319503057,None,001,20,2019_Oct_11_1201,ACPT_experiment_5_30_19,3.1.0,59.970004597768074,
,,,C,U,y,n,R,D,d,L,c,,,,,6,7,127,17,4,0,4,0,,,,,1,9,45,0,,,,,,up,0.8006261072414418,1770.2647716423107,None,001,20,2019_Oct_11_1201,ACPT_experiment_5_30_19,3.1.0,59.970004597768074,
,,,C,U,y,n,L,G,d,L,i,,,,,6,7,127,17,4,0,4,0,,,,,1,10,46,16,,,,,,up,0.6672096028469241,1772.3497093590995,None,001,20,2019_Oct_11_1201,ACPT_experiment_5_30_19,3.1.0,59.970004597768074,
,,,C,U,y,n,L,U,g,L,u,,,,,6,7,127,17,4,0,4,0,,,,,1,11,47,22,,,,,,up,0.5670952300597492,1774.3011901229493,None,001,20,2019_Oct_11_1201,ACPT_experiment_5_30_19,3.1.0,59.970004597768074,
,,,C,U,y,n,L,G,d,R,i,,,,,6,7,127,17,4,0,4,0,,,,,1,12,48,17,,,,,,up,0.8340015895673787,1776.15259847183,None,001,20,2019_Oct_11_1201,ACPT_experiment_5_30_19,3.1.0,59.970004597768074,
,,,C,U,y,n,R,U,d,R,u,,,,,6,7,127,17,4,0,4,0,,,,,1,13,49,9,,,,,,up,0.8840207422554158,1778.270872127965,None,001,20,2019_Oct_11_1201,ACPT_experiment_5_30_19,3.1.0,59.970004597768074,
,,,C,U,y,n,R,U,y,R,u,,,,,6,7,127,17,4,0,4,0,,,,,1,14,50,31,,,,,,down,0.7505900506848775,1780.4224841382847,None,001,20,2019_Oct_11_1201,ACPT_experiment_5_30_19,3.1.0,59.970004597768074,
,,,C,U,y,n,R,G,y,L,y,,,,,6,7,127,17,4,0,4,0,,,,,1,15,51,28,,,,,,down,0.4336452197821927,1782.4573867040808,None,001,20,2019_Oct_11_1201,ACPT_experiment_5_30_19,3.1.0,59.970004597768074,
,,,C,U,y,n,L,U,y,L,u,,,,,6,7,127,17,4,0,4,0,,,,,1,16,52,24,,,,,,down,0.6504919780572891,1784.175354400183,None,001,20,2019_Oct_11_1201,ACPT_experiment_5_30_19,3.1.0,59.970004597768074,
,,,C,U,y,n,L,U,d,L,u,,,,,6,7,127,17,4,0,4,0,,,,,1,17,53,20,,,,,,down,0.46700621307718393,1786.1101622137548,None,001,20,2019_Oct_11_1201,ACPT_experiment_5_30_19,3.1.0,59.970004597768074,
,,,C,U,y,n,L,D,d,L,c ,,,,,6,7,127,17,4,0,4,0,,,,,1,18,54,12,,,,,,up,0.6004344898092313,1787.8614948272652,None,001,20,2019_Oct_11_1201,ACPT_experiment_5_30_19,3.1.0,59.970004597768074,
,,,C,U,y,n,R,D,g,L,i,,,,,6,7,127,17,4,0,4,0,,,,,1,19,55,2,,,,,,up,0.43338713392222417,1789.763200035257,None,001,20,2019_Oct_11_1201,ACPT_experiment_5_30_19,3.1.0,59.970004597768074,
,,,C,U,y,n,L,D,g,L,i,,,,,6,7,127,17,4,0,4,0,,,,,1,20,56,14,,,,,,up,0.4168672240311935,1791.4808999861452,None,001,20,2019_Oct_11_1201,ACPT_experiment_5_30_19,3.1.0,59.970004597768074,
,,,C,U,y,n,L,G,y,L,y,,,,,6,7,127,17,4,0,4,0,,,,,1,21,57,34,,,,,,down,0.5502016239179284,1793.199046984003,None,001,20,2019_Oct_11_1201,ACPT_experiment_5_30_19,3.1.0,59.970004597768074,
,,,C,U,y,n,R,D,d,R,c ,,,,,6,7,127,17,4,0,4,0,,,,,1,22,58,1,,,,,,up,0.6171098549257295,1795.0502929349977,None,001,20,2019_Oct_11_1201,ACPT_experiment_5_30_19,3.1.0,59.970004597768074,
,,,C,U,y,n,L,U,d,R,u,,,,,6,7,127,17,4,0,4,0,,,,,1,23,59,21,,,,,,up,0.500103385271359,1796.95199059662,None,001,20,2019_Oct_11_1201,ACPT_experiment_5_30_19,3.1.0,59.970004597768074,
,,,C,U,y,n,R,U,g,R,u,,,,,6,7,127,17,4,0,4,0,,,,,1,24,60,11,,,,,,up,0.5170510234238463,1798.7364077044222,None,001,20,2019_Oct_11_1201,ACPT_experiment_5_30_19,3.1.0,59.970004597768074,
,,,C,U,y,n,R,G,g,L,c ,,,,,6,7,127,17,4,0,4,0,,,,,1,25,61,6,,,,,,up,0.6338093684262276,1800.5377751670694,None,001,20,2019_Oct_11_1201,ACPT_experiment_5_30_19,3.1.0,59.970004597768074,
,,,C,U,y,n,L,G,y,R,y,,,,,6,7,127,17,4,0,4,0,,,,,1,26,62,35,,,,,,down,0.6505164282971236,1802.4558732040778,None,001,20,2019_Oct_11_1201,ACPT_experiment_5_30_19,3.1.0,59.970004597768074,
,,,C,U,y,n,R,G,d,L,i,,,,,6,7,127,17,4,0,4,0,,,,,1,27,63,4,,,,,,up,0.5837763304170949,1804.3907006382124,None,001,20,2019_Oct_11_1201,ACPT_experiment_5_30_19,3.1.0,59.970004597768074,
,,,C,U,y,n,R,U,g,L,u,,,,,6,7,127,17,4,0,4,0,,,,,1,28,64,10,,,,,,up,0.41696110087650595,1806.2588006523692,None,001,20,2019_Oct_11_1201,ACPT_experiment_5_30_19,3.1.0,59.970004597768074,
,,,C,U,y,n,L,G,g,R,c ,,,,,6,7,127,17,4,0,4,0,,,,,1,29,65,19,,,,,,up,0.7005277327598378,1807.9600766831954,None,001,20,2019_Oct_11_1201,ACPT_experiment_5_30_19,3.1.0,59.970004597768074,
,,,C,U,y,n,L,D,g,R,i,,,,,6,7,127,17,4,0,4,0,,,,,1,30,66,15,,,,,,up,0.8973506505426485,1809.9649289992221,None,001,20,2019_Oct_11_1201,ACPT_experiment_5_30_19,3.1.0,59.970004597768074,
,,,C,U,y,n,R,G,y,R,y,,,,,6,7,127,17,4,0,4,0,,,,,1,31,67,29,,,,,,up,0.6169332698636936,1812.1634238907818,None,001,20,2019_Oct_11_1201,ACPT_experiment_5_30_19,3.1.0,59.970004597768074,
,,,C,U,y,n,L,G,g,L,c ,,,,,6,7,127,17,4,0,4,0,,,,,1,32,68,18,,,,,,up,1.0341047635401992,1814.081394243207,None,001,20,2019_Oct_11_1201,ACPT_experiment_5_30_19,3.1.0,59.970004597768074,
,,,C,U,y,n,R,G,g,R,c ,,,,,6,7,127,17,4,0,4,0,,,,,1,33,69,7,,,,,,up,1.8010915673539785,1816.4167694230746,None,001,20,2019_Oct_11_1201,ACPT_experiment_5_30_19,3.1.0,59.970004597768074,
,,,C,U,y,n,R,U,d,L,u,,,,,6,7,127,17,4,0,4,0,,,,,1,34,70,8,,,,,,up,0.6004538085171589,1819.5021738073947,None,001,20,2019_Oct_11_1201,ACPT_experiment_5_30_19,3.1.0,59.970004597768074,
,,,C,U,y,n,L,D,y,R,y,,,,,6,7,127,17,4,0,4,0,,,,,1,35,71,33,,,,,,down,0.4004085906663022,1821.386940131024,None,001,20,2019_Oct_11_1201,ACPT_experiment_5_30_19,3.1.0,59.970004597768074,
,,,C,U,y,n,,,,,,,,,,6,7,127,17,5,0,5,0,0,0,0,0,,,,,,,,,,,,,,001,20,2019_Oct_11_1201,ACPT_experiment_5_30_19,3.1.0,59.970004597768074,
,,,C,U,y,n,L,D,y,L,y,,,,,6,7,127,17,5,0,5,0,,,,,0,0,0,32,,,,,,down,0.5804676998759533,1825.5767748081644,None,001,20,2019_Oct_11_1201,ACPT_experiment_5_30_19,3.1.0,59.970004597768074,
,,,C,U,y,n,R,G,y,R,y,,,,,6,7,127,17,5,0,5,0,,,,,0,1,1,29,,,,,,down,0.5337309163614918,1827.441534497024,None,001,20,2019_Oct_11_1201,ACPT_experiment_5_30_19,3.1.0,59.970004597768074,
,,,C,U,y,n,R,D,g,L,i,,,,,6,7,127,17,5,0,5,0,,,,,0,2,2,2,,,,,,up,0.4336585013934382,1829.2595785322073,None,001,20,2019_Oct_11_1201,ACPT_experiment_5_30_19,3.1.0,59.970004597768074,
,,,C,U,y,n,R,U,y,R,u,,,,,6,7,127,17,5,0,5,0,,,,,0,3,3,31,,,,,,down,0.667174285834335,1830.9775558876636,None,001,20,2019_Oct_11_1201,ACPT_experiment_5_30_19,3.1.0,59.970004597768074,
,,,C,U,y,n,R,D,y,L,y,,,,,6,7,127,17,5,0,5,0,,,,,0,4,4,26,,,,,,down,0.4001218286002768,1832.945955311604,None,001,20,2019_Oct_11_1201,ACPT_experiment_5_30_19,3.1.0,59.970004597768074,
,,,C,U,y,n,R,U,g,R,u,,,,,6,7,127,17,5,0,5,0,,,,,0,5,5,11,,,,,,up,0.4836888227091549,1834.6303313973376,None,001,20,2019_Oct_11_1201,ACPT_experiment_5_30_19,3.1.0,59.970004597768074,
,,,C,U,y,n,R,G,g,L,c ,,,,,6,7,127,17,5,0,5,0,,,,,0,6,6,6,,,,,,up,0.4836897282730206,1836.3983345462866,None,001,20,2019_Oct_11_1201,ACPT_experiment_5_30_19,3.1.0,59.970004597768074,
,,,C,U,y,n,L,D,d,L,c ,,,,,6,7,127,17,5,0,5,0,,,,,0,7,7,12,,,,,,up,0.4336633310704201,1838.1663419212036,None,001,20,2019_Oct_11_1201,ACPT_experiment_5_30_19,3.1.0,59.970004597768074,
,,,C,U,y,n,L,G,g,L,c ,,,,,6,7,127,17,5,0,5,0,,,,,0,8,8,18,,,,,,up,0.46656550505849737,1839.9014293126984,None,001,20,2019_Oct_11_1201,ACPT_experiment_5_30_19,3.1.0,59.970004597768074,
,,,C,U,y,n,R,G,d,L,i,,,,,6,7,127,17,5,0,5,0,,,,,0,9,9,4,,,,,,up,0.4002914710017649,1841.6523281608506,None,001,20,2019_Oct_11_1201,ACPT_experiment_5_30_19,3.1.0,59.970004597768074,
,,,C,U,y,n,R,D,y,R,y,,,,,6,7,127,17,5,0,5,0,,,,,0,10,10,27,,,,,,down,0.4169526489413329,1843.3369602194607,None,001,20,2019_Oct_11_1201,ACPT_experiment_5_30_19,3.1.0,59.970004597768074,
,,,C,U,y,n,R,U,d,R,u,,,,,6,7,127,17,5,0,5,0,,,,,0,11,11,9,,,,,,up,0.5503960184141761,1845.0382401744,None,001,20,2019_Oct_11_1201,ACPT_experiment_5_30_19,3.1.0,59.970004597768074,
,,,C,U,y,n,L,D,d,R,c ,,,,,6,7,127,17,5,0,5,0,,,,,0,12,12,13,,,,,,up,0.516775429984591,1846.8732243013646,None,001,20,2019_Oct_11_1201,ACPT_experiment_5_30_19,3.1.0,59.970004597768074,
,,,C,U,y,n,R,D,d,L,c,,,,,6,7,127,17,5,0,5,0,,,,,0,13,13,0,,,,,,up,0.6504832242681005,1848.674323415089,None,001,20,2019_Oct_11_1201,ACPT_experiment_5_30_19,3.1.0,59.970004597768074,
,,,C,U,y,n,L,G,d,R,i,,,,,6,7,127,17,5,0,5,0,,,,,0,14,14,17,,,,,,up,0.6004501862589677,1850.6091221730167,None,001,20,2019_Oct_11_1201,ACPT_experiment_5_30_19,3.1.0,59.970004597768074,
,,,C,U,y,n,R,U,d,L,u,,,,,6,7,127,17,5,0,5,0,,,,,0,15,15,8,,,,,,up,0.4837205174635528,1852.4771847571783,None,001,20,2019_Oct_11_1201,ACPT_experiment_5_30_19,3.1.0,59.970004597768074,
,,,C,U,y,n,R,U,g,L,u,,,,,6,7,127,17,5,0,5,0,,,,,0,16,16,10,,,,,,up,0.45033869618691824,1854.228539707944,None,001,20,2019_Oct_11_1201,ACPT_experiment_5_30_19,3.1.0,59.970004597768074,
,,,C,U,y,n,L,G,d,L,i,,,,,6,7,127,17,5,0,5,0,,,,,0,17,17,16,,,,,,up,0.43366151994177926,1855.9631875988389,None,001,20,2019_Oct_11_1201,ACPT_experiment_5_30_19,3.1.0,59.970004597768074,
,,,C,U,y,n,R,G,y,L,y,,,,,6,7,127,17,5,0,5,0,,,,,0,18,18,28,,,,,,down,0.7505613744770017,1857.6811613320378,None,001,20,2019_Oct_11_1201,ACPT_experiment_5_30_19,3.1.0,59.970004597768074,
,,,C,U,y,n,L,U,g,L,u,,,,,6,7,127,17,5,0,5,0,,,,,0,19,19,22,,,,,,up,0.4333829079550924,1859.7329991599381,None,001,20,2019_Oct_11_1201,ACPT_experiment_5_30_19,3.1.0,59.970004597768074,
,,,C,U,y,n,R,G,g,R,c ,,,,,6,7,127,17,5,0,5,0,,,,,0,20,20,7,,,,,,up,0.6338090665713025,1861.4506879421988,None,001,20,2019_Oct_11_1201,ACPT_experiment_5_30_19,3.1.0,59.970004597768074,
,,,C,U,y,n,L,U,y,R,u,,,,,6,7,127,17,5,0,5,0,,,,,0,21,21,25,,,,,,down,0.7672343247550089,1863.3854966613353,None,001,20,2019_Oct_11_1201,ACPT_experiment_5_30_19,3.1.0,59.970004597768074,
,,,C,U,y,n,R,G,d,R,i,,,,,6,7,127,17,5,0,5,0,,,,,0,22,22,5,,,,,,down,0.5170510234238463,1865.4537242997048,None,001,20,2019_Oct_11_1201,ACPT_experiment_5_30_19,3.1.0,59.970004597768074,
,,,C,U,y,n,L,G,g,R,c ,,,,,6,7,127,17,5,0,5,0,,,,,0,23,23,19,,,,,,up,0.6171294754876726,1867.255096290175,None,001,20,2019_Oct_11_1201,ACPT_experiment_5_30_19,3.1.0,59.970004597768074,
,,,C,U,y,n,R,D,d,R,c ,,,,,6,7,127,17,5,0,5,0,,,,,0,24,24,1,,,,,,up,0.4002911691477493,1869.1565409974673,None,001,20,2019_Oct_11_1201,ACPT_experiment_5_30_19,3.1.0,59.970004597768074,
,,,C,U,y,n,L,U,d,L,u,,,,,6,7,127,17,5,0,5,0,,,,,0,25,25,20,,,,,,up,0.5504123185737626,1870.8244717314483,None,001,20,2019_Oct_11_1201,ACPT_experiment_5_30_19,3.1.0,59.970004597768074,
,,,C,U,y,n,L,D,g,R,i,,,,,6,7,127,17,5,0,5,0,,,,,0,26,26,15,,,,,,up,0.45004770815194206,1872.6761659368321,None,001,20,2019_Oct_11_1201,ACPT_experiment_5_30_19,3.1.0,59.970004597768074,
,,,C,U,y,n,R,D,g,R,i,,,,,6,7,127,17,5,0,5,0,,,,,0,27,27,3,,,,,,up,0.5670934189311083,1874.410526763806,None,001,20,2019_Oct_11_1201,ACPT_experiment_5_30_19,3.1.0,59.970004597768074,
,,,C,U,y,n,R,U,y,L,u,,,,,6,7,127,17,5,0,5,0,,,,,0,28,28,30,,,,,,down,0.6838487453851485,1876.261933905268,None,001,20,2019_Oct_11_1201,ACPT_experiment_5_30_19,3.1.0,59.970004597768074,
,,,C,U,y,n,L,D,y,R,y,,,,,6,7,127,17,5,0,5,0,,,,,0,29,29,33,,,,,,down,0.7505897488299524,1878.2300713192353,None,001,20,2019_Oct_11_1201,ACPT_experiment_5_30_19,3.1.0,59.970004597768074,
,,,C,U,y,n,L,G,y,R,y,,,,,6,7,127,17,5,0,5,0,,,,,0,30,30,35,,,,,,down,0.8339937413420557,1880.2816326481334,None,001,20,2019_Oct_11_1201,ACPT_experiment_5_30_19,3.1.0,59.970004597768074,
,,,C,U,y,n,L,G,y,L,y,,,,,6,7,127,17,5,0,5,0,,,,,0,31,31,34,,,,,,down,0.5504074888967807,1882.4166094400261,None,001,20,2019_Oct_11_1201,ACPT_experiment_5_30_19,3.1.0,59.970004597768074,
,,,C,U,y,n,L,U,y,L,u,,,,,6,7,127,17,5,0,5,0,,,,,0,32,32,24,,,,,,down,0.5170908682584923,1884.2680150722144,None,001,20,2019_Oct_11_1201,ACPT_experiment_5_30_19,3.1.0,59.970004597768074,
,,,C,U,y,n,L,U,g,R,u,,,,,6,7,127,17,5,0,5,0,,,,,0,33,33,23,,,,,,up,0.4468773271119062,1886.1061858803796,None,001,20,2019_Oct_11_1201,ACPT_experiment_5_30_19,3.1.0,59.970004597768074,
,,,C,U,y,n,L,U,d,R,u,,,,,6,7,127,17,5,0,5,0,,,,,0,34,34,21,,,,,,up,0.5170561549548438,1887.8207115261148,None,001,20,2019_Oct_11_1201,ACPT_experiment_5_30_19,3.1.0,59.970004597768074,
,,,C,U,y,n,L,D,g,L,i,,,,,6,7,127,17,5,0,5,0,,,,,0,35,35,14,,,,,,up,0.5670991541719559,1889.6220732535212,None,001,20,2019_Oct_11_1201,ACPT_experiment_5_30_19,3.1.0,59.970004597768074,
,,,C,U,y,n,L,G,d,L,i,,,,,6,7,127,17,5,0,5,0,,,,,1,0,36,16,,,,,,up,0.4836936523861368,1891.4734825079668,None,001,20,2019_Oct_11_1201,ACPT_experiment_5_30_19,3.1.0,59.970004597768074,
,,,C,U,y,n,R,G,g,R,c ,,,,,6,7,127,17,5,0,5,0,,,,,1,1,37,7,,,,,,up,0.7672515304793706,1893.25818094445,None,001,20,2019_Oct_11_1201,ACPT_experiment_5_30_19,3.1.0,59.970004597768074,
,,,C,U,y,n,L,D,y,L,y,,,,,6,7,127,17,5,0,5,0,,,,,1,2,38,32,,,,,,down,0.6171204198435589,1895.3097305010097,None,001,20,2019_Oct_11_1201,ACPT_experiment_5_30_19,3.1.0,59.970004597768074,
,,,C,U,y,n,R,D,y,L,y,,,,,6,7,127,17,5,0,5,0,,,,,1,3,39,26,,,,,,down,0.5835798229381908,1897.2280072360636,None,001,20,2019_Oct_11_1201,ACPT_experiment_5_30_19,3.1.0,59.970004597768074,
,,,C,U,y,n,L,U,g,R,u,,,,,6,7,127,17,5,0,5,0,,,,,1,4,40,23,,,,,,up,0.5670888911090515,1899.1292925640182,None,001,20,2019_Oct_11_1201,ACPT_experiment_5_30_19,3.1.0,59.970004597768074,
,,,C,U,y,n,R,U,d,L,u,,,,,6,7,127,17,5,0,5,0,,,,,1,5,41,8,,,,,,up,0.5170510234229369,1900.9807066481417,None,001,20,2019_Oct_11_1201,ACPT_experiment_5_30_19,3.1.0,59.970004597768074,
,,,C,U,y,n,L,D,d,L,c ,,,,,6,7,127,17,5,0,5,0,,,,,1,6,42,12,,,,,,up,0.4670279466236025,1902.7820511698237,None,001,20,2019_Oct_11_1201,ACPT_experiment_5_30_19,3.1.0,59.970004597768074,
,,,C,U,y,n,R,D,g,L,i,,,,,6,7,127,17,5,0,5,0,,,,,1,7,43,2,,,,,,up,0.4003168268063746,1904.533374425835,None,001,20,2019_Oct_11_1201,ACPT_experiment_5_30_19,3.1.0,59.970004597768074,
,,,C,U,y,n,R,G,d,R,i,,,,,6,7,127,17,5,0,5,0,,,,,1,8,44,5,,,,,,up,0.6471525583247058,1906.2380194581647,None,001,20,2019_Oct_11_1201,ACPT_experiment_5_30_19,3.1.0,59.970004597768074,
,,,C,U,y,n,R,U,y,R,u,,,,,6,7,127,17,5,0,5,0,,,,,1,9,45,31,,,,,,down,0.5504310335718401,1908.169467325878,None,001,20,2019_Oct_11_1201,ACPT_experiment_5_30_19,3.1.0,59.970004597768074,
,,,C,U,y,n,L,G,y,R,y,,,,,6,7,127,17,5,0,5,0,,,,,1,10,46,35,,,,,,down,0.5670994560277904,1910.0042135912545,None,001,20,2019_Oct_11_1201,ACPT_experiment_5_30_19,3.1.0,59.970004597768074,
,,,C,U,y,n,R,G,d,L,i,,,,,6,7,127,17,5,0,5,0,,,,,1,11,47,4,,,,,,up,0.6838728937709675,1911.8556002065898,None,001,20,2019_Oct_11_1201,ACPT_experiment_5_30_19,3.1.0,59.970004597768074,
,,,C,U,y,n,L,U,g,L,u,,,,,6,7,127,17,5,0,5,0,,,,,1,12,48,22,,,,,,up,0.6338555522115712,1913.8237819932137,None,001,20,2019_Oct_11_1201,ACPT_experiment_5_30_19,3.1.0,59.970004597768074,
,,,C,U,y,n,L,U,d,L,u,,,,,6,7,127,17,5,0,5,0,,,,,1,13,49,20,,,,,,up,0.6171493979045408,1915.725207683654,None,001,20,2019_Oct_11_1201,ACPT_experiment_5_30_19,3.1.0,59.970004597768074,
,,,C,U,y,n,R,U,g,L,u,,,,,6,7,127,17,5,0,5,0,,,,,1,14,50,10,,,,,,up,0.6504817149934752,1917.6266744263476,None,001,20,2019_Oct_11_1201,ACPT_experiment_5_30_19,3.1.0,59.970004597768074,
,,,C,U,y,n,R,G,y,L,y,,,,,6,7,127,17,5,0,5,0,,,,,1,15,51,28,,,,,,up,0.5332980565681282,1919.578562392333,None,001,20,2019_Oct_11_1201,ACPT_experiment_5_30_19,3.1.0,59.970004597768074,
,,,C,U,y,n,R,D,d,R,c ,,,,,6,7,127,17,5,0,5,0,,,,,1,16,52,1,,,,,,up,0.583854812667596,1921.396202243929,None,001,20,2019_Oct_11_1201,ACPT_experiment_5_30_19,3.1.0,59.970004597768074,
,,,C,U,y,n,R,U,y,L,u,,,,,6,7,127,17,5,0,5,0,,,,,1,17,53,30,,,,,,down,0.6004447528730452,1923.2809643415903,None,001,20,2019_Oct_11_1201,ACPT_experiment_5_30_19,3.1.0,59.970004597768074,
,,,C,U,y,n,L,U,y,R,u,,,,,6,7,127,17,5,0,5,0,,,,,1,18,54,25,,,,,,down,0.6338238574571733,1925.1657267411065,None,001,20,2019_Oct_11_1201,ACPT_experiment_5_30_19,3.1.0,59.970004597768074,
,,,C,U,y,n,R,U,g,R,u,,,,,6,7,127,17,5,0,5,0,,,,,1,19,55,11,,,,,,up,0.7005364865490264,1927.1005273101628,None,001,20,2019_Oct_11_1201,ACPT_experiment_5_30_19,3.1.0,59.970004597768074,
