facing_vig,person_vig,text_vig,facing_train,person_train,food_train,correct_key_train,facing_exp,person_exp,food_exp,showL_R,consistent,vig_random.thisRepN,vig_random.thisTrialN,vig_random.thisN,vig_random.thisIndex,trainTrials.thisRepN,trainTrials.thisTrialN,trainTrials.thisN,trainTrials.thisIndex,expBlock.thisRepN,expBlock.thisTrialN,expBlock.thisN,expBlock.thisIndex,breakLoop.thisRepN,breakLoop.thisTrialN,breakLoop.thisN,breakLoop.thisIndex,expTrials.thisRepN,expTrials.thisTrialN,expTrials.thisN,expTrials.thisIndex,train_resp.keys,train_resp.corr,train_resp.rt,train_resp.started,train_resp.stopped,exp_resp.keys,exp_resp.rt,exp_resp.started,exp_resp.stopped,session,participant,date,expName,psychopyVersion,frameRate,
C,U,"did not report her food preferences, so her food preferences are unknown.",,,,,,,,,,0,0,0,2,,,,,,,,,,,,,,,,,,,,,,,,,,001,22,2019_Oct_11_1456,ACPT_experiment_5_30_19,3.1.0,59.953725152692755,
C,D,"is allergic to gluten, meaning she can’t eat wheat products. She enjoys eating dairy products. She thinks eating insects, like crickets, is disgusting.",,,,,,,,,,0,1,1,1,,,,,,,,,,,,,,,,,,,,,,,,,,001,22,2019_Oct_11_1456,ACPT_experiment_5_30_19,3.1.0,59.953725152692755,
C,G,"cannot eat dairy products because she is lactose intolerant. She enjoys eating wheat products. She thinks eating insects, like crickets, is disgusting.",,,,,,,,,,0,2,2,0,,,,,,,,,,,,,,,,,,,,,,,,,,001,22,2019_Oct_11_1456,ACPT_experiment_5_30_19,3.1.0,59.953725152692755,
,,,C,G,d,b,,,,,,,,,,0,0,0,3,,,,,,,,,,,,,b,1,3.869604156661808,1721.2895502997271,None,,,,,001,22,2019_Oct_11_1456,ACPT_experiment_5_30_19,3.1.0,59.953725152692755,
,,,C,D,g,b,,,,,,,,,,0,1,1,10,,,,,,,,,,,,,v,0,1.9181837637734134,1728.4449693028746,None,,,,,001,22,2019_Oct_11_1456,ACPT_experiment_5_30_19,3.1.0,59.953725152692755,
,,,C,U,g,n,,,,,,,,,,0,2,2,7,,,,,,,,,,,,,n,1,3.9363518009122345,1733.6489202200755,None,,,,,001,22,2019_Oct_11_1456,ACPT_experiment_5_30_19,3.1.0,59.953725152692755,
,,,C,G,y,b,,,,,,,,,,0,3,3,14,,,,,,,,,,,,,b,1,2.0515824587346287,1740.8710760007016,None,,,,,001,22,2019_Oct_11_1456,ACPT_experiment_5_30_19,3.1.0,59.953725152692755,
,,,C,U,d,n,,,,,,,,,,0,4,4,15,,,,,,,,,,,,,b,0,2.635387163503765,1746.2084681743909,None,,,,,001,22,2019_Oct_11_1456,ACPT_experiment_5_30_19,3.1.0,59.953725152692755,
,,,C,U,y,n,,,,,,,,,,0,5,5,8,,,,,,,,,,,,,v,0,4.153178636768644,1752.1129543707211,None,,,,,001,22,2019_Oct_11_1456,ACPT_experiment_5_30_19,3.1.0,59.953725152692755,
,,,C,G,g,v,,,,,,,,,,0,6,6,13,,,,,,,,,,,,,v,1,3.4025994528565207,1759.5519505706707,None,,,,,001,22,2019_Oct_11_1456,ACPT_experiment_5_30_19,3.1.0,59.953725152692755,
,,,C,D,d,v,,,,,,,,,,0,7,7,9,,,,,,,,,,,,,b,0,2.28508375414458,1766.2403733219508,None,,,,,001,22,2019_Oct_11_1456,ACPT_experiment_5_30_19,3.1.0,59.953725152692755,
,,,C,D,d,v,,,,,,,,,,0,8,8,0,,,,,,,,,,,,,b,0,4.103146504325196,1771.7945856906936,None,,,,,001,22,2019_Oct_11_1456,ACPT_experiment_5_30_19,3.1.0,59.953725152692755,
,,,C,D,y,b,,,,,,,,,,0,9,9,11,,,,,,,,,,,,,v,0,4.603518540374353,1779.1668599040513,None,,,,,001,22,2019_Oct_11_1456,ACPT_experiment_5_30_19,3.1.0,59.953725152692755,
,,,C,D,y,b,,,,,,,,,,0,10,10,2,,,,,,,,,,,,,b,1,1.4845044343983318,1787.0394895514455,None,,,,,001,22,2019_Oct_11_1456,ACPT_experiment_5_30_19,3.1.0,59.953725152692755,
,,,C,G,g,v,,,,,,,,,,0,11,11,4,,,,,,,,,,,,,b,0,2.418383440728576,1791.809819699105,None,,,,,001,22,2019_Oct_11_1456,ACPT_experiment_5_30_19,3.1.0,59.953725152692755,
,,,C,G,d,b,,,,,,,,,,0,12,12,12,,,,,,,,,,,,,b,1,2.752132830604751,1797.4974482703874,None,,,,,001,22,2019_Oct_11_1456,ACPT_experiment_5_30_19,3.1.0,59.953725152692755,
,,,C,G,y,b,,,,,,,,,,0,13,13,5,,,,,,,,,,,,,b,1,4.33666742029709,1803.5186916043003,None,,,,,001,22,2019_Oct_11_1456,ACPT_experiment_5_30_19,3.1.0,59.953725152692755,
,,,C,D,d,v,,,,,,,,,,0,14,14,18,,,,,,,,,,,,,v,1,2.868866121658357,1811.1411750785046,None,,,,,001,22,2019_Oct_11_1456,ACPT_experiment_5_30_19,3.1.0,59.953725152692755,
,,,C,D,g,b,,,,,,,,,,0,15,15,1,,,,,,,,,,,,,b,1,2.0348904916027095,1817.2791782666955,None,,,,,001,22,2019_Oct_11_1456,ACPT_experiment_5_30_19,3.1.0,59.953725152692755,
,,,C,U,g,n,,,,,,,,,,0,16,16,16,,,,,,,,,,,,,n,1,1.0174469060038973,1822.5999095643,None,,,,,001,22,2019_Oct_11_1456,ACPT_experiment_5_30_19,3.1.0,59.953725152692755,
,,,C,U,d,n,,,,,,,,,,0,17,17,6,,,,,,,,,,,,,n,1,1.3677177150439093,1826.8864926312708,None,,,,,001,22,2019_Oct_11_1456,ACPT_experiment_5_30_19,3.1.0,59.953725152692755,
,,,C,U,y,n,,,,,,,,,,0,18,18,17,,,,,,,,,,,,,n,1,0.5504497485708271,1831.5233187366412,None,,,,,001,22,2019_Oct_11_1456,ACPT_experiment_5_30_19,3.1.0,59.953725152692755,
,,,C,G,g,v,,,,,,,,,,0,19,19,19,,,,,,,,,,,,,b,0,3.669231728201339,1835.376508330739,None,,,,,001,22,2019_Oct_11_1456,ACPT_experiment_5_30_19,3.1.0,59.953725152692755,
,,,C,U,g,n,,,,,,,,,,1,0,20,16,,,,,,,,,,,,,n,1,1.1675970334908925,1842.3315328700264,None,,,,,001,22,2019_Oct_11_1456,ACPT_experiment_5_30_19,3.1.0,59.953725152692755,
,,,C,D,y,b,,,,,,,,,,1,1,21,11,,,,,,,,,,,,,v,0,2.735188814709545,1846.801870050902,None,,,,,001,22,2019_Oct_11_1456,ACPT_experiment_5_30_19,3.1.0,59.953725152692755,
,,,C,D,d,v,,,,,,,,,,1,2,22,0,,,,,,,,,,,,,b,0,3.41930560716537,1852.80618627279,None,,,,,001,22,2019_Oct_11_1456,ACPT_experiment_5_30_19,3.1.0,59.953725152692755,
,,,C,G,g,v,,,,,,,,,,1,3,23,13,,,,,,,,,,,,,b,0,2.335127960781392,1859.5112901244265,None,,,,,001,22,2019_Oct_11_1456,ACPT_experiment_5_30_19,3.1.0,59.953725152692755,
,,,C,D,g,b,,,,,,,,,,1,4,24,10,,,,,,,,,,,,,b,1,5.2706867891138245,1865.1322271964546,None,,,,,001,22,2019_Oct_11_1456,ACPT_experiment_5_30_19,3.1.0,59.953725152692755,
,,,C,G,d,b,,,,,,,,,,1,5,25,3,,,,,,,,,,,,,b,1,4.903750576166203,1873.6887285302,None,,,,,001,22,2019_Oct_11_1456,ACPT_experiment_5_30_19,3.1.0,59.953725152692755,
,,,C,U,d,n,,,,,,,,,,1,6,26,6,,,,,,,,,,,,,n,1,0.7673170329726418,1881.8782918398683,None,,,,,001,22,2019_Oct_11_1456,ACPT_experiment_5_30_19,3.1.0,59.953725152692755,
,,,C,D,g,b,,,,,,,,,,1,7,27,1,,,,,,,,,,,,,b,1,3.8859133718979137,1885.948419654249,None,,,,,001,22,2019_Oct_11_1456,ACPT_experiment_5_30_19,3.1.0,59.953725152692755,
,,,C,U,g,n,,,,,,,,,,1,8,28,7,,,,,,,,,,,,,n,1,0.8506835954885901,1893.1201738321452,None,,,,,001,22,2019_Oct_11_1456,ACPT_experiment_5_30_19,3.1.0,59.953725152692755,
,,,C,G,g,v,,,,,,,,,,1,9,29,19,,,,,,,,,,,,,v,1,4.186257093964741,1897.2736011972756,None,,,,,001,22,2019_Oct_11_1456,ACPT_experiment_5_30_19,3.1.0,59.953725152692755,
,,,C,G,y,b,,,,,,,,,,1,10,30,14,,,,,,,,,,,,,v,0,2.2682930804912758,1904.7289974707583,None,,,,,001,22,2019_Oct_11_1456,ACPT_experiment_5_30_19,3.1.0,59.953725152692755,
,,,C,G,g,v,,,,,,,,,,1,11,31,4,,,,,,,,,,,,,v,1,2.235046792022331,1910.2665393040606,None,,,,,001,22,2019_Oct_11_1456,ACPT_experiment_5_30_19,3.1.0,59.953725152692755,
,,,C,U,d,n,,,,,,,,,,1,12,32,15,,,,,,,,,,,,,n,1,0.567097041190209,1915.7874151297474,None,,,,,001,22,2019_Oct_11_1456,ACPT_experiment_5_30_19,3.1.0,59.953725152692755,
,,,C,D,d,v,,,,,,,,,,1,13,33,18,,,,,,,,,,,,,v,1,4.836745751619674,1919.6572882390428,None,,,,,001,22,2019_Oct_11_1456,ACPT_experiment_5_30_19,3.1.0,59.953725152692755,
,,,C,D,d,v,,,,,,,,,,1,14,34,9,,,,,,,,,,,,,b,0,3.152420679349234,1927.7631641145344,None,,,,,001,22,2019_Oct_11_1456,ACPT_experiment_5_30_19,3.1.0,59.953725152692755,
,,,C,U,y,n,,,,,,,,,,1,15,35,17,,,,,,,,,,,,,n,1,1.0675125443303841,1934.20137700126,None,,,,,001,22,2019_Oct_11_1456,ACPT_experiment_5_30_19,3.1.0,59.953725152692755,
,,,C,G,d,b,,,,,,,,,,1,16,36,12,,,,,,,,,,,,,b,1,5.186855370193371,1938.571816239244,None,,,,,001,22,2019_Oct_11_1456,ACPT_experiment_5_30_19,3.1.0,59.953725152692755,
,,,C,U,y,n,,,,,,,,,,1,17,37,8,,,,,,,,,,,,,n,1,0.6004613548866473,1947.0444973226986,None,,,,,001,22,2019_Oct_11_1456,ACPT_experiment_5_30_19,3.1.0,59.953725152692755,
,,,C,D,y,b,,,,,,,,,,1,18,38,2,,,,,,,,,,,,,b,1,2.084691705120349,1950.9477051639205,None,,,,,001,22,2019_Oct_11_1456,ACPT_experiment_5_30_19,3.1.0,59.953725152692755,
,,,C,G,y,b,,,,,,,,,,1,19,39,5,,,,,,,,,,,,,v,0,1.6179058460511442,1956.3182074895612,None,,,,,001,22,2019_Oct_11_1456,ACPT_experiment_5_30_19,3.1.0,59.953725152692755,
,,,C,D,g,b,,,,,,,,,,2,0,40,1,,,,,,,,,,,,,b,1,3.169080951724027,1961.2219396525834,None,,,,,001,22,2019_Oct_11_1456,ACPT_experiment_5_30_19,3.1.0,59.953725152692755,
,,,C,U,d,n,,,,,,,,,,2,1,41,6,,,,,,,,,,,,,n,1,0.8006119200636022,1967.6768463175667,None,,,,,001,22,2019_Oct_11_1456,ACPT_experiment_5_30_19,3.1.0,59.953725152692755,
,,,C,U,g,n,,,,,,,,,,2,2,42,16,,,,,,,,,,,,,n,1,0.8170168232736614,1971.763562261025,None,,,,,001,22,2019_Oct_11_1456,ACPT_experiment_5_30_19,3.1.0,59.953725152692755,
,,,C,D,y,b,,,,,,,,,,2,3,43,2,,,,,,,,,,,,,b,1,2.585367708961712,1975.8663984586074,None,,,,,001,22,2019_Oct_11_1456,ACPT_experiment_5_30_19,3.1.0,59.953725152692755,
,,,C,G,y,b,,,,,,,,,,2,4,44,14,,,,,,,,,,,,,v,0,1.434446342440424,1981.7375209449492,None,,,,,001,22,2019_Oct_11_1456,ACPT_experiment_5_30_19,3.1.0,59.953725152692755,
,,,C,D,d,v,,,,,,,,,,2,5,45,0,,,,,,,,,,,,,b,0,2.8521859268639673,1986.4577881709738,None,,,,,001,22,2019_Oct_11_1456,ACPT_experiment_5_30_19,3.1.0,59.953725152692755,
,,,C,G,d,b,,,,,,,,,,2,6,46,3,,,,,,,,,,,,,b,1,2.0849356038033875,1992.5957723423107,None,,,,,001,22,2019_Oct_11_1456,ACPT_experiment_5_30_19,3.1.0,59.953725152692755,
,,,C,U,d,n,,,,,,,,,,2,7,47,15,,,,,,,,,,,,,n,1,1.11751690613346,1997.9665243018771,None,,,,,001,22,2019_Oct_11_1456,ACPT_experiment_5_30_19,3.1.0,59.953725152692755,
,,,C,D,d,v,,,,,,,,,,2,8,48,18,,,,,,,,,,,,,v,1,1.4842318595055985,2002.3868003722473,None,,,,,001,22,2019_Oct_11_1456,ACPT_experiment_5_30_19,3.1.0,59.953725152692755,
,,,C,G,g,v,,,,,,,,,,2,9,49,19,,,,,,,,,,,,,n,0,1.084221717184846,2007.1568235335671,None,,,,,001,22,2019_Oct_11_1456,ACPT_experiment_5_30_19,3.1.0,59.953725152692755,
,,,C,D,y,b,,,,,,,,,,2,10,50,11,,,,,,,,,,,,,b,1,1.9345690464197105,2011.5437606460418,None,,,,,001,22,2019_Oct_11_1456,ACPT_experiment_5_30_19,3.1.0,59.953725152692755,
,,,C,G,y,b,,,,,,,,,,2,11,51,5,,,,,,,,,,,,,b,1,0.8339698948129808,2016.7641569149946,None,,,,,001,22,2019_Oct_11_1456,ACPT_experiment_5_30_19,3.1.0,59.953725152692755,
,,,C,G,g,v,,,,,,,,,,2,12,52,4,,,,,,,,,,,,,v,1,5.434160485938264,2020.9039419521123,None,,,,,001,22,2019_Oct_11_1456,ACPT_experiment_5_30_19,3.1.0,59.953725152692755,
,,,C,D,d,v,,,,,,,,,,2,13,53,9,,,,,,,,,,,,,v,1,1.1508972181363788,2029.6239100400235,None,,,,,001,22,2019_Oct_11_1456,ACPT_experiment_5_30_19,3.1.0,59.953725152692755,
,,,C,U,y,n,,,,,,,,,,2,14,54,8,,,,,,,,,,,,,n,1,1.0505609820665995,2034.07755042409,None,,,,,001,22,2019_Oct_11_1456,ACPT_experiment_5_30_19,3.1.0,59.953725152692755,
,,,C,G,g,v,,,,,,,,,,2,15,55,13,,,,,,,,,,,,,v,1,2.5352930149892927,2038.4139337990146,None,,,,,001,22,2019_Oct_11_1456,ACPT_experiment_5_30_19,3.1.0,59.953725152692755,
,,,C,U,y,n,,,,,,,,,,2,16,56,17,,,,,,,,,,,,,n,1,1.3009987470013584,2044.2350211343637,None,,,,,001,22,2019_Oct_11_1456,ACPT_experiment_5_30_19,3.1.0,59.953725152692755,
,,,C,G,d,b,,,,,,,,,,2,17,57,12,,,,,,,,,,,,,b,1,2.0015116888753255,2048.838534241353,None,,,,,001,22,2019_Oct_11_1456,ACPT_experiment_5_30_19,3.1.0,59.953725152692755,
,,,C,D,g,b,,,,,,,,,,2,18,58,10,,,,,,,,,,,,,b,1,1.651254161446559,2054.1258822084055,None,,,,,001,22,2019_Oct_11_1456,ACPT_experiment_5_30_19,3.1.0,59.953725152692755,
,,,C,U,g,n,,,,,,,,,,2,19,59,7,,,,,,,,,,,,,n,1,1.2343072477451642,2059.0629629886753,None,,,,,001,22,2019_Oct_11_1456,ACPT_experiment_5_30_19,3.1.0,59.953725152692755,
,,,C,D,d,v,,,,,,,,,,3,0,60,18,,,,,,,,,,,,,v,1,0.9170985957407538,2063.600015817192,None,,,,,001,22,2019_Oct_11_1456,ACPT_experiment_5_30_19,3.1.0,59.953725152692755,
,,,C,D,g,b,,,,,,,,,,3,1,61,10,,,,,,,,,,,,,b,1,2.7687876695927116,2067.7862502720454,None,,,,,001,22,2019_Oct_11_1456,ACPT_experiment_5_30_19,3.1.0,59.953725152692755,
,,,C,G,d,b,,,,,,,,,,3,2,62,3,,,,,,,,,,,,,b,1,2.95229607368492,2073.8408491658683,None,,,,,001,22,2019_Oct_11_1456,ACPT_experiment_5_30_19,3.1.0,59.953725152692755,
,,,C,G,d,b,,,,,,,,,,3,3,63,12,,,,,,,,,,,,,b,1,0.9507484640871553,2080.0789280894314,None,,,,,001,22,2019_Oct_11_1456,ACPT_experiment_5_30_19,3.1.0,59.953725152692755,
,,,C,U,y,n,,,,,,,,,,3,4,64,8,,,,,,,,,,,,,n,1,0.700147093846681,2084.3325271797603,None,,,,,001,22,2019_Oct_11_1456,ACPT_experiment_5_30_19,3.1.0,59.953725152692755,
,,,C,D,d,v,,,,,,,,,,3,5,65,0,,,,,,,,,,,,,v,1,1.034139174988013,2088.3185153814647,None,,,,,001,22,2019_Oct_11_1456,ACPT_experiment_5_30_19,3.1.0,59.953725152692755,
,,,C,G,g,v,,,,,,,,,,3,6,66,19,,,,,,,,,,,,,v,1,1.6009500578202278,2092.6554230781876,None,,,,,001,22,2019_Oct_11_1456,ACPT_experiment_5_30_19,3.1.0,59.953725152692755,
,,,C,G,g,v,,,,,,,,,,3,7,67,4,,,,,,,,,,,,,v,1,1.8847675310480554,2097.5255180507666,None,,,,,001,22,2019_Oct_11_1456,ACPT_experiment_5_30_19,3.1.0,59.953725152692755,
,,,C,D,g,b,,,,,,,,,,3,8,68,1,,,,,,,,,,,,,b,1,0.7839453087381116,2102.696101333866,None,,,,,001,22,2019_Oct_11_1456,ACPT_experiment_5_30_19,3.1.0,59.953725152692755,
,,,C,D,y,b,,,,,,,,,,3,9,69,2,,,,,,,,,,,,,b,1,1.9314967681930284,2106.7858762739397,None,,,,,001,22,2019_Oct_11_1456,ACPT_experiment_5_30_19,3.1.0,59.953725152692755,
,,,C,G,y,b,,,,,,,,,,3,10,70,14,,,,,,,,,,,,,b,1,1.6512927988605952,2112.003185171925,None,,,,,001,22,2019_Oct_11_1456,ACPT_experiment_5_30_19,3.1.0,59.953725152692755,
,,,C,G,y,b,,,,,,,,,,3,11,71,5,,,,,,,,,,,,,b,1,0.9674365071059583,2116.923561609019,None,,,,,001,22,2019_Oct_11_1456,ACPT_experiment_5_30_19,3.1.0,59.953725152692755,
,,,C,U,y,n,,,,,,,,,,3,12,72,17,,,,,,,,,,,,,n,1,0.9004334936889791,2121.193752148829,None,,,,,001,22,2019_Oct_11_1456,ACPT_experiment_5_30_19,3.1.0,59.953725152692755,
,,,C,D,d,v,,,,,,,,,,3,13,73,9,,,,,,,,,,,,,v,1,0.9841170037525444,2125.3799817740055,None,,,,,001,22,2019_Oct_11_1456,ACPT_experiment_5_30_19,3.1.0,59.953725152692755,
,,,C,U,d,n,,,,,,,,,,3,14,74,6,,,,,,,,,,,,,n,1,1.1509186498278723,2129.6499127186817,None,,,,,001,22,2019_Oct_11_1456,ACPT_experiment_5_30_19,3.1.0,59.953725152692755,
,,,C,U,g,n,,,,,,,,,,3,15,75,16,,,,,,,,,,,,,n,1,0.8006614242531214,2134.0699406644,None,,,,,001,22,2019_Oct_11_1456,ACPT_experiment_5_30_19,3.1.0,59.953725152692755,
,,,C,D,y,b,,,,,,,,,,3,16,76,11,,,,,,,,,,,,,b,1,0.9838468437010306,2138.173306919025,None,,,,,001,22,2019_Oct_11_1456,ACPT_experiment_5_30_19,3.1.0,59.953725152692755,
,,,C,U,d,n,,,,,,,,,,3,17,77,15,,,,,,,,,,,,,n,1,0.9674120568652143,2142.442971024051,None,,,,,001,22,2019_Oct_11_1456,ACPT_experiment_5_30_19,3.1.0,59.953725152692755,
,,,C,U,g,n,,,,,,,,,,3,18,78,7,,,,,,,,,,,,,n,1,0.7005376939687267,2146.696215434982,None,,,,,001,22,2019_Oct_11_1456,ACPT_experiment_5_30_19,3.1.0,59.953725152692755,
,,,C,G,g,v,,,,,,,,,,3,19,79,13,,,,,,,,,,,,,v,1,1.6846106269185839,2150.6825803514857,None,,,,,001,22,2019_Oct_11_1456,ACPT_experiment_5_30_19,3.1.0,59.953725152692755,
,,,C,D,y,b,,,,,,,,,,4,0,80,2,,,,,,,,,,,,,n,0,2.018229917372082,2155.652995561828,None,,,,,001,22,2019_Oct_11_1456,ACPT_experiment_5_30_19,3.1.0,59.953725152692755,
,,,C,G,g,v,,,,,,,,,,4,1,81,19,,,,,,,,,,,,,v,1,1.4344433238911733,2160.957027949642,None,,,,,001,22,2019_Oct_11_1456,ACPT_experiment_5_30_19,3.1.0,59.953725152692755,
,,,C,G,g,v,,,,,,,,,,4,2,82,4,,,,,,,,,,,,,v,1,3.302326002589325,2165.677552355961,None,,,,,001,22,2019_Oct_11_1456,ACPT_experiment_5_30_19,3.1.0,59.953725152692755,
,,,C,D,g,b,,,,,,,,,,4,3,83,10,,,,,,,,,,,,,b,1,0.8339864968274924,2172.2656225710125,None,,,,,001,22,2019_Oct_11_1456,ACPT_experiment_5_30_19,3.1.0,59.953725152692755,
,,,C,G,y,b,,,,,,,,,,4,4,84,5,,,,,,,,,,,,,b,1,1.3341221805640089,2176.402338046595,None,,,,,001,22,2019_Oct_11_1456,ACPT_experiment_5_30_19,3.1.0,59.953725152692755,
,,,C,D,g,b,,,,,,,,,,4,5,85,1,,,,,,,,,,,,,b,1,2.1683323518027464,2181.0222771866283,None,,,,,001,22,2019_Oct_11_1456,ACPT_experiment_5_30_19,3.1.0,59.953725152692755,
,,,C,U,y,n,,,,,,,,,,4,6,86,8,,,,,,,,,,,,,n,1,0.7839730793803028,2186.476414423709,None,,,,,001,22,2019_Oct_11_1456,ACPT_experiment_5_30_19,3.1.0,59.953725152692755,
,,,C,U,y,n,,,,,,,,,,4,7,87,17,,,,,,,,,,,,,n,1,1.3007642058146303,2190.5797737356734,None,,,,,001,22,2019_Oct_11_1456,ACPT_experiment_5_30_19,3.1.0,59.953725152692755,
,,,C,U,g,n,,,,,,,,,,4,8,88,16,,,,,,,,,,,,,n,1,0.7172254351316951,2195.1496731968928,None,,,,,001,22,2019_Oct_11_1456,ACPT_experiment_5_30_19,3.1.0,59.953725152692755,
,,,C,D,d,v,,,,,,,,,,4,9,89,18,,,,,,,,,,,,,v,1,1.183809957043195,2199.1698054032604,None,,,,,001,22,2019_Oct_11_1456,ACPT_experiment_5_30_19,3.1.0,59.953725152692755,
,,,C,G,d,b,,,,,,,,,,4,10,90,12,,,,,,,,,,,,,b,1,1.3843942875791981,2203.6394564681596,None,,,,,001,22,2019_Oct_11_1456,ACPT_experiment_5_30_19,3.1.0,59.953725152692755,
,,,C,U,d,n,,,,,,,,,,4,11,91,15,,,,,,,,,,,,,n,1,0.8673526216553,2208.30965715029,None,,,,,001,22,2019_Oct_11_1456,ACPT_experiment_5_30_19,3.1.0,59.953725152692755,
,,,C,D,y,b,,,,,,,,,,4,12,92,11,,,,,,,,,,,,,b,1,1.1008189019066776,2212.462852389075,None,,,,,001,22,2019_Oct_11_1456,ACPT_experiment_5_30_19,3.1.0,59.953725152692755,
,,,C,D,d,v,,,,,,,,,,4,13,93,0,,,,,,,,,,,,,v,1,1.00034954786679,2216.8665979846355,None,,,,,001,22,2019_Oct_11_1456,ACPT_experiment_5_30_19,3.1.0,59.953725152692755,
,,,C,U,g,n,,,,,,,,,,4,14,94,7,,,,,,,,,,,,,n,1,1.1675617164801224,2221.152761473426,None,,,,,001,22,2019_Oct_11_1456,ACPT_experiment_5_30_19,3.1.0,59.953725152692755,
,,,C,G,g,v,,,,,,,,,,4,15,95,13,,,,,,,,,,,,,v,1,1.1004325277535827,2225.6232133591275,None,,,,,001,22,2019_Oct_11_1456,ACPT_experiment_5_30_19,3.1.0,59.953725152692755,
,,,C,D,d,v,,,,,,,,,,4,16,96,9,,,,,,,,,,,,,v,1,0.9007084834174748,2230.009497861509,None,,,,,001,22,2019_Oct_11_1456,ACPT_experiment_5_30_19,3.1.0,59.953725152692755,
,,,C,G,d,b,,,,,,,,,,4,17,97,3,,,,,,,,,,,,,b,1,0.8840153088676743,2234.1960088153683,None,,,,,001,22,2019_Oct_11_1456,ACPT_experiment_5_30_19,3.1.0,59.953725152692755,
,,,C,G,y,b,,,,,,,,,,4,18,98,14,,,,,,,,,,,,,b,1,1.301020782400883,2238.3491602852046,None,,,,,001,22,2019_Oct_11_1456,ACPT_experiment_5_30_19,3.1.0,59.953725152692755,
,,,C,U,d,n,,,,,,,,,,4,19,99,6,,,,,,,,,,,,,n,1,0.9507131470745662,2242.935995914093,None,,,,,001,22,2019_Oct_11_1456,ACPT_experiment_5_30_19,3.1.0,59.953725152692755,
,,,C,D,g,b,,,,,,,,,,5,0,100,10,,,,,,,,,,,,,b,1,1.234292456858384,2247.172524511365,None,,,,,001,22,2019_Oct_11_1456,ACPT_experiment_5_30_19,3.1.0,59.953725152692755,
,,,C,G,g,v,,,,,,,,,,5,1,101,13,,,,,,,,,,,,,v,1,1.267384195667546,2251.709562247139,None,,,,,001,22,2019_Oct_11_1456,ACPT_experiment_5_30_19,3.1.0,59.953725152692755,
,,,C,G,g,v,,,,,,,,,,5,2,102,19,,,,,,,,,,,,,v,1,1.3343639662634814,2256.2460765666783,None,,,,,001,22,2019_Oct_11_1456,ACPT_experiment_5_30_19,3.1.0,59.953725152692755,
,,,C,D,g,b,,,,,,,,,,5,3,103,1,,,,,,,,,,,,,b,1,0.7836775635241793,2260.88322173258,None,,,,,001,22,2019_Oct_11_1456,ACPT_experiment_5_30_19,3.1.0,59.953725152692755,
,,,C,D,d,v,,,,,,,,,,5,4,104,9,,,,,,,,,,,,,v,1,1.3176798473577946,2264.936014327237,None,,,,,001,22,2019_Oct_11_1456,ACPT_experiment_5_30_19,3.1.0,59.953725152692755,
,,,C,D,y,b,,,,,,,,,,5,5,105,11,,,,,,,,,,,,,b,1,1.0841556109826342,2269.5395216989837,None,,,,,001,22,2019_Oct_11_1456,ACPT_experiment_5_30_19,3.1.0,59.953725152692755,
,,,C,U,g,n,,,,,,,,,,5,6,106,7,,,,,,,,,,,,,n,1,0.7839419883348455,2273.909500910242,None,,,,,001,22,2019_Oct_11_1456,ACPT_experiment_5_30_19,3.1.0,59.953725152692755,
,,,C,G,d,b,,,,,,,,,,5,7,107,12,,,,,,,,,,,,,b,1,1.4341710508560936,2277.9962059869267,None,,,,,001,22,2019_Oct_11_1456,ACPT_experiment_5_30_19,3.1.0,59.953725152692755,
,,,C,U,y,n,,,,,,,,,,5,8,108,8,,,,,,,,,,,,,n,1,0.7839386679333984,2282.71619309169,None,,,,,001,22,2019_Oct_11_1456,ACPT_experiment_5_30_19,3.1.0,59.953725152692755,
,,,C,U,g,n,,,,,,,,,,5,9,109,16,,,,,,,,,,,,,n,1,0.7806019648942311,2286.8059553538624,None,,,,,001,22,2019_Oct_11_1456,ACPT_experiment_5_30_19,3.1.0,59.953725152692755,
,,,C,D,d,v,,,,,,,,,,5,10,110,18,,,,,,,,,,,,,v,1,0.9507366917496256,2290.8723954080633,None,,,,,001,22,2019_Oct_11_1456,ACPT_experiment_5_30_19,3.1.0,59.953725152692755,
,,,C,D,d,v,,,,,,,,,,5,11,111,0,,,,,,,,,,,,,v,1,1.100589492252766,2295.125875567599,None,,,,,001,22,2019_Oct_11_1456,ACPT_experiment_5_30_19,3.1.0,59.953725152692755,
,,,C,U,d,n,,,,,,,,,,5,12,112,6,,,,,,,,,,,,,n,1,0.9674183958177309,2299.512275982228,None,,,,,001,22,2019_Oct_11_1456,ACPT_experiment_5_30_19,3.1.0,59.953725152692755,
,,,C,G,g,v,,,,,,,,,,5,13,113,4,,,,,,,,,,,,,v,1,4.336373715570517,2303.7824547497003,None,,,,,001,22,2019_Oct_11_1456,ACPT_experiment_5_30_19,3.1.0,59.953725152692755,
,,,C,D,y,b,,,,,,,,,,5,14,114,2,,,,,,,,,,,,,b,1,0.8006261072405323,2311.4046424061926,None,,,,,001,22,2019_Oct_11_1456,ACPT_experiment_5_30_19,3.1.0,59.953725152692755,
,,,C,G,d,b,,,,,,,,,,5,15,115,3,,,,,,,,,,,,,b,1,1.6176553065615735,2315.508012283075,None,,,,,001,22,2019_Oct_11_1456,ACPT_experiment_5_30_19,3.1.0,59.953725152692755,
,,,C,G,y,b,,,,,,,,,,5,16,116,5,,,,,,,,,,,,,b,1,1.000781502096288,2320.411471569352,None,,,,,001,22,2019_Oct_11_1456,ACPT_experiment_5_30_19,3.1.0,59.953725152692755,
,,,C,U,d,n,,,,,,,,,,5,17,117,15,,,,,,,,,,,,,n,1,0.7670670971929212,2324.7316610375765,None,,,,,001,22,2019_Oct_11_1456,ACPT_experiment_5_30_19,3.1.0,59.953725152692755,
,,,C,U,y,n,,,,,,,,,,5,18,118,17,,,,,,,,,,,,,n,1,0.6171382292777707,2328.7845103809377,None,,,,,001,22,2019_Oct_11_1456,ACPT_experiment_5_30_19,3.1.0,59.953725152692755,
,,,C,G,y,b,,,,,,,,,,5,19,119,14,,,,,,,,,,,,,b,1,1.100571682820373,2332.7210991378724,None,,,,,001,22,2019_Oct_11_1456,ACPT_experiment_5_30_19,3.1.0,59.953725152692755,
,,,C,D,y,b,,,,,,,,,,6,0,120,2,,,,,,,,,,,,,b,1,0.9674008882375347,2337.1075098155634,None,,,,,001,22,2019_Oct_11_1456,ACPT_experiment_5_30_19,3.1.0,59.953725152692755,
,,,C,D,y,b,,,,,,,,,,6,1,121,11,,,,,,,,,,,,,b,1,0.5004019196767331,2341.360728568836,None,,,,,001,22,2019_Oct_11_1456,ACPT_experiment_5_30_19,3.1.0,59.953725152692755,
,,,C,G,g,v,,,,,,,,,,6,2,122,13,,,,,,,,,,,,,v,1,1.5512016688935546,2345.1469236014527,None,,,,,001,22,2019_Oct_11_1456,ACPT_experiment_5_30_19,3.1.0,59.953725152692755,
,,,C,G,d,b,,,,,,,,,,6,3,123,3,,,,,,,,,,,,,b,1,1.0508091067204077,2349.967265657284,None,,,,,001,22,2019_Oct_11_1456,ACPT_experiment_5_30_19,3.1.0,59.953725152692755,
,,,C,U,d,n,,,,,,,,,,6,4,124,15,,,,,,,,,,,,,n,1,1.130878207321075,2354.323901074933,None,,,,,001,22,2019_Oct_11_1456,ACPT_experiment_5_30_19,3.1.0,59.953725152692755,
,,,C,D,g,b,,,,,,,,,,6,5,125,1,,,,,,,,,,,,,b,1,3.1190747787950386,2358.7405696785045,None,,,,,001,22,2019_Oct_11_1456,ACPT_experiment_5_30_19,3.1.0,59.953725152692755,
,,,C,G,d,b,,,,,,,,,,6,6,126,12,,,,,,,,,,,,,b,1,1.2009384062221216,2365.1454590019293,None,,,,,001,22,2019_Oct_11_1456,ACPT_experiment_5_30_19,3.1.0,59.953725152692755,
,,,C,U,g,n,,,,,,,,,,6,7,127,7,0,0,0,0,0,0,0,0,,,,,n,1,1.267225118182978,2369.649271277218,None,,,,,001,22,2019_Oct_11_1456,ACPT_experiment_5_30_19,3.1.0,59.953725152692755,
,,,C,U,g,n,L,U,y,R,u,,,,,6,7,127,7,0,0,0,0,,,,,0,0,0,25,,,,,,down,1.0338825984035793,2420.804639266904,None,001,22,2019_Oct_11_1456,ACPT_experiment_5_30_19,3.1.0,59.953725152692755,
,,,C,U,g,n,L,U,y,L,u,,,,,6,7,127,7,0,0,0,0,,,,,0,1,1,24,,,,,,down,0.7840799359837547,2423.105992391449,None,001,22,2019_Oct_11_1456,ACPT_experiment_5_30_19,3.1.0,59.953725152692755,
,,,C,U,g,n,R,G,y,L,y,,,,,6,7,127,7,0,0,0,0,,,,,0,2,2,28,,,,,,down,0.8506561267022335,2425.174376390607,None,001,22,2019_Oct_11_1456,ACPT_experiment_5_30_19,3.1.0,59.953725152692755,
,,,C,U,g,n,R,U,y,L,u,,,,,6,7,127,7,0,0,0,0,,,,,0,3,3,30,,,,,,down,0.68385417877289,2427.2926575931106,None,001,22,2019_Oct_11_1456,ACPT_experiment_5_30_19,3.1.0,59.953725152692755,
,,,C,U,g,n,L,U,d,R,u,,,,,6,7,127,7,0,0,0,0,,,,,0,4,4,21,,,,,,up,0.8673345103670727,2429.2608155332073,None,001,22,2019_Oct_11_1456,ACPT_experiment_5_30_19,3.1.0,59.953725152692755,
,,,C,U,g,n,L,D,g,L,i,,,,,6,7,127,7,0,0,0,0,,,,,0,5,5,14,,,,,,up,0.6171418515332334,2431.4124550123142,None,001,22,2019_Oct_11_1456,ACPT_experiment_5_30_19,3.1.0,59.953725152692755,
,,,C,U,g,n,R,G,d,R,i,,,,,6,7,127,7,0,0,0,0,,,,,0,6,6,5,,,,,,up,0.6671757951080508,2433.313897908478,None,001,22,2019_Oct_11_1456,ACPT_experiment_5_30_19,3.1.0,59.953725152692755,
,,,C,U,g,n,L,D,d,L,c ,,,,,6,7,127,7,0,0,0,0,,,,,0,7,7,12,,,,,,up,0.6671465151921439,2435.2654043299863,None,001,22,2019_Oct_11_1456,ACPT_experiment_5_30_19,3.1.0,59.953725152692755,
,,,C,U,g,n,R,U,g,L,u,,,,,6,7,127,7,0,0,0,0,,,,,0,8,8,10,,,,,,up,0.6171276643581223,2437.216866378838,None,001,22,2019_Oct_11_1456,ACPT_experiment_5_30_19,3.1.0,59.953725152692755,
,,,C,U,g,n,R,D,d,L,c,,,,,6,7,127,7,0,0,0,0,,,,,0,9,9,0,,,,,,up,0.7338525034792838,2439.1183424790306,None,001,22,2019_Oct_11_1456,ACPT_experiment_5_30_19,3.1.0,59.953725152692755,
,,,C,U,g,n,R,G,g,R,c ,,,,,6,7,127,7,0,0,0,0,,,,,0,10,10,7,,,,,,up,0.7505915599576838,2441.1364830473813,None,001,22,2019_Oct_11_1456,ACPT_experiment_5_30_19,3.1.0,59.953725152692755,
,,,C,U,g,n,L,G,g,L,c ,,,,,6,7,127,7,0,0,0,0,,,,,0,11,11,18,,,,,,up,0.6004516955326835,2443.17139074471,None,001,22,2019_Oct_11_1456,ACPT_experiment_5_30_19,3.1.0,59.953725152692755,
,,,C,U,g,n,R,G,d,L,i,,,,,6,7,127,7,0,0,0,0,,,,,0,12,12,4,,,,,,up,0.5170637013252417,2445.05615042753,None,001,22,2019_Oct_11_1456,ACPT_experiment_5_30_19,3.1.0,59.953725152692755,
,,,C,U,g,n,L,G,y,L,y,,,,,6,7,127,7,0,0,0,0,,,,,0,13,13,34,,,,,,down,0.6838508583678049,2446.874200801665,None,001,22,2019_Oct_11_1456,ACPT_experiment_5_30_19,3.1.0,59.953725152692755,
,,,C,U,g,n,R,U,y,R,u,,,,,6,7,127,7,0,0,0,0,,,,,0,14,14,31,,,,,,down,0.667157985673839,2448.859051614456,None,001,22,2019_Oct_11_1456,ACPT_experiment_5_30_19,3.1.0,59.953725152692755,
,,,C,U,g,n,R,D,y,L,y,,,,,6,7,127,7,0,0,0,0,,,,,0,15,15,26,,,,,,down,0.3669359110936057,2450.8272008007607,None,001,22,2019_Oct_11_1456,ACPT_experiment_5_30_19,3.1.0,59.953725152692755,
,,,C,U,g,n,R,D,d,R,c ,,,,,6,7,127,7,0,0,0,0,,,,,0,16,16,1,,,,,,up,0.6004830884339754,2452.4784302101125,None,001,22,2019_Oct_11_1456,ACPT_experiment_5_30_19,3.1.0,59.953725152692755,
,,,C,U,g,n,R,U,g,R,u,,,,,6,7,127,7,0,0,0,0,,,,,0,17,17,11,,,,,,up,0.5670904003854957,2454.3632315488994,None,001,22,2019_Oct_11_1456,ACPT_experiment_5_30_19,3.1.0,59.953725152692755,
,,,C,U,g,n,L,G,g,R,c ,,,,,6,7,127,7,0,0,0,0,,,,,0,18,18,19,,,,,,up,0.4336618217967043,2456.214627219879,None,001,22,2019_Oct_11_1456,ACPT_experiment_5_30_19,3.1.0,59.953725152692755,
,,,C,U,g,n,R,D,g,L,i,,,,,6,7,127,7,0,0,0,0,,,,,0,19,19,2,,,,,,up,0.6838418027255102,2457.932600953076,None,001,22,2019_Oct_11_1456,ACPT_experiment_5_30_19,3.1.0,59.953725152692755,
,,,C,U,g,n,R,G,y,R,y,,,,,6,7,127,7,0,0,0,0,,,,,0,20,20,29,,,,,,down,0.717224831423664,2459.917437578688,None,001,22,2019_Oct_11_1456,ACPT_experiment_5_30_19,3.1.0,59.953725152692755,
,,,C,U,g,n,L,U,g,R,u,,,,,6,7,127,7,0,0,0,0,,,,,0,21,21,23,,,,,,up,0.8172628349420847,2461.952333805535,None,001,22,2019_Oct_11_1456,ACPT_experiment_5_30_19,3.1.0,59.953725152692755,
,,,C,U,g,n,R,D,g,R,i,,,,,6,7,127,7,0,0,0,0,,,,,0,22,22,3,,,,,,up,0.4837310823786538,2464.0539127778447,None,001,22,2019_Oct_11_1456,ACPT_experiment_5_30_19,3.1.0,59.953725152692755,
,,,C,U,g,n,R,D,y,R,y,,,,,6,7,127,7,0,0,0,0,,,,,0,23,23,27,,,,,,down,0.6671966230896942,2465.8052200355505,None,001,22,2019_Oct_11_1456,ACPT_experiment_5_30_19,3.1.0,59.953725152692755,
,,,C,U,g,n,L,G,y,R,y,,,,,6,7,127,7,0,0,0,0,,,,,0,24,24,35,,,,,,down,0.6004939552076394,2467.7567186088363,None,001,22,2019_Oct_11_1456,ACPT_experiment_5_30_19,3.1.0,59.953725152692755,
,,,C,U,g,n,L,U,d,L,u,,,,,6,7,127,7,0,0,0,0,,,,,0,25,25,20,,,,,,up,0.5833627893334778,2469.658567499717,None,001,22,2019_Oct_11_1456,ACPT_experiment_5_30_19,3.1.0,59.953725152692755,
,,,C,U,g,n,R,U,d,R,u,,,,,6,7,127,7,0,0,0,0,,,,,0,26,26,9,,,,,,up,0.6671631172066554,2471.5262588024616,None,001,22,2019_Oct_11_1456,ACPT_experiment_5_30_19,3.1.0,59.953725152692755,
,,,C,U,g,n,L,D,y,L,y,,,,,6,7,127,7,0,0,0,0,,,,,0,27,27,32,,,,,,down,0.6838783271559805,2473.477732019941,None,001,22,2019_Oct_11_1456,ACPT_experiment_5_30_19,3.1.0,59.953725152692755,
,,,C,U,g,n,L,D,g,R,i,,,,,6,7,127,7,0,0,0,0,,,,,0,28,28,15,,,,,,up,0.8339726115045778,2475.429215500486,None,001,22,2019_Oct_11_1456,ACPT_experiment_5_30_19,3.1.0,59.953725152692755,
,,,C,U,g,n,L,G,d,R,i,,,,,6,7,127,7,0,0,0,0,,,,,0,29,29,17,,,,,,up,0.4336648403441359,2477.5474924770224,None,001,22,2019_Oct_11_1456,ACPT_experiment_5_30_19,3.1.0,59.953725152692755,
,,,C,U,g,n,R,U,d,L,u,,,,,6,7,127,7,0,0,0,0,,,,,0,30,30,8,,,,,,up,0.6337939738332352,2479.265472247318,None,001,22,2019_Oct_11_1456,ACPT_experiment_5_30_19,3.1.0,59.953725152692755,
,,,C,U,g,n,R,G,g,L,c ,,,,,6,7,127,7,0,0,0,0,,,,,0,31,31,6,,,,,,up,0.5504343539723777,2481.1835877919057,None,001,22,2019_Oct_11_1456,ACPT_experiment_5_30_19,3.1.0,59.953725152692755,
,,,C,U,g,n,L,D,d,R,c ,,,,,6,7,127,7,0,0,0,0,,,,,0,32,32,13,,,,,,up,0.4665612790886371,2483.035423567193,None,001,22,2019_Oct_11_1456,ACPT_experiment_5_30_19,3.1.0,59.953725152692755,
,,,C,U,g,n,L,D,y,R,y,,,,,6,7,127,7,0,0,0,0,,,,,0,33,33,33,,,,,,down,0.7172335852119431,2484.769621694426,None,001,22,2019_Oct_11_1456,ACPT_experiment_5_30_19,3.1.0,59.953725152692755,
,,,C,U,g,n,L,U,g,L,u,,,,,6,7,127,7,0,0,0,0,,,,,0,34,34,22,,,,,,up,0.6838421045795258,2486.7711677947464,None,001,22,2019_Oct_11_1456,ACPT_experiment_5_30_19,3.1.0,59.953725152692755,
,,,C,U,g,n,L,G,d,L,i,,,,,6,7,127,7,0,0,0,0,,,,,0,35,35,16,,,,,,up,0.600459543758916,2488.7393227162956,None,001,22,2019_Oct_11_1456,ACPT_experiment_5_30_19,3.1.0,59.953725152692755,
,,,C,U,g,n,L,U,g,R,u,,,,,6,7,127,7,0,0,0,0,,,,,1,0,36,23,,,,,,up,0.6338163110849564,2490.6240872287945,None,001,22,2019_Oct_11_1456,ACPT_experiment_5_30_19,3.1.0,59.953725152692755,
,,,C,U,g,n,R,G,y,L,y,,,,,6,7,127,7,0,0,0,0,,,,,1,1,37,28,,,,,,down,0.6004598456129315,2492.5422103197507,None,001,22,2019_Oct_11_1456,ACPT_experiment_5_30_19,3.1.0,59.953725152692755,
,,,C,U,g,n,R,D,g,L,i,,,,,6,7,127,7,0,0,0,0,,,,,1,2,38,2,,,,,,up,0.7005358828391763,2494.4269878120085,None,001,22,2019_Oct_11_1456,ACPT_experiment_5_30_19,3.1.0,59.953725152692755,
,,,C,U,g,n,L,U,d,L,u,,,,,6,7,127,7,0,0,0,0,,,,,1,3,39,20,,,,,,up,0.5167826744982449,2496.4287784147255,None,001,22,2019_Oct_11_1456,ACPT_experiment_5_30_19,3.1.0,59.953725152692755,
,,,C,U,g,n,L,D,y,R,y,,,,,6,7,127,7,0,0,0,0,,,,,1,4,40,33,,,,,,down,0.6671803229291982,2498.229861832,None,001,22,2019_Oct_11_1456,ACPT_experiment_5_30_19,3.1.0,59.953725152692755,
,,,C,U,g,n,R,G,d,R,i,,,,,6,7,127,7,0,0,0,0,,,,,1,5,41,5,,,,,,up,0.7172091349711991,2500.1813504440743,None,001,22,2019_Oct_11_1456,ACPT_experiment_5_30_19,3.1.0,59.953725152692755,
,,,C,U,g,n,R,G,y,R,y,,,,,6,7,127,7,0,0,0,0,,,,,1,6,42,29,,,,,,down,1.0508069937350228,2502.182865755205,None,001,22,2019_Oct_11_1456,ACPT_experiment_5_30_19,3.1.0,59.953725152692755,
,,,C,U,g,n,L,G,d,L,i,,,,,6,7,127,7,0,0,0,0,,,,,1,7,43,16,,,,,,up,0.6337716365742381,2504.518018769935,None,001,22,2019_Oct_11_1456,ACPT_experiment_5_30_19,3.1.0,59.953725152692755,
,,,C,U,g,n,R,U,g,R,u,,,,,6,7,127,7,0,0,0,0,,,,,1,8,44,11,,,,,,up,0.5670882874001109,2506.4361086568624,None,001,22,2019_Oct_11_1456,ACPT_experiment_5_30_19,3.1.0,59.953725152692755,
,,,C,U,g,n,R,G,d,L,i,,,,,6,7,127,7,0,0,0,0,,,,,1,9,45,4,,,,,,up,0.5003783749998547,2508.2875088556666,None,001,22,2019_Oct_11_1456,ACPT_experiment_5_30_19,3.1.0,59.953725152692755,
,,,C,U,g,n,L,G,d,R,i,,,,,6,7,127,7,0,0,0,0,,,,,1,10,46,17,,,,,,up,0.45034775183012243,2510.0555117027598,None,001,22,2019_Oct_11_1456,ACPT_experiment_5_30_19,3.1.0,59.953725152692755,
,,,C,U,g,n,L,U,y,R,u,,,,,6,7,127,7,0,0,0,0,,,,,1,11,47,25,,,,,,down,0.7672949975712982,2511.7901417842204,None,001,22,2019_Oct_11_1456,ACPT_experiment_5_30_19,3.1.0,59.953725152692755,
,,,C,U,g,n,L,U,d,R,u,,,,,6,7,127,7,0,0,0,0,,,,,1,12,48,21,,,,,,up,0.6838502546597738,2513.8417257522287,None,001,22,2019_Oct_11_1456,ACPT_experiment_5_30_19,3.1.0,59.953725152692755,
,,,C,U,g,n,R,D,y,L,y,,,,,6,7,127,7,0,0,0,0,,,,,1,13,49,26,,,,,,down,0.7472346326467232,2515.8298942512065,None,001,22,2019_Oct_11_1456,ACPT_experiment_5_30_19,3.1.0,59.953725152692755,
,,,C,U,g,n,L,U,g,L,u,,,,,6,7,127,7,0,0,0,0,,,,,1,14,50,22,,,,,,up,0.7172187943251629,2517.861435361867,None,001,22,2019_Oct_11_1456,ACPT_experiment_5_30_19,3.1.0,59.953725152692755,
,,,C,U,g,n,R,U,y,R,u,,,,,6,7,127,7,0,0,0,0,,,,,1,15,51,31,,,,,,down,1.1508809179758828,2519.862970293563,None,001,22,2019_Oct_11_1456,ACPT_experiment_5_30_19,3.1.0,59.953725152692755,
,,,C,U,g,n,L,G,y,R,y,,,,,6,7,127,7,0,0,0,0,,,,,1,16,52,35,,,,,,down,0.5334363060719625,2522.315119514884,None,001,22,2019_Oct_11_1456,ACPT_experiment_5_30_19,3.1.0,59.953725152692755,
,,,C,U,g,n,L,D,d,L,c ,,,,,6,7,127,7,0,0,0,0,,,,,1,17,53,12,,,,,,up,0.48369485980583704,2524.1328728638855,None,001,22,2019_Oct_11_1456,ACPT_experiment_5_30_19,3.1.0,59.953725152692755,
,,,C,U,g,n,L,G,g,L,c ,,,,,6,7,127,7,0,0,0,0,,,,,1,18,54,18,,,,,,up,0.7505960877788311,2525.900857599694,None,001,22,2019_Oct_11_1456,ACPT_experiment_5_30_19,3.1.0,59.953725152692755,
,,,C,U,g,n,L,G,g,R,c ,,,,,6,7,127,7,0,0,0,0,,,,,1,19,55,19,,,,,,up,0.5337680445045407,2527.919073631745,None,001,22,2019_Oct_11_1456,ACPT_experiment_5_30_19,3.1.0,59.953725152692755,
,,,C,U,g,n,L,D,g,L,i,,,,,6,7,127,7,0,0,0,0,,,,,1,20,56,14,,,,,,up,0.43369955364687485,2529.7371179687816,None,001,22,2019_Oct_11_1456,ACPT_experiment_5_30_19,3.1.0,59.953725152692755,
,,,C,U,g,n,R,U,d,R,u,,,,,6,7,127,7,0,0,0,0,,,,,1,21,57,9,,,,,,up,0.550406281476171,2531.4551022668984,None,001,22,2019_Oct_11_1456,ACPT_experiment_5_30_19,3.1.0,59.953725152692755,
,,,C,U,g,n,R,G,g,R,c ,,,,,6,7,127,7,0,0,0,0,,,,,1,22,58,7,,,,,,up,0.5170516271355154,2533.289828609859,None,001,22,2019_Oct_11_1456,ACPT_experiment_5_30_19,3.1.0,59.953725152692755,
,,,C,U,g,n,L,G,y,L,y,,,,,6,7,127,7,0,0,0,0,,,,,1,23,59,34,,,,,,down,0.70028443778574,2535.108122278967,None,001,22,2019_Oct_11_1456,ACPT_experiment_5_30_19,3.1.0,59.953725152692755,
,,,C,U,g,n,R,U,y,L,u,,,,,6,7,127,7,0,0,0,0,,,,,1,24,60,30,,,,,,down,0.667177002527751,2537.0927068558176,None,001,22,2019_Oct_11_1456,ACPT_experiment_5_30_19,3.1.0,59.953725152692755,
,,,C,U,g,n,R,D,d,R,c ,,,,,6,7,127,7,0,0,0,0,,,,,1,25,61,1,,,,,,up,0.617134003310639,2539.0442033161144,None,001,22,2019_Oct_11_1456,ACPT_experiment_5_30_19,3.1.0,59.953725152692755,
,,,C,U,g,n,L,D,y,L,y,,,,,6,7,127,7,0,0,0,0,,,,,1,26,62,32,,,,,,down,0.7503733189332706,2540.9624785418946,None,001,22,2019_Oct_11_1456,ACPT_experiment_5_30_19,3.1.0,59.953725152692755,
,,,C,U,g,n,R,U,d,L,u,,,,,6,7,127,7,0,0,0,0,,,,,1,27,63,8,,,,,,up,0.6671643246263557,2543.0138732469404,None,001,22,2019_Oct_11_1456,ACPT_experiment_5_30_19,3.1.0,59.953725152692755,
,,,C,U,g,n,L,D,g,R,i,,,,,6,7,127,7,0,0,0,0,,,,,1,28,64,15,,,,,,up,0.6004845977076911,2544.9653579349015,None,001,22,2019_Oct_11_1456,ACPT_experiment_5_30_19,3.1.0,59.953725152692755,
,,,C,U,g,n,L,U,y,L,u,,,,,6,7,127,7,0,0,0,0,,,,,1,29,65,24,,,,,,down,0.700528638324613,2546.850122447404,None,001,22,2019_Oct_11_1456,ACPT_experiment_5_30_19,3.1.0,59.953725152692755,
,,,C,U,g,n,R,D,g,R,i,,,,,6,7,127,7,0,0,0,0,,,,,1,30,66,3,,,,,,up,0.5666560313184164,2548.852050695912,None,001,22,2019_Oct_11_1456,ACPT_experiment_5_30_19,3.1.0,59.953725152692755,
,,,C,U,g,n,R,D,y,R,y,,,,,6,7,127,7,0,0,0,0,,,,,1,31,67,27,,,,,,down,0.6171551331462979,2550.7030376554812,None,001,22,2019_Oct_11_1456,ACPT_experiment_5_30_19,3.1.0,59.953725152692755,
,,,C,U,g,n,R,D,d,L,c,,,,,6,7,127,7,0,0,0,0,,,,,1,32,68,0,,,,,,up,0.5337254829755693,2552.6045016814805,None,001,22,2019_Oct_11_1456,ACPT_experiment_5_30_19,3.1.0,59.953725152692755,
,,,C,U,g,n,R,U,g,L,u,,,,,6,7,127,7,0,0,0,0,,,,,1,33,69,10,,,,,,up,0.5003780731458392,2554.4225426981156,None,001,22,2019_Oct_11_1456,ACPT_experiment_5_30_19,3.1.0,59.953725152692755,
,,,C,U,g,n,L,D,d,R,c ,,,,,6,7,127,7,0,0,0,0,,,,,1,34,70,13,,,,,,up,0.41698736224498134,2556.2072227214576,None,001,22,2019_Oct_11_1456,ACPT_experiment_5_30_19,3.1.0,59.953725152692755,
,,,C,U,g,n,R,G,g,L,c ,,,,,6,7,127,7,0,0,0,0,,,,,1,35,71,6,,,,,,up,0.5504126204286877,2557.9085189765556,None,001,22,2019_Oct_11_1456,ACPT_experiment_5_30_19,3.1.0,59.953725152692755,
,,,C,U,g,n,,,,,,,,,,6,7,127,7,1,0,1,0,0,0,0,0,,,,,,,,,,,,,,001,22,2019_Oct_11_1456,ACPT_experiment_5_30_19,3.1.0,59.953725152692755,
,,,C,U,g,n,L,U,g,L,u,,,,,6,7,127,7,1,0,1,0,,,,,0,0,0,22,,,,,,up,0.6138163171235647,2564.7003288104406,None,001,22,2019_Oct_11_1456,ACPT_experiment_5_30_19,3.1.0,59.953725152692755,
,,,C,U,g,n,R,G,g,R,c ,,,,,6,7,127,7,1,0,1,0,,,,,0,1,1,7,,,,,,up,0.4003301084158011,2566.5984229293736,None,001,22,2019_Oct_11_1456,ACPT_experiment_5_30_19,3.1.0,59.953725152692755,
,,,C,U,g,n,R,G,d,L,i,,,,,6,7,127,7,1,0,1,0,,,,,0,2,2,4,,,,,,up,0.517060079066141,2568.2830616287883,None,001,22,2019_Oct_11_1456,ACPT_experiment_5_30_19,3.1.0,59.953725152692755,
,,,C,U,g,n,L,D,g,L,i,,,,,6,7,127,7,1,0,1,0,,,,,0,3,3,14,,,,,,up,0.5337330293441482,2570.084430902565,None,001,22,2019_Oct_11_1456,ACPT_experiment_5_30_19,3.1.0,59.953725152692755,
,,,C,U,g,n,L,G,y,R,y,,,,,6,7,127,7,1,0,1,0,,,,,0,4,4,35,,,,,,down,0.5666276569645561,2571.919604896206,None,001,22,2019_Oct_11_1456,ACPT_experiment_5_30_19,3.1.0,59.953725152692755,
,,,C,U,g,n,R,U,g,R,u,,,,,6,7,127,7,1,0,1,0,,,,,0,5,5,11,,,,,,up,0.45031998118793126,2573.770586120534,None,001,22,2019_Oct_11_1456,ACPT_experiment_5_30_19,3.1.0,59.953725152692755,
,,,C,U,g,n,L,U,g,R,u,,,,,6,7,127,7,1,0,1,0,,,,,0,6,6,23,,,,,,up,0.6004435454524355,2575.50522767248,None,001,22,2019_Oct_11_1456,ACPT_experiment_5_30_19,3.1.0,59.953725152692755,
,,,C,U,g,n,L,U,d,R,u,,,,,6,7,127,7,1,0,1,0,,,,,0,7,7,21,,,,,,up,0.4503556000563549,2577.3732772768835,None,001,22,2019_Oct_11_1456,ACPT_experiment_5_30_19,3.1.0,59.953725152692755,
,,,C,U,g,n,R,G,y,R,y,,,,,6,7,127,7,1,0,1,0,,,,,0,8,8,29,,,,,,down,0.5500190017628483,2579.1250047164813,None,001,22,2019_Oct_11_1456,ACPT_experiment_5_30_19,3.1.0,59.953725152692755,
,,,C,U,g,n,L,U,y,L,u,,,,,6,7,127,7,1,0,1,0,,,,,0,9,9,24,,,,,,down,0.8339551039280195,2580.959364607703,None,001,22,2019_Oct_11_1456,ACPT_experiment_5_30_19,3.1.0,59.953725152692755,
,,,C,U,g,n,R,U,y,L,u,,,,,6,7,127,7,1,0,1,0,,,,,0,10,10,30,,,,,,down,0.6672268085712858,2583.077626189648,None,001,22,2019_Oct_11_1456,ACPT_experiment_5_30_19,3.1.0,59.953725152692755,
,,,C,U,g,n,L,D,g,R,i,,,,,6,7,127,7,1,0,1,0,,,,,0,11,11,15,,,,,,up,0.583776934126945,2585.0291129905945,None,001,22,2019_Oct_11_1456,ACPT_experiment_5_30_19,3.1.0,59.953725152692755,
,,,C,U,g,n,R,U,g,L,u,,,,,6,7,127,7,1,0,1,0,,,,,0,12,12,10,,,,,,up,0.550433448410331,2586.897201534268,None,001,22,2019_Oct_11_1456,ACPT_experiment_5_30_19,3.1.0,59.953725152692755,
,,,C,U,g,n,R,U,d,R,u,,,,,6,7,127,7,1,0,1,0,,,,,0,13,13,9,,,,,,up,0.4003153175326588,2588.7152256470345,None,001,22,2019_Oct_11_1456,ACPT_experiment_5_30_19,3.1.0,59.953725152692755,
,,,C,U,g,n,R,G,y,L,y,,,,,6,7,127,7,1,0,1,0,,,,,0,14,14,28,,,,,,down,0.5504126204286877,2590.3998592149164,None,001,22,2019_Oct_11_1456,ACPT_experiment_5_30_19,3.1.0,59.953725152692755,
,,,C,U,g,n,L,G,d,R,i,,,,,6,7,127,7,1,0,1,0,,,,,0,15,15,17,,,,,,up,0.41673440791782923,2592.2515090476463,None,001,22,2019_Oct_11_1456,ACPT_experiment_5_30_19,3.1.0,59.953725152692755,
,,,C,U,g,n,R,D,y,L,y,,,,,6,7,127,7,1,0,1,0,,,,,0,16,16,26,,,,,,up,0.4837015006123693,2593.952554461399,None,001,22,2019_Oct_11_1456,ACPT_experiment_5_30_19,3.1.0,59.953725152692755,
,,,C,U,g,n,R,D,d,L,c,,,,,6,7,127,7,1,0,1,0,,,,,0,17,17,0,,,,,,up,0.8006309369193332,2595.70386383209,None,001,22,2019_Oct_11_1456,ACPT_experiment_5_30_19,3.1.0,59.953725152692755,
,,,C,U,g,n,L,D,y,R,y,,,,,6,7,127,7,1,0,1,0,,,,,0,18,18,33,,,,,,down,0.5837630488058494,2597.788810604523,None,001,22,2019_Oct_11_1456,ACPT_experiment_5_30_19,3.1.0,59.953725152692755,
,,,C,U,g,n,R,D,g,L,i,,,,,6,7,127,7,1,0,1,0,,,,,0,19,19,2,,,,,,up,1.2676277924947499,2599.656887375857,None,001,22,2019_Oct_11_1456,ACPT_experiment_5_30_19,3.1.0,59.953725152692755,
,,,C,U,g,n,R,D,d,R,c ,,,,,6,7,127,7,1,0,1,0,,,,,0,20,20,1,,,,,,up,0.6004776550471433,2602.192124547708,None,001,22,2019_Oct_11_1456,ACPT_experiment_5_30_19,3.1.0,59.953725152692755,
,,,C,U,g,n,R,U,d,L,u,,,,,6,7,127,7,1,0,1,0,,,,,0,21,21,8,,,,,,up,0.5504313354285841,2604.0769077752066,None,001,22,2019_Oct_11_1456,ACPT_experiment_5_30_19,3.1.0,59.953725152692755,
,,,C,U,g,n,L,D,d,L,c ,,,,,6,7,127,7,1,0,1,0,,,,,0,22,22,12,,,,,,up,0.5338021540956106,2605.911614799459,None,001,22,2019_Oct_11_1456,ACPT_experiment_5_30_19,3.1.0,59.953725152692755,
,,,C,U,g,n,R,D,g,R,i,,,,,6,7,127,7,1,0,1,0,,,,,0,23,23,3,,,,,,up,0.5837705951780663,2607.7296887182656,None,001,22,2019_Oct_11_1456,ACPT_experiment_5_30_19,3.1.0,59.953725152692755,
,,,C,U,g,n,R,U,y,R,u,,,,,6,7,127,7,1,0,1,0,,,,,0,24,24,31,,,,,,down,0.6171379274237552,2609.5977636784755,None,001,22,2019_Oct_11_1456,ACPT_experiment_5_30_19,3.1.0,59.953725152692755,
,,,C,U,g,n,L,D,d,R,c ,,,,,6,7,127,7,1,0,1,0,,,,,0,25,25,13,,,,,,up,0.5000185640710697,2611.532918323219,None,001,22,2019_Oct_11_1456,ACPT_experiment_5_30_19,3.1.0,59.953725152692755,
,,,C,U,g,n,R,G,g,L,c ,,,,,6,7,127,7,1,0,1,0,,,,,0,26,26,6,,,,,,up,0.6838599140137376,2613.317255137643,None,001,22,2019_Oct_11_1456,ACPT_experiment_5_30_19,3.1.0,59.953725152692755,
,,,C,U,g,n,L,U,y,R,u,,,,,6,7,127,7,1,0,1,0,,,,,0,27,27,25,,,,,,down,0.4336702737309679,2615.285416398141,None,001,22,2019_Oct_11_1456,ACPT_experiment_5_30_19,3.1.0,59.953725152692755,
,,,C,U,g,n,R,G,d,R,i,,,,,6,7,127,7,1,0,1,0,,,,,0,28,28,5,,,,,,up,0.6003155590151437,2617.003504232458,None,001,22,2019_Oct_11_1456,ACPT_experiment_5_30_19,3.1.0,59.953725152692755,
,,,C,U,g,n,L,U,d,L,u,,,,,6,7,127,7,1,0,1,0,,,,,0,29,29,20,,,,,,up,0.6171786778213573,2618.8881588698077,None,001,22,2019_Oct_11_1456,ACPT_experiment_5_30_19,3.1.0,59.953725152692755,
,,,C,U,g,n,L,G,g,R,c ,,,,,6,7,127,7,1,0,1,0,,,,,0,30,30,19,,,,,,up,0.466995950017008,2620.7896210846793,None,001,22,2019_Oct_11_1456,ACPT_experiment_5_30_19,3.1.0,59.953725152692755,
,,,C,U,g,n,R,D,y,R,y,,,,,6,7,127,7,1,0,1,0,,,,,0,31,31,27,,,,,,down,0.5671012671555218,2622.540932568352,None,001,22,2019_Oct_11_1456,ACPT_experiment_5_30_19,3.1.0,59.953725152692755,
,,,C,U,g,n,L,G,y,L,y,,,,,6,7,127,7,1,0,1,0,,,,,0,32,32,34,,,,,,down,0.633566979016905,2624.409261992163,None,001,22,2019_Oct_11_1456,ACPT_experiment_5_30_19,3.1.0,59.953725152692755,
,,,C,U,g,n,L,D,y,L,y,,,,,6,7,127,7,1,0,1,0,,,,,0,33,33,32,,,,,,down,0.7670722287220997,2626.3272872821635,None,001,22,2019_Oct_11_1456,ACPT_experiment_5_30_19,3.1.0,59.953725152692755,
,,,C,U,g,n,L,G,g,L,c ,,,,,6,7,127,7,1,0,1,0,,,,,0,34,34,18,,,,,,up,0.7505924655233684,2628.378696174381,None,001,22,2019_Oct_11_1456,ACPT_experiment_5_30_19,3.1.0,59.953725152692755,
,,,C,U,g,n,L,G,d,L,i,,,,,6,7,127,7,1,0,1,0,,,,,0,35,35,16,,,,,,up,0.6004640715800633,2630.4135724788084,None,001,22,2019_Oct_11_1456,ACPT_experiment_5_30_19,3.1.0,59.953725152692755,
,,,C,U,g,n,R,U,g,R,u,,,,,6,7,127,7,1,0,1,0,,,,,1,0,36,11,,,,,,up,0.7338802741214749,2632.2983487636466,None,001,22,2019_Oct_11_1456,ACPT_experiment_5_30_19,3.1.0,59.953725152692755,
,,,C,U,g,n,L,D,g,L,i,,,,,6,7,127,7,1,0,1,0,,,,,1,1,37,14,,,,,,up,0.46702040025411407,2634.316537930621,None,001,22,2019_Oct_11_1456,ACPT_experiment_5_30_19,3.1.0,59.953725152692755,
,,,C,U,g,n,R,U,y,R,u,,,,,6,7,127,7,1,0,1,0,,,,,1,2,38,31,,,,,,down,0.667185152607999,2636.0678732608267,None,001,22,2019_Oct_11_1456,ACPT_experiment_5_30_19,3.1.0,59.953725152692755,
,,,C,U,g,n,R,G,g,L,c ,,,,,6,7,127,7,1,0,1,0,,,,,1,3,39,6,,,,,,up,0.7501055737193383,2638.036468890392,None,001,22,2019_Oct_11_1456,ACPT_experiment_5_30_19,3.1.0,59.953725152692755,
,,,C,U,g,n,L,G,y,R,y,,,,,6,7,127,7,1,0,1,0,,,,,1,4,40,35,,,,,,down,0.5670855707066949,2640.0875892094136,None,001,22,2019_Oct_11_1456,ACPT_experiment_5_30_19,3.1.0,59.953725152692755,
,,,C,U,g,n,L,D,y,L,y,,,,,6,7,127,7,1,0,1,0,,,,,1,5,41,32,,,,,,down,0.5504391836511786,2641.9556783567987,None,001,22,2019_Oct_11_1456,ACPT_experiment_5_30_19,3.1.0,59.953725152692755,
,,,C,U,g,n,L,U,g,R,u,,,,,6,7,127,7,1,0,1,0,,,,,1,6,42,23,,,,,,up,0.4837054247218475,2643.7904031904854,None,001,22,2019_Oct_11_1456,ACPT_experiment_5_30_19,3.1.0,59.953725152692755,
,,,C,U,g,n,R,U,d,R,u,,,,,6,7,127,7,1,0,1,0,,,,,1,7,43,9,,,,,,up,1.0507988436547748,2645.5584075468523,None,001,22,2019_Oct_11_1456,ACPT_experiment_5_30_19,3.1.0,59.953725152692755,
,,,C,U,g,n,R,G,y,R,y,,,,,6,7,127,7,1,0,1,0,,,,,1,8,44,29,,,,,,down,0.7170684706325119,2647.9102999199185,None,001,22,2019_Oct_11_1456,ACPT_experiment_5_30_19,3.1.0,59.953725152692755,
,,,C,U,g,n,R,U,g,L,u,,,,,6,7,127,7,1,0,1,0,,,,,1,9,45,10,,,,,,up,0.7005283364669594,2649.9283930970614,None,001,22,2019_Oct_11_1456,ACPT_experiment_5_30_19,3.1.0,59.953725152692755,
,,,C,U,g,n,R,G,g,R,c ,,,,,6,7,127,7,1,0,1,0,,,,,1,10,46,7,,,,,,up,0.41697891031071777,2651.91323485421,None,001,22,2019_Oct_11_1456,ACPT_experiment_5_30_19,3.1.0,59.953725152692755,
,,,C,U,g,n,L,G,d,R,i,,,,,6,7,127,7,1,0,1,0,,,,,1,11,47,17,,,,,,up,0.5837576154190174,2653.614535637129,None,001,22,2019_Oct_11_1456,ACPT_experiment_5_30_19,3.1.0,59.953725152692755,
,,,C,U,g,n,R,U,d,L,u,,,,,6,7,127,7,1,0,1,0,,,,,1,12,48,8,,,,,,up,0.5837748211415601,2655.482609389919,None,001,22,2019_Oct_11_1456,ACPT_experiment_5_30_19,3.1.0,59.953725152692755,
,,,C,U,g,n,L,D,y,R,y,,,,,6,7,127,7,1,0,1,0,,,,,1,13,49,33,,,,,,down,0.5837446356636065,2657.367397447093,None,001,22,2019_Oct_11_1456,ACPT_experiment_5_30_19,3.1.0,59.953725152692755,
,,,C,U,g,n,R,G,d,R,i,,,,,6,7,127,7,1,0,1,0,,,,,1,14,50,5,,,,,,up,0.5003696212115756,2659.2354657664964,None,001,22,2019_Oct_11_1456,ACPT_experiment_5_30_19,3.1.0,59.953725152692755,
,,,C,U,g,n,R,D,y,R,y,,,,,6,7,127,7,1,0,1,0,,,,,1,15,51,27,,,,,,down,0.6671782099474513,2661.020145186123,None,001,22,2019_Oct_11_1456,ACPT_experiment_5_30_19,3.1.0,59.953725152692755,
,,,C,U,g,n,R,D,d,R,c ,,,,,6,7,127,7,1,0,1,0,,,,,1,16,52,1,,,,,,up,0.48370180246274685,2662.9716295722337,None,001,22,2019_Oct_11_1456,ACPT_experiment_5_30_19,3.1.0,59.953725152692755,
,,,C,U,g,n,L,D,d,L,c ,,,,,6,7,127,7,1,0,1,0,,,,,1,17,53,12,,,,,,up,0.5837736137254979,2664.7396384564217,None,001,22,2019_Oct_11_1456,ACPT_experiment_5_30_19,3.1.0,59.953725152692755,
,,,C,U,g,n,L,D,d,R,c ,,,,,6,7,127,7,1,0,1,0,,,,,1,18,54,13,,,,,,up,0.667166135754087,2666.607729716792,None,001,22,2019_Oct_11_1456,ACPT_experiment_5_30_19,3.1.0,59.953725152692755,
,,,C,U,g,n,R,D,g,L,i,,,,,6,7,127,7,1,0,1,0,,,,,1,19,55,2,,,,,,up,0.6004559215034533,2668.5592071602387,None,001,22,2019_Oct_11_1456,ACPT_experiment_5_30_19,3.1.0,59.953725152692755,
,,,C,U,g,n,R,G,y,L,y,,,,,6,7,127,7,1,0,1,0,,,,,1,20,56,28,,,,,,down,0.550143064087024,2670.4609223294374,None,001,22,2019_Oct_11_1456,ACPT_experiment_5_30_19,3.1.0,59.953725152692755,
,,,C,U,g,n,L,U,d,R,u,,,,,6,7,127,7,1,0,1,0,,,,,1,21,57,21,,,,,,up,0.633819329632388,2672.295375191943,None,001,22,2019_Oct_11_1456,ACPT_experiment_5_30_19,3.1.0,59.953725152692755,
,,,C,U,g,n,L,U,g,L,u,,,,,6,7,127,7,1,0,1,0,,,,,1,22,58,22,,,,,,up,0.6004634678720322,2674.196807221333,None,001,22,2019_Oct_11_1456,ACPT_experiment_5_30_19,3.1.0,59.953725152692755,
,,,C,U,g,n,R,D,g,R,i,,,,,6,7,127,7,1,0,1,0,,,,,1,23,59,3,,,,,,up,0.6170995918619155,2676.081618219474,None,001,22,2019_Oct_11_1456,ACPT_experiment_5_30_19,3.1.0,59.953725152692755,
,,,C,U,g,n,L,U,y,L,u,,,,,6,7,127,7,1,0,1,0,,,,,1,24,60,24,,,,,,down,0.8339659707016835,2677.98303123201,None,001,22,2019_Oct_11_1456,ACPT_experiment_5_30_19,3.1.0,59.953725152692755,
,,,C,U,g,n,R,D,y,L,y,,,,,6,7,127,7,1,0,1,0,,,,,1,25,61,26,,,,,,down,0.9173584927302727,2680.101308812258,None,001,22,2019_Oct_11_1456,ACPT_experiment_5_30_19,3.1.0,59.953725152692755,
,,,C,U,g,n,L,U,d,L,u,,,,,6,7,127,7,1,0,1,0,,,,,1,26,62,20,,,,,,up,0.7172504890804703,2682.3029716700203,None,001,22,2019_Oct_11_1456,ACPT_experiment_5_30_19,3.1.0,59.953725152692755,
,,,C,U,g,n,R,G,d,L,i,,,,,6,7,127,7,1,0,1,0,,,,,1,27,63,4,,,,,,up,0.7672409655606316,2684.3045035831656,None,001,22,2019_Oct_11_1456,ACPT_experiment_5_30_19,3.1.0,59.953725152692755,
,,,C,U,g,n,L,G,y,L,y,,,,,6,7,127,7,1,0,1,0,,,,,1,28,64,34,,,,,,down,0.6171551331462979,2686.3560374432764,None,001,22,2019_Oct_11_1456,ACPT_experiment_5_30_19,3.1.0,59.953725152692755,
,,,C,U,g,n,L,D,g,R,i,,,,,6,7,127,7,1,0,1,0,,,,,1,29,65,15,,,,,,up,0.7005250160655123,2688.2575011674217,None,001,22,2019_Oct_11_1456,ACPT_experiment_5_30_19,3.1.0,59.953725152692755,
,,,C,U,g,n,L,U,y,R,u,,,,,6,7,127,7,1,0,1,0,,,,,1,30,66,25,,,,,,down,0.7338606535595318,2690.2423649599677,None,001,22,2019_Oct_11_1456,ACPT_experiment_5_30_19,3.1.0,59.953725152692755,
,,,C,U,g,n,L,G,d,L,i,,,,,6,7,127,7,1,0,1,0,,,,,1,31,67,16,,,,,,up,0.6504956003154803,2692.2605387323474,None,001,22,2019_Oct_11_1456,ACPT_experiment_5_30_19,3.1.0,59.953725152692755,
,,,C,U,g,n,L,G,g,R,c ,,,,,6,7,127,7,1,0,1,0,,,,,1,32,68,19,,,,,,up,0.650571969581506,2694.178640693468,None,001,22,2019_Oct_11_1456,ACPT_experiment_5_30_19,3.1.0,59.953725152692755,
,,,C,U,g,n,R,D,d,L,c,,,,,6,7,127,7,1,0,1,0,,,,,1,33,69,0,,,,,,up,0.43365276615077164,2696.113469335023,None,001,22,2019_Oct_11_1456,ACPT_experiment_5_30_19,3.1.0,59.953725152692755,
,,,C,U,g,n,R,U,y,L,u,,,,,6,7,127,7,1,0,1,0,,,,,1,34,70,30,,,,,,down,1.3343455531176005,2697.831439445965,None,001,22,2019_Oct_11_1456,ACPT_experiment_5_30_19,3.1.0,59.953725152692755,
,,,C,U,g,n,L,G,g,L,c ,,,,,6,7,127,7,1,0,1,0,,,,,1,35,71,18,,,,,,up,0.6004492806932831,2700.4500935900815,None,001,22,2019_Oct_11_1456,ACPT_experiment_5_30_19,3.1.0,59.953725152692755,
,,,C,U,g,n,,,,,,,,,,6,7,127,7,2,0,2,0,0,0,0,0,,,,,,,,,,,,,,001,22,2019_Oct_11_1456,ACPT_experiment_5_30_19,3.1.0,59.953725152692755,
,,,C,U,g,n,R,D,g,L,i,,,,,6,7,127,7,2,0,2,0,,,,,0,0,0,2,,,,,,up,0.6168677673704224,2709.0569032534204,None,001,22,2019_Oct_11_1456,ACPT_experiment_5_30_19,3.1.0,59.953725152692755,
,,,C,U,g,n,L,G,y,L,y,,,,,6,7,127,7,2,0,2,0,,,,,0,1,1,34,,,,,,down,0.5504180538155197,2710.9580660283227,None,001,22,2019_Oct_11_1456,ACPT_experiment_5_30_19,3.1.0,59.953725152692755,
,,,C,U,g,n,L,U,y,L,u,,,,,6,7,127,7,2,0,2,0,,,,,0,2,2,24,,,,,,down,0.6504880539432634,2712.792797200962,None,001,22,2019_Oct_11_1456,ACPT_experiment_5_30_19,3.1.0,59.953725152692755,
,,,C,U,g,n,L,D,y,L,y,,,,,6,7,127,7,2,0,2,0,,,,,0,3,3,32,,,,,,down,0.7005226012297499,2714.7442797759377,None,001,22,2019_Oct_11_1456,ACPT_experiment_5_30_19,3.1.0,59.953725152692755,
,,,C,U,g,n,L,U,d,L,u,,,,,6,7,127,7,2,0,2,0,,,,,0,4,4,20,,,,,,up,0.5837669729189656,2716.7457984074736,None,001,22,2019_Oct_11_1456,ACPT_experiment_5_30_19,3.1.0,59.953725152692755,
,,,C,U,g,n,R,G,y,R,y,,,,,6,7,127,7,2,0,2,0,,,,,0,5,5,29,,,,,,down,1.117524452503858,2718.613876989939,None,001,22,2019_Oct_11_1456,ACPT_experiment_5_30_19,3.1.0,59.953725152692755,
,,,C,U,g,n,R,G,d,L,i,,,,,6,7,127,7,2,0,2,0,,,,,0,6,6,4,,,,,,up,0.5670967393343744,2721.015703694493,None,001,22,2019_Oct_11_1456,ACPT_experiment_5_30_19,3.1.0,59.953725152692755,
,,,C,U,g,n,R,G,d,R,i,,,,,6,7,127,7,2,0,2,0,,,,,0,7,7,5,,,,,,up,0.6504934873337334,2722.850433357855,None,001,22,2019_Oct_11_1456,ACPT_experiment_5_30_19,3.1.0,59.953725152692755,
,,,C,U,g,n,L,U,y,R,u,,,,,6,7,127,7,2,0,2,0,,,,,0,8,8,25,,,,,,down,0.6004420361787197,2724.801916536542,None,001,22,2019_Oct_11_1456,ACPT_experiment_5_30_19,3.1.0,59.953725152692755,
,,,C,U,g,n,L,U,g,R,u,,,,,6,7,127,7,2,0,2,0,,,,,0,9,9,23,,,,,,up,0.5670964374803589,2726.7033651679467,None,001,22,2019_Oct_11_1456,ACPT_experiment_5_30_19,3.1.0,59.953725152692755,
,,,C,U,g,n,L,D,g,L,i,,,,,6,7,127,7,2,0,2,0,,,,,0,10,10,14,,,,,,up,0.5670973430424056,2728.554762650054,None,001,22,2019_Oct_11_1456,ACPT_experiment_5_30_19,3.1.0,59.953725152692755,
,,,C,U,g,n,L,D,d,R,c ,,,,,6,7,127,7,2,0,2,0,,,,,0,11,11,13,,,,,,up,0.5504102055929252,2730.3894968412405,None,001,22,2019_Oct_11_1456,ACPT_experiment_5_30_19,3.1.0,59.953725152692755,
,,,C,U,g,n,R,D,g,R,i,,,,,6,7,127,7,2,0,2,0,,,,,0,12,12,3,,,,,,up,0.5504123185746721,2732.2242186563763,None,001,22,2019_Oct_11_1456,ACPT_experiment_5_30_19,3.1.0,59.953725152692755,
,,,C,U,g,n,R,G,y,L,y,,,,,6,7,127,7,2,0,2,0,,,,,0,13,13,28,,,,,,up,0.5168421398957435,2734.092481370275,None,001,22,2019_Oct_11_1456,ACPT_experiment_5_30_19,3.1.0,59.953725152692755,
,,,C,U,g,n,L,G,g,R,c ,,,,,6,7,127,7,2,0,2,0,,,,,0,14,14,19,,,,,,up,0.850685708472156,2735.9103433870096,None,001,22,2019_Oct_11_1456,ACPT_experiment_5_30_19,3.1.0,59.953725152692755,
,,,C,U,g,n,R,U,d,R,u,,,,,6,7,127,7,2,0,2,0,,,,,0,15,15,9,,,,,,up,0.4670213058197987,2738.0453174622107,None,001,22,2019_Oct_11_1456,ACPT_experiment_5_30_19,3.1.0,59.953725152692755,
,,,C,U,g,n,L,D,g,R,i,,,,,6,7,127,7,2,0,2,0,,,,,0,16,16,15,,,,,,up,0.46703579484892543,2739.796635888544,None,001,22,2019_Oct_11_1456,ACPT_experiment_5_30_19,3.1.0,59.953725152692755,
,,,C,U,g,n,L,G,y,R,y,,,,,6,7,127,7,2,0,2,0,,,,,0,17,17,35,,,,,,down,1.2005248651403235,2741.56501756342,None,001,22,2019_Oct_11_1456,ACPT_experiment_5_30_19,3.1.0,59.953725152692755,
,,,C,U,g,n,R,U,g,R,u,,,,,6,7,127,7,2,0,2,0,,,,,0,18,18,11,,,,,,up,0.6505366525670979,2744.0498603770593,None,001,22,2019_Oct_11_1456,ACPT_experiment_5_30_19,3.1.0,59.953725152692755,
,,,C,U,g,n,L,U,g,L,u,,,,,6,7,127,7,2,0,2,0,,,,,0,19,19,22,,,,,,up,0.6338606837452971,2745.984663360954,None,001,22,2019_Oct_11_1456,ACPT_experiment_5_30_19,3.1.0,59.953725152692755,
,,,C,U,g,n,R,D,d,L,c,,,,,6,7,127,7,2,0,2,0,,,,,0,20,20,0,,,,,,up,0.49995909867357113,2747.919861170938,None,001,22,2019_Oct_11_1456,ACPT_experiment_5_30_19,3.1.0,59.953725152692755,
,,,C,U,g,n,R,G,g,R,c ,,,,,6,7,127,7,2,0,2,0,,,,,0,21,21,7,,,,,,up,0.6504853372498474,2749.704170214716,None,001,22,2019_Oct_11_1456,ACPT_experiment_5_30_19,3.1.0,59.953725152692755,
,,,C,U,g,n,R,U,y,R,u,,,,,6,7,127,7,2,0,2,0,,,,,0,22,22,31,,,,,,down,0.6004855032733758,2751.6389735004686,None,001,22,2019_Oct_11_1456,ACPT_experiment_5_30_19,3.1.0,59.953725152692755,
,,,C,U,g,n,R,U,y,L,u,,,,,6,7,127,7,2,0,2,0,,,,,0,23,23,30,,,,,,down,2.2683932962863764,2753.5237241276463,None,001,22,2019_Oct_11_1456,ACPT_experiment_5_30_19,3.1.0,59.953725152692755,
,,,C,U,g,n,L,U,d,R,u,,,,,6,7,127,7,2,0,2,0,,,,,0,24,24,21,,,,,,up,0.600467693839164,2757.076420279691,None,001,22,2019_Oct_11_1456,ACPT_experiment_5_30_19,3.1.0,59.953725152692755,
,,,C,U,g,n,R,U,g,L,u,,,,,6,7,127,7,2,0,2,0,,,,,0,25,25,10,,,,,,up,0.5504506541365117,2758.9611899237225,None,001,22,2019_Oct_11_1456,ACPT_experiment_5_30_19,3.1.0,59.953725152692755,
,,,C,U,g,n,L,D,y,R,y,,,,,6,7,127,7,2,0,2,0,,,,,0,26,26,33,,,,,,down,0.5837512764665007,2760.795934679825,None,001,22,2019_Oct_11_1456,ACPT_experiment_5_30_19,3.1.0,59.953725152692755,
,,,C,U,g,n,R,D,y,L,y,,,,,6,7,127,7,2,0,2,0,,,,,0,27,27,26,,,,,,down,0.7005524848536879,2762.6472971467792,None,001,22,2019_Oct_11_1456,ACPT_experiment_5_30_19,3.1.0,59.953725152692755,
,,,C,U,g,n,L,G,d,R,i,,,,,6,7,127,7,2,0,2,0,,,,,0,28,28,17,,,,,,up,0.5671323582027981,2764.632159430048,None,001,22,2019_Oct_11_1456,ACPT_experiment_5_30_19,3.1.0,59.953725152692755,
,,,C,U,g,n,L,D,d,L,c ,,,,,6,7,127,7,2,0,2,0,,,,,0,29,29,12,,,,,,up,0.5504394855051942,2766.466864341319,None,001,22,2019_Oct_11_1456,ACPT_experiment_5_30_19,3.1.0,59.953725152692755,
,,,C,U,g,n,L,G,g,L,c ,,,,,6,7,127,7,2,0,2,0,,,,,0,30,30,18,,,,,,up,1.11706593505005,2768.318713700073,None,001,22,2019_Oct_11_1456,ACPT_experiment_5_30_19,3.1.0,59.953725152692755,
,,,C,U,g,n,R,U,d,L,u,,,,,6,7,127,7,2,0,2,0,,,,,0,31,31,8,,,,,,up,0.600454110372084,2770.720116600476,None,001,22,2019_Oct_11_1456,ACPT_experiment_5_30_19,3.1.0,59.953725152692755,
,,,C,U,g,n,R,G,g,L,c ,,,,,6,7,127,7,2,0,2,0,,,,,0,32,32,6,,,,,,up,0.5837376930030587,2772.604920052245,None,001,22,2019_Oct_11_1456,ACPT_experiment_5_30_19,3.1.0,59.953725152692755,
,,,C,U,g,n,R,D,d,R,c ,,,,,6,7,127,7,2,0,2,0,,,,,0,33,33,1,,,,,,up,0.5170564568106784,2774.472966034393,None,001,22,2019_Oct_11_1456,ACPT_experiment_5_30_19,3.1.0,59.953725152692755,
,,,C,U,g,n,R,D,y,R,y,,,,,6,7,127,7,2,0,2,0,,,,,0,34,34,27,,,,,,down,0.800608599660336,2776.2743337988923,None,001,22,2019_Oct_11_1456,ACPT_experiment_5_30_19,3.1.0,59.953725152692755,
,,,C,U,g,n,L,G,d,L,i,,,,,6,7,127,7,2,0,2,0,,,,,0,35,35,16,,,,,,up,0.43366634961785167,2778.359250385847,None,001,22,2019_Oct_11_1456,ACPT_experiment_5_30_19,3.1.0,59.953725152692755,
,,,C,U,g,n,R,D,d,L,c,,,,,6,7,127,7,2,0,2,0,,,,,1,0,36,0,,,,,,up,0.9340918139714631,2780.0771996688036,None,001,22,2019_Oct_11_1456,ACPT_experiment_5_30_19,3.1.0,59.953725152692755,
,,,C,U,g,n,L,G,d,L,i,,,,,6,7,127,7,2,0,2,0,,,,,1,1,37,16,,,,,,up,0.8840068569334107,2782.2955689827268,None,001,22,2019_Oct_11_1456,ACPT_experiment_5_30_19,3.1.0,59.953725152692755,
,,,C,U,g,n,L,D,y,R,y,,,,,6,7,127,7,2,0,2,0,,,,,1,2,38,33,,,,,,down,0.5835774080987903,2784.4807318530166,None,001,22,2019_Oct_11_1456,ACPT_experiment_5_30_19,3.1.0,59.953725152692755,
,,,C,U,g,n,L,D,g,R,i,,,,,6,7,127,7,2,0,2,0,,,,,1,3,39,15,,,,,,up,0.5837787452546763,2786.3653276286805,None,001,22,2019_Oct_11_1456,ACPT_experiment_5_30_19,3.1.0,59.953725152692755,
,,,C,U,g,n,L,G,y,L,y,,,,,6,7,127,7,2,0,2,0,,,,,1,4,40,34,,,,,,down,1.4678369175053376,2788.2333938350985,None,001,22,2019_Oct_11_1456,ACPT_experiment_5_30_19,3.1.0,59.953725152692755,
,,,C,U,g,n,R,U,d,R,u,,,,,6,7,127,7,2,0,2,0,,,,,1,5,41,9,,,,,,up,0.6338199333440571,2790.985504026592,None,001,22,2019_Oct_11_1456,ACPT_experiment_5_30_19,3.1.0,59.953725152692755,
,,,C,U,g,n,L,G,y,R,y,,,,,6,7,127,7,2,0,2,0,,,,,1,6,42,35,,,,,,down,0.6166649209408206,2792.92074922778,None,001,22,2019_Oct_11_1456,ACPT_experiment_5_30_19,3.1.0,59.953725152692755,
,,,C,U,g,n,R,U,g,R,u,,,,,6,7,127,7,2,0,2,0,,,,,1,7,43,11,,,,,,up,0.5504201668009046,2794.8217782810043,None,001,22,2019_Oct_11_1456,ACPT_experiment_5_30_19,3.1.0,59.953725152692755,
,,,C,U,g,n,R,U,g,L,u,,,,,6,7,127,7,2,0,2,0,,,,,1,8,44,10,,,,,,up,0.8007607344843564,2796.639648749673,None,001,22,2019_Oct_11_1456,ACPT_experiment_5_30_19,3.1.0,59.953725152692755,
,,,C,U,g,n,L,U,g,L,u,,,,,6,7,127,7,2,0,2,0,,,,,1,9,45,22,,,,,,up,0.600449280696921,2798.7080402952033,None,001,22,2019_Oct_11_1456,ACPT_experiment_5_30_19,3.1.0,59.953725152692755,
,,,C,U,g,n,L,U,y,L,u,,,,,6,7,127,7,2,0,2,0,,,,,1,10,46,24,,,,,,down,0.6338132925411628,2800.5928017891547,None,001,22,2019_Oct_11_1456,ACPT_experiment_5_30_19,3.1.0,59.953725152692755,
,,,C,U,g,n,R,D,g,R,i,,,,,6,7,127,7,2,0,2,0,,,,,1,11,47,3,,,,,,up,0.9340350652673806,2802.510924578257,None,001,22,2019_Oct_11_1456,ACPT_experiment_5_30_19,3.1.0,59.953725152692755,
,,,C,U,g,n,R,G,g,L,c ,,,,,6,7,127,7,2,0,2,0,,,,,1,12,48,6,,,,,,up,0.5337384627346182,2804.729276988308,None,001,22,2019_Oct_11_1456,ACPT_experiment_5_30_19,3.1.0,59.953725152692755,
,,,C,U,g,n,R,U,d,L,u,,,,,6,7,127,7,2,0,2,0,,,,,1,13,49,8,,,,,,up,0.4670182872687292,2806.547321023494,None,001,22,2019_Oct_11_1456,ACPT_experiment_5_30_19,3.1.0,59.953725152692755,
,,,C,U,g,n,R,D,d,R,c ,,,,,6,7,127,7,2,0,2,0,,,,,1,14,50,1,,,,,,up,0.6504445868522453,2808.2986980096593,None,001,22,2019_Oct_11_1456,ACPT_experiment_5_30_19,3.1.0,59.953725152692755,
,,,C,U,g,n,R,G,g,R,c ,,,,,6,7,127,7,2,0,2,0,,,,,1,15,51,7,,,,,,up,0.5504123185746721,2810.2334545079157,None,001,22,2019_Oct_11_1456,ACPT_experiment_5_30_19,3.1.0,59.953725152692755,
,,,C,U,g,n,L,U,d,R,u,,,,,6,7,127,7,2,0,2,0,,,,,1,16,52,21,,,,,,up,0.5502287908529979,2812.085016802748,None,001,22,2019_Oct_11_1456,ACPT_experiment_5_30_19,3.1.0,59.953725152692755,
,,,C,U,g,n,R,D,g,L,i,,,,,6,7,127,7,2,0,2,0,,,,,1,17,53,2,,,,,,up,0.5837766322729294,2813.9195831626585,None,001,22,2019_Oct_11_1456,ACPT_experiment_5_30_19,3.1.0,59.953725152692755,
,,,C,U,g,n,L,D,d,R,c ,,,,,6,7,127,7,2,0,2,0,,,,,1,18,54,13,,,,,,up,0.45032632013680995,2815.787681365686,None,001,22,2019_Oct_11_1456,ACPT_experiment_5_30_19,3.1.0,59.953725152692755,
,,,C,U,g,n,L,D,d,L,c ,,,,,6,7,127,7,2,0,2,0,,,,,1,19,55,12,,,,,,up,0.4503700890854816,2817.5056185744525,None,001,22,2019_Oct_11_1456,ACPT_experiment_5_30_19,3.1.0,59.953725152692755,
,,,C,U,g,n,L,D,y,L,y,,,,,6,7,127,7,2,0,2,0,,,,,1,20,56,32,,,,,,down,0.6001872707201983,2819.2405601700757,None,001,22,2019_Oct_11_1456,ACPT_experiment_5_30_19,3.1.0,59.953725152692755,
,,,C,U,g,n,R,U,y,R,u,,,,,6,7,127,7,2,0,2,0,,,,,1,21,57,31,,,,,,down,0.817291209292307,2821.1250575410722,None,001,22,2019_Oct_11_1456,ACPT_experiment_5_30_19,3.1.0,59.953725152692755,
,,,C,U,g,n,L,G,g,L,c ,,,,,6,7,127,7,2,0,2,0,,,,,1,22,58,18,,,,,,up,0.6171337014566234,2823.2266485875753,None,001,22,2019_Oct_11_1456,ACPT_experiment_5_30_19,3.1.0,59.953725152692755,
,,,C,U,g,n,R,D,y,L,y,,,,,6,7,127,7,2,0,2,0,,,,,1,23,59,26,,,,,,down,0.6504946947534336,2825.1280966152717,None,001,22,2019_Oct_11_1456,ACPT_experiment_5_30_19,3.1.0,59.953725152692755,
,,,C,U,g,n,L,U,g,R,u,,,,,6,7,127,7,2,0,2,0,,,,,1,24,60,23,,,,,,up,0.48369878391895327,2827.06290110844,None,001,22,2019_Oct_11_1456,ACPT_experiment_5_30_19,3.1.0,59.953725152692755,
,,,C,U,g,n,L,G,g,R,c ,,,,,6,7,127,7,2,0,2,0,,,,,1,25,61,19,,,,,,up,0.5003696212115756,2828.830919350132,None,001,22,2019_Oct_11_1456,ACPT_experiment_5_30_19,3.1.0,59.953725152692755,
,,,C,U,g,n,R,D,y,R,y,,,,,6,7,127,7,2,0,2,0,,,,,1,26,62,27,,,,,,down,0.4670113446081814,2830.61560058089,None,001,22,2019_Oct_11_1456,ACPT_experiment_5_30_19,3.1.0,59.953725152692755,
,,,C,U,g,n,L,U,d,L,u,,,,,6,7,127,7,2,0,2,0,,,,,1,27,63,20,,,,,,up,0.6668995979598549,2832.383871475051,None,001,22,2019_Oct_11_1456,ACPT_experiment_5_30_19,3.1.0,59.953725152692755,
,,,C,U,g,n,L,U,y,R,u,,,,,6,7,127,7,2,0,2,0,,,,,1,28,64,25,,,,,,down,0.5337523480520758,2834.3350745324806,None,001,22,2019_Oct_11_1456,ACPT_experiment_5_30_19,3.1.0,59.953725152692755,
,,,C,U,g,n,R,G,y,L,y,,,,,6,7,127,7,2,0,2,0,,,,,1,29,65,28,,,,,,down,0.5671374897319765,2836.1697903105214,None,001,22,2019_Oct_11_1456,ACPT_experiment_5_30_19,3.1.0,59.953725152692755,
,,,C,U,g,n,R,G,d,R,i,,,,,6,7,127,7,2,0,2,0,,,,,1,30,66,5,,,,,,up,0.6671757951080508,2838.0212158651248,None,001,22,2019_Oct_11_1456,ACPT_experiment_5_30_19,3.1.0,59.953725152692755,
,,,C,U,g,n,L,G,d,R,i,,,,,6,7,127,7,2,0,2,0,,,,,1,31,67,17,,,,,,up,0.6671896804291464,2839.9726830455093,None,001,22,2019_Oct_11_1456,ACPT_experiment_5_30_19,3.1.0,59.953725152692755,
,,,C,U,g,n,R,G,y,R,y,,,,,6,7,127,7,2,0,2,0,,,,,1,32,68,29,,,,,,down,0.5670891929621575,2841.92418644847,None,001,22,2019_Oct_11_1456,ACPT_experiment_5_30_19,3.1.0,59.953725152692755,
,,,C,U,g,n,R,U,y,L,u,,,,,6,7,127,7,2,0,2,0,,,,,1,33,69,30,,,,,,down,0.7338805759754905,2843.792272577304,None,001,22,2019_Oct_11_1456,ACPT_experiment_5_30_19,3.1.0,59.953725152692755,
,,,C,U,g,n,R,G,d,L,i,,,,,6,7,127,7,2,0,2,0,,,,,1,34,70,4,,,,,,down,0.7005247142114968,2845.827153107699,None,001,22,2019_Oct_11_1456,ACPT_experiment_5_30_19,3.1.0,59.953725152692755,
,,,C,U,g,n,L,D,g,L,i,,,,,6,7,127,7,2,0,2,0,,,,,1,35,71,14,,,,,,up,0.5670900985278422,2847.8119957704093,None,001,22,2019_Oct_11_1456,ACPT_experiment_5_30_19,3.1.0,59.953725152692755,
,,,C,U,g,n,,,,,,,,,,6,7,127,7,3,0,3,0,0,0,0,0,,,,,,,,,,,,,,001,22,2019_Oct_11_1456,ACPT_experiment_5_30_19,3.1.0,59.953725152692755,
,,,C,U,g,n,L,D,g,R,i,,,,,6,7,127,7,3,0,3,0,,,,,0,0,0,15,,,,,,up,0.5469609107094584,2859.3907869686864,None,001,22,2019_Oct_11_1456,ACPT_experiment_5_30_19,3.1.0,59.953725152692755,
,,,C,U,g,n,L,U,g,L,u,,,,,6,7,127,7,3,0,3,0,,,,,0,1,1,22,,,,,,up,0.46702341880154563,2861.2221729863504,None,001,22,2019_Oct_11_1456,ACPT_experiment_5_30_19,3.1.0,59.953725152692755,
,,,C,U,g,n,R,D,d,L,c,,,,,6,7,127,7,3,0,3,0,,,,,0,2,2,0,,,,,,up,0.517218552842678,2862.9735451428405,None,001,22,2019_Oct_11_1456,ACPT_experiment_5_30_19,3.1.0,59.953725152692755,
,,,C,U,g,n,L,U,y,L,u,,,,,6,7,127,7,3,0,3,0,,,,,0,3,3,24,,,,,,down,0.6338102739900933,2864.7748721569424,None,001,22,2019_Oct_11_1456,ACPT_experiment_5_30_19,3.1.0,59.953725152692755,
,,,C,U,g,n,L,U,d,L,u,,,,,6,7,127,7,3,0,3,0,,,,,0,4,4,20,,,,,,up,0.7305592675293155,2866.7130049012176,None,001,22,2019_Oct_11_1456,ACPT_experiment_5_30_19,3.1.0,59.953725152692755,
,,,C,U,g,n,L,G,y,R,y,,,,,6,7,127,7,3,0,3,0,,,,,0,5,5,35,,,,,,down,0.5504177519615041,2868.7278775894247,None,001,22,2019_Oct_11_1456,ACPT_experiment_5_30_19,3.1.0,59.953725152692755,
,,,C,U,g,n,L,D,y,L,y,,,,,6,7,127,7,3,0,3,0,,,,,0,6,6,32,,,,,,down,0.6838526694991742,2870.5792826179004,None,001,22,2019_Oct_11_1456,ACPT_experiment_5_30_19,3.1.0,59.953725152692755,
,,,C,U,g,n,L,G,g,L,c ,,,,,6,7,127,7,3,0,3,0,,,,,0,7,7,18,,,,,,up,0.667155268984061,2872.564133430691,None,001,22,2019_Oct_11_1456,ACPT_experiment_5_30_19,3.1.0,59.953725152692755,
,,,C,U,g,n,R,U,y,L,u,,,,,6,7,127,7,3,0,3,0,,,,,0,8,8,30,,,,,,down,0.6171149864567269,2874.5156199297835,None,001,22,2019_Oct_11_1456,ACPT_experiment_5_30_19,3.1.0,59.953725152692755,
,,,C,U,g,n,R,G,d,L,i,,,,,6,7,127,7,3,0,3,0,,,,,0,9,9,4,,,,,,up,0.7672560583014274,2876.417043507239,None,001,22,2019_Oct_11_1456,ACPT_experiment_5_30_19,3.1.0,59.953725152692755,
,,,C,U,g,n,R,G,y,R,y,,,,,6,7,127,7,3,0,3,0,,,,,0,10,10,29,,,,,,down,1.0841613462253008,2878.4686036287185,None,001,22,2019_Oct_11_1456,ACPT_experiment_5_30_19,3.1.0,59.953725152692755,
,,,C,U,g,n,R,D,g,L,i,,,,,6,7,127,7,3,0,3,0,,,,,0,11,11,2,,,,,,up,0.6004516955326835,2880.837072660377,None,001,22,2019_Oct_11_1456,ACPT_experiment_5_30_19,3.1.0,59.953725152692755,
,,,C,U,g,n,R,U,d,R,u,,,,,6,7,127,7,3,0,3,0,,,,,0,12,12,9,,,,,,down,0.5670955319146742,2882.721836871022,None,001,22,2019_Oct_11_1456,ACPT_experiment_5_30_19,3.1.0,59.953725152692755,
,,,C,U,g,n,R,U,y,R,u,,,,,6,7,127,7,3,0,3,0,,,,,0,13,13,31,,,,,,down,0.750571033830056,2884.5565644213984,None,001,22,2019_Oct_11_1456,ACPT_experiment_5_30_19,3.1.0,59.953725152692755,
,,,C,U,g,n,R,G,d,R,i,,,,,6,7,127,7,3,0,3,0,,,,,0,14,14,5,,,,,,up,0.6004728253719804,2886.5914422351034,None,001,22,2019_Oct_11_1456,ACPT_experiment_5_30_19,3.1.0,59.953725152692755,
,,,C,U,g,n,L,G,g,R,c ,,,,,6,7,127,7,3,0,3,0,,,,,0,15,15,19,,,,,,up,0.5504192612352199,2888.476197993814,None,001,22,2019_Oct_11_1456,ACPT_experiment_5_30_19,3.1.0,59.953725152692755,
,,,C,U,g,n,R,D,d,R,c ,,,,,6,7,127,7,3,0,3,0,,,,,0,16,16,1,,,,,,up,0.43365336985880276,2890.3109336942707,None,001,22,2019_Oct_11_1456,ACPT_experiment_5_30_19,3.1.0,59.953725152692755,
,,,C,U,g,n,R,G,g,L,c ,,,,,6,7,127,7,3,0,3,0,,,,,0,17,17,6,,,,,,up,0.5834551569023461,2892.0458903826348,None,001,22,2019_Oct_11_1456,ACPT_experiment_5_30_19,3.1.0,59.953725152692755,
,,,C,U,g,n,R,D,y,R,y,,,,,6,7,127,7,3,0,3,0,,,,,0,18,18,27,,,,,,down,0.6839157571521355,2893.9136589602113,None,001,22,2019_Oct_11_1456,ACPT_experiment_5_30_19,3.1.0,59.953725152692755,
,,,C,U,g,n,R,D,g,R,i,,,,,6,7,127,7,3,0,3,0,,,,,0,19,19,3,,,,,,up,0.7505954840708,2895.8651270461614,None,001,22,2019_Oct_11_1456,ACPT_experiment_5_30_19,3.1.0,59.953725152692755,
,,,C,U,g,n,L,D,d,R,c ,,,,,6,7,127,7,3,0,3,0,,,,,0,20,20,13,,,,,,up,0.46701979654244496,2897.900028404538,None,001,22,2019_Oct_11_1456,ACPT_experiment_5_30_19,3.1.0,59.953725152692755,
,,,C,U,g,n,L,U,y,R,u,,,,,6,7,127,7,3,0,3,0,,,,,0,21,21,25,,,,,,down,0.6004655808537791,2899.6680378924375,None,001,22,2019_Oct_11_1456,ACPT_experiment_5_30_19,3.1.0,59.953725152692755,
,,,C,U,g,n,R,G,g,R,c ,,,,,6,7,127,7,3,0,3,0,,,,,0,22,22,7,,,,,,up,0.5672117460162553,2901.5695266705316,None,001,22,2019_Oct_11_1456,ACPT_experiment_5_30_19,3.1.0,59.953725152692755,
,,,C,U,g,n,R,U,g,L,u,,,,,6,7,127,7,3,0,3,0,,,,,0,23,23,10,,,,,,up,0.5837708970284439,2903.4042128668025,None,001,22,2019_Oct_11_1456,ACPT_experiment_5_30_19,3.1.0,59.953725152692755,
,,,C,U,g,n,L,D,y,R,y,,,,,6,7,127,7,3,0,3,0,,,,,0,24,24,33,,,,,,down,0.5666795759898378,2905.2893682812773,None,001,22,2019_Oct_11_1456,ACPT_experiment_5_30_19,3.1.0,59.953725152692755,
,,,C,U,g,n,R,U,g,R,u,,,,,6,7,127,7,3,0,3,0,,,,,0,25,25,11,,,,,,up,0.5671000597358216,2907.140375766974,None,001,22,2019_Oct_11_1456,ACPT_experiment_5_30_19,3.1.0,59.953725152692755,
,,,C,U,g,n,L,G,d,R,i,,,,,6,7,127,7,3,0,3,0,,,,,0,26,26,17,,,,,,up,0.5838493792798545,2908.991793171501,None,001,22,2019_Oct_11_1456,ACPT_experiment_5_30_19,3.1.0,59.953725152692755,
,,,C,U,g,n,L,U,d,R,u,,,,,6,7,127,7,3,0,3,0,,,,,0,27,27,21,,,,,,up,0.4503646556986496,2910.843165599659,None,001,22,2019_Oct_11_1456,ACPT_experiment_5_30_19,3.1.0,59.953725152692755,
,,,C,U,g,n,L,G,d,L,i,,,,,6,7,127,7,3,0,3,0,,,,,0,28,28,16,,,,,,up,0.5837588228387176,2912.594534133894,None,001,22,2019_Oct_11_1456,ACPT_experiment_5_30_19,3.1.0,59.953725152692755,
,,,C,U,g,n,L,U,g,R,u,,,,,6,7,127,7,3,0,3,0,,,,,0,29,29,23,,,,,,up,0.48372051746264333,2914.462581625312,None,001,22,2019_Oct_11_1456,ACPT_experiment_5_30_19,3.1.0,59.953725152692755,
,,,C,U,g,n,R,U,d,L,u,,,,,6,7,127,7,3,0,3,0,,,,,0,30,30,8,,,,,,up,0.5337493295046443,2916.230616469018,None,001,22,2019_Oct_11_1456,ACPT_experiment_5_30_19,3.1.0,59.953725152692755,
,,,C,U,g,n,R,D,y,L,y,,,,,6,7,127,7,3,0,3,0,,,,,0,31,31,26,,,,,,down,0.6171533220149286,2918.048664126456,None,001,22,2019_Oct_11_1456,ACPT_experiment_5_30_19,3.1.0,59.953725152692755,
,,,C,U,g,n,L,G,y,L,y,,,,,6,7,127,7,3,0,3,0,,,,,0,32,32,34,,,,,,down,0.633814499957225,2919.950105513346,None,001,22,2019_Oct_11_1456,ACPT_experiment_5_30_19,3.1.0,59.953725152692755,
,,,C,U,g,n,L,D,d,L,c ,,,,,6,7,127,7,3,0,3,0,,,,,0,33,33,12,,,,,,down,1.184247344659525,2921.86822769874,None,001,22,2019_Oct_11_1456,ACPT_experiment_5_30_19,3.1.0,59.953725152692755,
,,,C,U,g,n,L,D,g,L,i,,,,,6,7,127,7,3,0,3,0,,,,,0,34,34,14,,,,,,up,0.7005250160655123,2924.3200925728324,None,001,22,2019_Oct_11_1456,ACPT_experiment_5_30_19,3.1.0,59.953725152692755,
,,,C,U,g,n,R,G,y,L,y,,,,,6,7,127,7,3,0,3,0,,,,,0,35,35,28,,,,,,down,0.6004571289195155,2926.3049291984444,None,001,22,2019_Oct_11_1456,ACPT_experiment_5_30_19,3.1.0,59.953725152692755,
,,,C,U,g,n,L,D,g,L,i,,,,,6,7,127,7,3,0,3,0,,,,,1,0,36,14,,,,,,up,1.5178231680220051,2928.189694918363,None,001,22,2019_Oct_11_1456,ACPT_experiment_5_30_19,3.1.0,59.953725152692755,
,,,C,U,g,n,R,D,g,R,i,,,,,6,7,127,7,3,0,3,0,,,,,1,1,37,3,,,,,,up,0.5835399781062733,2931.0087592227956,None,001,22,2019_Oct_11_1456,ACPT_experiment_5_30_19,3.1.0,59.953725152692755,
,,,C,U,g,n,L,G,d,R,i,,,,,6,7,127,7,3,0,3,0,,,,,1,2,38,17,,,,,,up,0.5337176347529748,2932.8766120178643,None,001,22,2019_Oct_11_1456,ACPT_experiment_5_30_19,3.1.0,59.953725152692755,
,,,C,U,g,n,L,D,d,L,c ,,,,,6,7,127,7,3,0,3,0,,,,,1,3,39,12,,,,,,up,0.5504029610747239,2934.694645186277,None,001,22,2019_Oct_11_1456,ACPT_experiment_5_30_19,3.1.0,59.953725152692755,
,,,C,U,g,n,L,D,d,R,c ,,,,,6,7,127,7,3,0,3,0,,,,,1,4,40,13,,,,,,up,0.5339047847337497,2936.512529842121,None,001,22,2019_Oct_11_1456,ACPT_experiment_5_30_19,3.1.0,59.953725152692755,
,,,C,U,g,n,L,D,y,L,y,,,,,6,7,127,7,3,0,3,0,,,,,1,5,41,32,,,,,,down,0.7672279858052207,2938.3641042111467,None,001,22,2019_Oct_11_1456,ACPT_experiment_5_30_19,3.1.0,59.953725152692755,
,,,C,U,g,n,L,G,g,L,c ,,,,,6,7,127,7,3,0,3,0,,,,,1,6,42,18,,,,,,up,0.750541753914149,2940.432331849517,None,001,22,2019_Oct_11_1456,ACPT_experiment_5_30_19,3.1.0,59.953725152692755,
,,,C,U,g,n,R,D,d,R,c ,,,,,6,7,127,7,3,0,3,0,,,,,1,7,43,1,,,,,,up,0.6004655808537791,2942.4672380375687,None,001,22,2019_Oct_11_1456,ACPT_experiment_5_30_19,3.1.0,59.953725152692755,
,,,C,U,g,n,R,D,d,L,c,,,,,6,7,127,7,3,0,3,0,,,,,1,8,44,0,,,,,,up,0.5005552619149967,2944.335140034973,None,001,22,2019_Oct_11_1456,ACPT_experiment_5_30_19,3.1.0,59.953725152692755,
,,,C,U,g,n,R,G,y,R,y,,,,,6,7,127,7,3,0,3,0,,,,,1,9,45,29,,,,,,down,0.5501717402948998,2946.1369023237075,None,001,22,2019_Oct_11_1456,ACPT_experiment_5_30_19,3.1.0,59.953725152692755,
,,,C,U,g,n,R,D,g,L,i,,,,,6,7,127,7,3,0,3,0,,,,,1,10,46,2,,,,,,up,0.5670897966738266,2947.9713871828226,None,001,22,2019_Oct_11_1456,ACPT_experiment_5_30_19,3.1.0,59.953725152692755,
,,,C,U,g,n,R,U,y,L,u,,,,,6,7,127,7,3,0,3,0,,,,,1,11,47,30,,,,,,down,0.733891140895139,2949.8227910038822,None,001,22,2019_Oct_11_1456,ACPT_experiment_5_30_19,3.1.0,59.953725152692755,
,,,C,U,g,n,R,U,d,R,u,,,,,6,7,127,7,3,0,3,0,,,,,1,12,48,9,,,,,,up,0.7505746560891566,2951.840985302386,None,001,22,2019_Oct_11_1456,ACPT_experiment_5_30_19,3.1.0,59.953725152692755,
,,,C,U,g,n,R,U,y,R,u,,,,,6,7,127,7,3,0,3,0,,,,,1,13,49,31,,,,,,down,0.583795950980857,2953.8591648100064,None,001,22,2019_Oct_11_1456,ACPT_experiment_5_30_19,3.1.0,59.953725152692755,
,,,C,U,g,n,R,G,d,R,i,,,,,6,7,127,7,3,0,3,0,,,,,1,14,50,5,,,,,,up,1.6345784944751358,2955.727269955698,None,001,22,2019_Oct_11_1456,ACPT_experiment_5_30_19,3.1.0,59.953725152692755,
,,,C,U,g,n,L,D,g,R,i,,,,,6,7,127,7,3,0,3,0,,,,,1,15,51,15,,,,,,up,0.5003865250801027,2958.6461513059276,None,001,22,2019_Oct_11_1456,ACPT_experiment_5_30_19,3.1.0,59.953725152692755,
,,,C,U,g,n,L,D,y,R,y,,,,,6,7,127,7,3,0,3,0,,,,,1,16,52,33,,,,,,down,0.5838034973530739,2960.430852760959,None,001,22,2019_Oct_11_1456,ACPT_experiment_5_30_19,3.1.0,59.953725152692755,
,,,C,U,g,n,L,U,g,L,u,,,,,6,7,127,7,3,0,3,0,,,,,1,17,53,22,,,,,,up,0.7005337698574294,2962.2989313434246,None,001,22,2019_Oct_11_1456,ACPT_experiment_5_30_19,3.1.0,59.953725152692755,
,,,C,U,g,n,L,G,y,L,y,,,,,6,7,127,7,3,0,3,0,,,,,1,18,54,34,,,,,,down,0.6000387581589166,2964.300840273225,None,001,22,2019_Oct_11_1456,ACPT_experiment_5_30_19,3.1.0,59.953725152692755,
,,,C,U,g,n,R,D,y,R,y,,,,,6,7,127,7,3,0,3,0,,,,,1,19,55,27,,,,,,down,0.5504394855051942,2966.185211770766,None,001,22,2019_Oct_11_1456,ACPT_experiment_5_30_19,3.1.0,59.953725152692755,
,,,C,U,g,n,R,G,g,L,c ,,,,,6,7,127,7,3,0,3,0,,,,,1,20,56,6,,,,,,down,0.45034412957102177,2968.019938717438,None,001,22,2019_Oct_11_1456,ACPT_experiment_5_30_19,3.1.0,59.953725152692755,
,,,C,U,g,n,R,G,y,L,y,,,,,6,7,127,7,3,0,3,0,,,,,1,21,57,28,,,,,,down,0.6504907706403174,2969.754596569541,None,001,22,2019_Oct_11_1456,ACPT_experiment_5_30_19,3.1.0,59.953725152692755,
,,,C,U,g,n,L,U,g,R,u,,,,,6,7,127,7,3,0,3,0,,,,,1,22,58,23,,,,,,up,0.6171672073360241,2971.689383253275,None,001,22,2019_Oct_11_1456,ACPT_experiment_5_30_19,3.1.0,59.953725152692755,
,,,C,U,g,n,R,G,d,L,i,,,,,6,7,127,7,3,0,3,0,,,,,1,23,59,4,,,,,,up,0.5003898454851878,2973.5908358087927,None,001,22,2019_Oct_11_1456,ACPT_experiment_5_30_19,3.1.0,59.953725152692755,
,,,C,U,g,n,R,U,g,R,u,,,,,6,7,127,7,3,0,3,0,,,,,1,24,60,11,,,,,,up,0.4169903807924129,2975.375523680357,None,001,22,2019_Oct_11_1456,ACPT_experiment_5_30_19,3.1.0,59.953725152692755,
,,,C,U,g,n,L,U,y,L,u,,,,,6,7,127,7,3,0,3,0,,,,,1,25,61,24,,,,,,down,0.6836054504092317,2977.0937488586114,None,001,22,2019_Oct_11_1456,ACPT_experiment_5_30_19,3.1.0,59.953725152692755,
,,,C,U,g,n,R,D,y,L,y,,,,,6,7,127,7,3,0,3,0,,,,,1,26,62,26,,,,,,down,0.8673351140751038,2979.061650523976,None,001,22,2019_Oct_11_1456,ACPT_experiment_5_30_19,3.1.0,59.953725152692755,
,,,C,U,g,n,L,G,d,L,i,,,,,6,7,127,7,3,0,3,0,,,,,1,27,63,16,,,,,,up,0.6671866618817148,2981.2133060013857,None,001,22,2019_Oct_11_1456,ACPT_experiment_5_30_19,3.1.0,59.953725152692755,
,,,C,U,g,n,R,U,g,L,u,,,,,6,7,127,7,3,0,3,0,,,,,1,28,64,10,,,,,,up,0.6171424552449025,2983.1647755966096,None,001,22,2019_Oct_11_1456,ACPT_experiment_5_30_19,3.1.0,59.953725152692755,
,,,C,U,g,n,L,G,y,R,y,,,,,6,7,127,7,3,0,3,0,,,,,1,29,65,35,,,,,,down,0.5504201667972666,2985.066219700193,None,001,22,2019_Oct_11_1456,ACPT_experiment_5_30_19,3.1.0,59.953725152692755,
,,,C,U,g,n,L,U,d,R,u,,,,,6,7,127,7,3,0,3,0,,,,,1,30,66,21,,,,,,down,0.6504883558009169,2986.900945439442,None,001,22,2019_Oct_11_1456,ACPT_experiment_5_30_19,3.1.0,59.953725152692755,
,,,C,U,g,n,L,G,g,R,c ,,,,,6,7,127,7,3,0,3,0,,,,,1,31,67,19,,,,,,up,0.933927303100063,2988.8357493289022,None,001,22,2019_Oct_11_1456,ACPT_experiment_5_30_19,3.1.0,59.953725152692755,
,,,C,U,g,n,R,G,g,R,c ,,,,,6,7,127,7,3,0,3,0,,,,,1,32,68,7,,,,,,up,0.6504977133008651,2991.054097211132,None,001,22,2019_Oct_11_1456,ACPT_experiment_5_30_19,3.1.0,59.953725152692755,
,,,C,U,g,n,L,U,y,R,u,,,,,6,7,127,7,3,0,3,0,,,,,1,33,69,25,,,,,,down,0.9507222027204989,2992.9889047228517,None,001,22,2019_Oct_11_1456,ACPT_experiment_5_30_19,3.1.0,59.953725152692755,
,,,C,U,g,n,L,U,d,L,u,,,,,6,7,127,7,3,0,3,0,,,,,1,34,70,20,,,,,,up,0.7505674115745933,2995.2072523032275,None,001,22,2019_Oct_11_1456,ACPT_experiment_5_30_19,3.1.0,59.953725152692755,
,,,C,U,g,n,R,U,d,L,u,,,,,6,7,127,7,3,0,3,0,,,,,1,35,71,8,,,,,,up,0.7172206054528942,2997.242134342896,None,001,22,2019_Oct_11_1456,ACPT_experiment_5_30_19,3.1.0,59.953725152692755,
,,,C,U,g,n,,,,,,,,,,6,7,127,7,4,0,4,0,0,0,0,0,,,,,,,,,,,,,,001,22,2019_Oct_11_1456,ACPT_experiment_5_30_19,3.1.0,59.953725152692755,
,,,C,U,g,n,R,D,d,R,c ,,,,,6,7,127,7,4,0,4,0,,,,,0,0,0,1,,,,,,up,0.663868673840625,3003.016520815456,None,001,22,2019_Oct_11_1456,ACPT_experiment_5_30_19,3.1.0,59.953725152692755,
,,,C,U,g,n,L,U,g,L,u,,,,,6,7,127,7,4,0,4,0,,,,,0,1,1,22,,,,,,up,0.5337810242599517,3004.9646603484416,None,001,22,2019_Oct_11_1456,ACPT_experiment_5_30_19,3.1.0,59.953725152692755,
,,,C,U,g,n,R,D,y,R,y,,,,,6,7,127,7,4,0,4,0,,,,,0,2,2,27,,,,,,down,0.7672723584619234,3006.782703779916,None,001,22,2019_Oct_11_1456,ACPT_experiment_5_30_19,3.1.0,59.953725152692755,
,,,C,U,g,n,R,U,y,R,u,,,,,6,7,127,7,4,0,4,0,,,,,0,3,3,31,,,,,,down,0.5671350748925761,3008.8342690329246,None,001,22,2019_Oct_11_1456,ACPT_experiment_5_30_19,3.1.0,59.953725152692755,
,,,C,U,g,n,R,G,g,R,c ,,,,,6,7,127,7,4,0,4,0,,,,,0,4,4,7,,,,,,up,0.6004652789997635,3010.6856653076156,None,001,22,2019_Oct_11_1456,ACPT_experiment_5_30_19,3.1.0,59.953725152692755,
,,,C,U,g,n,L,G,d,R,i,,,,,6,7,127,7,4,0,4,0,,,,,0,5,5,17,,,,,,up,1.0341213655556203,3012.570440686888,None,001,22,2019_Oct_11_1456,ACPT_experiment_5_30_19,3.1.0,59.953725152692755,
,,,C,U,g,n,L,D,g,R,i,,,,,6,7,127,7,4,0,4,0,,,,,0,6,6,15,,,,,,up,0.7004999621167372,3014.8888978103732,None,001,22,2019_Oct_11_1456,ACPT_experiment_5_30_19,3.1.0,59.953725152692755,
,,,C,U,g,n,L,G,g,L,c ,,,,,6,7,127,7,4,0,4,0,,,,,0,7,7,18,,,,,,up,0.8840110829005425,3016.873704854219,None,001,22,2019_Oct_11_1456,ACPT_experiment_5_30_19,3.1.0,59.953725152692755,
,,,C,U,g,n,R,U,g,R,u,,,,,6,7,127,7,4,0,4,0,,,,,0,8,8,11,,,,,,up,0.517054645679309,3019.042022415133,None,001,22,2019_Oct_11_1456,ACPT_experiment_5_30_19,3.1.0,59.953725152692755,
,,,C,U,g,n,L,D,d,L,c ,,,,,6,7,127,7,4,0,4,0,,,,,0,9,9,12,,,,,,up,1.1508926903152314,3020.8433787091544,None,001,22,2019_Oct_11_1456,ACPT_experiment_5_30_19,3.1.0,59.953725152692755,
,,,C,U,g,n,R,G,y,L,y,,,,,6,7,127,7,4,0,4,0,,,,,0,10,10,28,,,,,,down,0.6838538769188744,3023.2785715385307,None,001,22,2019_Oct_11_1456,ACPT_experiment_5_30_19,3.1.0,59.953725152692755,
,,,C,U,g,n,R,G,d,L,i,,,,,6,7,127,7,4,0,4,0,,,,,0,11,11,4,,,,,,up,0.5671438286844932,3025.2467436658026,None,001,22,2019_Oct_11_1456,ACPT_experiment_5_30_19,3.1.0,59.953725152692755,
,,,C,U,g,n,L,U,g,R,u,,,,,6,7,127,7,4,0,4,0,,,,,0,12,12,23,,,,,,up,0.4670318707358092,3027.0981480905702,None,001,22,2019_Oct_11_1456,ACPT_experiment_5_30_19,3.1.0,59.953725152692755,
,,,C,U,g,n,L,D,y,R,y,,,,,6,7,127,7,4,0,4,0,,,,,0,13,13,33,,,,,,down,0.5337707611979567,3028.849470441017,None,001,22,2019_Oct_11_1456,ACPT_experiment_5_30_19,3.1.0,59.953725152692755,
,,,C,U,g,n,L,U,y,R,u,,,,,6,7,127,7,4,0,4,0,,,,,0,14,14,25,,,,,,down,0.5168856069903995,3030.684354352188,None,001,22,2019_Oct_11_1456,ACPT_experiment_5_30_19,3.1.0,59.953725152692755,
,,,C,U,g,n,R,U,d,R,u,,,,,6,7,127,7,4,0,4,0,,,,,0,15,15,9,,,,,,up,0.6004462621494895,3032.502243837711,None,001,22,2019_Oct_11_1456,ACPT_experiment_5_30_19,3.1.0,59.953725152692755,
,,,C,U,g,n,L,G,y,L,y,,,,,6,7,127,7,4,0,4,0,,,,,0,16,16,34,,,,,,down,0.7002156148919312,3034.404001266581,None,001,22,2019_Oct_11_1456,ACPT_experiment_5_30_19,3.1.0,59.953725152692755,
,,,C,U,g,n,R,D,g,R,i,,,,,6,7,127,7,4,0,4,0,,,,,0,17,17,3,,,,,,up,0.5003545284707798,3036.3885469041616,None,001,22,2019_Oct_11_1456,ACPT_experiment_5_30_19,3.1.0,59.953725152692755,
,,,C,U,g,n,R,D,d,L,c,,,,,6,7,127,7,4,0,4,0,,,,,0,18,18,0,,,,,,up,0.8673441697173985,3038.156520169485,None,001,22,2019_Oct_11_1456,ACPT_experiment_5_30_19,3.1.0,59.953725152692755,
,,,C,U,g,n,L,D,y,L,y,,,,,6,7,127,7,4,0,4,0,,,,,0,19,19,32,,,,,,down,0.6838547824809211,3040.308172326493,None,001,22,2019_Oct_11_1456,ACPT_experiment_5_30_19,3.1.0,59.953725152692755,
,,,C,U,g,n,L,U,y,L,u,,,,,6,7,127,7,4,0,4,0,,,,,0,20,20,24,,,,,,down,0.633814499957225,3042.276334492557,None,001,22,2019_Oct_11_1456,ACPT_experiment_5_30_19,3.1.0,59.953725152692755,
,,,C,U,g,n,R,G,d,R,i,,,,,6,7,127,7,4,0,4,0,,,,,0,21,21,5,,,,,,up,0.4670188909803983,3044.1944527538344,None,001,22,2019_Oct_11_1456,ACPT_experiment_5_30_19,3.1.0,59.953725152692755,
,,,C,U,g,n,R,D,g,L,i,,,,,6,7,127,7,4,0,4,0,,,,,0,22,22,2,,,,,,up,0.6004519973866991,3045.9457892914597,None,001,22,2019_Oct_11_1456,ACPT_experiment_5_30_19,3.1.0,59.953725152692755,
,,,C,U,g,n,L,G,g,R,c ,,,,,6,7,127,7,4,0,4,0,,,,,0,23,23,19,,,,,,up,0.5337595925702772,3047.813845838524,None,001,22,2019_Oct_11_1456,ACPT_experiment_5_30_19,3.1.0,59.953725152692755,
,,,C,U,g,n,R,U,y,L,u,,,,,6,7,127,7,4,0,4,0,,,,,0,24,24,30,,,,,,down,0.9840711218203069,3049.6319266999944,None,001,22,2019_Oct_11_1456,ACPT_experiment_5_30_19,3.1.0,59.953725152692755,
,,,C,U,g,n,L,D,d,R,c ,,,,,6,7,127,7,4,0,4,0,,,,,0,25,25,13,,,,,,up,0.6838565936122905,3051.900300375719,None,001,22,2019_Oct_11_1456,ACPT_experiment_5_30_19,3.1.0,59.953725152692755,
,,,C,U,g,n,L,G,y,R,y,,,,,6,7,127,7,4,0,4,0,,,,,0,26,26,35,,,,,,down,0.6004522992443526,3053.8684688807316,None,001,22,2019_Oct_11_1456,ACPT_experiment_5_30_19,3.1.0,59.953725152692755,
,,,C,U,g,n,R,D,y,L,y,,,,,6,7,127,7,4,0,4,0,,,,,0,27,27,26,,,,,,down,0.7003535625372024,3055.7700572709127,None,001,22,2019_Oct_11_1456,ACPT_experiment_5_30_19,3.1.0,59.953725152692755,
,,,C,U,g,n,L,U,d,L,u,,,,,6,7,127,7,4,0,4,0,,,,,0,28,28,20,,,,,,up,0.7172332833542896,3057.7714337288326,None,001,22,2019_Oct_11_1456,ACPT_experiment_5_30_19,3.1.0,59.953725152692755,
,,,C,U,g,n,R,G,g,L,c ,,,,,6,7,127,7,4,0,4,0,,,,,0,29,29,6,,,,,,up,0.5334402301814407,3059.7899244487617,None,001,22,2019_Oct_11_1456,ACPT_experiment_5_30_19,3.1.0,59.953725152692755,
,,,C,U,g,n,R,U,d,L,u,,,,,6,7,127,7,4,0,4,0,,,,,0,30,30,8,,,,,,up,0.5170603809237946,3061.6076805144567,None,001,22,2019_Oct_11_1456,ACPT_experiment_5_30_19,3.1.0,59.953725152692755,
,,,C,U,g,n,R,U,g,L,u,,,,,6,7,127,7,4,0,4,0,,,,,0,31,31,10,,,,,,up,0.4670222113818454,3063.3923638582,None,001,22,2019_Oct_11_1456,ACPT_experiment_5_30_19,3.1.0,59.953725152692755,
,,,C,U,g,n,R,G,y,R,y,,,,,6,7,127,7,4,0,4,0,,,,,0,32,32,29,,,,,,down,0.8005941106312093,3065.1437118663034,None,001,22,2019_Oct_11_1456,ACPT_experiment_5_30_19,3.1.0,59.953725152692755,
,,,C,U,g,n,L,G,d,L,i,,,,,6,7,127,7,4,0,4,0,,,,,0,33,33,16,,,,,,up,0.6504980151548807,3067.228616982773,None,001,22,2019_Oct_11_1456,ACPT_experiment_5_30_19,3.1.0,59.953725152692755,
,,,C,U,g,n,L,U,d,R,u,,,,,6,7,127,7,4,0,4,0,,,,,0,34,34,21,,,,,,up,0.7837524235146702,3069.1635639514116,None,001,22,2019_Oct_11_1456,ACPT_experiment_5_30_19,3.1.0,59.953725152692755,
,,,C,U,g,n,L,D,g,L,i,,,,,6,7,127,7,4,0,4,0,,,,,0,35,35,14,,,,,,up,0.633806349876977,3071.2316578681002,None,001,22,2019_Oct_11_1456,ACPT_experiment_5_30_19,3.1.0,59.953725152692755,
,,,C,U,g,n,R,G,d,R,i,,,,,6,7,127,7,4,0,4,0,,,,,1,0,36,5,,,,,,up,0.4503154533667839,3073.1664711150606,None,001,22,2019_Oct_11_1456,ACPT_experiment_5_30_19,3.1.0,59.953725152692755,
,,,C,U,g,n,R,G,y,R,y,,,,,6,7,127,7,4,0,4,0,,,,,1,1,37,29,,,,,,down,0.8506437506548536,3074.9011054224884,None,001,22,2019_Oct_11_1456,ACPT_experiment_5_30_19,3.1.0,59.953725152692755,
,,,C,U,g,n,L,G,g,L,c ,,,,,6,7,127,7,4,0,4,0,,,,,1,2,38,18,,,,,,up,0.5670882873964729,3077.0360638012407,None,001,22,2019_Oct_11_1456,ACPT_experiment_5_30_19,3.1.0,59.953725152692755,
,,,C,U,g,n,L,U,y,R,u,,,,,6,7,127,7,4,0,4,0,,,,,1,3,39,25,,,,,,down,0.7005500700142875,3078.887447699881,None,001,22,2019_Oct_11_1456,ACPT_experiment_5_30_19,3.1.0,59.953725152692755,
,,,C,U,g,n,L,U,g,L,u,,,,,6,7,127,7,4,0,4,0,,,,,1,4,40,22,,,,,,up,0.8339650651359989,3080.872309379445,None,001,22,2019_Oct_11_1456,ACPT_experiment_5_30_19,3.1.0,59.953725152692755,
,,,C,U,g,n,L,G,y,L,y,,,,,6,7,127,7,4,0,4,0,,,,,1,5,41,34,,,,,,down,0.6838843642544816,3082.9905591890474,None,001,22,2019_Oct_11_1456,ACPT_experiment_5_30_19,3.1.0,59.953725152692755,
,,,C,U,g,n,L,D,d,R,c ,,,,,6,7,127,7,4,0,4,0,,,,,1,6,42,13,,,,,,up,0.6672020564765262,3084.9587352404324,None,001,22,2019_Oct_11_1456,ACPT_experiment_5_30_19,3.1.0,59.953725152692755,
,,,C,U,g,n,R,U,g,R,u,,,,,6,7,127,7,4,0,4,0,,,,,1,7,43,11,,,,,,up,0.4837096506926173,3086.9102286821817,None,001,22,2019_Oct_11_1456,ACPT_experiment_5_30_19,3.1.0,59.953725152692755,
,,,C,U,g,n,L,D,y,R,y,,,,,6,7,127,7,4,0,4,0,,,,,1,8,44,33,,,,,,down,0.6171361162923859,3088.678234547826,None,001,22,2019_Oct_11_1456,ACPT_experiment_5_30_19,3.1.0,59.953725152692755,
,,,C,U,g,n,R,U,g,L,u,,,,,6,7,127,7,4,0,4,0,,,,,1,9,45,10,,,,,,up,0.6171647925002617,3090.5796780476976,None,001,22,2019_Oct_11_1456,ACPT_experiment_5_30_19,3.1.0,59.953725152692755,
,,,C,U,g,n,R,D,d,R,c ,,,,,6,7,127,7,4,0,4,0,,,,,1,10,46,1,,,,,,up,0.5637790531473001,3092.5011342194393,None,001,22,2019_Oct_11_1456,ACPT_experiment_5_30_19,3.1.0,59.953725152692755,
,,,C,U,g,n,R,U,y,L,u,,,,,6,7,127,7,4,0,4,0,,,,,1,11,47,30,,,,,,down,0.7168924892794166,3094.3660581173117,None,001,22,2019_Oct_11_1456,ACPT_experiment_5_30_19,3.1.0,59.953725152692755,
,,,C,U,g,n,R,G,g,R,c ,,,,,6,7,127,7,4,0,4,0,,,,,1,12,48,7,,,,,,up,0.8006037699851731,3096.3840924327724,None,001,22,2019_Oct_11_1456,ACPT_experiment_5_30_19,3.1.0,59.953725152692755,
,,,C,U,g,n,R,D,g,R,i,,,,,6,7,127,7,4,0,4,0,,,,,1,13,49,3,,,,,,up,0.45034080916957464,3098.4523218822706,None,001,22,2019_Oct_11_1456,ACPT_experiment_5_30_19,3.1.0,59.953725152692755,
,,,C,U,g,n,L,U,d,R,u,,,,,6,7,127,7,4,0,4,0,,,,,1,14,50,21,,,,,,up,0.48368580415990436,3100.186986073326,None,001,22,2019_Oct_11_1456,ACPT_experiment_5_30_19,3.1.0,59.953725152692755,
,,,C,U,g,n,R,D,y,L,y,,,,,6,7,127,7,4,0,4,0,,,,,1,15,51,26,,,,,,down,0.7339146855665604,3101.954983487032,None,001,22,2019_Oct_11_1456,ACPT_experiment_5_30_19,3.1.0,59.953725152692755,
,,,C,U,g,n,L,D,g,R,i,,,,,6,7,127,7,4,0,4,0,,,,,1,16,52,15,,,,,,up,0.7672527378999803,3103.97317657812,None,001,22,2019_Oct_11_1456,ACPT_experiment_5_30_19,3.1.0,59.953725152692755,
,,,C,U,g,n,R,D,d,L,c,,,,,6,7,127,7,4,0,4,0,,,,,1,17,53,0,,,,,,up,1.0174290965696855,3106.024748773789,None,001,22,2019_Oct_11_1456,ACPT_experiment_5_30_19,3.1.0,59.953725152692755,
,,,C,U,g,n,L,U,y,L,u,,,,,6,7,127,7,4,0,4,0,,,,,1,18,54,24,,,,,,down,0.7005274309049128,3108.3264897817626,None,001,22,2019_Oct_11_1456,ACPT_experiment_5_30_19,3.1.0,59.953725152692755,
,,,C,U,g,n,L,D,g,L,i,,,,,6,7,127,7,4,0,4,0,,,,,1,19,55,14,,,,,,up,0.8505960575930658,3110.3113728930166,None,001,22,2019_Oct_11_1456,ACPT_experiment_5_30_19,3.1.0,59.953725152692755,
,,,C,U,g,n,L,D,d,L,c ,,,,,6,7,127,7,4,0,4,0,,,,,1,20,56,12,,,,,,up,0.6838472361123422,3112.4296051950423,None,001,22,2019_Oct_11_1456,ACPT_experiment_5_30_19,3.1.0,59.953725152692755,
,,,C,U,g,n,L,G,g,R,c ,,,,,6,7,127,7,4,0,4,0,,,,,1,21,57,19,,,,,,up,0.4503335646550113,3114.397770077796,None,001,22,2019_Oct_11_1456,ACPT_experiment_5_30_19,3.1.0,59.953725152692755,
,,,C,U,g,n,L,U,g,R,u,,,,,6,7,127,7,4,0,4,0,,,,,1,22,58,23,,,,,,up,0.45037461690662894,3116.1324128371616,None,001,22,2019_Oct_11_1456,ACPT_experiment_5_30_19,3.1.0,59.953725152692755,
,,,C,U,g,n,R,U,d,L,u,,,,,6,7,127,7,4,0,4,0,,,,,1,23,59,8,,,,,,up,0.6667018830594316,3117.884188875383,None,001,22,2019_Oct_11_1456,ACPT_experiment_5_30_19,3.1.0,59.953725152692755,
,,,C,U,g,n,R,G,d,L,i,,,,,6,7,127,7,4,0,4,0,,,,,1,24,60,4,,,,,,up,0.4670291540423932,3119.8352099143613,None,001,22,2019_Oct_11_1456,ACPT_experiment_5_30_19,3.1.0,59.953725152692755,
,,,C,U,g,n,L,G,d,R,i,,,,,6,7,127,7,4,0,4,0,,,,,1,25,61,17,,,,,,up,0.5504077907498868,3121.586560337304,None,001,22,2019_Oct_11_1456,ACPT_experiment_5_30_19,3.1.0,59.953725152692755,
,,,C,U,g,n,L,D,y,L,y,,,,,6,7,127,7,4,0,4,0,,,,,1,26,62,32,,,,,,up,0.567094324494974,3123.421280643166,None,001,22,2019_Oct_11_1456,ACPT_experiment_5_30_19,3.1.0,59.953725152692755,
,,,C,U,g,n,R,G,g,L,c ,,,,,6,7,127,7,4,0,4,0,,,,,1,27,63,6,,,,,,up,0.5003816954049398,3125.272686879065,None,001,22,2019_Oct_11_1456,ACPT_experiment_5_30_19,3.1.0,59.953725152692755,
,,,C,U,g,n,L,G,d,L,i,,,,,6,7,127,7,4,0,4,0,,,,,1,28,64,16,,,,,,up,0.5170715495478362,3127.0573608653085,None,001,22,2019_Oct_11_1456,ACPT_experiment_5_30_19,3.1.0,59.953725152692755,
,,,C,U,g,n,L,U,d,L,u,,,,,6,7,127,7,4,0,4,0,,,,,1,29,65,20,,,,,,up,0.5337538573257916,3128.8587539856144,None,001,22,2019_Oct_11_1456,ACPT_experiment_5_30_19,3.1.0,59.953725152692755,
,,,C,U,g,n,R,U,y,R,u,,,,,6,7,127,7,4,0,4,0,,,,,1,30,66,31,,,,,,down,0.683435204300622,3130.693861873051,None,001,22,2019_Oct_11_1456,ACPT_experiment_5_30_19,3.1.0,59.953725152692755,
,,,C,U,g,n,R,D,g,L,i,,,,,6,7,127,7,4,0,4,0,,,,,1,31,67,2,,,,,,up,0.633814499960863,3132.661633137139,None,001,22,2019_Oct_11_1456,ACPT_experiment_5_30_19,3.1.0,59.953725152692755,
,,,C,U,g,n,R,D,y,R,y,,,,,6,7,127,7,4,0,4,0,,,,,1,32,68,27,,,,,,down,0.6671972268013633,3134.5797396260805,None,001,22,2019_Oct_11_1456,ACPT_experiment_5_30_19,3.1.0,59.953725152692755,
,,,C,U,g,n,L,G,y,R,y,,,,,6,7,127,7,4,0,4,0,,,,,1,33,69,35,,,,,,down,0.5670991541737749,3136.5312385012166,None,001,22,2019_Oct_11_1456,ACPT_experiment_5_30_19,3.1.0,59.953725152692755,
,,,C,U,g,n,R,U,d,R,u,,,,,6,7,127,7,4,0,4,0,,,,,1,34,70,9,,,,,,up,0.6336931543264654,3138.382646850101,None,001,22,2019_Oct_11_1456,ACPT_experiment_5_30_19,3.1.0,59.953725152692755,
,,,C,U,g,n,R,G,y,L,y,,,,,6,7,127,7,4,0,4,0,,,,,1,35,71,28,,,,,,down,1.1341931768110953,3140.3174537581053,None,001,22,2019_Oct_11_1456,ACPT_experiment_5_30_19,3.1.0,59.953725152692755,
,,,C,U,g,n,,,,,,,,,,6,7,127,7,5,0,5,0,0,0,0,0,,,,,,,,,,,,,,001,22,2019_Oct_11_1456,ACPT_experiment_5_30_19,3.1.0,59.953725152692755,
,,,C,U,g,n,R,D,g,L,i,,,,,6,7,127,7,5,0,5,0,,,,,0,0,0,2,,,,,,up,0.8339551039280195,3180.19774840462,None,001,22,2019_Oct_11_1456,ACPT_experiment_5_30_19,3.1.0,59.953725152692755,
,,,C,U,g,n,R,D,y,L,y,,,,,6,7,127,7,5,0,5,0,,,,,0,1,1,26,,,,,,down,0.683865045546554,3182.3160066661603,None,001,22,2019_Oct_11_1456,ACPT_experiment_5_30_19,3.1.0,59.953725152692755,
,,,C,U,g,n,R,U,y,R,u,,,,,6,7,127,7,5,0,5,0,,,,,0,2,2,31,,,,,,down,0.7338929520228703,3184.300844197338,None,001,22,2019_Oct_11_1456,ACPT_experiment_5_30_19,3.1.0,59.953725152692755,
,,,C,U,g,n,R,G,y,R,y,,,,,6,7,127,7,5,0,5,0,,,,,0,3,3,29,,,,,,down,0.5337339349098329,3186.319049060765,None,001,22,2019_Oct_11_1456,ACPT_experiment_5_30_19,3.1.0,59.953725152692755,
,,,C,U,g,n,L,D,d,R,c ,,,,,6,7,127,7,5,0,5,0,,,,,0,4,4,13,,,,,,up,0.48369003012703615,3188.153783553802,None,001,22,2019_Oct_11_1456,ACPT_experiment_5_30_19,3.1.0,59.953725152692755,
,,,C,U,g,n,R,G,d,L,i,,,,,6,7,127,7,5,0,5,0,,,,,0,5,5,4,,,,,,up,0.6338093684244086,3189.9217930417017,None,001,22,2019_Oct_11_1456,ACPT_experiment_5_30_19,3.1.0,59.953725152692755,
,,,C,U,g,n,L,D,d,L,c ,,,,,6,7,127,7,5,0,5,0,,,,,0,6,6,12,,,,,,up,0.6004501862589677,3191.823231410044,None,001,22,2019_Oct_11_1456,ACPT_experiment_5_30_19,3.1.0,59.953725152692755,
,,,C,U,g,n,R,D,d,R,c ,,,,,6,7,127,7,5,0,5,0,,,,,0,7,7,1,,,,,,up,0.783466868870164,3193.7251107882603,None,001,22,2019_Oct_11_1456,ACPT_experiment_5_30_19,3.1.0,59.953725152692755,
,,,C,U,g,n,L,D,g,R,i,,,,,6,7,127,7,5,0,5,0,,,,,0,8,8,15,,,,,,up,0.617134003310639,3195.7929106983665,None,001,22,2019_Oct_11_1456,ACPT_experiment_5_30_19,3.1.0,59.953725152692755,
,,,C,U,g,n,L,G,y,R,y,,,,,6,7,127,7,5,0,5,0,,,,,0,9,9,35,,,,,,down,0.7172393204527907,3197.711039222713,None,001,22,2019_Oct_11_1456,ACPT_experiment_5_30_19,3.1.0,59.953725152692755,
,,,C,U,g,n,L,U,g,L,u,,,,,6,7,127,7,5,0,5,0,,,,,0,10,10,22,,,,,,up,0.6171219291172747,3199.7292389546037,None,001,22,2019_Oct_11_1456,ACPT_experiment_5_30_19,3.1.0,59.953725152692755,
,,,C,U,g,n,R,U,g,R,u,,,,,6,7,127,7,5,0,5,0,,,,,0,11,11,11,,,,,,up,0.4836951616598526,3201.614001354121,None,001,22,2019_Oct_11_1456,ACPT_experiment_5_30_19,3.1.0,59.953725152692755,
,,,C,U,g,n,R,D,d,L,c,,,,,6,7,127,7,5,0,5,0,,,,,0,12,12,0,,,,,,up,0.5504132241403568,3203.3820096346008,None,001,22,2019_Oct_11_1456,ACPT_experiment_5_30_19,3.1.0,59.953725152692755,
,,,C,U,g,n,L,G,y,L,y,,,,,6,7,127,7,5,0,5,0,,,,,0,13,13,34,,,,,,up,0.5003656970984593,3205.2167562018312,None,001,22,2019_Oct_11_1456,ACPT_experiment_5_30_19,3.1.0,59.953725152692755,
,,,C,U,g,n,R,U,g,L,u,,,,,6,7,127,7,5,0,5,0,,,,,0,14,14,10,,,,,,up,0.5833440743335814,3207.0185097367776,None,001,22,2019_Oct_11_1456,ACPT_experiment_5_30_19,3.1.0,59.953725152692755,
,,,C,U,g,n,L,U,y,L,u,,,,,6,7,127,7,5,0,5,0,,,,,0,15,15,24,,,,,,down,0.7170340591837885,3208.9030291431754,None,001,22,2019_Oct_11_1456,ACPT_experiment_5_30_19,3.1.0,59.953725152692755,
,,,C,U,g,n,R,D,g,R,i,,,,,6,7,127,7,5,0,5,0,,,,,0,16,16,3,,,,,,up,0.7505550355272135,3210.921084286614,None,001,22,2019_Oct_11_1456,ACPT_experiment_5_30_19,3.1.0,59.953725152692755,
,,,C,U,g,n,L,U,d,R,u,,,,,6,7,127,7,5,0,5,0,,,,,0,17,17,21,,,,,,up,0.5504126204286877,3212.9559512335454,None,001,22,2019_Oct_11_1456,ACPT_experiment_5_30_19,3.1.0,59.953725152692755,
,,,C,U,g,n,L,G,g,R,c ,,,,,6,7,127,7,5,0,5,0,,,,,0,18,18,19,,,,,,up,0.4836924449700746,3214.7906811987614,None,001,22,2019_Oct_11_1456,ACPT_experiment_5_30_19,3.1.0,59.953725152692755,
,,,C,U,g,n,L,D,g,L,i,,,,,6,7,127,7,5,0,5,0,,,,,0,19,19,14,,,,,,up,0.5337103902347735,3216.5420246790436,None,001,22,2019_Oct_11_1456,ACPT_experiment_5_30_19,3.1.0,59.953725152692755,
,,,C,U,g,n,L,G,d,R,i,,,,,6,7,127,7,5,0,5,0,,,,,0,20,20,17,,,,,,up,0.45033597949077375,3218.3600524140693,None,001,22,2019_Oct_11_1456,ACPT_experiment_5_30_19,3.1.0,59.953725152692755,
,,,C,U,g,n,R,U,d,R,u,,,,,6,7,127,7,5,0,5,0,,,,,0,21,21,9,,,,,,up,0.43367661268348456,3220.111394988786,None,001,22,2019_Oct_11_1456,ACPT_experiment_5_30_19,3.1.0,59.953725152692755,
,,,C,U,g,n,R,G,g,L,c ,,,,,6,7,127,7,5,0,5,0,,,,,0,22,22,6,,,,,,up,0.4336675570375519,3221.8293506106984,None,001,22,2019_Oct_11_1456,ACPT_experiment_5_30_19,3.1.0,59.953725152692755,
,,,C,U,g,n,L,U,d,L,u,,,,,6,7,127,7,5,0,5,0,,,,,0,23,23,20,,,,,,up,0.40030475261301035,3223.5473279661546,None,001,22,2019_Oct_11_1456,ACPT_experiment_5_30_19,3.1.0,59.953725152692755,
,,,C,U,g,n,R,G,g,R,c ,,,,,6,7,127,7,5,0,5,0,,,,,0,24,24,7,,,,,,up,0.3836266708058247,3225.2319373856535,None,001,22,2019_Oct_11_1456,ACPT_experiment_5_30_19,3.1.0,59.953725152692755,
,,,C,U,g,n,R,D,y,R,y,,,,,6,7,127,7,5,0,5,0,,,,,0,25,25,27,,,,,,down,0.5668471054086694,3226.9167943260964,None,001,22,2019_Oct_11_1456,ACPT_experiment_5_30_19,3.1.0,59.953725152692755,
,,,C,U,g,n,L,D,y,R,y,,,,,6,7,127,7,5,0,5,0,,,,,0,26,26,33,,,,,,down,0.4002917728575994,3228.767953946617,None,001,22,2019_Oct_11_1456,ACPT_experiment_5_30_19,3.1.0,59.953725152692755,
,,,C,U,g,n,R,G,d,R,i,,,,,6,7,127,7,5,0,5,0,,,,,0,27,27,5,,,,,,up,0.5003469821022009,3230.452596871999,None,001,22,2019_Oct_11_1456,ACPT_experiment_5_30_19,3.1.0,59.953725152692755,
,,,C,U,g,n,L,G,g,L,c ,,,,,6,7,127,7,5,0,5,0,,,,,0,28,28,18,,,,,,up,0.4837048210138164,3232.2372527469543,None,001,22,2019_Oct_11_1456,ACPT_experiment_5_30_19,3.1.0,59.953725152692755,
,,,C,U,g,n,L,G,d,L,i,,,,,6,7,127,7,5,0,5,0,,,,,0,29,29,16,,,,,,up,0.48037023095821496,3234.025277623414,None,001,22,2019_Oct_11_1456,ACPT_experiment_5_30_19,3.1.0,59.953725152692755,
,,,C,U,g,n,L,D,y,L,y,,,,,6,7,127,7,5,0,5,0,,,,,0,30,30,32,,,,,,down,0.6171361162960238,3235.7899561435133,None,001,22,2019_Oct_11_1456,ACPT_experiment_5_30_19,3.1.0,59.953725152692755,
,,,C,U,g,n,L,U,y,R,u,,,,,6,7,127,7,5,0,5,0,,,,,0,31,31,25,,,,,,down,0.5670955319146742,3237.6913996433886,None,001,22,2019_Oct_11_1456,ACPT_experiment_5_30_19,3.1.0,59.953725152692755,
,,,C,U,g,n,L,U,g,R,u,,,,,6,7,127,7,5,0,5,0,,,,,0,32,32,23,,,,,,up,0.41698192885814933,3239.5428073885614,None,001,22,2019_Oct_11_1456,ACPT_experiment_5_30_19,3.1.0,59.953725152692755,
,,,C,U,g,n,R,U,d,L,u,,,,,6,7,127,7,5,0,5,0,,,,,0,33,33,8,,,,,,up,0.5334996955789393,3241.2610470558448,None,001,22,2019_Oct_11_1456,ACPT_experiment_5_30_19,3.1.0,59.953725152692755,
,,,C,U,g,n,R,G,y,L,y,,,,,6,7,127,7,5,0,5,0,,,,,0,34,34,28,,,,,,down,0.5504412966329255,3243.0787988955726,None,001,22,2019_Oct_11_1456,ACPT_experiment_5_30_19,3.1.0,59.953725152692755,
,,,C,U,g,n,R,U,y,L,u,,,,,6,7,127,7,5,0,5,0,,,,,0,35,35,30,,,,,,down,0.4169737787779013,3244.8968800588973,None,001,22,2019_Oct_11_1456,ACPT_experiment_5_30_19,3.1.0,59.953725152692755,
,,,C,U,g,n,L,G,y,L,y,,,,,6,7,127,7,5,0,5,0,,,,,1,0,36,34,,,,,,down,0.6838744030428643,3246.5814644244474,None,001,22,2019_Oct_11_1456,ACPT_experiment_5_30_19,3.1.0,59.953725152692755,
,,,C,U,g,n,R,G,g,R,c ,,,,,6,7,127,7,5,0,5,0,,,,,1,1,37,7,,,,,,up,0.5833670153006096,3248.566702215101,None,001,22,2019_Oct_11_1456,ACPT_experiment_5_30_19,3.1.0,59.953725152692755,
,,,C,U,g,n,L,G,g,R,c ,,,,,6,7,127,7,5,0,5,0,,,,,1,2,38,19,,,,,,up,0.4003059600327106,3250.434410119864,None,001,22,2019_Oct_11_1456,ACPT_experiment_5_30_19,3.1.0,59.953725152692755,
,,,C,U,g,n,L,D,g,R,i,,,,,6,7,127,7,5,0,5,0,,,,,1,3,39,15,,,,,,up,0.5170646068909264,3252.1190228597643,None,001,22,2019_Oct_11_1456,ACPT_experiment_5_30_19,3.1.0,59.953725152692755,
,,,C,U,g,n,R,U,g,L,u,,,,,6,7,127,7,5,0,5,0,,,,,1,4,40,10,,,,,,up,0.5170869441462855,3253.9203948502345,None,001,22,2019_Oct_11_1456,ACPT_experiment_5_30_19,3.1.0,59.953725152692755,
,,,C,U,g,n,R,D,y,R,y,,,,,6,7,127,7,5,0,5,0,,,,,1,5,41,27,,,,,,down,0.7169353526587656,3255.738715082569,None,001,22,2019_Oct_11_1456,ACPT_experiment_5_30_19,3.1.0,59.953725152692755,
,,,C,U,g,n,R,D,d,R,c ,,,,,6,7,127,7,5,0,5,0,,,,,1,6,42,1,,,,,,up,0.6506051736105292,3257.739956611391,None,001,22,2019_Oct_11_1456,ACPT_experiment_5_30_19,3.1.0,59.953725152692755,
,,,C,U,g,n,L,D,y,L,y,,,,,6,7,127,7,5,0,5,0,,,,,1,7,43,32,,,,,,down,0.7004963398612745,3259.6747940067344,None,001,22,2019_Oct_11_1456,ACPT_experiment_5_30_19,3.1.0,59.953725152692755,
,,,C,U,g,n,R,D,d,L,c,,,,,6,7,127,7,5,0,5,0,,,,,1,8,44,0,,,,,,up,1.1508803142678516,3261.6596016542844,None,001,22,2019_Oct_11_1456,ACPT_experiment_5_30_19,3.1.0,59.953725152692755,
,,,C,U,g,n,R,G,y,R,y,,,,,6,7,127,7,5,0,5,0,,,,,1,9,45,29,,,,,,down,0.6171415496828558,3264.0947848243104,None,001,22,2019_Oct_11_1456,ACPT_experiment_5_30_19,3.1.0,59.953725152692755,
,,,C,U,g,n,R,U,d,L,u,,,,,6,7,127,7,5,0,5,0,,,,,1,10,46,8,,,,,,up,0.5837805563860456,3265.996232248295,None,001,22,2019_Oct_11_1456,ACPT_experiment_5_30_19,3.1.0,59.953725152692755,
,,,C,U,g,n,R,G,y,L,y,,,,,6,7,127,7,5,0,5,0,,,,,1,11,47,28,,,,,,down,0.6171512090331817,3267.864294228746,None,001,22,2019_Oct_11_1456,ACPT_experiment_5_30_19,3.1.0,59.953725152692755,
,,,C,U,g,n,L,U,y,L,u,,,,,6,7,127,7,5,0,5,0,,,,,1,12,48,24,,,,,,down,0.550406281479809,3269.765762480716,None,001,22,2019_Oct_11_1456,ACPT_experiment_5_30_19,3.1.0,59.953725152692755,
,,,C,U,g,n,R,D,y,L,y,,,,,6,7,127,7,5,0,5,0,,,,,1,13,49,26,,,,,,down,0.5004070512077305,3271.600460751177,None,001,22,2019_Oct_11_1456,ACPT_experiment_5_30_19,3.1.0,59.953725152692755,
,,,C,U,g,n,L,U,g,R,u,,,,,6,7,127,7,5,0,5,0,,,,,1,14,50,23,,,,,,up,0.8339665744097147,3273.3851742804018,None,001,22,2019_Oct_11_1456,ACPT_experiment_5_30_19,3.1.0,59.953725152692755,
,,,C,U,g,n,L,G,d,R,i,,,,,6,7,127,7,5,0,5,0,,,,,1,15,51,17,,,,,,up,0.4003307121238322,3275.5034449179857,None,001,22,2019_Oct_11_1456,ACPT_experiment_5_30_19,3.1.0,59.953725152692755,
,,,C,U,g,n,R,G,d,L,i,,,,,6,7,127,7,5,0,5,0,,,,,1,16,52,4,,,,,,up,0.6671818322029139,3277.188055846762,None,001,22,2019_Oct_11_1456,ACPT_experiment_5_30_19,3.1.0,59.953725152692755,
,,,C,U,g,n,R,U,y,L,u,,,,,6,7,127,7,5,0,5,0,,,,,1,17,53,30,,,,,,down,0.9672143419666099,3279.1563822218395,None,001,22,2019_Oct_11_1456,ACPT_experiment_5_30_19,3.1.0,59.953725152692755,
,,,C,U,g,n,L,G,y,R,y,,,,,6,7,127,7,5,0,5,0,,,,,1,18,54,35,,,,,,down,1.2175651727193326,3281.4413117281747,None,001,22,2019_Oct_11_1456,ACPT_experiment_5_30_19,3.1.0,59.953725152692755,
,,,C,U,g,n,R,D,g,R,i,,,,,6,7,127,7,5,0,5,0,,,,,1,19,55,3,,,,,,up,0.5837817638057459,3283.9431891141485,None,001,22,2019_Oct_11_1456,ACPT_experiment_5_30_19,3.1.0,59.953725152692755,
,,,C,U,g,n,L,D,d,L,c ,,,,,6,7,127,7,5,0,5,0,,,,,1,20,56,12,,,,,,up,0.5836214789014775,3285.8114029275694,None,001,22,2019_Oct_11_1456,ACPT_experiment_5_30_19,3.1.0,59.953725152692755,
,,,C,U,g,n,L,U,d,L,u,,,,,6,7,127,7,5,0,5,0,,,,,1,21,57,20,,,,,,up,0.5671060968306847,3287.679364994079,None,001,22,2019_Oct_11_1456,ACPT_experiment_5_30_19,3.1.0,59.953725152692755,
,,,C,U,g,n,R,U,d,R,u,,,,,6,7,127,7,5,0,5,0,,,,,1,22,58,9,,,,,,up,0.5137357520761725,3289.550773940633,None,001,22,2019_Oct_11_1456,ACPT_experiment_5_30_19,3.1.0,59.953725152692755,
