facing_vig,person_vig,text_vig,facing_train,person_train,food_train,correct_key_train,facing_exp,person_exp,food_exp,showL_R,consistent,vig_random.thisRepN,vig_random.thisTrialN,vig_random.thisN,vig_random.thisIndex,trainTrials.thisRepN,trainTrials.thisTrialN,trainTrials.thisN,trainTrials.thisIndex,expBlock.thisRepN,expBlock.thisTrialN,expBlock.thisN,expBlock.thisIndex,breakLoop.thisRepN,breakLoop.thisTrialN,breakLoop.thisN,breakLoop.thisIndex,expTrials.thisRepN,expTrials.thisTrialN,expTrials.thisN,expTrials.thisIndex,train_resp.keys,train_resp.corr,train_resp.rt,train_resp.started,train_resp.stopped,exp_resp.keys,exp_resp.rt,exp_resp.started,exp_resp.stopped,session,participant,date,expName,psychopyVersion,frameRate,
C,G,"cannot eat dairy products because she is lactose intolerant. She enjoys eating wheat products. She thinks eating insects, like crickets, is disgusting.",,,,,,,,,,0,0,0,0,,,,,,,,,,,,,,,,,,,,,,,,,,001,23,2019_Oct_11_1550,ACPT_experiment_5_30_19,3.1.0,59.94602262919583,
C,U,"did not report her food preferences, so her food preferences are unknown.",,,,,,,,,,0,1,1,2,,,,,,,,,,,,,,,,,,,,,,,,,,001,23,2019_Oct_11_1550,ACPT_experiment_5_30_19,3.1.0,59.94602262919583,
C,D,"is allergic to gluten, meaning she can’t eat wheat products. She enjoys eating dairy products. She thinks eating insects, like crickets, is disgusting.",,,,,,,,,,0,2,2,1,,,,,,,,,,,,,,,,,,,,,,,,,,001,23,2019_Oct_11_1550,ACPT_experiment_5_30_19,3.1.0,59.94602262919583,
,,,C,G,y,b,,,,,,,,,,0,0,0,14,,,,,,,,,,,,,n,0,1.401079010192916,856.9798170820213,None,,,,,001,23,2019_Oct_11_1550,ACPT_experiment_5_30_19,3.1.0,59.94602262919583,
,,,C,G,g,v,,,,,,,,,,0,1,1,4,,,,,,,,,,,,,v,1,3.1357235806863173,861.6667215036214,None,,,,,001,23,2019_Oct_11_1550,ACPT_experiment_5_30_19,3.1.0,59.94602262919583,
,,,C,D,d,v,,,,,,,,,,0,2,2,9,,,,,,,,,,,,,b,0,1.4678103542828467,868.0882698920032,None,,,,,001,23,2019_Oct_11_1550,ACPT_experiment_5_30_19,3.1.0,59.94602262919583,
,,,C,D,d,v,,,,,,,,,,0,3,3,0,,,,,,,,,,,,,v,1,0.23816646145860432,None,None,,,,,001,23,2019_Oct_11_1550,ACPT_experiment_5_30_19,3.1.0,59.94602262919583,
,,,C,G,d,b,,,,,,,,,,0,4,4,12,,,,,,,,,,,,,b,1,1.8347372097305197,876.0943583034641,None,,,,,001,23,2019_Oct_11_1550,ACPT_experiment_5_30_19,3.1.0,59.94602262919583,
,,,C,U,d,n,,,,,,,,,,0,5,5,15,,,,,,,,,,,,,n,1,1.9181312410364626,881.2149148875069,None,,,,,001,23,2019_Oct_11_1550,ACPT_experiment_5_30_19,3.1.0,59.94602262919583,
,,,C,U,y,n,,,,,,,,,,0,6,6,17,,,,,,,,,,,,,b,0,1.3343434401358536,886.4188766714833,None,,,,,001,23,2019_Oct_11_1550,ACPT_experiment_5_30_19,3.1.0,59.94602262919583,
,,,C,D,y,b,,,,,,,,,,0,7,7,2,,,,,,,,,,,,,b,1,1.868102127140446,891.0557344716071,None,,,,,001,23,2019_Oct_11_1550,ACPT_experiment_5_30_19,3.1.0,59.94602262919583,
,,,C,D,g,b,,,,,,,,,,0,8,8,10,,,,,,,,,,,,,b,1,5.387468376935431,896.2096420877351,None,,,,,001,23,2019_Oct_11_1550,ACPT_experiment_5_30_19,3.1.0,59.94602262919583,
,,,C,G,g,v,,,,,,,,,,0,9,9,13,,,,,,,,,,,,,v,1,1.3010241028023302,904.9162358946996,None,,,,,001,23,2019_Oct_11_1550,ACPT_experiment_5_30_19,3.1.0,59.94602262919583,
,,,C,G,g,v,,,,,,,,,,0,10,10,19,,,,,,,,,,,,,v,1,2.5687062291654,909.503084503347,None,,,,,001,23,2019_Oct_11_1550,ACPT_experiment_5_30_19,3.1.0,59.94602262919583,
,,,C,D,g,b,,,,,,,,,,0,11,11,1,,,,,,,,,,,,,b,1,2.5686380099796224,915.3575346431207,None,,,,,001,23,2019_Oct_11_1550,ACPT_experiment_5_30_19,3.1.0,59.94602262919583,
,,,C,D,y,b,,,,,,,,,,0,12,12,11,,,,,,,,,,,,,b,1,2.0348720784604666,921.2120025923286,None,,,,,001,23,2019_Oct_11_1550,ACPT_experiment_5_30_19,3.1.0,59.94602262919583,
,,,C,G,y,b,,,,,,,,,,0,13,13,5,,,,,,,,,,,,,b,1,1.0674868866735778,926.5326979692109,None,,,,,001,23,2019_Oct_11_1550,ACPT_experiment_5_30_19,3.1.0,59.94602262919583,
,,,C,U,g,n,,,,,,,,,,0,14,14,16,,,,,,,,,,,,,n,1,1.1171229856117861,930.9030985697791,None,,,,,001,23,2019_Oct_11_1550,ACPT_experiment_5_30_19,3.1.0,59.94602262919583,
,,,C,G,d,b,,,,,,,,,,0,15,15,3,,,,,,,,,,,,,b,1,3.619454663068609,935.3060354963127,None,,,,,001,23,2019_Oct_11_1550,ACPT_experiment_5_30_19,3.1.0,59.94602262919583,
,,,C,D,d,v,,,,,,,,,,0,16,16,18,,,,,,,,,,,,,v,1,1.4344303441357624,942.211289611274,None,,,,,001,23,2019_Oct_11_1550,ACPT_experiment_5_30_19,3.1.0,59.94602262919583,
,,,C,U,y,n,,,,,,,,,,0,17,17,8,,,,,,,,,,,,,n,1,1.7010638268984621,946.9484634231958,None,,,,,001,23,2019_Oct_11_1550,ACPT_experiment_5_30_19,3.1.0,59.94602262919583,
,,,C,U,d,n,,,,,,,,,,0,18,18,6,,,,,,,,,,,,,n,1,1.3677234502865758,951.918667938884,None,,,,,001,23,2019_Oct_11_1550,ACPT_experiment_5_30_19,3.1.0,59.94602262919583,
,,,C,U,g,n,,,,,,,,,,0,19,19,7,,,,,,,,,,,,,n,1,1.2006501348841994,956.5724782068355,None,,,,,001,23,2019_Oct_11_1550,ACPT_experiment_5_30_19,3.1.0,59.94602262919583,
,,,C,D,y,b,,,,,,,,,,1,0,20,11,,,,,,,,,,,,,b,1,1.1675765073632647,961.0589462067546,None,,,,,001,23,2019_Oct_11_1550,ACPT_experiment_5_30_19,3.1.0,59.94602262919583,
,,,C,D,d,v,,,,,,,,,,1,1,21,9,,,,,,,,,,,,,v,1,3.616092000516801,965.5323502324718,None,,,,,001,23,2019_Oct_11_1550,ACPT_experiment_5_30_19,3.1.0,59.94602262919583,
,,,C,U,y,n,,,,,,,,,,1,2,22,8,,,,,,,,,,,,,n,1,1.20092723759808,972.4342622110053,None,,,,,001,23,2019_Oct_11_1550,ACPT_experiment_5_30_19,3.1.0,59.94602262919583,
,,,C,G,d,b,,,,,,,,,,1,3,23,3,,,,,,,,,,,,,b,1,1.5178313181022531,976.9210097284777,None,,,,,001,23,2019_Oct_11_1550,ACPT_experiment_5_30_19,3.1.0,59.94602262919583,
,,,C,D,d,v,,,,,,,,,,1,4,24,0,,,,,,,,,,,,,v,1,1.6679636361550365,981.7079693593223,None,,,,,001,23,2019_Oct_11_1550,ACPT_experiment_5_30_19,3.1.0,59.94602262919583,
,,,C,D,g,b,,,,,,,,,,1,5,25,10,,,,,,,,,,,,,b,1,1.0174547542264918,986.6450676471686,None,,,,,001,23,2019_Oct_11_1550,ACPT_experiment_5_30_19,3.1.0,59.94602262919583,
,,,C,G,g,v,,,,,,,,,,1,6,26,4,,,,,,,,,,,,,v,1,1.7342485369845235,990.9654143817497,None,,,,,001,23,2019_Oct_11_1550,ACPT_experiment_5_30_19,3.1.0,59.94602262919583,
,,,C,G,g,v,,,,,,,,,,1,7,27,19,,,,,,,,,,,,,v,1,1.2511643294565147,995.9686726025393,None,,,,,001,23,2019_Oct_11_1550,ACPT_experiment_5_30_19,3.1.0,59.94602262919583,
,,,C,G,y,b,,,,,,,,,,1,8,28,14,,,,,,,,,,,,,n,0,2.3684669186768588,1000.5056176688886,None,,,,,001,23,2019_Oct_11_1550,ACPT_experiment_5_30_19,3.1.0,59.94602262919583,
,,,C,U,g,n,,,,,,,,,,1,9,29,7,,,,,,,,,,,,,n,1,1.0674932256224565,1006.1599042637281,None,,,,,001,23,2019_Oct_11_1550,ACPT_experiment_5_30_19,3.1.0,59.94602262919583,
,,,C,U,y,n,,,,,,,,,,1,10,30,17,,,,,,,,,,,,,n,1,1.6813207113773387,1010.5332277243979,None,,,,,001,23,2019_Oct_11_1550,ACPT_experiment_5_30_19,3.1.0,59.94602262919583,
,,,C,D,d,v,,,,,,,,,,1,11,31,18,,,,,,,,,,,,,b,0,2.201667989291309,1015.5003605655656,None,,,,,001,23,2019_Oct_11_1550,ACPT_experiment_5_30_19,3.1.0,59.94602262919583,
,,,C,D,y,b,,,,,,,,,,1,12,32,2,,,,,,,,,,,,,b,1,1.4177791274050833,1020.9711460008293,None,,,,,001,23,2019_Oct_11_1550,ACPT_experiment_5_30_19,3.1.0,59.94602262919583,
,,,C,G,d,b,,,,,,,,,,1,13,33,12,,,,,,,,,,,,,v,0,3.1190488192805788,1025.6747454081087,None,,,,,001,23,2019_Oct_11_1550,ACPT_experiment_5_30_19,3.1.0,59.94602262919583,
,,,C,U,g,n,,,,,,,,,,1,14,34,16,,,,,,,,,,,,,n,1,1.2843285134185862,1032.0796163183913,None,,,,,001,23,2019_Oct_11_1550,ACPT_experiment_5_30_19,3.1.0,59.94602262919583,
,,,C,G,g,v,,,,,,,,,,1,15,35,13,,,,,,,,,,,,,v,1,2.481946818617871,1036.6697569555618,None,,,,,001,23,2019_Oct_11_1550,ACPT_experiment_5_30_19,3.1.0,59.94602262919583,
,,,C,G,y,b,,,,,,,,,,1,16,36,5,,,,,,,,,,,,,b,1,1.4010910843862803,1042.4374941704264,None,,,,,001,23,2019_Oct_11_1550,ACPT_experiment_5_30_19,3.1.0,59.94602262919583,
,,,C,D,g,b,,,,,,,,,,1,17,37,1,,,,,,,,,,,,,b,1,5.150592948488338,1047.161074856671,None,,,,,001,23,2019_Oct_11_1550,ACPT_experiment_5_30_19,3.1.0,59.94602262919583,
,,,C,U,d,n,,,,,,,,,,1,18,38,15,,,,,,,,,,,,,n,1,1.084172816706996,1055.5974877831795,None,,,,,001,23,2019_Oct_11_1550,ACPT_experiment_5_30_19,3.1.0,59.94602262919583,
,,,C,U,d,n,,,,,,,,,,1,19,39,6,,,,,,,,,,,,,n,1,1.3341028618524433,1059.9844390828293,None,,,,,001,23,2019_Oct_11_1550,ACPT_experiment_5_30_19,3.1.0,59.94602262919583,
,,,C,G,d,b,,,,,,,,,,2,0,40,12,,,,,,,,,,,,,v,0,1.9515021955412521,1064.6043287186767,None,,,,,001,23,2019_Oct_11_1550,ACPT_experiment_5_30_19,3.1.0,59.94602262919583,
,,,C,U,d,n,,,,,,,,,,2,1,41,6,,,,,,,,,,,,,n,1,1.4511147648991027,1069.8416490811069,None,,,,,001,23,2019_Oct_11_1550,ACPT_experiment_5_30_19,3.1.0,59.94602262919583,
,,,C,U,y,n,,,,,,,,,,2,2,42,17,,,,,,,,,,,,,n,1,1.000791765160102,1074.578586540716,None,,,,,001,23,2019_Oct_11_1550,ACPT_experiment_5_30_19,3.1.0,59.94602262919583,
,,,C,G,g,v,,,,,,,,,,2,3,43,4,,,,,,,,,,,,,v,1,2.0849313778344367,1078.8651741355097,None,,,,,001,23,2019_Oct_11_1550,ACPT_experiment_5_30_19,3.1.0,59.94602262919583,
,,,C,G,y,b,,,,,,,,,,2,4,44,14,,,,,,,,,,,,,b,1,1.1008255427113909,1084.2359448100724,None,,,,,001,23,2019_Oct_11_1550,ACPT_experiment_5_30_19,3.1.0,59.94602262919583,
,,,C,G,g,v,,,,,,,,,,2,5,45,19,,,,,,,,,,,,,v,1,1.1840061626680836,1088.6395120094421,None,,,,,001,23,2019_Oct_11_1550,ACPT_experiment_5_30_19,3.1.0,59.94602262919583,
,,,C,D,g,b,,,,,,,,,,2,6,46,1,,,,,,,,,,,,,b,1,1.384396400564583,1093.1093378482728,None,,,,,001,23,2019_Oct_11_1550,ACPT_experiment_5_30_19,3.1.0,59.94602262919583,
,,,C,G,y,b,,,,,,,,,,2,7,47,5,,,,,,,,,,,,,b,1,1.550917019809276,1097.7965072983934,None,,,,,001,23,2019_Oct_11_1550,ACPT_experiment_5_30_19,3.1.0,59.94602262919583,
,,,C,D,d,v,,,,,,,,,,2,8,48,0,,,,,,,,,,,,,v,1,1.2843206651887158,1102.633243088807,None,,,,,001,23,2019_Oct_11_1550,ACPT_experiment_5_30_19,3.1.0,59.94602262919583,
,,,C,D,y,b,,,,,,,,,,2,9,49,11,,,,,,,,,,,,,b,1,1.0672233674267773,1107.2036532883576,None,,,,,001,23,2019_Oct_11_1550,ACPT_experiment_5_30_19,3.1.0,59.94602262919583,
,,,C,D,y,b,,,,,,,,,,2,10,50,2,,,,,,,,,,,,,b,1,1.300999048857193,1111.540012816753,None,,,,,001,23,2019_Oct_11_1550,ACPT_experiment_5_30_19,3.1.0,59.94602262919583,
,,,C,U,y,n,,,,,,,,,,2,11,51,8,,,,,,,,,,,,,n,1,1.067057649135677,1116.1439180331363,None,,,,,001,23,2019_Oct_11_1550,ACPT_experiment_5_30_19,3.1.0,59.94602262919583,
,,,C,U,g,n,,,,,,,,,,2,12,52,16,,,,,,,,,,,,,n,1,0.9674123587210488,1120.4801402175945,None,,,,,001,23,2019_Oct_11_1550,ACPT_experiment_5_30_19,3.1.0,59.94602262919583,
,,,C,G,d,b,,,,,,,,,,2,13,53,3,,,,,,,,,,,,,b,1,2.3684771817388537,1124.7333737617519,None,,,,,001,23,2019_Oct_11_1550,ACPT_experiment_5_30_19,3.1.0,59.94602262919583,
,,,C,U,d,n,,,,,,,,,,2,14,54,15,,,,,,,,,,,,,n,1,0.8507143846800318,1130.3709702005908,None,,,,,001,23,2019_Oct_11_1550,ACPT_experiment_5_30_19,3.1.0,59.94602262919583,
,,,C,D,d,v,,,,,,,,,,2,15,55,9,,,,,,,,,,,,,v,1,2.101340507011628,1134.5244168844292,None,,,,,001,23,2019_Oct_11_1550,ACPT_experiment_5_30_19,3.1.0,59.94602262919583,
,,,C,D,g,b,,,,,,,,,,2,16,56,10,,,,,,,,,,,,,b,1,1.4844374226304353,1139.8949216249057,None,,,,,001,23,2019_Oct_11_1550,ACPT_experiment_5_30_19,3.1.0,59.94602262919583,
,,,C,D,d,v,,,,,,,,,,2,17,57,18,,,,,,,,,,,,,b,0,0.8006200701456692,1144.665185364509,None,,,,,001,23,2019_Oct_11_1550,ACPT_experiment_5_30_19,3.1.0,59.94602262919583,
,,,C,U,g,n,,,,,,,,,,2,18,58,7,,,,,,,,,,,,,n,1,1.350794527130347,1148.7685464876013,None,,,,,001,23,2019_Oct_11_1550,ACPT_experiment_5_30_19,3.1.0,59.94602262919583,
,,,C,G,g,v,,,,,,,,,,2,19,59,13,,,,,,,,,,,,,v,1,1.5678764303011121,1153.405161898314,None,,,,,001,23,2019_Oct_11_1550,ACPT_experiment_5_30_19,3.1.0,59.94602262919583,
,,,C,G,g,v,,,,,,,,,,3,0,60,4,,,,,,,,,,,,,v,1,0.9007003333390458,1158.2421735840217,None,,,,,001,23,2019_Oct_11_1550,ACPT_experiment_5_30_19,3.1.0,59.94602262919583,
,,,C,D,d,v,,,,,,,,,,3,1,61,18,,,,,,,,,,,,,b,0,0.8504010593896965,1162.4456327797416,None,,,,,001,23,2019_Oct_11_1550,ACPT_experiment_5_30_19,3.1.0,59.94602262919583,
,,,C,U,d,n,,,,,,,,,,3,2,62,6,,,,,,,,,,,,,n,1,0.7672657176553912,1166.5818408373925,None,,,,,001,23,2019_Oct_11_1550,ACPT_experiment_5_30_19,3.1.0,59.94602262919583,
,,,C,D,d,v,,,,,,,,,,3,3,63,9,,,,,,,,,,,,,v,1,1.0670688177669945,1170.6520009502383,None,,,,,001,23,2019_Oct_11_1550,ACPT_experiment_5_30_19,3.1.0,59.94602262919583,
,,,C,G,d,b,,,,,,,,,,3,4,64,12,,,,,,,,,,,,,b,1,2.168325107290002,1175.0049108758576,None,,,,,001,23,2019_Oct_11_1550,ACPT_experiment_5_30_19,3.1.0,59.94602262919583,
,,,C,G,g,v,,,,,,,,,,3,5,65,19,,,,,,,,,,,,,v,1,2.268407181607472,1180.4590526407592,None,,,,,001,23,2019_Oct_11_1550,ACPT_experiment_5_30_19,3.1.0,59.94602262919583,
,,,C,G,y,b,,,,,,,,,,3,6,66,5,,,,,,,,,,,,,b,1,0.9674147735568113,1185.9965929647879,None,,,,,001,23,2019_Oct_11_1550,ACPT_experiment_5_30_19,3.1.0,59.94602262919583,
,,,C,U,g,n,,,,,,,,,,3,7,67,7,,,,,,,,,,,,,n,1,1.0338693167905149,1190.2669383561151,None,,,,,001,23,2019_Oct_11_1550,ACPT_experiment_5_30_19,3.1.0,59.94602262919583,
,,,C,D,d,v,,,,,,,,,,3,8,68,0,,,,,,,,,,,,,v,1,0.8673580550384941,1194.5864302378795,None,,,,,001,23,2019_Oct_11_1550,ACPT_experiment_5_30_19,3.1.0,59.94602262919583,
,,,C,U,g,n,,,,,,,,,,3,9,69,16,,,,,,,,,,,,,n,1,0.8669466269384429,1198.7566697083566,None,,,,,001,23,2019_Oct_11_1550,ACPT_experiment_5_30_19,3.1.0,59.94602262919583,
,,,C,D,y,b,,,,,,,,,,3,10,70,11,,,,,,,,,,,,,b,1,1.1842557965937885,1202.9094508023445,None,,,,,001,23,2019_Oct_11_1550,ACPT_experiment_5_30_19,3.1.0,59.94602262919583,
,,,C,G,d,b,,,,,,,,,,3,11,71,3,,,,,,,,,,,,,b,1,1.9348186803472345,1207.3795099749404,None,,,,,001,23,2019_Oct_11_1550,ACPT_experiment_5_30_19,3.1.0,59.94602262919583,
,,,C,U,y,n,,,,,,,,,,3,12,72,17,,,,,,,,,,,,,n,1,0.8673007026300183,1212.6001773095122,None,,,,,001,23,2019_Oct_11_1550,ACPT_experiment_5_30_19,3.1.0,59.94602262919583,
,,,C,U,d,n,,,,,,,,,,3,13,73,15,,,,,,,,,,,,,n,1,0.8673248510131089,1216.75331187548,None,,,,,001,23,2019_Oct_11_1550,ACPT_experiment_5_30_19,3.1.0,59.94602262919583,
,,,C,D,g,b,,,,,,,,,,3,14,74,10,,,,,,,,,,,,,b,1,1.3510568389574473,1220.9064561008017,None,,,,,001,23,2019_Oct_11_1550,ACPT_experiment_5_30_19,3.1.0,59.94602262919583,
,,,C,G,y,b,,,,,,,,,,3,15,75,14,,,,,,,,,,,,,b,1,2.0346239538121154,1225.5602645576255,None,,,,,001,23,2019_Oct_11_1550,ACPT_experiment_5_30_19,3.1.0,59.94602262919583,
,,,C,U,y,n,,,,,,,,,,3,16,76,8,,,,,,,,,,,,,n,1,0.7839513458347938,1230.8807012449397,None,,,,,001,23,2019_Oct_11_1550,ACPT_experiment_5_30_19,3.1.0,59.94602262919583,
,,,C,G,g,v,,,,,,,,,,3,17,77,13,,,,,,,,,,,,,v,1,0.9507372954576567,1234.9504598908898,None,,,,,001,23,2019_Oct_11_1550,ACPT_experiment_5_30_19,3.1.0,59.94602262919583,
,,,C,D,g,b,,,,,,,,,,3,18,78,1,,,,,,,,,,,,,b,1,0.9840816867399553,1239.1870168625137,None,,,,,001,23,2019_Oct_11_1550,ACPT_experiment_5_30_19,3.1.0,59.94602262919583,
,,,C,D,y,b,,,,,,,,,,3,19,79,2,,,,,,,,,,,,,b,1,1.3143905355245806,1243.4769278787353,None,,,,,001,23,2019_Oct_11_1550,ACPT_experiment_5_30_19,3.1.0,59.94602262919583,
,,,C,D,y,b,,,,,,,,,,4,0,80,2,,,,,,,,,,,,,b,1,0.8339732152162469,1248.0771000567183,None,,,,,001,23,2019_Oct_11_1550,ACPT_experiment_5_30_19,3.1.0,59.94602262919583,
,,,C,G,y,b,,,,,,,,,,4,1,81,14,,,,,,,,,,,,,b,1,1.1339453540167597,1252.2305053864475,None,,,,,001,23,2019_Oct_11_1550,ACPT_experiment_5_30_19,3.1.0,59.94602262919583,
,,,C,D,y,b,,,,,,,,,,4,2,82,11,,,,,,,,,,,,,b,1,0.8673378307685198,1256.6502785667071,None,,,,,001,23,2019_Oct_11_1550,ACPT_experiment_5_30_19,3.1.0,59.94602262919583,
,,,C,G,g,v,,,,,,,,,,4,3,83,13,,,,,,,,,,,,,v,1,1.7844584619124362,1260.8203592615537,None,,,,,001,23,2019_Oct_11_1550,ACPT_experiment_5_30_19,3.1.0,59.94602262919583,
,,,C,U,g,n,,,,,,,,,,4,4,84,16,,,,,,,,,,,,,n,1,0.7338962724243174,1265.8906334755156,None,,,,,001,23,2019_Oct_11_1550,ACPT_experiment_5_30_19,3.1.0,59.94602262919583,
,,,C,G,d,b,,,,,,,,,,4,5,85,12,,,,,,,,,,,,,b,1,1.2342818919423735,1269.9103560649091,None,,,,,001,23,2019_Oct_11_1550,ACPT_experiment_5_30_19,3.1.0,59.94602262919583,
,,,C,D,d,v,,,,,,,,,,4,6,86,9,,,,,,,,,,,,,v,1,1.0341325341796619,1274.4304573311601,None,,,,,001,23,2019_Oct_11_1550,ACPT_experiment_5_30_19,3.1.0,59.94602262919583,
,,,C,D,g,b,,,,,,,,,,4,7,87,1,,,,,,,,,,,,,b,1,0.9337987129511021,1278.7673647260308,None,,,,,001,23,2019_Oct_11_1550,ACPT_experiment_5_30_19,3.1.0,59.94602262919583,
,,,C,G,g,v,,,,,,,,,,4,8,88,19,,,,,,,,,,,,,v,1,1.2676422815275146,1282.9869583630534,None,,,,,001,23,2019_Oct_11_1550,ACPT_experiment_5_30_19,3.1.0,59.94602262919583,
,,,C,D,d,v,,,,,,,,,,4,9,89,0,,,,,,,,,,,,,b,0,0.7668651563253661,1287.55747300437,None,,,,,001,23,2019_Oct_11_1550,ACPT_experiment_5_30_19,3.1.0,59.94602262919583,
,,,C,G,d,b,,,,,,,,,,4,10,90,3,,,,,,,,,,,,,b,1,1.7180190114195284,1291.6101735333068,None,,,,,001,23,2019_Oct_11_1550,ACPT_experiment_5_30_19,3.1.0,59.94602262919583,
,,,C,U,y,n,,,,,,,,,,4,11,91,17,,,,,,,,,,,,,n,1,0.9840762533567613,1296.6140001466993,None,,,,,001,23,2019_Oct_11_1550,ACPT_experiment_5_30_19,3.1.0,59.94602262919583,
,,,C,U,d,n,,,,,,,,,,4,12,92,6,,,,,,,,,,,,,n,1,0.8003493063843052,1300.8841614065932,None,,,,,001,23,2019_Oct_11_1550,ACPT_experiment_5_30_19,3.1.0,59.94602262919583,
,,,C,G,y,b,,,,,,,,,,4,13,93,5,,,,,,,,,,,,,b,1,0.9673978696882841,1304.9703376336547,None,,,,,001,23,2019_Oct_11_1550,ACPT_experiment_5_30_19,3.1.0,59.94602262919583,
,,,C,D,d,v,,,,,,,,,,4,14,94,18,,,,,,,,,,,,,v,1,1.117333982121636,1309.2404023000126,None,,,,,001,23,2019_Oct_11_1550,ACPT_experiment_5_30_19,3.1.0,59.94602262919583,
,,,C,U,d,n,,,,,,,,,,4,15,95,15,,,,,,,,,,,,,n,1,0.7672500212065643,1313.6435951994208,None,,,,,001,23,2019_Oct_11_1550,ACPT_experiment_5_30_19,3.1.0,59.94602262919583,
,,,C,G,g,v,,,,,,,,,,4,16,96,4,,,,,,,,,,,,,v,1,0.8503814388277533,1317.7136167609096,None,,,,,001,23,2019_Oct_11_1550,ACPT_experiment_5_30_19,3.1.0,59.94602262919583,
,,,C,D,g,b,,,,,,,,,,4,17,97,10,,,,,,,,,,,,,b,1,1.0508033714759222,1321.8498193851738,None,,,,,001,23,2019_Oct_11_1550,ACPT_experiment_5_30_19,3.1.0,59.94602262919583,
,,,C,U,y,n,,,,,,,,,,4,18,98,8,,,,,,,,,,,,,n,1,0.917349437087978,1326.2031401351887,None,,,,,001,23,2019_Oct_11_1550,ACPT_experiment_5_30_19,3.1.0,59.94602262919583,
,,,C,U,g,n,,,,,,,,,,4,19,99,7,,,,,,,,,,,,,n,1,0.9007253872878209,1330.4063204170634,None,,,,,001,23,2019_Oct_11_1550,ACPT_experiment_5_30_19,3.1.0,59.94602262919583,
,,,C,D,d,v,,,,,,,,,,5,0,100,18,,,,,,,,,,,,,v,1,1.7677830967950285,1334.6097494273054,None,,,,,001,23,2019_Oct_11_1550,ACPT_experiment_5_30_19,3.1.0,59.94602262919583,
,,,C,G,g,v,,,,,,,,,,5,1,101,13,,,,,,,,,,,,,v,1,1.1342079677015136,1339.6633500872813,None,,,,,001,23,2019_Oct_11_1550,ACPT_experiment_5_30_19,3.1.0,59.94602262919583,
,,,C,G,d,b,,,,,,,,,,5,2,102,3,,,,,,,,,,,,,b,1,0.9173648316827894,1344.08338497566,None,,,,,001,23,2019_Oct_11_1550,ACPT_experiment_5_30_19,3.1.0,59.94602262919583,
,,,C,D,g,b,,,,,,,,,,5,3,103,10,,,,,,,,,,,,,b,1,1.9848976002831478,1348.2865453351187,None,,,,,001,23,2019_Oct_11_1550,ACPT_experiment_5_30_19,3.1.0,59.94602262919583,
,,,C,D,d,v,,,,,,,,,,5,4,104,9,,,,,,,,,,,,,v,1,1.250989253669104,1353.5405380441189,None,,,,,001,23,2019_Oct_11_1550,ACPT_experiment_5_30_19,3.1.0,59.94602262919583,
,,,C,D,g,b,,,,,,,,,,5,5,105,1,,,,,,,,,,,,,b,1,1.2006540589973156,1358.077608380212,None,,,,,001,23,2019_Oct_11_1550,ACPT_experiment_5_30_19,3.1.0,59.94602262919583,
,,,C,D,d,v,,,,,,,,,,5,6,106,0,,,,,,,,,,,,,v,1,0.8840186292727594,1362.5474028261451,None,,,,,001,23,2019_Oct_11_1550,ACPT_experiment_5_30_19,3.1.0,59.94602262919583,
,,,C,U,d,n,,,,,,,,,,5,7,107,6,,,,,,,,,,,,,n,1,0.6001984393515158,1366.734185751182,None,,,,,001,23,2019_Oct_11_1550,ACPT_experiment_5_30_19,3.1.0,59.94602262919583,
,,,C,D,y,b,,,,,,,,,,5,8,108,11,,,,,,,,,,,,,b,1,1.401098027046828,1370.6201978296012,None,,,,,001,23,2019_Oct_11_1550,ACPT_experiment_5_30_19,3.1.0,59.94602262919583,
,,,C,D,y,b,,,,,,,,,,5,9,109,2,,,,,,,,,,,,,b,1,1.4175183248516987,1375.3240046111314,None,,,,,001,23,2019_Oct_11_1550,ACPT_experiment_5_30_19,3.1.0,59.94602262919583,
,,,C,U,g,n,,,,,,,,,,5,10,110,16,,,,,,,,,,,,,n,1,1.1842736060280004,1380.0273471399705,None,,,,,001,23,2019_Oct_11_1550,ACPT_experiment_5_30_19,3.1.0,59.94602262919583,
,,,C,G,d,b,,,,,,,,,,5,11,111,12,,,,,,,,,,,,,b,1,1.2840541273944837,1384.5143572711204,None,,,,,001,23,2019_Oct_11_1550,ACPT_experiment_5_30_19,3.1.0,59.94602262919583,
,,,C,U,y,n,,,,,,,,,,5,12,112,17,,,,,,,,,,,,,n,1,0.7505782783482573,1389.0842313765388,None,,,,,001,23,2019_Oct_11_1550,ACPT_experiment_5_30_19,3.1.0,59.94602262919583,
,,,C,G,g,v,,,,,,,,,,5,13,113,4,,,,,,,,,,,,,v,1,1.8180630520364502,1393.1206272180643,None,,,,,001,23,2019_Oct_11_1550,ACPT_experiment_5_30_19,3.1.0,59.94602262919583,
,,,C,U,g,n,,,,,,,,,,5,14,114,7,,,,,,,,,,,,,n,1,0.6838574991743371,1398.2245023998948,None,,,,,001,23,2019_Oct_11_1550,ACPT_experiment_5_30_19,3.1.0,59.94602262919583,
,,,C,U,y,n,,,,,,,,,,5,15,115,8,,,,,,,,,,,,,n,1,0.6500865870511916,1402.2112449367596,None,,,,,001,23,2019_Oct_11_1550,ACPT_experiment_5_30_19,3.1.0,59.94602262919583,
,,,C,G,y,b,,,,,,,,,,5,16,116,5,,,,,,,,,,,,,b,1,1.868093373352167,1406.147190441101,None,,,,,001,23,2019_Oct_11_1550,ACPT_experiment_5_30_19,3.1.0,59.94602262919583,
,,,C,U,d,n,,,,,,,,,,5,17,117,15,,,,,,,,,,,,,n,1,0.6672108102648053,1411.301107112875,None,,,,,001,23,2019_Oct_11_1550,ACPT_experiment_5_30_19,3.1.0,59.94602262919583,
,,,C,G,g,v,,,,,,,,,,5,18,118,19,,,,,,,,,,,,,v,1,1.217612563923467,1415.254104093423,None,,,,,001,23,2019_Oct_11_1550,ACPT_experiment_5_30_19,3.1.0,59.94602262919583,
,,,C,G,y,b,,,,,,,,,,5,19,119,14,0,0,0,0,0,0,0,0,,,,,b,1,0.7339041206505499,1419.7408479886326,None,,,,,001,23,2019_Oct_11_1550,ACPT_experiment_5_30_19,3.1.0,59.94602262919583,
,,,C,G,y,b,R,U,y,L,u,,,,,5,19,119,14,0,0,0,0,,,,,0,0,0,30,,,,,,down,2.268390881446976,1471.830419478567,None,001,23,2019_Oct_11_1550,ACPT_experiment_5_30_19,3.1.0,59.94602262919583,
,,,C,G,y,b,L,G,g,L,c ,,,,,5,19,119,14,0,0,0,0,,,,,0,1,1,18,,,,,,up,0.817210312205134,1475.383188377622,None,001,23,2019_Oct_11_1550,ACPT_experiment_5_30_19,3.1.0,59.94602262919583,
,,,C,G,y,b,R,U,d,R,u,,,,,5,19,119,14,0,0,0,0,,,,,0,2,2,9,,,,,,up,1.017426681730285,1477.4847287125194,None,001,23,2019_Oct_11_1550,ACPT_experiment_5_30_19,3.1.0,59.94602262919583,
,,,C,G,y,b,R,D,y,L,y,,,,,5,19,119,14,0,0,0,0,,,,,0,3,3,26,,,,,,down,0.68385417877289,1479.786462475975,None,001,23,2019_Oct_11_1550,ACPT_experiment_5_30_19,3.1.0,59.94602262919583,
,,,C,G,y,b,R,U,g,L,u,,,,,5,19,119,14,0,0,0,0,,,,,0,4,4,10,,,,,,up,1.1174888336354343,1481.7546518089694,None,001,23,2019_Oct_11_1550,ACPT_experiment_5_30_19,3.1.0,59.94602262919583,
,,,C,G,y,b,R,G,y,R,y,,,,,5,19,119,14,0,0,0,0,,,,,0,5,5,29,,,,,,down,0.8673218324620393,1484.1731315413817,None,001,23,2019_Oct_11_1550,ACPT_experiment_5_30_19,3.1.0,59.94602262919583,
,,,C,G,y,b,L,U,g,R,u,,,,,5,19,119,14,0,0,0,0,,,,,0,6,6,23,,,,,,up,1.2009091263098526,1486.3414457818944,None,001,23,2019_Oct_11_1550,ACPT_experiment_5_30_19,3.1.0,59.94602262919583,
,,,C,G,y,b,R,D,y,R,y,,,,,5,19,119,14,0,0,0,0,,,,,0,7,7,27,,,,,,down,0.7338860093623225,1488.8266761771047,None,001,23,2019_Oct_11_1550,ACPT_experiment_5_30_19,3.1.0,59.94602262919583,
,,,C,G,y,b,R,G,y,L,y,,,,,5,19,119,14,0,0,0,0,,,,,0,8,8,28,,,,,,down,0.7505625818994304,1490.8448641366595,None,001,23,2019_Oct_11_1550,ACPT_experiment_5_30_19,3.1.0,59.94602262919583,
,,,C,G,y,b,R,U,y,R,u,,,,,5,19,119,14,0,0,0,0,,,,,0,9,9,31,,,,,,down,0.817323205905268,1492.8797470818936,None,001,23,2019_Oct_11_1550,ACPT_experiment_5_30_19,3.1.0,59.94602262919583,
,,,C,G,y,b,R,U,d,L,u,,,,,5,19,119,14,0,0,0,0,,,,,0,10,10,8,,,,,,up,0.7172538094819174,1494.9813390339586,None,001,23,2019_Oct_11_1550,ACPT_experiment_5_30_19,3.1.0,59.94602262919583,
,,,C,G,y,b,L,G,g,R,c ,,,,,5,19,119,14,0,0,0,0,,,,,0,11,11,19,,,,,,up,0.850618998560094,1496.9828812101696,None,001,23,2019_Oct_11_1550,ACPT_experiment_5_30_19,3.1.0,59.94602262919583,
,,,C,G,y,b,L,U,g,L,u,,,,,5,19,119,14,0,0,0,0,,,,,0,12,12,22,,,,,,up,0.8340676957705,1499.117817251663,None,001,23,2019_Oct_11_1550,ACPT_experiment_5_30_19,3.1.0,59.94602262919583,
,,,C,G,y,b,R,G,d,L,i,,,,,5,19,119,14,0,0,0,0,,,,,0,13,13,4,,,,,,up,0.9507234101401991,1501.2360897003819,None,001,23,2019_Oct_11_1550,ACPT_experiment_5_30_19,3.1.0,59.94602262919583,
,,,C,G,y,b,R,D,d,R,c ,,,,,5,19,119,14,0,0,0,0,,,,,0,14,14,1,,,,,,up,1.0674905089290405,1503.4711014772438,None,001,23,2019_Oct_11_1550,ACPT_experiment_5_30_19,3.1.0,59.94602262919583,
,,,C,G,y,b,L,G,d,L,i,,,,,5,19,119,14,0,0,0,0,,,,,0,15,15,16,,,,,,up,0.5670925133672426,1505.82290782169,None,001,23,2019_Oct_11_1550,ACPT_experiment_5_30_19,3.1.0,59.94602262919583,
,,,C,G,y,b,L,D,y,R,y,,,,,5,19,119,14,0,0,0,0,,,,,0,16,16,33,,,,,,down,0.7839302159991348,1507.6743116427497,None,001,23,2019_Oct_11_1550,ACPT_experiment_5_30_19,3.1.0,59.94602262919583,
,,,C,G,y,b,L,D,g,R,i,,,,,5,19,119,14,0,0,0,0,,,,,0,17,17,15,,,,,,up,0.9507354843299254,1509.72585878447,None,001,23,2019_Oct_11_1550,ACPT_experiment_5_30_19,3.1.0,59.94602262919583,
,,,C,G,y,b,L,D,y,L,y,,,,,5,19,119,14,0,0,0,0,,,,,0,18,18,32,,,,,,down,1.217585396985669,1511.9609028598024,None,001,23,2019_Oct_11_1550,ACPT_experiment_5_30_19,3.1.0,59.94602262919583,
,,,C,G,y,b,L,U,y,R,u,,,,,5,19,119,14,0,0,0,0,,,,,0,19,19,25,,,,,,down,1.084151686871337,1514.4628068089987,None,001,23,2019_Oct_11_1550,ACPT_experiment_5_30_19,3.1.0,59.94602262919583,
,,,C,G,y,b,L,G,y,R,y,,,,,5,19,119,14,0,0,0,0,,,,,0,20,20,35,,,,,,down,0.7505643930271617,1516.8479472816616,None,001,23,2019_Oct_11_1550,ACPT_experiment_5_30_19,3.1.0,59.94602262919583,
,,,C,G,y,b,L,U,y,L,u,,,,,5,19,119,14,0,0,0,0,,,,,0,21,21,24,,,,,,down,0.7504475752175495,1518.8995143457978,None,001,23,2019_Oct_11_1550,ACPT_experiment_5_30_19,3.1.0,59.94602262919583,
,,,C,G,y,b,R,G,g,L,c ,,,,,5,19,119,14,0,0,0,0,,,,,0,22,22,6,,,,,,up,0.5670958337723278,1520.9343852168386,None,001,23,2019_Oct_11_1550,ACPT_experiment_5_30_19,3.1.0,59.94602262919583,
,,,C,G,y,b,L,D,g,L,i,,,,,5,19,119,14,0,0,0,0,,,,,0,23,23,14,,,,,,up,0.6004510918246524,1522.7691142764925,None,001,23,2019_Oct_11_1550,ACPT_experiment_5_30_19,3.1.0,59.94602262919583,
,,,C,G,y,b,R,U,g,R,u,,,,,5,19,119,14,0,0,0,0,,,,,0,24,24,11,,,,,,up,0.5504192612315819,1524.6371925571038,None,001,23,2019_Oct_11_1550,ACPT_experiment_5_30_19,3.1.0,59.94602262919583,
,,,C,G,y,b,L,D,d,L,c ,,,,,5,19,119,14,0,0,0,0,,,,,0,25,25,12,,,,,,up,0.9002203841955634,1526.4890388973108,None,001,23,2019_Oct_11_1550,ACPT_experiment_5_30_19,3.1.0,59.94602262919583,
,,,C,G,y,b,L,G,d,R,i,,,,,5,19,119,14,0,0,0,0,,,,,0,26,26,17,,,,,,up,0.5837672747729812,1528.673598359841,None,001,23,2019_Oct_11_1550,ACPT_experiment_5_30_19,3.1.0,59.94602262919583,
,,,C,G,y,b,R,G,g,R,c ,,,,,5,19,119,14,0,0,0,0,,,,,0,27,27,7,,,,,,up,0.5504114130126254,1530.541678753434,None,001,23,2019_Oct_11_1550,ACPT_experiment_5_30_19,3.1.0,59.94602262919583,
,,,C,G,y,b,L,U,d,R,u,,,,,5,19,119,14,0,0,0,0,,,,,0,28,28,21,,,,,,up,0.7005268271932437,1532.3764099260698,None,001,23,2019_Oct_11_1550,ACPT_experiment_5_30_19,3.1.0,59.94602262919583,
,,,C,G,y,b,R,D,d,L,c,,,,,5,19,119,14,0,0,0,0,,,,,0,29,29,0,,,,,,up,0.8172848703434283,1534.3445675643125,None,001,23,2019_Oct_11_1550,ACPT_experiment_5_30_19,3.1.0,59.94602262919583,
,,,C,G,y,b,R,G,d,R,i,,,,,5,19,119,14,0,0,0,0,,,,,0,30,30,5,,,,,,up,0.583787800896971,1536.4294880753769,None,001,23,2019_Oct_11_1550,ACPT_experiment_5_30_19,3.1.0,59.94602262919583,
,,,C,G,y,b,R,D,g,R,i,,,,,5,19,119,14,0,0,0,0,,,,,0,31,31,3,,,,,,up,0.5837730100174667,1538.2975745060648,None,001,23,2019_Oct_11_1550,ACPT_experiment_5_30_19,3.1.0,59.94602262919583,
,,,C,G,y,b,R,D,g,L,i,,,,,5,19,119,14,0,0,0,0,,,,,0,32,32,2,,,,,,up,0.783947119867662,1540.14896172511,None,001,23,2019_Oct_11_1550,ACPT_experiment_5_30_19,3.1.0,59.94602262919583,
,,,C,G,y,b,L,G,y,L,y,,,,,5,19,119,14,0,0,0,0,,,,,0,33,33,34,,,,,,down,0.7338781611360901,1542.2172234730751,None,001,23,2019_Oct_11_1550,ACPT_experiment_5_30_19,3.1.0,59.94602262919583,
,,,C,G,y,b,L,D,d,R,c ,,,,,5,19,119,14,0,0,0,0,,,,,0,34,34,13,,,,,,up,0.6171291736318381,1544.2354229031116,None,001,23,2019_Oct_11_1550,ACPT_experiment_5_30_19,3.1.0,59.94602262919583,
,,,C,G,y,b,L,U,d,L,u,,,,,5,19,119,14,0,0,0,0,,,,,0,35,35,20,,,,,,up,0.5670952300606587,1546.1368630825818,None,001,23,2019_Oct_11_1550,ACPT_experiment_5_30_19,3.1.0,59.94602262919583,
,,,C,G,y,b,L,D,y,R,y,,,,,5,19,119,14,0,0,0,0,,,,,1,0,36,33,,,,,,down,0.5171026405951125,1547.9882672054955,None,001,23,2019_Oct_11_1550,ACPT_experiment_5_30_19,3.1.0,59.94602262919583,
,,,C,G,y,b,L,D,y,L,y,,,,,5,19,119,14,0,0,0,0,,,,,1,1,37,32,,,,,,down,0.5170646068872884,1549.7896367811263,None,001,23,2019_Oct_11_1550,ACPT_experiment_5_30_19,3.1.0,59.94602262919583,
,,,C,G,y,b,R,D,y,R,y,,,,,5,19,119,14,0,0,0,0,,,,,1,2,38,27,,,,,,down,0.7002756839974609,1551.60793256322,None,001,23,2019_Oct_11_1550,ACPT_experiment_5_30_19,3.1.0,59.94602262919583,
,,,C,G,y,b,R,U,d,L,u,,,,,5,19,119,14,0,0,0,0,,,,,1,3,39,8,,,,,,up,0.8339433315886708,1553.5925412884535,None,001,23,2019_Oct_11_1550,ACPT_experiment_5_30_19,3.1.0,59.94602262919583,
,,,C,G,y,b,R,U,g,R,u,,,,,5,19,119,14,0,0,0,0,,,,,1,4,40,11,,,,,,up,0.7505954840708,1555.694095810526,None,001,23,2019_Oct_11_1550,ACPT_experiment_5_30_19,3.1.0,59.94602262919583,
,,,C,G,y,b,R,G,y,R,y,,,,,5,19,119,14,0,0,0,0,,,,,1,5,41,29,,,,,,down,0.7505891451219213,1557.7289989800302,None,001,23,2019_Oct_11_1550,ACPT_experiment_5_30_19,3.1.0,59.94602262919583,
,,,C,G,y,b,R,G,g,L,c ,,,,,5,19,119,14,0,0,0,0,,,,,1,6,42,6,,,,,,up,0.5503993388156232,1559.763892792038,None,001,23,2019_Oct_11_1550,ACPT_experiment_5_30_19,3.1.0,59.94602262919583,
,,,C,G,y,b,L,G,y,L,y,,,,,5,19,119,14,0,0,0,0,,,,,1,7,43,34,,,,,,down,0.7339164966979297,1561.5986091737868,None,001,23,2019_Oct_11_1550,ACPT_experiment_5_30_19,3.1.0,59.94602262919583,
,,,C,G,y,b,L,D,g,L,i,,,,,5,19,119,14,0,0,0,0,,,,,1,8,44,14,,,,,,up,0.6171300791975227,1563.6168058871335,None,001,23,2019_Oct_11_1550,ACPT_experiment_5_30_19,3.1.0,59.94602262919583,
,,,C,G,y,b,R,G,y,L,y,,,,,5,19,119,14,0,0,0,0,,,,,1,9,45,28,,,,,,down,0.7005455421931401,1565.5349283743817,None,001,23,2019_Oct_11_1550,ACPT_experiment_5_30_19,3.1.0,59.94602262919583,
,,,C,G,y,b,R,D,d,L,c,,,,,5,19,119,14,0,0,0,0,,,,,1,10,46,0,,,,,,up,0.9340622321979026,1567.536446100352,None,001,23,2019_Oct_11_1550,ACPT_experiment_5_30_19,3.1.0,59.94602262919583,
,,,C,G,y,b,R,U,y,L,u,,,,,5,19,119,14,0,0,0,0,,,,,1,11,47,30,,,,,,down,0.8173002649382397,1569.7548003215343,None,001,23,2019_Oct_11_1550,ACPT_experiment_5_30_19,3.1.0,59.94602262919583,
,,,C,G,y,b,L,U,g,L,u,,,,,5,19,119,14,0,0,0,0,,,,,1,12,48,22,,,,,,up,0.617161170241161,1571.8563952921504,None,001,23,2019_Oct_11_1550,ACPT_experiment_5_30_19,3.1.0,59.94602262919583,
,,,C,G,y,b,L,D,g,R,i,,,,,5,19,119,14,0,0,0,0,,,,,1,13,49,15,,,,,,up,0.7172187943251629,1573.7578390938797,None,001,23,2019_Oct_11_1550,ACPT_experiment_5_30_19,3.1.0,59.94602262919583,
,,,C,G,y,b,L,D,d,L,c ,,,,,5,19,119,14,0,0,0,0,,,,,1,14,50,12,,,,,,up,0.8173533913832216,1575.7426585137691,None,001,23,2019_Oct_11_1550,ACPT_experiment_5_30_19,3.1.0,59.94602262919583,
,,,C,G,y,b,L,D,d,R,c ,,,,,5,19,119,14,0,0,0,0,,,,,1,15,51,13,,,,,,up,0.6506395850592526,1577.8274468124255,None,001,23,2019_Oct_11_1550,ACPT_experiment_5_30_19,3.1.0,59.94602262919583,
,,,C,G,y,b,R,U,g,L,u,,,,,5,19,119,14,0,0,0,0,,,,,1,16,52,10,,,,,,up,0.6171318903252541,1579.7624046478377,None,001,23,2019_Oct_11_1550,ACPT_experiment_5_30_19,3.1.0,59.94602262919583,
,,,C,G,y,b,L,G,d,L,i,,,,,5,19,119,14,0,0,0,0,,,,,1,17,53,16,,,,,,up,0.5837730100138288,1581.663844525454,None,001,23,2019_Oct_11_1550,ACPT_experiment_5_30_19,3.1.0,59.94602262919583,
,,,C,G,y,b,R,D,g,L,i,,,,,5,19,119,14,0,0,0,0,,,,,1,18,54,2,,,,,,up,0.50036931935756,1583.5319306542915,None,001,23,2019_Oct_11_1550,ACPT_experiment_5_30_19,3.1.0,59.94602262919583,
,,,C,G,y,b,L,G,g,R,c ,,,,,5,19,119,14,0,0,0,0,,,,,1,19,55,19,,,,,,up,0.6171297773435072,1585.3166212425458,None,001,23,2019_Oct_11_1550,ACPT_experiment_5_30_19,3.1.0,59.94602262919583,
,,,C,G,y,b,R,D,d,R,c ,,,,,5,19,119,14,0,0,0,0,,,,,1,20,56,1,,,,,,up,0.5337327274901327,1587.218064138713,None,001,23,2019_Oct_11_1550,ACPT_experiment_5_30_19,3.1.0,59.94602262919583,
,,,C,G,y,b,R,G,d,L,i,,,,,5,19,119,14,0,0,0,0,,,,,1,21,57,4,,,,,,up,0.6138036392221693,1589.056117827211,None,001,23,2019_Oct_11_1550,ACPT_experiment_5_30_19,3.1.0,59.94602262919583,
,,,C,G,y,b,L,G,d,R,i,,,,,5,19,119,14,0,0,0,0,,,,,1,22,58,17,,,,,,up,0.4837054247218475,1590.954239716786,None,001,23,2019_Oct_11_1550,ACPT_experiment_5_30_19,3.1.0,59.94602262919583,
,,,C,G,y,b,L,G,g,L,c ,,,,,5,19,119,14,0,0,0,0,,,,,1,23,59,18,,,,,,up,0.7505909562496527,1592.7055439559444,None,001,23,2019_Oct_11_1550,ACPT_experiment_5_30_19,3.1.0,59.94602262919583,
,,,C,G,y,b,L,U,y,L,u,,,,,5,19,119,14,0,0,0,0,,,,,1,24,60,24,,,,,,down,0.90068524059825,1594.7404425976274,None,001,23,2019_Oct_11_1550,ACPT_experiment_5_30_19,3.1.0,59.94602262919583,
,,,C,G,y,b,R,G,g,R,c ,,,,,5,19,119,14,0,0,0,0,,,,,1,25,61,7,,,,,,up,0.6838505565174273,1596.9254412589034,None,001,23,2019_Oct_11_1550,ACPT_experiment_5_30_19,3.1.0,59.94602262919583,
,,,C,G,y,b,L,U,g,R,u,,,,,5,19,119,14,0,0,0,0,,,,,1,26,62,23,,,,,,up,0.5504168463958194,1598.8935991989965,None,001,23,2019_Oct_11_1550,ACPT_experiment_5_30_19,3.1.0,59.94602262919583,
,,,C,G,y,b,L,U,y,R,u,,,,,5,19,119,14,0,0,0,0,,,,,1,27,63,25,,,,,,down,0.5837721044481441,1600.7283234289716,None,001,23,2019_Oct_11_1550,ACPT_experiment_5_30_19,3.1.0,59.94602262919583,
,,,C,G,y,b,R,U,y,R,u,,,,,5,19,119,14,0,0,0,0,,,,,1,28,64,31,,,,,,down,0.867320021334308,1602.5964104633713,None,001,23,2019_Oct_11_1550,ACPT_experiment_5_30_19,3.1.0,59.94602262919583,
,,,C,G,y,b,R,D,g,R,i,,,,,5,19,119,14,0,0,0,0,,,,,1,29,65,3,,,,,,up,0.6672047731699422,1604.7647219871942,None,001,23,2019_Oct_11_1550,ACPT_experiment_5_30_19,3.1.0,59.94602262919583,
,,,C,G,y,b,R,D,y,L,y,,,,,5,19,119,14,0,0,0,0,,,,,1,30,66,26,,,,,,down,0.6671942082502937,1606.6995041431073,None,001,23,2019_Oct_11_1550,ACPT_experiment_5_30_19,3.1.0,59.94602262919583,
,,,C,G,y,b,R,U,d,R,u,,,,,5,19,119,14,0,0,0,0,,,,,1,31,67,9,,,,,,up,0.5668262774270261,1608.6679612213156,None,001,23,2019_Oct_11_1550,ACPT_experiment_5_30_19,3.1.0,59.94602262919583,
,,,C,G,y,b,L,U,d,L,u,,,,,5,19,119,14,0,0,0,0,,,,,1,32,68,20,,,,,,up,0.6671957175240095,1610.5190933730482,None,001,23,2019_Oct_11_1550,ACPT_experiment_5_30_19,3.1.0,59.94602262919583,
,,,C,G,y,b,L,U,d,R,u,,,,,5,19,119,14,0,0,0,0,,,,,1,33,69,21,,,,,,up,0.8506398265417374,1612.4538987717824,None,001,23,2019_Oct_11_1550,ACPT_experiment_5_30_19,3.1.0,59.94602262919583,
,,,C,G,y,b,R,G,d,R,i,,,,,5,19,119,14,0,0,0,0,,,,,1,34,70,5,,,,,,up,0.6838261062766833,1614.5888737525456,None,001,23,2019_Oct_11_1550,ACPT_experiment_5_30_19,3.1.0,59.94602262919583,
,,,C,G,y,b,L,G,y,R,y,,,,,5,19,119,14,0,0,0,0,,,,,1,35,71,35,,,,,,down,0.6171512090368196,1616.5570132794965,None,001,23,2019_Oct_11_1550,ACPT_experiment_5_30_19,3.1.0,59.94602262919583,
,,,C,G,y,b,,,,,,,,,,5,19,119,14,1,0,1,0,0,0,0,0,,,,,,,,,,,,,,001,23,2019_Oct_11_1550,ACPT_experiment_5_30_19,3.1.0,59.94602262919583,
,,,C,G,y,b,R,D,g,L,i,,,,,5,19,119,14,1,0,1,0,,,,,0,0,0,2,,,,,,up,0.7000984952246654,1643.3944702010413,None,001,23,2019_Oct_11_1550,ACPT_experiment_5_30_19,3.1.0,59.94602262919583,
,,,C,G,y,b,L,U,d,L,u,,,,,5,19,119,14,1,0,1,0,,,,,0,1,1,20,,,,,,up,0.550438881797163,1645.3788797021043,None,001,23,2019_Oct_11_1550,ACPT_experiment_5_30_19,3.1.0,59.94602262919583,
,,,C,G,y,b,L,D,y,L,y,,,,,5,19,119,14,1,0,1,0,,,,,0,2,2,32,,,,,,down,0.7003478272927168,1647.2304576933857,None,001,23,2019_Oct_11_1550,ACPT_experiment_5_30_19,3.1.0,59.94602262919583,
,,,C,G,y,b,R,G,y,R,y,,,,,5,19,119,14,1,0,1,0,,,,,0,3,3,29,,,,,,down,0.667166135754087,1649.2318335475975,None,001,23,2019_Oct_11_1550,ACPT_experiment_5_30_19,3.1.0,59.94602262919583,
,,,C,G,y,b,L,U,g,R,u,,,,,5,19,119,14,1,0,1,0,,,,,0,4,4,23,,,,,,up,0.6504898650746327,1651.1833134058834,None,001,23,2019_Oct_11_1550,ACPT_experiment_5_30_19,3.1.0,59.94602262919583,
,,,C,G,y,b,R,G,d,R,i,,,,,5,19,119,14,1,0,1,0,,,,,0,5,5,5,,,,,,up,0.6004489788392675,1653.1181182009059,None,001,23,2019_Oct_11_1550,ACPT_experiment_5_30_19,3.1.0,59.94602262919583,
,,,C,G,y,b,L,U,d,R,u,,,,,5,19,119,14,1,0,1,0,,,,,0,6,6,21,,,,,,up,0.5504162426841503,1654.9862043297435,None,001,23,2019_Oct_11_1550,ACPT_experiment_5_30_19,3.1.0,59.94602262919583,
,,,C,G,y,b,L,U,g,L,u,,,,,5,19,119,14,1,0,1,0,,,,,0,7,7,22,,,,,,up,0.5504663505853387,1656.8042308573458,None,001,23,2019_Oct_11_1550,ACPT_experiment_5_30_19,3.1.0,59.94602262919583,
,,,C,G,y,b,L,G,g,R,c ,,,,,5,19,119,14,1,0,1,0,,,,,0,8,8,19,,,,,,up,0.4503308479615953,1658.638987687642,None,001,23,2019_Oct_11_1550,ACPT_experiment_5_30_19,3.1.0,59.94602262919583,
,,,C,G,y,b,R,G,g,L,c ,,,,,5,19,119,14,1,0,1,0,,,,,0,9,9,6,,,,,,up,0.6172049391898327,1660.3569460262443,None,001,23,2019_Oct_11_1550,ACPT_experiment_5_30_19,3.1.0,59.94602262919583,
,,,C,G,y,b,R,U,d,R,u,,,,,5,19,119,14,1,0,1,0,,,,,0,10,10,9,,,,,,up,0.5470919156941818,1662.2783916330663,None,001,23,2019_Oct_11_1550,ACPT_experiment_5_30_19,3.1.0,59.94602262919583,
,,,C,G,y,b,R,U,g,R,u,,,,,5,19,119,14,1,0,1,0,,,,,0,11,11,11,,,,,,up,0.6505125041840074,1664.0930995689196,None,001,23,2019_Oct_11_1550,ACPT_experiment_5_30_19,3.1.0,59.94602262919583,
,,,C,G,y,b,R,U,y,L,u,,,,,5,19,119,14,1,0,1,0,,,,,0,12,12,30,,,,,,down,0.7505942766510998,1666.0112229617298,None,001,23,2019_Oct_11_1550,ACPT_experiment_5_30_19,3.1.0,59.94602262919583,
,,,C,G,y,b,L,U,y,R,u,,,,,5,19,119,14,1,0,1,0,,,,,0,13,13,25,,,,,,down,0.6338377427782689,1668.0461222071244,None,001,23,2019_Oct_11_1550,ACPT_experiment_5_30_19,3.1.0,59.94602262919583,
,,,C,G,y,b,L,G,d,R,i,,,,,5,19,119,14,1,0,1,0,,,,,0,14,14,17,,,,,,up,0.5337598944242927,1669.9642455999347,None,001,23,2019_Oct_11_1550,ACPT_experiment_5_30_19,3.1.0,59.94602262919583,
,,,C,G,y,b,R,D,y,L,y,,,,,5,19,119,14,1,0,1,0,,,,,0,15,15,26,,,,,,down,0.8006052792588889,1671.7822971814894,None,001,23,2019_Oct_11_1550,ACPT_experiment_5_30_19,3.1.0,59.94602262919583,
,,,C,G,y,b,R,U,g,L,u,,,,,5,19,119,14,1,0,1,0,,,,,0,16,16,10,,,,,,up,0.9840844034333713,1673.8672098443276,None,001,23,2019_Oct_11_1550,ACPT_experiment_5_30_19,3.1.0,59.94602262919583,
,,,C,G,y,b,R,U,d,L,u,,,,,5,19,119,14,1,0,1,0,,,,,0,17,17,8,,,,,,up,0.6171349088763236,1676.1356040461797,None,001,23,2019_Oct_11_1550,ACPT_experiment_5_30_19,3.1.0,59.94602262919583,
,,,C,G,y,b,L,G,g,L,c ,,,,,5,19,119,14,1,0,1,0,,,,,0,18,18,18,,,,,,up,0.6838931180427608,1678.0370230958142,None,001,23,2019_Oct_11_1550,ACPT_experiment_5_30_19,3.1.0,59.94602262919583,
,,,C,G,y,b,L,D,g,R,i,,,,,5,19,119,14,1,0,1,0,,,,,0,19,19,15,,,,,,up,0.5504129222827032,1680.0052066935677,None,001,23,2019_Oct_11_1550,ACPT_experiment_5_30_19,3.1.0,59.94602262919583,
,,,C,G,y,b,R,G,d,L,i,,,,,5,19,119,14,1,0,1,0,,,,,0,20,20,4,,,,,,up,0.6171318903252541,1681.839934545802,None,001,23,2019_Oct_11_1550,ACPT_experiment_5_30_19,3.1.0,59.94602262919583,
,,,C,G,y,b,R,D,y,R,y,,,,,5,19,119,14,1,0,1,0,,,,,0,21,21,27,,,,,,down,0.5504138278483879,1683.7413768382576,None,001,23,2019_Oct_11_1550,ACPT_experiment_5_30_19,3.1.0,59.94602262919583,
,,,C,G,y,b,L,G,y,L,y,,,,,5,19,119,14,1,0,1,0,,,,,0,22,22,34,,,,,,down,0.6671679468818184,1685.5761049923458,None,001,23,2019_Oct_11_1550,ACPT_experiment_5_30_19,3.1.0,59.94602262919583,
,,,C,G,y,b,R,D,d,R,c ,,,,,5,19,119,14,1,0,1,0,,,,,0,23,23,1,,,,,,up,0.6335712049840367,1687.5445092459631,None,001,23,2019_Oct_11_1550,ACPT_experiment_5_30_19,3.1.0,59.94602262919583,
,,,C,G,y,b,L,U,y,L,u,,,,,5,19,119,14,1,0,1,0,,,,,0,24,24,24,,,,,,down,0.6170186947747425,1689.4623944753293,None,001,23,2019_Oct_11_1550,ACPT_experiment_5_30_19,3.1.0,59.94602262919583,
,,,C,G,y,b,R,G,y,L,y,,,,,5,19,119,14,1,0,1,0,,,,,0,25,25,28,,,,,,down,0.75056831713664,1691.3638331455259,None,001,23,2019_Oct_11_1550,ACPT_experiment_5_30_19,3.1.0,59.94602262919583,
,,,C,G,y,b,R,G,g,R,c ,,,,,5,19,119,14,1,0,1,0,,,,,0,26,26,7,,,,,,up,0.5670882874001109,1693.38204223492,None,001,23,2019_Oct_11_1550,ACPT_experiment_5_30_19,3.1.0,59.94602262919583,
,,,C,G,y,b,L,G,y,R,y,,,,,5,19,119,14,1,0,1,0,,,,,0,27,27,35,,,,,,down,0.6504720556404209,1695.2334581301693,None,001,23,2019_Oct_11_1550,ACPT_experiment_5_30_19,3.1.0,59.94602262919583,
,,,C,G,y,b,R,D,d,L,c,,,,,5,19,119,14,1,0,1,0,,,,,0,28,28,0,,,,,,up,1.0007498073391616,1697.1682442101956,None,001,23,2019_Oct_11_1550,ACPT_experiment_5_30_19,3.1.0,59.94602262919583,
,,,C,G,y,b,L,D,y,R,y,,,,,5,19,119,14,1,0,1,0,,,,,0,29,29,33,,,,,,down,0.5670713835315837,1699.470006951713,None,001,23,2019_Oct_11_1550,ACPT_experiment_5_30_19,3.1.0,59.94602262919583,
,,,C,G,y,b,L,D,d,L,c ,,,,,5,19,119,14,1,0,1,0,,,,,0,30,30,12,,,,,,up,0.6671839451882988,1701.3380586691019,None,001,23,2019_Oct_11_1550,ACPT_experiment_5_30_19,3.1.0,59.94602262919583,
,,,C,G,y,b,R,D,g,R,i,,,,,5,19,119,14,1,0,1,0,,,,,0,31,31,3,,,,,,up,0.6171273625041067,1703.2895608646431,None,001,23,2019_Oct_11_1550,ACPT_experiment_5_30_19,3.1.0,59.94602262919583,
,,,C,G,y,b,L,D,g,L,i,,,,,5,19,119,14,1,0,1,0,,,,,0,32,32,14,,,,,,up,0.5337520461980603,1705.1910040626608,None,001,23,2019_Oct_11_1550,ACPT_experiment_5_30_19,3.1.0,59.94602262919583,
,,,C,G,y,b,L,D,d,R,c ,,,,,5,19,119,14,1,0,1,0,,,,,0,33,33,13,,,,,,up,0.7002877581871871,1707.0093188616083,None,001,23,2019_Oct_11_1550,ACPT_experiment_5_30_19,3.1.0,59.94602262919583,
,,,C,G,y,b,L,G,d,L,i,,,,,5,19,119,14,1,0,1,0,,,,,0,34,34,16,,,,,,up,0.7839459124479617,1708.9938998161997,None,001,23,2019_Oct_11_1550,ACPT_experiment_5_30_19,3.1.0,59.94602262919583,
,,,C,G,y,b,R,U,y,R,u,,,,,5,19,119,14,1,0,1,0,,,,,0,35,35,31,,,,,,down,0.5837727081598132,1711.0621268508585,None,001,23,2019_Oct_11_1550,ACPT_experiment_5_30_19,3.1.0,59.94602262919583,
,,,C,G,y,b,L,G,g,R,c ,,,,,5,19,119,14,1,0,1,0,,,,,1,0,36,19,,,,,,up,0.7005467496128404,1712.93021328155,None,001,23,2019_Oct_11_1550,ACPT_experiment_5_30_19,3.1.0,59.94602262919583,
,,,C,G,y,b,L,U,g,R,u,,,,,5,19,119,14,1,0,1,0,,,,,1,1,37,23,,,,,,up,0.683880741995381,1714.9150251550673,None,001,23,2019_Oct_11_1550,ACPT_experiment_5_30_19,3.1.0,59.94602262919583,
,,,C,G,y,b,R,D,y,L,y,,,,,5,19,119,14,1,0,1,0,,,,,1,2,38,26,,,,,,down,0.633693456180481,1716.8998949847119,None,001,23,2019_Oct_11_1550,ACPT_experiment_5_30_19,3.1.0,59.94602262919583,
,,,C,G,y,b,R,U,y,L,u,,,,,5,19,119,14,1,0,1,0,,,,,1,3,39,30,,,,,,down,0.8172474403472734,1718.834719702154,None,001,23,2019_Oct_11_1550,ACPT_experiment_5_30_19,3.1.0,59.94602262919583,
,,,C,G,y,b,R,D,d,R,c ,,,,,5,19,119,14,1,0,1,0,,,,,1,4,40,1,,,,,,up,0.6337966905230132,1720.9363071263979,None,001,23,2019_Oct_11_1550,ACPT_experiment_5_30_19,3.1.0,59.94602262919583,
,,,C,G,y,b,R,G,g,R,c ,,,,,5,19,119,14,1,0,1,0,,,,,1,5,41,7,,,,,,up,0.5837594265467487,1722.8544284062264,None,001,23,2019_Oct_11_1550,ACPT_experiment_5_30_19,3.1.0,59.94602262919583,
,,,C,G,y,b,L,G,g,L,c ,,,,,5,19,119,14,1,0,1,0,,,,,1,6,42,18,,,,,,up,0.7172347926280054,1724.7225069886917,None,001,23,2019_Oct_11_1550,ACPT_experiment_5_30_19,3.1.0,59.94602262919583,
,,,C,G,y,b,R,G,g,L,c ,,,,,5,19,119,14,1,0,1,0,,,,,1,7,43,6,,,,,,up,0.6170226188878587,1726.7240204886948,None,001,23,2019_Oct_11_1550,ACPT_experiment_5_30_19,3.1.0,59.94602262919583,
,,,C,G,y,b,L,U,y,R,u,,,,,5,19,119,14,1,0,1,0,,,,,1,8,44,25,,,,,,down,0.7672799048341403,1728.6254627811504,None,001,23,2019_Oct_11_1550,ACPT_experiment_5_30_19,3.1.0,59.94602262919583,
,,,C,G,y,b,R,G,y,L,y,,,,,5,19,119,14,1,0,1,0,,,,,1,9,45,28,,,,,,down,0.7338893297674076,1730.6770250156114,None,001,23,2019_Oct_11_1550,ACPT_experiment_5_30_19,3.1.0,59.94602262919583,
,,,C,G,y,b,L,D,g,R,i,,,,,5,19,119,14,1,0,1,0,,,,,1,10,46,15,,,,,,up,0.5504530689722742,1732.6952111640385,None,001,23,2019_Oct_11_1550,ACPT_experiment_5_30_19,3.1.0,59.94602262919583,
,,,C,G,y,b,L,U,y,L,u,,,,,5,19,119,14,1,0,1,0,,,,,1,11,47,24,,,,,,down,0.6171321921792696,1734.5299507886084,None,001,23,2019_Oct_11_1550,ACPT_experiment_5_30_19,3.1.0,59.94602262919583,
,,,C,G,y,b,R,U,g,L,u,,,,,5,19,119,14,1,0,1,0,,,,,1,12,48,10,,,,,,up,0.6504874502352322,1736.4313954959034,None,001,23,2019_Oct_11_1550,ACPT_experiment_5_30_19,3.1.0,59.94602262919583,
,,,C,G,y,b,L,D,d,R,c ,,,,,5,19,119,14,1,0,1,0,,,,,1,13,49,13,,,,,,up,0.7169407860492356,1738.383145212385,None,001,23,2019_Oct_11_1550,ACPT_experiment_5_30_19,3.1.0,59.94602262919583,
,,,C,G,y,b,R,U,d,R,u,,,,,5,19,119,14,1,0,1,0,,,,,1,14,50,9,,,,,,down,0.8339638577162987,1740.3843985135463,None,001,23,2019_Oct_11_1550,ACPT_experiment_5_30_19,3.1.0,59.94602262919583,
,,,C,G,y,b,L,G,d,R,i,,,,,5,19,119,14,1,0,1,0,,,,,1,15,51,17,,,,,,up,0.7338917446031701,1742.485991069323,None,001,23,2019_Oct_11_1550,ACPT_experiment_5_30_19,3.1.0,59.94602262919583,
,,,C,G,y,b,L,D,y,L,y,,,,,5,19,119,14,1,0,1,0,,,,,1,16,52,32,,,,,,down,0.7338823871032218,1744.5208743164112,None,001,23,2019_Oct_11_1550,ACPT_experiment_5_30_19,3.1.0,59.94602262919583,
,,,C,G,y,b,L,U,d,L,u,,,,,5,19,119,14,1,0,1,0,,,,,1,17,53,20,,,,,,up,0.8339590280411358,1746.5557542430943,None,001,23,2019_Oct_11_1550,ACPT_experiment_5_30_19,3.1.0,59.94602262919583,
,,,C,G,y,b,L,G,d,L,i,,,,,5,19,119,14,1,0,1,0,,,,,1,18,54,16,,,,,,up,0.6338087647163775,1748.6740245788278,None,001,23,2019_Oct_11_1550,ACPT_experiment_5_30_19,3.1.0,59.94602262919583,
,,,C,G,y,b,R,G,d,R,i,,,,,5,19,119,14,1,0,1,0,,,,,1,19,55,5,,,,,,up,0.5337134087822051,1750.592166988492,None,001,23,2019_Oct_11_1550,ACPT_experiment_5_30_19,3.1.0,59.94602262919583,
,,,C,G,y,b,R,D,d,L,c,,,,,5,19,119,14,1,0,1,0,,,,,1,20,56,0,,,,,,up,0.6004366027955257,1752.4268845776642,None,001,23,2019_Oct_11_1550,ACPT_experiment_5_30_19,3.1.0,59.94602262919583,
,,,C,G,y,b,L,G,y,R,y,,,,,5,19,119,14,1,0,1,0,,,,,1,21,57,35,,,,,,down,0.5504059796221554,1754.3283250589884,None,001,23,2019_Oct_11_1550,ACPT_experiment_5_30_19,3.1.0,59.94602262919583,
,,,C,G,y,b,L,U,g,L,u,,,,,5,19,119,14,1,0,1,0,,,,,1,22,58,22,,,,,,up,0.6504814131403691,1756.1797309930298,None,001,23,2019_Oct_11_1550,ACPT_experiment_5_30_19,3.1.0,59.94602262919583,
,,,C,G,y,b,R,U,g,R,u,,,,,5,19,119,14,1,0,1,0,,,,,1,23,59,11,,,,,,up,0.6004553177917842,1758.114526430556,None,001,23,2019_Oct_11_1550,ACPT_experiment_5_30_19,3.1.0,59.94602262919583,
,,,C,G,y,b,L,U,d,R,u,,,,,5,19,119,14,1,0,1,0,,,,,1,24,60,21,,,,,,up,0.6171738481461944,1759.999275850314,None,001,23,2019_Oct_11_1550,ACPT_experiment_5_30_19,3.1.0,59.94602262919583,
,,,C,G,y,b,R,U,y,R,u,,,,,5,19,119,14,1,0,1,0,,,,,1,25,61,31,,,,,,down,0.683848745386058,1761.9007416874447,None,001,23,2019_Oct_11_1550,ACPT_experiment_5_30_19,3.1.0,59.94602262919583,
,,,C,G,y,b,R,G,d,L,i,,,,,5,19,119,14,1,0,1,0,,,,,1,26,62,4,,,,,,up,0.6671685505934875,1763.868896910848,None,001,23,2019_Oct_11_1550,ACPT_experiment_5_30_19,3.1.0,59.94602262919583,
,,,C,G,y,b,L,D,g,L,i,,,,,5,19,119,14,1,0,1,0,,,,,1,27,63,14,,,,,,up,0.5671211895714805,1765.8203803913893,None,001,23,2019_Oct_11_1550,ACPT_experiment_5_30_19,3.1.0,59.94602262919583,
,,,C,G,y,b,L,D,y,R,y,,,,,5,19,119,14,1,0,1,0,,,,,1,28,64,33,,,,,,down,0.8339529909462726,1767.6717968903504,None,001,23,2019_Oct_11_1550,ACPT_experiment_5_30_19,3.1.0,59.94602262919583,
,,,C,G,y,b,R,D,y,R,y,,,,,5,19,119,14,1,0,1,0,,,,,1,29,65,27,,,,,,down,0.7172206054528942,1769.7900614908394,None,001,23,2019_Oct_11_1550,ACPT_experiment_5_30_19,3.1.0,59.94602262919583,
,,,C,G,y,b,R,D,g,R,i,,,,,5,19,119,14,1,0,1,0,,,,,1,30,66,3,,,,,,up,0.8005992421603878,1771.791584952054,None,001,23,2019_Oct_11_1550,ACPT_experiment_5_30_19,3.1.0,59.94602262919583,
,,,C,G,y,b,R,D,g,L,i,,,,,5,19,119,14,1,0,1,0,,,,,1,31,67,2,,,,,,up,0.8506648804905126,1773.8597996106655,None,001,23,2019_Oct_11_1550,ACPT_experiment_5_30_19,3.1.0,59.94602262919583,
,,,C,G,y,b,R,G,y,R,y,,,,,5,19,119,14,1,0,1,0,,,,,1,32,68,29,,,,,,down,0.7338863112163381,1775.994776100706,None,001,23,2019_Oct_11_1550,ACPT_experiment_5_30_19,3.1.0,59.94602262919583,
,,,C,G,y,b,L,G,y,L,y,,,,,5,19,119,14,1,0,1,0,,,,,1,33,69,34,,,,,,down,0.7472276899861754,1778.0329900137367,None,001,23,2019_Oct_11_1550,ACPT_experiment_5_30_19,3.1.0,59.94602262919583,
,,,C,G,y,b,R,U,d,L,u,,,,,5,19,119,14,1,0,1,0,,,,,1,34,70,8,,,,,,up,1.2509500125415798,1780.064530520689,None,001,23,2019_Oct_11_1550,ACPT_experiment_5_30_19,3.1.0,59.94602262919583,
,,,C,G,y,b,L,D,d,L,c ,,,,,5,19,119,14,1,0,1,0,,,,,1,35,71,12,,,,,,up,0.7005295438902976,1782.5997903316493,None,001,23,2019_Oct_11_1550,ACPT_experiment_5_30_19,3.1.0,59.94602262919583,
,,,C,G,y,b,,,,,,,,,,5,19,119,14,2,0,2,0,0,0,0,0,,,,,,,,,,,,,,001,23,2019_Oct_11_1550,ACPT_experiment_5_30_19,3.1.0,59.94602262919583,
,,,C,G,y,b,R,G,g,L,c ,,,,,5,19,119,14,2,0,2,0,,,,,0,0,0,6,,,,,,up,0.6837512462843733,1792.9579326084968,None,001,23,2019_Oct_11_1550,ACPT_experiment_5_30_19,3.1.0,59.94602262919583,
,,,C,G,y,b,R,G,d,R,i,,,,,5,19,119,14,2,0,2,0,,,,,0,1,1,5,,,,,,up,0.6004532048100373,1794.9258388016824,None,001,23,2019_Oct_11_1550,ACPT_experiment_5_30_19,3.1.0,59.94602262919583,
,,,C,G,y,b,L,U,g,L,u,,,,,5,19,119,14,2,0,2,0,,,,,0,2,2,22,,,,,,up,0.5504201667972666,1796.8105824861996,None,001,23,2019_Oct_11_1550,ACPT_experiment_5_30_19,3.1.0,59.94602262919583,
,,,C,G,y,b,L,G,g,R,c ,,,,,5,19,119,14,2,0,2,0,,,,,0,3,3,19,,,,,,up,0.6171294754858536,1798.6453157718206,None,001,23,2019_Oct_11_1550,ACPT_experiment_5_30_19,3.1.0,59.94602262919583,
,,,C,G,y,b,L,U,d,R,u,,,,,5,19,119,14,2,0,2,0,,,,,0,4,4,21,,,,,,up,0.5504195630892355,1800.546753838309,None,001,23,2019_Oct_11_1550,ACPT_experiment_5_30_19,3.1.0,59.94602262919583,
,,,C,G,y,b,R,D,g,L,i,,,,,5,19,119,14,2,0,2,0,,,,,0,5,5,2,,,,,,up,0.6338105758441088,1802.3814853127988,None,001,23,2019_Oct_11_1550,ACPT_experiment_5_30_19,3.1.0,59.94602262919583,
,,,C,G,y,b,R,D,d,L,c,,,,,5,19,119,14,2,0,2,0,,,,,0,6,6,0,,,,,,up,0.650523672815325,1804.282905569853,None,001,23,2019_Oct_11_1550,ACPT_experiment_5_30_19,3.1.0,59.94602262919583,
,,,C,G,y,b,R,D,y,R,y,,,,,5,19,119,14,2,0,2,0,,,,,0,7,7,27,,,,,,down,0.6835840187231952,1806.2179947121076,None,001,23,2019_Oct_11_1550,ACPT_experiment_5_30_19,3.1.0,59.94602262919583,
,,,C,G,y,b,L,D,g,R,i,,,,,5,19,119,14,2,0,2,0,,,,,0,8,8,15,,,,,,up,0.6838469342583267,1808.1858912459356,None,001,23,2019_Oct_11_1550,ACPT_experiment_5_30_19,3.1.0,59.94602262919583,
,,,C,G,y,b,R,U,g,R,u,,,,,5,19,119,14,2,0,2,0,,,,,0,9,9,11,,,,,,up,0.650497109589196,1810.1540497897404,None,001,23,2019_Oct_11_1550,ACPT_experiment_5_30_19,3.1.0,59.94602262919583,
,,,C,G,y,b,R,U,g,L,u,,,,,5,19,119,14,2,0,2,0,,,,,0,10,10,10,,,,,,up,0.6339630125221447,1812.0720201421645,None,001,23,2019_Oct_11_1550,ACPT_experiment_5_30_19,3.1.0,59.94602262919583,
,,,C,G,y,b,L,D,d,L,c ,,,,,5,19,119,14,2,0,2,0,,,,,0,11,11,12,,,,,,up,0.8171731840629946,1813.9902986883499,None,001,23,2019_Oct_11_1550,ACPT_experiment_5_30_19,3.1.0,59.94602262919583,
,,,C,G,y,b,L,D,d,R,c ,,,,,5,19,119,14,2,0,2,0,,,,,0,12,12,13,,,,,,up,0.5837733118714823,1816.091894564528,None,001,23,2019_Oct_11_1550,ACPT_experiment_5_30_19,3.1.0,59.94602262919583,
,,,C,G,y,b,L,D,g,L,i,,,,,5,19,119,14,2,0,2,0,,,,,0,13,13,14,,,,,,up,0.7672584731408278,1817.959979485946,None,001,23,2019_Oct_11_1550,ACPT_experiment_5_30_19,3.1.0,59.94602262919583,
,,,C,G,y,b,L,U,g,R,u,,,,,5,19,119,14,2,0,2,0,,,,,0,14,14,23,,,,,,up,0.7839305178531504,1820.0115359851661,None,001,23,2019_Oct_11_1550,ACPT_experiment_5_30_19,3.1.0,59.94602262919583,
,,,C,G,y,b,L,D,y,R,y,,,,,5,19,119,14,2,0,2,0,,,,,0,15,15,33,,,,,,down,1.00076037225881,1822.0797747921642,None,001,23,2019_Oct_11_1550,ACPT_experiment_5_30_19,3.1.0,59.94602262919583,
,,,C,G,y,b,L,U,y,L,u,,,,,5,19,119,14,2,0,2,0,,,,,0,16,16,24,,,,,,down,0.6671972268013633,1824.364839227601,None,001,23,2019_Oct_11_1550,ACPT_experiment_5_30_19,3.1.0,59.94602262919583,
,,,C,G,y,b,L,G,d,R,i,,,,,5,19,119,14,2,0,2,0,,,,,0,17,17,17,,,,,,up,0.9173744910367532,1826.316324217416,None,001,23,2019_Oct_11_1550,ACPT_experiment_5_30_19,3.1.0,59.94602262919583,
,,,C,G,y,b,L,D,y,L,y,,,,,5,19,119,14,2,0,2,0,,,,,0,18,18,32,,,,,,down,0.667163419060671,1828.5346805515837,None,001,23,2019_Oct_11_1550,ACPT_experiment_5_30_19,3.1.0,59.94602262919583,
,,,C,G,y,b,L,U,d,L,u,,,,,5,19,119,14,2,0,2,0,,,,,0,19,19,20,,,,,,up,1.10083429649967,1830.519515667922,None,001,23,2019_Oct_11_1550,ACPT_experiment_5_30_19,3.1.0,59.94602262919583,
,,,C,G,y,b,R,G,d,L,i,,,,,5,19,119,14,2,0,2,0,,,,,0,20,20,4,,,,,,up,0.6504898650746327,1832.9046633850994,None,001,23,2019_Oct_11_1550,ACPT_experiment_5_30_19,3.1.0,59.94602262919583,
,,,C,G,y,b,R,U,y,R,u,,,,,5,19,119,14,2,0,2,0,,,,,0,21,21,31,,,,,,down,0.633822046329442,1834.8394603318993,None,001,23,2019_Oct_11_1550,ACPT_experiment_5_30_19,3.1.0,59.94602262919583,
,,,C,G,y,b,R,U,y,L,u,,,,,5,19,119,14,2,0,2,0,,,,,0,22,22,30,,,,,,down,0.6338295926980209,1836.774269051035,None,001,23,2019_Oct_11_1550,ACPT_experiment_5_30_19,3.1.0,59.94602262919583,
,,,C,G,y,b,R,D,d,R,c ,,,,,5,19,119,14,2,0,2,0,,,,,0,23,23,1,,,,,,up,0.8506410339614376,1838.709070525656,None,001,23,2019_Oct_11_1550,ACPT_experiment_5_30_19,3.1.0,59.94602262919583,
,,,C,G,y,b,L,G,y,L,y,,,,,5,19,119,14,2,0,2,0,,,,,0,24,24,34,,,,,,down,0.6838556880466058,1840.8440246784412,None,001,23,2019_Oct_11_1550,ACPT_experiment_5_30_19,3.1.0,59.94602262919583,
,,,C,G,y,b,R,D,g,R,i,,,,,5,19,119,14,2,0,2,0,,,,,0,25,25,3,,,,,,up,0.9507222027204989,1842.8121892593408,None,001,23,2019_Oct_11_1550,ACPT_experiment_5_30_19,3.1.0,59.94602262919583,
,,,C,G,y,b,L,G,g,L,c ,,,,,5,19,119,14,2,0,2,0,,,,,0,26,26,18,,,,,,up,0.7005192808246647,1845.04722276975,None,001,23,2019_Oct_11_1550,ACPT_experiment_5_30_19,3.1.0,59.94602262919583,
,,,C,G,y,b,R,G,g,R,c ,,,,,5,19,119,14,2,0,2,0,,,,,0,27,27,7,,,,,,up,0.6671942082502937,1847.0320563768182,None,001,23,2019_Oct_11_1550,ACPT_experiment_5_30_19,3.1.0,59.94602262919583,
,,,C,G,y,b,L,U,y,R,u,,,,,5,19,119,14,2,0,2,0,,,,,0,28,28,25,,,,,,down,0.6671570801081543,1848.983555855666,None,001,23,2019_Oct_11_1550,ACPT_experiment_5_30_19,3.1.0,59.94602262919583,
,,,C,G,y,b,L,G,d,L,i,,,,,5,19,119,14,2,0,2,0,,,,,0,29,29,16,,,,,,up,0.6338317056834057,1850.935022734193,None,001,23,2019_Oct_11_1550,ACPT_experiment_5_30_19,3.1.0,59.94602262919583,
,,,C,G,y,b,R,U,d,L,u,,,,,5,19,119,14,2,0,2,0,,,,,0,30,30,8,,,,,,up,0.7672485119328485,1852.853141599182,None,001,23,2019_Oct_11_1550,ACPT_experiment_5_30_19,3.1.0,59.94602262919583,
,,,C,G,y,b,R,U,d,R,u,,,,,5,19,119,14,2,0,2,0,,,,,0,31,31,9,,,,,,up,0.8006070903902582,1854.9047023243693,None,001,23,2019_Oct_11_1550,ACPT_experiment_5_30_19,3.1.0,59.94602262919583,
,,,C,G,y,b,R,G,y,R,y,,,,,5,19,119,14,2,0,2,0,,,,,0,32,32,29,,,,,,down,0.6504883558009169,1856.98962132616,None,001,23,2019_Oct_11_1550,ACPT_experiment_5_30_19,3.1.0,59.94602262919583,
,,,C,G,y,b,R,G,y,L,y,,,,,5,19,119,14,2,0,2,0,,,,,0,33,33,28,,,,,,down,0.5837995732399577,1858.9244200840876,None,001,23,2019_Oct_11_1550,ACPT_experiment_5_30_19,3.1.0,59.94602262919583,
,,,C,G,y,b,L,G,y,R,y,,,,,5,19,119,14,2,0,2,0,,,,,0,34,34,35,,,,,,down,0.7672388525788847,1860.7925167778449,None,001,23,2019_Oct_11_1550,ACPT_experiment_5_30_19,3.1.0,59.94602262919583,
,,,C,G,y,b,R,D,y,L,y,,,,,5,19,119,14,2,0,2,0,,,,,0,35,35,26,,,,,,down,0.5837829712254461,1862.8440624102914,None,001,23,2019_Oct_11_1550,ACPT_experiment_5_30_19,3.1.0,59.94602262919583,
,,,C,G,y,b,L,U,g,L,u,,,,,5,19,119,14,2,0,2,0,,,,,1,0,36,22,,,,,,up,0.6838644418348849,1864.7121464261436,None,001,23,2019_Oct_11_1550,ACPT_experiment_5_30_19,3.1.0,59.94602262919583,
,,,C,G,y,b,R,D,d,L,c,,,,,5,19,119,14,2,0,2,0,,,,,1,1,37,0,,,,,,up,0.8506410339614376,1866.6803134218826,None,001,23,2019_Oct_11_1550,ACPT_experiment_5_30_19,3.1.0,59.94602262919583,
,,,C,G,y,b,R,U,g,L,u,,,,,5,19,119,14,2,0,2,0,,,,,1,2,38,10,,,,,,up,0.667166135754087,1868.8152705932116,None,001,23,2019_Oct_11_1550,ACPT_experiment_5_30_19,3.1.0,59.94602262919583,
,,,C,G,y,b,L,U,y,L,u,,,,,5,19,119,14,2,0,2,0,,,,,1,3,39,24,,,,,,down,0.7172015885989822,1870.7667586015777,None,001,23,2019_Oct_11_1550,ACPT_experiment_5_30_19,3.1.0,59.94602262919583,
,,,C,G,y,b,R,G,y,R,y,,,,,5,19,119,14,2,0,2,0,,,,,1,4,40,29,,,,,,down,0.7005473533208715,1872.7682714978728,None,001,23,2019_Oct_11_1550,ACPT_experiment_5_30_19,3.1.0,59.94602262919583,
,,,C,G,y,b,L,D,d,R,c ,,,,,5,19,119,14,2,0,2,0,,,,,1,5,41,13,,,,,,up,0.6836081671026477,1874.7700328206702,None,001,23,2019_Oct_11_1550,ACPT_experiment_5_30_19,3.1.0,59.94602262919583,
,,,C,G,y,b,L,U,g,R,u,,,,,5,19,119,14,2,0,2,0,,,,,1,6,42,23,,,,,,up,0.65049439289578,1876.7379525973229,None,001,23,2019_Oct_11_1550,ACPT_experiment_5_30_19,3.1.0,59.94602262919583,
,,,C,G,y,b,R,D,d,R,c ,,,,,5,19,119,14,2,0,2,0,,,,,1,7,43,1,,,,,,up,0.5170591735004564,1878.6727549775096,None,001,23,2019_Oct_11_1550,ACPT_experiment_5_30_19,3.1.0,59.94602262919583,
,,,C,G,y,b,L,D,g,L,i,,,,,5,19,119,14,2,0,2,0,,,,,1,8,44,14,,,,,,up,0.5337472165192594,1880.4741157993521,None,001,23,2019_Oct_11_1550,ACPT_experiment_5_30_19,3.1.0,59.94602262919583,
,,,C,G,y,b,R,U,g,R,u,,,,,5,19,119,14,2,0,2,0,,,,,1,9,45,11,,,,,,up,0.4836978783532686,1882.2921667771952,None,001,23,2019_Oct_11_1550,ACPT_experiment_5_30_19,3.1.0,59.94602262919583,
,,,C,G,y,b,L,U,y,R,u,,,,,5,19,119,14,2,0,2,0,,,,,1,10,46,25,,,,,,down,0.6838499528057582,1884.060176566949,None,001,23,2019_Oct_11_1550,ACPT_experiment_5_30_19,3.1.0,59.94602262919583,
,,,C,G,y,b,R,D,y,L,y,,,,,5,19,119,14,2,0,2,0,,,,,1,11,47,26,,,,,,down,0.6838369730467093,1886.0283544294616,None,001,23,2019_Oct_11_1550,ACPT_experiment_5_30_19,3.1.0,59.94602262919583,
,,,C,G,y,b,L,G,d,R,i,,,,,5,19,119,14,2,0,2,0,,,,,1,12,48,17,,,,,,up,0.550170231017546,1888.0134246906964,None,001,23,2019_Oct_11_1550,ACPT_experiment_5_30_19,3.1.0,59.94602262919583,
,,,C,G,y,b,R,D,y,R,y,,,,,5,19,119,14,2,0,2,0,,,,,1,13,49,27,,,,,,down,0.7172136627923464,1889.847903210859,None,001,23,2019_Oct_11_1550,ACPT_experiment_5_30_19,3.1.0,59.94602262919583,
,,,C,G,y,b,R,D,g,L,i,,,,,5,19,119,14,2,0,2,0,,,,,1,14,50,2,,,,,,up,0.6004767494814587,1891.8327283659892,None,001,23,2019_Oct_11_1550,ACPT_experiment_5_30_19,3.1.0,59.94602262919583,
,,,C,G,y,b,R,G,y,L,y,,,,,5,19,119,14,2,0,2,0,,,,,1,15,51,28,,,,,,down,0.7005247142114968,1893.7175140083236,None,001,23,2019_Oct_11_1550,ACPT_experiment_5_30_19,3.1.0,59.94602262919583,
,,,C,G,y,b,R,G,g,R,c ,,,,,5,19,119,14,2,0,2,0,,,,,1,16,52,7,,,,,,up,0.5337354441835487,1895.7023554636144,None,001,23,2019_Oct_11_1550,ACPT_experiment_5_30_19,3.1.0,59.94602262919583,
,,,C,G,y,b,R,U,y,R,u,,,,,5,19,119,14,2,0,2,0,,,,,1,17,53,31,,,,,,down,0.6171306829055538,1897.5203976876692,None,001,23,2019_Oct_11_1550,ACPT_experiment_5_30_19,3.1.0,59.94602262919583,
,,,C,G,y,b,R,U,d,R,u,,,,,5,19,119,14,2,0,2,0,,,,,1,18,54,9,,,,,,up,0.5337553666031454,1899.4218463190737,None,001,23,2019_Oct_11_1550,ACPT_experiment_5_30_19,3.1.0,59.94602262919583,
,,,C,G,y,b,L,G,y,R,y,,,,,5,19,119,14,2,0,2,0,,,,,1,19,55,35,,,,,,down,0.5804387218122429,1901.293257076759,None,001,23,2019_Oct_11_1550,ACPT_experiment_5_30_19,3.1.0,59.94602262919583,
,,,C,G,y,b,L,U,d,R,u,,,,,5,19,119,14,2,0,2,0,,,,,1,20,56,21,,,,,,up,0.5504147334104346,1903.15801374707,None,001,23,2019_Oct_11_1550,ACPT_experiment_5_30_19,3.1.0,59.94602262919583,
,,,C,G,y,b,R,G,d,R,i,,,,,5,19,119,14,2,0,2,0,,,,,1,21,57,5,,,,,,down,0.5670897966738266,1904.9927449197057,None,001,23,2019_Oct_11_1550,ACPT_experiment_5_30_19,3.1.0,59.94602262919583,
,,,C,G,y,b,R,G,d,L,i,,,,,5,19,119,14,2,0,2,0,,,,,1,22,58,4,,,,,,up,0.6172843270069279,1906.8439944929596,None,001,23,2019_Oct_11_1550,ACPT_experiment_5_30_19,3.1.0,59.94602262919583,
,,,C,G,y,b,R,U,d,L,u,,,,,5,19,119,14,2,0,2,0,,,,,1,23,59,8,,,,,,up,0.5170564568106784,1908.7455934480604,None,001,23,2019_Oct_11_1550,ACPT_experiment_5_30_19,3.1.0,59.94602262919583,
,,,C,G,y,b,L,D,y,R,y,,,,,5,19,119,14,2,0,2,0,,,,,1,24,60,33,,,,,,down,0.5670885892541264,1910.563638388805,None,001,23,2019_Oct_11_1550,ACPT_experiment_5_30_19,3.1.0,59.94602262919583,
,,,C,G,y,b,L,D,d,L,c ,,,,,5,19,119,14,2,0,2,0,,,,,1,25,61,12,,,,,,up,0.6504925817680487,1912.4317205935295,None,001,23,2019_Oct_11_1550,ACPT_experiment_5_30_19,3.1.0,59.94602262919583,
,,,C,G,y,b,L,U,d,L,u,,,,,5,19,119,14,2,0,2,0,,,,,1,26,62,20,,,,,,up,0.5835366577011882,1914.383446463482,None,001,23,2019_Oct_11_1550,ACPT_experiment_5_30_19,3.1.0,59.94602262919583,
,,,C,G,y,b,R,D,g,R,i,,,,,5,19,119,14,2,0,2,0,,,,,1,27,63,3,,,,,,up,0.4002981118101161,1916.2512938251675,None,001,23,2019_Oct_11_1550,ACPT_experiment_5_30_19,3.1.0,59.94602262919583,
,,,C,G,y,b,R,G,g,L,c ,,,,,5,19,119,14,2,0,2,0,,,,,1,28,64,6,,,,,,up,0.5170606827778101,1917.9359023391007,None,001,23,2019_Oct_11_1550,ACPT_experiment_5_30_19,3.1.0,59.94602262919583,
,,,C,G,y,b,R,U,y,L,u,,,,,5,19,119,14,2,0,2,0,,,,,1,29,65,30,,,,,,down,0.6171391348434554,1919.737273725863,None,001,23,2019_Oct_11_1550,ACPT_experiment_5_30_19,3.1.0,59.94602262919583,
,,,C,G,y,b,L,D,y,L,y,,,,,5,19,119,14,2,0,2,0,,,,,1,30,66,32,,,,,,down,1.100852709645551,1921.6720869728197,None,001,23,2019_Oct_11_1550,ACPT_experiment_5_30_19,3.1.0,59.94602262919583,
,,,C,G,y,b,L,G,d,L,i,,,,,5,19,119,14,2,0,2,0,,,,,1,31,67,16,,,,,,up,0.7505652985892084,1924.0739016031803,None,001,23,2019_Oct_11_1550,ACPT_experiment_5_30_19,3.1.0,59.94602262919583,
,,,C,G,y,b,L,D,g,R,i,,,,,5,19,119,14,2,0,2,0,,,,,1,32,68,15,,,,,,up,1.05079673066939,1926.1087857558305,None,001,23,2019_Oct_11_1550,ACPT_experiment_5_30_19,3.1.0,59.94602262919583,
,,,C,G,y,b,L,G,g,L,c ,,,,,5,19,119,14,2,0,2,0,,,,,1,33,69,18,,,,,,up,0.6338096702784242,1928.4438862478237,None,001,23,2019_Oct_11_1550,ACPT_experiment_5_30_19,3.1.0,59.94602262919583,
,,,C,G,y,b,L,G,g,R,c ,,,,,5,19,119,14,2,0,2,0,,,,,1,34,70,19,,,,,,up,0.7005410143719928,1930.3620069239441,None,001,23,2019_Oct_11_1550,ACPT_experiment_5_30_19,3.1.0,59.94602262919583,
,,,C,G,y,b,L,G,y,L,y,,,,,5,19,119,14,2,0,2,0,,,,,1,35,71,34,,,,,,down,0.6171608683871455,1932.330147054603,None,001,23,2019_Oct_11_1550,ACPT_experiment_5_30_19,3.1.0,59.94602262919583,
,,,C,G,y,b,,,,,,,,,,5,19,119,14,3,0,3,0,0,0,0,0,,,,,,,,,,,,,,001,23,2019_Oct_11_1550,ACPT_experiment_5_30_19,3.1.0,59.94602262919583,
,,,C,G,y,b,L,G,g,L,c ,,,,,5,19,119,14,3,0,3,0,,,,,0,0,0,18,,,,,,up,0.8640002221654868,1955.8847174231487,None,001,23,2019_Oct_11_1550,ACPT_experiment_5_30_19,3.1.0,59.94602262919583,
,,,C,G,y,b,L,U,y,R,u,,,,,5,19,119,14,3,0,3,0,,,,,0,1,1,25,,,,,,down,0.9840756496450922,1958.0497028088466,None,001,23,2019_Oct_11_1550,ACPT_experiment_5_30_19,3.1.0,59.94602262919583,
,,,C,G,y,b,L,D,d,R,c ,,,,,5,19,119,14,3,0,3,0,,,,,0,2,2,13,,,,,,up,0.9840762533531233,1960.3347690554147,None,001,23,2019_Oct_11_1550,ACPT_experiment_5_30_19,3.1.0,59.94602262919583,
,,,C,G,y,b,R,G,g,L,c ,,,,,5,19,119,14,3,0,3,0,,,,,0,3,3,6,,,,,,up,2.1517101131321397,1962.603161747993,None,001,23,2019_Oct_11_1550,ACPT_experiment_5_30_19,3.1.0,59.94602262919583,
,,,C,G,y,b,L,U,d,R,u,,,,,5,19,119,14,3,0,3,0,,,,,0,4,4,21,,,,,,up,0.583776934126945,1966.0390992531793,None,001,23,2019_Oct_11_1550,ACPT_experiment_5_30_19,3.1.0,59.94602262919583,
,,,C,G,y,b,L,D,g,L,i,,,,,5,19,119,14,3,0,3,0,,,,,0,5,5,14,,,,,,up,0.5670985504657438,1967.9071868912906,None,001,23,2019_Oct_11_1550,ACPT_experiment_5_30_19,3.1.0,59.94602262919583,
,,,C,G,y,b,L,D,y,R,y,,,,,5,19,119,14,3,0,3,0,,,,,0,6,6,33,,,,,,down,0.6838683659480012,1969.7418951229592,None,001,23,2019_Oct_11_1550,ACPT_experiment_5_30_19,3.1.0,59.94602262919583,
,,,C,G,y,b,L,D,d,L,c ,,,,,5,19,119,14,3,0,3,0,,,,,0,7,7,12,,,,,,up,1.501158971532277,1971.6933764905189,None,001,23,2019_Oct_11_1550,ACPT_experiment_5_30_19,3.1.0,59.94602262919583,
,,,C,G,y,b,R,G,d,R,i,,,,,5,19,119,14,3,0,3,0,,,,,0,8,8,5,,,,,,up,1.284306176159589,1974.4788476753092,None,001,23,2019_Oct_11_1550,ACPT_experiment_5_30_19,3.1.0,59.94602262919583,
,,,C,G,y,b,R,U,d,L,u,,,,,5,19,119,14,3,0,3,0,,,,,0,9,9,8,,,,,,up,0.9340658544570033,1977.047460933194,None,001,23,2019_Oct_11_1550,ACPT_experiment_5_30_19,3.1.0,59.94602262919583,
,,,C,G,y,b,R,U,d,R,u,,,,,5,19,119,14,3,0,3,0,,,,,0,10,10,9,,,,,,up,0.6839242090863991,1979.2491138297482,None,001,23,2019_Oct_11_1550,ACPT_experiment_5_30_19,3.1.0,59.94602262919583,
,,,C,G,y,b,L,U,g,R,u,,,,,5,19,119,14,3,0,3,0,,,,,0,11,11,23,,,,,,up,0.8005729807919124,1981.2173227833046,None,001,23,2019_Oct_11_1550,ACPT_experiment_5_30_19,3.1.0,59.94602262919583,
,,,C,G,y,b,R,U,y,L,u,,,,,5,19,119,14,3,0,3,0,,,,,0,12,12,30,,,,,,down,0.7005494663062564,1983.3188957185193,None,001,23,2019_Oct_11_1550,ACPT_experiment_5_30_19,3.1.0,59.94602262919583,
,,,C,G,y,b,L,U,g,L,u,,,,,5,19,119,14,3,0,3,0,,,,,0,13,13,22,,,,,,up,1.9014773076123674,1985.3203908053802,None,001,23,2019_Oct_11_1550,ACPT_experiment_5_30_19,3.1.0,59.94602262919583,
,,,C,G,y,b,R,D,d,R,c ,,,,,5,19,119,14,3,0,3,0,,,,,0,14,14,1,,,,,,up,0.7003387716504221,1988.5063264239761,None,001,23,2019_Oct_11_1550,ACPT_experiment_5_30_19,3.1.0,59.94602262919583,
,,,C,G,y,b,R,D,y,R,y,,,,,5,19,119,14,3,0,3,0,,,,,0,15,15,27,,,,,,down,0.617131890328892,1990.4910057832349,None,001,23,2019_Oct_11_1550,ACPT_experiment_5_30_19,3.1.0,59.94602262919583,
,,,C,G,y,b,R,U,g,L,u,,,,,5,19,119,14,3,0,3,0,,,,,0,16,16,10,,,,,,up,1.0840457358353888,1992.3924498868182,None,001,23,2019_Oct_11_1550,ACPT_experiment_5_30_19,3.1.0,59.94602262919583,
,,,C,G,y,b,L,U,y,L,u,,,,,5,19,119,14,3,0,3,0,,,,,0,17,17,24,,,,,,down,0.667166135757725,1994.7775951891563,None,001,23,2019_Oct_11_1550,ACPT_experiment_5_30_19,3.1.0,59.94602262919583,
,,,C,G,y,b,R,U,g,R,u,,,,,5,19,119,14,3,0,3,0,,,,,0,18,18,11,,,,,,up,0.8673215306080237,1996.7457573552201,None,001,23,2019_Oct_11_1550,ACPT_experiment_5_30_19,3.1.0,59.94602262919583,
,,,C,G,y,b,L,U,d,L,u,,,,,5,19,119,14,3,0,3,0,,,,,0,19,19,20,,,,,,up,0.6505315210379194,1998.8973886842468,None,001,23,2019_Oct_11_1550,ACPT_experiment_5_30_19,3.1.0,59.94602262919583,
,,,C,G,y,b,R,G,y,R,y,,,,,5,19,119,14,3,0,3,0,,,,,0,20,20,29,,,,,,down,0.5671100209438009,2000.8321989126562,None,001,23,2019_Oct_11_1550,ACPT_experiment_5_30_19,3.1.0,59.94602262919583,
,,,C,G,y,b,R,G,g,R,c ,,,,,5,19,119,14,3,0,3,0,,,,,0,21,21,7,,,,,,up,0.6004480732772208,2002.6835985077487,None,001,23,2019_Oct_11_1550,ACPT_experiment_5_30_19,3.1.0,59.94602262919583,
,,,C,G,y,b,R,U,y,R,u,,,,,5,19,119,14,3,0,3,0,,,,,0,22,22,31,,,,,,down,0.7505659023008775,2004.5683609072657,None,001,23,2019_Oct_11_1550,ACPT_experiment_5_30_19,3.1.0,59.94602262919583,
,,,C,G,y,b,L,G,y,R,y,,,,,5,19,119,14,3,0,3,0,,,,,0,23,23,35,,,,,,down,0.7005301475983288,2006.6032429469342,None,001,23,2019_Oct_11_1550,ACPT_experiment_5_30_19,3.1.0,59.94602262919583,
,,,C,G,y,b,R,D,g,R,i,,,,,5,19,119,14,3,0,3,0,,,,,0,24,24,3,,,,,,up,0.6171330977449543,2008.5880825910972,None,001,23,2019_Oct_11_1550,ACPT_experiment_5_30_19,3.1.0,59.94602262919583,
,,,C,G,y,b,L,G,d,R,i,,,,,5,19,119,14,3,0,3,0,,,,,0,25,25,17,,,,,,up,1.0341186488622043,2010.4895245816952,None,001,23,2019_Oct_11_1550,ACPT_experiment_5_30_19,3.1.0,59.94602262919583,
,,,C,G,y,b,L,D,g,R,i,,,,,5,19,119,14,3,0,3,0,,,,,0,26,26,15,,,,,,up,1.0841930409769702,2012.8079282768813,None,001,23,2019_Oct_11_1550,ACPT_experiment_5_30_19,3.1.0,59.94602262919583,
,,,C,G,y,b,R,D,d,L,c,,,,,5,19,119,14,3,0,3,0,,,,,0,27,27,0,,,,,,up,0.733891140891501,2015.1764181365215,None,001,23,2019_Oct_11_1550,ACPT_experiment_5_30_19,3.1.0,59.94602262919583,
,,,C,G,y,b,R,D,g,L,i,,,,,5,19,119,14,3,0,3,0,,,,,0,28,28,2,,,,,,up,0.7172655818212661,2017.1779177512035,None,001,23,2019_Oct_11_1550,ACPT_experiment_5_30_19,3.1.0,59.94602262919583,
,,,C,G,y,b,L,G,g,R,c ,,,,,5,19,119,14,3,0,3,0,,,,,0,29,29,19,,,,,,up,1.1508751827350352,2019.1794602292684,None,001,23,2019_Oct_11_1550,ACPT_experiment_5_30_19,3.1.0,59.94602262919583,
,,,C,G,y,b,R,G,y,L,y,,,,,5,19,119,14,3,0,3,0,,,,,0,30,30,28,,,,,,down,0.6671718709985726,2021.6146421918747,None,001,23,2019_Oct_11_1550,ACPT_experiment_5_30_19,3.1.0,59.94602262919583,
,,,C,G,y,b,R,G,d,L,i,,,,,5,19,119,14,3,0,3,0,,,,,0,31,31,4,,,,,,up,0.6168674655127688,2023.566392512068,None,001,23,2019_Oct_11_1550,ACPT_experiment_5_30_19,3.1.0,59.94602262919583,
,,,C,G,y,b,L,G,y,L,y,,,,,5,19,119,14,3,0,3,0,,,,,0,32,32,34,,,,,,down,0.6171358144383703,2025.467566757452,None,001,23,2019_Oct_11_1550,ACPT_experiment_5_30_19,3.1.0,59.94602262919583,
,,,C,G,y,b,L,D,y,L,y,,,,,5,19,119,14,3,0,3,0,,,,,0,33,33,32,,,,,,down,0.6337988035083981,2027.3690168981339,None,001,23,2019_Oct_11_1550,ACPT_experiment_5_30_19,3.1.0,59.94602262919583,
,,,C,G,y,b,L,G,d,L,i,,,,,5,19,119,14,3,0,3,0,,,,,0,34,34,16,,,,,,up,0.7839274993057188,2029.287135461269,None,001,23,2019_Oct_11_1550,ACPT_experiment_5_30_19,3.1.0,59.94602262919583,
,,,C,G,y,b,R,D,y,L,y,,,,,5,19,119,14,3,0,3,0,,,,,0,35,35,26,,,,,,down,0.7172070219858142,2031.3553700422963,None,001,23,2019_Oct_11_1550,ACPT_experiment_5_30_19,3.1.0,59.94602262919583,
,,,C,G,y,b,L,D,d,L,c ,,,,,5,19,119,14,3,0,3,0,,,,,1,0,36,12,,,,,,up,1.03412015813592,2033.3568874664124,None,001,23,2019_Oct_11_1550,ACPT_experiment_5_30_19,3.1.0,59.94602262919583,
,,,C,G,y,b,R,U,d,L,u,,,,,5,19,119,14,3,0,3,0,,,,,1,1,37,8,,,,,,up,1.0841468571925361,2035.6753213470802,None,001,23,2019_Oct_11_1550,ACPT_experiment_5_30_19,3.1.0,59.94602262919583,
,,,C,G,y,b,L,U,g,R,u,,,,,5,19,119,14,3,0,3,0,,,,,1,2,38,23,,,,,,up,0.7337758323556045,2038.0437819268045,None,001,23,2019_Oct_11_1550,ACPT_experiment_5_30_19,3.1.0,59.94602262919583,
,,,C,G,y,b,R,D,d,R,c ,,,,,5,19,119,14,3,0,3,0,,,,,1,3,39,1,,,,,,up,0.9840768570647924,2040.0619828661147,None,001,23,2019_Oct_11_1550,ACPT_experiment_5_30_19,3.1.0,59.94602262919583,
,,,C,G,y,b,R,G,d,R,i,,,,,5,19,119,14,3,0,3,0,,,,,1,4,40,5,,,,,,up,0.717224831423664,2042.3303489954706,None,001,23,2019_Oct_11_1550,ACPT_experiment_5_30_19,3.1.0,59.94602262919583,
,,,C,G,y,b,L,G,d,L,i,,,,,5,19,119,14,3,0,3,0,,,,,1,5,41,16,,,,,,up,0.6004580344852002,2044.3318905679698,None,001,23,2019_Oct_11_1550,ACPT_experiment_5_30_19,3.1.0,59.94602262919583,
,,,C,G,y,b,R,D,d,L,c,,,,,5,19,119,14,3,0,3,0,,,,,1,6,42,0,,,,,,up,0.5671012671555218,2046.2166496470854,None,001,23,2019_Oct_11_1550,ACPT_experiment_5_30_19,3.1.0,59.94602262919583,
,,,C,G,y,b,L,G,g,R,c ,,,,,5,19,119,14,3,0,3,0,,,,,1,7,43,19,,,,,,up,0.550408998173225,2048.0680619200793,None,001,23,2019_Oct_11_1550,ACPT_experiment_5_30_19,3.1.0,59.94602262919583,
,,,C,G,y,b,R,G,y,R,y,,,,,5,19,119,14,3,0,3,0,,,,,1,8,44,29,,,,,,down,0.8170657237533305,2049.919709337966,None,001,23,2019_Oct_11_1550,ACPT_experiment_5_30_19,3.1.0,59.94602262919583,
,,,C,G,y,b,R,U,g,L,u,,,,,5,19,119,14,3,0,3,0,,,,,1,9,45,10,,,,,,up,0.6504956003154803,2052.021060711755,None,001,23,2019_Oct_11_1550,ACPT_experiment_5_30_19,3.1.0,59.94602262919583,
,,,C,G,y,b,R,U,y,R,u,,,,,5,19,119,14,3,0,3,0,,,,,1,10,46,31,,,,,,down,0.6671760969620664,2053.955863997504,None,001,23,2019_Oct_11_1550,ACPT_experiment_5_30_19,3.1.0,59.94602262919583,
,,,C,G,y,b,R,G,g,R,c ,,,,,5,19,119,14,3,0,3,0,,,,,1,11,47,7,,,,,,up,0.6504774890272529,2055.9073707208663,None,001,23,2019_Oct_11_1550,ACPT_experiment_5_30_19,3.1.0,59.94602262919583,
,,,C,G,y,b,L,U,g,L,u,,,,,5,19,119,14,3,0,3,0,,,,,1,12,48,22,,,,,,up,0.5837751229992136,2057.84215046194,None,001,23,2019_Oct_11_1550,ACPT_experiment_5_30_19,3.1.0,59.94602262919583,
,,,C,G,y,b,L,D,y,R,y,,,,,5,19,119,14,3,0,3,0,,,,,1,13,49,33,,,,,,down,0.7005711998535844,2059.7102320629565,None,001,23,2019_Oct_11_1550,ACPT_experiment_5_30_19,3.1.0,59.94602262919583,
,,,C,G,y,b,L,U,d,L,u,,,,,5,19,119,14,3,0,3,0,,,,,1,14,50,20,,,,,,up,0.6838529713531898,2061.695075027521,None,001,23,2019_Oct_11_1550,ACPT_experiment_5_30_19,3.1.0,59.94602262919583,
,,,C,G,y,b,L,U,y,L,u,,,,,5,19,119,14,3,0,3,0,,,,,1,15,51,24,,,,,,down,0.6335422269221453,2063.6635118814556,None,001,23,2019_Oct_11_1550,ACPT_experiment_5_30_19,3.1.0,59.94602262919583,
,,,C,G,y,b,L,U,y,R,u,,,,,5,19,119,14,3,0,3,0,,,,,1,16,52,25,,,,,,down,0.6671824359109451,2065.581361190103,None,001,23,2019_Oct_11_1550,ACPT_experiment_5_30_19,3.1.0,59.94602262919583,
,,,C,G,y,b,R,U,g,R,u,,,,,5,19,119,14,3,0,3,0,,,,,1,17,53,11,,,,,,up,0.8673302843963029,2067.5328398409692,None,001,23,2019_Oct_11_1550,ACPT_experiment_5_30_19,3.1.0,59.94602262919583,
,,,C,G,y,b,R,D,y,L,y,,,,,5,19,119,14,3,0,3,0,,,,,1,18,54,26,,,,,,down,0.8172860777631286,2069.68447962193,None,001,23,2019_Oct_11_1550,ACPT_experiment_5_30_19,3.1.0,59.94602262919583,
,,,C,G,y,b,R,U,d,R,u,,,,,5,19,119,14,3,0,3,0,,,,,1,19,55,9,,,,,,up,0.9172769919314305,2071.7860727814186,None,001,23,2019_Oct_11_1550,ACPT_experiment_5_30_19,3.1.0,59.94602262919583,
,,,C,G,y,b,R,D,g,L,i,,,,,5,19,119,14,3,0,3,0,,,,,1,20,56,2,,,,,,up,0.900701540758746,2073.987748015228,None,001,23,2019_Oct_11_1550,ACPT_experiment_5_30_19,3.1.0,59.94602262919583,
,,,C,G,y,b,L,D,y,L,y,,,,,5,19,119,14,3,0,3,0,,,,,1,21,57,32,,,,,,down,0.7005428254997241,2076.172743657953,None,001,23,2019_Oct_11_1550,ACPT_experiment_5_30_19,3.1.0,59.94602262919583,
,,,C,G,y,b,R,U,y,L,u,,,,,5,19,119,14,3,0,3,0,,,,,1,22,58,30,,,,,,down,0.733893857588555,2078.157576057598,None,001,23,2019_Oct_11_1550,ACPT_experiment_5_30_19,3.1.0,59.94602262919583,
,,,C,G,y,b,L,G,y,R,y,,,,,5,19,119,14,3,0,3,0,,,,,1,23,59,35,,,,,,down,0.7334908814191294,2080.1928468862607,None,001,23,2019_Oct_11_1550,ACPT_experiment_5_30_19,3.1.0,59.94602262919583,
,,,C,G,y,b,L,D,g,R,i,,,,,5,19,119,14,3,0,3,0,,,,,1,24,60,15,,,,,,up,0.9673960585641908,2082.2106575273065,None,001,23,2019_Oct_11_1550,ACPT_experiment_5_30_19,3.1.0,59.94602262919583,
,,,C,G,y,b,R,D,y,R,y,,,,,5,19,119,14,3,0,3,0,,,,,1,25,61,27,,,,,,down,0.6171318903252541,2084.4623703269463,None,001,23,2019_Oct_11_1550,ACPT_experiment_5_30_19,3.1.0,59.94602262919583,
,,,C,G,y,b,R,G,y,L,y,,,,,5,19,119,14,3,0,3,0,,,,,1,26,62,28,,,,,,down,0.6004809754522284,2086.363813524964,None,001,23,2019_Oct_11_1550,ACPT_experiment_5_30_19,3.1.0,59.94602262919583,
,,,C,G,y,b,R,G,d,L,i,,,,,5,19,119,14,3,0,3,0,,,,,1,27,63,4,,,,,,up,0.7005304494523443,2088.248572000368,None,001,23,2019_Oct_11_1550,ACPT_experiment_5_30_19,3.1.0,59.94602262919583,
,,,C,G,y,b,L,D,g,L,i,,,,,5,19,119,14,3,0,3,0,,,,,1,28,64,14,,,,,,up,0.5837802545283921,2090.233420398319,None,001,23,2019_Oct_11_1550,ACPT_experiment_5_30_19,3.1.0,59.94602262919583,
,,,C,G,y,b,R,D,g,R,i,,,,,5,19,119,14,3,0,3,0,,,,,1,29,65,3,,,,,,up,0.7005235067917965,2092.101501395624,None,001,23,2019_Oct_11_1550,ACPT_experiment_5_30_19,3.1.0,59.94602262919583,
,,,C,G,y,b,L,U,d,R,u,,,,,5,19,119,14,3,0,3,0,,,,,1,30,66,21,,,,,,up,0.7672497193525487,2094.086337115674,None,001,23,2019_Oct_11_1550,ACPT_experiment_5_30_19,3.1.0,59.94602262919583,
,,,C,G,y,b,L,D,d,R,c ,,,,,5,19,119,14,3,0,3,0,,,,,1,31,67,13,,,,,,up,1.000757655569032,2096.1379020668282,None,001,23,2019_Oct_11_1550,ACPT_experiment_5_30_19,3.1.0,59.94602262919583,
,,,C,G,y,b,L,G,y,L,y,,,,,5,19,119,14,3,0,3,0,,,,,1,32,68,34,,,,,,down,0.883989651210868,2098.43965303601,None,001,23,2019_Oct_11_1550,ACPT_experiment_5_30_19,3.1.0,59.94602262919583,
,,,C,G,y,b,L,G,d,R,i,,,,,5,19,119,14,3,0,3,0,,,,,1,33,69,17,,,,,,up,1.084159836947947,2100.6246420379284,None,001,23,2019_Oct_11_1550,ACPT_experiment_5_30_19,3.1.0,59.94602262919583,
,,,C,G,y,b,R,G,g,L,c ,,,,,5,19,119,14,3,0,3,0,,,,,1,34,70,6,,,,,,up,0.6338166129426099,2102.9930999009594,None,001,23,2019_Oct_11_1550,ACPT_experiment_5_30_19,3.1.0,59.94602262919583,
,,,C,G,y,b,L,G,g,L,c ,,,,,5,19,119,14,3,0,3,0,,,,,1,35,71,18,,,,,,up,0.7005337698574294,2104.9112266141747,None,001,23,2019_Oct_11_1550,ACPT_experiment_5_30_19,3.1.0,59.94602262919583,
,,,C,G,y,b,,,,,,,,,,5,19,119,14,4,0,4,0,0,0,0,0,,,,,,,,,,,,,,001,23,2019_Oct_11_1550,ACPT_experiment_5_30_19,3.1.0,59.94602262919583,
,,,C,G,y,b,L,G,y,R,y,,,,,5,19,119,14,4,0,4,0,,,,,0,0,0,35,,,,,,down,0.8004289960517781,2122.708243745339,None,001,23,2019_Oct_11_1550,ACPT_experiment_5_30_19,3.1.0,59.94602262919583,
,,,C,G,y,b,L,U,g,R,u,,,,,5,19,119,14,4,0,4,0,,,,,0,1,1,23,,,,,,up,0.7672095726629777,2124.8097092202443,None,001,23,2019_Oct_11_1550,ACPT_experiment_5_30_19,3.1.0,59.94602262919583,
,,,C,G,y,b,L,D,g,R,i,,,,,5,19,119,14,4,0,4,0,,,,,0,2,2,15,,,,,,up,0.5838095344442991,2126.8612310061617,None,001,23,2019_Oct_11_1550,ACPT_experiment_5_30_19,3.1.0,59.94602262919583,
,,,C,G,y,b,L,D,g,L,i,,,,,5,19,119,14,4,0,4,0,,,,,0,3,3,14,,,,,,up,0.6004604493246006,2128.729309890481,None,001,23,2019_Oct_11_1550,ACPT_experiment_5_30_19,3.1.0,59.94602262919583,
,,,C,G,y,b,R,D,y,R,y,,,,,5,19,119,14,4,0,4,0,,,,,0,4,4,27,,,,,,down,0.5168032006258727,2130.6310108725083,None,001,23,2019_Oct_11_1550,ACPT_experiment_5_30_19,3.1.0,59.94602262919583,
,,,C,G,y,b,L,D,y,R,y,,,,,5,19,119,14,4,0,4,0,,,,,0,5,5,33,,,,,,down,0.6503066392033361,2132.448964049392,None,001,23,2019_Oct_11_1550,ACPT_experiment_5_30_19,3.1.0,59.94602262919583,
,,,C,G,y,b,R,G,d,R,i,,,,,5,19,119,14,4,0,4,0,,,,,0,6,6,5,,,,,,up,0.667166135754087,2134.4002905654343,None,001,23,2019_Oct_11_1550,ACPT_experiment_5_30_19,3.1.0,59.94602262919583,
,,,C,G,y,b,R,D,g,R,i,,,,,5,19,119,14,4,0,4,0,,,,,0,7,7,3,,,,,,up,0.6504940910417645,2136.3517728385596,None,001,23,2019_Oct_11_1550,ACPT_experiment_5_30_19,3.1.0,59.94602262919583,
,,,C,G,y,b,R,U,g,R,u,,,,,5,19,119,14,4,0,4,0,,,,,0,8,8,11,,,,,,up,0.6671763988197199,2138.286573105761,None,001,23,2019_Oct_11_1550,ACPT_experiment_5_30_19,3.1.0,59.94602262919583,
,,,C,G,y,b,L,U,y,L,u,,,,,5,19,119,14,4,0,4,0,,,,,0,9,9,24,,,,,,down,0.7336961426881317,2140.2548901233386,None,001,23,2019_Oct_11_1550,ACPT_experiment_5_30_19,3.1.0,59.94602262919583,
,,,C,G,y,b,L,G,y,L,y,,,,,5,19,119,14,4,0,4,0,,,,,0,10,10,34,,,,,,down,0.6171213254092436,2142.2896218393143,None,001,23,2019_Oct_11_1550,ACPT_experiment_5_30_19,3.1.0,59.94602262919583,
,,,C,G,y,b,L,U,d,R,u,,,,,5,19,119,14,4,0,4,0,,,,,0,11,11,21,,,,,,up,0.6171306829055538,2144.1910580946715,None,001,23,2019_Oct_11_1550,ACPT_experiment_5_30_19,3.1.0,59.94602262919583,
,,,C,G,y,b,R,D,y,L,y,,,,,5,19,119,14,4,0,4,0,,,,,0,12,12,26,,,,,,down,1.0007419591165672,2146.0925221206744,None,001,23,2019_Oct_11_1550,ACPT_experiment_5_30_19,3.1.0,59.94602262919583,
,,,C,G,y,b,L,D,y,L,y,,,,,5,19,119,14,4,0,4,0,,,,,0,13,13,32,,,,,,down,0.9006779960836866,2148.3775711615162,None,001,23,2019_Oct_11_1550,ACPT_experiment_5_30_19,3.1.0,59.94602262919583,
,,,C,G,y,b,L,G,d,R,i,,,,,5,19,119,14,4,0,4,0,,,,,0,14,14,17,,,,,,up,0.9006789016457333,2150.56256499311,None,001,23,2019_Oct_11_1550,ACPT_experiment_5_30_19,3.1.0,59.94602262919583,
,,,C,G,y,b,L,U,g,L,u,,,,,5,19,119,14,4,0,4,0,,,,,0,15,15,22,,,,,,up,0.6505004299942811,2152.747538600437,None,001,23,2019_Oct_11_1550,ACPT_experiment_5_30_19,3.1.0,59.94602262919583,
,,,C,G,y,b,R,G,y,R,y,,,,,5,19,119,14,4,0,4,0,,,,,0,16,16,29,,,,,,down,0.6337985016543826,2154.682374486507,None,001,23,2019_Oct_11_1550,ACPT_experiment_5_30_19,3.1.0,59.94602262919583,
,,,C,G,y,b,R,U,y,L,u,,,,,5,19,119,14,4,0,4,0,,,,,0,17,17,30,,,,,,down,0.4836800689190568,2156.600501501576,None,001,23,2019_Oct_11_1550,ACPT_experiment_5_30_19,3.1.0,59.94602262919583,
,,,C,G,y,b,R,U,y,R,u,,,,,5,19,119,14,4,0,4,0,,,,,0,18,18,31,,,,,,down,0.7172082294091524,2158.3684895577826,None,001,23,2019_Oct_11_1550,ACPT_experiment_5_30_19,3.1.0,59.94602262919583,
,,,C,G,y,b,L,U,d,L,u,,,,,5,19,119,14,4,0,4,0,,,,,0,19,19,20,,,,,,up,0.6504901669286483,2160.3700139245593,None,001,23,2019_Oct_11_1550,ACPT_experiment_5_30_19,3.1.0,59.94602262919583,
,,,C,G,y,b,L,D,d,R,c ,,,,,5,19,119,14,4,0,4,0,,,,,0,20,20,13,,,,,,up,0.950706506268034,2162.3048247566803,None,001,23,2019_Oct_11_1550,ACPT_experiment_5_30_19,3.1.0,59.94602262919583,
,,,C,G,y,b,R,D,d,R,c ,,,,,5,19,119,14,4,0,4,0,,,,,0,21,21,1,,,,,,up,0.8172890963105601,2164.5398419669327,None,001,23,2019_Oct_11_1550,ACPT_experiment_5_30_19,3.1.0,59.94602262919583,
,,,C,G,y,b,L,G,g,R,c ,,,,,5,19,119,14,4,0,4,0,,,,,0,22,22,19,,,,,,up,0.6338003127821139,2166.641454445129,None,001,23,2019_Oct_11_1550,ACPT_experiment_5_30_19,3.1.0,59.94602262919583,
,,,C,G,y,b,R,G,d,L,i,,,,,5,19,119,14,4,0,4,0,,,,,0,23,23,4,,,,,,up,1.100885309962905,2168.5595660656,None,001,23,2019_Oct_11_1550,ACPT_experiment_5_30_19,3.1.0,59.94602262919583,
,,,C,G,y,b,R,G,y,L,y,,,,,5,19,119,14,4,0,4,0,,,,,0,24,24,28,,,,,,down,0.6505140134577232,2170.944685710281,None,001,23,2019_Oct_11_1550,ACPT_experiment_5_30_19,3.1.0,59.94602262919583,
,,,C,G,y,b,R,U,d,L,u,,,,,5,19,119,14,4,0,4,0,,,,,0,25,25,8,,,,,,down,0.6504931854760798,2172.879501372081,None,001,23,2019_Oct_11_1550,ACPT_experiment_5_30_19,3.1.0,59.94602262919583,
,,,C,G,y,b,R,U,g,L,u,,,,,5,19,119,14,4,0,4,0,,,,,0,26,26,10,,,,,,up,0.6338114814097935,2174.8143143171837,None,001,23,2019_Oct_11_1550,ACPT_experiment_5_30_19,3.1.0,59.94602262919583,
,,,C,G,y,b,R,U,d,R,u,,,,,5,19,119,14,4,0,4,0,,,,,0,27,27,9,,,,,,up,0.6004607511786162,2176.732432276607,None,001,23,2019_Oct_11_1550,ACPT_experiment_5_30_19,3.1.0,59.94602262919583,
,,,C,G,y,b,L,D,d,L,c ,,,,,5,19,119,14,4,0,4,0,,,,,0,28,28,12,,,,,,up,0.6004909366565698,2178.6171795833834,None,001,23,2019_Oct_11_1550,ACPT_experiment_5_30_19,3.1.0,59.94602262919583,
,,,C,G,y,b,R,G,g,L,c ,,,,,5,19,119,14,4,0,4,0,,,,,0,29,29,6,,,,,,up,0.6838750067545334,2180.501962509028,None,001,23,2019_Oct_11_1550,ACPT_experiment_5_30_19,3.1.0,59.94602262919583,
,,,C,G,y,b,R,D,g,L,i,,,,,5,19,119,14,4,0,4,0,,,,,0,30,30,2,,,,,,up,0.5670907022358733,2182.4701276936357,None,001,23,2019_Oct_11_1550,ACPT_experiment_5_30_19,3.1.0,59.94602262919583,
,,,C,G,y,b,R,D,d,L,c,,,,,5,19,119,14,4,0,4,0,,,,,0,31,31,0,,,,,,up,0.8340652809310996,2184.3048338123263,None,001,23,2019_Oct_11_1550,ACPT_experiment_5_30_19,3.1.0,59.94602262919583,
,,,C,G,y,b,L,G,g,L,c ,,,,,5,19,119,14,4,0,4,0,,,,,0,32,32,18,,,,,,up,0.783925990032003,2186.4231316168443,None,001,23,2019_Oct_11_1550,ACPT_experiment_5_30_19,3.1.0,59.94602262919583,
,,,C,G,y,b,R,G,g,R,c ,,,,,5,19,119,14,4,0,4,0,,,,,0,33,33,7,,,,,,up,0.6505094856365758,2188.4913668015834,None,001,23,2019_Oct_11_1550,ACPT_experiment_5_30_19,3.1.0,59.94602262919583,
,,,C,G,y,b,L,U,y,R,u,,,,,5,19,119,14,4,0,4,0,,,,,0,34,34,25,,,,,,down,0.733891140895139,2190.426164955803,None,001,23,2019_Oct_11_1550,ACPT_experiment_5_30_19,3.1.0,59.94602262919583,
,,,C,G,y,b,L,G,d,L,i,,,,,5,19,119,14,4,0,4,0,,,,,0,35,35,16,,,,,,up,0.6672268085712858,2192.4443680080985,None,001,23,2019_Oct_11_1550,ACPT_experiment_5_30_19,3.1.0,59.94602262919583,
,,,C,G,y,b,L,D,d,R,c ,,,,,5,19,119,14,4,0,4,0,,,,,1,0,36,13,,,,,,up,1.0507922028482426,2194.395851790494,None,001,23,2019_Oct_11_1550,ACPT_experiment_5_30_19,3.1.0,59.94602262919583,
,,,C,G,y,b,R,D,d,L,c,,,,,5,19,119,14,4,0,4,0,,,,,1,1,37,0,,,,,,up,0.7005349772771297,2196.730953188053,None,001,23,2019_Oct_11_1550,ACPT_experiment_5_30_19,3.1.0,59.94602262919583,
,,,C,G,y,b,R,D,g,L,i,,,,,5,19,119,14,4,0,4,0,,,,,1,2,38,2,,,,,,up,0.7672451915277634,2198.7157964544713,None,001,23,2019_Oct_11_1550,ACPT_experiment_5_30_19,3.1.0,59.94602262919583,
,,,C,G,y,b,L,U,g,R,u,,,,,5,19,119,14,4,0,4,0,,,,,1,3,39,23,,,,,,up,0.6838499528057582,2200.7506748718843,None,001,23,2019_Oct_11_1550,ACPT_experiment_5_30_19,3.1.0,59.94602262919583,
,,,C,G,y,b,R,U,g,L,u,,,,,5,19,119,14,4,0,4,0,,,,,1,4,40,10,,,,,,up,0.6004504881166213,2202.7188352268167,None,001,23,2019_Oct_11_1550,ACPT_experiment_5_30_19,3.1.0,59.94602262919583,
,,,C,G,y,b,L,U,d,R,u,,,,,5,19,119,14,4,0,4,0,,,,,1,5,41,21,,,,,,up,0.7172145683580311,2204.603598230042,None,001,23,2019_Oct_11_1550,ACPT_experiment_5_30_19,3.1.0,59.94602262919583,
,,,C,G,y,b,L,D,y,R,y,,,,,5,19,119,14,4,0,4,0,,,,,1,6,42,33,,,,,,down,0.8172625330844312,2206.6051340673002,None,001,23,2019_Oct_11_1550,ACPT_experiment_5_30_19,3.1.0,59.94602262919583,
,,,C,G,y,b,R,U,y,R,u,,,,,5,19,119,14,4,0,4,0,,,,,1,7,43,31,,,,,,down,0.8506485803336545,2208.7067130396135,None,001,23,2019_Oct_11_1550,ACPT_experiment_5_30_19,3.1.0,59.94602262919583,
,,,C,G,y,b,R,G,g,R,c ,,,,,5,19,119,14,4,0,4,0,,,,,1,8,44,7,,,,,,up,0.6338368372162222,2210.841668097961,None,001,23,2019_Oct_11_1550,ACPT_experiment_5_30_19,3.1.0,59.94602262919583,
,,,C,G,y,b,L,G,g,L,c ,,,,,5,19,119,14,4,0,4,0,,,,,1,9,45,18,,,,,,up,0.5670988523197593,2212.7597945093185,None,001,23,2019_Oct_11_1550,ACPT_experiment_5_30_19,3.1.0,59.94602262919583,
,,,C,G,y,b,R,U,d,R,u,,,,,5,19,119,14,4,0,4,0,,,,,1,10,46,9,,,,,,up,0.6004381120656035,2214.6112161398123,None,001,23,2019_Oct_11_1550,ACPT_experiment_5_30_19,3.1.0,59.94602262919583,
,,,C,G,y,b,R,U,d,L,u,,,,,5,19,119,14,4,0,4,0,,,,,1,11,47,8,,,,,,up,0.683867762236332,2216.4792666497815,None,001,23,2019_Oct_11_1550,ACPT_experiment_5_30_19,3.1.0,59.94602262919583,
,,,C,G,y,b,L,D,g,L,i,,,,,5,19,119,14,4,0,4,0,,,,,1,12,48,14,,,,,,up,0.5671118320751702,2218.447450549389,None,001,23,2019_Oct_11_1550,ACPT_experiment_5_30_19,3.1.0,59.94602262919583,
,,,C,G,y,b,L,U,d,L,u,,,,,5,19,119,14,4,0,4,0,,,,,1,13,49,20,,,,,,up,0.6671712672869035,2220.2988516537553,None,001,23,2019_Oct_11_1550,ACPT_experiment_5_30_19,3.1.0,59.94602262919583,
,,,C,G,y,b,L,U,g,L,u,,,,,5,19,119,14,4,0,4,0,,,,,1,14,50,22,,,,,,up,0.7169631233045948,2222.2506083128974,None,001,23,2019_Oct_11_1550,ACPT_experiment_5_30_19,3.1.0,59.94602262919583,
,,,C,G,y,b,R,G,d,R,i,,,,,5,19,119,14,4,0,4,0,,,,,1,15,51,5,,,,,,up,0.6338163110885944,2224.2518483324457,None,001,23,2019_Oct_11_1550,ACPT_experiment_5_30_19,3.1.0,59.94602262919583,
,,,C,G,y,b,R,D,y,R,y,,,,,5,19,119,14,4,0,4,0,,,,,1,16,52,27,,,,,,down,0.7839274993057188,2226.169979573482,None,001,23,2019_Oct_11_1550,ACPT_experiment_5_30_19,3.1.0,59.94602262919583,
,,,C,G,y,b,L,G,d,R,i,,,,,5,19,119,14,4,0,4,0,,,,,1,17,53,17,,,,,,up,0.8173147539673664,2228.2382108341117,None,001,23,2019_Oct_11_1550,ACPT_experiment_5_30_19,3.1.0,59.94602262919583,
,,,C,G,y,b,R,G,d,L,i,,,,,5,19,119,14,4,0,4,0,,,,,1,18,54,4,,,,,,up,0.7839347438202822,2230.339809728841,None,001,23,2019_Oct_11_1550,ACPT_experiment_5_30_19,3.1.0,59.94602262919583,
,,,C,G,y,b,L,G,y,R,y,,,,,5,19,119,14,4,0,4,0,,,,,1,19,55,35,,,,,,down,0.6671709654328879,2232.408045819142,None,001,23,2019_Oct_11_1550,ACPT_experiment_5_30_19,3.1.0,59.94602262919583,
,,,C,G,y,b,R,D,g,R,i,,,,,5,19,119,14,4,0,4,0,,,,,1,20,56,3,,,,,,up,0.6504201366115012,2234.3596261950806,None,001,23,2019_Oct_11_1550,ACPT_experiment_5_30_19,3.1.0,59.94602262919583,
,,,C,G,y,b,R,G,y,L,y,,,,,5,19,119,14,4,0,4,0,,,,,1,21,57,28,,,,,,down,0.6504729612061055,2236.3110314952282,None,001,23,2019_Oct_11_1550,ACPT_experiment_5_30_19,3.1.0,59.94602262919583,
,,,C,G,y,b,L,U,y,L,u,,,,,5,19,119,14,4,0,4,0,,,,,1,22,58,24,,,,,,down,0.5837651617912343,2238.2624959589157,None,001,23,2019_Oct_11_1550,ACPT_experiment_5_30_19,3.1.0,59.94602262919583,
,,,C,G,y,b,L,D,d,L,c ,,,,,5,19,119,14,4,0,4,0,,,,,1,23,59,12,,,,,,up,0.6503730472650204,2240.130659664439,None,001,23,2019_Oct_11_1550,ACPT_experiment_5_30_19,3.1.0,59.94602262919583,
,,,C,G,y,b,L,G,d,L,i,,,,,5,19,119,14,4,0,4,0,,,,,1,24,60,16,,,,,,up,1.0007392424195132,2242.0820767369223,None,001,23,2019_Oct_11_1550,ACPT_experiment_5_30_19,3.1.0,59.94602262919583,
,,,C,G,y,b,L,G,y,L,y,,,,,5,19,119,14,4,0,4,0,,,,,1,25,61,34,,,,,,down,0.633827479716274,2244.3838114059436,None,001,23,2019_Oct_11_1550,ACPT_experiment_5_30_19,3.1.0,59.94602262919583,
,,,C,G,y,b,L,D,y,L,y,,,,,5,19,119,14,4,0,4,0,,,,,1,26,62,32,,,,,,down,0.5837929324297875,2246.3186143898383,None,001,23,2019_Oct_11_1550,ACPT_experiment_5_30_19,3.1.0,59.94602262919583,
,,,C,G,y,b,R,D,y,L,y,,,,,5,19,119,14,4,0,4,0,,,,,1,27,63,26,,,,,,down,1.351047481461137,2248.203377694921,None,001,23,2019_Oct_11_1550,ACPT_experiment_5_30_19,3.1.0,59.94602262919583,
,,,C,G,y,b,R,U,y,L,u,,,,,5,19,119,14,4,0,4,0,,,,,1,28,64,30,,,,,,down,0.5670900985278422,2250.855389813787,None,001,23,2019_Oct_11_1550,ACPT_experiment_5_30_19,3.1.0,59.94602262919583,
,,,C,G,y,b,L,G,g,R,c ,,,,,5,19,119,14,4,0,4,0,,,,,1,29,65,19,,,,,,up,0.8506461654942541,2252.7067951441204,None,001,23,2019_Oct_11_1550,ACPT_experiment_5_30_19,3.1.0,59.94602262919583,
,,,C,G,y,b,R,U,g,R,u,,,,,5,19,119,14,4,0,4,0,,,,,1,30,66,11,,,,,,up,0.6004483751275984,2254.8417619748034,None,001,23,2019_Oct_11_1550,ACPT_experiment_5_30_19,3.1.0,59.94602262919583,
,,,C,G,y,b,L,U,y,R,u,,,,,5,19,119,14,4,0,4,0,,,,,1,31,67,25,,,,,,down,0.6004577326275466,2256.7265123001307,None,001,23,2019_Oct_11_1550,ACPT_experiment_5_30_19,3.1.0,59.94602262919583,
,,,C,G,y,b,L,D,g,R,i,,,,,5,19,119,14,4,0,4,0,,,,,1,32,68,15,,,,,,up,0.6338129906835093,2258.6112774163375,None,001,23,2019_Oct_11_1550,ACPT_experiment_5_30_19,3.1.0,59.94602262919583,
,,,C,G,y,b,R,G,g,L,c ,,,,,5,19,119,14,4,0,4,0,,,,,1,33,69,6,,,,,,up,0.7010282080264005,2260.5294186185856,None,001,23,2019_Oct_11_1550,ACPT_experiment_5_30_19,3.1.0,59.94602262919583,
,,,C,G,y,b,R,D,d,R,c ,,,,,5,19,119,14,4,0,4,0,,,,,1,34,70,1,,,,,,up,0.7305731528540491,2262.5342473899364,None,001,23,2019_Oct_11_1550,ACPT_experiment_5_30_19,3.1.0,59.94602262919583,
,,,C,G,y,b,R,G,y,R,y,,,,,5,19,119,14,4,0,4,0,,,,,1,35,71,29,,,,,,down,0.6504928836220643,2264.5491197762894,None,001,23,2019_Oct_11_1550,ACPT_experiment_5_30_19,3.1.0,59.94602262919583,
,,,C,G,y,b,,,,,,,,,,5,19,119,14,5,0,5,0,0,0,0,0,,,,,,,,,,,,,,001,23,2019_Oct_11_1550,ACPT_experiment_5_30_19,3.1.0,59.94602262919583,
,,,C,G,y,b,L,D,d,R,c ,,,,,5,19,119,14,5,0,5,0,,,,,0,0,0,13,,,,,,down,0.7169966291876335,2283.180187699356,None,001,23,2019_Oct_11_1550,ACPT_experiment_5_30_19,3.1.0,59.94602262919583,
,,,C,G,y,b,L,U,y,R,u,,,,,5,19,119,14,5,0,5,0,,,,,0,1,1,25,,,,,,down,0.5337315200704325,2285.198136288047,None,001,23,2019_Oct_11_1550,ACPT_experiment_5_30_19,3.1.0,59.94602262919583,
,,,C,G,y,b,L,D,g,R,i,,,,,5,19,119,14,5,0,5,0,,,,,0,2,2,15,,,,,,up,0.517046495602699,2287.032865649555,None,001,23,2019_Oct_11_1550,ACPT_experiment_5_30_19,3.1.0,59.94602262919583,
,,,C,G,y,b,R,D,g,L,i,,,,,5,19,119,14,5,0,5,0,,,,,0,3,3,2,,,,,,up,0.5670964374803589,2288.8342309992186,None,001,23,2019_Oct_11_1550,ACPT_experiment_5_30_19,3.1.0,59.94602262919583,
,,,C,G,y,b,R,G,y,L,y,,,,,5,19,119,14,5,0,5,0,,,,,0,4,4,28,,,,,,down,0.650502542976028,2290.6856478000336,None,001,23,2019_Oct_11_1550,ACPT_experiment_5_30_19,3.1.0,59.94602262919583,
,,,C,G,y,b,R,U,d,R,u,,,,,5,19,119,14,5,0,5,0,,,,,0,5,5,9,,,,,,up,0.5337330293477862,2292.6204492746547,None,001,23,2019_Oct_11_1550,ACPT_experiment_5_30_19,3.1.0,59.94602262919583,
,,,C,G,y,b,R,D,d,L,c,,,,,5,19,119,14,5,0,5,0,,,,,0,6,6,0,,,,,,up,0.5504168463958194,2294.438480631936,None,001,23,2019_Oct_11_1550,ACPT_experiment_5_30_19,3.1.0,59.94602262919583,
,,,C,G,y,b,R,G,d,L,i,,,,,5,19,119,14,5,0,5,0,,,,,0,7,7,4,,,,,,up,0.5837627469481959,2296.2899013568676,None,001,23,2019_Oct_11_1550,ACPT_experiment_5_30_19,3.1.0,59.94602262919583,
,,,C,G,y,b,R,D,y,L,y,,,,,5,19,119,14,5,0,5,0,,,,,0,8,8,26,,,,,,down,0.7170778281288221,2298.1747811779023,None,001,23,2019_Oct_11_1550,ACPT_experiment_5_30_19,3.1.0,59.94602262919583,
,,,C,G,y,b,R,U,y,L,u,,,,,5,19,119,14,5,0,5,0,,,,,0,9,9,30,,,,,,down,0.7005358828391763,2300.1761651821944,None,001,23,2019_Oct_11_1550,ACPT_experiment_5_30_19,3.1.0,59.94602262919583,
,,,C,G,y,b,L,G,g,R,c ,,,,,5,19,119,14,5,0,5,0,,,,,0,10,10,19,,,,,,up,0.6338344223768217,2302.1776980009054,None,001,23,2019_Oct_11_1550,ACPT_experiment_5_30_19,3.1.0,59.94602262919583,
,,,C,G,y,b,L,D,g,L,i,,,,,5,19,119,14,5,0,5,0,,,,,0,11,11,14,,,,,,up,0.5671166617539711,2304.0791182579596,None,001,23,2019_Oct_11_1550,ACPT_experiment_5_30_19,3.1.0,59.94602262919583,
,,,C,G,y,b,R,G,y,R,y,,,,,5,19,119,14,5,0,5,0,,,,,0,12,12,29,,,,,,down,0.6004441491641046,2305.947230346308,None,001,23,2019_Oct_11_1550,ACPT_experiment_5_30_19,3.1.0,59.94602262919583,
,,,C,G,y,b,L,U,g,R,u,,,,,5,19,119,14,5,0,5,0,,,,,0,13,13,23,,,,,,up,0.7005289401786285,2307.848672336906,None,001,23,2019_Oct_11_1550,ACPT_experiment_5_30_19,3.1.0,59.94602262919583,
,,,C,G,y,b,R,G,g,L,c ,,,,,5,19,119,14,5,0,5,0,,,,,0,14,14,6,,,,,,up,0.5837811600940768,2309.8335095662296,None,001,23,2019_Oct_11_1550,ACPT_experiment_5_30_19,3.1.0,59.94602262919583,
,,,C,G,y,b,R,D,d,R,c ,,,,,5,19,119,14,5,0,5,0,,,,,0,15,15,1,,,,,,up,0.5337285015230009,2311.7015996191767,None,001,23,2019_Oct_11_1550,ACPT_experiment_5_30_19,3.1.0,59.94602262919583,
,,,C,G,y,b,L,D,d,L,c ,,,,,5,19,119,14,5,0,5,0,,,,,0,16,16,12,,,,,,up,0.45034412957102177,2313.519644861779,None,001,23,2019_Oct_11_1550,ACPT_experiment_5_30_19,3.1.0,59.94602262919583,
,,,C,G,y,b,L,G,y,L,y,,,,,5,19,119,14,5,0,5,0,,,,,0,17,17,34,,,,,,down,0.6335334731302282,2315.2712527668737,None,001,23,2019_Oct_11_1550,ACPT_experiment_5_30_19,3.1.0,59.94602262919583,
,,,C,G,y,b,R,G,g,R,c ,,,,,5,19,119,14,5,0,5,0,,,,,0,18,18,7,,,,,,up,0.817328639288462,2317.189082756813,None,001,23,2019_Oct_11_1550,ACPT_experiment_5_30_19,3.1.0,59.94602262919583,
,,,C,G,y,b,L,G,d,R,i,,,,,5,19,119,14,5,0,5,0,,,,,0,19,19,17,,,,,,up,0.7005216956604272,2319.2906958387175,None,001,23,2019_Oct_11_1550,ACPT_experiment_5_30_19,3.1.0,59.94602262919583,
,,,C,G,y,b,R,U,y,R,u,,,,,5,19,119,14,5,0,5,0,,,,,0,20,20,31,,,,,,down,0.6004800698865438,2321.2755303513477,None,001,23,2019_Oct_11_1550,ACPT_experiment_5_30_19,3.1.0,59.94602262919583,
,,,C,G,y,b,L,U,d,L,u,,,,,5,19,119,14,5,0,5,0,,,,,0,21,21,20,,,,,,up,0.750525453757291,2323.160318710379,None,001,23,2019_Oct_11_1550,ACPT_experiment_5_30_19,3.1.0,59.94602262919583,
,,,C,G,y,b,L,U,g,L,u,,,,,5,19,119,14,5,0,5,0,,,,,0,22,22,22,,,,,,up,1.5345284167597129,2325.1951533588435,None,001,23,2019_Oct_11_1550,ACPT_experiment_5_30_19,3.1.0,59.94602262919583,
,,,C,G,y,b,R,D,g,R,i,,,,,5,19,119,14,5,0,5,0,,,,,0,23,23,3,,,,,,up,0.6338151036688942,2328.0139822165256,None,001,23,2019_Oct_11_1550,ACPT_experiment_5_30_19,3.1.0,59.94602262919583,
,,,C,G,y,b,L,G,d,L,i,,,,,5,19,119,14,5,0,5,0,,,,,0,24,24,16,,,,,,up,0.6837681501529005,2329.932196165777,None,001,23,2019_Oct_11_1550,ACPT_experiment_5_30_19,3.1.0,59.94602262919583,
,,,C,G,y,b,R,G,d,R,i,,,,,5,19,119,14,5,0,5,0,,,,,0,25,25,5,,,,,,up,0.6671718709949346,2331.9002695865274,None,001,23,2019_Oct_11_1550,ACPT_experiment_5_30_19,3.1.0,59.94602262919583,
,,,C,G,y,b,L,U,d,R,u,,,,,5,19,119,14,5,0,5,0,,,,,0,26,26,21,,,,,,up,0.4500709509738954,2333.868698290382,None,001,23,2019_Oct_11_1550,ACPT_experiment_5_30_19,3.1.0,59.94602262919583,
,,,C,G,y,b,R,D,y,R,y,,,,,5,19,119,14,5,0,5,0,,,,,0,27,27,27,,,,,,down,0.5170594753581099,2335.60307994534,None,001,23,2019_Oct_11_1550,ACPT_experiment_5_30_19,3.1.0,59.94602262919583,
,,,C,G,y,b,L,G,y,R,y,,,,,5,19,119,14,5,0,5,0,,,,,0,28,28,35,,,,,,down,0.6504829224104469,2337.421128810198,None,001,23,2019_Oct_11_1550,ACPT_experiment_5_30_19,3.1.0,59.94602262919583,
,,,C,G,y,b,R,U,g,R,u,,,,,5,19,119,14,5,0,5,0,,,,,0,29,29,11,,,,,,up,0.5671048894146224,2339.372611988885,None,001,23,2019_Oct_11_1550,ACPT_experiment_5_30_19,3.1.0,59.94602262919583,
,,,C,G,y,b,R,U,d,L,u,,,,,5,19,119,14,5,0,5,0,,,,,0,30,30,8,,,,,,up,0.5501397436855768,2341.2242904978193,None,001,23,2019_Oct_11_1550,ACPT_experiment_5_30_19,3.1.0,59.94602262919583,
,,,C,G,y,b,L,U,y,L,u,,,,,5,19,119,14,5,0,5,0,,,,,0,31,31,24,,,,,,down,0.5837724063057976,2343.0587415491973,None,001,23,2019_Oct_11_1550,ACPT_experiment_5_30_19,3.1.0,59.94602262919583,
,,,C,G,y,b,R,U,g,L,u,,,,,5,19,119,14,5,0,5,0,,,,,0,32,32,10,,,,,,up,0.6838282192584302,2344.9268542412537,None,001,23,2019_Oct_11_1550,ACPT_experiment_5_30_19,3.1.0,59.94602262919583,
,,,C,G,y,b,L,D,y,L,y,,,,,5,19,119,14,5,0,5,0,,,,,0,33,33,32,,,,,,down,0.6672026601845573,2346.8949892403834,None,001,23,2019_Oct_11_1550,ACPT_experiment_5_30_19,3.1.0,59.94602262919583,
,,,C,G,y,b,L,G,g,L,c ,,,,,5,19,119,14,5,0,5,0,,,,,0,34,34,18,,,,,,up,0.6171333995989698,2348.846472419071,None,001,23,2019_Oct_11_1550,ACPT_experiment_5_30_19,3.1.0,59.94602262919583,
,,,C,G,y,b,L,D,y,R,y,,,,,5,19,119,14,5,0,5,0,,,,,0,35,35,33,,,,,,down,0.7172218128762324,2350.7479141078184,None,001,23,2019_Oct_11_1550,ACPT_experiment_5_30_19,3.1.0,59.94602262919583,
,,,C,G,y,b,R,G,d,L,i,,,,,5,19,119,14,5,0,5,0,,,,,1,0,36,4,,,,,,up,0.6004353953721875,2352.7494511524965,None,001,23,2019_Oct_11_1550,ACPT_experiment_5_30_19,3.1.0,59.94602262919583,
,,,C,G,y,b,L,D,d,L,c ,,,,,5,19,119,14,5,0,5,0,,,,,1,1,37,12,,,,,,up,0.6838529713495518,2354.617518868188,None,001,23,2019_Oct_11_1550,ACPT_experiment_5_30_19,3.1.0,59.94602262919583,
,,,C,G,y,b,L,G,g,R,c ,,,,,5,19,119,14,5,0,5,0,,,,,1,2,38,19,,,,,,up,1.017436944795918,2356.585683147234,None,001,23,2019_Oct_11_1550,ACPT_experiment_5_30_19,3.1.0,59.94602262919583,
,,,C,G,y,b,R,D,y,L,y,,,,,5,19,119,14,5,0,5,0,,,,,1,3,39,26,,,,,,down,0.6671706635752344,2358.8874286830287,None,001,23,2019_Oct_11_1550,ACPT_experiment_5_30_19,3.1.0,59.94602262919583,
,,,C,G,y,b,R,U,y,R,u,,,,,5,19,119,14,5,0,5,0,,,,,1,4,40,31,,,,,,down,0.6671920952685468,2360.83891216357,None,001,23,2019_Oct_11_1550,ACPT_experiment_5_30_19,3.1.0,59.94602262919583,
,,,C,G,y,b,R,D,d,L,c,,,,,5,19,119,14,5,0,5,0,,,,,1,5,41,0,,,,,,up,0.6504904687826638,2362.7903947385494,None,001,23,2019_Oct_11_1550,ACPT_experiment_5_30_19,3.1.0,59.94602262919583,
,,,C,G,y,b,L,G,d,R,i,,,,,5,19,119,14,5,0,5,0,,,,,1,6,42,17,,,,,,up,0.6171678110476932,2364.7084936811225,None,001,23,2019_Oct_11_1550,ACPT_experiment_5_30_19,3.1.0,59.94602262919583,
,,,C,G,y,b,R,D,g,R,i,,,,,5,19,119,14,5,0,5,0,,,,,1,7,43,3,,,,,,up,0.5834950017379015,2366.6269231547085,None,001,23,2019_Oct_11_1550,ACPT_experiment_5_30_19,3.1.0,59.94602262919583,
,,,C,G,y,b,L,D,y,R,y,,,,,5,19,119,14,5,0,5,0,,,,,1,8,44,33,,,,,,down,0.6838602158713911,2368.494714371398,None,001,23,2019_Oct_11_1550,ACPT_experiment_5_30_19,3.1.0,59.94602262919583,
,,,C,G,y,b,L,U,y,R,u,,,,,5,19,119,14,5,0,5,0,,,,,1,9,45,25,,,,,,down,0.9006792035033868,2370.462887102378,None,001,23,2019_Oct_11_1550,ACPT_experiment_5_30_19,3.1.0,59.94602262919583,
,,,C,G,y,b,L,U,g,R,u,,,,,5,19,119,14,5,0,5,0,,,,,1,10,46,23,,,,,,up,0.8340000802927534,2372.631180816763,None,001,23,2019_Oct_11_1550,ACPT_experiment_5_30_19,3.1.0,59.94602262919583,
,,,C,G,y,b,R,U,d,R,u,,,,,5,19,119,14,5,0,5,0,,,,,1,11,47,9,,,,,,up,0.6171406441171712,2374.74947409346,None,001,23,2019_Oct_11_1550,ACPT_experiment_5_30_19,3.1.0,59.94602262919583,
,,,C,G,y,b,R,U,g,R,u,,,,,5,19,119,14,5,0,5,0,,,,,1,12,48,11,,,,,,up,0.5504153371221037,2376.65092363043,None,001,23,2019_Oct_11_1550,ACPT_experiment_5_30_19,3.1.0,59.94602262919583,
,,,C,G,y,b,L,G,y,L,y,,,,,5,19,119,14,5,0,5,0,,,,,1,13,49,34,,,,,,down,0.6504651129762351,2378.4856732162116,None,001,23,2019_Oct_11_1550,ACPT_experiment_5_30_19,3.1.0,59.94602262919583,
,,,C,G,y,b,R,U,y,L,u,,,,,5,19,119,14,5,0,5,0,,,,,1,14,50,30,,,,,,down,0.6171490960514348,2380.420445109059,None,001,23,2019_Oct_11_1550,ACPT_experiment_5_30_19,3.1.0,59.94602262919583,
,,,C,G,y,b,L,G,d,L,i,,,,,5,19,119,14,5,0,5,0,,,,,1,15,51,16,,,,,,down,0.48373681762313936,2382.3218928349015,None,001,23,2019_Oct_11_1550,ACPT_experiment_5_30_19,3.1.0,59.94602262919583,
,,,C,G,y,b,R,D,d,R,c ,,,,,5,19,119,14,5,0,5,0,,,,,1,16,52,1,,,,,,up,0.6004562233574688,2384.089898096834,None,001,23,2019_Oct_11_1550,ACPT_experiment_5_30_19,3.1.0,59.94602262919583,
,,,C,G,y,b,R,G,y,L,y,,,,,5,19,119,14,5,0,5,0,,,,,1,17,53,28,,,,,,down,0.583339546512434,2385.9917478932766,None,001,23,2019_Oct_11_1550,ACPT_experiment_5_30_19,3.1.0,59.94602262919583,
,,,C,G,y,b,R,D,y,R,y,,,,,5,19,119,14,5,0,5,0,,,,,1,18,54,27,,,,,,down,0.6171222309749282,2387.8761145611425,None,001,23,2019_Oct_11_1550,ACPT_experiment_5_30_19,3.1.0,59.94602262919583,
,,,C,G,y,b,R,U,g,L,u,,,,,5,19,119,14,5,0,5,0,,,,,1,19,55,10,,,,,,up,0.8673221343196929,2389.794240670646,None,001,23,2019_Oct_11_1550,ACPT_experiment_5_30_19,3.1.0,59.94602262919583,
,,,C,G,y,b,L,D,d,R,c ,,,,,5,19,119,14,5,0,5,0,,,,,1,20,56,13,,,,,,up,0.6338075572966773,2391.945871697819,None,001,23,2019_Oct_11_1550,ACPT_experiment_5_30_19,3.1.0,59.94602262919583,
,,,C,G,y,b,R,U,d,L,u,,,,,5,19,119,14,5,0,5,0,,,,,1,21,57,8,,,,,,up,0.6506576963474799,2393.863994185067,None,001,23,2019_Oct_11_1550,ACPT_experiment_5_30_19,3.1.0,59.94602262919583,
,,,C,G,y,b,L,D,y,L,y,,,,,5,19,119,14,5,0,5,0,,,,,1,22,58,32,,,,,,down,0.7672379470132,2395.8154752507726,None,001,23,2019_Oct_11_1550,ACPT_experiment_5_30_19,3.1.0,59.94602262919583,
,,,C,G,y,b,L,U,d,R,u,,,,,5,19,119,14,5,0,5,0,,,,,1,23,59,21,,,,,,up,1.0507928065599117,2397.90039153587,None,001,23,2019_Oct_11_1550,ACPT_experiment_5_30_19,3.1.0,59.94602262919583,
,,,C,G,y,b,R,D,g,L,i,,,,,5,19,119,14,5,0,5,0,,,,,1,24,60,2,,,,,,up,0.6671561745461076,2400.235507120604,None,001,23,2019_Oct_11_1550,ACPT_experiment_5_30_19,3.1.0,59.94602262919583,
,,,C,G,y,b,L,G,y,R,y,,,,,5,19,119,14,5,0,5,0,,,,,1,25,61,35,,,,,,down,0.6004501862589677,2402.1869797343716,None,001,23,2019_Oct_11_1550,ACPT_experiment_5_30_19,3.1.0,59.94602262919583,
,,,C,G,y,b,L,U,d,L,u,,,,,5,19,119,14,5,0,5,0,,,,,1,26,62,20,,,,,,up,0.650488959508948,2404.071740322761,None,001,23,2019_Oct_11_1550,ACPT_experiment_5_30_19,3.1.0,59.94602262919583,
,,,C,G,y,b,R,G,g,L,c ,,,,,5,19,119,14,5,0,5,0,,,,,1,27,63,6,,,,,,up,1.0007694279047428,2406.0065348547214,None,001,23,2019_Oct_11_1550,ACPT_experiment_5_30_19,3.1.0,59.94602262919583,
