facing_vig,person_vig,text_vig,facing_train,person_train,food_train,correct_key_train,facing_exp,person_exp,food_exp,showL_R,consistent,vig_random.thisRepN,vig_random.thisTrialN,vig_random.thisN,vig_random.thisIndex,trainTrials.thisRepN,trainTrials.thisTrialN,trainTrials.thisN,trainTrials.thisIndex,expBlock.thisRepN,expBlock.thisTrialN,expBlock.thisN,expBlock.thisIndex,breakLoop.thisRepN,breakLoop.thisTrialN,breakLoop.thisN,breakLoop.thisIndex,expTrials.thisRepN,expTrials.thisTrialN,expTrials.thisN,expTrials.thisIndex,train_resp.keys,train_resp.corr,train_resp.rt,train_resp.started,train_resp.stopped,exp_resp.keys,exp_resp.rt,exp_resp.started,exp_resp.stopped,session,participant,date,expName,psychopyVersion,frameRate,
C,U,"did not report her food preferences, so her food preferences are unknown.",,,,,,,,,,0,0,0,2,,,,,,,,,,,,,,,,,,,,,,,,,,001,24,2019_Oct_14_1402,ACPT_experiment_5_30_19,3.1.0,59.94387084867008,
C,D,"is allergic to gluten, meaning she can’t eat wheat products. She enjoys eating dairy products. She thinks eating insects, like crickets, is disgusting.",,,,,,,,,,0,1,1,1,,,,,,,,,,,,,,,,,,,,,,,,,,001,24,2019_Oct_14_1402,ACPT_experiment_5_30_19,3.1.0,59.94387084867008,
C,G,"cannot eat dairy products because she is lactose intolerant. She enjoys eating wheat products. She thinks eating insects, like crickets, is disgusting.",,,,,,,,,,0,2,2,0,,,,,,,,,,,,,,,,,,,,,,,,,,001,24,2019_Oct_14_1402,ACPT_experiment_5_30_19,3.1.0,59.94387084867008,
,,,C,U,g,n,,,,,,,,,,0,0,0,16,,,,,,,,,,,,,v,0,3.3857191844294903,1520.7899675865472,None,,,,,001,24,2019_Oct_14_1402,ACPT_experiment_5_30_19,3.1.0,59.94387084867008,
,,,C,G,g,v,,,,,,,,,,0,1,1,19,,,,,,,,,,,,,v,1,3.2691874178572107,1527.4615487943513,None,,,,,001,24,2019_Oct_14_1402,ACPT_experiment_5_30_19,3.1.0,59.94387084867008,
,,,C,U,g,n,,,,,,,,,,0,2,2,7,,,,,,,,,,,,,b,0,1.6178804656572083,1534.016615743315,None,,,,,001,24,2019_Oct_14_1402,ACPT_experiment_5_30_19,3.1.0,59.94387084867008,
,,,C,U,d,n,,,,,,,,,,0,3,3,6,,,,,,,,,,,,,v,0,1.3677493085956485,1538.9036428760737,None,,,,,001,24,2019_Oct_14_1402,ACPT_experiment_5_30_19,3.1.0,59.94387084867008,
,,,C,U,y,n,,,,,,,,,,0,4,4,8,,,,,,,,,,,,,n,1,1.3477428005489855,1543.5772416990712,None,,,,,001,24,2019_Oct_14_1402,ACPT_experiment_5_30_19,3.1.0,59.94387084867008,
,,,C,D,g,b,,,,,,,,,,0,5,5,10,,,,,,,,,,,,,v,0,3.7529028121643933,1548.2108106019582,None,,,,,001,24,2019_Oct_14_1402,ACPT_experiment_5_30_19,3.1.0,59.94387084867008,
,,,C,D,y,b,,,,,,,,,,0,6,6,11,,,,,,,,,,,,,b,1,3.1190993660391086,1555.2328498180707,None,,,,,001,24,2019_Oct_14_1402,ACPT_experiment_5_30_19,3.1.0,59.94387084867008,
,,,C,U,d,n,,,,,,,,,,0,7,7,15,,,,,,,,,,,,,n,1,0.9674226384636313,1561.6377933978947,None,,,,,001,24,2019_Oct_14_1402,ACPT_experiment_5_30_19,3.1.0,59.94387084867008,
,,,C,G,y,b,,,,,,,,,,0,8,8,14,,,,,,,,,,,,,b,1,1.6679432218211332,1565.9077668525506,None,,,,,001,24,2019_Oct_14_1402,ACPT_experiment_5_30_19,3.1.0,59.94387084867008,
,,,C,D,d,v,,,,,,,,,,0,9,9,9,,,,,,,,,,,,,b,0,2.5352883432915405,1570.861553684442,None,,,,,001,24,2019_Oct_14_1402,ACPT_experiment_5_30_19,3.1.0,59.94387084867008,
,,,C,D,g,b,,,,,,,,,,0,10,10,1,,,,,,,,,,,,,b,1,2.6020063860962637,1576.6660430291759,None,,,,,001,24,2019_Oct_14_1402,ACPT_experiment_5_30_19,3.1.0,59.94387084867008,
,,,C,D,y,b,,,,,,,,,,0,11,11,2,,,,,,,,,,,,,n,0,1.3010448493760123,1582.537194573086,None,,,,,001,24,2019_Oct_14_1402,ACPT_experiment_5_30_19,3.1.0,59.94387084867008,
,,,C,G,y,b,,,,,,,,,,0,12,12,5,,,,,,,,,,,,,b,1,1.6846163180514395,1587.140748884184,None,,,,,001,24,2019_Oct_14_1402,ACPT_experiment_5_30_19,3.1.0,59.94387084867008,
,,,C,G,g,v,,,,,,,,,,0,13,13,4,,,,,,,,,,,,,b,0,3.1357519359626167,1592.1112172643143,None,,,,,001,24,2019_Oct_14_1402,ACPT_experiment_5_30_19,3.1.0,59.94387084867008,
,,,C,U,y,n,,,,,,,,,,0,14,14,17,,,,,,,,,,,,,n,1,1.367709463411984,1598.5328372608008,None,,,,,001,24,2019_Oct_14_1402,ACPT_experiment_5_30_19,3.1.0,59.94387084867008,
,,,C,G,g,v,,,,,,,,,,0,15,15,13,,,,,,,,,,,,,v,1,2.9021015919356614,1603.2032436394109,None,,,,,001,24,2019_Oct_14_1402,ACPT_experiment_5_30_19,3.1.0,59.94387084867008,
,,,C,D,d,v,,,,,,,,,,0,16,16,18,,,,,,,,,,,,,v,1,1.5345258513739282,1609.3911616742464,None,,,,,001,24,2019_Oct_14_1402,ACPT_experiment_5_30_19,3.1.0,59.94387084867008,
,,,C,G,d,b,,,,,,,,,,0,17,17,3,,,,,,,,,,,,,b,1,1.634599142362731,1614.2115329468352,None,,,,,001,24,2019_Oct_14_1402,ACPT_experiment_5_30_19,3.1.0,59.94387084867008,
,,,C,G,d,b,,,,,,,,,,0,18,18,12,,,,,,,,,,,,,b,1,1.1844062252666845,1619.1151480520234,None,,,,,001,24,2019_Oct_14_1402,ACPT_experiment_5_30_19,3.1.0,59.94387084867008,
,,,C,D,d,v,,,,,,,,,,0,19,19,0,,,,,,,,,,,,,v,1,2.468334247961593,1623.6023206197012,None,,,,,001,24,2019_Oct_14_1402,ACPT_experiment_5_30_19,3.1.0,59.94387084867008,
,,,C,D,y,b,,,,,,,,,,1,0,20,11,,,,,,,,,,,,,n,0,1.1675734464454308,1629.3565021000225,None,,,,,001,24,2019_Oct_14_1402,ACPT_experiment_5_30_19,3.1.0,59.94387084867008,
,,,C,U,y,n,,,,,,,,,,1,1,21,17,,,,,,,,,,,,,n,1,0.9171144721931341,1633.826875395056,None,,,,,001,24,2019_Oct_14_1402,ACPT_experiment_5_30_19,3.1.0,59.94387084867008,
,,,C,D,d,v,,,,,,,,,,1,2,22,18,,,,,,,,,,,,,v,1,1.3010421326589494,1638.0298168751597,None,,,,,001,24,2019_Oct_14_1402,ACPT_experiment_5_30_19,3.1.0,59.94387084867008,
,,,C,G,d,b,,,,,,,,,,1,3,23,3,,,,,,,,,,,,,b,1,1.2843379451114743,1642.616690543591,None,,,,,001,24,2019_Oct_14_1402,ACPT_experiment_5_30_19,3.1.0,59.94387084867008,
,,,C,G,g,v,,,,,,,,,,1,4,24,4,,,,,,,,,,,,,v,1,2.501932491392381,1647.1701905505338,None,,,,,001,24,2019_Oct_14_1402,ACPT_experiment_5_30_19,3.1.0,59.94387084867008,
,,,C,D,d,v,,,,,,,,,,1,5,25,9,,,,,,,,,,,,,b,0,1.3010128524863376,1652.957969670571,None,,,,,001,24,2019_Oct_14_1402,ACPT_experiment_5_30_19,3.1.0,59.94387084867008,
,,,C,D,g,b,,,,,,,,,,1,6,26,1,,,,,,,,,,,,,b,1,1.484499318104099,1657.5448409241426,None,,,,,001,24,2019_Oct_14_1402,ACPT_experiment_5_30_19,3.1.0,59.94387084867008,
,,,C,U,g,n,,,,,,,,,,1,7,27,7,,,,,,,,,,,,,n,1,1.7513582075946488,1662.3151633260104,None,,,,,001,24,2019_Oct_14_1402,ACPT_experiment_5_30_19,3.1.0,59.94387084867008,
,,,C,U,d,n,,,,,,,,,,1,8,28,15,,,,,,,,,,,,,n,1,1.8514354227302192,1667.3356811805766,None,,,,,001,24,2019_Oct_14_1402,ACPT_experiment_5_30_19,3.1.0,59.94387084867008,
,,,C,U,g,n,,,,,,,,,,1,9,29,16,,,,,,,,,,,,,n,1,0.9841005644129837,1672.456286513432,None,,,,,001,24,2019_Oct_14_1402,ACPT_experiment_5_30_19,3.1.0,59.94387084867008,
,,,C,G,y,b,,,,,,,,,,1,10,30,14,,,,,,,,,,,,,b,1,2.7350573015996815,1676.7433040471237,None,,,,,001,24,2019_Oct_14_1402,ACPT_experiment_5_30_19,3.1.0,59.94387084867008,
,,,C,U,d,n,,,,,,,,,,1,11,31,6,,,,,,,,,,,,,n,1,1.1342197075482545,1682.764204656936,None,,,,,001,24,2019_Oct_14_1402,ACPT_experiment_5_30_19,3.1.0,59.94387084867008,
,,,C,D,d,v,,,,,,,,,,1,12,32,0,,,,,,,,,,,,,v,1,1.5511729878635379,1687.2009748788194,None,,,,,001,24,2019_Oct_14_1402,ACPT_experiment_5_30_19,3.1.0,59.94387084867008,
,,,C,U,y,n,,,,,,,,,,1,13,33,8,,,,,,,,,,,,,n,1,0.8172757244426521,1692.0380264922173,None,,,,,001,24,2019_Oct_14_1402,ACPT_experiment_5_30_19,3.1.0,59.94387084867008,
,,,C,G,g,v,,,,,,,,,,1,14,34,13,,,,,,,,,,,,,v,1,1.2342933003944836,1696.141150958307,None,,,,,001,24,2019_Oct_14_1402,ACPT_experiment_5_30_19,3.1.0,59.94387084867008,
,,,C,G,g,v,,,,,,,,,,1,15,35,19,,,,,,,,,,,,,v,1,2.001552452863507,1700.6446081316776,None,,,,,001,24,2019_Oct_14_1402,ACPT_experiment_5_30_19,3.1.0,59.94387084867008,
,,,C,G,d,b,,,,,,,,,,1,16,36,12,,,,,,,,,,,,,b,1,1.167586728173319,1705.932017476339,None,,,,,001,24,2019_Oct_14_1402,ACPT_experiment_5_30_19,3.1.0,59.94387084867008,
,,,C,D,g,b,,,,,,,,,,1,17,37,10,,,,,,,,,,,,,b,1,3.3690234488904025,1710.4023470020425,None,,,,,001,24,2019_Oct_14_1402,ACPT_experiment_5_30_19,3.1.0,59.94387084867008,
,,,C,G,y,b,,,,,,,,,,1,18,38,5,,,,,,,,,,,,,b,1,2.551968985958183,1717.0572197962945,None,,,,,001,24,2019_Oct_14_1402,ACPT_experiment_5_30_19,3.1.0,59.94387084867008,
,,,C,D,y,b,,,,,,,,,,1,19,39,2,,,,,,,,,,,,,b,1,1.9014975751790644,1722.8950305811784,None,,,,,001,24,2019_Oct_14_1402,ACPT_experiment_5_30_19,3.1.0,59.94387084867008,
,,,C,D,g,b,,,,,,,,,,2,0,40,1,,,,,,,,,,,,,b,1,2.5520061144245574,1728.0656509767202,None,,,,,001,24,2019_Oct_14_1402,ACPT_experiment_5_30_19,3.1.0,59.94387084867008,
,,,C,D,y,b,,,,,,,,,,2,1,41,2,,,,,,,,,,,,,b,1,1.0842076634362456,1733.8867850430843,None,,,,,001,24,2019_Oct_14_1402,ACPT_experiment_5_30_19,3.1.0,59.94387084867008,
,,,C,U,d,n,,,,,,,,,,2,2,42,6,,,,,,,,,,,,,n,1,1.5845644589417134,1738.256833298016,None,,,,,001,24,2019_Oct_14_1402,ACPT_experiment_5_30_19,3.1.0,59.94387084867008,
,,,C,D,g,b,,,,,,,,,,2,3,43,10,,,,,,,,,,,,,b,1,3.7362179434933296,1743.1272383484534,None,,,,,001,24,2019_Oct_14_1402,ACPT_experiment_5_30_19,3.1.0,59.94387084867008,
,,,C,G,d,b,,,,,,,,,,2,4,44,12,,,,,,,,,,,,,b,1,1.8014043615987703,1750.1493008075895,None,,,,,001,24,2019_Oct_14_1402,ACPT_experiment_5_30_19,3.1.0,59.94387084867008,
,,,C,G,d,b,,,,,,,,,,2,5,45,3,,,,,,,,,,,,,b,1,1.3677719479042025,1755.2198654198746,None,,,,,001,24,2019_Oct_14_1402,ACPT_experiment_5_30_19,3.1.0,59.94387084867008,
,,,C,G,y,b,,,,,,,,,,2,6,46,5,,,,,,,,,,,,,b,1,1.4678156568629674,1759.8567692438653,None,,,,,001,24,2019_Oct_14_1402,ACPT_experiment_5_30_19,3.1.0,59.94387084867008,
,,,C,D,d,v,,,,,,,,,,2,7,47,0,,,,,,,,,,,,,v,1,2.418535617066027,1764.6104082863492,None,,,,,001,24,2019_Oct_14_1402,ACPT_experiment_5_30_19,3.1.0,59.94387084867008,
,,,C,G,g,v,,,,,,,,,,2,8,48,13,,,,,,,,,,,,,v,1,2.568662910352714,1770.3147896264877,None,,,,,001,24,2019_Oct_14_1402,ACPT_experiment_5_30_19,3.1.0,59.94387084867008,
,,,C,D,y,b,,,,,,,,,,2,9,49,11,,,,,,,,,,,,,b,1,1.7679280685772483,1776.169268376025,None,,,,,001,24,2019_Oct_14_1402,ACPT_experiment_5_30_19,3.1.0,59.94387084867008,
,,,C,U,d,n,,,,,,,,,,2,10,50,15,,,,,,,,,,,,,n,1,1.784718285498002,1781.2231737775228,None,,,,,001,24,2019_Oct_14_1402,ACPT_experiment_5_30_19,3.1.0,59.94387084867008,
,,,C,G,y,b,,,,,,,,,,2,11,51,14,,,,,,,,,,,,,b,1,3.319233873718531,1786.2937302396567,None,,,,,001,24,2019_Oct_14_1402,ACPT_experiment_5_30_19,3.1.0,59.94387084867008,
,,,C,U,g,n,,,,,,,,,,2,12,52,16,,,,,,,,,,,,,n,1,1.2676440207171709,1792.8988071197307,None,,,,,001,24,2019_Oct_14_1402,ACPT_experiment_5_30_19,3.1.0,59.94387084867008,
,,,C,D,d,v,,,,,,,,,,2,13,53,9,,,,,,,,,,,,,v,1,2.2181457379840595,1797.4692223125783,None,,,,,001,24,2019_Oct_14_1402,ACPT_experiment_5_30_19,3.1.0,59.94387084867008,
,,,C,D,d,v,,,,,,,,,,2,14,54,18,,,,,,,,,,,,,v,1,1.7347035246687028,1802.9565038507956,None,,,,,001,24,2019_Oct_14_1402,ACPT_experiment_5_30_19,3.1.0,59.94387084867008,
,,,C,U,y,n,,,,,,,,,,2,15,55,17,,,,,,,,,,,,,n,1,0.9507761056886466,1807.977054607824,None,,,,,001,24,2019_Oct_14_1402,ACPT_experiment_5_30_19,3.1.0,59.94387084867008,
,,,C,G,g,v,,,,,,,,,,2,16,56,4,,,,,,,,,,,,,v,1,1.167301171025656,1812.2305901132027,None,,,,,001,24,2019_Oct_14_1402,ACPT_experiment_5_30_19,3.1.0,59.94387084867008,
,,,C,U,g,n,,,,,,,,,,2,17,57,7,,,,,,,,,,,,,n,1,2.1516718978564313,1816.667056062777,None,,,,,001,24,2019_Oct_14_1402,ACPT_experiment_5_30_19,3.1.0,59.94387084867008,
,,,C,G,g,v,,,,,,,,,,2,18,58,19,,,,,,,,,,,,,v,1,1.9515165620127846,1822.1045640242671,None,,,,,001,24,2019_Oct_14_1402,ACPT_experiment_5_30_19,3.1.0,59.94387084867008,
,,,C,U,y,n,,,,,,,,,,2,19,59,8,,,,,,,,,,,,,n,1,1.3010028911908194,1827.3419257056373,None,,,,,001,24,2019_Oct_14_1402,ACPT_experiment_5_30_19,3.1.0,59.94387084867008,
,,,C,D,y,b,,,,,,,,,,3,0,60,11,,,,,,,,,,,,,b,1,2.1015997841118406,1831.9454803185924,None,,,,,001,24,2019_Oct_14_1402,ACPT_experiment_5_30_19,3.1.0,59.94387084867008,
,,,C,U,y,n,,,,,,,,,,3,1,61,17,,,,,,,,,,,,,b,0,1.017469698039804,1837.3329297499233,None,,,,,001,24,2019_Oct_14_1402,ACPT_experiment_5_30_19,3.1.0,59.94387084867008,
,,,C,D,d,v,,,,,,,,,,3,2,62,0,,,,,,,,,,,,,v,1,3.335900630942433,1841.6529294359914,None,,,,,001,24,2019_Oct_14_1402,ACPT_experiment_5_30_19,3.1.0,59.94387084867008,
,,,C,U,d,n,,,,,,,,,,3,3,63,15,,,,,,,,,,,,,n,1,2.6520519363853055,1848.2746667342828,None,,,,,001,24,2019_Oct_14_1402,ACPT_experiment_5_30_19,3.1.0,59.94387084867008,
,,,C,U,g,n,,,,,,,,,,3,4,64,16,,,,,,,,,,,,,n,1,0.4503553164040568,1854.195880430642,None,,,,,001,24,2019_Oct_14_1402,ACPT_experiment_5_30_19,3.1.0,59.94387084867008,
,,,C,U,g,n,,,,,,,,,,3,5,65,7,,,,,,,,,,,,,n,1,0.7670043847815577,1857.932347104674,None,,,,,001,24,2019_Oct_14_1402,ACPT_experiment_5_30_19,3.1.0,59.94387084867008,
,,,C,D,d,v,,,,,,,,,,3,6,66,18,,,,,,,,,,,,,v,1,3.836306025497379,1861.98519691067,None,,,,,001,24,2019_Oct_14_1402,ACPT_experiment_5_30_19,3.1.0,59.94387084867008,
,,,C,D,d,v,,,,,,,,,,3,7,67,9,,,,,,,,,,,,,v,1,1.801393796587945,1869.1073308496505,None,,,,,001,24,2019_Oct_14_1402,ACPT_experiment_5_30_19,3.1.0,59.94387084867008,
,,,C,G,y,b,,,,,,,,,,3,8,68,5,,,,,,,,,,,,,b,1,1.8347734952253631,1874.1945501448615,None,,,,,001,24,2019_Oct_14_1402,ACPT_experiment_5_30_19,3.1.0,59.94387084867008,
,,,C,U,d,n,,,,,,,,,,3,9,69,6,,,,,,,,,,,,,n,1,3.969725207089141,1879.3151723817339,None,,,,,001,24,2019_Oct_14_1402,ACPT_experiment_5_30_19,3.1.0,59.94387084867008,
,,,C,G,y,b,,,,,,,,,,3,10,70,14,,,,,,,,,,,,,b,1,1.0174552088824385,1886.5707454248975,None,,,,,001,24,2019_Oct_14_1402,ACPT_experiment_5_30_19,3.1.0,59.94387084867008,
,,,C,G,g,v,,,,,,,,,,3,11,71,19,,,,,,,,,,,,,b,0,1.7647066458748668,1890.8940516574692,None,,,,,001,24,2019_Oct_14_1402,ACPT_experiment_5_30_19,3.1.0,59.94387084867008,
,,,C,G,d,b,,,,,,,,,,3,12,72,12,,,,,,,,,,,,,b,1,0.8840293864263913,1895.9279351561902,None,,,,,001,24,2019_Oct_14_1402,ACPT_experiment_5_30_19,3.1.0,59.94387084867008,
,,,C,D,y,b,,,,,,,,,,3,13,73,2,,,,,,,,,,,,,b,1,2.3849065841750416,1900.1147568447689,None,,,,,001,24,2019_Oct_14_1402,ACPT_experiment_5_30_19,3.1.0,59.94387084867008,
,,,C,G,d,b,,,,,,,,,,3,14,74,3,,,,,,,,,,,,,v,0,2.401866143125062,1905.7854979832903,None,,,,,001,24,2019_Oct_14_1402,ACPT_experiment_5_30_19,3.1.0,59.94387084867008,
,,,C,G,g,v,,,,,,,,,,3,15,75,13,,,,,,,,,,,,,v,1,1.4010903694793342,1911.4731995863347,None,,,,,001,24,2019_Oct_14_1402,ACPT_experiment_5_30_19,3.1.0,59.94387084867008,
,,,C,U,y,n,,,,,,,,,,3,16,76,8,,,,,,,,,,,,,n,1,1.3174535184803062,1916.177053883366,None,,,,,001,24,2019_Oct_14_1402,ACPT_experiment_5_30_19,3.1.0,59.94387084867008,
,,,C,G,g,v,,,,,,,,,,3,17,77,4,,,,,,,,,,,,,v,1,1.9682159198409863,1920.7803217317444,None,,,,,001,24,2019_Oct_14_1402,ACPT_experiment_5_30_19,3.1.0,59.94387084867008,
,,,C,D,g,b,,,,,,,,,,3,18,78,1,,,,,,,,,,,,,b,1,3.385950709093322,1926.0343773375087,None,,,,,001,24,2019_Oct_14_1402,ACPT_experiment_5_30_19,3.1.0,59.94387084867008,
,,,C,D,g,b,,,,,,,,,,3,19,79,10,,,,,,,,,,,,,b,1,1.084192570563573,1932.6894931270078,None,,,,,001,24,2019_Oct_14_1402,ACPT_experiment_5_30_19,3.1.0,59.94387084867008,
,,,C,G,g,v,,,,,,,,,,4,0,80,19,,,,,,,,,,,,,v,1,1.4508533811958841,1937.076465623568,None,,,,,001,24,2019_Oct_14_1402,ACPT_experiment_5_30_19,3.1.0,59.94387084867008,
,,,C,G,g,v,,,,,,,,,,4,1,81,13,,,,,,,,,,,,,v,1,2.051645998486947,1941.796459332859,None,,,,,001,24,2019_Oct_14_1402,ACPT_experiment_5_30_19,3.1.0,59.94387084867008,
,,,C,U,d,n,,,,,,,,,,4,2,82,6,,,,,,,,,,,,,n,1,1.4177737288628123,1947.1339142278096,None,,,,,001,24,2019_Oct_14_1402,ACPT_experiment_5_30_19,3.1.0,59.94387084867008,
,,,C,G,d,b,,,,,,,,,,4,3,83,3,,,,,,,,,,,,,v,0,1.9181510506750783,1951.8375273407385,None,,,,,001,24,2019_Oct_14_1402,ACPT_experiment_5_30_19,3.1.0,59.94387084867008,
,,,C,D,d,v,,,,,,,,,,4,4,84,0,,,,,,,,,,,,,v,1,1.1175752877757077,1957.0415271330605,None,,,,,001,24,2019_Oct_14_1402,ACPT_experiment_5_30_19,3.1.0,59.94387084867008,
,,,C,D,y,b,,,,,,,,,,4,5,85,2,,,,,,,,,,,,,b,1,1.9011945102997743,1961.461864235386,None,,,,,001,24,2019_Oct_14_1402,ACPT_experiment_5_30_19,3.1.0,59.94387084867008,
,,,C,G,y,b,,,,,,,,,,4,6,86,5,,,,,,,,,,,,,b,1,5.68771820520351,1966.648900846469,None,,,,,001,24,2019_Oct_14_1402,ACPT_experiment_5_30_19,3.1.0,59.94387084867008,
,,,C,G,y,b,,,,,,,,,,4,7,87,14,,,,,,,,,,,,,b,1,0.5672752716568539,1975.6056277699197,None,,,,,001,24,2019_Oct_14_1402,ACPT_experiment_5_30_19,3.1.0,59.94387084867008,
,,,C,U,d,n,,,,,,,,,,4,8,88,15,,,,,,,,,,,,,n,1,1.4175083961649761,1979.475675722994,None,,,,,001,24,2019_Oct_14_1402,ACPT_experiment_5_30_19,3.1.0,59.94387084867008,
,,,C,U,g,n,,,,,,,,,,4,9,89,7,,,,,,,,,,,,,n,1,1.100862044504538,1984.1623446717028,None,,,,,001,24,2019_Oct_14_1402,ACPT_experiment_5_30_19,3.1.0,59.94387084867008,
,,,C,D,g,b,,,,,,,,,,4,10,90,10,,,,,,,,,,,,,b,1,3.118813507034247,1988.5659938867832,None,,,,,001,24,2019_Oct_14_1402,ACPT_experiment_5_30_19,3.1.0,59.94387084867008,
,,,C,G,g,v,,,,,,,,,,4,11,91,4,,,,,,,,,,,,,v,1,1.0007694346390963,1994.9706519094595,None,,,,,001,24,2019_Oct_14_1402,ACPT_experiment_5_30_19,3.1.0,59.94387084867008,
,,,C,U,y,n,,,,,,,,,,4,12,92,8,,,,,,,,,,,,,n,1,0.9671446277520772,1999.2742302484105,None,,,,,001,24,2019_Oct_14_1402,ACPT_experiment_5_30_19,3.1.0,59.94387084867008,
,,,C,U,y,n,,,,,,,,,,4,13,93,17,,,,,,,,,,,,,n,1,0.9173876531854148,2003.5105354287073,None,,,,,001,24,2019_Oct_14_1402,ACPT_experiment_5_30_19,3.1.0,59.94387084867008,
,,,C,D,d,v,,,,,,,,,,4,14,94,9,,,,,,,,,,,,,v,1,3.91944360427442,2007.7306867075865,None,,,,,001,24,2019_Oct_14_1402,ACPT_experiment_5_30_19,3.1.0,59.94387084867008,
,,,C,U,g,n,,,,,,,,,,4,15,95,16,,,,,,,,,,,,,n,1,1.234315939703265,2014.9359754312184,None,,,,,001,24,2019_Oct_14_1402,ACPT_experiment_5_30_19,3.1.0,59.94387084867008,
,,,C,D,y,b,,,,,,,,,,4,16,96,11,,,,,,,,,,,,,b,1,1.0671044203400015,2019.4731847953196,None,,,,,001,24,2019_Oct_14_1402,ACPT_experiment_5_30_19,3.1.0,59.94387084867008,
,,,C,D,g,b,,,,,,,,,,4,17,97,1,,,,,,,,,,,,,b,1,8.23983630874227,2023.8094573146398,None,,,,,001,24,2019_Oct_14_1402,ACPT_experiment_5_30_19,3.1.0,59.94387084867008,
,,,C,G,d,b,,,,,,,,,,4,18,98,12,,,,,,,,,,,,,b,1,2.351826629984771,2035.33497060814,None,,,,,001,24,2019_Oct_14_1402,ACPT_experiment_5_30_19,3.1.0,59.94387084867008,
,,,C,D,d,v,,,,,,,,,,4,19,99,18,,,,,,,,,,,,,b,0,1.5512061921826898,2040.972641753768,None,,,,,001,24,2019_Oct_14_1402,ACPT_experiment_5_30_19,3.1.0,59.94387084867008,
,,,C,D,g,b,,,,,,,,,,5,0,100,1,,,,,,,,,,,,,b,1,1.050826757368668,2045.8096858207293,None,,,,,001,24,2019_Oct_14_1402,ACPT_experiment_5_30_19,3.1.0,59.94387084867008,
,,,C,U,d,n,,,,,,,,,,5,1,101,15,,,,,,,,,,,,,n,1,0.8171172492816368,2050.1631859484146,None,,,,,001,24,2019_Oct_14_1402,ACPT_experiment_5_30_19,3.1.0,59.94387084867008,
,,,C,G,y,b,,,,,,,,,,5,2,102,5,,,,,,,,,,,,,b,1,1.0174709054695086,2054.2661706545055,None,,,,,001,24,2019_Oct_14_1402,ACPT_experiment_5_30_19,3.1.0,59.94387084867008,
,,,C,D,d,v,,,,,,,,,,5,3,103,18,,,,,,,,,,,,,v,1,1.8178281235755094,2058.5864060912418,None,,,,,001,24,2019_Oct_14_1402,ACPT_experiment_5_30_19,3.1.0,59.94387084867008,
,,,C,D,g,b,,,,,,,,,,5,4,104,10,,,,,,,,,,,,,b,1,2.0349070973329617,2063.6733974840786,None,,,,,001,24,2019_Oct_14_1402,ACPT_experiment_5_30_19,3.1.0,59.94387084867008,
,,,C,U,d,n,,,,,,,,,,5,5,105,6,,,,,,,,,,,,,n,1,1.5178376622711767,2068.9941536249153,None,,,,,001,24,2019_Oct_14_1402,ACPT_experiment_5_30_19,3.1.0,59.94387084867008,
,,,C,D,y,b,,,,,,,,,,5,6,106,2,,,,,,,,,,,,,b,1,0.9340586364132832,2073.7978403306906,None,,,,,001,24,2019_Oct_14_1402,ACPT_experiment_5_30_19,3.1.0,59.94387084867008,
,,,C,G,y,b,,,,,,,,,,5,7,107,14,,,,,,,,,,,,,b,1,0.7839440211396322,2078.017746501321,None,,,,,001,24,2019_Oct_14_1402,ACPT_experiment_5_30_19,3.1.0,59.94387084867008,
,,,C,D,d,v,,,,,,,,,,5,8,108,9,,,,,,,,,,,,,v,1,1.8514390450195606,2082.0875323213863,None,,,,,001,24,2019_Oct_14_1402,ACPT_experiment_5_30_19,3.1.0,59.94387084867008,
,,,C,G,g,v,,,,,,,,,,5,9,109,4,,,,,,,,,,,,,v,1,2.2684502819647605,2087.224784187016,None,,,,,001,24,2019_Oct_14_1402,ACPT_experiment_5_30_19,3.1.0,59.94387084867008,
,,,C,U,g,n,,,,,,,,,,5,10,110,7,,,,,,,,,,,,,n,1,0.5170718499211944,2092.779076267907,None,,,,,001,24,2019_Oct_14_1402,ACPT_experiment_5_30_19,3.1.0,59.94387084867008,
,,,C,G,d,b,,,,,,,,,,5,11,111,3,,,,,,,,,,,,,b,1,1.5512218887702147,2096.581971201592,None,,,,,001,24,2019_Oct_14_1402,ACPT_experiment_5_30_19,3.1.0,59.94387084867008,
,,,C,U,y,n,,,,,,,,,,5,12,112,8,,,,,,,,,,,,,n,1,0.8173053064729174,2101.419043341296,None,,,,,001,24,2019_Oct_14_1402,ACPT_experiment_5_30_19,3.1.0,59.94387084867008,
,,,C,G,g,v,,,,,,,,,,5,13,113,13,,,,,,,,,,,,,v,1,1.4840450226424764,2105.5392909730735,None,,,,,001,24,2019_Oct_14_1402,ACPT_experiment_5_30_19,3.1.0,59.94387084867008,
,,,C,D,d,v,,,,,,,,,,5,14,114,0,,,,,,,,,,,,,v,1,3.102393669204048,2110.3092049618117,None,,,,,001,24,2019_Oct_14_1402,ACPT_experiment_5_30_19,3.1.0,59.94387084867008,
,,,C,G,d,b,,,,,,,,,,5,15,115,12,,,,,,,,,,,,,b,1,1.5345264550887805,2116.6974416373714,None,,,,,001,24,2019_Oct_14_1402,ACPT_experiment_5_30_19,3.1.0,59.94387084867008,
,,,C,U,g,n,,,,,,,,,,5,16,116,16,,,,,,,,,,,,,n,1,1.4678047899951707,2121.517810193243,None,,,,,001,24,2019_Oct_14_1402,ACPT_experiment_5_30_19,3.1.0,59.94387084867008,
,,,C,D,y,b,,,,,,,,,,5,17,117,11,,,,,,,,,,,,,b,1,0.9507607109585479,2126.27146070631,None,,,,,001,24,2019_Oct_14_1402,ACPT_experiment_5_30_19,3.1.0,59.94387084867008,
,,,C,U,y,n,,,,,,,,,,5,18,118,17,,,,,,,,,,,,,b,0,0.5671294745084197,2130.508020050579,None,,,,,001,24,2019_Oct_14_1402,ACPT_experiment_5_30_19,3.1.0,59.94387084867008,
,,,C,G,g,v,,,,,,,,,,5,19,119,19,0,0,0,0,0,0,0,0,,,,,v,1,2.3017759481190296,2134.3610003797367,None,,,,,001,24,2019_Oct_14_1402,ACPT_experiment_5_30_19,3.1.0,59.94387084867008,
,,,C,G,g,v,L,U,d,L,u,,,,,5,19,119,19,0,0,0,0,,,,,0,0,0,20,,,,,,up,1.2342884706758923,2191.604955533379,None,001,24,2019_Oct_14_1402,ACPT_experiment_5_30_19,3.1.0,59.94387084867008,
,,,C,G,g,v,R,U,y,L,u,,,,,5,19,119,19,0,0,0,0,,,,,0,1,1,30,,,,,,down,0.917383125323795,2194.123553876423,None,001,24,2019_Oct_14_1402,ACPT_experiment_5_30_19,3.1.0,59.94387084867008,
,,,C,G,g,v,R,U,g,L,u,,,,,5,19,119,19,0,0,0,0,,,,,0,2,2,10,,,,,,up,0.967385509997257,2196.325260155843,None,001,24,2019_Oct_14_1402,ACPT_experiment_5_30_19,3.1.0,59.94387084867008,
,,,C,G,g,v,R,U,d,L,u,,,,,5,19,119,19,0,0,0,0,,,,,0,3,3,8,,,,,,up,0.8006325120995825,2198.560290290272,None,001,24,2019_Oct_14_1402,ACPT_experiment_5_30_19,3.1.0,59.94387084867008,
,,,C,G,g,v,R,U,d,R,u,,,,,5,19,119,19,0,0,0,0,,,,,0,4,4,9,,,,,,up,0.76728179177735,2200.6285269779055,None,001,24,2019_Oct_14_1402,ACPT_experiment_5_30_19,3.1.0,59.94387084867008,
,,,C,G,g,v,R,D,y,R,y,,,,,5,19,119,19,0,0,0,0,,,,,0,5,5,27,,,,,,down,0.5671001943360352,2202.6801270940605,None,001,24,2019_Oct_14_1402,ACPT_experiment_5_30_19,3.1.0,59.94387084867008,
,,,C,G,g,v,L,G,y,R,y,,,,,5,19,119,19,0,0,0,0,,,,,0,6,6,35,,,,,,down,0.7339042061416876,2204.5315516499227,None,001,24,2019_Oct_14_1402,ACPT_experiment_5_30_19,3.1.0,59.94387084867008,
,,,C,G,g,v,L,U,d,R,u,,,,,5,19,119,19,0,0,0,0,,,,,0,7,7,21,,,,,,up,0.8306649134788131,2206.56977102905,None,001,24,2019_Oct_14_1402,ACPT_experiment_5_30_19,3.1.0,59.94387084867008,
,,,C,G,g,v,L,D,d,L,c ,,,,,5,19,119,19,0,0,0,0,,,,,0,8,8,12,,,,,,up,0.8840414607243474,2208.6847068752863,None,001,24,2019_Oct_14_1402,ACPT_experiment_5_30_19,3.1.0,59.94387084867008,
,,,C,G,g,v,L,G,g,R,c ,,,,,5,19,119,19,0,0,0,0,,,,,0,9,9,19,,,,,,up,1.6345891810669855,2210.8530645473857,None,001,24,2019_Oct_14_1402,ACPT_experiment_5_30_19,3.1.0,59.94387084867008,
,,,C,G,g,v,L,U,g,L,u,,,,,5,19,119,19,0,0,0,0,,,,,0,10,10,22,,,,,,up,0.8506518007907289,2213.771974769547,None,001,24,2019_Oct_14_1402,ACPT_experiment_5_30_19,3.1.0,59.94387084867008,
,,,C,G,g,v,L,D,d,R,c ,,,,,5,19,119,19,0,0,0,0,,,,,0,11,11,13,,,,,,up,0.5670890256101302,2215.9069518374363,None,001,24,2019_Oct_14_1402,ACPT_experiment_5_30_19,3.1.0,59.94387084867008,
,,,C,G,g,v,R,G,d,R,i,,,,,5,19,119,19,0,0,0,0,,,,,0,12,12,5,,,,,,up,0.6505037095262196,2217.7583652245726,None,001,24,2019_Oct_14_1402,ACPT_experiment_5_30_19,3.1.0,59.94387084867008,
,,,C,G,g,v,R,D,d,L,c,,,,,5,19,119,19,0,0,0,0,,,,,0,13,13,0,,,,,,up,1.0507914400473055,2219.693192390053,None,001,24,2019_Oct_14_1402,ACPT_experiment_5_30_19,3.1.0,59.94387084867008,
,,,C,G,g,v,L,G,g,L,c ,,,,,5,19,119,19,0,0,0,0,,,,,0,14,14,18,,,,,,up,0.7005069997721876,2222.0283326420795,None,001,24,2019_Oct_14_1402,ACPT_experiment_5_30_19,3.1.0,59.94387084867008,
,,,C,G,g,v,R,D,d,R,c ,,,,,5,19,119,19,0,0,0,0,,,,,0,15,15,1,,,,,,up,0.6671801261886685,2224.013171851672,None,001,24,2019_Oct_14_1402,ACPT_experiment_5_30_19,3.1.0,59.94387084867008,
,,,C,G,g,v,R,D,g,L,i,,,,,5,19,119,19,0,0,0,0,,,,,0,16,16,2,,,,,,up,0.6338064647002284,2225.948018336029,None,001,24,2019_Oct_14_1402,ACPT_experiment_5_30_19,3.1.0,59.94387084867008,
,,,C,G,g,v,L,D,g,L,i,,,,,5,19,119,19,0,0,0,0,,,,,0,17,17,14,,,,,,up,0.7505794153744318,2227.8661286359484,None,001,24,2019_Oct_14_1402,ACPT_experiment_5_30_19,3.1.0,59.94387084867008,
,,,C,G,g,v,L,G,d,R,i,,,,,5,19,119,19,0,0,0,0,,,,,0,18,18,17,,,,,,up,0.6004687242480031,2229.901046902007,None,001,24,2019_Oct_14_1402,ACPT_experiment_5_30_19,3.1.0,59.94387084867008,
,,,C,G,g,v,L,D,g,R,i,,,,,5,19,119,19,0,0,0,0,,,,,0,19,19,15,,,,,,up,0.5337343811406754,2231.7858043686015,None,001,24,2019_Oct_14_1402,ACPT_experiment_5_30_19,3.1.0,59.94387084867008,
,,,C,G,g,v,L,U,y,R,u,,,,,5,19,119,19,0,0,0,0,,,,,0,20,20,25,,,,,,down,0.5670989869058758,2233.603866129843,None,001,24,2019_Oct_14_1402,ACPT_experiment_5_30_19,3.1.0,59.94387084867008,
,,,C,G,g,v,R,G,y,L,y,,,,,5,19,119,19,0,0,0,0,,,,,0,21,21,28,,,,,,down,0.6505212172583015,2235.4552873652733,None,001,24,2019_Oct_14_1402,ACPT_experiment_5_30_19,3.1.0,59.94387084867008,
,,,C,G,g,v,R,G,g,L,c ,,,,,5,19,119,19,0,0,0,0,,,,,0,22,22,6,,,,,,up,0.7502968768017126,2237.3903819764537,None,001,24,2019_Oct_14_1402,ACPT_experiment_5_30_19,3.1.0,59.94387084867008,
,,,C,G,g,v,R,G,d,L,i,,,,,5,19,119,19,0,0,0,0,,,,,0,23,23,4,,,,,,up,0.5671524156746273,2239.4083038569534,None,001,24,2019_Oct_14_1402,ACPT_experiment_5_30_19,3.1.0,59.94387084867008,
,,,C,G,g,v,L,U,g,R,u,,,,,5,19,119,19,0,0,0,0,,,,,0,24,24,23,,,,,,up,0.8840088601200478,2241.259746524262,None,001,24,2019_Oct_14_1402,ACPT_experiment_5_30_19,3.1.0,59.94387084867008,
,,,C,G,g,v,R,G,y,R,y,,,,,5,19,119,19,0,0,0,0,,,,,0,25,25,29,,,,,,down,0.6004246530601449,2243.4281171762323,None,001,24,2019_Oct_14_1402,ACPT_experiment_5_30_19,3.1.0,59.94387084867008,
,,,C,G,g,v,L,G,d,L,i,,,,,5,19,119,19,0,0,0,0,,,,,0,26,26,16,,,,,,up,0.6504994835217985,2245.3128547202355,None,001,24,2019_Oct_14_1402,ACPT_experiment_5_30_19,3.1.0,59.94387084867008,
,,,C,G,g,v,L,U,y,L,u,,,,,5,19,119,19,0,0,0,0,,,,,0,27,27,24,,,,,,down,0.650495559375031,2247.264358302378,None,001,24,2019_Oct_14_1402,ACPT_experiment_5_30_19,3.1.0,59.94387084867008,
,,,C,G,g,v,L,G,y,L,y,,,,,5,19,119,19,0,0,0,0,,,,,0,28,28,34,,,,,,down,0.733892433701385,2249.2158528287964,None,001,24,2019_Oct_14_1402,ACPT_experiment_5_30_19,3.1.0,59.94387084867008,
,,,C,G,g,v,L,D,y,R,y,,,,,5,19,119,19,0,0,0,0,,,,,0,29,29,33,,,,,,down,0.6170871842800807,2251.2341170156437,None,001,24,2019_Oct_14_1402,ACPT_experiment_5_30_19,3.1.0,59.94387084867008,
,,,C,G,g,v,R,U,g,R,u,,,,,5,19,119,19,0,0,0,0,,,,,0,30,30,11,,,,,,up,0.6004557443775411,2253.1355309763094,None,001,24,2019_Oct_14_1402,ACPT_experiment_5_30_19,3.1.0,59.94387084867008,
,,,C,G,g,v,L,D,y,L,y,,,,,5,19,119,19,0,0,0,0,,,,,0,31,31,32,,,,,,down,0.7005323557982592,2255.0203113840707,None,001,24,2019_Oct_14_1402,ACPT_experiment_5_30_19,3.1.0,59.94387084867008,
,,,C,G,g,v,R,D,g,R,i,,,,,5,19,119,19,0,0,0,0,,,,,0,32,32,3,,,,,,up,0.617137594473661,2257.0051647809632,None,001,24,2019_Oct_14_1402,ACPT_experiment_5_30_19,3.1.0,59.94387084867008,
,,,C,G,g,v,R,U,y,R,u,,,,,5,19,119,19,0,0,0,0,,,,,0,33,33,31,,,,,,down,0.6505064262432825,2258.906624020246,None,001,24,2019_Oct_14_1402,ACPT_experiment_5_30_19,3.1.0,59.94387084867008,
,,,C,G,g,v,R,D,y,L,y,,,,,5,19,119,19,0,0,0,0,,,,,0,34,34,26,,,,,,down,0.8839717316536735,2260.858156882561,None,001,24,2019_Oct_14_1402,ACPT_experiment_5_30_19,3.1.0,59.94387084867008,
,,,C,G,g,v,R,G,g,R,c ,,,,,5,19,119,19,0,0,0,0,,,,,0,35,35,7,,,,,,up,0.5670645751565644,2263.043161389293,None,001,24,2019_Oct_14_1402,ACPT_experiment_5_30_19,3.1.0,59.94387084867008,
,,,C,G,g,v,L,D,d,R,c ,,,,,5,19,119,19,0,0,0,0,,,,,1,0,36,13,,,,,,up,0.550421362814177,2264.894553948265,None,001,24,2019_Oct_14_1402,ACPT_experiment_5_30_19,3.1.0,59.94387084867008,
,,,C,G,g,v,R,D,d,R,c ,,,,,5,19,119,19,0,0,0,0,,,,,1,1,37,1,,,,,,up,0.5837868741514285,2266.7292975596033,None,001,24,2019_Oct_14_1402,ACPT_experiment_5_30_19,3.1.0,59.94387084867008,
,,,C,G,g,v,R,D,g,L,i,,,,,5,19,119,19,0,0,0,0,,,,,1,2,38,2,,,,,,up,0.7836641992839759,2268.597670807547,None,001,24,2019_Oct_14_1402,ACPT_experiment_5_30_19,3.1.0,59.94387084867008,
,,,C,G,g,v,R,D,d,L,c,,,,,5,19,119,19,0,0,0,0,,,,,1,3,39,0,,,,,,up,0.5504222683862281,2270.665653331208,None,001,24,2019_Oct_14_1402,ACPT_experiment_5_30_19,3.1.0,59.94387084867008,
,,,C,G,g,v,L,U,y,L,u,,,,,5,19,119,19,0,0,0,0,,,,,1,4,40,24,,,,,,down,0.5337633594558611,2272.5003945276867,None,001,24,2019_Oct_14_1402,ACPT_experiment_5_30_19,3.1.0,59.94387084867008,
,,,C,G,g,v,R,D,y,R,y,,,,,5,19,119,19,0,0,0,0,,,,,1,5,41,27,,,,,,down,0.5170344195976213,2274.318472891088,None,001,24,2019_Oct_14_1402,ACPT_experiment_5_30_19,3.1.0,59.94387084867008,
,,,C,G,g,v,L,G,d,R,i,,,,,5,19,119,19,0,0,0,0,,,,,1,6,42,17,,,,,,up,0.5837947224449636,2276.1198407279353,None,001,24,2019_Oct_14_1402,ACPT_experiment_5_30_19,3.1.0,59.94387084867008,
,,,C,G,g,v,R,U,g,L,u,,,,,5,19,119,19,0,0,0,0,,,,,1,7,43,10,,,,,,up,0.5003803403865277,2277.9879420023167,None,001,24,2019_Oct_14_1402,ACPT_experiment_5_30_19,3.1.0,59.94387084867008,
,,,C,G,g,v,L,D,g,L,i,,,,,5,19,119,19,0,0,0,0,,,,,1,8,44,14,,,,,,up,0.633818237140531,2279.772641572653,None,001,24,2019_Oct_14_1402,ACPT_experiment_5_30_19,3.1.0,59.94387084867008,
,,,C,G,g,v,R,D,y,L,y,,,,,5,19,119,19,0,0,0,0,,,,,1,9,45,26,,,,,,down,0.6169278035463321,2281.707700262797,None,001,24,2019_Oct_14_1402,ACPT_experiment_5_30_19,3.1.0,59.94387084867008,
,,,C,G,g,v,R,G,d,R,i,,,,,5,19,119,19,0,0,0,0,,,,,1,10,46,5,,,,,,up,0.6505085392450383,2283.608912582686,None,001,24,2019_Oct_14_1402,ACPT_experiment_5_30_19,3.1.0,59.94387084867008,
,,,C,G,g,v,R,G,y,L,y,,,,,5,19,119,19,0,0,0,0,,,,,1,11,47,28,,,,,,down,0.6338375560171698,2285.5270394847653,None,001,24,2019_Oct_14_1402,ACPT_experiment_5_30_19,3.1.0,59.94387084867008,
,,,C,G,g,v,L,U,g,L,u,,,,,5,19,119,19,0,0,0,0,,,,,1,12,48,22,,,,,,up,0.550467547003791,2287.445205024598,None,001,24,2019_Oct_14_1402,ACPT_experiment_5_30_19,3.1.0,59.94387084867008,
,,,C,G,g,v,L,D,d,L,c ,,,,,5,19,119,19,0,0,0,0,,,,,1,13,49,12,,,,,,up,0.6502205672386481,2289.2968970261604,None,001,24,2019_Oct_14_1402,ACPT_experiment_5_30_19,3.1.0,59.94387084867008,
,,,C,G,g,v,R,G,g,L,c ,,,,,5,19,119,19,0,0,0,0,,,,,1,14,50,6,,,,,,up,0.5004063001269969,2291.2314175044717,None,001,24,2019_Oct_14_1402,ACPT_experiment_5_30_19,3.1.0,59.94387084867008,
,,,C,G,g,v,L,D,y,R,y,,,,,5,19,119,19,0,0,0,0,,,,,1,15,51,33,,,,,,down,0.4335943796554602,2293.032881935703,None,001,24,2019_Oct_14_1402,ACPT_experiment_5_30_19,3.1.0,59.94387084867008,
,,,C,G,g,v,L,G,y,R,y,,,,,5,19,119,19,0,0,0,0,,,,,1,16,52,35,,,,,,down,0.6004500090857618,2294.7674885641304,None,001,24,2019_Oct_14_1402,ACPT_experiment_5_30_19,3.1.0,59.94387084867008,
,,,C,G,g,v,R,U,y,L,u,,,,,5,19,119,19,0,0,0,0,,,,,1,17,53,30,,,,,,down,0.6000766114207181,2296.6692170602582,None,001,24,2019_Oct_14_1402,ACPT_experiment_5_30_19,3.1.0,59.94387084867008,
,,,C,G,g,v,L,G,y,L,y,,,,,5,19,119,19,0,0,0,0,,,,,1,18,54,34,,,,,,down,0.5504228721010804,2298.553727003745,None,001,24,2019_Oct_14_1402,ACPT_experiment_5_30_19,3.1.0,59.94387084867008,
,,,C,G,g,v,L,U,d,L,u,,,,,5,19,119,19,0,0,0,0,,,,,1,19,55,20,,,,,,up,0.7338879058402199,2300.3884718225127,None,001,24,2019_Oct_14_1402,ACPT_experiment_5_30_19,3.1.0,59.94387084867008,
,,,C,G,g,v,R,G,y,R,y,,,,,5,19,119,19,0,0,0,0,,,,,1,20,56,29,,,,,,down,0.5337633594563158,2302.406662959857,None,001,24,2019_Oct_14_1402,ACPT_experiment_5_30_19,3.1.0,59.94387084867008,
,,,C,G,g,v,L,U,g,R,u,,,,,5,19,119,19,0,0,0,0,,,,,1,21,57,23,,,,,,up,0.5170618886254488,2304.224746454835,None,001,24,2019_Oct_14_1402,ACPT_experiment_5_30_19,3.1.0,59.94387084867008,
,,,C,G,g,v,R,G,g,R,c ,,,,,5,19,119,19,0,0,0,0,,,,,1,22,58,7,,,,,,up,0.5504216646713758,2306.026133610559,None,001,24,2019_Oct_14_1402,ACPT_experiment_5_30_19,3.1.0,59.94387084867008,
,,,C,G,g,v,R,U,d,L,u,,,,,5,19,119,19,0,0,0,0,,,,,1,23,59,8,,,,,,up,0.7839717920251132,2307.860868468031,None,001,24,2019_Oct_14_1402,ACPT_experiment_5_30_19,3.1.0,59.94387084867008,
,,,C,G,g,v,L,D,g,R,i,,,,,5,19,119,19,0,0,0,0,,,,,1,24,60,15,,,,,,up,1.0005098372325847,2309.9460804112023,None,001,24,2019_Oct_14_1402,ACPT_experiment_5_30_19,3.1.0,59.94387084867008,
,,,C,G,g,v,L,D,y,L,y,,,,,5,19,119,19,0,0,0,0,,,,,1,25,61,32,,,,,,down,0.6171363870439563,2312.230895291084,None,001,24,2019_Oct_14_1402,ACPT_experiment_5_30_19,3.1.0,59.94387084867008,
,,,C,G,g,v,L,G,d,L,i,,,,,5,19,119,19,0,0,0,0,,,,,1,26,62,16,,,,,,up,0.7338990745652154,2314.1323509080776,None,001,24,2019_Oct_14_1402,ACPT_experiment_5_30_19,3.1.0,59.94387084867008,
,,,C,G,g,v,L,G,g,L,c ,,,,,5,19,119,19,0,0,0,0,,,,,1,27,63,18,,,,,,up,0.6169259924013204,2316.1508149245565,None,001,24,2019_Oct_14_1402,ACPT_experiment_5_30_19,3.1.0,59.94387084867008,
,,,C,G,g,v,L,U,y,R,u,,,,,5,19,119,19,0,0,0,0,,,,,1,28,64,25,,,,,,down,0.7172401656353031,2318.052030564878,None,001,24,2019_Oct_14_1402,ACPT_experiment_5_30_19,3.1.0,59.94387084867008,
,,,C,G,g,v,L,G,g,R,c ,,,,,5,19,119,19,0,0,0,0,,,,,1,29,65,19,,,,,,up,0.5671291726512209,2320.053564000722,None,001,24,2019_Oct_14_1402,ACPT_experiment_5_30_19,3.1.0,59.94387084867008,
,,,C,G,g,v,R,G,d,L,i,,,,,5,19,119,19,0,0,0,0,,,,,1,30,66,4,,,,,,up,0.5003755106672543,2321.904989764014,None,001,24,2019_Oct_14_1402,ACPT_experiment_5_30_19,3.1.0,59.94387084867008,
,,,C,G,g,v,L,U,d,R,u,,,,,5,19,119,19,0,0,0,0,,,,,1,31,67,21,,,,,,up,0.7172096780327593,2323.6896947677837,None,001,24,2019_Oct_14_1402,ACPT_experiment_5_30_19,3.1.0,59.94387084867008,
,,,C,G,g,v,R,U,d,R,u,,,,,5,19,119,19,0,0,0,0,,,,,1,32,68,9,,,,,,up,0.517043475320861,2325.6912432965005,None,001,24,2019_Oct_14_1402,ACPT_experiment_5_30_19,3.1.0,59.94387084867008,
,,,C,G,g,v,R,U,g,R,u,,,,,5,19,119,19,0,0,0,0,,,,,1,33,69,11,,,,,,up,0.38364482003544254,2327.4759114736617,None,001,24,2019_Oct_14_1402,ACPT_experiment_5_30_19,3.1.0,59.94387084867008,
,,,C,G,g,v,R,D,g,R,i,,,,,5,19,119,19,0,0,0,0,,,,,1,34,70,3,,,,,,up,0.48344070402799844,2329.160830554735,None,001,24,2019_Oct_14_1402,ACPT_experiment_5_30_19,3.1.0,59.94387084867008,
,,,C,G,g,v,R,U,y,R,u,,,,,5,19,119,19,0,0,0,0,,,,,1,35,71,31,,,,,,down,0.567124644789601,2330.928556378821,None,001,24,2019_Oct_14_1402,ACPT_experiment_5_30_19,3.1.0,59.94387084867008,
,,,C,G,g,v,,,,,,,,,,5,19,119,19,1,0,1,0,0,0,0,0,,,,,,,,,,,,,,001,24,2019_Oct_14_1402,ACPT_experiment_5_30_19,3.1.0,59.94387084867008,
,,,C,G,g,v,L,D,y,L,y,,,,,5,19,119,19,1,0,1,0,,,,,0,0,0,32,,,,,,down,0.716995057386157,2337.5672302948965,None,001,24,2019_Oct_14_1402,ACPT_experiment_5_30_19,3.1.0,59.94387084867008,
,,,C,G,g,v,R,G,y,L,y,,,,,5,19,119,19,1,0,1,0,,,,,0,1,1,28,,,,,,down,0.48372445003087705,2339.568548506379,None,001,24,2019_Oct_14_1402,ACPT_experiment_5_30_19,3.1.0,59.94387084867008,
,,,C,G,g,v,L,D,d,L,c ,,,,,5,19,119,19,1,0,1,0,,,,,0,2,2,12,,,,,,up,0.55041623123725,2341.3365758860573,None,001,24,2019_Oct_14_1402,ACPT_experiment_5_30_19,3.1.0,59.94387084867008,
,,,C,G,g,v,L,D,y,R,y,,,,,5,19,119,19,1,0,1,0,,,,,0,3,3,33,,,,,,down,0.5170809056448888,2343.1546355342966,None,001,24,2019_Oct_14_1402,ACPT_experiment_5_30_19,3.1.0,59.94387084867008,
,,,C,G,g,v,R,U,d,R,u,,,,,5,19,119,19,1,0,1,0,,,,,0,4,4,9,,,,,,up,0.747246607273155,2344.9760298017823,None,001,24,2019_Oct_14_1402,ACPT_experiment_5_30_19,3.1.0,59.94387084867008,
,,,C,G,g,v,R,U,g,R,u,,,,,5,19,119,19,1,0,1,0,,,,,0,5,5,11,,,,,,up,0.4003010122487467,2346.990910770334,None,001,24,2019_Oct_14_1402,ACPT_experiment_5_30_19,3.1.0,59.94387084867008,
,,,C,G,g,v,L,G,y,L,y,,,,,5,19,119,19,1,0,1,0,,,,,0,6,6,34,,,,,,down,0.750573076368255,2348.6755391626834,None,001,24,2019_Oct_14_1402,ACPT_experiment_5_30_19,3.1.0,59.94387084867008,
,,,C,G,g,v,R,D,d,L,c,,,,,5,19,119,19,1,0,1,0,,,,,0,7,7,0,,,,,,up,0.5170576626214825,2350.7104329782883,None,001,24,2019_Oct_14_1402,ACPT_experiment_5_30_19,3.1.0,59.94387084867008,
,,,C,G,g,v,R,D,d,R,c ,,,,,5,19,119,19,1,0,1,0,,,,,0,8,8,1,,,,,,up,0.4837256574605817,2352.511815002436,None,001,24,2019_Oct_14_1402,ACPT_experiment_5_30_19,3.1.0,59.94387084867008,
,,,C,G,g,v,L,D,g,R,i,,,,,5,19,119,19,1,0,1,0,,,,,0,9,9,15,,,,,,up,0.5504177405241535,2354.2798417783993,None,001,24,2019_Oct_14_1402,ACPT_experiment_5_30_19,3.1.0,59.94387084867008,
,,,C,G,g,v,R,U,d,L,u,,,,,5,19,119,19,1,0,1,0,,,,,0,10,10,8,,,,,,up,0.5170618886254488,2356.1145802581605,None,001,24,2019_Oct_14_1402,ACPT_experiment_5_30_19,3.1.0,59.94387084867008,
,,,C,G,g,v,L,U,d,R,u,,,,,5,19,119,19,1,0,1,0,,,,,0,11,11,21,,,,,,up,0.5000956888115979,2357.932929991409,None,001,24,2019_Oct_14_1402,ACPT_experiment_5_30_19,3.1.0,59.94387084867008,
,,,C,G,g,v,R,G,d,R,i,,,,,5,19,119,19,1,0,1,0,,,,,0,12,12,5,,,,,,up,0.6004835152625674,2359.7173470231724,None,001,24,2019_Oct_14_1402,ACPT_experiment_5_30_19,3.1.0,59.94387084867008,
,,,C,G,g,v,R,U,y,R,u,,,,,5,19,119,19,1,0,1,0,,,,,0,13,13,31,,,,,,down,0.7671323723402566,2361.6188071680276,None,001,24,2019_Oct_14_1402,ACPT_experiment_5_30_19,3.1.0,59.94387084867008,
,,,C,G,g,v,L,U,g,L,u,,,,,5,19,119,19,1,0,1,0,,,,,0,14,14,22,,,,,,up,0.5670893274677837,2363.687064381968,None,001,24,2019_Oct_14_1402,ACPT_experiment_5_30_19,3.1.0,59.94387084867008,
,,,C,G,g,v,R,D,y,L,y,,,,,5,19,119,19,1,0,1,0,,,,,0,15,15,26,,,,,,down,0.6004575555220981,2365.538484108111,None,001,24,2019_Oct_14_1402,ACPT_experiment_5_30_19,3.1.0,59.94387084867008,
,,,C,G,g,v,R,G,d,L,i,,,,,5,19,119,19,1,0,1,0,,,,,0,16,16,4,,,,,,up,0.6505037095262196,2367.4232596861525,None,001,24,2019_Oct_14_1402,ACPT_experiment_5_30_19,3.1.0,59.94387084867008,
,,,C,G,g,v,L,D,g,L,i,,,,,5,19,119,19,1,0,1,0,,,,,0,17,17,14,,,,,,up,0.6171388019038204,2369.358081116341,None,001,24,2019_Oct_14_1402,ACPT_experiment_5_30_19,3.1.0,59.94387084867008,
,,,C,G,g,v,L,G,d,R,i,,,,,5,19,119,19,1,0,1,0,,,,,0,18,18,17,,,,,,up,0.513739343677571,2371.279540826522,None,001,24,2019_Oct_14_1402,ACPT_experiment_5_30_19,3.1.0,59.94387084867008,
,,,C,G,g,v,R,G,g,L,c ,,,,,5,19,119,19,1,0,1,0,,,,,0,19,19,6,,,,,,up,0.6338125018487517,2373.077602116866,None,001,24,2019_Oct_14_1402,ACPT_experiment_5_30_19,3.1.0,59.94387084867008,
,,,C,G,g,v,R,G,y,R,y,,,,,5,19,119,19,1,0,1,0,,,,,0,20,20,29,,,,,,down,0.4670450147941665,2374.9790408298422,None,001,24,2019_Oct_14_1402,ACPT_experiment_5_30_19,3.1.0,59.94387084867008,
,,,C,G,g,v,R,D,y,R,y,,,,,5,19,119,19,1,0,1,0,,,,,0,21,21,27,,,,,,down,0.5504201553840176,2376.730403263441,None,001,24,2019_Oct_14_1402,ACPT_experiment_5_30_19,3.1.0,59.94387084867008,
,,,C,G,g,v,L,D,d,R,c ,,,,,5,19,119,19,1,0,1,0,,,,,0,22,22,13,,,,,,up,0.4999565325269941,2378.582225969279,None,001,24,2019_Oct_14_1402,ACPT_experiment_5_30_19,3.1.0,59.94387084867008,
,,,C,G,g,v,R,U,g,L,u,,,,,5,19,119,19,1,0,1,0,,,,,0,23,23,10,,,,,,up,0.4837138850202791,2380.36652376735,None,001,24,2019_Oct_14_1402,ACPT_experiment_5_30_19,3.1.0,59.94387084867008,
,,,C,G,g,v,R,G,g,R,c ,,,,,5,19,119,19,1,0,1,0,,,,,0,24,24,7,,,,,,up,0.41697803262604793,2382.1345568823194,None,001,24,2019_Oct_14_1402,ACPT_experiment_5_30_19,3.1.0,59.94387084867008,
,,,C,G,g,v,R,U,y,L,u,,,,,5,19,119,19,1,0,1,0,,,,,0,25,25,30,,,,,,down,0.5169686146737149,2383.8358619931887,None,001,24,2019_Oct_14_1402,ACPT_experiment_5_30_19,3.1.0,59.94387084867008,
,,,C,G,g,v,L,U,y,L,u,,,,,5,19,119,19,1,0,1,0,,,,,0,26,26,24,,,,,,down,0.4167812215687263,2385.6707667964047,None,001,24,2019_Oct_14_1402,ACPT_experiment_5_30_19,3.1.0,59.94387084867008,
,,,C,G,g,v,R,D,g,L,i,,,,,5,19,119,19,1,0,1,0,,,,,0,27,27,2,,,,,,up,0.5337361922856871,2387.3885940747796,None,001,24,2019_Oct_14_1402,ACPT_experiment_5_30_19,3.1.0,59.94387084867008,
,,,C,G,g,v,L,G,y,R,y,,,,,5,19,119,19,1,0,1,0,,,,,0,28,28,35,,,,,,down,0.5504144200922383,2389.2233322526836,None,001,24,2019_Oct_14_1402,ACPT_experiment_5_30_19,3.1.0,59.94387084867008,
,,,C,G,g,v,L,U,g,R,u,,,,,5,19,119,19,1,0,1,0,,,,,0,29,29,23,,,,,,up,0.5671195132126741,2391.0747552992584,None,001,24,2019_Oct_14_1402,ACPT_experiment_5_30_19,3.1.0,59.94387084867008,
,,,C,G,g,v,R,D,g,R,i,,,,,5,19,119,19,1,0,1,0,,,,,0,30,30,3,,,,,,up,0.48342591301297944,2392.943127037915,None,001,24,2019_Oct_14_1402,ACPT_experiment_5_30_19,3.1.0,59.94387084867008,
,,,C,G,g,v,L,G,g,L,c ,,,,,5,19,119,19,1,0,1,0,,,,,0,31,31,18,,,,,,up,0.6004563480923935,2394.710877312454,None,001,24,2019_Oct_14_1402,ACPT_experiment_5_30_19,3.1.0,59.94387084867008,
,,,C,G,g,v,L,G,g,R,c ,,,,,5,19,119,19,1,0,1,0,,,,,0,32,32,19,,,,,,up,0.6338336318704023,2396.595651381209,None,001,24,2019_Oct_14_1402,ACPT_experiment_5_30_19,3.1.0,59.94387084867008,
,,,C,G,g,v,L,U,d,L,u,,,,,5,19,119,19,1,0,1,0,,,,,0,33,33,20,,,,,,up,0.6671994450653074,2398.5138060541735,None,001,24,2019_Oct_14_1402,ACPT_experiment_5_30_19,3.1.0,59.94387084867008,
,,,C,G,g,v,L,G,d,L,i,,,,,5,19,119,19,1,0,1,0,,,,,0,34,34,16,,,,,,up,0.6672072933588424,2400.4652921285838,None,001,24,2019_Oct_14_1402,ACPT_experiment_5_30_19,3.1.0,59.94387084867008,
,,,C,G,g,v,L,U,y,R,u,,,,,5,19,119,19,1,0,1,0,,,,,0,35,35,25,,,,,,down,0.6838568447083162,2402.416792390294,None,001,24,2019_Oct_14_1402,ACPT_experiment_5_30_19,3.1.0,59.94387084867008,
,,,C,G,g,v,L,G,y,R,y,,,,,5,19,119,19,1,0,1,0,,,,,1,0,36,35,,,,,,down,0.4503378086719749,2404.3849711816692,None,001,24,2019_Oct_14_1402,ACPT_experiment_5_30_19,3.1.0,59.94387084867008,
,,,C,G,g,v,R,D,y,R,y,,,,,5,19,119,19,1,0,1,0,,,,,1,1,37,27,,,,,,down,0.5001735680334605,2406.1531639792297,None,001,24,2019_Oct_14_1402,ACPT_experiment_5_30_19,3.1.0,59.94387084867008,
,,,C,G,g,v,L,U,g,R,u,,,,,5,19,119,19,1,0,1,0,,,,,1,2,38,23,,,,,,up,0.8006261730934057,2407.9543778687776,None,001,24,2019_Oct_14_1402,ACPT_experiment_5_30_19,3.1.0,59.94387084867008,
,,,C,G,g,v,L,U,y,L,u,,,,,5,19,119,19,1,0,1,0,,,,,1,3,39,24,,,,,,down,0.8173089287624862,2410.0392909730735,None,001,24,2019_Oct_14_1402,ACPT_experiment_5_30_19,3.1.0,59.94387084867008,
,,,C,G,g,v,R,G,d,R,i,,,,,5,19,119,19,1,0,1,0,,,,,1,4,40,5,,,,,,up,0.5837591032659475,2412.157615772897,None,001,24,2019_Oct_14_1402,ACPT_experiment_5_30_19,3.1.0,59.94387084867008,
,,,C,G,g,v,L,G,y,L,y,,,,,5,19,119,19,1,0,1,0,,,,,1,5,41,34,,,,,,down,0.5337313625664137,2414.02570738784,None,001,24,2019_Oct_14_1402,ACPT_experiment_5_30_19,3.1.0,59.94387084867008,
,,,C,G,g,v,R,D,g,L,i,,,,,5,19,119,19,1,0,1,0,,,,,1,6,42,2,,,,,,up,0.6672030673548761,2415.8437664323646,None,001,24,2019_Oct_14_1402,ACPT_experiment_5_30_19,3.1.0,59.94387084867008,
,,,C,G,g,v,L,U,d,R,u,,,,,5,19,119,19,1,0,1,0,,,,,1,7,43,21,,,,,,up,0.5504147219498918,2417.7952642792156,None,001,24,2019_Oct_14_1402,ACPT_experiment_5_30_19,3.1.0,59.94387084867008,
,,,C,G,g,v,L,G,g,R,c ,,,,,5,19,119,19,1,0,1,0,,,,,1,8,44,19,,,,,,up,0.7005806529900838,2419.6300051738367,None,001,24,2019_Oct_14_1402,ACPT_experiment_5_30_19,3.1.0,59.94387084867008,
,,,C,G,g,v,L,D,d,L,c ,,,,,5,19,119,19,1,0,1,0,,,,,1,9,45,12,,,,,,up,0.7172078668882023,2421.6148742673163,None,001,24,2019_Oct_14_1402,ACPT_experiment_5_30_19,3.1.0,59.94387084867008,
,,,C,G,g,v,R,U,y,L,u,,,,,5,19,119,19,1,0,1,0,,,,,1,10,46,30,,,,,,down,0.7172069613156964,2423.633081101248,None,001,24,2019_Oct_14_1402,ACPT_experiment_5_30_19,3.1.0,59.94387084867008,
,,,C,G,g,v,L,D,g,L,i,,,,,5,19,119,19,1,0,1,0,,,,,1,11,47,14,,,,,,up,0.6671774094716056,2425.6512948779014,None,001,24,2019_Oct_14_1402,ACPT_experiment_5_30_19,3.1.0,59.94387084867008,
,,,C,G,g,v,R,U,g,R,u,,,,,5,19,119,19,1,0,1,0,,,,,1,12,48,11,,,,,,up,0.7505785098023807,2427.6027921210375,None,001,24,2019_Oct_14_1402,ACPT_experiment_5_30_19,3.1.0,59.94387084867008,
,,,C,G,g,v,L,D,y,L,y,,,,,5,19,119,19,1,0,1,0,,,,,1,13,49,32,,,,,,down,0.5337392108599488,2429.6376874459297,None,001,24,2019_Oct_14_1402,ACPT_experiment_5_30_19,3.1.0,59.94387084867008,
,,,C,G,g,v,L,U,g,L,u,,,,,5,19,119,19,1,0,1,0,,,,,1,14,50,22,,,,,,up,0.9171211130569645,2431.4726713357977,None,001,24,2019_Oct_14_1402,ACPT_experiment_5_30_19,3.1.0,59.94387084867008,
,,,C,G,g,v,R,U,d,L,u,,,,,5,19,119,19,1,0,1,0,,,,,1,15,51,8,,,,,,up,0.6671801261886685,2433.6741171122385,None,001,24,2019_Oct_14_1402,ACPT_experiment_5_30_19,3.1.0,59.94387084867008,
,,,C,G,g,v,L,U,d,L,u,,,,,5,19,119,19,1,0,1,0,,,,,1,16,52,20,,,,,,up,0.6671620147412796,2435.62562431667,None,001,24,2019_Oct_14_1402,ACPT_experiment_5_30_19,3.1.0,59.94387084867008,
,,,C,G,g,v,R,U,d,R,u,,,,,5,19,119,19,1,0,1,0,,,,,1,17,53,9,,,,,,up,0.5337301551367091,2437.577119446804,None,001,24,2019_Oct_14_1402,ACPT_experiment_5_30_19,3.1.0,59.94387084867008,
,,,C,G,g,v,R,U,g,L,u,,,,,5,19,119,19,1,0,1,0,,,,,1,18,54,10,,,,,,up,0.5337398145748011,2439.3951784913284,None,001,24,2019_Oct_14_1402,ACPT_experiment_5_30_19,3.1.0,59.94387084867008,
,,,C,G,g,v,L,D,y,R,y,,,,,5,19,119,19,1,0,1,0,,,,,1,19,55,33,,,,,,down,0.41692460385729646,2441.229969494286,None,001,24,2019_Oct_14_1402,ACPT_experiment_5_30_19,3.1.0,59.94387084867008,
,,,C,G,g,v,L,D,g,R,i,,,,,5,19,119,19,1,0,1,0,,,,,1,20,56,15,,,,,,up,0.5671152872087077,2442.9479045357702,None,001,24,2019_Oct_14_1402,ACPT_experiment_5_30_19,3.1.0,59.94387084867008,
,,,C,G,g,v,L,G,d,L,i,,,,,5,19,119,19,1,0,1,0,,,,,1,21,57,16,,,,,,up,0.6168698469159608,2444.816277783714,None,001,24,2019_Oct_14_1402,ACPT_experiment_5_30_19,3.1.0,59.94387084867008,
,,,C,G,g,v,R,G,y,L,y,,,,,5,19,119,19,1,0,1,0,,,,,1,22,58,28,,,,,,down,0.5337377015730453,2446.734144786529,None,001,24,2019_Oct_14_1402,ACPT_experiment_5_30_19,3.1.0,59.94387084867008,
,,,C,G,g,v,R,G,g,L,c ,,,,,5,19,119,19,1,0,1,0,,,,,1,23,59,6,,,,,,up,0.5337373997153918,2448.5688914164416,None,001,24,2019_Oct_14_1402,ACPT_experiment_5_30_19,3.1.0,59.94387084867008,
,,,C,G,g,v,R,D,d,R,c ,,,,,5,19,119,19,1,0,1,0,,,,,1,24,60,1,,,,,,up,0.5337328718533172,2450.386967666841,None,001,24,2019_Oct_14_1402,ACPT_experiment_5_30_19,3.1.0,59.94387084867008,
,,,C,G,g,v,R,D,g,R,i,,,,,5,19,119,19,1,0,1,0,,,,,1,25,61,3,,,,,,up,0.9173701454528782,2452.205010109206,None,001,24,2019_Oct_14_1402,ACPT_experiment_5_30_19,3.1.0,59.94387084867008,
,,,C,G,g,v,R,U,y,R,u,,,,,5,19,119,19,1,0,1,0,,,,,1,26,62,31,,,,,,down,0.5670992887630746,2454.4067000883233,None,001,24,2019_Oct_14_1402,ACPT_experiment_5_30_19,3.1.0,59.94387084867008,
,,,C,G,g,v,L,D,d,R,c ,,,,,5,19,119,19,1,0,1,0,,,,,1,27,63,13,,,,,,up,0.6339078888031509,2456.2581201163234,None,001,24,2019_Oct_14_1402,ACPT_experiment_5_30_19,3.1.0,59.94387084867008,
,,,C,G,g,v,R,D,d,L,c,,,,,5,19,119,19,1,0,1,0,,,,,1,28,64,0,,,,,,up,1.1809152438613637,2458.1962649970324,None,001,24,2019_Oct_14_1402,ACPT_experiment_5_30_19,3.1.0,59.94387084867008,
,,,C,G,g,v,L,U,y,R,u,,,,,5,19,119,19,1,0,1,0,,,,,1,29,65,25,,,,,,down,0.4169810512003096,2460.6615061117077,None,001,24,2019_Oct_14_1402,ACPT_experiment_5_30_19,3.1.0,59.94387084867008,
,,,C,G,g,v,R,G,d,L,i,,,,,5,19,119,19,1,0,1,0,,,,,1,30,66,4,,,,,,up,0.6671819373332255,2462.3628069965725,None,001,24,2019_Oct_14_1402,ACPT_experiment_5_30_19,3.1.0,59.94387084867008,
,,,C,G,g,v,R,G,y,R,y,,,,,5,19,119,19,1,0,1,0,,,,,1,31,67,29,,,,,,down,0.43349808712900995,2464.297791731641,None,001,24,2019_Oct_14_1402,ACPT_experiment_5_30_19,3.1.0,59.94387084867008,
,,,C,G,g,v,R,G,g,R,c ,,,,,5,19,119,19,1,0,1,0,,,,,1,32,68,7,,,,,,up,0.6171650635019432,2465.9989063704597,None,001,24,2019_Oct_14_1402,ACPT_experiment_5_30_19,3.1.0,59.94387084867008,
,,,C,G,g,v,L,G,g,L,c ,,,,,5,19,119,19,1,0,1,0,,,,,1,33,69,18,,,,,,up,0.5670977794761711,2467.9003915694834,None,001,24,2019_Oct_14_1402,ACPT_experiment_5_30_19,3.1.0,59.94387084867008,
,,,C,G,g,v,R,D,y,L,y,,,,,5,19,119,19,1,0,1,0,,,,,1,34,70,26,,,,,,down,0.6171381981885133,2469.751811899341,None,001,24,2019_Oct_14_1402,ACPT_experiment_5_30_19,3.1.0,59.94387084867008,
,,,C,G,g,v,L,G,d,R,i,,,,,5,19,119,19,1,0,1,0,,,,,1,35,71,17,,,,,,up,0.5668448229334899,2471.6702086619803,None,001,24,2019_Oct_14_1402,ACPT_experiment_5_30_19,3.1.0,59.94387084867008,
,,,C,G,g,v,,,,,,,,,,5,19,119,19,2,0,2,0,0,0,0,0,,,,,,,,,,,,,,001,24,2019_Oct_14_1402,ACPT_experiment_5_30_19,3.1.0,59.94387084867008,
,,,C,G,g,v,R,U,y,R,u,,,,,5,19,119,19,2,0,2,0,,,,,0,0,0,31,,,,,,down,0.5835073541534257,2488.649928972942,None,001,24,2019_Oct_14_1402,ACPT_experiment_5_30_19,3.1.0,59.94387084867008,
,,,C,G,g,v,R,U,g,L,u,,,,,5,19,119,19,2,0,2,0,,,,,0,1,1,10,,,,,,up,0.5671258522193057,2490.517735030738,None,001,24,2019_Oct_14_1402,ACPT_experiment_5_30_19,3.1.0,59.94387084867008,
,,,C,G,g,v,L,G,g,L,c ,,,,,5,19,119,19,2,0,2,0,,,,,0,2,2,18,,,,,,up,0.5337389090022953,2492.3691725664703,None,001,24,2019_Oct_14_1402,ACPT_experiment_5_30_19,3.1.0,59.94387084867008,
,,,C,G,g,v,R,G,y,R,y,,,,,5,19,119,19,2,0,2,0,,,,,0,3,3,29,,,,,,down,0.4670178476235378,2494.187239761146,None,001,24,2019_Oct_14_1402,ACPT_experiment_5_30_19,3.1.0,59.94387084867008,
,,,C,G,g,v,L,G,d,R,i,,,,,5,19,119,19,2,0,2,0,,,,,0,4,4,17,,,,,,up,0.6836331683380195,2495.9555110416436,None,001,24,2019_Oct_14_1402,ACPT_experiment_5_30_19,3.1.0,59.94387084867008,
,,,C,G,g,v,L,D,d,L,c ,,,,,5,19,119,19,2,0,2,0,,,,,0,5,5,12,,,,,,up,0.6338125018487517,2497.90676317653,None,001,24,2019_Oct_14_1402,ACPT_experiment_5_30_19,3.1.0,59.94387084867008,
,,,C,G,g,v,L,U,d,L,u,,,,,5,19,119,19,2,0,2,0,,,,,0,6,6,20,,,,,,up,0.4837075460136475,2499.8248955120434,None,001,24,2019_Oct_14_1402,ACPT_experiment_5_30_19,3.1.0,59.94387084867008,
,,,C,G,g,v,L,G,y,R,y,,,,,5,19,119,19,2,0,2,0,,,,,0,7,7,35,,,,,,down,0.5504364556863948,2501.59290417656,None,001,24,2019_Oct_14_1402,ACPT_experiment_5_30_19,3.1.0,59.94387084867008,
,,,C,G,g,v,L,U,g,L,u,,,,,5,19,119,19,2,0,2,0,,,,,0,8,8,22,,,,,,up,0.5671330967975337,2503.4276649937724,None,001,24,2019_Oct_14_1402,ACPT_experiment_5_30_19,3.1.0,59.94387084867008,
,,,C,G,g,v,L,D,y,R,y,,,,,5,19,119,19,2,0,2,0,,,,,0,9,9,33,,,,,,down,0.51708181121694,2505.27908532363,None,001,24,2019_Oct_14_1402,ACPT_experiment_5_30_19,3.1.0,59.94387084867008,
,,,C,G,g,v,R,D,y,R,y,,,,,5,19,119,19,2,0,2,0,,,,,0,10,10,27,,,,,,down,0.4837253556029282,2507.063768593664,None,001,24,2019_Oct_14_1402,ACPT_experiment_5_30_19,3.1.0,59.94387084867008,
,,,C,G,g,v,R,D,d,L,c,,,,,5,19,119,19,2,0,2,0,,,,,0,11,11,0,,,,,,up,0.6335864106190456,2508.8487371189876,None,001,24,2019_Oct_14_1402,ACPT_experiment_5_30_19,3.1.0,59.94387084867008,
,,,C,G,g,v,R,G,y,L,y,,,,,5,19,119,19,2,0,2,0,,,,,0,12,12,28,,,,,,down,0.6171484613419125,2510.7666300815436,None,001,24,2019_Oct_14_1402,ACPT_experiment_5_30_19,3.1.0,59.94387084867008,
,,,C,G,g,v,L,G,g,R,c ,,,,,5,19,119,19,2,0,2,0,,,,,0,13,13,19,,,,,,up,0.6671822391904243,2512.6680932449735,None,001,24,2019_Oct_14_1402,ACPT_experiment_5_30_19,3.1.0,59.94387084867008,
,,,C,G,g,v,R,G,g,R,c ,,,,,5,19,119,19,2,0,2,0,,,,,0,14,14,7,,,,,,up,0.833971761839166,2514.6195856583904,None,001,24,2019_Oct_14_1402,ACPT_experiment_5_30_19,3.1.0,59.94387084867008,
,,,C,G,g,v,R,U,g,R,u,,,,,5,19,119,19,2,0,2,0,,,,,0,15,15,11,,,,,,up,0.6168728654906772,2516.754832284982,None,001,24,2019_Oct_14_1402,ACPT_experiment_5_30_19,3.1.0,59.94387084867008,
,,,C,G,g,v,L,D,g,L,i,,,,,5,19,119,19,2,0,2,0,,,,,0,16,16,14,,,,,,up,0.7172380526330926,2518.639317778015,None,001,24,2019_Oct_14_1402,ACPT_experiment_5_30_19,3.1.0,59.94387084867008,
,,,C,G,g,v,R,G,d,R,i,,,,,5,19,119,19,2,0,2,0,,,,,0,17,17,5,,,,,,up,0.88403300871596,2520.640854232434,None,001,24,2019_Oct_14_1402,ACPT_experiment_5_30_19,3.1.0,59.94387084867008,
,,,C,G,g,v,L,G,y,L,y,,,,,5,19,119,19,2,0,2,0,,,,,0,18,18,34,,,,,,down,0.6671846540502884,2522.8092052636694,None,001,24,2019_Oct_14_1402,ACPT_experiment_5_30_19,3.1.0,59.94387084867008,
,,,C,G,g,v,R,U,y,L,u,,,,,5,19,119,19,2,0,2,0,,,,,0,19,19,30,,,,,,down,0.5337419275770117,2524.7607064309523,None,001,24,2019_Oct_14_1402,ACPT_experiment_5_30_19,3.1.0,59.94387084867008,
,,,C,G,g,v,L,U,d,R,u,,,,,5,19,119,19,2,0,2,0,,,,,0,20,20,21,,,,,,up,0.5004011685505247,2526.5787464584573,None,001,24,2019_Oct_14_1402,ACPT_experiment_5_30_19,3.1.0,59.94387084867008,
,,,C,G,g,v,L,G,d,L,i,,,,,5,19,119,19,2,0,2,0,,,,,0,21,21,16,,,,,,up,0.6004648001007808,2528.363471384819,None,001,24,2019_Oct_14_1402,ACPT_experiment_5_30_19,3.1.0,59.94387084867008,
,,,C,G,g,v,R,D,g,L,i,,,,,5,19,119,19,2,0,2,0,,,,,0,22,22,2,,,,,,up,0.4670552779471109,2530.2482548111548,None,001,24,2019_Oct_14_1402,ACPT_experiment_5_30_19,3.1.0,59.94387084867008,
,,,C,G,g,v,L,D,y,L,y,,,,,5,19,119,19,2,0,2,0,,,,,0,23,23,32,,,,,,down,0.5337561148771783,2531.9995955110176,None,001,24,2019_Oct_14_1402,ACPT_experiment_5_30_19,3.1.0,59.94387084867008,
,,,C,G,g,v,R,U,d,L,u,,,,,5,19,119,19,2,0,2,0,,,,,0,24,24,8,,,,,,up,0.6338161241383204,2533.817657875974,None,001,24,2019_Oct_14_1402,ACPT_experiment_5_30_19,3.1.0,59.94387084867008,
,,,C,G,g,v,R,G,g,L,c ,,,,,5,19,119,19,2,0,2,0,,,,,0,25,25,6,,,,,,up,0.6001813559560105,2535.75275067601,None,001,24,2019_Oct_14_1402,ACPT_experiment_5_30_19,3.1.0,59.94387084867008,
,,,C,G,g,v,L,D,d,R,c ,,,,,5,19,119,19,2,0,2,0,,,,,0,26,26,13,,,,,,down,0.5170827167899006,2537.6372585064937,None,001,24,2019_Oct_14_1402,ACPT_experiment_5_30_19,3.1.0,59.94387084867008,
,,,C,G,g,v,L,U,y,R,u,,,,,5,19,119,19,2,0,2,0,,,,,0,27,27,25,,,,,,down,0.6671789187589638,2539.438640530641,None,001,24,2019_Oct_14_1402,ACPT_experiment_5_30_19,3.1.0,59.94387084867008,
,,,C,G,g,v,R,G,d,L,i,,,,,5,19,119,19,2,0,2,0,,,,,0,28,28,4,,,,,,up,0.5671288707935673,2541.3901341514875,None,001,24,2019_Oct_14_1402,ACPT_experiment_5_30_19,3.1.0,59.94387084867008,
,,,C,G,g,v,L,U,g,R,u,,,,,5,19,119,19,2,0,2,0,,,,,0,29,29,23,,,,,,up,0.5838140413220572,2543.2415623296392,None,001,24,2019_Oct_14_1402,ACPT_experiment_5_30_19,3.1.0,59.94387084867008,
,,,C,G,g,v,R,D,g,R,i,,,,,5,19,119,19,2,0,2,0,,,,,0,30,30,3,,,,,,up,0.6004817041180104,2545.109640360997,None,001,24,2019_Oct_14_1402,ACPT_experiment_5_30_19,3.1.0,59.94387084867008,
,,,C,G,g,v,L,U,y,L,u,,,,,5,19,119,19,2,0,2,0,,,,,0,31,31,24,,,,,,down,0.7839247022625386,2547.0111246544484,None,001,24,2019_Oct_14_1402,ACPT_experiment_5_30_19,3.1.0,59.94387084867008,
,,,C,G,g,v,R,U,d,R,u,,,,,5,19,119,19,2,0,2,0,,,,,0,32,32,9,,,,,,up,0.7005272242213323,2549.112743455579,None,001,24,2019_Oct_14_1402,ACPT_experiment_5_30_19,3.1.0,59.94387084867008,
,,,C,G,g,v,R,D,y,L,y,,,,,5,19,119,19,2,0,2,0,,,,,0,33,33,26,,,,,,down,0.6004850245499256,2551.0975630444373,None,001,24,2019_Oct_14_1402,ACPT_experiment_5_30_19,3.1.0,59.94387084867008,
,,,C,G,g,v,L,D,g,R,i,,,,,5,19,119,19,2,0,2,0,,,,,0,34,34,15,,,,,,up,0.5504222683862281,2552.982367902652,None,001,24,2019_Oct_14_1402,ACPT_experiment_5_30_19,3.1.0,59.94387084867008,
,,,C,G,g,v,R,D,d,R,c ,,,,,5,19,119,19,2,0,2,0,,,,,0,35,35,1,,,,,,up,0.5671234373594416,2554.817092496971,None,001,24,2019_Oct_14_1402,ACPT_experiment_5_30_19,3.1.0,59.94387084867008,
,,,C,G,g,v,L,U,g,L,u,,,,,5,19,119,19,2,0,2,0,,,,,1,0,36,22,,,,,,up,0.6501272932864595,2556.685562641156,None,001,24,2019_Oct_14_1402,ACPT_experiment_5_30_19,3.1.0,59.94387084867008,
,,,C,G,g,v,R,U,g,R,u,,,,,5,19,119,19,2,0,2,0,,,,,1,1,37,11,,,,,,up,0.633820048285088,2558.620036029705,None,001,24,2019_Oct_14_1402,ACPT_experiment_5_30_19,3.1.0,59.94387084867008,
,,,C,G,g,v,R,D,d,R,c ,,,,,5,19,119,19,2,0,2,0,,,,,1,2,38,1,,,,,,up,0.7172452972117753,2560.5381686670758,None,001,24,2019_Oct_14_1402,ACPT_experiment_5_30_19,3.1.0,59.94387084867008,
,,,C,G,g,v,L,G,d,L,i,,,,,5,19,119,19,2,0,2,0,,,,,1,3,39,16,,,,,,up,0.7172386563483997,2562.539704819637,None,001,24,2019_Oct_14_1402,ACPT_experiment_5_30_19,3.1.0,59.94387084867008,
,,,C,G,g,v,R,G,y,L,y,,,,,5,19,119,19,2,0,2,0,,,,,1,4,40,28,,,,,,down,0.7005317520829522,2564.5412424814854,None,001,24,2019_Oct_14_1402,ACPT_experiment_5_30_19,3.1.0,59.94387084867008,
,,,C,G,g,v,L,D,g,R,i,,,,,5,19,119,19,2,0,2,0,,,,,1,5,41,15,,,,,,up,0.5337316644240673,2566.5261070471033,None,001,24,2019_Oct_14_1402,ACPT_experiment_5_30_19,3.1.0,59.94387084867008,
,,,C,G,g,v,R,U,d,L,u,,,,,5,19,119,19,2,0,2,0,,,,,1,6,42,8,,,,,,down,0.6171436316230938,2568.3441651860558,None,001,24,2019_Oct_14_1402,ACPT_experiment_5_30_19,3.1.0,59.94387084867008,
,,,C,G,g,v,R,U,y,R,u,,,,,5,19,119,19,2,0,2,0,,,,,1,7,43,31,,,,,,down,0.6338115962767006,2570.2289428770996,None,001,24,2019_Oct_14_1402,ACPT_experiment_5_30_19,3.1.0,59.94387084867008,
,,,C,G,g,v,L,G,y,R,y,,,,,5,19,119,19,2,0,2,0,,,,,1,8,44,35,,,,,,down,0.850647272929109,2572.1470812497623,None,001,24,2019_Oct_14_1402,ACPT_experiment_5_30_19,3.1.0,59.94387084867008,
,,,C,G,g,v,R,G,d,R,i,,,,,5,19,119,19,2,0,2,0,,,,,1,9,45,5,,,,,,up,0.4670389776447337,2574.282034169056,None,001,24,2019_Oct_14_1402,ACPT_experiment_5_30_19,3.1.0,59.94387084867008,
,,,C,G,g,v,R,U,g,L,u,,,,,5,19,119,19,2,0,2,0,,,,,1,10,46,10,,,,,,up,0.49705719172334284,2576.053400997699,None,001,24,2019_Oct_14_1402,ACPT_experiment_5_30_19,3.1.0,59.94387084867008,
,,,C,G,g,v,L,U,d,L,u,,,,,5,19,119,19,2,0,2,0,,,,,1,11,47,20,,,,,,up,0.5003833589607893,2577.834777117515,None,001,24,2019_Oct_14_1402,ACPT_experiment_5_30_19,3.1.0,59.94387084867008,
,,,C,G,g,v,R,G,g,R,c ,,,,,5,19,119,19,2,0,2,0,,,,,1,12,48,7,,,,,,up,0.6338396690193804,2579.61948151757,None,001,24,2019_Oct_14_1402,ACPT_experiment_5_30_19,3.1.0,59.94387084867008,
,,,C,G,g,v,L,U,g,R,u,,,,,5,19,119,19,2,0,2,0,,,,,1,13,49,23,,,,,,up,0.5671035147679504,2581.5376207958047,None,001,24,2019_Oct_14_1402,ACPT_experiment_5_30_19,3.1.0,59.94387084867008,
,,,C,G,g,v,L,G,g,R,c ,,,,,5,19,119,19,2,0,2,0,,,,,1,14,50,19,,,,,,up,0.4000323591185406,2583.3893143066543,None,001,24,2019_Oct_14_1402,ACPT_experiment_5_30_19,3.1.0,59.94387084867008,
,,,C,G,g,v,L,G,d,R,i,,,,,5,19,119,19,2,0,2,0,,,,,1,15,51,17,,,,,,up,0.48378421780626013,2585.0736725365864,None,001,24,2019_Oct_14_1402,ACPT_experiment_5_30_19,3.1.0,59.94387084867008,
,,,C,G,g,v,L,G,g,L,c ,,,,,5,19,119,19,2,0,2,0,,,,,1,16,52,18,,,,,,up,0.550414420092693,2586.84169569026,None,001,24,2019_Oct_14_1402,ACPT_experiment_5_30_19,3.1.0,59.94387084867008,
,,,C,G,g,v,L,D,d,L,c ,,,,,5,19,119,19,2,0,2,0,,,,,1,17,53,12,,,,,,up,0.46703173306605095,2588.676431151447,None,001,24,2019_Oct_14_1402,ACPT_experiment_5_30_19,3.1.0,59.94387084867008,
,,,C,G,g,v,L,G,y,L,y,,,,,5,19,119,19,2,0,2,0,,,,,1,18,54,34,,,,,,down,0.4834259130134342,2590.4447326176896,None,001,24,2019_Oct_14_1402,ACPT_experiment_5_30_19,3.1.0,59.94387084867008,
,,,C,G,g,v,L,D,y,L,y,,,,,5,19,119,19,2,0,2,0,,,,,1,19,55,32,,,,,,down,0.43369580375883743,2592.195782628828,None,001,24,2019_Oct_14_1402,ACPT_experiment_5_30_19,3.1.0,59.94387084867008,
,,,C,G,g,v,R,U,y,L,u,,,,,5,19,119,19,2,0,2,0,,,,,1,20,56,30,,,,,,down,0.4670154327641285,2593.91379132353,None,001,24,2019_Oct_14_1402,ACPT_experiment_5_30_19,3.1.0,59.94387084867008,
,,,C,G,g,v,L,D,g,L,i,,,,,5,19,119,19,2,0,2,0,,,,,1,21,57,14,,,,,,up,0.5504433984078787,2595.6651090822265,None,001,24,2019_Oct_14_1402,ACPT_experiment_5_30_19,3.1.0,59.94387084867008,
,,,C,G,g,v,L,U,y,R,u,,,,,5,19,119,19,2,0,2,0,,,,,1,22,58,25,,,,,,down,0.7670677748456001,2597.533399621229,None,001,24,2019_Oct_14_1402,ACPT_experiment_5_30_19,3.1.0,59.94387084867008,
,,,C,G,g,v,R,G,y,R,y,,,,,5,19,119,19,2,0,2,0,,,,,1,23,59,29,,,,,,down,0.6671701648929229,2599.60148870057,None,001,24,2019_Oct_14_1402,ACPT_experiment_5_30_19,3.1.0,59.94387084867008,
,,,C,G,g,v,R,D,d,L,c,,,,,5,19,119,19,2,0,2,0,,,,,1,24,60,0,,,,,,up,0.5003758125249078,2601.553014318306,None,001,24,2019_Oct_14_1402,ACPT_experiment_5_30_19,3.1.0,59.94387084867008,
,,,C,G,g,v,R,D,g,L,i,,,,,5,19,119,19,2,0,2,0,,,,,1,25,61,2,,,,,,up,0.4837217333138142,2603.337691551191,None,001,24,2019_Oct_14_1402,ACPT_experiment_5_30_19,3.1.0,59.94387084867008,
,,,C,G,g,v,R,D,g,R,i,,,,,5,19,119,19,2,0,2,0,,,,,1,26,62,3,,,,,,up,0.6972049811311081,2605.1257227221986,None,001,24,2019_Oct_14_1402,ACPT_experiment_5_30_19,3.1.0,59.94387084867008,
,,,C,G,g,v,R,U,d,R,u,,,,,5,19,119,19,2,0,2,0,,,,,1,27,63,9,,,,,,up,0.533758831594696,2607.107247536994,None,001,24,2019_Oct_14_1402,ACPT_experiment_5_30_19,3.1.0,59.94387084867008,
,,,C,G,g,v,L,U,d,R,u,,,,,5,19,119,19,2,0,2,0,,,,,1,28,64,21,,,,,,up,0.6338432913084944,2608.925286658927,None,001,24,2019_Oct_14_1402,ACPT_experiment_5_30_19,3.1.0,59.94387084867008,
,,,C,G,g,v,R,G,d,L,i,,,,,5,19,119,19,2,0,2,0,,,,,1,29,65,4,,,,,,up,0.6338209538575938,2610.8434494820426,None,001,24,2019_Oct_14_1402,ACPT_experiment_5_30_19,3.1.0,59.94387084867008,
,,,C,G,g,v,L,U,y,L,u,,,,,5,19,119,19,2,0,2,0,,,,,1,30,66,24,,,,,,down,0.6669993135760706,2612.7784293873924,None,001,24,2019_Oct_14_1402,ACPT_experiment_5_30_19,3.1.0,59.94387084867008,
,,,C,G,g,v,R,D,y,L,y,,,,,5,19,119,19,2,0,2,0,,,,,1,31,67,26,,,,,,down,1.134205218390889,2614.746445477602,None,001,24,2019_Oct_14_1402,ACPT_experiment_5_30_19,3.1.0,59.94387084867008,
,,,C,G,g,v,L,D,d,R,c ,,,,,5,19,119,19,2,0,2,0,,,,,1,32,68,13,,,,,,up,0.6004726483943159,2617.1649714352293,None,001,24,2019_Oct_14_1402,ACPT_experiment_5_30_19,3.1.0,59.94387084867008,
,,,C,G,g,v,L,D,y,R,y,,,,,5,19,119,19,2,0,2,0,,,,,1,33,69,33,,,,,,down,0.9173936903339381,2619.0330775393304,None,001,24,2019_Oct_14_1402,ACPT_experiment_5_30_19,3.1.0,59.94387084867008,
,,,C,G,g,v,R,G,g,L,c ,,,,,5,19,119,19,2,0,2,0,,,,,1,34,70,6,,,,,,up,0.6838616744271349,2621.234760273869,None,001,24,2019_Oct_14_1402,ACPT_experiment_5_30_19,3.1.0,59.94387084867008,
,,,C,G,g,v,R,D,y,R,y,,,,,5,19,119,19,2,0,2,0,,,,,1,35,71,27,,,,,,down,1.334167365466783,2623.219775164497,None,001,24,2019_Oct_14_1402,ACPT_experiment_5_30_19,3.1.0,59.94387084867008,
,,,C,G,g,v,,,,,,,,,,5,19,119,19,3,0,3,0,0,0,0,0,,,,,,,,,,,,,,001,24,2019_Oct_14_1402,ACPT_experiment_5_30_19,3.1.0,59.94387084867008,
,,,C,G,g,v,R,D,g,L,i,,,,,5,19,119,19,3,0,3,0,,,,,0,0,0,2,,,,,,up,0.5501693118435469,2642.618092671444,None,001,24,2019_Oct_14_1402,ACPT_experiment_5_30_19,3.1.0,59.94387084867008,
,,,C,G,g,v,R,G,y,L,y,,,,,5,19,119,19,3,0,3,0,,,,,0,1,1,28,,,,,,down,0.5003746050947484,2644.452585137384,None,001,24,2019_Oct_14_1402,ACPT_experiment_5_30_19,3.1.0,59.94387084867008,
,,,C,G,g,v,L,G,d,R,i,,,,,5,19,119,19,3,0,3,0,,,,,0,2,2,17,,,,,,up,0.5671032129102969,2646.2372835002907,None,001,24,2019_Oct_14_1402,ACPT_experiment_5_30_19,3.1.0,59.94387084867008,
,,,C,G,g,v,L,U,g,R,u,,,,,5,19,119,19,3,0,3,0,,,,,0,3,3,23,,,,,,up,0.4336864461774894,2648.0886836056993,None,001,24,2019_Oct_14_1402,ACPT_experiment_5_30_19,3.1.0,59.94387084867008,
,,,C,G,g,v,L,D,y,R,y,,,,,5,19,119,19,3,0,3,0,,,,,0,4,4,33,,,,,,down,0.6167017123166261,2649.823776828335,None,001,24,2019_Oct_14_1402,ACPT_experiment_5_30_19,3.1.0,59.94387084867008,
,,,C,G,g,v,L,G,d,L,i,,,,,5,19,119,19,3,0,3,0,,,,,0,5,5,16,,,,,,up,0.5170606811957441,2651.724832182351,None,001,24,2019_Oct_14_1402,ACPT_experiment_5_30_19,3.1.0,59.94387084867008,
,,,C,G,g,v,R,U,d,R,u,,,,,5,19,119,19,3,0,3,0,,,,,0,6,6,9,,,,,,up,0.6671728816099858,2653.526214810213,None,001,24,2019_Oct_14_1402,ACPT_experiment_5_30_19,3.1.0,59.94387084867008,
,,,C,G,g,v,L,G,g,R,c ,,,,,5,19,119,19,3,0,3,0,,,,,0,7,7,19,,,,,,down,0.8006125895085461,2655.4777081292023,None,001,24,2019_Oct_14_1402,ACPT_experiment_5_30_19,3.1.0,59.94387084867008,
,,,C,G,g,v,L,U,g,L,u,,,,,5,19,119,19,3,0,3,0,,,,,0,8,8,22,,,,,,up,0.43365686414790616,2657.562645382094,None,001,24,2019_Oct_14_1402,ACPT_experiment_5_30_19,3.1.0,59.94387084867008,
,,,C,G,g,v,R,D,y,R,y,,,,,5,19,119,19,3,0,3,0,,,,,0,9,9,27,,,,,,down,0.6671925023438234,2659.2973126838688,None,001,24,2019_Oct_14_1402,ACPT_experiment_5_30_19,3.1.0,59.94387084867008,
,,,C,G,g,v,R,U,y,L,u,,,,,5,19,119,19,3,0,3,0,,,,,0,10,10,30,,,,,,down,0.7672500967455562,2661.2654926826735,None,001,24,2019_Oct_14_1402,ACPT_experiment_5_30_19,3.1.0,59.94387084867008,
,,,C,G,g,v,L,G,y,R,y,,,,,5,19,119,19,3,0,3,0,,,,,0,11,11,35,,,,,,down,0.7505969231065137,2663.317067140945,None,001,24,2019_Oct_14_1402,ACPT_experiment_5_30_19,3.1.0,59.94387084867008,
,,,C,G,g,v,R,D,y,L,y,,,,,5,19,119,19,3,0,3,0,,,,,0,12,12,26,,,,,,down,0.500384566390494,2665.351958843548,None,001,24,2019_Oct_14_1402,ACPT_experiment_5_30_19,3.1.0,59.94387084867008,
,,,C,G,g,v,L,U,y,L,u,,,,,5,19,119,19,3,0,3,0,,,,,0,13,13,24,,,,,,down,0.7839633400167259,2667.136659017599,None,001,24,2019_Oct_14_1402,ACPT_experiment_5_30_19,3.1.0,59.94387084867008,
,,,C,G,g,v,R,D,g,R,i,,,,,5,19,119,19,3,0,3,0,,,,,0,14,14,3,,,,,,up,0.6671795224738162,2669.2049165333965,None,001,24,2019_Oct_14_1402,ACPT_experiment_5_30_19,3.1.0,59.94387084867008,
,,,C,G,g,v,R,U,g,R,u,,,,,5,19,119,19,3,0,3,0,,,,,0,15,15,11,,,,,,up,0.500400866693326,2671.1564180025366,None,001,24,2019_Oct_14_1402,ACPT_experiment_5_30_19,3.1.0,59.94387084867008,
,,,C,G,g,v,L,D,y,L,y,,,,,5,19,119,19,3,0,3,0,,,,,0,16,16,32,,,,,,down,0.5671213243572311,2672.941097650281,None,001,24,2019_Oct_14_1402,ACPT_experiment_5_30_19,3.1.0,59.94387084867008,
,,,C,G,g,v,R,G,y,R,y,,,,,5,19,119,19,3,0,3,0,,,,,0,17,17,29,,,,,,down,0.6502438102620545,2674.809482368808,None,001,24,2019_Oct_14_1402,ACPT_experiment_5_30_19,3.1.0,59.94387084867008,
,,,C,G,g,v,R,U,d,L,u,,,,,5,19,119,19,3,0,3,0,,,,,0,18,18,8,,,,,,up,0.6170615263968102,2676.7440134121302,None,001,24,2019_Oct_14_1402,ACPT_experiment_5_30_19,3.1.0,59.94387084867008,
,,,C,G,g,v,R,U,y,R,u,,,,,5,19,119,19,3,0,3,0,,,,,0,19,19,31,,,,,,down,0.6671701648924682,2678.662177442676,None,001,24,2019_Oct_14_1402,ACPT_experiment_5_30_19,3.1.0,59.94387084867008,
,,,C,G,g,v,R,G,d,L,i,,,,,5,19,119,19,3,0,3,0,,,,,0,20,20,4,,,,,,up,0.5837744979958188,2680.630356535908,None,001,24,2019_Oct_14_1402,ACPT_experiment_5_30_19,3.1.0,59.94387084867008,
,,,C,G,g,v,L,D,d,R,c ,,,,,5,19,119,19,3,0,3,0,,,,,0,21,21,13,,,,,,up,0.6304821086068841,2682.518468846198,None,001,24,2019_Oct_14_1402,ACPT_experiment_5_30_19,3.1.0,59.94387084867008,
,,,C,G,g,v,L,U,y,R,u,,,,,5,19,119,19,3,0,3,0,,,,,0,22,22,25,,,,,,down,0.5504593968526024,2684.4332710903273,None,001,24,2019_Oct_14_1402,ACPT_experiment_5_30_19,3.1.0,59.94387084867008,
,,,C,G,g,v,R,G,g,L,c ,,,,,5,19,119,19,3,0,3,0,,,,,0,23,23,6,,,,,,up,0.700425498261211,2686.2680143998077,None,001,24,2019_Oct_14_1402,ACPT_experiment_5_30_19,3.1.0,59.94387084867008,
,,,C,G,g,v,R,D,d,L,c,,,,,5,19,119,19,3,0,3,0,,,,,0,24,24,0,,,,,,up,0.5671231355022428,2688.2528472703934,None,001,24,2019_Oct_14_1402,ACPT_experiment_5_30_19,3.1.0,59.94387084867008,
,,,C,G,g,v,R,U,g,L,u,,,,,5,19,119,19,3,0,3,0,,,,,0,25,25,10,,,,,,up,0.5837790258574387,2690.104290843275,None,001,24,2019_Oct_14_1402,ACPT_experiment_5_30_19,3.1.0,59.94387084867008,
,,,C,G,g,v,L,G,y,L,y,,,,,5,19,119,19,3,0,3,0,,,,,0,26,26,34,,,,,,down,0.8673662514920579,2691.9723734024947,None,001,24,2019_Oct_14_1402,ACPT_experiment_5_30_19,3.1.0,59.94387084867008,
,,,C,G,g,v,L,D,g,L,i,,,,,5,19,119,19,3,0,3,0,,,,,0,27,27,14,,,,,,up,0.8006678294213998,2694.1240175294656,None,001,24,2019_Oct_14_1402,ACPT_experiment_5_30_19,3.1.0,59.94387084867008,
,,,C,G,g,v,R,D,d,R,c ,,,,,5,19,119,19,3,0,3,0,,,,,0,28,28,1,,,,,,up,0.5838252100475074,2696.20895327307,None,001,24,2019_Oct_14_1402,ACPT_experiment_5_30_19,3.1.0,59.94387084867008,
,,,C,G,g,v,L,U,d,L,u,,,,,5,19,119,19,3,0,3,0,,,,,0,29,29,20,,,,,,up,0.517056455191323,2698.077072055184,None,001,24,2019_Oct_14_1402,ACPT_experiment_5_30_19,3.1.0,59.94387084867008,
,,,C,G,g,v,L,G,g,L,c ,,,,,5,19,119,19,3,0,3,0,,,,,0,30,30,18,,,,,,up,0.48370452743938586,2699.878456494191,None,001,24,2019_Oct_14_1402,ACPT_experiment_5_30_19,3.1.0,59.94387084867008,
,,,C,G,g,v,L,D,g,R,i,,,,,5,19,119,19,3,0,3,0,,,,,0,31,31,15,,,,,,up,0.7834625585073809,2701.6636061339846,None,001,24,2019_Oct_14_1402,ACPT_experiment_5_30_19,3.1.0,59.94387084867008,
,,,C,G,g,v,L,D,d,L,c ,,,,,5,19,119,19,3,0,3,0,,,,,0,32,32,12,,,,,,up,0.5004066019846505,2703.7147169392138,None,001,24,2019_Oct_14_1402,ACPT_experiment_5_30_19,3.1.0,59.94387084867008,
,,,C,G,g,v,R,G,d,R,i,,,,,5,19,119,19,3,0,3,0,,,,,0,33,33,5,,,,,,up,0.5170857353641622,2705.4827403947447,None,001,24,2019_Oct_14_1402,ACPT_experiment_5_30_19,3.1.0,59.94387084867008,
,,,C,G,g,v,L,U,d,R,u,,,,,5,19,119,19,3,0,3,0,,,,,0,34,34,21,,,,,,up,0.5337464554390863,2707.2841441526284,None,001,24,2019_Oct_14_1402,ACPT_experiment_5_30_19,3.1.0,59.94387084867008,
,,,C,G,g,v,R,G,g,R,c ,,,,,5,19,119,19,3,0,3,0,,,,,0,35,35,7,,,,,,up,0.5837754035683247,2709.10220832873,None,001,24,2019_Oct_14_1402,ACPT_experiment_5_30_19,3.1.0,59.94387084867008,
,,,C,G,g,v,R,U,g,R,u,,,,,5,19,119,19,3,0,3,0,,,,,1,0,36,11,,,,,,up,0.4837012070070159,2710.970311112399,None,001,24,2019_Oct_14_1402,ACPT_experiment_5_30_19,3.1.0,59.94387084867008,
,,,C,G,g,v,R,G,g,R,c ,,,,,5,19,119,19,3,0,3,0,,,,,1,1,37,7,,,,,,up,0.4169792400557526,2712.721661773557,None,001,24,2019_Oct_14_1402,ACPT_experiment_5_30_19,3.1.0,59.94387084867008,
,,,C,G,g,v,R,D,d,L,c,,,,,5,19,119,19,3,0,3,0,,,,,1,2,38,0,,,,,,up,0.6471772404315743,2714.4429607144602,None,001,24,2019_Oct_14_1402,ACPT_experiment_5_30_19,3.1.0,59.94387084867008,
,,,C,G,g,v,R,U,y,L,u,,,,,5,19,119,19,3,0,3,0,,,,,1,3,39,30,,,,,,down,0.6338324244406977,2716.374455071839,None,001,24,2019_Oct_14_1402,ACPT_experiment_5_30_19,3.1.0,59.94387084867008,
,,,C,G,g,v,R,D,y,L,y,,,,,5,19,119,19,3,0,3,0,,,,,1,4,40,26,,,,,,down,0.6672081989313483,2718.2925955575033,None,001,24,2019_Oct_14_1402,ACPT_experiment_5_30_19,3.1.0,59.94387084867008,
,,,C,G,g,v,R,U,d,R,u,,,,,5,19,119,19,3,0,3,0,,,,,1,5,41,9,,,,,,up,0.5670908367546872,2720.244095215499,None,001,24,2019_Oct_14_1402,ACPT_experiment_5_30_19,3.1.0,59.94387084867008,
,,,C,G,g,v,R,U,g,L,u,,,,,5,19,119,19,3,0,3,0,,,,,1,6,42,10,,,,,,up,0.4837042255817323,2722.0955155453566,None,001,24,2019_Oct_14_1402,ACPT_experiment_5_30_19,3.1.0,59.94387084867008,
,,,C,G,g,v,L,D,d,R,c ,,,,,5,19,119,19,3,0,3,0,,,,,1,7,43,13,,,,,,up,0.7338969615630049,2723.8635386990304,None,001,24,2019_Oct_14_1402,ACPT_experiment_5_30_19,3.1.0,59.94387084867008,
,,,C,G,g,v,R,U,d,L,u,,,,,5,19,119,19,3,0,3,0,,,,,1,8,44,8,,,,,,up,0.8673242933064103,2725.881757909118,None,001,24,2019_Oct_14_1402,ACPT_experiment_5_30_19,3.1.0,59.94387084867008,
,,,C,G,g,v,R,D,g,R,i,,,,,5,19,119,19,3,0,3,0,,,,,1,9,45,3,,,,,,up,0.5837832518623145,2728.033404450948,None,001,24,2019_Oct_14_1402,ACPT_experiment_5_30_19,3.1.0,59.94387084867008,
,,,C,G,g,v,R,D,y,R,y,,,,,5,19,119,19,3,0,3,0,,,,,1,10,46,27,,,,,,down,0.483705433011437,2729.901505423473,None,001,24,2019_Oct_14_1402,ACPT_experiment_5_30_19,3.1.0,59.94387084867008,
,,,C,G,g,v,L,G,d,R,i,,,,,5,19,119,19,3,0,3,0,,,,,1,11,47,17,,,,,,up,0.5003797366716753,2731.6695300864335,None,001,24,2019_Oct_14_1402,ACPT_experiment_5_30_19,3.1.0,59.94387084867008,
,,,C,G,g,v,L,U,d,L,u,,,,,5,19,119,19,3,0,3,0,,,,,1,12,48,20,,,,,,up,0.580451349332634,2733.4742388815334,None,001,24,2019_Oct_14_1402,ACPT_experiment_5_30_19,3.1.0,59.94387084867008,
,,,C,G,g,v,L,U,y,L,u,,,,,5,19,119,19,3,0,3,0,,,,,1,13,49,24,,,,,,down,0.783921683688277,2735.3390185165395,None,001,24,2019_Oct_14_1402,ACPT_experiment_5_30_19,3.1.0,59.94387084867008,
,,,C,G,g,v,L,D,g,R,i,,,,,5,19,119,19,3,0,3,0,,,,,1,14,50,15,,,,,,up,0.46701845133839015,2737.4239518452846,None,001,24,2019_Oct_14_1402,ACPT_experiment_5_30_19,3.1.0,59.94387084867008,
,,,C,G,g,v,L,U,g,L,u,,,,,5,19,119,19,3,0,3,0,,,,,1,15,51,22,,,,,,up,0.43366501429909476,2739.175291941432,None,001,24,2019_Oct_14_1402,ACPT_experiment_5_30_19,3.1.0,59.94387084867008,
,,,C,G,g,v,L,D,y,R,y,,,,,5,19,119,19,3,0,3,0,,,,,1,16,52,33,,,,,,down,0.5670884218957326,2740.909959243207,None,001,24,2019_Oct_14_1402,ACPT_experiment_5_30_19,3.1.0,59.94387084867008,
,,,C,G,g,v,R,D,g,L,i,,,,,5,19,119,19,3,0,3,0,,,,,1,17,53,2,,,,,,up,0.7172090743179069,2742.7780602157313,None,001,24,2019_Oct_14_1402,ACPT_experiment_5_30_19,3.1.0,59.94387084867008,
,,,C,G,g,v,R,G,d,L,i,,,,,5,19,119,19,3,0,3,0,,,,,1,18,54,4,,,,,,up,0.5337322681389196,2744.779600896154,None,001,24,2019_Oct_14_1402,ACPT_experiment_5_30_19,3.1.0,59.94387084867008,
,,,C,G,g,v,R,G,y,R,y,,,,,5,19,119,19,3,0,3,0,,,,,1,19,55,29,,,,,,down,0.4135256889744596,2746.63446330651,None,001,24,2019_Oct_14_1402,ACPT_experiment_5_30_19,3.1.0,59.94387084867008,
,,,C,G,g,v,R,G,g,L,c ,,,,,5,19,119,19,3,0,3,0,,,,,1,20,56,6,,,,,,up,0.667181635475572,2748.3323218090195,None,001,24,2019_Oct_14_1402,ACPT_experiment_5_30_19,3.1.0,59.94387084867008,
,,,C,G,g,v,L,D,y,L,y,,,,,5,19,119,19,3,0,3,0,,,,,1,21,57,32,,,,,,down,0.6004687242480031,2750.2838217688723,None,001,24,2019_Oct_14_1402,ACPT_experiment_5_30_19,3.1.0,59.94387084867008,
,,,C,G,g,v,R,D,d,R,c ,,,,,5,19,119,19,3,0,3,0,,,,,1,22,58,1,,,,,,up,0.7172658235185736,2752.1685994599165,None,001,24,2019_Oct_14_1402,ACPT_experiment_5_30_19,3.1.0,59.94387084867008,
,,,C,G,g,v,L,D,g,L,i,,,,,5,19,119,19,3,0,3,0,,,,,1,23,59,14,,,,,,up,0.733912356293331,2754.170135008763,None,001,24,2019_Oct_14_1402,ACPT_experiment_5_30_19,3.1.0,59.94387084867008,
,,,C,G,g,v,L,G,d,L,i,,,,,5,19,119,19,3,0,3,0,,,,,1,24,60,16,,,,,,up,0.5837757054255235,2756.1883545207074,None,001,24,2019_Oct_14_1402,ACPT_experiment_5_30_19,3.1.0,59.94387084867008,
,,,C,G,g,v,R,G,y,L,y,,,,,5,19,119,19,3,0,3,0,,,,,1,25,61,28,,,,,,down,0.6504901259409053,2758.056463643383,None,001,24,2019_Oct_14_1402,ACPT_experiment_5_30_19,3.1.0,59.94387084867008,
,,,C,G,g,v,L,G,y,L,y,,,,,5,19,119,19,3,0,3,0,,,,,1,26,62,34,,,,,,down,0.6335963719147912,2760.008192411183,None,001,24,2019_Oct_14_1402,ACPT_experiment_5_30_19,3.1.0,59.94387084867008,
,,,C,G,g,v,L,D,d,L,c ,,,,,5,19,119,19,3,0,3,0,,,,,1,27,63,12,,,,,,up,0.6171297461805807,2761.926095636892,None,001,24,2019_Oct_14_1402,ACPT_experiment_5_30_19,3.1.0,59.94387084867008,
,,,C,G,g,v,L,G,y,R,y,,,,,5,19,119,19,3,0,3,0,,,,,1,28,64,35,,,,,,down,0.7839265134075504,2763.8275500464556,None,001,24,2019_Oct_14_1402,ACPT_experiment_5_30_19,3.1.0,59.94387084867008,
,,,C,G,g,v,R,G,d,R,i,,,,,5,19,119,19,3,0,3,0,,,,,1,29,65,5,,,,,,up,0.5671086463444226,2765.8958135994026,None,001,24,2019_Oct_14_1402,ACPT_experiment_5_30_19,3.1.0,59.94387084867008,
,,,C,G,g,v,L,U,d,R,u,,,,,5,19,119,19,3,0,3,0,,,,,1,30,66,21,,,,,,up,0.6004518202303188,2767.747223062392,None,001,24,2019_Oct_14_1402,ACPT_experiment_5_30_19,3.1.0,59.94387084867008,
,,,C,G,g,v,L,U,g,R,u,,,,,5,19,119,19,3,0,3,0,,,,,1,31,67,23,,,,,,up,0.6838761635854098,2769.6320037720106,None,001,24,2019_Oct_14_1402,ACPT_experiment_5_30_19,3.1.0,59.94387084867008,
,,,C,G,g,v,R,U,y,R,u,,,,,5,19,119,19,3,0,3,0,,,,,1,32,68,31,,,,,,down,0.6504964649470821,2771.600181657813,None,001,24,2019_Oct_14_1402,ACPT_experiment_5_30_19,3.1.0,59.94387084867008,
,,,C,G,g,v,L,G,g,R,c ,,,,,5,19,119,19,3,0,3,0,,,,,1,33,69,19,,,,,,up,0.7169947555289582,2773.5519194813364,None,001,24,2019_Oct_14_1402,ACPT_experiment_5_30_19,3.1.0,59.94387084867008,
,,,C,G,g,v,L,U,y,R,u,,,,,5,19,119,19,3,0,3,0,,,,,1,34,70,25,,,,,,down,0.5671204187847252,2775.553191508629,None,001,24,2019_Oct_14_1402,ACPT_experiment_5_30_19,3.1.0,59.94387084867008,
,,,C,G,g,v,L,G,g,L,c ,,,,,5,19,119,19,3,0,3,0,,,,,1,35,71,18,,,,,,up,0.7338954522761014,2777.40463749637,None,001,24,2019_Oct_14_1402,ACPT_experiment_5_30_19,3.1.0,59.94387084867008,
,,,C,G,g,v,,,,,,,,,,5,19,119,19,4,0,4,0,0,0,0,0,,,,,,,,,,,,,,001,24,2019_Oct_14_1402,ACPT_experiment_5_30_19,3.1.0,59.94387084867008,
,,,C,G,g,v,R,G,y,R,y,,,,,5,19,119,19,4,0,4,0,,,,,0,0,0,29,,,,,,down,0.6502552808451583,2786.5785916055856,None,001,24,2019_Oct_14_1402,ACPT_experiment_5_30_19,3.1.0,59.94387084867008,
,,,C,G,g,v,R,D,g,L,i,,,,,5,19,119,19,4,0,4,0,,,,,0,1,1,2,,,,,,up,0.6171442353379462,2788.513159777374,None,001,24,2019_Oct_14_1402,ACPT_experiment_5_30_19,3.1.0,59.94387084867008,
,,,C,G,g,v,R,D,y,R,y,,,,,5,19,119,19,4,0,4,0,,,,,0,2,2,27,,,,,,down,0.5004023759806842,2790.397919960686,None,001,24,2019_Oct_14_1402,ACPT_experiment_5_30_19,3.1.0,59.94387084867008,
,,,C,G,g,v,L,U,d,R,u,,,,,5,19,119,19,4,0,4,0,,,,,0,3,3,21,,,,,,up,0.4670157346213273,2792.1826463963353,None,001,24,2019_Oct_14_1402,ACPT_experiment_5_30_19,3.1.0,59.94387084867008,
,,,C,G,g,v,R,G,g,L,c ,,,,,5,19,119,19,4,0,4,0,,,,,0,4,4,6,,,,,,up,1.6012254808738362,2793.9339925296317,None,001,24,2019_Oct_14_1402,ACPT_experiment_5_30_19,3.1.0,59.94387084867008,
,,,C,G,g,v,R,U,y,L,u,,,,,5,19,119,19,4,0,4,0,,,,,0,5,5,30,,,,,,down,0.6170941270011099,2796.819580707928,None,001,24,2019_Oct_14_1402,ACPT_experiment_5_30_19,3.1.0,59.94387084867008,
,,,C,G,g,v,R,D,d,R,c ,,,,,5,19,119,19,4,0,4,0,,,,,0,6,6,1,,,,,,up,1.3176850431445928,2798.720993159306,None,001,24,2019_Oct_14_1402,ACPT_experiment_5_30_19,3.1.0,59.94387084867008,
,,,C,G,g,v,R,D,d,L,c,,,,,5,19,119,19,4,0,4,0,,,,,0,7,7,0,,,,,,up,0.4503486755402264,2801.322995319398,None,001,24,2019_Oct_14_1402,ACPT_experiment_5_30_19,3.1.0,59.94387084867008,
,,,C,G,g,v,R,U,d,L,u,,,,,5,19,119,19,4,0,4,0,,,,,0,8,8,8,,,,,,down,0.6671771076139521,2803.0743502065607,None,001,24,2019_Oct_14_1402,ACPT_experiment_5_30_19,3.1.0,59.94387084867008,
,,,C,G,g,v,R,G,d,R,i,,,,,5,19,119,19,4,0,4,0,,,,,0,9,9,5,,,,,,up,0.7506053751153559,2805.009133300853,None,001,24,2019_Oct_14_1402,ACPT_experiment_5_30_19,3.1.0,59.94387084867008,
,,,C,G,g,v,L,G,y,L,y,,,,,5,19,119,19,4,0,4,0,,,,,0,10,10,34,,,,,,down,0.6171466501973555,2807.0440533780566,None,001,24,2019_Oct_14_1402,ACPT_experiment_5_30_19,3.1.0,59.94387084867008,
,,,C,G,g,v,R,U,d,R,u,,,,,5,19,119,19,4,0,4,0,,,,,0,11,11,9,,,,,,up,0.8339581782538517,2808.9455262009246,None,001,24,2019_Oct_14_1402,ACPT_experiment_5_30_19,3.1.0,59.94387084867008,
,,,C,G,g,v,L,G,g,R,c ,,,,,5,19,119,19,4,0,4,0,,,,,0,12,12,19,,,,,,up,0.6004859301224315,2811.0637776493877,None,001,24,2019_Oct_14_1402,ACPT_experiment_5_30_19,3.1.0,59.94387084867008,
,,,C,G,g,v,R,U,y,R,u,,,,,5,19,119,19,4,0,4,0,,,,,0,13,13,31,,,,,,down,0.5503854417775074,2812.948610580345,None,001,24,2019_Oct_14_1402,ACPT_experiment_5_30_19,3.1.0,59.94387084867008,
,,,C,G,g,v,R,D,g,R,i,,,,,5,19,119,19,4,0,4,0,,,,,0,14,14,3,,,,,,up,0.783942511852274,2814.7833224966507,None,001,24,2019_Oct_14_1402,ACPT_experiment_5_30_19,3.1.0,59.94387084867008,
,,,C,G,g,v,L,D,d,L,c ,,,,,5,19,119,19,4,0,4,0,,,,,0,15,15,12,,,,,,up,0.683796171360882,2816.8516364597917,None,001,24,2019_Oct_14_1402,ACPT_experiment_5_30_19,3.1.0,59.94387084867008,
,,,C,G,g,v,L,G,d,L,i,,,,,5,19,119,19,4,0,4,0,,,,,0,16,16,16,,,,,,up,0.5336368811845205,2818.8197560871063,None,001,24,2019_Oct_14_1402,ACPT_experiment_5_30_19,3.1.0,59.94387084867008,
,,,C,G,g,v,R,D,y,L,y,,,,,5,19,119,19,4,0,4,0,,,,,0,17,17,26,,,,,,down,1.0007649067774764,2820.6545051318785,None,001,24,2019_Oct_14_1402,ACPT_experiment_5_30_19,3.1.0,59.94387084867008,
,,,C,G,g,v,R,G,g,R,c ,,,,,5,19,119,19,4,0,4,0,,,,,0,18,18,7,,,,,,up,0.6838432611230019,2822.956272024274,None,001,24,2019_Oct_14_1402,ACPT_experiment_5_30_19,3.1.0,59.94387084867008,
,,,C,G,g,v,L,U,y,R,u,,,,,5,19,119,19,4,0,4,0,,,,,0,19,19,25,,,,,,down,0.5170588700507324,2824.9244438729274,None,001,24,2019_Oct_14_1402,ACPT_experiment_5_30_19,3.1.0,59.94387084867008,
,,,C,G,g,v,L,D,g,L,i,,,,,5,19,119,19,4,0,4,0,,,,,0,20,20,14,,,,,,up,0.5671216262144299,2826.725805068911,None,001,24,2019_Oct_14_1402,ACPT_experiment_5_30_19,3.1.0,59.94387084867008,
,,,C,G,g,v,L,U,y,L,u,,,,,5,19,119,19,4,0,4,0,,,,,0,21,21,24,,,,,,down,0.550177160137082,2828.5941707704187,None,001,24,2019_Oct_14_1402,ACPT_experiment_5_30_19,3.1.0,59.94387084867008,
,,,C,G,g,v,L,G,y,R,y,,,,,5,19,119,19,4,0,4,0,,,,,0,22,22,35,,,,,,down,0.7005432226665107,2830.4286707827946,None,001,24,2019_Oct_14_1402,ACPT_experiment_5_30_19,3.1.0,59.94387084867008,
,,,C,G,g,v,L,D,d,R,c ,,,,,5,19,119,19,4,0,4,0,,,,,0,23,23,13,,,,,,up,0.5337410220045058,2832.413525387117,None,001,24,2019_Oct_14_1402,ACPT_experiment_5_30_19,3.1.0,59.94387084867008,
,,,C,G,g,v,L,U,g,L,u,,,,,5,19,119,19,4,0,4,0,,,,,0,24,24,22,,,,,,up,0.8006147025103019,2834.231598920799,None,001,24,2019_Oct_14_1402,ACPT_experiment_5_30_19,3.1.0,59.94387084867008,
,,,C,G,g,v,R,G,y,L,y,,,,,5,19,119,19,4,0,4,0,,,,,0,25,25,28,,,,,,down,0.6504901259409053,2836.333205647632,None,001,24,2019_Oct_14_1402,ACPT_experiment_5_30_19,3.1.0,59.94387084867008,
,,,C,G,g,v,L,D,y,R,y,,,,,5,19,119,19,4,0,4,0,,,,,0,26,26,33,,,,,,down,0.6004644982435821,2838.2680101738033,None,001,24,2019_Oct_14_1402,ACPT_experiment_5_30_19,3.1.0,59.94387084867008,
,,,C,G,g,v,L,D,g,R,i,,,,,5,19,119,19,4,0,4,0,,,,,0,27,27,15,,,,,,up,0.7506038658279977,2840.1694817892417,None,001,24,2019_Oct_14_1402,ACPT_experiment_5_30_19,3.1.0,59.94387084867008,
,,,C,G,g,v,R,U,g,L,u,,,,,5,19,119,19,4,0,4,0,,,,,0,28,28,10,,,,,,up,0.7336379678718004,2842.2213155430627,None,001,24,2019_Oct_14_1402,ACPT_experiment_5_30_19,3.1.0,59.94387084867008,
,,,C,G,g,v,L,U,d,L,u,,,,,5,19,119,19,4,0,4,0,,,,,0,29,29,20,,,,,,up,0.5004035834103888,2844.2392718353112,None,001,24,2019_Oct_14_1402,ACPT_experiment_5_30_19,3.1.0,59.94387084867008,
,,,C,G,g,v,R,U,g,R,u,,,,,5,19,119,19,4,0,4,0,,,,,0,30,30,11,,,,,,up,0.5671177020681171,2846.0239750279366,None,001,24,2019_Oct_14_1402,ACPT_experiment_5_30_19,3.1.0,59.94387084867008,
,,,C,G,g,v,L,G,d,R,i,,,,,5,19,119,19,4,0,4,0,,,,,0,31,31,17,,,,,,up,0.7672618691858588,2847.875396263367,None,001,24,2019_Oct_14_1402,ACPT_experiment_5_30_19,3.1.0,59.94387084867008,
,,,C,G,g,v,L,D,y,L,y,,,,,5,19,119,19,4,0,4,0,,,,,0,32,32,32,,,,,,down,0.7172163188970444,2849.926970419781,None,001,24,2019_Oct_14_1402,ACPT_experiment_5_30_19,3.1.0,59.94387084867008,
,,,C,G,g,v,R,G,d,L,i,,,,,5,19,119,19,4,0,4,0,,,,,0,33,33,4,,,,,,up,0.6838562409930091,2851.9285041574826,None,001,24,2019_Oct_14_1402,ACPT_experiment_5_30_19,3.1.0,59.94387084867008,
,,,C,G,g,v,L,U,g,R,u,,,,,5,19,119,19,4,0,4,0,,,,,0,34,34,23,,,,,,up,1.0007682272089369,2853.8966977398723,None,001,24,2019_Oct_14_1402,ACPT_experiment_5_30_19,3.1.0,59.94387084867008,
,,,C,G,g,v,L,G,g,L,c ,,,,,5,19,119,19,4,0,4,0,,,,,0,35,35,18,,,,,,up,0.6004989099924387,2856.1650674258985,None,001,24,2019_Oct_14_1402,ACPT_experiment_5_30_19,3.1.0,59.94387084867008,
,,,C,G,g,v,L,U,d,L,u,,,,,5,19,119,19,4,0,4,0,,,,,1,0,36,20,,,,,,up,0.5337657743157251,2858.0498457206572,None,001,24,2019_Oct_14_1402,ACPT_experiment_5_30_19,3.1.0,59.94387084867008,
,,,C,G,g,v,L,G,d,R,i,,,,,5,19,119,19,4,0,4,0,,,,,1,1,37,17,,,,,,up,0.650491937085917,2859.867939176931,None,001,24,2019_Oct_14_1402,ACPT_experiment_5_30_19,3.1.0,59.94387084867008,
,,,C,G,g,v,R,U,y,L,u,,,,,5,19,119,19,4,0,4,0,,,,,1,2,38,30,,,,,,down,1.0674702715691637,2861.802766946126,None,001,24,2019_Oct_14_1402,ACPT_experiment_5_30_19,3.1.0,59.94387084867008,
,,,C,G,g,v,L,D,g,R,i,,,,,5,19,119,19,4,0,4,0,,,,,1,3,39,15,,,,,,up,0.6671786169013103,2864.1545567495023,None,001,24,2019_Oct_14_1402,ACPT_experiment_5_30_19,3.1.0,59.94387084867008,
,,,C,G,g,v,L,D,d,L,c ,,,,,5,19,119,19,4,0,4,0,,,,,1,4,40,12,,,,,,up,0.6171249164608525,2866.106065161364,None,001,24,2019_Oct_14_1402,ACPT_experiment_5_30_19,3.1.0,59.94387084867008,
,,,C,G,g,v,L,G,d,L,i,,,,,5,19,119,19,4,0,4,0,,,,,1,5,41,16,,,,,,up,0.4837283741776446,2868.007510515204,None,001,24,2019_Oct_14_1402,ACPT_experiment_5_30_19,3.1.0,59.94387084867008,
,,,C,G,g,v,L,D,y,R,y,,,,,5,19,119,19,4,0,4,0,,,,,1,6,42,33,,,,,,down,0.6838523168462416,2869.7755403097417,None,001,24,2019_Oct_14_1402,ACPT_experiment_5_30_19,3.1.0,59.94387084867008,
,,,C,G,g,v,R,G,y,R,y,,,,,5,19,119,19,4,0,4,0,,,,,1,7,43,29,,,,,,down,0.6504889185112006,2871.760399441926,None,001,24,2019_Oct_14_1402,ACPT_experiment_5_30_19,3.1.0,59.94387084867008,
,,,C,G,g,v,R,D,d,L,c,,,,,5,19,119,19,4,0,4,0,,,,,1,8,44,0,,,,,,up,0.6838969917494069,2873.7118936664874,None,001,24,2019_Oct_14_1402,ACPT_experiment_5_30_19,3.1.0,59.94387084867008,
,,,C,G,g,v,L,D,y,L,y,,,,,5,19,119,19,4,0,4,0,,,,,1,9,45,32,,,,,,down,0.5837693664193466,2875.6800769857236,None,001,24,2019_Oct_14_1402,ACPT_experiment_5_30_19,3.1.0,59.94387084867008,
,,,C,G,g,v,R,U,d,R,u,,,,,5,19,119,19,4,0,4,0,,,,,1,10,46,9,,,,,,up,0.6504934463728205,2877.5481713173845,None,001,24,2019_Oct_14_1402,ACPT_experiment_5_30_19,3.1.0,59.94387084867008,
,,,C,G,g,v,R,G,g,L,c ,,,,,5,19,119,19,4,0,4,0,,,,,1,11,47,6,,,,,,up,0.6500817128116978,2879.5000754643625,None,001,24,2019_Oct_14_1402,ACPT_experiment_5_30_19,3.1.0,59.94387084867008,
,,,C,G,g,v,R,D,y,L,y,,,,,5,19,119,19,4,0,4,0,,,,,1,12,48,26,,,,,,down,0.5337826783329547,2881.434468860687,None,001,24,2019_Oct_14_1402,ACPT_experiment_5_30_19,3.1.0,59.94387084867008,
,,,C,G,g,v,R,U,d,L,u,,,,,5,19,119,19,4,0,4,0,,,,,1,13,49,8,,,,,,up,0.8172935340321601,2883.2525484315183,None,001,24,2019_Oct_14_1402,ACPT_experiment_5_30_19,3.1.0,59.94387084867008,
,,,C,G,g,v,R,G,y,L,y,,,,,5,19,119,19,4,0,4,0,,,,,1,14,50,28,,,,,,down,0.7172069613156964,2885.3708436493116,None,001,24,2019_Oct_14_1402,ACPT_experiment_5_30_19,3.1.0,59.94387084867008,
,,,C,G,g,v,L,D,g,L,i,,,,,5,19,119,19,4,0,4,0,,,,,1,15,51,14,,,,,,up,0.5170818112173947,2887.389064368686,None,001,24,2019_Oct_14_1402,ACPT_experiment_5_30_19,3.1.0,59.94387084867008,
,,,C,G,g,v,R,D,g,L,i,,,,,5,19,119,19,4,0,4,0,,,,,1,16,52,2,,,,,,up,0.4670293182066416,2889.19043854454,None,001,24,2019_Oct_14_1402,ACPT_experiment_5_30_19,3.1.0,59.94387084867008,
,,,C,G,g,v,L,G,g,R,c ,,,,,5,19,119,19,4,0,4,0,,,,,1,17,53,19,,,,,,up,0.934070106996387,2890.9417997707087,None,001,24,2019_Oct_14_1402,ACPT_experiment_5_30_19,3.1.0,59.94387084867008,
,,,C,G,g,v,R,D,g,R,i,,,,,5,19,119,19,4,0,4,0,,,,,1,18,54,3,,,,,,up,0.6671780131860032,2893.1601625441995,None,001,24,2019_Oct_14_1402,ACPT_experiment_5_30_19,3.1.0,59.94387084867008,
,,,C,G,g,v,R,D,y,R,y,,,,,5,19,119,19,4,0,4,0,,,,,1,19,55,27,,,,,,down,0.8840061434029849,2895.1283346947102,None,001,24,2019_Oct_14_1402,ACPT_experiment_5_30_19,3.1.0,59.94387084867008,
,,,C,G,g,v,L,G,y,R,y,,,,,5,19,119,19,4,0,4,0,,,,,1,20,56,35,,,,,,down,0.5504080810865162,2897.296669727501,None,001,24,2019_Oct_14_1402,ACPT_experiment_5_30_19,3.1.0,59.94387084867008,
,,,C,G,g,v,L,U,y,R,u,,,,,5,19,119,19,4,0,4,0,,,,,1,21,57,25,,,,,,down,0.583776007283177,2899.1480831146373,None,001,24,2019_Oct_14_1402,ACPT_experiment_5_30_19,3.1.0,59.94387084867008,
,,,C,G,g,v,R,D,d,R,c ,,,,,5,19,119,19,4,0,4,0,,,,,1,22,58,1,,,,,,up,0.5170893576532762,2901.0161777481553,None,001,24,2019_Oct_14_1402,ACPT_experiment_5_30_19,3.1.0,59.94387084867008,
,,,C,G,g,v,R,U,y,R,u,,,,,5,19,119,19,4,0,4,0,,,,,1,23,59,31,,,,,,down,0.4668258662854896,2902.834404927279,None,001,24,2019_Oct_14_1402,ACPT_experiment_5_30_19,3.1.0,59.94387084867008,
,,,C,G,g,v,L,G,y,L,y,,,,,5,19,119,19,4,0,4,0,,,,,1,24,60,34,,,,,,down,1.100831556902449,2904.602276850371,None,001,24,2019_Oct_14_1402,ACPT_experiment_5_30_19,3.1.0,59.94387084867008,
,,,C,G,g,v,L,U,y,L,u,,,,,5,19,119,19,4,0,4,0,,,,,1,25,61,24,,,,,,down,0.6004500090857618,2907.0041176374702,None,001,24,2019_Oct_14_1402,ACPT_experiment_5_30_19,3.1.0,59.94387084867008,
,,,C,G,g,v,R,U,g,R,u,,,,,5,19,119,19,4,0,4,0,,,,,1,26,62,11,,,,,,up,0.5170513236143961,2908.8889001582334,None,001,24,2019_Oct_14_1402,ACPT_experiment_5_30_19,3.1.0,59.94387084867008,
,,,C,G,g,v,L,U,g,R,u,,,,,5,19,119,19,4,0,4,0,,,,,1,27,63,23,,,,,,up,0.4837304871798551,2910.6902510910636,None,001,24,2019_Oct_14_1402,ACPT_experiment_5_30_19,3.1.0,59.94387084867008,
,,,C,G,g,v,R,U,g,L,u,,,,,5,19,119,19,4,0,4,0,,,,,1,28,64,10,,,,,,up,0.6338173315680251,2912.458300808193,None,001,24,2019_Oct_14_1402,ACPT_experiment_5_30_19,3.1.0,59.94387084867008,
,,,C,G,g,v,R,G,d,L,i,,,,,5,19,119,19,4,0,4,0,,,,,1,29,65,4,,,,,,up,0.5337530963029167,2914.3764367659955,None,001,24,2019_Oct_14_1402,ACPT_experiment_5_30_19,3.1.0,59.94387084867008,
,,,C,G,g,v,L,D,d,R,c ,,,,,5,19,119,19,4,0,4,0,,,,,1,30,66,13,,,,,,up,0.5170552477616184,2916.194506979246,None,001,24,2019_Oct_14_1402,ACPT_experiment_5_30_19,3.1.0,59.94387084867008,
,,,C,G,g,v,R,G,d,R,i,,,,,5,19,119,19,4,0,4,0,,,,,1,31,67,5,,,,,,up,0.45036135355303486,2917.995883569959,None,001,24,2019_Oct_14_1402,ACPT_experiment_5_30_19,3.1.0,59.94387084867008,
,,,C,G,g,v,L,G,g,L,c ,,,,,5,19,119,19,4,0,4,0,,,,,1,32,68,18,,,,,,up,0.6504970686623892,2919.7305463438724,None,001,24,2019_Oct_14_1402,ACPT_experiment_5_30_19,3.1.0,59.94387084867008,
,,,C,G,g,v,L,U,g,L,u,,,,,5,19,119,19,4,0,4,0,,,,,1,33,69,22,,,,,,up,0.5003785292419707,2921.6653677740605,None,001,24,2019_Oct_14_1402,ACPT_experiment_5_30_19,3.1.0,59.94387084867008,
,,,C,G,g,v,R,G,g,R,c ,,,,,5,19,119,19,4,0,4,0,,,,,1,34,70,7,,,,,,up,0.6669021154771144,2923.4670244884874,None,001,24,2019_Oct_14_1402,ACPT_experiment_5_30_19,3.1.0,59.94387084867008,
,,,C,G,g,v,L,U,d,R,u,,,,,5,19,119,19,4,0,4,0,,,,,1,35,71,21,,,,,,up,0.48369184942612264,2925.418254285923,None,001,24,2019_Oct_14_1402,ACPT_experiment_5_30_19,3.1.0,59.94387084867008,
,,,C,G,g,v,,,,,,,,,,5,19,119,19,5,0,5,0,0,0,0,0,,,,,,,,,,,,,,001,24,2019_Oct_14_1402,ACPT_experiment_5_30_19,3.1.0,59.94387084867008,
,,,C,G,g,v,R,D,y,R,y,,,,,5,19,119,19,5,0,5,0,,,,,0,0,0,27,,,,,,down,0.8003378992293619,2932.724136099072,None,001,24,2019_Oct_14_1402,ACPT_experiment_5_30_19,3.1.0,59.94387084867008,
,,,C,G,g,v,L,D,d,L,c ,,,,,5,19,119,19,5,0,5,0,,,,,0,1,1,12,,,,,,up,0.650382362831806,2934.8087899078187,None,001,24,2019_Oct_14_1402,ACPT_experiment_5_30_19,3.1.0,59.94387084867008,
,,,C,G,g,v,R,G,g,R,c ,,,,,5,19,119,19,5,0,5,0,,,,,0,2,2,7,,,,,,up,0.7506180531281643,2936.7436056027154,None,001,24,2019_Oct_14_1402,ACPT_experiment_5_30_19,3.1.0,59.94387084867008,
,,,C,G,g,v,R,U,y,L,u,,,,,5,19,119,19,5,0,5,0,,,,,0,3,3,30,,,,,,down,0.8506756475298971,2938.778482212446,None,001,24,2019_Oct_14_1402,ACPT_experiment_5_30_19,3.1.0,59.94387084867008,
,,,C,G,g,v,R,G,d,L,i,,,,,5,19,119,19,5,0,5,0,,,,,0,4,4,4,,,,,,up,0.6671819373332255,2940.9134734676354,None,001,24,2019_Oct_14_1402,ACPT_experiment_5_30_19,3.1.0,59.94387084867008,
,,,C,G,g,v,L,U,d,R,u,,,,,5,19,119,19,5,0,5,0,,,,,0,5,5,21,,,,,,up,0.8673393861790828,2942.864990029648,None,001,24,2019_Oct_14_1402,ACPT_experiment_5_30_19,3.1.0,59.94387084867008,
,,,C,G,g,v,L,U,g,R,u,,,,,5,19,119,19,5,0,5,0,,,,,0,6,6,23,,,,,,up,0.6171282368927677,2944.999957136242,None,001,24,2019_Oct_14_1402,ACPT_experiment_5_30_19,3.1.0,59.94387084867008,
,,,C,G,g,v,L,G,g,L,c ,,,,,5,19,119,19,5,0,5,0,,,,,0,7,7,18,,,,,,up,0.6171421223357356,2946.901402188225,None,001,24,2019_Oct_14_1402,ACPT_experiment_5_30_19,3.1.0,59.94387084867008,
,,,C,G,g,v,L,U,y,R,u,,,,,5,19,119,19,5,0,5,0,,,,,0,8,8,25,,,,,,down,0.7672519078896585,2948.8195447868916,None,001,24,2019_Oct_14_1402,ACPT_experiment_5_30_19,3.1.0,59.94387084867008,
,,,C,G,g,v,L,G,d,R,i,,,,,5,19,119,19,5,0,5,0,,,,,0,9,9,17,,,,,,up,0.5670944590442559,2950.904478417494,None,001,24,2019_Oct_14_1402,ACPT_experiment_5_30_19,3.1.0,59.94387084867008,
,,,C,G,g,v,L,D,y,L,y,,,,,5,19,119,19,5,0,5,0,,,,,0,10,10,32,,,,,,down,0.9007121420954718,2952.7558779191877,None,001,24,2019_Oct_14_1402,ACPT_experiment_5_30_19,3.1.0,59.94387084867008,
,,,C,G,g,v,R,D,g,L,i,,,,,5,19,119,19,5,0,5,0,,,,,0,11,11,2,,,,,,up,0.6171397074758715,2954.9409086875175,None,001,24,2019_Oct_14_1402,ACPT_experiment_5_30_19,3.1.0,59.94387084867008,
,,,C,G,g,v,L,G,d,L,i,,,,,5,19,119,19,5,0,5,0,,,,,0,12,12,16,,,,,,up,0.9674156957421474,2956.842364606369,None,001,24,2019_Oct_14_1402,ACPT_experiment_5_30_19,3.1.0,59.94387084867008,
,,,C,G,g,v,R,D,d,R,c ,,,,,5,19,119,19,5,0,5,0,,,,,0,13,13,1,,,,,,up,0.6671783150436568,2959.094092589339,None,001,24,2019_Oct_14_1402,ACPT_experiment_5_30_19,3.1.0,59.94387084867008,
,,,C,G,g,v,L,D,d,R,c ,,,,,5,19,119,19,5,0,5,0,,,,,0,14,14,13,,,,,,up,0.5337621520261564,2961.045594662194,None,001,24,2019_Oct_14_1402,ACPT_experiment_5_30_19,3.1.0,59.94387084867008,
,,,C,G,g,v,L,U,y,L,u,,,,,5,19,119,19,5,0,5,0,,,,,0,15,15,24,,,,,,down,0.567128267078715,2962.88033616053,None,001,24,2019_Oct_14_1402,ACPT_experiment_5_30_19,3.1.0,59.94387084867008,
,,,C,G,g,v,R,U,d,R,u,,,,,5,19,119,19,5,0,5,0,,,,,0,16,16,9,,,,,,up,0.566843917360984,2964.782041111777,None,001,24,2019_Oct_14_1402,ACPT_experiment_5_30_19,3.1.0,59.94387084867008,
,,,C,G,g,v,R,G,g,L,c ,,,,,5,19,119,19,5,0,5,0,,,,,0,17,17,6,,,,,,up,0.6004771762563905,2966.6331927885044,None,001,24,2019_Oct_14_1402,ACPT_experiment_5_30_19,3.1.0,59.94387084867008,
,,,C,G,g,v,L,D,g,R,i,,,,,5,19,119,19,5,0,5,0,,,,,0,18,18,15,,,,,,up,0.6838502038440311,2968.5180039857255,None,001,24,2019_Oct_14_1402,ACPT_experiment_5_30_19,3.1.0,59.94387084867008,
,,,C,G,g,v,L,U,g,L,u,,,,,5,19,119,19,5,0,5,0,,,,,0,19,19,22,,,,,,up,0.517065812772671,2970.48617100466,None,001,24,2019_Oct_14_1402,ACPT_experiment_5_30_19,3.1.0,59.94387084867008,
,,,C,G,g,v,R,G,y,R,y,,,,,5,19,119,19,5,0,5,0,,,,,0,20,20,29,,,,,,down,1.2176039038622548,2972.2875524250926,None,001,24,2019_Oct_14_1402,ACPT_experiment_5_30_19,3.1.0,59.94387084867008,
,,,C,G,g,v,L,G,g,R,c ,,,,,5,19,119,19,5,0,5,0,,,,,0,21,21,19,,,,,,up,0.6671804280458673,2974.789473445902,None,001,24,2019_Oct_14_1402,ACPT_experiment_5_30_19,3.1.0,59.94387084867008,
,,,C,G,g,v,R,G,d,R,i,,,,,5,19,119,19,5,0,5,0,,,,,0,22,22,5,,,,,,up,0.5837729887089154,2976.7409758206145,None,001,24,2019_Oct_14_1402,ACPT_experiment_5_30_19,3.1.0,59.94387084867008,
,,,C,G,g,v,R,U,d,L,u,,,,,5,19,119,19,5,0,5,0,,,,,0,23,23,8,,,,,,up,0.9674827080957584,2978.609051437113,None,001,24,2019_Oct_14_1402,ACPT_experiment_5_30_19,3.1.0,59.94387084867008,
,,,C,G,g,v,R,D,g,R,i,,,,,5,19,119,19,5,0,5,0,,,,,0,24,24,3,,,,,,up,0.5337461535814327,2980.86079873896,None,001,24,2019_Oct_14_1402,ACPT_experiment_5_30_19,3.1.0,59.94387084867008,
,,,C,G,g,v,R,U,y,R,u,,,,,5,19,119,19,5,0,5,0,,,,,0,25,25,31,,,,,,down,1.1675674092962254,2982.678879517221,None,001,24,2019_Oct_14_1402,ACPT_experiment_5_30_19,3.1.0,59.94387084867008,
,,,C,G,g,v,R,D,d,L,c,,,,,5,19,119,19,5,0,5,0,,,,,0,26,26,0,,,,,,up,0.46702328105766355,2985.1307432153008,None,001,24,2019_Oct_14_1402,ACPT_experiment_5_30_19,3.1.0,59.94387084867008,
,,,C,G,g,v,L,U,d,L,u,,,,,5,19,119,19,5,0,5,0,,,,,0,27,27,20,,,,,,up,0.5504210609565234,2986.8820845188784,None,001,24,2019_Oct_14_1402,ACPT_experiment_5_30_19,3.1.0,59.94387084867008,
,,,C,G,g,v,L,D,g,L,i,,,,,5,19,119,19,5,0,5,0,,,,,0,28,28,14,,,,,,up,0.5504485299843509,2988.71680639648,None,001,24,2019_Oct_14_1402,ACPT_experiment_5_30_19,3.1.0,59.94387084867008,
,,,C,G,g,v,R,G,y,L,y,,,,,5,19,119,19,5,0,5,0,,,,,0,29,29,28,,,,,,down,0.5837793277150922,2990.5515726471267,None,001,24,2019_Oct_14_1402,ACPT_experiment_5_30_19,3.1.0,59.94387084867008,
,,,C,G,g,v,L,D,y,R,y,,,,,5,19,119,19,5,0,5,0,,,,,0,30,30,33,,,,,,down,0.6171360851867576,2992.419676940083,None,001,24,2019_Oct_14_1402,ACPT_experiment_5_30_19,3.1.0,59.94387084867008,
,,,C,G,g,v,R,U,g,L,u,,,,,5,19,119,19,5,0,5,0,,,,,0,31,31,10,,,,,,up,0.533737097858193,2994.321132858934,None,001,24,2019_Oct_14_1402,ACPT_experiment_5_30_19,3.1.0,59.94387084867008,
,,,C,G,g,v,R,U,g,R,u,,,,,5,19,119,19,5,0,5,0,,,,,0,32,32,11,,,,,,up,0.6835818525714785,2996.13946870674,None,001,24,2019_Oct_14_1402,ACPT_experiment_5_30_19,3.1.0,59.94387084867008,
,,,C,G,g,v,R,D,y,L,y,,,,,5,19,119,19,5,0,5,0,,,,,0,33,33,26,,,,,,down,0.750574887512812,2998.1073728078354,None,001,24,2019_Oct_14_1402,ACPT_experiment_5_30_19,3.1.0,59.94387084867008,
,,,C,G,g,v,L,G,y,L,y,,,,,5,19,119,19,5,0,5,0,,,,,0,34,34,34,,,,,,down,0.6338429894512956,3000.125561832178,None,001,24,2019_Oct_14_1402,ACPT_experiment_5_30_19,3.1.0,59.94387084867008,
,,,C,G,g,v,L,G,y,R,y,,,,,5,19,119,19,5,0,5,0,,,,,0,35,35,35,,,,,,down,1.1676000099009798,3002.027024391893,None,001,24,2019_Oct_14_1402,ACPT_experiment_5_30_19,3.1.0,59.94387084867008,
,,,C,G,g,v,R,D,y,R,y,,,,,5,19,119,19,5,0,5,0,,,,,1,0,36,27,,,,,,down,0.6505260469775749,3004.495610388967,None,001,24,2019_Oct_14_1402,ACPT_experiment_5_30_19,3.1.0,59.94387084867008,
,,,C,G,g,v,R,G,d,L,i,,,,,5,19,119,19,5,0,5,0,,,,,1,1,37,4,,,,,,down,0.40027746736768677,3006.4471314788416,None,001,24,2019_Oct_14_1402,ACPT_experiment_5_30_19,3.1.0,59.94387084867008,
,,,C,G,g,v,R,U,d,L,u,,,,,5,19,119,19,5,0,5,0,,,,,1,2,38,8,,,,,,up,0.4837012070070159,3008.1150568910734,None,001,24,2019_Oct_14_1402,ACPT_experiment_5_30_19,3.1.0,59.94387084867008,
,,,C,G,g,v,L,U,y,R,u,,,,,5,19,119,19,5,0,5,0,,,,,1,3,39,25,,,,,,down,0.7005788418455268,3009.8830534812914,None,001,24,2019_Oct_14_1402,ACPT_experiment_5_30_19,3.1.0,59.94387084867008,
,,,C,G,g,v,R,U,d,R,u,,,,,5,19,119,19,5,0,5,0,,,,,1,4,40,9,,,,,,up,0.600462083383718,3011.867933743497,None,001,24,2019_Oct_14_1402,ACPT_experiment_5_30_19,3.1.0,59.94387084867008,
,,,C,G,g,v,L,U,d,R,u,,,,,5,19,119,19,5,0,5,0,,,,,1,5,41,21,,,,,,up,0.5170670202023757,3013.7527183772627,None,001,24,2019_Oct_14_1402,ACPT_experiment_5_30_19,3.1.0,59.94387084867008,
,,,C,G,g,v,L,D,y,R,y,,,,,5,19,119,19,5,0,5,0,,,,,1,6,42,33,,,,,,down,0.6504979742344403,3015.554123946291,None,001,24,2019_Oct_14_1402,ACPT_experiment_5_30_19,3.1.0,59.94387084867008,
,,,C,G,g,v,L,U,g,R,u,,,,,5,19,119,19,5,0,5,0,,,,,1,7,43,23,,,,,,up,0.6004551406626888,3017.4889160963066,None,001,24,2019_Oct_14_1402,ACPT_experiment_5_30_19,3.1.0,59.94387084867008,
,,,C,G,g,v,L,G,g,L,c ,,,,,5,19,119,19,5,0,5,0,,,,,1,8,44,18,,,,,,up,0.6338475173129154,3019.3736946929234,None,001,24,2019_Oct_14_1402,ACPT_experiment_5_30_19,3.1.0,59.94387084867008,
,,,C,G,g,v,L,G,d,R,i,,,,,5,19,119,19,5,0,5,0,,,,,1,9,45,17,,,,,,up,0.8670634884697392,3021.2921035298605,None,001,24,2019_Oct_14_1402,ACPT_experiment_5_30_19,3.1.0,59.94387084867008,
,,,C,G,g,v,L,D,d,R,c ,,,,,5,19,119,19,5,0,5,0,,,,,1,10,46,13,,,,,,up,0.750547116627331,3023.44350285044,None,001,24,2019_Oct_14_1402,ACPT_experiment_5_30_19,3.1.0,59.94387084867008,
,,,C,G,g,v,R,U,y,R,u,,,,,5,19,119,19,5,0,5,0,,,,,1,11,47,31,,,,,,down,0.6171786470868028,3025.478358632006,None,001,24,2019_Oct_14_1402,ACPT_experiment_5_30_19,3.1.0,59.94387084867008,
,,,C,G,g,v,R,G,g,R,c ,,,,,5,19,119,19,5,0,5,0,,,,,1,12,48,7,,,,,,up,0.5170567570489766,3027.379850170036,None,001,24,2019_Oct_14_1402,ACPT_experiment_5_30_19,3.1.0,59.94387084867008,
,,,C,G,g,v,L,G,y,L,y,,,,,5,19,119,19,5,0,5,0,,,,,1,13,49,34,,,,,,down,0.9840854715403111,3029.1812249496047,None,001,24,2019_Oct_14_1402,ACPT_experiment_5_30_19,3.1.0,59.94387084867008,
,,,C,G,g,v,R,G,y,L,y,,,,,5,19,119,19,5,0,5,0,,,,,1,14,50,28,,,,,,down,0.700342185604768,3031.4664675614927,None,001,24,2019_Oct_14_1402,ACPT_experiment_5_30_19,3.1.0,59.94387084867008,
,,,C,G,g,v,R,U,g,L,u,,,,,5,19,119,19,5,0,5,0,,,,,1,15,51,10,,,,,,up,0.6171330666120411,3033.4678503704695,None,001,24,2019_Oct_14_1402,ACPT_experiment_5_30_19,3.1.0,59.94387084867008,
,,,C,G,g,v,L,U,d,L,u,,,,,5,19,119,19,5,0,5,0,,,,,1,16,52,20,,,,,,up,0.6671755983265939,3035.3693068930356,None,001,24,2019_Oct_14_1402,ACPT_experiment_5_30_19,3.1.0,59.94387084867008,
,,,C,G,g,v,R,D,y,L,y,,,,,5,19,119,19,5,0,5,0,,,,,1,17,53,26,,,,,,down,0.5504231739582792,3037.320805041744,None,001,24,2019_Oct_14_1402,ACPT_experiment_5_30_19,3.1.0,59.94387084867008,
,,,C,G,g,v,R,G,y,R,y,,,,,5,19,119,19,5,0,5,0,,,,,1,18,54,29,,,,,,down,1.1341976719545528,3039.155562236667,None,001,24,2019_Oct_14_1402,ACPT_experiment_5_30_19,3.1.0,59.94387084867008,
,,,C,G,g,v,R,G,d,R,i,,,,,5,19,119,19,5,0,5,0,,,,,1,19,55,5,,,,,,up,0.5504373612589006,3041.5740444249645,None,001,24,2019_Oct_14_1402,ACPT_experiment_5_30_19,3.1.0,59.94387084867008,
,,,C,G,g,v,R,G,g,L,c ,,,,,5,19,119,19,5,0,5,0,,,,,1,20,56,6,,,,,,up,0.9674181106015567,3043.4088109774684,None,001,24,2019_Oct_14_1402,ACPT_experiment_5_30_19,3.1.0,59.94387084867008,
,,,C,G,g,v,L,D,d,L,c ,,,,,5,19,119,19,5,0,5,0,,,,,1,21,57,12,,,,,,up,0.800580592618644,3045.66056371275,None,001,24,2019_Oct_14_1402,ACPT_experiment_5_30_19,3.1.0,59.94387084867008,
,,,C,G,g,v,R,U,y,L,u,,,,,5,19,119,19,5,0,5,0,,,,,1,22,58,30,,,,,,down,1.1842619374056085,3047.7454765151883,None,001,24,2019_Oct_14_1402,ACPT_experiment_5_30_19,3.1.0,59.94387084867008,
,,,C,G,g,v,L,G,g,R,c ,,,,,5,19,119,19,5,0,5,0,,,,,1,23,59,19,,,,,,up,1.2342791130945443,3050.21403564695,None,001,24,2019_Oct_14_1402,ACPT_experiment_5_30_19,3.1.0,59.94387084867008,
,,,C,G,g,v,R,D,d,R,c ,,,,,5,19,119,19,5,0,5,0,,,,,1,24,60,1,,,,,,up,1.0841678182528085,3052.732635197424,None,001,24,2019_Oct_14_1402,ACPT_experiment_5_30_19,3.1.0,59.94387084867008,
,,,C,G,g,v,L,G,d,L,i,,,,,5,19,119,19,5,0,5,0,,,,,1,25,61,16,,,,,,up,1.551190193738421,3055.101120132624,None,001,24,2019_Oct_14_1402,ACPT_experiment_5_30_19,3.1.0,59.94387084867008,
,,,C,G,g,v,L,U,g,L,u,,,,,5,19,119,19,5,0,5,0,,,,,1,26,62,22,,,,,,up,0.5337476628687909,3057.936630461884,None,001,24,2019_Oct_14_1402,ACPT_experiment_5_30_19,3.1.0,59.94387084867008,
,,,C,G,g,v,L,G,y,R,y,,,,,5,19,119,19,5,0,5,0,,,,,1,27,63,35,,,,,,down,0.7339108470059728,3059.7713710546477,None,001,24,2019_Oct_14_1402,ACPT_experiment_5_30_19,3.1.0,59.94387084867008,
