facing_vig,person_vig,text_vig,facing_train,person_train,food_train,correct_key_train,facing_exp,person_exp,food_exp,showL_R,consistent,vig_random.thisRepN,vig_random.thisTrialN,vig_random.thisN,vig_random.thisIndex,trainTrials.thisRepN,trainTrials.thisTrialN,trainTrials.thisN,trainTrials.thisIndex,expBlock.thisRepN,expBlock.thisTrialN,expBlock.thisN,expBlock.thisIndex,breakLoop.thisRepN,breakLoop.thisTrialN,breakLoop.thisN,breakLoop.thisIndex,expTrials.thisRepN,expTrials.thisTrialN,expTrials.thisN,expTrials.thisIndex,train_resp.keys,train_resp.corr,train_resp.rt,train_resp.started,train_resp.stopped,exp_resp.keys,exp_resp.rt,exp_resp.started,exp_resp.stopped,session,participant,date,expName,psychopyVersion,frameRate,
C,D,"is allergic to gluten, meaning she can’t eat wheat products. She enjoys eating dairy products. She thinks eating insects, like crickets, is disgusting.",,,,,,,,,,0,0,0,1,,,,,,,,,,,,,,,,,,,,,,,,,,001,25,2019_Oct_14_1457,ACPT_experiment_5_30_19,3.1.0,59.94972855587233,
C,G,"cannot eat dairy products because she is lactose intolerant. She enjoys eating wheat products. She thinks eating insects, like crickets, is disgusting.",,,,,,,,,,0,1,1,0,,,,,,,,,,,,,,,,,,,,,,,,,,001,25,2019_Oct_14_1457,ACPT_experiment_5_30_19,3.1.0,59.94972855587233,
C,U,"did not report her food preferences, so her food preferences are unknown.",,,,,,,,,,0,2,2,2,,,,,,,,,,,,,,,,,,,,,,,,,,001,25,2019_Oct_14_1457,ACPT_experiment_5_30_19,3.1.0,59.94972855587233,
,,,C,D,d,v,,,,,,,,,,0,0,0,0,,,,,,,,,,,,,b,0,2.2350760167610133,1057.826888978641,None,,,,,001,25,2019_Oct_14_1457,ACPT_experiment_5_30_19,3.1.0,59.94972855587233,
,,,C,U,d,n,,,,,,,,,,0,1,1,15,,,,,,,,,,,,,n,1,2.6186924621961225,1063.347807096186,None,,,,,001,25,2019_Oct_14_1457,ACPT_experiment_5_30_19,3.1.0,59.94972855587233,
,,,C,G,g,v,,,,,,,,,,0,2,2,19,,,,,,,,,,,,,b,0,2.034918567915156,1069.252345583312,None,,,,,001,25,2019_Oct_14_1457,ACPT_experiment_5_30_19,3.1.0,59.94972855587233,
,,,C,D,g,b,,,,,,,,,,0,3,3,10,,,,,,,,,,,,,b,1,2.2517466981325924,1074.5564159499058,None,,,,,001,25,2019_Oct_14_1457,ACPT_experiment_5_30_19,3.1.0,59.94972855587233,
,,,C,U,y,n,,,,,,,,,,0,4,4,8,,,,,,,,,,,,,n,1,2.1683449940874198,1080.0940083711107,None,,,,,001,25,2019_Oct_14_1457,ACPT_experiment_5_30_19,3.1.0,59.94972855587233,
,,,C,G,y,b,,,,,,,,,,0,5,5,5,,,,,,,,,,,,,v,0,1.4010767858944746,1085.5482039179892,None,,,,,001,25,2019_Oct_14_1457,ACPT_experiment_5_30_19,3.1.0,59.94972855587233,
,,,C,G,g,v,,,,,,,,,,0,6,6,4,,,,,,,,,,,,,v,1,2.5986787095716863,1090.2551392740083,None,,,,,001,25,2019_Oct_14_1457,ACPT_experiment_5_30_19,3.1.0,59.94972855587233,
,,,C,G,d,b,,,,,,,,,,0,7,7,3,,,,,,,,,,,,,b,1,2.218402618673281,1096.1229709896875,None,,,,,001,25,2019_Oct_14_1457,ACPT_experiment_5_30_19,3.1.0,59.94972855587233,
,,,C,U,g,n,,,,,,,,,,0,8,8,16,,,,,,,,,,,,,n,1,1.3010279453592375,1101.6439026908179,None,,,,,001,25,2019_Oct_14_1457,ACPT_experiment_5_30_19,3.1.0,59.94972855587233,
,,,C,D,d,v,,,,,,,,,,0,9,9,18,,,,,,,,,,,,,v,1,2.3515416765521877,1106.2477165993218,None,,,,,001,25,2019_Oct_14_1457,ACPT_experiment_5_30_19,3.1.0,59.94972855587233,
,,,C,D,y,b,,,,,,,,,,0,10,10,11,,,,,,,,,,,,,b,1,1.5512098144727133,1111.8684146024148,None,,,,,001,25,2019_Oct_14_1457,ACPT_experiment_5_30_19,3.1.0,59.94972855587233,
,,,C,D,d,v,,,,,,,,,,0,11,11,9,,,,,,,,,,,,,v,1,1.7847499805302505,1116.6887747062779,None,,,,,001,25,2019_Oct_14_1457,ACPT_experiment_5_30_19,3.1.0,59.94972855587233,
,,,C,U,g,n,,,,,,,,,,0,12,12,7,,,,,,,,,,,,,n,1,0.8173031934711616,1121.7593607504418,None,,,,,001,25,2019_Oct_14_1457,ACPT_experiment_5_30_19,3.1.0,59.94972855587233,
,,,C,G,d,b,,,,,,,,,,0,13,13,12,,,,,,,,,,,,,b,1,1.5011588307488637,1125.8625208357103,None,,,,,001,25,2019_Oct_14_1457,ACPT_experiment_5_30_19,3.1.0,59.94972855587233,
,,,C,U,d,n,,,,,,,,,,0,14,14,6,,,,,,,,,,,,,n,1,1.5011515861706357,1130.6495371619726,None,,,,,001,25,2019_Oct_14_1457,ACPT_experiment_5_30_19,3.1.0,59.94972855587233,
,,,C,U,y,n,,,,,,,,,,0,15,15,17,,,,,,,,,,,,,n,1,0.9841352780204033,1135.4198375282463,None,,,,,001,25,2019_Oct_14_1457,ACPT_experiment_5_30_19,3.1.0,59.94972855587233,
,,,C,D,y,b,,,,,,,,,,0,16,16,2,,,,,,,,,,,,,b,1,0.8504184649818853,1139.7067261688067,None,,,,,001,25,2019_Oct_14_1457,ACPT_experiment_5_30_19,3.1.0,59.94972855587233,
,,,C,D,g,b,,,,,,,,,,0,17,17,1,,,,,,,,,,,,,b,1,1.4678295423054806,1143.8262940176078,None,,,,,001,25,2019_Oct_14_1457,ACPT_experiment_5_30_19,3.1.0,59.94972855587233,
,,,C,G,g,v,,,,,,,,,,0,18,18,13,,,,,,,,,,,,,v,1,1.117534838877873,1148.5799674718414,None,,,,,001,25,2019_Oct_14_1457,ACPT_experiment_5_30_19,3.1.0,59.94972855587233,
,,,C,G,y,b,,,,,,,,,,0,19,19,14,,,,,,,,,,,,,b,1,1.0975298401181135,1153.0033584659845,None,,,,,001,25,2019_Oct_14_1457,ACPT_experiment_5_30_19,3.1.0,59.94972855587233,
,,,C,G,d,b,,,,,,,,,,1,0,20,3,,,,,,,,,,,,,b,1,2.368516932089733,1157.370035878776,None,,,,,001,25,2019_Oct_14_1457,ACPT_experiment_5_30_19,3.1.0,59.94972855587233,
,,,C,D,d,v,,,,,,,,,,1,1,21,9,,,,,,,,,,,,,v,1,1.0841669126803026,1163.0244069859468,None,,,,,001,25,2019_Oct_14_1457,ACPT_experiment_5_30_19,3.1.0,59.94972855587233,
,,,C,D,d,v,,,,,,,,,,1,2,22,18,,,,,,,,,,,,,v,1,0.8003765369821849,1167.3946952175515,None,,,,,001,25,2019_Oct_14_1457,ACPT_experiment_5_30_19,3.1.0,59.94972855587233,
,,,C,U,d,n,,,,,,,,,,1,3,23,15,,,,,,,,,,,,,n,1,0.8673393861790828,1171.480902686592,None,,,,,001,25,2019_Oct_14_1457,ACPT_experiment_5_30_19,3.1.0,59.94972855587233,
,,,C,G,y,b,,,,,,,,,,1,4,24,14,,,,,,,,,,,,,b,1,1.0174585293143537,1175.6340914181324,None,,,,,001,25,2019_Oct_14_1457,ACPT_experiment_5_30_19,3.1.0,59.94972855587233,
,,,C,U,y,n,,,,,,,,,,1,5,25,17,,,,,,,,,,,,,b,0,0.6670587794933454,1179.9373968779487,None,,,,,001,25,2019_Oct_14_1457,ACPT_experiment_5_30_19,3.1.0,59.94972855587233,
,,,C,U,g,n,,,,,,,,,,1,6,26,16,,,,,,,,,,,,,n,1,1.3507254540081703,1183.9241009628645,None,,,,,001,25,2019_Oct_14_1457,ACPT_experiment_5_30_19,3.1.0,59.94972855587233,
,,,C,D,g,b,,,,,,,,,,1,7,27,1,,,,,,,,,,,,,b,1,2.7855659012166143,1188.5606676120838,None,,,,,001,25,2019_Oct_14_1457,ACPT_experiment_5_30_19,3.1.0,59.94972855587233,
,,,C,U,g,n,,,,,,,,,,1,8,28,7,,,,,,,,,,,,,b,0,0.750586056238717,1194.6320197704558,None,,,,,001,25,2019_Oct_14_1457,ACPT_experiment_5_30_19,3.1.0,59.94972855587233,
,,,C,G,d,b,,,,,,,,,,1,9,29,12,,,,,,,,,,,,,b,1,1.3342271332412565,1198.6851454741604,None,,,,,001,25,2019_Oct_14_1457,ACPT_experiment_5_30_19,3.1.0,59.94972855587233,
,,,C,D,g,b,,,,,,,,,,1,10,30,10,,,,,,,,,,,,,v,0,1.1175556670423248,1203.3053269991565,None,,,,,001,25,2019_Oct_14_1457,ACPT_experiment_5_30_19,3.1.0,59.94972855587233,
,,,C,G,g,v,,,,,,,,,,1,11,31,19,,,,,,,,,,,,,v,1,1.1142011252031807,1207.7287454623279,None,,,,,001,25,2019_Oct_14_1457,ACPT_experiment_5_30_19,3.1.0,59.94972855587233,
,,,C,G,y,b,,,,,,,,,,1,12,32,5,,,,,,,,,,,,,b,1,2.0015225689758154,1212.112134307246,None,,,,,001,25,2019_Oct_14_1457,ACPT_experiment_5_30_19,3.1.0,59.94972855587233,
,,,C,G,g,v,,,,,,,,,,1,13,33,13,,,,,,,,,,,,,b,0,1.8013959095906102,1217.3828642166704,None,,,,,001,25,2019_Oct_14_1457,ACPT_experiment_5_30_19,3.1.0,59.94972855587233,
,,,C,D,y,b,,,,,,,,,,1,14,34,11,,,,,,,,,,,,,b,1,1.000810487252238,1222.4700720412989,None,,,,,001,25,2019_Oct_14_1457,ACPT_experiment_5_30_19,3.1.0,59.94972855587233,
,,,C,G,g,v,,,,,,,,,,1,15,35,4,,,,,,,,,,,,,v,1,1.1504997853789973,1226.7737838012422,None,,,,,001,25,2019_Oct_14_1457,ACPT_experiment_5_30_19,3.1.0,59.94972855587233,
,,,C,U,y,n,,,,,,,,,,1,16,36,8,,,,,,,,,,,,,b,0,0.7839434174247799,1231.210124178118,None,,,,,001,25,2019_Oct_14_1457,ACPT_experiment_5_30_19,3.1.0,59.94972855587233,
,,,C,U,d,n,,,,,,,,,,1,17,37,6,,,,,,,,,,,,,n,1,1.0839067115593934,1235.2801895181815,None,,,,,001,25,2019_Oct_14_1457,ACPT_experiment_5_30_19,3.1.0,59.94972855587233,
,,,C,D,d,v,,,,,,,,,,1,18,38,0,,,,,,,,,,,,,b,0,1.567906757441051,1239.6499123707822,None,,,,,001,25,2019_Oct_14_1457,ACPT_experiment_5_30_19,3.1.0,59.94972855587233,
,,,C,D,y,b,,,,,,,,,,1,19,39,2,,,,,,,,,,,,,b,1,0.8673393861790828,1244.4869999052166,None,,,,,001,25,2019_Oct_14_1457,ACPT_experiment_5_30_19,3.1.0,59.94972855587233,
,,,C,G,d,b,,,,,,,,,,2,0,40,3,,,,,,,,,,,,,b,1,1.1341913329479212,1248.6402022203424,None,,,,,001,25,2019_Oct_14_1457,ACPT_experiment_5_30_19,3.1.0,59.94972855587233,
,,,C,G,g,v,,,,,,,,,,2,1,41,4,,,,,,,,,,,,,v,1,1.0675016647437587,1253.0435586336966,None,,,,,001,25,2019_Oct_14_1457,ACPT_experiment_5_30_19,3.1.0,59.94972855587233,
,,,C,G,g,v,,,,,,,,,,2,2,42,19,,,,,,,,,,,,,v,1,0.8840004081112056,1257.3969292645365,None,,,,,001,25,2019_Oct_14_1457,ACPT_experiment_5_30_19,3.1.0,59.94972855587233,
,,,C,G,d,b,,,,,,,,,,2,3,43,12,,,,,,,,,,,,,b,1,0.9174069720620537,1261.5500690951699,None,,,,,001,25,2019_Oct_14_1457,ACPT_experiment_5_30_19,3.1.0,59.94972855587233,
,,,C,U,d,n,,,,,,,,,,2,4,44,15,,,,,,,,,,,,,n,1,0.6500850332431583,1265.7704036015216,None,,,,,001,25,2019_Oct_14_1457,ACPT_experiment_5_30_19,3.1.0,59.94972855587233,
,,,C,G,y,b,,,,,,,,,,2,5,45,14,,,,,,,,,,,,,b,1,1.084176873976503,1269.7063606194356,None,,,,,001,25,2019_Oct_14_1457,ACPT_experiment_5_30_19,3.1.0,59.94972855587233,
,,,C,U,g,n,,,,,,,,,,2,6,46,16,,,,,,,,,,,,,n,1,1.033861161270579,1274.0933391531448,None,,,,,001,25,2019_Oct_14_1457,ACPT_experiment_5_30_19,3.1.0,59.94972855587233,
,,,C,U,y,n,,,,,,,,,,2,7,47,17,,,,,,,,,,,,,n,1,0.8840124824091617,1278.4130490560615,None,,,,,001,25,2019_Oct_14_1457,ACPT_experiment_5_30_19,3.1.0,59.94972855587233,
,,,C,G,y,b,,,,,,,,,,2,8,48,5,,,,,,,,,,,,,b,1,1.1506371305185894,1282.616523616421,None,,,,,001,25,2019_Oct_14_1457,ACPT_experiment_5_30_19,3.1.0,59.94972855587233,
,,,C,U,y,n,,,,,,,,,,2,9,49,8,,,,,,,,,,,,,n,1,0.5170633979123522,1287.053025788889,None,,,,,001,25,2019_Oct_14_1457,ACPT_experiment_5_30_19,3.1.0,59.94972855587233,
,,,C,G,g,v,,,,,,,,,,2,10,50,13,,,,,,,,,,,,,v,1,0.867366855207365,1290.8726143451108,None,,,,,001,25,2019_Oct_14_1457,ACPT_experiment_5_30_19,3.1.0,59.94972855587233,
,,,C,D,g,b,,,,,,,,,,2,11,51,1,,,,,,,,,,,,,b,1,0.9006997659398621,1295.0258142453772,None,,,,,001,25,2019_Oct_14_1457,ACPT_experiment_5_30_19,3.1.0,59.94972855587233,
,,,C,D,d,v,,,,,,,,,,2,12,52,18,,,,,,,,,,,,,v,1,1.4978272300777462,1299.232375901874,None,,,,,001,25,2019_Oct_14_1457,ACPT_experiment_5_30_19,3.1.0,59.94972855587233,
,,,C,U,d,n,,,,,,,,,,2,13,53,6,,,,,,,,,,,,,n,1,0.7339023949971306,1304.0160503643115,None,,,,,001,25,2019_Oct_14_1457,ACPT_experiment_5_30_19,3.1.0,59.94972855587233,
,,,C,U,g,n,,,,,,,,,,2,14,54,7,,,,,,,,,,,,,n,1,0.5003779255266636,1308.035815084541,None,,,,,001,25,2019_Oct_14_1457,ACPT_experiment_5_30_19,3.1.0,59.94972855587233,
,,,C,D,g,b,,,,,,,,,,2,15,55,10,,,,,,,,,,,,,b,1,1.017412345124285,1311.822086728475,None,,,,,001,25,2019_Oct_14_1457,ACPT_experiment_5_30_19,3.1.0,59.94972855587233,
,,,C,D,d,v,,,,,,,,,,2,16,56,0,,,,,,,,,,,,,v,1,1.1339504507031961,1316.1256243166704,None,,,,,001,25,2019_Oct_14_1457,ACPT_experiment_5_30_19,3.1.0,59.94972855587233,
,,,C,D,y,b,,,,,,,,,,2,17,57,2,,,,,,,,,,,,,b,1,0.9007142550972276,1320.5287350180602,None,,,,,001,25,2019_Oct_14_1457,ACPT_experiment_5_30_19,3.1.0,59.94972855587233,
,,,C,D,d,v,,,,,,,,,,2,18,58,9,,,,,,,,,,,,,v,1,2.1180359222435072,1324.7155536880641,None,,,,,001,25,2019_Oct_14_1457,ACPT_experiment_5_30_19,3.1.0,59.94972855587233,
,,,C,D,y,b,,,,,,,,,,2,19,59,11,,,,,,,,,,,,,b,1,0.9006976529371968,1330.1194314092331,None,,,,,001,25,2019_Oct_14_1457,ACPT_experiment_5_30_19,3.1.0,59.94972855587233,
,,,C,U,g,n,,,,,,,,,,3,0,60,16,,,,,,,,,,,,,n,1,0.6169021456635164,1334.339580575111,None,,,,,001,25,2019_Oct_14_1457,ACPT_experiment_5_30_19,3.1.0,59.94972855587233,
,,,C,G,d,b,,,,,,,,,,3,1,61,12,,,,,,,,,,,,,v,0,1.1342037091035309,1338.2423480645807,None,,,,,001,25,2019_Oct_14_1457,ACPT_experiment_5_30_19,3.1.0,59.94972855587233,
,,,C,D,d,v,,,,,,,,,,3,2,62,9,,,,,,,,,,,,,v,1,1.4842086293801913,1342.6793519241296,None,,,,,001,25,2019_Oct_14_1457,ACPT_experiment_5_30_19,3.1.0,59.94972855587233,
,,,C,G,d,b,,,,,,,,,,3,3,63,3,,,,,,,,,,,,,v,0,1.7847083242013468,1347.4494138230189,None,,,,,001,25,2019_Oct_14_1457,ACPT_experiment_5_30_19,3.1.0,59.94972855587233,
,,,C,D,g,b,,,,,,,,,,3,4,64,10,,,,,,,,,,,,,b,1,1.3510360653235693,1352.519976624159,None,,,,,001,25,2019_Oct_14_1457,ACPT_experiment_5_30_19,3.1.0,59.94972855587233,
,,,C,U,d,n,,,,,,,,,,3,5,65,15,,,,,,,,,,,,,n,1,0.4667956805405993,1357.1737871820455,None,,,,,001,25,2019_Oct_14_1457,ACPT_experiment_5_30_19,3.1.0,59.94972855587233,
,,,C,D,g,b,,,,,,,,,,3,6,66,1,,,,,,,,,,,,,b,1,1.901468596864106,1360.9264313023764,None,,,,,001,25,2019_Oct_14_1457,ACPT_experiment_5_30_19,3.1.0,59.94972855587233,
,,,C,U,g,n,,,,,,,,,,3,7,67,7,,,,,,,,,,,,,n,1,0.6004750632546347,1366.1137438111678,None,,,,,001,25,2019_Oct_14_1457,ACPT_experiment_5_30_19,3.1.0,59.94972855587233,
,,,C,G,y,b,,,,,,,,,,3,8,68,14,,,,,,,,,,,,,b,1,2.3680964446621147,1370.0171385604176,None,,,,,001,25,2019_Oct_14_1457,ACPT_experiment_5_30_19,3.1.0,59.94972855587233,
,,,C,U,y,n,,,,,,,,,,3,9,69,17,,,,,,,,,,,,,n,1,0.5837618199830104,1375.6711091027532,None,,,,,001,25,2019_Oct_14_1457,ACPT_experiment_5_30_19,3.1.0,59.94972855587233,
,,,C,D,d,v,,,,,,,,,,3,10,70,0,,,,,,,,,,,,,v,1,1.817809106556524,1379.5743496028458,None,,,,,001,25,2019_Oct_14_1457,ACPT_experiment_5_30_19,3.1.0,59.94972855587233,
,,,C,D,y,b,,,,,,,,,,3,11,71,2,,,,,,,,,,,,,b,1,0.8673330471719964,1384.6780062436196,None,,,,,001,25,2019_Oct_14_1457,ACPT_experiment_5_30_19,3.1.0,59.94972855587233,
,,,C,U,d,n,,,,,,,,,,3,12,72,6,,,,,,,,,,,,,n,1,0.5471151181682217,1388.884563674112,None,,,,,001,25,2019_Oct_14_1457,ACPT_experiment_5_30_19,3.1.0,59.94972855587233,
,,,C,D,d,v,,,,,,,,,,3,13,73,18,,,,,,,,,,,,,v,1,0.8673375750349805,1392.7175145540573,None,,,,,001,25,2019_Oct_14_1457,ACPT_experiment_5_30_19,3.1.0,59.94972855587233,
,,,C,U,y,n,,,,,,,,,,3,14,74,8,,,,,,,,,,,,,n,1,0.5668620288079183,1396.8876522795367,None,,,,,001,25,2019_Oct_14_1457,ACPT_experiment_5_30_19,3.1.0,59.94972855587233,
,,,C,G,g,v,,,,,,,,,,3,15,75,19,,,,,,,,,,,,,b,0,3.052364419217156,1400.7403398069678,None,,,,,001,25,2019_Oct_14_1457,ACPT_experiment_5_30_19,3.1.0,59.94972855587233,
,,,C,G,g,v,,,,,,,,,,3,16,76,4,,,,,,,,,,,,,v,1,0.9340870110136166,1407.0618367059865,None,,,,,001,25,2019_Oct_14_1457,ACPT_experiment_5_30_19,3.1.0,59.94972855587233,
,,,C,G,y,b,,,,,,,,,,3,17,77,5,,,,,,,,,,,,,b,1,1.1142023326337949,1411.3017813815536,None,,,,,001,25,2019_Oct_14_1457,ACPT_experiment_5_30_19,3.1.0,59.94972855587233,
,,,C,G,g,v,,,,,,,,,,3,18,78,13,,,,,,,,,,,,,v,1,0.917409386921463,1415.6851478890198,None,,,,,001,25,2019_Oct_14_1457,ACPT_experiment_5_30_19,3.1.0,59.94972855587233,
,,,C,D,y,b,,,,,,,,,,3,19,79,11,,,,,,,,,,,,,b,1,0.933609170670934,1419.9054854139463,None,,,,,001,25,2019_Oct_14_1457,ACPT_experiment_5_30_19,3.1.0,59.94972855587233,
,,,C,U,d,n,,,,,,,,,,4,0,80,6,,,,,,,,,,,,,n,1,0.500395433259655,1424.1249671730025,None,,,,,001,25,2019_Oct_14_1457,ACPT_experiment_5_30_19,3.1.0,59.94972855587233,
,,,C,D,d,v,,,,,,,,,,4,1,81,0,,,,,,,,,,,,,b,0,1.1342248391247267,1427.9278768977024,None,,,,,001,25,2019_Oct_14_1457,ACPT_experiment_5_30_19,3.1.0,59.94972855587233,
,,,C,D,y,b,,,,,,,,,,4,2,82,11,,,,,,,,,,,,,b,1,0.7672615673282053,1432.3479516859038,None,,,,,001,25,2019_Oct_14_1457,ACPT_experiment_5_30_19,3.1.0,59.94972855587233,
,,,C,G,g,v,,,,,,,,,,4,3,83,19,,,,,,,,,,,,,v,1,3.4190481710156746,1436.4179983108056,None,,,,,001,25,2019_Oct_14_1457,ACPT_experiment_5_30_19,3.1.0,59.94972855587233,
,,,C,U,y,n,,,,,,,,,,4,4,84,8,,,,,,,,,,,,,n,1,0.6004753651113788,1443.1228909974639,None,,,,,001,25,2019_Oct_14_1457,ACPT_experiment_5_30_19,3.1.0,59.94972855587233,
,,,C,U,g,n,,,,,,,,,,4,5,85,7,,,,,,,,,,,,,n,1,1.0308181363197946,1447.029216480692,None,,,,,001,25,2019_Oct_14_1457,ACPT_experiment_5_30_19,3.1.0,59.94972855587233,
,,,C,D,d,v,,,,,,,,,,4,6,86,18,,,,,,,,,,,,,b,0,1.6846564650923028,1451.3458730955058,None,,,,,001,25,2019_Oct_14_1457,ACPT_experiment_5_30_19,3.1.0,59.94972855587233,
,,,C,D,g,b,,,,,,,,,,4,7,87,10,,,,,,,,,,,,,b,1,0.9006997659398621,1456.2996843778506,None,,,,,001,25,2019_Oct_14_1457,ACPT_experiment_5_30_19,3.1.0,59.94972855587233,
,,,C,G,d,b,,,,,,,,,,4,8,88,12,,,,,,,,,,,,,b,1,1.1342136703997312,1460.4862238297133,None,,,,,001,25,2019_Oct_14_1457,ACPT_experiment_5_30_19,3.1.0,59.94972855587233,
,,,C,G,g,v,,,,,,,,,,4,9,89,13,,,,,,,,,,,,,v,1,0.9173819178931808,1464.889604693521,None,,,,,001,25,2019_Oct_14_1457,ACPT_experiment_5_30_19,3.1.0,59.94972855587233,
,,,C,G,y,b,,,,,,,,,,4,10,90,5,,,,,,,,,,,,,b,1,0.9171096424743155,1469.0931055154792,None,,,,,001,25,2019_Oct_14_1457,ACPT_experiment_5_30_19,3.1.0,59.94972855587233,
,,,C,D,d,v,,,,,,,,,,4,11,91,9,,,,,,,,,,,,,v,1,1.6345952182155088,1473.296064503315,None,,,,,001,25,2019_Oct_14_1457,ACPT_experiment_5_30_19,3.1.0,59.94972855587233,
,,,C,G,y,b,,,,,,,,,,4,12,92,14,,,,,,,,,,,,,b,1,0.8673659496344044,1478.216508765035,None,,,,,001,25,2019_Oct_14_1457,ACPT_experiment_5_30_19,3.1.0,59.94972855587233,
,,,C,U,g,n,,,,,,,,,,4,13,93,16,,,,,,,,,,,,,n,1,1.7177240431274186,1482.3866621871025,None,,,,,001,25,2019_Oct_14_1457,ACPT_experiment_5_30_19,3.1.0,59.94972855587233,
,,,C,D,y,b,,,,,,,,,,4,14,94,2,,,,,,,,,,,,,b,1,0.7672555301787725,1487.3902207845754,None,,,,,001,25,2019_Oct_14_1457,ACPT_experiment_5_30_19,3.1.0,59.94972855587233,
,,,C,U,y,n,,,,,,,,,,4,15,95,17,,,,,,,,,,,,,n,1,1.1339682602929315,1491.4602586556116,None,,,,,001,25,2019_Oct_14_1457,ACPT_experiment_5_30_19,3.1.0,59.94972855587233,
,,,C,G,d,b,,,,,,,,,,4,16,96,3,,,,,,,,,,,,,b,1,1.7680198332418513,1495.8800792798406,None,,,,,001,25,2019_Oct_14_1457,ACPT_experiment_5_30_19,3.1.0,59.94972855587233,
,,,C,U,d,n,,,,,,,,,,4,17,97,15,,,,,,,,,,,,,n,1,0.683888841598673,1500.9339560048807,None,,,,,001,25,2019_Oct_14_1457,ACPT_experiment_5_30_19,3.1.0,59.94972855587233,
,,,C,G,g,v,,,,,,,,,,4,18,98,4,,,,,,,,,,,,,v,1,1.300546784584185,1504.9207859643534,None,,,,,001,25,2019_Oct_14_1457,ACPT_experiment_5_30_19,3.1.0,59.94972855587233,
,,,C,D,g,b,,,,,,,,,,4,19,99,1,,,,,,,,,,,,,b,1,1.2342920929650063,1509.4905295243748,None,,,,,001,25,2019_Oct_14_1457,ACPT_experiment_5_30_19,3.1.0,59.94972855587233,
,,,C,U,g,n,,,,,,,,,,5,0,100,16,,,,,,,,,,,,,n,1,0.7003198481534127,1514.0275906764687,None,,,,,001,25,2019_Oct_14_1457,ACPT_experiment_5_30_19,3.1.0,59.94972855587233,
,,,C,D,d,v,,,,,,,,,,5,1,101,0,,,,,,,,,,,,,v,1,2.602011517673418,1518.0137384381046,None,,,,,001,25,2019_Oct_14_1457,ACPT_experiment_5_30_19,3.1.0,59.94972855587233,
,,,C,G,y,b,,,,,,,,,,5,2,102,5,,,,,,,,,,,,,b,1,0.8339799119903546,1523.901594169563,None,,,,,001,25,2019_Oct_14_1457,ACPT_experiment_5_30_19,3.1.0,59.94972855587233,
,,,C,U,g,n,,,,,,,,,,5,3,103,7,,,,,,,,,,,,,n,1,0.5168282509594064,1528.0383464611136,None,,,,,001,25,2019_Oct_14_1457,ACPT_experiment_5_30_19,3.1.0,59.94972855587233,
,,,C,U,y,n,,,,,,,,,,5,4,104,8,,,,,,,,,,,,,b,0,0.7839669623062946,1531.8243204736023,None,,,,,001,25,2019_Oct_14_1457,ACPT_experiment_5_30_19,3.1.0,59.94972855587233,
,,,C,U,d,n,,,,,,,,,,5,5,105,6,,,,,,,,,,,,,n,1,0.5471015345829073,1535.914140572599,None,,,,,001,25,2019_Oct_14_1457,ACPT_experiment_5_30_19,3.1.0,59.94972855587233,
,,,C,D,g,b,,,,,,,,,,5,6,106,10,,,,,,,,,,,,,b,1,2.4852446041468284,1539.7470986971225,None,,,,,001,25,2019_Oct_14_1457,ACPT_experiment_5_30_19,3.1.0,59.94972855587233,
,,,C,D,g,b,,,,,,,,,,5,7,107,1,,,,,,,,,,,,,b,1,0.8673233877343591,1545.5015313228419,None,,,,,001,25,2019_Oct_14_1457,ACPT_experiment_5_30_19,3.1.0,59.94972855587233,
,,,C,D,y,b,,,,,,,,,,5,8,108,2,,,,,,,,,,,,,b,1,0.9640913396497126,1549.6747036212632,None,,,,,001,25,2019_Oct_14_1457,ACPT_experiment_5_30_19,3.1.0,59.94972855587233,
,,,C,D,d,v,,,,,,,,,,5,9,109,9,,,,,,,,,,,,,v,1,0.8173149659114642,1553.907954004169,None,,,,,001,25,2019_Oct_14_1457,ACPT_experiment_5_30_19,3.1.0,59.94972855587233,
,,,C,G,y,b,,,,,,,,,,5,10,110,14,,,,,,,,,,,,,b,1,0.8673267081658196,1558.0278122398363,None,,,,,001,25,2019_Oct_14_1457,ACPT_experiment_5_30_19,3.1.0,59.94972855587233,
,,,C,G,d,b,,,,,,,,,,5,11,111,12,,,,,,,,,,,,,b,1,2.8522118000901173,1562.1809843692176,None,,,,,001,25,2019_Oct_14_1457,ACPT_experiment_5_30_19,3.1.0,59.94972855587233,
,,,C,U,d,n,,,,,,,,,,5,12,112,15,,,,,,,,,,,,,n,1,0.6004611778116669,1568.3190379682333,None,,,,,001,25,2019_Oct_14_1457,ACPT_experiment_5_30_19,3.1.0,59.94972855587233,
,,,C,D,d,v,,,,,,,,,,5,13,113,18,,,,,,,,,,,,,v,1,1.3007571792268209,1572.2223113707892,None,,,,,001,25,2019_Oct_14_1457,ACPT_experiment_5_30_19,3.1.0,59.94972855587233,
,,,C,G,d,b,,,,,,,,,,5,14,114,3,,,,,,,,,,,,,b,1,0.8173107399070432,1576.8088892189194,None,,,,,001,25,2019_Oct_14_1457,ACPT_experiment_5_30_19,3.1.0,59.94972855587233,
,,,C,G,g,v,,,,,,,,,,5,15,115,13,,,,,,,,,,,,,v,1,0.967152476046067,1580.9123076941655,None,,,,,001,25,2019_Oct_14_1457,ACPT_experiment_5_30_19,3.1.0,59.94972855587233,
,,,C,D,y,b,,,,,,,,,,5,16,116,11,,,,,,,,,,,,,b,1,0.9507290159262993,1585.1653074025712,None,,,,,001,25,2019_Oct_14_1457,ACPT_experiment_5_30_19,3.1.0,59.94972855587233,
,,,C,G,g,v,,,,,,,,,,5,17,117,19,,,,,,,,,,,,,v,1,2.0182859205833665,1589.4018908954363,None,,,,,001,25,2019_Oct_14_1457,ACPT_experiment_5_30_19,3.1.0,59.94972855587233,
,,,C,U,y,n,,,,,,,,,,5,18,118,17,,,,,,,,,,,,,n,1,0.6505067281004813,1594.7059676010363,None,,,,,001,25,2019_Oct_14_1457,ACPT_experiment_5_30_19,3.1.0,59.94972855587233,
,,,C,G,g,v,,,,,,,,,,5,19,119,4,,,,,,,,,,,,,v,1,0.9171199056272599,1598.6592590848527,None,,,,,001,25,2019_Oct_14_1457,ACPT_experiment_5_30_19,3.1.0,59.94972855587233,
,,,C,D,d,v,,,,,,,,,,6,0,120,18,,,,,,,,,,,,,v,1,1.8347496484866497,1602.862226826555,None,,,,,001,25,2019_Oct_14_1457,ACPT_experiment_5_30_19,3.1.0,59.94972855587233,
,,,C,G,g,v,,,,,,,,,,6,1,121,4,,,,,,,,,,,,,v,1,1.9181519562471294,1607.9828240092588,None,,,,,001,25,2019_Oct_14_1457,ACPT_experiment_5_30_19,3.1.0,59.94972855587233,
,,,C,U,y,n,,,,,,,,,,6,2,122,17,,,,,,,,,,,,,n,1,0.7339214120165707,1613.1868234997232,None,,,,,001,25,2019_Oct_14_1457,ACPT_experiment_5_30_19,3.1.0,59.94972855587233,
,,,C,D,g,b,,,,,,,,,,6,3,123,10,,,,,,,,,,,,,b,1,2.48501006090828,1617.2234973687086,None,,,,,001,25,2019_Oct_14_1457,ACPT_experiment_5_30_19,3.1.0,59.94972855587233,
,,,C,D,y,b,,,,,,,,,,6,4,124,2,,,,,,,,,,,,,b,1,0.9173773900320157,1622.9776743211683,None,,,,,001,25,2019_Oct_14_1457,ACPT_experiment_5_30_19,3.1.0,59.94972855587233,
,,,C,U,y,n,,,,,,,,,,6,5,125,8,,,,,,,,,,,,,n,1,0.5835465956215558,1627.1978198647553,None,,,,,001,25,2019_Oct_14_1457,ACPT_experiment_5_30_19,3.1.0,59.94972855587233,
,,,C,G,g,v,,,,,,,,,,6,6,126,13,,,,,,,,,,,,,v,1,0.8339811194200593,1631.0672188243138,None,,,,,001,25,2019_Oct_14_1457,ACPT_experiment_5_30_19,3.1.0,59.94972855587233,
,,,C,D,y,b,,,,,,,,,,6,7,127,11,,,,,,,,,,,,,b,1,1.067482044009921,1635.2037417042025,None,,,,,001,25,2019_Oct_14_1457,ACPT_experiment_5_30_19,3.1.0,59.94972855587233,
,,,C,D,g,b,,,,,,,,,,6,8,128,1,,,,,,,,,,,,,b,1,1.6345876717796273,1639.5570842622997,None,,,,,001,25,2019_Oct_14_1457,ACPT_experiment_5_30_19,3.1.0,59.94972855587233,
,,,C,G,y,b,,,,,,,,,,6,9,129,14,,,,,,,,,,,,,b,1,0.867374099785593,1644.4775176571516,None,,,,,001,25,2019_Oct_14_1457,ACPT_experiment_5_30_19,3.1.0,59.94972855587233,
,,,C,U,g,n,,,,,,,,,,6,10,130,16,,,,,,,,,,,,,n,1,0.600203391550167,1648.6476532696292,None,,,,,001,25,2019_Oct_14_1457,ACPT_experiment_5_30_19,3.1.0,59.94972855587233,
,,,C,U,d,n,,,,,,,,,,6,11,131,15,,,,,,,,,,,,,n,1,0.9340547122665157,1652.5170241564442,None,,,,,001,25,2019_Oct_14_1457,ACPT_experiment_5_30_19,3.1.0,59.94972855587233,
,,,C,G,g,v,,,,,,,,,,6,12,132,19,,,,,,,,,,,,,v,1,1.4008274516409074,1656.7538814340164,None,,,,,001,25,2019_Oct_14_1457,ACPT_experiment_5_30_19,3.1.0,59.94972855587233,
,,,C,U,g,n,,,,,,,,,,6,13,133,7,,,,,,,,,,,,,n,1,0.6338254817192137,1661.4405476660081,None,,,,,001,25,2019_Oct_14_1457,ACPT_experiment_5_30_19,3.1.0,59.94972855587233,
,,,C,G,y,b,,,,,,,,,,6,14,134,5,,,,,,,,,,,,,b,1,0.7836654067132258,1665.377173901888,None,,,,,001,25,2019_Oct_14_1457,ACPT_experiment_5_30_19,3.1.0,59.94972855587233,
,,,C,G,d,b,,,,,,,,,,6,15,135,3,,,,,,,,,,,,,b,1,1.4177879161634337,1669.4299874849899,None,,,,,001,25,2019_Oct_14_1457,ACPT_experiment_5_30_19,3.1.0,59.94972855587233,
,,,C,D,d,v,,,,,,,,,,6,16,136,9,0,0,0,0,0,0,0,0,,,,,v,1,1.7677641599821072,1674.150575249742,None,,,,,001,25,2019_Oct_14_1457,ACPT_experiment_5_30_19,3.1.0,59.94972855587233,
,,,C,D,d,v,L,D,y,L,y,,,,,6,16,136,9,0,0,0,0,,,,,0,0,0,32,,,,,,down,1.0478253887467872,1731.6807917841647,None,001,25,2019_Oct_14_1457,ACPT_experiment_5_30_19,3.1.0,59.94972855587233,
,,,C,D,d,v,R,U,d,L,u,,,,,6,16,136,9,0,0,0,0,,,,,0,1,1,8,,,,,,up,0.8006062505019145,1734.0129424400106,None,001,25,2019_Oct_14_1457,ACPT_experiment_5_30_19,3.1.0,59.94972855587233,
,,,C,D,d,v,R,D,g,R,i,,,,,6,16,136,9,0,0,0,0,,,,,0,2,2,3,,,,,,up,0.9006907102157129,1736.0978745613252,None,001,25,2019_Oct_14_1457,ACPT_experiment_5_30_19,3.1.0,59.94972855587233,
,,,C,D,d,v,R,D,d,L,c,,,,,6,16,136,9,0,0,0,0,,,,,0,3,3,0,,,,,,up,1.23430477097736,1738.2661809176584,None,001,25,2019_Oct_14_1457,ACPT_experiment_5_30_19,3.1.0,59.94972855587233,
,,,C,D,d,v,L,G,g,L,c ,,,,,6,16,136,9,0,0,0,0,,,,,0,4,4,18,,,,,,up,0.8673245951640638,1740.7848085408755,None,001,25,2019_Oct_14_1457,ACPT_experiment_5_30_19,3.1.0,59.94972855587233,
,,,C,D,d,v,R,G,y,L,y,,,,,6,16,136,9,0,0,0,0,,,,,0,5,5,28,,,,,,down,0.6004581592369505,1742.9364587049954,None,001,25,2019_Oct_14_1457,ACPT_experiment_5_30_19,3.1.0,59.94972855587233,
,,,C,D,d,v,L,D,d,L,c ,,,,,6,16,136,9,0,0,0,0,,,,,0,6,6,12,,,,,,up,0.8506382172054145,1744.8212448480476,None,001,25,2019_Oct_14_1457,ACPT_experiment_5_30_19,3.1.0,59.94972855587233,
,,,C,D,d,v,L,D,g,R,i,,,,,6,16,136,9,0,0,0,0,,,,,0,7,7,15,,,,,,up,1.3009974577571484,1746.956215878788,None,001,25,2019_Oct_14_1457,ACPT_experiment_5_30_19,3.1.0,59.94972855587233,
,,,C,D,d,v,L,G,d,R,i,,,,,6,16,136,9,0,0,0,0,,,,,0,8,8,17,,,,,,up,0.6171535929188394,1749.5415090216134,None,001,25,2019_Oct_14_1457,ACPT_experiment_5_30_19,3.1.0,59.94972855587233,
,,,C,D,d,v,R,D,d,R,c ,,,,,6,16,136,9,0,0,0,0,,,,,0,9,9,1,,,,,,up,0.6004352180707428,1751.4430072005075,None,001,25,2019_Oct_14_1457,ACPT_experiment_5_30_19,3.1.0,59.94972855587233,
,,,C,D,d,v,L,U,g,L,u,,,,,6,16,136,9,0,0,0,0,,,,,0,10,10,22,,,,,,up,1.0341533592809355,1753.3277704023944,None,001,25,2019_Oct_14_1457,ACPT_experiment_5_30_19,3.1.0,59.94972855587233,
,,,C,D,d,v,L,G,g,R,c ,,,,,6,16,136,9,0,0,0,0,,,,,0,11,11,19,,,,,,up,0.5837799314303993,1755.6462188430282,None,001,25,2019_Oct_14_1457,ACPT_experiment_5_30_19,3.1.0,59.94972855587233,
,,,C,D,d,v,R,U,y,L,u,,,,,6,16,136,9,0,0,0,0,,,,,0,12,12,30,,,,,,down,0.6335692047441626,1757.531270016922,None,001,25,2019_Oct_14_1457,ACPT_experiment_5_30_19,3.1.0,59.94972855587233,
,,,C,D,d,v,R,U,d,R,u,,,,,6,16,136,9,0,0,0,0,,,,,0,13,13,9,,,,,,up,0.6171397074758715,1759.4491355104497,None,001,25,2019_Oct_14_1457,ACPT_experiment_5_30_19,3.1.0,59.94972855587233,
,,,C,D,d,v,R,U,g,L,u,,,,,6,16,136,9,0,0,0,0,,,,,0,14,14,10,,,,,,up,0.7339171860130591,1761.333898410479,None,001,25,2019_Oct_14_1457,ACPT_experiment_5_30_19,3.1.0,59.94972855587233,
,,,C,D,d,v,L,U,d,L,u,,,,,6,16,136,9,0,0,0,0,,,,,0,15,15,20,,,,,,up,0.6671743908964345,1763.3521369394434,None,001,25,2019_Oct_14_1457,ACPT_experiment_5_30_19,3.1.0,59.94972855587233,
,,,C,D,d,v,R,D,g,L,i,,,,,6,16,136,9,0,0,0,0,,,,,0,16,16,2,,,,,,up,0.5171029412385906,1765.3036323714346,None,001,25,2019_Oct_14_1457,ACPT_experiment_5_30_19,3.1.0,59.94972855587233,
,,,C,D,d,v,L,U,y,R,u,,,,,6,16,136,9,0,0,0,0,,,,,0,17,17,25,,,,,,down,0.7172148096087767,1767.1050143955813,None,001,25,2019_Oct_14_1457,ACPT_experiment_5_30_19,3.1.0,59.94972855587233,
,,,C,D,d,v,L,U,g,R,u,,,,,6,16,136,9,0,0,0,0,,,,,0,18,18,23,,,,,,up,0.717209979889958,1769.1065532648595,None,001,25,2019_Oct_14_1457,ACPT_experiment_5_30_19,3.1.0,59.94972855587233,
,,,C,D,d,v,L,G,y,L,y,,,,,6,16,136,9,0,0,0,0,,,,,0,19,19,34,,,,,,down,0.6504892203683994,1771.108096360142,None,001,25,2019_Oct_14_1457,ACPT_experiment_5_30_19,3.1.0,59.94972855587233,
,,,C,D,d,v,R,G,y,R,y,,,,,6,16,136,9,0,0,0,0,,,,,0,20,20,29,,,,,,down,0.6671765038990998,1773.0262311105157,None,001,25,2019_Oct_14_1457,ACPT_experiment_5_30_19,3.1.0,59.94972855587233,
,,,C,D,d,v,R,D,y,L,y,,,,,6,16,136,9,0,0,0,0,,,,,0,21,21,26,,,,,,down,0.6671909930573747,1774.9777186942133,None,001,25,2019_Oct_14_1457,ACPT_experiment_5_30_19,3.1.0,59.94972855587233,
,,,C,D,d,v,R,G,g,L,c ,,,,,6,16,136,9,0,0,0,0,,,,,0,22,22,6,,,,,,up,0.5971247474208212,1776.949237840125,None,001,25,2019_Oct_14_1457,ACPT_experiment_5_30_19,3.1.0,59.94972855587233,
,,,C,D,d,v,L,D,y,R,y,,,,,6,16,136,9,0,0,0,0,,,,,0,23,23,33,,,,,,down,0.850674440099283,1778.8306652153356,None,001,25,2019_Oct_14_1457,ACPT_experiment_5_30_19,3.1.0,59.94972855587233,
,,,C,D,d,v,R,G,d,L,i,,,,,6,16,136,9,0,0,0,0,,,,,0,24,24,4,,,,,,up,0.5838004577371976,1780.965637151649,None,001,25,2019_Oct_14_1457,ACPT_experiment_5_30_19,3.1.0,59.94972855587233,
,,,C,D,d,v,L,U,d,R,u,,,,,6,16,136,9,0,0,0,0,,,,,0,25,25,21,,,,,,up,0.6004545369478365,1782.8337655932014,None,001,25,2019_Oct_14_1457,ACPT_experiment_5_30_19,3.1.0,59.94972855587233,
,,,C,D,d,v,L,G,d,L,i,,,,,6,16,136,9,0,0,0,0,,,,,0,26,26,16,,,,,,up,0.5670760457396682,1784.7185613956922,None,001,25,2019_Oct_14_1457,ACPT_experiment_5_30_19,3.1.0,59.94972855587233,
,,,C,D,d,v,L,D,g,L,i,,,,,6,16,136,9,0,0,0,0,,,,,0,27,27,14,,,,,,up,0.6338082758447854,1786.5699666326777,None,001,25,2019_Oct_14_1457,ACPT_experiment_5_30_19,3.1.0,59.94972855587233,
,,,C,D,d,v,R,U,y,R,u,,,,,6,16,136,9,0,0,0,0,,,,,0,28,28,31,,,,,,down,0.6171258220329037,1788.5047874591514,None,001,25,2019_Oct_14_1457,ACPT_experiment_5_30_19,3.1.0,59.94972855587233,
,,,C,D,d,v,R,D,y,R,y,,,,,6,16,136,9,0,0,0,0,,,,,0,29,29,27,,,,,,down,0.5837684608468408,1790.4229312652474,None,001,25,2019_Oct_14_1457,ACPT_experiment_5_30_19,3.1.0,59.94972855587233,
,,,C,D,d,v,L,D,d,R,c ,,,,,6,16,136,9,0,0,0,0,,,,,0,30,30,13,,,,,,up,0.6671719760370252,1792.2910222764763,None,001,25,2019_Oct_14_1457,ACPT_experiment_5_30_19,3.1.0,59.94972855587233,
,,,C,D,d,v,L,G,y,R,y,,,,,6,16,136,9,0,0,0,0,,,,,0,31,31,35,,,,,,down,0.5337654724589811,1794.2424935598715,None,001,25,2019_Oct_14_1457,ACPT_experiment_5_30_19,3.1.0,59.94972855587233,
,,,C,D,d,v,R,G,g,R,c ,,,,,6,16,136,9,0,0,0,0,,,,,0,32,32,7,,,,,,up,0.6502377731130764,1796.0775221246417,None,001,25,2019_Oct_14_1457,ACPT_experiment_5_30_19,3.1.0,59.94972855587233,
,,,C,D,d,v,R,G,d,R,i,,,,,6,16,136,9,0,0,0,0,,,,,0,33,33,5,,,,,,up,0.4503353938116561,1798.0120857685683,None,001,25,2019_Oct_14_1457,ACPT_experiment_5_30_19,3.1.0,59.94972855587233,
,,,C,D,d,v,L,U,y,L,u,,,,,6,16,136,9,0,0,0,0,,,,,0,34,34,24,,,,,,down,0.6338085777024389,1799.746753070343,None,001,25,2019_Oct_14_1457,ACPT_experiment_5_30_19,3.1.0,59.94972855587233,
,,,C,D,d,v,R,U,g,R,u,,,,,6,16,136,9,0,0,0,0,,,,,0,35,35,11,,,,,,up,0.4670096974723492,1801.6648917448624,None,001,25,2019_Oct_14_1457,ACPT_experiment_5_30_19,3.1.0,59.94972855587233,
,,,C,D,d,v,R,U,d,R,u,,,,,6,16,136,9,0,0,0,0,,,,,1,0,36,9,,,,,,up,0.463724280990391,1803.4362392546295,None,001,25,2019_Oct_14_1457,ACPT_experiment_5_30_19,3.1.0,59.94972855587233,
,,,C,D,d,v,L,D,g,L,i,,,,,6,16,136,9,0,0,0,0,,,,,1,1,37,14,,,,,,up,0.6505203116867051,1805.184228733086,None,001,25,2019_Oct_14_1457,ACPT_experiment_5_30_19,3.1.0,59.94972855587233,
,,,C,D,d,v,R,D,y,L,y,,,,,6,16,136,9,0,0,0,0,,,,,1,2,38,26,,,,,,down,0.600447292368699,1807.1357579731116,None,001,25,2019_Oct_14_1457,ACPT_experiment_5_30_19,3.1.0,59.94972855587233,
,,,C,D,d,v,L,U,g,L,u,,,,,6,16,136,9,0,0,0,0,,,,,1,3,39,22,,,,,,up,0.6338405745918863,1809.03721419382,None,001,25,2019_Oct_14_1457,ACPT_experiment_5_30_19,3.1.0,59.94972855587233,
,,,C,D,d,v,R,U,g,L,u,,,,,6,16,136,9,0,0,0,0,,,,,1,4,40,10,,,,,,up,0.5837763091403758,1810.9553549813422,None,001,25,2019_Oct_14_1457,ACPT_experiment_5_30_19,3.1.0,59.94972855587233,
,,,C,D,d,v,R,U,g,R,u,,,,,6,16,136,9,0,0,0,0,,,,,1,5,41,11,,,,,,up,0.6839890582705266,1812.8234556520088,None,001,25,2019_Oct_14_1457,ACPT_experiment_5_30_19,3.1.0,59.94972855587233,
,,,C,D,d,v,L,G,g,L,c ,,,,,6,16,136,9,0,0,0,0,,,,,1,6,42,18,,,,,,up,0.5670989869067853,1814.7916308210947,None,001,25,2019_Oct_14_1457,ACPT_experiment_5_30_19,3.1.0,59.94972855587233,
,,,C,D,d,v,R,G,g,R,c ,,,,,6,16,136,9,0,0,0,0,,,,,1,7,43,7,,,,,,up,0.44701224514938076,1816.6630700351539,None,001,25,2019_Oct_14_1457,ACPT_experiment_5_30_19,3.1.0,59.94972855587233,
,,,C,D,d,v,R,U,y,R,u,,,,,6,16,136,9,0,0,0,0,,,,,1,8,44,31,,,,,,down,0.7172286950517446,1818.3944039251123,None,001,25,2019_Oct_14_1457,ACPT_experiment_5_30_19,3.1.0,59.94972855587233,
,,,C,D,d,v,L,U,d,R,u,,,,,6,16,136,9,0,0,0,0,,,,,1,9,45,21,,,,,,up,0.5003921128263755,1820.3959213625117,None,001,25,2019_Oct_14_1457,ACPT_experiment_5_30_19,3.1.0,59.94972855587233,
,,,C,D,d,v,R,D,g,L,i,,,,,6,16,136,9,0,0,0,0,,,,,1,10,46,2,,,,,,up,0.7338483625144363,1822.1806837191975,None,001,25,2019_Oct_14_1457,ACPT_experiment_5_30_19,3.1.0,59.94972855587233,
,,,C,D,d,v,L,D,g,R,i,,,,,6,16,136,9,0,0,0,0,,,,,1,11,47,15,,,,,,up,0.40029980481904204,1824.1988567450949,None,001,25,2019_Oct_14_1457,ACPT_experiment_5_30_19,3.1.0,59.94972855587233,
,,,C,D,d,v,L,D,y,R,y,,,,,6,16,136,9,0,0,0,0,,,,,1,12,48,33,,,,,,down,0.5671249466467998,1825.8667821573267,None,001,25,2019_Oct_14_1457,ACPT_experiment_5_30_19,3.1.0,59.94972855587233,
,,,C,D,d,v,L,U,y,L,u,,,,,6,16,136,9,0,0,0,0,,,,,1,13,49,24,,,,,,down,0.4837066404415964,1827.7182224097764,None,001,25,2019_Oct_14_1457,ACPT_experiment_5_30_19,3.1.0,59.94972855587233,
,,,C,D,d,v,R,G,g,L,c ,,,,,6,16,136,9,0,0,0,0,,,,,1,14,50,6,,,,,,up,0.6000201640772502,1829.5033415619678,None,001,25,2019_Oct_14_1457,ACPT_experiment_5_30_19,3.1.0,59.94972855587233,
,,,C,D,d,v,R,G,d,R,i,,,,,6,16,136,9,0,0,0,0,,,,,1,15,51,5,,,,,,up,0.5504554727058348,1831.3877135565995,None,001,25,2019_Oct_14_1457,ACPT_experiment_5_30_19,3.1.0,59.94972855587233,
,,,C,D,d,v,R,D,g,R,i,,,,,6,16,136,9,0,0,0,0,,,,,1,16,52,3,,,,,,up,0.5003776236690101,1833.2224523382179,None,001,25,2019_Oct_14_1457,ACPT_experiment_5_30_19,3.1.0,59.94972855587233,
,,,C,D,d,v,L,D,d,R,c ,,,,,6,16,136,9,0,0,0,0,,,,,1,17,53,13,,,,,,up,0.5670947609014547,1835.0071573419877,None,001,25,2019_Oct_14_1457,ACPT_experiment_5_30_19,3.1.0,59.94972855587233,
,,,C,D,d,v,L,G,d,L,i,,,,,6,16,136,9,0,0,0,0,,,,,1,18,54,16,,,,,,down,0.5971298789972934,1836.8785841798922,None,001,25,2019_Oct_14_1457,ACPT_experiment_5_30_19,3.1.0,59.94972855587233,
,,,C,D,d,v,L,G,y,L,y,,,,,6,16,136,9,0,0,0,0,,,,,1,19,55,34,,,,,,down,0.7172084706035093,1838.760043551993,None,001,25,2019_Oct_14_1457,ACPT_experiment_5_30_19,3.1.0,59.94972855587233,
,,,C,D,d,v,R,D,d,L,c,,,,,6,16,136,9,0,0,0,0,,,,,1,20,56,0,,,,,,up,0.5504612079967046,1840.7782518952122,None,001,25,2019_Oct_14_1457,ACPT_experiment_5_30_19,3.1.0,59.94972855587233,
,,,C,D,d,v,L,D,d,L,c ,,,,,6,16,136,9,0,0,0,0,,,,,1,21,57,12,,,,,,up,0.6337850328209242,1842.6130148254265,None,001,25,2019_Oct_14_1457,ACPT_experiment_5_30_19,3.1.0,59.94972855587233,
,,,C,D,d,v,R,G,d,L,i,,,,,6,16,136,9,0,0,0,0,,,,,1,22,58,4,,,,,,up,0.6336923625840427,1844.5312045138558,None,001,25,2019_Oct_14_1457,ACPT_experiment_5_30_19,3.1.0,59.94972855587233,
,,,C,D,d,v,R,D,d,R,c ,,,,,6,16,136,9,0,0,0,0,,,,,1,23,59,1,,,,,,up,0.5504283055361157,1846.449274968592,None,001,25,2019_Oct_14_1457,ACPT_experiment_5_30_19,3.1.0,59.94972855587233,
,,,C,D,d,v,L,G,d,R,i,,,,,6,16,136,9,0,0,0,0,,,,,1,24,60,17,,,,,,up,0.5003806422437265,1848.2840146557833,None,001,25,2019_Oct_14_1457,ACPT_experiment_5_30_19,3.1.0,59.94972855587233,
,,,C,D,d,v,R,U,y,L,u,,,,,6,16,136,9,0,0,0,0,,,,,1,25,61,30,,,,,,down,0.5470918751443605,1850.0887294880317,None,001,25,2019_Oct_14_1457,ACPT_experiment_5_30_19,3.1.0,59.94972855587233,
,,,C,D,d,v,L,U,g,R,u,,,,,6,16,136,9,0,0,0,0,,,,,1,26,62,23,,,,,,up,0.450342034676396,1851.9201421024131,None,001,25,2019_Oct_14_1457,ACPT_experiment_5_30_19,3.1.0,59.94972855587233,
,,,C,D,d,v,R,G,y,R,y,,,,,6,16,136,9,0,0,0,0,,,,,1,27,63,29,,,,,,down,0.7172175263267491,1853.6548033670383,None,001,25,2019_Oct_14_1457,ACPT_experiment_5_30_19,3.1.0,59.94972855587233,
,,,C,D,d,v,R,U,d,L,u,,,,,6,16,136,9,0,0,0,0,,,,,1,28,64,8,,,,,,up,0.45035441083200567,1855.65633710474,None,001,25,2019_Oct_14_1457,ACPT_experiment_5_30_19,3.1.0,59.94972855587233,
,,,C,D,d,v,R,D,y,R,y,,,,,6,16,136,9,0,0,0,0,,,,,1,29,65,27,,,,,,down,0.5334104880976156,1857.4079998865013,None,001,25,2019_Oct_14_1457,ACPT_experiment_5_30_19,3.1.0,59.94972855587233,
,,,C,D,d,v,L,G,g,R,c ,,,,,6,16,136,9,0,0,0,0,,,,,1,30,66,19,,,,,,up,0.6838508075588834,1859.2257507345698,None,001,25,2019_Oct_14_1457,ACPT_experiment_5_30_19,3.1.0,59.94972855587233,
,,,C,D,d,v,L,D,y,L,y,,,,,6,16,136,9,0,0,0,0,,,,,1,31,67,32,,,,,,down,0.58377419613862,1861.1939292240872,None,001,25,2019_Oct_14_1457,ACPT_experiment_5_30_19,3.1.0,59.94972855587233,
,,,C,D,d,v,L,G,y,R,y,,,,,6,16,136,9,0,0,0,0,,,,,1,32,68,35,,,,,,down,0.6004572536648993,1863.0620298947547,None,001,25,2019_Oct_14_1457,ACPT_experiment_5_30_19,3.1.0,59.94972855587233,
,,,C,D,d,v,R,G,y,L,y,,,,,6,16,136,9,0,0,0,0,,,,,1,33,69,28,,,,,,down,0.56709687390412,1864.930133583996,None,001,25,2019_Oct_14_1457,ACPT_experiment_5_30_19,3.1.0,59.94972855587233,
,,,C,D,d,v,L,U,d,L,u,,,,,6,16,136,9,0,0,0,0,,,,,1,34,70,20,,,,,,up,0.5504222683866828,1866.7815505934218,None,001,25,2019_Oct_14_1457,ACPT_experiment_5_30_19,3.1.0,59.94972855587233,
,,,C,D,d,v,L,U,y,R,u,,,,,6,16,136,9,0,0,0,0,,,,,1,35,71,25,,,,,,down,0.5004032815522805,1868.616293299187,None,001,25,2019_Oct_14_1457,ACPT_experiment_5_30_19,3.1.0,59.94972855587233,
,,,C,D,d,v,,,,,,,,,,6,16,136,9,1,0,1,0,0,0,0,0,,,,,,,,,,,,,,001,25,2019_Oct_14_1457,ACPT_experiment_5_30_19,3.1.0,59.94972855587233,
,,,C,D,d,v,R,U,g,R,u,,,,,6,16,136,9,1,0,1,0,,,,,0,0,0,11,,,,,,up,0.683600567733265,1876.6560470197314,None,001,25,2019_Oct_14_1457,ACPT_experiment_5_30_19,3.1.0,59.94972855587233,
,,,C,D,d,v,L,U,d,R,u,,,,,6,16,136,9,1,0,1,0,,,,,0,1,1,21,,,,,,down,0.6838562409930091,1878.6239725527062,None,001,25,2019_Oct_14_1457,ACPT_experiment_5_30_19,3.1.0,59.94972855587233,
,,,C,D,d,v,L,D,g,R,i,,,,,6,16,136,9,1,0,1,0,,,,,0,2,2,15,,,,,,up,0.6671725797523322,1880.5921564756568,None,001,25,2019_Oct_14_1457,ACPT_experiment_5_30_19,3.1.0,59.94972855587233,
,,,C,D,d,v,R,G,y,R,y,,,,,6,16,136,9,1,0,1,0,,,,,0,3,3,29,,,,,,down,0.5671107593470879,1882.5436513039335,None,001,25,2019_Oct_14_1457,ACPT_experiment_5_30_19,3.1.0,59.94972855587233,
,,,C,D,d,v,L,G,d,R,i,,,,,6,16,136,9,1,0,1,0,,,,,0,4,4,17,,,,,,up,0.6171424241929344,1884.395096386102,None,001,25,2019_Oct_14_1457,ACPT_experiment_5_30_19,3.1.0,59.94972855587233,
,,,C,D,d,v,R,D,y,R,y,,,,,6,16,136,9,1,0,1,0,,,,,0,5,5,27,,,,,,down,0.6004460849389943,1886.3132154398877,None,001,25,2019_Oct_14_1457,ACPT_experiment_5_30_19,3.1.0,59.94972855587233,
,,,C,D,d,v,R,G,d,R,i,,,,,6,16,136,9,1,0,1,0,,,,,0,6,6,5,,,,,,up,0.5003999611208201,1888.2146749810286,None,001,25,2019_Oct_14_1457,ACPT_experiment_5_30_19,3.1.0,59.94972855587233,
,,,C,D,d,v,L,U,d,L,u,,,,,6,16,136,9,1,0,1,0,,,,,0,7,7,20,,,,,,up,0.5835019207188452,1890.0163304880248,None,001,25,2019_Oct_14_1457,ACPT_experiment_5_30_19,3.1.0,59.94972855587233,
,,,C,D,d,v,R,U,y,R,u,,,,,6,16,136,9,1,0,1,0,,,,,0,8,8,31,,,,,,down,0.5670953646167618,1891.900838016652,None,001,25,2019_Oct_14_1457,ACPT_experiment_5_30_19,3.1.0,59.94972855587233,
,,,C,D,d,v,L,G,y,L,y,,,,,6,16,136,9,1,0,1,0,,,,,0,9,9,34,,,,,,down,0.5003890942525686,1893.7689417058932,None,001,25,2019_Oct_14_1457,ACPT_experiment_5_30_19,3.1.0,59.94972855587233,
,,,C,D,d,v,R,G,d,L,i,,,,,6,16,136,9,1,0,1,0,,,,,0,10,10,4,,,,,,up,0.5837989484498394,1895.5536192406348,None,001,25,2019_Oct_14_1457,ACPT_experiment_5_30_19,3.1.0,59.94972855587233,
,,,C,D,d,v,L,U,g,L,u,,,,,6,16,136,9,1,0,1,0,,,,,0,11,11,22,,,,,,up,0.48369305685537256,1897.4217452673279,None,001,25,2019_Oct_14_1457,ACPT_experiment_5_30_19,3.1.0,59.94972855587233,
,,,C,D,d,v,R,G,y,L,y,,,,,6,16,136,9,1,0,1,0,,,,,0,12,12,28,,,,,,down,0.550419853526364,1899.189762987568,None,001,25,2019_Oct_14_1457,ACPT_experiment_5_30_19,3.1.0,59.94972855587233,
,,,C,D,d,v,L,D,y,R,y,,,,,6,16,136,9,1,0,1,0,,,,,0,13,13,33,,,,,,down,0.9674268644675976,1901.024486374457,None,001,25,2019_Oct_14_1457,ACPT_experiment_5_30_19,3.1.0,59.94972855587233,
,,,C,D,d,v,R,U,g,L,u,,,,,6,16,136,9,1,0,1,0,,,,,0,14,14,10,,,,,,up,0.4500920967075217,1903.293157616075,None,001,25,2019_Oct_14_1457,ACPT_experiment_5_30_19,3.1.0,59.94972855587233,
,,,C,D,d,v,R,U,d,R,u,,,,,6,16,136,9,1,0,1,0,,,,,0,15,15,9,,,,,,up,0.41696958061766054,1905.0275961099028,None,001,25,2019_Oct_14_1457,ACPT_experiment_5_30_19,3.1.0,59.94972855587233,
,,,C,D,d,v,L,U,y,R,u,,,,,6,16,136,9,1,0,1,0,,,,,0,16,16,25,,,,,,down,0.6171572152079534,1906.7288689220245,None,001,25,2019_Oct_14_1457,ACPT_experiment_5_30_19,3.1.0,59.94972855587233,
,,,C,D,d,v,L,U,g,R,u,,,,,6,16,136,9,1,0,1,0,,,,,0,17,17,23,,,,,,up,0.5337232124156799,1908.630364987917,None,001,25,2019_Oct_14_1457,ACPT_experiment_5_30_19,3.1.0,59.94972855587233,
,,,C,D,d,v,R,D,d,R,c ,,,,,6,16,136,9,1,0,1,0,,,,,0,18,18,1,,,,,,up,0.44990222837168403,1910.4654967879346,None,001,25,2019_Oct_14_1457,ACPT_experiment_5_30_19,3.1.0,59.94972855587233,
,,,C,D,d,v,L,D,g,L,i,,,,,6,16,136,9,1,0,1,0,,,,,0,19,19,14,,,,,,up,0.5839314638697033,1912.1997571858678,None,001,25,2019_Oct_14_1457,ACPT_experiment_5_30_19,3.1.0,59.94972855587233,
,,,C,D,d,v,R,G,g,L,c ,,,,,6,16,136,9,1,0,1,0,,,,,0,20,20,6,,,,,,up,0.6838607688550837,1914.0678560453894,None,001,25,2019_Oct_14_1457,ACPT_experiment_5_30_19,3.1.0,59.94972855587233,
,,,C,D,d,v,R,D,g,L,i,,,,,6,16,136,9,1,0,1,0,,,,,0,21,21,2,,,,,,up,0.533727740276845,1916.0193635516785,None,001,25,2019_Oct_14_1457,ACPT_experiment_5_30_19,3.1.0,59.94972855587233,
,,,C,D,d,v,L,D,y,L,y,,,,,6,16,136,9,1,0,1,0,,,,,0,22,22,32,,,,,,down,0.6504934463728205,1917.8374210869165,None,001,25,2019_Oct_14_1457,ACPT_experiment_5_30_19,3.1.0,59.94972855587233,
,,,C,D,d,v,L,G,y,R,y,,,,,6,16,136,9,1,0,1,0,,,,,0,23,23,35,,,,,,down,0.6004575555216434,1919.7722361780984,None,001,25,2019_Oct_14_1457,ACPT_experiment_5_30_19,3.1.0,59.94972855587233,
,,,C,D,d,v,R,G,g,R,c ,,,,,6,16,136,9,1,0,1,0,,,,,0,24,24,7,,,,,,up,0.6338194445706904,1921.6570180951462,None,001,25,2019_Oct_14_1457,ACPT_experiment_5_30_19,3.1.0,59.94972855587233,
,,,C,D,d,v,L,G,g,R,c ,,,,,6,16,136,9,1,0,1,0,,,,,0,25,25,19,,,,,,up,0.5168062153661594,1923.592114517472,None,001,25,2019_Oct_14_1457,ACPT_experiment_5_30_19,3.1.0,59.94972855587233,
,,,C,D,d,v,R,U,d,L,u,,,,,6,16,136,9,1,0,1,0,,,,,0,26,26,8,,,,,,up,0.43368312574602896,1925.393222455055,None,001,25,2019_Oct_14_1457,ACPT_experiment_5_30_19,3.1.0,59.94972855587233,
,,,C,D,d,v,L,G,d,L,i,,,,,6,16,136,9,1,0,1,0,,,,,0,27,27,16,,,,,,up,0.48369728285979363,1927.111211529023,None,001,25,2019_Oct_14_1457,ACPT_experiment_5_30_19,3.1.0,59.94972855587233,
,,,C,D,d,v,L,G,g,L,c ,,,,,6,16,136,9,1,0,1,0,,,,,0,28,28,18,,,,,,up,0.5504132126625336,1928.8792328715522,None,001,25,2019_Oct_14_1457,ACPT_experiment_5_30_19,3.1.0,59.94972855587233,
,,,C,D,d,v,L,D,d,L,c ,,,,,6,16,136,9,1,0,1,0,,,,,0,29,29,12,,,,,,up,0.4834479486062264,1930.7309001208037,None,001,25,2019_Oct_14_1457,ACPT_experiment_5_30_19,3.1.0,59.94972855587233,
,,,C,D,d,v,R,D,y,L,y,,,,,6,16,136,9,1,0,1,0,,,,,0,30,30,26,,,,,,down,0.617161139354721,1932.4986748457964,None,001,25,2019_Oct_14_1457,ACPT_experiment_5_30_19,3.1.0,59.94972855587233,
,,,C,D,d,v,R,U,y,L,u,,,,,6,16,136,9,1,0,1,0,,,,,0,31,31,30,,,,,,down,0.8006092690766309,1934.4001358962237,None,001,25,2019_Oct_14_1457,ACPT_experiment_5_30_19,3.1.0,59.94972855587233,
,,,C,D,d,v,R,D,d,L,c,,,,,6,16,136,9,1,0,1,0,,,,,0,32,32,0,,,,,,up,0.6004605740972693,1936.4850686212544,None,001,25,2019_Oct_14_1457,ACPT_experiment_5_30_19,3.1.0,59.94972855587233,
,,,C,D,d,v,R,D,g,R,i,,,,,6,16,136,9,1,0,1,0,,,,,0,33,33,3,,,,,,up,0.4503613535534896,1938.3531487656142,None,001,25,2019_Oct_14_1457,ACPT_experiment_5_30_19,3.1.0,59.94972855587233,
,,,C,D,d,v,L,U,y,L,u,,,,,6,16,136,9,1,0,1,0,,,,,0,34,34,24,,,,,,down,0.6338118981338994,1940.0878387066973,None,001,25,2019_Oct_14_1457,ACPT_experiment_5_30_19,3.1.0,59.94972855587233,
,,,C,D,d,v,L,D,d,R,c ,,,,,6,16,136,9,1,0,1,0,,,,,0,35,35,13,,,,,,up,0.583777818427734,1942.005972551498,None,001,25,2019_Oct_14_1457,ACPT_experiment_5_30_19,3.1.0,59.94972855587233,
,,,C,D,d,v,R,D,d,R,c ,,,,,6,16,136,9,1,0,1,0,,,,,1,0,36,1,,,,,,up,0.7805991387403992,1943.8940863710754,None,001,25,2019_Oct_14_1457,ACPT_experiment_5_30_19,3.1.0,59.94972855587233,
,,,C,D,d,v,R,U,y,R,u,,,,,6,16,136,9,1,0,1,0,,,,,1,1,37,31,,,,,,down,0.7839594158695036,1945.9590053434808,None,001,25,2019_Oct_14_1457,ACPT_experiment_5_30_19,3.1.0,59.94972855587233,
,,,C,D,d,v,L,U,g,R,u,,,,,6,16,136,9,1,0,1,0,,,,,1,2,38,23,,,,,,up,0.5837751017106712,1948.027266481568,None,001,25,2019_Oct_14_1457,ACPT_experiment_5_30_19,3.1.0,59.94972855587233,
,,,C,D,d,v,R,G,d,L,i,,,,,6,16,136,9,1,0,1,0,,,,,1,3,39,4,,,,,,up,0.6004614796684109,1949.8953623225157,None,001,25,2019_Oct_14_1457,ACPT_experiment_5_30_19,3.1.0,59.94972855587233,
,,,C,D,d,v,R,U,y,L,u,,,,,6,16,136,9,1,0,1,0,,,,,1,4,40,30,,,,,,down,0.7505757930848631,1951.780148465568,None,001,25,2019_Oct_14_1457,ACPT_experiment_5_30_19,3.1.0,59.94972855587233,
,,,C,D,d,v,L,G,d,R,i,,,,,6,16,136,9,1,0,1,0,,,,,1,5,41,17,,,,,,up,0.46702177177030535,1953.8150422811727,None,001,25,2019_Oct_14_1457,ACPT_experiment_5_30_19,3.1.0,59.94972855587233,
,,,C,D,d,v,L,U,y,L,u,,,,,6,16,136,9,1,0,1,0,,,,,1,6,42,24,,,,,,down,0.5504280036784621,1955.5663844903224,None,001,25,2019_Oct_14_1457,ACPT_experiment_5_30_19,3.1.0,59.94972855587233,
,,,C,D,d,v,L,G,y,R,y,,,,,6,16,136,9,1,0,1,0,,,,,1,7,43,35,,,,,,down,0.5671023073382457,1957.401122970084,None,001,25,2019_Oct_14_1457,ACPT_experiment_5_30_19,3.1.0,59.94972855587233,
,,,C,D,d,v,R,D,y,R,y,,,,,6,16,136,9,1,0,1,0,,,,,1,8,44,27,,,,,,up,0.6004524239460807,1959.252557487242,None,001,25,2019_Oct_14_1457,ACPT_experiment_5_30_19,3.1.0,59.94972855587233,
,,,C,D,d,v,L,U,d,R,u,,,,,6,16,136,9,1,0,1,0,,,,,1,9,45,21,,,,,,up,0.683855033564214,1961.1373306504242,None,001,25,2019_Oct_14_1457,ACPT_experiment_5_30_19,3.1.0,59.94972855587233,
,,,C,D,d,v,R,G,g,R,c ,,,,,6,16,136,9,1,0,1,0,,,,,1,10,46,7,,,,,,up,0.6502634309963469,1963.1390941016448,None,001,25,2019_Oct_14_1457,ACPT_experiment_5_30_19,3.1.0,59.94972855587233,
,,,C,D,d,v,L,G,y,L,y,,,,,6,16,136,9,1,0,1,0,,,,,1,11,47,34,,,,,,down,0.6504898240837065,1965.0736918554635,None,001,25,2019_Oct_14_1457,ACPT_experiment_5_30_19,3.1.0,59.94972855587233,
,,,C,D,d,v,R,D,g,L,i,,,,,6,16,136,9,1,0,1,0,,,,,1,12,48,2,,,,,,up,0.6004575555225529,1967.008501815069,None,001,25,2019_Oct_14_1457,ACPT_experiment_5_30_19,3.1.0,59.94972855587233,
,,,C,D,d,v,L,G,g,L,c ,,,,,6,16,136,9,1,0,1,0,,,,,1,13,49,18,,,,,,up,0.5670947609014547,1968.876608522885,None,001,25,2019_Oct_14_1457,ACPT_experiment_5_30_19,3.1.0,59.94972855587233,
,,,C,D,d,v,R,U,g,L,u,,,,,6,16,136,9,1,0,1,0,,,,,1,14,50,10,,,,,,up,0.5334781041656242,1970.7449775448245,None,001,25,2019_Oct_14_1457,ACPT_experiment_5_30_19,3.1.0,59.94972855587233,
,,,C,D,d,v,L,G,d,L,i,,,,,6,16,136,9,1,0,1,0,,,,,1,15,51,16,,,,,,up,0.43383013032416784,1972.5627628046418,None,001,25,2019_Oct_14_1457,ACPT_experiment_5_30_19,3.1.0,59.94972855587233,
,,,C,D,d,v,L,D,g,L,i,,,,,6,16,136,9,1,0,1,0,,,,,1,16,52,14,,,,,,up,0.6171861935235938,1974.2807539916116,None,001,25,2019_Oct_14_1457,ACPT_experiment_5_30_19,3.1.0,59.94972855587233,
,,,C,D,d,v,L,D,d,L,c ,,,,,6,16,136,9,1,0,1,0,,,,,1,17,53,12,,,,,,up,0.6338493284583819,1976.1655144767815,None,001,25,2019_Oct_14_1457,ACPT_experiment_5_30_19,3.1.0,59.94972855587233,
,,,C,D,d,v,L,U,g,L,u,,,,,6,16,136,9,1,0,1,0,,,,,1,18,54,22,,,,,,up,0.817073178094688,1978.1005710539234,None,001,25,2019_Oct_14_1457,ACPT_experiment_5_30_19,3.1.0,59.94972855587233,
,,,C,D,d,v,R,D,y,L,y,,,,,6,16,136,9,1,0,1,0,,,,,1,19,55,26,,,,,,down,0.5670986850482223,1980.201965273112,None,001,25,2019_Oct_14_1457,ACPT_experiment_5_30_19,3.1.0,59.94972855587233,
,,,C,D,d,v,L,D,y,R,y,,,,,6,16,136,9,1,0,1,0,,,,,1,20,56,33,,,,,,down,1.100850573921889,1982.0533828862522,None,001,25,2019_Oct_14_1457,ACPT_experiment_5_30_19,3.1.0,59.94972855587233,
,,,C,D,d,v,L,U,y,R,u,,,,,6,16,136,9,1,0,1,0,,,,,1,21,57,25,,,,,,down,0.6671734853243834,1984.4385548031255,None,001,25,2019_Oct_14_1457,ACPT_experiment_5_30_19,3.1.0,59.94972855587233,
,,,C,D,d,v,R,G,y,R,y,,,,,6,16,136,9,1,0,1,0,,,,,1,22,58,29,,,,,,down,0.5504144200922383,1986.3900475183996,None,001,25,2019_Oct_14_1457,ACPT_experiment_5_30_19,3.1.0,59.94972855587233,
,,,C,D,d,v,R,U,g,R,u,,,,,6,16,136,9,1,0,1,0,,,,,1,23,59,11,,,,,,up,0.5504210609569782,1988.2247941483124,None,001,25,2019_Oct_14_1457,ACPT_experiment_5_30_19,3.1.0,59.94972855587233,
,,,C,D,d,v,L,G,g,R,c ,,,,,6,16,136,9,1,0,1,0,,,,,1,24,60,19,,,,,,up,0.6004584610936945,1990.0595377596505,None,001,25,2019_Oct_14_1457,ACPT_experiment_5_30_19,3.1.0,59.94972855587233,
,,,C,D,d,v,L,U,d,L,u,,,,,6,16,136,9,1,0,1,0,,,,,1,25,61,20,,,,,,up,0.9838047441116942,1991.9612792356488,None,001,25,2019_Oct_14_1457,ACPT_experiment_5_30_19,3.1.0,59.94972855587233,
,,,C,D,d,v,L,D,g,R,i,,,,,6,16,136,9,1,0,1,0,,,,,1,26,62,15,,,,,,up,0.6838683152909653,1994.2294056245705,None,001,25,2019_Oct_14_1457,ACPT_experiment_5_30_19,3.1.0,59.94972855587233,
,,,C,D,d,v,R,G,g,L,c ,,,,,6,16,136,9,1,0,1,0,,,,,1,27,63,6,,,,,,up,0.5337322681389196,1996.1809049807084,None,001,25,2019_Oct_14_1457,ACPT_experiment_5_30_19,3.1.0,59.94972855587233,
,,,C,D,d,v,R,G,d,R,i,,,,,6,16,136,9,1,0,1,0,,,,,1,28,64,5,,,,,,up,0.5671352097997442,1997.9822655729763,None,001,25,2019_Oct_14_1457,ACPT_experiment_5_30_19,3.1.0,59.94972855587233,
,,,C,D,d,v,R,U,d,L,u,,,,,6,16,136,9,1,0,1,0,,,,,1,29,65,8,,,,,,up,0.6171369907588087,1999.8337064291413,None,001,25,2019_Oct_14_1457,ACPT_experiment_5_30_19,3.1.0,59.94972855587233,
,,,C,D,d,v,R,D,d,L,c,,,,,6,16,136,9,1,0,1,0,,,,,1,30,66,0,,,,,,up,0.6172145681239272,2001.7351659702813,None,001,25,2019_Oct_14_1457,ACPT_experiment_5_30_19,3.1.0,59.94972855587233,
,,,C,D,d,v,R,G,y,L,y,,,,,6,16,136,9,1,0,1,0,,,,,1,31,67,28,,,,,,down,0.7005356762301744,2003.6366255114222,None,001,25,2019_Oct_14_1457,ACPT_experiment_5_30_19,3.1.0,59.94972855587233,
,,,C,D,d,v,R,U,d,R,u,,,,,6,16,136,9,1,0,1,0,,,,,1,32,68,9,,,,,,up,0.633812501848297,2005.6214861528929,None,001,25,2019_Oct_14_1457,ACPT_experiment_5_30_19,3.1.0,59.94972855587233,
,,,C,D,d,v,R,D,g,R,i,,,,,6,16,136,9,1,0,1,0,,,,,1,33,69,3,,,,,,up,0.5337624538833552,2007.5396202995512,None,001,25,2019_Oct_14_1457,ACPT_experiment_5_30_19,3.1.0,59.94972855587233,
,,,C,D,d,v,L,D,d,R,c ,,,,,6,16,136,9,1,0,1,0,,,,,1,34,70,13,,,,,,up,0.5170621904826476,2009.3576820607927,None,001,25,2019_Oct_14_1457,ACPT_experiment_5_30_19,3.1.0,59.94972855587233,
,,,C,D,d,v,L,D,y,L,y,,,,,6,16,136,9,1,0,1,0,,,,,1,35,71,32,,,,,,down,0.7305825667663157,2011.1957533486552,None,001,25,2019_Oct_14_1457,ACPT_experiment_5_30_19,3.1.0,59.94972855587233,
,,,C,D,d,v,,,,,,,,,,6,16,136,9,2,0,2,0,0,0,0,0,,,,,,,,,,,,,,001,25,2019_Oct_14_1457,ACPT_experiment_5_30_19,3.1.0,59.94972855587233,
,,,C,D,d,v,L,U,g,L,u,,,,,6,16,136,9,2,0,2,0,,,,,0,0,0,22,,,,,,up,0.6004478960840061,2023.118262617189,None,001,25,2019_Oct_14_1457,ACPT_experiment_5_30_19,3.1.0,59.94972855587233,
,,,C,D,d,v,R,U,g,L,u,,,,,6,16,136,9,2,0,2,0,,,,,0,1,1,10,,,,,,up,0.5003721902348843,2024.9863605711384,None,001,25,2019_Oct_14_1457,ACPT_experiment_5_30_19,3.1.0,59.94972855587233,
,,,C,D,d,v,L,G,y,R,y,,,,,6,16,136,9,2,0,2,0,,,,,0,2,2,35,,,,,,down,0.66717076860823,2026.77105833033,None,001,25,2019_Oct_14_1457,ACPT_experiment_5_30_19,3.1.0,59.94972855587233,
,,,C,D,d,v,R,D,g,R,i,,,,,6,16,136,9,2,0,2,0,,,,,0,3,3,3,,,,,,up,0.6171421223361904,2028.7225492344592,None,001,25,2019_Oct_14_1457,ACPT_experiment_5_30_19,3.1.0,59.94972855587233,
,,,C,D,d,v,R,G,d,L,i,,,,,6,16,136,9,2,0,2,0,,,,,0,4,4,4,,,,,,up,0.7837239670589042,2030.640871740166,None,001,25,2019_Oct_14_1457,ACPT_experiment_5_30_19,3.1.0,59.94972855587233,
,,,C,D,d,v,R,U,g,R,u,,,,,6,16,136,9,2,0,2,0,,,,,0,5,5,11,,,,,,up,0.633813105563604,2032.7089475377793,None,001,25,2019_Oct_14_1457,ACPT_experiment_5_30_19,3.1.0,59.94972855587233,
,,,C,D,d,v,L,U,d,L,u,,,,,6,16,136,9,2,0,2,0,,,,,0,6,6,20,,,,,,up,0.6838456759824112,2034.6270898345879,None,001,25,2019_Oct_14_1457,ACPT_experiment_5_30_19,3.1.0,59.94972855587233,
,,,C,D,d,v,L,D,d,R,c ,,,,,6,16,136,9,2,0,2,0,,,,,0,7,7,13,,,,,,up,0.5504180423822618,2036.5952665129612,None,001,25,2019_Oct_14_1457,ACPT_experiment_5_30_19,3.1.0,59.94972855587233,
,,,C,D,d,v,R,G,y,R,y,,,,,6,16,136,9,2,0,2,0,,,,,0,8,8,29,,,,,,down,0.6338218594300997,2038.429995635141,None,001,25,2019_Oct_14_1457,ACPT_experiment_5_30_19,3.1.0,59.94972855587233,
,,,C,D,d,v,R,G,y,L,y,,,,,6,16,136,9,2,0,2,0,,,,,0,9,9,28,,,,,,down,0.5672529342054986,2040.3313148125676,None,001,25,2019_Oct_14_1457,ACPT_experiment_5_30_19,3.1.0,59.94972855587233,
,,,C,D,d,v,R,D,d,R,c ,,,,,6,16,136,9,2,0,2,0,,,,,0,10,10,1,,,,,,up,0.5670935534726596,2042.1828921082993,None,001,25,2019_Oct_14_1457,ACPT_experiment_5_30_19,3.1.0,59.94972855587233,
,,,C,D,d,v,L,U,g,R,u,,,,,6,16,136,9,2,0,2,0,,,,,0,11,11,23,,,,,,up,0.6504946538025251,2044.0343079102954,None,001,25,2019_Oct_14_1457,ACPT_experiment_5_30_19,3.1.0,59.94972855587233,
,,,C,D,d,v,L,D,d,L,c ,,,,,6,16,136,9,2,0,2,0,,,,,0,12,12,12,,,,,,up,0.5504295129658203,2045.9691311516285,None,001,25,2019_Oct_14_1457,ACPT_experiment_5_30_19,3.1.0,59.94972855587233,
,,,C,D,d,v,L,D,g,L,i,,,,,6,16,136,9,2,0,2,0,,,,,0,13,13,14,,,,,,up,0.5837784221430411,2047.803872649964,None,001,25,2019_Oct_14_1457,ACPT_experiment_5_30_19,3.1.0,59.94972855587233,
,,,C,D,d,v,R,U,d,L,u,,,,,6,16,136,9,2,0,2,0,,,,,0,14,14,8,,,,,,up,0.6168665264840456,2049.6889205034254,None,001,25,2019_Oct_14_1457,ACPT_experiment_5_30_19,3.1.0,59.94972855587233,
,,,C,D,d,v,R,D,d,L,c,,,,,6,16,136,9,2,0,2,0,,,,,0,15,15,0,,,,,,up,0.600469327961946,2051.5901116932932,None,001,25,2019_Oct_14_1457,ACPT_experiment_5_30_19,3.1.0,59.94972855587233,
,,,C,D,d,v,L,D,g,R,i,,,,,6,16,136,9,2,0,2,0,,,,,0,16,16,15,,,,,,up,0.900695539935441,2053.474888780622,None,001,25,2019_Oct_14_1457,ACPT_experiment_5_30_19,3.1.0,59.94972855587233,
,,,C,D,d,v,R,G,g,R,c ,,,,,6,16,136,9,2,0,2,0,,,,,0,17,17,7,,,,,,up,0.5671007980508875,2055.643220492981,None,001,25,2019_Oct_14_1457,ACPT_experiment_5_30_19,3.1.0,59.94972855587233,
,,,C,D,d,v,L,G,d,L,i,,,,,6,16,136,9,2,0,2,0,,,,,0,18,18,16,,,,,,up,0.6838903508851217,2057.494646859988,None,001,25,2019_Oct_14_1457,ACPT_experiment_5_30_19,3.1.0,59.94972855587233,
,,,C,D,d,v,R,U,y,L,u,,,,,6,16,136,9,2,0,2,0,,,,,0,19,19,30,,,,,,down,0.7172120928926233,2059.462824745791,None,001,25,2019_Oct_14_1457,ACPT_experiment_5_30_19,3.1.0,59.94972855587233,
,,,C,D,d,v,R,U,y,R,u,,,,,6,16,136,9,2,0,2,0,,,,,0,20,20,31,,,,,,down,0.8004112505896046,2061.481208166331,None,001,25,2019_Oct_14_1457,ACPT_experiment_5_30_19,3.1.0,59.94972855587233,
,,,C,D,d,v,L,G,d,R,i,,,,,6,16,136,9,2,0,2,0,,,,,0,21,21,17,,,,,,up,0.6504880129386947,2063.599334042094,None,001,25,2019_Oct_14_1457,ACPT_experiment_5_30_19,3.1.0,59.94972855587233,
,,,C,D,d,v,R,U,d,R,u,,,,,6,16,136,9,2,0,2,0,,,,,0,22,22,9,,,,,,up,0.4837009051498171,2065.5341494351337,None,001,25,2019_Oct_14_1457,ACPT_experiment_5_30_19,3.1.0,59.94972855587233,
,,,C,D,d,v,L,D,y,R,y,,,,,6,16,136,9,2,0,2,0,,,,,0,23,23,33,,,,,,down,0.6004478960830966,2067.318854137047,None,001,25,2019_Oct_14_1457,ACPT_experiment_5_30_19,3.1.0,59.94972855587233,
,,,C,D,d,v,R,D,y,L,y,,,,,6,16,136,9,2,0,2,0,,,,,0,24,24,26,,,,,,down,0.8002594162917376,2069.2205147152486,None,001,25,2019_Oct_14_1457,ACPT_experiment_5_30_19,3.1.0,59.94972855587233,
,,,C,D,d,v,L,G,g,R,c ,,,,,6,16,136,9,2,0,2,0,,,,,0,25,25,19,,,,,,up,0.4504078396003024,2071.3219068214353,None,001,25,2019_Oct_14_1457,ACPT_experiment_5_30_19,3.1.0,59.94972855587233,
,,,C,D,d,v,L,U,d,R,u,,,,,6,16,136,9,2,0,2,0,,,,,0,26,26,21,,,,,,up,0.417017274094178,2073.0565958569464,None,001,25,2019_Oct_14_1457,ACPT_experiment_5_30_19,3.1.0,59.94972855587233,
,,,C,D,d,v,R,D,g,L,i,,,,,6,16,136,9,2,0,2,0,,,,,0,27,27,2,,,,,,up,0.7338915281288791,2074.7578979492405,None,001,25,2019_Oct_14_1457,ACPT_experiment_5_30_19,3.1.0,59.94972855587233,
,,,C,D,d,v,R,G,d,R,i,,,,,6,16,136,9,2,0,2,0,,,,,0,28,28,5,,,,,,up,0.6004629889557691,2076.776129837341,None,001,25,2019_Oct_14_1457,ACPT_experiment_5_30_19,3.1.0,59.94972855587233,
,,,C,D,d,v,R,G,g,L,c ,,,,,6,16,136,9,2,0,2,0,,,,,0,29,29,6,,,,,,up,0.4336728625921751,2078.6442027371227,None,001,25,2019_Oct_14_1457,ACPT_experiment_5_30_19,3.1.0,59.94972855587233,
,,,C,D,d,v,R,D,y,R,y,,,,,6,16,136,9,2,0,2,0,,,,,0,30,30,27,,,,,,down,0.633827896578623,2080.362195131522,None,001,25,2019_Oct_14_1457,ACPT_experiment_5_30_19,3.1.0,59.94972855587233,
,,,C,D,d,v,L,D,y,L,y,,,,,6,16,136,9,2,0,2,0,,,,,0,31,31,32,,,,,,down,0.616710466182667,2082.2974310119894,None,001,25,2019_Oct_14_1457,ACPT_experiment_5_30_19,3.1.0,59.94972855587233,
,,,C,D,d,v,L,G,g,L,c ,,,,,6,16,136,9,2,0,2,0,,,,,0,32,32,18,,,,,,up,0.6171113328764477,2084.198499345875,None,001,25,2019_Oct_14_1457,ACPT_experiment_5_30_19,3.1.0,59.94972855587233,
,,,C,D,d,v,L,U,y,L,u,,,,,6,16,136,9,2,0,2,0,,,,,0,33,33,24,,,,,,down,0.6671789187585091,2086.099941077426,None,001,25,2019_Oct_14_1457,ACPT_experiment_5_30_19,3.1.0,59.94972855587233,
,,,C,D,d,v,L,U,y,R,u,,,,,6,16,136,9,2,0,2,0,,,,,0,34,34,25,,,,,,down,0.7339002819953748,2088.0514371131317,None,001,25,2019_Oct_14_1457,ACPT_experiment_5_30_19,3.1.0,59.94972855587233,
,,,C,D,d,v,L,G,y,L,y,,,,,6,16,136,9,2,0,2,0,,,,,0,35,35,34,,,,,,down,0.533735286713636,2090.069659039936,None,001,25,2019_Oct_14_1457,ACPT_experiment_5_30_19,3.1.0,59.94972855587233,
,,,C,D,d,v,L,G,g,R,c ,,,,,6,16,136,9,2,0,2,0,,,,,1,0,36,19,,,,,,up,0.5337582278798436,2091.8710175192023,None,001,25,2019_Oct_14_1457,ACPT_experiment_5_30_19,3.1.0,59.94972855587233,
,,,C,D,d,v,L,G,d,R,i,,,,,6,16,136,9,2,0,2,0,,,,,1,1,37,17,,,,,,up,0.5170806037867806,2093.672400448922,None,001,25,2019_Oct_14_1457,ACPT_experiment_5_30_19,3.1.0,59.94972855587233,
,,,C,D,d,v,L,U,d,R,u,,,,,6,16,136,9,2,0,2,0,,,,,1,2,38,21,,,,,,up,0.8503834495186311,2095.4907553137477,None,001,25,2019_Oct_14_1457,ACPT_experiment_5_30_19,3.1.0,59.94972855587233,
,,,C,D,d,v,L,D,g,R,i,,,,,6,16,136,9,2,0,2,0,,,,,1,3,39,15,,,,,,up,0.5837880815815879,2097.625445315203,None,001,25,2019_Oct_14_1457,ACPT_experiment_5_30_19,3.1.0,59.94972855587233,
,,,C,D,d,v,L,U,g,L,u,,,,,6,16,136,9,2,0,2,0,,,,,1,4,40,22,,,,,,up,0.5671035147679504,2099.4935773790444,None,001,25,2019_Oct_14_1457,ACPT_experiment_5_30_19,3.1.0,59.94972855587233,
,,,C,D,d,v,R,G,g,L,c ,,,,,6,16,136,9,2,0,2,0,,,,,1,5,41,6,,,,,,up,0.5170573607638289,2101.3449802011696,None,001,25,2019_Oct_14_1457,ACPT_experiment_5_30_19,3.1.0,59.94972855587233,
,,,C,D,d,v,R,D,d,L,c,,,,,6,16,136,9,2,0,2,0,,,,,1,6,42,0,,,,,,up,0.46702116805590776,2103.146361621602,None,001,25,2019_Oct_14_1457,ACPT_experiment_5_30_19,3.1.0,59.94972855587233,
,,,C,D,d,v,L,U,y,R,u,,,,,6,16,136,9,2,0,2,0,,,,,1,7,43,25,,,,,,down,0.7505773023722213,2104.8977002084625,None,001,25,2019_Oct_14_1457,ACPT_experiment_5_30_19,3.1.0,59.94972855587233,
,,,C,D,d,v,R,G,y,L,y,,,,,6,16,136,9,2,0,2,0,,,,,1,8,44,28,,,,,,down,0.7672763583432243,2106.932597042642,None,001,25,2019_Oct_14_1457,ACPT_experiment_5_30_19,3.1.0,59.94972855587233,
,,,C,D,d,v,L,U,y,L,u,,,,,6,16,136,9,2,0,2,0,,,,,1,9,45,24,,,,,,down,0.6838456759833207,2108.9841884049306,None,001,25,2019_Oct_14_1457,ACPT_experiment_5_30_19,3.1.0,59.94972855587233,
,,,C,D,d,v,L,D,d,R,c ,,,,,6,16,136,9,2,0,2,0,,,,,1,10,46,13,,,,,,up,0.5504409835484694,2110.95232886041,None,001,25,2019_Oct_14_1457,ACPT_experiment_5_30_19,3.1.0,59.94972855587233,
,,,C,D,d,v,R,D,g,R,i,,,,,6,16,136,9,2,0,2,0,,,,,1,11,47,3,,,,,,up,0.550441587262867,2112.7870751884643,None,001,25,2019_Oct_14_1457,ACPT_experiment_5_30_19,3.1.0,59.94972855587233,
,,,C,D,d,v,L,D,d,L,c ,,,,,6,16,136,9,2,0,2,0,,,,,1,12,48,12,,,,,,up,0.6338001256935968,2114.6385317412164,None,001,25,2019_Oct_14_1457,ACPT_experiment_5_30_19,3.1.0,59.94972855587233,
,,,C,D,d,v,R,D,g,L,i,,,,,6,16,136,9,2,0,2,0,,,,,1,13,49,2,,,,,,up,0.5837711775648131,2116.556661058155,None,001,25,2019_Oct_14_1457,ACPT_experiment_5_30_19,3.1.0,59.94972855587233,
,,,C,D,d,v,R,D,y,R,y,,,,,6,16,136,9,2,0,2,0,,,,,1,14,50,27,,,,,,down,0.6171566114935558,2118.424734561652,None,001,25,2019_Oct_14_1457,ACPT_experiment_5_30_19,3.1.0,59.94972855587233,
,,,C,D,d,v,R,G,y,R,y,,,,,6,16,136,9,2,0,2,0,,,,,1,15,51,29,,,,,,down,0.6504967668051904,2120.3428988940545,None,001,25,2019_Oct_14_1457,ACPT_experiment_5_30_19,3.1.0,59.94972855587233,
,,,C,D,d,v,R,U,d,L,u,,,,,6,16,136,9,2,0,2,0,,,,,1,16,52,8,,,,,,up,0.7839545861506849,2122.2777148908094,None,001,25,2019_Oct_14_1457,ACPT_experiment_5_30_19,3.1.0,59.94972855587233,
,,,C,D,d,v,L,D,y,L,y,,,,,6,16,136,9,2,0,2,0,,,,,1,17,53,32,,,,,,down,0.6504952575178322,2124.3459715010345,None,001,25,2019_Oct_14_1457,ACPT_experiment_5_30_19,3.1.0,59.94972855587233,
,,,C,D,d,v,R,U,y,L,u,,,,,6,16,136,9,2,0,2,0,,,,,1,18,54,30,,,,,,down,0.5671007980508875,2126.280784177357,None,001,25,2019_Oct_14_1457,ACPT_experiment_5_30_19,3.1.0,59.94972855587233,
,,,C,D,d,v,L,G,y,L,y,,,,,6,16,136,9,2,0,2,0,,,,,1,19,55,34,,,,,,down,0.600450914657813,2128.132215072226,None,001,25,2019_Oct_14_1457,ACPT_experiment_5_30_19,3.1.0,59.94972855587233,
,,,C,D,d,v,L,G,d,L,i,,,,,6,16,136,9,2,0,2,0,,,,,1,20,56,16,,,,,,up,0.600451216516376,2130.016993668842,None,001,25,2019_Oct_14_1457,ACPT_experiment_5_30_19,3.1.0,59.94972855587233,
,,,C,D,d,v,R,G,d,R,i,,,,,6,16,136,9,2,0,2,0,,,,,1,21,57,5,,,,,,up,0.6837400258755224,2131.901772869173,None,001,25,2019_Oct_14_1457,ACPT_experiment_5_30_19,3.1.0,59.94972855587233,
,,,C,D,d,v,R,G,d,L,i,,,,,6,16,136,9,2,0,2,0,,,,,1,22,58,4,,,,,,up,0.8170182400381236,2133.8702224266804,None,001,25,2019_Oct_14_1457,ACPT_experiment_5_30_19,3.1.0,59.94972855587233,
,,,C,D,d,v,L,U,g,R,u,,,,,6,16,136,9,2,0,2,0,,,,,1,23,59,23,,,,,,up,1.1675622777192984,2135.9715614059555,None,001,25,2019_Oct_14_1457,ACPT_experiment_5_30_19,3.1.0,59.94972855587233,
,,,C,D,d,v,R,D,y,L,y,,,,,6,16,136,9,2,0,2,0,,,,,1,24,60,26,,,,,,down,0.6337041350252548,2138.423442611767,None,001,25,2019_Oct_14_1457,ACPT_experiment_5_30_19,3.1.0,59.94972855587233,
,,,C,D,d,v,L,G,y,R,y,,,,,6,16,136,9,2,0,2,0,,,,,1,25,61,35,,,,,,down,0.5137450789688955,2140.361592020338,None,001,25,2019_Oct_14_1457,ACPT_experiment_5_30_19,3.1.0,59.94972855587233,
,,,C,D,d,v,L,U,d,L,u,,,,,6,16,136,9,2,0,2,0,,,,,1,26,62,20,,,,,,up,0.5837950243021623,2142.159629765801,None,001,25,2019_Oct_14_1457,ACPT_experiment_5_30_19,3.1.0,59.94972855587233,
,,,C,D,d,v,R,G,g,R,c ,,,,,6,16,136,9,2,0,2,0,,,,,1,27,63,7,,,,,,up,0.6504925408007693,2144.0277491516295,None,001,25,2019_Oct_14_1457,ACPT_experiment_5_30_19,3.1.0,59.94972855587233,
,,,C,D,d,v,L,G,g,L,c ,,,,,6,16,136,9,2,0,2,0,,,,,1,28,64,18,,,,,,up,0.6672015580670632,2145.962564544669,None,001,25,2019_Oct_14_1457,ACPT_experiment_5_30_19,3.1.0,59.94972855587233,
,,,C,D,d,v,R,U,y,R,u,,,,,6,16,136,9,2,0,2,0,,,,,1,29,65,31,,,,,,down,0.6838598632830326,2147.914062995235,None,001,25,2019_Oct_14_1457,ACPT_experiment_5_30_19,3.1.0,59.94972855587233,
,,,C,D,d,v,R,U,g,L,u,,,,,6,16,136,9,2,0,2,0,,,,,1,30,66,10,,,,,,up,0.5671512082444679,2149.865540919494,None,001,25,2019_Oct_14_1457,ACPT_experiment_5_30_19,3.1.0,59.94972855587233,
,,,C,D,d,v,R,U,g,R,u,,,,,6,16,136,9,2,0,2,0,,,,,1,31,67,11,,,,,,up,0.667178013186458,2151.7169841905175,None,001,25,2019_Oct_14_1457,ACPT_experiment_5_30_19,3.1.0,59.94972855587233,
,,,C,D,d,v,R,D,d,R,c ,,,,,6,16,136,9,2,0,2,0,,,,,1,32,68,1,,,,,,up,0.6304796937474748,2153.6884954881366,None,001,25,2019_Oct_14_1457,ACPT_experiment_5_30_19,3.1.0,59.94972855587233,
,,,C,D,d,v,R,U,d,R,u,,,,,6,16,136,9,2,0,2,0,,,,,1,33,69,9,,,,,,up,0.5170860372218158,2155.5866222211757,None,001,25,2019_Oct_14_1457,ACPT_experiment_5_30_19,3.1.0,59.94972855587233,
,,,C,D,d,v,L,D,g,L,i,,,,,6,16,136,9,2,0,2,0,,,,,1,34,70,14,,,,,,up,0.7839340598438866,2157.388007263897,None,001,25,2019_Oct_14_1457,ACPT_experiment_5_30_19,3.1.0,59.94972855587233,
,,,C,D,d,v,L,D,y,R,y,,,,,6,16,136,9,2,0,2,0,,,,,1,35,71,33,,,,,,down,0.6004750632546347,2159.456237310668,None,001,25,2019_Oct_14_1457,ACPT_experiment_5_30_19,3.1.0,59.94972855587233,
,,,C,D,d,v,,,,,,,,,,6,16,136,9,3,0,3,0,0,0,0,0,,,,,,,,,,,,,,001,25,2019_Oct_14_1457,ACPT_experiment_5_30_19,3.1.0,59.94972855587233,
,,,C,D,d,v,L,D,d,R,c ,,,,,6,16,136,9,3,0,3,0,,,,,0,0,0,13,,,,,,up,0.7137349969298157,2182.37731094517,None,001,25,2019_Oct_14_1457,ACPT_experiment_5_30_19,3.1.0,59.94972855587233,
,,,C,D,d,v,R,U,d,L,u,,,,,6,16,136,9,3,0,3,0,,,,,0,1,1,8,,,,,,up,0.6338028424106597,2184.375408035807,None,001,25,2019_Oct_14_1457,ACPT_experiment_5_30_19,3.1.0,59.94972855587233,
,,,C,D,d,v,L,D,y,L,y,,,,,6,16,136,9,3,0,3,0,,,,,0,2,2,32,,,,,,down,0.5837711775639036,2186.2935334286,None,001,25,2019_Oct_14_1457,ACPT_experiment_5_30_19,3.1.0,59.94972855587233,
,,,C,D,d,v,L,U,y,L,u,,,,,6,16,136,9,3,0,3,0,,,,,0,3,3,24,,,,,,down,0.4336671273013053,2188.161629873262,None,001,25,2019_Oct_14_1457,ACPT_experiment_5_30_19,3.1.0,59.94972855587233,
,,,C,D,d,v,L,U,g,L,u,,,,,6,16,136,9,3,0,3,0,,,,,0,4,4,22,,,,,,up,0.6672009543517561,2189.8795917800594,None,001,25,2019_Oct_14_1457,ACPT_experiment_5_30_19,3.1.0,59.94972855587233,
,,,C,D,d,v,L,D,g,L,i,,,,,6,16,136,9,3,0,3,0,,,,,0,5,5,14,,,,,,up,0.4503359975269632,2191.831114681079,None,001,25,2019_Oct_14_1457,ACPT_experiment_5_30_19,3.1.0,59.94972855587233,
,,,C,D,d,v,L,G,g,L,c ,,,,,6,16,136,9,3,0,3,0,,,,,0,6,6,18,,,,,,up,0.5337111381168143,2193.5658013017296,None,001,25,2019_Oct_14_1457,ACPT_experiment_5_30_19,3.1.0,59.94972855587233,
,,,C,D,d,v,R,G,y,R,y,,,,,6,16,136,9,3,0,3,0,,,,,0,7,7,29,,,,,,down,0.6168876565052415,2195.400774928444,None,001,25,2019_Oct_14_1457,ACPT_experiment_5_30_19,3.1.0,59.94972855587233,
,,,C,D,d,v,R,U,g,L,u,,,,,6,16,136,9,3,0,3,0,,,,,0,8,8,10,,,,,,up,0.5670902330393801,2197.3019890594783,None,001,25,2019_Oct_14_1457,ACPT_experiment_5_30_19,3.1.0,59.94972855587233,
,,,C,D,d,v,R,G,d,L,i,,,,,6,16,136,9,3,0,3,0,,,,,0,9,9,4,,,,,,up,0.5337340792839314,2199.153406974477,None,001,25,2019_Oct_14_1457,ACPT_experiment_5_30_19,3.1.0,59.94972855587233,
,,,C,D,d,v,R,G,d,R,i,,,,,6,16,136,9,3,0,3,0,,,,,0,10,10,5,,,,,,up,0.5504449076943274,2200.954766661173,None,001,25,2019_Oct_14_1457,ACPT_experiment_5_30_19,3.1.0,59.94972855587233,
,,,C,D,d,v,R,U,g,R,u,,,,,6,16,136,9,3,0,3,0,,,,,0,11,11,11,,,,,,up,0.6171388019029109,2202.7895320062476,None,001,25,2019_Oct_14_1457,ACPT_experiment_5_30_19,3.1.0,59.94972855587233,
,,,C,D,d,v,R,G,g,R,c ,,,,,6,16,136,9,3,0,3,0,,,,,0,12,12,7,,,,,,up,0.7172117910349698,2204.690995773392,None,001,25,2019_Oct_14_1457,ACPT_experiment_5_30_19,3.1.0,59.94972855587233,
,,,C,D,d,v,L,D,y,R,y,,,,,6,16,136,9,3,0,3,0,,,,,0,13,13,33,,,,,,down,0.6838991047516174,2206.709186608879,None,001,25,2019_Oct_14_1457,ACPT_experiment_5_30_19,3.1.0,59.94972855587233,
,,,C,D,d,v,R,D,d,L,c,,,,,6,16,136,9,3,0,3,0,,,,,0,14,14,0,,,,,,up,0.43364841213951877,2208.7107559657593,None,001,25,2019_Oct_14_1457,ACPT_experiment_5_30_19,3.1.0,59.94972855587233,
,,,C,D,d,v,R,D,g,L,i,,,,,6,16,136,9,3,0,3,0,,,,,0,15,15,2,,,,,,up,0.5004014704081783,2210.4120284760243,None,001,25,2019_Oct_14_1457,ACPT_experiment_5_30_19,3.1.0,59.94972855587233,
,,,C,D,d,v,R,U,d,R,u,,,,,6,16,136,9,3,0,3,0,,,,,0,16,16,9,,,,,,up,0.6671994450653074,2212.196758533963,None,001,25,2019_Oct_14_1457,ACPT_experiment_5_30_19,3.1.0,59.94972855587233,
,,,C,D,d,v,L,G,d,L,i,,,,,6,16,136,9,3,0,3,0,,,,,0,17,17,16,,,,,,up,0.6171415186208833,2214.164933703048,None,001,25,2019_Oct_14_1457,ACPT_experiment_5_30_19,3.1.0,59.94972855587233,
,,,C,D,d,v,R,U,y,L,u,,,,,6,16,136,9,3,0,3,0,,,,,0,18,18,30,,,,,,down,0.6836310553362637,2216.0832658681934,None,001,25,2019_Oct_14_1457,ACPT_experiment_5_30_19,3.1.0,59.94972855587233,
,,,C,D,d,v,L,G,d,R,i,,,,,6,16,136,9,3,0,3,0,,,,,0,19,19,17,,,,,,up,0.5670863088935221,2218.084614567278,None,001,25,2019_Oct_14_1457,ACPT_experiment_5_30_19,3.1.0,59.94972855587233,
,,,C,D,d,v,R,G,y,L,y,,,,,6,16,136,9,3,0,3,0,,,,,0,20,20,28,,,,,,down,0.6171599319250163,2219.936011050397,None,001,25,2019_Oct_14_1457,ACPT_experiment_5_30_19,3.1.0,59.94972855587233,
,,,C,D,d,v,L,U,y,R,u,,,,,6,16,136,9,3,0,3,0,,,,,0,21,21,25,,,,,,down,0.6836413184892081,2221.854415057616,None,001,25,2019_Oct_14_1457,ACPT_experiment_5_30_19,3.1.0,59.94972855587233,
,,,C,D,d,v,R,D,y,R,y,,,,,6,16,136,9,3,0,3,0,,,,,0,22,22,27,,,,,,down,0.9507262992092365,2223.8223454203094,None,001,25,2019_Oct_14_1457,ACPT_experiment_5_30_19,3.1.0,59.94972855587233,
,,,C,D,d,v,R,D,y,L,y,,,,,6,16,136,9,3,0,3,0,,,,,0,23,23,26,,,,,,down,0.6838486945571276,2226.0740803460008,None,001,25,2019_Oct_14_1457,ACPT_experiment_5_30_19,3.1.0,59.94972855587233,
,,,C,D,d,v,R,D,g,R,i,,,,,6,16,136,9,3,0,3,0,,,,,0,24,24,3,,,,,,up,0.5837473308247354,2228.058940383757,None,001,25,2019_Oct_14_1457,ACPT_experiment_5_30_19,3.1.0,59.94972855587233,
,,,C,D,d,v,L,U,d,R,u,,,,,6,16,136,9,3,0,3,0,,,,,0,25,25,21,,,,,,up,0.5668472377938087,2229.943966503483,None,001,25,2019_Oct_14_1457,ACPT_experiment_5_30_19,3.1.0,59.94972855587233,
,,,C,D,d,v,L,U,d,L,u,,,,,6,16,136,9,3,0,3,0,,,,,0,26,26,20,,,,,,up,0.5337663780310322,2231.77842968925,None,001,25,2019_Oct_14_1457,ACPT_experiment_5_30_19,3.1.0,59.94972855587233,
,,,C,D,d,v,L,U,g,R,u,,,,,6,16,136,9,3,0,3,0,,,,,0,27,27,23,,,,,,up,0.5837690645621478,2233.596525560383,None,001,25,2019_Oct_14_1457,ACPT_experiment_5_30_19,3.1.0,59.94972855587233,
,,,C,D,d,v,R,D,d,R,c ,,,,,6,16,136,9,3,0,3,0,,,,,0,28,28,1,,,,,,up,0.6338146148518717,2235.464619892044,None,001,25,2019_Oct_14_1457,ACPT_experiment_5_30_19,3.1.0,59.94972855587233,
,,,C,D,d,v,R,G,g,L,c ,,,,,6,16,136,9,3,0,3,0,,,,,0,29,29,6,,,,,,up,0.5169444660778026,2237.382762792568,None,001,25,2019_Oct_14_1457,ACPT_experiment_5_30_19,3.1.0,59.94972855587233,
,,,C,D,d,v,L,G,g,R,c ,,,,,6,16,136,9,3,0,3,0,,,,,0,30,30,19,,,,,,up,0.5170552477620731,2239.184143609285,None,001,25,2019_Oct_14_1457,ACPT_experiment_5_30_19,3.1.0,59.94972855587233,
,,,C,D,d,v,L,D,d,L,c ,,,,,6,16,136,9,3,0,3,0,,,,,0,31,31,12,,,,,,up,0.5671273615062091,2240.985506012699,None,001,25,2019_Oct_14_1457,ACPT_experiment_5_30_19,3.1.0,59.94972855587233,
,,,C,D,d,v,L,G,y,L,y,,,,,6,16,136,9,3,0,3,0,,,,,0,32,32,34,,,,,,down,0.6002118435580996,2242.8538934479425,None,001,25,2019_Oct_14_1457,ACPT_experiment_5_30_19,3.1.0,59.94972855587233,
,,,C,D,d,v,L,D,g,R,i,,,,,6,16,136,9,3,0,3,0,,,,,0,33,33,15,,,,,,up,0.5337395127180571,2244.7384076174335,None,001,25,2019_Oct_14_1457,ACPT_experiment_5_30_19,3.1.0,59.94972855587233,
,,,C,D,d,v,L,G,y,R,y,,,,,6,16,136,9,3,0,3,0,,,,,0,34,34,35,,,,,,down,0.6338167278536275,2246.5564690768174,None,001,25,2019_Oct_14_1457,ACPT_experiment_5_30_19,3.1.0,59.94972855587233,
,,,C,D,d,v,R,U,y,R,u,,,,,6,16,136,9,3,0,3,0,,,,,0,35,35,31,,,,,,down,0.5836111931157575,2248.491448378452,None,001,25,2019_Oct_14_1457,ACPT_experiment_5_30_19,3.1.0,59.94972855587233,
,,,C,D,d,v,R,G,y,R,y,,,,,6,16,136,9,3,0,3,0,,,,,1,0,36,29,,,,,,down,0.6338131055645135,2250.376069103622,None,001,25,2019_Oct_14_1457,ACPT_experiment_5_30_19,3.1.0,59.94972855587233,
,,,C,D,d,v,R,G,d,R,i,,,,,6,16,136,9,3,0,3,0,,,,,1,1,37,5,,,,,,up,0.6338402727342327,2252.277505099881,None,001,25,2019_Oct_14_1457,ACPT_experiment_5_30_19,3.1.0,59.94972855587233,
,,,C,D,d,v,R,U,y,R,u,,,,,6,16,136,9,3,0,3,0,,,,,1,2,38,31,,,,,,down,0.5670935534717501,2254.1956697341416,None,001,25,2019_Oct_14_1457,ACPT_experiment_5_30_19,3.1.0,59.94972855587233,
,,,C,D,d,v,R,D,g,R,i,,,,,6,16,136,9,3,0,3,0,,,,,1,3,39,3,,,,,,up,0.5001080649672076,2256.064038756082,None,001,25,2019_Oct_14_1457,ACPT_experiment_5_30_19,3.1.0,59.94972855587233,
,,,C,D,d,v,R,U,d,L,u,,,,,6,16,136,9,3,0,3,0,,,,,1,4,40,8,,,,,,up,0.8840158028415317,2257.848472691862,None,001,25,2019_Oct_14_1457,ACPT_experiment_5_30_19,3.1.0,59.94972855587233,
,,,C,D,d,v,R,U,d,R,u,,,,,6,16,136,9,3,0,3,0,,,,,1,5,41,9,,,,,,up,0.6338291040083277,2260.0001237615547,None,001,25,2019_Oct_14_1457,ACPT_experiment_5_30_19,3.1.0,59.94972855587233,
,,,C,D,d,v,L,U,g,R,u,,,,,6,16,136,9,3,0,3,0,,,,,1,6,42,23,,,,,,up,0.533768189176044,2261.9182603230715,None,001,25,2019_Oct_14_1457,ACPT_experiment_5_30_19,3.1.0,59.94972855587233,
,,,C,D,d,v,R,U,g,R,u,,,,,6,16,136,9,3,0,3,0,,,,,1,7,43,11,,,,,,up,0.5838074004586815,2263.7363281214625,None,001,25,2019_Oct_14_1457,ACPT_experiment_5_30_19,3.1.0,59.94972855587233,
,,,C,D,d,v,R,D,g,L,i,,,,,6,16,136,9,3,0,3,0,,,,,1,8,44,2,,,,,,up,0.7172099798908675,2265.5877523754675,None,001,25,2019_Oct_14_1457,ACPT_experiment_5_30_19,3.1.0,59.94972855587233,
,,,C,D,d,v,R,D,y,R,y,,,,,6,16,136,9,3,0,3,0,,,,,1,9,45,27,,,,,,down,0.583803174453351,2267.5725813219065,None,001,25,2019_Oct_14_1457,ACPT_experiment_5_30_19,3.1.0,59.94972855587233,
,,,C,D,d,v,L,U,d,R,u,,,,,6,16,136,9,3,0,3,0,,,,,1,10,46,21,,,,,,up,0.5167745203334562,2269.4576711335535,None,001,25,2019_Oct_14_1457,ACPT_experiment_5_30_19,3.1.0,59.94972855587233,
,,,C,D,d,v,L,D,g,R,i,,,,,6,16,136,9,3,0,3,0,,,,,1,11,47,15,,,,,,up,0.5504180423822618,2271.2587657894087,None,001,25,2019_Oct_14_1457,ACPT_experiment_5_30_19,3.1.0,59.94972855587233,
,,,C,D,d,v,L,G,g,R,c ,,,,,6,16,136,9,3,0,3,0,,,,,1,12,48,19,,,,,,up,0.5170646053429664,2273.0935039673127,None,001,25,2019_Oct_14_1457,ACPT_experiment_5_30_19,3.1.0,59.94972855587233,
,,,C,D,d,v,L,D,y,R,y,,,,,6,16,136,9,3,0,3,0,,,,,1,13,49,33,,,,,,down,0.5504219665290293,2274.894892934181,None,001,25,2019_Oct_14_1457,ACPT_experiment_5_30_19,3.1.0,59.94972855587233,
,,,C,D,d,v,L,D,g,L,i,,,,,6,16,136,9,3,0,3,0,,,,,1,14,50,14,,,,,,up,0.6168782989243482,2276.7299033875047,None,001,25,2019_Oct_14_1457,ACPT_experiment_5_30_19,3.1.0,59.94972855587233,
,,,C,D,d,v,R,D,d,L,c,,,,,6,16,136,9,3,0,3,0,,,,,1,15,51,0,,,,,,up,0.7338939429882885,2278.6310963885167,None,001,25,2019_Oct_14_1457,ACPT_experiment_5_30_19,3.1.0,59.94972855587233,
,,,C,D,d,v,L,U,g,L,u,,,,,6,16,136,9,3,0,3,0,,,,,1,16,52,22,,,,,,up,0.6338541581772006,2280.6493125800303,None,001,25,2019_Oct_14_1457,ACPT_experiment_5_30_19,3.1.0,59.94972855587233,
,,,C,D,d,v,L,U,y,L,u,,,,,6,16,136,9,3,0,3,0,,,,,1,17,53,24,,,,,,down,0.700532355798714,2282.567452160122,None,001,25,2019_Oct_14_1457,ACPT_experiment_5_30_19,3.1.0,59.94972855587233,
,,,C,D,d,v,R,D,d,R,c ,,,,,6,16,136,9,3,0,3,0,,,,,1,18,54,1,,,,,,up,0.6171375944732063,2284.5523097830187,None,001,25,2019_Oct_14_1457,ACPT_experiment_5_30_19,3.1.0,59.94972855587233,
,,,C,D,d,v,L,G,d,L,i,,,,,6,16,136,9,3,0,3,0,,,,,1,19,55,16,,,,,,up,0.5670998924779269,2286.4537711353037,None,001,25,2019_Oct_14_1457,ACPT_experiment_5_30_19,3.1.0,59.94972855587233,
,,,C,D,d,v,L,G,d,R,i,,,,,6,16,136,9,3,0,3,0,,,,,1,20,56,17,,,,,,up,0.683877672872768,2288.288488485044,None,001,25,2019_Oct_14_1457,ACPT_experiment_5_30_19,3.1.0,59.94972855587233,
,,,C,D,d,v,L,U,y,R,u,,,,,6,16,136,9,3,0,3,0,,,,,1,21,57,25,,,,,,down,0.73386104052679,2290.2567191959,None,001,25,2019_Oct_14_1457,ACPT_experiment_5_30_19,3.1.0,59.94972855587233,
,,,C,D,d,v,L,D,d,L,c ,,,,,6,16,136,9,3,0,3,0,,,,,1,22,58,12,,,,,,up,0.5003740013798961,2292.2749048998107,None,001,25,2019_Oct_14_1457,ACPT_experiment_5_30_19,3.1.0,59.94972855587233,
,,,C,D,d,v,R,U,y,L,u,,,,,6,16,136,9,3,0,3,0,,,,,1,23,59,30,,,,,,down,0.5837974391624812,2294.059583641983,None,001,25,2019_Oct_14_1457,ACPT_experiment_5_30_19,3.1.0,59.94972855587233,
,,,C,D,d,v,L,D,y,L,y,,,,,6,16,136,9,3,0,3,0,,,,,1,24,60,32,,,,,,down,0.8002666608708751,2295.9780664339946,None,001,25,2019_Oct_14_1457,ACPT_experiment_5_30_19,3.1.0,59.94972855587233,
,,,C,D,d,v,L,G,y,L,y,,,,,6,16,136,9,3,0,3,0,,,,,1,25,61,34,,,,,,down,0.6171330666120411,2298.079361945797,None,001,25,2019_Oct_14_1457,ACPT_experiment_5_30_19,3.1.0,59.94972855587233,
,,,C,D,d,v,R,G,g,R,c ,,,,,6,16,136,9,3,0,3,0,,,,,1,26,62,7,,,,,,up,0.6838722394377328,2299.9808235999394,None,001,25,2019_Oct_14_1457,ACPT_experiment_5_30_19,3.1.0,59.94972855587233,
,,,C,D,d,v,L,G,g,L,c ,,,,,6,16,136,9,3,0,3,0,,,,,1,27,63,18,,,,,,up,0.6171400093335251,2301.948997259738,None,001,25,2019_Oct_14_1457,ACPT_experiment_5_30_19,3.1.0,59.94972855587233,
,,,C,D,d,v,R,G,y,L,y,,,,,6,16,136,9,3,0,3,0,,,,,1,28,64,28,,,,,,down,0.5671001943355805,2303.8504555934483,None,001,25,2019_Oct_14_1457,ACPT_experiment_5_30_19,3.1.0,59.94972855587233,
,,,C,D,d,v,R,G,d,L,i,,,,,6,16,136,9,3,0,3,0,,,,,1,29,65,4,,,,,,up,0.6504967668051904,2305.7018786400236,None,001,25,2019_Oct_14_1457,ACPT_experiment_5_30_19,3.1.0,59.94972855587233,
,,,C,D,d,v,L,G,y,R,y,,,,,6,16,136,9,3,0,3,0,,,,,1,30,66,35,,,,,,down,0.6838532224192022,2307.6367018813567,None,001,25,2019_Oct_14_1457,ACPT_experiment_5_30_19,3.1.0,59.94972855587233,
,,,C,D,d,v,L,U,d,L,u,,,,,6,16,136,9,3,0,3,0,,,,,1,31,67,20,,,,,,up,0.4503375068143214,2309.6048755411553,None,001,25,2019_Oct_14_1457,ACPT_experiment_5_30_19,3.1.0,59.94972855587233,
,,,C,D,d,v,L,D,d,R,c ,,,,,6,16,136,9,3,0,3,0,,,,,1,32,68,13,,,,,,up,0.7505694540786862,2311.339543748502,None,001,25,2019_Oct_14_1457,ACPT_experiment_5_30_19,3.1.0,59.94972855587233,
,,,C,D,d,v,R,D,y,L,y,,,,,6,16,136,9,3,0,3,0,,,,,1,33,69,26,,,,,,down,0.7338891132694698,2313.374439073394,None,001,25,2019_Oct_14_1457,ACPT_experiment_5_30_19,3.1.0,59.94972855587233,
,,,C,D,d,v,R,U,g,L,u,,,,,6,16,136,9,3,0,3,0,,,,,1,34,70,10,,,,,,up,0.6004581592369505,2315.392655868622,None,001,25,2019_Oct_14_1457,ACPT_experiment_5_30_19,3.1.0,59.94972855587233,
,,,C,D,d,v,R,G,g,L,c ,,,,,6,16,136,9,3,0,3,0,,,,,1,35,71,6,,,,,,up,0.5003803403860729,2317.2607574448607,None,001,25,2019_Oct_14_1457,ACPT_experiment_5_30_19,3.1.0,59.94972855587233,
,,,C,D,d,v,,,,,,,,,,6,16,136,9,4,0,4,0,0,0,0,0,,,,,,,,,,,,,,001,25,2019_Oct_14_1457,ACPT_experiment_5_30_19,3.1.0,59.94972855587233,
,,,C,D,d,v,L,G,y,L,y,,,,,6,16,136,9,4,0,4,0,,,,,0,0,0,34,,,,,,down,0.6502374712554229,2324.850173658591,None,001,25,2019_Oct_14_1457,ACPT_experiment_5_30_19,3.1.0,59.94972855587233,
,,,C,D,d,v,L,U,y,L,u,,,,,6,16,136,9,4,0,4,0,,,,,0,1,1,24,,,,,,down,0.45033931795933313,2326.784731265368,None,001,25,2019_Oct_14_1457,ACPT_experiment_5_30_19,3.1.0,59.94972855587233,
,,,C,D,d,v,L,G,g,L,c ,,,,,6,16,136,9,4,0,4,0,,,,,0,2,2,18,,,,,,up,0.45036105169583607,2328.5193967559985,None,001,25,2019_Oct_14_1457,ACPT_experiment_5_30_19,3.1.0,59.94972855587233,
,,,C,D,d,v,L,D,y,L,y,,,,,6,16,136,9,4,0,4,0,,,,,0,3,3,32,,,,,,down,0.5671122686335366,2330.254065265203,None,001,25,2019_Oct_14_1457,ACPT_experiment_5_30_19,3.1.0,59.94972855587233,
,,,C,D,d,v,R,G,d,R,i,,,,,6,16,136,9,4,0,4,0,,,,,0,4,4,5,,,,,,up,0.6000240882249273,2332.12256710442,None,001,25,2019_Oct_14_1457,ACPT_experiment_5_30_19,3.1.0,59.94972855587233,
,,,C,D,d,v,L,G,y,R,y,,,,,6,16,136,9,4,0,4,0,,,,,0,5,5,35,,,,,,up,0.6004632908134226,2334.006940608339,None,001,25,2019_Oct_14_1457,ACPT_experiment_5_30_19,3.1.0,59.94972855587233,
,,,C,D,d,v,R,D,y,L,y,,,,,6,16,136,9,4,0,4,0,,,,,0,6,6,26,,,,,,down,0.9841358817348009,2335.891728864394,None,001,25,2019_Oct_14_1457,ACPT_experiment_5_30_19,3.1.0,59.94972855587233,
,,,C,D,d,v,R,U,y,L,u,,,,,6,16,136,9,4,0,4,0,,,,,0,7,7,30,,,,,,down,0.5001777940378815,2338.1769817394356,None,001,25,2019_Oct_14_1457,ACPT_experiment_5_30_19,3.1.0,59.94972855587233,
,,,C,D,d,v,R,D,y,R,y,,,,,6,16,136,9,4,0,4,0,,,,,0,8,8,27,,,,,,down,0.6504946538025251,2339.978199251273,None,001,25,2019_Oct_14_1457,ACPT_experiment_5_30_19,3.1.0,59.94972855587233,
,,,C,D,d,v,R,G,g,R,c ,,,,,6,16,136,9,4,0,4,0,,,,,0,9,9,7,,,,,,up,0.5504277018198991,2341.9130101164506,None,001,25,2019_Oct_14_1457,ACPT_experiment_5_30_19,3.1.0,59.94972855587233,
,,,C,D,d,v,R,D,g,R,i,,,,,6,16,136,9,4,0,4,0,,,,,0,10,10,3,,,,,,up,0.5170981115188624,2343.7477567463634,None,001,25,2019_Oct_14_1457,ACPT_experiment_5_30_19,3.1.0,59.94972855587233,
,,,C,D,d,v,R,D,d,L,c,,,,,6,16,136,9,4,0,4,0,,,,,0,11,11,0,,,,,,up,0.7505975268222755,2345.532438808967,None,001,25,2019_Oct_14_1457,ACPT_experiment_5_30_19,3.1.0,59.94972855587233,
,,,C,D,d,v,R,G,y,L,y,,,,,6,16,136,9,4,0,4,0,,,,,0,12,12,28,,,,,,down,0.6504985779492927,2347.5673818273367,None,001,25,2019_Oct_14_1457,ACPT_experiment_5_30_19,3.1.0,59.94972855587233,
,,,C,D,d,v,L,D,g,R,i,,,,,6,16,136,9,4,0,4,0,,,,,0,13,13,15,,,,,,up,0.5337437387215687,2349.502176090354,None,001,25,2019_Oct_14_1457,ACPT_experiment_5_30_19,3.1.0,59.94972855587233,
,,,C,D,d,v,R,U,y,R,u,,,,,6,16,136,9,4,0,4,0,,,,,0,14,14,31,,,,,,down,0.6669027191919668,2351.3371913733968,None,001,25,2019_Oct_14_1457,ACPT_experiment_5_30_19,3.1.0,59.94972855587233,
,,,C,D,d,v,L,D,y,R,y,,,,,6,16,136,9,4,0,4,0,,,,,0,15,15,33,,,,,,down,0.6838511094165369,2353.2884133225384,None,001,25,2019_Oct_14_1457,ACPT_experiment_5_30_19,3.1.0,59.94972855587233,
,,,C,D,d,v,L,U,y,R,u,,,,,6,16,136,9,4,0,4,0,,,,,0,16,16,25,,,,,,down,0.5337331737118802,2355.2565912083414,None,001,25,2019_Oct_14_1457,ACPT_experiment_5_30_19,3.1.0,59.94972855587233,
,,,C,D,d,v,L,U,g,R,u,,,,,6,16,136,9,4,0,4,0,,,,,0,17,17,23,,,,,,up,0.5671207206423787,2357.0746556863,None,001,25,2019_Oct_14_1457,ACPT_experiment_5_30_19,3.1.0,59.94972855587233,
,,,C,D,d,v,L,U,d,L,u,,,,,6,16,136,9,4,0,4,0,,,,,0,18,18,20,,,,,,up,0.5004050926972923,2358.9260518675615,None,001,25,2019_Oct_14_1457,ACPT_experiment_5_30_19,3.1.0,59.94972855587233,
,,,C,D,d,v,R,D,g,L,i,,,,,6,16,136,9,4,0,4,0,,,,,0,19,19,2,,,,,,up,0.5671237392170951,2360.7107734734914,None,001,25,2019_Oct_14_1457,ACPT_experiment_5_30_19,3.1.0,59.94972855587233,
,,,C,D,d,v,L,D,d,L,c ,,,,,6,16,136,9,4,0,4,0,,,,,0,20,20,12,,,,,,up,0.5170606811952894,2362.5622022553584,None,001,25,2019_Oct_14_1457,ACPT_experiment_5_30_19,3.1.0,59.94972855587233,
,,,C,D,d,v,L,G,d,L,i,,,,,6,16,136,9,4,0,4,0,,,,,0,21,21,16,,,,,,up,0.5971271622802306,2364.3835886745496,None,001,25,2019_Oct_14_1457,ACPT_experiment_5_30_19,3.1.0,59.94972855587233,
,,,C,D,d,v,R,G,d,L,i,,,,,6,16,136,9,4,0,4,0,,,,,0,22,22,4,,,,,,up,0.5337395127180571,2366.2650453299334,None,001,25,2019_Oct_14_1457,ACPT_experiment_5_30_19,3.1.0,59.94972855587233,
,,,C,D,d,v,R,U,g,L,u,,,,,6,16,136,9,4,0,4,0,,,,,0,23,23,10,,,,,,up,0.8840227455621061,2368.0830916964446,None,001,25,2019_Oct_14_1457,ACPT_experiment_5_30_19,3.1.0,59.94972855587233,
,,,C,D,d,v,R,U,g,R,u,,,,,6,16,136,9,4,0,4,0,,,,,0,24,24,11,,,,,,up,0.717195188874939,2370.251457216838,None,001,25,2019_Oct_14_1457,ACPT_experiment_5_30_19,3.1.0,59.94972855587233,
,,,C,D,d,v,R,U,d,R,u,,,,,6,16,136,9,4,0,4,0,,,,,0,25,25,9,,,,,,up,0.5337419275765569,2372.2529707300905,None,001,25,2019_Oct_14_1457,ACPT_experiment_5_30_19,3.1.0,59.94972855587233,
,,,C,D,d,v,L,U,g,L,u,,,,,6,16,136,9,4,0,4,0,,,,,0,26,26,22,,,,,,up,0.5337367960009942,2374.0710376229085,None,001,25,2019_Oct_14_1457,ACPT_experiment_5_30_19,3.1.0,59.94972855587233,
,,,C,D,d,v,R,G,g,L,c ,,,,,6,16,136,9,4,0,4,0,,,,,0,27,27,6,,,,,,up,0.4670205643406007,2375.88910059158,None,001,25,2019_Oct_14_1457,ACPT_experiment_5_30_19,3.1.0,59.94972855587233,
,,,C,D,d,v,L,G,d,R,i,,,,,6,16,136,9,4,0,4,0,,,,,0,28,28,17,,,,,,up,0.5137272693791601,2377.660458968215,None,001,25,2019_Oct_14_1457,ACPT_experiment_5_30_19,3.1.0,59.94972855587233,
,,,C,D,d,v,R,G,y,R,y,,,,,6,16,136,9,4,0,4,0,,,,,0,29,29,29,,,,,,up,0.467008188184991,2379.4751921473594,None,001,25,2019_Oct_14_1457,ACPT_experiment_5_30_19,3.1.0,59.94972855587233,
,,,C,D,d,v,L,G,g,R,c ,,,,,6,16,136,9,4,0,4,0,,,,,0,30,30,19,,,,,,up,0.5504138163778407,2381.2432137917463,None,001,25,2019_Oct_14_1457,ACPT_experiment_5_30_19,3.1.0,59.94972855587233,
,,,C,D,d,v,R,D,d,R,c ,,,,,6,16,136,9,4,0,4,0,,,,,0,31,31,1,,,,,,up,0.48370030143541953,2383.0779546863673,None,001,25,2019_Oct_14_1457,ACPT_experiment_5_30_19,3.1.0,59.94972855587233,
,,,C,D,d,v,L,D,g,L,i,,,,,6,16,136,9,4,0,4,0,,,,,0,32,32,14,,,,,,up,0.5969581221088447,2384.8661168635076,None,001,25,2019_Oct_14_1457,ACPT_experiment_5_30_19,3.1.0,59.94972855587233,
,,,C,D,d,v,L,D,d,R,c ,,,,,6,16,136,9,4,0,4,0,,,,,0,33,33,13,,,,,,up,0.6171931362441683,2386.7307337973484,None,001,25,2019_Oct_14_1457,ACPT_experiment_5_30_19,3.1.0,59.94972855587233,
,,,C,D,d,v,L,U,d,R,u,,,,,6,16,136,9,4,0,4,0,,,,,0,34,34,21,,,,,,up,0.5837823462898086,2388.632212959223,None,001,25,2019_Oct_14_1457,ACPT_experiment_5_30_19,3.1.0,59.94972855587233,
,,,C,D,d,v,R,U,d,L,u,,,,,6,16,136,9,4,0,4,0,,,,,0,35,35,8,,,,,,up,0.7672479837428909,2390.5003181577517,None,001,25,2019_Oct_14_1457,ACPT_experiment_5_30_19,3.1.0,59.94972855587233,
,,,C,D,d,v,L,D,y,R,y,,,,,6,16,136,9,4,0,4,0,,,,,1,0,36,33,,,,,,down,0.650485899936939,2392.568578088409,None,001,25,2019_Oct_14_1457,ACPT_experiment_5_30_19,3.1.0,59.94972855587233,
,,,C,D,d,v,R,D,d,R,c ,,,,,6,16,136,9,4,0,4,0,,,,,1,1,37,1,,,,,,up,0.6004521220884271,2394.5367520500645,None,001,25,2019_Oct_14_1457,ACPT_experiment_5_30_19,3.1.0,59.94972855587233,
,,,C,D,d,v,R,G,g,L,c ,,,,,6,16,136,9,4,0,4,0,,,,,1,2,38,6,,,,,,up,0.6505094448175441,2396.4215125352343,None,001,25,2019_Oct_14_1457,ACPT_experiment_5_30_19,3.1.0,59.94972855587233,
,,,C,D,d,v,L,G,y,R,y,,,,,6,16,136,9,4,0,4,0,,,,,1,3,39,35,,,,,,down,0.6338182371400762,2398.356347247151,None,001,25,2019_Oct_14_1457,ACPT_experiment_5_30_19,3.1.0,59.94972855587233,
,,,C,D,d,v,R,G,d,L,i,,,,,6,16,136,9,4,0,4,0,,,,,1,4,40,4,,,,,,up,0.5837473308256449,2400.274514296271,None,001,25,2019_Oct_14_1457,ACPT_experiment_5_30_19,3.1.0,59.94972855587233,
,,,C,D,d,v,L,U,y,R,u,,,,,6,16,136,9,4,0,4,0,,,,,1,5,41,25,,,,,,down,0.5670926478987894,2402.1425896109117,None,001,25,2019_Oct_14_1457,ACPT_experiment_5_30_19,3.1.0,59.94972855587233,
,,,C,D,d,v,R,G,g,R,c ,,,,,6,16,136,9,4,0,4,0,,,,,1,6,42,7,,,,,,up,0.5501493892525104,2404.01096346257,None,001,25,2019_Oct_14_1457,ACPT_experiment_5_30_19,3.1.0,59.94972855587233,
,,,C,D,d,v,L,G,d,R,i,,,,,6,16,136,9,4,0,4,0,,,,,1,7,43,17,,,,,,up,0.5671358135150513,2405.845408536891,None,001,25,2019_Oct_14_1457,ACPT_experiment_5_30_19,3.1.0,59.94972855587233,
,,,C,D,d,v,L,U,d,L,u,,,,,6,16,136,9,4,0,4,0,,,,,1,8,44,20,,,,,,up,0.6338414801639374,2407.6968276593184,None,001,25,2019_Oct_14_1457,ACPT_experiment_5_30_19,3.1.0,59.94972855587233,
,,,C,D,d,v,R,G,d,R,i,,,,,6,16,136,9,4,0,4,0,,,,,1,9,45,5,,,,,,up,0.48373501504192973,2409.614969050556,None,001,25,2019_Oct_14_1457,ACPT_experiment_5_30_19,3.1.0,59.94972855587233,
,,,C,D,d,v,L,D,g,R,i,,,,,6,16,136,9,4,0,4,0,,,,,1,10,46,15,,,,,,up,0.5668224854825894,2411.3999710820567,None,001,25,2019_Oct_14_1457,ACPT_experiment_5_30_19,3.1.0,59.94972855587233,
,,,C,D,d,v,L,G,g,R,c ,,,,,6,16,136,9,4,0,4,0,,,,,1,11,47,19,,,,,,up,0.41697984377060493,2413.251121249497,None,001,25,2019_Oct_14_1457,ACPT_experiment_5_30_19,3.1.0,59.94972855587233,
,,,C,D,d,v,R,D,g,L,i,,,,,6,16,136,9,4,0,4,0,,,,,1,12,48,2,,,,,,up,0.5671007980508875,2414.9357423972674,None,001,25,2019_Oct_14_1457,ACPT_experiment_5_30_19,3.1.0,59.94972855587233,
,,,C,D,d,v,R,U,g,L,u,,,,,6,16,136,9,4,0,4,0,,,,,1,13,49,10,,,,,,up,0.5170640016276593,2416.7871648401274,None,001,25,2019_Oct_14_1457,ACPT_experiment_5_30_19,3.1.0,59.94972855587233,
,,,C,D,d,v,R,D,y,R,y,,,,,6,16,136,9,4,0,4,0,,,,,1,14,50,27,,,,,,down,0.6170443205219271,2418.6220225535812,None,001,25,2019_Oct_14_1457,ACPT_experiment_5_30_19,3.1.0,59.94972855587233,
,,,C,D,d,v,L,G,d,L,i,,,,,6,16,136,9,4,0,4,0,,,,,1,15,51,16,,,,,,up,0.41701093508800113,2420.540049842702,None,001,25,2019_Oct_14_1457,ACPT_experiment_5_30_19,3.1.0,59.94972855587233,
,,,C,D,d,v,L,U,g,L,u,,,,,6,16,136,9,4,0,4,0,,,,,1,16,52,22,,,,,,up,0.5837790258574387,2422.2413504257097,None,001,25,2019_Oct_14_1457,ACPT_experiment_5_30_19,3.1.0,59.94972855587233,
,,,C,D,d,v,R,D,y,L,y,,,,,6,16,136,9,4,0,4,0,,,,,1,17,53,26,,,,,,down,0.6504895222260529,2424.126131739043,None,001,25,2019_Oct_14_1457,ACPT_experiment_5_30_19,3.1.0,59.94972855587233,
,,,C,D,d,v,R,U,d,L,u,,,,,6,16,136,9,4,0,4,0,,,,,1,18,54,8,,,,,,up,0.4669592872778594,2426.0776887499537,None,001,25,2019_Oct_14_1457,ACPT_experiment_5_30_19,3.1.0,59.94972855587233,
,,,C,D,d,v,L,D,d,R,c ,,,,,6,16,136,9,4,0,4,0,,,,,1,19,55,13,,,,,,up,0.6171391037605645,2427.8289772284775,None,001,25,2019_Oct_14_1457,ACPT_experiment_5_30_19,3.1.0,59.94972855587233,
,,,C,D,d,v,R,U,y,R,u,,,,,6,16,136,9,4,0,4,0,,,,,1,20,56,31,,,,,,down,0.667203972927382,2429.730406583873,None,001,25,2019_Oct_14_1457,ACPT_experiment_5_30_19,3.1.0,59.94972855587233,
,,,C,D,d,v,R,U,d,R,u,,,,,6,16,136,9,4,0,4,0,,,,,1,21,57,9,,,,,,up,0.6502830517301845,2431.698874252827,None,001,25,2019_Oct_14_1457,ACPT_experiment_5_30_19,3.1.0,59.94972855587233,
,,,C,D,d,v,L,D,d,L,c ,,,,,6,16,136,9,4,0,4,0,,,,,1,22,58,12,,,,,,up,0.5838022688812998,2433.633408012866,None,001,25,2019_Oct_14_1457,ACPT_experiment_5_30_19,3.1.0,59.94972855587233,
,,,C,D,d,v,R,U,g,R,u,,,,,6,16,136,9,4,0,4,0,,,,,1,23,59,11,,,,,,up,0.5004156577078902,2435.501534039559,None,001,25,2019_Oct_14_1457,ACPT_experiment_5_30_19,3.1.0,59.94972855587233,
,,,C,D,d,v,R,G,y,R,y,,,,,6,16,136,9,4,0,4,0,,,,,1,24,60,29,,,,,,down,0.63380948327449,2437.286236024755,None,001,25,2019_Oct_14_1457,ACPT_experiment_5_30_19,3.1.0,59.94972855587233,
,,,C,D,d,v,R,D,g,R,i,,,,,6,16,136,9,4,0,4,0,,,,,1,25,61,3,,,,,,up,0.567122531786481,2439.2043460228165,None,001,25,2019_Oct_14_1457,ACPT_experiment_5_30_19,3.1.0,59.94972855587233,
,,,C,D,d,v,R,U,y,L,u,,,,,6,16,136,9,4,0,4,0,,,,,1,26,62,30,,,,,,down,0.7005353743725209,2441.055796538419,None,001,25,2019_Oct_14_1457,ACPT_experiment_5_30_19,3.1.0,59.94972855587233,
,,,C,D,d,v,L,U,d,R,u,,,,,6,16,136,9,4,0,4,0,,,,,1,27,63,21,,,,,,up,0.55039721421781,2443.0406955157864,None,001,25,2019_Oct_14_1457,ACPT_experiment_5_30_19,3.1.0,59.94972855587233,
,,,C,D,d,v,L,G,y,L,y,,,,,6,16,136,9,4,0,4,0,,,,,1,28,64,34,,,,,,down,0.6502317359636436,2444.8923371071555,None,001,25,2019_Oct_14_1457,ACPT_experiment_5_30_19,3.1.0,59.94972855587233,
,,,C,D,d,v,L,U,g,R,u,,,,,6,16,136,9,4,0,4,0,,,,,1,29,65,23,,,,,,up,0.5504183442399153,2446.826895317648,None,001,25,2019_Oct_14_1457,ACPT_experiment_5_30_19,3.1.0,59.94972855587233,
,,,C,D,d,v,L,G,g,L,c ,,,,,6,16,136,9,4,0,4,0,,,,,1,30,66,18,,,,,,up,0.48375071162899985,2448.661637117841,None,001,25,2019_Oct_14_1457,ACPT_experiment_5_30_19,3.1.0,59.94972855587233,
,,,C,D,d,v,L,U,y,L,u,,,,,6,16,136,9,4,0,4,0,,,,,1,31,67,24,,,,,,down,0.7005583155387285,2450.429634915489,None,001,25,2019_Oct_14_1457,ACPT_experiment_5_30_19,3.1.0,59.94972855587233,
,,,C,D,d,v,R,D,d,L,c,,,,,6,16,136,9,4,0,4,0,,,,,1,32,68,0,,,,,,up,0.5003833589607893,2452.4145166869816,None,001,25,2019_Oct_14_1457,ACPT_experiment_5_30_19,3.1.0,59.94972855587233,
,,,C,D,d,v,R,G,y,L,y,,,,,6,16,136,9,4,0,4,0,,,,,1,33,69,28,,,,,,down,0.7338972634206584,2454.199223200039,None,001,25,2019_Oct_14_1457,ACPT_experiment_5_30_19,3.1.0,59.94972855587233,
,,,C,D,d,v,L,D,g,L,i,,,,,6,16,136,9,4,0,4,0,,,,,1,34,70,14,,,,,,up,0.4336580715780656,2456.2174421082686,None,001,25,2019_Oct_14_1457,ACPT_experiment_5_30_19,3.1.0,59.94972855587233,
,,,C,D,d,v,L,D,y,L,y,,,,,6,16,136,9,4,0,4,0,,,,,1,35,71,32,,,,,,down,0.5470954974334745,2457.955434973566,None,001,25,2019_Oct_14_1457,ACPT_experiment_5_30_19,3.1.0,59.94972855587233,
,,,C,D,d,v,,,,,,,,,,6,16,136,9,5,0,5,0,0,0,0,0,,,,,,,,,,,,,,001,25,2019_Oct_14_1457,ACPT_experiment_5_30_19,3.1.0,59.94972855587233,
,,,C,D,d,v,R,U,y,L,u,,,,,6,16,136,9,5,0,5,0,,,,,0,0,0,30,,,,,,down,0.7836974036035826,2488.659251236559,None,001,25,2019_Oct_14_1457,ACPT_experiment_5_30_19,3.1.0,59.94972855587233,
,,,C,D,d,v,R,D,g,R,i,,,,,6,16,136,9,5,0,5,0,,,,,0,1,1,3,,,,,,up,4.336660708000636,2490.7272717942583,None,001,25,2019_Oct_14_1457,ACPT_experiment_5_30_19,3.1.0,59.94972855587233,
,,,C,D,d,v,L,D,g,R,i,,,,,6,16,136,9,5,0,5,0,,,,,0,2,2,15,,,,,,up,0.7339307695983734,2496.348224565039,None,001,25,2019_Oct_14_1457,ACPT_experiment_5_30_19,3.1.0,59.94972855587233,
,,,C,D,d,v,L,G,d,R,i,,,,,6,16,136,9,5,0,5,0,,,,,0,3,3,17,,,,,,down,1.9181368633753664,2498.3664863370263,None,001,25,2019_Oct_14_1457,ACPT_experiment_5_30_19,3.1.0,59.94972855587233,
,,,C,D,d,v,R,D,d,L,c,,,,,6,16,136,9,5,0,5,0,,,,,0,4,4,0,,,,,,up,1.2509519074674245,2501.568930959768,None,001,25,2019_Oct_14_1457,ACPT_experiment_5_30_19,3.1.0,59.94972855587233,
,,,C,D,d,v,R,G,d,L,i,,,,,6,16,136,9,5,0,5,0,,,,,0,5,5,4,,,,,,down,2.0515814009932,2504.0875175303713,None,001,25,2019_Oct_14_1457,ACPT_experiment_5_30_19,3.1.0,59.94972855587233,
,,,C,D,d,v,R,G,g,L,c ,,,,,6,16,136,9,5,0,5,0,,,,,0,6,6,6,,,,,,down,1.2009549562271786,2507.4067209164873,None,001,25,2019_Oct_14_1457,ACPT_experiment_5_30_19,3.1.0,59.94972855587233,
,,,C,D,d,v,L,U,y,L,u,,,,,6,16,136,9,5,0,5,0,,,,,0,7,7,24,,,,,,down,0.7506020546834407,2509.8919818209365,None,001,25,2019_Oct_14_1457,ACPT_experiment_5_30_19,3.1.0,59.94972855587233,
,,,C,D,d,v,L,U,g,L,u,,,,,6,16,136,9,5,0,5,0,,,,,0,8,8,22,,,,,,up,1.267681149182863,2511.926856317665,None,001,25,2019_Oct_14_1457,ACPT_experiment_5_30_19,3.1.0,59.94972855587233,
,,,C,D,d,v,L,U,d,L,u,,,,,6,16,136,9,5,0,5,0,,,,,0,9,9,20,,,,,,up,0.583826115620468,2514.4621383219505,None,001,25,2019_Oct_14_1457,ACPT_experiment_5_30_19,3.1.0,59.94972855587233,
,,,C,D,d,v,L,U,d,R,u,,,,,6,16,136,9,5,0,5,0,,,,,0,10,10,21,,,,,,up,0.7505929989602009,2516.3135643870996,None,001,25,2019_Oct_14_1457,ACPT_experiment_5_30_19,3.1.0,59.94972855587233,
,,,C,D,d,v,R,U,d,R,u,,,,,6,16,136,9,5,0,5,0,,,,,0,11,11,9,,,,,,up,0.5002617104091769,2518.3485925292694,None,001,25,2019_Oct_14_1457,ACPT_experiment_5_30_19,3.1.0,59.94972855587233,
,,,C,D,d,v,L,G,d,L,i,,,,,6,16,136,9,5,0,5,0,,,,,0,12,12,16,,,,,,up,1.5678512156709985,2520.133199731226,None,001,25,2019_Oct_14_1457,ACPT_experiment_5_30_19,3.1.0,59.94972855587233,
,,,C,D,d,v,L,U,y,R,u,,,,,6,16,136,9,5,0,5,0,,,,,0,13,13,25,,,,,,down,0.6171360851867576,2522.9853704787033,None,001,25,2019_Oct_14_1457,ACPT_experiment_5_30_19,3.1.0,59.94972855587233,
,,,C,D,d,v,R,G,y,R,y,,,,,6,16,136,9,5,0,5,0,,,,,0,14,14,29,,,,,,down,0.8506502915033707,2524.886827604985,None,001,25,2019_Oct_14_1457,ACPT_experiment_5_30_19,3.1.0,59.94972855587233,
,,,C,D,d,v,L,D,d,R,c ,,,,,6,16,136,9,5,0,5,0,,,,,0,15,15,13,,,,,,up,1.1175233682943144,2527.0218001450125,None,001,25,2019_Oct_14_1457,ACPT_experiment_5_30_19,3.1.0,59.94972855587233,
,,,C,D,d,v,L,U,g,R,u,,,,,6,16,136,9,5,0,5,0,,,,,0,16,16,23,,,,,,up,0.5504201553849271,2529.4236448562583,None,001,25,2019_Oct_14_1457,ACPT_experiment_5_30_19,3.1.0,59.94972855587233,
,,,C,D,d,v,L,G,y,L,y,,,,,6,16,136,9,5,0,5,0,,,,,0,17,17,34,,,,,,down,0.6505079355301859,2531.2583857508794,None,001,25,2019_Oct_14_1457,ACPT_experiment_5_30_19,3.1.0,59.94972855587233,
,,,C,D,d,v,L,G,g,L,c ,,,,,6,16,136,9,5,0,5,0,,,,,0,18,18,18,,,,,,up,0.6838393369762343,2533.19322348137,None,001,25,2019_Oct_14_1457,ACPT_experiment_5_30_19,3.1.0,59.94972855587233,
,,,C,D,d,v,R,D,y,L,y,,,,,6,16,136,9,5,0,5,0,,,,,0,19,19,26,,,,,,down,0.7339108470059728,2535.161385670585,None,001,25,2019_Oct_14_1457,ACPT_experiment_5_30_19,3.1.0,59.94972855587233,
,,,C,D,d,v,R,G,g,R,c ,,,,,6,16,136,9,5,0,5,0,,,,,0,20,20,7,,,,,,up,0.5337201938409635,2537.1796187661153,None,001,25,2019_Oct_14_1457,ACPT_experiment_5_30_19,3.1.0,59.94972855587233,
,,,C,D,d,v,R,D,y,R,y,,,,,6,16,136,9,5,0,5,0,,,,,0,21,21,27,,,,,,down,0.8840257641368225,2539.0143222304127,None,001,25,2019_Oct_14_1457,ACPT_experiment_5_30_19,3.1.0,59.94972855587233,
,,,C,D,d,v,R,D,d,R,c ,,,,,6,16,136,9,5,0,5,0,,,,,0,22,22,1,,,,,,up,0.6004524239460807,2541.1993551117444,None,001,25,2019_Oct_14_1457,ACPT_experiment_5_30_19,3.1.0,59.94972855587233,
,,,C,D,d,v,L,G,y,R,y,,,,,6,16,136,9,5,0,5,0,,,,,0,23,23,35,,,,,,down,0.6505230284028585,2543.0841071449054,None,001,25,2019_Oct_14_1457,ACPT_experiment_5_30_19,3.1.0,59.94972855587233,
,,,C,D,d,v,R,D,g,L,i,,,,,6,16,136,9,5,0,5,0,,,,,0,24,24,2,,,,,,up,0.6672012562094096,2545.018927971379,None,001,25,2019_Oct_14_1457,ACPT_experiment_5_30_19,3.1.0,59.94972855587233,
,,,C,D,d,v,L,D,d,L,c ,,,,,6,16,136,9,5,0,5,0,,,,,0,25,25,12,,,,,,up,0.5334853487447617,2546.987383566035,None,001,25,2019_Oct_14_1457,ACPT_experiment_5_30_19,3.1.0,59.94972855587233,
,,,C,D,d,v,R,U,d,L,u,,,,,6,16,136,9,5,0,5,0,,,,,0,26,26,8,,,,,,up,0.5337373997153918,2548.8051926725916,None,001,25,2019_Oct_14_1457,ACPT_experiment_5_30_19,3.1.0,59.94972855587233,
,,,C,D,d,v,R,U,y,R,u,,,,,6,16,136,9,5,0,5,0,,,,,0,27,27,31,,,,,,down,0.7673162035271162,2550.6065529630027,None,001,25,2019_Oct_14_1457,ACPT_experiment_5_30_19,3.1.0,59.94972855587233,
,,,C,D,d,v,R,G,y,L,y,,,,,6,16,136,9,5,0,5,0,,,,,0,28,28,28,,,,,,down,0.6338067665574272,2552.641466701199,None,001,25,2019_Oct_14_1457,ACPT_experiment_5_30_19,3.1.0,59.94972855587233,
,,,C,D,d,v,L,D,y,R,y,,,,,6,16,136,9,5,0,5,0,,,,,0,29,29,33,,,,,,down,0.6338191427130369,2554.559611412868,None,001,25,2019_Oct_14_1457,ACPT_experiment_5_30_19,3.1.0,59.94972855587233,
,,,C,D,d,v,L,D,g,L,i,,,,,6,16,136,9,5,0,5,0,,,,,0,30,30,14,,,,,,up,0.48369879214715183,2556.477751294817,None,001,25,2019_Oct_14_1457,ACPT_experiment_5_30_19,3.1.0,59.94972855587233,
,,,C,D,d,v,L,G,g,R,c ,,,,,6,16,136,9,5,0,5,0,,,,,0,31,31,19,,,,,,up,0.5003815478157776,2558.2457690150572,None,001,25,2019_Oct_14_1457,ACPT_experiment_5_30_19,3.1.0,59.94972855587233,
,,,C,D,d,v,R,U,g,R,u,,,,,6,16,136,9,5,0,5,0,,,,,0,32,32,11,,,,,,up,0.4000571114293052,2560.0474272387714,None,001,25,2019_Oct_14_1457,ACPT_experiment_5_30_19,3.1.0,59.94972855587233,
,,,C,D,d,v,R,G,d,R,i,,,,,6,16,136,9,5,0,5,0,,,,,0,33,33,5,,,,,,up,0.40029708810197917,2561.7317851668454,None,001,25,2019_Oct_14_1457,ACPT_experiment_5_30_19,3.1.0,59.94972855587233,
,,,C,D,d,v,R,U,g,L,u,,,,,6,16,136,9,5,0,5,0,,,,,0,34,34,10,,,,,,up,0.5504452095528904,2563.4164075220465,None,001,25,2019_Oct_14_1457,ACPT_experiment_5_30_19,3.1.0,59.94972855587233,
,,,C,D,d,v,L,D,y,L,y,,,,,6,16,136,9,5,0,5,0,,,,,0,35,35,32,,,,,,down,0.5504168349525571,2565.251149925954,None,001,25,2019_Oct_14_1457,ACPT_experiment_5_30_19,3.1.0,59.94972855587233,
,,,C,D,d,v,L,U,g,L,u,,,,,6,16,136,9,5,0,5,0,,,,,1,0,36,22,,,,,,up,0.44980261541331856,2567.1030855264785,None,001,25,2019_Oct_14_1457,ACPT_experiment_5_30_19,3.1.0,59.94972855587233,
,,,C,D,d,v,R,D,d,R,c ,,,,,6,16,136,9,5,0,5,0,,,,,1,1,37,1,,,,,,up,0.7672881307835269,2568.8372118997036,None,001,25,2019_Oct_14_1457,ACPT_experiment_5_30_19,3.1.0,59.94972855587233,
,,,C,D,d,v,L,G,d,L,i,,,,,6,16,136,9,5,0,5,0,,,,,1,2,38,16,,,,,,up,0.650508539245493,2570.8888141288603,None,001,25,2019_Oct_14_1457,ACPT_experiment_5_30_19,3.1.0,59.94972855587233,
,,,C,D,d,v,R,G,g,L,c ,,,,,6,16,136,9,5,0,5,0,,,,,1,3,39,6,,,,,,up,0.5671155890659065,2572.8236352571917,None,001,25,2019_Oct_14_1457,ACPT_experiment_5_30_19,3.1.0,59.94972855587233,
,,,C,D,d,v,R,U,y,R,u,,,,,6,16,136,9,5,0,5,0,,,,,1,4,40,31,,,,,,down,0.7670861881497331,2574.725244217769,None,001,25,2019_Oct_14_1457,ACPT_experiment_5_30_19,3.1.0,59.94972855587233,
,,,C,D,d,v,L,G,g,R,c ,,,,,6,16,136,9,5,0,5,0,,,,,1,5,41,19,,,,,,up,0.5337201938409635,2576.7933634828555,None,001,25,2019_Oct_14_1457,ACPT_experiment_5_30_19,3.1.0,59.94972855587233,
,,,C,D,d,v,R,U,y,L,u,,,,,6,16,136,9,5,0,5,0,,,,,1,6,42,30,,,,,,down,0.6338179352833322,2578.6114074345073,None,001,25,2019_Oct_14_1457,ACPT_experiment_5_30_19,3.1.0,59.94972855587233,
,,,C,D,d,v,R,G,y,L,y,,,,,6,16,136,9,5,0,5,0,,,,,1,7,43,28,,,,,,down,0.6671940116311816,2580.546230373983,None,001,25,2019_Oct_14_1457,ACPT_experiment_5_30_19,3.1.0,59.94972855587233,
,,,C,D,d,v,L,U,y,L,u,,,,,6,16,136,9,5,0,5,0,,,,,1,8,44,24,,,,,,down,0.5170480031829356,2582.4977288245486,None,001,25,2019_Oct_14_1457,ACPT_experiment_5_30_19,3.1.0,59.94972855587233,
,,,C,D,d,v,R,G,d,L,i,,,,,6,16,136,9,5,0,5,0,,,,,1,9,45,4,,,,,,up,0.450330865950491,2584.3157893783605,None,001,25,2019_Oct_14_1457,ACPT_experiment_5_30_19,3.1.0,59.94972855587233,
,,,C,D,d,v,L,G,g,L,c ,,,,,6,16,136,9,5,0,5,0,,,,,1,10,46,18,,,,,,up,0.48369969772011245,2586.0504554727054,None,001,25,2019_Oct_14_1457,ACPT_experiment_5_30_19,3.1.0,59.94972855587233,
,,,C,D,d,v,R,U,d,R,u,,,,,6,16,136,9,5,0,5,0,,,,,1,11,47,9,,,,,,up,0.533472670732408,2587.835440298332,None,001,25,2019_Oct_14_1457,ACPT_experiment_5_30_19,3.1.0,59.94972855587233,
,,,C,D,d,v,L,D,g,R,i,,,,,6,16,136,9,5,0,5,0,,,,,1,12,48,15,,,,,,up,0.5504370594017018,2589.6531974854065,None,001,25,2019_Oct_14_1457,ACPT_experiment_5_30_19,3.1.0,59.94972855587233,
,,,C,D,d,v,R,D,y,L,y,,,,,6,16,136,9,5,0,5,0,,,,,1,13,49,26,,,,,,down,0.6338399708765792,2591.487964943483,None,001,25,2019_Oct_14_1457,ACPT_experiment_5_30_19,3.1.0,59.94972855587233,
,,,C,D,d,v,L,D,g,L,i,,,,,6,16,136,9,5,0,5,0,,,,,1,14,50,14,,,,,,up,0.5003746050952032,2593.4061018068583,None,001,25,2019_Oct_14_1457,ACPT_experiment_5_30_19,3.1.0,59.94972855587233,
