facing_vig,person_vig,text_vig,facing_train,person_train,food_train,correct_key_train,facing_exp,person_exp,food_exp,showL_R,consistent,vig_random.thisRepN,vig_random.thisTrialN,vig_random.thisN,vig_random.thisIndex,trainTrials.thisRepN,trainTrials.thisTrialN,trainTrials.thisN,trainTrials.thisIndex,expBlock.thisRepN,expBlock.thisTrialN,expBlock.thisN,expBlock.thisIndex,breakLoop.thisRepN,breakLoop.thisTrialN,breakLoop.thisN,breakLoop.thisIndex,expTrials.thisRepN,expTrials.thisTrialN,expTrials.thisN,expTrials.thisIndex,train_resp.keys,train_resp.corr,train_resp.rt,train_resp.started,train_resp.stopped,exp_resp.keys,exp_resp.rt,exp_resp.started,exp_resp.stopped,session,participant,date,expName,psychopyVersion,frameRate,
C,U,"did not report her food preferences, so her food preferences are unknown.",,,,,,,,,,0,0,0,2,,,,,,,,,,,,,,,,,,,,,,,,,,001,26,2019_Oct_14_1557,ACPT_experiment_5_30_19,3.1.0,59.95461085352911,
C,G,"cannot eat dairy products because she is lactose intolerant. She enjoys eating wheat products. She thinks eating insects, like crickets, is disgusting.",,,,,,,,,,0,1,1,0,,,,,,,,,,,,,,,,,,,,,,,,,,001,26,2019_Oct_14_1557,ACPT_experiment_5_30_19,3.1.0,59.95461085352911,
C,D,"is allergic to gluten, meaning she can’t eat wheat products. She enjoys eating dairy products. She thinks eating insects, like crickets, is disgusting.",,,,,,,,,,0,2,2,1,,,,,,,,,,,,,,,,,,,,,,,,,,001,26,2019_Oct_14_1557,ACPT_experiment_5_30_19,3.1.0,59.95461085352911,
,,,C,U,d,n,,,,,,,,,,0,0,0,15,,,,,,,,,,,,,b,0,2.3518444395758706,1227.1024486072602,None,,,,,001,26,2019_Oct_14_1557,ACPT_experiment_5_30_19,3.1.0,59.95461085352911,
,,,C,U,g,n,,,,,,,,,,0,1,1,16,,,,,,,,,,,,,v,0,1.7847539046761085,1232.7234421287958,None,,,,,001,26,2019_Oct_14_1557,ACPT_experiment_5_30_19,3.1.0,59.95461085352911,
,,,C,U,d,n,,,,,,,,,,0,2,2,6,,,,,,,,,,,,,v,0,1.5845647607984574,1237.7773318337058,None,,,,,001,26,2019_Oct_14_1557,ACPT_experiment_5_30_19,3.1.0,59.95461085352911,
,,,C,G,g,v,,,,,,,,,,0,3,3,13,,,,,,,,,,,,,v,1,3.1691325401734503,1242.6477338655677,None,,,,,001,26,2019_Oct_14_1557,ACPT_experiment_5_30_19,3.1.0,59.95461085352911,
,,,C,G,g,v,,,,,,,,,,0,4,4,4,,,,,,,,,,,,,v,1,1.8347795323752507,1249.0860013004021,None,,,,,001,26,2019_Oct_14_1557,ACPT_experiment_5_30_19,3.1.0,59.95461085352911,
,,,C,D,d,v,,,,,,,,,,0,5,5,0,,,,,,,,,,,,,v,1,1.2176120540134434,1254.2066229335596,None,,,,,001,26,2019_Oct_14_1557,ACPT_experiment_5_30_19,3.1.0,59.95461085352911,
,,,C,D,y,b,,,,,,,,,,0,6,6,2,,,,,,,,,,,,,b,1,1.667706867438028,1258.727011593137,None,,,,,001,26,2019_Oct_14_1557,ACPT_experiment_5_30_19,3.1.0,59.95461085352911,
,,,C,G,d,b,,,,,,,,,,0,7,7,12,,,,,,,,,,,,,v,0,2.0682741179571167,1263.6805720319408,None,,,,,001,26,2019_Oct_14_1557,ACPT_experiment_5_30_19,3.1.0,59.95461085352911,
,,,C,G,y,b,,,,,,,,,,0,8,8,5,,,,,,,,,,,,,b,1,1.301009230197451,1269.0346864395378,None,,,,,001,26,2019_Oct_14_1557,ACPT_experiment_5_30_19,3.1.0,59.95461085352911,
,,,C,D,g,b,,,,,,,,,,0,9,9,10,,,,,,,,,,,,,b,1,2.4683363609638036,1273.638467747438,None,,,,,001,26,2019_Oct_14_1557,ACPT_experiment_5_30_19,3.1.0,59.95461085352911,
,,,C,G,y,b,,,,,,,,,,0,10,10,14,,,,,,,,,,,,,b,1,1.3010086264821439,1279.3926534537623,None,,,,,001,26,2019_Oct_14_1557,ACPT_experiment_5_30_19,3.1.0,59.95461085352911,
,,,C,D,d,v,,,,,,,,,,0,11,11,9,,,,,,,,,,,,,v,1,2.4352467473363504,1283.996182408835,None,,,,,001,26,2019_Oct_14_1557,ACPT_experiment_5_30_19,3.1.0,59.95461085352911,
,,,C,U,g,n,,,,,,,,,,0,12,12,7,,,,,,,,,,,,,n,1,1.4511286751912849,1289.7172510325036,None,,,,,001,26,2019_Oct_14_1557,ACPT_experiment_5_30_19,3.1.0,59.95461085352911,
,,,C,G,d,b,,,,,,,,,,0,13,13,3,,,,,,,,,,,,,b,1,1.5345270588040876,1294.4541973580235,None,,,,,001,26,2019_Oct_14_1557,ACPT_experiment_5_30_19,3.1.0,59.95461085352911,
,,,C,D,d,v,,,,,,,,,,0,14,14,18,,,,,,,,,,,,,v,1,1.2676515671537345,1299.2745942884958,None,,,,,001,26,2019_Oct_14_1557,ACPT_experiment_5_30_19,3.1.0,59.95461085352911,
,,,C,U,y,n,,,,,,,,,,0,15,15,17,,,,,,,,,,,,,n,1,1.284313192800255,1303.8447900309766,None,,,,,001,26,2019_Oct_14_1557,ACPT_experiment_5_30_19,3.1.0,59.95461085352911,
,,,C,G,g,v,,,,,,,,,,0,16,16,19,,,,,,,,,,,,,v,1,1.6679833688631334,1308.4149320428332,None,,,,,001,26,2019_Oct_14_1557,ACPT_experiment_5_30_19,3.1.0,59.95461085352911,
,,,C,D,y,b,,,,,,,,,,0,17,17,11,,,,,,,,,,,,,b,1,1.5511950234558753,1313.3687741146368,None,,,,,001,26,2019_Oct_14_1557,ACPT_experiment_5_30_19,3.1.0,59.95461085352911,
,,,C,U,y,n,,,,,,,,,,0,18,18,8,,,,,,,,,,,,,n,1,1.2009356373509945,1318.2058115407344,None,,,,,001,26,2019_Oct_14_1557,ACPT_experiment_5_30_19,3.1.0,59.95461085352911,
,,,C,D,g,b,,,,,,,,,,0,19,19,1,,,,,,,,,,,,,b,1,1.5842924853786826,1322.7095428006705,None,,,,,001,26,2019_Oct_14_1557,ACPT_experiment_5_30_19,3.1.0,59.95461085352911,
,,,C,D,g,b,,,,,,,,,,1,0,20,1,,,,,,,,,,,,,b,1,0.9007266312528373,1327.5629816512937,None,,,,,001,26,2019_Oct_14_1557,ACPT_experiment_5_30_19,3.1.0,59.95461085352911,
,,,C,U,g,n,,,,,,,,,,1,1,21,16,,,,,,,,,,,,,n,1,1.1671517515878804,1331.7666279685418,None,,,,,001,26,2019_Oct_14_1557,ACPT_experiment_5_30_19,3.1.0,59.95461085352911,
,,,C,D,y,b,,,,,,,,,,1,2,22,11,,,,,,,,,,,,,b,1,1.2008290816702356,1336.219659553095,None,,,,,001,26,2019_Oct_14_1557,ACPT_experiment_5_30_19,3.1.0,59.95461085352911,
,,,C,U,d,n,,,,,,,,,,1,3,23,15,,,,,,,,,,,,,n,1,1.084206757863285,1340.706438498657,None,,,,,001,26,2019_Oct_14_1557,ACPT_experiment_5_30_19,3.1.0,59.95461085352911,
,,,C,G,d,b,,,,,,,,,,1,4,24,3,,,,,,,,,,,,,b,1,1.4844987143897015,1345.0931317770774,None,,,,,001,26,2019_Oct_14_1557,ACPT_experiment_5_30_19,3.1.0,59.95461085352911,
,,,C,G,g,v,,,,,,,,,,1,5,25,13,,,,,,,,,,,,,v,1,1.2843294931026321,1349.8468013071633,None,,,,,001,26,2019_Oct_14_1557,ACPT_experiment_5_30_19,3.1.0,59.95461085352911,
,,,C,D,d,v,,,,,,,,,,1,6,26,9,,,,,,,,,,,,,v,1,1.6343464876772487,1354.433923706134,None,,,,,001,26,2019_Oct_14_1557,ACPT_experiment_5_30_19,3.1.0,59.95461085352911,
,,,C,G,y,b,,,,,,,,,,1,7,27,5,,,,,,,,,,,,,b,1,1.3677496104519378,1359.3540842218517,None,,,,,001,26,2019_Oct_14_1557,ACPT_experiment_5_30_19,3.1.0,59.95461085352911,
,,,C,U,g,n,,,,,,,,,,1,8,28,7,,,,,,,,,,,,,n,1,1.1509486474060395,1364.0076816683777,None,,,,,001,26,2019_Oct_14_1557,ACPT_experiment_5_30_19,3.1.0,59.95461085352911,
,,,C,G,y,b,,,,,,,,,,1,9,29,14,,,,,,,,,,,,,b,1,1.3343795712535211,1368.444421402659,None,,,,,001,26,2019_Oct_14_1557,ACPT_experiment_5_30_19,3.1.0,59.95461085352911,
,,,C,U,d,n,,,,,,,,,,1,10,30,6,,,,,,,,,,,,,n,1,1.0174669813222863,1373.0813173783554,None,,,,,001,26,2019_Oct_14_1557,ACPT_experiment_5_30_19,3.1.0,59.95461085352911,
,,,C,G,g,v,,,,,,,,,,1,11,31,4,,,,,,,,,,,,,v,1,1.6513108763465425,1377.3846023118658,None,,,,,001,26,2019_Oct_14_1557,ACPT_experiment_5_30_19,3.1.0,59.95461085352911,
,,,C,D,g,b,,,,,,,,,,1,12,32,10,,,,,,,,,,,,,b,1,0.9507419957972161,1382.3217577038558,None,,,,,001,26,2019_Oct_14_1557,ACPT_experiment_5_30_19,3.1.0,59.95461085352911,
,,,C,G,g,v,,,,,,,,,,1,13,33,19,,,,,,,,,,,,,v,1,1.2674387576516892,1386.5752648346333,None,,,,,001,26,2019_Oct_14_1557,ACPT_experiment_5_30_19,3.1.0,59.95461085352911,
,,,C,U,y,n,,,,,,,,,,1,14,34,17,,,,,,,,,,,,,n,1,0.8840224437062716,1391.1285239593308,None,,,,,001,26,2019_Oct_14_1557,ACPT_experiment_5_30_19,3.1.0,59.95461085352911,
,,,C,G,d,b,,,,,,,,,,1,15,35,12,,,,,,,,,,,,,b,1,1.4511576535041968,1395.2983709960881,None,,,,,001,26,2019_Oct_14_1557,ACPT_experiment_5_30_19,3.1.0,59.95461085352911,
,,,C,D,d,v,,,,,,,,,,1,16,36,0,,,,,,,,,,,,,v,1,1.1008560073551052,1400.0353725615205,None,,,,,001,26,2019_Oct_14_1557,ACPT_experiment_5_30_19,3.1.0,59.95461085352911,
,,,C,D,d,v,,,,,,,,,,1,17,37,18,,,,,,,,,,,,,v,1,0.8174541221960681,1404.421932418947,None,,,,,001,26,2019_Oct_14_1557,ACPT_experiment_5_30_19,3.1.0,59.95461085352911,
,,,C,D,y,b,,,,,,,,,,1,18,38,2,,,,,,,,,,,,,b,1,0.9340598438429879,1408.5085479992595,None,,,,,001,26,2019_Oct_14_1557,ACPT_experiment_5_30_19,3.1.0,59.95461085352911,
,,,C,U,y,n,,,,,,,,,,1,19,39,8,,,,,,,,,,,,,n,1,0.9507320345019252,1412.7451508110007,None,,,,,001,26,2019_Oct_14_1557,ACPT_experiment_5_30_19,3.1.0,59.95461085352911,
,,,C,U,g,n,,,,,,,,,,2,0,40,16,,,,,,,,,,,,,n,1,0.9173822197517438,1416.9817237388543,None,,,,,001,26,2019_Oct_14_1557,ACPT_experiment_5_30_19,3.1.0,59.95461085352911,
,,,C,D,y,b,,,,,,,,,,2,1,41,2,,,,,,,,,,,,,b,1,1.1006066731024475,1421.2018798474528,None,,,,,001,26,2019_Oct_14_1557,ACPT_experiment_5_30_19,3.1.0,59.95461085352911,
,,,C,U,g,n,,,,,,,,,,2,2,42,7,,,,,,,,,,,,,n,1,1.0008008278146008,1425.588311415464,None,,,,,001,26,2019_Oct_14_1557,ACPT_experiment_5_30_19,3.1.0,59.95461085352911,
,,,C,U,d,n,,,,,,,,,,2,3,43,6,,,,,,,,,,,,,n,1,1.0007703402116022,1429.8582954351314,None,,,,,001,26,2019_Oct_14_1557,ACPT_experiment_5_30_19,3.1.0,59.95461085352911,
,,,C,D,d,v,,,,,,,,,,2,4,44,0,,,,,,,,,,,,,v,1,1.2176111484404828,1434.144912705844,None,,,,,001,26,2019_Oct_14_1557,ACPT_experiment_5_30_19,3.1.0,59.95461085352911,
,,,C,U,y,n,,,,,,,,,,2,5,45,8,,,,,,,,,,,,,n,1,0.984084867825004,1438.665064709181,None,,,,,001,26,2019_Oct_14_1557,ACPT_experiment_5_30_19,3.1.0,59.95461085352911,
,,,C,D,d,v,,,,,,,,,,2,6,46,18,,,,,,,,,,,,,v,1,1.0341433979847352,1442.934992583363,None,,,,,001,26,2019_Oct_14_1557,ACPT_experiment_5_30_19,3.1.0,59.95461085352911,
,,,C,G,y,b,,,,,,,,,,2,7,47,14,,,,,,,,,,,,,b,1,0.9671853785093845,1447.2719053423334,None,,,,,001,26,2019_Oct_14_1557,ACPT_experiment_5_30_19,3.1.0,59.95461085352911,
,,,C,D,d,v,,,,,,,,,,2,8,48,9,,,,,,,,,,,,,b,0,0.900713651381011,1451.5249116916038,None,,,,,001,26,2019_Oct_14_1557,ACPT_experiment_5_30_19,3.1.0,59.95461085352911,
,,,C,D,y,b,,,,,,,,,,2,9,49,11,,,,,,,,,,,,,b,1,0.9504996042651328,1455.728407080127,None,,,,,001,26,2019_Oct_14_1557,ACPT_experiment_5_30_19,3.1.0,59.95461085352911,
,,,C,G,y,b,,,,,,,,,,2,10,50,5,,,,,,,,,,,,,b,1,0.9507459199430741,1459.9647515018914,None,,,,,001,26,2019_Oct_14_1557,ACPT_experiment_5_30_19,3.1.0,59.95461085352911,
,,,C,G,d,b,,,,,,,,,,2,11,51,3,,,,,,,,,,,,,b,1,2.5684108593832207,1464.218253802952,None,,,,,001,26,2019_Oct_14_1557,ACPT_experiment_5_30_19,3.1.0,59.95461085352911,
,,,C,D,g,b,,,,,,,,,,2,12,52,1,,,,,,,,,,,,,b,1,1.2676265129848616,1470.0725390618627,None,,,,,001,26,2019_Oct_14_1557,ACPT_experiment_5_30_19,3.1.0,59.95461085352911,
,,,C,G,g,v,,,,,,,,,,2,13,53,4,,,,,,,,,,,,,v,1,1.0169897446958203,1474.6431326524635,None,,,,,001,26,2019_Oct_14_1557,ACPT_experiment_5_30_19,3.1.0,59.95461085352911,
,,,C,U,y,n,,,,,,,,,,2,14,54,17,,,,,,,,,,,,,n,1,1.0007760755033814,1478.9459977022616,None,,,,,001,26,2019_Oct_14_1557,ACPT_experiment_5_30_19,3.1.0,59.95461085352911,
,,,C,G,g,v,,,,,,,,,,2,15,55,13,,,,,,,,,,,,,v,1,2.5684102556679136,1483.24954555361,None,,,,,001,26,2019_Oct_14_1557,ACPT_experiment_5_30_19,3.1.0,59.95461085352911,
,,,C,D,g,b,,,,,,,,,,2,16,56,10,,,,,,,,,,,,,b,1,0.8006240600916499,1489.1038033434943,None,,,,,001,26,2019_Oct_14_1557,ACPT_experiment_5_30_19,3.1.0,59.95461085352911,
,,,C,U,d,n,,,,,,,,,,2,17,57,15,,,,,,,,,,,,,n,1,0.9340450528288784,1493.2069682584824,None,,,,,001,26,2019_Oct_14_1557,ACPT_experiment_5_30_19,3.1.0,59.95461085352911,
,,,C,G,g,v,,,,,,,,,,2,18,58,19,,,,,,,,,,,,,v,1,1.7347023172387708,1497.4268409229353,None,,,,,001,26,2019_Oct_14_1557,ACPT_experiment_5_30_19,3.1.0,59.95461085352911,
,,,C,G,d,b,,,,,,,,,,2,19,59,12,,,,,,,,,,,,,b,1,0.9174081794917583,1502.4307056038633,None,,,,,001,26,2019_Oct_14_1557,ACPT_experiment_5_30_19,3.1.0,59.95461085352911,
,,,C,D,d,v,,,,,,,,,,3,0,60,0,,,,,,,,,,,,,v,1,0.867351762333783,1506.6339281132514,None,,,,,001,26,2019_Oct_14_1557,ACPT_experiment_5_30_19,3.1.0,59.95461085352911,
,,,C,G,y,b,,,,,,,,,,3,1,61,5,,,,,,,,,,,,,b,1,1.7179972241192445,1510.7871310320934,None,,,,,001,26,2019_Oct_14_1557,ACPT_experiment_5_30_19,3.1.0,59.95461085352911,
,,,C,D,g,b,,,,,,,,,,3,2,62,10,,,,,,,,,,,,,b,1,1.5011666790414893,1515.7909830350072,None,,,,,001,26,2019_Oct_14_1557,ACPT_experiment_5_30_19,3.1.0,59.95461085352911,
,,,C,D,g,b,,,,,,,,,,3,3,63,1,,,,,,,,,,,,,b,1,0.8174511036213516,1520.561153602579,None,,,,,001,26,2019_Oct_14_1557,ACPT_experiment_5_30_19,3.1.0,59.95461085352911,
,,,C,G,y,b,,,,,,,,,,3,4,64,14,,,,,,,,,,,,,b,1,0.8671428769775957,1524.681306451117,None,,,,,001,26,2019_Oct_14_1557,ACPT_experiment_5_30_19,3.1.0,59.95461085352911,
,,,C,D,d,v,,,,,,,,,,3,5,65,9,,,,,,,,,,,,,b,0,1.601220349297364,1528.8510046721494,None,,,,,001,26,2019_Oct_14_1557,ACPT_experiment_5_30_19,3.1.0,59.95461085352911,
,,,C,D,y,b,,,,,,,,,,3,6,66,11,,,,,,,,,,,,,b,1,0.9174244797941356,1533.7380701408038,None,,,,,001,26,2019_Oct_14_1557,ACPT_experiment_5_30_19,3.1.0,59.95461085352911,
,,,C,G,d,b,,,,,,,,,,3,7,67,3,,,,,,,,,,,,,b,1,2.118043166823554,1537.9582651890141,None,,,,,001,26,2019_Oct_14_1557,ACPT_experiment_5_30_19,3.1.0,59.95461085352911,
,,,C,U,y,n,,,,,,,,,,3,8,68,17,,,,,,,,,,,,,n,1,2.101622121561377,1543.3621543807676,None,,,,,001,26,2019_Oct_14_1557,ACPT_experiment_5_30_19,3.1.0,59.95461085352911,
,,,C,U,d,n,,,,,,,,,,3,9,69,6,,,,,,,,,,,,,n,1,0.900706406802783,1548.7329467143118,None,,,,,001,26,2019_Oct_14_1557,ACPT_experiment_5_30_19,3.1.0,59.95461085352911,
,,,C,U,g,n,,,,,,,,,,3,10,70,7,,,,,,,,,,,,,n,1,0.8673577994832158,1552.902804014222,None,,,,,001,26,2019_Oct_14_1557,ACPT_experiment_5_30_19,3.1.0,59.95461085352911,
,,,C,U,d,n,,,,,,,,,,3,11,71,15,,,,,,,,,,,,,n,1,0.9675002158273855,1557.0560042163452,None,,,,,001,26,2019_Oct_14_1557,ACPT_experiment_5_30_19,3.1.0,59.95461085352911,
,,,C,G,g,v,,,,,,,,,,3,12,72,4,,,,,,,,,,,,,v,1,2.1514319211837574,1561.3261856507834,None,,,,,001,26,2019_Oct_14_1557,ACPT_experiment_5_30_19,3.1.0,59.95461085352911,
,,,C,G,g,v,,,,,,,,,,3,13,73,19,,,,,,,,,,,,,v,1,3.21915786601312,1566.7467823505158,None,,,,,001,26,2019_Oct_14_1557,ACPT_experiment_5_30_19,3.1.0,59.95461085352911,
,,,C,G,g,v,,,,,,,,,,3,14,74,13,,,,,,,,,,,,,v,1,1.017460642317019,1573.2351010709299,None,,,,,001,26,2019_Oct_14_1557,ACPT_experiment_5_30_19,3.1.0,59.95461085352911,
,,,C,U,g,n,,,,,,,,,,3,15,75,16,,,,,,,,,,,,,n,1,0.9507356567901297,1577.5384080400345,None,,,,,001,26,2019_Oct_14_1557,ACPT_experiment_5_30_19,3.1.0,59.95461085352911,
,,,C,D,y,b,,,,,,,,,,3,16,76,2,,,,,,,,,,,,,b,1,1.3344073421394569,1581.7749740251675,None,,,,,001,26,2019_Oct_14_1557,ACPT_experiment_5_30_19,3.1.0,59.95461085352911,
,,,C,G,d,b,,,,,,,,,,3,17,77,12,,,,,,,,,,,,,b,1,3.3856802448190138,1586.4121546524384,None,,,,,001,26,2019_Oct_14_1557,ACPT_experiment_5_30_19,3.1.0,59.95461085352911,
,,,C,D,d,v,,,,,,,,,,3,18,78,18,,,,,,,,,,,,,v,1,2.0849454030430934,1593.083681224045,None,,,,,001,26,2019_Oct_14_1557,ACPT_experiment_5_30_19,3.1.0,59.95461085352911,
,,,C,U,y,n,,,,,,,,,,3,19,79,8,,,,,,,,,,,,,n,1,0.7839458322850987,1598.454471746445,None,,,,,001,26,2019_Oct_14_1557,ACPT_experiment_5_30_19,3.1.0,59.95461085352911,
,,,C,D,y,b,,,,,,,,,,4,0,80,2,,,,,,,,,,,,,b,1,0.7169757385090634,1602.541193278721,None,,,,,001,26,2019_Oct_14_1557,ACPT_experiment_5_30_19,3.1.0,59.95461085352911,
,,,C,U,d,n,,,,,,,,,,4,1,81,6,,,,,,,,,,,,,n,1,1.301012550628002,1606.5440192681654,None,,,,,001,26,2019_Oct_14_1557,ACPT_experiment_5_30_19,3.1.0,59.95461085352911,
,,,C,G,d,b,,,,,,,,,,4,2,82,12,,,,,,,,,,,,,b,1,1.5145380584890518,1611.1508780127642,None,,,,,001,26,2019_Oct_14_1557,ACPT_experiment_5_30_19,3.1.0,59.95461085352911,
,,,C,D,d,v,,,,,,,,,,4,3,83,0,,,,,,,,,,,,,v,1,1.1174989178416581,1615.9512708500497,None,,,,,001,26,2019_Oct_14_1557,ACPT_experiment_5_30_19,3.1.0,59.95461085352911,
,,,C,U,y,n,,,,,,,,,,4,4,84,17,,,,,,,,,,,,,n,1,1.1839935861335107,1620.3715765591987,None,,,,,001,26,2019_Oct_14_1557,ACPT_experiment_5_30_19,3.1.0,59.95461085352911,
,,,C,U,g,n,,,,,,,,,,4,5,85,16,,,,,,,,,,,,,n,1,1.1509223858101905,1624.824704436278,None,,,,,001,26,2019_Oct_14_1557,ACPT_experiment_5_30_19,3.1.0,59.95461085352911,
,,,C,U,y,n,,,,,,,,,,4,6,86,8,,,,,,,,,,,,,n,1,1.4811734527247609,1629.2814678844807,None,,,,,001,26,2019_Oct_14_1557,ACPT_experiment_5_30_19,3.1.0,59.95461085352911,
,,,C,G,y,b,,,,,,,,,,4,7,87,14,,,,,,,,,,,,,b,1,1.9849279556819965,1634.0484535541,None,,,,,001,26,2019_Oct_14_1557,ACPT_experiment_5_30_19,3.1.0,59.95461085352911,
,,,C,U,g,n,,,,,,,,,,4,8,88,7,,,,,,,,,,,,,n,1,1.18427612470623,1639.3191961415378,None,,,,,001,26,2019_Oct_14_1557,ACPT_experiment_5_30_19,3.1.0,59.95461085352911,
,,,C,G,g,v,,,,,,,,,,4,9,89,13,,,,,,,,,,,,,v,1,2.3847369402883487,1643.8063904429528,None,,,,,001,26,2019_Oct_14_1557,ACPT_experiment_5_30_19,3.1.0,59.95461085352911,
,,,C,U,d,n,,,,,,,,,,4,10,90,15,,,,,,,,,,,,,n,1,0.9840887919726811,1649.47702079979,None,,,,,001,26,2019_Oct_14_1557,ACPT_experiment_5_30_19,3.1.0,59.95461085352911,
,,,C,G,y,b,,,,,,,,,,4,11,91,5,,,,,,,,,,,,,b,1,1.450711810051871,1653.7640159960301,None,,,,,001,26,2019_Oct_14_1557,ACPT_experiment_5_30_19,3.1.0,59.95461085352911,
,,,C,D,g,b,,,,,,,,,,4,12,92,10,,,,,,,,,,,,,b,1,2.218393261091478,1658.5005910368873,None,,,,,001,26,2019_Oct_14_1557,ACPT_experiment_5_30_19,3.1.0,59.95461085352911,
,,,C,D,d,v,,,,,,,,,,4,13,93,9,,,,,,,,,,,,,v,1,1.3343653839547187,1663.988143039378,None,,,,,001,26,2019_Oct_14_1557,ACPT_experiment_5_30_19,3.1.0,59.95461085352911,
,,,C,D,g,b,,,,,,,,,,4,14,94,1,,,,,,,,,,,,,b,1,1.100587957940661,1668.6086291385418,None,,,,,001,26,2019_Oct_14_1557,ACPT_experiment_5_30_19,3.1.0,59.95461085352911,
,,,C,G,d,b,,,,,,,,,,4,15,95,3,,,,,,,,,,,,,b,1,1.2342652276529407,1672.9950842514336,None,,,,,001,26,2019_Oct_14_1557,ACPT_experiment_5_30_19,3.1.0,59.95461085352911,
,,,C,G,g,v,,,,,,,,,,4,16,96,19,,,,,,,,,,,,,v,1,1.6676938875680207,1677.5154689868632,None,,,,,001,26,2019_Oct_14_1557,ACPT_experiment_5_30_19,3.1.0,59.95461085352911,
,,,C,D,y,b,,,,,,,,,,4,17,97,11,,,,,,,,,,,,,b,1,0.7839536805786338,1682.469003465927,None,,,,,001,26,2019_Oct_14_1557,ACPT_experiment_5_30_19,3.1.0,59.95461085352911,
,,,C,G,g,v,,,,,,,,,,4,18,98,4,,,,,,,,,,,,,v,1,3.5357393183221575,1686.5557932179872,None,,,,,001,26,2019_Oct_14_1557,ACPT_experiment_5_30_19,3.1.0,59.95461085352911,
,,,C,D,d,v,,,,,,,,,,4,19,99,18,,,,,,,,,,,,,v,1,1.7847478675266757,1693.377354714501,None,,,,,001,26,2019_Oct_14_1557,ACPT_experiment_5_30_19,3.1.0,59.95461085352911,
,,,C,U,g,n,,,,,,,,,,5,0,100,7,,,,,,,,,,,,,n,1,0.9674141864543344,1698.447945588383,None,,,,,001,26,2019_Oct_14_1557,ACPT_experiment_5_30_19,3.1.0,59.95461085352911,
,,,C,U,y,n,,,,,,,,,,5,1,101,8,,,,,,,,,,,,,n,1,1.4675403628698405,1702.7014807919059,None,,,,,001,26,2019_Oct_14_1557,ACPT_experiment_5_30_19,3.1.0,59.95461085352911,
,,,C,U,g,n,,,,,,,,,,5,2,102,16,,,,,,,,,,,,,n,1,0.8506578379401617,1707.4381913667567,None,,,,,001,26,2019_Oct_14_1557,ACPT_experiment_5_30_19,3.1.0,59.95461085352911,
,,,C,D,g,b,,,,,,,,,,5,3,103,1,,,,,,,,,,,,,b,1,1.2840852904264466,1711.5916348659848,None,,,,,001,26,2019_Oct_14_1557,ACPT_experiment_5_30_19,3.1.0,59.95461085352911,
,,,C,D,d,v,,,,,,,,,,5,4,104,18,,,,,,,,,,,,,b,0,4.203264467574627,1716.1448465990634,None,,,,,001,26,2019_Oct_14_1557,ACPT_experiment_5_30_19,3.1.0,59.95461085352911,
,,,C,G,y,b,,,,,,,,,,5,5,105,5,,,,,,,,,,,,,b,1,2.0349004564686766,1723.6339601101427,None,,,,,001,26,2019_Oct_14_1557,ACPT_experiment_5_30_19,3.1.0,59.95461085352911,
,,,C,G,d,b,,,,,,,,,,5,6,106,3,,,,,,,,,,,,,b,1,1.7680234555318748,1728.9547171565519,None,,,,,001,26,2019_Oct_14_1557,ACPT_experiment_5_30_19,3.1.0,59.95461085352911,
,,,C,D,d,v,,,,,,,,,,5,7,107,9,,,,,,,,,,,,,v,1,0.9173704473105317,1734.008602333599,None,,,,,001,26,2019_Oct_14_1557,ACPT_experiment_5_30_19,3.1.0,59.95461085352911,
,,,C,G,g,v,,,,,,,,,,5,8,108,19,,,,,,,,,,,,,v,1,3.836050654093924,1738.2287454623274,None,,,,,001,26,2019_Oct_14_1557,ACPT_experiment_5_30_19,3.1.0,59.95461085352911,
,,,C,D,y,b,,,,,,,,,,5,9,109,11,,,,,,,,,,,,,b,1,1.4511455792071501,1745.350643046926,None,,,,,001,26,2019_Oct_14_1557,ACPT_experiment_5_30_19,3.1.0,59.95461085352911,
,,,C,U,y,n,,,,,,,,,,5,10,110,17,,,,,,,,,,,,,n,1,0.6838453741256671,1750.0876271046254,None,,,,,001,26,2019_Oct_14_1557,ACPT_experiment_5_30_19,3.1.0,59.95461085352911,
,,,C,U,d,n,,,,,,,,,,5,11,111,6,,,,,,,,,,,,,n,1,1.9014679931497085,1754.0406541613156,None,,,,,001,26,2019_Oct_14_1557,ACPT_experiment_5_30_19,3.1.0,59.95461085352911,
,,,C,G,d,b,,,,,,,,,,5,12,112,12,,,,,,,,,,,,,b,1,3.636141633929583,1759.2279627459611,None,,,,,001,26,2019_Oct_14_1557,ACPT_experiment_5_30_19,3.1.0,59.95461085352911,
,,,C,D,d,v,,,,,,,,,,5,13,113,0,,,,,,,,,,,,,v,1,1.5178732814511022,1766.1499476881036,None,,,,,001,26,2019_Oct_14_1557,ACPT_experiment_5_30_19,3.1.0,59.95461085352911,
,,,C,G,g,v,,,,,,,,,,5,14,114,4,,,,,,,,,,,,,v,1,1.2342872632452782,1770.9536383180257,None,,,,,001,26,2019_Oct_14_1557,ACPT_experiment_5_30_19,3.1.0,59.95461085352911,
,,,C,U,d,n,,,,,,,,,,5,15,115,15,,,,,,,,,,,,,n,1,0.9674120734543976,1775.4904655305963,None,,,,,001,26,2019_Oct_14_1557,ACPT_experiment_5_30_19,3.1.0,59.95461085352911,
,,,C,D,y,b,,,,,,,,,,5,16,116,2,,,,,,,,,,,,,b,1,1.1008366884798306,1779.7437332884165,None,,,,,001,26,2019_Oct_14_1557,ACPT_experiment_5_30_19,3.1.0,59.95461085352911,
,,,C,D,g,b,,,,,,,,,,5,17,117,10,,,,,,,,,,,,,b,1,1.2142967536437936,1784.1504225098724,None,,,,,001,26,2019_Oct_14_1557,ACPT_experiment_5_30_19,3.1.0,59.95461085352911,
,,,C,G,g,v,,,,,,,,,,5,18,118,13,,,,,,,,,,,,,v,1,1.5178367566986708,1788.6505595531544,None,,,,,001,26,2019_Oct_14_1557,ACPT_experiment_5_30_19,3.1.0,59.95461085352911,
,,,C,G,y,b,,,,,,,,,,5,19,119,14,0,0,0,0,0,0,0,0,,,,,b,1,2.8855845560065063,1793.4375475048164,None,,,,,001,26,2019_Oct_14_1557,ACPT_experiment_5_30_19,3.1.0,59.95461085352911,
,,,C,G,y,b,R,U,y,L,u,,,,,5,19,119,14,0,0,0,0,,,,,0,0,0,30,,,,,,down,1.267695940197882,1844.2098989924598,None,001,26,2019_Oct_14_1557,ACPT_experiment_5_30_19,3.1.0,59.95461085352911,
,,,C,G,y,b,L,D,d,L,c ,,,,,5,19,119,14,0,0,0,0,,,,,0,1,1,12,,,,,,down,1.5845300471919472,1846.7618670728461,None,001,26,2019_Oct_14_1557,ACPT_experiment_5_30_19,3.1.0,59.95461085352911,
,,,C,G,y,b,R,G,g,R,c ,,,,,5,19,119,14,0,0,0,0,,,,,0,2,2,7,,,,,,up,1.1342332911335689,1849.6307356688649,None,001,26,2019_Oct_14_1557,ACPT_experiment_5_30_19,3.1.0,59.95461085352911,
,,,C,G,y,b,R,U,y,R,u,,,,,5,19,119,14,0,0,0,0,,,,,0,3,3,31,,,,,,down,0.8672609032419132,1852.0659944904983,None,001,26,2019_Oct_14_1557,ACPT_experiment_5_30_19,3.1.0,59.95461085352911,
,,,C,G,y,b,L,U,y,R,u,,,,,5,19,119,14,0,0,0,0,,,,,0,4,4,25,,,,,,down,0.984099356983279,1854.2342667369394,None,001,26,2019_Oct_14_1557,ACPT_experiment_5_30_19,3.1.0,59.95461085352911,
,,,C,G,y,b,R,G,d,R,i,,,,,5,19,119,14,0,0,0,0,,,,,0,5,5,5,,,,,,down,0.850652404506036,1856.502675362577,None,001,26,2019_Oct_14_1557,ACPT_experiment_5_30_19,3.1.0,59.95461085352911,
,,,C,G,y,b,R,G,y,L,y,,,,,5,19,119,14,0,0,0,0,,,,,0,6,6,28,,,,,,down,0.8173098343340826,1858.6209482429185,None,001,26,2019_Oct_14_1557,ACPT_experiment_5_30_19,3.1.0,59.95461085352911,
,,,C,G,y,b,L,G,y,R,y,,,,,5,19,119,14,0,0,0,0,,,,,0,7,7,35,,,,,,down,0.7339108470059728,1860.722563723617,None,001,26,2019_Oct_14_1557,ACPT_experiment_5_30_19,3.1.0,59.95461085352911,
,,,C,G,y,b,L,D,d,R,c ,,,,,5,19,119,14,0,0,0,0,,,,,0,8,8,13,,,,,,up,0.8506475747872173,1862.7408040637256,None,001,26,2019_Oct_14_1557,ACPT_experiment_5_30_19,3.1.0,59.95461085352911,
,,,C,G,y,b,R,G,g,L,c ,,,,,5,19,119,14,0,0,0,0,,,,,0,9,9,6,,,,,,down,1.2509585483312549,1864.875776000039,None,001,26,2019_Oct_14_1557,ACPT_experiment_5_30_19,3.1.0,59.95461085352911,
,,,C,G,y,b,L,D,y,L,y,,,,,5,19,119,14,0,0,0,0,,,,,0,10,10,32,,,,,,down,0.7172175263276586,1867.41105740061,None,001,26,2019_Oct_14_1557,ACPT_experiment_5_30_19,3.1.0,59.95461085352911,
,,,C,G,y,b,L,G,g,L,c ,,,,,5,19,119,14,0,0,0,0,,,,,0,11,11,18,,,,,,up,0.7672250425785023,1869.4126231352002,None,001,26,2019_Oct_14_1557,ACPT_experiment_5_30_19,3.1.0,59.95461085352911,
,,,C,G,y,b,R,D,g,L,i,,,,,5,19,119,14,0,0,0,0,,,,,0,12,12,2,,,,,,down,0.9173677305934689,1871.4641713318742,None,001,26,2019_Oct_14_1557,ACPT_experiment_5_30_19,3.1.0,59.95461085352911,
,,,C,G,y,b,L,D,g,R,i,,,,,5,19,119,14,0,0,0,0,,,,,0,13,13,15,,,,,,up,0.8006255693799176,1873.6658422939727,None,001,26,2019_Oct_14_1557,ACPT_experiment_5_30_19,3.1.0,59.95461085352911,
,,,C,G,y,b,R,D,y,R,y,,,,,5,19,119,14,0,0,0,0,,,,,0,14,14,27,,,,,,down,0.7505842450937052,1875.750795847167,None,001,26,2019_Oct_14_1557,ACPT_experiment_5_30_19,3.1.0,59.95461085352911,
,,,C,G,y,b,R,D,d,R,c ,,,,,5,19,119,14,0,0,0,0,,,,,0,15,15,1,,,,,,up,0.7505739819407609,1877.785691473915,None,001,26,2019_Oct_14_1557,ACPT_experiment_5_30_19,3.1.0,59.95461085352911,
,,,C,G,y,b,L,G,y,L,y,,,,,5,19,119,14,0,0,0,0,,,,,0,16,16,34,,,,,,down,0.6838305831097387,1879.8206088344014,None,001,26,2019_Oct_14_1557,ACPT_experiment_5_30_19,3.1.0,59.95461085352911,
,,,C,G,y,b,L,G,g,R,c ,,,,,5,19,119,14,0,0,0,0,,,,,0,17,17,19,,,,,,down,0.9340468639729806,1881.7887643827526,None,001,26,2019_Oct_14_1557,ACPT_experiment_5_30_19,3.1.0,59.95461085352911,
,,,C,G,y,b,L,U,g,R,u,,,,,5,19,119,14,0,0,0,0,,,,,0,18,18,23,,,,,,up,0.7339214120165707,1884.0071328915346,None,001,26,2019_Oct_14_1557,ACPT_experiment_5_30_19,3.1.0,59.95461085352911,
,,,C,G,y,b,L,U,d,L,u,,,,,5,19,119,14,0,0,0,0,,,,,0,19,19,20,,,,,,down,0.8170653298002435,1886.025599322873,None,001,26,2019_Oct_14_1557,ACPT_experiment_5_30_19,3.1.0,59.95461085352911,
,,,C,G,y,b,R,D,y,L,y,,,,,5,19,119,14,0,0,0,0,,,,,0,20,20,26,,,,,,down,0.7839325505574379,1888.1269702990376,None,001,26,2019_Oct_14_1557,ACPT_experiment_5_30_19,3.1.0,59.95461085352911,
,,,C,G,y,b,R,U,g,R,u,,,,,5,19,119,14,0,0,0,0,,,,,0,21,21,11,,,,,,up,1.2342830372417666,1890.1952232869735,None,001,26,2019_Oct_14_1557,ACPT_experiment_5_30_19,3.1.0,59.95461085352911,
,,,C,G,y,b,L,U,g,L,u,,,,,5,19,119,14,0,0,0,0,,,,,0,22,22,22,,,,,,up,0.7005314502257534,1892.7138252523073,None,001,26,2019_Oct_14_1557,ACPT_experiment_5_30_19,3.1.0,59.95461085352911,
,,,C,G,y,b,R,U,g,L,u,,,,,5,19,119,14,0,0,0,0,,,,,0,23,23,10,,,,,,down,0.7839268152656587,1894.698690421641,None,001,26,2019_Oct_14_1557,ACPT_experiment_5_30_19,3.1.0,59.95461085352911,
,,,C,G,y,b,L,G,d,R,i,,,,,5,19,119,14,0,0,0,0,,,,,0,24,24,17,,,,,,down,0.8673215765902569,1896.7669422021463,None,001,26,2019_Oct_14_1557,ACPT_experiment_5_30_19,3.1.0,59.95461085352911,
,,,C,G,y,b,R,U,d,R,u,,,,,5,19,119,14,0,0,0,0,,,,,0,25,25,9,,,,,,up,0.7005510709586815,1898.9185908569798,None,001,26,2019_Oct_14_1557,ACPT_experiment_5_30_19,3.1.0,59.95461085352911,
,,,C,G,y,b,R,G,d,L,i,,,,,5,19,119,14,0,0,0,0,,,,,0,26,26,4,,,,,,down,0.8172929303163983,1900.903449083591,None,001,26,2019_Oct_14_1557,ACPT_experiment_5_30_19,3.1.0,59.95461085352911,
,,,C,G,y,b,L,D,y,R,y,,,,,5,19,119,14,0,0,0,0,,,,,0,27,27,33,,,,,,down,0.6671762020432652,1903.0050609420014,None,001,26,2019_Oct_14_1557,ACPT_experiment_5_30_19,3.1.0,59.95461085352911,
,,,C,G,y,b,R,U,d,L,u,,,,,5,19,119,14,0,0,0,0,,,,,0,28,28,8,,,,,,up,0.7005549951081775,1904.956560599996,None,001,26,2019_Oct_14_1557,ACPT_experiment_5_30_19,3.1.0,59.95461085352911,
,,,C,G,y,b,L,D,g,L,i,,,,,5,19,119,14,0,0,0,0,,,,,0,29,29,14,,,,,,up,1.0174377011517208,1906.941421845182,None,001,26,2019_Oct_14_1557,ACPT_experiment_5_30_19,3.1.0,59.95461085352911,
,,,C,G,y,b,R,D,d,L,c,,,,,5,19,119,14,0,0,0,0,,,,,0,30,30,0,,,,,,down,0.7505760949425166,1909.243182096714,None,001,26,2019_Oct_14_1557,ACPT_experiment_5_30_19,3.1.0,59.95461085352911,
,,,C,G,y,b,L,U,d,R,u,,,,,5,19,119,14,0,0,0,0,,,,,0,31,31,21,,,,,,down,1.1341575249134621,1911.2781039850615,None,001,26,2019_Oct_14_1557,ACPT_experiment_5_30_19,3.1.0,59.95461085352911,
,,,C,G,y,b,R,G,y,R,y,,,,,5,19,119,14,0,0,0,0,,,,,0,32,32,29,,,,,,down,0.8173065139017126,1913.696583154784,None,001,26,2019_Oct_14_1557,ACPT_experiment_5_30_19,3.1.0,59.95461085352911,
,,,C,G,y,b,R,D,g,R,i,,,,,5,19,119,14,0,0,0,0,,,,,0,33,33,3,,,,,,up,0.7505631150725094,1915.7982209729344,None,001,26,2019_Oct_14_1557,ACPT_experiment_5_30_19,3.1.0,59.95461085352911,
,,,C,G,y,b,L,G,d,L,i,,,,,5,19,119,14,0,0,0,0,,,,,0,34,34,16,,,,,,down,0.9340631642753578,1917.83312414612,None,001,26,2019_Oct_14_1557,ACPT_experiment_5_30_19,3.1.0,59.95461085352911,
,,,C,G,y,b,L,U,y,L,u,,,,,5,19,119,14,0,0,0,0,,,,,0,35,35,24,,,,,,down,0.6671949172050518,1920.0514672988775,None,001,26,2019_Oct_14_1557,ACPT_experiment_5_30_19,3.1.0,59.95461085352911,
,,,C,G,y,b,L,D,y,L,y,,,,,5,19,119,14,0,0,0,0,,,,,1,0,36,32,,,,,,down,0.8173122491934919,1921.986283597489,None,001,26,2019_Oct_14_1557,ACPT_experiment_5_30_19,3.1.0,59.95461085352911,
,,,C,G,y,b,R,G,d,R,i,,,,,5,19,119,14,0,0,0,0,,,,,1,1,37,5,,,,,,up,0.7338945467035956,1924.087920811924,None,001,26,2019_Oct_14_1557,ACPT_experiment_5_30_19,3.1.0,59.95461085352911,
,,,C,G,y,b,L,G,y,L,y,,,,,5,19,119,14,0,0,0,0,,,,,1,2,38,34,,,,,,down,0.6335073239661142,1926.123114371976,None,001,26,2019_Oct_14_1557,ACPT_experiment_5_30_19,3.1.0,59.95461085352911,
,,,C,G,y,b,R,D,d,R,c ,,,,,5,19,119,14,0,0,0,0,,,,,1,3,39,1,,,,,,down,0.8006080616469262,1928.0409539057637,None,001,26,2019_Oct_14_1557,ACPT_experiment_5_30_19,3.1.0,59.95461085352911,
,,,C,G,y,b,L,D,g,L,i,,,,,5,19,119,14,0,0,0,0,,,,,1,4,40,14,,,,,,up,0.8006119857927843,1930.1258911586556,None,001,26,2019_Oct_14_1557,ACPT_experiment_5_30_19,3.1.0,59.95461085352911,
,,,C,G,y,b,L,U,y,L,u,,,,,5,19,119,14,0,0,0,0,,,,,1,5,41,24,,,,,,down,0.7338806612606277,1932.2108386747004,None,001,26,2019_Oct_14_1557,ACPT_experiment_5_30_19,3.1.0,59.95461085352911,
,,,C,G,y,b,R,D,y,R,y,,,,,5,19,119,14,0,0,0,0,,,,,1,6,42,27,,,,,,down,0.6004629889557691,1934.229041886343,None,001,26,2019_Oct_14_1557,ACPT_experiment_5_30_19,3.1.0,59.95461085352911,
,,,C,G,y,b,L,U,g,L,u,,,,,5,19,119,14,0,0,0,0,,,,,1,7,43,22,,,,,,up,0.7505631150725094,1936.1138280293962,None,001,26,2019_Oct_14_1557,ACPT_experiment_5_30_19,3.1.0,59.95461085352911,
,,,C,G,y,b,R,U,g,R,u,,,,,5,19,119,14,0,0,0,0,,,,,1,8,44,11,,,,,,up,0.6671686556055647,1938.1487197319984,None,001,26,2019_Oct_14_1557,ACPT_experiment_5_30_19,3.1.0,59.95461085352911,
,,,C,G,y,b,L,G,y,R,y,,,,,5,19,119,14,0,0,0,0,,,,,1,9,45,35,,,,,,down,0.6505145763949258,1940.1168973159438,None,001,26,2019_Oct_14_1557,ACPT_experiment_5_30_19,3.1.0,59.95461085352911,
,,,C,G,y,b,L,D,g,R,i,,,,,5,19,119,14,0,0,0,0,,,,,1,10,46,15,,,,,,up,0.7172108854610997,1942.0683942572232,None,001,26,2019_Oct_14_1557,ACPT_experiment_5_30_19,3.1.0,59.95461085352911,
,,,C,G,y,b,R,G,d,L,i,,,,,5,19,119,14,0,0,0,0,,,,,1,11,47,4,,,,,,up,0.7505682466489816,1944.0699364469328,None,001,26,2019_Oct_14_1557,ACPT_experiment_5_30_19,3.1.0,59.95461085352911,
,,,C,G,y,b,L,G,g,L,c ,,,,,5,19,119,14,0,0,0,0,,,,,1,12,48,18,,,,,,down,0.8172920247452566,1946.1048260365333,None,001,26,2019_Oct_14_1557,ACPT_experiment_5_30_19,3.1.0,59.95461085352911,
,,,C,G,y,b,L,G,d,L,i,,,,,5,19,119,14,0,0,0,0,,,,,1,13,49,16,,,,,,down,0.73394616432779,1948.189739442687,None,001,26,2019_Oct_14_1557,ACPT_experiment_5_30_19,3.1.0,59.95461085352911,
,,,C,G,y,b,L,D,d,L,c ,,,,,5,19,119,14,0,0,0,0,,,,,1,14,50,12,,,,,,down,0.884051120163349,1950.19127650082,None,001,26,2019_Oct_14_1557,ACPT_experiment_5_30_19,3.1.0,59.95461085352911,
,,,C,G,y,b,L,U,y,R,u,,,,,5,19,119,14,0,0,0,0,,,,,1,15,51,25,,,,,,down,0.6338115962771553,1952.3596362859225,None,001,26,2019_Oct_14_1557,ACPT_experiment_5_30_19,3.1.0,59.95461085352911,
,,,C,G,y,b,R,D,g,R,i,,,,,5,19,119,14,0,0,0,0,,,,,1,16,52,3,,,,,,up,0.6004835152616579,1954.2777662065764,None,001,26,2019_Oct_14_1557,ACPT_experiment_5_30_19,3.1.0,59.95461085352911,
,,,C,G,y,b,R,U,g,L,u,,,,,5,19,119,14,0,0,0,0,,,,,1,17,53,10,,,,,,up,0.6838571465668792,1956.1458704995312,None,001,26,2019_Oct_14_1557,ACPT_experiment_5_30_19,3.1.0,59.95461085352911,
,,,C,G,y,b,L,G,d,R,i,,,,,5,19,119,14,0,0,0,0,,,,,1,18,54,17,,,,,,down,1.28431772066142,1958.1140492909071,None,001,26,2019_Oct_14_1557,ACPT_experiment_5_30_19,3.1.0,59.95461085352911,
,,,C,G,y,b,L,U,d,R,u,,,,,5,19,119,14,0,0,0,0,,,,,1,19,55,21,,,,,,up,0.6004811004040675,1960.6826874489489,None,001,26,2019_Oct_14_1557,ACPT_experiment_5_30_19,3.1.0,59.95461085352911,
,,,C,G,y,b,L,D,y,R,y,,,,,5,19,119,14,0,0,0,0,,,,,1,20,56,33,,,,,,down,0.6338303114389419,1962.5674491415484,None,001,26,2019_Oct_14_1557,ACPT_experiment_5_30_19,3.1.0,59.95461085352911,
,,,C,G,y,b,R,U,d,L,u,,,,,5,19,119,14,0,0,0,0,,,,,1,21,57,8,,,,,,up,0.7172413730640983,1964.4855866086382,None,001,26,2019_Oct_14_1557,ACPT_experiment_5_30_19,3.1.0,59.95461085352911,
,,,C,G,y,b,R,D,g,L,i,,,,,5,19,119,14,0,0,0,0,,,,,1,22,58,2,,,,,,up,0.6838547317074699,1966.4871478153673,None,001,26,2019_Oct_14_1557,ACPT_experiment_5_30_19,3.1.0,59.95461085352911,
,,,C,G,y,b,L,D,d,R,c ,,,,,5,19,119,14,0,0,0,0,,,,,1,23,59,13,,,,,,up,0.5670899311826361,1968.455328719745,None,001,26,2019_Oct_14_1557,ACPT_experiment_5_30_19,3.1.0,59.95461085352911,
,,,C,G,y,b,R,U,y,R,u,,,,,5,19,119,14,0,0,0,0,,,,,1,24,60,31,,,,,,down,0.6338112944176828,1970.3067508607473,None,001,26,2019_Oct_14_1557,ACPT_experiment_5_30_19,3.1.0,59.95461085352911,
,,,C,G,y,b,L,G,g,R,c ,,,,,5,19,119,14,0,0,0,0,,,,,1,25,61,19,,,,,,up,0.6504871073666436,1972.2249167024365,None,001,26,2019_Oct_14_1557,ACPT_experiment_5_30_19,3.1.0,59.95461085352911,
,,,C,G,y,b,L,U,d,L,u,,,,,5,19,119,14,0,0,0,0,,,,,1,26,62,20,,,,,,down,0.7672534171761072,1974.1597049283064,None,001,26,2019_Oct_14_1557,ACPT_experiment_5_30_19,3.1.0,59.95461085352911,
,,,C,G,y,b,R,G,y,R,y,,,,,5,19,119,14,0,0,0,0,,,,,1,27,63,29,,,,,,down,0.6471654679917265,1976.2312901206278,None,001,26,2019_Oct_14_1557,ACPT_experiment_5_30_19,3.1.0,59.95461085352911,
,,,C,G,y,b,R,D,y,L,y,,,,,5,19,119,14,0,0,0,0,,,,,1,28,64,26,,,,,,down,0.6838595614244696,1978.1461008167662,None,001,26,2019_Oct_14_1557,ACPT_experiment_5_30_19,3.1.0,59.95461085352911,
,,,C,G,y,b,R,G,g,L,c ,,,,,5,19,119,14,0,0,0,0,,,,,1,29,65,6,,,,,,up,0.6505444602826174,1980.1142892675798,None,001,26,2019_Oct_14_1557,ACPT_experiment_5_30_19,3.1.0,59.95461085352911,
,,,C,G,y,b,R,G,y,L,y,,,,,5,19,119,14,0,0,0,0,,,,,1,30,66,28,,,,,,down,0.6171430279082415,1982.0491064717644,None,001,26,2019_Oct_14_1557,ACPT_experiment_5_30_19,3.1.0,59.95461085352911,
,,,C,G,y,b,R,G,g,R,c ,,,,,5,19,119,14,0,0,0,0,,,,,1,31,67,7,,,,,,up,0.5504092885148566,1983.9672394109912,None,001,26,2019_Oct_14_1557,ACPT_experiment_5_30_19,3.1.0,59.95461085352911,
,,,C,G,y,b,L,U,g,R,u,,,,,5,19,119,14,0,0,0,0,,,,,1,32,68,23,,,,,,up,0.7005344688004698,1985.801972155461,None,001,26,2019_Oct_14_1557,ACPT_experiment_5_30_19,3.1.0,59.95461085352911,
,,,C,G,y,b,R,U,y,L,u,,,,,5,19,119,14,0,0,0,0,,,,,1,33,69,30,,,,,,down,0.6171330666129506,1987.786841852656,None,001,26,2019_Oct_14_1557,ACPT_experiment_5_30_19,3.1.0,59.95461085352911,
,,,C,G,y,b,R,D,d,L,c,,,,,5,19,119,14,0,0,0,0,,,,,1,34,70,0,,,,,,down,0.817164942758609,1989.6883110532344,None,001,26,2019_Oct_14_1557,ACPT_experiment_5_30_19,3.1.0,59.95461085352911,
,,,C,G,y,b,R,U,d,R,u,,,,,5,19,119,14,0,0,0,0,,,,,1,35,71,9,,,,,,down,0.6672051803561772,1991.7732314021105,None,001,26,2019_Oct_14_1557,ACPT_experiment_5_30_19,3.1.0,59.95461085352911,
,,,C,G,y,b,,,,,,,,,,5,19,119,14,1,0,1,0,0,0,0,0,,,,,,,,,,,,,,001,26,2019_Oct_14_1557,ACPT_experiment_5_30_19,3.1.0,59.95461085352911,
,,,C,G,y,b,L,G,g,L,c ,,,,,5,19,119,14,1,0,1,0,,,,,0,0,0,18,,,,,,up,0.6804274422229355,2005.9040648727878,None,001,26,2019_Oct_14_1557,ACPT_experiment_5_30_19,3.1.0,59.95461085352911,
,,,C,G,y,b,L,U,g,R,u,,,,,5,19,119,14,1,0,1,0,,,,,0,1,1,23,,,,,,up,0.7006123480223323,2007.86893228794,None,001,26,2019_Oct_14_1557,ACPT_experiment_5_30_19,3.1.0,59.95461085352911,
,,,C,G,y,b,R,G,g,L,c ,,,,,5,19,119,14,1,0,1,0,,,,,0,2,2,6,,,,,,up,0.6004638945287297,2009.8537862885478,None,001,26,2019_Oct_14_1557,ACPT_experiment_5_30_19,3.1.0,59.95461085352911,
,,,C,G,y,b,R,U,y,L,u,,,,,5,19,119,14,1,0,1,0,,,,,0,3,3,30,,,,,,down,0.6171363870435016,2011.7385682055974,None,001,26,2019_Oct_14_1557,ACPT_experiment_5_30_19,3.1.0,59.95461085352911,
,,,C,G,y,b,L,D,y,R,y,,,,,5,19,119,14,1,0,1,0,,,,,0,4,4,33,,,,,,down,0.633820350141832,2013.640028048594,None,001,26,2019_Oct_14_1557,ACPT_experiment_5_30_19,3.1.0,59.95461085352911,
,,,C,G,y,b,R,D,g,R,i,,,,,5,19,119,14,1,0,1,0,,,,,0,5,5,3,,,,,,down,0.7338915281288791,2015.5581685342586,None,001,26,2019_Oct_14_1557,ACPT_experiment_5_30_19,3.1.0,59.95461085352911,
,,,C,G,y,b,R,U,g,R,u,,,,,5,19,119,14,1,0,1,0,,,,,0,6,6,11,,,,,,up,0.600454536948746,2017.5763856313442,None,001,26,2019_Oct_14_1557,ACPT_experiment_5_30_19,3.1.0,59.95461085352911,
,,,C,G,y,b,R,G,g,R,c ,,,,,5,19,119,14,1,0,1,0,,,,,0,7,7,7,,,,,,up,0.5170480031829356,2019.4611892821285,None,001,26,2019_Oct_14_1557,ACPT_experiment_5_30_19,3.1.0,59.95461085352911,
,,,C,G,y,b,R,D,d,L,c,,,,,5,19,119,14,1,0,1,0,,,,,0,8,8,0,,,,,,down,0.6171279350346595,2021.262571306277,None,001,26,2019_Oct_14_1557,ACPT_experiment_5_30_19,3.1.0,59.95461085352911,
,,,C,G,y,b,L,D,g,L,i,,,,,5,19,119,14,1,0,1,0,,,,,0,9,9,14,,,,,,up,0.6672332530997664,2023.1640214898362,None,001,26,2019_Oct_14_1557,ACPT_experiment_5_30_19,3.1.0,59.95461085352911,
,,,C,G,y,b,R,G,d,L,i,,,,,5,19,119,14,1,0,1,0,,,,,0,10,10,4,,,,,,up,0.6335402264303411,2025.1324598786177,None,001,26,2019_Oct_14_1557,ACPT_experiment_5_30_19,3.1.0,59.95461085352911,
,,,C,G,y,b,L,G,g,R,c ,,,,,5,19,119,14,1,0,1,0,,,,,0,11,11,19,,,,,,up,0.667174390895525,2027.05032476843,None,001,26,2019_Oct_14_1557,ACPT_experiment_5_30_19,3.1.0,59.95461085352911,
,,,C,G,y,b,R,U,y,R,u,,,,,5,19,119,14,1,0,1,0,,,,,0,12,12,31,,,,,,down,0.7005317520834069,2029.0018271431436,None,001,26,2019_Oct_14_1557,ACPT_experiment_5_30_19,3.1.0,59.95461085352911,
,,,C,G,y,b,L,G,d,L,i,,,,,5,19,119,14,1,0,1,0,,,,,0,13,13,16,,,,,,up,0.6004469905110454,2030.986687180899,None,001,26,2019_Oct_14_1557,ACPT_experiment_5_30_19,3.1.0,59.95461085352911,
,,,C,G,y,b,R,G,d,R,i,,,,,5,19,119,14,1,0,1,0,,,,,0,14,14,5,,,,,,down,0.7505739819407609,2032.8714627589416,None,001,26,2019_Oct_14_1557,ACPT_experiment_5_30_19,3.1.0,59.95461085352911,
,,,C,G,y,b,R,G,y,L,y,,,,,5,19,119,14,1,0,1,0,,,,,0,15,15,28,,,,,,down,0.6838535242750368,2034.8896789504543,None,001,26,2019_Oct_14_1557,ACPT_experiment_5_30_19,3.1.0,59.95461085352911,
,,,C,G,y,b,L,D,y,L,y,,,,,5,19,119,14,1,0,1,0,,,,,0,16,16,32,,,,,,down,0.6671789187585091,2036.8578583455437,None,001,26,2019_Oct_14_1557,ACPT_experiment_5_30_19,3.1.0,59.95461085352911,
,,,C,G,y,b,R,U,d,R,u,,,,,5,19,119,14,1,0,1,0,,,,,0,17,17,9,,,,,,up,0.8173379070776718,2038.8093362698037,None,001,26,2019_Oct_14_1557,ACPT_experiment_5_30_19,3.1.0,59.95461085352911,
,,,C,G,y,b,R,D,y,R,y,,,,,5,19,119,14,1,0,1,0,,,,,0,18,18,27,,,,,,down,0.6004620833846275,2040.9109686545198,None,001,26,2019_Oct_14_1557,ACPT_experiment_5_30_19,3.1.0,59.95461085352911,
,,,C,G,y,b,L,U,y,R,u,,,,,5,19,119,14,1,0,1,0,,,,,0,19,19,25,,,,,,down,0.6171324628958246,2042.7957526845694,None,001,26,2019_Oct_14_1557,ACPT_experiment_5_30_19,3.1.0,59.95461085352911,
,,,C,G,y,b,R,U,d,L,u,,,,,5,19,119,14,1,0,1,0,,,,,0,20,20,8,,,,,,down,0.7672461725978792,2044.6972155461426,None,001,26,2019_Oct_14_1557,ACPT_experiment_5_30_19,3.1.0,59.95461085352911,
,,,C,G,y,b,L,D,g,R,i,,,,,5,19,119,14,1,0,1,0,,,,,0,21,21,15,,,,,,up,0.7505905841007916,2046.748765252103,None,001,26,2019_Oct_14_1557,ACPT_experiment_5_30_19,3.1.0,59.95461085352911,
,,,C,G,y,b,L,U,g,L,u,,,,,5,19,119,14,1,0,1,0,,,,,0,22,22,22,,,,,,up,0.61713216103999,2048.783688046022,None,001,26,2019_Oct_14_1557,ACPT_experiment_5_30_19,3.1.0,59.95461085352911,
,,,C,G,y,b,L,U,y,L,u,,,,,5,19,119,14,1,0,1,0,,,,,0,23,23,24,,,,,,down,0.6838710320080281,2050.685121325565,None,001,26,2019_Oct_14_1557,ACPT_experiment_5_30_19,3.1.0,59.95461085352911,
,,,C,G,y,b,L,G,y,R,y,,,,,5,19,119,14,1,0,1,0,,,,,0,24,24,35,,,,,,down,0.6338037479836203,2052.653332717544,None,001,26,2019_Oct_14_1557,ACPT_experiment_5_30_19,3.1.0,59.95461085352911,
,,,C,G,y,b,R,U,g,L,u,,,,,5,19,119,14,1,0,1,0,,,,,0,25,25,10,,,,,,up,0.717220544900556,2054.588143884579,None,001,26,2019_Oct_14_1557,ACPT_experiment_5_30_19,3.1.0,59.95461085352911,
,,,C,G,y,b,R,D,g,L,i,,,,,5,19,119,14,1,0,1,0,,,,,0,26,26,2,,,,,,up,0.6804183865006053,2056.5931166842056,None,001,26,2019_Oct_14_1557,ACPT_experiment_5_30_19,3.1.0,59.95461085352911,
,,,C,G,y,b,L,G,y,L,y,,,,,5,19,119,14,1,0,1,0,,,,,0,27,27,34,,,,,,down,0.5837808370015409,2058.5578585266576,None,001,26,2019_Oct_14_1557,ACPT_experiment_5_30_19,3.1.0,59.95461085352911,
,,,C,G,y,b,L,U,d,L,u,,,,,5,19,119,14,1,0,1,0,,,,,0,28,28,20,,,,,,up,0.7005302427969582,2060.4259594991818,None,001,26,2019_Oct_14_1557,ACPT_experiment_5_30_19,3.1.0,59.95461085352911,
,,,C,G,y,b,L,D,d,L,c ,,,,,5,19,119,14,1,0,1,0,,,,,0,29,29,12,,,,,,down,0.7672543227490678,2062.410814103505,None,001,26,2019_Oct_14_1557,ACPT_experiment_5_30_19,3.1.0,59.95461085352911,
,,,C,G,y,b,R,D,d,R,c ,,,,,5,19,119,14,1,0,1,0,,,,,0,30,30,1,,,,,,down,0.7672528134626191,2064.4457136544006,None,001,26,2019_Oct_14_1557,ACPT_experiment_5_30_19,3.1.0,59.95461085352911,
,,,C,G,y,b,L,U,d,R,u,,,,,5,19,119,14,1,0,1,0,,,,,0,31,31,21,,,,,,down,0.6004557443775411,2066.4973158835583,None,001,26,2019_Oct_14_1557,ACPT_experiment_5_30_19,3.1.0,59.95461085352911,
,,,C,G,y,b,R,D,y,L,y,,,,,5,19,119,14,1,0,1,0,,,,,0,32,32,26,,,,,,down,0.6671819373332255,2068.382066407432,None,001,26,2019_Oct_14_1557,ACPT_experiment_5_30_19,3.1.0,59.95461085352911,
,,,C,G,y,b,R,G,y,R,y,,,,,5,19,119,14,1,0,1,0,,,,,0,33,33,29,,,,,,down,0.7172033390270371,2070.3502521415285,None,001,26,2019_Oct_14_1557,ACPT_experiment_5_30_19,3.1.0,59.95461085352911,
,,,C,G,y,b,L,G,d,R,i,,,,,5,19,119,14,1,0,1,0,,,,,0,34,34,17,,,,,,down,0.6671780131873675,2072.368461088461,None,001,26,2019_Oct_14_1557,ACPT_experiment_5_30_19,3.1.0,59.95461085352911,
,,,C,G,y,b,L,D,d,R,c ,,,,,5,19,119,14,1,0,1,0,,,,,0,35,35,13,,,,,,up,0.7005565043946262,2074.3199604446,None,001,26,2019_Oct_14_1557,ACPT_experiment_5_30_19,3.1.0,59.95461085352911,
,,,C,G,y,b,R,G,y,R,y,,,,,5,19,119,14,1,0,1,0,,,,,1,0,36,29,,,,,,down,0.7505703596507374,2076.304821689786,None,001,26,2019_Oct_14_1557,ACPT_experiment_5_30_19,3.1.0,59.95461085352911,
,,,C,G,y,b,R,U,y,L,u,,,,,5,19,119,14,1,0,1,0,,,,,1,1,37,30,,,,,,down,0.6671499404437782,2078.339743276276,None,001,26,2019_Oct_14_1557,ACPT_experiment_5_30_19,3.1.0,59.95461085352911,
,,,C,G,y,b,R,D,g,L,i,,,,,5,19,119,14,1,0,1,0,,,,,1,2,38,2,,,,,,up,0.6505263488361379,2080.291210937383,None,001,26,2019_Oct_14_1557,ACPT_experiment_5_30_19,3.1.0,59.95461085352911,
,,,C,G,y,b,L,G,y,R,y,,,,,5,19,119,14,1,0,1,0,,,,,1,3,39,35,,,,,,down,0.55039389378544,2082.2427329328293,None,001,26,2019_Oct_14_1557,ACPT_experiment_5_30_19,3.1.0,59.95461085352911,
,,,C,G,y,b,L,G,g,R,c ,,,,,5,19,119,14,1,0,1,0,,,,,1,4,40,19,,,,,,up,0.583770271990943,2084.094139679102,None,001,26,2019_Oct_14_1557,ACPT_experiment_5_30_19,3.1.0,59.95461085352911,
,,,C,G,y,b,L,D,g,L,i,,,,,5,19,119,14,1,0,1,0,,,,,1,5,41,14,,,,,,up,0.5337337774253683,2085.9622349163346,None,001,26,2019_Oct_14_1557,ACPT_experiment_5_30_19,3.1.0,59.95461085352911,
,,,C,G,y,b,L,U,y,R,u,,,,,5,19,119,14,1,0,1,0,,,,,1,6,42,25,,,,,,down,0.6168900713655603,2087.797222730349,None,001,26,2019_Oct_14_1557,ACPT_experiment_5_30_19,3.1.0,59.95461085352911,
,,,C,G,y,b,R,D,d,L,c,,,,,5,19,119,14,1,0,1,0,,,,,1,7,43,0,,,,,,up,0.5504430965502252,2089.6984371632407,None,001,26,2019_Oct_14_1557,ACPT_experiment_5_30_19,3.1.0,59.95461085352911,
,,,C,G,y,b,R,U,d,L,u,,,,,5,19,119,14,1,0,1,0,,,,,1,8,44,8,,,,,,up,0.5670956664744153,2091.516499830055,None,001,26,2019_Oct_14_1557,ACPT_experiment_5_30_19,3.1.0,59.95461085352911,
,,,C,G,y,b,L,G,y,L,y,,,,,5,19,119,14,1,0,1,0,,,,,1,9,45,34,,,,,,down,0.5837754035674152,2093.3679204617692,None,001,26,2019_Oct_14_1557,ACPT_experiment_5_30_19,3.1.0,59.95461085352911,
,,,C,G,y,b,L,G,d,R,i,,,,,5,19,119,14,1,0,1,0,,,,,1,10,46,17,,,,,,up,0.5837968354462646,2095.2193241894674,None,001,26,2019_Oct_14_1557,ACPT_experiment_5_30_19,3.1.0,59.95461085352911,
,,,C,G,y,b,R,G,d,L,i,,,,,5,19,119,14,1,0,1,0,,,,,1,11,47,4,,,,,,down,0.5504461151249416,2097.0874444808687,None,001,26,2019_Oct_14_1557,ACPT_experiment_5_30_19,3.1.0,59.95461085352911,
,,,C,G,y,b,R,G,g,R,c ,,,,,5,19,119,14,1,0,1,0,,,,,1,12,48,7,,,,,,down,0.7839989591957419,2098.905486017662,None,001,26,2019_Oct_14_1557,ACPT_experiment_5_30_19,3.1.0,59.95461085352911,
,,,C,G,y,b,L,D,y,R,y,,,,,5,19,119,14,1,0,1,0,,,,,1,13,49,33,,,,,,down,0.6502275099592225,2100.990713053705,None,001,26,2019_Oct_14_1557,ACPT_experiment_5_30_19,3.1.0,59.95461085352911,
,,,C,G,y,b,L,G,d,L,i,,,,,5,19,119,14,1,0,1,0,,,,,1,14,50,16,,,,,,down,0.6505372157043894,2102.9252434933114,None,001,26,2019_Oct_14_1557,ACPT_experiment_5_30_19,3.1.0,59.95461085352911,
,,,C,G,y,b,L,D,y,L,y,,,,,5,19,119,14,1,0,1,0,,,,,1,15,51,32,,,,,,down,0.5504473225555557,2104.860050434343,None,001,26,2019_Oct_14_1557,ACPT_experiment_5_30_19,3.1.0,59.95461085352911,
,,,C,G,y,b,L,G,g,L,c ,,,,,5,19,119,14,1,0,1,0,,,,,1,16,52,18,,,,,,up,0.6338100869888876,2106.6948251369977,None,001,26,2019_Oct_14_1557,ACPT_experiment_5_30_19,3.1.0,59.95461085352911,
,,,C,G,y,b,R,G,g,L,c ,,,,,5,19,119,14,1,0,1,0,,,,,1,17,53,6,,,,,,up,0.6004838171193114,2108.6129662263775,None,001,26,2019_Oct_14_1557,ACPT_experiment_5_30_19,3.1.0,59.95461085352911,
,,,C,G,y,b,R,U,y,R,u,,,,,5,19,119,14,1,0,1,0,,,,,1,18,54,31,,,,,,down,0.6338118981329899,2110.4977448229947,None,001,26,2019_Oct_14_1557,ACPT_experiment_5_30_19,3.1.0,59.95461085352911,
,,,C,G,y,b,R,U,d,R,u,,,,,5,19,119,14,1,0,1,0,,,,,1,19,55,9,,,,,,down,0.7172129984646745,2112.415881988227,None,001,26,2019_Oct_14_1557,ACPT_experiment_5_30_19,3.1.0,59.95461085352911,
,,,C,G,y,b,L,U,y,L,u,,,,,5,19,119,14,1,0,1,0,,,,,1,20,56,24,,,,,,down,0.7339114507194608,2114.4174036516306,None,001,26,2019_Oct_14_1557,ACPT_experiment_5_30_19,3.1.0,59.95461085352911,
,,,C,G,y,b,R,D,g,R,i,,,,,5,19,119,14,1,0,1,0,,,,,1,21,57,3,,,,,,up,0.7005365818040445,2116.4356334267286,None,001,26,2019_Oct_14_1557,ACPT_experiment_5_30_19,3.1.0,59.95461085352911,
,,,C,G,y,b,R,D,d,R,c ,,,,,5,19,119,14,1,0,1,0,,,,,1,22,58,1,,,,,,down,0.6338109925618483,2118.420501614635,None,001,26,2019_Oct_14_1557,ACPT_experiment_5_30_19,3.1.0,59.95461085352911,
,,,C,G,y,b,L,D,g,R,i,,,,,5,19,119,14,1,0,1,0,,,,,1,23,59,15,,,,,,down,0.7171921703011321,2120.3553336098357,None,001,26,2019_Oct_14_1557,ACPT_experiment_5_30_19,3.1.0,59.95461085352911,
,,,C,G,y,b,R,G,d,R,i,,,,,5,19,119,14,1,0,1,0,,,,,1,24,60,5,,,,,,down,0.8506460654989496,2122.356854669524,None,001,26,2019_Oct_14_1557,ACPT_experiment_5_30_19,3.1.0,59.95461085352911,
,,,C,G,y,b,L,U,g,L,u,,,,,5,19,119,14,1,0,1,0,,,,,1,25,61,22,,,,,,up,0.6171877028100425,2124.491796420092,None,001,26,2019_Oct_14_1557,ACPT_experiment_5_30_19,3.1.0,59.95461085352911,
,,,C,G,y,b,R,D,y,L,y,,,,,5,19,119,14,1,0,1,0,,,,,1,26,62,26,,,,,,down,1.2509567371871526,2126.3932825246884,None,001,26,2019_Oct_14_1557,ACPT_experiment_5_30_19,3.1.0,59.95461085352911,
,,,C,G,y,b,R,U,g,L,u,,,,,5,19,119,14,1,0,1,0,,,,,1,27,63,10,,,,,,down,0.8172890061705402,2128.9285627178288,None,001,26,2019_Oct_14_1557,ACPT_experiment_5_30_19,3.1.0,59.95461085352911,
,,,C,G,y,b,L,D,d,L,c ,,,,,5,19,119,14,1,0,1,0,,,,,1,28,64,12,,,,,,up,0.6838837100203818,2131.0301528425007,None,001,26,2019_Oct_14_1557,ACPT_experiment_5_30_19,3.1.0,59.95461085352911,
,,,C,G,y,b,R,D,y,R,y,,,,,5,19,119,14,1,0,1,0,,,,,1,29,65,27,,,,,,down,0.5337310607083054,2132.998358197332,None,001,26,2019_Oct_14_1557,ACPT_experiment_5_30_19,3.1.0,59.95461085352911,
,,,C,G,y,b,L,U,d,R,u,,,,,5,19,119,14,1,0,1,0,,,,,1,30,66,21,,,,,,down,0.6001870912477898,2134.833363820935,None,001,26,2019_Oct_14_1557,ACPT_experiment_5_30_19,3.1.0,59.95461085352911,
,,,C,G,y,b,L,D,d,R,c ,,,,,5,19,119,14,1,0,1,0,,,,,1,31,67,13,,,,,,up,0.5837672534162266,2136.7178988185897,None,001,26,2019_Oct_14_1557,ACPT_experiment_5_30_19,3.1.0,59.95461085352911,
,,,C,G,y,b,R,U,g,R,u,,,,,5,19,119,14,1,0,1,0,,,,,1,32,68,11,,,,,,down,1.11753453701931,2138.5859813778097,None,001,26,2019_Oct_14_1557,ACPT_experiment_5_30_19,3.1.0,59.95461085352911,
,,,C,G,y,b,R,G,y,L,y,,,,,5,19,119,14,1,0,1,0,,,,,1,33,69,28,,,,,,down,0.6838233385296917,2141.004538426756,None,001,26,2019_Oct_14_1557,ACPT_experiment_5_30_19,3.1.0,59.95461085352911,
,,,C,G,y,b,L,U,d,L,u,,,,,5,19,119,14,1,0,1,0,,,,,1,34,70,20,,,,,,up,0.6338115962771553,2142.989364656478,None,001,26,2019_Oct_14_1557,ACPT_experiment_5_30_19,3.1.0,59.95461085352911,
,,,C,G,y,b,L,U,g,R,u,,,,,5,19,119,14,1,0,1,0,,,,,1,35,71,23,,,,,,up,0.6338303114371229,2144.8908136326063,None,001,26,2019_Oct_14_1557,ACPT_experiment_5_30_19,3.1.0,59.95461085352911,
,,,C,G,y,b,,,,,,,,,,5,19,119,14,2,0,2,0,0,0,0,0,,,,,,,,,,,,,,001,26,2019_Oct_14_1557,ACPT_experiment_5_30_19,3.1.0,59.95461085352911,
,,,C,G,y,b,R,D,g,L,i,,,,,5,19,119,14,2,0,2,0,,,,,0,0,0,2,,,,,,up,0.6001976562583877,2149.2444320884133,None,001,26,2019_Oct_14_1557,ACPT_experiment_5_30_19,3.1.0,59.95461085352911,
,,,C,G,y,b,R,U,g,R,u,,,,,5,19,119,14,2,0,2,0,,,,,0,1,1,11,,,,,,up,0.5837720831368642,2151.1289507857655,None,001,26,2019_Oct_14_1557,ACPT_experiment_5_30_19,3.1.0,59.95461085352911,
,,,C,G,y,b,R,G,d,L,i,,,,,5,19,119,14,2,0,2,0,,,,,0,2,2,4,,,,,,up,0.5504156275237619,2152.9970493434303,None,001,26,2019_Oct_14_1557,ACPT_experiment_5_30_19,3.1.0,59.95461085352911,
,,,C,G,y,b,R,D,d,R,c ,,,,,5,19,119,14,2,0,2,0,,,,,0,3,3,1,,,,,,down,0.7338924337018398,2154.83179144548,None,001,26,2019_Oct_14_1557,ACPT_experiment_5_30_19,3.1.0,59.95461085352911,
,,,C,G,y,b,L,U,y,L,u,,,,,5,19,119,14,2,0,2,0,,,,,0,4,4,24,,,,,,down,0.8006225508033822,2156.850008240708,None,001,26,2019_Oct_14_1557,ACPT_experiment_5_30_19,3.1.0,59.95461085352911,
,,,C,G,y,b,L,D,g,L,i,,,,,5,19,119,14,2,0,2,0,,,,,0,5,5,14,,,,,,down,0.7339026968547842,2158.934934626732,None,001,26,2019_Oct_14_1557,ACPT_experiment_5_30_19,3.1.0,59.95461085352911,
,,,C,G,y,b,L,G,d,R,i,,,,,5,19,119,14,2,0,2,0,,,,,0,6,6,17,,,,,,down,0.6172535077330394,2160.9531731556963,None,001,26,2019_Oct_14_1557,ACPT_experiment_5_30_19,3.1.0,59.95461085352911,
,,,C,G,y,b,L,U,g,L,u,,,,,5,19,119,14,2,0,2,0,,,,,0,7,7,22,,,,,,up,0.6171267276058643,2162.854622735542,None,001,26,2019_Oct_14_1557,ACPT_experiment_5_30_19,3.1.0,59.95461085352911,
,,,C,G,y,b,R,G,y,L,y,,,,,5,19,119,14,2,0,2,0,,,,,0,8,8,28,,,,,,down,0.5671207206414692,2164.7560557132256,None,001,26,2019_Oct_14_1557,ACPT_experiment_5_30_19,3.1.0,59.95461085352911,
,,,C,G,y,b,L,G,g,L,c ,,,,,5,19,119,14,2,0,2,0,,,,,0,9,9,18,,,,,,down,0.5671231355008786,2166.6075001916797,None,001,26,2019_Oct_14_1557,ACPT_experiment_5_30_19,3.1.0,59.95461085352911,
,,,C,G,y,b,L,G,g,R,c ,,,,,5,19,119,14,2,0,2,0,,,,,0,10,10,19,,,,,,up,0.6502244913845061,2168.459187967237,None,001,26,2019_Oct_14_1557,ACPT_experiment_5_30_19,3.1.0,59.95461085352911,
,,,C,G,y,b,R,D,y,R,y,,,,,5,19,119,14,2,0,2,0,,,,,0,11,11,27,,,,,,down,0.6004466886533919,2170.39374738516,None,001,26,2019_Oct_14_1557,ACPT_experiment_5_30_19,3.1.0,59.95461085352911,
,,,C,G,y,b,R,D,g,R,i,,,,,5,19,119,14,2,0,2,0,,,,,0,12,12,3,,,,,,up,0.5671394358050748,2172.2785268873486,None,001,26,2019_Oct_14_1557,ACPT_experiment_5_30_19,3.1.0,59.95461085352911,
,,,C,G,y,b,L,G,y,R,y,,,,,5,19,119,14,2,0,2,0,,,,,0,13,13,35,,,,,,down,0.6169124088155513,2174.1468113892024,None,001,26,2019_Oct_14_1557,ACPT_experiment_5_30_19,3.1.0,59.95461085352911,
,,,C,G,y,b,R,U,d,R,u,,,,,5,19,119,14,2,0,2,0,,,,,0,14,14,9,,,,,,down,0.6504952575178322,2176.064763817676,None,001,26,2019_Oct_14_1557,ACPT_experiment_5_30_19,3.1.0,59.95461085352911,
,,,C,G,y,b,R,G,g,L,c ,,,,,5,19,119,14,2,0,2,0,,,,,0,15,15,6,,,,,,up,0.7672416447367141,2177.9995912850136,None,001,26,2019_Oct_14_1557,ACPT_experiment_5_30_19,3.1.0,59.95461085352911,
,,,C,G,y,b,L,D,y,R,y,,,,,5,19,119,14,2,0,2,0,,,,,0,16,16,33,,,,,,down,0.5671035147679504,2180.0511554801324,None,001,26,2019_Oct_14_1557,ACPT_experiment_5_30_19,3.1.0,59.95461085352911,
,,,C,G,y,b,L,U,d,R,u,,,,,5,19,119,14,2,0,2,0,,,,,0,17,17,21,,,,,,down,0.7005607303981378,2181.902578224848,None,001,26,2019_Oct_14_1557,ACPT_experiment_5_30_19,3.1.0,59.95461085352911,
,,,C,G,y,b,L,D,d,R,c ,,,,,5,19,119,14,2,0,2,0,,,,,0,18,18,13,,,,,,up,0.6004527258028247,2183.887436753319,None,001,26,2019_Oct_14_1557,ACPT_experiment_5_30_19,3.1.0,59.95461085352911,
,,,C,G,y,b,L,U,g,R,u,,,,,5,19,119,14,2,0,2,0,,,,,0,19,19,23,,,,,,up,0.6504919370854623,2185.7722150480768,None,001,26,2019_Oct_14_1557,ACPT_experiment_5_30_19,3.1.0,59.95461085352911,
,,,C,G,y,b,R,U,y,R,u,,,,,5,19,119,14,2,0,2,0,,,,,0,20,20,31,,,,,,down,0.5637704048094747,2187.727036345448,None,001,26,2019_Oct_14_1557,ACPT_experiment_5_30_19,3.1.0,59.95461085352911,
,,,C,G,y,b,L,U,y,R,u,,,,,5,19,119,14,2,0,2,0,,,,,0,21,21,25,,,,,,down,0.5837793277150922,2189.5751362433602,None,001,26,2019_Oct_14_1557,ACPT_experiment_5_30_19,3.1.0,59.95461085352911,
,,,C,G,y,b,L,D,g,R,i,,,,,5,19,119,14,2,0,2,0,,,,,0,22,22,15,,,,,,up,0.6171360851858481,2191.443239630744,None,001,26,2019_Oct_14_1557,ACPT_experiment_5_30_19,3.1.0,59.95461085352911,
,,,C,G,y,b,R,U,d,L,u,,,,,5,19,119,14,2,0,2,0,,,,,0,23,23,8,,,,,,down,0.8673342546007916,2193.344728452057,None,001,26,2019_Oct_14_1557,ACPT_experiment_5_30_19,3.1.0,59.95461085352911,
,,,C,G,y,b,L,D,y,L,y,,,,,5,19,119,14,2,0,2,0,,,,,0,24,24,32,,,,,,down,0.5337298532795103,2195.4963559768676,None,001,26,2019_Oct_14_1557,ACPT_experiment_5_30_19,3.1.0,59.95461085352911,
,,,C,G,y,b,L,U,d,L,u,,,,,5,19,119,14,2,0,2,0,,,,,0,25,25,20,,,,,,down,0.6004572536639898,2197.3144135121056,None,001,26,2019_Oct_14_1557,ACPT_experiment_5_30_19,3.1.0,59.95461085352911,
,,,C,G,y,b,R,D,y,L,y,,,,,5,19,119,14,2,0,2,0,,,,,0,26,26,26,,,,,,down,0.5670935534708406,2199.1991990514434,None,001,26,2019_Oct_14_1557,ACPT_experiment_5_30_19,3.1.0,59.95461085352911,
,,,C,G,y,b,R,D,d,L,c,,,,,5,19,119,14,2,0,2,0,,,,,0,27,27,0,,,,,,down,0.5304568129540712,2201.0706159280526,None,001,26,2019_Oct_14_1557,ACPT_experiment_5_30_19,3.1.0,59.95461085352911,
,,,C,G,y,b,R,G,d,R,i,,,,,5,19,119,14,2,0,2,0,,,,,0,28,28,5,,,,,,down,0.4670109049020539,2202.88536299264,None,001,26,2019_Oct_14_1557,ACPT_experiment_5_30_19,3.1.0,59.95461085352911,
,,,C,G,y,b,L,G,d,L,i,,,,,5,19,119,14,2,0,2,0,,,,,0,29,29,16,,,,,,down,0.48367736026921193,2204.6367266336674,None,001,26,2019_Oct_14_1557,ACPT_experiment_5_30_19,3.1.0,59.95461085352911,
,,,C,G,y,b,L,G,y,L,y,,,,,5,19,119,14,2,0,2,0,,,,,0,30,30,34,,,,,,down,0.517043173464117,2206.404745863194,None,001,26,2019_Oct_14_1557,ACPT_experiment_5_30_19,3.1.0,59.95461085352911,
,,,C,G,y,b,R,G,y,R,y,,,,,5,19,119,14,2,0,2,0,,,,,0,31,31,29,,,,,,down,0.5168086302255688,2208.223031300806,None,001,26,2019_Oct_14_1557,ACPT_experiment_5_30_19,3.1.0,59.95461085352911,
,,,C,G,y,b,L,D,d,L,c ,,,,,5,19,119,14,2,0,2,0,,,,,0,32,32,12,,,,,,up,0.6171357833281945,2210.0241760649988,None,001,26,2019_Oct_14_1557,ACPT_experiment_5_30_19,3.1.0,59.95461085352911,
,,,C,G,y,b,R,U,g,L,u,,,,,5,19,119,14,2,0,2,0,,,,,0,33,33,10,,,,,,up,0.6671713723208086,2211.9256365117108,None,001,26,2019_Oct_14_1557,ACPT_experiment_5_30_19,3.1.0,59.95461085352911,
,,,C,G,y,b,R,U,y,L,u,,,,,5,19,119,14,2,0,2,0,,,,,0,34,34,30,,,,,,down,0.6504922389431158,2213.8771313399884,None,001,26,2019_Oct_14_1557,ACPT_experiment_5_30_19,3.1.0,59.95461085352911,
,,,C,G,y,b,R,G,g,R,c ,,,,,5,19,119,14,2,0,2,0,,,,,0,35,35,7,,,,,,up,0.6171584226376581,2215.811952468319,None,001,26,2019_Oct_14_1557,ACPT_experiment_5_30_19,3.1.0,59.95461085352911,
,,,C,G,y,b,L,D,d,L,c ,,,,,5,19,119,14,2,0,2,0,,,,,1,0,36,12,,,,,,down,0.5670953646167618,2217.713413518746,None,001,26,2019_Oct_14_1557,ACPT_experiment_5_30_19,3.1.0,59.95461085352911,
,,,C,G,y,b,R,G,y,L,y,,,,,5,19,119,14,2,0,2,0,,,,,1,1,37,28,,,,,,down,0.5837726868503523,2219.5648383764656,None,001,26,2019_Oct_14_1557,ACPT_experiment_5_30_19,3.1.0,59.95461085352911,
,,,C,G,y,b,R,U,y,L,u,,,,,5,19,119,14,2,0,2,0,,,,,1,2,38,30,,,,,,down,0.5334965174697572,2221.449857251613,None,001,26,2019_Oct_14_1557,ACPT_experiment_5_30_19,3.1.0,59.95461085352911,
,,,C,G,y,b,R,U,y,R,u,,,,,5,19,119,14,2,0,2,0,,,,,1,3,39,31,,,,,,down,0.6171424241929344,2223.2676784324667,None,001,26,2019_Oct_14_1557,ACPT_experiment_5_30_19,3.1.0,59.95461085352911,
,,,C,G,y,b,L,G,g,R,c ,,,,,5,19,119,14,2,0,2,0,,,,,1,4,40,19,,,,,,up,0.6338085777024389,2225.1691437088994,None,001,26,2019_Oct_14_1557,ACPT_experiment_5_30_19,3.1.0,59.95461085352911,
,,,C,G,y,b,L,D,y,L,y,,,,,5,19,119,14,2,0,2,0,,,,,1,5,41,32,,,,,,down,0.5504041569383844,2227.1039651390874,None,001,26,2019_Oct_14_1557,ACPT_experiment_5_30_19,3.1.0,59.95461085352911,
,,,C,G,y,b,L,G,g,L,c ,,,,,5,19,119,14,2,0,2,0,,,,,1,6,42,18,,,,,,up,0.5504029495095892,2228.9553884875186,None,001,26,2019_Oct_14_1557,ACPT_experiment_5_30_19,3.1.0,59.95461085352911,
,,,C,G,y,b,R,D,g,L,i,,,,,5,19,119,14,2,0,2,0,,,,,1,7,43,2,,,,,,up,0.55056746181981,2230.790120930131,None,001,26,2019_Oct_14_1557,ACPT_experiment_5_30_19,3.1.0,59.95461085352911,
,,,C,G,y,b,L,U,d,L,u,,,,,5,19,119,14,2,0,2,0,,,,,1,8,44,20,,,,,,up,0.7505709633660445,2232.6248666544725,None,001,26,2019_Oct_14_1557,ACPT_experiment_5_30_19,3.1.0,59.95461085352911,
,,,C,G,y,b,R,U,d,R,u,,,,,5,19,119,14,2,0,2,0,,,,,1,9,45,9,,,,,,down,0.616917238536189,2234.676623736501,None,001,26,2019_Oct_14_1557,ACPT_experiment_5_30_19,3.1.0,59.95461085352911,
,,,C,G,y,b,R,D,g,R,i,,,,,5,19,119,14,2,0,2,0,,,,,1,10,46,3,,,,,,up,0.5837907982986508,2236.577886164727,None,001,26,2019_Oct_14_1557,ACPT_experiment_5_30_19,3.1.0,59.95461085352911,
,,,C,G,y,b,R,G,d,L,i,,,,,5,19,119,14,2,0,2,0,,,,,1,11,47,4,,,,,,down,0.6171487632000208,2238.446005550555,None,001,26,2019_Oct_14_1557,ACPT_experiment_5_30_19,3.1.0,59.95461085352911,
,,,C,G,y,b,L,D,d,R,c ,,,,,5,19,119,14,2,0,2,0,,,,,1,12,48,13,,,,,,up,0.533750379587218,2240.3474647898383,None,001,26,2019_Oct_14_1557,ACPT_experiment_5_30_19,3.1.0,59.95461085352911,
,,,C,G,y,b,L,U,y,L,u,,,,,5,19,119,14,2,0,2,0,,,,,1,13,49,24,,,,,,down,0.5838010614515952,2242.165523834363,None,001,26,2019_Oct_14_1557,ACPT_experiment_5_30_19,3.1.0,59.95461085352911,
,,,C,G,y,b,R,D,d,L,c,,,,,5,19,119,14,2,0,2,0,,,,,1,14,50,0,,,,,,up,0.5837744979962736,2244.0336278254617,None,001,26,2019_Oct_14_1557,ACPT_experiment_5_30_19,3.1.0,59.95461085352911,
,,,C,G,y,b,R,U,g,L,u,,,,,5,19,119,14,2,0,2,0,,,,,1,15,51,10,,,,,,up,0.6838505057003204,2245.9017318165606,None,001,26,2019_Oct_14_1557,ACPT_experiment_5_30_19,3.1.0,59.95461085352911,
,,,C,G,y,b,R,D,y,R,y,,,,,5,19,119,14,2,0,2,0,,,,,1,16,52,27,,,,,,down,0.6335516970120807,2247.8868505461505,None,001,26,2019_Oct_14_1557,ACPT_experiment_5_30_19,3.1.0,59.95461085352911,
,,,C,G,y,b,R,G,y,R,y,,,,,5,19,119,14,2,0,2,0,,,,,1,17,53,29,,,,,,down,0.5837772147115174,2249.8047241898294,None,001,26,2019_Oct_14_1557,ACPT_experiment_5_30_19,3.1.0,59.95461085352911,
,,,C,G,y,b,R,D,d,R,c ,,,,,5,19,119,14,2,0,2,0,,,,,1,18,54,1,,,,,,down,0.6338028424106597,2251.6728417645136,None,001,26,2019_Oct_14_1557,ACPT_experiment_5_30_19,3.1.0,59.95461085352911,
,,,C,G,y,b,R,U,g,R,u,,,,,5,19,119,14,2,0,2,0,,,,,1,19,55,11,,,,,,up,0.5671198150703276,2253.590940593851,None,001,26,2019_Oct_14_1557,ACPT_experiment_5_30_19,3.1.0,59.95461085352911,
,,,C,G,y,b,L,D,g,R,i,,,,,5,19,119,14,2,0,2,0,,,,,1,20,56,15,,,,,,down,0.7172030371675646,2255.4423905057374,None,001,26,2019_Oct_14_1557,ACPT_experiment_5_30_19,3.1.0,59.95461085352911,
,,,C,G,y,b,R,U,d,L,u,,,,,5,19,119,14,2,0,2,0,,,,,1,21,57,8,,,,,,down,0.6838492982715252,2257.443922734152,None,001,26,2019_Oct_14_1557,ACPT_experiment_5_30_19,3.1.0,59.95461085352911,
,,,C,G,y,b,L,G,d,L,i,,,,,5,19,119,14,2,0,2,0,,,,,1,22,58,16,,,,,,down,0.5671315875115397,2259.412100619955,None,001,26,2019_Oct_14_1557,ACPT_experiment_5_30_19,3.1.0,59.95461085352911,
,,,C,G,y,b,R,D,y,L,y,,,,,5,19,119,14,2,0,2,0,,,,,1,23,59,26,,,,,,down,0.5137625867009774,2261.283525043,None,001,26,2019_Oct_14_1557,ACPT_experiment_5_30_19,3.1.0,59.95461085352911,
,,,C,G,y,b,R,G,g,L,c ,,,,,5,19,119,14,2,0,2,0,,,,,1,24,60,6,,,,,,up,0.6838577502803673,2263.0815863333446,None,001,26,2019_Oct_14_1557,ACPT_experiment_5_30_19,3.1.0,59.95461085352911,
,,,C,G,y,b,R,G,d,R,i,,,,,5,19,119,14,2,0,2,0,,,,,1,25,61,5,,,,,,up,0.617205814258341,2265.0330591260263,None,001,26,2019_Oct_14_1557,ACPT_experiment_5_30_19,3.1.0,59.95461085352911,
,,,C,G,y,b,L,U,y,R,u,,,,,5,19,119,14,2,0,2,0,,,,,1,26,62,25,,,,,,down,0.567100496193234,2266.9345379860442,None,001,26,2019_Oct_14_1557,ACPT_experiment_5_30_19,3.1.0,59.95461085352911,
,,,C,G,y,b,L,U,g,R,u,,,,,5,19,119,14,2,0,2,0,,,,,1,27,63,23,,,,,,up,0.5837714794215572,2268.7692915586777,None,001,26,2019_Oct_14_1557,ACPT_experiment_5_30_19,3.1.0,59.95461085352911,
,,,C,G,y,b,L,G,y,L,y,,,,,5,19,119,14,2,0,2,0,,,,,1,28,64,34,,,,,,down,0.617013832918019,2270.654152562378,None,001,26,2019_Oct_14_1557,ACPT_experiment_5_30_19,3.1.0,59.95461085352911,
,,,C,G,y,b,L,G,y,R,y,,,,,5,19,119,14,2,0,2,0,,,,,1,29,65,35,,,,,,down,0.5336803486570716,2272.5722667864447,None,001,26,2019_Oct_14_1557,ACPT_experiment_5_30_19,3.1.0,59.95461085352911,
,,,C,G,y,b,L,U,d,R,u,,,,,5,19,119,14,2,0,2,0,,,,,1,30,66,21,,,,,,up,0.6835884934353089,2274.407217773849,None,001,26,2019_Oct_14_1557,ACPT_experiment_5_30_19,3.1.0,59.95461085352911,
,,,C,G,y,b,L,G,d,R,i,,,,,5,19,119,14,2,0,2,0,,,,,1,31,67,17,,,,,,up,0.5837720831350452,2276.358449382429,None,001,26,2019_Oct_14_1557,ACPT_experiment_5_30_19,3.1.0,59.95461085352911,
,,,C,G,y,b,R,G,g,R,c ,,,,,5,19,119,14,2,0,2,0,,,,,1,32,68,7,,,,,,up,0.6671801261891233,2278.22654975124,None,001,26,2019_Oct_14_1557,ACPT_experiment_5_30_19,3.1.0,59.95461085352911,
,,,C,G,y,b,L,D,y,R,y,,,,,5,19,119,14,2,0,2,0,,,,,1,33,69,33,,,,,,down,0.5670998924797459,2280.1780457869463,None,001,26,2019_Oct_14_1557,ACPT_experiment_5_30_19,3.1.0,59.95461085352911,
,,,C,G,y,b,L,U,g,L,u,,,,,5,19,119,14,2,0,2,0,,,,,1,34,70,22,,,,,,up,0.6671695611767063,2282.0294736632404,None,001,26,2019_Oct_14_1557,ACPT_experiment_5_30_19,3.1.0,59.95461085352911,
,,,C,G,y,b,L,D,g,L,i,,,,,5,19,119,14,2,0,2,0,,,,,1,35,71,14,,,,,,up,0.5670857051791245,2283.9809736230927,None,001,26,2019_Oct_14_1557,ACPT_experiment_5_30_19,3.1.0,59.95461085352911,
,,,C,G,y,b,,,,,,,,,,5,19,119,14,3,0,3,0,0,0,0,0,,,,,,,,,,,,,,001,26,2019_Oct_14_1557,ACPT_experiment_5_30_19,3.1.0,59.95461085352911,
,,,C,G,y,b,L,D,y,L,y,,,,,5,19,119,14,3,0,3,0,,,,,0,0,0,32,,,,,,down,0.700273965820088,2290.569623722615,None,001,26,2019_Oct_14_1557,ACPT_experiment_5_30_19,3.1.0,59.95461085352911,
,,,C,G,y,b,R,G,d,R,i,,,,,5,19,119,14,3,0,3,0,,,,,0,1,1,5,,,,,,down,0.6672121230785706,2292.5542178239575,None,001,26,2019_Oct_14_1557,ACPT_experiment_5_30_19,3.1.0,59.95461085352911,
,,,C,G,y,b,L,G,g,L,c ,,,,,5,19,119,14,3,0,3,0,,,,,0,2,2,18,,,,,,up,0.6504967668042809,2294.505717481954,None,001,26,2019_Oct_14_1557,ACPT_experiment_5_30_19,3.1.0,59.95461085352911,
,,,C,G,y,b,R,G,d,L,i,,,,,5,19,119,14,3,0,3,0,,,,,0,3,3,4,,,,,,down,0.6171363870435016,2296.440541025144,None,001,26,2019_Oct_14_1557,ACPT_experiment_5_30_19,3.1.0,59.95461085352911,
,,,C,G,y,b,L,U,y,R,u,,,,,5,19,119,14,3,0,3,0,,,,,0,4,4,25,,,,,,down,0.5504168349507381,2298.3419987551406,None,001,26,2019_Oct_14_1557,ACPT_experiment_5_30_19,3.1.0,59.95461085352911,
,,,C,G,y,b,L,G,d,R,i,,,,,5,19,119,14,3,0,3,0,,,,,0,5,5,17,,,,,,up,0.7005281297933834,2300.1767435739075,None,001,26,2019_Oct_14_1557,ACPT_experiment_5_30_19,3.1.0,59.95461085352911,
,,,C,G,y,b,R,D,g,R,i,,,,,5,19,119,14,3,0,3,0,,,,,0,6,6,3,,,,,,up,0.5670977794761711,2302.1615999893747,None,001,26,2019_Oct_14_1557,ACPT_experiment_5_30_19,3.1.0,59.95461085352911,
,,,C,G,y,b,L,U,g,R,u,,,,,5,19,119,14,3,0,3,0,,,,,0,7,7,23,,,,,,up,0.5003776236699196,2303.996337865421,None,001,26,2019_Oct_14_1557,ACPT_experiment_5_30_19,3.1.0,59.95461085352911,
,,,C,G,y,b,L,G,d,L,i,,,,,5,19,119,14,3,0,3,0,,,,,0,8,8,16,,,,,,up,0.5504566801355395,2305.781042567334,None,001,26,2019_Oct_14_1557,ACPT_experiment_5_30_19,3.1.0,59.95461085352911,
,,,C,G,y,b,R,U,d,L,u,,,,,5,19,119,14,3,0,3,0,,,,,0,9,9,8,,,,,,down,0.7839319468403119,2307.6157861786724,None,001,26,2019_Oct_14_1557,ACPT_experiment_5_30_19,3.1.0,59.95461085352911,
,,,C,G,y,b,L,D,d,L,c ,,,,,5,19,119,14,3,0,3,0,,,,,0,10,10,12,,,,,,down,0.5837615181244473,2309.700730072427,None,001,26,2019_Oct_14_1557,ACPT_experiment_5_30_19,3.1.0,59.95461085352911,
,,,C,G,y,b,L,U,g,L,u,,,,,5,19,119,14,3,0,3,0,,,,,0,11,11,22,,,,,,up,0.6004566499486828,2311.5688189706543,None,001,26,2019_Oct_14_1557,ACPT_experiment_5_30_19,3.1.0,59.95461085352911,
,,,C,G,y,b,L,D,g,R,i,,,,,5,19,119,14,3,0,3,0,,,,,0,12,12,15,,,,,,up,0.5170588700511871,2313.45360118956,None,001,26,2019_Oct_14_1557,ACPT_experiment_5_30_19,3.1.0,59.95461085352911,
,,,C,G,y,b,L,G,y,L,y,,,,,5,19,119,14,3,0,3,0,,,,,0,13,13,34,,,,,,down,0.5837554809768335,2315.2550055511583,None,001,26,2019_Oct_14_1557,ACPT_experiment_5_30_19,3.1.0,59.95461085352911,
,,,C,G,y,b,R,U,y,R,u,,,,,5,19,119,14,3,0,3,0,,,,,0,14,14,31,,,,,,down,0.6838646930009418,2317.139769054902,None,001,26,2019_Oct_14_1557,ACPT_experiment_5_30_19,3.1.0,59.95461085352911,
,,,C,G,y,b,L,D,g,L,i,,,,,5,19,119,14,3,0,3,0,,,,,0,15,15,14,,,,,,up,0.567089327467329,2319.1246278852286,None,001,26,2019_Oct_14_1557,ACPT_experiment_5_30_19,3.1.0,59.95461085352911,
,,,C,G,y,b,L,D,y,R,y,,,,,5,19,119,14,3,0,3,0,,,,,0,16,16,33,,,,,,down,0.5003993574064225,2320.976051535519,None,001,26,2019_Oct_14_1557,ACPT_experiment_5_30_19,3.1.0,59.95461085352911,
,,,C,G,y,b,R,U,d,R,u,,,,,5,19,119,14,3,0,3,0,,,,,0,17,17,9,,,,,,down,0.5837600088379986,2322.777444426534,None,001,26,2019_Oct_14_1557,ACPT_experiment_5_30_19,3.1.0,59.95461085352911,
,,,C,G,y,b,R,G,g,L,c ,,,,,5,19,119,14,3,0,3,0,,,,,0,18,18,6,,,,,,up,0.5837738942809665,2324.6455330229037,None,001,26,2019_Oct_14_1557,ACPT_experiment_5_30_19,3.1.0,59.95461085352911,
,,,C,G,y,b,R,D,y,R,y,,,,,5,19,119,14,3,0,3,0,,,,,0,19,19,27,,,,,,down,0.5170793963570759,2326.5136104505473,None,001,26,2019_Oct_14_1557,ACPT_experiment_5_30_19,3.1.0,59.95461085352911,
,,,C,G,y,b,R,D,y,L,y,,,,,5,19,119,14,3,0,3,0,,,,,0,20,20,26,,,,,,down,0.5002508435409254,2328.3150335273076,None,001,26,2019_Oct_14_1557,ACPT_experiment_5_30_19,3.1.0,59.95461085352911,
,,,C,G,y,b,R,D,g,L,i,,,,,5,19,119,14,3,0,3,0,,,,,0,21,21,2,,,,,,up,0.6171375944741158,2330.099721325203,None,001,26,2019_Oct_14_1557,ACPT_experiment_5_30_19,3.1.0,59.95461085352911,
,,,C,G,y,b,R,G,y,R,y,,,,,5,19,119,14,3,0,3,0,,,,,0,22,22,29,,,,,,down,0.4837042255803681,2332.0011841867745,None,001,26,2019_Oct_14_1557,ACPT_experiment_5_30_19,3.1.0,59.95461085352911,
,,,C,G,y,b,L,G,y,R,y,,,,,5,19,119,14,3,0,3,0,,,,,0,23,23,35,,,,,,down,0.4336580715771561,2333.7692010014416,None,001,26,2019_Oct_14_1557,ACPT_experiment_5_30_19,3.1.0,59.95461085352911,
,,,C,G,y,b,R,U,g,R,u,,,,,5,19,119,14,3,0,3,0,,,,,0,24,24,11,,,,,,up,0.566830937490522,2335.504132126629,None,001,26,2019_Oct_14_1557,ACPT_experiment_5_30_19,3.1.0,59.95461085352911,
,,,C,G,y,b,L,U,d,L,u,,,,,5,19,119,14,3,0,3,0,,,,,0,25,25,20,,,,,,down,0.5504192498119664,2337.355288029361,None,001,26,2019_Oct_14_1557,ACPT_experiment_5_30_19,3.1.0,59.95461085352911,
,,,C,G,y,b,L,D,d,R,c ,,,,,5,19,119,14,3,0,3,0,,,,,0,26,26,13,,,,,,up,0.483685208562747,2339.1900506577167,None,001,26,2019_Oct_14_1557,ACPT_experiment_5_30_19,3.1.0,59.95461085352911,
,,,C,G,y,b,R,G,y,L,y,,,,,5,19,119,14,3,0,3,0,,,,,0,27,27,28,,,,,,down,0.5671029110544623,2340.9580547943715,None,001,26,2019_Oct_14_1557,ACPT_experiment_5_30_19,3.1.0,59.95461085352911,
,,,C,G,y,b,R,G,g,R,c ,,,,,5,19,119,14,3,0,3,0,,,,,0,28,28,7,,,,,,up,0.5471296073264966,2342.8294752932707,None,001,26,2019_Oct_14_1557,ACPT_experiment_5_30_19,3.1.0,59.95461085352911,
,,,C,G,y,b,R,D,d,R,c ,,,,,5,19,119,14,3,0,3,0,,,,,0,29,29,1,,,,,,down,0.6338306132947764,2344.6608818705026,None,001,26,2019_Oct_14_1557,ACPT_experiment_5_30_19,3.1.0,59.95461085352911,
,,,C,G,y,b,L,U,d,R,u,,,,,5,19,119,14,3,0,3,0,,,,,0,30,30,21,,,,,,up,0.6504880129377852,2346.5790736719337,None,001,26,2019_Oct_14_1557,ACPT_experiment_5_30_19,3.1.0,59.95461085352911,
,,,C,G,y,b,R,D,d,L,c,,,,,5,19,119,14,3,0,3,0,,,,,0,31,31,0,,,,,,down,0.5504059680843056,2348.513867029378,None,001,26,2019_Oct_14_1557,ACPT_experiment_5_30_19,3.1.0,59.95461085352911,
,,,C,G,y,b,R,U,y,L,u,,,,,5,19,119,14,3,0,3,0,,,,,0,32,32,30,,,,,,down,0.6505704200226319,2350.348580153115,None,001,26,2019_Oct_14_1557,ACPT_experiment_5_30_19,3.1.0,59.95461085352911,
,,,C,G,y,b,L,U,y,L,u,,,,,5,19,119,14,3,0,3,0,,,,,0,33,33,24,,,,,,down,0.6004421607922268,2352.283422109609,None,001,26,2019_Oct_14_1557,ACPT_experiment_5_30_19,3.1.0,59.95461085352911,
,,,C,G,y,b,L,G,g,R,c ,,,,,5,19,119,14,3,0,3,0,,,,,0,34,34,19,,,,,,up,0.6171378963317693,2354.1681988950804,None,001,26,2019_Oct_14_1557,ACPT_experiment_5_30_19,3.1.0,59.95461085352911,
,,,C,G,y,b,R,U,g,L,u,,,,,5,19,119,14,3,0,3,0,,,,,0,35,35,10,,,,,,up,0.6304956921921985,2356.0896592089775,None,001,26,2019_Oct_14_1557,ACPT_experiment_5_30_19,3.1.0,59.95461085352911,
,,,C,G,y,b,R,G,y,R,y,,,,,5,19,119,14,3,0,3,0,,,,,1,0,36,29,,,,,,down,0.6504692977759987,2358.0045006945747,None,001,26,2019_Oct_14_1557,ACPT_experiment_5_30_19,3.1.0,59.95461085352911,
,,,C,G,y,b,L,D,g,R,i,,,,,5,19,119,14,3,0,3,0,,,,,1,1,37,15,,,,,,up,0.7005311483680998,2359.9393022021704,None,001,26,2019_Oct_14_1557,ACPT_experiment_5_30_19,3.1.0,59.95461085352911,
,,,C,G,y,b,R,D,y,R,y,,,,,5,19,119,14,3,0,3,0,,,,,1,2,38,27,,,,,,down,0.6171309536093759,2361.924157108351,None,001,26,2019_Oct_14_1557,ACPT_experiment_5_30_19,3.1.0,59.95461085352911,
,,,C,G,y,b,R,U,g,R,u,,,,,5,19,119,14,3,0,3,0,,,,,1,3,39,11,,,,,,up,0.55041955166962,2363.825617856921,None,001,26,2019_Oct_14_1557,ACPT_experiment_5_30_19,3.1.0,59.95461085352911,
,,,C,G,y,b,R,U,y,R,u,,,,,5,19,119,14,3,0,3,0,,,,,1,4,40,31,,,,,,down,0.6671734853243834,2365.643681731164,None,001,26,2019_Oct_14_1557,ACPT_experiment_5_30_19,3.1.0,59.95461085352911,
,,,C,G,y,b,R,G,d,L,i,,,,,5,19,119,14,3,0,3,0,,,,,1,5,41,4,,,,,,up,0.6504976723772415,2367.5951795780147,None,001,26,2019_Oct_14_1557,ACPT_experiment_5_30_19,3.1.0,59.95461085352911,
,,,C,G,y,b,R,D,g,R,i,,,,,5,19,119,14,3,0,3,0,,,,,1,6,42,3,,,,,,up,0.7172160170393909,2369.529996178484,None,001,26,2019_Oct_14_1557,ACPT_experiment_5_30_19,3.1.0,59.95461085352911,
,,,C,G,y,b,R,U,y,L,u,,,,,5,19,119,14,3,0,3,0,,,,,1,7,43,30,,,,,,down,0.6004542350892734,2371.5315395756243,None,001,26,2019_Oct_14_1557,ACPT_experiment_5_30_19,3.1.0,59.95461085352911,
,,,C,G,y,b,R,G,d,R,i,,,,,5,19,119,14,3,0,3,0,,,,,1,8,44,5,,,,,,down,1.0007495120480598,2373.416332359542,None,001,26,2019_Oct_14_1557,ACPT_experiment_5_30_19,3.1.0,59.95461085352911,
,,,C,G,y,b,L,G,y,R,y,,,,,5,19,119,14,3,0,3,0,,,,,1,9,45,35,,,,,,down,0.7005568062522798,2375.701380575232,None,001,26,2019_Oct_14_1557,ACPT_experiment_5_30_19,3.1.0,59.95461085352911,
,,,C,G,y,b,L,U,g,R,u,,,,,5,19,119,14,3,0,3,0,,,,,1,10,46,23,,,,,,down,0.8172874968822725,2377.68626415787,None,001,26,2019_Oct_14_1557,ACPT_experiment_5_30_19,3.1.0,59.95461085352911,
,,,C,G,y,b,L,U,y,R,u,,,,,5,19,119,14,3,0,3,0,,,,,1,11,47,25,,,,,,down,0.5671198150703276,2379.7878473398214,None,001,26,2019_Oct_14_1557,ACPT_experiment_5_30_19,3.1.0,59.95461085352911,
,,,C,G,y,b,L,G,y,L,y,,,,,5,19,119,14,3,0,3,0,,,,,1,12,48,34,,,,,,down,0.600458461094604,2381.6393002702825,None,001,26,2019_Oct_14_1557,ACPT_experiment_5_30_19,3.1.0,59.95461085352911,
,,,C,G,y,b,L,G,g,L,c ,,,,,5,19,119,14,3,0,3,0,,,,,1,13,49,18,,,,,,up,0.6338523470312794,2383.5073743774956,None,001,26,2019_Oct_14_1557,ACPT_experiment_5_30_19,3.1.0,59.95461085352911,
,,,C,G,y,b,R,G,g,R,c ,,,,,5,19,119,14,3,0,3,0,,,,,1,14,50,7,,,,,,up,0.6171602337835793,2385.4255402191848,None,001,26,2019_Oct_14_1557,ACPT_experiment_5_30_19,3.1.0,59.95461085352911,
,,,C,G,y,b,L,D,g,L,i,,,,,5,19,119,14,3,0,3,0,,,,,1,15,51,14,,,,,,up,0.6668945690398687,2387.3439523765537,None,001,26,2019_Oct_14_1557,ACPT_experiment_5_30_19,3.1.0,59.95461085352911,
,,,C,G,y,b,L,D,y,L,y,,,,,5,19,119,14,3,0,3,0,,,,,1,16,52,32,,,,,,down,0.61710982358818,2389.2952027002957,None,001,26,2019_Oct_14_1557,ACPT_experiment_5_30_19,3.1.0,59.95461085352911,
,,,C,G,y,b,L,U,g,L,u,,,,,5,19,119,14,3,0,3,0,,,,,1,17,53,22,,,,,,down,0.6671695611767063,2391.1966483559936,None,001,26,2019_Oct_14_1557,ACPT_experiment_5_30_19,3.1.0,59.95461085352911,
,,,C,G,y,b,R,D,y,L,y,,,,,5,19,119,14,3,0,3,0,,,,,1,18,54,26,,,,,,down,0.5837808370015409,2393.148138958266,None,001,26,2019_Oct_14_1557,ACPT_experiment_5_30_19,3.1.0,59.95461085352911,
,,,C,G,y,b,L,D,d,L,c ,,,,,5,19,119,14,3,0,3,0,,,,,1,19,55,12,,,,,,down,0.6838360165456834,2395.016256834808,None,001,26,2019_Oct_14_1557,ACPT_experiment_5_30_19,3.1.0,59.95461085352911,
,,,C,G,y,b,R,U,g,L,u,,,,,5,19,119,14,3,0,3,0,,,,,1,20,56,10,,,,,,up,0.6171460464829579,2396.984416005449,None,001,26,2019_Oct_14_1557,ACPT_experiment_5_30_19,3.1.0,59.95461085352911,
,,,C,G,y,b,R,D,g,L,i,,,,,5,19,119,14,3,0,3,0,,,,,1,21,57,2,,,,,,down,0.5671128723497532,2398.8858743391593,None,001,26,2019_Oct_14_1557,ACPT_experiment_5_30_19,3.1.0,59.95461085352911,
,,,C,G,y,b,L,D,y,R,y,,,,,5,19,119,14,3,0,3,0,,,,,1,22,58,33,,,,,,down,0.6336280669474945,2400.787495072178,None,001,26,2019_Oct_14_1557,ACPT_experiment_5_30_19,3.1.0,59.95461085352911,
,,,C,G,y,b,L,G,d,R,i,,,,,5,19,119,14,3,0,3,0,,,,,1,23,59,17,,,,,,down,0.6338218594300997,2402.7388401791595,None,001,26,2019_Oct_14_1557,ACPT_experiment_5_30_19,3.1.0,59.95461085352911,
,,,C,G,y,b,L,U,d,L,u,,,,,5,19,119,14,3,0,3,0,,,,,1,24,60,20,,,,,,down,0.633813105563604,2404.6569716091,None,001,26,2019_Oct_14_1557,ACPT_experiment_5_30_19,3.1.0,59.95461085352911,
,,,C,G,y,b,R,U,d,R,u,,,,,5,19,119,14,3,0,3,0,,,,,1,25,61,9,,,,,,down,0.4837006032921636,2406.5751120947643,None,001,26,2019_Oct_14_1557,ACPT_experiment_5_30_19,3.1.0,59.95461085352911,
,,,C,G,y,b,R,D,d,L,c,,,,,5,19,119,14,3,0,3,0,,,,,1,26,62,0,,,,,,up,0.5170745666382572,2408.3431231741397,None,001,26,2019_Oct_14_1557,ACPT_experiment_5_30_19,3.1.0,59.95461085352911,
,,,C,G,y,b,R,G,g,L,c ,,,,,5,19,119,14,3,0,3,0,,,,,1,27,63,6,,,,,,up,0.6838538261345093,2410.144521196733,None,001,26,2019_Oct_14_1557,ACPT_experiment_5_30_19,3.1.0,59.95461085352911,
,,,C,G,y,b,R,U,d,L,u,,,,,5,19,119,14,3,0,3,0,,,,,1,28,64,8,,,,,,down,0.5337389090036595,2412.1126960639594,None,001,26,2019_Oct_14_1557,ACPT_experiment_5_30_19,3.1.0,59.95461085352911,
,,,C,G,y,b,L,G,g,R,c ,,,,,5,19,119,14,3,0,3,0,,,,,1,29,65,19,,,,,,up,0.5837829500032967,2413.9307656734964,None,001,26,2019_Oct_14_1557,ACPT_experiment_5_30_19,3.1.0,59.95461085352911,
,,,C,G,y,b,R,D,d,R,c ,,,,,5,19,119,14,3,0,3,0,,,,,1,30,66,1,,,,,,down,0.5838034763110045,2415.798849742003,None,001,26,2019_Oct_14_1557,ACPT_experiment_5_30_19,3.1.0,59.95461085352911,
,,,C,G,y,b,L,D,d,R,c ,,,,,5,19,119,14,3,0,3,0,,,,,1,31,67,13,,,,,,up,0.5504077792284079,2417.6669697315465,None,001,26,2019_Oct_14_1557,ACPT_experiment_5_30_19,3.1.0,59.95461085352911,
,,,C,G,y,b,L,U,y,L,u,,,,,5,19,119,14,3,0,3,0,,,,,1,32,68,24,,,,,,down,0.5003749069528567,2419.5017091168793,None,001,26,2019_Oct_14_1557,ACPT_experiment_5_30_19,3.1.0,59.95461085352911,
,,,C,G,y,b,R,G,y,L,y,,,,,5,19,119,14,3,0,3,0,,,,,1,33,69,28,,,,,,down,0.5670917423267383,2421.2864138187924,None,001,26,2019_Oct_14_1557,ACPT_experiment_5_30_19,3.1.0,59.95461085352911,
,,,C,G,y,b,L,G,d,L,i,,,,,5,19,119,14,3,0,3,0,,,,,1,34,70,16,,,,,,down,0.567097175760864,2423.137831130076,None,001,26,2019_Oct_14_1557,ACPT_experiment_5_30_19,3.1.0,59.95461085352911,
,,,C,G,y,b,L,U,d,R,u,,,,,5,19,119,14,3,0,3,0,,,,,1,35,71,21,,,,,,down,0.5003848682481475,2424.9892587045124,None,001,26,2019_Oct_14_1557,ACPT_experiment_5_30_19,3.1.0,59.95461085352911,
,,,C,G,y,b,,,,,,,,,,5,19,119,14,4,0,4,0,0,0,0,0,,,,,,,,,,,,,,001,26,2019_Oct_14_1557,ACPT_experiment_5_30_19,3.1.0,59.95461085352911,
,,,C,G,y,b,L,G,g,L,c ,,,,,5,19,119,14,4,0,4,0,,,,,0,0,0,18,,,,,,up,0.5971488960167335,2428.2784215390984,None,001,26,2019_Oct_14_1557,ACPT_experiment_5_30_19,3.1.0,59.95461085352911,
,,,C,G,y,b,L,U,g,R,u,,,,,5,19,119,14,4,0,4,0,,,,,0,1,1,23,,,,,,up,0.5003872831093759,2430.1598887594937,None,001,26,2019_Oct_14_1557,ACPT_experiment_5_30_19,3.1.0,59.95461085352911,
,,,C,G,y,b,L,G,d,R,i,,,,,5,19,119,14,4,0,4,0,,,,,0,2,2,17,,,,,,down,0.600455140662234,2431.944593461405,None,001,26,2019_Oct_14_1557,ACPT_experiment_5_30_19,3.1.0,59.95461085352911,
,,,C,G,y,b,L,D,g,R,i,,,,,5,19,119,14,4,0,4,0,,,,,0,3,3,15,,,,,,up,0.5337428331495175,2433.8293711524493,None,001,26,2019_Oct_14_1557,ACPT_experiment_5_30_19,3.1.0,59.95461085352911,
,,,C,G,y,b,L,G,y,L,y,,,,,5,19,119,14,4,0,4,0,,,,,0,4,4,34,,,,,,down,0.61713216103999,2435.6641223102233,None,001,26,2019_Oct_14_1557,ACPT_experiment_5_30_19,3.1.0,59.95461085352911,
,,,C,G,y,b,L,G,y,R,y,,,,,5,19,119,14,4,0,4,0,,,,,0,5,5,35,,,,,,down,0.5504400779755088,2437.5822582680266,None,001,26,2019_Oct_14_1557,ACPT_experiment_5_30_19,3.1.0,59.95461085352911,
,,,C,G,y,b,L,D,d,R,c ,,,,,5,19,119,14,4,0,4,0,,,,,0,6,6,13,,,,,,down,0.6004590648099111,2439.4170012756495,None,001,26,2019_Oct_14_1557,ACPT_experiment_5_30_19,3.1.0,59.95461085352911,
,,,C,G,y,b,R,D,d,L,c,,,,,5,19,119,14,4,0,4,0,,,,,0,7,7,0,,,,,,down,0.5471111940223636,2441.321774004158,None,001,26,2019_Oct_14_1557,ACPT_experiment_5_30_19,3.1.0,59.95461085352911,
,,,C,G,y,b,R,U,d,R,u,,,,,5,19,119,14,4,0,4,0,,,,,0,8,8,9,,,,,,up,0.6171442353370367,2443.1532044281284,None,001,26,2019_Oct_14_1557,ACPT_experiment_5_30_19,3.1.0,59.95461085352911,
,,,C,G,y,b,R,D,d,R,c ,,,,,5,19,119,14,4,0,4,0,,,,,0,9,9,1,,,,,,down,0.4837377317580831,2445.054672421278,None,001,26,2019_Oct_14_1557,ACPT_experiment_5_30_19,3.1.0,59.95461085352911,
,,,C,G,y,b,R,D,g,L,i,,,,,5,19,119,14,4,0,4,0,,,,,0,10,10,2,,,,,,up,0.6671922004861699,2446.8059901799734,None,001,26,2019_Oct_14_1557,ACPT_experiment_5_30_19,3.1.0,59.95461085352911,
,,,C,G,y,b,L,D,d,L,c ,,,,,5,19,119,14,4,0,4,0,,,,,0,11,11,12,,,,,,down,0.6004575555216434,2448.757510062418,None,001,26,2019_Oct_14_1557,ACPT_experiment_5_30_19,3.1.0,59.95461085352911,
,,,C,G,y,b,R,U,d,L,u,,,,,5,19,119,14,4,0,4,0,,,,,0,12,12,8,,,,,,down,0.600469629820509,2450.642290772037,None,001,26,2019_Oct_14_1557,ACPT_experiment_5_30_19,3.1.0,59.95461085352911,
,,,C,G,y,b,R,G,y,L,y,,,,,5,19,119,14,4,0,4,0,,,,,0,13,13,28,,,,,,down,0.8006092690757214,2452.5270693686525,None,001,26,2019_Oct_14_1557,ACPT_experiment_5_30_19,3.1.0,59.95461085352911,
,,,C,G,y,b,R,G,d,R,i,,,,,5,19,119,14,4,0,4,0,,,,,0,14,14,5,,,,,,down,0.5501629728369153,2454.6122647096654,None,001,26,2019_Oct_14_1557,ACPT_experiment_5_30_19,3.1.0,59.95461085352911,
,,,C,G,y,b,L,D,g,L,i,,,,,5,19,119,14,4,0,4,0,,,,,0,15,15,14,,,,,,up,0.6838417518356437,2456.446757175605,None,001,26,2019_Oct_14_1557,ACPT_experiment_5_30_19,3.1.0,59.95461085352911,
,,,C,G,y,b,R,D,g,R,i,,,,,5,19,119,14,4,0,4,0,,,,,0,16,16,3,,,,,,up,0.633846008026012,2458.4149190629614,None,001,26,2019_Oct_14_1557,ACPT_experiment_5_30_19,3.1.0,59.95461085352911,
,,,C,G,y,b,R,G,d,L,i,,,,,5,19,119,14,4,0,4,0,,,,,0,17,17,4,,,,,,down,0.5504150238084549,2460.3330655857753,None,001,26,2019_Oct_14_1557,ACPT_experiment_5_30_19,3.1.0,59.95461085352911,
,,,C,G,y,b,L,U,y,R,u,,,,,5,19,119,14,4,0,4,0,,,,,0,18,18,25,,,,,,down,0.5670923460420454,2462.184486519349,None,001,26,2019_Oct_14_1557,ACPT_experiment_5_30_19,3.1.0,59.95461085352911,
,,,C,G,y,b,L,U,d,L,u,,,,,5,19,119,14,4,0,4,0,,,,,0,19,19,20,,,,,,down,0.6672009543508466,2464.05259020859,None,001,26,2019_Oct_14_1557,ACPT_experiment_5_30_19,3.1.0,59.95461085352911,
,,,C,G,y,b,R,U,g,R,u,,,,,5,19,119,14,4,0,4,0,,,,,0,20,20,11,,,,,,up,0.5170573607629194,2466.0040808108624,None,001,26,2019_Oct_14_1557,ACPT_experiment_5_30_19,3.1.0,59.95461085352911,
,,,C,G,y,b,R,U,g,L,u,,,,,5,19,119,14,4,0,4,0,,,,,0,21,21,10,,,,,,up,0.6004832134040043,2467.8054616275786,None,001,26,2019_Oct_14_1557,ACPT_experiment_5_30_19,3.1.0,59.95461085352911,
,,,C,G,y,b,L,G,g,R,c ,,,,,5,19,119,14,4,0,4,0,,,,,0,22,22,19,,,,,,up,0.5337383052883524,2469.6902495817776,None,001,26,2019_Oct_14_1557,ACPT_experiment_5_30_19,3.1.0,59.95461085352911,
,,,C,G,y,b,R,G,y,R,y,,,,,5,19,119,14,4,0,4,0,,,,,0,23,23,29,,,,,,down,0.5837732905656594,2471.5083095318732,None,001,26,2019_Oct_14_1557,ACPT_experiment_5_30_19,3.1.0,59.95461085352911,
,,,C,G,y,b,R,U,y,R,u,,,,,5,19,119,14,4,0,4,0,,,,,0,24,24,31,,,,,,down,0.5504222683848639,2473.376429219559,None,001,26,2019_Oct_14_1557,ACPT_experiment_5_30_19,3.1.0,59.95461085352911,
,,,C,G,y,b,R,U,y,L,u,,,,,5,19,119,14,4,0,4,0,,,,,0,25,25,30,,,,,,down,0.5839199932852353,2475.1943294870653,None,001,26,2019_Oct_14_1557,ACPT_experiment_5_30_19,3.1.0,59.95461085352911,
,,,C,G,y,b,L,U,y,L,u,,,,,5,19,119,14,4,0,4,0,,,,,0,26,26,24,,,,,,down,0.6171327647552971,2477.062580482743,None,001,26,2019_Oct_14_1557,ACPT_experiment_5_30_19,3.1.0,59.95461085352911,
,,,C,G,y,b,L,U,g,L,u,,,,,5,19,119,14,4,0,4,0,,,,,0,27,27,22,,,,,,up,1.1509051799348526,2478.964037307167,None,001,26,2019_Oct_14_1557,ACPT_experiment_5_30_19,3.1.0,59.95461085352911,
,,,C,G,y,b,R,G,g,L,c ,,,,,5,19,119,14,4,0,4,0,,,,,0,28,28,6,,,,,,up,0.683852014988588,2481.399240285171,None,001,26,2019_Oct_14_1557,ACPT_experiment_5_30_19,3.1.0,59.95461085352911,
,,,C,G,y,b,R,D,y,R,y,,,,,5,19,119,14,4,0,4,0,,,,,0,29,29,27,,,,,,down,0.6171182755970221,2483.3674350749898,None,001,26,2019_Oct_14_1557,ACPT_experiment_5_30_19,3.1.0,59.95461085352911,
,,,C,G,y,b,L,U,d,R,u,,,,,5,19,119,14,4,0,4,0,,,,,0,30,30,21,,,,,,down,0.8506415376377845,2485.2688837492624,None,001,26,2019_Oct_14_1557,ACPT_experiment_5_30_19,3.1.0,59.95461085352911,
,,,C,G,y,b,L,G,d,L,i,,,,,5,19,119,14,4,0,4,0,,,,,0,31,31,16,,,,,,up,0.70052118707099,2487.4038614208675,None,001,26,2019_Oct_14_1557,ACPT_experiment_5_30_19,3.1.0,59.95461085352911,
,,,C,G,y,b,L,D,y,R,y,,,,,5,19,119,14,4,0,4,0,,,,,0,32,32,33,,,,,,down,0.6504961630889738,2489.3887117991853,None,001,26,2019_Oct_14_1557,ACPT_experiment_5_30_19,3.1.0,59.95461085352911,
,,,C,G,y,b,R,G,g,R,c ,,,,,5,19,119,14,4,0,4,0,,,,,0,33,33,7,,,,,,up,0.6838505057021393,2491.3235302107987,None,001,26,2019_Oct_14_1557,ACPT_experiment_5_30_19,3.1.0,59.95461085352911,
,,,C,G,y,b,R,D,y,L,y,,,,,5,19,119,14,4,0,4,0,,,,,0,34,34,26,,,,,,down,0.600214560276072,2493.308649242248,None,001,26,2019_Oct_14_1557,ACPT_experiment_5_30_19,3.1.0,59.95461085352911,
,,,C,G,y,b,L,D,y,L,y,,,,,5,19,119,14,4,0,4,0,,,,,0,35,35,32,,,,,,down,0.583814343179256,2495.193170052602,None,001,26,2019_Oct_14_1557,ACPT_experiment_5_30_19,3.1.0,59.95461085352911,
,,,C,G,y,b,L,D,g,R,i,,,,,5,19,119,14,4,0,4,0,,,,,1,0,36,15,,,,,,up,0.6504961630889738,2497.0612661954074,None,001,26,2019_Oct_14_1557,ACPT_experiment_5_30_19,3.1.0,59.95461085352911,
,,,C,G,y,b,R,G,y,L,y,,,,,5,19,119,14,4,0,4,0,,,,,1,1,37,28,,,,,,down,0.4670184513379354,2498.9960837014496,None,001,26,2019_Oct_14_1557,ACPT_experiment_5_30_19,3.1.0,59.95461085352911,
,,,C,G,y,b,R,D,y,L,y,,,,,5,19,119,14,4,0,4,0,,,,,1,2,38,26,,,,,,down,0.9173737677410827,2500.730747682792,None,001,26,2019_Oct_14_1557,ACPT_experiment_5_30_19,3.1.0,59.95461085352911,
,,,C,G,y,b,R,G,g,R,c ,,,,,5,19,119,14,4,0,4,0,,,,,1,3,39,7,,,,,,down,0.8172865913111309,2502.932443095344,None,001,26,2019_Oct_14_1557,ACPT_experiment_5_30_19,3.1.0,59.95461085352911,
,,,C,G,y,b,L,U,g,R,u,,,,,5,19,119,14,4,0,4,0,,,,,1,4,40,23,,,,,,up,0.6171300480382342,2505.034054048181,None,001,26,2019_Oct_14_1557,ACPT_experiment_5_30_19,3.1.0,59.95461085352911,
,,,C,G,y,b,L,U,y,R,u,,,,,5,19,119,14,4,0,4,0,,,,,1,5,41,25,,,,,,down,0.5003749069528567,2506.9355347193414,None,001,26,2019_Oct_14_1557,ACPT_experiment_5_30_19,3.1.0,59.95461085352911,
,,,C,G,y,b,L,G,d,L,i,,,,,5,19,119,14,4,0,4,0,,,,,1,6,42,16,,,,,,down,0.7172416749235708,2508.720197161212,None,001,26,2019_Oct_14_1557,ACPT_experiment_5_30_19,3.1.0,59.95461085352911,
,,,C,G,y,b,R,U,y,R,u,,,,,5,19,119,14,4,0,4,0,,,,,1,7,43,31,,,,,,down,0.5003770199546125,2510.7217601790853,None,001,26,2019_Oct_14_1557,ACPT_experiment_5_30_19,3.1.0,59.95461085352911,
,,,C,G,y,b,L,U,d,L,u,,,,,5,19,119,14,4,0,4,0,,,,,1,8,44,20,,,,,,down,0.5471000252946396,2512.5264593147476,None,001,26,2019_Oct_14_1557,ACPT_experiment_5_30_19,3.1.0,59.95461085352911,
,,,C,G,y,b,L,D,g,L,i,,,,,5,19,119,14,4,0,4,0,,,,,1,9,45,14,,,,,,up,0.6171315573246829,2514.357900605586,None,001,26,2019_Oct_14_1557,ACPT_experiment_5_30_19,3.1.0,59.95461085352911,
,,,C,G,y,b,L,U,g,L,u,,,,,5,19,119,14,4,0,4,0,,,,,1,10,46,22,,,,,,down,0.7506944230626686,2516.2593402241346,None,001,26,2019_Oct_14_1557,ACPT_experiment_5_30_19,3.1.0,59.95461085352911,
,,,C,G,y,b,R,U,d,R,u,,,,,5,19,119,14,4,0,4,0,,,,,1,11,47,9,,,,,,down,0.5670941571861476,2518.2942412843186,None,001,26,2019_Oct_14_1557,ACPT_experiment_5_30_19,3.1.0,59.95461085352911,
,,,C,G,y,b,R,U,d,L,u,,,,,5,19,119,14,4,0,4,0,,,,,1,12,48,8,,,,,,down,1.0174446438722953,2520.145664029036,None,001,26,2019_Oct_14_1557,ACPT_experiment_5_30_19,3.1.0,59.95461085352911,
,,,C,G,y,b,L,G,d,R,i,,,,,5,19,119,14,4,0,4,0,,,,,1,13,49,17,,,,,,down,0.5170649071988009,2522.4474276010005,None,001,26,2019_Oct_14_1557,ACPT_experiment_5_30_19,3.1.0,59.95461085352911,
,,,C,G,y,b,R,D,g,L,i,,,,,5,19,119,14,4,0,4,0,,,,,1,14,50,2,,,,,,up,0.7172513343612081,2524.248809927005,None,001,26,2019_Oct_14_1557,ACPT_experiment_5_30_19,3.1.0,59.95461085352911,
,,,C,G,y,b,L,D,y,L,y,,,,,5,19,119,14,4,0,4,0,,,,,1,15,51,32,,,,,,down,0.500380642242817,2526.2503493999975,None,001,26,2019_Oct_14_1557,ACPT_experiment_5_30_19,3.1.0,59.95461085352911,
,,,C,G,y,b,R,G,y,R,y,,,,,5,19,119,14,4,0,4,0,,,,,1,16,52,29,,,,,,down,0.5337310607101244,2528.05173323529,None,001,26,2019_Oct_14_1557,ACPT_experiment_5_30_19,3.1.0,59.95461085352911,
,,,C,G,y,b,R,U,g,L,u,,,,,5,19,119,14,4,0,4,0,,,,,1,17,53,10,,,,,,up,0.6171726099382795,2529.8864747336265,None,001,26,2019_Oct_14_1557,ACPT_experiment_5_30_19,3.1.0,59.95461085352911,
,,,C,G,y,b,L,D,d,L,c ,,,,,5,19,119,14,4,0,4,0,,,,,1,18,54,12,,,,,,down,0.5471178348834655,2531.80793293452,None,001,26,2019_Oct_14_1557,ACPT_experiment_5_30_19,3.1.0,59.95461085352911,
,,,C,G,y,b,R,G,d,R,i,,,,,5,19,119,14,4,0,4,0,,,,,1,19,55,5,,,,,,down,0.5837769128538639,2533.622677584248,None,001,26,2019_Oct_14_1557,ACPT_experiment_5_30_19,3.1.0,59.95461085352911,
,,,C,G,y,b,R,D,y,R,y,,,,,5,19,119,14,4,0,4,0,,,,,1,20,56,27,,,,,,down,0.5170618886240845,2535.4907788586297,None,001,26,2019_Oct_14_1557,ACPT_experiment_5_30_19,3.1.0,59.95461085352911,
,,,C,G,y,b,L,U,y,L,u,,,,,5,19,119,14,4,0,4,0,,,,,1,21,57,24,,,,,,down,0.6504846925072343,2537.2921690329276,None,001,26,2019_Oct_14_1557,ACPT_experiment_5_30_19,3.1.0,59.95461085352911,
,,,C,G,y,b,L,G,g,R,c ,,,,,5,19,119,14,4,0,4,0,,,,,1,22,58,19,,,,,,up,0.633820350143651,2539.2269774832457,None,001,26,2019_Oct_14_1557,ACPT_experiment_5_30_19,3.1.0,59.95461085352911,
,,,C,G,y,b,L,G,g,L,c ,,,,,5,19,119,14,4,0,4,0,,,,,1,23,59,18,,,,,,up,0.6338339337271464,2541.128420724084,None,001,26,2019_Oct_14_1557,ACPT_experiment_5_30_19,3.1.0,59.95461085352911,
,,,C,G,y,b,L,U,d,R,u,,,,,5,19,119,14,4,0,4,0,,,,,1,24,60,21,,,,,,down,0.617124312746455,2543.046586867631,None,001,26,2019_Oct_14_1557,ACPT_experiment_5_30_19,3.1.0,59.95461085352911,
,,,C,G,y,b,R,U,y,L,u,,,,,5,19,119,14,4,0,4,0,,,,,1,25,61,30,,,,,,down,0.6304944847615843,2544.96804204995,None,001,26,2019_Oct_14_1557,ACPT_experiment_5_30_19,3.1.0,59.95461085352911,
,,,C,G,y,b,L,G,y,R,y,,,,,5,19,119,14,4,0,4,0,,,,,1,26,62,35,,,,,,down,0.6171357833281945,2546.86618176286,None,001,26,2019_Oct_14_1557,ACPT_experiment_5_30_19,3.1.0,59.95461085352911,
,,,C,G,y,b,R,G,g,L,c ,,,,,5,19,119,14,4,0,4,0,,,,,1,27,63,6,,,,,,up,0.5837388788168028,2548.7676729990326,None,001,26,2019_Oct_14_1557,ACPT_experiment_5_30_19,3.1.0,59.95461085352911,
,,,C,G,y,b,R,D,d,L,c,,,,,5,19,119,14,4,0,4,0,,,,,1,28,64,0,,,,,,down,0.5837754035692342,2550.6357428802403,None,001,26,2019_Oct_14_1557,ACPT_experiment_5_30_19,3.1.0,59.95461085352911,
,,,C,G,y,b,L,D,d,R,c ,,,,,5,19,119,14,4,0,4,0,,,,,1,29,65,13,,,,,,down,0.5170507198999985,2552.5038459657662,None,001,26,2019_Oct_14_1557,ACPT_experiment_5_30_19,3.1.0,59.95461085352911,
,,,C,G,y,b,L,D,y,R,y,,,,,5,19,119,14,4,0,4,0,,,,,1,30,66,33,,,,,,down,0.55043856868906,2554.3052249713382,None,001,26,2019_Oct_14_1557,ACPT_experiment_5_30_19,3.1.0,59.95461085352911,
,,,C,G,y,b,R,G,d,L,i,,,,,5,19,119,14,4,0,4,0,,,,,1,31,67,4,,,,,,up,0.567100496193234,2556.139965262244,None,001,26,2019_Oct_14_1557,ACPT_experiment_5_30_19,3.1.0,59.95461085352911,
,,,C,G,y,b,R,D,g,R,i,,,,,5,19,119,14,4,0,4,0,,,,,1,32,68,3,,,,,,up,0.6669111712017184,2558.008339415761,None,001,26,2019_Oct_14_1557,ACPT_experiment_5_30_19,3.1.0,59.95461085352911,
,,,C,G,y,b,R,U,g,R,u,,,,,5,19,119,14,4,0,4,0,,,,,1,33,69,11,,,,,,down,0.7506020546843502,2559.959569213197,None,001,26,2019_Oct_14_1557,ACPT_experiment_5_30_19,3.1.0,59.95461085352911,
,,,C,G,y,b,R,D,d,R,c ,,,,,5,19,119,14,4,0,4,0,,,,,1,34,70,1,,,,,,down,0.5504210609578877,2561.994461217657,None,001,26,2019_Oct_14_1557,ACPT_experiment_5_30_19,3.1.0,59.95461085352911,
,,,C,G,y,b,L,G,y,L,y,,,,,5,19,119,14,4,0,4,0,,,,,1,35,71,34,,,,,,down,0.5837787239997851,2563.8292051308526,None,001,26,2019_Oct_14_1557,ACPT_experiment_5_30_19,3.1.0,59.95461085352911,
,,,C,G,y,b,,,,,,,,,,5,19,119,14,5,0,5,0,0,0,0,0,,,,,,,,,,,,,,001,26,2019_Oct_14_1557,ACPT_experiment_5_30_19,3.1.0,59.95461085352911,
,,,C,G,y,b,L,G,d,R,i,,,,,5,19,119,14,5,0,5,0,,,,,0,0,0,17,,,,,,up,1.867836847255603,2582.377045914329,None,001,26,2019_Oct_14_1557,ACPT_experiment_5_30_19,3.1.0,59.95461085352911,
,,,C,G,y,b,L,G,y,L,y,,,,,5,19,119,14,5,0,5,0,,,,,0,1,1,34,,,,,,down,0.5337675854589179,2585.5125062559964,None,001,26,2019_Oct_14_1557,ACPT_experiment_5_30_19,3.1.0,59.95461085352911,
,,,C,G,y,b,R,D,g,R,i,,,,,5,19,119,14,5,0,5,0,,,,,0,2,2,3,,,,,,up,0.5170549459053291,2587.330592769549,None,001,26,2019_Oct_14_1557,ACPT_experiment_5_30_19,3.1.0,59.95461085352911,
,,,C,G,y,b,L,G,d,L,i,,,,,5,19,119,14,5,0,5,0,,,,,0,3,3,16,,,,,,down,0.5337552093042177,2589.1319485320982,None,001,26,2019_Oct_14_1557,ACPT_experiment_5_30_19,3.1.0,59.95461085352911,
,,,C,G,y,b,R,G,d,R,i,,,,,5,19,119,14,5,0,5,0,,,,,0,4,4,5,,,,,,down,0.6670953042448673,2590.950038969797,None,001,26,2019_Oct_14_1557,ACPT_experiment_5_30_19,3.1.0,59.95461085352911,
,,,C,G,y,b,L,G,g,R,c ,,,,,5,19,119,14,5,0,5,0,,,,,0,5,5,19,,,,,,up,0.5670941571861476,2592.9015328925016,None,001,26,2019_Oct_14_1557,ACPT_experiment_5_30_19,3.1.0,59.95461085352911,
,,,C,G,y,b,R,G,d,L,i,,,,,5,19,119,14,5,0,5,0,,,,,0,6,6,4,,,,,,down,0.6004801948311069,2594.7529296774774,None,001,26,2019_Oct_14_1557,ACPT_experiment_5_30_19,3.1.0,59.95461085352911,
,,,C,G,y,b,R,D,d,R,c ,,,,,5,19,119,14,5,0,5,0,,,,,0,7,7,1,,,,,,up,0.463709489975372,2596.6577374214485,None,001,26,2019_Oct_14_1557,ACPT_experiment_5_30_19,3.1.0,59.95461085352911,
,,,C,G,y,b,L,D,d,R,c ,,,,,5,19,119,14,5,0,5,0,,,,,0,8,8,13,,,,,,down,0.5170395511740935,2598.4057845546795,None,001,26,2019_Oct_14_1557,ACPT_experiment_5_30_19,3.1.0,59.95461085352911,
,,,C,G,y,b,R,U,y,L,u,,,,,5,19,119,14,5,0,5,0,,,,,0,9,9,30,,,,,,down,0.5003525695010467,2600.2071702011162,None,001,26,2019_Oct_14_1557,ACPT_experiment_5_30_19,3.1.0,59.95461085352911,
,,,C,G,y,b,R,D,d,L,c,,,,,5,19,119,14,5,0,5,0,,,,,0,10,10,0,,,,,,down,0.6504868055089901,2601.9918498488605,None,001,26,2019_Oct_14_1557,ACPT_experiment_5_30_19,3.1.0,59.95461085352911,
,,,C,G,y,b,L,D,g,L,i,,,,,5,19,119,14,5,0,5,0,,,,,0,11,11,14,,,,,,up,0.6171179737393686,2603.9433612792964,None,001,26,2019_Oct_14_1557,ACPT_experiment_5_30_19,3.1.0,59.95461085352911,
,,,C,G,y,b,L,U,d,R,u,,,,,5,19,119,14,5,0,5,0,,,,,0,12,12,21,,,,,,up,0.6171206904564315,2605.844822027866,None,001,26,2019_Oct_14_1557,ACPT_experiment_5_30_19,3.1.0,59.95461085352911,
,,,C,G,y,b,L,U,d,L,u,,,,,5,19,119,14,5,0,5,0,,,,,0,13,13,20,,,,,,down,0.6004599703810527,2607.7295846260386,None,001,26,2019_Oct_14_1557,ACPT_experiment_5_30_19,3.1.0,59.95461085352911,
,,,C,G,y,b,L,G,g,L,c ,,,,,5,19,119,14,5,0,5,0,,,,,0,14,14,18,,,,,,up,0.6005037397117121,2609.6143737876646,None,001,26,2019_Oct_14_1557,ACPT_experiment_5_30_19,3.1.0,59.95461085352911,
,,,C,G,y,b,R,D,y,R,y,,,,,5,19,119,14,5,0,5,0,,,,,0,15,15,27,,,,,,down,0.550423475815478,2611.4991276319706,None,001,26,2019_Oct_14_1557,ACPT_experiment_5_30_19,3.1.0,59.95461085352911,
,,,C,G,y,b,R,G,y,R,y,,,,,5,19,119,14,5,0,5,0,,,,,0,16,16,29,,,,,,down,0.5004005648370367,2613.3339132014935,None,001,26,2019_Oct_14_1557,ACPT_experiment_5_30_19,3.1.0,59.95461085352911,
,,,C,G,y,b,R,G,g,R,c ,,,,,5,19,119,14,5,0,5,0,,,,,0,17,17,7,,,,,,up,0.5837811388591945,2615.1185928492396,None,001,26,2019_Oct_14_1557,ACPT_experiment_5_30_19,3.1.0,59.95461085352911,
,,,C,G,y,b,R,U,d,L,u,,,,,5,19,119,14,5,0,5,0,,,,,0,18,18,8,,,,,,down,0.4804221295307798,2617.006691274086,None,001,26,2019_Oct_14_1557,ACPT_experiment_5_30_19,3.1.0,59.95461085352911,
,,,C,G,y,b,L,D,y,R,y,,,,,5,19,119,14,5,0,5,0,,,,,0,19,19,33,,,,,,down,0.5337543037330761,2618.7880867127787,None,001,26,2019_Oct_14_1557,ACPT_experiment_5_30_19,3.1.0,59.95461085352911,
,,,C,G,y,b,R,U,d,R,u,,,,,5,19,119,14,5,0,5,0,,,,,0,20,20,9,,,,,,up,0.6004527258028247,2620.6228445114175,None,001,26,2019_Oct_14_1557,ACPT_experiment_5_30_19,3.1.0,59.95461085352911,
,,,C,G,y,b,R,U,y,R,u,,,,,5,19,119,14,5,0,5,0,,,,,0,21,21,31,,,,,,down,0.5170579644800455,2622.5076089207323,None,001,26,2019_Oct_14_1557,ACPT_experiment_5_30_19,3.1.0,59.95461085352911,
,,,C,G,y,b,L,D,d,L,c ,,,,,5,19,119,14,5,0,5,0,,,,,0,22,22,12,,,,,,up,0.5003570973622118,2624.3423637007963,None,001,26,2019_Oct_14_1557,ACPT_experiment_5_30_19,3.1.0,59.95461085352911,
,,,C,G,y,b,L,U,g,R,u,,,,,5,19,119,14,5,0,5,0,,,,,0,23,23,23,,,,,,up,0.533742531291864,2626.127050291263,None,001,26,2019_Oct_14_1557,ACPT_experiment_5_30_19,3.1.0,59.95461085352911,
,,,C,G,y,b,L,U,y,R,u,,,,,5,19,119,14,5,0,5,0,,,,,0,24,24,25,,,,,,down,0.5170483050405892,2627.945116278508,None,001,26,2019_Oct_14_1557,ACPT_experiment_5_30_19,3.1.0,59.95461085352911,
,,,C,G,y,b,R,G,y,L,y,,,,,5,19,119,14,5,0,5,0,,,,,0,25,25,28,,,,,,down,0.5670002795213804,2629.7632577301174,None,001,26,2019_Oct_14_1557,ACPT_experiment_5_30_19,3.1.0,59.95461085352911,
,,,C,G,y,b,L,D,y,L,y,,,,,5,19,119,14,5,0,5,0,,,,,0,26,26,32,,,,,,down,0.4670015473202511,2631.647970219952,None,001,26,2019_Oct_14_1557,ACPT_experiment_5_30_19,3.1.0,59.95461085352911,
,,,C,G,y,b,R,D,g,L,i,,,,,5,19,119,14,5,0,5,0,,,,,0,27,27,2,,,,,,down,0.6338146148518717,2633.399301260375,None,001,26,2019_Oct_14_1557,ACPT_experiment_5_30_19,3.1.0,59.95461085352911,
,,,C,G,y,b,R,D,y,L,y,,,,,5,19,119,14,5,0,5,0,,,,,0,28,28,26,,,,,,down,1.034137662692956,2635.317420917876,None,001,26,2019_Oct_14_1557,ACPT_experiment_5_30_19,3.1.0,59.95461085352911,
,,,C,G,y,b,R,U,g,L,u,,,,,5,19,119,14,5,0,5,0,,,,,0,29,29,10,,,,,,up,0.6171391037605645,2637.6525656977647,None,001,26,2019_Oct_14_1557,ACPT_experiment_5_30_19,3.1.0,59.95461085352911,
,,,C,G,y,b,R,G,g,L,c ,,,,,5,19,119,14,5,0,5,0,,,,,0,30,30,6,,,,,,up,0.5504222683848639,2639.55402463519,None,001,26,2019_Oct_14_1557,ACPT_experiment_5_30_19,3.1.0,59.95461085352911,
,,,C,G,y,b,L,U,y,L,u,,,,,5,19,119,14,5,0,5,0,,,,,0,31,31,24,,,,,,down,0.46702328105675406,2641.388766737242,None,001,26,2019_Oct_14_1557,ACPT_experiment_5_30_19,3.1.0,59.95461085352911,
,,,C,G,y,b,L,D,g,R,i,,,,,5,19,119,14,5,0,5,0,,,,,0,32,32,15,,,,,,up,0.5670944590438012,2643.140116794684,None,001,26,2019_Oct_14_1557,ACPT_experiment_5_30_19,3.1.0,59.95461085352911,
,,,C,G,y,b,R,U,g,R,u,,,,,5,19,119,14,5,0,5,0,,,,,0,33,33,11,,,,,,down,0.6502214728116087,2645.0084885333417,None,001,26,2019_Oct_14_1557,ACPT_experiment_5_30_19,3.1.0,59.95461085352911,
,,,C,G,y,b,L,U,g,L,u,,,,,5,19,119,14,5,0,5,0,,,,,0,34,34,22,,,,,,down,0.617139405618218,2646.926353423154,None,001,26,2019_Oct_14_1557,ACPT_experiment_5_30_19,3.1.0,59.95461085352911,
,,,C,G,y,b,L,G,y,R,y,,,,,5,19,119,14,5,0,5,0,,,,,0,35,35,35,,,,,,down,0.4503378086719749,2648.8278190014444,None,001,26,2019_Oct_14_1557,ACPT_experiment_5_30_19,3.1.0,59.95461085352911,
,,,C,G,y,b,L,G,g,L,c ,,,,,5,19,119,14,5,0,5,0,,,,,1,0,36,18,,,,,,down,0.6171439334812021,2650.562478756783,None,001,26,2019_Oct_14_1557,ACPT_experiment_5_30_19,3.1.0,59.95461085352911,
,,,C,G,y,b,L,U,y,L,u,,,,,5,19,119,14,5,0,5,0,,,,,1,1,37,24,,,,,,down,0.4169656564699835,2652.4639862932563,None,001,26,2019_Oct_14_1557,ACPT_experiment_5_30_19,3.1.0,59.95461085352911,
,,,C,G,y,b,L,G,d,L,i,,,,,5,19,119,14,5,0,5,0,,,,,1,2,38,16,,,,,,up,0.5837856667203596,2654.165244314365,None,001,26,2019_Oct_14_1557,ACPT_experiment_5_30_19,3.1.0,59.95461085352911,
,,,C,G,y,b,L,D,y,L,y,,,,,5,19,119,14,5,0,5,0,,,,,1,3,39,32,,,,,,down,0.4002958806722745,2656.03334981475,None,001,26,2019_Oct_14_1557,ACPT_experiment_5_30_19,3.1.0,59.95461085352911,
,,,C,G,y,b,R,D,d,R,c ,,,,,5,19,119,14,5,0,5,0,,,,,1,4,40,1,,,,,,down,0.5167923299231916,2657.7349211638902,None,001,26,2019_Oct_14_1557,ACPT_experiment_5_30_19,3.1.0,59.95461085352911,
,,,C,G,y,b,R,G,y,L,y,,,,,5,19,119,14,5,0,5,0,,,,,1,5,41,28,,,,,,down,0.5004087149882253,2659.5360381571973,None,001,26,2019_Oct_14_1557,ACPT_experiment_5_30_19,3.1.0,59.95461085352911,
,,,C,G,y,b,L,U,y,R,u,,,,,5,19,119,14,5,0,5,0,,,,,1,6,42,25,,,,,,down,0.40030221967754187,2661.3207437646815,None,001,26,2019_Oct_14_1557,ACPT_experiment_5_30_19,3.1.0,59.95461085352911,
,,,C,G,y,b,L,U,g,R,u,,,,,5,19,119,14,5,0,5,0,,,,,1,7,43,23,,,,,,up,0.5837805351457064,2663.0053709496024,None,001,26,2019_Oct_14_1557,ACPT_experiment_5_30_19,3.1.0,59.95461085352911,
,,,C,G,y,b,R,U,y,R,u,,,,,5,19,119,14,5,0,5,0,,,,,1,8,44,31,,,,,,down,0.4803853029243328,2664.8934657521604,None,001,26,2019_Oct_14_1557,ACPT_experiment_5_30_19,3.1.0,59.95461085352911,
,,,C,G,y,b,R,G,g,L,c ,,,,,5,19,119,14,5,0,5,0,,,,,1,9,45,6,,,,,,up,0.6171581207800045,2666.658178133326,None,001,26,2019_Oct_14_1557,ACPT_experiment_5_30_19,3.1.0,59.95461085352911,
,,,C,G,y,b,R,D,y,L,y,,,,,5,19,119,14,5,0,5,0,,,,,1,10,46,26,,,,,,down,0.6004542350910924,2668.559637976323,None,001,26,2019_Oct_14_1557,ACPT_experiment_5_30_19,3.1.0,59.95461085352911,
,,,C,G,y,b,R,U,g,R,u,,,,,5,19,119,14,5,0,5,0,,,,,1,11,47,11,,,,,,up,0.5170959985171066,2670.4444189877995,None,001,26,2019_Oct_14_1557,ACPT_experiment_5_30_19,3.1.0,59.95461085352911,
,,,C,G,y,b,R,U,d,L,u,,,,,5,19,119,14,5,0,5,0,,,,,1,12,48,8,,,,,,down,0.6002181825642765,2672.262715895995,None,001,26,2019_Oct_14_1557,ACPT_experiment_5_30_19,3.1.0,59.95461085352911,
,,,C,G,y,b,R,G,g,R,c ,,,,,5,19,119,14,5,0,5,0,,,,,1,13,49,7,,,,,,up,0.5337277402759355,2674.1472638735195,None,001,26,2019_Oct_14_1557,ACPT_experiment_5_30_19,3.1.0,59.95461085352911,
,,,C,G,y,b,R,G,d,R,i,,,,,5,19,119,14,5,0,5,0,,,,,1,14,50,5,,,,,,down,0.46706705038923246,2675.9653026935957,None,001,26,2019_Oct_14_1557,ACPT_experiment_5_30_19,3.1.0,59.95461085352911,
,,,C,G,y,b,L,U,g,L,u,,,,,5,19,119,14,5,0,5,0,,,,,1,15,51,22,,,,,,up,0.5337319662812661,2677.716672975488,None,001,26,2019_Oct_14_1557,ACPT_experiment_5_30_19,3.1.0,59.95461085352911,
,,,C,G,y,b,L,D,y,R,y,,,,,5,19,119,14,5,0,5,0,,,,,1,16,52,33,,,,,,down,0.40006163929137983,2679.5516459984865,None,001,26,2019_Oct_14_1557,ACPT_experiment_5_30_19,3.1.0,59.95461085352911,
,,,C,G,y,b,L,G,y,L,y,,,,,5,19,119,14,5,0,5,0,,,,,1,17,53,34,,,,,,down,0.4670214699126518,2681.2360380364535,None,001,26,2019_Oct_14_1557,ACPT_experiment_5_30_19,3.1.0,59.95461085352911,
,,,C,G,y,b,R,U,y,L,u,,,,,5,19,119,14,5,0,5,0,,,,,1,18,54,30,,,,,,down,0.4836867178491957,2682.987393225474,None,001,26,2019_Oct_14_1557,ACPT_experiment_5_30_19,3.1.0,59.95461085352911,
,,,C,G,y,b,L,U,d,L,u,,,,,5,19,119,14,5,0,5,0,,,,,1,19,55,20,,,,,,down,0.58377419613862,2684.755413058716,None,001,26,2019_Oct_14_1557,ACPT_experiment_5_30_19,3.1.0,59.95461085352911,
,,,C,G,y,b,L,D,d,L,c ,,,,,5,19,119,14,5,0,5,0,,,,,1,20,56,12,,,,,,down,0.4500727778304281,2686.6237781565087,None,001,26,2019_Oct_14_1557,ACPT_experiment_5_30_19,3.1.0,59.95461085352911,
,,,C,G,y,b,L,D,g,R,i,,,,,5,19,119,14,5,0,5,0,,,,,1,21,57,15,,,,,,up,0.633838763447784,2688.3414741268934,None,001,26,2019_Oct_14_1557,ACPT_experiment_5_30_19,3.1.0,59.95461085352911,
,,,C,G,y,b,R,D,g,L,i,,,,,5,19,119,14,5,0,5,0,,,,,1,22,58,2,,,,,,up,0.7005664656899171,2690.2596067642626,None,001,26,2019_Oct_14_1557,ACPT_experiment_5_30_19,3.1.0,59.95461085352911,
,,,C,G,y,b,R,G,d,L,i,,,,,5,19,119,14,5,0,5,0,,,,,1,23,59,4,,,,,,up,0.7172235634752724,2692.244486120897,None,001,26,2019_Oct_14_1557,ACPT_experiment_5_30_19,3.1.0,59.95461085352911,
,,,C,G,y,b,L,G,g,R,c ,,,,,5,19,119,14,5,0,5,0,,,,,1,24,60,19,,,,,,up,0.5337054028259445,2694.246065137215,None,001,26,2019_Oct_14_1557,ACPT_experiment_5_30_19,3.1.0,59.95461085352911,
,,,C,G,y,b,L,G,d,R,i,,,,,5,19,119,14,5,0,5,0,,,,,1,25,61,17,,,,,,up,0.550449133697839,2696.0640858458446,None,001,26,2019_Oct_14_1557,ACPT_experiment_5_30_19,3.1.0,59.95461085352911,
,,,C,G,y,b,L,G,y,R,y,,,,,5,19,119,14,5,0,5,0,,,,,1,26,62,35,,,,,,down,0.6004518202316831,2697.8821575683814,None,001,26,2019_Oct_14_1557,ACPT_experiment_5_30_19,3.1.0,59.95461085352911,
