facing_vig,person_vig,text_vig,facing_train,person_train,food_train,correct_key_train,facing_exp,person_exp,food_exp,showL_R,consistent,vig_random.thisRepN,vig_random.thisTrialN,vig_random.thisN,vig_random.thisIndex,trainTrials.thisRepN,trainTrials.thisTrialN,trainTrials.thisN,trainTrials.thisIndex,expBlock.thisRepN,expBlock.thisTrialN,expBlock.thisN,expBlock.thisIndex,breakLoop.thisRepN,breakLoop.thisTrialN,breakLoop.thisN,breakLoop.thisIndex,expTrials.thisRepN,expTrials.thisTrialN,expTrials.thisN,expTrials.thisIndex,train_resp.keys,train_resp.corr,train_resp.rt,train_resp.started,train_resp.stopped,exp_resp.keys,exp_resp.rt,exp_resp.started,exp_resp.stopped,session,participant,date,expName,psychopyVersion,frameRate,
C,U,"did not report her food preferences, so her food preferences are unknown.",,,,,,,,,,0,0,0,2,,,,,,,,,,,,,,,,,,,,,,,,,,001,27,2019_Oct_15_1105,ACPT_experiment_5_30_19,3.1.0,59.95417683905207,
C,G,"cannot eat dairy products because she is lactose intolerant. She enjoys eating wheat products. She thinks eating insects, like crickets, is disgusting.",,,,,,,,,,0,1,1,0,,,,,,,,,,,,,,,,,,,,,,,,,,001,27,2019_Oct_15_1105,ACPT_experiment_5_30_19,3.1.0,59.95417683905207,
C,D,"is allergic to gluten, meaning she can’t eat wheat products. She enjoys eating dairy products. She thinks eating insects, like crickets, is disgusting.",,,,,,,,,,0,2,2,1,,,,,,,,,,,,,,,,,,,,,,,,,,001,27,2019_Oct_15_1105,ACPT_experiment_5_30_19,3.1.0,59.95417683905207,
,,,C,G,d,b,,,,,,,,,,0,0,0,12,,,,,,,,,,,,,v,0,3.035670192965199,745.8977352239269,None,,,,,001,27,2019_Oct_15_1105,ACPT_experiment_5_30_19,3.1.0,59.95417683905207,
,,,C,D,d,v,,,,,,,,,,0,1,1,18,,,,,,,,,,,,,v,1,2.151676425718051,752.2192604975457,None,,,,,001,27,2019_Oct_15_1105,ACPT_experiment_5_30_19,3.1.0,59.95417683905207,
,,,C,G,g,v,,,,,,,,,,0,2,2,19,,,,,,,,,,,,,b,0,0.7339180915846555,757.6567666478911,None,,,,,001,27,2019_Oct_15_1105,ACPT_experiment_5_30_19,3.1.0,59.95417683905207,
,,,C,U,g,n,,,,,,,,,,0,3,3,7,,,,,,,,,,,,,b,0,2.2514994768810084,761.6934456484532,None,,,,,001,27,2019_Oct_15_1105,ACPT_experiment_5_30_19,3.1.0,59.95417683905207,
,,,C,D,y,b,,,,,,,,,,0,4,4,11,,,,,,,,,,,,,v,0,4.069819024384515,767.2307947725535,None,,,,,001,27,2019_Oct_15_1105,ACPT_experiment_5_30_19,3.1.0,59.95417683905207,
,,,C,D,g,b,,,,,,,,,,0,5,5,10,,,,,,,,,,,,,v,0,0.9340912370178103,774.0360013305876,None,,,,,001,27,2019_Oct_15_1105,ACPT_experiment_5_30_19,3.1.0,59.95417683905207,
,,,C,G,y,b,,,,,,,,,,0,6,6,14,,,,,,,,,,,,,b,1,2.668308771192642,778.2729953495841,None,,,,,001,27,2019_Oct_15_1105,ACPT_experiment_5_30_19,3.1.0,59.95417683905207,
,,,C,U,y,n,,,,,,,,,,0,7,7,17,,,,,,,,,,,,,v,0,4.686936998124338,784.2272011596156,None,,,,,001,27,2019_Oct_15_1105,ACPT_experiment_5_30_19,3.1.0,59.95417683905207,
,,,C,G,g,v,,,,,,,,,,0,8,8,4,,,,,,,,,,,,,v,1,2.1683474089463743,791.7830007166096,None,,,,,001,27,2019_Oct_15_1105,ACPT_experiment_5_30_19,3.1.0,59.95417683905207,
,,,C,G,y,b,,,,,,,,,,0,9,9,5,,,,,,,,,,,,,b,1,1.4845195425532438,797.2204869443635,None,,,,,001,27,2019_Oct_15_1105,ACPT_experiment_5_30_19,3.1.0,59.95417683905207,
,,,C,G,g,v,,,,,,,,,,0,10,10,13,,,,,,,,,,,,,v,1,1.918179425275639,801.9741528521606,None,,,,,001,27,2019_Oct_15_1105,ACPT_experiment_5_30_19,3.1.0,59.95417683905207,
,,,C,U,g,n,,,,,,,,,,0,11,11,16,,,,,,,,,,,,,v,0,1.9848736213416487,807.1781680392126,None,,,,,001,27,2019_Oct_15_1105,ACPT_experiment_5_30_19,3.1.0,59.95417683905207,
,,,C,D,y,b,,,,,,,,,,0,12,12,2,,,,,,,,,,,,,v,0,2.401863426407999,812.4488759130434,None,,,,,001,27,2019_Oct_15_1105,ACPT_experiment_5_30_19,3.1.0,59.95417683905207,
,,,C,D,d,v,,,,,,,,,,0,13,13,0,,,,,,,,,,,,,v,1,1.1175372537372823,818.1365904959578,None,,,,,001,27,2019_Oct_15_1105,ACPT_experiment_5_30_19,3.1.0,59.95417683905207,
,,,C,U,y,n,,,,,,,,,,0,14,14,8,,,,,,,,,,,,,v,0,1.4508929245216677,822.5569010348279,None,,,,,001,27,2019_Oct_15_1105,ACPT_experiment_5_30_19,3.1.0,59.95417683905207,
,,,C,G,d,b,,,,,,,,,,0,15,15,3,,,,,,,,,,,,,b,1,2.5186155489186604,827.2936297211261,None,,,,,001,27,2019_Oct_15_1105,ACPT_experiment_5_30_19,3.1.0,59.95417683905207,
,,,C,D,d,v,,,,,,,,,,0,16,16,9,,,,,,,,,,,,,v,1,4.086476424027751,833.0980943135489,None,,,,,001,27,2019_Oct_15_1105,ACPT_experiment_5_30_19,3.1.0,59.95417683905207,
,,,C,D,g,b,,,,,,,,,,0,17,17,1,,,,,,,,,,,,,v,0,3.352596970196373,840.4537397421293,None,,,,,001,27,2019_Oct_15_1105,ACPT_experiment_5_30_19,3.1.0,59.95417683905207,
,,,C,U,d,n,,,,,,,,,,0,18,18,15,,,,,,,,,,,,,b,0,0.23638185208847062,None,None,,,,,001,27,2019_Oct_15_1105,ACPT_experiment_5_30_19,3.1.0,59.95417683905207,
,,,C,U,d,n,,,,,,,,,,0,19,19,6,,,,,,,,,,,,,v,0,2.4014438445528867,850.3283901157381,None,,,,,001,27,2019_Oct_15_1105,ACPT_experiment_5_30_19,3.1.0,59.95417683905207,
,,,C,U,d,n,,,,,,,,,,1,0,20,6,,,,,,,,,,,,,b,0,0.9509155638302218,855.9988785995745,None,,,,,001,27,2019_Oct_15_1105,ACPT_experiment_5_30_19,3.1.0,59.95417683905207,
,,,C,D,y,b,,,,,,,,,,1,1,21,2,,,,,,,,,,,,,b,1,1.5845563087905248,860.2356250954624,None,,,,,001,27,2019_Oct_15_1105,ACPT_experiment_5_30_19,3.1.0,59.95417683905207,
,,,C,G,g,v,,,,,,,,,,1,2,22,13,,,,,,,,,,,,,v,1,4.019765022086631,865.106041616483,None,,,,,001,27,2019_Oct_15_1105,ACPT_experiment_5_30_19,3.1.0,59.95417683905207,
,,,C,U,y,n,,,,,,,,,,1,3,23,17,,,,,,,,,,,,,b,0,2.0182255490940406,872.4116475319231,None,,,,,001,27,2019_Oct_15_1105,ACPT_experiment_5_30_19,3.1.0,59.95417683905207,
,,,C,D,y,b,,,,,,,,,,1,4,24,11,,,,,,,,,,,,,b,1,1.3677127838441265,877.7157435564002,None,,,,,001,27,2019_Oct_15_1105,ACPT_experiment_5_30_19,3.1.0,59.95417683905207,
,,,C,G,y,b,,,,,,,,,,1,5,25,5,,,,,,,,,,,,,b,1,1.5510166257045057,882.4028097495127,None,,,,,001,27,2019_Oct_15_1105,ACPT_experiment_5_30_19,3.1.0,59.95417683905207,
,,,C,G,g,v,,,,,,,,,,1,6,26,4,,,,,,,,,,,,,v,1,4.069811779806059,887.2397158676197,None,,,,,001,27,2019_Oct_15_1105,ACPT_experiment_5_30_19,3.1.0,59.95417683905207,
,,,C,D,g,b,,,,,,,,,,1,7,27,10,,,,,,,,,,,,,b,1,2.9856687138640154,894.5953697482089,None,,,,,001,27,2019_Oct_15_1105,ACPT_experiment_5_30_19,3.1.0,59.95417683905207,
,,,C,D,d,v,,,,,,,,,,1,8,28,0,,,,,,,,,,,,,v,1,4.13653314304247,900.8501685270141,None,,,,,001,27,2019_Oct_15_1105,ACPT_experiment_5_30_19,3.1.0,59.95417683905207,
,,,C,G,d,b,,,,,,,,,,1,9,29,3,,,,,,,,,,,,,b,1,3.169128012310921,908.2558501483024,None,,,,,001,27,2019_Oct_15_1105,ACPT_experiment_5_30_19,3.1.0,59.95417683905207,
,,,C,D,d,v,,,,,,,,,,1,10,30,18,,,,,,,,,,,,,v,1,2.168343484799152,914.7108296189774,None,,,,,001,27,2019_Oct_15_1105,ACPT_experiment_5_30_19,3.1.0,59.95417683905207,
,,,C,G,g,v,,,,,,,,,,1,11,31,19,,,,,,,,,,,,,v,1,2.8688776517419683,920.1650239584258,None,,,,,001,27,2019_Oct_15_1105,ACPT_experiment_5_30_19,3.1.0,59.95417683905207,
,,,C,G,d,b,,,,,,,,,,1,12,32,12,,,,,,,,,,,,,b,1,1.4344438065190843,926.3197533703894,None,,,,,001,27,2019_Oct_15_1105,ACPT_experiment_5_30_19,3.1.0,59.95417683905207,
,,,C,D,g,b,,,,,,,,,,1,13,33,1,,,,,,,,,,,,,b,1,2.3686234877695824,931.0400432018384,None,,,,,001,27,2019_Oct_15_1105,ACPT_experiment_5_30_19,3.1.0,59.95417683905207,
,,,C,U,g,n,,,,,,,,,,1,14,34,7,,,,,,,,,,,,,n,1,2.0849713627835627,936.694388651126,None,,,,,001,27,2019_Oct_15_1105,ACPT_experiment_5_30_19,3.1.0,59.95417683905207,
,,,C,D,d,v,,,,,,,,,,1,15,35,9,,,,,,,,,,,,,v,1,5.20401096104797,942.0651888329646,None,,,,,001,27,2019_Oct_15_1105,ACPT_experiment_5_30_19,3.1.0,59.95417683905207,
,,,C,U,g,n,,,,,,,,,,1,16,36,16,,,,,,,,,,,,,n,1,2.1850497853492925,950.5550195573444,None,,,,,001,27,2019_Oct_15_1105,ACPT_experiment_5_30_19,3.1.0,59.95417683905207,
,,,C,U,y,n,,,,,,,,,,1,17,37,8,,,,,,,,,,,,,n,1,1.384409726812919,956.0092383472459,None,,,,,001,27,2019_Oct_15_1105,ACPT_experiment_5_30_19,3.1.0,59.95417683905207,
,,,C,U,d,n,,,,,,,,,,1,18,38,15,,,,,,,,,,,,,n,1,1.6510002650306888,960.696452450509,None,,,,,001,27,2019_Oct_15_1105,ACPT_experiment_5_30_19,3.1.0,59.95417683905207,
,,,C,G,y,b,,,,,,,,,,1,19,39,14,,,,,,,,,,,,,b,1,2.818702302749898,965.6501194449927,None,,,,,001,27,2019_Oct_15_1105,ACPT_experiment_5_30_19,3.1.0,59.95417683905207,
,,,C,D,d,v,,,,,,,,,,2,0,40,18,,,,,,,,,,,,,v,1,3.2691813807082326,971.7546783376831,None,,,,,001,27,2019_Oct_15_1105,ACPT_experiment_5_30_19,3.1.0,59.95417683905207,
,,,C,D,y,b,,,,,,,,,,2,1,41,11,,,,,,,,,,,,,b,1,2.7187612253237603,978.2930320433759,None,,,,,001,27,2019_Oct_15_1105,ACPT_experiment_5_30_19,3.1.0,59.95417683905207,
,,,C,U,d,n,,,,,,,,,,2,2,42,6,,,,,,,,,,,,,n,1,0.6505290655518365,984.2976447270637,None,,,,,001,27,2019_Oct_15_1105,ACPT_experiment_5_30_19,3.1.0,59.95417683905207,
,,,C,D,g,b,,,,,,,,,,2,3,43,10,,,,,,,,,,,,,b,1,2.251469894850743,988.2509528130397,None,,,,,001,27,2019_Oct_15_1105,ACPT_experiment_5_30_19,3.1.0,59.95417683905207,
,,,C,G,g,v,,,,,,,,,,2,4,44,4,,,,,,,,,,,,,v,1,2.1183060846610715,993.7715932217304,None,,,,,001,27,2019_Oct_15_1105,ACPT_experiment_5_30_19,3.1.0,59.95417683905207,
,,,C,U,d,n,,,,,,,,,,2,5,45,15,,,,,,,,,,,,,n,1,1.7179911869698117,999.175744727607,None,,,,,001,27,2019_Oct_15_1105,ACPT_experiment_5_30_19,3.1.0,59.95417683905207,
,,,C,U,y,n,,,,,,,,,,2,6,46,17,,,,,,,,,,,,,n,1,0.8840236511350668,1004.1629091451339,None,,,,,001,27,2019_Oct_15_1105,ACPT_experiment_5_30_19,3.1.0,59.95417683905207,
,,,C,U,g,n,,,,,,,,,,2,7,47,7,,,,,,,,,,,,,n,1,0.9974643974228456,1008.3527786883812,None,,,,,001,27,2019_Oct_15_1105,ACPT_experiment_5_30_19,3.1.0,59.95417683905207,
,,,C,D,d,v,,,,,,,,,,2,8,48,0,,,,,,,,,,,,,v,1,2.668747068209541,1012.6360860921598,None,,,,,001,27,2019_Oct_15_1105,ACPT_experiment_5_30_19,3.1.0,59.95417683905207,
,,,C,D,g,b,,,,,,,,,,2,9,49,1,,,,,,,,,,,,,v,0,2.7187790349134957,1018.5739798274706,None,,,,,001,27,2019_Oct_15_1105,ACPT_experiment_5_30_19,3.1.0,59.95417683905207,
,,,C,G,y,b,,,,,,,,,,2,10,50,5,,,,,,,,,,,,,b,1,2.4518869411035666,1024.5786006613096,None,,,,,001,27,2019_Oct_15_1105,ACPT_experiment_5_30_19,3.1.0,59.95417683905207,
,,,C,G,d,b,,,,,,,,,,2,11,51,3,,,,,,,,,,,,,b,1,3.2691840974248407,1030.3163429849235,None,,,,,001,27,2019_Oct_15_1105,ACPT_experiment_5_30_19,3.1.0,59.95417683905207,
,,,C,G,g,v,,,,,,,,,,2,12,52,13,,,,,,,,,,,,,v,1,1.1008587240726229,1036.8713872945784,None,,,,,001,27,2019_Oct_15_1105,ACPT_experiment_5_30_19,3.1.0,59.95417683905207,
,,,C,G,g,v,,,,,,,,,,2,13,53,19,,,,,,,,,,,,,v,1,0.8339859491393327,1041.2580736302764,None,,,,,001,27,2019_Oct_15_1105,ACPT_experiment_5_30_19,3.1.0,59.95417683905207,
,,,C,G,y,b,,,,,,,,,,2,14,54,14,,,,,,,,,,,,,b,1,0.8172986656086323,1045.3612309988282,None,,,,,001,27,2019_Oct_15_1105,ACPT_experiment_5_30_19,3.1.0,59.95417683905207,
,,,C,U,y,n,,,,,,,,,,2,15,55,8,,,,,,,,,,,,,n,1,0.9838554561638375,1049.481340078036,None,,,,,001,27,2019_Oct_15_1105,ACPT_experiment_5_30_19,3.1.0,59.95417683905207,
,,,C,D,y,b,,,,,,,,,,2,16,56,2,,,,,,,,,,,,,b,1,1.484480301084659,1053.751014090102,None,,,,,001,27,2019_Oct_15_1105,ACPT_experiment_5_30_19,3.1.0,59.95417683905207,
,,,C,D,d,v,,,,,,,,,,2,17,57,9,,,,,,,,,,,,,v,1,1.3176913821507696,1058.5213422272611,None,,,,,001,27,2019_Oct_15_1105,ACPT_experiment_5_30_19,3.1.0,59.95417683905207,
,,,C,G,d,b,,,,,,,,,,2,18,58,12,,,,,,,,,,,,,b,1,2.4514462292272583,1063.1419804625787,None,,,,,001,27,2019_Oct_15_1105,ACPT_experiment_5_30_19,3.1.0,59.95417683905207,
,,,C,U,g,n,,,,,,,,,,2,19,59,16,,,,,,,,,,,,,n,1,1.2176075261513688,1068.8793001857632,None,,,,,001,27,2019_Oct_15_1105,ACPT_experiment_5_30_19,3.1.0,59.95417683905207,
,,,C,G,g,v,,,,,,,,,,3,0,60,13,,,,,,,,,,,,,v,1,1.7677602358353397,1073.3997078623604,None,,,,,001,27,2019_Oct_15_1105,ACPT_experiment_5_30_19,3.1.0,59.95417683905207,
,,,C,U,d,n,,,,,,,,,,3,1,61,6,,,,,,,,,,,,,n,1,0.7172253746202841,1078.4533216695615,None,,,,,001,27,2019_Oct_15_1105,ACPT_experiment_5_30_19,3.1.0,59.95417683905207,
,,,C,D,g,b,,,,,,,,,,3,2,62,1,,,,,,,,,,,,,b,1,2.218103176083787,1082.4733568540657,None,,,,,001,27,2019_Oct_15_1105,ACPT_experiment_5_30_19,3.1.0,59.95417683905207,
,,,C,U,g,n,,,,,,,,,,3,3,63,7,,,,,,,,,,,,,n,1,1.4010677301707801,1087.9773238646687,None,,,,,001,27,2019_Oct_15_1105,ACPT_experiment_5_30_19,3.1.0,59.95417683905207,
,,,C,U,y,n,,,,,,,,,,3,4,64,17,,,,,,,,,,,,,n,1,1.3977756728249915,1092.6842296386587,None,,,,,001,27,2019_Oct_15_1105,ACPT_experiment_5_30_19,3.1.0,59.95417683905207,
,,,C,G,g,v,,,,,,,,,,3,5,65,4,,,,,,,,,,,,,v,1,2.5853239322846093,1097.3678549587028,None,,,,,001,27,2019_Oct_15_1105,ACPT_experiment_5_30_19,3.1.0,59.95417683905207,
,,,C,D,d,v,,,,,,,,,,3,6,66,18,,,,,,,,,,,,,v,1,1.9348286747672319,1103.239030651209,None,,,,,001,27,2019_Oct_15_1105,ACPT_experiment_5_30_19,3.1.0,59.95417683905207,
,,,C,G,d,b,,,,,,,,,,3,7,67,12,,,,,,,,,,,,,b,1,2.3851495794219773,1108.4597325180769,None,,,,,001,27,2019_Oct_15_1105,ACPT_experiment_5_30_19,3.1.0,59.95417683905207,
,,,C,G,y,b,,,,,,,,,,3,8,68,14,,,,,,,,,,,,,b,1,1.0508216257921958,1114.1140498946218,None,,,,,001,27,2019_Oct_15_1105,ACPT_experiment_5_30_19,3.1.0,59.95417683905207,
,,,C,G,g,v,,,,,,,,,,3,9,69,19,,,,,,,,,,,,,v,1,1.7513491518711817,1118.4507193564884,None,,,,,001,27,2019_Oct_15_1105,ACPT_experiment_5_30_19,3.1.0,59.95417683905207,
,,,C,U,d,n,,,,,,,,,,3,10,70,15,,,,,,,,,,,,,n,1,1.2342836409561642,1123.487916344434,None,,,,,001,27,2019_Oct_15_1105,ACPT_experiment_5_30_19,3.1.0,59.95417683905207,
,,,C,G,y,b,,,,,,,,,,3,11,71,5,,,,,,,,,,,,,b,1,6.221209892955358,1128.0416533094747,None,,,,,001,27,2019_Oct_15_1105,ACPT_experiment_5_30_19,3.1.0,59.95417683905207,
,,,C,U,g,n,,,,,,,,,,3,12,72,16,,,,,,,,,,,,,n,1,1.1008475553467179,1137.5487294518086,None,,,,,001,27,2019_Oct_15_1105,ACPT_experiment_5_30_19,3.1.0,59.95417683905207,
,,,C,D,y,b,,,,,,,,,,3,13,73,2,,,,,,,,,,,,,b,1,9.206861099086836,1141.9523738371697,None,,,,,001,27,2019_Oct_15_1105,ACPT_experiment_5_30_19,3.1.0,59.95417683905207,
,,,C,D,y,b,,,,,,,,,,3,14,74,11,,,,,,,,,,,,,b,1,1.0174579255990466,1154.4450257212732,None,,,,,001,27,2019_Oct_15_1105,ACPT_experiment_5_30_19,3.1.0,59.95417683905207,
,,,C,G,d,b,,,,,,,,,,3,15,75,3,,,,,,,,,,,,,b,1,2.234803741342148,1158.7652581394352,None,,,,,001,27,2019_Oct_15_1105,ACPT_experiment_5_30_19,3.1.0,59.95417683905207,
,,,C,D,g,b,,,,,,,,,,3,16,76,10,,,,,,,,,,,,,b,1,2.435204487291685,1164.2859302431582,None,,,,,001,27,2019_Oct_15_1105,ACPT_experiment_5_30_19,3.1.0,59.95417683905207,
,,,C,D,d,v,,,,,,,,,,3,17,77,0,,,,,,,,,,,,,v,1,1.1342185001185499,1169.9903016220007,None,,,,,001,27,2019_Oct_15_1105,ACPT_experiment_5_30_19,3.1.0,59.95417683905207,
,,,C,U,y,n,,,,,,,,,,3,18,78,8,,,,,,,,,,,,,n,1,0.9836815862727235,1174.4274298468197,None,,,,,001,27,2019_Oct_15_1105,ACPT_experiment_5_30_19,3.1.0,59.95417683905207,
,,,C,D,d,v,,,,,,,,,,3,19,79,9,,,,,,,,,,,,,v,1,2.0015479250014323,1178.6969909641991,None,,,,,001,27,2019_Oct_15_1105,ACPT_experiment_5_30_19,3.1.0,59.95417683905207,
,,,C,G,g,v,,,,,,,,,,4,0,80,13,,,,,,,,,,,,,v,1,1.5345252476590758,1183.984385819703,None,,,,,001,27,2019_Oct_15_1105,ACPT_experiment_5_30_19,3.1.0,59.95417683905207,
,,,C,G,g,v,,,,,,,,,,4,1,81,19,,,,,,,,,,,,,v,1,1.117580117494981,1188.788070110619,None,,,,,001,27,2019_Oct_15_1105,ACPT_experiment_5_30_19,3.1.0,59.95417683905207,
,,,C,D,d,v,,,,,,,,,,4,2,82,0,,,,,,,,,,,,,v,1,2.785083533012312,1193.2085083351897,None,,,,,001,27,2019_Oct_15_1105,ACPT_experiment_5_30_19,3.1.0,59.95417683905207,
,,,C,U,d,n,,,,,,,,,,4,3,83,15,,,,,,,,,,,,,n,1,1.1842477501054418,1199.2794671733043,None,,,,,001,27,2019_Oct_15_1105,ACPT_experiment_5_30_19,3.1.0,59.95417683905207,
,,,C,D,d,v,,,,,,,,,,4,4,84,9,,,,,,,,,,,,,v,1,3.452655470170157,1203.749568494776,None,,,,,001,27,2019_Oct_15_1105,ACPT_experiment_5_30_19,3.1.0,59.95417683905207,
,,,C,U,d,n,,,,,,,,,,4,5,85,6,,,,,,,,,,,,,n,1,1.1508940112084929,1210.4880766307394,None,,,,,001,27,2019_Oct_15_1105,ACPT_experiment_5_30_19,3.1.0,59.95417683905207,
,,,C,D,g,b,,,,,,,,,,4,6,86,10,,,,,,,,,,,,,b,1,4.269658919193716,1214.9417919224154,None,,,,,001,27,2019_Oct_15_1105,ACPT_experiment_5_30_19,3.1.0,59.95417683905207,
,,,C,G,y,b,,,,,,,,,,4,7,87,5,,,,,,,,,,,,,b,1,1.7513506611580851,1222.497301998115,None,,,,,001,27,2019_Oct_15_1105,ACPT_experiment_5_30_19,3.1.0,59.95417683905207,
,,,C,G,d,b,,,,,,,,,,4,8,88,12,,,,,,,,,,,,,b,1,1.6846564650923028,1227.53450381578,None,,,,,001,27,2019_Oct_15_1105,ACPT_experiment_5_30_19,3.1.0,59.95417683905207,
,,,C,U,g,n,,,,,,,,,,4,9,89,16,,,,,,,,,,,,,n,1,0.7505510407740985,1232.5050063058022,None,,,,,001,27,2019_Oct_15_1105,ACPT_experiment_5_30_19,3.1.0,59.95417683905207,
,,,C,D,g,b,,,,,,,,,,4,10,90,1,,,,,,,,,,,,,b,1,1.3477174445233686,1236.5614222557085,None,,,,,001,27,2019_Oct_15_1105,ACPT_experiment_5_30_19,3.1.0,59.95417683905207,
,,,C,G,g,v,,,,,,,,,,4,11,91,4,,,,,,,,,,,,,v,1,2.7521300570933818,1241.1949881400208,None,,,,,001,27,2019_Oct_15_1105,ACPT_experiment_5_30_19,3.1.0,59.95417683905207,
,,,C,U,g,n,,,,,,,,,,4,12,92,7,,,,,,,,,,,,,n,1,1.9514990542807027,1247.2329744851975,None,,,,,001,27,2019_Oct_15_1105,ACPT_experiment_5_30_19,3.1.0,59.95417683905207,
,,,C,G,d,b,,,,,,,,,,4,13,93,3,,,,,,,,,,,,,b,1,3.2858617215169943,1252.4703186588351,None,,,,,001,27,2019_Oct_15_1105,ACPT_experiment_5_30_19,3.1.0,59.95417683905207,
,,,C,G,y,b,,,,,,,,,,4,14,94,14,,,,,,,,,,,,,b,1,0.8506518007907289,1259.0420366684355,None,,,,,001,27,2019_Oct_15_1105,ACPT_experiment_5_30_19,3.1.0,59.95417683905207,
,,,C,U,y,n,,,,,,,,,,4,15,95,8,,,,,,,,,,,,,n,1,1.7180150337080704,1263.195229927838,None,,,,,001,27,2019_Oct_15_1105,ACPT_experiment_5_30_19,3.1.0,59.95417683905207,
,,,C,D,d,v,,,,,,,,,,4,16,96,18,,,,,,,,,,,,,b,0,1.5678696289751315,1268.199075289889,None,,,,,001,27,2019_Oct_15_1105,ACPT_experiment_5_30_19,3.1.0,59.95417683905207,
,,,C,U,y,n,,,,,,,,,,4,17,97,17,,,,,,,,,,,,,n,1,0.7672657933326263,1273.0527960753705,None,,,,,001,27,2019_Oct_15_1105,ACPT_experiment_5_30_19,3.1.0,59.95417683905207,
,,,C,D,y,b,,,,,,,,,,4,18,98,11,,,,,,,,,,,,,n,0,2.1349646917342398,1277.1226030254568,None,,,,,001,27,2019_Oct_15_1105,ACPT_experiment_5_30_19,3.1.0,59.95417683905207,
,,,C,D,y,b,,,,,,,,,,4,19,99,2,,,,,,,,,,,,,b,1,1.0508107589239444,1282.543425212704,None,,,,,001,27,2019_Oct_15_1105,ACPT_experiment_5_30_19,3.1.0,59.95417683905207,
,,,C,D,d,v,,,,,,,,,,5,0,100,18,,,,,,,,,,,,,v,1,2.218390846232978,1286.8633886758782,None,,,,,001,27,2019_Oct_15_1105,ACPT_experiment_5_30_19,3.1.0,59.95417683905207,
,,,C,G,g,v,,,,,,,,,,5,1,101,4,,,,,,,,,,,,,v,1,2.702074545508367,1292.367635508337,None,,,,,001,27,2019_Oct_15_1105,ACPT_experiment_5_30_19,3.1.0,59.95417683905207,
,,,C,U,d,n,,,,,,,,,,5,2,102,6,,,,,,,,,,,,,n,1,2.4685905249361895,1298.3555645307836,None,,,,,001,27,2019_Oct_15_1105,ACPT_experiment_5_30_19,3.1.0,59.95417683905207,
,,,C,D,y,b,,,,,,,,,,5,3,103,2,,,,,,,,,,,,,b,1,1.3510514600543502,1304.109971196762,None,,,,,001,27,2019_Oct_15_1105,ACPT_experiment_5_30_19,3.1.0,59.95417683905207,
,,,C,D,y,b,,,,,,,,,,5,4,104,11,,,,,,,,,,,,,b,1,1.9510936597257569,1308.763935400091,None,,,,,001,27,2019_Oct_15_1105,ACPT_experiment_5_30_19,3.1.0,59.95417683905207,
,,,C,D,g,b,,,,,,,,,,5,5,105,1,,,,,,,,,,,,,b,1,1.167575559447414,1314.0009055723488,None,,,,,001,27,2019_Oct_15_1105,ACPT_experiment_5_30_19,3.1.0,59.95417683905207,
,,,C,U,g,n,,,,,,,,,,5,6,106,7,,,,,,,,,,,,,n,1,0.9004425833927598,1318.4712673967995,None,,,,,001,27,2019_Oct_15_1105,ACPT_experiment_5_30_19,3.1.0,59.95417683905207,
,,,C,D,d,v,,,,,,,,,,5,7,107,9,,,,,,,,,,,,,v,1,1.8348088125471804,1322.6575282342367,None,,,,,001,27,2019_Oct_15_1105,ACPT_experiment_5_30_19,3.1.0,59.95417683905207,
,,,C,D,d,v,,,,,,,,,,5,8,108,0,,,,,,,,,,,,,v,1,1.4010825211857991,1327.7614716395872,None,,,,,001,27,2019_Oct_15_1105,ACPT_experiment_5_30_19,3.1.0,59.95417683905207,
,,,C,G,g,v,,,,,,,,,,5,9,109,19,,,,,,,,,,,,,v,1,1.300737256634875,1332.465357329793,None,,,,,001,27,2019_Oct_15_1105,ACPT_experiment_5_30_19,3.1.0,59.95417683905207,
,,,C,G,d,b,,,,,,,,,,5,10,110,3,,,,,,,,,,,,,b,1,1.4844643026399353,1337.0519388002133,None,,,,,001,27,2019_Oct_15_1105,ACPT_experiment_5_30_19,3.1.0,59.95417683905207,
,,,C,U,g,n,,,,,,,,,,5,11,111,16,,,,,,,,,,,,,n,1,1.0174709054695086,1341.8222741819511,None,,,,,001,27,2019_Oct_15_1105,ACPT_experiment_5_30_19,3.1.0,59.95417683905207,
,,,C,U,y,n,,,,,,,,,,5,12,112,17,,,,,,,,,,,,,n,1,0.5166936225368772,1346.1425066001132,None,,,,,001,27,2019_Oct_15_1105,ACPT_experiment_5_30_19,3.1.0,59.95417683905207,
,,,C,U,y,n,,,,,,,,,,5,13,113,8,,,,,,,,,,,,,n,1,0.5338985915936973,1349.9450248157011,None,,,,,001,27,2019_Oct_15_1105,ACPT_experiment_5_30_19,3.1.0,59.95417683905207,
,,,C,G,g,v,,,,,,,,,,5,14,114,13,,,,,,,,,,,,,v,1,0.7669802361851907,1353.7984072189813,None,,,,,001,27,2019_Oct_15_1105,ACPT_experiment_5_30_19,3.1.0,59.95417683905207,
,,,C,U,d,n,,,,,,,,,,5,15,115,15,,,,,,,,,,,,,n,1,0.6672133305078205,1357.8512383098157,None,,,,,001,27,2019_Oct_15_1105,ACPT_experiment_5_30_19,3.1.0,59.95417683905207,
,,,C,D,g,b,,,,,,,,,,5,16,116,10,,,,,,,,,,,,,b,1,2.1683637092487515,1361.8042801575214,None,,,,,001,27,2019_Oct_15_1105,ACPT_experiment_5_30_19,3.1.0,59.95417683905207,
,,,C,G,y,b,,,,,,,,,,5,17,117,14,,,,,,,,,,,,,b,1,1.4678044881375172,1367.258471478395,None,,,,,001,27,2019_Oct_15_1105,ACPT_experiment_5_30_19,3.1.0,59.95417683905207,
,,,C,G,d,b,,,,,,,,,,5,18,118,12,,,,,,,,,,,,,b,1,2.1349797846064575,1372.0121186710305,None,,,,,001,27,2019_Oct_15_1105,ACPT_experiment_5_30_19,3.1.0,59.95417683905207,
,,,C,G,y,b,,,,,,,,,,5,19,119,5,,,,,,,,,,,,,n,0,0.8673324434575989,1377.4329595734391,None,,,,,001,27,2019_Oct_15_1105,ACPT_experiment_5_30_19,3.1.0,59.95417683905207,
,,,C,U,d,n,,,,,,,,,,6,0,120,15,0,0,0,0,0,0,0,0,,,,,n,1,0.4501192638781504,1381.603055642591,None,,,,,001,27,2019_Oct_15_1105,ACPT_experiment_5_30_19,3.1.0,59.95417683905207,
,,,C,U,d,n,L,U,y,L,u,,,,,6,0,120,15,0,0,0,0,,,,,0,0,0,24,,,,,,down,1.3813005950819388,1429.692849178133,None,001,27,2019_Oct_15_1105,ACPT_experiment_5_30_19,3.1.0,59.95417683905207,
,,,C,U,d,n,R,D,y,L,y,,,,,6,0,120,15,0,0,0,0,,,,,0,1,1,26,,,,,,down,0.8005959873485153,1432.3584768514577,None,001,27,2019_Oct_15_1105,ACPT_experiment_5_30_19,3.1.0,59.95417683905207,
,,,C,U,d,n,L,G,g,L,c ,,,,,6,0,120,15,0,0,0,0,,,,,0,2,2,18,,,,,,up,0.6670488181980545,1434.4434098783456,None,001,27,2019_Oct_15_1105,ACPT_experiment_5_30_19,3.1.0,59.95417683905207,
,,,C,U,d,n,R,U,d,L,u,,,,,6,0,120,15,0,0,0,0,,,,,0,3,3,8,,,,,,up,0.6171381981889681,1436.3948989713301,None,001,27,2019_Oct_15_1105,ACPT_experiment_5_30_19,3.1.0,59.95417683905207,
,,,C,U,d,n,R,G,g,L,c ,,,,,6,0,120,15,0,0,0,0,,,,,0,4,4,6,,,,,,up,0.6338067665569724,1438.2963630403326,None,001,27,2019_Oct_15_1105,ACPT_experiment_5_30_19,3.1.0,59.95417683905207,
,,,C,U,d,n,R,U,g,R,u,,,,,6,0,120,15,0,0,0,0,,,,,0,5,5,11,,,,,,up,0.767276358343679,1440.2145098650033,None,001,27,2019_Oct_15_1105,ACPT_experiment_5_30_19,3.1.0,59.95417683905207,
,,,C,U,d,n,R,D,g,R,i,,,,,6,0,120,15,0,0,0,0,,,,,0,6,6,3,,,,,,up,0.4503519959721416,1442.2660701359748,None,001,27,2019_Oct_15_1105,ACPT_experiment_5_30_19,3.1.0,59.95417683905207,
,,,C,U,d,n,L,G,d,L,i,,,,,6,0,120,15,0,0,0,0,,,,,0,7,7,16,,,,,,up,0.6835912101528265,1444.0176800926822,None,001,27,2019_Oct_15_1105,ACPT_experiment_5_30_19,3.1.0,59.95417683905207,
,,,C,U,d,n,L,D,y,R,y,,,,,6,0,120,15,0,0,0,0,,,,,0,8,8,33,,,,,,down,0.6338194445702356,1445.9855953625035,None,001,27,2019_Oct_15_1105,ACPT_experiment_5_30_19,3.1.0,59.95417683905207,
,,,C,U,d,n,L,D,d,R,c ,,,,,6,0,120,15,0,0,0,0,,,,,0,9,9,13,,,,,,up,0.7339008857102272,1447.9037488280385,None,001,27,2019_Oct_15_1105,ACPT_experiment_5_30_19,3.1.0,59.95417683905207,
,,,C,U,d,n,R,D,d,L,c,,,,,6,0,120,15,0,0,0,0,,,,,0,10,10,0,,,,,,up,0.9507429013692672,1449.9219342300914,None,001,27,2019_Oct_15_1105,ACPT_experiment_5_30_19,3.1.0,59.95417683905207,
,,,C,U,d,n,L,D,d,L,c ,,,,,6,0,120,15,0,0,0,0,,,,,0,11,11,12,,,,,,up,0.7172199411861584,1452.156995455838,None,001,27,2019_Oct_15_1105,ACPT_experiment_5_30_19,3.1.0,59.95417683905207,
,,,C,U,d,n,R,G,y,R,y,,,,,6,0,120,15,0,0,0,0,,,,,0,12,12,29,,,,,,down,0.8506723270975272,1454.158539456693,None,001,27,2019_Oct_15_1105,ACPT_experiment_5_30_19,3.1.0,59.95417683905207,
,,,C,U,d,n,R,D,y,R,y,,,,,6,0,120,15,0,0,0,0,,,,,0,13,13,27,,,,,,down,0.633821859429645,1456.2935083744312,None,001,27,2019_Oct_15_1105,ACPT_experiment_5_30_19,3.1.0,59.95417683905207,
,,,C,U,d,n,R,U,g,L,u,,,,,6,0,120,15,0,0,0,0,,,,,0,14,14,10,,,,,,up,0.5337588315942412,1458.2116292393614,None,001,27,2019_Oct_15_1105,ACPT_experiment_5_30_19,3.1.0,59.95417683905207,
,,,C,U,d,n,L,G,d,R,i,,,,,6,0,120,15,0,0,0,0,,,,,0,15,15,17,,,,,,up,0.6004651019584344,1460.0297365810782,None,001,27,2019_Oct_15_1105,ACPT_experiment_5_30_19,3.1.0,59.95417683905207,
,,,C,U,d,n,L,D,g,R,i,,,,,6,0,120,15,0,0,0,0,,,,,0,16,16,15,,,,,,up,0.4670196587680948,1461.9144946513877,None,001,27,2019_Oct_15_1105,ACPT_experiment_5_30_19,3.1.0,59.95417683905207,
,,,C,U,d,n,R,G,y,L,y,,,,,6,0,120,15,0,0,0,0,,,,,0,17,17,28,,,,,,down,0.8839940691050288,1463.6825347090787,None,001,27,2019_Oct_15_1105,ACPT_experiment_5_30_19,3.1.0,59.95417683905207,
,,,C,U,d,n,R,D,g,L,i,,,,,6,0,120,15,0,0,0,0,,,,,0,18,18,2,,,,,,up,0.7672401354493559,1465.8675334805191,None,001,27,2019_Oct_15_1105,ACPT_experiment_5_30_19,3.1.0,59.95417683905207,
,,,C,U,d,n,R,U,d,R,u,,,,,6,0,120,15,0,0,0,0,,,,,0,19,19,9,,,,,,up,0.7005365818022256,1467.9191037127864,None,001,27,2019_Oct_15_1105,ACPT_experiment_5_30_19,3.1.0,59.95417683905207,
,,,C,U,d,n,L,U,g,L,u,,,,,6,0,120,15,0,0,0,0,,,,,0,20,20,22,,,,,,up,0.6171400093335251,1469.9039610338257,None,001,27,2019_Oct_15_1105,ACPT_experiment_5_30_19,3.1.0,59.95417683905207,
,,,C,U,d,n,L,G,y,L,y,,,,,6,0,120,15,0,0,0,0,,,,,0,21,21,34,,,,,,down,0.6171979659638964,1471.805421178681,None,001,27,2019_Oct_15_1105,ACPT_experiment_5_30_19,3.1.0,59.95417683905207,
,,,C,U,d,n,L,G,g,R,c ,,,,,6,0,120,15,0,0,0,0,,,,,0,22,22,19,,,,,,up,0.7672519078901132,1473.7068822291087,None,001,27,2019_Oct_15_1105,ACPT_experiment_5_30_19,3.1.0,59.95417683905207,
,,,C,U,d,n,R,G,g,R,c ,,,,,6,0,120,15,0,0,0,0,,,,,0,23,23,7,,,,,,up,0.6004430663647327,1475.7584717802526,None,001,27,2019_Oct_15_1105,ACPT_experiment_5_30_19,3.1.0,59.95417683905207,
,,,C,U,d,n,R,D,d,R,c ,,,,,6,0,120,15,0,0,0,0,,,,,0,24,24,1,,,,,,up,0.5670983831914782,1477.643240717431,None,001,27,2019_Oct_15_1105,ACPT_experiment_5_30_19,3.1.0,59.95417683905207,
,,,C,U,d,n,R,G,d,R,i,,,,,6,0,120,15,0,0,0,0,,,,,0,25,25,5,,,,,,up,0.5337446442940745,1479.4946589342865,None,001,27,2019_Oct_15_1105,ACPT_experiment_5_30_19,3.1.0,59.95417683905207,
,,,C,U,d,n,L,U,d,L,u,,,,,6,0,120,15,0,0,0,0,,,,,0,26,26,20,,,,,,up,0.6838435629806554,1481.3294140162072,None,001,27,2019_Oct_15_1105,ACPT_experiment_5_30_19,3.1.0,59.95417683905207,
,,,C,U,d,n,L,G,y,R,y,,,,,6,0,120,15,0,0,0,0,,,,,0,27,27,35,,,,,,down,0.8673650440623533,1483.29756111255,None,001,27,2019_Oct_15_1105,ACPT_experiment_5_30_19,3.1.0,59.95417683905207,
,,,C,U,d,n,L,U,g,R,u,,,,,6,0,120,15,0,0,0,0,,,,,0,28,28,23,,,,,,up,0.6671789187589638,1485.4492345196934,None,001,27,2019_Oct_15_1105,ACPT_experiment_5_30_19,3.1.0,59.95417683905207,
,,,C,U,d,n,L,D,y,L,y,,,,,6,0,120,15,0,0,0,0,,,,,0,29,29,32,,,,,,down,0.8006017226402946,1487.4007417241253,None,001,27,2019_Oct_15_1105,ACPT_experiment_5_30_19,3.1.0,59.95417683905207,
,,,C,U,d,n,L,U,y,R,u,,,,,6,0,120,15,0,0,0,0,,,,,0,30,30,25,,,,,,down,0.40029889924653617,1489.4856662990044,None,001,27,2019_Oct_15_1105,ACPT_experiment_5_30_19,3.1.0,59.95417683905207,
,,,C,U,d,n,R,U,y,R,u,,,,,6,0,120,15,0,0,0,0,,,,,0,31,31,31,,,,,,down,0.3836306327357306,1491.1702865412028,None,001,27,2019_Oct_15_1105,ACPT_experiment_5_30_19,3.1.0,59.95417683905207,
,,,C,U,d,n,R,G,d,L,i,,,,,6,0,120,15,0,0,0,0,,,,,0,32,32,4,,,,,,up,0.5337473610115921,1492.838253307905,None,001,27,2019_Oct_15_1105,ACPT_experiment_5_30_19,3.1.0,59.95417683905207,
,,,C,U,d,n,R,U,y,L,u,,,,,6,0,120,15,0,0,0,0,,,,,0,33,33,30,,,,,,down,0.7002606840933367,1494.6732592333667,None,001,27,2019_Oct_15_1105,ACPT_experiment_5_30_19,3.1.0,59.95417683905207,
,,,C,U,d,n,L,U,d,R,u,,,,,6,0,120,15,0,0,0,0,,,,,0,34,34,21,,,,,,up,0.5837802332875981,1496.65785091985,None,001,27,2019_Oct_15_1105,ACPT_experiment_5_30_19,3.1.0,59.95417683905207,
,,,C,U,d,n,L,D,g,L,i,,,,,6,0,120,15,0,0,0,0,,,,,0,35,35,14,,,,,,up,0.7338879058397652,1498.5259494775148,None,001,27,2019_Oct_15_1105,ACPT_experiment_5_30_19,3.1.0,59.95417683905207,
,,,C,U,d,n,L,D,d,L,c ,,,,,6,0,120,15,0,0,0,0,,,,,1,0,36,12,,,,,,up,0.6671943134888352,1500.5274536331865,None,001,27,2019_Oct_15_1105,ACPT_experiment_5_30_19,3.1.0,59.95417683905207,
,,,C,U,d,n,L,G,g,L,c ,,,,,6,0,120,15,0,0,0,0,,,,,1,1,37,18,,,,,,up,0.46702328105766355,1502.4789744212037,None,001,27,2019_Oct_15_1105,ACPT_experiment_5_30_19,3.1.0,59.95417683905207,
,,,C,U,d,n,L,D,g,L,i,,,,,6,0,120,15,0,0,0,0,,,,,1,2,38,14,,,,,,up,0.3836258030164572,1504.2136387044036,None,001,27,2019_Oct_15_1105,ACPT_experiment_5_30_19,3.1.0,59.95417683905207,
,,,C,U,d,n,R,D,d,L,c,,,,,6,0,120,15,0,0,0,0,,,,,1,3,39,0,,,,,,up,0.5003854719634546,1505.8815849447994,None,001,27,2019_Oct_15_1105,ACPT_experiment_5_30_19,3.1.0,59.95417683905207,
,,,C,U,d,n,R,G,g,L,c ,,,,,6,0,120,15,0,0,0,0,,,,,1,4,40,6,,,,,,up,0.4803780583442858,1507.6862928343269,None,001,27,2019_Oct_15_1105,ACPT_experiment_5_30_19,3.1.0,59.95417683905207,
,,,C,U,d,n,L,D,g,R,i,,,,,6,0,120,15,0,0,0,0,,,,,1,5,41,15,,,,,,up,0.6838477889846217,1509.450999178344,None,001,27,2019_Oct_15_1105,ACPT_experiment_5_30_19,3.1.0,59.95417683905207,
,,,C,U,d,n,L,U,d,L,u,,,,,6,0,120,15,0,0,0,0,,,,,1,6,42,20,,,,,,up,0.5837747998534724,1511.4191746492868,None,001,27,2019_Oct_15_1105,ACPT_experiment_5_30_19,3.1.0,59.95417683905207,
,,,C,U,d,n,R,D,y,R,y,,,,,6,0,120,15,0,0,0,0,,,,,1,7,43,27,,,,,,up,0.6004391422179651,1513.2872910165413,None,001,27,2019_Oct_15_1105,ACPT_experiment_5_30_19,3.1.0,59.95417683905207,
,,,C,U,d,n,R,U,g,R,u,,,,,6,0,120,15,0,0,0,0,,,,,1,8,44,11,,,,,,up,0.78393888956316,1515.1720557277151,None,001,27,2019_Oct_15_1105,ACPT_experiment_5_30_19,3.1.0,59.95417683905207,
,,,C,U,d,n,L,G,g,R,c ,,,,,6,0,120,15,0,0,0,0,,,,,1,9,45,19,,,,,,up,0.43365505300334917,1517.2403186769468,None,001,27,2019_Oct_15_1105,ACPT_experiment_5_30_19,3.1.0,59.95417683905207,
,,,C,U,d,n,R,G,g,R,c ,,,,,6,0,120,15,0,0,0,0,,,,,1,10,46,7,,,,,,up,0.5337440405792222,1518.9582953747592,None,001,27,2019_Oct_15_1105,ACPT_experiment_5_30_19,3.1.0,59.95417683905207,
,,,C,U,d,n,L,U,y,R,u,,,,,6,0,120,15,0,0,0,0,,,,,1,11,47,25,,,,,,down,0.6669141897750706,1520.7933003946484,None,001,27,2019_Oct_15_1105,ACPT_experiment_5_30_19,3.1.0,59.95417683905207,
,,,C,U,d,n,R,U,d,L,u,,,,,6,0,120,15,0,0,0,0,,,,,1,12,48,8,,,,,,up,0.5504017420798846,1522.7445504165332,None,001,27,2019_Oct_15_1105,ACPT_experiment_5_30_19,3.1.0,59.95417683905207,
,,,C,U,d,n,L,U,g,R,u,,,,,6,0,120,15,0,0,0,0,,,,,1,13,49,23,,,,,,up,0.6505109541049023,1524.5792593142644,None,001,27,2019_Oct_15_1105,ACPT_experiment_5_30_19,3.1.0,59.95417683905207,
,,,C,U,d,n,R,D,g,L,i,,,,,6,0,120,15,0,0,0,0,,,,,1,14,50,2,,,,,,up,0.517048606897788,1526.5141145524874,None,001,27,2019_Oct_15_1105,ACPT_experiment_5_30_19,3.1.0,59.95417683905207,
,,,C,U,d,n,L,G,d,L,i,,,,,6,0,120,15,0,0,0,0,,,,,1,15,51,16,,,,,,up,0.4836824918452294,1528.315504123071,None,001,27,2019_Oct_15_1105,ACPT_experiment_5_30_19,3.1.0,59.95417683905207,
,,,C,U,d,n,R,U,y,L,u,,,,,6,0,120,15,0,0,0,0,,,,,1,16,52,30,,,,,,down,0.6504979742348951,1530.0835061467235,None,001,27,2019_Oct_15_1105,ACPT_experiment_5_30_19,3.1.0,59.95417683905207,
,,,C,U,d,n,R,U,d,R,u,,,,,6,0,120,15,0,0,0,0,,,,,1,17,53,9,,,,,,up,0.750576698657369,1532.0183263694819,None,001,27,2019_Oct_15_1105,ACPT_experiment_5_30_19,3.1.0,59.95417683905207,
,,,C,U,d,n,L,D,y,R,y,,,,,6,0,120,15,0,0,0,0,,,,,1,18,54,33,,,,,,down,0.6335293595611802,1534.070180347752,None,001,27,2019_Oct_15_1105,ACPT_experiment_5_30_19,3.1.0,59.95417683905207,
,,,C,U,d,n,L,D,y,L,y,,,,,6,0,120,15,0,0,0,0,,,,,1,19,55,32,,,,,,up,0.43366984401836817,1535.9880379929862,None,001,27,2019_Oct_15_1105,ACPT_experiment_5_30_19,3.1.0,59.95417683905207,
,,,C,U,d,n,L,G,y,L,y,,,,,6,0,120,15,0,0,0,0,,,,,1,20,56,34,,,,,,down,0.8506554230802976,1537.7060219353773,None,001,27,2019_Oct_15_1105,ACPT_experiment_5_30_19,3.1.0,59.95417683905207,
,,,C,U,d,n,L,U,d,R,u,,,,,6,0,120,15,0,0,0,0,,,,,1,21,57,21,,,,,,up,0.6004388403603116,1539.8410162091416,None,001,27,2019_Oct_15_1105,ACPT_experiment_5_30_19,3.1.0,59.95417683905207,
,,,C,U,d,n,R,G,d,R,i,,,,,6,0,120,15,0,0,0,0,,,,,1,22,58,5,,,,,,up,0.48370181072186824,1541.725779411028,None,001,27,2019_Oct_15_1105,ACPT_experiment_5_30_19,3.1.0,59.95417683905207,
,,,C,U,d,n,R,G,y,R,y,,,,,6,0,120,15,0,0,0,0,,,,,1,23,59,29,,,,,,down,0.7338836798357988,1543.4938098092805,None,001,27,2019_Oct_15_1105,ACPT_experiment_5_30_19,3.1.0,59.95417683905207,
,,,C,U,d,n,R,G,y,L,y,,,,,6,0,120,15,0,0,0,0,,,,,1,24,60,28,,,,,,down,0.6505028039537137,1545.5286997007386,None,001,27,2019_Oct_15_1105,ACPT_experiment_5_30_19,3.1.0,59.95417683905207,
,,,C,U,d,n,L,U,g,L,u,,,,,6,0,120,15,0,0,0,0,,,,,1,25,61,22,,,,,,up,0.6335344911376524,1547.4804758601579,None,001,27,2019_Oct_15_1105,ACPT_experiment_5_30_19,3.1.0,59.95417683905207,
,,,C,U,d,n,R,G,d,L,i,,,,,6,0,120,15,0,0,0,0,,,,,1,26,62,4,,,,,,up,0.5337307588511067,1549.3983464852624,None,001,27,2019_Oct_15_1105,ACPT_experiment_5_30_19,3.1.0,59.95417683905207,
,,,C,U,d,n,R,D,d,R,c ,,,,,6,0,120,15,0,0,0,0,,,,,1,27,63,1,,,,,,up,0.6504855980792854,1551.2164064353594,None,001,27,2019_Oct_15_1105,ACPT_experiment_5_30_19,3.1.0,59.95417683905207,
,,,C,U,d,n,R,D,y,L,y,,,,,6,0,120,15,0,0,0,0,,,,,1,28,64,26,,,,,,down,1.0174476624461022,1553.1512182061094,None,001,27,2019_Oct_15_1105,ACPT_experiment_5_30_19,3.1.0,59.95417683905207,
,,,C,U,d,n,R,D,g,R,i,,,,,6,0,120,15,0,0,0,0,,,,,1,29,65,3,,,,,,up,0.7672603598985006,1555.4529766464964,None,001,27,2019_Oct_15_1105,ACPT_experiment_5_30_19,3.1.0,59.95417683905207,
,,,C,U,d,n,L,U,y,L,u,,,,,6,0,120,15,0,0,0,0,,,,,1,30,66,24,,,,,,down,0.7672476818856921,1557.5045625753512,None,001,27,2019_Oct_15_1105,ACPT_experiment_5_30_19,3.1.0,59.95417683905207,
,,,C,U,d,n,R,U,g,L,u,,,,,6,0,120,15,0,0,0,0,,,,,1,31,67,10,,,,,,up,0.6338251798615602,1559.5561316001888,None,001,27,2019_Oct_15_1105,ACPT_experiment_5_30_19,3.1.0,59.95417683905207,
,,,C,U,d,n,L,D,d,R,c ,,,,,6,0,120,15,0,0,0,0,,,,,1,32,68,13,,,,,,down,0.5003649456566563,1561.4742850657233,None,001,27,2019_Oct_15_1105,ACPT_experiment_5_30_19,3.1.0,59.95417683905207,
,,,C,U,d,n,R,U,y,R,u,,,,,6,0,120,15,0,0,0,0,,,,,1,33,69,31,,,,,,down,0.7507149493694669,1563.2923356582394,None,001,27,2019_Oct_15_1105,ACPT_experiment_5_30_19,3.1.0,59.95417683905207,
,,,C,U,d,n,L,G,d,R,i,,,,,6,0,120,15,0,0,0,0,,,,,1,34,70,17,,,,,,up,0.6671792206161626,1565.3439149462304,None,001,27,2019_Oct_15_1105,ACPT_experiment_5_30_19,3.1.0,59.95417683905207,
,,,C,U,d,n,L,G,y,R,y,,,,,6,0,120,15,0,0,0,0,,,,,1,35,71,35,,,,,,down,0.7172145077520327,1567.2787291318398,None,001,27,2019_Oct_15_1105,ACPT_experiment_5_30_19,3.1.0,59.95417683905207,
,,,C,U,d,n,,,,,,,,,,6,0,120,15,1,0,1,0,0,0,0,0,,,,,,,,,,,,,,001,27,2019_Oct_15_1105,ACPT_experiment_5_30_19,3.1.0,59.95417683905207,
,,,C,U,d,n,R,D,g,R,i,,,,,6,0,120,15,1,0,1,0,,,,,0,0,0,3,,,,,,up,0.9338077928723578,1603.5568291927545,None,001,27,2019_Oct_15_1105,ACPT_experiment_5_30_19,3.1.0,59.95417683905207,
,,,C,U,d,n,L,U,d,R,u,,,,,6,0,120,15,1,0,1,0,,,,,0,1,1,21,,,,,,up,0.5504150238075454,1605.7749697991624,None,001,27,2019_Oct_15_1105,ACPT_experiment_5_30_19,3.1.0,59.95417683905207,
,,,C,U,d,n,L,D,d,L,c ,,,,,6,0,120,15,1,0,1,0,,,,,0,2,2,12,,,,,,up,0.567085705178215,1607.609716127217,None,001,27,2019_Oct_15_1105,ACPT_experiment_5_30_19,3.1.0,59.95417683905207,
,,,C,U,d,n,R,U,d,L,u,,,,,6,0,120,15,1,0,1,0,,,,,0,3,3,8,,,,,,up,0.383642707033232,1609.4611228734896,None,001,27,2019_Oct_15_1105,ACPT_experiment_5_30_19,3.1.0,59.95417683905207,
,,,C,U,d,n,R,U,g,L,u,,,,,6,0,120,15,1,0,1,0,,,,,0,4,4,10,,,,,,up,0.3666925056645596,1611.1293350502986,None,001,27,2019_Oct_15_1105,ACPT_experiment_5_30_19,3.1.0,59.95417683905207,
,,,C,U,d,n,R,D,y,R,y,,,,,6,0,120,15,1,0,1,0,,,,,0,5,5,27,,,,,,down,0.5170612849105964,1612.7803371264743,None,001,27,2019_Oct_15_1105,ACPT_experiment_5_30_19,3.1.0,59.95417683905207,
,,,C,U,d,n,R,U,y,L,u,,,,,6,0,120,15,1,0,1,0,,,,,0,6,6,30,,,,,,down,0.41698074934265605,1614.5817191506214,None,001,27,2019_Oct_15_1105,ACPT_experiment_5_30_19,3.1.0,59.95417683905207,
,,,C,U,d,n,L,G,d,L,i,,,,,6,0,120,15,1,0,1,0,,,,,0,7,7,16,,,,,,up,0.36693701019839864,1616.2830312042122,None,001,27,2019_Oct_15_1105,ACPT_experiment_5_30_19,3.1.0,59.95417683905207,
,,,C,U,d,n,R,G,d,R,i,,,,,6,0,120,15,1,0,1,0,,,,,0,8,8,5,,,,,,up,0.5971359161467262,1617.954293952407,None,001,27,2019_Oct_15_1105,ACPT_experiment_5_30_19,3.1.0,59.95417683905207,
,,,C,U,d,n,L,G,g,L,c ,,,,,6,0,120,15,1,0,1,0,,,,,0,9,9,18,,,,,,down,0.416980447485912,1619.8357563430816,None,001,27,2019_Oct_15_1105,ACPT_experiment_5_30_19,3.1.0,59.95417683905207,
,,,C,U,d,n,R,G,d,L,i,,,,,6,0,120,15,1,0,1,0,,,,,0,10,10,4,,,,,,up,0.41697622148149094,1621.537064170668,None,001,27,2019_Oct_15_1105,ACPT_experiment_5_30_19,3.1.0,59.95417683905207,
,,,C,U,d,n,L,G,g,R,c ,,,,,6,0,120,15,1,0,1,0,,,,,0,11,11,19,,,,,,up,0.5337422294346652,1623.2383641499603,None,001,27,2019_Oct_15_1105,ACPT_experiment_5_30_19,3.1.0,59.95417683905207,
,,,C,U,d,n,R,U,y,R,u,,,,,6,0,120,15,1,0,1,0,,,,,0,12,12,31,,,,,,down,0.5668390876417106,1625.07336916985,None,001,27,2019_Oct_15_1105,ACPT_experiment_5_30_19,3.1.0,59.95417683905207,
,,,C,U,d,n,L,U,g,L,u,,,,,6,0,120,15,1,0,1,0,,,,,0,13,13,22,,,,,,up,0.5838034763110045,1626.9245283930138,None,001,27,2019_Oct_15_1105,ACPT_experiment_5_30_19,3.1.0,59.95417683905207,
,,,C,U,d,n,R,G,g,R,c ,,,,,6,0,120,15,1,0,1,0,,,,,0,14,14,7,,,,,,up,0.3836294253055712,1628.7926263469633,None,001,27,2019_Oct_15_1105,ACPT_experiment_5_30_19,3.1.0,59.95417683905207,
,,,C,U,d,n,L,U,y,R,u,,,,,6,0,120,15,1,0,1,0,,,,,0,15,15,25,,,,,,down,0.6671825410480778,1630.4605786245081,None,001,27,2019_Oct_15_1105,ACPT_experiment_5_30_19,3.1.0,59.95417683905207,
,,,C,U,d,n,R,D,d,R,c ,,,,,6,0,120,15,1,0,1,0,,,,,0,16,16,1,,,,,,up,0.5667536619835118,1632.429019126292,None,001,27,2019_Oct_15_1105,ACPT_experiment_5_30_19,3.1.0,59.95417683905207,
,,,C,U,d,n,R,D,y,L,y,,,,,6,0,120,15,1,0,1,0,,,,,0,17,17,26,,,,,,up,0.4670021510364677,1634.263512497804,None,001,27,2019_Oct_15_1105,ACPT_experiment_5_30_19,3.1.0,59.95417683905207,
,,,C,U,d,n,L,D,y,L,y,,,,,6,0,120,15,1,0,1,0,,,,,0,18,18,32,,,,,,down,1.0007860367986723,1636.0148541032388,None,001,27,2019_Oct_15_1105,ACPT_experiment_5_30_19,3.1.0,59.95417683905207,
,,,C,U,d,n,L,G,y,R,y,,,,,6,0,120,15,1,0,1,0,,,,,0,19,19,35,,,,,,down,0.5836640181692019,1638.2999346176764,None,001,27,2019_Oct_15_1105,ACPT_experiment_5_30_19,3.1.0,59.95417683905207,
,,,C,U,d,n,L,D,g,R,i,,,,,6,0,120,15,1,0,1,0,,,,,0,20,20,15,,,,,,up,0.6671653351731948,1640.1680419292072,None,001,27,2019_Oct_15_1105,ACPT_experiment_5_30_19,3.1.0,59.95417683905207,
,,,C,U,d,n,L,G,d,R,i,,,,,6,0,120,15,1,0,1,0,,,,,0,21,21,17,,,,,,up,0.6004500090857618,1642.1195433983473,None,001,27,2019_Oct_15_1105,ACPT_experiment_5_30_19,3.1.0,59.95417683905207,
,,,C,U,d,n,R,U,g,R,u,,,,,6,0,120,15,1,0,1,0,,,,,0,22,22,11,,,,,,up,0.5671427562360805,1644.0043062983766,None,001,27,2019_Oct_15_1105,ACPT_experiment_5_30_19,3.1.0,59.95417683905207,
,,,C,U,d,n,L,U,d,L,u,,,,,6,0,120,15,1,0,1,0,,,,,0,23,23,20,,,,,,up,0.5670971757613188,1645.8557320616685,None,001,27,2019_Oct_15_1105,ACPT_experiment_5_30_19,3.1.0,59.95417683905207,
,,,C,U,d,n,L,D,g,L,i,,,,,6,0,120,15,1,0,1,0,,,,,0,24,24,14,,,,,,up,0.4836993958624589,1647.70715782496,None,001,27,2019_Oct_15_1105,ACPT_experiment_5_30_19,3.1.0,59.95417683905207,
,,,C,U,d,n,L,D,y,R,y,,,,,6,0,120,15,1,0,1,0,,,,,0,25,25,33,,,,,,down,0.6338134074208028,1649.4751827897787,None,001,27,2019_Oct_15_1105,ACPT_experiment_5_30_19,3.1.0,59.95417683905207,
,,,C,U,d,n,R,D,d,L,c,,,,,6,0,120,15,1,0,1,0,,,,,0,26,26,0,,,,,,up,0.3998482260744822,1651.4104262166818,None,001,27,2019_Oct_15_1105,ACPT_experiment_5_30_19,3.1.0,59.95417683905207,
,,,C,U,d,n,R,D,g,L,i,,,,,6,0,120,15,1,0,1,0,,,,,0,27,27,2,,,,,,up,0.4002985973888826,1653.0779489510758,None,001,27,2019_Oct_15_1105,ACPT_experiment_5_30_19,3.1.0,59.95417683905207,
,,,C,U,d,n,L,G,y,L,y,,,,,6,0,120,15,1,0,1,0,,,,,0,28,28,34,,,,,,down,0.6838637874298001,1654.762569796989,None,001,27,2019_Oct_15_1105,ACPT_experiment_5_30_19,3.1.0,59.95417683905207,
,,,C,U,d,n,L,U,y,L,u,,,,,6,0,120,15,1,0,1,0,,,,,0,29,29,24,,,,,,down,0.6171333684692399,1656.7307615682341,None,001,27,2019_Oct_15_1105,ACPT_experiment_5_30_19,3.1.0,59.95417683905207,
,,,C,U,d,n,R,G,g,L,c ,,,,,6,0,120,15,1,0,1,0,,,,,0,30,30,6,,,,,,up,0.6168523391838789,1658.6491688958838,None,001,27,2019_Oct_15_1105,ACPT_experiment_5_30_19,3.1.0,59.95417683905207,
,,,C,U,d,n,R,G,y,L,y,,,,,6,0,120,15,1,0,1,0,,,,,0,31,31,28,,,,,,down,0.6838496001296335,1660.550356161605,None,001,27,2019_Oct_15_1105,ACPT_experiment_5_30_19,3.1.0,59.95417683905207,
,,,C,U,d,n,L,D,d,R,c ,,,,,6,0,120,15,1,0,1,0,,,,,0,32,32,13,,,,,,up,0.6171442353374914,1662.5185240861117,None,001,27,2019_Oct_15_1105,ACPT_experiment_5_30_19,3.1.0,59.95417683905207,
,,,C,U,d,n,R,G,y,R,y,,,,,6,0,120,15,1,0,1,0,,,,,0,33,33,29,,,,,,up,0.4670220736279589,1664.4199890606862,None,001,27,2019_Oct_15_1105,ACPT_experiment_5_30_19,3.1.0,59.95417683905207,
,,,C,U,d,n,L,U,g,R,u,,,,,6,0,120,15,1,0,1,0,,,,,0,34,34,23,,,,,,up,0.46701875319558894,1666.171333986553,None,001,27,2019_Oct_15_1105,ACPT_experiment_5_30_19,3.1.0,59.95417683905207,
,,,C,U,d,n,R,U,d,R,u,,,,,6,0,120,15,1,0,1,0,,,,,0,35,35,9,,,,,,up,0.48372746860559346,1667.9226801198495,None,001,27,2019_Oct_15_1105,ACPT_experiment_5_30_19,3.1.0,59.95417683905207,
,,,C,U,d,n,L,D,g,R,i,,,,,6,0,120,15,1,0,1,0,,,,,1,0,36,15,,,,,,up,0.41698618277723654,1669.6906999530913,None,001,27,2019_Oct_15_1105,ACPT_experiment_5_30_19,3.1.0,59.95417683905207,
,,,C,U,d,n,R,G,g,L,c ,,,,,6,0,120,15,1,0,1,0,,,,,1,1,37,6,,,,,,up,0.6972496560333639,1671.412004025571,None,001,27,2019_Oct_15_1105,ACPT_experiment_5_30_19,3.1.0,59.95417683905207,
,,,C,U,d,n,R,U,d,L,u,,,,,6,0,120,15,1,0,1,0,,,,,1,2,38,8,,,,,,up,0.38362127515483735,1673.3935454425261,None,001,27,2019_Oct_15_1105,ACPT_experiment_5_30_19,3.1.0,59.95417683905207,
,,,C,U,d,n,R,D,y,L,y,,,,,6,0,120,15,1,0,1,0,,,,,1,3,39,26,,,,,,up,0.4503571275486138,1675.061495908926,None,001,27,2019_Oct_15_1105,ACPT_experiment_5_30_19,3.1.0,59.95417683905207,
,,,C,U,d,n,R,G,y,R,y,,,,,6,0,120,15,1,0,1,0,,,,,1,4,40,29,,,,,,down,0.9172542321921355,1676.7961604939835,None,001,27,2019_Oct_15_1105,ACPT_experiment_5_30_19,3.1.0,59.95417683905207,
,,,C,U,d,n,L,D,d,R,c ,,,,,6,0,120,15,1,0,1,0,,,,,1,5,41,13,,,,,,up,0.6004536313753306,1678.9978510768162,None,001,27,2019_Oct_15_1105,ACPT_experiment_5_30_19,3.1.0,59.95417683905207,
,,,C,U,d,n,R,U,g,R,u,,,,,6,0,120,15,1,0,1,0,,,,,1,6,42,11,,,,,,up,0.4003921731987248,1680.8826182028495,None,001,27,2019_Oct_15_1105,ACPT_experiment_5_30_19,3.1.0,59.95417683905207,
,,,C,U,d,n,L,U,d,L,u,,,,,6,0,120,15,1,0,1,0,,,,,1,7,43,20,,,,,,up,0.5170558514764707,1682.5672583676394,None,001,27,2019_Oct_15_1105,ACPT_experiment_5_30_19,3.1.0,59.95417683905207,
,,,C,U,d,n,L,U,y,R,u,,,,,6,0,120,15,1,0,1,0,,,,,1,8,44,25,,,,,,down,0.550148181822351,1684.3689114597767,None,001,27,2019_Oct_15_1105,ACPT_experiment_5_30_19,3.1.0,59.95417683905207,
,,,C,U,d,n,L,G,y,L,y,,,,,6,0,120,15,1,0,1,0,,,,,1,9,45,34,,,,,,up,0.36693701019839864,1686.220063740219,None,001,27,2019_Oct_15_1105,ACPT_experiment_5_30_19,3.1.0,59.95417683905207,
,,,C,U,d,n,L,G,g,R,c ,,,,,6,0,120,15,1,0,1,0,,,,,1,10,46,19,,,,,,up,0.46700426403867823,1687.888019640053,None,001,27,2019_Oct_15_1105,ACPT_experiment_5_30_19,3.1.0,59.95417683905207,
,,,C,U,d,n,L,U,d,R,u,,,,,6,0,120,15,1,0,1,0,,,,,1,11,47,21,,,,,,down,0.6004406515048686,1689.6393730179286,None,001,27,2019_Oct_15_1105,ACPT_experiment_5_30_19,3.1.0,59.95417683905207,
,,,C,U,d,n,L,D,y,L,y,,,,,6,0,120,15,1,0,1,0,,,,,1,12,48,32,,,,,,down,0.7670092145003764,1691.5410568391542,None,001,27,2019_Oct_15_1105,ACPT_experiment_5_30_19,3.1.0,59.95417683905207,
,,,C,U,d,n,R,U,g,L,u,,,,,6,0,120,15,1,0,1,0,,,,,1,13,49,10,,,,,,up,0.6504946538029799,1693.592385887319,None,001,27,2019_Oct_15_1105,ACPT_experiment_5_30_19,3.1.0,59.95417683905207,
,,,C,U,d,n,L,G,g,L,c ,,,,,6,0,120,15,1,0,1,0,,,,,1,14,50,18,,,,,,up,0.46702177177030535,1695.5272076193648,None,001,27,2019_Oct_15_1105,ACPT_experiment_5_30_19,3.1.0,59.95417683905207,
,,,C,U,d,n,L,U,g,R,u,,,,,6,0,120,15,1,0,1,0,,,,,1,15,51,23,,,,,,up,0.6004569518072458,1697.278550734087,None,001,27,2019_Oct_15_1105,ACPT_experiment_5_30_19,3.1.0,59.95417683905207,
,,,C,U,d,n,L,G,y,R,y,,,,,6,0,120,15,1,0,1,0,,,,,1,16,52,35,,,,,,down,0.6505052188135778,1699.1633193694076,None,001,27,2019_Oct_15_1105,ACPT_experiment_5_30_19,3.1.0,59.95417683905207,
,,,C,U,d,n,L,D,d,L,c ,,,,,6,0,120,15,1,0,1,0,,,,,1,17,53,12,,,,,,up,0.733875831541809,1701.0981637407624,None,001,27,2019_Oct_15_1105,ACPT_experiment_5_30_19,3.1.0,59.95417683905207,
,,,C,U,d,n,L,G,d,L,i,,,,,6,0,120,15,1,0,1,0,,,,,1,18,54,16,,,,,,up,0.9840821511088507,1703.1163708765519,None,001,27,2019_Oct_15_1105,ACPT_experiment_5_30_19,3.1.0,59.95417683905207,
,,,C,U,d,n,R,D,g,R,i,,,,,6,0,120,15,1,0,1,0,,,,,1,19,55,3,,,,,,up,0.7172129984651292,1705.3847725594676,None,001,27,2019_Oct_15_1105,ACPT_experiment_5_30_19,3.1.0,59.95417683905207,
,,,C,U,d,n,R,U,y,L,u,,,,,6,0,120,15,1,0,1,0,,,,,1,20,56,30,,,,,,down,0.717200320451866,1707.3863268234757,None,001,27,2019_Oct_15_1105,ACPT_experiment_5_30_19,3.1.0,59.95417683905207,
,,,C,U,d,n,R,D,y,R,y,,,,,6,0,120,15,1,0,1,0,,,,,1,21,57,27,,,,,,up,0.4670078863277922,1709.4045333555503,None,001,27,2019_Oct_15_1105,ACPT_experiment_5_30_19,3.1.0,59.95417683905207,
,,,C,U,d,n,R,G,y,L,y,,,,,6,0,120,15,1,0,1,0,,,,,1,22,58,28,,,,,,down,0.9173653157340595,1711.1725528869345,None,001,27,2019_Oct_15_1105,ACPT_experiment_5_30_19,3.1.0,59.95417683905207,
,,,C,U,d,n,R,G,d,R,i,,,,,6,0,120,15,1,0,1,0,,,,,1,23,59,5,,,,,,up,0.7172123947498221,1713.3742443753392,None,001,27,2019_Oct_15_1105,ACPT_experiment_5_30_19,3.1.0,59.95417683905207,
,,,C,U,d,n,L,D,y,R,y,,,,,6,0,120,15,1,0,1,0,,,,,1,24,60,33,,,,,,down,0.6838496001296335,1715.3757847539048,None,001,27,2019_Oct_15_1105,ACPT_experiment_5_30_19,3.1.0,59.95417683905207,
,,,C,U,d,n,R,D,d,R,c ,,,,,6,0,120,15,1,0,1,0,,,,,1,25,61,1,,,,,,up,0.7005266205069347,1717.3439587155606,None,001,27,2019_Oct_15_1105,ACPT_experiment_5_30_19,3.1.0,59.95417683905207,
,,,C,U,d,n,L,D,g,L,i,,,,,6,0,120,15,1,0,1,0,,,,,1,26,62,14,,,,,,up,0.8673270100234731,1719.3288172440296,None,001,27,2019_Oct_15_1105,ACPT_experiment_5_30_19,3.1.0,59.95417683905207,
,,,C,U,d,n,R,U,y,R,u,,,,,6,0,120,15,1,0,1,0,,,,,1,27,63,31,,,,,,down,0.7505691522210327,1721.4971468433862,None,001,27,2019_Oct_15_1105,ACPT_experiment_5_30_19,3.1.0,59.95417683905207,
,,,C,U,d,n,R,G,d,L,i,,,,,6,0,120,15,1,0,1,0,,,,,1,28,64,4,,,,,,up,0.8673224821613985,1723.5487071143577,None,001,27,2019_Oct_15_1105,ACPT_experiment_5_30_19,3.1.0,59.95417683905207,
,,,C,U,d,n,R,G,g,R,c ,,,,,6,0,120,15,1,0,1,0,,,,,1,29,65,7,,,,,,up,0.6504964649470821,1725.6836944454005,None,001,27,2019_Oct_15_1105,ACPT_experiment_5_30_19,3.1.0,59.95417683905207,
,,,C,U,d,n,L,U,y,L,u,,,,,6,0,120,15,1,0,1,0,,,,,1,30,66,24,,,,,,down,0.7172202430438119,1727.6185059142929,None,001,27,2019_Oct_15_1105,ACPT_experiment_5_30_19,3.1.0,59.95417683905207,
,,,C,U,d,n,R,D,g,L,i,,,,,6,0,120,15,1,0,1,0,,,,,1,31,67,2,,,,,,up,2.3184324421895326,1729.6200631968757,None,001,27,2019_Oct_15_1105,ACPT_experiment_5_30_19,3.1.0,59.95417683905207,
,,,C,U,d,n,L,G,d,R,i,,,,,6,0,120,15,1,0,1,0,,,,,1,32,68,17,,,,,,up,0.6671855596227942,1733.222817585732,None,001,27,2019_Oct_15_1105,ACPT_experiment_5_30_19,3.1.0,59.95417683905207,
,,,C,U,d,n,R,D,d,L,c,,,,,6,0,120,15,1,0,1,0,,,,,1,33,69,0,,,,,,up,0.4169843716322248,1735.1743169418703,None,001,27,2019_Oct_15_1105,ACPT_experiment_5_30_19,3.1.0,59.95417683905207,
,,,C,U,d,n,R,U,d,R,u,,,,,6,0,120,15,1,0,1,0,,,,,1,34,70,9,,,,,,up,0.6838520149890428,1736.8756247694566,None,001,27,2019_Oct_15_1105,ACPT_experiment_5_30_19,3.1.0,59.95417683905207,
,,,C,U,d,n,L,U,g,L,u,,,,,6,0,120,15,1,0,1,0,,,,,1,35,71,22,,,,,,up,0.4003043326806619,1738.8437935995355,None,001,27,2019_Oct_15_1105,ACPT_experiment_5_30_19,3.1.0,59.95417683905207,
,,,C,U,d,n,,,,,,,,,,6,0,120,15,2,0,2,0,0,0,0,0,,,,,,,,,,,,,,001,27,2019_Oct_15_1105,ACPT_experiment_5_30_19,3.1.0,59.95417683905207,
,,,C,U,d,n,R,U,d,L,u,,,,,6,0,120,15,2,0,2,0,,,,,0,0,0,8,,,,,,up,0.4834440244603684,1746.9836501930984,None,001,27,2019_Oct_15_1105,ACPT_experiment_5_30_19,3.1.0,59.95417683905207,
,,,C,U,d,n,R,G,d,L,i,,,,,6,0,120,15,2,0,2,0,,,,,0,1,1,4,,,,,,up,0.36692704890265304,1748.7514137493656,None,001,27,2019_Oct_15_1105,ACPT_experiment_5_30_19,3.1.0,59.95417683905207,
,,,C,U,d,n,R,D,g,L,i,,,,,6,0,120,15,2,0,2,0,,,,,0,2,2,2,,,,,,up,0.6671774094716056,1750.4026693857988,None,001,27,2019_Oct_15_1105,ACPT_experiment_5_30_19,3.1.0,59.95417683905207,
,,,C,U,d,n,R,G,y,R,y,,,,,6,0,120,15,2,0,2,0,,,,,0,3,3,29,,,,,,down,0.6671683537479112,1752.3541714586538,None,001,27,2019_Oct_15_1105,ACPT_experiment_5_30_19,3.1.0,59.95417683905207,
,,,C,U,d,n,R,G,d,R,i,,,,,6,0,120,15,2,0,2,0,,,,,0,4,4,5,,,,,,up,0.5638144759964234,1754.3256682671151,None,001,27,2019_Oct_15_1105,ACPT_experiment_5_30_19,3.1.0,59.95417683905207,
,,,C,U,d,n,R,U,d,R,u,,,,,6,0,120,15,2,0,2,0,,,,,0,5,5,9,,,,,,up,0.5170621904831023,1756.173771183601,None,001,27,2019_Oct_15_1105,ACPT_experiment_5_30_19,3.1.0,59.95417683905207,
,,,C,U,d,n,L,U,d,R,u,,,,,6,0,120,15,2,0,2,0,,,,,0,6,6,21,,,,,,down,0.4336671273013053,1757.958467735363,None,001,27,2019_Oct_15_1105,ACPT_experiment_5_30_19,3.1.0,59.95417683905207,
,,,C,U,d,n,L,U,d,L,u,,,,,6,0,120,15,2,0,2,0,,,,,0,7,7,20,,,,,,down,0.51720949691844,1759.6596300676586,None,001,27,2019_Oct_15_1105,ACPT_experiment_5_30_19,3.1.0,59.95417683905207,
,,,C,U,d,n,L,G,y,R,y,,,,,6,0,120,15,2,0,2,0,,,,,0,8,8,35,,,,,,up,0.4834228944387178,1761.4781165423317,None,001,27,2019_Oct_15_1105,ACPT_experiment_5_30_19,3.1.0,59.95417683905207,
,,,C,U,d,n,R,U,g,R,u,,,,,6,0,120,15,2,0,2,0,,,,,0,9,9,11,,,,,,up,1.4177516932695653,1763.2458707410176,None,001,27,2019_Oct_15_1105,ACPT_experiment_5_30_19,3.1.0,59.95417683905207,
,,,C,U,d,n,R,D,g,R,i,,,,,6,0,120,15,2,0,2,0,,,,,0,10,10,3,,,,,,up,0.4168880791057745,1765.947942569809,None,001,27,2019_Oct_15_1105,ACPT_experiment_5_30_19,3.1.0,59.95417683905207,
,,,C,U,d,n,R,G,g,R,c ,,,,,6,0,120,15,2,0,2,0,,,,,0,11,11,7,,,,,,up,0.7172081687458558,1767.6492519066826,None,001,27,2019_Oct_15_1105,ACPT_experiment_5_30_19,3.1.0,59.95417683905207,
,,,C,U,d,n,L,G,d,R,i,,,,,6,0,120,15,2,0,2,0,,,,,0,12,12,17,,,,,,up,0.5504267962483027,1769.650778097948,None,001,27,2019_Oct_15_1105,ACPT_experiment_5_30_19,3.1.0,59.95417683905207,
,,,C,U,d,n,R,G,y,L,y,,,,,6,0,120,15,2,0,2,0,,,,,0,13,13,28,,,,,,up,0.517051021757652,1771.502209294674,None,001,27,2019_Oct_15_1105,ACPT_experiment_5_30_19,3.1.0,59.95417683905207,
,,,C,U,d,n,R,D,d,R,c ,,,,,6,0,120,15,2,0,2,0,,,,,0,14,14,1,,,,,,up,0.450329054805934,1773.3369510948671,None,001,27,2019_Oct_15_1105,ACPT_experiment_5_30_19,3.1.0,59.95417683905207,
,,,C,U,d,n,R,D,d,L,c,,,,,6,0,120,15,2,0,2,0,,,,,0,15,15,0,,,,,,up,0.51708181121694,1775.0549117942348,None,001,27,2019_Oct_15_1105,ACPT_experiment_5_30_19,3.1.0,59.95417683905207,
,,,C,U,d,n,L,D,g,L,i,,,,,6,0,120,15,2,0,2,0,,,,,0,16,16,14,,,,,,up,0.483690641996418,1776.8563212874099,None,001,27,2019_Oct_15_1105,ACPT_experiment_5_30_19,3.1.0,59.95417683905207,
,,,C,U,d,n,L,U,y,R,u,,,,,6,0,120,15,2,0,2,0,,,,,0,17,17,25,,,,,,down,0.8172965526068765,1778.6243414225094,None,001,27,2019_Oct_15_1105,ACPT_experiment_5_30_19,3.1.0,59.95417683905207,
,,,C,U,d,n,R,D,y,L,y,,,,,6,0,120,15,2,0,2,0,,,,,0,18,18,26,,,,,,down,0.5168001782162719,1780.7428926154196,None,001,27,2019_Oct_15_1105,ACPT_experiment_5_30_19,3.1.0,59.95417683905207,
,,,C,U,d,n,R,U,y,R,u,,,,,6,0,120,15,2,0,2,0,,,,,0,19,19,31,,,,,,down,0.6671662407457006,1782.5440259090285,None,001,27,2019_Oct_15_1105,ACPT_experiment_5_30_19,3.1.0,59.95417683905207,
,,,C,U,d,n,R,U,y,L,u,,,,,6,0,120,15,2,0,2,0,,,,,0,20,20,30,,,,,,down,0.5003733976650437,1784.512200172542,None,001,27,2019_Oct_15_1105,ACPT_experiment_5_30_19,3.1.0,59.95417683905207,
,,,C,U,d,n,L,D,y,L,y,,,,,6,0,120,15,2,0,2,0,,,,,0,21,21,32,,,,,,down,0.8172721021533107,1786.31359155427,None,001,27,2019_Oct_15_1105,ACPT_experiment_5_30_19,3.1.0,59.95417683905207,
,,,C,U,d,n,L,G,g,L,c ,,,,,6,0,120,15,2,0,2,0,,,,,0,22,22,18,,,,,,down,0.5002641252685862,1788.4151937532413,None,001,27,2019_Oct_15_1105,ACPT_experiment_5_30_19,3.1.0,59.95417683905207,
,,,C,U,d,n,L,U,y,L,u,,,,,6,0,120,15,2,0,2,0,,,,,0,23,23,24,,,,,,down,0.6504907296562124,1790.2165784941055,None,001,27,2019_Oct_15_1105,ACPT_experiment_5_30_19,3.1.0,59.95417683905207,
,,,C,U,d,n,L,D,g,R,i,,,,,6,0,120,15,2,0,2,0,,,,,0,24,24,15,,,,,,up,0.5337289477065497,1792.1680793595308,None,001,27,2019_Oct_15_1105,ACPT_experiment_5_30_19,3.1.0,59.95417683905207,
,,,C,U,d,n,L,D,d,R,c ,,,,,6,0,120,15,2,0,2,0,,,,,0,25,25,13,,,,,,up,0.5636427191079747,1794.006259617933,None,001,27,2019_Oct_15_1105,ACPT_experiment_5_30_19,3.1.0,59.95417683905207,
,,,C,U,d,n,L,U,g,L,u,,,,,6,0,120,15,2,0,2,0,,,,,0,26,26,22,,,,,,up,0.5837787240002399,1795.854236056148,None,001,27,2019_Oct_15_1105,ACPT_experiment_5_30_19,3.1.0,59.95417683905207,
,,,C,U,d,n,R,U,g,L,u,,,,,6,0,120,15,2,0,2,0,,,,,0,27,27,10,,,,,,up,0.4836987921476066,1797.722331595238,None,001,27,2019_Oct_15_1105,ACPT_experiment_5_30_19,3.1.0,59.95417683905207,
,,,C,U,d,n,L,D,y,R,y,,,,,6,0,120,15,2,0,2,0,,,,,0,28,28,33,,,,,,down,0.6004503109434154,1799.4903641064927,None,001,27,2019_Oct_15_1105,ACPT_experiment_5_30_19,3.1.0,59.95417683905207,
,,,C,U,d,n,L,G,y,L,y,,,,,6,0,120,15,2,0,2,0,,,,,0,29,29,34,,,,,,down,0.8473334818468174,1801.395135929428,None,001,27,2019_Oct_15_1105,ACPT_experiment_5_30_19,3.1.0,59.95417683905207,
,,,C,U,d,n,L,G,d,L,i,,,,,6,0,120,15,2,0,2,0,,,,,0,30,30,16,,,,,,up,0.6504928426579681,1803.5267943765164,None,001,27,2019_Oct_15_1105,ACPT_experiment_5_30_19,3.1.0,59.95417683905207,
,,,C,U,d,n,R,G,g,L,c ,,,,,6,0,120,15,2,0,2,0,,,,,0,31,31,6,,,,,,up,0.4169870883497424,1805.4616094676987,None,001,27,2019_Oct_15_1105,ACPT_experiment_5_30_19,3.1.0,59.95417683905207,
,,,C,U,d,n,R,D,y,R,y,,,,,6,0,120,15,2,0,2,0,,,,,0,32,32,27,,,,,,down,0.6671740890396904,1807.1629191064296,None,001,27,2019_Oct_15_1105,ACPT_experiment_5_30_19,3.1.0,59.95417683905207,
,,,C,U,d,n,L,G,g,R,c ,,,,,6,0,120,15,2,0,2,0,,,,,0,33,33,19,,,,,,up,0.43364116756083604,1809.1144398944464,None,001,27,2019_Oct_15_1105,ACPT_experiment_5_30_19,3.1.0,59.95417683905207,
,,,C,U,d,n,L,U,g,R,u,,,,,6,0,120,15,2,0,2,0,,,,,0,34,34,23,,,,,,up,0.33359051588013244,1810.8323960659525,None,001,27,2019_Oct_15_1105,ACPT_experiment_5_30_19,3.1.0,59.95417683905207,
,,,C,U,d,n,L,D,d,L,c ,,,,,6,0,120,15,2,0,2,0,,,,,0,35,35,12,,,,,,up,0.2668661340694598,1812.4503112452164,None,001,27,2019_Oct_15_1105,ACPT_experiment_5_30_19,3.1.0,59.95417683905207,
,,,C,U,d,n,L,G,y,R,y,,,,,6,0,120,15,2,0,2,0,,,,,1,0,36,35,,,,,,down,0.3833698278990596,1814.0184579793302,None,001,27,2019_Oct_15_1105,ACPT_experiment_5_30_19,3.1.0,59.95417683905207,
,,,C,U,d,n,L,D,d,R,c ,,,,,6,0,120,15,2,0,2,0,,,,,1,1,37,13,,,,,,up,0.833968139550052,1815.6861283220167,None,001,27,2019_Oct_15_1105,ACPT_experiment_5_30_19,3.1.0,59.95417683905207,
,,,C,U,d,n,R,G,g,L,c ,,,,,6,0,120,15,2,0,2,0,,,,,1,2,38,6,,,,,,up,0.6004545369473817,1817.8044217286654,None,001,27,2019_Oct_15_1105,ACPT_experiment_5_30_19,3.1.0,59.95417683905207,
,,,C,U,d,n,R,U,y,L,u,,,,,6,0,120,15,2,0,2,0,,,,,1,3,39,30,,,,,,down,0.7172172244690955,1819.6892015327114,None,001,27,2019_Oct_15_1105,ACPT_experiment_5_30_19,3.1.0,59.95417683905207,
,,,C,U,d,n,L,G,d,L,i,,,,,6,0,120,15,2,0,2,0,,,,,1,4,40,16,,,,,,up,0.600447292368699,1821.690751570715,None,001,27,2019_Oct_15_1105,ACPT_experiment_5_30_19,3.1.0,59.95417683905207,
,,,C,U,d,n,R,U,d,R,u,,,,,6,0,120,15,2,0,2,0,,,,,1,5,41,9,,,,,,up,0.5003637382269517,1823.5755359026232,None,001,27,2019_Oct_15_1105,ACPT_experiment_5_30_19,3.1.0,59.95417683905207,
,,,C,U,d,n,R,U,g,L,u,,,,,6,0,120,15,2,0,2,0,,,,,1,6,42,10,,,,,,up,0.41696716575779647,1825.3435506042886,None,001,27,2019_Oct_15_1105,ACPT_experiment_5_30_19,3.1.0,59.95417683905207,
,,,C,U,d,n,R,G,d,L,i,,,,,6,0,120,15,2,0,2,0,,,,,1,7,43,4,,,,,,up,0.4500700611142747,1827.0617992756631,None,001,27,2019_Oct_15_1105,ACPT_experiment_5_30_19,3.1.0,59.95417683905207,
,,,C,U,d,n,L,G,g,R,c ,,,,,6,0,120,15,2,0,2,0,,,,,1,8,44,19,,,,,,up,0.5170809056444341,1828.7961921890158,None,001,27,2019_Oct_15_1105,ACPT_experiment_5_30_19,3.1.0,59.95417683905207,
,,,C,U,d,n,R,G,y,R,y,,,,,6,0,120,15,2,0,2,0,,,,,1,9,45,29,,,,,,up,0.5170594737660394,1830.5975769298805,None,001,27,2019_Oct_15_1105,ACPT_experiment_5_30_19,3.1.0,59.95417683905207,
,,,C,U,d,n,R,D,g,L,i,,,,,6,0,120,15,2,0,2,0,,,,,1,10,46,2,,,,,,up,0.6671626184565866,1832.3989731413278,None,001,27,2019_Oct_15_1105,ACPT_experiment_5_30_19,3.1.0,59.95417683905207,
,,,C,U,d,n,R,D,d,L,c,,,,,6,0,120,15,2,0,2,0,,,,,1,11,47,0,,,,,,up,0.4500736834033887,1834.3507227372918,None,001,27,2019_Oct_15_1105,ACPT_experiment_5_30_19,3.1.0,59.95417683905207,
,,,C,U,d,n,R,D,g,R,i,,,,,6,0,120,15,2,0,2,0,,,,,1,12,48,3,,,,,,up,0.5504636228565687,1836.068423537395,None,001,27,2019_Oct_15_1105,ACPT_experiment_5_30_19,3.1.0,59.95417683905207,
,,,C,U,d,n,R,G,y,L,y,,,,,6,0,120,15,2,0,2,0,,,,,1,13,49,28,,,,,,up,0.40030614382567364,1837.9031849583228,None,001,27,2019_Oct_15_1105,ACPT_experiment_5_30_19,3.1.0,59.95417683905207,
,,,C,U,d,n,R,U,g,R,u,,,,,6,0,120,15,2,0,2,0,,,,,1,14,50,11,,,,,,up,0.450371616706434,1839.587817878534,None,001,27,2019_Oct_15_1105,ACPT_experiment_5_30_19,3.1.0,59.95417683905207,
,,,C,U,d,n,R,D,d,R,c ,,,,,6,0,120,15,2,0,2,0,,,,,1,15,51,1,,,,,,up,0.4970629270151221,1841.3424744824804,None,001,27,2019_Oct_15_1105,ACPT_experiment_5_30_19,3.1.0,59.95417683905207,
,,,C,U,d,n,L,G,g,L,c ,,,,,6,0,120,15,2,0,2,0,,,,,1,16,52,18,,,,,,up,0.4837066404415964,1843.123853620871,None,001,27,2019_Oct_15_1105,ACPT_experiment_5_30_19,3.1.0,59.95417683905207,
,,,C,U,d,n,R,U,y,R,u,,,,,6,0,120,15,2,0,2,0,,,,,1,17,53,31,,,,,,down,0.38364119774632854,1844.891885226553,None,001,27,2019_Oct_15_1105,ACPT_experiment_5_30_19,3.1.0,59.95417683905207,
,,,C,U,d,n,L,U,d,R,u,,,,,6,0,120,15,2,0,2,0,,,,,1,18,54,21,,,,,,up,0.7338921318441862,1846.5598335799507,None,001,27,2019_Oct_15_1105,ACPT_experiment_5_30_19,3.1.0,59.95417683905207,
,,,C,U,d,n,R,G,d,R,i,,,,,6,0,120,15,2,0,2,0,,,,,1,19,55,5,,,,,,up,0.6335716196040266,1848.578313896732,None,001,27,2019_Oct_15_1105,ACPT_experiment_5_30_19,3.1.0,59.95417683905207,
,,,C,U,d,n,L,U,y,R,u,,,,,6,0,120,15,2,0,2,0,,,,,1,20,56,25,,,,,,up,0.43366410872704364,1850.4961851255514,None,001,27,2019_Oct_15_1105,ACPT_experiment_5_30_19,3.1.0,59.95417683905207,
,,,C,U,d,n,L,U,y,L,u,,,,,6,0,120,15,2,0,2,0,,,,,1,21,57,24,,,,,,up,0.46700426403867823,1852.2308678220563,None,001,27,2019_Oct_15_1105,ACPT_experiment_5_30_19,3.1.0,59.95417683905207,
,,,C,U,d,n,L,U,g,R,u,,,,,6,0,120,15,2,0,2,0,,,,,1,22,58,23,,,,,,up,0.5837744979958188,1853.9988804107195,None,001,27,2019_Oct_15_1105,ACPT_experiment_5_30_19,3.1.0,59.95417683905207,
,,,C,U,d,n,L,G,y,L,y,,,,,6,0,120,15,2,0,2,0,,,,,1,23,59,34,,,,,,down,0.6671580905949668,1855.9003493094408,None,001,27,2019_Oct_15_1105,ACPT_experiment_5_30_19,3.1.0,59.95417683905207,
,,,C,U,d,n,L,D,y,L,y,,,,,6,0,120,15,2,0,2,0,,,,,1,24,60,32,,,,,,down,0.28358149034283997,1857.8518341764213,None,001,27,2019_Oct_15_1105,ACPT_experiment_5_30_19,3.1.0,59.95417683905207,
,,,C,U,d,n,R,G,g,R,c ,,,,,6,0,120,15,2,0,2,0,,,,,1,25,61,7,,,,,,up,0.5670953646167618,1859.436382033203,None,001,27,2019_Oct_15_1105,ACPT_experiment_5_30_19,3.1.0,59.95417683905207,
,,,C,U,d,n,L,U,d,L,u,,,,,6,0,120,15,2,0,2,0,,,,,1,26,62,20,,,,,,up,0.7672479837428909,1861.2878096076395,None,001,27,2019_Oct_15_1105,ACPT_experiment_5_30_19,3.1.0,59.95417683905207,
,,,C,U,d,n,L,D,y,R,y,,,,,6,0,120,15,2,0,2,0,,,,,1,27,63,33,,,,,,down,0.7503650965854831,1863.3729077505525,None,001,27,2019_Oct_15_1105,ACPT_experiment_5_30_19,3.1.0,59.95417683905207,
,,,C,U,d,n,L,G,d,R,i,,,,,6,0,120,15,2,0,2,0,,,,,1,28,64,17,,,,,,down,1.034136455263706,1865.441000150325,None,001,27,2019_Oct_15_1105,ACPT_experiment_5_30_19,3.1.0,59.95417683905207,
,,,C,U,d,n,L,U,g,L,u,,,,,6,0,120,15,2,0,2,0,,,,,1,29,65,22,,,,,,up,0.5670929497568977,1867.7594461761003,None,001,27,2019_Oct_15_1105,ACPT_experiment_5_30_19,3.1.0,59.95417683905207,
,,,C,U,d,n,R,D,y,L,y,,,,,6,0,120,15,2,0,2,0,,,,,1,30,66,26,,,,,,up,0.517052229186902,1869.6108689208174,None,001,27,2019_Oct_15_1105,ACPT_experiment_5_30_19,3.1.0,59.95417683905207,
,,,C,U,d,n,L,D,g,R,i,,,,,6,0,120,15,2,0,2,0,,,,,1,31,67,15,,,,,,up,0.6502582994198747,1871.4291658290124,None,001,27,2019_Oct_15_1105,ACPT_experiment_5_30_19,3.1.0,59.95417683905207,
,,,C,U,d,n,R,D,y,R,y,,,,,6,0,120,15,2,0,2,0,,,,,1,32,68,27,,,,,,down,0.6838492982719799,1873.3637499992453,None,001,27,2019_Oct_15_1105,ACPT_experiment_5_30_19,3.1.0,59.95417683905207,
,,,C,U,d,n,L,D,g,L,i,,,,,6,0,120,15,2,0,2,0,,,,,1,33,69,14,,,,,,up,0.8339711581243137,1875.3319251683308,None,001,27,2019_Oct_15_1105,ACPT_experiment_5_30_19,3.1.0,59.95417683905207,
,,,C,U,d,n,L,D,d,L,c ,,,,,6,0,120,15,2,0,2,0,,,,,1,34,70,12,,,,,,up,0.4503592405508243,1877.4502191786944,None,001,27,2019_Oct_15_1105,ACPT_experiment_5_30_19,3.1.0,59.95417683905207,
,,,C,U,d,n,R,U,d,L,u,,,,,6,0,120,15,2,0,2,0,,,,,1,35,71,8,,,,,,up,0.45034656253801586,1879.1848810470349,None,001,27,2019_Oct_15_1105,ACPT_experiment_5_30_19,3.1.0,59.95417683905207,
,,,C,U,d,n,,,,,,,,,,6,0,120,15,3,0,3,0,0,0,0,0,,,,,,,,,,,,,,001,27,2019_Oct_15_1105,ACPT_experiment_5_30_19,3.1.0,59.95417683905207,
,,,C,U,d,n,R,D,d,R,c ,,,,,6,0,120,15,3,0,3,0,,,,,0,0,0,1,,,,,,up,0.6001768280939359,1907.1566425844792,None,001,27,2019_Oct_15_1105,ACPT_experiment_5_30_19,3.1.0,59.95417683905207,
,,,C,U,d,n,R,D,g,R,i,,,,,6,0,120,15,3,0,3,0,,,,,0,1,1,3,,,,,,up,0.38365297018663114,1909.0244543775668,None,001,27,2019_Oct_15_1105,ACPT_experiment_5_30_19,3.1.0,59.95417683905207,
,,,C,U,d,n,R,G,d,R,i,,,,,6,0,120,15,3,0,3,0,,,,,0,2,2,5,,,,,,up,0.5337192882684576,1910.6924226535564,None,001,27,2019_Oct_15_1105,ACPT_experiment_5_30_19,3.1.0,59.95417683905207,
,,,C,U,d,n,L,G,y,R,y,,,,,6,0,120,15,3,0,3,0,,,,,0,3,3,35,,,,,,up,0.4503329789527015,1912.5271578128857,None,001,27,2019_Oct_15_1105,ACPT_experiment_5_30_19,3.1.0,59.95417683905207,
,,,C,U,d,n,R,U,d,R,u,,,,,6,0,120,15,3,0,3,0,,,,,0,4,4,9,,,,,,up,0.4667745505194034,1914.3120985673243,None,001,27,2019_Oct_15_1105,ACPT_experiment_5_30_19,3.1.0,59.95417683905207,
,,,C,U,d,n,R,G,y,L,y,,,,,6,0,120,15,3,0,3,0,,,,,0,5,5,28,,,,,,up,0.5504388705462588,1916.0631793679224,None,001,27,2019_Oct_15_1105,ACPT_experiment_5_30_19,3.1.0,59.95417683905207,
,,,C,U,d,n,R,U,g,R,u,,,,,6,0,120,15,3,0,3,0,,,,,0,6,6,11,,,,,,up,0.45034595882316353,1917.8979362609882,None,001,27,2019_Oct_15_1105,ACPT_experiment_5_30_19,3.1.0,59.95417683905207,
,,,C,U,d,n,L,U,g,L,u,,,,,6,0,120,15,3,0,3,0,,,,,0,7,7,22,,,,,,up,0.5003903016822733,1919.632598733044,None,001,27,2019_Oct_15_1105,ACPT_experiment_5_30_19,3.1.0,59.95417683905207,
,,,C,U,d,n,L,G,d,L,i,,,,,6,0,120,15,3,0,3,0,,,,,0,8,8,16,,,,,,up,0.4333851924429837,1921.4342642013364,None,001,27,2019_Oct_15_1105,ACPT_experiment_5_30_19,3.1.0,59.95417683905207,
,,,C,U,d,n,L,D,y,L,y,,,,,6,0,120,15,3,0,3,0,,,,,0,9,9,32,,,,,,up,0.3502630083958138,1923.1519752645934,None,001,27,2019_Oct_15_1105,ACPT_experiment_5_30_19,3.1.0,59.95417683905207,
,,,C,U,d,n,L,U,y,R,u,,,,,6,0,120,15,3,0,3,0,,,,,0,10,10,25,,,,,,down,0.5337470591534839,1924.7865581066537,None,001,27,2019_Oct_15_1105,ACPT_experiment_5_30_19,3.1.0,59.95417683905207,
,,,C,U,d,n,R,D,d,L,c,,,,,6,0,120,15,3,0,3,0,,,,,0,11,11,0,,,,,,up,0.6671547701625968,1926.604639186772,None,001,27,2019_Oct_15_1105,ACPT_experiment_5_30_19,3.1.0,59.95417683905207,
,,,C,U,d,n,L,D,g,L,i,,,,,6,0,120,15,3,0,3,0,,,,,0,12,12,14,,,,,,up,0.7639453613869591,1928.5761145633544,None,001,27,2019_Oct_15_1105,ACPT_experiment_5_30_19,3.1.0,59.95417683905207,
,,,C,U,d,n,R,G,g,R,c ,,,,,6,0,120,15,3,0,3,0,,,,,0,13,13,7,,,,,,up,0.45032392322900705,1930.6243924364182,None,001,27,2019_Oct_15_1105,ACPT_experiment_5_30_19,3.1.0,59.95417683905207,
,,,C,U,d,n,R,U,y,R,u,,,,,6,0,120,15,3,0,3,0,,,,,0,14,14,31,,,,,,down,0.767250398602755,1932.3757249861299,None,001,27,2019_Oct_15_1105,ACPT_experiment_5_30_19,3.1.0,59.95417683905207,
,,,C,U,d,n,R,U,g,L,u,,,,,6,0,120,15,3,0,3,0,,,,,0,15,15,10,,,,,,up,0.5003646437990028,1934.4439939725105,None,001,27,2019_Oct_15_1105,ACPT_experiment_5_30_19,3.1.0,59.95417683905207,
,,,C,U,d,n,R,G,g,L,c ,,,,,6,0,120,15,3,0,3,0,,,,,0,16,16,6,,,,,,up,0.5170703406342909,1936.211993279446,None,001,27,2019_Oct_15_1105,ACPT_experiment_5_30_19,3.1.0,59.95417683905207,
,,,C,U,d,n,L,U,d,L,u,,,,,6,0,120,15,3,0,3,0,,,,,0,17,17,20,,,,,,up,0.4836891327090598,1938.0133970373297,None,001,27,2019_Oct_15_1105,ACPT_experiment_5_30_19,3.1.0,59.95417683905207,
,,,C,U,d,n,L,U,d,R,u,,,,,6,0,120,15,3,0,3,0,,,,,0,18,18,21,,,,,,up,0.4837223370286665,1939.7647078533043,None,001,27,2019_Oct_15_1105,ACPT_experiment_5_30_19,3.1.0,59.95417683905207,
,,,C,U,d,n,L,U,y,L,u,,,,,6,0,120,15,3,0,3,0,,,,,0,19,19,24,,,,,,down,0.6804026899121709,1941.5528534282855,None,001,27,2019_Oct_15_1105,ACPT_experiment_5_30_19,3.1.0,59.95417683905207,
,,,C,U,d,n,L,D,d,R,c ,,,,,6,0,120,15,3,0,3,0,,,,,0,20,20,13,,,,,,up,0.6338233687170032,1943.5176082506093,None,001,27,2019_Oct_15_1105,ACPT_experiment_5_30_19,3.1.0,59.95417683905207,
,,,C,U,d,n,L,U,g,R,u,,,,,6,0,120,15,3,0,3,0,,,,,0,21,21,23,,,,,,up,0.5337392108604035,1945.4357517548485,None,001,27,2019_Oct_15_1105,ACPT_experiment_5_30_19,3.1.0,59.95417683905207,
,,,C,U,d,n,L,G,g,L,c ,,,,,6,0,120,15,3,0,3,0,,,,,0,22,22,18,,,,,,up,0.5837720831364095,1947.2538210625264,None,001,27,2019_Oct_15_1105,ACPT_experiment_5_30_19,3.1.0,59.95417683905207,
,,,C,U,d,n,R,D,y,R,y,,,,,6,0,120,15,3,0,3,0,,,,,0,23,23,27,,,,,,down,0.5670941571870571,1949.1219153941868,None,001,27,2019_Oct_15_1105,ACPT_experiment_5_30_19,3.1.0,59.95417683905207,
,,,C,U,d,n,L,D,y,R,y,,,,,6,0,120,15,3,0,3,0,,,,,0,24,24,33,,,,,,down,0.6838465815549171,1950.9900172722835,None,001,27,2019_Oct_15_1105,ACPT_experiment_5_30_19,3.1.0,59.95417683905207,
,,,C,U,d,n,R,D,g,L,i,,,,,6,0,120,15,3,0,3,0,,,,,0,25,25,2,,,,,,up,0.6338100869893424,1952.9748758007524,None,001,27,2019_Oct_15_1105,ACPT_experiment_5_30_19,3.1.0,59.95417683905207,
,,,C,U,d,n,R,U,d,L,u,,,,,6,0,120,15,3,0,3,0,,,,,0,26,26,8,,,,,,up,0.5470152033526574,1954.9298184448182,None,001,27,2019_Oct_15_1105,ACPT_experiment_5_30_19,3.1.0,59.95417683905207,
,,,C,U,d,n,L,G,d,R,i,,,,,6,0,120,15,3,0,3,0,,,,,0,27,27,17,,,,,,down,0.8339666302626938,1956.7611190700861,None,001,27,2019_Oct_15_1105,ACPT_experiment_5_30_19,3.1.0,59.95417683905207,
,,,C,U,d,n,L,G,y,L,y,,,,,6,0,120,15,3,0,3,0,,,,,0,28,28,34,,,,,,down,0.783957302867293,1958.8794112693047,None,001,27,2019_Oct_15_1105,ACPT_experiment_5_30_19,3.1.0,59.95417683905207,
,,,C,U,d,n,R,U,y,L,u,,,,,6,0,120,15,3,0,3,0,,,,,0,29,29,30,,,,,,down,0.7670792454287039,1960.9644789246147,None,001,27,2019_Oct_15_1105,ACPT_experiment_5_30_19,3.1.0,59.95417683905207,
,,,C,U,d,n,L,D,d,L,c ,,,,,6,0,120,15,3,0,3,0,,,,,0,30,30,12,,,,,,up,0.6671759001837927,1963.032596378556,None,001,27,2019_Oct_15_1105,ACPT_experiment_5_30_19,3.1.0,59.95417683905207,
,,,C,U,d,n,L,D,g,R,i,,,,,6,0,120,15,3,0,3,0,,,,,0,31,31,15,,,,,,up,0.5671146834934007,1964.9673951694356,None,001,27,2019_Oct_15_1105,ACPT_experiment_5_30_19,3.1.0,59.95417683905207,
,,,C,U,d,n,R,G,y,R,y,,,,,6,0,120,15,3,0,3,0,,,,,0,32,32,29,,,,,,down,0.7172123947498221,1966.8188336107403,None,001,27,2019_Oct_15_1105,ACPT_experiment_5_30_19,3.1.0,59.95417683905207,
,,,C,U,d,n,R,G,d,L,i,,,,,6,0,120,15,3,0,3,0,,,,,0,33,33,4,,,,,,up,0.6504759386407386,1968.8203872710335,None,001,27,2019_Oct_15_1105,ACPT_experiment_5_30_19,3.1.0,59.95417683905207,
,,,C,U,d,n,R,D,y,L,y,,,,,6,0,120,15,3,0,3,0,,,,,0,34,34,26,,,,,,down,0.6671749946117416,1970.7551881749157,None,001,27,2019_Oct_15_1105,ACPT_experiment_5_30_19,3.1.0,59.95417683905207,
,,,C,U,d,n,L,G,g,R,c ,,,,,6,0,120,15,3,0,3,0,,,,,0,35,35,19,,,,,,up,0.4836939624283332,1972.7066908514855,None,001,27,2019_Oct_15_1105,ACPT_experiment_5_30_19,3.1.0,59.95417683905207,
,,,C,U,d,n,L,D,d,R,c ,,,,,6,0,120,15,3,0,3,0,,,,,1,0,36,13,,,,,,up,0.6171858916659403,1974.4747200423083,None,001,27,2019_Oct_15_1105,ACPT_experiment_5_30_19,3.1.0,59.95417683905207,
,,,C,U,d,n,L,G,y,L,y,,,,,6,0,120,15,3,0,3,0,,,,,1,1,37,34,,,,,,down,0.8171794319164292,1976.3761726407276,None,001,27,2019_Oct_15_1105,ACPT_experiment_5_30_19,3.1.0,59.95417683905207,
,,,C,U,d,n,R,G,y,L,y,,,,,6,0,120,15,3,0,3,0,,,,,1,2,38,28,,,,,,down,0.6171496687720719,1978.4777748396984,None,001,27,2019_Oct_15_1105,ACPT_experiment_5_30_19,3.1.0,59.95417683905207,
,,,C,U,d,n,R,G,g,R,c ,,,,,6,0,120,15,3,0,3,0,,,,,1,3,39,7,,,,,,up,0.4803846992081162,1980.3992454167476,None,001,27,2019_Oct_15_1105,ACPT_experiment_5_30_19,3.1.0,59.95417683905207,
,,,C,U,d,n,L,U,d,L,u,,,,,6,0,120,15,3,0,3,0,,,,,1,4,40,20,,,,,,up,0.5837696682770002,1982.1639611183457,None,001,27,2019_Oct_15_1105,ACPT_experiment_5_30_19,3.1.0,59.95417683905207,
,,,C,U,d,n,R,U,y,L,u,,,,,6,0,120,15,3,0,3,0,,,,,1,5,41,30,,,,,,down,0.8006059486442609,1984.0320551481489,None,001,27,2019_Oct_15_1105,ACPT_experiment_5_30_19,3.1.0,59.95417683905207,
,,,C,U,d,n,R,G,y,R,y,,,,,6,0,120,15,3,0,3,0,,,,,1,6,42,29,,,,,,up,0.6671707686073205,1986.1336636861263,None,001,27,2019_Oct_15_1105,ACPT_experiment_5_30_19,3.1.0,59.95417683905207,
,,,C,U,d,n,L,U,d,R,u,,,,,6,0,120,15,3,0,3,0,,,,,1,7,43,21,,,,,,up,0.6337995219787445,1988.101857268516,None,001,27,2019_Oct_15_1105,ACPT_experiment_5_30_19,3.1.0,59.95417683905207,
,,,C,U,d,n,R,G,d,L,i,,,,,6,0,120,15,3,0,3,0,,,,,1,8,44,4,,,,,,up,0.4503332808099003,1990.0199853780252,None,001,27,2019_Oct_15_1105,ACPT_experiment_5_30_19,3.1.0,59.95417683905207,
,,,C,U,d,n,R,U,y,R,u,,,,,6,0,120,15,3,0,3,0,,,,,1,9,45,31,,,,,,down,0.5504117033756302,1991.7713290964623,None,001,27,2019_Oct_15_1105,ACPT_experiment_5_30_19,3.1.0,59.95417683905207,
,,,C,U,d,n,L,U,y,L,u,,,,,6,0,120,15,3,0,3,0,,,,,1,10,46,24,,,,,,down,0.5837530661169694,1993.6394433507141,None,001,27,2019_Oct_15_1105,ACPT_experiment_5_30_19,3.1.0,59.95417683905207,
,,,C,U,d,n,R,D,d,R,c ,,,,,6,0,120,15,3,0,3,0,,,,,1,11,47,1,,,,,,up,0.5837947224449636,1995.5075111189192,None,001,27,2019_Oct_15_1105,ACPT_experiment_5_30_19,3.1.0,59.95417683905207,
,,,C,U,d,n,R,G,d,R,i,,,,,6,0,120,15,3,0,3,0,,,,,1,12,48,5,,,,,,up,0.8172917228876031,1997.3756253731715,None,001,27,2019_Oct_15_1105,ACPT_experiment_5_30_19,3.1.0,59.95417683905207,
,,,C,U,d,n,L,D,y,L,y,,,,,6,0,120,15,3,0,3,0,,,,,1,13,49,32,,,,,,down,0.8172859875962786,1999.4939230058242,None,001,27,2019_Oct_15_1105,ACPT_experiment_5_30_19,3.1.0,59.95417683905207,
,,,C,U,d,n,R,D,d,L,c,,,,,6,0,120,15,3,0,3,0,,,,,1,14,50,0,,,,,,up,0.8840064452601837,2001.6122124883257,None,001,27,2019_Oct_15_1105,ACPT_experiment_5_30_19,3.1.0,59.95417683905207,
,,,C,U,d,n,R,G,g,L,c ,,,,,6,0,120,15,3,0,3,0,,,,,1,15,51,6,,,,,,up,0.5170594737660394,2003.7805490304038,None,001,27,2019_Oct_15_1105,ACPT_experiment_5_30_19,3.1.0,59.95417683905207,
,,,C,U,d,n,R,U,g,R,u,,,,,6,0,120,15,3,0,3,0,,,,,1,16,52,11,,,,,,up,0.5837627255555162,2005.5819392047022,None,001,27,2019_Oct_15_1105,ACPT_experiment_5_30_19,3.1.0,59.95417683905207,
,,,C,U,d,n,R,D,g,L,i,,,,,6,0,120,15,3,0,3,0,,,,,1,17,53,2,,,,,,up,0.4670121123322133,2007.4500398753692,None,001,27,2019_Oct_15_1105,ACPT_experiment_5_30_19,3.1.0,59.95417683905207,
,,,C,U,d,n,L,G,g,R,c ,,,,,6,0,120,15,3,0,3,0,,,,,1,18,54,19,,,,,,up,0.45034022353138425,2009.2013739343677,None,001,27,2019_Oct_15_1105,ACPT_experiment_5_30_19,3.1.0,59.95417683905207,
,,,C,U,d,n,L,D,g,R,i,,,,,6,0,120,15,3,0,3,0,,,,,1,19,55,15,,,,,,up,0.517073057350899,2010.9360282562723,None,001,27,2019_Oct_15_1105,ACPT_experiment_5_30_19,3.1.0,59.95417683905207,
,,,C,U,d,n,R,U,d,L,u,,,,,6,0,120,15,3,0,3,0,,,,,1,20,56,8,,,,,,up,0.5833144672424169,2012.7545403888287,None,001,27,2019_Oct_15_1105,ACPT_experiment_5_30_19,3.1.0,59.95417683905207,
,,,C,U,d,n,L,D,d,L,c ,,,,,6,0,120,15,3,0,3,0,,,,,1,21,57,12,,,,,,up,0.4836942642859867,2014.6222006494766,None,001,27,2019_Oct_15_1105,ACPT_experiment_5_30_19,3.1.0,59.95417683905207,
,,,C,U,d,n,L,D,y,R,y,,,,,6,0,120,15,3,0,3,0,,,,,1,22,58,33,,,,,,down,0.4503381105291737,2016.3902286328696,None,001,27,2019_Oct_15_1105,ACPT_experiment_5_30_19,3.1.0,59.95417683905207,
,,,C,U,d,n,L,G,d,R,i,,,,,6,0,120,15,3,0,3,0,,,,,1,23,59,17,,,,,,up,0.6171391037610192,2018.1248886900655,None,001,27,2019_Oct_15_1105,ACPT_experiment_5_30_19,3.1.0,59.95417683905207,
,,,C,U,d,n,L,G,y,R,y,,,,,6,0,120,15,3,0,3,0,,,,,1,24,60,35,,,,,,down,0.5137390418199175,2020.046352928108,None,001,27,2019_Oct_15_1105,ACPT_experiment_5_30_19,3.1.0,59.95417683905207,
,,,C,U,d,n,L,U,g,L,u,,,,,6,0,120,15,3,0,3,0,,,,,1,25,61,22,,,,,,up,0.6838598632830326,2021.844413614737,None,001,27,2019_Oct_15_1105,ACPT_experiment_5_30_19,3.1.0,59.95417683905207,
,,,C,U,d,n,R,D,y,R,y,,,,,6,0,120,15,3,0,3,0,,,,,1,26,62,27,,,,,,down,0.8506385190630681,2023.8125981414034,None,001,27,2019_Oct_15_1105,ACPT_experiment_5_30_19,3.1.0,59.95417683905207,
,,,C,U,d,n,L,G,d,L,i,,,,,6,0,120,15,3,0,3,0,,,,,1,27,63,16,,,,,,up,0.633803446125512,2025.9475752092928,None,001,27,2019_Oct_15_1105,ACPT_experiment_5_30_19,3.1.0,59.95417683905207,
,,,C,U,d,n,L,U,y,R,u,,,,,6,0,120,15,3,0,3,0,,,,,1,28,64,25,,,,,,down,0.7172314117692622,2027.8823661518788,None,001,27,2019_Oct_15_1105,ACPT_experiment_5_30_19,3.1.0,59.95417683905207,
,,,C,U,d,n,L,D,g,L,i,,,,,6,0,120,15,3,0,3,0,,,,,1,29,65,14,,,,,,up,0.5504098922306184,2029.9006049827005,None,001,27,2019_Oct_15_1105,ACPT_experiment_5_30_19,3.1.0,59.95417683905207,
,,,C,U,d,n,L,U,g,R,u,,,,,6,0,120,15,3,0,3,0,,,,,1,30,66,23,,,,,,down,0.45033841238682726,2031.7186634235102,None,001,27,2019_Oct_15_1105,ACPT_experiment_5_30_19,3.1.0,59.95417683905207,
,,,C,U,d,n,R,D,g,R,i,,,,,6,0,120,15,3,0,3,0,,,,,1,31,67,3,,,,,,up,0.3335874973058708,2033.453326801138,None,001,27,2019_Oct_15_1105,ACPT_experiment_5_30_19,3.1.0,59.95417683905207,
,,,C,U,d,n,L,G,g,L,c ,,,,,6,0,120,15,3,0,3,0,,,,,1,32,68,18,,,,,,up,0.48354816527989897,2035.0713548750884,None,001,27,2019_Oct_15_1105,ACPT_experiment_5_30_19,3.1.0,59.95417683905207,
,,,C,U,d,n,R,U,d,R,u,,,,,6,0,120,15,3,0,3,0,,,,,1,33,69,9,,,,,,up,0.33340789212343225,2036.839410629367,None,001,27,2019_Oct_15_1105,ACPT_experiment_5_30_19,3.1.0,59.95417683905207,
,,,C,U,d,n,R,U,g,L,u,,,,,6,0,120,15,3,0,3,0,,,,,1,34,70,10,,,,,,up,0.9004389611031911,2038.457432062453,None,001,27,2019_Oct_15_1105,ACPT_experiment_5_30_19,3.1.0,59.95417683905207,
,,,C,U,d,n,R,D,y,L,y,,,,,6,0,120,15,3,0,3,0,,,,,1,35,71,26,,,,,,down,0.6838628818572943,2040.6421757643482,None,001,27,2019_Oct_15_1105,ACPT_experiment_5_30_19,3.1.0,59.95417683905207,
,,,C,U,d,n,,,,,,,,,,6,0,120,15,4,0,4,0,0,0,0,0,,,,,,,,,,,,,,001,27,2019_Oct_15_1105,ACPT_experiment_5_30_19,3.1.0,59.95417683905207,
,,,C,U,d,n,L,U,g,R,u,,,,,6,0,120,15,4,0,4,0,,,,,0,0,0,23,,,,,,up,0.5835106745848861,2062.575956691908,None,001,27,2019_Oct_15_1105,ACPT_experiment_5_30_19,3.1.0,59.95417683905207,
,,,C,U,d,n,R,D,d,R,c ,,,,,6,0,120,15,4,0,4,0,,,,,0,1,1,1,,,,,,up,0.3502838365598109,2064.443766070136,None,001,27,2019_Oct_15_1105,ACPT_experiment_5_30_19,3.1.0,59.95417683905207,
,,,C,U,d,n,R,G,d,R,i,,,,,6,0,120,15,4,0,4,0,,,,,0,2,2,5,,,,,,down,0.7672350038724289,2066.078392379669,None,001,27,2019_Oct_15_1105,ACPT_experiment_5_30_19,3.1.0,59.95417683905207,
,,,C,U,d,n,R,D,g,L,i,,,,,6,0,120,15,4,0,4,0,,,,,0,3,3,2,,,,,,up,0.550403251366788,2068.129967441656,None,001,27,2019_Oct_15_1105,ACPT_experiment_5_30_19,3.1.0,59.95417683905207,
,,,C,U,d,n,L,D,g,L,i,,,,,6,0,120,15,4,0,4,0,,,,,0,4,4,14,,,,,,up,0.5003794348144766,2069.9646959601214,None,001,27,2019_Oct_15_1105,ACPT_experiment_5_30_19,3.1.0,59.95417683905207,
,,,C,U,d,n,R,D,g,R,i,,,,,6,0,120,15,4,0,4,0,,,,,0,5,5,3,,,,,,up,0.3835569795178344,2071.7494592223793,None,001,27,2019_Oct_15_1105,ACPT_experiment_5_30_19,3.1.0,59.95417683905207,
,,,C,U,d,n,R,U,g,R,u,,,,,6,0,120,15,4,0,4,0,,,,,0,6,6,11,,,,,,up,0.4669131030882454,2073.4173456949993,None,001,27,2019_Oct_15_1105,ACPT_experiment_5_30_19,3.1.0,59.95417683905207,
,,,C,U,d,n,R,G,g,L,c ,,,,,6,0,120,15,4,0,4,0,,,,,0,7,7,6,,,,,,up,0.48343225201961104,2075.1689568591373,None,001,27,2019_Oct_15_1105,ACPT_experiment_5_30_19,3.1.0,59.95417683905207,
,,,C,U,d,n,L,G,g,R,c ,,,,,6,0,120,15,4,0,4,0,,,,,0,8,8,19,,,,,,down,0.5837841574343656,2076.9367110578232,None,001,27,2019_Oct_15_1105,ACPT_experiment_5_30_19,3.1.0,59.95417683905207,
,,,C,U,d,n,L,U,g,L,u,,,,,6,0,120,15,4,0,4,0,,,,,0,9,9,22,,,,,,up,0.3503399820456252,2078.804816256352,None,001,27,2019_Oct_15_1105,ACPT_experiment_5_30_19,3.1.0,59.95417683905207,
,,,C,U,d,n,R,G,d,L,i,,,,,6,0,120,15,4,0,4,0,,,,,0,10,10,4,,,,,,up,0.5337377015725906,2080.4394021169865,None,001,27,2019_Oct_15_1105,ACPT_experiment_5_30_19,3.1.0,59.95417683905207,
,,,C,U,d,n,L,G,g,L,c ,,,,,6,0,120,15,4,0,4,0,,,,,0,11,11,18,,,,,,up,0.43316423279020455,2082.2745010145427,None,001,27,2019_Oct_15_1105,ACPT_experiment_5_30_19,3.1.0,59.95417683905207,
,,,C,U,d,n,L,U,d,R,u,,,,,6,0,120,15,4,0,4,0,,,,,0,12,12,21,,,,,,down,0.517087848365918,2083.992104918405,None,001,27,2019_Oct_15_1105,ACPT_experiment_5_30_19,3.1.0,59.95417683905207,
,,,C,U,d,n,R,U,y,R,u,,,,,6,0,120,15,4,0,4,0,,,,,0,13,13,31,,,,,,up,0.38361825658012094,2085.810195959819,None,001,27,2019_Oct_15_1105,ACPT_experiment_5_30_19,3.1.0,59.95417683905207,
,,,C,U,d,n,L,D,y,L,y,,,,,6,0,120,15,4,0,4,0,,,,,0,14,14,32,,,,,,up,0.5003718883781403,2087.4948243521685,None,001,27,2019_Oct_15_1105,ACPT_experiment_5_30_19,3.1.0,59.95417683905207,
,,,C,U,d,n,L,D,y,R,y,,,,,6,0,120,15,4,0,4,0,,,,,0,15,15,33,,,,,,up,0.7335664276556599,2089.2965513993813,None,001,27,2019_Oct_15_1105,ACPT_experiment_5_30_19,3.1.0,59.95417683905207,
,,,C,U,d,n,L,G,y,R,y,,,,,6,0,120,15,4,0,4,0,,,,,0,16,16,35,,,,,,down,0.5337413238626141,2091.3311026067804,None,001,27,2019_Oct_15_1105,ACPT_experiment_5_30_19,3.1.0,59.95417683905207,
,,,C,U,d,n,L,D,g,R,i,,,,,6,0,120,15,4,0,4,0,,,,,0,17,17,15,,,,,,up,0.617133972184547,2093.16583655868,None,001,27,2019_Oct_15_1105,ACPT_experiment_5_30_19,3.1.0,59.95417683905207,
,,,C,U,d,n,L,D,d,R,c ,,,,,6,0,120,15,4,0,4,0,,,,,0,18,18,13,,,,,,up,0.43369791676104796,2095.050603382856,None,001,27,2019_Oct_15_1105,ACPT_experiment_5_30_19,3.1.0,59.95417683905207,
,,,C,U,d,n,L,G,d,R,i,,,,,6,0,120,15,4,0,4,0,,,,,0,19,19,17,,,,,,up,0.48369818843275425,2096.7686060404094,None,001,27,2019_Oct_15_1105,ACPT_experiment_5_30_19,3.1.0,59.95417683905207,
,,,C,U,d,n,R,G,y,R,y,,,,,6,0,120,15,4,0,4,0,,,,,0,20,20,29,,,,,,down,0.7005296390811964,2098.5366300996557,None,001,27,2019_Oct_15_1105,ACPT_experiment_5_30_19,3.1.0,59.95417683905207,
,,,C,U,d,n,L,D,d,L,c ,,,,,6,0,120,15,4,0,4,0,,,,,0,21,21,12,,,,,,up,0.5671240410742939,2100.5214886281246,None,001,27,2019_Oct_15_1105,ACPT_experiment_5_30_19,3.1.0,59.95417683905207,
,,,C,U,d,n,R,U,d,L,u,,,,,6,0,120,15,4,0,4,0,,,,,0,22,22,8,,,,,,up,0.5001222522669195,2102.3731685553885,None,001,27,2019_Oct_15_1105,ACPT_experiment_5_30_19,3.1.0,59.95417683905207,
,,,C,U,d,n,R,G,y,L,y,,,,,6,0,120,15,4,0,4,0,,,,,0,23,23,28,,,,,,up,0.41680718130965033,2104.174428629127,None,001,27,2019_Oct_15_1105,ACPT_experiment_5_30_19,3.1.0,59.95417683905207,
,,,C,U,d,n,R,U,d,R,u,,,,,6,0,120,15,4,0,4,0,,,,,0,24,24,9,,,,,,up,0.5670902330398349,2105.908958283904,None,001,27,2019_Oct_15_1105,ACPT_experiment_5_30_19,3.1.0,59.95417683905207,
,,,C,U,d,n,R,D,y,L,y,,,,,6,0,120,15,4,0,4,0,,,,,0,25,25,26,,,,,,down,0.6338100869893424,2107.7603870657704,None,001,27,2019_Oct_15_1105,ACPT_experiment_5_30_19,3.1.0,59.95417683905207,
,,,C,U,d,n,R,U,g,L,u,,,,,6,0,120,15,4,0,4,0,,,,,0,26,26,10,,,,,,down,0.5804715737822335,2109.6985111183158,None,001,27,2019_Oct_15_1105,ACPT_experiment_5_30_19,3.1.0,59.95417683905207,
,,,C,U,d,n,L,G,d,L,i,,,,,6,0,120,15,4,0,4,0,,,,,0,27,27,16,,,,,,up,0.5503836306329504,2111.5633260706427,None,001,27,2019_Oct_15_1105,ACPT_experiment_5_30_19,3.1.0,59.95417683905207,
,,,C,U,d,n,R,G,g,R,c ,,,,,6,0,120,15,4,0,4,0,,,,,0,28,28,7,,,,,,up,0.5837588014087487,2113.398053683536,None,001,27,2019_Oct_15_1105,ACPT_experiment_5_30_19,3.1.0,59.95417683905207,
,,,C,U,d,n,L,G,y,L,y,,,,,6,0,120,15,4,0,4,0,,,,,0,29,29,34,,,,,,down,0.5003906035399268,2115.2661413743326,None,001,27,2019_Oct_15_1105,ACPT_experiment_5_30_19,3.1.0,59.95417683905207,
,,,C,U,d,n,R,D,y,R,y,,,,,6,0,120,15,4,0,4,0,,,,,0,30,30,27,,,,,,down,0.550168406271041,2117.067772430876,None,001,27,2019_Oct_15_1105,ACPT_experiment_5_30_19,3.1.0,59.95417683905207,
,,,C,U,d,n,L,U,y,L,u,,,,,6,0,120,15,4,0,4,0,,,,,0,31,31,24,,,,,,down,0.5837720831364095,2118.918951576632,None,001,27,2019_Oct_15_1105,ACPT_experiment_5_30_19,3.1.0,59.95417683905207,
,,,C,U,d,n,L,U,d,L,u,,,,,6,0,120,15,4,0,4,0,,,,,0,32,32,20,,,,,,down,0.5837660459874314,2120.803734097395,None,001,27,2019_Oct_15_1105,ACPT_experiment_5_30_19,3.1.0,59.95417683905207,
,,,C,U,d,n,R,U,y,L,u,,,,,6,0,120,15,4,0,4,0,,,,,0,33,33,30,,,,,,down,0.6171378963313146,2122.67182903277,None,001,27,2019_Oct_15_1105,ACPT_experiment_5_30_19,3.1.0,59.95417683905207,
,,,C,U,d,n,R,D,d,L,c,,,,,6,0,120,15,4,0,4,0,,,,,0,34,34,0,,,,,,up,0.5837784221425864,2124.573289177626,None,001,27,2019_Oct_15_1105,ACPT_experiment_5_30_19,3.1.0,59.95417683905207,
,,,C,U,d,n,L,U,y,R,u,,,,,6,0,120,15,4,0,4,0,,,,,0,35,35,25,,,,,,down,0.783932852414182,2126.441390452007,None,001,27,2019_Oct_15_1105,ACPT_experiment_5_30_19,3.1.0,59.95417683905207,
,,,C,U,d,n,R,U,d,R,u,,,,,6,0,120,15,4,0,4,0,,,,,1,0,36,9,,,,,,up,0.6004439719367838,2128.5096549105265,None,001,27,2019_Oct_15_1105,ACPT_experiment_5_30_19,3.1.0,59.95417683905207,
,,,C,U,d,n,L,U,g,L,u,,,,,6,0,120,15,4,0,4,0,,,,,1,1,37,22,,,,,,up,0.51661453588531,2130.411513809073,None,001,27,2019_Oct_15_1105,ACPT_experiment_5_30_19,3.1.0,59.95417683905207,
,,,C,U,d,n,R,G,y,R,y,,,,,6,0,120,15,4,0,4,0,,,,,1,2,38,29,,,,,,down,0.6838384314037285,2132.212501909248,None,001,27,2019_Oct_15_1105,ACPT_experiment_5_30_19,3.1.0,59.95417683905207,
,,,C,U,d,n,L,D,d,L,c ,,,,,6,0,120,15,4,0,4,0,,,,,1,3,39,12,,,,,,up,0.5001998296315833,2134.180813216044,None,001,27,2019_Oct_15_1105,ACPT_experiment_5_30_19,3.1.0,59.95417683905207,
,,,C,U,d,n,R,D,g,L,i,,,,,6,0,120,15,4,0,4,0,,,,,1,4,40,2,,,,,,up,0.5837965335899753,2135.9653503870722,None,001,27,2019_Oct_15_1105,ACPT_experiment_5_30_19,3.1.0,59.95417683905207,
,,,C,U,d,n,L,D,y,R,y,,,,,6,0,120,15,4,0,4,0,,,,,1,5,41,33,,,,,,down,0.6838492982719799,2137.8334691691853,None,001,27,2019_Oct_15_1105,ACPT_experiment_5_30_19,3.1.0,59.95417683905207,
,,,C,U,d,n,R,G,d,R,i,,,,,6,0,120,15,4,0,4,0,,,,,1,6,42,5,,,,,,up,0.9840824529660495,2139.801654903282,None,001,27,2019_Oct_15_1105,ACPT_experiment_5_30_19,3.1.0,59.95417683905207,
,,,C,U,d,n,R,U,g,L,u,,,,,6,0,120,15,4,0,4,0,,,,,1,7,43,10,,,,,,down,1.1508885777743671,2142.0700505490486,None,001,27,2019_Oct_15_1105,ACPT_experiment_5_30_19,3.1.0,59.95417683905207,
,,,C,U,d,n,R,G,g,R,c ,,,,,6,0,120,15,4,0,4,0,,,,,1,8,44,7,,,,,,up,0.9507308270713111,2144.505266808781,None,001,27,2019_Oct_15_1105,ACPT_experiment_5_30_19,3.1.0,59.95417683905207,
,,,C,U,d,n,R,G,g,L,c ,,,,,6,0,120,15,4,0,4,0,,,,,1,9,45,6,,,,,,up,0.6338318207258453,2146.723612980112,None,001,27,2019_Oct_15_1105,ACPT_experiment_5_30_19,3.1.0,59.95417683905207,
,,,C,U,d,n,R,D,y,R,y,,,,,6,0,120,15,4,0,4,0,,,,,1,10,46,27,,,,,,down,0.6171442353379462,2148.6417640307873,None,001,27,2019_Oct_15_1105,ACPT_experiment_5_30_19,3.1.0,59.95417683905207,
,,,C,U,d,n,L,U,g,R,u,,,,,6,0,120,15,4,0,4,0,,,,,1,11,47,23,,,,,,up,0.6004521220884271,2150.54322568493,None,001,27,2019_Oct_15_1105,ACPT_experiment_5_30_19,3.1.0,59.95417683905207,
,,,C,U,d,n,L,U,d,R,u,,,,,6,0,120,15,4,0,4,0,,,,,1,12,48,21,,,,,,up,0.6838607688550837,2152.428012733555,None,001,27,2019_Oct_15_1105,ACPT_experiment_5_30_19,3.1.0,59.95417683905207,
,,,C,U,d,n,R,U,d,L,u,,,,,6,0,120,15,4,0,4,0,,,,,1,13,49,8,,,,,,up,0.5170440790361681,2154.3961969583634,None,001,27,2019_Oct_15_1105,ACPT_experiment_5_30_19,3.1.0,59.95417683905207,
,,,C,U,d,n,L,D,g,R,i,,,,,6,0,120,15,4,0,4,0,,,,,1,14,50,15,,,,,,up,0.7005380910895838,2156.1975693230725,None,001,27,2019_Oct_15_1105,ACPT_experiment_5_30_19,3.1.0,59.95417683905207,
,,,C,U,d,n,L,U,y,R,u,,,,,6,0,120,15,4,0,4,0,,,,,1,15,51,25,,,,,,down,0.6671768057567533,2158.1824239273947,None,001,27,2019_Oct_15_1105,ACPT_experiment_5_30_19,3.1.0,59.95417683905207,
,,,C,U,d,n,R,D,y,L,y,,,,,6,0,120,15,4,0,4,0,,,,,1,16,52,26,,,,,,down,0.6171381981885133,2160.1339187556714,None,001,27,2019_Oct_15_1105,ACPT_experiment_5_30_19,3.1.0,59.95417683905207,
,,,C,U,d,n,R,G,y,L,y,,,,,6,0,120,15,4,0,4,0,,,,,1,17,53,28,,,,,,down,0.6337943904022723,2162.018718482309,None,001,27,2019_Oct_15_1105,ACPT_experiment_5_30_19,3.1.0,59.95417683905207,
,,,C,U,d,n,R,U,g,R,u,,,,,6,0,120,15,4,0,4,0,,,,,1,18,54,11,,,,,,up,0.4503592405508243,2163.9368348193775,None,001,27,2019_Oct_15_1105,ACPT_experiment_5_30_19,3.1.0,59.95417683905207,
,,,C,U,d,n,R,U,y,L,u,,,,,6,0,120,15,4,0,4,0,,,,,1,19,55,30,,,,,,down,0.583764536700528,2165.671521741887,None,001,27,2019_Oct_15_1105,ACPT_experiment_5_30_19,3.1.0,59.95417683905207,
,,,C,U,d,n,R,D,g,R,i,,,,,6,0,120,15,4,0,4,0,,,,,1,20,56,3,,,,,,up,0.6834454130043923,2167.556663171157,None,001,27,2019_Oct_15_1105,ACPT_experiment_5_30_19,3.1.0,59.95417683905207,
,,,C,U,d,n,L,U,y,L,u,,,,,6,0,120,15,4,0,4,0,,,,,1,21,57,24,,,,,,down,0.7005317520834069,2169.5244676592947,None,001,27,2019_Oct_15_1105,ACPT_experiment_5_30_19,3.1.0,59.95417683905207,
,,,C,U,d,n,L,U,d,L,u,,,,,6,0,120,15,4,0,4,0,,,,,1,22,58,20,,,,,,up,0.5670962701892677,2171.509322263617,None,001,27,2019_Oct_15_1105,ACPT_experiment_5_30_19,3.1.0,59.95417683905207,
,,,C,U,d,n,L,D,y,L,y,,,,,6,0,120,15,4,0,4,0,,,,,1,23,59,32,,,,,,down,0.5002393729573669,2173.3775590719933,None,001,27,2019_Oct_15_1105,ACPT_experiment_5_30_19,3.1.0,59.95417683905207,
,,,C,U,d,n,R,U,y,R,u,,,,,6,0,120,15,4,0,4,0,,,,,1,24,60,31,,,,,,down,0.5670878181804255,2175.195494053107,None,001,27,2019_Oct_15_1105,ACPT_experiment_5_30_19,3.1.0,59.95417683905207,
,,,C,U,d,n,L,G,y,L,y,,,,,6,0,120,15,4,0,4,0,,,,,1,25,61,34,,,,,,down,0.6338091814168365,2177.0469177033965,None,001,27,2019_Oct_15_1105,ACPT_experiment_5_30_19,3.1.0,59.95417683905207,
,,,C,U,d,n,L,D,g,L,i,,,,,6,0,120,15,4,0,4,0,,,,,1,26,62,14,,,,,,up,0.36695331050077584,2178.9650436999027,None,001,27,2019_Oct_15_1105,ACPT_experiment_5_30_19,3.1.0,59.95417683905207,
,,,C,U,d,n,R,G,d,L,i,,,,,6,0,120,15,4,0,4,0,,,,,1,27,63,4,,,,,,up,0.6171363870444111,2180.6163126180636,None,001,27,2019_Oct_15_1105,ACPT_experiment_5_30_19,3.1.0,59.95417683905207,
,,,C,U,d,n,L,D,d,R,c ,,,,,6,0,120,15,4,0,4,0,,,,,1,28,64,13,,,,,,up,0.5835227488828423,2182.5347051546987,None,001,27,2019_Oct_15_1105,ACPT_experiment_5_30_19,3.1.0,59.95417683905207,
,,,C,U,d,n,L,G,d,L,i,,,,,6,0,120,15,4,0,4,0,,,,,1,29,65,16,,,,,,up,1.1008807596663246,2184.4025549818252,None,001,27,2019_Oct_15_1105,ACPT_experiment_5_30_19,3.1.0,59.95417683905207,
,,,C,U,d,n,L,G,g,L,c ,,,,,6,0,120,15,4,0,4,0,,,,,1,30,66,18,,,,,,up,0.4837235444583712,2186.7710151647143,None,001,27,2019_Oct_15_1105,ACPT_experiment_5_30_19,3.1.0,59.95417683905207,
,,,C,U,d,n,R,D,d,R,c ,,,,,6,0,120,15,4,0,4,0,,,,,1,31,67,1,,,,,,up,0.7172181300416014,2188.539061863269,None,001,27,2019_Oct_15_1105,ACPT_experiment_5_30_19,3.1.0,59.95417683905207,
,,,C,U,d,n,L,G,d,R,i,,,,,6,0,120,15,4,0,4,0,,,,,1,32,68,17,,,,,,up,0.5337271365624474,2190.5406106938435,None,001,27,2019_Oct_15_1105,ACPT_experiment_5_30_19,3.1.0,59.95417683905207,
,,,C,U,d,n,L,G,y,R,y,,,,,6,0,120,15,4,0,4,0,,,,,1,33,69,35,,,,,,down,0.8673584031980681,2192.3419561932396,None,001,27,2019_Oct_15_1105,ACPT_experiment_5_30_19,3.1.0,59.95417683905207,
,,,C,U,d,n,L,G,g,R,c ,,,,,6,0,120,15,4,0,4,0,,,,,1,34,70,19,,,,,,up,1.167561372147702,2194.4936362412473,None,001,27,2019_Oct_15_1105,ACPT_experiment_5_30_19,3.1.0,59.95417683905207,
,,,C,U,d,n,R,D,d,L,c,,,,,6,0,120,15,4,0,4,0,,,,,1,35,71,0,,,,,,up,1.0007821126523595,2196.945522578635,None,001,27,2019_Oct_15_1105,ACPT_experiment_5_30_19,3.1.0,59.95417683905207,
,,,C,U,d,n,,,,,,,,,,6,0,120,15,5,0,5,0,0,0,0,0,,,,,,,,,,,,,,001,27,2019_Oct_15_1105,ACPT_experiment_5_30_19,3.1.0,59.95417683905207,
,,,C,U,d,n,R,U,d,R,u,,,,,6,0,120,15,5,0,5,0,,,,,0,0,0,9,,,,,,up,0.5137345139578429,2244.5353782968114,None,001,27,2019_Oct_15_1105,ACPT_experiment_5_30_19,3.1.0,59.95417683905207,
,,,C,U,d,n,R,U,g,R,u,,,,,6,0,120,15,5,0,5,0,,,,,0,1,1,11,,,,,,down,0.4837003014349648,2246.3334383797255,None,001,27,2019_Oct_15_1105,ACPT_experiment_5_30_19,3.1.0,59.95417683905207,
,,,C,U,d,n,R,G,y,L,y,,,,,6,0,120,15,5,0,5,0,,,,,0,2,2,28,,,,,,down,0.6004439719367838,2248.1014766262724,None,001,27,2019_Oct_15_1105,ACPT_experiment_5_30_19,3.1.0,59.95417683905207,
,,,C,U,d,n,R,D,g,L,i,,,,,6,0,120,15,5,0,5,0,,,,,0,3,3,2,,,,,,up,0.6171276331779154,2249.986264278612,None,001,27,2019_Oct_15_1105,ACPT_experiment_5_30_19,3.1.0,59.95417683905207,
,,,C,U,d,n,R,G,d,R,i,,,,,6,0,120,15,5,0,5,0,,,,,0,4,4,5,,,,,,up,0.4470261305918939,2251.9076992364817,None,001,27,2019_Oct_15_1105,ACPT_experiment_5_30_19,3.1.0,59.95417683905207,
,,,C,U,d,n,L,G,d,R,i,,,,,6,0,120,15,5,0,5,0,,,,,0,5,5,17,,,,,,up,0.46700667889808756,2253.6390593880387,None,001,27,2019_Oct_15_1105,ACPT_experiment_5_30_19,3.1.0,59.95417683905207,
,,,C,U,d,n,L,D,g,R,i,,,,,6,0,120,15,5,0,5,0,,,,,0,6,6,15,,,,,,up,0.5504156275223977,2255.3903931451796,None,001,27,2019_Oct_15_1105,ACPT_experiment_5_30_19,3.1.0,59.95417683905207,
,,,C,U,d,n,R,G,y,R,y,,,,,6,0,120,15,5,0,5,0,,,,,0,7,7,29,,,,,,down,0.5837820444321551,2257.2251277007945,None,001,27,2019_Oct_15_1105,ACPT_experiment_5_30_19,3.1.0,59.95417683905207,
,,,C,U,d,n,L,G,y,L,y,,,,,6,0,120,15,5,0,5,0,,,,,0,8,8,34,,,,,,down,0.4470167730110006,2259.113237898082,None,001,27,2019_Oct_15_1105,ACPT_experiment_5_30_19,3.1.0,59.95417683905207,
,,,C,U,d,n,L,U,d,R,u,,,,,6,0,120,15,5,0,5,0,,,,,0,9,9,21,,,,,,up,0.5003752088100555,2260.8445844660537,None,001,27,2019_Oct_15_1105,ACPT_experiment_5_30_19,3.1.0,59.95417683905207,
,,,C,U,d,n,R,D,d,R,c ,,,,,6,0,120,15,5,0,5,0,,,,,0,10,10,1,,,,,,up,0.40032908499188125,2262.6125801506996,None,001,27,2019_Oct_15_1105,ACPT_experiment_5_30_19,3.1.0,59.95417683905207,
,,,C,U,d,n,R,D,d,L,c,,,,,6,0,120,15,5,0,5,0,,,,,0,11,11,0,,,,,,down,0.48368339741773525,2264.2805535582656,None,001,27,2019_Oct_15_1105,ACPT_experiment_5_30_19,3.1.0,59.95417683905207,
,,,C,U,d,n,R,U,g,L,u,,,,,6,0,120,15,5,0,5,0,,,,,0,12,12,10,,,,,,up,0.41368476785055464,2266.06857325869,None,001,27,2019_Oct_15_1105,ACPT_experiment_5_30_19,3.1.0,59.95417683905207,
,,,C,U,d,n,L,U,d,L,u,,,,,6,0,120,15,5,0,5,0,,,,,0,13,13,20,,,,,,up,0.38361191757348934,2267.766560352473,None,001,27,2019_Oct_15_1105,ACPT_experiment_5_30_19,3.1.0,59.95417683905207,
,,,C,U,d,n,R,D,y,R,y,,,,,6,0,120,15,5,0,5,0,,,,,0,14,14,27,,,,,,up,0.4670139234767703,2269.4345153467348,None,001,27,2019_Oct_15_1105,ACPT_experiment_5_30_19,3.1.0,59.95417683905207,
,,,C,U,d,n,R,U,d,L,u,,,,,6,0,120,15,5,0,5,0,,,,,0,15,15,8,,,,,,up,0.617120992314085,2271.185864498606,None,001,27,2019_Oct_15_1105,ACPT_experiment_5_30_19,3.1.0,59.95417683905207,
,,,C,U,d,n,L,G,g,L,c ,,,,,6,0,120,15,5,0,5,0,,,,,0,16,16,18,,,,,,up,0.617108012443623,2273.104015549281,None,001,27,2019_Oct_15_1105,ACPT_experiment_5_30_19,3.1.0,59.95417683905207,
,,,C,U,d,n,L,G,d,L,i,,,,,6,0,120,15,5,0,5,0,,,,,0,17,17,16,,,,,,up,0.4169762214810362,2275.0054633179807,None,001,27,2019_Oct_15_1105,ACPT_experiment_5_30_19,3.1.0,59.95417683905207,
,,,C,U,d,n,L,U,g,R,u,,,,,6,0,120,15,5,0,5,0,,,,,0,18,18,23,,,,,,up,0.6338155204234681,2276.7067608824136,None,001,27,2019_Oct_15_1105,ACPT_experiment_5_30_19,3.1.0,59.95417683905207,
,,,C,U,d,n,R,D,y,L,y,,,,,6,0,120,15,5,0,5,0,,,,,0,19,19,26,,,,,,down,1.3176566685442594,2278.6248983495043,None,001,27,2019_Oct_15_1105,ACPT_experiment_5_30_19,3.1.0,59.95417683905207,
,,,C,U,d,n,R,G,d,L,i,,,,,6,0,120,15,5,0,5,0,,,,,0,20,20,4,,,,,,up,0.5504129108053348,2281.2268983965932,None,001,27,2019_Oct_15_1105,ACPT_experiment_5_30_19,3.1.0,59.95417683905207,
,,,C,U,d,n,R,G,g,R,c ,,,,,6,0,120,15,5,0,5,0,,,,,0,21,21,7,,,,,,up,0.5003800385293289,2283.044959855978,None,001,27,2019_Oct_15_1105,ACPT_experiment_5_30_19,3.1.0,59.95417683905207,
,,,C,U,d,n,L,D,g,L,i,,,,,6,0,120,15,5,0,5,0,,,,,0,22,22,14,,,,,,up,0.5670908367546872,2284.8129929709476,None,001,27,2019_Oct_15_1105,ACPT_experiment_5_30_19,3.1.0,59.95417683905207,
,,,C,U,d,n,L,U,g,L,u,,,,,6,0,120,15,5,0,5,0,,,,,0,23,23,22,,,,,,up,0.5670995906211829,2286.6644042450816,None,001,27,2019_Oct_15_1105,ACPT_experiment_5_30_19,3.1.0,59.95417683905207,
,,,C,U,d,n,R,G,g,L,c ,,,,,6,0,120,15,5,0,5,0,,,,,0,24,24,6,,,,,,up,0.4169807493431108,2288.515826386084,None,001,27,2019_Oct_15_1105,ACPT_experiment_5_30_19,3.1.0,59.95417683905207,
,,,C,U,d,n,L,D,y,L,y,,,,,6,0,120,15,5,0,5,0,,,,,0,25,25,32,,,,,,down,0.5837811388596492,2290.217133911813,None,001,27,2019_Oct_15_1105,ACPT_experiment_5_30_19,3.1.0,59.95417683905207,
,,,C,U,d,n,R,U,y,R,u,,,,,6,0,120,15,5,0,5,0,,,,,0,26,26,31,,,,,,up,0.5501569356879372,2292.1021817652745,None,001,27,2019_Oct_15_1105,ACPT_experiment_5_30_19,3.1.0,59.95417683905207,
,,,C,U,d,n,L,D,y,R,y,,,,,6,0,120,15,5,0,5,0,,,,,0,27,27,33,,,,,,down,0.5837835537190585,2293.93665581791,None,001,27,2019_Oct_15_1105,ACPT_experiment_5_30_19,3.1.0,59.95417683905207,
,,,C,U,d,n,L,G,y,R,y,,,,,6,0,120,15,5,0,5,0,,,,,0,28,28,35,,,,,,down,0.5170630960551534,2295.804766148015,None,001,27,2019_Oct_15_1105,ACPT_experiment_5_30_19,3.1.0,59.95417683905207,
,,,C,U,d,n,L,D,d,L,c ,,,,,6,0,120,15,5,0,5,0,,,,,0,29,29,12,,,,,,up,0.5337271365624474,2297.606148775878,None,001,27,2019_Oct_15_1105,ACPT_experiment_5_30_19,3.1.0,59.95417683905207,
,,,C,U,d,n,R,U,y,L,u,,,,,6,0,120,15,5,0,5,0,,,,,0,30,30,30,,,,,,up,0.6668972857582958,2299.441159229201,None,001,27,2019_Oct_15_1105,ACPT_experiment_5_30_19,3.1.0,59.95417683905207,
,,,C,U,d,n,L,U,y,L,u,,,,,6,0,120,15,5,0,5,0,,,,,0,31,31,24,,,,,,down,0.7172404674929567,2301.3923727263345,None,001,27,2019_Oct_15_1105,ACPT_experiment_5_30_19,3.1.0,59.95417683905207,
,,,C,U,d,n,R,D,g,R,i,,,,,6,0,120,15,5,0,5,0,,,,,0,32,32,3,,,,,,up,0.5504183442394606,2303.393915217902,None,001,27,2019_Oct_15_1105,ACPT_experiment_5_30_19,3.1.0,59.95417683905207,
,,,C,U,d,n,L,U,y,R,u,,,,,6,0,120,15,5,0,5,0,,,,,0,33,33,25,,,,,,down,0.517065209057364,2305.24533554776,None,001,27,2019_Oct_15_1105,ACPT_experiment_5_30_19,3.1.0,59.95417683905207,
,,,C,U,d,n,L,G,g,R,c ,,,,,6,0,120,15,5,0,5,0,,,,,0,34,34,19,,,,,,up,0.6504858999364842,2307.063406062867,None,001,27,2019_Oct_15_1105,ACPT_experiment_5_30_19,3.1.0,59.95417683905207,
,,,C,U,d,n,L,D,d,R,c ,,,,,6,0,120,15,5,0,5,0,,,,,0,35,35,13,,,,,,down,0.5003779255266636,2308.9982226633365,None,001,27,2019_Oct_15_1105,ACPT_experiment_5_30_19,3.1.0,59.95417683905207,
,,,C,U,d,n,R,D,g,L,i,,,,,6,0,120,15,5,0,5,0,,,,,1,0,36,2,,,,,,up,0.5670884218952779,2310.7829309875387,None,001,27,2019_Oct_15_1105,ACPT_experiment_5_30_19,3.1.0,59.95417683905207,
,,,C,U,d,n,L,G,g,L,c ,,,,,6,0,120,15,5,0,5,0,,,,,1,1,37,18,,,,,,up,0.5804700644948753,2312.654329148985,None,001,27,2019_Oct_15_1105,ACPT_experiment_5_30_19,3.1.0,59.95417683905207,
,,,C,U,d,n,L,U,y,R,u,,,,,6,0,120,15,5,0,5,0,,,,,1,2,38,25,,,,,,down,0.6838616744275896,2314.5191205564324,None,001,27,2019_Oct_15_1105,ACPT_experiment_5_30_19,3.1.0,59.95417683905207,
,,,C,U,d,n,R,G,g,R,c ,,,,,6,0,120,15,5,0,5,0,,,,,1,3,39,7,,,,,,up,0.6838526187038951,2316.4873038756687,None,001,27,2019_Oct_15_1105,ACPT_experiment_5_30_19,3.1.0,59.95417683905207,
,,,C,U,d,n,R,D,y,R,y,,,,,6,0,120,15,5,0,5,0,,,,,1,4,40,27,,,,,,up,0.6838508075593381,2318.4554817614708,None,001,27,2019_Oct_15_1105,ACPT_experiment_5_30_19,3.1.0,59.95417683905207,
,,,C,U,d,n,R,U,g,R,u,,,,,6,0,120,15,5,0,5,0,,,,,1,5,41,11,,,,,,up,0.6171264257482107,2320.423663873278,None,001,27,2019_Oct_15_1105,ACPT_experiment_5_30_19,3.1.0,59.95417683905207,
,,,C,U,d,n,R,U,g,L,u,,,,,6,0,120,15,5,0,5,0,,,,,1,6,42,10,,,,,,up,0.6505224246880061,2322.308413491579,None,001,27,2019_Oct_15_1105,ACPT_experiment_5_30_19,3.1.0,59.95417683905207,
,,,C,U,d,n,L,U,g,R,u,,,,,6,0,120,15,5,0,5,0,,,,,1,7,43,23,,,,,,up,1.3177010415893164,2324.2265536753857,None,001,27,2019_Oct_15_1105,ACPT_experiment_5_30_19,3.1.0,59.95417683905207,
,,,C,U,d,n,L,G,g,R,c ,,,,,6,0,120,15,5,0,5,0,,,,,1,8,44,19,,,,,,up,0.8339560652516411,2326.8285917565145,None,001,27,2019_Oct_15_1105,ACPT_experiment_5_30_19,3.1.0,59.95417683905207,
,,,C,U,d,n,L,U,y,L,u,,,,,6,0,120,15,5,0,5,0,,,,,1,9,45,24,,,,,,down,0.7172794071034332,2328.9468613164245,None,001,27,2019_Oct_15_1105,ACPT_experiment_5_30_19,3.1.0,59.95417683905207,
,,,C,U,d,n,R,U,d,R,u,,,,,6,0,120,15,5,0,5,0,,,,,1,10,46,9,,,,,,up,0.6505206135434491,2330.948380564969,None,001,27,2019_Oct_15_1105,ACPT_experiment_5_30_19,3.1.0,59.95417683905207,
,,,C,U,d,n,L,D,g,R,i,,,,,6,0,120,15,5,0,5,0,,,,,1,11,47,15,,,,,,up,0.5504104959459255,2332.8832273511825,None,001,27,2019_Oct_15_1105,ACPT_experiment_5_30_19,3.1.0,59.95417683905207,
,,,C,U,d,n,R,D,d,L,c,,,,,6,0,120,15,5,0,5,0,,,,,1,12,48,0,,,,,,up,0.5504153256647442,2334.7179664346595,None,001,27,2019_Oct_15_1105,ACPT_experiment_5_30_19,3.1.0,59.95417683905207,
,,,C,U,d,n,L,D,d,R,c ,,,,,6,0,120,15,5,0,5,0,,,,,1,13,49,13,,,,,,up,0.5337470591534839,2336.536022762467,None,001,27,2019_Oct_15_1105,ACPT_experiment_5_30_19,3.1.0,59.95417683905207,
,,,C,U,d,n,L,U,d,R,u,,,,,6,0,120,15,5,0,5,0,,,,,1,14,50,21,,,,,,up,0.46674738334832,2338.371041365941,None,001,27,2019_Oct_15_1105,ACPT_experiment_5_30_19,3.1.0,59.95417683905207,
,,,C,U,d,n,L,D,y,R,y,,,,,6,0,120,15,5,0,5,0,,,,,1,15,51,33,,,,,,up,0.5671010999080863,2340.122114016389,None,001,27,2019_Oct_15_1105,ACPT_experiment_5_30_19,3.1.0,59.95417683905207,
,,,C,U,d,n,R,G,y,L,y,,,,,6,0,120,15,5,0,5,0,,,,,1,16,52,28,,,,,,down,1.50114283230414,2341.9735412889677,None,001,27,2019_Oct_15_1105,ACPT_experiment_5_30_19,3.1.0,59.95417683905207,
,,,C,U,d,n,L,G,d,L,i,,,,,6,0,120,15,5,0,5,0,,,,,1,17,53,16,,,,,,up,0.5501355038090878,2344.7759617027414,None,001,27,2019_Oct_15_1105,ACPT_experiment_5_30_19,3.1.0,59.95417683905207,
,,,C,U,d,n,L,D,d,L,c ,,,,,6,0,120,15,5,0,5,0,,,,,1,18,54,12,,,,,,up,0.6338281984362766,2346.6104330386597,None,001,27,2019_Oct_15_1105,ACPT_experiment_5_30_19,3.1.0,59.95417683905207,
,,,C,U,d,n,R,U,d,L,u,,,,,6,0,120,15,5,0,5,0,,,,,1,19,55,8,,,,,,up,0.5169369196414664,2348.5285780521863,None,001,27,2019_Oct_15_1105,ACPT_experiment_5_30_19,3.1.0,59.95417683905207,
,,,C,U,d,n,L,U,d,L,u,,,,,6,0,120,15,5,0,5,0,,,,,1,20,56,20,,,,,,up,0.533744040579677,2350.329956152187,None,001,27,2019_Oct_15_1105,ACPT_experiment_5_30_19,3.1.0,59.95417683905207,
,,,C,U,d,n,R,U,y,R,u,,,,,6,0,120,15,5,0,5,0,,,,,1,21,57,31,,,,,,down,0.7337454291237009,2352.1815132234697,None,001,27,2019_Oct_15_1105,ACPT_experiment_5_30_19,3.1.0,59.95417683905207,
,,,C,U,d,n,L,G,y,R,y,,,,,6,0,120,15,5,0,5,0,,,,,1,22,58,35,,,,,,down,0.6004581592369505,2354.1995893531257,None,001,27,2019_Oct_15_1105,ACPT_experiment_5_30_19,3.1.0,59.95417683905207,
,,,C,U,d,n,L,G,d,R,i,,,,,6,0,120,15,5,0,5,0,,,,,1,23,59,17,,,,,,down,0.5670977794761711,2356.084369760887,None,001,27,2019_Oct_15_1105,ACPT_experiment_5_30_19,3.1.0,59.95417683905207,
,,,C,U,d,n,L,G,y,L,y,,,,,6,0,120,15,5,0,5,0,,,,,1,24,60,34,,,,,,down,0.9340586364132832,2357.935783148023,None,001,27,2019_Oct_15_1105,ACPT_experiment_5_30_19,3.1.0,59.95417683905207,
,,,C,U,d,n,R,G,y,R,y,,,,,6,0,120,15,5,0,5,0,,,,,1,25,61,29,,,,,,down,1.0341261921107616,2360.154159806956,None,001,27,2019_Oct_15_1105,ACPT_experiment_5_30_19,3.1.0,59.95417683905207,
,,,C,U,d,n,R,D,d,R,c ,,,,,6,0,120,15,5,0,5,0,,,,,1,26,62,1,,,,,,up,1.3176820245703311,2362.472607945733,None,001,27,2019_Oct_15_1105,ACPT_experiment_5_30_19,3.1.0,59.95417683905207,
,,,C,U,d,n,R,D,y,L,y,,,,,6,0,120,15,5,0,5,0,,,,,1,27,63,26,,,,,,down,0.9674138845971356,2365.0579370095948,None,001,27,2019_Oct_15_1105,ACPT_experiment_5_30_19,3.1.0,59.95417683905207,
,,,C,U,d,n,L,D,g,L,i,,,,,6,0,120,15,5,0,5,0,,,,,1,28,64,14,,,,,,up,0.6838508075588834,2367.309656238699,None,001,27,2019_Oct_15_1105,ACPT_experiment_5_30_19,3.1.0,59.95417683905207,
