facing_vig,person_vig,text_vig,facing_train,person_train,food_train,correct_key_train,facing_exp,person_exp,food_exp,showL_R,consistent,vig_random.thisRepN,vig_random.thisTrialN,vig_random.thisN,vig_random.thisIndex,trainTrials.thisRepN,trainTrials.thisTrialN,trainTrials.thisN,trainTrials.thisIndex,expBlock.thisRepN,expBlock.thisTrialN,expBlock.thisN,expBlock.thisIndex,breakLoop.thisRepN,breakLoop.thisTrialN,breakLoop.thisN,breakLoop.thisIndex,expTrials.thisRepN,expTrials.thisTrialN,expTrials.thisN,expTrials.thisIndex,train_resp.keys,train_resp.corr,train_resp.rt,train_resp.started,train_resp.stopped,exp_resp.keys,exp_resp.rt,exp_resp.started,exp_resp.stopped,session,participant,date,expName,psychopyVersion,frameRate,
C,D,"is allergic to gluten, meaning she can’t eat wheat products. She enjoys eating dairy products. She thinks eating insects, like crickets, is disgusting.",,,,,,,,,,0,0,0,1,,,,,,,,,,,,,,,,,,,,,,,,,,001,28,2019_Oct_15_1214,ACPT_experiment_5_30_19,3.1.0,59.95395983416993,
C,U,"did not report her food preferences, so her food preferences are unknown.",,,,,,,,,,0,1,1,2,,,,,,,,,,,,,,,,,,,,,,,,,,001,28,2019_Oct_15_1214,ACPT_experiment_5_30_19,3.1.0,59.95395983416993,
C,G,"cannot eat dairy products because she is lactose intolerant. She enjoys eating wheat products. She thinks eating insects, like crickets, is disgusting.",,,,,,,,,,0,2,2,0,,,,,,,,,,,,,,,,,,,,,,,,,,001,28,2019_Oct_15_1214,ACPT_experiment_5_30_19,3.1.0,59.95395983416993,
,,,C,G,g,v,,,,,,,,,,0,0,0,19,,,,,,,,,,,,,v,1,6.07136574195647,1749.7876170225863,None,,,,,001,28,2019_Oct_15_1214,ACPT_experiment_5_30_19,3.1.0,59.95395983416993,
,,,C,U,y,n,,,,,,,,,,0,1,1,17,,,,,,,,,,,,,b,0,2.0015974296229615,1759.1448094705966,None,,,,,001,28,2019_Oct_15_1214,ACPT_experiment_5_30_19,3.1.0,59.95395983416993,
,,,C,U,y,n,,,,,,,,,,0,2,2,8,,,,,,,,,,,,,n,1,1.417774936292517,1764.4155282112952,None,,,,,001,28,2019_Oct_15_1214,ACPT_experiment_5_30_19,3.1.0,59.95395983416993,
,,,C,U,g,n,,,,,,,,,,0,3,3,16,,,,,,,,,,,,,n,1,1.414448165340218,1769.1391574917088,None,,,,,001,28,2019_Oct_15_1214,ACPT_experiment_5_30_19,3.1.0,59.95395983416993,
,,,C,D,g,b,,,,,,,,,,0,4,4,1,,,,,,,,,,,,,b,1,3.7195475639809956,1773.8394426262566,None,,,,,001,28,2019_Oct_15_1214,ACPT_experiment_5_30_19,3.1.0,59.95395983416993,
,,,C,D,d,v,,,,,,,,,,0,5,5,9,,,,,,,,,,,,,v,1,1.501182979344776,1780.8281374610524,None,,,,,001,28,2019_Oct_15_1214,ACPT_experiment_5_30_19,3.1.0,59.95395983416993,
,,,C,D,y,b,,,,,,,,,,0,6,6,11,,,,,,,,,,,,,b,1,2.0849725702128126,1785.5984837096585,None,,,,,001,28,2019_Oct_15_1214,ACPT_experiment_5_30_19,3.1.0,59.95395983416993,
,,,C,G,d,b,,,,,,,,,,0,7,7,3,,,,,,,,,,,,,b,1,3.2525143216271317,1790.969282985925,None,,,,,001,28,2019_Oct_15_1214,ACPT_experiment_5_30_19,3.1.0,59.95395983416993,
,,,C,G,d,b,,,,,,,,,,0,8,8,12,,,,,,,,,,,,,b,1,1.4344495418108636,1797.4909551433793,None,,,,,001,28,2019_Oct_15_1214,ACPT_experiment_5_30_19,3.1.0,59.95395983416993,
,,,C,U,d,n,,,,,,,,,,0,9,9,6,,,,,,,,,,,,,n,1,1.0341355496912001,1802.2112498045472,None,,,,,001,28,2019_Oct_15_1214,ACPT_experiment_5_30_19,3.1.0,59.95395983416993,
,,,C,D,y,b,,,,,,,,,,0,10,10,2,,,,,,,,,,,,,b,1,2.1515454195850907,1806.5312331903133,None,,,,,001,28,2019_Oct_15_1214,ACPT_experiment_5_30_19,3.1.0,59.95395983416993,
,,,C,D,d,v,,,,,,,,,,0,11,11,18,,,,,,,,,,,,,v,1,1.8013995318797242,1811.9687459815223,None,,,,,001,28,2019_Oct_15_1214,ACPT_experiment_5_30_19,3.1.0,59.95395983416993,
,,,C,G,y,b,,,,,,,,,,0,12,12,5,,,,,,,,,,,,,n,0,1.2342990356864902,1817.0559900290446,None,,,,,001,28,2019_Oct_15_1214,ACPT_experiment_5_30_19,3.1.0,59.95395983416993,
,,,C,G,y,b,,,,,,,,,,0,13,13,14,,,,,,,,,,,,,b,1,1.2309909798950684,1821.5961394847054,None,,,,,001,28,2019_Oct_15_1214,ACPT_experiment_5_30_19,3.1.0,59.95395983416993,
,,,C,U,d,n,,,,,,,,,,0,14,14,15,,,,,,,,,,,,,n,1,0.8339883639991967,1826.1129529446498,None,,,,,001,28,2019_Oct_15_1214,ACPT_experiment_5_30_19,3.1.0,59.95395983416993,
,,,C,D,g,b,,,,,,,,,,0,15,15,10,,,,,,,,,,,,,b,1,2.8519506933962475,1830.2497435720961,None,,,,,001,28,2019_Oct_15_1214,ACPT_experiment_5_30_19,3.1.0,59.95395983416993,
,,,C,G,g,v,,,,,,,,,,0,16,16,13,,,,,,,,,,,,,v,1,3.269218509174607,1836.3874922950881,None,,,,,001,28,2019_Oct_15_1214,ACPT_experiment_5_30_19,3.1.0,59.95395983416993,
,,,C,G,g,v,,,,,,,,,,0,17,17,4,,,,,,,,,,,,,v,1,2.6854781210695364,1842.9258635085134,None,,,,,001,28,2019_Oct_15_1214,ACPT_experiment_5_30_19,3.1.0,59.95395983416993,
,,,C,D,d,v,,,,,,,,,,0,18,18,0,,,,,,,,,,,,,v,1,1.9348380323481251,1848.8971303015978,None,,,,,001,28,2019_Oct_15_1214,ACPT_experiment_5_30_19,3.1.0,59.95395983416993,
,,,C,U,g,n,,,,,,,,,,0,19,19,7,,,,,,,,,,,,,n,1,1.6679408069612691,1854.1178297536053,None,,,,,001,28,2019_Oct_15_1214,ACPT_experiment_5_30_19,3.1.0,59.95395983416993,
,,,C,D,y,b,,,,,,,,,,1,0,20,2,,,,,,,,,,,,,n,0,0.8673873815132538,1859.1049500999452,None,,,,,001,28,2019_Oct_15_1214,ACPT_experiment_5_30_19,3.1.0,59.95395983416993,
,,,C,G,d,b,,,,,,,,,,1,1,21,12,,,,,,,,,,,,,b,1,0.23987615392525186,None,None,,,,,001,28,2019_Oct_15_1214,ACPT_experiment_5_30_19,3.1.0,59.95395983416993,
,,,C,D,d,v,,,,,,,,,,1,2,22,0,,,,,,,,,,,,,v,1,1.647824120945188,1866.5307813097106,None,,,,,001,28,2019_Oct_15_1214,ACPT_experiment_5_30_19,3.1.0,59.95395983416993,
,,,C,D,d,v,,,,,,,,,,1,3,23,18,,,,,,,,,,,,,v,1,1.3343859102606075,1871.4477904336545,None,,,,,001,28,2019_Oct_15_1214,ACPT_experiment_5_30_19,3.1.0,59.95395983416993,
,,,C,U,y,n,,,,,,,,,,1,4,24,8,,,,,,,,,,,,,n,1,1.617679428595693,1876.084941780753,None,,,,,001,28,2019_Oct_15_1214,ACPT_experiment_5_30_19,3.1.0,59.95395983416993,
,,,C,D,y,b,,,,,,,,,,1,5,25,11,,,,,,,,,,,,,b,1,1.8681157635392083,1880.9884590841284,None,,,,,001,28,2019_Oct_15_1214,ACPT_experiment_5_30_19,3.1.0,59.95395983416993,
,,,C,U,g,n,,,,,,,,,,1,6,26,7,,,,,,,,,,,,,n,1,1.217705026107069,1886.1424184577372,None,,,,,001,28,2019_Oct_15_1214,ACPT_experiment_5_30_19,3.1.0,59.95395983416993,
,,,C,G,g,v,,,,,,,,,,1,7,27,4,,,,,,,,,,,,,b,0,3.569162786288871,1890.6628261343349,None,,,,,001,28,2019_Oct_15_1214,ACPT_experiment_5_30_19,3.1.0,59.95395983416993,
,,,C,G,d,b,,,,,,,,,,1,8,28,3,,,,,,,,,,,,,v,0,0.2360691277708611,None,None,,,,,001,28,2019_Oct_15_1214,ACPT_experiment_5_30_19,3.1.0,59.95395983416993,
,,,C,G,g,v,,,,,,,,,,1,9,29,13,,,,,,,,,,,,,v,1,2.4682041474006837,1900.770674065796,None,,,,,001,28,2019_Oct_15_1214,ACPT_experiment_5_30_19,3.1.0,59.95395983416993,
,,,C,D,d,v,,,,,,,,,,1,10,30,9,,,,,,,,,,,,,v,1,1.3176913821507696,1906.5247480848648,None,,,,,001,28,2019_Oct_15_1214,ACPT_experiment_5_30_19,3.1.0,59.95395983416993,
,,,C,U,d,n,,,,,,,,,,1,11,31,6,,,,,,,,,,,,,n,1,0.783540739586897,1911.1453543232928,None,,,,,001,28,2019_Oct_15_1214,ACPT_experiment_5_30_19,3.1.0,59.95395983416993,
,,,C,U,g,n,,,,,,,,,,1,12,32,16,,,,,,,,,,,,,n,1,0.7672648877596657,1915.19807976402,None,,,,,001,28,2019_Oct_15_1214,ACPT_experiment_5_30_19,3.1.0,59.95395983416993,
,,,C,G,g,v,,,,,,,,,,1,13,33,19,,,,,,,,,,,,,v,1,4.019370796258045,1919.2682429058968,None,,,,,001,28,2019_Oct_15_1214,ACPT_experiment_5_30_19,3.1.0,59.95395983416993,
,,,C,U,d,n,,,,,,,,,,1,14,34,15,,,,,,,,,,,,,n,1,0.7005483542425281,1926.573485384968,None,,,,,001,28,2019_Oct_15_1214,ACPT_experiment_5_30_19,3.1.0,59.95395983416993,
,,,C,U,y,n,,,,,,,,,,1,15,35,17,,,,,,,,,,,,,n,1,0.6168979196590954,1930.5768085336304,None,,,,,001,28,2019_Oct_15_1214,ACPT_experiment_5_30_19,3.1.0,59.95395983416993,
,,,C,G,y,b,,,,,,,,,,1,16,36,5,,,,,,,,,,,,,b,1,2.8855655389879757,1934.4795539875067,None,,,,,001,28,2019_Oct_15_1214,ACPT_experiment_5_30_19,3.1.0,59.95395983416993,
,,,C,D,g,b,,,,,,,,,,1,17,37,1,,,,,,,,,,,,,b,1,2.4352431250454174,1940.6509664569967,None,,,,,001,28,2019_Oct_15_1214,ACPT_experiment_5_30_19,3.1.0,59.95395983416993,
,,,C,G,y,b,,,,,,,,,,1,18,38,14,,,,,,,,,,,,,b,1,1.9848826770648884,1946.3720311565185,None,,,,,001,28,2019_Oct_15_1214,ACPT_experiment_5_30_19,3.1.0,59.95395983416993,
,,,C,D,g,b,,,,,,,,,,1,19,39,10,,,,,,,,,,,,,b,1,3.0857124228223256,1951.642753519507,None,,,,,001,28,2019_Oct_15_1214,ACPT_experiment_5_30_19,3.1.0,59.95395983416993,
,,,C,D,d,v,,,,,,,,,,2,0,40,18,,,,,,,,,,,,,v,1,1.3844269326873473,1958.0142896298075,None,,,,,001,28,2019_Oct_15_1214,ACPT_experiment_5_30_19,3.1.0,59.95395983416993,
,,,C,U,y,n,,,,,,,,,,2,1,41,8,,,,,,,,,,,,,n,1,0.8504314448528021,1962.7014832067644,None,,,,,001,28,2019_Oct_15_1214,ACPT_experiment_5_30_19,3.1.0,59.95395983416993,
,,,C,G,g,v,,,,,,,,,,2,2,42,4,,,,,,,,,,,,,v,1,2.4686110512429877,1966.8377528282535,None,,,,,001,28,2019_Oct_15_1214,ACPT_experiment_5_30_19,3.1.0,59.95395983416993,
,,,C,D,g,b,,,,,,,,,,2,3,43,1,,,,,,,,,,,,,b,1,1.5011367951556167,1972.5922231861532,None,,,,,001,28,2019_Oct_15_1214,ACPT_experiment_5_30_19,3.1.0,59.95395983416993,
,,,C,U,y,n,,,,,,,,,,2,4,44,17,,,,,,,,,,,,,n,1,0.6672148397956335,1977.379185479932,None,,,,,001,28,2019_Oct_15_1214,ACPT_experiment_5_30_19,3.1.0,59.95395983416993,
,,,C,U,d,n,,,,,,,,,,2,5,45,15,,,,,,,,,,,,,n,1,0.7005634471161102,1981.3488862365675,None,,,,,001,28,2019_Oct_15_1214,ACPT_experiment_5_30_19,3.1.0,59.95395983416993,
,,,C,G,y,b,,,,,,,,,,2,6,46,14,,,,,,,,,,,,,b,1,1.8847924820593107,1985.335301745762,None,,,,,001,28,2019_Oct_15_1214,ACPT_experiment_5_30_19,3.1.0,59.95395983416993,
,,,C,D,y,b,,,,,,,,,,2,7,47,2,,,,,,,,,,,,,b,1,1.6513081596294796,1990.5059151985824,None,,,,,001,28,2019_Oct_15_1214,ACPT_experiment_5_30_19,3.1.0,59.95395983416993,
,,,C,D,g,b,,,,,,,,,,2,8,48,10,,,,,,,,,,,,,v,0,1.9181969330074935,1995.4263546305838,None,,,,,001,28,2019_Oct_15_1214,ACPT_experiment_5_30_19,3.1.0,59.95395983416993,
,,,C,G,d,b,,,,,,,,,,2,9,49,3,,,,,,,,,,,,,b,1,3.1691545757666972,2000.6303864197953,None,,,,,001,28,2019_Oct_15_1214,ACPT_experiment_5_30_19,3.1.0,59.95395983416993,
,,,C,G,y,b,,,,,,,,,,2,10,50,5,,,,,,,,,,,,,b,1,0.8506623658013268,2007.085350797598,None,,,,,001,28,2019_Oct_15_1214,ACPT_experiment_5_30_19,3.1.0,59.95395983416993,
,,,C,U,g,n,,,,,,,,,,2,11,51,16,,,,,,,,,,,,,n,1,1.100651348005158,2011.2387683370853,None,,,,,001,28,2019_Oct_15_1214,ACPT_experiment_5_30_19,3.1.0,59.95395983416993,
,,,C,U,g,n,,,,,,,,,,2,12,52,7,,,,,,,,,,,,,n,1,1.2009389577833645,2015.6085527686064,None,,,,,001,28,2019_Oct_15_1214,ACPT_experiment_5_30_19,3.1.0,59.95395983416993,
,,,C,D,d,v,,,,,,,,,,2,13,53,9,,,,,,,,,,,,,v,1,2.1679848781486726,2020.1123504371799,None,,,,,001,28,2019_Oct_15_1214,ACPT_experiment_5_30_19,3.1.0,59.95395983416993,
,,,C,G,g,v,,,,,,,,,,2,14,54,13,,,,,,,,,,,,,b,0,2.151692726020883,2025.5662015647076,None,,,,,001,28,2019_Oct_15_1214,ACPT_experiment_5_30_19,3.1.0,59.95395983416993,
,,,C,D,d,v,,,,,,,,,,2,15,55,0,,,,,,,,,,,,,v,1,1.367785229632318,2031.0037155633472,None,,,,,001,28,2019_Oct_15_1214,ACPT_experiment_5_30_19,3.1.0,59.95395983416993,
,,,C,U,d,n,,,,,,,,,,2,16,56,6,,,,,,,,,,,,,n,1,1.017224287933459,2035.6742411756504,None,,,,,001,28,2019_Oct_15_1214,ACPT_experiment_5_30_19,3.1.0,59.95395983416993,
,,,C,G,d,b,,,,,,,,,,2,17,57,12,,,,,,,,,,,,,b,1,3.119106610617564,2039.9605710780716,None,,,,,001,28,2019_Oct_15_1214,ACPT_experiment_5_30_19,3.1.0,59.95395983416993,
,,,C,G,g,v,,,,,,,,,,2,18,58,19,,,,,,,,,,,,,v,1,0.9507706722542935,2046.3488140926374,None,,,,,001,28,2019_Oct_15_1214,ACPT_experiment_5_30_19,3.1.0,59.95395983416993,
,,,C,D,y,b,,,,,,,,,,2,19,59,11,,,,,,,,,,,,,b,1,1.0674799310072558,2050.6021198844974,None,,,,,001,28,2019_Oct_15_1214,ACPT_experiment_5_30_19,3.1.0,59.95395983416993,
,,,C,U,y,n,,,,,,,,,,3,0,60,17,,,,,,,,,,,,,n,1,0.7505516444898603,2054.9554802521834,None,,,,,001,28,2019_Oct_15_1214,ACPT_experiment_5_30_19,3.1.0,59.95395983416993,
,,,C,G,d,b,,,,,,,,,,3,1,61,3,,,,,,,,,,,,,b,1,3.285630498710816,2059.008799144656,None,,,,,001,28,2019_Oct_15_1214,ACPT_experiment_5_30_19,3.1.0,59.95395983416993,
,,,C,U,y,n,,,,,,,,,,3,2,62,8,,,,,,,,,,,,,n,1,1.6679646536995278,2065.5802762720123,None,,,,,001,28,2019_Oct_15_1214,ACPT_experiment_5_30_19,3.1.0,59.95395983416993,
,,,C,G,d,b,,,,,,,,,,3,3,63,12,,,,,,,,,,,,,b,1,3.2024793363480057,2070.5340797060635,None,,,,,001,28,2019_Oct_15_1214,ACPT_experiment_5_30_19,3.1.0,59.95395983416993,
,,,C,U,g,n,,,,,,,,,,3,4,64,16,,,,,,,,,,,,,n,1,1.4177707102890054,2077.022395106045,None,,,,,001,28,2019_Oct_15_1214,ACPT_experiment_5_30_19,3.1.0,59.95395983416993,
,,,C,G,y,b,,,,,,,,,,3,5,65,5,,,,,,,,,,,,,b,1,1.5011832812024295,2081.7427042563713,None,,,,,001,28,2019_Oct_15_1214,ACPT_experiment_5_30_19,3.1.0,59.95395983416993,
,,,C,G,y,b,,,,,,,,,,3,6,66,14,,,,,,,,,,,,,b,1,1.117535744449924,2086.529700056326,None,,,,,001,28,2019_Oct_15_1214,ACPT_experiment_5_30_19,3.1.0,59.95395983416993,
,,,C,D,d,v,,,,,,,,,,3,7,67,0,,,,,,,,,,,,,v,1,2.9186832253590183,2090.9500033506174,None,,,,,001,28,2019_Oct_15_1214,ACPT_experiment_5_30_19,3.1.0,59.95395983416993,
,,,C,G,g,v,,,,,,,,,,3,8,68,19,,,,,,,,,,,,,v,1,2.3685410806856453,2097.15452746933,None,,,,,001,28,2019_Oct_15_1214,ACPT_experiment_5_30_19,3.1.0,59.95395983416993,
,,,C,D,y,b,,,,,,,,,,3,9,69,11,,,,,,,,,,,,,b,1,0.7672670007632405,2102.808872314902,None,,,,,001,28,2019_Oct_15_1214,ACPT_experiment_5_30_19,3.1.0,59.95395983416993,
,,,C,D,g,b,,,,,,,,,,3,10,70,10,,,,,,,,,,,,,b,1,2.5686924923820698,2106.8619943963186,None,,,,,001,28,2019_Oct_15_1214,ACPT_experiment_5_30_19,3.1.0,59.95395983416993,
,,,C,D,y,b,,,,,,,,,,3,11,71,2,,,,,,,,,,,,,b,1,2.2684267370841553,2112.6998006533404,None,,,,,001,28,2019_Oct_15_1214,ACPT_experiment_5_30_19,3.1.0,59.95395983416993,
,,,C,D,d,v,,,,,,,,,,3,12,72,9,,,,,,,,,,,,,v,1,2.8355314592818104,2118.254069491207,None,,,,,001,28,2019_Oct_15_1214,ACPT_experiment_5_30_19,3.1.0,59.95395983416993,
,,,C,U,g,n,,,,,,,,,,3,13,73,7,,,,,,,,,,,,,n,1,1.2009471079336436,2124.3754379196953,None,,,,,001,28,2019_Oct_15_1214,ACPT_experiment_5_30_19,3.1.0,59.95395983416993,
,,,C,G,g,v,,,,,,,,,,3,14,74,13,,,,,,,,,,,,,v,1,4.553269991566594,2128.8791498607534,None,,,,,001,28,2019_Oct_15_1214,ACPT_experiment_5_30_19,3.1.0,59.95395983416993,
,,,C,G,g,v,,,,,,,,,,3,15,75,4,,,,,,,,,,,,,v,1,2.3852126676292755,2136.701544483826,None,,,,,001,28,2019_Oct_15_1214,ACPT_experiment_5_30_19,3.1.0,59.95395983416993,
,,,C,D,d,v,,,,,,,,,,3,16,76,18,,,,,,,,,,,,,v,1,2.5352995120174455,2142.3725929132324,None,,,,,001,28,2019_Oct_15_1214,ACPT_experiment_5_30_19,3.1.0,59.95395983416993,
,,,C,U,d,n,,,,,,,,,,3,17,77,6,,,,,,,,,,,,,n,1,1.3344000975603194,2148.1937306018854,None,,,,,001,28,2019_Oct_15_1214,ACPT_experiment_5_30_19,3.1.0,59.95395983416993,
,,,C,U,d,n,,,,,,,,,,3,18,78,15,,,,,,,,,,,,,n,1,0.9170097276582965,2152.830967072786,None,,,,,001,28,2019_Oct_15_1214,ACPT_experiment_5_30_19,3.1.0,59.95395983416993,
,,,C,D,g,b,,,,,,,,,,3,19,79,1,,,,,,,,,,,,,b,1,2.635381255014181,2157.0338566334076,None,,,,,001,28,2019_Oct_15_1214,ACPT_experiment_5_30_19,3.1.0,59.95395983416993,
,,,C,D,y,b,,,,,,,,,,4,0,80,11,,,,,,,,,,,,,b,1,0.9340613531303461,2162.9383887815284,None,,,,,001,28,2019_Oct_15_1214,ACPT_experiment_5_30_19,3.1.0,59.95395983416993,
,,,C,G,y,b,,,,,,,,,,4,1,81,14,,,,,,,,,,,,,b,1,0.7169992833896686,2167.17522704208,None,,,,,001,28,2019_Oct_15_1214,ACPT_experiment_5_30_19,3.1.0,59.95395983416993,
,,,C,G,y,b,,,,,,,,,,4,2,82,5,,,,,,,,,,,,,b,1,0.6338840420639826,2171.1613530699806,None,,,,,001,28,2019_Oct_15_1214,ACPT_experiment_5_30_19,3.1.0,59.95395983416993,
,,,C,D,d,v,,,,,,,,,,4,3,83,0,,,,,,,,,,,,,v,1,2.885596932162116,2175.0977257456025,None,,,,,001,28,2019_Oct_15_1214,ACPT_experiment_5_30_19,3.1.0,59.95395983416993,
,,,C,D,g,b,,,,,,,,,,4,4,84,1,,,,,,,,,,,,,b,1,1.4677673596706882,2181.269165382263,None,,,,,001,28,2019_Oct_15_1214,ACPT_experiment_5_30_19,3.1.0,59.95395983416993,
,,,C,D,d,v,,,,,,,,,,4,5,85,9,,,,,,,,,,,,,v,1,1.2176398248984697,2186.006089370331,None,,,,,001,28,2019_Oct_15_1214,ACPT_experiment_5_30_19,3.1.0,59.95395983416993,
,,,C,D,g,b,,,,,,,,,,4,6,86,10,,,,,,,,,,,,,b,1,1.8647977464534051,2190.529570559481,None,,,,,001,28,2019_Oct_15_1214,ACPT_experiment_5_30_19,3.1.0,59.95395983416993,
,,,C,G,g,v,,,,,,,,,,4,7,87,19,,,,,,,,,,,,,v,1,2.185028655327187,2195.680229423736,None,,,,,001,28,2019_Oct_15_1214,ACPT_experiment_5_30_19,3.1.0,59.95395983416993,
,,,C,G,g,v,,,,,,,,,,4,8,88,13,,,,,,,,,,,,,v,1,0.9674244496081883,2201.134396897871,None,,,,,001,28,2019_Oct_15_1214,ACPT_experiment_5_30_19,3.1.0,59.95395983416993,
,,,C,G,d,b,,,,,,,,,,4,9,89,3,,,,,,,,,,,,,b,1,1.8011290676040517,2205.387932101393,None,,,,,001,28,2019_Oct_15_1214,ACPT_experiment_5_30_19,3.1.0,59.95395983416993,
,,,C,U,d,n,,,,,,,,,,4,10,90,15,,,,,,,,,,,,,n,1,1.2843276819585299,2210.474908703214,None,,,,,001,28,2019_Oct_15_1214,ACPT_experiment_5_30_19,3.1.0,59.95395983416993,
,,,C,G,g,v,,,,,,,,,,4,11,91,4,,,,,,,,,,,,,b,0,2.7685649877957985,2215.0620000108665,None,,,,,001,28,2019_Oct_15_1214,ACPT_experiment_5_30_19,3.1.0,59.95395983416993,
,,,C,U,g,n,,,,,,,,,,4,12,92,16,,,,,,,,,,,,,n,1,1.2843403599708836,2221.1164034771564,None,,,,,001,28,2019_Oct_15_1214,ACPT_experiment_5_30_19,3.1.0,59.95395983416993,
,,,C,U,y,n,,,,,,,,,,4,13,93,8,,,,,,,,,,,,,n,1,1.2009308076312664,2225.686593786204,None,,,,,001,28,2019_Oct_15_1214,ACPT_experiment_5_30_19,3.1.0,59.95395983416993,
,,,C,D,d,v,,,,,,,,,,4,14,94,18,,,,,,,,,,,,,v,1,2.1516918204479225,2230.1733398293054,None,,,,,001,28,2019_Oct_15_1214,ACPT_experiment_5_30_19,3.1.0,59.95395983416993,
,,,C,D,y,b,,,,,,,,,,4,15,95,2,,,,,,,,,,,,,b,1,1.0342052787627836,2235.5941698648458,None,,,,,001,28,2019_Oct_15_1214,ACPT_experiment_5_30_19,3.1.0,59.95395983416993,
,,,C,U,y,n,,,,,,,,,,4,16,96,17,,,,,,,,,,,,,n,1,1.0173305417556548,2239.930987236863,None,,,,,001,28,2019_Oct_15_1214,ACPT_experiment_5_30_19,3.1.0,59.95395983416993,
,,,C,U,g,n,,,,,,,,,,4,17,97,7,,,,,,,,,,,,,n,1,0.8172044860848473,2244.234164407263,None,,,,,001,28,2019_Oct_15_1214,ACPT_experiment_5_30_19,3.1.0,59.95395983416993,
,,,C,G,d,b,,,,,,,,,,4,18,98,12,,,,,,,,,,,,,b,1,2.9853671582714014,2248.3542861644846,None,,,,,001,28,2019_Oct_15_1214,ACPT_experiment_5_30_19,3.1.0,59.95395983416993,
,,,C,U,d,n,,,,,,,,,,4,19,99,6,,,,,,,,,,,,,n,1,1.1509275173857532,2254.625476104662,None,,,,,001,28,2019_Oct_15_1214,ACPT_experiment_5_30_19,3.1.0,59.95395983416993,
,,,C,D,y,b,,,,,,,,,,5,0,100,2,,,,,,,,,,,,,b,1,1.550933011190864,2259.0791775108955,None,,,,,001,28,2019_Oct_15_1214,ACPT_experiment_5_30_19,3.1.0,59.95395983416993,
,,,C,G,y,b,,,,,,,,,,5,1,101,14,,,,,,,,,,,,,b,1,1.3844423274176734,2263.915942963431,None,,,,,001,28,2019_Oct_15_1214,ACPT_experiment_5_30_19,3.1.0,59.95395983416993,
,,,C,U,d,n,,,,,,,,,,5,2,102,15,,,,,,,,,,,,,n,1,1.4175008497286399,2268.6031600852684,None,,,,,001,28,2019_Oct_15_1214,ACPT_experiment_5_30_19,3.1.0,59.95395983416993,
,,,C,D,g,b,,,,,,,,,,5,3,103,1,,,,,,,,,,,,,b,1,3.135756765682345,2273.306492168912,None,,,,,001,28,2019_Oct_15_1214,ACPT_experiment_5_30_19,3.1.0,59.95395983416993,
,,,C,U,d,n,,,,,,,,,,5,4,104,6,,,,,,,,,,,,,n,1,1.2009356373509945,2279.728091639092,None,,,,,001,28,2019_Oct_15_1214,ACPT_experiment_5_30_19,3.1.0,59.95395983416993,
,,,C,D,g,b,,,,,,,,,,5,5,105,10,,,,,,,,,,,,,b,1,2.4849913457464936,2284.2318162581623,None,,,,,001,28,2019_Oct_15_1214,ACPT_experiment_5_30_19,3.1.0,59.95395983416993,
,,,C,D,d,v,,,,,,,,,,5,6,106,9,,,,,,,,,,,,,v,1,2.0015886757573753,2289.9859693638837,None,,,,,001,28,2019_Oct_15_1214,ACPT_experiment_5_30_19,3.1.0,59.95395983416993,
,,,C,U,y,n,,,,,,,,,,5,7,107,8,,,,,,,,,,,,,n,1,1.1175363481652312,2295.2733666342474,None,,,,,001,28,2019_Oct_15_1214,ACPT_experiment_5_30_19,3.1.0,59.95395983416993,
,,,C,D,d,v,,,,,,,,,,5,8,108,18,,,,,,,,,,,,,v,1,3.9361927685822593,2299.6936011050393,None,,,,,001,28,2019_Oct_15_1214,ACPT_experiment_5_30_19,3.1.0,59.95395983416993,
,,,C,G,y,b,,,,,,,,,,5,9,109,5,,,,,,,,,,,,,b,1,1.0841814018385776,2306.9156362762624,None,,,,,001,28,2019_Oct_15_1214,ACPT_experiment_5_30_19,3.1.0,59.95395983416993,
,,,C,D,d,v,,,,,,,,,,5,10,110,0,,,,,,,,,,,,,v,1,2.5519768342519455,2311.3023328751133,None,,,,,001,28,2019_Oct_15_1214,ACPT_experiment_5_30_19,3.1.0,59.95395983416993,
,,,C,G,d,b,,,,,,,,,,5,11,111,3,,,,,,,,,,,,,b,1,2.435199657573321,2317.1401801847487,None,,,,,001,28,2019_Oct_15_1214,ACPT_experiment_5_30_19,3.1.0,59.95395983416993,
,,,C,G,g,v,,,,,,,,,,5,12,112,19,,,,,,,,,,,,,v,1,3.6194428798162335,2322.8445431115824,None,,,,,001,28,2019_Oct_15_1214,ACPT_experiment_5_30_19,3.1.0,59.95395983416993,
,,,C,U,g,n,,,,,,,,,,5,13,113,16,,,,,,,,,,,,,n,1,1.6512942741874213,2329.749840770195,None,,,,,001,28,2019_Oct_15_1214,ACPT_experiment_5_30_19,3.1.0,59.95395983416993,
,,,C,U,g,n,,,,,,,,,,5,14,114,7,,,,,,,,,,,,,n,1,1.301034888079812,2334.6702623926067,None,,,,,001,28,2019_Oct_15_1214,ACPT_experiment_5_30_19,3.1.0,59.95395983416993,
,,,C,U,y,n,,,,,,,,,,5,15,115,17,,,,,,,,,,,,,n,1,0.9973575398862522,2339.277252143339,None,,,,,001,28,2019_Oct_15_1214,ACPT_experiment_5_30_19,3.1.0,59.95395983416993,
,,,C,G,d,b,,,,,,,,,,5,16,116,12,,,,,,,,,,,,,b,1,2.501957545560799,2343.5604194852604,None,,,,,001,28,2019_Oct_15_1214,ACPT_experiment_5_30_19,3.1.0,59.95395983416993,
,,,C,D,y,b,,,,,,,,,,5,17,117,11,,,,,,,,,,,,,b,1,0.8673279155955242,2349.3482384504814,None,,,,,001,28,2019_Oct_15_1214,ACPT_experiment_5_30_19,3.1.0,59.95395983416993,
,,,C,G,g,v,,,,,,,,,,5,18,118,4,,,,,,,,,,,,,v,1,2.634915790827108,2353.51851835082,None,,,,,001,28,2019_Oct_15_1214,ACPT_experiment_5_30_19,3.1.0,59.95395983416993,
,,,C,G,g,v,,,,,,,,,,5,19,119,13,0,0,0,0,0,0,0,0,,,,,v,1,2.6520537475298624,2359.422626691081,None,,,,,001,28,2019_Oct_15_1214,ACPT_experiment_5_30_19,3.1.0,59.95395983416993,
,,,C,G,g,v,L,D,d,R,c ,,,,,5,19,119,13,0,0,0,0,,,,,0,0,0,13,,,,,,up,1.1675713334434477,2433.2626748433813,None,001,28,2019_Oct_15_1214,ACPT_experiment_5_30_19,3.1.0,59.95395983416993,
,,,C,G,g,v,R,U,g,R,u,,,,,5,19,119,13,0,0,0,0,,,,,0,1,1,11,,,,,,up,0.8006276823807639,2435.7145693309203,None,001,28,2019_Oct_15_1214,ACPT_experiment_5_30_19,3.1.0,59.95395983416993,
,,,C,G,g,v,R,D,g,R,i,,,,,5,19,119,13,0,0,0,0,,,,,0,2,2,3,,,,,,up,0.4336707495904193,2437.782810546416,None,001,28,2019_Oct_15_1214,ACPT_experiment_5_30_19,3.1.0,59.95395983416993,
,,,C,G,g,v,L,U,y,L,u,,,,,5,19,119,13,0,0,0,0,,,,,0,3,3,24,,,,,,down,1.3676880315324524,2439.500827391269,None,001,28,2019_Oct_15_1214,ACPT_experiment_5_30_19,3.1.0,59.95395983416993,
,,,C,G,g,v,R,U,d,L,u,,,,,5,19,119,13,0,0,0,0,,,,,0,4,4,8,,,,,,up,0.583788383438332,2442.1528370676115,None,001,28,2019_Oct_15_1214,ACPT_experiment_5_30_19,3.1.0,59.95395983416993,
,,,C,G,g,v,R,D,g,L,i,,,,,5,19,119,13,0,0,0,0,,,,,0,5,5,2,,,,,,up,0.483588916035842,2444.020934115989,None,001,28,2019_Oct_15_1214,ACPT_experiment_5_30_19,3.1.0,59.95395983416993,
,,,C,G,g,v,R,G,y,L,y,,,,,5,19,119,13,0,0,0,0,,,,,0,6,6,28,,,,,,down,0.9838147054078945,2445.8059104896065,None,001,28,2019_Oct_15_1214,ACPT_experiment_5_30_19,3.1.0,59.95395983416993,
,,,C,G,g,v,L,G,g,L,c ,,,,,5,19,119,13,0,0,0,0,,,,,0,7,7,18,,,,,,up,0.5337778486136813,2448.0740254079446,None,001,28,2019_Oct_15_1214,ACPT_experiment_5_30_19,3.1.0,59.95395983416993,
,,,C,G,g,v,R,U,g,L,u,,,,,5,19,119,13,0,0,0,0,,,,,0,8,8,10,,,,,,up,0.4837386373310437,2449.8921128270695,None,001,28,2019_Oct_15_1214,ACPT_experiment_5_30_19,3.1.0,59.95395983416993,
,,,C,G,g,v,L,D,y,L,y,,,,,5,19,119,13,0,0,0,0,,,,,0,9,9,32,,,,,,down,0.6004765725410834,2451.676844092438,None,001,28,2019_Oct_15_1214,ACPT_experiment_5_30_19,3.1.0,59.95395983416993,
,,,C,G,g,v,L,G,d,L,i,,,,,5,19,119,13,0,0,0,0,,,,,0,10,10,16,,,,,,up,0.4002979936740303,2453.5782818998423,None,001,28,2019_Oct_15_1214,ACPT_experiment_5_30_19,3.1.0,59.95395983416993,
,,,C,G,g,v,R,U,y,R,u,,,,,5,19,119,13,0,0,0,0,,,,,0,11,11,31,,,,,,down,0.8506545175087012,2455.2629045569,None,001,28,2019_Oct_15_1214,ACPT_experiment_5_30_19,3.1.0,59.95395983416993,
,,,C,G,g,v,L,U,d,R,u,,,,,5,19,119,13,0,0,0,0,,,,,0,12,12,21,,,,,,up,0.6171415186208833,2457.397877700643,None,001,28,2019_Oct_15_1214,ACPT_experiment_5_30_19,3.1.0,59.95395983416993,
,,,C,G,g,v,R,D,d,R,c ,,,,,5,19,119,13,0,0,0,0,,,,,0,13,13,1,,,,,,up,0.7005459393831188,2459.2993444863623,None,001,28,2019_Oct_15_1214,ACPT_experiment_5_30_19,3.1.0,59.95395983416993,
,,,C,G,g,v,R,G,d,L,i,,,,,5,19,119,13,0,0,0,0,,,,,0,14,14,4,,,,,,up,0.7672576431814377,2461.28419607211,None,001,28,2019_Oct_15_1214,ACPT_experiment_5_30_19,3.1.0,59.95395983416993,
,,,C,G,g,v,R,D,d,L,c,,,,,5,19,119,13,0,0,0,0,,,,,0,15,15,0,,,,,,up,0.8006156080828077,2463.335769926666,None,001,28,2019_Oct_15_1214,ACPT_experiment_5_30_19,3.1.0,59.95395983416993,
,,,C,G,g,v,L,U,g,R,u,,,,,5,19,119,13,0,0,0,0,,,,,0,16,16,23,,,,,,up,0.6338327262983512,2465.4206966145475,None,001,28,2019_Oct_15_1214,ACPT_experiment_5_30_19,3.1.0,59.95395983416993,
,,,C,G,g,v,R,G,g,L,c ,,,,,5,19,119,13,0,0,0,0,,,,,0,17,17,6,,,,,,up,0.6171312554670294,2467.3388561172314,None,001,28,2019_Oct_15_1214,ACPT_experiment_5_30_19,3.1.0,59.95395983416993,
,,,C,G,g,v,L,D,d,L,c ,,,,,5,19,119,13,0,0,0,0,,,,,0,18,18,12,,,,,,down,1.1341095295792911,2469.2403739168594,None,001,28,2019_Oct_15_1214,ACPT_experiment_5_30_19,3.1.0,59.95395983416993,
,,,C,G,g,v,R,U,d,R,u,,,,,5,19,119,13,0,0,0,0,,,,,0,19,19,9,,,,,,up,0.5837675552747896,2471.658842823429,None,001,28,2019_Oct_15_1214,ACPT_experiment_5_30_19,3.1.0,59.95395983416993,
,,,C,G,g,v,L,G,d,R,i,,,,,5,19,119,13,0,0,0,0,,,,,0,20,20,17,,,,,,up,0.700525111218667,2473.526941079237,None,001,28,2019_Oct_15_1214,ACPT_experiment_5_30_19,3.1.0,59.95395983416993,
,,,C,G,g,v,L,G,g,R,c ,,,,,5,19,119,13,0,0,0,0,,,,,0,21,21,19,,,,,,up,0.5337742263236578,2475.4950863644344,None,001,28,2019_Oct_15_1214,ACPT_experiment_5_30_19,3.1.0,59.95395983416993,
,,,C,G,g,v,R,G,d,R,i,,,,,5,19,119,13,0,0,0,0,,,,,0,22,22,5,,,,,,up,0.7336086876985064,2477.330144209378,None,001,28,2019_Oct_15_1214,ACPT_experiment_5_30_19,3.1.0,59.95395983416993,
,,,C,G,g,v,L,U,g,L,u,,,,,5,19,119,13,0,0,0,0,,,,,0,23,23,22,,,,,,up,0.7005332613707651,2479.348071221454,None,001,28,2019_Oct_15_1214,ACPT_experiment_5_30_19,3.1.0,59.95395983416993,
,,,C,G,g,v,L,G,y,R,y,,,,,5,19,119,13,0,0,0,0,,,,,0,24,24,35,,,,,,down,0.9006671653351077,2481.3329554078064,None,001,28,2019_Oct_15_1214,ACPT_experiment_5_30_19,3.1.0,59.95395983416993,
,,,C,G,g,v,L,U,y,R,u,,,,,5,19,119,13,0,0,0,0,,,,,0,25,25,25,,,,,,down,0.6503041817513804,2483.534777902344,None,001,28,2019_Oct_15_1214,ACPT_experiment_5_30_19,3.1.0,59.95395983416993,
,,,C,G,g,v,L,G,y,L,y,,,,,5,19,119,13,0,0,0,0,,,,,0,26,26,34,,,,,,down,0.8006165136548589,2485.4861166703186,None,001,28,2019_Oct_15_1214,ACPT_experiment_5_30_19,3.1.0,59.95395983416993,
,,,C,G,g,v,R,D,y,L,y,,,,,5,19,119,13,0,0,0,0,,,,,0,27,27,26,,,,,,down,0.9672188846852805,2487.5878864001743,None,001,28,2019_Oct_15_1214,ACPT_experiment_5_30_19,3.1.0,59.95395983416993,
,,,C,G,g,v,R,U,y,L,u,,,,,5,19,119,13,0,0,0,0,,,,,0,28,28,30,,,,,,down,0.6171659690744491,2489.856140474797,None,001,28,2019_Oct_15_1214,ACPT_experiment_5_30_19,3.1.0,59.95395983416993,
,,,C,G,g,v,R,D,y,R,y,,,,,5,19,119,13,0,0,0,0,,,,,0,29,29,27,,,,,,down,0.7005380910895838,2491.757602732655,None,001,28,2019_Oct_15_1214,ACPT_experiment_5_30_19,3.1.0,59.95395983416993,
,,,C,G,g,v,L,U,d,L,u,,,,,5,19,119,13,0,0,0,0,,,,,0,30,30,20,,,,,,up,0.7839766217448414,2493.7424561295475,None,001,28,2019_Oct_15_1214,ACPT_experiment_5_30_19,3.1.0,59.95395983416993,
,,,C,G,g,v,R,G,g,R,c ,,,,,5,19,119,13,0,0,0,0,,,,,0,31,31,7,,,,,,up,0.7005302427960487,2495.810717569492,None,001,28,2019_Oct_15_1214,ACPT_experiment_5_30_19,3.1.0,59.95395983416993,
,,,C,G,g,v,L,D,g,R,i,,,,,5,19,119,13,0,0,0,0,,,,,0,32,32,15,,,,,,up,0.8840227455630156,2497.7955655329506,None,001,28,2019_Oct_15_1214,ACPT_experiment_5_30_19,3.1.0,59.95395983416993,
,,,C,G,g,v,L,D,y,R,y,,,,,5,19,119,13,0,0,0,0,,,,,0,33,33,33,,,,,,down,1.0007902628030934,2499.9805917734184,None,001,28,2019_Oct_15_1214,ACPT_experiment_5_30_19,3.1.0,59.95395983416993,
,,,C,G,g,v,R,G,y,R,y,,,,,5,19,119,13,0,0,0,0,,,,,0,34,34,29,,,,,,down,0.8173539055223955,2502.282344780371,None,001,28,2019_Oct_15_1214,ACPT_experiment_5_30_19,3.1.0,59.95395983416993,
,,,C,G,g,v,L,D,g,L,i,,,,,5,19,119,13,0,0,0,0,,,,,0,35,35,14,,,,,,up,0.7171951888758485,2504.383991352388,None,001,28,2019_Oct_15_1214,ACPT_experiment_5_30_19,3.1.0,59.95395983416993,
,,,C,G,g,v,L,G,g,R,c ,,,,,5,19,119,13,0,0,0,0,,,,,1,0,36,19,,,,,,up,0.6839057456154478,2506.3854755854672,None,001,28,2019_Oct_15_1214,ACPT_experiment_5_30_19,3.1.0,59.95395983416993,
,,,C,G,g,v,R,D,d,R,c ,,,,,5,19,119,13,0,0,0,0,,,,,1,1,37,1,,,,,,up,0.6838655985739024,2508.353676110579,None,001,28,2019_Oct_15_1214,ACPT_experiment_5_30_19,3.1.0,59.95395983416993,
,,,C,G,g,v,L,D,y,R,y,,,,,5,19,119,13,0,0,0,0,,,,,1,2,38,33,,,,,,down,0.9507326382163228,2510.3218561093836,None,001,28,2019_Oct_15_1214,ACPT_experiment_5_30_19,3.1.0,59.95395983416993,
,,,C,G,g,v,L,U,d,L,u,,,,,5,19,119,13,0,0,0,0,,,,,1,3,39,20,,,,,,up,0.6171572152079534,2512.556901336685,None,001,28,2019_Oct_15_1214,ACPT_experiment_5_30_19,3.1.0,59.95395983416993,
,,,C,G,g,v,L,G,d,R,i,,,,,5,19,119,13,0,0,0,0,,,,,1,4,40,17,,,,,,up,0.5504394742611112,2514.4416675571456,None,001,28,2019_Oct_15_1214,ACPT_experiment_5_30_19,3.1.0,59.95395983416993,
,,,C,G,g,v,L,D,d,L,c ,,,,,5,19,119,13,0,0,0,0,,,,,1,5,41,12,,,,,,down,0.7504704448356279,2516.309925495544,None,001,28,2019_Oct_15_1214,ACPT_experiment_5_30_19,3.1.0,59.95395983416993,
,,,C,G,g,v,L,D,g,R,i,,,,,5,19,119,13,0,0,0,0,,,,,1,6,42,15,,,,,,up,0.9674105641661299,2518.3446846827264,None,001,28,2019_Oct_15_1214,ACPT_experiment_5_30_19,3.1.0,59.95395983416993,
,,,C,G,g,v,R,G,g,L,c ,,,,,5,19,119,13,0,0,0,0,,,,,1,7,43,6,,,,,,up,0.6505046150987255,2520.596406628548,None,001,28,2019_Oct_15_1214,ACPT_experiment_5_30_19,3.1.0,59.95395983416993,
,,,C,G,g,v,L,U,y,R,u,,,,,5,19,119,13,0,0,0,0,,,,,1,8,44,25,,,,,,down,0.8506521026483824,2522.5312331903133,None,001,28,2019_Oct_15_1214,ACPT_experiment_5_30_19,3.1.0,59.95395983416993,
,,,C,G,g,v,L,D,d,R,c ,,,,,5,19,119,13,0,0,0,0,,,,,1,9,45,13,,,,,,up,0.8339756859859335,2524.6662033154817,None,001,28,2019_Oct_15_1214,ACPT_experiment_5_30_19,3.1.0,59.95395983416993,
,,,C,G,g,v,R,G,d,R,i,,,,,5,19,119,13,0,0,0,0,,,,,1,10,46,5,,,,,,up,0.6838668060045165,2526.7844961184146,None,001,28,2019_Oct_15_1214,ACPT_experiment_5_30_19,3.1.0,59.95395983416993,
,,,C,G,g,v,L,D,g,L,i,,,,,5,19,119,13,0,0,0,0,,,,,1,11,47,14,,,,,,up,0.8172696872943561,2528.752693021237,None,001,28,2019_Oct_15_1214,ACPT_experiment_5_30_19,3.1.0,59.95395983416993,
,,,C,G,g,v,R,G,d,L,i,,,,,5,19,119,13,0,0,0,0,,,,,1,12,48,4,,,,,,up,0.6171596300682722,2530.854290390489,None,001,28,2019_Oct_15_1214,ACPT_experiment_5_30_19,3.1.0,59.95395983416993,
,,,C,G,g,v,R,U,g,R,u,,,,,5,19,119,13,0,0,0,0,,,,,1,13,49,11,,,,,,up,0.5671629806856799,2532.7557505353443,None,001,28,2019_Oct_15_1214,ACPT_experiment_5_30_19,3.1.0,59.95395983416993,
,,,C,G,g,v,L,U,g,R,u,,,,,5,19,119,13,0,0,0,0,,,,,1,14,50,23,,,,,,up,0.6838725412962958,2534.6071717707737,None,001,28,2019_Oct_15_1214,ACPT_experiment_5_30_19,3.1.0,59.95395983416993,
,,,C,G,g,v,R,D,y,R,y,,,,,5,19,119,13,0,0,0,0,,,,,1,15,51,27,,,,,,down,0.5837763091412853,2536.5753508640064,None,001,28,2019_Oct_15_1214,ACPT_experiment_5_30_19,3.1.0,59.95395983416993,
,,,C,G,g,v,L,U,g,L,u,,,,,5,19,119,13,0,0,0,0,,,,,1,16,52,22,,,,,,up,0.766853154198543,2538.4605137251565,None,001,28,2019_Oct_15_1214,ACPT_experiment_5_30_19,3.1.0,59.95395983416993,
,,,C,G,g,v,L,D,y,L,y,,,,,5,19,119,13,0,0,0,0,,,,,1,17,53,32,,,,,,down,0.9006898046436618,2540.5117102579006,None,001,28,2019_Oct_15_1214,ACPT_experiment_5_30_19,3.1.0,59.95395983416993,
,,,C,G,g,v,R,D,g,L,i,,,,,5,19,119,13,0,0,0,0,,,,,1,18,54,2,,,,,,up,1.0341222679635393,2542.6967214054966,None,001,28,2019_Oct_15_1214,ACPT_experiment_5_30_19,3.1.0,59.95395983416993,
,,,C,G,g,v,R,U,d,R,u,,,,,5,19,119,13,0,0,0,0,,,,,1,19,55,9,,,,,,up,0.6671635240290925,2545.015175581422,None,001,28,2019_Oct_15_1214,ACPT_experiment_5_30_19,3.1.0,59.95395983416993,
,,,C,G,g,v,R,U,y,R,u,,,,,5,19,119,13,0,0,0,0,,,,,1,20,56,31,,,,,,down,0.7005383929472373,2546.9666613539757,None,001,28,2019_Oct_15_1214,ACPT_experiment_5_30_19,3.1.0,59.95395983416993,
,,,C,G,g,v,R,G,y,L,y,,,,,5,19,119,13,0,0,0,0,,,,,1,21,57,28,,,,,,down,1.2509685096274552,2548.9515192787294,None,001,28,2019_Oct_15_1214,ACPT_experiment_5_30_19,3.1.0,59.95395983416993,
,,,C,G,g,v,L,U,y,L,u,,,,,5,19,119,13,0,0,0,0,,,,,1,22,58,24,,,,,,down,0.9674138845975904,2551.4868033960165,None,001,28,2019_Oct_15_1214,ACPT_experiment_5_30_19,3.1.0,59.95395983416993,
,,,C,G,g,v,L,G,g,L,c ,,,,,5,19,119,13,0,0,0,0,,,,,1,23,59,18,,,,,,up,1.3005664053180226,2553.7556134920615,None,001,28,2019_Oct_15_1214,ACPT_experiment_5_30_19,3.1.0,59.95395983416993,
,,,C,G,g,v,L,U,d,R,u,,,,,5,19,119,13,0,0,0,0,,,,,1,24,60,21,,,,,,up,1.1508469214468278,2556.3405664415413,None,001,28,2019_Oct_15_1214,ACPT_experiment_5_30_19,3.1.0,59.95395983416993,
,,,C,G,g,v,L,G,d,L,i,,,,,5,19,119,13,0,0,0,0,,,,,1,25,61,16,,,,,,down,1.4344329396508329,2558.7757301780775,None,001,28,2019_Oct_15_1214,ACPT_experiment_5_30_19,3.1.0,59.95395983416993,
,,,C,G,g,v,R,D,d,L,c,,,,,5,19,119,13,0,0,0,0,,,,,1,26,62,0,,,,,,up,0.9674129790255392,2561.494485366253,None,001,28,2019_Oct_15_1214,ACPT_experiment_5_30_19,3.1.0,59.95395983416993,
,,,C,G,g,v,R,U,y,L,u,,,,,5,19,119,13,0,0,0,0,,,,,1,27,63,30,,,,,,down,0.8840115768371106,2563.7462136510803,None,001,28,2019_Oct_15_1214,ACPT_experiment_5_30_19,3.1.0,59.95395983416993,
,,,C,G,g,v,R,G,y,R,y,,,,,5,19,119,13,0,0,0,0,,,,,1,28,64,29,,,,,,down,0.9674495037761517,2565.9145200074136,None,001,28,2019_Oct_15_1214,ACPT_experiment_5_30_19,3.1.0,59.95395983416993,
,,,C,G,g,v,L,G,y,R,y,,,,,5,19,119,13,0,0,0,0,,,,,1,29,65,35,,,,,,down,1.000776679217779,2568.16626972412,None,001,28,2019_Oct_15_1214,ACPT_experiment_5_30_19,3.1.0,59.95395983416993,
,,,C,G,g,v,R,D,y,L,y,,,,,5,19,119,13,0,0,0,0,,,,,1,30,66,26,,,,,,down,0.6505049169554695,2570.4513601998533,None,001,28,2019_Oct_15_1214,ACPT_experiment_5_30_19,3.1.0,59.95395983416993,
,,,C,G,g,v,R,D,g,R,i,,,,,5,19,119,13,0,0,0,0,,,,,1,31,67,3,,,,,,up,0.8839783725170491,2572.386216343649,None,001,28,2019_Oct_15_1214,ACPT_experiment_5_30_19,3.1.0,59.95395983416993,
,,,C,G,g,v,R,U,g,L,u,,,,,5,19,119,13,0,0,0,0,,,,,1,32,68,10,,,,,,up,1.150888577774822,2574.5545067015373,None,001,28,2019_Oct_15_1214,ACPT_experiment_5_30_19,3.1.0,59.95395983416993,
,,,C,G,g,v,R,U,d,L,u,,,,,5,19,119,13,0,0,0,0,,,,,1,33,69,8,,,,,,up,0.7339147711527403,2576.9897160185483,None,001,28,2019_Oct_15_1214,ACPT_experiment_5_30_19,3.1.0,59.95395983416993,
,,,C,G,g,v,L,G,y,L,y,,,,,5,19,119,13,0,0,0,0,,,,,1,34,70,34,,,,,,down,0.9674126771669762,2579.007934021206,None,001,28,2019_Oct_15_1214,ACPT_experiment_5_30_19,3.1.0,59.95395983416993,
,,,C,G,g,v,R,G,g,R,c ,,,,,5,19,119,13,0,0,0,0,,,,,1,35,71,7,,,,,,up,0.7172123947502769,2581.2596653246082,None,001,28,2019_Oct_15_1214,ACPT_experiment_5_30_19,3.1.0,59.95395983416993,
,,,C,G,g,v,,,,,,,,,,5,19,119,13,1,0,1,0,0,0,0,0,,,,,,,,,,,,,,001,28,2019_Oct_15_1214,ACPT_experiment_5_30_19,3.1.0,59.95395983416993,
,,,C,G,g,v,L,G,y,R,y,,,,,5,19,119,13,1,0,1,0,,,,,0,0,0,35,,,,,,down,1.3674712978845491,2622.258061857836,None,001,28,2019_Oct_15_1214,ACPT_experiment_5_30_19,3.1.0,59.95395983416993,
,,,C,G,g,v,L,D,y,R,y,,,,,5,19,119,13,1,0,1,0,,,,,0,1,1,33,,,,,,down,0.7839343617015402,2624.926533933909,None,001,28,2019_Oct_15_1214,ACPT_experiment_5_30_19,3.1.0,59.95395983416993,
,,,C,G,g,v,L,U,d,L,u,,,,,5,19,119,13,1,0,1,0,,,,,0,2,2,20,,,,,,up,0.5337413238621593,2627.011466357081,None,001,28,2019_Oct_15_1214,ACPT_experiment_5_30_19,3.1.0,59.95395983416993,
,,,C,G,g,v,R,D,g,R,i,,,,,5,19,119,13,1,0,1,0,,,,,0,3,3,3,,,,,,up,0.55041623123725,2628.8295293257524,None,001,28,2019_Oct_15_1214,ACPT_experiment_5_30_19,3.1.0,59.95395983416993,
,,,C,G,g,v,R,U,d,R,u,,,,,5,19,119,13,1,0,1,0,,,,,0,4,4,9,,,,,,down,0.7971680941509476,2630.6843974714,None,001,28,2019_Oct_15_1214,ACPT_experiment_5_30_19,3.1.0,59.95395983416993,
,,,C,G,g,v,R,G,g,R,c ,,,,,5,19,119,13,1,0,1,0,,,,,0,5,5,7,,,,,,up,0.6005046452846727,2632.76588841779,None,001,28,2019_Oct_15_1214,ACPT_experiment_5_30_19,3.1.0,59.95395983416993,
,,,C,G,g,v,R,U,y,L,u,,,,,5,19,119,13,1,0,1,0,,,,,0,6,6,30,,,,,,down,0.700332526166676,2634.6675215269643,None,001,28,2019_Oct_15_1214,ACPT_experiment_5_30_19,3.1.0,59.95395983416993,
,,,C,G,g,v,R,U,g,L,u,,,,,5,19,119,13,1,0,1,0,,,,,0,7,7,10,,,,,,up,0.6004427645066244,2636.668893167215,None,001,28,2019_Oct_15_1214,ACPT_experiment_5_30_19,3.1.0,59.95395983416993,
,,,C,G,g,v,L,U,g,L,u,,,,,5,19,119,13,1,0,1,0,,,,,0,8,8,22,,,,,,up,0.8673454233276061,2638.5369874988755,None,001,28,2019_Oct_15_1214,ACPT_experiment_5_30_19,3.1.0,59.95395983416993,
,,,C,G,g,v,L,D,g,R,i,,,,,5,19,119,13,1,0,1,0,,,,,0,9,9,15,,,,,,up,0.867337273177327,2640.688637361138,None,001,28,2019_Oct_15_1214,ACPT_experiment_5_30_19,3.1.0,59.95395983416993,
,,,C,G,g,v,L,U,g,R,u,,,,,5,19,119,13,1,0,1,0,,,,,0,10,10,23,,,,,,up,0.6671768057567533,2642.8402905438325,None,001,28,2019_Oct_15_1214,ACPT_experiment_5_30_19,3.1.0,59.95395983416993,
,,,C,G,g,v,R,D,y,L,y,,,,,5,19,119,13,1,0,1,0,,,,,0,11,11,26,,,,,,down,0.6671804280458673,2644.7917862776812,None,001,28,2019_Oct_15_1214,ACPT_experiment_5_30_19,3.1.0,59.95395983416993,
,,,C,G,g,v,L,D,y,L,y,,,,,5,19,119,13,1,0,1,0,,,,,0,12,12,32,,,,,,down,0.7172259783346817,2646.7432832189597,None,001,28,2019_Oct_15_1214,ACPT_experiment_5_30_19,3.1.0,59.95395983416993,
,,,C,G,g,v,R,U,y,R,u,,,,,5,19,119,13,1,0,1,0,,,,,0,13,13,31,,,,,,down,0.6171312554679389,2648.7448353699656,None,001,28,2019_Oct_15_1214,ACPT_experiment_5_30_19,3.1.0,59.95395983416993,
,,,C,G,g,v,L,G,d,L,i,,,,,5,19,119,13,1,0,1,0,,,,,0,14,14,16,,,,,,up,0.9340842942965537,2650.6462598956414,None,001,28,2019_Oct_15_1214,ACPT_experiment_5_30_19,3.1.0,59.95395983416993,
,,,C,G,g,v,L,G,g,L,c ,,,,,5,19,119,13,1,0,1,0,,,,,0,15,15,18,,,,,,up,1.4345129318753607,2652.8479480636142,None,001,28,2019_Oct_15_1214,ACPT_experiment_5_30_19,3.1.0,59.95395983416993,
,,,C,G,g,v,L,U,d,R,u,,,,,5,19,119,13,1,0,1,0,,,,,0,16,16,21,,,,,,up,1.4177399208292627,2655.566732230104,None,001,28,2019_Oct_15_1214,ACPT_experiment_5_30_19,3.1.0,59.95395983416993,
,,,C,G,g,v,R,D,d,L,c,,,,,5,19,119,13,1,0,1,0,,,,,0,17,17,0,,,,,,down,0.7839838663230694,2658.2688037570388,None,001,28,2019_Oct_15_1214,ACPT_experiment_5_30_19,3.1.0,59.95395983416993,
,,,C,G,g,v,R,D,d,R,c ,,,,,5,19,119,13,1,0,1,0,,,,,0,18,18,1,,,,,,up,0.6504976723772415,2660.337057348689,None,001,28,2019_Oct_15_1214,ACPT_experiment_5_30_19,3.1.0,59.95395983416993,
,,,C,G,g,v,R,G,d,L,i,,,,,5,19,119,13,1,0,1,0,,,,,0,19,19,4,,,,,,up,0.617139405618218,2662.271876967733,None,001,28,2019_Oct_15_1214,ACPT_experiment_5_30_19,3.1.0,59.95395983416993,
,,,C,G,g,v,L,D,d,L,c ,,,,,5,19,119,13,1,0,1,0,,,,,0,20,20,12,,,,,,down,0.5837862704365762,2664.190030131411,None,001,28,2019_Oct_15_1214,ACPT_experiment_5_30_19,3.1.0,59.95395983416993,
,,,C,G,g,v,R,G,d,R,i,,,,,5,19,119,13,1,0,1,0,,,,,0,21,21,5,,,,,,up,0.5003848682481475,2666.0581166147767,None,001,28,2019_Oct_15_1214,ACPT_experiment_5_30_19,3.1.0,59.95395983416993,
,,,C,G,g,v,L,D,d,R,c ,,,,,5,19,119,13,1,0,1,0,,,,,0,22,22,13,,,,,,up,0.6504988798069462,2667.842820411118,None,001,28,2019_Oct_15_1214,ACPT_experiment_5_30_19,3.1.0,59.95395983416993,
,,,C,G,g,v,R,U,d,L,u,,,,,5,19,119,13,1,0,1,0,,,,,0,23,23,8,,,,,,up,0.9006804470627685,2669.7776524063165,None,001,28,2019_Oct_15_1214,ACPT_experiment_5_30_19,3.1.0,59.95395983416993,
,,,C,G,g,v,R,D,g,L,i,,,,,5,19,119,13,1,0,1,0,,,,,0,24,24,2,,,,,,up,0.6672115193632635,2671.962650272185,None,001,28,2019_Oct_15_1214,ACPT_experiment_5_30_19,3.1.0,59.95395983416993,
,,,C,G,g,v,L,U,y,L,u,,,,,5,19,119,13,1,0,1,0,,,,,0,25,25,24,,,,,,down,0.600466309388139,2673.9141481190354,None,001,28,2019_Oct_15_1214,ACPT_experiment_5_30_19,3.1.0,59.95395983416993,
,,,C,G,g,v,L,G,g,R,c ,,,,,5,19,119,13,1,0,1,0,,,,,0,26,26,19,,,,,,up,0.68388853974011,2675.798928224939,None,001,28,2019_Oct_15_1214,ACPT_experiment_5_30_19,3.1.0,59.95395983416993,
,,,C,G,g,v,L,G,d,R,i,,,,,5,19,119,13,1,0,1,0,,,,,0,27,27,17,,,,,,up,1.0508349075198566,2677.7671076200286,None,001,28,2019_Oct_15_1214,ACPT_experiment_5_30_19,3.1.0,59.95395983416993,
,,,C,G,g,v,L,D,g,L,i,,,,,5,19,119,13,1,0,1,0,,,,,0,28,28,14,,,,,,up,0.6338426875945515,2680.1022131584486,None,001,28,2019_Oct_15_1214,ACPT_experiment_5_30_19,3.1.0,59.95395983416993,
,,,C,G,g,v,L,U,y,R,u,,,,,5,19,119,13,1,0,1,0,,,,,0,29,29,25,,,,,,down,0.8339777989876893,2682.020375075992,None,001,28,2019_Oct_15_1214,ACPT_experiment_5_30_19,3.1.0,59.95395983416993,
,,,C,G,g,v,R,D,y,R,y,,,,,5,19,119,13,1,0,1,0,,,,,0,30,30,27,,,,,,down,0.650500690951958,2684.1386727086456,None,001,28,2019_Oct_15_1214,ACPT_experiment_5_30_19,3.1.0,59.95395983416993,
,,,C,G,g,v,L,G,y,L,y,,,,,5,19,119,13,1,0,1,0,,,,,0,31,31,34,,,,,,down,0.8006131932233984,2686.07348749797,None,001,28,2019_Oct_15_1214,ACPT_experiment_5_30_19,3.1.0,59.95395983416993,
,,,C,G,g,v,R,G,y,L,y,,,,,5,19,119,13,1,0,1,0,,,,,0,32,32,28,,,,,,down,0.6504871073666436,2688.1584332028706,None,001,28,2019_Oct_15_1214,ACPT_experiment_5_30_19,3.1.0,59.95395983416993,
,,,C,G,g,v,R,G,y,R,y,,,,,5,19,119,13,1,0,1,0,,,,,0,33,33,29,,,,,,down,0.7338870002668045,2690.0932473884804,None,001,28,2019_Oct_15_1214,ACPT_experiment_5_30_19,3.1.0,59.95395983416993,
,,,C,G,g,v,R,U,g,R,u,,,,,5,19,119,13,1,0,1,0,,,,,0,34,34,11,,,,,,up,0.8339774971300358,2692.1281345632215,None,001,28,2019_Oct_15_1214,ACPT_experiment_5_30_19,3.1.0,59.95395983416993,
,,,C,G,g,v,R,G,g,L,c ,,,,,5,19,119,13,1,0,1,0,,,,,0,35,35,6,,,,,,up,0.6671798243305602,2694.246427668012,None,001,28,2019_Oct_15_1214,ACPT_experiment_5_30_19,3.1.0,59.95395983416993,
,,,C,G,g,v,L,G,d,L,i,,,,,5,19,119,13,1,0,1,0,,,,,1,0,36,16,,,,,,down,0.7839385877050518,2696.1979267222923,None,001,28,2019_Oct_15_1214,ACPT_experiment_5_30_19,3.1.0,59.95395983416993,
,,,C,G,g,v,L,U,g,R,u,,,,,5,19,119,13,1,0,1,0,,,,,1,1,37,23,,,,,,up,0.8173391145073765,2698.2661860492353,None,001,28,2019_Oct_15_1214,ACPT_experiment_5_30_19,3.1.0,59.95395983416993,
,,,C,G,g,v,R,U,g,L,u,,,,,5,19,119,13,1,0,1,0,,,,,1,2,38,10,,,,,,up,0.6671774094711509,2700.3678009262194,None,001,28,2019_Oct_15_1214,ACPT_experiment_5_30_19,3.1.0,59.95395983416993,
,,,C,G,g,v,R,D,y,L,y,,,,,5,19,119,13,1,0,1,0,,,,,1,3,39,26,,,,,,down,0.7672884326411804,2702.319288509917,None,001,28,2019_Oct_15_1214,ACPT_experiment_5_30_19,3.1.0,59.95395983416993,
,,,C,G,g,v,L,D,d,L,c ,,,,,5,19,119,13,1,0,1,0,,,,,1,4,40,12,,,,,,up,0.9006979547948504,2704.3708726276263,None,001,28,2019_Oct_15_1214,ACPT_experiment_5_30_19,3.1.0,59.95395983416993,
,,,C,G,g,v,R,G,d,L,i,,,,,5,19,119,13,1,0,1,0,,,,,1,5,41,4,,,,,,up,0.6504988798069462,2706.555883171507,None,001,28,2019_Oct_15_1214,ACPT_experiment_5_30_19,3.1.0,59.95395983416993,
,,,C,G,g,v,L,D,y,L,y,,,,,5,19,119,13,1,0,1,0,,,,,1,6,42,32,,,,,,down,0.8504462358669116,2708.507558208681,None,001,28,2019_Oct_15_1214,ACPT_experiment_5_30_19,3.1.0,59.95395983416993,
,,,C,G,g,v,R,G,g,L,c ,,,,,5,19,119,13,1,0,1,0,,,,,1,7,43,6,,,,,,up,1.2009033386038936,2710.6590541236446,None,001,28,2019_Oct_15_1214,ACPT_experiment_5_30_19,3.1.0,59.95395983416993,
,,,C,G,g,v,R,G,d,R,i,,,,,5,19,119,13,1,0,1,0,,,,,1,8,44,5,,,,,,down,0.8840091619767918,2713.1442772959126,None,001,28,2019_Oct_15_1214,ACPT_experiment_5_30_19,3.1.0,59.95395983416993,
,,,C,G,g,v,R,G,y,R,y,,,,,5,19,119,13,1,0,1,0,,,,,1,9,45,29,,,,,,down,1.0841928724212266,2715.3125830485305,None,001,28,2019_Oct_15_1214,ACPT_experiment_5_30_19,3.1.0,59.95395983416993,
,,,C,G,g,v,L,U,d,R,u,,,,,5,19,119,13,1,0,1,0,,,,,1,10,46,21,,,,,,up,0.7005076034874946,2717.681138014659,None,001,28,2019_Oct_15_1214,ACPT_experiment_5_30_19,3.1.0,59.95395983416993,
,,,C,G,g,v,R,D,d,L,c,,,,,5,19,119,13,1,0,1,0,,,,,1,11,47,0,,,,,,up,1.017438908580516,2719.6659612258063,None,001,28,2019_Oct_15_1214,ACPT_experiment_5_30_19,3.1.0,59.95395983416993,
,,,C,G,g,v,R,U,y,R,u,,,,,5,19,119,13,1,0,1,0,,,,,1,12,48,31,,,,,,down,0.5670992887635293,2721.967717855049,None,001,28,2019_Oct_15_1214,ACPT_experiment_5_30_19,3.1.0,59.95395983416993,
,,,C,G,g,v,L,D,d,R,c ,,,,,5,19,119,13,1,0,1,0,,,,,1,13,49,13,,,,,,down,0.9674359201908374,2723.8191409016235,None,001,28,2019_Oct_15_1214,ACPT_experiment_5_30_19,3.1.0,59.95395983416993,
,,,C,G,g,v,L,D,g,R,i,,,,,5,19,119,13,1,0,1,0,,,,,1,14,50,15,,,,,,up,0.6671759001847022,2726.0708670734493,None,001,28,2019_Oct_15_1214,ACPT_experiment_5_30_19,3.1.0,59.95395983416993,
,,,C,G,g,v,R,D,g,R,i,,,,,5,19,119,13,1,0,1,0,,,,,1,15,51,3,,,,,,up,1.117527292441082,2728.0223670333025,None,001,28,2019_Oct_15_1214,ACPT_experiment_5_30_19,3.1.0,59.95395983416993,
,,,C,G,g,v,L,U,y,R,u,,,,,5,19,119,13,1,0,1,0,,,,,1,16,52,25,,,,,,down,0.700535978087828,2730.4242114426916,None,001,28,2019_Oct_15_1214,ACPT_experiment_5_30_19,3.1.0,59.95395983416993,
,,,C,G,g,v,L,G,g,R,c ,,,,,5,19,119,13,1,0,1,0,,,,,1,17,53,19,,,,,,up,1.050792949334209,2732.409080536171,None,001,28,2019_Oct_15_1214,ACPT_experiment_5_30_19,3.1.0,59.95395983416993,
,,,C,G,g,v,R,D,y,R,y,,,,,5,19,119,13,1,0,1,0,,,,,1,18,54,27,,,,,,down,0.6004684223898948,2734.7441951303144,None,001,28,2019_Oct_15_1214,ACPT_experiment_5_30_19,3.1.0,59.95395983416993,
,,,C,G,g,v,L,U,g,L,u,,,,,5,19,119,13,1,0,1,0,,,,,1,19,55,22,,,,,,up,1.0007703402106927,2736.628973726931,None,001,28,2019_Oct_15_1214,ACPT_experiment_5_30_19,3.1.0,59.95395983416993,
,,,C,G,g,v,R,U,d,R,u,,,,,5,19,119,13,1,0,1,0,,,,,1,20,56,9,,,,,,down,0.750600847253736,2738.9140639008074,None,001,28,2019_Oct_15_1214,ACPT_experiment_5_30_19,3.1.0,59.95395983416993,
,,,C,G,g,v,L,D,g,L,i,,,,,5,19,119,13,1,0,1,0,,,,,1,21,57,14,,,,,,up,0.6504961630898833,2740.9489604331293,None,001,28,2019_Oct_15_1214,ACPT_experiment_5_30_19,3.1.0,59.95395983416993,
,,,C,G,g,v,R,U,g,R,u,,,,,5,19,119,13,1,0,1,0,,,,,1,22,58,11,,,,,,up,0.7005429208093119,2742.883772203879,None,001,28,2019_Oct_15_1214,ACPT_experiment_5_30_19,3.1.0,59.95395983416993,
,,,C,G,g,v,R,U,d,L,u,,,,,5,19,119,13,1,0,1,0,,,,,1,23,59,8,,,,,,down,0.6505046150987255,2744.8686367694972,None,001,28,2019_Oct_15_1214,ACPT_experiment_5_30_19,3.1.0,59.95395983416993,
,,,C,G,g,v,L,G,y,R,y,,,,,5,19,119,13,1,0,1,0,,,,,1,24,60,35,,,,,,down,0.9340532029791575,2746.820127069912,None,001,28,2019_Oct_15_1214,ACPT_experiment_5_30_19,3.1.0,59.95395983416993,
,,,C,G,g,v,R,G,y,L,y,,,,,5,19,119,13,1,0,1,0,,,,,1,25,61,28,,,,,,down,0.7338779445435648,2749.038515803143,None,001,28,2019_Oct_15_1214,ACPT_experiment_5_30_19,3.1.0,59.95395983416993,
,,,C,G,g,v,L,G,y,L,y,,,,,5,19,119,13,1,0,1,0,,,,,1,26,62,34,,,,,,down,0.7672582468967448,2751.056715996211,None,001,28,2019_Oct_15_1214,ACPT_experiment_5_30_19,3.1.0,59.95395983416993,
,,,C,G,g,v,L,U,y,L,u,,,,,5,19,119,13,1,0,1,0,,,,,1,27,63,24,,,,,,down,0.8506542156510477,2753.108295887917,None,001,28,2019_Oct_15_1214,ACPT_experiment_5_30_19,3.1.0,59.95395983416993,
,,,C,G,g,v,R,U,y,L,u,,,,,5,19,119,13,1,0,1,0,,,,,1,28,64,30,,,,,,down,0.7338909244144816,2755.259952391043,None,001,28,2019_Oct_15_1214,ACPT_experiment_5_30_19,3.1.0,59.95395983416993,
,,,C,G,g,v,L,D,y,R,y,,,,,5,19,119,13,1,0,1,0,,,,,1,29,65,33,,,,,,down,0.6337955978315222,2757.2781882032896,None,001,28,2019_Oct_15_1214,ACPT_experiment_5_30_19,3.1.0,59.95395983416993,
,,,C,G,g,v,R,D,d,R,c ,,,,,5,19,119,13,1,0,1,0,,,,,1,30,66,1,,,,,,down,1.0174331732887367,2759.2296655238342,None,001,28,2019_Oct_15_1214,ACPT_experiment_5_30_19,3.1.0,59.95395983416993,
,,,C,G,g,v,L,G,g,L,c ,,,,,5,19,119,13,1,0,1,0,,,,,1,31,67,18,,,,,,up,0.4837238463160247,2761.531406456489,None,001,28,2019_Oct_15_1214,ACPT_experiment_5_30_19,3.1.0,59.95395983416993,
,,,C,G,g,v,R,D,g,L,i,,,,,5,19,119,13,1,0,1,0,,,,,1,32,68,2,,,,,,up,0.6505015965240091,2763.299454966189,None,001,28,2019_Oct_15_1214,ACPT_experiment_5_30_19,3.1.0,59.95395983416993,
,,,C,G,g,v,L,U,d,L,u,,,,,5,19,119,13,1,0,1,0,,,,,1,33,69,20,,,,,,up,0.7170656920297915,2765.234305978407,None,001,28,2019_Oct_15_1214,ACPT_experiment_5_30_19,3.1.0,59.95395983416993,
,,,C,G,g,v,L,G,d,R,i,,,,,5,19,119,13,1,0,1,0,,,,,1,34,70,17,,,,,,up,1.0841823074106287,2767.235806209932,None,001,28,2019_Oct_15_1214,ACPT_experiment_5_30_19,3.1.0,59.95395983416993,
,,,C,G,g,v,R,G,g,R,c ,,,,,5,19,119,13,1,0,1,0,,,,,1,35,71,7,,,,,,up,0.8673351601746617,2769.604290541417,None,001,28,2019_Oct_15_1214,ACPT_experiment_5_30_19,3.1.0,59.95395983416993,
,,,C,G,g,v,,,,,,,,,,5,19,119,13,2,0,2,0,0,0,0,0,,,,,,,,,,,,,,001,28,2019_Oct_15_1214,ACPT_experiment_5_30_19,3.1.0,59.95395983416993,
,,,C,G,g,v,R,G,g,L,c ,,,,,5,19,119,13,2,0,2,0,,,,,0,0,0,6,,,,,,up,0.6502281136745296,2804.7482219086924,None,001,28,2019_Oct_15_1214,ACPT_experiment_5_30_19,3.1.0,59.95395983416993,
,,,C,G,g,v,R,G,y,L,y,,,,,5,19,119,13,2,0,2,0,,,,,0,1,1,28,,,,,,down,0.5170766796409225,2806.6827701578895,None,001,28,2019_Oct_15_1214,ACPT_experiment_5_30_19,3.1.0,59.95395983416993,
,,,C,G,g,v,L,D,d,R,c ,,,,,5,19,119,13,2,0,2,0,,,,,0,2,2,13,,,,,,up,0.6170256053592311,2808.484150370892,None,001,28,2019_Oct_15_1214,ACPT_experiment_5_30_19,3.1.0,59.95395983416993,
,,,C,G,g,v,R,D,d,L,c,,,,,5,19,119,13,2,0,2,0,,,,,0,3,3,0,,,,,,up,0.6672094063615077,2810.3856186658986,None,001,28,2019_Oct_15_1214,ACPT_experiment_5_30_19,3.1.0,59.95395983416993,
,,,C,G,g,v,L,D,y,R,y,,,,,5,19,119,13,2,0,2,0,,,,,0,4,4,33,,,,,,down,0.7005332613707651,2812.3371140978898,None,001,28,2019_Oct_15_1214,ACPT_experiment_5_30_19,3.1.0,59.95395983416993,
,,,C,G,g,v,L,U,g,R,u,,,,,5,19,119,13,2,0,2,0,,,,,0,5,5,23,,,,,,up,0.7505766986578237,2814.321971418929,None,001,28,2019_Oct_15_1214,ACPT_experiment_5_30_19,3.1.0,59.95395983416993,
,,,C,G,g,v,L,G,d,L,i,,,,,5,19,119,13,2,0,2,0,,,,,0,6,6,16,,,,,,up,0.5337434368639151,2816.356863423389,None,001,28,2019_Oct_15_1214,ACPT_experiment_5_30_19,3.1.0,59.95395983416993,
,,,C,G,g,v,R,G,g,R,c ,,,,,5,19,119,13,2,0,2,0,,,,,0,7,7,7,,,,,,up,0.5504515485590673,2818.1749266939178,None,001,28,2019_Oct_15_1214,ACPT_experiment_5_30_19,3.1.0,59.95395983416993,
,,,C,G,g,v,L,G,d,R,i,,,,,5,19,119,13,2,0,2,0,,,,,0,8,8,17,,,,,,up,0.48375222091635806,2820.009666682967,None,001,28,2019_Oct_15_1214,ACPT_experiment_5_30_19,3.1.0,59.95395983416993,
,,,C,G,g,v,R,D,y,R,y,,,,,5,19,119,13,2,0,2,0,,,,,0,9,9,27,,,,,,down,0.7005097164892504,2821.777717607526,None,001,28,2019_Oct_15_1214,ACPT_experiment_5_30_19,3.1.0,59.95395983416993,
,,,C,G,g,v,L,G,g,R,c ,,,,,5,19,119,13,2,0,2,0,,,,,0,10,10,19,,,,,,up,0.6169048623796698,2823.7794747197404,None,001,28,2019_Oct_15_1214,ACPT_experiment_5_30_19,3.1.0,59.95395983416993,
,,,C,G,g,v,R,D,g,L,i,,,,,5,19,119,13,2,0,2,0,,,,,0,11,11,2,,,,,,up,0.6672039729264725,2825.680688548917,None,001,28,2019_Oct_15_1214,ACPT_experiment_5_30_19,3.1.0,59.95395983416993,
,,,C,G,g,v,L,G,g,L,c ,,,,,5,19,119,13,2,0,2,0,,,,,0,12,12,18,,,,,,up,0.6672060859291378,2827.6321918292015,None,001,28,2019_Oct_15_1214,ACPT_experiment_5_30_19,3.1.0,59.95395983416993,
,,,C,G,g,v,L,D,g,R,i,,,,,5,19,119,13,2,0,2,0,,,,,0,13,13,15,,,,,,up,0.5837877797239344,2829.5836827333314,None,001,28,2019_Oct_15_1214,ACPT_experiment_5_30_19,3.1.0,59.95395983416993,
,,,C,G,g,v,L,G,y,L,y,,,,,5,19,119,13,2,0,2,0,,,,,0,14,14,34,,,,,,down,0.7002634008103996,2831.4687411518034,None,001,28,2019_Oct_15_1214,ACPT_experiment_5_30_19,3.1.0,59.95395983416993,
,,,C,G,g,v,R,G,y,R,y,,,,,5,19,119,13,2,0,2,0,,,,,0,15,15,29,,,,,,down,0.6505073318148789,2833.453333743859,None,001,28,2019_Oct_15_1214,ACPT_experiment_5_30_19,3.1.0,59.95395983416993,
,,,C,G,g,v,L,G,y,R,y,,,,,5,19,119,13,2,0,2,0,,,,,0,16,16,35,,,,,,down,1.0508092496365862,2835.388145816467,None,001,28,2019_Oct_15_1214,ACPT_experiment_5_30_19,3.1.0,59.95395983416993,
,,,C,G,g,v,R,U,g,L,u,,,,,5,19,119,13,2,0,2,0,,,,,0,17,17,10,,,,,,up,1.3009992689012506,2837.723276107198,None,001,28,2019_Oct_15_1214,ACPT_experiment_5_30_19,3.1.0,59.95395983416993,
,,,C,G,g,v,R,G,d,L,i,,,,,5,19,119,13,2,0,2,0,,,,,0,18,18,4,,,,,,up,0.9840863771132717,2840.308592191189,None,001,28,2019_Oct_15_1214,ACPT_experiment_5_30_19,3.1.0,59.95395983416993,
,,,C,G,g,v,R,D,y,L,y,,,,,5,19,119,13,2,0,2,0,,,,,0,19,19,26,,,,,,down,0.5504328333963713,2842.577006853975,None,001,28,2019_Oct_15_1214,ACPT_experiment_5_30_19,3.1.0,59.95395983416993,
,,,C,G,g,v,L,D,g,L,i,,,,,5,19,119,13,2,0,2,0,,,,,0,20,20,14,,,,,,up,0.7339232231606729,2844.411720883283,None,001,28,2019_Oct_15_1214,ACPT_experiment_5_30_19,3.1.0,59.95395983416993,
,,,C,G,g,v,R,U,d,L,u,,,,,5,19,119,13,2,0,2,0,,,,,0,21,21,8,,,,,,up,0.48371448873513145,2846.429962732679,None,001,28,2019_Oct_15_1214,ACPT_experiment_5_30_19,3.1.0,59.95395983416993,
,,,C,G,g,v,L,D,y,L,y,,,,,5,19,119,13,2,0,2,0,,,,,0,22,22,32,,,,,,down,0.6004557443775411,2848.2146653215896,None,001,28,2019_Oct_15_1214,ACPT_experiment_5_30_19,3.1.0,59.95395983416993,
,,,C,G,g,v,R,U,y,R,u,,,,,5,19,119,13,2,0,2,0,,,,,0,23,23,31,,,,,,down,0.6004868356949373,2850.116098299274,None,001,28,2019_Oct_15_1214,ACPT_experiment_5_30_19,3.1.0,59.95395983416993,
,,,C,G,g,v,R,D,d,R,c ,,,,,5,19,119,13,2,0,2,0,,,,,0,24,24,1,,,,,,down,0.41365729882272717,2852.020911778538,None,001,28,2019_Oct_15_1214,ACPT_experiment_5_30_19,3.1.0,59.95395983416993,
,,,C,G,g,v,L,U,d,L,u,,,,,5,19,119,13,2,0,2,0,,,,,0,25,25,20,,,,,,up,0.5504228721010804,2853.7188919295995,None,001,28,2019_Oct_15_1214,ACPT_experiment_5_30_19,3.1.0,59.95395983416993,
,,,C,G,g,v,R,U,y,L,u,,,,,5,19,119,13,2,0,2,0,,,,,0,26,26,30,,,,,,down,0.6004641963863833,2855.5536355409376,None,001,28,2019_Oct_15_1214,ACPT_experiment_5_30_19,3.1.0,59.95395983416993,
,,,C,G,g,v,L,U,d,R,u,,,,,5,19,119,13,2,0,2,0,,,,,0,27,27,21,,,,,,down,0.6171445371946902,2857.438416854271,None,001,28,2019_Oct_15_1214,ACPT_experiment_5_30_19,3.1.0,59.95395983416993,
,,,C,G,g,v,L,D,d,L,c ,,,,,5,19,119,13,2,0,2,0,,,,,0,28,28,12,,,,,,up,0.6805252440371987,2859.359892261039,None,001,28,2019_Oct_15_1214,ACPT_experiment_5_30_19,3.1.0,59.95395983416993,
,,,C,G,g,v,L,U,g,L,u,,,,,5,19,119,13,2,0,2,0,,,,,0,29,29,22,,,,,,up,0.6004596685243087,2861.324734018308,None,001,28,2019_Oct_15_1214,ACPT_experiment_5_30_19,3.1.0,59.95395983416993,
,,,C,G,g,v,R,G,d,R,i,,,,,5,19,119,13,2,0,2,0,,,,,0,30,30,5,,,,,,down,0.8673541771941018,2863.2095114074946,None,001,28,2019_Oct_15_1214,ACPT_experiment_5_30_19,3.1.0,59.95395983416993,
,,,C,G,g,v,L,U,y,R,u,,,,,5,19,119,13,2,0,2,0,,,,,0,31,31,25,,,,,,down,0.650515481966977,2865.3611467805995,None,001,28,2019_Oct_15_1214,ACPT_experiment_5_30_19,3.1.0,59.95395983416993,
,,,C,G,g,v,R,U,d,R,u,,,,,5,19,119,13,2,0,2,0,,,,,0,32,32,9,,,,,,up,0.6171430279082415,2867.295985416663,None,001,28,2019_Oct_15_1214,ACPT_experiment_5_30_19,3.1.0,59.95395983416993,
,,,C,G,g,v,R,D,g,R,i,,,,,5,19,119,13,2,0,2,0,,,,,0,33,33,3,,,,,,up,0.700562239685496,2869.1974464670902,None,001,28,2019_Oct_15_1214,ACPT_experiment_5_30_19,3.1.0,59.95395983416993,
,,,C,G,g,v,R,U,g,R,u,,,,,5,19,119,13,2,0,2,0,,,,,0,34,34,11,,,,,,up,0.5504222683866828,2871.1823028825575,None,001,28,2019_Oct_15_1214,ACPT_experiment_5_30_19,3.1.0,59.95395983416993,
,,,C,G,g,v,L,U,y,L,u,,,,,5,19,119,13,2,0,2,0,,,,,0,35,35,24,,,,,,down,0.7172136021799815,2873.017044984608,None,001,28,2019_Oct_15_1214,ACPT_experiment_5_30_19,3.1.0,59.95395983416993,
,,,C,G,g,v,L,G,d,R,i,,,,,5,19,119,13,2,0,2,0,,,,,1,0,36,17,,,,,,up,0.6338218594291902,2875.0185817408837,None,001,28,2019_Oct_15_1214,ACPT_experiment_5_30_19,3.1.0,59.95395983416993,
,,,C,G,g,v,L,D,g,L,i,,,,,5,19,119,13,2,0,2,0,,,,,1,1,37,14,,,,,,up,1.3343617616637857,2876.936720415404,None,001,28,2019_Oct_15_1214,ACPT_experiment_5_30_19,3.1.0,59.95395983416993,
,,,C,G,g,v,R,U,g,R,u,,,,,5,19,119,13,2,0,2,0,,,,,1,2,38,11,,,,,,up,0.6171711006509213,2879.555396577299,None,001,28,2019_Oct_15_1214,ACPT_experiment_5_30_19,3.1.0,59.95395983416993,
,,,C,G,g,v,L,D,d,L,c ,,,,,5,19,119,13,2,0,2,0,,,,,1,3,39,12,,,,,,up,0.9507160360562921,2881.4568712113114,None,001,28,2019_Oct_15_1214,ACPT_experiment_5_30_19,3.1.0,59.95395983416993,
,,,C,G,g,v,R,D,y,L,y,,,,,5,19,119,13,2,0,2,0,,,,,1,4,40,26,,,,,,down,0.6004687242475484,2883.6918998364536,None,001,28,2019_Oct_15_1214,ACPT_experiment_5_30_19,3.1.0,59.95395983416993,
,,,C,G,g,v,L,U,d,L,u,,,,,5,19,119,13,2,0,2,0,,,,,1,5,41,20,,,,,,up,0.8506533100789966,2885.5766935259426,None,001,28,2019_Oct_15_1214,ACPT_experiment_5_30_19,3.1.0,59.95395983416993,
,,,C,G,g,v,L,G,y,L,y,,,,,5,19,119,13,2,0,2,0,,,,,1,6,42,34,,,,,,down,0.7503904526111,2887.728512730234,None,001,28,2019_Oct_15_1214,ACPT_experiment_5_30_19,3.1.0,59.95395983416993,
,,,C,G,g,v,L,G,y,R,y,,,,,5,19,119,13,2,0,2,0,,,,,1,7,43,35,,,,,,down,0.6339703732955968,2889.7630874825145,None,001,28,2019_Oct_15_1214,ACPT_experiment_5_30_19,3.1.0,59.95395983416993,
,,,C,G,g,v,L,U,g,R,u,,,,,5,19,119,13,2,0,2,0,,,,,1,8,44,23,,,,,,up,1.0508137774986608,2891.6980553135663,None,001,28,2019_Oct_15_1214,ACPT_experiment_5_30_19,3.1.0,59.95395983416993,
,,,C,G,g,v,L,D,d,R,c ,,,,,5,19,119,13,2,0,2,0,,,,,1,9,45,13,,,,,,up,1.5178651312990041,2894.0331822838652,None,001,28,2019_Oct_15_1214,ACPT_experiment_5_30_19,3.1.0,59.95395983416993,
,,,C,G,g,v,R,G,y,R,y,,,,,5,19,119,13,2,0,2,0,,,,,1,10,46,29,,,,,,down,0.7672721323388032,2896.835333440795,None,001,28,2019_Oct_15_1214,ACPT_experiment_5_30_19,3.1.0,59.95395983416993,
,,,C,G,g,v,R,U,d,L,u,,,,,5,19,119,13,2,0,2,0,,,,,1,11,47,8,,,,,,down,0.9507335437883739,2898.88691574736,None,001,28,2019_Oct_15_1214,ACPT_experiment_5_30_19,3.1.0,59.95395983416993,
,,,C,G,g,v,R,D,g,R,i,,,,,5,19,119,13,2,0,2,0,,,,,1,12,48,3,,,,,,up,0.5337509833007061,2901.1219633895207,None,001,28,2019_Oct_15_1214,ACPT_experiment_5_30_19,3.1.0,59.95395983416993,
,,,C,G,g,v,L,D,g,R,i,,,,,5,19,119,13,2,0,2,0,,,,,1,13,49,15,,,,,,up,0.6171520836314812,2902.9400145857517,None,001,28,2019_Oct_15_1214,ACPT_experiment_5_30_19,3.1.0,59.95395983416993,
,,,C,G,g,v,R,U,g,L,u,,,,,5,19,119,13,2,0,2,0,,,,,1,14,50,10,,,,,,up,0.8669013910193826,2904.8585704272673,None,001,28,2019_Oct_15_1214,ACPT_experiment_5_30_19,3.1.0,59.95395983416993,
,,,C,G,g,v,R,G,y,L,y,,,,,5,19,119,13,2,0,2,0,,,,,1,15,51,28,,,,,,down,0.6004641963863833,2907.0098133856873,None,001,28,2019_Oct_15_1214,ACPT_experiment_5_30_19,3.1.0,59.95395983416993,
,,,C,G,g,v,L,D,y,L,y,,,,,5,19,119,13,2,0,2,0,,,,,1,16,52,32,,,,,,down,0.7672229295749275,2908.8946209606192,None,001,28,2019_Oct_15_1214,ACPT_experiment_5_30_19,3.1.0,59.95395983416993,
,,,C,G,g,v,R,D,d,R,c ,,,,,5,19,119,13,2,0,2,0,,,,,1,17,53,1,,,,,,up,1.351030631890353,2910.946175194441,None,001,28,2019_Oct_15_1214,ACPT_experiment_5_30_19,3.1.0,59.95395983416993,
,,,C,G,g,v,L,G,d,L,i,,,,,5,19,119,13,2,0,2,0,,,,,1,18,54,16,,,,,,up,0.9006901065013153,2913.58153230086,None,001,28,2019_Oct_15_1214,ACPT_experiment_5_30_19,3.1.0,59.95395983416993,
,,,C,G,g,v,L,U,g,L,u,,,,,5,19,119,13,2,0,2,0,,,,,1,19,55,22,,,,,,up,0.8172995711820477,2915.7665310723005,None,001,28,2019_Oct_15_1214,ACPT_experiment_5_30_19,3.1.0,59.95395983416993,
,,,C,G,g,v,L,U,d,R,u,,,,,5,19,119,13,2,0,2,0,,,,,1,20,56,21,,,,,,up,0.6505465732834637,2917.851444780311,None,001,28,2019_Oct_15_1214,ACPT_experiment_5_30_19,3.1.0,59.95395983416993,
,,,C,G,g,v,R,U,y,L,u,,,,,5,19,119,13,2,0,2,0,,,,,1,21,57,30,,,,,,down,0.6972095089931827,2919.806300489431,None,001,28,2019_Oct_15_1214,ACPT_experiment_5_30_19,3.1.0,59.95395983416993,
,,,C,G,g,v,L,D,y,R,y,,,,,5,19,119,13,2,0,2,0,,,,,1,22,58,33,,,,,,down,0.9340613531303461,2921.787821983795,None,001,28,2019_Oct_15_1214,ACPT_experiment_5_30_19,3.1.0,59.95395983416993,
,,,C,G,g,v,L,G,g,L,c ,,,,,5,19,119,13,2,0,2,0,,,,,1,23,59,18,,,,,,up,0.7005399022345955,2924.006194114866,None,001,28,2019_Oct_15_1214,ACPT_experiment_5_30_19,3.1.0,59.95395983416993,
,,,C,G,g,v,R,U,d,R,u,,,,,5,19,119,13,2,0,2,0,,,,,1,24,60,9,,,,,,down,1.2009407689274667,2925.99105445448,None,001,28,2019_Oct_15_1214,ACPT_experiment_5_30_19,3.1.0,59.95395983416993,
,,,C,G,g,v,L,U,y,R,u,,,,,5,19,119,13,2,0,2,0,,,,,1,25,61,25,,,,,,down,0.6170035697668936,2928.4931197631504,None,001,28,2019_Oct_15_1214,ACPT_experiment_5_30_19,3.1.0,59.95395983416993,
,,,C,G,g,v,R,D,y,R,y,,,,,5,19,119,13,2,0,2,0,,,,,1,26,62,27,,,,,,down,0.6505263488343189,2930.4110903030705,None,001,28,2019_Oct_15_1214,ACPT_experiment_5_30_19,3.1.0,59.95395983416993,
,,,C,G,g,v,R,U,y,R,u,,,,,5,19,119,13,2,0,2,0,,,,,1,27,63,31,,,,,,down,0.5169218267692486,2932.3794290788937,None,001,28,2019_Oct_15_1214,ACPT_experiment_5_30_19,3.1.0,59.95395983416993,
,,,C,G,g,v,R,G,g,R,c ,,,,,5,19,119,13,2,0,2,0,,,,,1,28,64,7,,,,,,up,0.6511683996304782,2934.1973580228578,None,001,28,2019_Oct_15_1214,ACPT_experiment_5_30_19,3.1.0,59.95395983416993,
,,,C,G,g,v,R,D,d,L,c,,,,,5,19,119,13,2,0,2,0,,,,,1,29,65,0,,,,,,up,1.0841723461144284,2936.1321722084676,None,001,28,2019_Oct_15_1214,ACPT_experiment_5_30_19,3.1.0,59.95395983416993,
,,,C,G,g,v,L,G,g,R,c ,,,,,5,19,119,13,2,0,2,0,,,,,1,30,66,19,,,,,,up,0.7338722092517855,2938.50068763127,None,001,28,2019_Oct_15_1214,ACPT_experiment_5_30_19,3.1.0,59.95395983416993,
,,,C,G,g,v,R,D,g,L,i,,,,,5,19,119,13,2,0,2,0,,,,,1,31,67,2,,,,,,up,0.6838815970195355,2940.51887575004,None,001,28,2019_Oct_15_1214,ACPT_experiment_5_30_19,3.1.0,59.95395983416993,
,,,C,G,g,v,R,G,d,L,i,,,,,5,19,119,13,2,0,2,0,,,,,1,32,68,4,,,,,,up,0.5671219280720834,2942.4870696342878,None,001,28,2019_Oct_15_1214,ACPT_experiment_5_30_19,3.1.0,59.95395983416993,
,,,C,G,g,v,R,G,g,L,c ,,,,,5,19,119,13,2,0,2,0,,,,,1,33,69,6,,,,,,up,0.6338466117413191,2944.3217730985843,None,001,28,2019_Oct_15_1214,ACPT_experiment_5_30_19,3.1.0,59.95395983416993,
,,,C,G,g,v,L,U,y,L,u,,,,,5,19,119,13,2,0,2,0,,,,,1,34,70,24,,,,,,down,0.6004107676180865,2946.2900080354448,None,001,28,2019_Oct_15_1214,ACPT_experiment_5_30_19,3.1.0,59.95395983416993,
,,,C,G,g,v,R,G,d,R,i,,,,,5,19,119,13,2,0,2,0,,,,,1,35,71,5,,,,,,up,1.1341991812414562,2948.1914364852682,None,001,28,2019_Oct_15_1214,ACPT_experiment_5_30_19,3.1.0,59.95395983416993,
,,,C,G,g,v,,,,,,,,,,5,19,119,13,3,0,3,0,0,0,0,0,,,,,,,,,,,,,,001,28,2019_Oct_15_1214,ACPT_experiment_5_30_19,3.1.0,59.95395983416993,
,,,C,G,g,v,L,G,g,R,c ,,,,,5,19,119,13,3,0,3,0,,,,,0,0,0,19,,,,,,up,0.6138081068047541,3029.6406486675105,None,001,28,2019_Oct_15_1214,ACPT_experiment_5_30_19,3.1.0,59.95395983416993,
,,,C,G,g,v,R,G,g,L,c ,,,,,5,19,119,13,3,0,3,0,,,,,0,1,1,6,,,,,,up,0.5504584912796417,3031.5387660429687,None,001,28,2019_Oct_15_1214,ACPT_experiment_5_30_19,3.1.0,59.95395983416993,
,,,C,G,g,v,L,D,y,L,y,,,,,5,19,119,13,3,0,3,0,,,,,0,2,2,32,,,,,,down,0.7005471468128235,3033.373511465451,None,001,28,2019_Oct_15_1214,ACPT_experiment_5_30_19,3.1.0,59.95395983416993,
,,,C,G,g,v,R,D,d,L,c,,,,,5,19,119,13,3,0,3,0,,,,,0,3,3,0,,,,,,down,0.6671765038990998,3035.358371805065,None,001,28,2019_Oct_15_1214,ACPT_experiment_5_30_19,3.1.0,59.95395983416993,
,,,C,G,g,v,L,D,g,L,i,,,,,5,19,119,13,3,0,3,0,,,,,0,4,4,14,,,,,,up,0.6505097466751977,3037.3098714630605,None,001,28,2019_Oct_15_1214,ACPT_experiment_5_30_19,3.1.0,59.95395983416993,
,,,C,G,g,v,L,G,g,L,c ,,,,,5,19,119,13,3,0,3,0,,,,,0,5,5,18,,,,,,up,0.5671228336441345,3039.2446928932495,None,001,28,2019_Oct_15_1214,ACPT_experiment_5_30_19,3.1.0,59.95395983416993,
,,,C,G,g,v,R,G,g,R,c ,,,,,5,19,119,13,3,0,3,0,,,,,0,6,6,7,,,,,,up,0.5837838555771668,3041.096108393388,None,001,28,2019_Oct_15_1214,ACPT_experiment_5_30_19,3.1.0,59.95395983416993,
,,,C,G,g,v,R,D,y,R,y,,,,,5,19,119,13,3,0,3,0,,,,,0,7,7,27,,,,,,down,0.6335438487185456,3042.98116681186,None,001,28,2019_Oct_15_1214,ACPT_experiment_5_30_19,3.1.0,59.95395983416993,
,,,C,G,g,v,L,U,y,L,u,,,,,5,19,119,13,3,0,3,0,,,,,0,8,8,24,,,,,,down,0.6671819373332255,3044.8990332109597,None,001,28,2019_Oct_15_1214,ACPT_experiment_5_30_19,3.1.0,59.95395983416993,
,,,C,G,g,v,R,G,y,R,y,,,,,5,19,119,13,3,0,3,0,,,,,0,9,9,29,,,,,,down,0.7005625415431496,3046.8672171339113,None,001,28,2019_Oct_15_1214,ACPT_experiment_5_30_19,3.1.0,59.95395983416993,
,,,C,G,g,v,L,U,g,L,u,,,,,5,19,119,13,3,0,3,0,,,,,0,10,10,22,,,,,,up,0.6504949556601787,3048.8687529846156,None,001,28,2019_Oct_15_1214,ACPT_experiment_5_30_19,3.1.0,59.95395983416993,
,,,C,G,g,v,R,G,y,L,y,,,,,5,19,119,13,3,0,3,0,,,,,0,11,11,28,,,,,,down,0.6171901176703614,3050.803561133076,None,001,28,2019_Oct_15_1214,ACPT_experiment_5_30_19,3.1.0,59.95395983416993,
,,,C,G,g,v,L,U,y,R,u,,,,,5,19,119,13,3,0,3,0,,,,,0,12,12,25,,,,,,down,0.6338577804663146,3052.721701920598,None,001,28,2019_Oct_15_1214,ACPT_experiment_5_30_19,3.1.0,59.95395983416993,
,,,C,G,g,v,R,U,d,L,u,,,,,5,19,119,13,3,0,3,0,,,,,0,13,13,8,,,,,,down,0.6672314419547547,3054.6732067101702,None,001,28,2019_Oct_15_1214,ACPT_experiment_5_30_19,3.1.0,59.95395983416993,
,,,C,G,g,v,L,G,d,R,i,,,,,5,19,119,13,3,0,3,0,,,,,0,14,14,17,,,,,,up,0.5337090251150585,3056.624734139051,None,001,28,2019_Oct_15_1214,ACPT_experiment_5_30_19,3.1.0,59.95395983416993,
,,,C,G,g,v,R,D,g,R,i,,,,,5,19,119,13,3,0,3,0,,,,,0,15,15,3,,,,,,up,0.5837868741509737,3058.4427672238353,None,001,28,2019_Oct_15_1214,ACPT_experiment_5_30_19,3.1.0,59.95395983416993,
,,,C,G,g,v,L,D,g,R,i,,,,,5,19,119,13,3,0,3,0,,,,,0,16,16,15,,,,,,up,0.6004599703819622,3060.310867894502,None,001,28,2019_Oct_15_1214,ACPT_experiment_5_30_19,3.1.0,59.95395983416993,
,,,C,G,g,v,R,U,y,L,u,,,,,5,19,119,13,3,0,3,0,,,,,0,17,17,30,,,,,,down,0.6002685927578568,3062.229169873902,None,001,28,2019_Oct_15_1214,ACPT_experiment_5_30_19,3.1.0,59.95395983416993,
,,,C,G,g,v,L,D,d,L,c ,,,,,5,19,119,13,3,0,3,0,,,,,0,18,18,12,,,,,,up,0.6671988413500003,3064.1304473950004,None,001,28,2019_Oct_15_1214,ACPT_experiment_5_30_19,3.1.0,59.95395983416993,
,,,C,G,g,v,R,D,y,L,y,,,,,5,19,119,13,3,0,3,0,,,,,0,19,19,26,,,,,,down,0.6671813336179184,3066.0819654663,None,001,28,2019_Oct_15_1214,ACPT_experiment_5_30_19,3.1.0,59.95395983416993,
,,,C,G,g,v,R,G,d,L,i,,,,,5,19,119,13,3,0,3,0,,,,,0,20,20,4,,,,,,down,0.7339208083021731,3068.0334427868447,None,001,28,2019_Oct_15_1214,ACPT_experiment_5_30_19,3.1.0,59.95395983416993,
,,,C,G,g,v,L,D,y,R,y,,,,,5,19,119,13,3,0,3,0,,,,,0,21,21,33,,,,,,down,1.0007528324795203,3070.068381579209,None,001,28,2019_Oct_15_1214,ACPT_experiment_5_30_19,3.1.0,59.95395983416993,
,,,C,G,g,v,R,U,g,L,u,,,,,5,19,119,13,3,0,3,0,,,,,0,22,22,10,,,,,,up,0.9173499210037335,3072.3534711493703,None,001,28,2019_Oct_15_1214,ACPT_experiment_5_30_19,3.1.0,59.95395983416993,
,,,C,G,g,v,R,G,d,R,i,,,,,5,19,119,13,3,0,3,0,,,,,0,23,23,5,,,,,,up,0.6838601651397767,3074.555139092894,None,001,28,2019_Oct_15_1214,ACPT_experiment_5_30_19,3.1.0,59.95395983416993,
,,,C,G,g,v,L,G,y,L,y,,,,,5,19,119,13,3,0,3,0,,,,,0,24,24,34,,,,,,down,0.8500873273605976,3076.540419618078,None,001,28,2019_Oct_15_1214,ACPT_experiment_5_30_19,3.1.0,59.95395983416993,
,,,C,G,g,v,L,D,d,R,c ,,,,,5,19,119,13,3,0,3,0,,,,,0,25,25,13,,,,,,up,1.567869327117478,3078.674975594825,None,001,28,2019_Oct_15_1214,ACPT_experiment_5_30_19,3.1.0,59.95395983416993,
,,,C,G,g,v,L,U,d,R,u,,,,,5,19,119,13,3,0,3,0,,,,,0,26,26,21,,,,,,up,0.5504228721010804,3081.5271617370327,None,001,28,2019_Oct_15_1214,ACPT_experiment_5_30_19,3.1.0,59.95395983416993,
,,,C,G,g,v,R,U,d,R,u,,,,,5,19,119,13,3,0,3,0,,,,,0,27,27,9,,,,,,down,0.9172421578950889,3083.362002244612,None,001,28,2019_Oct_15_1214,ACPT_experiment_5_30_19,3.1.0,59.95395983416993,
,,,C,G,g,v,R,U,g,R,u,,,,,5,19,119,13,3,0,3,0,,,,,0,28,28,11,,,,,,up,0.750582735806347,3085.5635889884816,None,001,28,2019_Oct_15_1214,ACPT_experiment_5_30_19,3.1.0,59.95395983416993,
,,,C,G,g,v,R,U,y,R,u,,,,,5,19,119,13,3,0,3,0,,,,,0,29,29,31,,,,,,down,0.6004967969902282,3087.5984668056417,None,001,28,2019_Oct_15_1214,ACPT_experiment_5_30_19,3.1.0,59.95395983416993,
,,,C,G,g,v,L,U,g,R,u,,,,,5,19,119,13,3,0,3,0,,,,,0,30,30,23,,,,,,up,0.567100496193234,3089.4999486842335,None,001,28,2019_Oct_15_1214,ACPT_experiment_5_30_19,3.1.0,59.95395983416993,
,,,C,G,g,v,L,G,y,R,y,,,,,5,19,119,13,3,0,3,0,,,,,0,31,31,35,,,,,,down,0.6671831447629302,3091.3513711270934,None,001,28,2019_Oct_15_1214,ACPT_experiment_5_30_19,3.1.0,59.95395983416993,
,,,C,G,g,v,L,G,d,L,i,,,,,5,19,119,13,3,0,3,0,,,,,0,32,32,16,,,,,,up,1.0508098533518933,3093.3028701813737,None,001,28,2019_Oct_15_1214,ACPT_experiment_5_30_19,3.1.0,59.95395983416993,
,,,C,G,g,v,R,D,d,R,c ,,,,,5,19,119,13,3,0,3,0,,,,,0,33,33,1,,,,,,up,0.6171451409099973,3095.637994133099,None,001,28,2019_Oct_15_1214,ACPT_experiment_5_30_19,3.1.0,59.95395983416993,
,,,C,G,g,v,L,U,d,L,u,,,,,5,19,119,13,3,0,3,0,,,,,0,34,34,20,,,,,,up,0.6838749561547957,3097.5227778612916,None,001,28,2019_Oct_15_1214,ACPT_experiment_5_30_19,3.1.0,59.95395983416993,
,,,C,G,g,v,R,D,g,L,i,,,,,5,19,119,13,3,0,3,0,,,,,0,35,35,2,,,,,,up,1.1175354425922706,3099.4909512192326,None,001,28,2019_Oct_15_1214,ACPT_experiment_5_30_19,3.1.0,59.95395983416993,
,,,C,G,g,v,R,G,d,L,i,,,,,5,19,119,13,3,0,3,0,,,,,1,0,36,4,,,,,,up,0.5336894043812208,3101.8928448313854,None,001,28,2019_Oct_15_1214,ACPT_experiment_5_30_19,3.1.0,59.95395983416993,
,,,C,G,g,v,R,D,y,L,y,,,,,5,19,119,13,3,0,3,0,,,,,1,1,37,26,,,,,,down,0.5837198617973627,3103.7109189687826,None,001,28,2019_Oct_15_1214,ACPT_experiment_5_30_19,3.1.0,59.95395983416993,
,,,C,G,g,v,R,D,d,R,c ,,,,,5,19,119,13,3,0,3,0,,,,,1,2,38,1,,,,,,down,0.6004530276604783,3105.5789665125376,None,001,28,2019_Oct_15_1214,ACPT_experiment_5_30_19,3.1.0,59.95395983416993,
,,,C,G,g,v,R,D,g,R,i,,,,,5,19,119,13,3,0,3,0,,,,,1,3,39,3,,,,,,up,0.567111966775883,3107.4637396757207,None,001,28,2019_Oct_15_1214,ACPT_experiment_5_30_19,3.1.0,59.95395983416993,
,,,C,G,g,v,L,G,y,R,y,,,,,5,19,119,13,3,0,3,0,,,,,1,4,40,35,,,,,,down,0.566901270276503,3109.315335686614,None,001,28,2019_Oct_15_1214,ACPT_experiment_5_30_19,3.1.0,59.95395983416993,
,,,C,G,g,v,R,D,g,L,i,,,,,5,19,119,13,3,0,3,0,,,,,1,5,41,2,,,,,,up,0.583796231731867,3111.1665764112886,None,001,28,2019_Oct_15_1214,ACPT_experiment_5_30_19,3.1.0,59.95395983416993,
,,,C,G,g,v,L,G,g,L,c ,,,,,5,19,119,13,3,0,3,0,,,,,1,6,42,18,,,,,,up,0.6672263103782825,3113.034688250682,None,001,28,2019_Oct_15_1214,ACPT_experiment_5_30_19,3.1.0,59.95395983416993,
,,,C,G,g,v,L,D,y,R,y,,,,,5,19,119,13,3,0,3,0,,,,,1,7,43,33,,,,,,down,0.7002715509615882,3115.003132676612,None,001,28,2019_Oct_15_1214,ACPT_experiment_5_30_19,3.1.0,59.95395983416993,
,,,C,G,g,v,R,U,d,R,u,,,,,5,19,119,13,3,0,3,0,,,,,1,8,44,9,,,,,,up,1.2175912258489916,3116.98772738167,None,001,28,2019_Oct_15_1214,ACPT_experiment_5_30_19,3.1.0,59.95395983416993,
,,,C,G,g,v,L,D,d,L,c ,,,,,5,19,119,13,3,0,3,0,,,,,1,9,45,12,,,,,,up,2.0182116636515275,3119.4896490061947,None,001,28,2019_Oct_15_1214,ACPT_experiment_5_30_19,3.1.0,59.95395983416993,
,,,C,G,g,v,R,G,y,L,y,,,,,5,19,119,13,3,0,3,0,,,,,1,10,46,28,,,,,,down,0.500377321812266,3122.792178994223,None,001,28,2019_Oct_15_1214,ACPT_experiment_5_30_19,3.1.0,59.95395983416993,
,,,C,G,g,v,L,U,y,L,u,,,,,5,19,119,13,3,0,3,0,,,,,1,11,47,24,,,,,,down,0.5003676623737192,3124.5768797719884,None,001,28,2019_Oct_15_1214,ACPT_experiment_5_30_19,3.1.0,59.95395983416993,
,,,C,G,g,v,L,D,d,R,c ,,,,,5,19,119,13,3,0,3,0,,,,,1,12,48,13,,,,,,up,0.5004117335620322,3126.361583266472,None,001,28,2019_Oct_15_1214,ACPT_experiment_5_30_19,3.1.0,59.95395983416993,
,,,C,G,g,v,R,G,g,R,c ,,,,,5,19,119,13,3,0,3,0,,,,,1,13,49,7,,,,,,up,0.7472710577267208,3128.166298400578,None,001,28,2019_Oct_15_1214,ACPT_experiment_5_30_19,3.1.0,59.95395983416993,
,,,C,G,g,v,R,D,d,L,c,,,,,5,19,119,13,3,0,3,0,,,,,1,14,50,0,,,,,,up,0.6672057840723937,3130.1978627285134,None,001,28,2019_Oct_15_1214,ACPT_experiment_5_30_19,3.1.0,59.95395983416993,
,,,C,G,g,v,L,G,d,R,i,,,,,5,19,119,13,3,0,3,0,,,,,1,15,51,17,,,,,,up,0.8506720252398736,3132.1493681218008,None,001,28,2019_Oct_15_1214,ACPT_experiment_5_30_19,3.1.0,59.95395983416993,
,,,C,G,g,v,R,G,g,L,c ,,,,,5,19,119,13,3,0,3,0,,,,,1,16,52,6,,,,,,up,0.6004744595393277,3134.284326474528,None,001,28,2019_Oct_15_1214,ACPT_experiment_5_30_19,3.1.0,59.95395983416993,
,,,C,G,g,v,R,G,d,R,i,,,,,5,19,119,13,3,0,3,0,,,,,1,17,53,5,,,,,,up,0.6004702335349066,3136.1691198621593,None,001,28,2019_Oct_15_1214,ACPT_experiment_5_30_19,3.1.0,59.95395983416993,
,,,C,G,g,v,L,U,g,R,u,,,,,5,19,119,13,3,0,3,0,,,,,1,18,54,23,,,,,,up,0.5671599621109635,3138.0538724990356,None,001,28,2019_Oct_15_1214,ACPT_experiment_5_30_19,3.1.0,59.95395983416993,
,,,C,G,g,v,L,D,y,L,y,,,,,5,19,119,13,3,0,3,0,,,,,1,19,55,32,,,,,,down,0.8006189285151777,3139.905318486776,None,001,28,2019_Oct_15_1214,ACPT_experiment_5_30_19,3.1.0,59.95395983416993,
,,,C,G,g,v,L,D,g,L,i,,,,,5,19,119,13,3,0,3,0,,,,,1,20,56,14,,,,,,up,0.650545063997015,3141.973554872553,None,001,28,2019_Oct_15_1214,ACPT_experiment_5_30_19,3.1.0,59.95395983416993,
,,,C,G,g,v,R,U,g,L,u,,,,,5,19,119,13,3,0,3,0,,,,,1,21,57,10,,,,,,up,0.8006222489466381,3143.908391999328,None,001,28,2019_Oct_15_1214,ACPT_experiment_5_30_19,3.1.0,59.95395983416993,
,,,C,G,g,v,R,D,y,R,y,,,,,5,19,119,13,3,0,3,0,,,,,1,22,58,27,,,,,,down,0.7172202430438119,3145.9933268373607,None,001,28,2019_Oct_15_1214,ACPT_experiment_5_30_19,3.1.0,59.95395983416993,
,,,C,G,g,v,L,G,d,L,i,,,,,5,19,119,13,3,0,3,0,,,,,1,23,59,16,,,,,,up,0.7338918299865327,3147.994866310354,None,001,28,2019_Oct_15_1214,ACPT_experiment_5_30_19,3.1.0,59.95395983416993,
,,,C,G,g,v,R,U,g,R,u,,,,,5,19,119,13,3,0,3,0,,,,,1,24,60,11,,,,,,up,1.3010246249268675,3150.0130809925795,None,001,28,2019_Oct_15_1214,ACPT_experiment_5_30_19,3.1.0,59.95395983416993,
,,,C,G,g,v,R,G,y,R,y,,,,,5,19,119,13,3,0,3,0,,,,,1,25,61,29,,,,,,down,0.6338170297112811,3152.598401604432,None,001,28,2019_Oct_15_1214,ACPT_experiment_5_30_19,3.1.0,59.95395983416993,
,,,C,G,g,v,L,U,g,L,u,,,,,5,19,119,13,3,0,3,0,,,,,1,26,62,22,,,,,,up,0.7338963578476978,3154.5165420900967,None,001,28,2019_Oct_15_1214,ACPT_experiment_5_30_19,3.1.0,59.95395983416993,
,,,C,G,g,v,L,U,d,L,u,,,,,5,19,119,13,3,0,3,0,,,,,1,27,63,20,,,,,,up,0.7839769236015854,3156.518059527496,None,001,28,2019_Oct_15_1214,ACPT_experiment_5_30_19,3.1.0,59.95395983416993,
,,,C,G,g,v,R,U,y,L,u,,,,,5,19,119,13,3,0,3,0,,,,,1,28,64,30,,,,,,down,0.7005365818022256,3158.5863321361667,None,001,28,2019_Oct_15_1214,ACPT_experiment_5_30_19,3.1.0,59.95395983416993,
,,,C,G,g,v,L,G,y,L,y,,,,,5,19,119,13,3,0,3,0,,,,,1,29,65,34,,,,,,down,0.9340483732603388,3160.571193079495,None,001,28,2019_Oct_15_1214,ACPT_experiment_5_30_19,3.1.0,59.95395983416993,
,,,C,G,g,v,L,D,g,R,i,,,,,5,19,119,13,3,0,3,0,,,,,1,30,66,15,,,,,,up,0.6505242358325631,3162.7895573622727,None,001,28,2019_Oct_15_1214,ACPT_experiment_5_30_19,3.1.0,59.95395983416993,
,,,C,G,g,v,L,U,d,R,u,,,,,5,19,119,13,3,0,3,0,,,,,1,31,67,21,,,,,,up,1.1008481590615702,3164.7243709441673,None,001,28,2019_Oct_15_1214,ACPT_experiment_5_30_19,3.1.0,59.95395983416993,
,,,C,G,g,v,L,G,g,R,c ,,,,,5,19,119,13,3,0,3,0,,,,,1,32,68,19,,,,,,up,0.7172172244690955,3167.109542559184,None,001,28,2019_Oct_15_1214,ACPT_experiment_5_30_19,3.1.0,59.95395983416993,
,,,C,G,g,v,R,U,d,L,u,,,,,5,19,119,13,3,0,3,0,,,,,1,33,69,8,,,,,,up,0.6004605740972693,3169.1110769006,None,001,28,2019_Oct_15_1214,ACPT_experiment_5_30_19,3.1.0,59.95395983416993,
,,,C,G,g,v,L,U,y,R,u,,,,,5,19,119,13,3,0,3,0,,,,,1,34,70,25,,,,,,down,0.7003147165769406,3171.012784568564,None,001,28,2019_Oct_15_1214,ACPT_experiment_5_30_19,3.1.0,59.95395983416993,
,,,C,G,g,v,R,U,y,R,u,,,,,5,19,119,13,3,0,3,0,,,,,1,35,71,31,,,,,,down,0.5837901945833437,3172.997393159065,None,001,28,2019_Oct_15_1214,ACPT_experiment_5_30_19,3.1.0,59.95395983416993,
,,,C,G,g,v,,,,,,,,,,5,19,119,13,4,0,4,0,0,0,0,0,,,,,,,,,,,,,,001,28,2019_Oct_15_1214,ACPT_experiment_5_30_19,3.1.0,59.95395983416993,
,,,C,G,g,v,R,G,d,L,i,,,,,5,19,119,13,4,0,4,0,,,,,0,0,0,4,,,,,,up,0.833590817737786,3179.2525918989913,None,001,28,2019_Oct_15_1214,ACPT_experiment_5_30_19,3.1.0,59.95395983416993,
,,,C,G,g,v,R,G,g,R,c ,,,,,5,19,119,13,4,0,4,0,,,,,0,1,1,7,,,,,,up,0.6338366504451187,3181.3537920238396,None,001,28,2019_Oct_15_1214,ACPT_experiment_5_30_19,3.1.0,59.95395983416993,
,,,C,G,g,v,R,U,g,L,u,,,,,5,19,119,13,4,0,4,0,,,,,0,2,2,10,,,,,,up,0.4503414309610889,3183.2719554506702,None,001,28,2019_Oct_15_1214,ACPT_experiment_5_30_19,3.1.0,59.95395983416993,
,,,C,G,g,v,R,D,d,L,c,,,,,5,19,119,13,4,0,4,0,,,,,0,3,3,0,,,,,,up,0.4837090553010057,3185.0066118855766,None,001,28,2019_Oct_15_1214,ACPT_experiment_5_30_19,3.1.0,59.95395983416993,
,,,C,G,g,v,L,U,d,L,u,,,,,5,19,119,13,4,0,4,0,,,,,0,4,4,20,,,,,,up,0.41698648463443533,3186.774643189401,None,001,28,2019_Oct_15_1214,ACPT_experiment_5_30_19,3.1.0,59.95395983416993,
,,,C,G,g,v,L,G,d,R,i,,,,,5,19,119,13,4,0,4,0,,,,,0,5,5,17,,,,,,up,0.6504976723772415,3188.475948300271,None,001,28,2019_Oct_15_1214,ACPT_experiment_5_30_19,3.1.0,59.95395983416993,
,,,C,G,g,v,R,D,d,R,c ,,,,,5,19,119,13,4,0,4,0,,,,,0,6,6,1,,,,,,up,0.6505115578192999,3190.410767617457,None,001,28,2019_Oct_15_1214,ACPT_experiment_5_30_19,3.1.0,59.95395983416993,
,,,C,G,g,v,L,G,y,R,y,,,,,5,19,119,13,4,0,4,0,,,,,0,7,7,35,,,,,,down,0.6337509229288116,3192.3789989320285,None,001,28,2019_Oct_15_1214,ACPT_experiment_5_30_19,3.1.0,59.95395983416993,
,,,C,G,g,v,L,G,g,R,c ,,,,,5,19,119,13,4,0,4,0,,,,,0,8,8,19,,,,,,up,0.6004421607922268,3194.313804967487,None,001,28,2019_Oct_15_1214,ACPT_experiment_5_30_19,3.1.0,59.95395983416993,
,,,C,G,g,v,R,U,d,L,u,,,,,5,19,119,13,4,0,4,0,,,,,0,9,9,8,,,,,,up,0.5837874778671903,3196.1985440207773,None,001,28,2019_Oct_15_1214,ACPT_experiment_5_30_19,3.1.0,59.95395983416993,
,,,C,G,g,v,L,U,y,L,u,,,,,5,19,119,13,4,0,4,0,,,,,0,10,10,24,,,,,,down,1.384392219080837,3198.083325937826,None,001,28,2019_Oct_15_1214,ACPT_experiment_5_30_19,3.1.0,59.95395983416993,
,,,C,G,g,v,L,U,y,R,u,,,,,5,19,119,13,4,0,4,0,,,,,0,11,11,25,,,,,,down,0.7005263186492812,3200.76873131125,None,001,28,2019_Oct_15_1214,ACPT_experiment_5_30_19,3.1.0,59.95395983416993,
,,,C,G,g,v,L,U,g,R,u,,,,,5,19,119,13,4,0,4,0,,,,,0,12,12,23,,,,,,up,0.6004892505543467,3202.7368775020204,None,001,28,2019_Oct_15_1214,ACPT_experiment_5_30_19,3.1.0,59.95395983416993,
,,,C,G,g,v,R,U,y,L,u,,,,,5,19,119,13,4,0,4,0,,,,,0,13,13,30,,,,,,down,0.48369728285979363,3204.62168175652,None,001,28,2019_Oct_15_1214,ACPT_experiment_5_30_19,3.1.0,59.95395983416993,
,,,C,G,g,v,R,D,g,L,i,,,,,5,19,119,13,4,0,4,0,,,,,0,14,14,2,,,,,,down,0.500402677837883,3206.389680157883,None,001,28,2019_Oct_15_1214,ACPT_experiment_5_30_19,3.1.0,59.95395983416993,
,,,C,G,g,v,L,D,y,R,y,,,,,5,19,119,13,4,0,4,0,,,,,0,15,15,33,,,,,,down,0.5504210609560687,3208.191089651059,None,001,28,2019_Oct_15_1214,ACPT_experiment_5_30_19,3.1.0,59.95395983416993,
,,,C,G,g,v,R,G,y,R,y,,,,,5,19,119,13,4,0,4,0,,,,,0,16,16,29,,,,,,down,0.5003848682481475,3210.042509377202,None,001,28,2019_Oct_15_1214,ACPT_experiment_5_30_19,3.1.0,59.95395983416993,
,,,C,G,g,v,R,D,y,R,y,,,,,5,19,119,13,4,0,4,0,,,,,0,17,17,27,,,,,,down,0.5668837625444212,3211.827482732245,None,001,28,2019_Oct_15_1214,ACPT_experiment_5_30_19,3.1.0,59.95395983416993,
,,,C,G,g,v,L,G,d,L,i,,,,,5,19,119,13,4,0,4,0,,,,,0,18,18,16,,,,,,up,0.86733334902965,3213.678634710829,None,001,28,2019_Oct_15_1214,ACPT_experiment_5_30_19,3.1.0,59.95395983416993,
,,,C,G,g,v,L,D,d,R,c ,,,,,5,19,119,13,4,0,4,0,,,,,0,19,19,13,,,,,,up,0.6505097466751977,3215.8302845730923,None,001,28,2019_Oct_15_1214,ACPT_experiment_5_30_19,3.1.0,59.95395983416993,
,,,C,G,g,v,R,D,y,L,y,,,,,5,19,119,13,4,0,4,0,,,,,0,20,20,26,,,,,,down,0.900687691641906,3217.7651141534316,None,001,28,2019_Oct_15_1214,ACPT_experiment_5_30_19,3.1.0,59.95395983416993,
,,,C,G,g,v,R,G,g,L,c ,,,,,5,19,119,13,4,0,4,0,,,,,0,21,21,6,,,,,,up,0.717235637774138,3219.9501135285864,None,001,28,2019_Oct_15_1214,ACPT_experiment_5_30_19,3.1.0,59.95395983416993,
,,,C,G,g,v,R,D,g,R,i,,,,,5,19,119,13,4,0,4,0,,,,,0,22,22,3,,,,,,up,1.3677233488542697,3221.951647266288,None,001,28,2019_Oct_15_1214,ACPT_experiment_5_30_19,3.1.0,59.95395983416993,
,,,C,G,g,v,R,U,g,R,u,,,,,5,19,119,13,4,0,4,0,,,,,0,23,23,11,,,,,,up,1.6012321217376666,3224.603688033948,None,001,28,2019_Oct_15_1214,ACPT_experiment_5_30_19,3.1.0,59.95395983416993,
,,,C,G,g,v,R,U,y,R,u,,,,,5,19,119,13,4,0,4,0,,,,,0,24,24,31,,,,,,down,1.9848564154672204,3227.489234857773,None,001,28,2019_Oct_15_1214,ACPT_experiment_5_30_19,3.1.0,59.95395983416993,
,,,C,G,g,v,L,U,d,R,u,,,,,5,19,119,13,4,0,4,0,,,,,0,25,25,21,,,,,,up,0.6672148397956335,3230.7584111069054,None,001,28,2019_Oct_15_1214,ACPT_experiment_5_30_19,3.1.0,59.95395983416993,
,,,C,G,g,v,L,D,g,L,i,,,,,5,19,119,13,4,0,4,0,,,,,0,26,26,14,,,,,,up,0.8673484419023225,3232.709921028054,None,001,28,2019_Oct_15_1214,ACPT_experiment_5_30_19,3.1.0,59.95395983416993,
,,,C,G,g,v,L,D,g,R,i,,,,,5,19,119,13,4,0,4,0,,,,,0,27,27,15,,,,,,up,0.6338429894512956,3234.844860967477,None,001,28,2019_Oct_15_1214,ACPT_experiment_5_30_19,3.1.0,59.95395983416993,
,,,C,G,g,v,R,G,d,R,i,,,,,5,19,119,13,4,0,4,0,,,,,0,28,28,5,,,,,,up,0.8139637445046901,3236.783036335788,None,001,28,2019_Oct_15_1214,ACPT_experiment_5_30_19,3.1.0,59.95395983416993,
,,,C,G,g,v,L,G,g,L,c ,,,,,5,19,119,13,4,0,4,0,,,,,0,29,29,18,,,,,,up,0.5504213628137222,3238.8813171972415,None,001,28,2019_Oct_15_1214,ACPT_experiment_5_30_19,3.1.0,59.95395983416993,
,,,C,G,g,v,R,U,d,R,u,,,,,5,19,119,13,4,0,4,0,,,,,0,30,30,9,,,,,,up,0.43366833473100996,3240.716057790005,None,001,28,2019_Oct_15_1214,ACPT_experiment_5_30_19,3.1.0,59.95395983416993,
,,,C,G,g,v,L,D,y,L,y,,,,,5,19,119,13,4,0,4,0,,,,,0,31,31,32,,,,,,down,0.6672115193632635,3242.434045052828,None,001,28,2019_Oct_15_1214,ACPT_experiment_5_30_19,3.1.0,59.95395983416993,
,,,C,G,g,v,L,G,y,L,y,,,,,5,19,119,13,4,0,4,0,,,,,0,32,32,34,,,,,,down,0.6004847226931815,3244.3855199585123,None,001,28,2019_Oct_15_1214,ACPT_experiment_5_30_19,3.1.0,59.95395983416993,
,,,C,G,g,v,L,D,d,L,c ,,,,,5,19,119,13,4,0,4,0,,,,,0,33,33,12,,,,,,up,0.7506029602554918,3246.2703208925805,None,001,28,2019_Oct_15_1214,ACPT_experiment_5_30_19,3.1.0,59.95395983416993,
,,,C,G,g,v,R,G,y,L,y,,,,,5,19,119,13,4,0,4,0,,,,,0,34,34,28,,,,,,down,0.7172015278820254,3248.3219137641563,None,001,28,2019_Oct_15_1214,ACPT_experiment_5_30_19,3.1.0,59.95395983416993,
,,,C,G,g,v,L,U,g,L,u,,,,,5,19,119,13,4,0,4,0,,,,,0,35,35,22,,,,,,up,0.7505773023722213,3250.340111240507,None,001,28,2019_Oct_15_1214,ACPT_experiment_5_30_19,3.1.0,59.95395983416993,
,,,C,G,g,v,L,U,d,R,u,,,,,5,19,119,13,4,0,4,0,,,,,1,0,36,21,,,,,,up,0.48372777046279225,3252.358308113143,None,001,28,2019_Oct_15_1214,ACPT_experiment_5_30_19,3.1.0,59.95395983416993,
,,,C,G,g,v,L,G,d,L,i,,,,,5,19,119,13,4,0,4,0,,,,,1,1,37,16,,,,,,down,0.9507613146743097,3254.126346963404,None,001,28,2019_Oct_15_1214,ACPT_experiment_5_30_19,3.1.0,59.95395983416993,
,,,C,G,g,v,R,G,y,R,y,,,,,5,19,119,13,4,0,4,0,,,,,1,2,38,29,,,,,,down,1.4677993565601355,3256.378080379809,None,001,28,2019_Oct_15_1214,ACPT_experiment_5_30_19,3.1.0,59.95395983416993,
,,,C,G,g,v,L,U,g,L,u,,,,,5,19,119,13,4,0,4,0,,,,,1,3,39,22,,,,,,up,0.7839361728465519,3259.1301974570315,None,001,28,2019_Oct_15_1214,ACPT_experiment_5_30_19,3.1.0,59.95395983416993,
,,,C,G,g,v,R,G,y,L,y,,,,,5,19,119,13,4,0,4,0,,,,,1,4,40,28,,,,,,down,0.9340595419853344,3261.198448030108,None,001,28,2019_Oct_15_1214,ACPT_experiment_5_30_19,3.1.0,59.95395983416993,
,,,C,G,g,v,L,D,y,R,y,,,,,5,19,119,13,4,0,4,0,,,,,1,5,41,33,,,,,,down,0.6838797858745238,3263.4001198977785,None,001,28,2019_Oct_15_1214,ACPT_experiment_5_30_19,3.1.0,59.95395983416993,
,,,C,G,g,v,L,G,y,R,y,,,,,5,19,119,13,4,0,4,0,,,,,1,6,42,35,,,,,,down,0.9838910753433083,3265.3684921797785,None,001,28,2019_Oct_15_1214,ACPT_experiment_5_30_19,3.1.0,59.95395983416993,
,,,C,G,g,v,L,U,y,R,u,,,,,5,19,119,13,4,0,4,0,,,,,1,7,43,25,,,,,,down,1.1675719371587547,3267.6367302559565,None,001,28,2019_Oct_15_1214,ACPT_experiment_5_30_19,3.1.0,59.95395983416993,
,,,C,G,g,v,R,U,y,L,u,,,,,5,19,119,13,4,0,4,0,,,,,1,8,44,30,,,,,,down,1.3677209339948604,3270.088611159911,None,001,28,2019_Oct_15_1214,ACPT_experiment_5_30_19,3.1.0,59.95395983416993,
,,,C,G,g,v,L,D,g,L,i,,,,,5,19,119,13,4,0,4,0,,,,,1,9,45,14,,,,,,up,0.9674084511634646,3272.740649210854,None,001,28,2019_Oct_15_1214,ACPT_experiment_5_30_19,3.1.0,59.95395983416993,
,,,C,G,g,v,R,U,y,R,u,,,,,5,19,119,13,4,0,4,0,,,,,1,10,46,31,,,,,,down,1.1506736552701113,3275.0092356305286,None,001,28,2019_Oct_15_1214,ACPT_experiment_5_30_19,3.1.0,59.95395983416993,
,,,C,G,g,v,R,U,g,R,u,,,,,5,19,119,13,4,0,4,0,,,,,1,11,47,11,,,,,,up,0.850633991201903,3277.4609562481774,None,001,28,2019_Oct_15_1214,ACPT_experiment_5_30_19,3.1.0,59.95395983416993,
,,,C,G,g,v,L,D,g,R,i,,,,,5,19,119,13,4,0,4,0,,,,,1,12,48,15,,,,,,up,0.6338227650021508,3279.5959079600407,None,001,28,2019_Oct_15_1214,ACPT_experiment_5_30_19,3.1.0,59.95395983416993,
,,,C,G,g,v,R,G,g,R,c ,,,,,5,19,119,13,4,0,4,0,,,,,1,13,49,7,,,,,,up,0.7505697559354303,3281.5140617274337,None,001,28,2019_Oct_15_1214,ACPT_experiment_5_30_19,3.1.0,59.95395983416993,
,,,C,G,g,v,R,D,d,L,c,,,,,5,19,119,13,4,0,4,0,,,,,1,14,50,0,,,,,,up,0.6838577502803673,3283.548946789172,None,001,28,2019_Oct_15_1214,ACPT_experiment_5_30_19,3.1.0,59.95395983416993,
,,,C,G,g,v,L,D,d,R,c ,,,,,5,19,119,13,4,0,4,0,,,,,1,15,51,13,,,,,,up,0.45034686439521465,3285.500445239738,None,001,28,2019_Oct_15_1214,ACPT_experiment_5_30_19,3.1.0,59.95395983416993,
,,,C,G,g,v,R,D,y,L,y,,,,,5,19,119,13,4,0,4,0,,,,,1,16,52,26,,,,,,down,1.617926347989851,3287.2351059006487,None,001,28,2019_Oct_15_1214,ACPT_experiment_5_30_19,3.1.0,59.95395983416993,
,,,C,G,g,v,R,U,g,L,u,,,,,5,19,119,13,4,0,4,0,,,,,1,17,53,10,,,,,,up,0.7839346635591937,3290.1373403098623,None,001,28,2019_Oct_15_1214,ACPT_experiment_5_30_19,3.1.0,59.95395983416993,
,,,C,G,g,v,L,U,y,L,u,,,,,5,19,119,13,4,0,4,0,,,,,1,18,54,24,,,,,,down,0.8339756859859335,3292.205590581081,None,001,28,2019_Oct_15_1214,ACPT_experiment_5_30_19,3.1.0,59.95395983416993,
,,,C,G,g,v,L,G,y,L,y,,,,,5,19,119,13,4,0,4,0,,,,,1,19,55,34,,,,,,down,0.7003174332940034,3294.374161968255,None,001,28,2019_Oct_15_1214,ACPT_experiment_5_30_19,3.1.0,59.95395983416993,
,,,C,G,g,v,L,G,g,L,c ,,,,,5,19,119,13,4,0,4,0,,,,,1,20,56,18,,,,,,up,0.6004675168178437,3296.375458446001,None,001,28,2019_Oct_15_1214,ACPT_experiment_5_30_19,3.1.0,59.95395983416993,
,,,C,G,g,v,R,U,d,R,u,,,,,5,19,119,13,4,0,4,0,,,,,1,21,57,9,,,,,,down,0.7839361728465519,3298.2602418723372,None,001,28,2019_Oct_15_1214,ACPT_experiment_5_30_19,3.1.0,59.95395983416993,
,,,C,G,g,v,R,D,g,L,i,,,,,5,19,119,13,4,0,4,0,,,,,1,22,58,2,,,,,,up,0.7172268839067328,3300.3284806729725,None,001,28,2019_Oct_15_1214,ACPT_experiment_5_30_19,3.1.0,59.95395983416993,
,,,C,G,g,v,R,G,d,L,i,,,,,5,19,119,13,4,0,4,0,,,,,1,23,59,4,,,,,,down,0.5670663863011214,3302.3300642171534,None,001,28,2019_Oct_15_1214,ACPT_experiment_5_30_19,3.1.0,59.95395983416993,
,,,C,G,g,v,R,G,g,L,c ,,,,,5,19,119,13,4,0,4,0,,,,,1,24,60,6,,,,,,up,0.5337407201477617,3304.1814570779834,None,001,28,2019_Oct_15_1214,ACPT_experiment_5_30_19,3.1.0,59.95395983416993,
,,,C,G,g,v,R,D,g,R,i,,,,,5,19,119,13,4,0,4,0,,,,,1,25,61,3,,,,,,up,0.8173197956302829,3305.9994971054884,None,001,28,2019_Oct_15_1214,ACPT_experiment_5_30_19,3.1.0,59.95395983416993,
,,,C,G,g,v,R,U,d,L,u,,,,,5,19,119,13,4,0,4,0,,,,,1,26,62,8,,,,,,up,0.9173994256252627,3308.1011294902046,None,001,28,2019_Oct_15_1214,ACPT_experiment_5_30_19,3.1.0,59.95395983416993,
,,,C,G,g,v,R,D,d,R,c ,,,,,5,19,119,13,4,0,4,0,,,,,1,27,63,1,,,,,,up,0.6338263872912648,3310.286140335943,None,001,28,2019_Oct_15_1214,ACPT_experiment_5_30_19,3.1.0,59.95395983416993,
,,,C,G,g,v,R,D,y,R,y,,,,,5,19,119,13,4,0,4,0,,,,,1,28,64,27,,,,,,down,0.6838577502803673,3312.204283840182,None,001,28,2019_Oct_15_1214,ACPT_experiment_5_30_19,3.1.0,59.95395983416993,
,,,C,G,g,v,L,U,d,L,u,,,,,5,19,119,13,4,0,4,0,,,,,1,29,65,20,,,,,,up,1.0841675163956097,3314.1724596129825,None,001,28,2019_Oct_15_1214,ACPT_experiment_5_30_19,3.1.0,59.95395983416993,
,,,C,G,g,v,L,G,g,R,c ,,,,,5,19,119,13,4,0,4,0,,,,,1,30,66,19,,,,,,up,1.0508107589239444,3316.5409478686142,None,001,28,2019_Oct_15_1214,ACPT_experiment_5_30_19,3.1.0,59.95395983416993,
,,,C,G,g,v,L,D,d,L,c ,,,,,5,19,119,13,4,0,4,0,,,,,1,31,67,12,,,,,,up,0.6001873931054433,3318.8930250402827,None,001,28,2019_Oct_15_1214,ACPT_experiment_5_30_19,3.1.0,59.95395983416993,
,,,C,G,g,v,L,G,d,R,i,,,,,5,19,119,13,4,0,4,0,,,,,1,32,68,17,,,,,,up,0.5837865722933202,3320.777530757765,None,001,28,2019_Oct_15_1214,ACPT_experiment_5_30_19,3.1.0,59.95395983416993,
,,,C,G,g,v,L,D,y,L,y,,,,,5,19,119,13,4,0,4,0,,,,,1,33,69,32,,,,,,down,1.1342021998161727,3322.645635654436,None,001,28,2019_Oct_15_1214,ACPT_experiment_5_30_19,3.1.0,59.95395983416993,
,,,C,G,g,v,L,U,g,R,u,,,,,5,19,119,13,4,0,4,0,,,,,1,34,70,23,,,,,,up,1.0007489083327528,3325.064177912366,None,001,28,2019_Oct_15_1214,ACPT_experiment_5_30_19,3.1.0,59.95395983416993,
,,,C,G,g,v,R,G,d,R,i,,,,,5,19,119,13,4,0,4,0,,,,,1,35,71,5,,,,,,up,0.6505040113843279,3327.3492388060695,None,001,28,2019_Oct_15_1214,ACPT_experiment_5_30_19,3.1.0,59.95395983416993,
,,,C,G,g,v,,,,,,,,,,5,19,119,13,5,0,5,0,0,0,0,0,,,,,,,,,,,,,,001,28,2019_Oct_15_1214,ACPT_experiment_5_30_19,3.1.0,59.95395983416993,
,,,C,G,g,v,R,G,g,L,c ,,,,,5,19,119,13,5,0,5,0,,,,,0,0,0,6,,,,,,up,1.0672327097563539,3368.0140674627246,None,001,28,2019_Oct_15_1214,ACPT_experiment_5_30_19,3.1.0,59.95395983416993,
,,,C,G,g,v,R,D,g,L,i,,,,,5,19,119,13,5,0,5,0,,,,,0,1,1,2,,,,,,up,0.5170667183447222,3370.348930005898,None,001,28,2019_Oct_15_1214,ACPT_experiment_5_30_19,3.1.0,59.95395983416993,
,,,C,G,g,v,R,U,g,L,u,,,,,5,19,119,13,5,0,5,0,,,,,0,2,2,10,,,,,,up,0.40030584196847485,3372.15031263376,None,001,28,2019_Oct_15_1214,ACPT_experiment_5_30_19,3.1.0,59.95395983416993,
,,,C,G,g,v,L,D,g,R,i,,,,,5,19,119,13,5,0,5,0,,,,,0,3,3,15,,,,,,up,0.5504485299843509,3373.8349153682266,None,001,28,2019_Oct_15_1214,ACPT_experiment_5_30_19,3.1.0,59.95395983416993,
,,,C,G,g,v,L,D,d,R,c ,,,,,5,19,119,13,5,0,5,0,,,,,0,4,4,13,,,,,,up,0.400306747540526,3375.6696840337327,None,001,28,2019_Oct_15_1214,ACPT_experiment_5_30_19,3.1.0,59.95395983416993,
,,,C,G,g,v,R,G,d,L,i,,,,,5,19,119,13,5,0,5,0,,,,,0,5,5,4,,,,,,up,0.4169861827767818,3377.3543066907905,None,001,28,2019_Oct_15_1214,ACPT_experiment_5_30_19,3.1.0,59.95395983416993,
,,,C,G,g,v,L,G,g,R,c ,,,,,5,19,119,13,5,0,5,0,,,,,0,6,6,19,,,,,,up,0.5170633979123522,3379.055617536952,None,001,28,2019_Oct_15_1214,ACPT_experiment_5_30_19,3.1.0,59.95395983416993,
,,,C,G,g,v,L,D,y,L,y,,,,,5,19,119,13,5,0,5,0,,,,,0,7,7,32,,,,,,down,0.650101635403189,3380.8740523940014,None,001,28,2019_Oct_15_1214,ACPT_experiment_5_30_19,3.1.0,59.95395983416993,
,,,C,G,g,v,R,D,y,R,y,,,,,5,19,119,13,5,0,5,0,,,,,0,8,8,27,,,,,,down,0.383644518177789,3382.808504048814,None,001,28,2019_Oct_15_1214,ACPT_experiment_5_30_19,3.1.0,59.95395983416993,
,,,C,G,g,v,R,U,d,R,u,,,,,5,19,119,13,5,0,5,0,,,,,0,9,9,9,,,,,,up,0.43369127589721757,3384.4764611560777,None,001,28,2019_Oct_15_1214,ACPT_experiment_5_30_19,3.1.0,59.95395983416993,
,,,C,G,g,v,L,U,d,R,u,,,,,5,19,119,13,5,0,5,0,,,,,0,10,10,21,,,,,,up,0.6838314886826993,3386.1944484189007,None,001,28,2019_Oct_15_1214,ACPT_experiment_5_30_19,3.1.0,59.95395983416993,
,,,C,G,g,v,R,G,g,R,c ,,,,,5,19,119,13,5,0,5,0,,,,,0,11,11,7,,,,,,up,0.4167154166443652,3388.179562318772,None,001,28,2019_Oct_15_1214,ACPT_experiment_5_30_19,3.1.0,59.95395983416993,
,,,C,G,g,v,R,G,y,L,y,,,,,5,19,119,13,5,0,5,0,,,,,0,12,12,28,,,,,,down,0.7672573413237842,3389.880599380226,None,001,28,2019_Oct_15_1214,ACPT_experiment_5_30_19,3.1.0,59.95395983416993,
,,,C,G,g,v,L,U,y,R,u,,,,,5,19,119,13,5,0,5,0,,,,,0,13,13,25,,,,,,down,0.5504177405236987,3391.948854481164,None,001,28,2019_Oct_15_1214,ACPT_experiment_5_30_19,3.1.0,59.95395983416993,
,,,C,G,g,v,L,D,d,L,c ,,,,,5,19,119,13,5,0,5,0,,,,,0,14,14,12,,,,,,up,0.8673680626370697,3393.800275716594,None,001,28,2019_Oct_15_1214,ACPT_experiment_5_30_19,3.1.0,59.95395983416993,
,,,C,G,g,v,R,U,g,R,u,,,,,5,19,119,13,5,0,5,0,,,,,0,15,15,11,,,,,,up,0.6004605740972693,3395.9519382568697,None,001,28,2019_Oct_15_1214,ACPT_experiment_5_30_19,3.1.0,59.95395983416993,
,,,C,G,g,v,L,G,y,R,y,,,,,5,19,119,13,5,0,5,0,,,,,0,16,16,35,,,,,,down,0.5504400779755088,3397.83670930705,None,001,28,2019_Oct_15_1214,ACPT_experiment_5_30_19,3.1.0,59.95395983416993,
,,,C,G,g,v,R,D,d,R,c ,,,,,5,19,119,13,5,0,5,0,,,,,0,17,17,1,,,,,,down,0.7505917915304963,3399.671435410656,None,001,28,2019_Oct_15_1214,ACPT_experiment_5_30_19,3.1.0,59.95395983416993,
,,,C,G,g,v,L,G,d,L,i,,,,,5,19,119,13,5,0,5,0,,,,,0,18,18,16,,,,,,down,0.7505782079442724,3401.706344922848,None,001,28,2019_Oct_15_1214,ACPT_experiment_5_30_19,3.1.0,59.95395983416993,
,,,C,G,g,v,L,U,d,L,u,,,,,5,19,119,13,5,0,5,0,,,,,0,19,19,20,,,,,,down,0.633820048285088,3403.741243266315,None,001,28,2019_Oct_15_1214,ACPT_experiment_5_30_19,3.1.0,59.95395983416993,
,,,C,G,g,v,R,U,d,L,u,,,,,5,19,119,13,5,0,5,0,,,,,0,20,20,8,,,,,,up,0.7672600580417566,3405.6593864686965,None,001,28,2019_Oct_15_1214,ACPT_experiment_5_30_19,3.1.0,59.95395983416993,
,,,C,G,g,v,L,G,d,R,i,,,,,5,19,119,13,5,0,5,0,,,,,0,21,21,17,,,,,,down,0.6838791821601262,3407.710954889819,None,001,28,2019_Oct_15_1214,ACPT_experiment_5_30_19,3.1.0,59.95395983416993,
,,,C,G,g,v,R,G,d,R,i,,,,,5,19,119,13,5,0,5,0,,,,,0,22,22,5,,,,,,up,0.616798910416037,3409.712843611881,None,001,28,2019_Oct_15_1214,ACPT_experiment_5_30_19,3.1.0,59.95395983416993,
,,,C,G,g,v,R,U,y,R,u,,,,,5,19,119,13,5,0,5,0,,,,,0,23,23,31,,,,,,down,0.6671885781970559,3411.6139548095243,None,001,28,2019_Oct_15_1214,ACPT_experiment_5_30_19,3.1.0,59.95395983416993,
,,,C,G,g,v,L,U,y,L,u,,,,,5,19,119,13,5,0,5,0,,,,,0,24,24,24,,,,,,down,0.8673315378855477,3413.5654529582334,None,001,28,2019_Oct_15_1214,ACPT_experiment_5_30_19,3.1.0,59.95395983416993,
,,,C,G,g,v,L,G,g,L,c ,,,,,5,19,119,13,5,0,5,0,,,,,0,25,25,18,,,,,,up,0.6671807299026113,3415.7171049334975,None,001,28,2019_Oct_15_1214,ACPT_experiment_5_30_19,3.1.0,59.95395983416993,
,,,C,G,g,v,L,U,g,L,u,,,,,5,19,119,13,5,0,5,0,,,,,0,26,26,22,,,,,,up,1.034131021830035,3417.6686042896354,None,001,28,2019_Oct_15_1214,ACPT_experiment_5_30_19,3.1.0,59.95395983416993,
,,,C,G,g,v,R,G,y,R,y,,,,,5,19,119,13,5,0,5,0,,,,,0,27,27,29,,,,,,down,0.9674087530211182,3419.9870494098386,None,001,28,2019_Oct_15_1214,ACPT_experiment_5_30_19,3.1.0,59.95395983416993,
,,,C,G,g,v,L,D,y,R,y,,,,,5,19,119,13,5,0,5,0,,,,,0,28,28,33,,,,,,down,0.7839443229977405,3422.238775883521,None,001,28,2019_Oct_15_1214,ACPT_experiment_5_30_19,3.1.0,59.95395983416993,
,,,C,G,g,v,R,D,y,L,y,,,,,5,19,119,13,5,0,5,0,,,,,0,29,29,26,,,,,,down,1.0674932127349166,3424.307033399319,None,001,28,2019_Oct_15_1214,ACPT_experiment_5_30_19,3.1.0,59.95395983416993,
,,,C,G,g,v,R,D,d,L,c,,,,,5,19,119,13,5,0,5,0,,,,,0,30,30,0,,,,,,up,1.1842402036691055,3426.6588443327164,None,001,28,2019_Oct_15_1214,ACPT_experiment_5_30_19,3.1.0,59.95395983416993,
,,,C,G,g,v,R,D,g,R,i,,,,,5,19,119,13,5,0,5,0,,,,,0,31,31,3,,,,,,up,0.9006873897851619,3429.127401049618,None,001,28,2019_Oct_15_1214,ACPT_experiment_5_30_19,3.1.0,59.95395983416993,
,,,C,G,g,v,L,U,g,R,u,,,,,5,19,119,13,5,0,5,0,,,,,0,32,32,23,,,,,,up,0.5336800468003275,3431.3124795114254,None,001,28,2019_Oct_15_1214,ACPT_experiment_5_30_19,3.1.0,59.95395983416993,
,,,C,G,g,v,L,G,y,L,y,,,,,5,19,119,13,5,0,5,0,,,,,0,33,33,34,,,,,,down,0.7172455990694289,3433.1304769770304,None,001,28,2019_Oct_15_1214,ACPT_experiment_5_30_19,3.1.0,59.95395983416993,
,,,C,G,g,v,R,U,y,L,u,,,,,5,19,119,13,5,0,5,0,,,,,0,34,34,30,,,,,,down,0.9507178472003943,3435.14869709269,None,001,28,2019_Oct_15_1214,ACPT_experiment_5_30_19,3.1.0,59.95395983416993,
,,,C,G,g,v,L,D,g,L,i,,,,,5,19,119,13,5,0,5,0,,,,,0,35,35,14,,,,,,up,1.0675034758887705,3437.400403341924,None,001,28,2019_Oct_15_1214,ACPT_experiment_5_30_19,3.1.0,59.95395983416993,
,,,C,G,g,v,L,D,g,R,i,,,,,5,19,119,13,5,0,5,0,,,,,1,0,36,15,,,,,,up,1.3844332716944336,3439.7522142753214,None,001,28,2019_Oct_15_1214,ACPT_experiment_5_30_19,3.1.0,59.95395983416993,
,,,C,G,g,v,R,U,g,R,u,,,,,5,19,119,13,5,0,5,0,,,,,1,1,37,11,,,,,,up,0.6171348777570529,3442.4209547026676,None,001,28,2019_Oct_15_1214,ACPT_experiment_5_30_19,3.1.0,59.95395983416993,
,,,C,G,g,v,L,U,d,L,u,,,,,5,19,119,13,5,0,5,0,,,,,1,2,38,20,,,,,,up,0.7005450338110677,3444.32240096208,None,001,28,2019_Oct_15_1214,ACPT_experiment_5_30_19,3.1.0,59.95395983416993,
,,,C,G,g,v,L,U,y,L,u,,,,,5,19,119,13,5,0,5,0,,,,,1,3,39,24,,,,,,down,0.7839618307289129,3446.29056013272,None,001,28,2019_Oct_15_1214,ACPT_experiment_5_30_19,3.1.0,59.95395983416993,
,,,C,G,g,v,L,U,y,R,u,,,,,5,19,119,13,5,0,5,0,,,,,1,4,40,25,,,,,,down,0.7007644841769434,3448.342005697861,None,001,28,2019_Oct_15_1214,ACPT_experiment_5_30_19,3.1.0,59.95395983416993,
,,,C,G,g,v,R,G,y,R,y,,,,,5,19,119,13,5,0,5,0,,,,,1,5,41,29,,,,,,down,0.5670989869058758,3450.3270145513397,None,001,28,2019_Oct_15_1214,ACPT_experiment_5_30_19,3.1.0,59.95395983416993,
,,,C,G,g,v,R,U,g,L,u,,,,,5,19,119,13,5,0,5,0,,,,,1,6,42,10,,,,,,up,1.567888947852225,3452.178434881198,None,001,28,2019_Oct_15_1214,ACPT_experiment_5_30_19,3.1.0,59.95395983416993,
,,,C,G,g,v,R,G,d,L,i,,,,,5,19,119,13,5,0,5,0,,,,,1,7,43,4,,,,,,up,1.4844772825099426,3455.030626154982,None,001,28,2019_Oct_15_1214,ACPT_experiment_5_30_19,3.1.0,59.95395983416993,
,,,C,G,g,v,L,D,d,R,c ,,,,,5,19,119,13,5,0,5,0,,,,,1,8,44,13,,,,,,down,0.5670953646167618,3457.7994175358654,None,001,28,2019_Oct_15_1214,ACPT_experiment_5_30_19,3.1.0,59.95395983416993,
,,,C,G,g,v,L,G,y,R,y,,,,,5,19,119,13,5,0,5,0,,,,,1,9,45,35,,,,,,down,0.450353203402301,3459.66751367867,None,001,28,2019_Oct_15_1214,ACPT_experiment_5_30_19,3.1.0,59.95395983416993,
,,,C,G,g,v,R,D,d,R,c ,,,,,5,19,119,13,5,0,5,0,,,,,1,10,46,1,,,,,,up,0.7007113572663002,3461.402182187875,None,001,28,2019_Oct_15_1214,ACPT_experiment_5_30_19,3.1.0,59.95395983416993,
,,,C,G,g,v,L,G,g,L,c ,,,,,5,19,119,13,5,0,5,0,,,,,1,11,47,18,,,,,,up,0.9007100290928065,3463.3870419237737,None,001,28,2019_Oct_15_1214,ACPT_experiment_5_30_19,3.1.0,59.95395983416993,
,,,C,G,g,v,L,D,g,L,i,,,,,5,19,119,13,5,0,5,0,,,,,1,12,48,14,,,,,,up,0.6838535242759463,3465.572058504803,None,001,28,2019_Oct_15_1214,ACPT_experiment_5_30_19,3.1.0,59.95395983416993,
,,,C,G,g,v,R,D,y,L,y,,,,,5,19,119,13,5,0,5,0,,,,,1,13,49,26,,,,,,down,0.7172169226123515,3467.540231862744,None,001,28,2019_Oct_15_1214,ACPT_experiment_5_30_19,3.1.0,59.95395983416993,
,,,C,G,g,v,L,D,d,L,c ,,,,,5,19,119,13,5,0,5,0,,,,,1,14,50,12,,,,,,down,0.7338969615630049,3469.541775259884,None,001,28,2019_Oct_15_1214,ACPT_experiment_5_30_19,3.1.0,59.95395983416993,
,,,C,G,g,v,L,G,g,R,c ,,,,,5,19,119,13,5,0,5,0,,,,,1,15,51,19,,,,,,up,0.6338375560171698,3471.5599836031033,None,001,28,2019_Oct_15_1214,ACPT_experiment_5_30_19,3.1.0,59.95395983416993,
,,,C,G,g,v,R,U,d,L,u,,,,,5,19,119,13,5,0,5,0,,,,,1,16,52,8,,,,,,down,0.9841087145641723,3473.4781014494592,None,001,28,2019_Oct_15_1214,ACPT_experiment_5_30_19,3.1.0,59.95395983416993,
,,,C,G,g,v,R,D,g,R,i,,,,,5,19,119,13,5,0,5,0,,,,,1,17,53,3,,,,,,up,1.1842703894144506,3475.746535129264,None,001,28,2019_Oct_15_1214,ACPT_experiment_5_30_19,3.1.0,59.95395983416993,
,,,C,G,g,v,L,D,y,R,y,,,,,5,19,119,13,5,0,5,0,,,,,1,18,54,33,,,,,,down,1.1675619758625544,3478.215097883315,None,001,28,2019_Oct_15_1214,ACPT_experiment_5_30_19,3.1.0,59.95395983416993,
,,,C,G,g,v,R,G,g,R,c ,,,,,5,19,119,13,5,0,5,0,,,,,1,19,55,7,,,,,,up,1.2176156763025574,3480.66697395755,None,001,28,2019_Oct_15_1214,ACPT_experiment_5_30_19,3.1.0,59.95395983416993,
,,,C,G,g,v,L,G,d,L,i,,,,,5,19,119,13,5,0,5,0,,,,,1,20,56,16,,,,,,up,1.684631109066686,3483.1688986006493,None,001,28,2019_Oct_15_1214,ACPT_experiment_5_30_19,3.1.0,59.95395983416993,
,,,C,G,g,v,R,U,y,R,u,,,,,5,19,119,13,5,0,5,0,,,,,1,21,57,31,,,,,,down,0.6671804280458673,3486.137844109946,None,001,28,2019_Oct_15_1214,ACPT_experiment_5_30_19,3.1.0,59.95395983416993,
,,,C,G,g,v,R,G,y,L,y,,,,,5,19,119,13,5,0,5,0,,,,,1,22,58,28,,,,,,down,1.1842350720926333,3488.106029240327,None,001,28,2019_Oct_15_1214,ACPT_experiment_5_30_19,3.1.0,59.95395983416993,
,,,C,G,g,v,L,U,g,R,u,,,,,5,19,119,13,5,0,5,0,,,,,1,23,59,23,,,,,,up,0.7338912262721351,3490.591269014755,None,001,28,2019_Oct_15_1214,ACPT_experiment_5_30_19,3.1.0,59.95395983416993,
,,,C,G,g,v,R,D,d,L,c,,,,,5,19,119,13,5,0,5,0,,,,,1,24,60,0,,,,,,up,0.8172923266020007,3492.6094836969805,None,001,28,2019_Oct_15_1214,ACPT_experiment_5_30_19,3.1.0,59.95395983416993,
,,,C,G,g,v,L,U,g,L,u,,,,,5,19,119,13,5,0,5,0,,,,,1,25,61,22,,,,,,up,0.6838601651397767,3494.711091631243,None,001,28,2019_Oct_15_1214,ACPT_experiment_5_30_19,3.1.0,59.95395983416993,
,,,C,G,g,v,R,D,g,L,i,,,,,5,19,119,13,5,0,5,0,,,,,1,26,62,2,,,,,,up,0.8172923266029102,3496.6792746486226,None,001,28,2019_Oct_15_1214,ACPT_experiment_5_30_19,3.1.0,59.95395983416993,
,,,C,G,g,v,L,G,y,L,y,,,,,5,19,119,13,5,0,5,0,,,,,1,27,63,34,,,,,,down,0.6000325402328599,3498.7979622811,None,001,28,2019_Oct_15_1214,ACPT_experiment_5_30_19,3.1.0,59.95395983416993,
