facing_vig,person_vig,text_vig,facing_train,person_train,food_train,correct_key_train,facing_exp,person_exp,food_exp,showL_R,consistent,vig_random.thisRepN,vig_random.thisTrialN,vig_random.thisN,vig_random.thisIndex,trainTrials.thisRepN,trainTrials.thisTrialN,trainTrials.thisN,trainTrials.thisIndex,expBlock.thisRepN,expBlock.thisTrialN,expBlock.thisN,expBlock.thisIndex,breakLoop.thisRepN,breakLoop.thisTrialN,breakLoop.thisN,breakLoop.thisIndex,expTrials.thisRepN,expTrials.thisTrialN,expTrials.thisN,expTrials.thisIndex,train_resp.keys,train_resp.corr,train_resp.rt,train_resp.started,train_resp.stopped,exp_resp.keys,exp_resp.rt,exp_resp.started,exp_resp.stopped,session,participant,date,expName,psychopyVersion,frameRate,
C,D,"is allergic to gluten, meaning she can’t eat wheat products. She enjoys eating dairy products. She thinks eating insects, like crickets, is disgusting.",,,,,,,,,,0,0,0,1,,,,,,,,,,,,,,,,,,,,,,,,,,001,29,2019_Oct_15_1306,ACPT_experiment_5_30_19,3.1.0,59.95330882960267,
C,G,"cannot eat dairy products because she is lactose intolerant. She enjoys eating wheat products. She thinks eating insects, like crickets, is disgusting.",,,,,,,,,,0,1,1,0,,,,,,,,,,,,,,,,,,,,,,,,,,001,29,2019_Oct_15_1306,ACPT_experiment_5_30_19,3.1.0,59.95330882960267,
C,U,"did not report her food preferences, so her food preferences are unknown.",,,,,,,,,,0,2,2,2,,,,,,,,,,,,,,,,,,,,,,,,,,001,29,2019_Oct_15_1306,ACPT_experiment_5_30_19,3.1.0,59.95330882960267,
,,,C,U,y,n,,,,,,,,,,0,0,0,8,,,,,,,,,,,,,b,0,2.0682807588200376,444.86507696459375,None,,,,,001,29,2019_Oct_15_1306,ACPT_experiment_5_30_19,3.1.0,59.95330882960267,
,,,C,D,g,b,,,,,,,,,,0,1,1,1,,,,,,,,,,,,,v,0,13.59382333249414,450.21920797434905,None,,,,,001,29,2019_Oct_15_1306,ACPT_experiment_5_30_19,3.1.0,59.95330882960267,
,,,C,G,g,v,,,,,,,,,,0,2,2,4,,,,,,,,,,,,,v,1,2.3685208562365005,467.09884714602777,None,,,,,001,29,2019_Oct_15_1306,ACPT_experiment_5_30_19,3.1.0,59.95330882960267,
,,,C,D,d,v,,,,,,,,,,0,3,3,9,,,,,,,,,,,,,b,0,6.955357999917396,472.75318384144884,None,,,,,001,29,2019_Oct_15_1306,ACPT_experiment_5_30_19,3.1.0,59.95330882960267,
,,,C,D,d,v,,,,,,,,,,0,4,4,18,,,,,,,,,,,,,v,1,11.17527382998378,482.5273588499458,None,,,,,001,29,2019_Oct_15_1306,ACPT_experiment_5_30_19,3.1.0,59.95330882960267,
,,,C,U,g,n,,,,,,,,,,0,5,5,7,,,,,,,,,,,,,b,0,1.5845614403679065,496.6382039240252,None,,,,,001,29,2019_Oct_15_1306,ACPT_experiment_5_30_19,3.1.0,59.95330882960267,
,,,C,U,y,n,,,,,,,,,,0,6,6,17,,,,,,,,,,,,,b,0,3.5694193651215755,500.8914716818472,None,,,,,001,29,2019_Oct_15_1306,ACPT_experiment_5_30_19,3.1.0,59.95330882960267,
,,,C,D,g,b,,,,,,,,,,0,7,7,10,,,,,,,,,,,,,b,1,5.454248371932408,506.96278097646064,None,,,,,001,29,2019_Oct_15_1306,ACPT_experiment_5_30_19,3.1.0,59.95330882960267,
,,,C,D,y,b,,,,,,,,,,0,8,8,11,,,,,,,,,,,,,b,1,2.9857206333454087,514.6353441265474,None,,,,,001,29,2019_Oct_15_1306,ACPT_experiment_5_30_19,3.1.0,59.95330882960267,
,,,C,G,y,b,,,,,,,,,,0,9,9,14,,,,,,,,,,,,,n,0,1.617923027557481,519.7059325855716,None,,,,,001,29,2019_Oct_15_1306,ACPT_experiment_5_30_19,3.1.0,59.95330882960267,
,,,C,G,g,v,,,,,,,,,,0,10,10,13,,,,,,,,,,,,,v,1,3.5193819649830402,524.0426029530099,None,,,,,001,29,2019_Oct_15_1306,ACPT_experiment_5_30_19,3.1.0,59.95330882960267,
,,,C,G,g,v,,,,,,,,,,0,11,11,19,,,,,,,,,,,,,b,0,27.237693120850963,529.5968600184369,None,,,,,001,29,2019_Oct_15_1306,ACPT_experiment_5_30_19,3.1.0,59.95330882960267,
,,,C,D,d,v,,,,,,,,,,0,12,12,0,,,,,,,,,,,,,b,0,3.586092159494001,559.0028069724231,None,,,,,001,29,2019_Oct_15_1306,ACPT_experiment_5_30_19,3.1.0,59.95330882960267,
,,,C,U,d,n,,,,,,,,,,0,13,13,15,,,,,,,,,,,,,v,0,7.389042634949874,564.6404717790447,None,,,,,001,29,2019_Oct_15_1306,ACPT_experiment_5_30_19,3.1.0,59.95330882960267,
,,,C,U,d,n,,,,,,,,,,0,14,14,6,,,,,,,,,,,,,v,0,9.674131601395857,573.930941052673,None,,,,,001,29,2019_Oct_15_1306,ACPT_experiment_5_30_19,3.1.0,59.95330882960267,
,,,C,G,d,b,,,,,,,,,,0,15,15,3,,,,,,,,,,,,,v,0,2.301801907859044,585.489818951939,None,,,,,001,29,2019_Oct_15_1306,ACPT_experiment_5_30_19,3.1.0,59.95330882960267,
,,,C,G,y,b,,,,,,,,,,0,16,16,5,,,,,,,,,,,,,b,1,2.0683076241330127,589.7264036522338,None,,,,,001,29,2019_Oct_15_1306,ACPT_experiment_5_30_19,3.1.0,59.95330882960267,
,,,C,D,y,b,,,,,,,,,,0,17,17,2,,,,,,,,,,,,,b,1,2.2684246240823995,593.6294002515078,None,,,,,001,29,2019_Oct_15_1306,ACPT_experiment_5_30_19,3.1.0,59.95330882960267,
,,,C,G,d,b,,,,,,,,,,0,18,18,12,,,,,,,,,,,,,v,0,10.091108426593564,599.183671202376,None,,,,,001,29,2019_Oct_15_1306,ACPT_experiment_5_30_19,3.1.0,59.95330882960267,
,,,C,U,g,n,,,,,,,,,,0,19,19,16,,,,,,,,,,,,,v,0,1.5845614403679065,611.3263383906524,None,,,,,001,29,2019_Oct_15_1306,ACPT_experiment_5_30_19,3.1.0,59.95330882960267,
,,,C,D,d,v,,,,,,,,,,1,0,20,9,,,,,,,,,,,,,v,1,13.827176648790555,614.8790635295227,None,,,,,001,29,2019_Oct_15_1306,ACPT_experiment_5_30_19,3.1.0,59.95330882960267,
,,,C,D,d,v,,,,,,,,,,1,1,21,0,,,,,,,,,,,,,v,1,2.7187440194484225,630.7913156819159,None,,,,,001,29,2019_Oct_15_1306,ACPT_experiment_5_30_19,3.1.0,59.95330882960267,
,,,C,D,d,v,,,,,,,,,,1,2,22,18,,,,,,,,,,,,,v,1,0.8841721650005638,636.7790747586187,None,,,,,001,29,2019_Oct_15_1306,ACPT_experiment_5_30_19,3.1.0,59.95330882960267,
,,,C,G,y,b,,,,,,,,,,1,3,23,14,,,,,,,,,,,,,v,0,6.988766978727654,640.9490938541221,None,,,,,001,29,2019_Oct_15_1306,ACPT_experiment_5_30_19,3.1.0,59.95330882960267,
,,,C,U,d,n,,,,,,,,,,1,4,24,6,,,,,,,,,,,,,v,0,2.485272676889508,649.9893712973408,None,,,,,001,29,2019_Oct_15_1306,ACPT_experiment_5_30_19,3.1.0,59.95330882960267,
,,,C,G,g,v,,,,,,,,,,1,5,25,19,,,,,,,,,,,,,b,0,1.9848706027678418,654.5428755302873,None,,,,,001,29,2019_Oct_15_1306,ACPT_experiment_5_30_19,3.1.0,59.95330882960267,
,,,C,D,y,b,,,,,,,,,,1,6,26,11,,,,,,,,,,,,,b,1,1.8014025504544406,658.5459463261232,None,,,,,001,29,2019_Oct_15_1306,ACPT_experiment_5_30_19,3.1.0,59.95330882960267,
,,,C,G,g,v,,,,,,,,,,1,7,27,13,,,,,,,,,,,,,b,0,2.535295286013934,662.1653952430879,None,,,,,001,29,2019_Oct_15_1306,ACPT_experiment_5_30_19,3.1.0,59.95330882960267,
,,,C,G,y,b,,,,,,,,,,1,8,28,5,,,,,,,,,,,,,b,1,1.2843572639885679,666.7188726107215,None,,,,,001,29,2019_Oct_15_1306,ACPT_experiment_5_30_19,3.1.0,59.95330882960267,
,,,C,U,g,n,,,,,,,,,,1,9,29,16,,,,,,,,,,,,,v,0,1.8848093860760855,671.2890559770494,None,,,,,001,29,2019_Oct_15_1306,ACPT_experiment_5_30_19,3.1.0,59.95330882960267,
,,,C,G,d,b,,,,,,,,,,1,10,30,12,,,,,,,,,,,,,b,1,10.291245349129895,675.2754690713828,None,,,,,001,29,2019_Oct_15_1306,ACPT_experiment_5_30_19,3.1.0,59.95330882960267,
,,,C,U,y,n,,,,,,,,,,1,11,31,17,,,,,,,,,,,,,b,0,1.851433309728236,687.401448372415,None,,,,,001,29,2019_Oct_15_1306,ACPT_experiment_5_30_19,3.1.0,59.95330882960267,
,,,C,U,y,n,,,,,,,,,,1,12,32,8,,,,,,,,,,,,,v,0,1.1842818599961902,692.3719348639916,None,,,,,001,29,2019_Oct_15_1306,ACPT_experiment_5_30_19,3.1.0,59.95330882960267,
,,,C,D,y,b,,,,,,,,,,1,13,33,2,,,,,,,,,,,,,b,1,1.0508466799601592,695.9746841212709,None,,,,,001,29,2019_Oct_15_1306,ACPT_experiment_5_30_19,3.1.0,59.95330882960267,
,,,C,G,d,b,,,,,,,,,,1,14,34,3,,,,,,,,,,,,,b,1,4.00309796300462,700.3113686760098,None,,,,,001,29,2019_Oct_15_1306,ACPT_experiment_5_30_19,3.1.0,59.95330882960267,
,,,C,D,g,b,,,,,,,,,,1,15,35,10,,,,,,,,,,,,,v,0,1.2342923948217503,707.6003048156526,None,,,,,001,29,2019_Oct_15_1306,ACPT_experiment_5_30_19,3.1.0,59.95330882960267,
,,,C,U,g,n,,,,,,,,,,1,16,36,7,,,,,,,,,,,,,v,0,2.034704852841969,711.3701047022751,None,,,,,001,29,2019_Oct_15_1306,ACPT_experiment_5_30_19,3.1.0,59.95330882960267,
,,,C,D,g,b,,,,,,,,,,1,17,37,1,,,,,,,,,,,,,v,0,5.454202489599993,715.5230549664302,None,,,,,001,29,2019_Oct_15_1306,ACPT_experiment_5_30_19,3.1.0,59.95330882960267,
,,,C,G,g,v,,,,,,,,,,1,18,38,4,,,,,,,,,,,,,b,0,11.792414443032612,722.9954537249505,None,,,,,001,29,2019_Oct_15_1306,ACPT_experiment_5_30_19,3.1.0,59.95330882960267,
,,,C,U,d,n,,,,,,,,,,1,19,39,15,,,,,,,,,,,,,v,0,1.7680273796795518,736.7727227723062,None,,,,,001,29,2019_Oct_15_1306,ACPT_experiment_5_30_19,3.1.0,59.95330882960267,
,,,C,G,y,b,,,,,,,,,,2,0,40,14,,,,,,,,,,,,,b,1,1.234292696679404,740.5422736265336,None,,,,,001,29,2019_Oct_15_1306,ACPT_experiment_5_30_19,3.1.0,59.95330882960267,
,,,C,D,d,v,,,,,,,,,,2,1,41,18,,,,,,,,,,,,,b,0,8.756745155640601,744.8622552011548,None,,,,,001,29,2019_Oct_15_1306,ACPT_experiment_5_30_19,3.1.0,59.95330882960267,
,,,C,G,d,b,,,,,,,,,,2,2,42,3,,,,,,,,,,,,,b,1,5.621000766113866,755.8707168691817,None,,,,,001,29,2019_Oct_15_1306,ACPT_experiment_5_30_19,3.1.0,59.95330882960267,
,,,C,U,d,n,,,,,,,,,,2,3,43,6,,,,,,,,,,,,,v,0,4.720310357755807,764.7775615472237,None,,,,,001,29,2019_Oct_15_1306,ACPT_experiment_5_30_19,3.1.0,59.95330882960267,
,,,C,U,g,n,,,,,,,,,,2,4,44,7,,,,,,,,,,,,,b,0,1.5845822685314488,771.4993860219474,None,,,,,001,29,2019_Oct_15_1306,ACPT_experiment_5_30_19,3.1.0,59.95330882960267,
,,,C,U,y,n,,,,,,,,,,2,5,45,8,,,,,,,,,,,,,b,0,0.8339844398524292,775.0521168961077,None,,,,,001,29,2019_Oct_15_1306,ACPT_experiment_5_30_19,3.1.0,59.95330882960267,
,,,C,G,d,b,,,,,,,,,,2,6,46,12,,,,,,,,,,,,,v,0,2.752154205689294,778.0877804482097,None,,,,,001,29,2019_Oct_15_1306,ACPT_experiment_5_30_19,3.1.0,59.95330882960267,
,,,C,G,g,v,,,,,,,,,,2,7,47,13,,,,,,,,,,,,,b,0,2.1683446922288567,782.7413591795757,None,,,,,001,29,2019_Oct_15_1306,ACPT_experiment_5_30_19,3.1.0,59.95330882960267,
,,,C,D,d,v,,,,,,,,,,2,8,48,9,,,,,,,,,,,,,v,1,16.529416612180285,786.8111311141984,None,,,,,001,29,2019_Oct_15_1306,ACPT_experiment_5_30_19,3.1.0,59.95330882960267,
,,,C,U,g,n,,,,,,,,,,2,9,49,16,,,,,,,,,,,,,b,0,4.753696999114254,806.626369300855,None,,,,,001,29,2019_Oct_15_1306,ACPT_experiment_5_30_19,3.1.0,59.95330882960267,
,,,C,D,g,b,,,,,,,,,,2,10,50,1,,,,,,,,,,,,,b,1,9.707474473425464,813.398241740726,None,,,,,001,29,2019_Oct_15_1306,ACPT_experiment_5_30_19,3.1.0,59.95330882960267,
,,,C,D,g,b,,,,,,,,,,2,11,51,10,,,,,,,,,,,,,b,1,3.752898284303228,825.040520438466,None,,,,,001,29,2019_Oct_15_1306,ACPT_experiment_5_30_19,3.1.0,59.95330882960267,
,,,C,U,y,n,,,,,,,,,,2,12,52,17,,,,,,,,,,,,,b,0,1.8514764753435884,830.6615046024199,None,,,,,001,29,2019_Oct_15_1306,ACPT_experiment_5_30_19,3.1.0,59.95330882960267,
,,,C,D,y,b,,,,,,,,,,2,13,53,2,,,,,,,,,,,,,b,1,0.8339820249930199,834.6478980760203,None,,,,,001,29,2019_Oct_15_1306,ACPT_experiment_5_30_19,3.1.0,59.95330882960267,
,,,C,U,d,n,,,,,,,,,,2,14,54,15,,,,,,,,,,,,,b,0,5.837854554214573,837.3833299827147,None,,,,,001,29,2019_Oct_15_1306,ACPT_experiment_5_30_19,3.1.0,59.95330882960267,
,,,C,G,g,v,,,,,,,,,,2,15,55,4,,,,,,,,,,,,,b,0,6.571719217030477,845.1893382741364,None,,,,,001,29,2019_Oct_15_1306,ACPT_experiment_5_30_19,3.1.0,59.95330882960267,
,,,C,G,g,v,,,,,,,,,,2,16,56,19,,,,,,,,,,,,,v,1,0.783966660448641,853.6291249575133,None,,,,,001,29,2019_Oct_15_1306,ACPT_experiment_5_30_19,3.1.0,59.95330882960267,
,,,C,D,d,v,,,,,,,,,,2,17,57,0,,,,,,,,,,,,,v,1,5.287409344660773,857.1318359392681,None,,,,,001,29,2019_Oct_15_1306,ACPT_experiment_5_30_19,3.1.0,59.95330882960267,
,,,C,D,y,b,,,,,,,,,,2,18,58,11,,,,,,,,,,,,,b,1,1.36775806246078,865.688401308611,None,,,,,001,29,2019_Oct_15_1306,ACPT_experiment_5_30_19,3.1.0,59.95330882960267,
,,,C,G,y,b,,,,,,,,,,2,19,59,5,,,,,,,,,,,,,v,0,3.8527104685981612,870.3589009611733,None,,,,,001,29,2019_Oct_15_1306,ACPT_experiment_5_30_19,3.1.0,59.95330882960267,
,,,C,D,d,v,,,,,,,,,,3,0,60,0,,,,,,,,,,,,,b,0,7.439068564504851,876.4133035218911,None,,,,,001,29,2019_Oct_15_1306,ACPT_experiment_5_30_19,3.1.0,59.95330882960267,
,,,C,D,g,b,,,,,,,,,,3,1,61,1,,,,,,,,,,,,,b,1,2.118343213127446,885.8038575570918,None,,,,,001,29,2019_Oct_15_1306,ACPT_experiment_5_30_19,3.1.0,59.95330882960267,
,,,C,U,g,n,,,,,,,,,,3,2,62,7,,,,,,,,,,,,,v,0,10.191204356890012,891.208007251822,None,,,,,001,29,2019_Oct_15_1306,ACPT_experiment_5_30_19,3.1.0,59.95330882960267,
,,,C,U,d,n,,,,,,,,,,3,3,63,6,,,,,,,,,,,,,b,0,3.6028008749035507,903.3840227455621,None,,,,,001,29,2019_Oct_15_1306,ACPT_experiment_5_30_19,3.1.0,59.95330882960267,
,,,C,G,g,v,,,,,,,,,,3,4,64,13,,,,,,,,,,,,,v,1,2.46859716580002,908.8715813889175,None,,,,,001,29,2019_Oct_15_1306,ACPT_experiment_5_30_19,3.1.0,59.95330882960267,
,,,C,D,d,v,,,,,,,,,,3,5,65,18,,,,,,,,,,,,,b,0,3.319252890736607,914.6259946957598,None,,,,,001,29,2019_Oct_15_1306,ACPT_experiment_5_30_19,3.1.0,59.95330882960267,
,,,C,G,y,b,,,,,,,,,,3,6,66,5,,,,,,,,,,,,,b,1,15.71207689396033,919.9801075940686,None,,,,,001,29,2019_Oct_15_1306,ACPT_experiment_5_30_19,3.1.0,59.95330882960267,
,,,C,G,d,b,,,,,,,,,,3,7,67,3,,,,,,,,,,,,,v,0,4.219919150500573,938.9780362482488,None,,,,,001,29,2019_Oct_15_1306,ACPT_experiment_5_30_19,3.1.0,59.95330882960267,
,,,C,U,d,n,,,,,,,,,,3,8,68,15,,,,,,,,,,,,,v,0,3.5694247985557013,945.3329116384757,None,,,,,001,29,2019_Oct_15_1306,ACPT_experiment_5_30_19,3.1.0,59.95330882960267,
,,,C,D,y,b,,,,,,,,,,3,9,69,2,,,,,,,,,,,,,b,1,1.8014076820309128,951.4376102911647,None,,,,,001,29,2019_Oct_15_1306,ACPT_experiment_5_30_19,3.1.0,59.95330882960267,
,,,C,D,d,v,,,,,,,,,,3,10,70,9,,,,,,,,,,,,,v,1,2.4517640851227043,956.5248425662467,None,,,,,001,29,2019_Oct_15_1306,ACPT_experiment_5_30_19,3.1.0,59.95330882960267,
,,,C,G,g,v,,,,,,,,,,3,11,71,19,,,,,,,,,,,,,v,1,3.6861419056021987,962.2626235276148,None,,,,,001,29,2019_Oct_15_1306,ACPT_experiment_5_30_19,3.1.0,59.95330882960267,
,,,C,U,y,n,,,,,,,,,,3,12,72,17,,,,,,,,,,,,,b,0,2.4352195801657217,967.8502089759113,None,,,,,001,29,2019_Oct_15_1306,ACPT_experiment_5_30_19,3.1.0,59.95330882960267,
,,,C,G,d,b,,,,,,,,,,3,13,73,12,,,,,,,,,,,,,v,0,2.168355559097108,973.387795963683,None,,,,,001,29,2019_Oct_15_1306,ACPT_experiment_5_30_19,3.1.0,59.95330882960267,
,,,C,U,y,n,,,,,,,,,,3,14,74,8,,,,,,,,,,,,,v,0,3.085733250987687,977.5910039839146,None,,,,,001,29,2019_Oct_15_1306,ACPT_experiment_5_30_19,3.1.0,59.95330882960267,
,,,C,D,g,b,,,,,,,,,,3,15,75,10,,,,,,,,,,,,,b,1,3.686193523226393,982.6115251589126,None,,,,,001,29,2019_Oct_15_1306,ACPT_experiment_5_30_19,3.1.0,59.95330882960267,
,,,C,G,g,v,,,,,,,,,,3,16,76,4,,,,,,,,,,,,,v,1,12.192722699861406,989.5835613866366,None,,,,,001,29,2019_Oct_15_1306,ACPT_experiment_5_30_19,3.1.0,59.95330882960267,
,,,C,G,y,b,,,,,,,,,,3,17,77,14,,,,,,,,,,,,,b,1,6.638458087998515,1005.0454247164489,None,,,,,001,29,2019_Oct_15_1306,ACPT_experiment_5_30_19,3.1.0,59.95330882960267,
,,,C,D,y,b,,,,,,,,,,3,18,78,11,,,,,,,,,,,,,b,1,1.13421940569242,1013.6353688788586,None,,,,,001,29,2019_Oct_15_1306,ACPT_experiment_5_30_19,3.1.0,59.95330882960267,
,,,C,U,g,n,,,,,,,,,,3,19,79,16,,,,,,,,,,,,,v,0,4.820403269477538,1018.0554107645985,None,,,,,001,29,2019_Oct_15_1306,ACPT_experiment_5_30_19,3.1.0,59.95330882960267,
,,,C,D,g,b,,,,,,,,,,4,0,80,10,,,,,,,,,,,,,b,1,5.971270113517676,1025.1275272260318,None,,,,,001,29,2019_Oct_15_1306,ACPT_experiment_5_30_19,3.1.0,59.95330882960267,
,,,C,D,d,v,,,,,,,,,,4,1,81,9,,,,,,,,,,,,,v,1,11.592266049912723,1034.3679551753758,None,,,,,001,29,2019_Oct_15_1306,ACPT_experiment_5_30_19,3.1.0,59.95330882960267,
,,,C,G,d,b,,,,,,,,,,4,2,82,3,,,,,,,,,,,,,b,1,2.618700612347311,1049.2460823430902,None,,,,,001,29,2019_Oct_15_1306,ACPT_experiment_5_30_19,3.1.0,59.95330882960267,
,,,C,G,d,b,,,,,,,,,,4,3,83,12,,,,,,,,,,,,,v,0,3.9196944478153455,1055.133909096232,None,,,,,001,29,2019_Oct_15_1306,ACPT_experiment_5_30_19,3.1.0,59.95330882960267,
,,,C,G,y,b,,,,,,,,,,4,4,84,14,,,,,,,,,,,,,v,0,3.219177486747867,1061.1551737461286,None,,,,,001,29,2019_Oct_15_1306,ACPT_experiment_5_30_19,3.1.0,59.95330882960267,
,,,C,U,d,n,,,,,,,,,,4,5,85,6,,,,,,,,,,,,,b,0,5.737755303483937,1066.726147073401,None,,,,,001,29,2019_Oct_15_1306,ACPT_experiment_5_30_19,3.1.0,59.95330882960267,
,,,C,G,g,v,,,,,,,,,,4,6,86,19,,,,,,,,,,,,,v,1,5.604327971741441,1074.598858012896,None,,,,,001,29,2019_Oct_15_1306,ACPT_experiment_5_30_19,3.1.0,59.95330882960267,
,,,C,D,y,b,,,,,,,,,,4,7,87,2,,,,,,,,,,,,,b,1,1.417956654477166,1082.1046186604653,None,,,,,001,29,2019_Oct_15_1306,ACPT_experiment_5_30_19,3.1.0,59.95330882960267,
,,,C,U,g,n,,,,,,,,,,4,8,88,16,,,,,,,,,,,,,v,0,9.457306489754046,1086.808233886395,None,,,,,001,29,2019_Oct_15_1306,ACPT_experiment_5_30_19,3.1.0,59.95330882960267,
,,,C,U,g,n,,,,,,,,,,4,9,89,7,,,,,,,,,,,,,b,0,3.352588216330332,1098.4505101692757,None,,,,,001,29,2019_Oct_15_1306,ACPT_experiment_5_30_19,3.1.0,59.95330882960267,
,,,C,D,d,v,,,,,,,,,,4,10,90,0,,,,,,,,,,,,,v,1,8.256322253353574,1103.6879095828263,None,,,,,001,29,2019_Oct_15_1306,ACPT_experiment_5_30_19,3.1.0,59.95330882960267,
,,,C,G,g,v,,,,,,,,,,4,11,91,4,,,,,,,,,,,,,v,1,10.808336819785836,1115.2300657868127,None,,,,,001,29,2019_Oct_15_1306,ACPT_experiment_5_30_19,3.1.0,59.95330882960267,
,,,C,D,y,b,,,,,,,,,,4,12,92,11,,,,,,,,,,,,,b,1,1.2843593769903237,1127.8731057690384,None,,,,,001,29,2019_Oct_15_1306,ACPT_experiment_5_30_19,3.1.0,59.95330882960267,
,,,C,U,d,n,,,,,,,,,,4,13,93,15,,,,,,,,,,,,,b,0,8.673404124941953,1132.4432625719091,None,,,,,001,29,2019_Oct_15_1306,ACPT_experiment_5_30_19,3.1.0,59.95330882960267,
,,,C,G,g,v,,,,,,,,,,4,14,94,13,,,,,,,,,,,,,v,1,4.7369970375712,1143.852054532359,None,,,,,001,29,2019_Oct_15_1306,ACPT_experiment_5_30_19,3.1.0,59.95330882960267,
,,,C,G,y,b,,,,,,,,,,4,15,95,5,,,,,,,,,,,,,b,1,2.1850712172290514,1151.8581964258865,None,,,,,001,29,2019_Oct_15_1306,ACPT_experiment_5_30_19,3.1.0,59.95330882960267,
,,,C,D,g,b,,,,,,,,,,4,16,96,1,,,,,,,,,,,,,b,1,12.593049369992514,1157.3290726154319,None,,,,,001,29,2019_Oct_15_1306,ACPT_experiment_5_30_19,3.1.0,59.95330882960267,
,,,C,D,d,v,,,,,,,,,,4,17,97,18,,,,,,,,,,,,,v,1,5.988025314973129,1171.7734674546355,None,,,,,001,29,2019_Oct_15_1306,ACPT_experiment_5_30_19,3.1.0,59.95330882960267,
,,,C,U,y,n,,,,,,,,,,4,18,98,8,,,,,,,,,,,,,v,0,1.7847729216955486,1179.612840955535,None,,,,,001,29,2019_Oct_15_1306,ACPT_experiment_5_30_19,3.1.0,59.95330882960267,
,,,C,U,y,n,,,,,,,,,,4,19,99,17,,,,,,,,,,,,,b,0,1.05084426510075,1183.4824810991959,None,,,,,001,29,2019_Oct_15_1306,ACPT_experiment_5_30_19,3.1.0,59.95330882960267,
,,,C,D,d,v,,,,,,,,,,5,0,100,18,,,,,,,,,,,,,v,1,6.8219354978919,1186.8684103764099,None,,,,,001,29,2019_Oct_15_1306,ACPT_experiment_5_30_19,3.1.0,59.95330882960267,
,,,C,D,y,b,,,,,,,,,,5,1,101,2,,,,,,,,,,,,,b,1,1.5345303792346385,1196.9594937488328,None,,,,,001,29,2019_Oct_15_1306,ACPT_experiment_5_30_19,3.1.0,59.95330882960267,
,,,C,U,d,n,,,,,,,,,,5,2,102,6,,,,,,,,,,,,,b,0,1.5178699610187323,1200.3287429870961,None,,,,,001,29,2019_Oct_15_1306,ACPT_experiment_5_30_19,3.1.0,59.95330882960267,
,,,C,D,d,v,,,,,,,,,,5,3,103,9,,,,,,,,,,,,,v,1,0.8506545175077918,1204.2651180775774,None,,,,,001,29,2019_Oct_15_1306,ACPT_experiment_5_30_19,3.1.0,59.95330882960267,
,,,C,G,g,v,,,,,,,,,,5,4,104,19,,,,,,,,,,,,,v,1,6.521439123502205,1208.418557350802,None,,,,,001,29,2019_Oct_15_1306,ACPT_experiment_5_30_19,3.1.0,59.95330882960267,
,,,C,G,y,b,,,,,,,,,,5,5,105,14,,,,,,,,,,,,,b,1,1.6012529499002994,1216.8747801723111,None,,,,,001,29,2019_Oct_15_1306,ACPT_experiment_5_30_19,3.1.0,59.95330882960267,
,,,C,U,g,n,,,,,,,,,,5,6,106,16,,,,,,,,,,,,,b,0,2.7854940591441846,1221.7618740155667,None,,,,,001,29,2019_Oct_15_1306,ACPT_experiment_5_30_19,3.1.0,59.95330882960267,
,,,C,D,g,b,,,,,,,,,,5,7,107,10,,,,,,,,,,,,,b,1,1.8347641376458341,1226.915822522309,None,,,,,001,29,2019_Oct_15_1306,ACPT_experiment_5_30_19,3.1.0,59.95330882960267,
,,,C,G,y,b,,,,,,,,,,5,8,108,5,,,,,,,,,,,,,b,1,1.5345071362135059,1232.036443853609,None,,,,,001,29,2019_Oct_15_1306,ACPT_experiment_5_30_19,3.1.0,59.95330882960267,
,,,C,G,g,v,,,,,,,,,,5,9,109,13,,,,,,,,,,,,,v,1,2.4517692166973575,1235.4056755841393,None,,,,,001,29,2019_Oct_15_1306,ACPT_experiment_5_30_19,3.1.0,59.95330882960267,
,,,C,G,d,b,,,,,,,,,,5,10,110,3,,,,,,,,,,,,,v,0,1.2676090052536892,1241.143461677084,None,,,,,001,29,2019_Oct_15_1306,ACPT_experiment_5_30_19,3.1.0,59.95330882960267,
,,,C,G,d,b,,,,,,,,,,5,11,111,12,,,,,,,,,,,,,b,1,2.768534802051363,1245.3469205408546,None,,,,,001,29,2019_Oct_15_1306,ACPT_experiment_5_30_19,3.1.0,59.95330882960267,
,,,C,U,g,n,,,,,,,,,,5,12,112,7,,,,,,,,,,,,,v,0,5.6377137075287465,1249.933509255854,None,,,,,001,29,2019_Oct_15_1306,ACPT_experiment_5_30_19,3.1.0,59.95330882960267,
,,,C,U,y,n,,,,,,,,,,5,13,113,17,,,,,,,,,,,,,b,0,1.1510340730656026,1257.4726227367482,None,,,,,001,29,2019_Oct_15_1306,ACPT_experiment_5_30_19,3.1.0,59.95330882960267,
,,,C,D,g,b,,,,,,,,,,5,14,114,1,,,,,,,,,,,,,b,1,3.6196378797285433,1261.1254311279026,None,,,,,001,29,2019_Oct_15_1306,ACPT_experiment_5_30_19,3.1.0,59.95330882960267,
,,,C,U,y,n,,,,,,,,,,5,15,115,8,,,,,,,,,,,,,b,0,0.7838682549208897,1268.0308018360174,None,,,,,001,29,2019_Oct_15_1306,ACPT_experiment_5_30_19,3.1.0,59.95330882960267,
,,,C,D,y,b,,,,,,,,,,5,16,116,11,,,,,,,,,,,,,b,1,0.9841044885597512,1270.7661667303582,None,,,,,001,29,2019_Oct_15_1306,ACPT_experiment_5_30_19,3.1.0,59.95330882960267,
,,,C,G,g,v,,,,,,,,,,5,17,117,4,,,,,,,,,,,,,b,0,9.857701379671198,1275.0361121122714,None,,,,,001,29,2019_Oct_15_1306,ACPT_experiment_5_30_19,3.1.0,59.95330882960267,
,,,C,U,d,n,,,,,,,,,,5,18,118,15,,,,,,,,,,,,,b,0,6.8719517680092395,1286.9285877719958,None,,,,,001,29,2019_Oct_15_1306,ACPT_experiment_5_30_19,3.1.0,59.95330882960267,
,,,C,D,d,v,,,,,,,,,,5,19,119,0,,,,,,,,,,,,,v,1,3.569427515272764,1296.302433091787,None,,,,,001,29,2019_Oct_15_1306,ACPT_experiment_5_30_19,3.1.0,59.95330882960267,
,,,C,G,g,v,,,,,,,,,,6,0,120,19,,,,,,,,,,,,,v,1,6.204796997846643,1303.157686105682,None,,,,,001,29,2019_Oct_15_1306,ACPT_experiment_5_30_19,3.1.0,59.95330882960267,
,,,C,U,g,n,,,,,,,,,,6,1,121,16,,,,,,,,,,,,,b,0,20.365666190335105,1312.6483357693232,None,,,,,001,29,2019_Oct_15_1306,ACPT_experiment_5_30_19,3.1.0,59.95330882960267,
,,,C,D,y,b,,,,,,,,,,6,2,122,2,,,,,,,,,,,,,b,1,1.301012550628002,1336.2998132709818,None,,,,,001,29,2019_Oct_15_1306,ACPT_experiment_5_30_19,3.1.0,59.95330882960267,
,,,C,U,d,n,,,,,,,,,,6,3,123,15,,,,,,,,,,,,,b,0,3.7358050025013654,1340.903736150025,None,,,,,001,29,2019_Oct_15_1306,ACPT_experiment_5_30_19,3.1.0,59.95330882960267,
,,,C,D,d,v,,,,,,,,,,6,4,124,9,,,,,,,,,,,,,v,1,8.706722848375648,1346.6244108497212,None,,,,,001,29,2019_Oct_15_1306,ACPT_experiment_5_30_19,3.1.0,59.95330882960267,
,,,C,D,y,b,,,,,,,,,,6,5,125,11,,,,,,,,,,,,,b,1,1.334393456696489,1357.1324822160677,None,,,,,001,29,2019_Oct_15_1306,ACPT_experiment_5_30_19,3.1.0,59.95330882960267,
,,,C,G,d,b,,,,,,,,,,6,6,126,12,,,,,,,,,,,,,v,0,11.575563975366094,1361.7526936249506,None,,,,,001,29,2019_Oct_15_1306,ACPT_experiment_5_30_19,3.1.0,59.95330882960267,
,,,C,G,y,b,,,,,,,,,,6,7,127,14,,,,,,,,,,,,,b,1,1.9014882175979437,1375.3297662838504,None,,,,,001,29,2019_Oct_15_1306,ACPT_experiment_5_30_19,3.1.0,59.95330882960267,
,,,C,D,g,b,,,,,,,,,,6,8,128,1,,,,,,,,,,,,,b,1,4.136544311768375,1379.0492839639428,None,,,,,001,29,2019_Oct_15_1306,ACPT_experiment_5_30_19,3.1.0,59.95330882960267,
,,,C,D,d,v,,,,,,,,,,6,9,129,18,,,,,,,,,,,,,v,1,3.8362842917613307,1385.0372341164111,None,,,,,001,29,2019_Oct_15_1306,ACPT_experiment_5_30_19,3.1.0,59.95330882960267,
,,,C,G,g,v,,,,,,,,,,6,10,130,4,,,,,,,,,,,,,v,1,2.251742773985825,1390.8250147457366,None,,,,,001,29,2019_Oct_15_1306,ACPT_experiment_5_30_19,3.1.0,59.95330882960267,
,,,C,U,d,n,,,,,,,,,,6,11,131,6,,,,,,,,,,,,,b,0,3.219147301002522,1394.9782037791338,None,,,,,001,29,2019_Oct_15_1306,ACPT_experiment_5_30_19,3.1.0,59.95330882960267,
,,,C,G,g,v,,,,,,,,,,6,12,132,13,,,,,,,,,,,,,v,1,5.254034475743538,1400.7326514977249,None,,,,,001,29,2019_Oct_15_1306,ACPT_experiment_5_30_19,3.1.0,59.95330882960267,
,,,C,D,d,v,,,,,,,,,,6,13,133,0,,,,,,,,,,,,,v,1,3.569421176265678,1407.9381521252872,None,,,,,001,29,2019_Oct_15_1306,ACPT_experiment_5_30_19,3.1.0,59.95330882960267,
,,,C,U,g,n,,,,,,,,,,6,14,134,7,,,,,,,,,,,,,v,0,4.553498195797147,1413.4257098630715,None,,,,,001,29,2019_Oct_15_1306,ACPT_experiment_5_30_19,3.1.0,59.95330882960267,
,,,C,G,y,b,,,,,,,,,,6,15,135,5,,,,,,,,,,,,,b,1,1.7513506611594494,1420.1141812026108,None,,,,,001,29,2019_Oct_15_1306,ACPT_experiment_5_30_19,3.1.0,59.95330882960267,
,,,C,G,d,b,,,,,,,,,,6,16,136,3,,,,,,,,,,,,,b,1,4.703621564938658,1423.7169371007549,None,,,,,001,29,2019_Oct_15_1306,ACPT_experiment_5_30_19,3.1.0,59.95330882960267,
,,,C,U,y,n,,,,,,,,,,6,17,137,17,,,,,,,,,,,,,v,0,2.018216493370346,1430.4220987424014,None,,,,,001,29,2019_Oct_15_1306,ACPT_experiment_5_30_19,3.1.0,59.95330882960267,
,,,C,D,g,b,,,,,,,,,,6,18,138,10,,,,,,,,,,,,,b,1,4.103167631705219,1434.6753468794868,None,,,,,001,29,2019_Oct_15_1306,ACPT_experiment_5_30_19,3.1.0,59.95330882960267,
,,,C,U,y,n,,,,,,,,,,6,19,139,8,,,,,,,,,,,,,b,0,2.9189527840608207,1442.0643575175473,None,,,,,001,29,2019_Oct_15_1306,ACPT_experiment_5_30_19,3.1.0,59.95330882960267,
,,,C,U,g,n,,,,,,,,,,7,0,140,7,,,,,,,,,,,,,v,0,13.110097071317796,1447.3183922951484,None,,,,,001,29,2019_Oct_15_1306,ACPT_experiment_5_30_19,3.1.0,59.95330882960267,
,,,C,U,d,n,,,,,,,,,,7,1,141,15,,,,,,,,,,,,,v,0,4.420081127207595,1462.3966310293763,None,,,,,001,29,2019_Oct_15_1306,ACPT_experiment_5_30_19,3.1.0,59.95330882960267,
,,,C,D,d,v,,,,,,,,,,7,2,142,18,,,,,,,,,,,,,v,1,2.7187642438984767,1468.784875251371,None,,,,,001,29,2019_Oct_15_1306,ACPT_experiment_5_30_19,3.1.0,59.95330882960267,
,,,C,D,d,v,,,,,,,,,,7,3,143,9,,,,,,,,,,,,,v,1,1.5845587236490246,1474.7894834071976,None,,,,,001,29,2019_Oct_15_1306,ACPT_experiment_5_30_19,3.1.0,59.95330882960267,
,,,C,U,y,n,,,,,,,,,,7,4,144,17,,,,,,,,,,,,,b,0,4.2532931138466665,1478.208770649313,None,,,,,001,29,2019_Oct_15_1306,ACPT_experiment_5_30_19,3.1.0,59.95330882960267,
,,,C,G,g,v,,,,,,,,,,7,5,145,13,,,,,,,,,,,,,v,1,3.8363141756472032,1484.3968438388783,None,,,,,001,29,2019_Oct_15_1306,ACPT_experiment_5_30_19,3.1.0,59.95330882960267,
,,,C,D,d,v,,,,,,,,,,7,6,146,0,,,,,,,,,,,,,v,1,3.3692320323880267,1490.0512270203471,None,,,,,001,29,2019_Oct_15_1306,ACPT_experiment_5_30_19,3.1.0,59.95330882960267,
,,,C,D,y,b,,,,,,,,,,7,7,147,11,,,,,,,,,,,,,b,1,2.7855248486030177,1496.6896316795774,None,,,,,001,29,2019_Oct_15_1306,ACPT_experiment_5_30_19,3.1.0,59.95330882960267,
,,,C,G,g,v,,,,,,,,,,7,8,148,4,,,,,,,,,,,,,b,0,13.043386273091528,1502.7609542559185,None,,,,,001,29,2019_Oct_15_1306,ACPT_experiment_5_30_19,3.1.0,59.95330882960267,
,,,C,U,d,n,,,,,,,,,,7,9,149,6,,,,,,,,,,,,,b,0,1.5345180030799384,1517.9226031461985,None,,,,,001,29,2019_Oct_15_1306,ACPT_experiment_5_30_19,3.1.0,59.95330882960267,
,,,C,G,d,b,,,,,,,,,,7,10,150,12,,,,,,,,,,,,,b,1,6.555090795702199,1521.47531047548,None,,,,,001,29,2019_Oct_15_1306,ACPT_experiment_5_30_19,3.1.0,59.95330882960267,
,,,C,D,g,b,,,,,,,,,,7,11,151,1,,,,,,,,,,,,,b,1,3.3025740592165675,1529.9818610839939,None,,,,,001,29,2019_Oct_15_1306,ACPT_experiment_5_30_19,3.1.0,59.95330882960267,
,,,C,U,y,n,,,,,,,,,,7,12,152,8,,,,,,,,,,,,,b,0,3.9030122958611173,1536.570250982395,None,,,,,001,29,2019_Oct_15_1306,ACPT_experiment_5_30_19,3.1.0,59.95330882960267,
,,,C,G,g,v,,,,,,,,,,7,13,153,19,,,,,,,,,,,,,v,1,12.593010430382492,1542.458108826855,None,,,,,001,29,2019_Oct_15_1306,ACPT_experiment_5_30_19,3.1.0,59.95330882960267,
,,,C,G,d,b,,,,,,,,,,7,14,154,3,,,,,,,,,,,,,b,1,1.0174884132029547,1557.0026032186452,None,,,,,001,29,2019_Oct_15_1306,ACPT_experiment_5_30_19,3.1.0,59.95330882960267,
,,,C,G,y,b,,,,,,,,,,7,15,155,5,,,,,,,,,,,,,b,1,1.2176002815740503,1559.8881690594899,None,,,,,001,29,2019_Oct_15_1306,ACPT_experiment_5_30_19,3.1.0,59.95330882960267,
,,,C,U,g,n,,,,,,,,,,7,16,156,16,,,,,,,,,,,,,v,0,6.771879382593397,1562.9238208391507,None,,,,,001,29,2019_Oct_15_1306,ACPT_experiment_5_30_19,3.1.0,59.95330882960267,
,,,C,G,y,b,,,,,,,,,,7,17,157,14,,,,,,,,,,,,,b,1,4.136543406195415,1571.7806166464725,None,,,,,001,29,2019_Oct_15_1306,ACPT_experiment_5_30_19,3.1.0,59.95330882960267,
,,,C,D,g,b,,,,,,,,,,7,18,158,10,,,,,,,,,,,,,b,1,11.558912009157211,1579.2029831364307,None,,,,,001,29,2019_Oct_15_1306,ACPT_experiment_5_30_19,3.1.0,59.95330882960267,
,,,C,D,y,b,,,,,,,,,,7,19,159,2,,,,,,,,,,,,,b,1,1.1175855509300163,1594.0310140418042,None,,,,,001,29,2019_Oct_15_1306,ACPT_experiment_5_30_19,3.1.0,59.95330882960267,
,,,C,G,g,v,,,,,,,,,,8,0,160,4,,,,,,,,,,,,,v,1,5.537619286516929,1597.150100126115,None,,,,,001,29,2019_Oct_15_1306,ACPT_experiment_5_30_19,3.1.0,59.95330882960267,
,,,C,G,d,b,,,,,,,,,,8,1,161,12,,,,,,,,,,,,,b,1,2.401856785543714,1604.5391062363142,None,,,,,001,29,2019_Oct_15_1306,ACPT_experiment_5_30_19,3.1.0,59.95330882960267,
,,,C,G,g,v,,,,,,,,,,8,2,162,19,,,,,,,,,,,,,v,1,2.5019967870284745,1608.8424068664117,None,,,,,001,29,2019_Oct_15_1306,ACPT_experiment_5_30_19,3.1.0,59.95330882960267,
,,,C,D,d,v,,,,,,,,,,8,3,163,0,,,,,,,,,,,,,v,1,3.5193665702536236,1613.2791662214258,None,,,,,001,29,2019_Oct_15_1306,ACPT_experiment_5_30_19,3.1.0,59.95330882960267,
,,,C,U,d,n,,,,,,,,,,8,4,164,6,,,,,,,,,,,,,b,0,3.7362070766266697,1618.7333421475705,None,,,,,001,29,2019_Oct_15_1306,ACPT_experiment_5_30_19,3.1.0,59.95330882960267,
,,,C,U,d,n,,,,,,,,,,8,5,165,15,,,,,,,,,,,,,b,0,8.18963409443677,1625.7553970602694,None,,,,,001,29,2019_Oct_15_1306,ACPT_experiment_5_30_19,3.1.0,59.95330882960267,
,,,C,U,g,n,,,,,,,,,,8,6,166,16,,,,,,,,,,,,,b,0,3.352607535207426,1635.9965929349655,None,,,,,001,29,2019_Oct_15_1306,ACPT_experiment_5_30_19,3.1.0,59.95330882960267,
,,,C,D,y,b,,,,,,,,,,8,7,167,2,,,,,,,,,,,,,b,1,1.2009932921246218,1641.3673813443638,None,,,,,001,29,2019_Oct_15_1306,ACPT_experiment_5_30_19,3.1.0,59.95330882960267,
,,,C,U,y,n,,,,,,,,,,8,8,168,8,,,,,,,,,,,,,b,0,2.5186140396326664,1644.4364016539366,None,,,,,001,29,2019_Oct_15_1306,ACPT_experiment_5_30_19,3.1.0,59.95330882960267,
,,,C,U,y,n,,,,,,,,,,8,9,169,17,,,,,,,,,,,,,v,0,0.9008564299565478,1648.956393974684,None,,,,,001,29,2019_Oct_15_1306,ACPT_experiment_5_30_19,3.1.0,59.95330882960267,
,,,C,G,d,b,,,,,,,,,,8,10,170,3,,,,,,,,,,,,,b,1,6.404936033388367,1652.6260288056528,None,,,,,001,29,2019_Oct_15_1306,ACPT_experiment_5_30_19,3.1.0,59.95330882960267,
,,,C,G,y,b,,,,,,,,,,8,11,171,14,,,,,,,,,,,,,b,1,3.702856960017016,1662.3001223730098,None,,,,,001,29,2019_Oct_15_1306,ACPT_experiment_5_30_19,3.1.0,59.95330882960267,
,,,C,G,g,v,,,,,,,,,,8,12,172,13,,,,,,,,,,,,,v,1,2.101607632404921,1667.8877509869217,None,,,,,001,29,2019_Oct_15_1306,ACPT_experiment_5_30_19,3.1.0,59.95330882960267,
,,,C,G,y,b,,,,,,,,,,8,13,173,5,,,,,,,,,,,,,b,1,4.903784447216822,1671.9074960864182,None,,,,,001,29,2019_Oct_15_1306,ACPT_experiment_5_30_19,3.1.0,59.95330882960267,
,,,C,D,d,v,,,,,,,,,,8,14,174,18,,,,,,,,,,,,,v,1,1.6512846147488744,1678.6293275038624,None,,,,,001,29,2019_Oct_15_1306,ACPT_experiment_5_30_19,3.1.0,59.95330882960267,
,,,C,D,y,b,,,,,,,,,,8,15,175,11,,,,,,,,,,,,,b,1,1.2676536801554903,1682.1153367129282,None,,,,,001,29,2019_Oct_15_1306,ACPT_experiment_5_30_19,3.1.0,59.95330882960267,
,,,C,D,d,v,,,,,,,,,,8,16,176,9,,,,,,,,,,,,,v,1,3.0023424138089467,1685.2343741981913,None,,,,,001,29,2019_Oct_15_1306,ACPT_experiment_5_30_19,3.1.0,59.95330882960267,
,,,C,U,g,n,,,,,,,,,,8,17,177,7,,,,,,,,,,,,,v,0,3.786305753825218,1690.0714233967283,None,,,,,001,29,2019_Oct_15_1306,ACPT_experiment_5_30_19,3.1.0,59.95330882960267,
,,,C,D,g,b,,,,,,,,,,8,18,178,1,,,,,,,,,,,,,b,1,1.8347608172116452,1695.809175077924,None,,,,,001,29,2019_Oct_15_1306,ACPT_experiment_5_30_19,3.1.0,59.95330882960267,
,,,C,D,g,b,,,,,,,,,,8,19,179,10,,,,,,,,,,,,,b,1,0.8675189913628856,1699.545231225824,None,,,,,001,29,2019_Oct_15_1306,ACPT_experiment_5_30_19,3.1.0,59.95330882960267,
,,,C,U,g,n,,,,,,,,,,9,0,180,7,,,,,,,,,,,,,b,0,10.574818689321546,1703.698575715809,None,,,,,001,29,2019_Oct_15_1306,ACPT_experiment_5_30_19,3.1.0,59.95330882960267,
,,,C,D,d,v,,,,,,,,,,9,1,181,0,,,,,,,,,,,,,v,1,11.425453284238756,1716.0914214527675,None,,,,,001,29,2019_Oct_15_1306,ACPT_experiment_5_30_19,3.1.0,59.95330882960267,
,,,C,D,y,b,,,,,,,,,,9,2,182,2,,,,,,,,,,,,,b,1,1.1008602333604358,1730.786037704409,None,,,,,001,29,2019_Oct_15_1306,ACPT_experiment_5_30_19,3.1.0,59.95330882960267,
,,,C,U,y,n,,,,,,,,,,9,3,183,8,,,,,,,,,,,,,b,0,1.8514417617370782,1733.7049500395733,None,,,,,001,29,2019_Oct_15_1306,ACPT_experiment_5_30_19,3.1.0,59.95330882960267,
,,,C,U,d,n,,,,,,,,,,9,4,184,15,,,,,,,,,,,,,b,0,2.9523391235634335,1737.5245579146722,None,,,,,001,29,2019_Oct_15_1306,ACPT_experiment_5_30_19,3.1.0,59.95330882960267,
,,,C,D,d,v,,,,,,,,,,9,5,185,18,,,,,,,,,,,,,v,1,5.037218721681711,1742.3615956426274,None,,,,,001,29,2019_Oct_15_1306,ACPT_experiment_5_30_19,3.1.0,59.95330882960267,
,,,C,D,g,b,,,,,,,,,,9,6,186,10,,,,,,,,,,,,,b,1,1.417771314003403,1749.3002570014323,None,,,,,001,29,2019_Oct_15_1306,ACPT_experiment_5_30_19,3.1.0,59.95330882960267,
,,,C,U,d,n,,,,,,,,,,9,7,187,6,,,,,,,,,,,,,b,0,6.054663063696353,1752.5861132895152,None,,,,,001,29,2019_Oct_15_1306,ACPT_experiment_5_30_19,3.1.0,59.95330882960267,
,,,C,G,d,b,,,,,,,,,,9,8,188,3,,,,,,,,,,,,,v,0,1.9348718403834937,1761.926614529848,None,,,,,001,29,2019_Oct_15_1306,ACPT_experiment_5_30_19,3.1.0,59.95330882960267,
,,,C,D,d,v,,,,,,,,,,9,9,189,9,,,,,,,,,,,,,v,1,1.7680639044301643,1766.013064692277,None,,,,,001,29,2019_Oct_15_1306,ACPT_experiment_5_30_19,3.1.0,59.95330882960267,
,,,C,G,y,b,,,,,,,,,,9,10,190,5,,,,,,,,,,,,,b,1,1.0174675850375934,1771.0669743197795,None,,,,,001,29,2019_Oct_15_1306,ACPT_experiment_5_30_19,3.1.0,59.95330882960267,
,,,C,G,g,v,,,,,,,,,,9,11,191,13,,,,,,,,,,,,,v,1,3.1524199006162235,1773.9858887679438,None,,,,,001,29,2019_Oct_15_1306,ACPT_experiment_5_30_19,3.1.0,59.95330882960267,
,,,C,U,y,n,,,,,,,,,,9,12,192,17,,,,,,,,,,,,,v,0,3.1858192199870246,1780.4241549953476,None,,,,,001,29,2019_Oct_15_1306,ACPT_experiment_5_30_19,3.1.0,59.95330882960267,
,,,C,D,g,b,,,,,,,,,,9,13,193,1,,,,,,,,,,,,,v,0,8.373107278324824,1785.8950191105941,None,,,,,001,29,2019_Oct_15_1306,ACPT_experiment_5_30_19,3.1.0,59.95330882960267,
,,,C,D,y,b,,,,,,,,,,9,14,194,11,,,,,,,,,,,,,b,1,0.8673399898943899,1796.3530551898039,None,,,,,001,29,2019_Oct_15_1306,ACPT_experiment_5_30_19,3.1.0,59.95330882960267,
,,,C,G,g,v,,,,,,,,,,9,15,195,19,,,,,,,,,,,,,v,1,1.7847071167725517,1799.055131848314,None,,,,,001,29,2019_Oct_15_1306,ACPT_experiment_5_30_19,3.1.0,59.95330882960267,
,,,C,G,y,b,,,,,,,,,,9,16,196,14,,,,,,,,,,,,,b,1,6.538377854289138,1804.1090061584946,None,,,,,001,29,2019_Oct_15_1306,ACPT_experiment_5_30_19,3.1.0,59.95330882960267,
,,,C,U,g,n,,,,,,,,,,9,17,197,16,,,,,,,,,,,,,n,1,4.103164311272849,1812.5154759295838,None,,,,,001,29,2019_Oct_15_1306,ACPT_experiment_5_30_19,3.1.0,59.95330882960267,
,,,C,G,d,b,,,,,,,,,,9,18,198,12,,,,,,,,,,,,,b,1,17.313341314444187,1818.8703470938071,None,,,,,001,29,2019_Oct_15_1306,ACPT_experiment_5_30_19,3.1.0,59.95330882960267,
,,,C,G,g,v,,,,,,,,,,9,19,199,4,,,,,,,,,,,,,v,1,3.586104535648701,1838.001697344438,None,,,,,001,29,2019_Oct_15_1306,ACPT_experiment_5_30_19,3.1.0,59.95330882960267,
,,,C,G,g,v,,,,,,,,,,10,0,200,19,,,,,,,,,,,,,v,1,1.3510490451953956,1844.8569627344896,None,,,,,001,29,2019_Oct_15_1306,ACPT_experiment_5_30_19,3.1.0,59.95330882960267,
,,,C,D,d,v,,,,,,,,,,10,1,201,9,,,,,,,,,,,,,v,1,1.2176355988940486,1848.0260641833447,None,,,,,001,29,2019_Oct_15_1306,ACPT_experiment_5_30_19,3.1.0,59.95330882960267,
,,,C,G,y,b,,,,,,,,,,10,2,202,14,,,,,,,,,,,,,b,1,4.853733765350626,1851.078409887401,None,,,,,001,29,2019_Oct_15_1306,ACPT_experiment_5_30_19,3.1.0,59.95330882960267,
,,,C,U,y,n,,,,,,,,,,10,3,203,8,,,,,,,,,,,,,n,1,1.3677342157225212,1859.2179899795392,None,,,,,001,29,2019_Oct_15_1306,ACPT_experiment_5_30_19,3.1.0,59.95330882960267,
,,,C,U,d,n,,,,,,,,,,10,4,204,15,,,,,,,,,,,,,n,1,0.7839720938827668,1862.5038492861968,None,,,,,001,29,2019_Oct_15_1306,ACPT_experiment_5_30_19,3.1.0,59.95330882960267,
,,,C,U,d,n,,,,,,,,,,10,5,205,6,,,,,,,,,,,,,n,1,0.583788685296895,1865.1392030721836,None,,,,,001,29,2019_Oct_15_1306,ACPT_experiment_5_30_19,3.1.0,59.95330882960267,
,,,C,D,g,b,,,,,,,,,,10,6,206,1,,,,,,,,,,,,,b,1,3.3521647103279975,1869.0259201973422,None,,,,,001,29,2019_Oct_15_1306,ACPT_experiment_5_30_19,3.1.0,59.95330882960267,
,,,C,G,y,b,,,,,,,,,,10,7,207,5,,,,,,,,,,,,,b,1,1.701323826031512,1874.4797040106587,None,,,,,001,29,2019_Oct_15_1306,ACPT_experiment_5_30_19,3.1.0,59.95330882960267,
,,,C,U,g,n,,,,,,,,,,10,8,208,7,,,,,,,,,,,,,n,1,2.8355377982879872,1877.9990820514959,None,,,,,001,29,2019_Oct_15_1306,ACPT_experiment_5_30_19,3.1.0,59.95330882960267,
,,,C,D,y,b,,,,,,,,,,10,9,209,11,,,,,,,,,,,,,b,1,5.354115615025876,1882.7026996922868,None,,,,,001,29,2019_Oct_15_1306,ACPT_experiment_5_30_19,3.1.0,59.95330882960267,
,,,C,D,y,b,,,,,,,,,,10,10,210,2,,,,,,,,,,,,,b,1,1.7013401263320702,1889.85816533457,None,,,,,001,29,2019_Oct_15_1306,ACPT_experiment_5_30_19,3.1.0,59.95330882960267,
,,,C,U,y,n,,,,,,,,,,10,11,211,17,,,,,,,,,,,,,n,1,0.9841017718426883,1893.3942379035143,None,,,,,001,29,2019_Oct_15_1306,ACPT_experiment_5_30_19,3.1.0,59.95330882960267,
,,,C,D,d,v,,,,,,,,,,10,12,212,0,,,,,,,,,,,,,v,1,2.051583212138212,1896.2797865384855,None,,,,,001,29,2019_Oct_15_1306,ACPT_experiment_5_30_19,3.1.0,59.95330882960267,
,,,C,G,g,v,,,,,,,,,,10,13,213,13,,,,,,,,,,,,,v,1,2.2850995314565807,1900.3328944326004,None,,,,,001,29,2019_Oct_15_1306,ACPT_experiment_5_30_19,3.1.0,59.95330882960267,
,,,C,G,g,v,,,,,,,,,,10,14,214,4,,,,,,,,,,,,,v,1,1.117541781599357,1904.4694028233316,None,,,,,001,29,2019_Oct_15_1306,ACPT_experiment_5_30_19,3.1.0,59.95330882960267,
,,,C,G,d,b,,,,,,,,,,10,15,215,3,,,,,,,,,,,,,b,1,0.7672899419285386,1908.8561187410614,None,,,,,001,29,2019_Oct_15_1306,ACPT_experiment_5_30_19,3.1.0,59.95330882960267,
,,,C,D,d,v,,,,,,,,,,10,16,216,18,,,,,,,,,,,,,v,1,1.7847590362543997,1911.5081211728248,None,,,,,001,29,2019_Oct_15_1306,ACPT_experiment_5_30_19,3.1.0,59.95330882960267,
,,,C,D,g,b,,,,,,,,,,10,17,217,10,,,,,,,,,,,,,b,1,1.517838567842773,1915.094233556767,None,,,,,001,29,2019_Oct_15_1306,ACPT_experiment_5_30_19,3.1.0,59.95330882960267,
,,,C,U,g,n,,,,,,,,,,10,18,218,16,,,,,,,,,,,,,n,1,2.368496103925281,1918.446806378368,None,,,,,001,29,2019_Oct_15_1306,ACPT_experiment_5_30_19,3.1.0,59.95330882960267,
,,,C,G,d,b,,,,,,,,,,10,19,219,12,,,,,,,,,,,,,b,1,7.889415428899156,1922.63336846954,None,,,,,001,29,2019_Oct_15_1306,ACPT_experiment_5_30_19,3.1.0,59.95330882960267,
,,,C,D,d,v,,,,,,,,,,11,0,220,18,,,,,,,,,,,,,v,1,1.3844127453867259,1933.8085943041915,None,,,,,001,29,2019_Oct_15_1306,ACPT_experiment_5_30_19,3.1.0,59.95330882960267,
,,,C,G,y,b,,,,,,,,,,11,1,221,14,,,,,,,,,,,,,b,1,1.3844088212408678,1938.4788533763658,None,,,,,001,29,2019_Oct_15_1306,ACPT_experiment_5_30_19,3.1.0,59.95330882960267,
,,,C,G,y,b,,,,,,,,,,11,2,222,5,,,,,,,,,,,,,b,1,0.9507585979572468,1941.6812931693876,None,,,,,001,29,2019_Oct_15_1306,ACPT_experiment_5_30_19,3.1.0,59.95330882960267,
,,,C,U,d,n,,,,,,,,,,11,3,223,15,,,,,,,,,,,,,n,1,1.651284312891221,1945.9178944718424,None,,,,,001,29,2019_Oct_15_1306,ACPT_experiment_5_30_19,3.1.0,59.95330882960267,
,,,C,G,g,v,,,,,,,,,,11,4,224,13,,,,,,,,,,,,,n,0,2.5853568347483815,1949.4706283645774,None,,,,,001,29,2019_Oct_15_1306,ACPT_experiment_5_30_19,3.1.0,59.95330882960267,
,,,C,G,g,v,,,,,,,,,,11,5,225,19,,,,,,,,,,,,,v,1,0.9007178773863416,1954.2409534831622,None,,,,,001,29,2019_Oct_15_1306,ACPT_experiment_5_30_19,3.1.0,59.95330882960267,
,,,C,U,d,n,,,,,,,,,,11,6,226,6,,,,,,,,,,,,,n,1,2.28514330078724,1956.959704445333,None,,,,,001,29,2019_Oct_15_1306,ACPT_experiment_5_30_19,3.1.0,59.95330882960267,
,,,C,U,g,n,,,,,,,,,,11,7,227,16,,,,,,,,,,,,,n,1,1.0841859296997427,1961.0962188732137,None,,,,,001,29,2019_Oct_15_1306,ACPT_experiment_5_30_19,3.1.0,59.95330882960267,
,,,C,G,d,b,,,,,,,,,,11,8,228,12,,,,,,,,,,,,,b,1,4.069832607969147,1964.0151417733887,None,,,,,001,29,2019_Oct_15_1306,ACPT_experiment_5_30_19,3.1.0,59.95330882960267,
,,,C,D,y,b,,,,,,,,,,11,9,229,2,,,,,,,,,,,,,b,1,1.1842546928273805,1969.9530240381155,None,,,,,001,29,2019_Oct_15_1306,ACPT_experiment_5_30_19,3.1.0,59.95330882960267,
,,,C,D,g,b,,,,,,,,,,11,10,230,1,,,,,,,,,,,,,b,1,4.086505704201045,1974.406441396488,None,,,,,001,29,2019_Oct_15_1306,ACPT_experiment_5_30_19,3.1.0,59.95330882960267,
,,,C,U,y,n,,,,,,,,,,11,11,231,8,,,,,,,,,,,,,n,1,1.3176826282851835,1980.361026943192,None,,,,,001,29,2019_Oct_15_1306,ACPT_experiment_5_30_19,3.1.0,59.95330882960267,
,,,C,D,g,b,,,,,,,,,,11,12,232,10,,,,,,,,,,,,,b,1,1.284343982259088,1983.4967562398451,None,,,,,001,29,2019_Oct_15_1306,ACPT_experiment_5_30_19,3.1.0,59.95330882960267,
,,,C,U,g,n,,,,,,,,,,11,13,233,7,,,,,,,,,,,,,n,1,1.3343952678405913,1986.615823608996,None,,,,,001,29,2019_Oct_15_1306,ACPT_experiment_5_30_19,3.1.0,59.95330882960267,
,,,C,G,g,v,,,,,,,,,,11,14,234,4,,,,,,,,,,,,,v,1,3.2858762106734503,1989.8015966447929,None,,,,,001,29,2019_Oct_15_1306,ACPT_experiment_5_30_19,3.1.0,59.95330882960267,
,,,C,U,y,n,,,,,,,,,,11,15,235,17,,,,,,,,,,,,,n,1,1.4844790936549543,1994.9221968460715,None,,,,,001,29,2019_Oct_15_1306,ACPT_experiment_5_30_19,3.1.0,59.95330882960267,
,,,C,G,d,b,,,,,,,,,,11,16,236,3,,,,,,,,,,,,,b,1,2.25174730184699,1998.2747702713878,None,,,,,001,29,2019_Oct_15_1306,ACPT_experiment_5_30_19,3.1.0,59.95330882960267,
,,,C,D,y,b,,,,,,,,,,11,17,237,11,,,,,,,,,,,,,b,1,1.2009060553209565,2002.3779442420982,None,,,,,001,29,2019_Oct_15_1306,ACPT_experiment_5_30_19,3.1.0,59.95330882960267,
,,,C,D,d,v,,,,,,,,,,11,18,238,0,,,,,,,,,,,,,v,1,1.6012614019109606,2006.8480020960978,None,,,,,001,29,2019_Oct_15_1306,ACPT_experiment_5_30_19,3.1.0,59.95330882960267,
,,,C,D,d,v,,,,,,,,,,11,19,239,9,,,,,,,,,,,,,v,1,0.9674244496090978,2010.3340306240407,None,,,,,001,29,2019_Oct_15_1306,ACPT_experiment_5_30_19,3.1.0,59.95330882960267,
,,,C,D,d,v,,,,,,,,,,12,0,240,0,,,,,,,,,,,,,v,1,0.6506869369986816,2013.1693969672979,None,,,,,001,29,2019_Oct_15_1306,ACPT_experiment_5_30_19,3.1.0,59.95330882960267,
,,,C,U,d,n,,,,,,,,,,12,1,241,15,,,,,,,,,,,,,n,1,1.718016542996338,2015.6381148760775,None,,,,,001,29,2019_Oct_15_1306,ACPT_experiment_5_30_19,3.1.0,59.95330882960267,
,,,C,D,g,b,,,,,,,,,,12,2,242,1,,,,,,,,,,,,,b,1,1.8847958024907712,2019.1741503165576,None,,,,,001,29,2019_Oct_15_1306,ACPT_experiment_5_30_19,3.1.0,59.95330882960267,
,,,C,D,d,v,,,,,,,,,,12,3,243,18,,,,,,,,,,,,,v,1,0.8506693085237202,2022.8936743356571,None,,,,,001,29,2019_Oct_15_1306,ACPT_experiment_5_30_19,3.1.0,59.95330882960267,
,,,C,D,d,v,,,,,,,,,,12,4,244,9,,,,,,,,,,,,,v,1,0.5672794976599107,2025.5622387801086,None,,,,,001,29,2019_Oct_15_1306,ACPT_experiment_5_30_19,3.1.0,59.95330882960267,
,,,C,G,d,b,,,,,,,,,,12,5,245,12,,,,,,,,,,,,,b,1,1.1342175945464987,2027.9642404572296,None,,,,,001,29,2019_Oct_15_1306,ACPT_experiment_5_30_19,3.1.0,59.95330882960267,
,,,C,D,y,b,,,,,,,,,,12,6,246,2,,,,,,,,,,,,,b,1,1.100908832408095,2030.9331600067853,None,,,,,001,29,2019_Oct_15_1306,ACPT_experiment_5_30_19,3.1.0,59.95330882960267,
,,,C,G,g,v,,,,,,,,,,12,7,247,19,,,,,,,,,,,,,v,1,4.603525936498045,2035.3199064121163,None,,,,,001,29,2019_Oct_15_1306,ACPT_experiment_5_30_19,3.1.0,59.95330882960267,
,,,C,D,y,b,,,,,,,,,,12,8,248,11,,,,,,,,,,,,,b,1,0.9507238843507366,2041.8415830974318,None,,,,,001,29,2019_Oct_15_1306,ACPT_experiment_5_30_19,3.1.0,59.95330882960267,
,,,C,G,d,b,,,,,,,,,,12,9,249,3,,,,,,,,,,,,,b,1,8.32307259490699,2044.6103530464352,None,,,,,001,29,2019_Oct_15_1306,ACPT_experiment_5_30_19,3.1.0,59.95330882960267,
,,,C,G,y,b,,,,,,,,,,12,10,250,5,,,,,,,,,,,,,b,1,1.1675873318890808,2056.2192520455355,None,,,,,001,29,2019_Oct_15_1306,ACPT_experiment_5_30_19,3.1.0,59.95330882960267,
,,,C,G,g,v,,,,,,,,,,12,11,251,4,,,,,,,,,,,,,v,1,1.4845005255338037,2059.221587516624,None,,,,,001,29,2019_Oct_15_1306,ACPT_experiment_5_30_19,3.1.0,59.95330882960267,
,,,C,G,y,b,,,,,,,,,,12,12,252,14,,,,,,,,,,,,,b,1,0.9841002625544206,2062.557466715687,None,,,,,001,29,2019_Oct_15_1306,ACPT_experiment_5_30_19,3.1.0,59.95330882960267,
,,,C,U,y,n,,,,,,,,,,12,13,253,8,,,,,,,,,,,,,n,1,2.4185283724873443,2066.8274172291767,None,,,,,001,29,2019_Oct_15_1306,ACPT_experiment_5_30_19,3.1.0,59.95330882960267,
,,,C,U,y,n,,,,,,,,,,12,14,254,17,,,,,,,,,,,,,n,1,0.8506937589754671,2072.515093476195,None,,,,,001,29,2019_Oct_15_1306,ACPT_experiment_5_30_19,3.1.0,59.95330882960267,
,,,C,U,d,n,,,,,,,,,,12,15,255,6,,,,,,,,,,,,,n,1,1.0174793574788055,2075.167127602992,None,,,,,001,29,2019_Oct_15_1306,ACPT_experiment_5_30_19,3.1.0,59.95330882960267,
,,,C,U,g,n,,,,,,,,,,12,16,256,16,,,,,,,,,,,,,n,1,1.0841980039967893,2079.453757249861,None,,,,,001,29,2019_Oct_15_1306,ACPT_experiment_5_30_19,3.1.0,59.95330882960267,
,,,C,U,g,n,,,,,,,,,,12,17,257,7,,,,,,,,,,,,,n,1,0.6505112559625559,2082.406042642797,None,,,,,001,29,2019_Oct_15_1306,ACPT_experiment_5_30_19,3.1.0,59.95330882960267,
,,,C,G,g,v,,,,,,,,,,12,18,258,13,,,,,,,,,,,,,v,1,2.001555471437314,2084.9079648710376,None,,,,,001,29,2019_Oct_15_1306,ACPT_experiment_5_30_19,3.1.0,59.95330882960267,
,,,C,D,g,b,,,,,,,,,,12,19,259,10,,,,,,,,,,,,,b,1,1.6012589870515512,2088.8943577409227,None,,,,,001,29,2019_Oct_15_1306,ACPT_experiment_5_30_19,3.1.0,59.95330882960267,
,,,C,G,g,v,,,,,,,,,,13,0,260,19,,,,,,,,,,,,,v,1,1.4177652768539701,2092.4470910299424,None,,,,,001,29,2019_Oct_15_1306,ACPT_experiment_5_30_19,3.1.0,59.95330882960267,
,,,C,G,d,b,,,,,,,,,,13,1,261,3,,,,,,,,,,,,,b,1,2.134984614325731,2096.099894591378,None,,,,,001,29,2019_Oct_15_1306,ACPT_experiment_5_30_19,3.1.0,59.95330882960267,
,,,C,D,y,b,,,,,,,,,,13,2,262,2,,,,,,,,,,,,,b,1,1.6679640499860398,2100.28644008039,None,,,,,001,29,2019_Oct_15_1306,ACPT_experiment_5_30_19,3.1.0,59.95330882960267,
,,,C,D,y,b,,,,,,,,,,13,3,263,11,,,,,,,,,,,,,b,1,0.8508407635545154,2105.2234146597675,None,,,,,001,29,2019_Oct_15_1306,ACPT_experiment_5_30_19,3.1.0,59.95330882960267,
,,,C,D,d,v,,,,,,,,,,13,4,264,18,,,,,,,,,,,,,v,1,1.2673998180398485,2109.3603432360687,None,,,,,001,29,2019_Oct_15_1306,ACPT_experiment_5_30_19,3.1.0,59.95330882960267,
,,,C,G,g,v,,,,,,,,,,13,5,265,4,,,,,,,,,,,,,v,1,1.5681017573551799,2112.679264989183,None,,,,,001,29,2019_Oct_15_1306,ACPT_experiment_5_30_19,3.1.0,59.95330882960267,
,,,C,U,y,n,,,,,,,,,,13,6,266,17,,,,,,,,,,,,,n,1,1.3344142848600313,2116.0652039258366,None,,,,,001,29,2019_Oct_15_1306,ACPT_experiment_5_30_19,3.1.0,59.95330882960267,
,,,C,D,d,v,,,,,,,,,,13,7,267,0,,,,,,,,,,,,,v,1,1.8848184418002347,2119.2843454915474,None,,,,,001,29,2019_Oct_15_1306,ACPT_experiment_5_30_19,3.1.0,59.95330882960267,
,,,C,G,d,b,,,,,,,,,,13,8,268,12,,,,,,,,,,,,,b,1,1.3010086264821439,2124.4550081471316,None,,,,,001,29,2019_Oct_15_1306,ACPT_experiment_5_30_19,3.1.0,59.95330882960267,
,,,C,D,d,v,,,,,,,,,,13,9,269,9,,,,,,,,,,,,,v,1,1.4011118013586383,2127.590757366377,None,,,,,001,29,2019_Oct_15_1306,ACPT_experiment_5_30_19,3.1.0,59.95330882960267,
,,,C,D,g,b,,,,,,,,,,13,10,270,1,,,,,,,,,,,,,b,1,1.3677360268684424,2132.260994402959,None,,,,,001,29,2019_Oct_15_1306,ACPT_experiment_5_30_19,3.1.0,59.95330882960267,
,,,C,D,g,b,,,,,,,,,,13,11,271,10,,,,,,,,,,,,,b,1,1.1342136704006407,2135.5135060078683,None,,,,,001,29,2019_Oct_15_1306,ACPT_experiment_5_30_19,3.1.0,59.95330882960267,
,,,C,U,y,n,,,,,,,,,,13,12,272,8,,,,,,,,,,,,,n,1,1.3510384801847977,2138.6158879046325,None,,,,,001,29,2019_Oct_15_1306,ACPT_experiment_5_30_19,3.1.0,59.95330882960267,
,,,C,G,g,v,,,,,,,,,,13,13,273,13,,,,,,,,,,,,,v,1,4.136517144597747,2141.78498542934,None,,,,,001,29,2019_Oct_15_1306,ACPT_experiment_5_30_19,3.1.0,59.95330882960267,
,,,C,U,g,n,,,,,,,,,,13,14,274,7,,,,,,,,,,,,,n,1,1.8347577986387478,2149.2073431654335,None,,,,,001,29,2019_Oct_15_1306,ACPT_experiment_5_30_19,3.1.0,59.95330882960267,
,,,C,G,y,b,,,,,,,,,,13,15,275,5,,,,,,,,,,,,,b,1,1.384409424956175,2152.943547827199,None,,,,,001,29,2019_Oct_15_1306,ACPT_experiment_5_30_19,3.1.0,59.95330882960267,
,,,C,U,d,n,,,,,,,,,,13,16,276,6,0,0,0,0,0,0,0,0,,,,,n,1,1.4511229398976866,2156.162689996625,None,,,,,001,29,2019_Oct_15_1306,ACPT_experiment_5_30_19,3.1.0,59.95330882960267,
,,,C,U,d,n,R,U,g,L,u,,,,,13,16,276,6,0,0,0,0,,,,,0,0,0,10,,,,,,up,1.9679240236873738,2210.488005996096,None,001,29,2019_Oct_15_1306,ACPT_experiment_5_30_19,3.1.0,59.95330882960267,
,,,C,U,d,n,L,U,d,L,u,,,,,13,16,276,6,0,0,0,0,,,,,0,1,1,20,,,,,,up,1.067489590444893,2213.740240194009,None,001,29,2019_Oct_15_1306,ACPT_experiment_5_30_19,3.1.0,59.95330882960267,
,,,C,U,d,n,R,U,d,L,u,,,,,13,16,276,6,0,0,0,0,,,,,0,2,2,8,,,,,,up,1.3343831935435446,2216.092049618119,None,001,29,2019_Oct_15_1306,ACPT_experiment_5_30_19,3.1.0,59.95330882960267,
,,,C,U,d,n,L,U,y,L,u,,,,,13,16,276,6,0,0,0,0,,,,,0,3,3,24,,,,,,down,0.6338402727342327,2218.710727893016,None,001,29,2019_Oct_15_1306,ACPT_experiment_5_30_19,3.1.0,59.95330882960267,
,,,C,U,d,n,R,D,g,R,i,,,,,13,16,276,6,0,0,0,0,,,,,0,4,4,3,,,,,,up,1.0841868352727033,2220.6288650582483,None,001,29,2019_Oct_15_1306,ACPT_experiment_5_30_19,3.1.0,59.95330882960267,
,,,C,U,d,n,R,U,g,R,u,,,,,13,16,276,6,0,0,0,0,,,,,0,5,5,11,,,,,,up,0.8172998730387917,2222.9973512008783,None,001,29,2019_Oct_15_1306,ACPT_experiment_5_30_19,3.1.0,59.95330882960267,
,,,C,U,d,n,L,G,y,L,y,,,,,13,16,276,6,0,0,0,0,,,,,0,6,6,34,,,,,,down,0.650494050089037,2225.0989724168685,None,001,29,2019_Oct_15_1306,ACPT_experiment_5_30_19,3.1.0,59.95330882960267,
,,,C,U,d,n,L,D,d,R,c ,,,,,13,16,276,6,0,0,0,0,,,,,0,7,7,13,,,,,,up,0.7672799806332478,2227.033768189174,None,001,29,2019_Oct_15_1306,ACPT_experiment_5_30_19,3.1.0,59.95330882960267,
,,,C,U,d,n,L,G,d,R,i,,,,,13,16,276,6,0,0,0,0,,,,,0,8,8,17,,,,,,up,0.7172111873205722,2229.085366494184,None,001,29,2019_Oct_15_1306,ACPT_experiment_5_30_19,3.1.0,59.95330882960267,
,,,C,U,d,n,L,D,g,R,i,,,,,13,16,276,6,0,0,0,0,,,,,0,9,9,15,,,,,,up,0.6838499019868323,2231.0869071746074,None,001,29,2019_Oct_15_1306,ACPT_experiment_5_30_19,3.1.0,59.95330882960267,
,,,C,U,d,n,L,D,g,L,i,,,,,13,16,276,6,0,0,0,0,,,,,0,10,10,14,,,,,,up,0.8839315846125828,2233.0384792783916,None,001,29,2019_Oct_15_1306,ACPT_experiment_5_30_19,3.1.0,59.95330882960267,
,,,C,U,d,n,R,D,g,L,i,,,,,13,16,276,6,0,0,0,0,,,,,0,11,11,2,,,,,,up,0.5304266272069071,2235.22672362113,None,001,29,2019_Oct_15_1306,ACPT_experiment_5_30_19,3.1.0,59.95330882960267,
,,,C,U,d,n,R,D,d,L,c,,,,,13,16,276,6,0,0,0,0,,,,,0,12,12,0,,,,,,up,0.5338382201043714,2237.0247695167436,None,001,29,2019_Oct_15_1306,ACPT_experiment_5_30_19,3.1.0,59.95330882960267,
,,,C,U,d,n,R,G,g,R,c ,,,,,13,16,276,6,0,0,0,0,,,,,0,13,13,7,,,,,,up,0.6838652967162488,2238.8428524080064,None,001,29,2019_Oct_15_1306,ACPT_experiment_5_30_19,3.1.0,59.95330882960267,
,,,C,U,d,n,R,D,y,L,y,,,,,13,16,276,6,0,0,0,0,,,,,0,14,14,26,,,,,,down,0.6670131990176742,2240.827848281615,None,001,29,2019_Oct_15_1306,ACPT_experiment_5_30_19,3.1.0,59.95330882960267,
,,,C,U,d,n,R,D,y,R,y,,,,,13,16,276,6,0,0,0,0,,,,,0,15,15,27,,,,,,down,0.9341878314007772,2242.7790741549034,None,001,29,2019_Oct_15_1306,ACPT_experiment_5_30_19,3.1.0,59.95330882960267,
,,,C,U,d,n,L,U,g,R,u,,,,,13,16,276,6,0,0,0,0,,,,,0,16,16,23,,,,,,up,0.6838502038426668,2245.0142663867846,None,001,29,2019_Oct_15_1306,ACPT_experiment_5_30_19,3.1.0,59.95330882960267,
,,,C,U,d,n,L,G,d,L,i,,,,,13,16,276,6,0,0,0,0,,,,,0,17,17,16,,,,,,up,0.5671493971003656,2246.982438537294,None,001,29,2019_Oct_15_1306,ACPT_experiment_5_30_19,3.1.0,59.95330882960267,
,,,C,U,d,n,L,U,y,R,u,,,,,13,16,276,6,0,0,0,0,,,,,0,18,18,25,,,,,,down,0.6504928426566039,2248.8338679228764,None,001,29,2019_Oct_15_1306,ACPT_experiment_5_30_19,3.1.0,59.95330882960267,
,,,C,U,d,n,L,G,y,R,y,,,,,13,16,276,6,0,0,0,0,,,,,0,19,19,35,,,,,,down,0.6671807299044303,2250.7519984472456,None,001,29,2019_Oct_15_1306,ACPT_experiment_5_30_19,3.1.0,59.95330882960267,
,,,C,U,d,n,L,D,y,R,y,,,,,13,16,276,6,0,0,0,0,,,,,0,20,20,33,,,,,,down,0.7505754912290286,2252.7034987089555,None,001,29,2019_Oct_15_1306,ACPT_experiment_5_30_19,3.1.0,59.95330882960267,
,,,C,U,d,n,R,G,d,R,i,,,,,13,16,276,6,0,0,0,0,,,,,0,21,21,5,,,,,,up,0.8004972799626557,2254.738398561709,None,001,29,2019_Oct_15_1306,ACPT_experiment_5_30_19,3.1.0,59.95330882960267,
,,,C,U,d,n,R,G,y,R,y,,,,,13,16,276,6,0,0,0,0,,,,,0,22,22,29,,,,,,down,0.8006147025116661,2256.8233294755937,None,001,29,2019_Oct_15_1306,ACPT_experiment_5_30_19,3.1.0,59.95330882960267,
,,,C,U,d,n,L,U,g,L,u,,,,,13,16,276,6,0,0,0,0,,,,,0,23,23,22,,,,,,up,0.750578509801926,2258.908262502482,None,001,29,2019_Oct_15_1306,ACPT_experiment_5_30_19,3.1.0,59.95330882960267,
,,,C,U,d,n,R,G,y,L,y,,,,,13,16,276,6,0,0,0,0,,,,,0,24,24,28,,,,,,down,0.667129715993724,2260.943208841283,None,001,29,2019_Oct_15_1306,ACPT_experiment_5_30_19,3.1.0,59.95330882960267,
,,,C,U,d,n,L,G,g,R,c ,,,,,13,16,276,6,0,0,0,0,,,,,0,25,25,19,,,,,,up,0.6671834466214932,2262.8946577872266,None,001,29,2019_Oct_15_1306,ACPT_experiment_5_30_19,3.1.0,59.95330882960267,
,,,C,U,d,n,R,U,y,L,u,,,,,13,16,276,6,0,0,0,0,,,,,0,26,26,30,,,,,,down,0.4670235829144076,2264.8461755566696,None,001,29,2019_Oct_15_1306,ACPT_experiment_5_30_19,3.1.0,59.95330882960267,
,,,C,U,d,n,R,D,d,R,c ,,,,,13,16,276,6,0,0,0,0,,,,,0,27,27,1,,,,,,up,0.5804401806071837,2266.6175239720087,None,001,29,2019_Oct_15_1306,ACPT_experiment_5_30_19,3.1.0,59.95330882960267,
,,,C,U,d,n,L,D,y,L,y,,,,,13,16,276,6,0,0,0,0,,,,,0,28,28,32,,,,,,down,0.41697924005529785,2268.482288514142,None,001,29,2019_Oct_15_1306,ACPT_experiment_5_30_19,3.1.0,59.95330882960267,
,,,C,U,d,n,R,U,d,R,u,,,,,13,16,276,6,0,0,0,0,,,,,0,29,29,9,,,,,,up,0.5337389090036595,2270.183593625012,None,001,29,2019_Oct_15_1306,ACPT_experiment_5_30_19,3.1.0,59.95330882960267,
,,,C,U,d,n,L,U,d,R,u,,,,,13,16,276,6,0,0,0,0,,,,,0,30,30,21,,,,,,up,0.8506608565148781,2272.0016550843957,None,001,29,2019_Oct_15_1306,ACPT_experiment_5_30_19,3.1.0,59.95330882960267,
,,,C,U,d,n,R,U,y,R,u,,,,,13,16,276,6,0,0,0,0,,,,,0,31,31,31,,,,,,down,0.8171453220238618,2274.153456479098,None,001,29,2019_Oct_15_1306,ACPT_experiment_5_30_19,3.1.0,59.95330882960267,
,,,C,U,d,n,L,G,g,L,c ,,,,,13,16,276,6,0,0,0,0,,,,,0,32,32,18,,,,,,up,0.5003715865204867,2276.2716034848836,None,001,29,2019_Oct_15_1306,ACPT_experiment_5_30_19,3.1.0,59.95330882960267,
,,,C,U,d,n,R,G,d,L,i,,,,,13,16,276,6,0,0,0,0,,,,,0,33,33,4,,,,,,up,0.6004738558258396,2278.056305168222,None,001,29,2019_Oct_15_1306,ACPT_experiment_5_30_19,3.1.0,59.95330882960267,
,,,C,U,d,n,R,G,g,L,c ,,,,,13,16,276,6,0,0,0,0,,,,,0,34,34,6,,,,,,up,0.5501665951251198,2279.9413436641025,None,001,29,2019_Oct_15_1306,ACPT_experiment_5_30_19,3.1.0,59.95330882960267,
,,,C,U,d,n,L,D,d,L,c ,,,,,13,16,276,6,0,0,0,0,,,,,0,35,35,12,,,,,,up,0.583785364864525,2281.7758273761756,None,001,29,2019_Oct_15_1306,ACPT_experiment_5_30_19,3.1.0,59.95330882960267,
,,,C,U,d,n,R,G,y,R,y,,,,,13,16,276,6,0,0,0,0,,,,,1,0,36,29,,,,,,down,0.7505637187859975,2283.660618650805,None,001,29,2019_Oct_15_1306,ACPT_experiment_5_30_19,3.1.0,59.95330882960267,
,,,C,U,d,n,R,D,g,R,i,,,,,13,16,276,6,0,0,0,0,,,,,1,1,37,3,,,,,,up,0.6671608073120296,2285.7121946183634,None,001,29,2019_Oct_15_1306,ACPT_experiment_5_30_19,3.1.0,59.95330882960267,
,,,C,U,d,n,R,D,y,L,y,,,,,13,16,276,6,0,0,0,0,,,,,1,2,38,26,,,,,,down,0.5837784221421316,2287.663683107634,None,001,29,2019_Oct_15_1306,ACPT_experiment_5_30_19,3.1.0,59.95330882960267,
,,,C,U,d,n,L,D,y,L,y,,,,,13,16,276,6,0,0,0,0,,,,,1,3,39,32,,,,,,down,0.93404595840002,2289.548469250687,None,001,29,2019_Oct_15_1306,ACPT_experiment_5_30_19,3.1.0,59.95330882960267,
,,,C,U,d,n,R,G,y,L,y,,,,,13,16,276,6,0,0,0,0,,,,,1,4,40,28,,,,,,down,0.7338906225559185,2291.7835135724163,None,001,29,2019_Oct_15_1306,ACPT_experiment_5_30_19,3.1.0,59.95330882960267,
,,,C,U,d,n,L,G,y,R,y,,,,,13,16,276,6,0,0,0,0,,,,,1,5,41,35,,,,,,down,0.7505996398231218,2293.801706520906,None,001,29,2019_Oct_15_1306,ACPT_experiment_5_30_19,3.1.0,59.95330882960267,
,,,C,U,d,n,L,D,d,R,c ,,,,,13,16,276,6,0,0,0,0,,,,,1,6,42,13,,,,,,up,0.6004575555216434,2295.8366268999653,None,001,29,2019_Oct_15_1306,ACPT_experiment_5_30_19,3.1.0,59.95330882960267,
,,,C,U,d,n,L,G,d,R,i,,,,,13,16,276,6,0,0,0,0,,,,,1,7,43,17,,,,,,up,0.5504319278243202,2297.7214076095843,None,001,29,2019_Oct_15_1306,ACPT_experiment_5_30_19,3.1.0,59.95330882960267,
,,,C,U,d,n,R,U,y,L,u,,,,,13,16,276,6,0,0,0,0,,,,,1,8,44,30,,,,,,down,0.5670911386132502,2299.5728315617307,None,001,29,2019_Oct_15_1306,ACPT_experiment_5_30_19,3.1.0,59.95330882960267,
,,,C,U,d,n,R,G,g,L,c ,,,,,13,16,276,6,0,0,0,0,,,,,1,9,45,6,,,,,,up,0.5837947224445088,2301.4409328361126,None,001,29,2019_Oct_15_1306,ACPT_experiment_5_30_19,3.1.0,59.95330882960267,
,,,C,U,d,n,L,U,d,L,u,,,,,13,16,276,6,0,0,0,0,,,,,1,10,46,20,,,,,,up,0.5504382668314065,2303.309026865916,None,001,29,2019_Oct_15_1306,ACPT_experiment_5_30_19,3.1.0,59.95330882960267,
,,,C,U,d,n,L,G,d,L,i,,,,,13,16,276,6,0,0,0,0,,,,,1,11,47,16,,,,,,up,0.5670947609014547,2305.160460477502,None,001,29,2019_Oct_15_1306,ACPT_experiment_5_30_19,3.1.0,59.95330882960267,
,,,C,U,d,n,L,U,g,L,u,,,,,13,16,276,6,0,0,0,0,,,,,1,12,48,22,,,,,,up,0.517069435061785,2307.0118705442055,None,001,29,2019_Oct_15_1306,ACPT_experiment_5_30_19,3.1.0,59.95330882960267,
,,,C,U,d,n,R,G,d,R,i,,,,,13,16,276,6,0,0,0,0,,,,,1,13,49,5,,,,,,up,1.0675246059108758,2308.813254681356,None,001,29,2019_Oct_15_1306,ACPT_experiment_5_30_19,3.1.0,59.95330882960267,
,,,C,U,d,n,L,U,d,R,u,,,,,13,16,276,6,0,0,0,0,,,,,1,14,50,21,,,,,,up,0.6004527258028247,2311.1650671240404,None,001,29,2019_Oct_15_1306,ACPT_experiment_5_30_19,3.1.0,59.95330882960267,
,,,C,U,d,n,L,D,d,L,c ,,,,,13,16,276,6,0,0,0,0,,,,,1,15,51,12,,,,,,up,0.5670986850491317,2313.049846626229,None,001,29,2019_Oct_15_1306,ACPT_experiment_5_30_19,3.1.0,59.95330882960267,
,,,C,U,d,n,L,G,y,L,y,,,,,13,16,276,6,0,0,0,0,,,,,1,16,52,34,,,,,,down,0.8007085801782523,2314.901285671249,None,001,29,2019_Oct_15_1306,ACPT_experiment_5_30_19,3.1.0,59.95330882960267,
,,,C,U,d,n,L,U,y,R,u,,,,,13,16,276,6,0,0,0,0,,,,,1,17,53,25,,,,,,down,1.1342067276782473,2316.9862002848313,None,001,29,2019_Oct_15_1306,ACPT_experiment_5_30_19,3.1.0,59.95330882960267,
,,,C,U,d,n,R,D,g,L,i,,,,,13,16,276,6,0,0,0,0,,,,,1,18,54,2,,,,,,up,0.5172282120802265,2319.404719903454,None,001,29,2019_Oct_15_1306,ACPT_experiment_5_30_19,3.1.0,59.95330882960267,
,,,C,U,d,n,R,G,d,L,i,,,,,13,16,276,6,0,0,0,0,,,,,1,19,55,4,,,,,,up,0.5837754035692342,2321.2061112851825,None,001,29,2019_Oct_15_1306,ACPT_experiment_5_30_19,3.1.0,59.95330882960267,
,,,C,U,d,n,R,U,g,L,u,,,,,13,16,276,6,0,0,0,0,,,,,1,20,56,10,,,,,,up,0.5837829500051157,2323.0742095409896,None,001,29,2019_Oct_15_1306,ACPT_experiment_5_30_19,3.1.0,59.95330882960267,
,,,C,U,d,n,R,U,y,R,u,,,,,13,16,276,6,0,0,0,0,,,,,1,21,57,31,,,,,,down,0.6504988798078557,2324.942337982542,None,001,29,2019_Oct_15_1306,ACPT_experiment_5_30_19,3.1.0,59.95330882960267,
,,,C,U,d,n,L,U,g,R,u,,,,,13,16,276,6,0,0,0,0,,,,,1,22,58,23,,,,,,up,0.9007133495251765,2326.8771304344154,None,001,29,2019_Oct_15_1306,ACPT_experiment_5_30_19,3.1.0,59.95330882960267,
,,,C,U,d,n,R,G,g,R,c ,,,,,13,16,276,6,0,0,0,0,,,,,1,23,59,7,,,,,,up,1.5011449453068053,2329.062153958166,None,001,29,2019_Oct_15_1306,ACPT_experiment_5_30_19,3.1.0,59.95330882960267,
,,,C,U,d,n,L,U,y,L,u,,,,,13,16,276,6,0,0,0,0,,,,,1,24,60,24,,,,,,down,0.7505827358072565,2331.847616020419,None,001,29,2019_Oct_15_1306,ACPT_experiment_5_30_19,3.1.0,59.95330882960267,
,,,C,U,d,n,R,D,d,L,c,,,,,13,16,276,6,0,0,0,0,,,,,1,25,61,0,,,,,,up,0.6004557443775411,2333.8825128545996,None,001,29,2019_Oct_15_1306,ACPT_experiment_5_30_19,3.1.0,59.95330882960267,
,,,C,U,d,n,L,D,g,L,i,,,,,13,16,276,6,0,0,0,0,,,,,1,26,62,14,,,,,,up,0.5837832518609503,2335.7672854140656,None,001,29,2019_Oct_15_1306,ACPT_experiment_5_30_19,3.1.0,59.95330882960267,
,,,C,U,d,n,L,G,g,R,c ,,,,,13,16,276,6,0,0,0,0,,,,,1,27,63,19,,,,,,up,0.5971464811555052,2337.6553874612036,None,001,29,2019_Oct_15_1306,ACPT_experiment_5_30_19,3.1.0,59.95330882960267,
,,,C,U,d,n,L,D,g,R,i,,,,,13,16,276,6,0,0,0,0,,,,,1,28,64,15,,,,,,up,0.650508539245493,2339.536853776024,None,001,29,2019_Oct_15_1306,ACPT_experiment_5_30_19,3.1.0,59.95330882960267,
,,,C,U,d,n,L,D,y,R,y,,,,,13,16,276,6,0,0,0,0,,,,,1,29,65,33,,,,,,down,0.7672691137631773,2341.4716543780487,None,001,29,2019_Oct_15_1306,ACPT_experiment_5_30_19,3.1.0,59.95330882960267,
,,,C,U,d,n,R,D,d,R,c ,,,,,13,16,276,6,0,0,0,0,,,,,1,30,66,1,,,,,,up,0.6505224246866419,2343.53989861212,None,001,29,2019_Oct_15_1306,ACPT_experiment_5_30_19,3.1.0,59.95330882960267,
,,,C,U,d,n,R,U,g,R,u,,,,,13,16,276,6,0,0,0,0,,,,,1,31,67,11,,,,,,up,0.5170673220582103,2345.474752341055,None,001,29,2019_Oct_15_1306,ACPT_experiment_5_30_19,3.1.0,59.95330882960267,
,,,C,U,d,n,R,U,d,L,u,,,,,13,16,276,6,0,0,0,0,,,,,1,32,68,8,,,,,,up,0.8505518859747099,2347.259437120376,None,001,29,2019_Oct_15_1306,ACPT_experiment_5_30_19,3.1.0,59.95330882960267,
,,,C,U,d,n,L,G,g,L,c ,,,,,13,16,276,6,0,0,0,0,,,,,1,33,69,18,,,,,,up,1.0340845357823127,2349.3944718430375,None,001,29,2019_Oct_15_1306,ACPT_experiment_5_30_19,3.1.0,59.95330882960267,
,,,C,U,d,n,R,D,y,R,y,,,,,13,16,276,6,0,0,0,0,,,,,1,34,70,27,,,,,,down,2.5186230953549966,2351.712849045314,None,001,29,2019_Oct_15_1306,ACPT_experiment_5_30_19,3.1.0,59.95330882960267,
,,,C,U,d,n,R,U,d,R,u,,,,,13,16,276,6,0,0,0,0,,,,,1,35,71,9,,,,,,up,0.9006955399363505,2355.5157880501883,None,001,29,2019_Oct_15_1306,ACPT_experiment_5_30_19,3.1.0,59.95330882960267,
,,,C,U,d,n,,,,,,,,,,13,16,276,6,1,0,1,0,0,0,0,0,,,,,,,,,,,,,,001,29,2019_Oct_15_1306,ACPT_experiment_5_30_19,3.1.0,59.95330882960267,
,,,C,U,d,n,L,U,y,L,u,,,,,13,16,276,6,1,0,1,0,,,,,0,0,0,24,,,,,,down,0.850242180233181,2363.222095240855,None,001,29,2019_Oct_15_1306,ACPT_experiment_5_30_19,3.1.0,59.95330882960267,
,,,C,U,d,n,R,D,g,R,i,,,,,13,16,276,6,1,0,1,0,,,,,0,1,1,3,,,,,,up,0.6838692208621069,2365.356696798077,None,001,29,2019_Oct_15_1306,ACPT_experiment_5_30_19,3.1.0,59.95330882960267,
,,,C,U,d,n,L,D,y,L,y,,,,,13,16,276,6,1,0,1,0,,,,,0,2,2,32,,,,,,down,0.8006183247998706,2367.3248620058657,None,001,29,2019_Oct_15_1306,ACPT_experiment_5_30_19,3.1.0,59.95330882960267,
,,,C,U,d,n,L,D,g,R,i,,,,,13,16,276,6,1,0,1,0,,,,,0,3,3,15,,,,,,up,0.6004750632546347,2369.4097947308965,None,001,29,2019_Oct_15_1306,ACPT_experiment_5_30_19,3.1.0,59.95330882960267,
,,,C,U,d,n,L,U,d,R,u,,,,,13,16,276,6,1,0,1,0,,,,,0,4,4,21,,,,,,up,0.6004889486957836,2371.294547367772,None,001,29,2019_Oct_15_1306,ACPT_experiment_5_30_19,3.1.0,59.95330882960267,
,,,C,U,d,n,R,U,g,R,u,,,,,13,16,276,6,1,0,1,0,,,,,0,5,5,11,,,,,,up,0.5003794348140218,2373.179359470565,None,001,29,2019_Oct_15_1306,ACPT_experiment_5_30_19,3.1.0,59.95330882960267,
,,,C,U,d,n,R,G,g,L,c ,,,,,13,16,276,6,1,0,1,0,,,,,0,6,6,6,,,,,,up,0.6004608759540133,2374.9473814168105,None,001,29,2019_Oct_15_1306,ACPT_experiment_5_30_19,3.1.0,59.95330882960267,
,,,C,U,d,n,R,D,y,L,y,,,,,13,16,276,6,1,0,1,0,,,,,0,7,7,26,,,,,,down,0.7172114891782257,2376.8321639375736,None,001,29,2019_Oct_15_1306,ACPT_experiment_5_30_19,3.1.0,59.95330882960267,
,,,C,U,d,n,R,U,g,L,u,,,,,13,16,276,6,1,0,1,0,,,,,0,8,8,10,,,,,,up,0.4503507885419822,2378.833693147413,None,001,29,2019_Oct_15_1306,ACPT_experiment_5_30_19,3.1.0,59.95330882960267,
,,,C,U,d,n,R,U,d,L,u,,,,,13,16,276,6,1,0,1,0,,,,,0,9,9,8,,,,,,up,0.48373139275281574,2380.5516610913583,None,001,29,2019_Oct_15_1306,ACPT_experiment_5_30_19,3.1.0,59.95330882960267,
,,,C,U,d,n,R,U,d,R,u,,,,,13,16,276,6,1,0,1,0,,,,,0,10,10,9,,,,,,up,1.1839872471264243,2382.336644709556,None,001,29,2019_Oct_15_1306,ACPT_experiment_5_30_19,3.1.0,59.95330882960267,
,,,C,U,d,n,L,D,d,L,c ,,,,,13,16,276,6,1,0,1,0,,,,,0,11,11,12,,,,,,up,0.4837057348686358,2384.8049496773438,None,001,29,2019_Oct_15_1306,ACPT_experiment_5_30_19,3.1.0,59.95330882960267,
,,,C,U,d,n,L,G,g,L,c ,,,,,13,16,276,6,1,0,1,0,,,,,0,12,12,18,,,,,,up,0.3836300290222425,2386.5729770570215,None,001,29,2019_Oct_15_1306,ACPT_experiment_5_30_19,3.1.0,59.95330882960267,
,,,C,U,d,n,L,U,y,R,u,,,,,13,16,276,6,1,0,1,0,,,,,0,13,13,25,,,,,,down,0.5837850630068715,2388.240916656554,None,001,29,2019_Oct_15_1306,ACPT_experiment_5_30_19,3.1.0,59.95330882960267,
,,,C,U,d,n,R,G,y,L,y,,,,,13,16,276,6,1,0,1,0,,,,,0,14,14,28,,,,,,down,0.7839301356980286,2390.1090294015194,None,001,29,2019_Oct_15_1306,ACPT_experiment_5_30_19,3.1.0,59.95330882960267,
,,,C,U,d,n,L,G,y,R,y,,,,,13,16,276,6,1,0,1,0,,,,,0,15,15,35,,,,,,down,0.6004518202298641,2392.177282691313,None,001,29,2019_Oct_15_1306,ACPT_experiment_5_30_19,3.1.0,59.95330882960267,
,,,C,U,d,n,R,G,y,R,y,,,,,13,16,276,6,1,0,1,0,,,,,0,16,16,29,,,,,,down,0.7338945467035956,2394.0620600804996,None,001,29,2019_Oct_15_1306,ACPT_experiment_5_30_19,3.1.0,59.95330882960267,
,,,C,U,d,n,L,D,d,R,c ,,,,,13,16,276,6,1,0,1,0,,,,,0,17,17,13,,,,,,up,0.533735286713636,2396.080283818448,None,001,29,2019_Oct_15_1306,ACPT_experiment_5_30_19,3.1.0,59.95330882960267,
,,,C,U,d,n,L,G,d,L,i,,,,,13,16,276,6,1,0,1,0,,,,,0,18,18,16,,,,,,up,0.5170658127717616,2397.898338033254,None,001,29,2019_Oct_15_1306,ACPT_experiment_5_30_19,3.1.0,59.95330882960267,
,,,C,U,d,n,R,D,g,L,i,,,,,13,16,276,6,1,0,1,0,,,,,0,19,19,2,,,,,,up,0.5671303800809255,2399.6997209629735,None,001,29,2019_Oct_15_1306,ACPT_experiment_5_30_19,3.1.0,59.95330882960267,
,,,C,U,d,n,L,U,g,L,u,,,,,13,16,276,6,1,0,1,0,,,,,0,20,20,22,,,,,,up,0.5334654261532705,2401.568102059211,None,001,29,2019_Oct_15_1306,ACPT_experiment_5_30_19,3.1.0,59.95330882960267,
,,,C,U,d,n,L,G,g,R,c ,,,,,13,16,276,6,1,0,1,0,,,,,0,21,21,19,,,,,,up,0.6171445371946902,2403.3858855078834,None,001,29,2019_Oct_15_1306,ACPT_experiment_5_30_19,3.1.0,59.95330882960267,
,,,C,U,d,n,R,G,g,R,c ,,,,,13,16,276,6,1,0,1,0,,,,,0,22,22,7,,,,,,up,0.5003794348140218,2405.287349878743,None,001,29,2019_Oct_15_1306,ACPT_experiment_5_30_19,3.1.0,59.95330882960267,
,,,C,U,d,n,R,U,y,L,u,,,,,13,16,276,6,1,0,1,0,,,,,0,23,23,30,,,,,,down,0.7005374873733672,2407.072050958366,None,001,29,2019_Oct_15_1306,ACPT_experiment_5_30_19,3.1.0,59.95330882960267,
,,,C,U,d,n,L,U,g,R,u,,,,,13,16,276,6,1,0,1,0,,,,,0,24,24,23,,,,,,up,0.8006231545186893,2409.056904053401,None,001,29,2019_Oct_15_1306,ACPT_experiment_5_30_19,3.1.0,59.95330882960267,
,,,C,U,d,n,L,U,d,L,u,,,,,13,16,276,6,1,0,1,0,,,,,0,25,25,20,,,,,,up,0.5337102325447631,2411.141869982752,None,001,29,2019_Oct_15_1306,ACPT_experiment_5_30_19,3.1.0,59.95330882960267,
,,,C,U,d,n,L,G,y,L,y,,,,,13,16,276,6,1,0,1,0,,,,,0,26,26,34,,,,,,down,0.6671677500344231,2412.9599217826963,None,001,29,2019_Oct_15_1306,ACPT_experiment_5_30_19,3.1.0,59.95330882960267,
,,,C,U,d,n,R,D,d,L,c,,,,,13,16,276,6,1,0,1,0,,,,,0,27,27,0,,,,,,up,0.4500012376156519,2414.9282816885425,None,001,29,2019_Oct_15_1306,ACPT_experiment_5_30_19,3.1.0,59.95330882960267,
,,,C,U,d,n,R,D,y,R,y,,,,,13,16,276,6,1,0,1,0,,,,,0,28,28,27,,,,,,down,0.7172178281834931,2416.662752782975,None,001,29,2019_Oct_15_1306,ACPT_experiment_5_30_19,3.1.0,59.95330882960267,
,,,C,U,d,n,R,D,d,R,c ,,,,,13,16,276,6,1,0,1,0,,,,,0,29,29,1,,,,,,up,0.7005429208093119,2418.6642822946706,None,001,29,2019_Oct_15_1306,ACPT_experiment_5_30_19,3.1.0,59.95330882960267,
,,,C,U,d,n,L,D,y,R,y,,,,,13,16,276,6,1,0,1,0,,,,,0,30,30,33,,,,,,down,0.6169459149932663,2420.6659868836887,None,001,29,2019_Oct_15_1306,ACPT_experiment_5_30_19,3.1.0,59.95330882960267,
,,,C,U,d,n,L,D,g,L,i,,,,,13,16,276,6,1,0,1,0,,,,,0,31,31,14,,,,,,up,0.533742531291864,2422.583964668189,None,001,29,2019_Oct_15_1306,ACPT_experiment_5_30_19,3.1.0,59.95330882960267,
,,,C,U,d,n,R,G,d,R,i,,,,,13,16,276,6,1,0,1,0,,,,,0,32,32,5,,,,,,up,0.783818146583144,2424.4020282405745,None,001,29,2019_Oct_15_1306,ACPT_experiment_5_30_19,3.1.0,59.95330882960267,
,,,C,U,d,n,L,G,d,R,i,,,,,13,16,276,6,1,0,1,0,,,,,0,33,33,17,,,,,,up,0.98412169443327,2426.470285152658,None,001,29,2019_Oct_15_1306,ACPT_experiment_5_30_19,3.1.0,59.95330882960267,
,,,C,U,d,n,R,U,y,R,u,,,,,13,16,276,6,1,0,1,0,,,,,0,34,34,31,,,,,,down,0.7005344688004698,2428.738691061577,None,001,29,2019_Oct_15_1306,ACPT_experiment_5_30_19,3.1.0,59.95330882960267,
,,,C,U,d,n,R,G,d,L,i,,,,,13,16,276,6,1,0,1,0,,,,,0,35,35,4,,,,,,up,0.5671080426291155,2430.723551099334,None,001,29,2019_Oct_15_1306,ACPT_experiment_5_30_19,3.1.0,59.95330882960267,
,,,C,U,d,n,L,D,y,L,y,,,,,13,16,276,6,1,0,1,0,,,,,1,0,36,32,,,,,,down,0.6671689574632182,2432.5749804849147,None,001,29,2019_Oct_15_1306,ACPT_experiment_5_30_19,3.1.0,59.95330882960267,
,,,C,U,d,n,L,U,g,R,u,,,,,13,16,276,6,1,0,1,0,,,,,1,1,37,23,,,,,,up,0.5004017722658318,2434.526472898331,None,001,29,2019_Oct_15_1306,ACPT_experiment_5_30_19,3.1.0,59.95330882960267,
,,,C,U,d,n,L,G,d,L,i,,,,,13,16,276,6,1,0,1,0,,,,,1,2,38,16,,,,,,up,0.41698678649299836,2436.311175185385,None,001,29,2019_Oct_15_1306,ACPT_experiment_5_30_19,3.1.0,59.95330882960267,
,,,C,U,d,n,L,D,g,R,i,,,,,13,16,276,6,1,0,1,0,,,,,1,3,39,15,,,,,,up,0.4503359975260537,2438.0124857296887,None,001,29,2019_Oct_15_1306,ACPT_experiment_5_30_19,3.1.0,59.95330882960267,
,,,C,U,d,n,L,U,y,R,u,,,,,13,16,276,6,1,0,1,0,,,,,1,4,40,25,,,,,,down,0.6502537715587096,2439.7640639913643,None,001,29,2019_Oct_15_1306,ACPT_experiment_5_30_19,3.1.0,59.95330882960267,
,,,C,U,d,n,R,D,y,L,y,,,,,13,16,276,6,1,0,1,0,,,,,1,5,41,26,,,,,,down,0.7338894151271234,2441.7153269931187,None,001,29,2019_Oct_15_1306,ACPT_experiment_5_30_19,3.1.0,59.95330882960267,
,,,C,U,d,n,R,G,y,L,y,,,,,13,16,276,6,1,0,1,0,,,,,1,6,42,28,,,,,,down,0.5170836223624065,2443.7335169230337,None,001,29,2019_Oct_15_1306,ACPT_experiment_5_30_19,3.1.0,59.95330882960267,
,,,C,U,d,n,R,G,d,L,i,,,,,13,16,276,6,1,0,1,0,,,,,1,7,43,4,,,,,,up,0.43366441058424243,2445.5516016254405,None,001,29,2019_Oct_15_1306,ACPT_experiment_5_30_19,3.1.0,59.95330882960267,
,,,C,U,d,n,L,D,g,L,i,,,,,13,16,276,6,1,0,1,0,,,,,1,8,44,14,,,,,,up,0.4170055016547849,2447.269565343384,None,001,29,2019_Oct_15_1306,ACPT_experiment_5_30_19,3.1.0,59.95330882960267,
,,,C,U,d,n,L,G,g,R,c ,,,,,13,16,276,6,1,0,1,0,,,,,1,9,45,19,,,,,,up,0.6838556372786115,2448.9708955084207,None,001,29,2019_Oct_15_1306,ACPT_experiment_5_30_19,3.1.0,59.95330882960267,
,,,C,U,d,n,L,D,d,L,c ,,,,,13,16,276,6,1,0,1,0,,,,,1,10,46,12,,,,,,up,0.4837274686051387,2450.939069470076,None,001,29,2019_Oct_15_1306,ACPT_experiment_5_30_19,3.1.0,59.95330882960267,
,,,C,U,d,n,R,D,g,L,i,,,,,13,16,276,6,1,0,1,0,,,,,1,11,47,2,,,,,,up,0.5003649456575658,2452.723789868576,None,001,29,2019_Oct_15_1306,ACPT_experiment_5_30_19,3.1.0,59.95330882960267,
,,,C,U,d,n,L,U,y,L,u,,,,,13,16,276,6,1,0,1,0,,,,,1,12,48,24,,,,,,down,0.6837249330019404,2454.508499702066,None,001,29,2019_Oct_15_1306,ACPT_experiment_5_30_19,3.1.0,59.95330882960267,
,,,C,U,d,n,R,D,g,R,i,,,,,13,16,276,6,1,0,1,0,,,,,1,13,49,3,,,,,,up,0.6505009928096115,2456.4766594764224,None,001,29,2019_Oct_15_1306,ACPT_experiment_5_30_19,3.1.0,59.95330882960267,
,,,C,U,d,n,L,G,g,L,c ,,,,,13,16,276,6,1,0,1,0,,,,,1,14,50,18,,,,,,up,0.45033418638195144,2458.4114917734787,None,001,29,2019_Oct_15_1306,ACPT_experiment_5_30_19,3.1.0,59.95330882960267,
,,,C,U,d,n,L,G,d,R,i,,,,,13,16,276,6,1,0,1,0,,,,,1,15,51,17,,,,,,up,0.5671647918297822,2460.12944251155,None,001,29,2019_Oct_15_1306,ACPT_experiment_5_30_19,3.1.0,59.95330882960267,
,,,C,U,d,n,L,U,d,R,u,,,,,13,16,276,6,1,0,1,0,,,,,1,16,52,21,,,,,,up,0.5170612849105964,2461.980889103006,None,001,29,2019_Oct_15_1306,ACPT_experiment_5_30_19,3.1.0,59.95330882960267,
,,,C,U,d,n,R,D,y,R,y,,,,,13,16,276,6,1,0,1,0,,,,,1,17,53,27,,,,,,down,0.6505079355301859,2463.7822696178664,None,001,29,2019_Oct_15_1306,ACPT_experiment_5_30_19,3.1.0,59.95330882960267,
,,,C,U,d,n,R,U,d,L,u,,,,,13,16,276,6,1,0,1,0,,,,,1,18,54,8,,,,,,up,0.4334036057462072,2465.734031288128,None,001,29,2019_Oct_15_1306,ACPT_experiment_5_30_19,3.1.0,59.95330882960267,
,,,C,U,d,n,R,U,g,R,u,,,,,13,16,276,6,1,0,1,0,,,,,1,19,55,11,,,,,,up,0.5337546055907296,2467.4517523126797,None,001,29,2019_Oct_15_1306,ACPT_experiment_5_30_19,3.1.0,59.95330882960267,
,,,C,U,d,n,L,D,y,R,y,,,,,13,16,276,6,1,0,1,0,,,,,1,20,56,33,,,,,,down,0.6171439334812021,2469.269815281352,None,001,29,2019_Oct_15_1306,ACPT_experiment_5_30_19,3.1.0,59.95330882960267,
,,,C,U,d,n,R,G,g,L,c ,,,,,13,16,276,6,1,0,1,0,,,,,1,21,57,6,,,,,,up,0.40033391470933566,2471.1712760299215,None,001,29,2019_Oct_15_1306,ACPT_experiment_5_30_19,3.1.0,59.95330882960267,
,,,C,U,d,n,R,D,d,R,c ,,,,,13,16,276,6,1,0,1,0,,,,,1,22,58,1,,,,,,up,1.1975801899407088,2472.875931456625,None,001,29,2019_Oct_15_1306,ACPT_experiment_5_30_19,3.1.0,59.95330882960267,
,,,C,U,d,n,R,U,y,R,u,,,,,13,16,276,6,1,0,1,0,,,,,1,23,59,31,,,,,,down,0.6171596300682722,2475.3578242356507,None,001,29,2019_Oct_15_1306,ACPT_experiment_5_30_19,3.1.0,59.95330882960267,
,,,C,U,d,n,R,D,d,L,c,,,,,13,16,276,6,1,0,1,0,,,,,1,24,60,0,,,,,,up,0.6004566499505017,2477.2592858897933,None,001,29,2019_Oct_15_1306,ACPT_experiment_5_30_19,3.1.0,59.95330882960267,
,,,C,U,d,n,L,D,d,R,c ,,,,,13,16,276,6,1,0,1,0,,,,,1,25,61,13,,,,,,up,0.5504207590984151,2479.1440702217023,None,001,29,2019_Oct_15_1306,ACPT_experiment_5_30_19,3.1.0,59.95330882960267,
,,,C,U,d,n,R,U,y,L,u,,,,,13,16,276,6,1,0,1,0,,,,,1,26,62,30,,,,,,down,0.6338505358871771,2480.9787833454375,None,001,29,2019_Oct_15_1306,ACPT_experiment_5_30_19,3.1.0,59.95330882960267,
,,,C,U,d,n,R,U,d,R,u,,,,,13,16,276,6,1,0,1,0,,,,,1,27,63,9,,,,,,up,0.5003794348140218,2482.8969522057014,None,001,29,2019_Oct_15_1306,ACPT_experiment_5_30_19,3.1.0,59.95330882960267,
,,,C,U,d,n,R,G,y,R,y,,,,,13,16,276,6,1,0,1,0,,,,,1,28,64,29,,,,,,down,0.7505667373607139,2484.698345096718,None,001,29,2019_Oct_15_1306,ACPT_experiment_5_30_19,3.1.0,59.95330882960267,
,,,C,U,d,n,L,G,y,L,y,,,,,13,16,276,6,1,0,1,0,,,,,1,29,65,34,,,,,,down,0.7005236019322183,2486.7499114048387,None,001,29,2019_Oct_15_1306,ACPT_experiment_5_30_19,3.1.0,59.95330882960267,
,,,C,U,d,n,R,G,g,R,c ,,,,,13,16,276,6,1,0,1,0,,,,,1,30,66,7,,,,,,up,0.5003896979687852,2488.7347638961583,None,001,29,2019_Oct_15_1306,ACPT_experiment_5_30_19,3.1.0,59.95330882960267,
,,,C,U,d,n,L,U,d,L,u,,,,,13,16,276,6,1,0,1,0,,,,,1,31,67,20,,,,,,up,0.5504325315396272,2490.519468899929,None,001,29,2019_Oct_15_1306,ACPT_experiment_5_30_19,3.1.0,59.95330882960267,
,,,C,U,d,n,L,U,g,L,u,,,,,13,16,276,6,1,0,1,0,,,,,1,32,68,22,,,,,,up,0.4500981338569545,2492.3544814662546,None,001,29,2019_Oct_15_1306,ACPT_experiment_5_30_19,3.1.0,59.95330882960267,
,,,C,U,d,n,R,G,d,R,i,,,,,13,16,276,6,1,0,1,0,,,,,1,33,69,5,,,,,,up,0.7338900188424304,2494.088881624186,None,001,29,2019_Oct_15_1306,ACPT_experiment_5_30_19,3.1.0,59.95330882960267,
,,,C,U,d,n,L,G,y,R,y,,,,,13,16,276,6,1,0,1,0,,,,,1,34,70,35,,,,,,down,0.5671050240543991,2496.1070981175562,None,001,29,2019_Oct_15_1306,ACPT_experiment_5_30_19,3.1.0,59.95330882960267,
,,,C,U,d,n,R,U,g,L,u,,,,,13,16,276,6,1,0,1,0,,,,,1,35,71,10,,,,,,up,0.600488043124642,2497.9585184474145,None,001,29,2019_Oct_15_1306,ACPT_experiment_5_30_19,3.1.0,59.95330882960267,
,,,C,U,d,n,,,,,,,,,,13,16,276,6,2,0,2,0,0,0,0,0,,,,,,,,,,,,,,001,29,2019_Oct_15_1306,ACPT_experiment_5_30_19,3.1.0,59.95330882960267,
,,,C,U,d,n,L,U,g,R,u,,,,,13,16,276,6,2,0,2,0,,,,,0,0,0,23,,,,,,up,0.9004293016641896,2517.4904504377228,None,001,29,2019_Oct_15_1306,ACPT_experiment_5_30_19,3.1.0,59.95330882960267,
,,,C,U,d,n,L,G,y,L,y,,,,,13,16,276,6,2,0,2,0,,,,,0,1,1,34,,,,,,down,0.9006949362192245,2519.675194743333,None,001,29,2019_Oct_15_1306,ACPT_experiment_5_30_19,3.1.0,59.95330882960267,
,,,C,U,d,n,L,D,y,R,y,,,,,13,16,276,6,2,0,2,0,,,,,0,2,2,33,,,,,,down,0.517087848365918,2521.8601826479044,None,001,29,2019_Oct_15_1306,ACPT_experiment_5_30_19,3.1.0,59.95330882960267,
,,,C,U,d,n,L,U,y,L,u,,,,,13,16,276,6,2,0,2,0,,,,,0,3,3,24,,,,,,down,0.5170633979141712,2523.678273991176,None,001,29,2019_Oct_15_1306,ACPT_experiment_5_30_19,3.1.0,59.95330882960267,
,,,C,U,d,n,R,D,y,L,y,,,,,13,16,276,6,2,0,2,0,,,,,0,4,4,26,,,,,,down,0.4169641471835348,2525.49633907285,None,001,29,2019_Oct_15_1306,ACPT_experiment_5_30_19,3.1.0,59.95330882960267,
,,,C,U,d,n,L,G,d,L,i,,,,,13,16,276,6,2,0,2,0,,,,,0,5,5,16,,,,,,up,0.45032905480729823,2527.1976553524455,None,001,29,2019_Oct_15_1306,ACPT_experiment_5_30_19,3.1.0,59.95330882960267,
,,,C,U,d,n,L,G,y,R,y,,,,,13,16,276,6,2,0,2,0,,,,,0,6,6,35,,,,,,down,0.6004865338363743,2528.932284016466,None,001,29,2019_Oct_15_1306,ACPT_experiment_5_30_19,3.1.0,59.95330882960267,
,,,C,U,d,n,L,U,y,R,u,,,,,13,16,276,6,2,0,2,0,,,,,0,7,7,25,,,,,,down,0.5838158524675237,2530.8504365764293,None,001,29,2019_Oct_15_1306,ACPT_experiment_5_30_19,3.1.0,59.95330882960267,
,,,C,U,d,n,L,G,g,L,c ,,,,,13,16,276,6,2,0,2,0,,,,,0,8,8,18,,,,,,up,0.5170643034853128,2532.718550830681,None,001,29,2019_Oct_15_1306,ACPT_experiment_5_30_19,3.1.0,59.95330882960267,
,,,C,U,d,n,R,D,d,L,c,,,,,13,16,276,6,2,0,2,0,,,,,0,9,9,0,,,,,,up,0.4336635050112818,2534.5199331566855,None,001,29,2019_Oct_15_1306,ACPT_experiment_5_30_19,3.1.0,59.95330882960267,
,,,C,U,d,n,L,D,g,R,i,,,,,13,16,276,6,2,0,2,0,,,,,0,10,10,15,,,,,,up,0.6338626101860427,2536.2379204195095,None,001,29,2019_Oct_15_1306,ACPT_experiment_5_30_19,3.1.0,59.95330882960267,
,,,C,U,d,n,R,G,y,L,y,,,,,13,16,276,6,2,0,2,0,,,,,0,11,11,28,,,,,,down,0.49713899509333714,2538.1760568482096,None,001,29,2019_Oct_15_1306,ACPT_experiment_5_30_19,3.1.0,59.95330882960267,
,,,C,U,d,n,L,D,g,L,i,,,,,13,16,276,6,2,0,2,0,,,,,0,12,12,14,,,,,,up,0.5838369824869005,2539.9574154602924,None,001,29,2019_Oct_15_1306,ACPT_experiment_5_30_19,3.1.0,59.95330882960267,
,,,C,U,d,n,R,G,d,L,i,,,,,13,16,276,6,2,0,2,0,,,,,0,13,13,4,,,,,,up,0.5337473610125016,2541.8255432981296,None,001,29,2019_Oct_15_1306,ACPT_experiment_5_30_19,3.1.0,59.95330882960267,
,,,C,U,d,n,L,D,y,L,y,,,,,13,16,276,6,2,0,2,0,,,,,0,14,14,32,,,,,,down,0.5671231355026976,2543.643583023779,None,001,29,2019_Oct_15_1306,ACPT_experiment_5_30_19,3.1.0,59.95330882960267,
,,,C,U,d,n,R,D,y,R,y,,,,,13,16,276,6,2,0,2,0,,,,,0,15,15,27,,,,,,down,0.6305002200533636,2545.515022237838,None,001,29,2019_Oct_15_1306,ACPT_experiment_5_30_19,3.1.0,59.95330882960267,
,,,C,U,d,n,R,G,y,R,y,,,,,13,16,276,6,2,0,2,0,,,,,0,16,16,29,,,,,,down,0.5669227021553525,2547.4299938239965,None,001,29,2019_Oct_15_1306,ACPT_experiment_5_30_19,3.1.0,59.95330882960267,
,,,C,U,d,n,R,D,g,R,i,,,,,13,16,276,6,2,0,2,0,,,,,0,17,17,3,,,,,,up,0.567089327467329,2549.2812792235745,None,001,29,2019_Oct_15_1306,ACPT_experiment_5_30_19,3.1.0,59.95330882960267,
,,,C,U,d,n,R,D,g,L,i,,,,,13,16,276,6,2,0,2,0,,,,,0,18,18,2,,,,,,up,0.41698769206414,2551.13269502557,None,001,29,2019_Oct_15_1306,ACPT_experiment_5_30_19,3.1.0,59.95330882960267,
,,,C,U,d,n,R,G,g,L,c ,,,,,13,16,276,6,2,0,2,0,,,,,0,19,19,6,,,,,,up,0.4167371503826871,2552.8509222650646,None,001,29,2019_Oct_15_1306,ACPT_experiment_5_30_19,3.1.0,59.95330882960267,
,,,C,U,d,n,R,U,y,L,u,,,,,13,16,276,6,2,0,2,0,,,,,0,20,20,30,,,,,,down,0.7005565043928073,2554.5686677400718,None,001,29,2019_Oct_15_1306,ACPT_experiment_5_30_19,3.1.0,59.95330882960267,
,,,C,U,d,n,R,G,d,R,i,,,,,13,16,276,6,2,0,2,0,,,,,0,21,21,5,,,,,,up,0.650493446371911,2556.5702069112067,None,001,29,2019_Oct_15_1306,ACPT_experiment_5_30_19,3.1.0,59.95330882960267,
,,,C,U,d,n,R,U,g,R,u,,,,,13,16,276,6,2,0,2,0,,,,,0,22,22,11,,,,,,up,0.43366531615538406,2558.5050313599695,None,001,29,2019_Oct_15_1306,ACPT_experiment_5_30_19,3.1.0,59.95330882960267,
,,,C,U,d,n,L,D,d,L,c ,,,,,13,16,276,6,2,0,2,0,,,,,0,23,23,12,,,,,,up,0.3969980880337971,2560.2429967562384,None,001,29,2019_Oct_15_1306,ACPT_experiment_5_30_19,3.1.0,59.95330882960267,
,,,C,U,d,n,R,U,d,L,u,,,,,13,16,276,6,2,0,2,0,,,,,0,24,24,8,,,,,,up,0.4503317715225421,2561.9243237336614,None,001,29,2019_Oct_15_1306,ACPT_experiment_5_30_19,3.1.0,59.95330882960267,
,,,C,U,d,n,L,U,g,L,u,,,,,13,16,276,6,2,0,2,0,,,,,0,25,25,22,,,,,,up,0.48372022402691073,2563.6589626608366,None,001,29,2019_Oct_15_1306,ACPT_experiment_5_30_19,3.1.0,59.95330882960267,
,,,C,U,d,n,L,U,d,R,u,,,,,13,16,276,6,2,0,2,0,,,,,0,26,26,21,,,,,,up,0.5170585681935336,2565.427007850105,None,001,29,2019_Oct_15_1306,ACPT_experiment_5_30_19,3.1.0,59.95330882960267,
,,,C,U,d,n,R,U,y,R,u,,,,,13,16,276,6,2,0,2,0,,,,,0,27,27,31,,,,,,down,0.567148491527405,2567.2450536129018,None,001,29,2019_Oct_15_1306,ACPT_experiment_5_30_19,3.1.0,59.95330882960267,
,,,C,U,d,n,L,G,d,R,i,,,,,13,16,276,6,2,0,2,0,,,,,0,28,28,17,,,,,,up,0.6671819373314065,2569.0964866207723,None,001,29,2019_Oct_15_1306,ACPT_experiment_5_30_19,3.1.0,59.95330882960267,
,,,C,U,d,n,R,G,g,R,c ,,,,,13,16,276,6,2,0,2,0,,,,,0,29,29,7,,,,,,up,0.4503797668567131,2571.0479838639076,None,001,29,2019_Oct_15_1306,ACPT_experiment_5_30_19,3.1.0,59.95330882960267,
,,,C,U,d,n,R,U,g,L,u,,,,,13,16,276,6,2,0,2,0,,,,,0,30,30,10,,,,,,up,0.4336641087265889,2572.7659723341603,None,001,29,2019_Oct_15_1306,ACPT_experiment_5_30_19,3.1.0,59.95330882960267,
,,,C,U,d,n,L,D,d,R,c ,,,,,13,16,276,6,2,0,2,0,,,,,0,31,31,13,,,,,,up,0.41366756197567156,2574.5039597660234,None,001,29,2019_Oct_15_1306,ACPT_experiment_5_30_19,3.1.0,59.95330882960267,
,,,C,U,d,n,R,D,d,R,c ,,,,,13,16,276,6,2,0,2,0,,,,,0,32,32,1,,,,,,up,0.43366441058424243,2576.2019504820964,None,001,29,2019_Oct_15_1306,ACPT_experiment_5_30_19,3.1.0,59.95330882960267,
,,,C,U,d,n,R,U,d,R,u,,,,,13,16,276,6,2,0,2,0,,,,,0,33,33,9,,,,,,up,0.48370362186688,2577.919931707769,None,001,29,2019_Oct_15_1306,ACPT_experiment_5_30_19,3.1.0,59.95330882960267,
,,,C,U,d,n,L,G,g,R,c ,,,,,13,16,276,6,2,0,2,0,,,,,0,34,34,19,,,,,,up,0.48371448873513145,2579.6879424852887,None,001,29,2019_Oct_15_1306,ACPT_experiment_5_30_19,3.1.0,59.95330882960267,
,,,C,U,d,n,L,U,d,L,u,,,,,13,16,276,6,2,0,2,0,,,,,0,35,35,20,,,,,,up,0.5003628326539911,2581.472674958086,None,001,29,2019_Oct_15_1306,ACPT_experiment_5_30_19,3.1.0,59.95330882960267,
,,,C,U,d,n,R,D,d,R,c ,,,,,13,16,276,6,2,0,2,0,,,,,1,0,36,1,,,,,,up,0.6171415186199738,2583.2573681894155,None,001,29,2019_Oct_15_1306,ACPT_experiment_5_30_19,3.1.0,59.95330882960267,
,,,C,U,d,n,R,D,y,R,y,,,,,13,16,276,6,2,0,2,0,,,,,1,1,37,27,,,,,,down,0.5337899229107279,2585.142125354154,None,001,29,2019_Oct_15_1306,ACPT_experiment_5_30_19,3.1.0,59.95330882960267,
,,,C,U,d,n,L,U,g,R,u,,,,,13,16,276,6,2,0,2,0,,,,,1,2,38,23,,,,,,up,0.48368792527980986,2586.960225451292,None,001,29,2019_Oct_15_1306,ACPT_experiment_5_30_19,3.1.0,59.95330882960267,
,,,C,U,d,n,L,G,g,L,c ,,,,,13,16,276,6,2,0,2,0,,,,,1,3,39,18,,,,,,up,0.46656777816497197,2588.7453400756203,None,001,29,2019_Oct_15_1306,ACPT_experiment_5_30_19,3.1.0,59.95330882960267,
,,,C,U,d,n,R,G,g,R,c ,,,,,13,16,276,6,2,0,2,0,,,,,1,4,40,7,,,,,,up,0.40031399211875396,2590.479581456533,None,001,29,2019_Oct_15_1306,ACPT_experiment_5_30_19,3.1.0,59.95330882960267,
,,,C,U,d,n,L,U,d,L,u,,,,,13,16,276,6,2,0,2,0,,,,,1,5,41,20,,,,,,up,0.35024489694842487,2592.1642240361834,None,001,29,2019_Oct_15_1306,ACPT_experiment_5_30_19,3.1.0,59.95330882960267,
,,,C,U,d,n,R,U,g,L,u,,,,,13,16,276,6,2,0,2,0,,,,,1,6,42,10,,,,,,up,0.4003070493963605,2593.798795105804,None,001,29,2019_Oct_15_1306,ACPT_experiment_5_30_19,3.1.0,59.95330882960267,
,,,C,U,d,n,R,G,y,L,y,,,,,13,16,276,6,2,0,2,0,,,,,1,7,43,28,,,,,,down,0.6502338489663089,2595.500368266088,None,001,29,2019_Oct_15_1306,ACPT_experiment_5_30_19,3.1.0,59.95330882960267,
,,,C,U,d,n,R,U,y,R,u,,,,,13,16,276,6,2,0,2,0,,,,,1,8,44,31,,,,,,down,0.5837974391615717,2597.418215950027,None,001,29,2019_Oct_15_1306,ACPT_experiment_5_30_19,3.1.0,59.95330882960267,
,,,C,U,d,n,L,G,d,L,i,,,,,13,16,276,6,2,0,2,0,,,,,1,9,45,16,,,,,,up,0.5337482665836433,2599.286341976718,None,001,29,2019_Oct_15_1306,ACPT_experiment_5_30_19,3.1.0,59.95330882960267,
,,,C,U,d,n,R,G,g,L,c ,,,,,13,16,276,6,2,0,2,0,,,,,1,10,46,6,,,,,,up,0.5337440405801317,2601.104406152821,None,001,29,2019_Oct_15_1306,ACPT_experiment_5_30_19,3.1.0,59.95330882960267,
,,,C,U,d,n,L,U,y,R,u,,,,,13,16,276,6,2,0,2,0,,,,,1,11,47,25,,,,,,down,0.6004792892581463,2602.9224661029166,None,001,29,2019_Oct_15_1306,ACPT_experiment_5_30_19,3.1.0,59.95330882960267,
,,,C,U,d,n,R,U,y,L,u,,,,,13,16,276,6,2,0,2,0,,,,,1,12,48,30,,,,,,down,0.6838142828073615,2604.8239736393916,None,001,29,2019_Oct_15_1306,ACPT_experiment_5_30_19,3.1.0,59.95330882960267,
,,,C,U,d,n,L,D,d,L,c ,,,,,13,16,276,6,2,0,2,0,,,,,1,13,49,12,,,,,,up,0.5504117033760849,2606.80879202082,None,001,29,2019_Oct_15_1306,ACPT_experiment_5_30_19,3.1.0,59.95330882960267,
,,,C,U,d,n,L,D,d,R,c ,,,,,13,16,276,6,2,0,2,0,,,,,1,14,50,13,,,,,,up,0.550427399963155,2608.643524463432,None,001,29,2019_Oct_15_1306,ACPT_experiment_5_30_19,3.1.0,59.95330882960267,
,,,C,U,d,n,L,G,y,L,y,,,,,13,16,276,6,2,0,2,0,,,,,1,15,51,34,,,,,,down,0.6171333684687852,2610.478288601078,None,001,29,2019_Oct_15_1306,ACPT_experiment_5_30_19,3.1.0,59.95330882960267,
,,,C,U,d,n,L,U,y,L,u,,,,,13,16,276,6,2,0,2,0,,,,,1,16,52,24,,,,,,down,0.5337540018754225,2612.3797291251976,None,001,29,2019_Oct_15_1306,ACPT_experiment_5_30_19,3.1.0,59.95330882960267,
,,,C,U,d,n,L,U,g,L,u,,,,,13,16,276,6,2,0,2,0,,,,,1,17,53,22,,,,,,up,0.517065510915927,2614.197794810587,None,001,29,2019_Oct_15_1306,ACPT_experiment_5_30_19,3.1.0,59.95330882960267,
,,,C,U,d,n,R,U,g,R,u,,,,,13,16,276,6,2,0,2,0,,,,,1,18,54,11,,,,,,up,0.5003890942534781,2615.9991759291624,None,001,29,2019_Oct_15_1306,ACPT_experiment_5_30_19,3.1.0,59.95330882960267,
,,,C,U,d,n,R,D,g,L,i,,,,,13,16,276,6,2,0,2,0,,,,,1,19,55,2,,,,,,up,0.3835388680709002,2617.783963641874,None,001,29,2019_Oct_15_1306,ACPT_experiment_5_30_19,3.1.0,59.95330882960267,
,,,C,U,d,n,L,D,g,L,i,,,,,13,16,276,6,2,0,2,0,,,,,1,20,56,14,,,,,,up,0.4837310908951622,2619.451829588188,None,001,29,2019_Oct_15_1306,ACPT_experiment_5_30_19,3.1.0,59.95330882960267,
,,,C,U,d,n,L,U,d,R,u,,,,,13,16,276,6,2,0,2,0,,,,,1,21,57,21,,,,,,up,0.7837457007954072,2621.2367184231443,None,001,29,2019_Oct_15_1306,ACPT_experiment_5_30_19,3.1.0,59.95330882960267,
,,,C,U,d,n,R,U,d,R,u,,,,,13,16,276,6,2,0,2,0,,,,,1,22,58,9,,,,,,up,0.5003727939492819,2623.304796031902,None,001,29,2019_Oct_15_1306,ACPT_experiment_5_30_19,3.1.0,59.95330882960267,
,,,C,U,d,n,L,G,d,R,i,,,,,13,16,276,6,2,0,2,0,,,,,1,23,59,17,,,,,,up,0.45035048668614763,2625.0894937910944,None,001,29,2019_Oct_15_1306,ACPT_experiment_5_30_19,3.1.0,59.95330882960267,
,,,C,U,d,n,R,G,d,L,i,,,,,13,16,276,6,2,0,2,0,,,,,1,24,60,4,,,,,,up,0.5504258906748873,2626.824156565006,None,001,29,2019_Oct_15_1306,ACPT_experiment_5_30_19,3.1.0,59.95330882960267,
,,,C,U,d,n,L,D,y,L,y,,,,,13,16,276,6,2,0,2,0,,,,,1,25,61,32,,,,,,down,0.9005156328967132,2628.675722390155,None,001,29,2019_Oct_15_1306,ACPT_experiment_5_30_19,3.1.0,59.95330882960267,
,,,C,U,d,n,L,D,g,R,i,,,,,13,16,276,6,2,0,2,0,,,,,1,26,62,15,,,,,,up,1.0675098148949473,2630.877250271822,None,001,29,2019_Oct_15_1306,ACPT_experiment_5_30_19,3.1.0,59.95330882960267,
,,,C,U,d,n,R,G,y,R,y,,,,,13,16,276,6,2,0,2,0,,,,,1,27,63,29,,,,,,down,0.717228393194091,2633.245765996482,None,001,29,2019_Oct_15_1306,ACPT_experiment_5_30_19,3.1.0,59.95330882960267,
,,,C,U,d,n,R,D,g,R,i,,,,,13,16,276,6,2,0,2,0,,,,,1,28,64,3,,,,,,up,0.6338013331242109,2635.263998790155,None,001,29,2019_Oct_15_1306,ACPT_experiment_5_30_19,3.1.0,59.95330882960267,
,,,C,U,d,n,R,G,d,R,i,,,,,13,16,276,6,2,0,2,0,,,,,1,29,65,5,,,,,,up,0.45018567251645436,2637.182273602384,None,001,29,2019_Oct_15_1306,ACPT_experiment_5_30_19,3.1.0,59.95330882960267,
,,,C,U,d,n,R,D,y,L,y,,,,,13,16,276,6,2,0,2,0,,,,,1,30,66,26,,,,,,down,0.600476874398737,2638.916764015694,None,001,29,2019_Oct_15_1306,ACPT_experiment_5_30_19,3.1.0,59.95330882960267,
,,,C,U,d,n,R,U,d,L,u,,,,,13,16,276,6,2,0,2,0,,,,,1,31,67,8,,,,,,up,0.48343195016241225,2640.8185136418433,None,001,29,2019_Oct_15_1306,ACPT_experiment_5_30_19,3.1.0,59.95330882960267,
,,,C,U,d,n,L,D,y,R,y,,,,,13,16,276,6,2,0,2,0,,,,,1,32,68,33,,,,,,down,0.600310550944414,2642.5863840556467,None,001,29,2019_Oct_15_1306,ACPT_experiment_5_30_19,3.1.0,59.95330882960267,
,,,C,U,d,n,L,G,y,R,y,,,,,13,16,276,6,2,0,2,0,,,,,1,33,69,35,,,,,,down,0.5337171752671566,2644.4710726987432,None,001,29,2019_Oct_15_1306,ACPT_experiment_5_30_19,3.1.0,59.95330882960267,
,,,C,U,d,n,R,D,d,L,c,,,,,13,16,276,6,2,0,2,0,,,,,1,34,70,0,,,,,,up,0.5337470591530291,2646.2891069909583,None,001,29,2019_Oct_15_1306,ACPT_experiment_5_30_19,3.1.0,59.95330882960267,
,,,C,U,d,n,L,G,g,R,c ,,,,,13,16,276,6,2,0,2,0,,,,,1,35,71,19,,,,,,up,0.5470954974334745,2648.127177373248,None,001,29,2019_Oct_15_1306,ACPT_experiment_5_30_19,3.1.0,59.95330882960267,
,,,C,U,d,n,,,,,,,,,,13,16,276,6,3,0,3,0,0,0,0,0,,,,,,,,,,,,,,001,29,2019_Oct_15_1306,ACPT_experiment_5_30_19,3.1.0,59.95330882960267,
,,,C,U,d,n,L,G,y,L,y,,,,,13,16,276,6,3,0,3,0,,,,,0,0,0,34,,,,,,down,0.6502211709539552,2658.5154448382673,None,001,29,2019_Oct_15_1306,ACPT_experiment_5_30_19,3.1.0,59.95330882960267,
,,,C,U,d,n,R,G,g,L,c ,,,,,13,16,276,6,3,0,3,0,,,,,0,1,1,6,,,,,,up,0.5170661146312341,2660.4499885596015,None,001,29,2019_Oct_15_1306,ACPT_experiment_5_30_19,3.1.0,59.95330882960267,
,,,C,U,d,n,R,U,d,L,u,,,,,13,16,276,6,3,0,3,0,,,,,0,2,2,8,,,,,,up,0.5004056964116899,2662.251367867033,None,001,29,2019_Oct_15_1306,ACPT_experiment_5_30_19,3.1.0,59.95330882960267,
,,,C,U,d,n,R,U,g,R,u,,,,,13,16,276,6,3,0,3,0,,,,,0,3,3,11,,,,,,up,0.5504023457942822,2664.0360927933943,None,001,29,2019_Oct_15_1306,ACPT_experiment_5_30_19,3.1.0,59.95330882960267,
,,,C,U,d,n,L,G,d,L,i,,,,,13,16,276,6,3,0,3,0,,,,,0,4,4,16,,,,,,up,0.38362127515574684,2665.870819198857,None,001,29,2019_Oct_15_1306,ACPT_experiment_5_30_19,3.1.0,59.95330882960267,
,,,C,U,d,n,R,G,y,L,y,,,,,13,16,276,6,3,0,3,0,,,,,0,5,5,28,,,,,,down,0.5170646053429664,2667.5387624206796,None,001,29,2019_Oct_15_1306,ACPT_experiment_5_30_19,3.1.0,59.95330882960267,
,,,C,U,d,n,R,U,y,R,u,,,,,13,16,276,6,3,0,3,0,,,,,0,6,6,31,,,,,,down,0.7672630766155635,2669.356830822784,None,001,29,2019_Oct_15_1306,ACPT_experiment_5_30_19,3.1.0,59.95330882960267,
,,,C,U,d,n,R,D,y,R,y,,,,,13,16,276,6,3,0,3,0,,,,,0,7,7,27,,,,,,down,0.5003893961093127,2671.44175690695,None,001,29,2019_Oct_15_1306,ACPT_experiment_5_30_19,3.1.0,59.95330882960267,
,,,C,U,d,n,R,D,d,L,c,,,,,13,16,276,6,3,0,3,0,,,,,0,8,8,0,,,,,,up,0.867307691147289,2673.2264827388844,None,001,29,2019_Oct_15_1306,ACPT_experiment_5_30_19,3.1.0,59.95330882960267,
,,,C,U,d,n,L,G,g,R,c ,,,,,13,16,276,6,3,0,3,0,,,,,0,9,9,19,,,,,,up,0.567078158741424,2675.378142260586,None,001,29,2019_Oct_15_1306,ACPT_experiment_5_30_19,3.1.0,59.95330882960267,
,,,C,U,d,n,L,D,y,L,y,,,,,13,16,276,6,3,0,3,0,,,,,0,10,10,32,,,,,,up,0.38363002902042354,2677.229535121416,None,001,29,2019_Oct_15_1306,ACPT_experiment_5_30_19,3.1.0,59.95330882960267,
,,,C,U,d,n,L,U,g,R,u,,,,,13,16,276,6,3,0,3,0,,,,,0,11,11,23,,,,,,up,1.0338632742714253,2678.9144369966143,None,001,29,2019_Oct_15_1306,ACPT_experiment_5_30_19,3.1.0,59.95330882960267,
,,,C,U,d,n,L,G,y,R,y,,,,,13,16,276,6,3,0,3,0,,,,,0,12,12,35,,,,,,down,0.5838049855974532,2681.232593842953,None,001,29,2019_Oct_15_1306,ACPT_experiment_5_30_19,3.1.0,59.95330882960267,
,,,C,U,d,n,L,U,d,R,u,,,,,13,16,276,6,3,0,3,0,,,,,0,13,13,21,,,,,,up,0.5003703790898726,2683.1007250012226,None,001,29,2019_Oct_15_1306,ACPT_experiment_5_30_19,3.1.0,59.95330882960267,
,,,C,U,d,n,R,G,d,R,i,,,,,13,16,276,6,3,0,3,0,,,,,0,14,14,5,,,,,,up,0.5337319662812661,2684.8854309105645,None,001,29,2019_Oct_15_1306,ACPT_experiment_5_30_19,3.1.0,59.95330882960267,
,,,C,U,d,n,L,G,g,L,c ,,,,,13,16,276,6,3,0,3,0,,,,,0,15,15,18,,,,,,up,0.6338200482859975,2686.703484521655,None,001,29,2019_Oct_15_1306,ACPT_experiment_5_30_19,3.1.0,59.95330882960267,
,,,C,U,d,n,R,G,g,R,c ,,,,,13,16,276,6,3,0,3,0,,,,,0,16,16,7,,,,,,up,0.5170519273306127,2688.6049516092316,None,001,29,2019_Oct_15_1306,ACPT_experiment_5_30_19,3.1.0,59.95330882960267,
,,,C,U,d,n,L,U,y,L,u,,,,,13,16,276,6,3,0,3,0,,,,,0,17,17,24,,,,,,down,0.4670184513397544,2690.4063297092325,None,001,29,2019_Oct_15_1306,ACPT_experiment_5_30_19,3.1.0,59.95330882960267,
,,,C,U,d,n,L,G,d,R,i,,,,,13,16,276,6,3,0,3,0,,,,,0,18,18,17,,,,,,up,0.7001532228423457,2692.174736825582,None,001,29,2019_Oct_15_1306,ACPT_experiment_5_30_19,3.1.0,59.95330882960267,
,,,C,U,d,n,R,D,y,L,y,,,,,13,16,276,6,3,0,3,0,,,,,0,19,19,26,,,,,,down,0.7339023949971306,2694.159207467228,None,001,29,2019_Oct_15_1306,ACPT_experiment_5_30_19,3.1.0,59.95330882960267,
,,,C,U,d,n,R,D,d,R,c ,,,,,13,16,276,6,3,0,3,0,,,,,0,20,20,1,,,,,,up,0.6004705353916506,2696.17743905347,None,001,29,2019_Oct_15_1306,ACPT_experiment_5_30_19,3.1.0,59.95330882960267,
,,,C,U,d,n,L,D,y,R,y,,,,,13,16,276,6,3,0,3,0,,,,,0,21,21,33,,,,,,down,0.6338227650030603,2698.062208896221,None,001,29,2019_Oct_15_1306,ACPT_experiment_5_30_19,3.1.0,59.95330882960267,
,,,C,U,d,n,L,U,g,L,u,,,,,13,16,276,6,3,0,3,0,,,,,0,22,22,22,,,,,,up,0.6171858916659403,2699.980344250309,None,001,29,2019_Oct_15_1306,ACPT_experiment_5_30_19,3.1.0,59.95330882960267,
,,,C,U,d,n,R,D,g,L,i,,,,,13,16,276,6,3,0,3,0,,,,,0,23,23,2,,,,,,up,0.5504310222513595,2701.881802885877,None,001,29,2019_Oct_15_1306,ACPT_experiment_5_30_19,3.1.0,59.95330882960267,
,,,C,U,d,n,R,U,d,R,u,,,,,13,16,276,6,3,0,3,0,,,,,0,24,24,9,,,,,,up,1.267636776137806,2703.716554043651,None,001,29,2019_Oct_15_1306,ACPT_experiment_5_30_19,3.1.0,59.95330882960267,
,,,C,U,d,n,R,U,g,L,u,,,,,13,16,276,6,3,0,3,0,,,,,0,25,25,10,,,,,,up,0.5004452397388377,2706.2518058621918,None,001,29,2019_Oct_15_1306,ACPT_experiment_5_30_19,3.1.0,59.95330882960267,
,,,C,U,d,n,R,U,y,L,u,,,,,13,16,276,6,3,0,3,0,,,,,0,26,26,30,,,,,,down,0.5170519273306127,2708.036544070281,None,001,29,2019_Oct_15_1306,ACPT_experiment_5_30_19,3.1.0,59.95330882960267,
,,,C,U,d,n,R,D,g,R,i,,,,,13,16,276,6,3,0,3,0,,,,,0,27,27,3,,,,,,up,0.3836267085880536,2709.8545991906594,None,001,29,2019_Oct_15_1306,ACPT_experiment_5_30_19,3.1.0,59.95330882960267,
,,,C,U,d,n,L,U,y,R,u,,,,,13,16,276,6,3,0,3,0,,,,,0,28,28,25,,,,,,down,0.5835393510442373,2711.5394929157064,None,001,29,2019_Oct_15_1306,ACPT_experiment_5_30_19,3.1.0,59.95330882960267,
,,,C,U,d,n,L,U,d,L,u,,,,,13,16,276,6,3,0,3,0,,,,,0,29,29,20,,,,,,up,0.5003800385293289,2713.4073273481026,None,001,29,2019_Oct_15_1306,ACPT_experiment_5_30_19,3.1.0,59.95330882960267,
,,,C,U,d,n,R,G,y,R,y,,,,,13,16,276,6,3,0,3,0,,,,,0,30,30,29,,,,,,down,0.7172347322011774,2715.192014240427,None,001,29,2019_Oct_15_1306,ACPT_experiment_5_30_19,3.1.0,59.95330882960267,
,,,C,U,d,n,L,D,d,L,c ,,,,,13,16,276,6,3,0,3,0,,,,,0,31,31,12,,,,,,up,0.7005392985211074,2717.1935712211525,None,001,29,2019_Oct_15_1306,ACPT_experiment_5_30_19,3.1.0,59.95330882960267,
,,,C,U,d,n,L,D,g,R,i,,,,,13,16,276,6,3,0,3,0,,,,,0,32,32,15,,,,,,up,0.6838604669974302,2719.1617430698043,None,001,29,2019_Oct_15_1306,ACPT_experiment_5_30_19,3.1.0,59.95330882960267,
,,,C,U,d,n,R,G,d,L,i,,,,,13,16,276,6,3,0,3,0,,,,,0,33,33,4,,,,,,up,0.4670510519426898,2721.129928502043,None,001,29,2019_Oct_15_1306,ACPT_experiment_5_30_19,3.1.0,59.95330882960267,
,,,C,U,d,n,L,D,d,R,c ,,,,,13,16,276,6,3,0,3,0,,,,,0,34,34,13,,,,,,up,0.5337573223059735,2722.8812818799197,None,001,29,2019_Oct_15_1306,ACPT_experiment_5_30_19,3.1.0,59.95330882960267,
,,,C,U,d,n,L,D,g,L,i,,,,,13,16,276,6,3,0,3,0,,,,,0,35,35,14,,,,,,up,0.43342805620159197,2724.6996014274227,None,001,29,2019_Oct_15_1306,ACPT_experiment_5_30_19,3.1.0,59.95330882960267,
,,,C,U,d,n,R,D,g,R,i,,,,,13,16,276,6,3,0,3,0,,,,,1,0,36,3,,,,,,up,0.48371901659811556,2726.417321848261,None,001,29,2019_Oct_15_1306,ACPT_experiment_5_30_19,3.1.0,59.95330882960267,
,,,C,U,d,n,L,U,g,L,u,,,,,13,16,276,6,3,0,3,0,,,,,1,1,37,22,,,,,,up,0.4003016159640538,2728.185354661373,None,001,29,2019_Oct_15_1306,ACPT_experiment_5_30_19,3.1.0,59.95330882960267,
,,,C,U,d,n,R,G,y,R,y,,,,,13,16,276,6,3,0,3,0,,,,,1,2,38,29,,,,,,down,0.9674135827408463,2729.86997037571,None,001,29,2019_Oct_15_1306,ACPT_experiment_5_30_19,3.1.0,59.95330882960267,
,,,C,U,d,n,R,D,d,R,c ,,,,,13,16,276,6,3,0,3,0,,,,,1,3,39,1,,,,,,up,0.8840052378309338,2732.121703792114,None,001,29,2019_Oct_15_1306,ACPT_experiment_5_30_19,3.1.0,59.95330882960267,
,,,C,U,d,n,L,U,y,R,u,,,,,13,16,276,6,3,0,3,0,,,,,1,4,40,25,,,,,,down,0.6838806914474844,2734.2900128651636,None,001,29,2019_Oct_15_1306,ACPT_experiment_5_30_19,3.1.0,59.95330882960267,
,,,C,U,d,n,L,G,y,L,y,,,,,13,16,276,6,3,0,3,0,,,,,1,5,41,34,,,,,,down,1.1675631832931685,2736.2748934292267,None,001,29,2019_Oct_15_1306,ACPT_experiment_5_30_19,3.1.0,59.95330882960267,
,,,C,U,d,n,L,U,d,L,u,,,,,13,16,276,6,3,0,3,0,,,,,1,6,42,20,,,,,,up,0.6004811004022486,2738.7601558429633,None,001,29,2019_Oct_15_1306,ACPT_experiment_5_30_19,3.1.0,59.95330882960267,
,,,C,U,d,n,L,D,y,L,y,,,,,13,16,276,6,3,0,3,0,,,,,1,7,43,32,,,,,,down,0.6838387332609273,2740.6616141766735,None,001,29,2019_Oct_15_1306,ACPT_experiment_5_30_19,3.1.0,59.95330882960267,
,,,C,U,d,n,L,U,d,R,u,,,,,13,16,276,6,3,0,3,0,,,,,1,8,44,21,,,,,,up,0.6338245761453436,2742.6297691213113,None,001,29,2019_Oct_15_1306,ACPT_experiment_5_30_19,3.1.0,59.95330882960267,
,,,C,U,d,n,R,G,y,L,y,,,,,13,16,276,6,3,0,3,0,,,,,1,9,45,28,,,,,,down,0.5502701322311623,2744.5647294059254,None,001,29,2019_Oct_15_1306,ACPT_experiment_5_30_19,3.1.0,59.95330882960267,
,,,C,U,d,n,L,G,g,R,c ,,,,,13,16,276,6,3,0,3,0,,,,,1,10,46,19,,,,,,up,0.6838634855721466,2746.416016918505,None,001,29,2019_Oct_15_1306,ACPT_experiment_5_30_19,3.1.0,59.95330882960267,
,,,C,U,d,n,R,U,g,R,u,,,,,13,16,276,6,3,0,3,0,,,,,1,11,47,11,,,,,,up,0.8339953067206807,2748.384185748584,None,001,29,2019_Oct_15_1306,ACPT_experiment_5_30_19,3.1.0,59.95330882960267,
,,,C,U,d,n,L,D,y,R,y,,,,,13,16,276,6,3,0,3,0,,,,,1,12,48,33,,,,,,down,0.6169063716661185,2750.5194036987195,None,001,29,2019_Oct_15_1306,ACPT_experiment_5_30_19,3.1.0,59.95330882960267,
,,,C,U,d,n,R,U,y,R,u,,,,,13,16,276,6,3,0,3,0,,,,,1,13,49,31,,,,,,down,0.6170968437181727,2752.420673975239,None,001,29,2019_Oct_15_1306,ACPT_experiment_5_30_19,3.1.0,59.95330882960267,
,,,C,U,d,n,L,U,y,L,u,,,,,13,16,276,6,3,0,3,0,,,,,1,14,50,24,,,,,,down,0.6671798243314697,2754.322085219188,None,001,29,2019_Oct_15_1306,ACPT_experiment_5_30_19,3.1.0,59.95330882960267,
,,,C,U,d,n,R,G,g,R,c ,,,,,13,16,276,6,3,0,3,0,,,,,1,15,51,7,,,,,,up,0.5670929497555335,2756.2735924236185,None,001,29,2019_Oct_15_1306,ACPT_experiment_5_30_19,3.1.0,59.95330882960267,
,,,C,U,d,n,R,D,d,L,c,,,,,13,16,276,6,3,0,3,0,,,,,1,16,52,0,,,,,,up,0.4169783344841562,2758.1250130553344,None,001,29,2019_Oct_15_1306,ACPT_experiment_5_30_19,3.1.0,59.95330882960267,
,,,C,U,d,n,R,D,g,L,i,,,,,13,16,276,6,3,0,3,0,,,,,1,17,53,2,,,,,,up,0.4503909355844371,2759.8096151860864,None,001,29,2019_Oct_15_1306,ACPT_experiment_5_30_19,3.1.0,59.95330882960267,
,,,C,U,d,n,R,D,y,L,y,,,,,13,16,276,6,3,0,3,0,,,,,1,18,54,26,,,,,,down,0.6172124551212619,2761.561001164566,None,001,29,2019_Oct_15_1306,ACPT_experiment_5_30_19,3.1.0,59.95330882960267,
,,,C,U,d,n,L,D,d,L,c ,,,,,13,16,276,6,3,0,3,0,,,,,1,19,55,12,,,,,,up,0.41673443366380525,2763.4960459692666,None,001,29,2019_Oct_15_1306,ACPT_experiment_5_30_19,3.1.0,59.95330882960267,
,,,C,U,d,n,R,G,d,R,i,,,,,13,16,276,6,3,0,3,0,,,,,1,20,56,5,,,,,,up,0.5504153256642894,2765.1971035570277,None,001,29,2019_Oct_15_1306,ACPT_experiment_5_30_19,3.1.0,59.95330882960267,
,,,C,U,d,n,L,G,d,L,i,,,,,13,16,276,6,3,0,3,0,,,,,1,21,57,16,,,,,,up,0.4336746737371868,2767.031842338645,None,001,29,2019_Oct_15_1306,ACPT_experiment_5_30_19,3.1.0,59.95330882960267,
,,,C,U,d,n,R,U,d,R,u,,,,,13,16,276,6,3,0,3,0,,,,,1,22,58,9,,,,,,up,0.667203972925563,2768.7498359404763,None,001,29,2019_Oct_15_1306,ACPT_experiment_5_30_19,3.1.0,59.95330882960267,
,,,C,U,d,n,R,U,d,L,u,,,,,13,16,276,6,3,0,3,0,,,,,1,23,59,8,,,,,,up,0.5501590486892383,2770.701592781019,None,001,29,2019_Oct_15_1306,ACPT_experiment_5_30_19,3.1.0,59.95330882960267,
,,,C,U,d,n,R,U,y,L,u,,,,,13,16,276,6,3,0,3,0,,,,,1,24,60,30,,,,,,down,0.6838818988762796,2772.5193753241183,None,001,29,2019_Oct_15_1306,ACPT_experiment_5_30_19,3.1.0,59.95330882960267,
,,,C,U,d,n,L,D,d,R,c ,,,,,13,16,276,6,3,0,3,0,,,,,1,25,61,13,,,,,,up,0.4837045274398406,2774.48757101951,None,001,29,2019_Oct_15_1306,ACPT_experiment_5_30_19,3.1.0,59.95330882960267,
,,,C,U,d,n,R,U,g,L,u,,,,,13,16,276,6,3,0,3,0,,,,,1,26,62,10,,,,,,up,0.36694999006977014,2776.255599002903,None,001,29,2019_Oct_15_1306,ACPT_experiment_5_30_19,3.1.0,59.95330882960267,
,,,C,U,d,n,L,G,y,R,y,,,,,13,16,276,6,3,0,3,0,,,,,1,27,63,35,,,,,,down,0.6669549405305588,2777.923789144119,None,001,29,2019_Oct_15_1306,ACPT_experiment_5_30_19,3.1.0,59.95330882960267,
,,,C,U,d,n,R,G,g,L,c ,,,,,13,16,276,6,3,0,3,0,,,,,1,28,64,6,,,,,,up,0.4836984902904078,2779.8750436938644,None,001,29,2019_Oct_15_1306,ACPT_experiment_5_30_19,3.1.0,59.95330882960267,
,,,C,U,d,n,L,G,g,L,c ,,,,,13,16,276,6,3,0,3,0,,,,,1,29,65,18,,,,,,up,0.4837021125786123,2781.6430680549693,None,001,29,2019_Oct_15_1306,ACPT_experiment_5_30_19,3.1.0,59.95330882960267,
,,,C,U,d,n,L,D,g,R,i,,,,,13,16,276,6,3,0,3,0,,,,,1,30,66,15,,,,,,up,0.6504937482295645,2783.411097245791,None,001,29,2019_Oct_15_1306,ACPT_experiment_5_30_19,3.1.0,59.95330882960267,
,,,C,U,d,n,L,U,g,R,u,,,,,13,16,276,6,3,0,3,0,,,,,1,31,67,23,,,,,,up,0.4836999995768565,2785.3459153555486,None,001,29,2019_Oct_15_1306,ACPT_experiment_5_30_19,3.1.0,59.95330882960267,
