facing_vig,person_vig,text_vig,facing_train,person_train,food_train,correct_key_train,facing_exp,person_exp,food_exp,showL_R,consistent,vig_random.thisRepN,vig_random.thisTrialN,vig_random.thisN,vig_random.thisIndex,trainTrials.thisRepN,trainTrials.thisTrialN,trainTrials.thisN,trainTrials.thisIndex,expBlock.thisRepN,expBlock.thisTrialN,expBlock.thisN,expBlock.thisIndex,breakLoop.thisRepN,breakLoop.thisTrialN,breakLoop.thisN,breakLoop.thisIndex,expTrials.thisRepN,expTrials.thisTrialN,expTrials.thisN,expTrials.thisIndex,train_resp.keys,train_resp.corr,train_resp.rt,train_resp.started,train_resp.stopped,exp_resp.keys,exp_resp.rt,exp_resp.started,exp_resp.stopped,session,participant,date,expName,psychopyVersion,frameRate
C,G,"cannot eat dairy products because she is lactose intolerant. She enjoys eating wheat products. She thinks eating insects, like crickets, is disgusting.",,,,,,,,,,0,0,0,0,,,,,,,,,,,,,,,,,,,,,,,,,,1,2,2019_Jun_04_1204,ACPT_experiment_5_30_19,3.1.0,59.95670855
C,U,"did not report her food preferences, so her food preferences are unknown.",,,,,,,,,,0,1,1,2,,,,,,,,,,,,,,,,,,,,,,,,,,1,2,2019_Jun_04_1204,ACPT_experiment_5_30_19,3.1.0,59.95670855
C,D,"is allergic to gluten, meaning she can’t eat wheat products. She enjoys eating dairy products. She thinks eating insects, like crickets, is disgusting.",,,,,,,,,,0,2,2,1,,,,,,,,,,,,,,,,,,,,,,,,,,1,2,2019_Jun_04_1204,ACPT_experiment_5_30_19,3.1.0,59.95670855
,,,C,G,y,b,,,,,,,,,,0,0,0,14,,,,,,,,,,,,,b,1,2.218389996,2125.779566,None,,,,,1,2,2019_Jun_04_1204,ACPT_experiment_5_30_19,3.1.0,59.95670855
,,,C,U,d,n,,,,,,,,,,0,1,1,6,,,,,,,,,,,,,v,0,1.067481946,2131.300515,None,,,,,1,2,2019_Jun_04_1204,ACPT_experiment_5_30_19,3.1.0,59.95670855
,,,C,G,g,v,,,,,,,,,,0,2,2,19,,,,,,,,,,,,,v,1,1.401081015,2135.670539,None,,,,,1,2,2019_Jun_04_1204,ACPT_experiment_5_30_19,3.1.0,59.95670855
,,,C,D,g,b,,,,,,,,,,0,3,3,10,,,,,,,,,,,,,n,0,2.368507781,2140.357482,None,,,,,1,2,2019_Jun_04_1204,ACPT_experiment_5_30_19,3.1.0,59.95670855
,,,C,D,y,b,,,,,,,,,,0,4,4,2,,,,,,,,,,,,,b,1,2.034910221,2146.011849,None,,,,,1,2,2019_Jun_04_1204,ACPT_experiment_5_30_19,3.1.0,59.95670855
,,,C,D,d,v,,,,,,,,,,0,5,5,9,,,,,,,,,,,,,v,1,1.134272032,2151.332594,None,,,,,1,2,2019_Jun_04_1204,ACPT_experiment_5_30_19,3.1.0,59.95670855
,,,C,G,g,v,,,,,,,,,,0,6,6,13,,,,,,,,,,,,,v,1,1.000554514,2155.769612,None,,,,,1,2,2019_Jun_04_1204,ACPT_experiment_5_30_19,3.1.0,59.95670855
,,,C,D,y,b,,,,,,,,,,0,7,7,11,,,,,,,,,,,,,b,1,1.551239551,2160.055988,None,,,,,1,2,2019_Jun_04_1204,ACPT_experiment_5_30_19,3.1.0,59.95670855
,,,C,U,d,n,,,,,,,,,,0,8,8,15,,,,,,,,,,,,,n,1,0.433681416,2164.89308,None,,,,,1,2,2019_Jun_04_1204,ACPT_experiment_5_30_19,3.1.0,59.95670855
,,,C,U,g,n,,,,,,,,,,0,9,9,16,,,,,,,,,,,,,n,1,0.964089722,2168.632631,None,,,,,1,2,2019_Jun_04_1204,ACPT_experiment_5_30_19,3.1.0,59.95670855
,,,C,G,d,b,,,,,,,,,,0,10,10,12,,,,,,,,,,,,,b,1,1.384494804,2172.882559,None,,,,,1,2,2019_Jun_04_1204,ACPT_experiment_5_30_19,3.1.0,59.95670855
,,,C,D,d,v,,,,,,,,,,0,11,11,18,,,,,,,,,,,,,v,1,1.484232429,2177.5698,None,,,,,1,2,2019_Jun_04_1204,ACPT_experiment_5_30_19,3.1.0,59.95670855
,,,C,G,y,b,,,,,,,,,,0,12,12,5,,,,,,,,,,,,,b,1,1.351049803,2182.339879,None,,,,,1,2,2019_Jun_04_1204,ACPT_experiment_5_30_19,3.1.0,59.95670855
,,,C,D,d,v,,,,,,,,,,0,13,13,0,,,,,,,,,,,,,v,1,1.601021126,2186.993712,None,,,,,1,2,2019_Jun_04_1204,ACPT_experiment_5_30_19,3.1.0,59.95670855
,,,C,U,y,n,,,,,,,,,,0,14,14,17,,,,,,,,,,,,,n,1,1.451124604,2191.880574,None,,,,,1,2,2019_Jun_04_1204,ACPT_experiment_5_30_19,3.1.0,59.95670855
,,,C,D,g,b,,,,,,,,,,0,15,15,1,,,,,,,,,,,,,b,1,1.117308196,2196.634487,None,,,,,1,2,2019_Jun_04_1204,ACPT_experiment_5_30_19,3.1.0,59.95670855
,,,C,U,g,n,,,,,,,,,,0,16,16,7,,,,,,,,,,,,,n,1,1.167595384,2201.037616,None,,,,,1,2,2019_Jun_04_1204,ACPT_experiment_5_30_19,3.1.0,59.95670855
,,,C,G,d,b,,,,,,,,,,0,17,17,3,,,,,,,,,,,,,b,1,1.767761648,2205.508035,None,,,,,1,2,2019_Jun_04_1204,ACPT_experiment_5_30_19,3.1.0,59.95670855
,,,C,U,y,n,,,,,,,,,,0,18,18,8,,,,,,,,,,,,,n,1,1.301008026,2210.561654,None,,,,,1,2,2019_Jun_04_1204,ACPT_experiment_5_30_19,3.1.0,59.95670855
,,,C,G,g,v,,,,,,,,,,0,19,19,4,,,,,,,,,,,,,v,1,1.330931245,2215.185362,None,,,,,1,2,2019_Jun_04_1204,ACPT_experiment_5_30_19,3.1.0,59.95670855
,,,C,U,y,n,,,,,,,,,,1,0,20,8,,,,,,,,,,,,,n,1,1.167577876,2219.802116,None,,,,,1,2,2019_Jun_04_1204,ACPT_experiment_5_30_19,3.1.0,59.95670855
,,,C,D,y,b,,,,,,,,,,1,1,21,2,,,,,,,,,,,,,b,1,2.118070389,2224.272476,None,,,,,1,2,2019_Jun_04_1204,ACPT_experiment_5_30_19,3.1.0,59.95670855
,,,C,D,g,b,,,,,,,,,,1,2,22,10,,,,,,,,,,,,,b,1,1.551232608,2229.6597,None,,,,,1,2,2019_Jun_04_1204,ACPT_experiment_5_30_19,3.1.0,59.95670855
,,,C,G,g,v,,,,,,,,,,1,3,23,13,,,,,,,,,,,,,v,1,1.334387825,2234.496778,None,,,,,1,2,2019_Jun_04_1204,ACPT_experiment_5_30_19,3.1.0,59.95670855
,,,C,G,g,v,,,,,,,,,,1,4,24,19,,,,,,,,,,,,,v,1,0.884017264,2239.10035,None,,,,,1,2,2019_Jun_04_1204,ACPT_experiment_5_30_19,3.1.0,59.95670855
,,,C,U,d,n,,,,,,,,,,1,5,25,6,,,,,,,,,,,,,n,1,1.401107881,2243.270205,None,,,,,1,2,2019_Jun_04_1204,ACPT_experiment_5_30_19,3.1.0,59.95670855
,,,C,U,g,n,,,,,,,,,,1,6,26,7,,,,,,,,,,,,,n,1,0.700299926,2247.957449,None,,,,,1,2,2019_Jun_04_1204,ACPT_experiment_5_30_19,3.1.0,59.95670855
,,,C,G,g,v,,,,,,,,,,1,7,27,4,,,,,,,,,,,,,v,1,1.517880278,2251.94356,None,,,,,1,2,2019_Jun_04_1204,ACPT_experiment_5_30_19,3.1.0,59.95670855
,,,C,D,d,v,,,,,,,,,,1,8,28,0,,,,,,,,,,,,,v,1,1.384440167,2256.747262,None,,,,,1,2,2019_Jun_04_1204,ACPT_experiment_5_30_19,3.1.0,59.95670855
,,,C,D,g,b,,,,,,,,,,1,9,29,1,,,,,,,,,,,,,b,1,1.117271671,2261.43451,None,,,,,1,2,2019_Jun_04_1204,ACPT_experiment_5_30_19,3.1.0,59.95670855
,,,C,U,y,n,,,,,,,,,,1,10,30,17,,,,,,,,,,,,,n,1,1.200928396,2265.85432,None,,,,,1,2,2019_Jun_04_1204,ACPT_experiment_5_30_19,3.1.0,59.95670855
,,,C,D,y,b,,,,,,,,,,1,11,31,11,,,,,,,,,,,,,b,1,1.10083488,2270.374493,None,,,,,1,2,2019_Jun_04_1204,ACPT_experiment_5_30_19,3.1.0,59.95670855
,,,C,G,y,b,,,,,,,,,,1,12,32,5,,,,,,,,,,,,,b,1,0.783943369,2274.761193,None,,,,,1,2,2019_Jun_04_1204,ACPT_experiment_5_30_19,3.1.0,59.95670855
,,,C,D,d,v,,,,,,,,,,1,13,33,9,,,,,,,,,,,,,b,0,1.734418977,2278.847946,None,,,,,1,2,2019_Jun_04_1204,ACPT_experiment_5_30_19,3.1.0,59.95670855
,,,C,U,g,n,,,,,,,,,,1,14,34,16,,,,,,,,,,,,,n,1,1.167609873,2283.868196,None,,,,,1,2,2019_Jun_04_1204,ACPT_experiment_5_30_19,3.1.0,59.95670855
,,,C,U,d,n,,,,,,,,,,1,15,35,15,,,,,,,,,,,,,n,1,1.11753459,2288.304985,None,,,,,1,2,2019_Jun_04_1204,ACPT_experiment_5_30_19,3.1.0,59.95670855
,,,C,G,d,b,,,,,,,,,,1,16,36,12,,,,,,,,,,,,,b,1,1.467816465,2292.708386,None,,,,,1,2,2019_Jun_04_1204,ACPT_experiment_5_30_19,3.1.0,59.95670855
,,,C,D,d,v,,,,,,,,,,1,17,37,18,,,,,,,,,,,,,v,1,1.067523904,2297.445338,None,,,,,1,2,2019_Jun_04_1204,ACPT_experiment_5_30_19,3.1.0,59.95670855
,,,C,G,y,b,,,,,,,,,,1,18,38,14,,,,,,,,,,,,,n,0,1.300564294,2301.815817,None,,,,,1,2,2019_Jun_04_1204,ACPT_experiment_5_30_19,3.1.0,59.95670855
,,,C,G,d,b,,,,,,,,,,1,19,39,3,,,,,,,,,,,,,b,1,1.401096108,2306.38559,None,,,,,1,2,2019_Jun_04_1204,ACPT_experiment_5_30_19,3.1.0,59.95670855
,,,C,D,y,b,,,,,,,,,,2,0,40,2,,,,,,,,,,,,,b,1,1.61764175,2311.089503,None,,,,,1,2,2019_Jun_04_1204,ACPT_experiment_5_30_19,3.1.0,59.95670855
,,,C,U,y,n,,,,,,,,,,2,1,41,8,,,,,,,,,,,,,n,1,0.900694938,2315.993007,None,,,,,1,2,2019_Jun_04_1204,ACPT_experiment_5_30_19,3.1.0,59.95670855
,,,C,U,g,n,,,,,,,,,,2,2,42,16,,,,,,,,,,,,,n,1,1.067062665,2320.196658,None,,,,,1,2,2019_Jun_04_1204,ACPT_experiment_5_30_19,3.1.0,59.95670855
,,,C,D,d,v,,,,,,,,,,2,3,43,18,,,,,,,,,,,,,v,1,1.050845626,2324.549584,None,,,,,1,2,2019_Jun_04_1204,ACPT_experiment_5_30_19,3.1.0,59.95670855
,,,C,G,y,b,,,,,,,,,,2,4,44,14,,,,,,,,,,,,,b,1,1.083761771,2328.903383,None,,,,,1,2,2019_Jun_04_1204,ACPT_experiment_5_30_19,3.1.0,59.95670855
,,,C,G,g,v,,,,,,,,,,2,5,45,4,,,,,,,,,,,,,v,1,1.284356009,2333.256304,None,,,,,1,2,2019_Jun_04_1204,ACPT_experiment_5_30_19,3.1.0,59.95670855
,,,C,G,d,b,,,,,,,,,,2,6,46,12,,,,,,,,,,,,,b,1,1.117523723,2337.809852,None,,,,,1,2,2019_Jun_04_1204,ACPT_experiment_5_30_19,3.1.0,59.95670855
,,,C,D,d,v,,,,,,,,,,2,7,47,9,,,,,,,,,,,,,v,1,0.867229109,2342.213236,None,,,,,1,2,2019_Jun_04_1204,ACPT_experiment_5_30_19,3.1.0,59.95670855
,,,C,G,g,v,,,,,,,,,,2,8,48,19,,,,,,,,,,,,,v,1,0.900431114,2346.383394,None,,,,,1,2,2019_Jun_04_1204,ACPT_experiment_5_30_19,3.1.0,59.95670855
,,,C,U,d,n,,,,,,,,,,2,9,49,6,,,,,,,,,,,,,n,1,0.783941558,2350.569685,None,,,,,1,2,2019_Jun_04_1204,ACPT_experiment_5_30_19,3.1.0,59.95670855
,,,C,G,d,b,,,,,,,,,,2,10,50,3,,,,,,,,,,,,,b,1,1.0005361,2354.63973,None,,,,,1,2,2019_Jun_04_1204,ACPT_experiment_5_30_19,3.1.0,59.95670855
,,,C,D,y,b,,,,,,,,,,2,11,51,11,,,,,,,,,,,,,b,1,1.000809282,2358.926103,None,,,,,1,2,2019_Jun_04_1204,ACPT_experiment_5_30_19,3.1.0,59.95670855
,,,C,U,y,n,,,,,,,,,,2,12,52,17,,,,,,,,,,,,,n,1,1.033772819,2363.229692,None,,,,,1,2,2019_Jun_04_1204,ACPT_experiment_5_30_19,3.1.0,59.95670855
,,,C,G,y,b,,,,,,,,,,2,13,53,5,,,,,,,,,,,,,n,0,1.217619654,2367.549446,None,,,,,1,2,2019_Jun_04_1204,ACPT_experiment_5_30_19,3.1.0,59.95670855
,,,C,G,g,v,,,,,,,,,,2,14,54,13,,,,,,,,,,,,,v,1,0.733913062,2372.052929,None,,,,,1,2,2019_Jun_04_1204,ACPT_experiment_5_30_19,3.1.0,59.95670855
,,,C,D,g,b,,,,,,,,,,2,15,55,10,,,,,,,,,,,,,b,1,0.900664752,2376.072708,None,,,,,1,2,2019_Jun_04_1204,ACPT_experiment_5_30_19,3.1.0,59.95670855
,,,C,D,g,b,,,,,,,,,,2,16,56,1,,,,,,,,,,,,,v,0,1.234024146,2380.259522,None,,,,,1,2,2019_Jun_04_1204,ACPT_experiment_5_30_19,3.1.0,59.95670855
,,,C,D,d,v,,,,,,,,,,2,17,57,0,,,,,,,,,,,,,v,1,0.66719029,2384.779402,None,,,,,1,2,2019_Jun_04_1204,ACPT_experiment_5_30_19,3.1.0,59.95670855
,,,C,U,g,n,,,,,,,,,,2,18,58,7,,,,,,,,,,,,,n,1,1.13383464,2388.749503,None,,,,,1,2,2019_Jun_04_1204,ACPT_experiment_5_30_19,3.1.0,59.95670855
,,,C,U,d,n,,,,,,,,,,2,19,59,15,,,,,,,,,,,,,n,1,1.067497642,2393.152528,None,,,,,1,2,2019_Jun_04_1204,ACPT_experiment_5_30_19,3.1.0,59.95670855
,,,C,D,d,v,,,,,,,,,,3,0,60,18,,,,,,,,,,,,,v,1,1.834766959,2397.505877,None,,,,,1,2,2019_Jun_04_1204,ACPT_experiment_5_30_19,3.1.0,59.95670855
,,,C,D,g,b,,,,,,,,,,3,1,61,1,,,,,,,,,,,,,b,1,0.850652256,2402.609831,None,,,,,1,2,2019_Jun_04_1204,ACPT_experiment_5_30_19,3.1.0,59.95670855
,,,C,D,y,b,,,,,,,,,,3,2,62,2,,,,,,,,,,,,,b,1,0.780620512,2406.766353,None,,,,,1,2,2019_Jun_04_1204,ACPT_experiment_5_30_19,3.1.0,59.95670855
,,,C,G,y,b,,,,,,,,,,3,3,63,5,,,,,,,,,,,,,b,1,0.950745469,2410.832832,None,,,,,1,2,2019_Jun_04_1204,ACPT_experiment_5_30_19,3.1.0,59.95670855
,,,C,G,d,b,,,,,,,,,,3,4,64,12,,,,,,,,,,,,,b,1,1.167319184,2415.086372,None,,,,,1,2,2019_Jun_04_1204,ACPT_experiment_5_30_19,3.1.0,59.95670855
,,,C,U,d,n,,,,,,,,,,3,5,65,6,,,,,,,,,,,,,n,1,1.034177007,2419.539545,None,,,,,1,2,2019_Jun_04_1204,ACPT_experiment_5_30_19,3.1.0,59.95670855
,,,C,D,d,v,,,,,,,,,,3,6,66,0,,,,,,,,,,,,,v,1,1.36441096,2423.879549,None,,,,,1,2,2019_Jun_04_1204,ACPT_experiment_5_30_19,3.1.0,59.95670855
,,,C,D,y,b,,,,,,,,,,3,7,67,11,,,,,,,,,,,,,b,1,0.767278976,2428.529812,None,,,,,1,2,2019_Jun_04_1204,ACPT_experiment_5_30_19,3.1.0,59.95670855
,,,C,D,g,b,,,,,,,,,,3,8,68,10,,,,,,,,,,,,,b,1,1.217363074,2432.599869,None,,,,,1,2,2019_Jun_04_1204,ACPT_experiment_5_30_19,3.1.0,59.95670855
,,,C,G,g,v,,,,,,,,,,3,9,69,13,,,,,,,,,,,,,v,1,1.517819303,2437.103118,None,,,,,1,2,2019_Jun_04_1204,ACPT_experiment_5_30_19,3.1.0,59.95670855
,,,C,U,y,n,,,,,,,,,,3,10,70,8,,,,,,,,,,,,,n,1,0.733892234,2441.906808,None,,,,,1,2,2019_Jun_04_1204,ACPT_experiment_5_30_19,3.1.0,59.95670855
,,,C,U,g,n,,,,,,,,,,3,11,71,16,,,,,,,,,,,,,n,1,0.366960757,2445.926563,None,,,,,1,2,2019_Jun_04_1204,ACPT_experiment_5_30_19,3.1.0,59.95670855
,,,C,U,g,n,,,,,,,,,,3,12,72,7,,,,,,,,,,,,,n,1,0.333326491,2449.579651,None,,,,,1,2,2019_Jun_04_1204,ACPT_experiment_5_30_19,3.1.0,59.95670855
,,,C,G,y,b,,,,,,,,,,3,13,73,14,,,,,,,,,,,,,b,1,0.76726328,2453.198837,None,,,,,1,2,2019_Jun_04_1204,ACPT_experiment_5_30_19,3.1.0,59.95670855
,,,C,U,d,n,,,,,,,,,,3,14,74,15,,,,,,,,,,,,,n,1,0.333186429,2457.269022,None,,,,,1,2,2019_Jun_04_1204,ACPT_experiment_5_30_19,3.1.0,59.95670855
,,,C,G,g,v,,,,,,,,,,3,15,75,19,,,,,,,,,,,,,v,1,0.75058319,2460.888102,None,,,,,1,2,2019_Jun_04_1204,ACPT_experiment_5_30_19,3.1.0,59.95670855
,,,C,D,d,v,,,,,,,,,,3,16,76,9,,,,,,,,,,,,,v,1,1.05035903,2464.941661,None,,,,,1,2,2019_Jun_04_1204,ACPT_experiment_5_30_19,3.1.0,59.95670855
,,,C,G,g,v,,,,,,,,,,3,17,77,4,,,,,,,,,,,,,v,1,1.134238526,2469.277906,None,,,,,1,2,2019_Jun_04_1204,ACPT_experiment_5_30_19,3.1.0,59.95670855
,,,C,G,d,b,,,,,,,,,,3,18,78,3,,,,,,,,,,,,,b,1,0.797290942,2473.717994,None,,,,,1,2,2019_Jun_04_1204,ACPT_experiment_5_30_19,3.1.0,59.95670855
,,,C,U,y,n,,,,,,,,,,3,19,79,17,,,,,,,,,,,,,n,1,0.650514729,2477.801142,None,,,,,1,2,2019_Jun_04_1204,ACPT_experiment_5_30_19,3.1.0,59.95670855
,,,C,U,y,n,,,,,,,,,,4,0,80,17,,,,,,,,,,,,,n,1,0.299991367,2481.754435,None,,,,,1,2,2019_Jun_04_1204,ACPT_experiment_5_30_19,3.1.0,59.95670855
,,,C,G,y,b,,,,,,,,,,4,1,81,14,,,,,,,,,,,,,b,1,0.800611082,2485.340304,None,,,,,1,2,2019_Jun_04_1204,ACPT_experiment_5_30_19,3.1.0,59.95670855
,,,C,D,g,b,,,,,,,,,,4,2,82,10,,,,,,,,,,,,,b,1,1.467548113,2489.443715,None,,,,,1,2,2019_Jun_04_1204,ACPT_experiment_5_30_19,3.1.0,59.95670855
,,,C,U,y,n,,,,,,,,,,4,3,83,8,,,,,,,,,,,,,n,1,0.6004808,2494.197106,None,,,,,1,2,2019_Jun_04_1204,ACPT_experiment_5_30_19,3.1.0,59.95670855
,,,C,U,d,n,,,,,,,,,,4,4,84,15,,,,,,,,,,,,,n,1,1.48447301,2498.066786,None,,,,,1,2,2019_Jun_04_1204,ACPT_experiment_5_30_19,3.1.0,59.95670855
,,,C,D,d,v,,,,,,,,,,4,5,85,9,,,,,,,,,,,,,v,1,0.783943671,2502.837115,None,,,,,1,2,2019_Jun_04_1204,ACPT_experiment_5_30_19,3.1.0,59.95670855
,,,C,G,g,v,,,,,,,,,,4,6,86,4,,,,,,,,,,,,,v,1,0.9838542,2506.923843,None,,,,,1,2,2019_Jun_04_1204,ACPT_experiment_5_30_19,3.1.0,59.95670855
,,,C,G,g,v,,,,,,,,,,4,7,87,19,,,,,,,,,,,,,v,1,0.717234482,2511.176876,None,,,,,1,2,2019_Jun_04_1204,ACPT_experiment_5_30_19,3.1.0,59.95670855
,,,C,D,y,b,,,,,,,,,,4,8,88,2,,,,,,,,,,,,,b,1,0.666934314,2515.196899,None,,,,,1,2,2019_Jun_04_1204,ACPT_experiment_5_30_19,3.1.0,59.95670855
,,,C,D,d,v,,,,,,,,,,4,9,89,0,,,,,,,,,,,,,v,1,1.084182863,2519.133012,None,,,,,1,2,2019_Jun_04_1204,ACPT_experiment_5_30_19,3.1.0,59.95670855
,,,C,D,y,b,,,,,,,,,,4,10,90,11,,,,,,,,,,,,,b,1,0.750317555,2523.503326,None,,,,,1,2,2019_Jun_04_1204,ACPT_experiment_5_30_19,3.1.0,59.95670855
,,,C,U,g,n,,,,,,,,,,4,11,91,16,,,,,,,,,,,,,n,1,0.283577517,2527.53947,None,,,,,1,2,2019_Jun_04_1204,ACPT_experiment_5_30_19,3.1.0,59.95670855
,,,C,D,d,v,,,,,,,,,,4,12,92,18,,,,,,,,,,,,,v,1,0.800438419,2531.125762,None,,,,,1,2,2019_Jun_04_1204,ACPT_experiment_5_30_19,3.1.0,59.95670855
,,,C,G,d,b,,,,,,,,,,4,13,93,12,,,,,,,,,,,,,b,1,1.217629615,2535.212076,None,,,,,1,2,2019_Jun_04_1204,ACPT_experiment_5_30_19,3.1.0,59.95670855
,,,C,U,g,n,,,,,,,,,,4,14,94,7,,,,,,,,,,,,,n,1,0.46659092,2539.732658,None,,,,,1,2,2019_Jun_04_1204,ACPT_experiment_5_30_19,3.1.0,59.95670855
,,,C,G,g,v,,,,,,,,,,4,15,95,13,,,,,,,,,,,,,v,1,0.950748488,2543.485125,None,,,,,1,2,2019_Jun_04_1204,ACPT_experiment_5_30_19,3.1.0,59.95670855
,,,C,D,g,b,,,,,,,,,,4,16,96,1,,,,,,,,,,,,,b,1,0.783666867,2547.738682,None,,,,,1,2,2019_Jun_04_1204,ACPT_experiment_5_30_19,3.1.0,59.95670855
,,,C,G,d,b,,,,,,,,,,4,17,97,3,,,,,,,,,,,,,b,1,0.733891027,2551.808228,None,,,,,1,2,2019_Jun_04_1204,ACPT_experiment_5_30_19,3.1.0,59.95670855
,,,C,G,y,b,,,,,,,,,,4,18,98,5,,,,,,,,,,,,,b,1,0.483506157,2555.828243,None,,,,,1,2,2019_Jun_04_1204,ACPT_experiment_5_30_19,3.1.0,59.95670855
,,,C,U,d,n,,,,,,,,,,4,19,99,6,,,,,,,,,,,,,n,1,0.667211722,2559.597548,None,,,,,1,2,2019_Jun_04_1204,ACPT_experiment_5_30_19,3.1.0,59.95670855
,,,C,U,g,n,,,,,,,,,,5,0,100,16,,,,,,,,,,,,,n,1,0.500149118,2563.567545,None,,,,,1,2,2019_Jun_04_1204,ACPT_experiment_5_30_19,3.1.0,59.95670855
,,,C,D,g,b,,,,,,,,,,5,1,101,10,,,,,,,,,,,,,b,1,1.134222829,2567.353523,None,,,,,1,2,2019_Jun_04_1204,ACPT_experiment_5_30_19,3.1.0,59.95670855
,,,C,G,g,v,,,,,,,,,,5,2,102,19,,,,,,,,,,,,,v,1,1.250972286,2571.7736,None,,,,,1,2,2019_Jun_04_1204,ACPT_experiment_5_30_19,3.1.0,59.95670855
,,,C,G,d,b,,,,,,,,,,5,3,103,3,,,,,,,,,,,,,v,0,1.351037427,2576.310435,None,,,,,1,2,2019_Jun_04_1204,ACPT_experiment_5_30_19,3.1.0,59.95670855
,,,C,G,y,b,,,,,,,,,,5,4,104,14,,,,,,,,,,,,,b,1,0.600073895,2580.96429,None,,,,,1,2,2019_Jun_04_1204,ACPT_experiment_5_30_19,3.1.0,59.95670855
,,,C,U,d,n,,,,,,,,,,5,5,105,6,,,,,,,,,,,,,n,1,0.934079567,2584.850328,None,,,,,1,2,2019_Jun_04_1204,ACPT_experiment_5_30_19,3.1.0,59.95670855
,,,C,U,g,n,,,,,,,,,,5,6,106,7,,,,,,,,,,,,,n,1,0.33331653,2589.087225,None,,,,,1,2,2019_Jun_04_1204,ACPT_experiment_5_30_19,3.1.0,59.95670855
,,,C,U,y,n,,,,,,,,,,5,7,107,17,,,,,,,,,,,,,n,1,0.366955324,2592.689732,None,,,,,1,2,2019_Jun_04_1204,ACPT_experiment_5_30_19,3.1.0,59.95670855
,,,C,G,g,v,,,,,,,,,,5,8,108,4,,,,,,,,,,,,,v,1,0.700303247,2596.359465,None,,,,,1,2,2019_Jun_04_1204,ACPT_experiment_5_30_19,3.1.0,59.95670855
,,,C,G,g,v,,,,,,,,,,5,9,109,13,,,,,,,,,,,,,v,1,0.650514125,2600.328948,None,,,,,1,2,2019_Jun_04_1204,ACPT_experiment_5_30_19,3.1.0,59.95670855
,,,C,D,y,b,,,,,,,,,,5,10,110,11,,,,,,,,,,,,,b,1,0.716952849,2604.282273,None,,,,,1,2,2019_Jun_04_1204,ACPT_experiment_5_30_19,3.1.0,59.95670855
,,,C,D,y,b,,,,,,,,,,5,11,111,2,,,,,,,,,,,,,b,1,0.61718051,2608.268374,None,,,,,1,2,2019_Jun_04_1204,ACPT_experiment_5_30_19,3.1.0,59.95670855
,,,C,G,y,b,,,,,,,,,,5,12,112,5,,,,,,,,,,,,,b,1,0.766846413,2612.188485,None,,,,,1,2,2019_Jun_04_1204,ACPT_experiment_5_30_19,3.1.0,59.95670855
,,,C,D,d,v,,,,,,,,,,5,13,113,18,,,,,,,,,,,,,v,1,0.850663424,2616.24119,None,,,,,1,2,2019_Jun_04_1204,ACPT_experiment_5_30_19,3.1.0,59.95670855
,,,C,U,y,n,,,,,,,,,,5,14,114,8,,,,,,,,,,,,,n,1,0.55009581,2620.394737,None,,,,,1,2,2019_Jun_04_1204,ACPT_experiment_5_30_19,3.1.0,59.95670855
,,,C,G,d,b,,,,,,,,,,5,15,115,12,,,,,,,,,,,,,b,1,0.834026803,2624.230708,None,,,,,1,2,2019_Jun_04_1204,ACPT_experiment_5_30_19,3.1.0,59.95670855
,,,C,D,d,v,,,,,,,,,,5,16,116,9,,,,,,,,,,,,,v,1,0.95050187,2628.367472,None,,,,,1,2,2019_Jun_04_1204,ACPT_experiment_5_30_19,3.1.0,59.95670855
,,,C,D,g,b,,,,,,,,,,5,17,117,1,,,,,,,,,,,,,b,1,1.134187814,2632.603856,None,,,,,1,2,2019_Jun_04_1204,ACPT_experiment_5_30_19,3.1.0,59.95670855
,,,C,D,d,v,,,,,,,,,,5,18,118,0,,,,,,,,,,,,,v,1,0.750313933,2637.040832,None,,,,,1,2,2019_Jun_04_1204,ACPT_experiment_5_30_19,3.1.0,59.95670855
,,,C,U,d,n,,,,,,,,,,5,19,119,15,0,0,0,0,0,0,0,0,,,,,n,1,0.767266902,2641.077034,None,,,,,1,2,2019_Jun_04_1204,ACPT_experiment_5_30_19,3.1.0,59.95670855
,,,C,U,d,n,L,G,d,R,i,,,,,5,19,119,15,0,0,0,0,,,,,0,0,0,17,,,,,,up,0.633791776,2692.383265,None,1,2,2019_Jun_04_1204,ACPT_experiment_5_30_19,3.1.0,59.95670855
,,,C,U,d,n,R,U,g,R,u,,,,,5,19,119,15,0,0,0,0,,,,,0,1,1,11,,,,,,up,0.650492995,2694.301393,None,1,2,2019_Jun_04_1204,ACPT_experiment_5_30_19,3.1.0,59.95670855
,,,C,U,d,n,L,U,d,R,u,,,,,5,19,119,15,0,0,0,0,,,,,0,2,2,21,,,,,,up,0.650517144,2696.236194,None,1,2,2019_Jun_04_1204,ACPT_experiment_5_30_19,3.1.0,59.95670855
,,,C,U,d,n,L,G,g,R,c ,,,,,5,19,119,15,0,0,0,0,,,,,0,3,3,19,,,,,,up,0.617137344,2698.171047,None,1,2,2019_Jun_04_1204,ACPT_experiment_5_30_19,3.1.0,59.95670855
,,,C,U,d,n,R,D,y,R,y,,,,,5,19,119,15,0,0,0,0,,,,,0,4,4,27,,,,,,down,0.533767084,2700.072482,None,1,2,2019_Jun_04_1204,ACPT_experiment_5_30_19,3.1.0,59.95670855
,,,C,U,d,n,L,D,g,L,i,,,,,5,19,119,15,0,0,0,0,,,,,0,5,5,14,,,,,,up,0.783931596,2701.890578,None,1,2,2019_Jun_04_1204,ACPT_experiment_5_30_19,3.1.0,59.95670855
,,,C,U,d,n,R,G,d,L,i,,,,,5,19,119,15,0,0,0,0,,,,,0,6,6,4,,,,,,up,0.450350035,2703.958835,None,1,2,2019_Jun_04_1204,ACPT_experiment_5_30_19,3.1.0,59.95670855
,,,C,U,d,n,L,U,y,R,u,,,,,5,19,119,15,0,0,0,0,,,,,0,7,7,25,,,,,,down,0.733685461,2705.727044,None,1,2,2019_Jun_04_1204,ACPT_experiment_5_30_19,3.1.0,59.95670855
,,,C,U,d,n,R,D,d,L,c,,,,,5,19,119,15,0,0,0,0,,,,,0,8,8,0,,,,,,up,0.550391329,2707.761788,None,1,2,2019_Jun_04_1204,ACPT_experiment_5_30_19,3.1.0,59.95670855
,,,C,U,d,n,L,D,d,L,c ,,,,,5,19,119,15,0,0,0,0,,,,,0,9,9,12,,,,,,up,0.533733879,2709.596524,None,1,2,2019_Jun_04_1204,ACPT_experiment_5_30_19,3.1.0,59.95670855
,,,C,U,d,n,R,G,y,R,y,,,,,5,19,119,15,0,0,0,0,,,,,0,10,10,29,,,,,,down,0.700542621,2711.414575,None,1,2,2019_Jun_04_1204,ACPT_experiment_5_30_19,3.1.0,59.95670855
,,,C,U,d,n,R,G,g,L,c ,,,,,5,19,119,15,0,0,0,0,,,,,0,11,11,6,,,,,,up,0.530416154,2713.419458,None,1,2,2019_Jun_04_1204,ACPT_experiment_5_30_19,3.1.0,59.95670855
,,,C,U,d,n,L,U,g,R,u,,,,,5,19,119,15,0,0,0,0,,,,,0,12,12,23,,,,,,up,0.533735992,2715.234201,None,1,2,2019_Jun_04_1204,ACPT_experiment_5_30_19,3.1.0,59.95670855
,,,C,U,d,n,R,G,d,R,i,,,,,5,19,119,15,0,0,0,0,,,,,0,13,13,5,,,,,,up,0.416980499,2717.052263,None,1,2,2019_Jun_04_1204,ACPT_experiment_5_30_19,3.1.0,59.95670855
,,,C,U,d,n,R,D,d,R,c ,,,,,5,19,119,15,0,0,0,0,,,,,0,14,14,1,,,,,,up,0.383618509,2718.753579,None,1,2,2019_Jun_04_1204,ACPT_experiment_5_30_19,3.1.0,59.95670855
,,,C,U,d,n,L,D,y,R,y,,,,,5,19,119,15,0,0,0,0,,,,,0,15,15,33,,,,,,down,0.516785438,2720.438485,None,1,2,2019_Jun_04_1204,ACPT_experiment_5_30_19,3.1.0,59.95670855
,,,C,U,d,n,R,D,y,L,y,,,,,5,19,119,15,0,0,0,0,,,,,0,16,16,26,,,,,,down,0.717076007,2722.256297,None,1,2,2019_Jun_04_1204,ACPT_experiment_5_30_19,3.1.0,59.95670855
,,,C,U,d,n,R,U,d,R,u,,,,,5,19,119,15,0,0,0,0,,,,,0,17,17,9,,,,,,up,0.48368848,2724.274506,None,1,2,2019_Jun_04_1204,ACPT_experiment_5_30_19,3.1.0,59.95670855
,,,C,U,d,n,L,D,g,R,i,,,,,5,19,119,15,0,0,0,0,,,,,0,18,18,15,,,,,,up,0.400301617,2726.042534,None,1,2,2019_Jun_04_1204,ACPT_experiment_5_30_19,3.1.0,59.95670855
,,,C,U,d,n,L,U,y,L,u,,,,,5,19,119,15,0,0,0,0,,,,,0,19,19,24,,,,,,down,0.600283385,2727.760678,None,1,2,2019_Jun_04_1204,ACPT_experiment_5_30_19,3.1.0,59.95670855
,,,C,U,d,n,R,U,g,L,u,,,,,5,19,119,15,0,0,0,0,,,,,0,20,20,10,,,,,,up,0.617131609,2729.661987,None,1,2,2019_Jun_04_1204,ACPT_experiment_5_30_19,3.1.0,59.95670855
,,,C,U,d,n,L,D,y,L,y,,,,,5,19,119,15,0,0,0,0,,,,,0,21,21,32,,,,,,down,0.583743358,2731.563486,None,1,2,2019_Jun_04_1204,ACPT_experiment_5_30_19,3.1.0,59.95670855
,,,C,U,d,n,R,D,g,L,i,,,,,5,19,119,15,0,0,0,0,,,,,0,22,22,2,,,,,,up,0.550424534,2733.431555,None,1,2,2019_Jun_04_1204,ACPT_experiment_5_30_19,3.1.0,59.95670855
,,,C,U,d,n,R,G,y,L,y,,,,,5,19,119,15,0,0,0,0,,,,,0,23,23,28,,,,,,down,0.61709599,2735.266336,None,1,2,2019_Jun_04_1204,ACPT_experiment_5_30_19,3.1.0,59.95670855
,,,C,U,d,n,R,D,g,R,i,,,,,5,19,119,15,0,0,0,0,,,,,0,24,24,3,,,,,,up,0.467018654,2737.167771,None,1,2,2019_Jun_04_1204,ACPT_experiment_5_30_19,3.1.0,59.95670855
,,,C,U,d,n,L,G,y,L,y,,,,,5,19,119,15,0,0,0,0,,,,,0,25,25,34,,,,,,down,0.567096473,2738.919124,None,1,2,2019_Jun_04_1204,ACPT_experiment_5_30_19,3.1.0,59.95670855
,,,C,U,d,n,L,G,d,L,i,,,,,5,19,119,15,0,0,0,0,,,,,0,26,26,16,,,,,,up,0.663849322,2740.790558,None,1,2,2019_Jun_04_1204,ACPT_experiment_5_30_19,3.1.0,59.95670855
,,,C,U,d,n,R,U,y,L,u,,,,,5,19,119,15,0,0,0,0,,,,,0,27,27,30,,,,,,down,0.567093152,2742.755413,None,1,2,2019_Jun_04_1204,ACPT_experiment_5_30_19,3.1.0,59.95670855
,,,C,U,d,n,L,D,d,R,c ,,,,,5,19,119,15,0,0,0,0,,,,,0,28,28,13,,,,,,up,0.633811698,2744.623523,None,1,2,2019_Jun_04_1204,ACPT_experiment_5_30_19,3.1.0,59.95670855
,,,C,U,d,n,L,U,g,L,u,,,,,5,19,119,15,0,0,0,0,,,,,0,29,29,22,,,,,,up,0.467022276,2746.541658,None,1,2,2019_Jun_04_1204,ACPT_experiment_5_30_19,3.1.0,59.95670855
,,,C,U,d,n,R,G,g,R,c ,,,,,5,19,119,15,0,0,0,0,,,,,0,30,30,7,,,,,,up,0.467018654,2748.293011,None,1,2,2019_Jun_04_1204,ACPT_experiment_5_30_19,3.1.0,59.95670855
,,,C,U,d,n,R,U,d,L,u,,,,,5,19,119,15,0,0,0,0,,,,,0,31,31,8,,,,,,up,0.617161493,2750.044339,None,1,2,2019_Jun_04_1204,ACPT_experiment_5_30_19,3.1.0,59.95670855
,,,C,U,d,n,R,U,y,R,u,,,,,5,19,119,15,0,0,0,0,,,,,0,32,32,31,,,,,,down,0.517085485,2751.945801,None,1,2,2019_Jun_04_1204,ACPT_experiment_5_30_19,3.1.0,59.95670855
,,,C,U,d,n,L,G,g,L,c ,,,,,5,19,119,15,0,0,0,0,,,,,0,33,33,18,,,,,,up,0.516814718,2753.764141,None,1,2,2019_Jun_04_1204,ACPT_experiment_5_30_19,3.1.0,59.95670855
,,,C,U,d,n,L,G,y,R,y,,,,,5,19,119,15,0,0,0,0,,,,,0,34,34,35,,,,,,down,0.550420006,2755.565287,None,1,2,2019_Jun_04_1204,ACPT_experiment_5_30_19,3.1.0,59.95670855
,,,C,U,d,n,L,U,d,L,u,,,,,5,19,119,15,0,0,0,0,,,,,0,35,35,20,,,,,,up,0.483698139,2757.400034,None,1,2,2019_Jun_04_1204,ACPT_experiment_5_30_19,3.1.0,59.95670855
,,,C,U,d,n,L,D,d,R,c ,,,,,5,19,119,15,0,0,0,0,,,,,1,0,36,13,,,,,,up,0.700531452,2759.16806,None,1,2,2019_Jun_04_1204,ACPT_experiment_5_30_19,3.1.0,59.95670855
,,,C,U,d,n,R,G,g,R,c ,,,,,5,19,119,15,0,0,0,0,,,,,1,1,37,7,,,,,,up,0.483697536,2761.152928,None,1,2,2019_Jun_04_1204,ACPT_experiment_5_30_19,3.1.0,59.95670855
,,,C,U,d,n,L,G,g,L,c ,,,,,5,19,119,15,0,0,0,0,,,,,1,2,38,18,,,,,,up,0.500437393,2762.920954,None,1,2,2019_Jun_04_1204,ACPT_experiment_5_30_19,3.1.0,59.95670855
,,,C,U,d,n,L,D,y,L,y,,,,,5,19,119,15,0,0,0,0,,,,,1,3,39,32,,,,,,down,0.550448682,2764.705638,None,1,2,2019_Jun_04_1204,ACPT_experiment_5_30_19,3.1.0,59.95670855
,,,C,U,d,n,R,D,y,R,y,,,,,5,19,119,15,0,0,0,0,,,,,1,4,40,27,,,,,,down,0.483510383,2766.590608,None,1,2,2019_Jun_04_1204,ACPT_experiment_5_30_19,3.1.0,59.95670855
,,,C,U,d,n,R,D,g,L,i,,,,,5,19,119,15,0,0,0,0,,,,,1,5,41,2,,,,,,up,0.483706591,2768.375155,None,1,2,2019_Jun_04_1204,ACPT_experiment_5_30_19,3.1.0,59.95670855
,,,C,U,d,n,R,U,d,R,u,,,,,5,19,119,15,0,0,0,0,,,,,1,6,42,9,,,,,,up,0.517057714,2770.143189,None,1,2,2019_Jun_04_1204,ACPT_experiment_5_30_19,3.1.0,59.95670855
,,,C,U,d,n,R,D,d,R,c ,,,,,5,19,119,15,0,0,0,0,,,,,1,7,43,1,,,,,,up,0.433666927,2771.944573,None,1,2,2019_Jun_04_1204,ACPT_experiment_5_30_19,3.1.0,59.95670855
,,,C,U,d,n,R,G,d,R,i,,,,,5,19,119,15,0,0,0,0,,,,,1,8,44,5,,,,,,up,0.433395255,2773.662836,None,1,2,2019_Jun_04_1204,ACPT_experiment_5_30_19,3.1.0,59.95670855
,,,C,U,d,n,R,U,g,R,u,,,,,5,19,119,15,0,0,0,0,,,,,1,9,45,11,,,,,,up,0.4670099,2775.380565,None,1,2,2019_Jun_04_1204,ACPT_experiment_5_30_19,3.1.0,59.95670855
,,,C,U,d,n,L,D,d,L,c ,,,,,5,19,119,15,0,0,0,0,,,,,1,10,46,12,,,,,,up,0.567098586,2777.13191,None,1,2,2019_Jun_04_1204,ACPT_experiment_5_30_19,3.1.0,59.95670855
,,,C,U,d,n,L,U,g,R,u,,,,,5,19,119,15,0,0,0,0,,,,,1,11,47,23,,,,,,up,0.433720054,2778.983313,None,1,2,2019_Jun_04_1204,ACPT_experiment_5_30_19,3.1.0,59.95670855
,,,C,U,d,n,L,U,d,R,u,,,,,5,19,119,15,0,0,0,0,,,,,1,12,48,21,,,,,,up,0.433393745,2780.701596,None,1,2,2019_Jun_04_1204,ACPT_experiment_5_30_19,3.1.0,59.95670855
,,,C,U,d,n,L,D,g,L,i,,,,,5,19,119,15,0,0,0,0,,,,,1,13,49,14,,,,,,up,0.567127262,2782.419291,None,1,2,2019_Jun_04_1204,ACPT_experiment_5_30_19,3.1.0,59.95670855
,,,C,U,d,n,R,D,d,L,c,,,,,5,19,119,15,0,0,0,0,,,,,1,14,50,0,,,,,,up,0.400297089,2784.270747,None,1,2,2019_Jun_04_1204,ACPT_experiment_5_30_19,3.1.0,59.95670855
,,,C,U,d,n,R,G,g,L,c ,,,,,5,19,119,15,0,0,0,0,,,,,1,15,51,6,,,,,,up,0.350340436,2785.95535,None,1,2,2019_Jun_04_1204,ACPT_experiment_5_30_19,3.1.0,59.95670855
,,,C,U,d,n,R,D,g,R,i,,,,,5,19,119,15,0,0,0,0,,,,,1,16,52,3,,,,,,up,0.450066288,2787.606922,None,1,2,2019_Jun_04_1204,ACPT_experiment_5_30_19,3.1.0,59.95670855
,,,C,U,d,n,L,G,g,R,c ,,,,,5,19,119,15,0,0,0,0,,,,,1,17,53,19,,,,,,up,0.400303428,2789.341321,None,1,2,2019_Jun_04_1204,ACPT_experiment_5_30_19,3.1.0,59.95670855
,,,C,U,d,n,L,U,g,L,u,,,,,5,19,119,15,0,0,0,0,,,,,1,18,54,22,,,,,,up,0.383624244,2791.025953,None,1,2,2019_Jun_04_1204,ACPT_experiment_5_30_19,3.1.0,59.95670855
,,,C,U,d,n,R,U,g,L,u,,,,,5,19,119,15,0,0,0,0,,,,,1,19,55,10,,,,,,up,0.416996799,2792.693907,None,1,2,2019_Jun_04_1204,ACPT_experiment_5_30_19,3.1.0,59.95670855
,,,C,U,d,n,L,U,y,R,u,,,,,5,19,119,15,0,0,0,0,,,,,1,20,56,25,,,,,,down,0.566979352,2794.428698,None,1,2,2019_Jun_04_1204,ACPT_experiment_5_30_19,3.1.0,59.95670855
,,,C,U,d,n,L,D,g,R,i,,,,,5,19,119,15,0,0,0,0,,,,,1,21,57,15,,,,,,up,0.467013824,2796.29669,None,1,2,2019_Jun_04_1204,ACPT_experiment_5_30_19,3.1.0,59.95670855
,,,C,U,d,n,L,D,y,R,y,,,,,5,19,119,15,0,0,0,0,,,,,1,22,58,33,,,,,,down,0.517079448,2798.04801,None,1,2,2019_Jun_04_1204,ACPT_experiment_5_30_19,3.1.0,59.95670855
,,,C,U,d,n,R,G,d,L,i,,,,,5,19,119,15,0,0,0,0,,,,,1,23,59,4,,,,,,up,0.483727721,2799.86607,None,1,2,2019_Jun_04_1204,ACPT_experiment_5_30_19,3.1.0,59.95670855
,,,C,U,d,n,L,G,d,R,i,,,,,5,19,119,15,0,0,0,0,,,,,1,24,60,17,,,,,,up,0.513740894,2801.654126,None,1,2,2019_Jun_04_1204,ACPT_experiment_5_30_19,3.1.0,59.95670855
,,,C,U,d,n,R,D,y,L,y,,,,,5,19,119,15,0,0,0,0,,,,,1,25,61,26,,,,,,down,0.500382153,2803.452195,None,1,2,2019_Jun_04_1204,ACPT_experiment_5_30_19,3.1.0,59.95670855
,,,C,U,d,n,L,U,y,L,u,,,,,5,19,119,15,0,0,0,0,,,,,1,26,62,24,,,,,,down,0.567126357,2805.236901,None,1,2,2019_Jun_04_1204,ACPT_experiment_5_30_19,3.1.0,59.95670855
,,,C,U,d,n,L,G,y,R,y,,,,,5,19,119,15,0,0,0,0,,,,,1,27,63,35,,,,,,down,0.600475367,2807.088332,None,1,2,2019_Jun_04_1204,ACPT_experiment_5_30_19,3.1.0,59.95670855
,,,C,U,d,n,L,G,y,L,y,,,,,5,19,119,15,0,0,0,0,,,,,1,28,64,34,,,,,,down,0.567096775,2808.973119,None,1,2,2019_Jun_04_1204,ACPT_experiment_5_30_19,3.1.0,59.95670855
,,,C,U,d,n,L,U,d,L,u,,,,,5,19,119,15,0,0,0,0,,,,,1,29,65,20,,,,,,up,0.500393321,2810.824532,None,1,2,2019_Jun_04_1204,ACPT_experiment_5_30_19,3.1.0,59.95670855
,,,C,U,d,n,R,G,y,R,y,,,,,5,19,119,15,0,0,0,0,,,,,1,30,66,29,,,,,,down,0.433662701,2812.609255,None,1,2,2019_Jun_04_1204,ACPT_experiment_5_30_19,3.1.0,59.95670855
,,,C,U,d,n,R,U,d,L,u,,,,,5,19,119,15,0,0,0,0,,,,,1,31,67,8,,,,,,up,0.450359996,2814.327223,None,1,2,2019_Jun_04_1204,ACPT_experiment_5_30_19,3.1.0,59.95670855
,,,C,U,d,n,R,G,y,L,y,,,,,5,19,119,15,0,0,0,0,,,,,1,32,68,28,,,,,,down,0.533381007,2816.095621,None,1,2,2019_Jun_04_1204,ACPT_experiment_5_30_19,3.1.0,59.95670855
,,,C,U,d,n,R,U,y,L,u,,,,,5,19,119,15,0,0,0,0,,,,,1,33,69,30,,,,,,down,0.517072203,2817.91334,None,1,2,2019_Jun_04_1204,ACPT_experiment_5_30_19,3.1.0,59.95670855
,,,C,U,d,n,L,G,d,L,i,,,,,5,19,119,15,0,0,0,0,,,,,1,34,70,16,,,,,,up,0.500381851,2819.714732,None,1,2,2019_Jun_04_1204,ACPT_experiment_5_30_19,3.1.0,59.95670855
,,,C,U,d,n,R,U,y,R,u,,,,,5,19,119,15,0,0,0,0,,,,,1,35,71,31,,,,,,down,0.550418195,2821.516122,None,1,2,2019_Jun_04_1204,ACPT_experiment_5_30_19,3.1.0,59.95670855
,,,C,U,d,n,,,,,,,,,,5,19,119,15,1,0,1,0,0,0,0,0,,,,,,,,,,,,,,1,2,2019_Jun_04_1204,ACPT_experiment_5_30_19,3.1.0,59.95670855
,,,C,U,d,n,R,G,g,R,c ,,,,,5,19,119,15,1,0,1,0,,,,,0,0,0,7,,,,,,up,0.51683132,2829.622614,None,1,2,2019_Jun_04_1204,ACPT_experiment_5_30_19,3.1.0,59.95670855
,,,C,U,d,n,L,U,d,R,u,,,,,5,19,119,15,1,0,1,0,,,,,0,1,1,21,,,,,,up,0.383692464,2831.423733,None,1,2,2019_Jun_04_1204,ACPT_experiment_5_30_19,3.1.0,59.95670855
,,,C,U,d,n,R,U,y,R,u,,,,,5,19,119,15,1,0,1,0,,,,,0,2,2,31,,,,,,down,0.450333131,2833.125071,None,1,2,2019_Jun_04_1204,ACPT_experiment_5_30_19,3.1.0,59.95670855
,,,C,U,d,n,R,D,d,L,c,,,,,5,19,119,15,1,0,1,0,,,,,0,3,3,0,,,,,,up,0.633814113,2834.893094,None,1,2,2019_Jun_04_1204,ACPT_experiment_5_30_19,3.1.0,59.95670855
,,,C,U,d,n,L,G,y,R,y,,,,,5,19,119,15,1,0,1,0,,,,,0,4,4,35,,,,,,down,0.483322024,2836.828193,None,1,2,2019_Jun_04_1204,ACPT_experiment_5_30_19,3.1.0,59.95670855
,,,C,U,d,n,L,D,d,R,c ,,,,,5,19,119,15,1,0,1,0,,,,,0,5,5,13,,,,,,up,0.550417289,2838.59595,None,1,2,2019_Jun_04_1204,ACPT_experiment_5_30_19,3.1.0,59.95670855
,,,C,U,d,n,L,D,g,L,i,,,,,5,19,119,15,1,0,1,0,,,,,0,6,6,14,,,,,,up,0.717241123,2840.413995,None,1,2,2019_Jun_04_1204,ACPT_experiment_5_30_19,3.1.0,59.95670855
,,,C,U,d,n,R,G,d,R,i,,,,,5,19,119,15,1,0,1,0,,,,,0,7,7,5,,,,,,up,0.417024268,2842.41556,None,1,2,2019_Jun_04_1204,ACPT_experiment_5_30_19,3.1.0,59.95670855
,,,C,U,d,n,R,D,g,L,i,,,,,5,19,119,15,1,0,1,0,,,,,0,8,8,2,,,,,,up,0.53345466,2844.133833,None,1,2,2019_Jun_04_1204,ACPT_experiment_5_30_19,3.1.0,59.95670855
,,,C,U,d,n,L,G,y,L,y,,,,,5,19,119,15,1,0,1,0,,,,,0,9,9,34,,,,,,down,0.517041112,2845.951642,None,1,2,2019_Jun_04_1204,ACPT_experiment_5_30_19,3.1.0,59.95670855
,,,C,U,d,n,R,G,d,L,i,,,,,5,19,119,15,1,0,1,0,,,,,0,10,10,4,,,,,,up,0.483834579,2847.753009,None,1,2,2019_Jun_04_1204,ACPT_experiment_5_30_19,3.1.0,59.95670855
,,,C,U,d,n,L,U,y,R,u,,,,,5,19,119,15,1,0,1,0,,,,,0,11,11,25,,,,,,down,0.467041897,2849.521017,None,1,2,2019_Jun_04_1204,ACPT_experiment_5_30_19,3.1.0,59.95670855
,,,C,U,d,n,R,U,g,R,u,,,,,5,19,119,15,1,0,1,0,,,,,0,12,12,11,,,,,,up,0.500108971,2851.28934,None,1,2,2019_Jun_04_1204,ACPT_experiment_5_30_19,3.1.0,59.95670855
,,,C,U,d,n,R,U,g,L,u,,,,,5,19,119,15,1,0,1,0,,,,,0,13,13,10,,,,,,up,0.316927432,2853.057074,None,1,2,2019_Jun_04_1204,ACPT_experiment_5_30_19,3.1.0,59.95670855
,,,C,U,d,n,L,U,d,L,u,,,,,5,19,119,15,1,0,1,0,,,,,0,14,14,20,,,,,,down,0.500377625,2854.658333,None,1,2,2019_Jun_04_1204,ACPT_experiment_5_30_19,3.1.0,59.95670855
,,,C,U,d,n,R,G,y,R,y,,,,,5,19,119,15,1,0,1,0,,,,,0,15,15,29,,,,,,down,0.56711066,2856.443042,None,1,2,2019_Jun_04_1204,ACPT_experiment_5_30_19,3.1.0,59.95670855
,,,C,U,d,n,L,D,y,R,y,,,,,5,19,119,15,1,0,1,0,,,,,0,16,16,33,,,,,,down,0.533473677,2858.311418,None,1,2,2019_Jun_04_1204,ACPT_experiment_5_30_19,3.1.0,59.95670855
,,,C,U,d,n,L,G,d,L,i,,,,,5,19,119,15,1,0,1,0,,,,,0,17,17,16,,,,,,up,0.483703875,2860.129215,None,1,2,2019_Jun_04_1204,ACPT_experiment_5_30_19,3.1.0,59.95670855
,,,C,U,d,n,L,U,g,R,u,,,,,5,19,119,15,1,0,1,0,,,,,0,18,18,23,,,,,,up,0.500384266,2861.897243,None,1,2,2019_Jun_04_1204,ACPT_experiment_5_30_19,3.1.0,59.95670855
,,,C,U,d,n,L,U,g,L,u,,,,,5,19,119,15,1,0,1,0,,,,,0,19,19,22,,,,,,up,0.517101484,2863.665123,None,1,2,2019_Jun_04_1204,ACPT_experiment_5_30_19,3.1.0,59.95670855
,,,C,U,d,n,R,U,d,R,u,,,,,5,19,119,15,1,0,1,0,,,,,0,20,20,9,,,,,,up,0.650243056,2865.483594,None,1,2,2019_Jun_04_1204,ACPT_experiment_5_30_19,3.1.0,59.95670855
,,,C,U,d,n,L,D,y,L,y,,,,,5,19,119,15,1,0,1,0,,,,,0,21,21,32,,,,,,down,0.43366421,2867.418163,None,1,2,2019_Jun_04_1204,ACPT_experiment_5_30_19,3.1.0,59.95670855
,,,C,U,d,n,R,U,d,L,u,,,,,5,19,119,15,1,0,1,0,,,,,0,22,22,8,,,,,,up,0.884033564,2869.136138,None,1,2,2019_Jun_04_1204,ACPT_experiment_5_30_19,3.1.0,59.95670855
,,,C,U,d,n,R,G,g,L,c ,,,,,5,19,119,15,1,0,1,0,,,,,0,23,23,6,,,,,,up,0.366968907,2871.304472,None,1,2,2019_Jun_04_1204,ACPT_experiment_5_30_19,3.1.0,59.95670855
,,,C,U,d,n,L,G,d,R,i,,,,,5,19,119,15,1,0,1,0,,,,,0,24,24,17,,,,,,up,0.400302221,2872.955765,None,1,2,2019_Jun_04_1204,ACPT_experiment_5_30_19,3.1.0,59.95670855
,,,C,U,d,n,L,U,y,L,u,,,,,5,19,119,15,1,0,1,0,,,,,0,25,25,24,,,,,,down,0.383653826,2874.640369,None,1,2,2019_Jun_04_1204,ACPT_experiment_5_30_19,3.1.0,59.95670855
,,,C,U,d,n,R,D,y,R,y,,,,,5,19,119,15,1,0,1,0,,,,,0,26,26,27,,,,,,down,0.433663607,2876.30835,None,1,2,2019_Jun_04_1204,ACPT_experiment_5_30_19,3.1.0,59.95670855
,,,C,U,d,n,L,G,g,L,c ,,,,,5,19,119,15,1,0,1,0,,,,,0,27,27,18,,,,,,up,0.450058742,2878.043301,None,1,2,2019_Jun_04_1204,ACPT_experiment_5_30_19,3.1.0,59.95670855
,,,C,U,d,n,L,G,g,R,c ,,,,,5,19,119,15,1,0,1,0,,,,,0,28,28,19,,,,,,up,0.41699046,2879.777693,None,1,2,2019_Jun_04_1204,ACPT_experiment_5_30_19,3.1.0,59.95670855
,,,C,U,d,n,L,D,g,R,i,,,,,5,19,119,15,1,0,1,0,,,,,0,29,29,15,,,,,,up,0.366944457,2881.479004,None,1,2,2019_Jun_04_1204,ACPT_experiment_5_30_19,3.1.0,59.95670855
,,,C,U,d,n,R,D,d,R,c ,,,,,5,19,119,15,1,0,1,0,,,,,0,30,30,1,,,,,,up,0.416970236,2883.130282,None,1,2,2019_Jun_04_1204,ACPT_experiment_5_30_19,3.1.0,59.95670855
,,,C,U,d,n,R,D,y,L,y,,,,,5,19,119,15,1,0,1,0,,,,,0,31,31,26,,,,,,down,0.497126912,2884.851595,None,1,2,2019_Jun_04_1204,ACPT_experiment_5_30_19,3.1.0,59.95670855
,,,C,U,d,n,R,G,y,L,y,,,,,5,19,119,15,1,0,1,0,,,,,0,32,32,28,,,,,,down,0.517093032,2886.632948,None,1,2,2019_Jun_04_1204,ACPT_experiment_5_30_19,3.1.0,59.95670855
,,,C,U,d,n,R,D,g,R,i,,,,,5,19,119,15,1,0,1,0,,,,,0,33,33,3,,,,,,up,0.500377021,2888.434368,None,1,2,2019_Jun_04_1204,ACPT_experiment_5_30_19,3.1.0,59.95670855
,,,C,U,d,n,L,D,d,L,c ,,,,,5,19,119,15,1,0,1,0,,,,,0,34,34,12,,,,,,up,0.433661494,2890.219074,None,1,2,2019_Jun_04_1204,ACPT_experiment_5_30_19,3.1.0,59.95670855
,,,C,U,d,n,R,U,y,L,u,,,,,5,19,119,15,1,0,1,0,,,,,0,35,35,30,,,,,,down,0.516705144,2891.954079,None,1,2,2019_Jun_04_1204,ACPT_experiment_5_30_19,3.1.0,59.95670855
,,,C,U,d,n,R,U,y,R,u,,,,,5,19,119,15,1,0,1,0,,,,,1,0,36,31,,,,,,down,0.567254043,2893.738303,None,1,2,2019_Jun_04_1204,ACPT_experiment_5_30_19,3.1.0,59.95670855
,,,C,U,d,n,R,G,y,L,y,,,,,5,19,119,15,1,0,1,0,,,,,1,1,37,28,,,,,,down,0.600453633,2895.606564,None,1,2,2019_Jun_04_1204,ACPT_experiment_5_30_19,3.1.0,59.95670855
,,,C,U,d,n,R,D,y,L,y,,,,,5,19,119,15,1,0,1,0,,,,,1,2,38,26,,,,,,down,0.567099189,2897.508036,None,1,2,2019_Jun_04_1204,ACPT_experiment_5_30_19,3.1.0,59.95670855
,,,C,U,d,n,L,U,g,L,u,,,,,5,19,119,15,1,0,1,0,,,,,1,3,39,22,,,,,,up,0.617124364,2899.359462,None,1,2,2019_Jun_04_1204,ACPT_experiment_5_30_19,3.1.0,59.95670855
,,,C,U,d,n,L,G,g,R,c ,,,,,5,19,119,15,1,0,1,0,,,,,1,4,40,19,,,,,,up,0.46701805,2901.260918,None,1,2,2019_Jun_04_1204,ACPT_experiment_5_30_19,3.1.0,59.95670855
,,,C,U,d,n,R,D,y,R,y,,,,,5,19,119,15,1,0,1,0,,,,,1,5,41,27,,,,,,down,0.567101302,2903.012268,None,1,2,2019_Jun_04_1204,ACPT_experiment_5_30_19,3.1.0,59.95670855
,,,C,U,d,n,L,U,g,R,u,,,,,5,19,119,15,1,0,1,0,,,,,1,6,42,23,,,,,,up,0.767257544,2904.863693,None,1,2,2019_Jun_04_1204,ACPT_experiment_5_30_19,3.1.0,59.95670855
,,,C,U,d,n,R,G,d,R,i,,,,,5,19,119,15,1,0,1,0,,,,,1,7,43,5,,,,,,up,0.500386681,2906.915274,None,1,2,2019_Jun_04_1204,ACPT_experiment_5_30_19,3.1.0,59.95670855
,,,C,U,d,n,L,G,y,R,y,,,,,5,19,119,15,1,0,1,0,,,,,1,8,44,35,,,,,,down,0.51708458,2908.699963,None,1,2,2019_Jun_04_1204,ACPT_experiment_5_30_19,3.1.0,59.95670855
,,,C,U,d,n,R,G,g,R,c ,,,,,5,19,119,15,1,0,1,0,,,,,1,9,45,7,,,,,,up,0.500389699,2910.501373,None,1,2,2019_Jun_04_1204,ACPT_experiment_5_30_19,3.1.0,59.95670855
,,,C,U,d,n,R,D,g,R,i,,,,,5,19,119,15,1,0,1,0,,,,,1,10,46,3,,,,,,up,0.450344903,2912.2694,None,1,2,2019_Jun_04_1204,ACPT_experiment_5_30_19,3.1.0,59.95670855
,,,C,U,d,n,R,G,g,L,c ,,,,,5,19,119,15,1,0,1,0,,,,,1,11,47,6,,,,,,up,0.51706677,2914.004071,None,1,2,2019_Jun_04_1204,ACPT_experiment_5_30_19,3.1.0,59.95670855
,,,C,U,d,n,R,U,y,L,u,,,,,5,19,119,15,1,0,1,0,,,,,1,12,48,30,,,,,,down,0.483693913,2915.805466,None,1,2,2019_Jun_04_1204,ACPT_experiment_5_30_19,3.1.0,59.95670855
,,,C,U,d,n,L,U,d,R,u,,,,,5,19,119,15,1,0,1,0,,,,,1,13,49,21,,,,,,up,0.500134327,2917.590418,None,1,2,2019_Jun_04_1204,ACPT_experiment_5_30_19,3.1.0,59.95670855
,,,C,U,d,n,R,U,g,L,u,,,,,5,19,119,15,1,0,1,0,,,,,1,14,50,10,,,,,,up,0.550412459,2919.374883,None,1,2,2019_Jun_04_1204,ACPT_experiment_5_30_19,3.1.0,59.95670855
,,,C,U,d,n,R,U,d,R,u,,,,,5,19,119,15,1,0,1,0,,,,,1,15,51,9,,,,,,up,0.433667229,2921.209626,None,1,2,2019_Jun_04_1204,ACPT_experiment_5_30_19,3.1.0,59.95670855
,,,C,U,d,n,L,D,y,L,y,,,,,5,19,119,15,1,0,1,0,,,,,1,16,52,32,,,,,,down,0.51705862,2922.944299,None,1,2,2019_Jun_04_1204,ACPT_experiment_5_30_19,3.1.0,59.95670855
,,,C,U,d,n,L,D,g,L,i,,,,,5,19,119,15,1,0,1,0,,,,,1,17,53,14,,,,,,up,0.463581091,2924.78249,None,1,2,2019_Jun_04_1204,ACPT_experiment_5_30_19,3.1.0,59.95670855
,,,C,U,d,n,L,D,d,L,c ,,,,,5,19,119,15,1,0,1,0,,,,,1,18,54,12,,,,,,up,0.40030856,2926.5304,None,1,2,2019_Jun_04_1204,ACPT_experiment_5_30_19,3.1.0,59.95670855
,,,C,U,d,n,L,G,d,L,i,,,,,5,19,119,15,1,0,1,0,,,,,1,19,55,16,,,,,,up,0.683750542,2928.215024,None,1,2,2019_Jun_04_1204,ACPT_experiment_5_30_19,3.1.0,59.95670855
,,,C,U,d,n,R,U,d,L,u,,,,,5,19,119,15,1,0,1,0,,,,,1,20,56,8,,,,,,up,0.433669946,2930.183209,None,1,2,2019_Jun_04_1204,ACPT_experiment_5_30_19,3.1.0,59.95670855
,,,C,U,d,n,R,D,g,L,i,,,,,5,19,119,15,1,0,1,0,,,,,1,21,57,2,,,,,,up,0.516792079,2931.918154,None,1,2,2019_Jun_04_1204,ACPT_experiment_5_30_19,3.1.0,59.95670855
,,,C,U,d,n,L,G,d,R,i,,,,,5,19,119,15,1,0,1,0,,,,,1,22,58,17,,,,,,up,0.500385473,2933.719266,None,1,2,2019_Jun_04_1204,ACPT_experiment_5_30_19,3.1.0,59.95670855
,,,C,U,d,n,L,D,d,R,c ,,,,,5,19,119,15,1,0,1,0,,,,,1,23,59,13,,,,,,up,0.433659682,2935.487302,None,1,2,2019_Jun_04_1204,ACPT_experiment_5_30_19,3.1.0,59.95670855
,,,C,U,d,n,L,G,y,L,y,,,,,5,19,119,15,1,0,1,0,,,,,1,24,60,34,,,,,,down,0.583781694,2937.205289,None,1,2,2019_Jun_04_1204,ACPT_experiment_5_30_19,3.1.0,59.95670855
,,,C,U,d,n,R,G,d,L,i,,,,,5,19,119,15,1,0,1,0,,,,,1,25,61,4,,,,,,up,0.550166143,2939.090329,None,1,2,2019_Jun_04_1204,ACPT_experiment_5_30_19,3.1.0,59.95670855
,,,C,U,d,n,R,U,g,R,u,,,,,5,19,119,15,1,0,1,0,,,,,1,26,62,11,,,,,,up,0.53374535,2940.924822,None,1,2,2019_Jun_04_1204,ACPT_experiment_5_30_19,3.1.0,59.95670855
,,,C,U,d,n,R,G,y,R,y,,,,,5,19,119,15,1,0,1,0,,,,,1,27,63,29,,,,,,down,0.617134326,2942.759572,None,1,2,2019_Jun_04_1204,ACPT_experiment_5_30_19,3.1.0,59.95670855
,,,C,U,d,n,L,D,y,R,y,,,,,5,19,119,15,1,0,1,0,,,,,1,28,64,33,,,,,,down,0.63380717,2944.66104,None,1,2,2019_Jun_04_1204,ACPT_experiment_5_30_19,3.1.0,59.95670855
,,,C,U,d,n,L,U,y,L,u,,,,,5,19,119,15,1,0,1,0,,,,,1,29,65,24,,,,,,down,0.617138854,2946.579181,None,1,2,2019_Jun_04_1204,ACPT_experiment_5_30_19,3.1.0,59.95670855
,,,C,U,d,n,R,D,d,R,c ,,,,,5,19,119,15,1,0,1,0,,,,,1,30,66,1,,,,,,up,0.617140665,2948.480649,None,1,2,2019_Jun_04_1204,ACPT_experiment_5_30_19,3.1.0,59.95670855
,,,C,U,d,n,L,U,y,R,u,,,,,5,19,119,15,1,0,1,0,,,,,1,31,67,25,,,,,,down,0.583756941,2950.398806,None,1,2,2019_Jun_04_1204,ACPT_experiment_5_30_19,3.1.0,59.95670855
,,,C,U,d,n,L,D,g,R,i,,,,,5,19,119,15,1,0,1,0,,,,,1,32,68,15,,,,,,up,0.650476393,2952.300273,None,1,2,2019_Jun_04_1204,ACPT_experiment_5_30_19,3.1.0,59.95670855
,,,C,U,d,n,L,U,d,L,u,,,,,5,19,119,15,1,0,1,0,,,,,1,33,69,20,,,,,,up,0.583767506,2954.235094,None,1,2,2019_Jun_04_1204,ACPT_experiment_5_30_19,3.1.0,59.95670855
,,,C,U,d,n,L,G,g,L,c ,,,,,5,19,119,15,1,0,1,0,,,,,1,34,70,18,,,,,,up,0.517082165,2956.103188,None,1,2,2019_Jun_04_1204,ACPT_experiment_5_30_19,3.1.0,59.95670855
,,,C,U,d,n,R,D,d,L,c,,,,,5,19,119,15,1,0,1,0,,,,,1,35,71,0,,,,,,up,0.600446388,2957.904584,None,1,2,2019_Jun_04_1204,ACPT_experiment_5_30_19,3.1.0,59.95670855
,,,C,U,d,n,,,,,,,,,,5,19,119,15,2,0,2,0,0,0,0,0,,,,,,,,,,,,,,1,2,2019_Jun_04_1204,ACPT_experiment_5_30_19,3.1.0,59.95670855
,,,C,U,d,n,L,G,d,R,i,,,,,5,19,119,15,2,0,2,0,,,,,0,0,0,17,,,,,,up,0.617131307,2962.941794,None,1,2,2019_Jun_04_1204,ACPT_experiment_5_30_19,3.1.0,59.95670855
,,,C,U,d,n,R,D,g,R,i,,,,,5,19,119,15,2,0,2,0,,,,,0,1,1,3,,,,,,up,0.530408608,2964.863271,None,1,2,2019_Jun_04_1204,ACPT_experiment_5_30_19,3.1.0,59.95670855
,,,C,U,d,n,L,G,d,L,i,,,,,5,19,119,15,2,0,2,0,,,,,0,2,2,16,,,,,,up,0.650504164,2966.678003,None,1,2,2019_Jun_04_1204,ACPT_experiment_5_30_19,3.1.0,59.95670855
,,,C,U,d,n,R,G,g,R,c ,,,,,5,19,119,15,2,0,2,0,,,,,0,3,3,7,,,,,,up,0.500408113,2968.612806,None,1,2,2019_Jun_04_1204,ACPT_experiment_5_30_19,3.1.0,59.95670855
,,,C,U,d,n,R,D,y,L,y,,,,,5,19,119,15,2,0,2,0,,,,,0,4,4,26,,,,,,down,0.617136137,2970.397538,None,1,2,2019_Jun_04_1204,ACPT_experiment_5_30_19,3.1.0,59.95670855
,,,C,U,d,n,R,G,y,L,y,,,,,5,19,119,15,2,0,2,0,,,,,0,5,5,28,,,,,,down,0.617137646,2972.299004,None,1,2,2019_Jun_04_1204,ACPT_experiment_5_30_19,3.1.0,59.95670855
,,,C,U,d,n,L,D,g,R,i,,,,,5,19,119,15,2,0,2,0,,,,,0,6,6,15,,,,,,up,0.61714157,2974.200471,None,1,2,2019_Jun_04_1204,ACPT_experiment_5_30_19,3.1.0,59.95670855
,,,C,U,d,n,L,G,g,L,c ,,,,,5,19,119,15,2,0,2,0,,,,,0,7,7,18,,,,,,up,0.583769317,2976.10194,None,1,2,2019_Jun_04_1204,ACPT_experiment_5_30_19,3.1.0,59.95670855
,,,C,U,d,n,R,U,d,R,u,,,,,5,19,119,15,2,0,2,0,,,,,0,8,8,9,,,,,,up,0.80035088,2977.986987,None,1,2,2019_Jun_04_1204,ACPT_experiment_5_30_19,3.1.0,59.95670855
,,,C,U,d,n,R,U,g,L,u,,,,,5,19,119,15,2,0,2,0,,,,,0,9,9,10,,,,,,up,0.517079448,2980.054965,None,1,2,2019_Jun_04_1204,ACPT_experiment_5_30_19,3.1.0,59.95670855
,,,C,U,d,n,R,G,g,L,c ,,,,,5,19,119,15,2,0,2,0,,,,,0,10,10,6,,,,,,up,0.433665418,2981.856373,None,1,2,2019_Jun_04_1204,ACPT_experiment_5_30_19,3.1.0,59.95670855
,,,C,U,d,n,L,U,g,L,u,,,,,5,19,119,15,2,0,2,0,,,,,0,11,11,22,,,,,,up,0.433663003,2983.557683,None,1,2,2019_Jun_04_1204,ACPT_experiment_5_30_19,3.1.0,59.95670855
,,,C,U,d,n,R,D,d,R,c ,,,,,5,19,119,15,2,0,2,0,,,,,0,12,12,1,,,,,,up,0.483428882,2985.292627,None,1,2,2019_Jun_04_1204,ACPT_experiment_5_30_19,3.1.0,59.95670855
,,,C,U,d,n,L,U,y,L,u,,,,,5,19,119,15,2,0,2,0,,,,,0,13,13,24,,,,,,down,0.700550771,2987.077044,None,1,2,2019_Jun_04_1204,ACPT_experiment_5_30_19,3.1.0,59.95670855
,,,C,U,d,n,L,D,y,L,y,,,,,5,19,119,15,2,0,2,0,,,,,0,14,14,32,,,,,,down,0.917366576,2989.061927,None,1,2,2019_Jun_04_1204,ACPT_experiment_5_30_19,3.1.0,59.95670855
,,,C,U,d,n,L,D,g,L,i,,,,,5,19,119,15,2,0,2,0,,,,,0,15,15,14,,,,,,down,0.867341702,2991.280288,None,1,2,2019_Jun_04_1204,ACPT_experiment_5_30_19,3.1.0,59.95670855
,,,C,U,d,n,R,U,y,L,u,,,,,5,19,119,15,2,0,2,0,,,,,0,16,16,30,,,,,,down,0.63384611,2993.431932,None,1,2,2019_Jun_04_1204,ACPT_experiment_5_30_19,3.1.0,59.95670855
,,,C,U,d,n,R,D,y,R,y,,,,,5,19,119,15,2,0,2,0,,,,,0,17,17,27,,,,,,down,0.683826912,2995.366809,None,1,2,2019_Jun_04_1204,ACPT_experiment_5_30_19,3.1.0,59.95670855
,,,C,U,d,n,R,U,d,L,u,,,,,5,19,119,15,2,0,2,0,,,,,0,18,18,8,,,,,,up,0.400303428,2997.351649,None,1,2,2019_Jun_04_1204,ACPT_experiment_5_30_19,3.1.0,59.95670855
,,,C,U,d,n,L,U,y,R,u,,,,,5,19,119,15,2,0,2,0,,,,,0,19,19,25,,,,,,down,0.533752896,2999.036267,None,1,2,2019_Jun_04_1204,ACPT_experiment_5_30_19,3.1.0,59.95670855
,,,C,U,d,n,L,U,d,R,u,,,,,5,19,119,15,2,0,2,0,,,,,0,20,20,21,,,,,,up,0.517088202,3000.837644,None,1,2,2019_Jun_04_1204,ACPT_experiment_5_30_19,3.1.0,59.95670855
,,,C,U,d,n,R,D,g,L,i,,,,,5,19,119,15,2,0,2,0,,,,,0,21,21,2,,,,,,up,0.58378109,3002.639054,None,1,2,2019_Jun_04_1204,ACPT_experiment_5_30_19,3.1.0,59.95670855
,,,C,U,d,n,L,U,g,R,u,,,,,5,19,119,15,2,0,2,0,,,,,0,22,22,23,,,,,,up,0.817015877,3004.524114,None,1,2,2019_Jun_04_1204,ACPT_experiment_5_30_19,3.1.0,59.95670855
,,,C,U,d,n,R,G,d,R,i,,,,,5,19,119,15,2,0,2,0,,,,,0,23,23,5,,,,,,up,0.567100095,3006.625462,None,1,2,2019_Jun_04_1204,ACPT_experiment_5_30_19,3.1.0,59.95670855
,,,C,U,d,n,L,D,d,L,c ,,,,,5,19,119,15,2,0,2,0,,,,,0,24,24,12,,,,,,up,0.533734181,3008.476892,None,1,2,2019_Jun_04_1204,ACPT_experiment_5_30_19,3.1.0,59.95670855
,,,C,U,d,n,R,U,y,R,u,,,,,5,19,119,15,2,0,2,0,,,,,0,25,25,31,,,,,,down,0.717215163,3010.294961,None,1,2,2019_Jun_04_1204,ACPT_experiment_5_30_19,3.1.0,59.95670855
,,,C,U,d,n,L,G,y,R,y,,,,,5,19,119,15,2,0,2,0,,,,,0,26,26,35,,,,,,down,0.583806446,3012.296472,None,1,2,2019_Jun_04_1204,ACPT_experiment_5_30_19,3.1.0,59.95670855
,,,C,U,d,n,R,U,g,R,u,,,,,5,19,119,15,2,0,2,0,,,,,0,27,27,11,,,,,,up,0.5337372,3014.164608,None,1,2,2019_Jun_04_1204,ACPT_experiment_5_30_19,3.1.0,59.95670855
,,,C,U,d,n,L,U,d,L,u,,,,,5,19,119,15,2,0,2,0,,,,,0,28,28,20,,,,,,up,0.416965708,3015.98269,None,1,2,2019_Jun_04_1204,ACPT_experiment_5_30_19,3.1.0,59.95670855
,,,C,U,d,n,L,D,y,R,y,,,,,5,19,119,15,2,0,2,0,,,,,0,29,29,33,,,,,,down,0.633578664,3017.700903,None,1,2,2019_Jun_04_1204,ACPT_experiment_5_30_19,3.1.0,59.95670855
,,,C,U,d,n,L,D,d,R,c ,,,,,5,19,119,15,2,0,2,0,,,,,0,30,30,13,,,,,,up,0.867330534,3019.618809,None,1,2,2019_Jun_04_1204,ACPT_experiment_5_30_19,3.1.0,59.95670855
,,,C,U,d,n,R,D,d,L,c,,,,,5,19,119,15,2,0,2,0,,,,,0,31,31,0,,,,,,up,0.533628229,3021.770554,None,1,2,2019_Jun_04_1204,ACPT_experiment_5_30_19,3.1.0,59.95670855
,,,C,U,d,n,L,G,g,R,c ,,,,,5,19,119,15,2,0,2,0,,,,,0,32,32,19,,,,,,up,0.533743237,3023.60522,None,1,2,2019_Jun_04_1204,ACPT_experiment_5_30_19,3.1.0,59.95670855
,,,C,U,d,n,R,G,d,L,i,,,,,5,19,119,15,2,0,2,0,,,,,0,33,33,4,,,,,,up,0.483704176,3025.423286,None,1,2,2019_Jun_04_1204,ACPT_experiment_5_30_19,3.1.0,59.95670855
,,,C,U,d,n,L,G,y,L,y,,,,,5,19,119,15,2,0,2,0,,,,,0,34,34,34,,,,,,down,0.567090134,3027.191314,None,1,2,2019_Jun_04_1204,ACPT_experiment_5_30_19,3.1.0,59.95670855
,,,C,U,d,n,R,G,y,R,y,,,,,5,19,119,15,2,0,2,0,,,,,0,35,35,29,,,,,,down,0.550429363,3029.042727,None,1,2,2019_Jun_04_1204,ACPT_experiment_5_30_19,3.1.0,59.95670855
,,,C,U,d,n,L,U,g,R,u,,,,,5,19,119,15,2,0,2,0,,,,,1,0,36,23,,,,,,up,0.650244264,3030.894418,None,1,2,2019_Jun_04_1204,ACPT_experiment_5_30_19,3.1.0,59.95670855
,,,C,U,d,n,L,D,g,L,i,,,,,5,19,119,15,2,0,2,0,,,,,1,1,37,14,,,,,,up,0.483706893,3032.828992,None,1,2,2019_Jun_04_1204,ACPT_experiment_5_30_19,3.1.0,59.95670855
,,,C,U,d,n,R,G,d,R,i,,,,,5,19,119,15,2,0,2,0,,,,,1,2,38,5,,,,,,up,0.450363015,3034.597002,None,1,2,2019_Jun_04_1204,ACPT_experiment_5_30_19,3.1.0,59.95670855
,,,C,U,d,n,R,U,d,R,u,,,,,5,19,119,15,2,0,2,0,,,,,1,3,39,9,,,,,,up,0.366966794,3036.331663,None,1,2,2019_Jun_04_1204,ACPT_experiment_5_30_19,3.1.0,59.95670855
,,,C,U,d,n,R,G,y,L,y,,,,,5,19,119,15,2,0,2,0,,,,,1,4,40,28,,,,,,down,0.566849251,3037.999893,None,1,2,2019_Jun_04_1204,ACPT_experiment_5_30_19,3.1.0,59.95670855
,,,C,U,d,n,L,G,y,R,y,,,,,5,19,119,15,2,0,2,0,,,,,1,5,41,35,,,,,,down,0.683864644,3039.85107,None,1,2,2019_Jun_04_1204,ACPT_experiment_5_30_19,3.1.0,59.95670855
,,,C,U,d,n,L,G,g,L,c ,,,,,5,19,119,15,2,0,2,0,,,,,1,6,42,18,,,,,,up,0.517088504,3041.802552,None,1,2,2019_Jun_04_1204,ACPT_experiment_5_30_19,3.1.0,59.95670855
,,,C,U,d,n,R,D,d,R,c ,,,,,5,19,119,15,2,0,2,0,,,,,1,7,43,1,,,,,,up,0.617033807,3043.60396,None,1,2,2019_Jun_04_1204,ACPT_experiment_5_30_19,3.1.0,59.95670855
,,,C,U,d,n,L,D,d,R,c ,,,,,5,19,119,15,2,0,2,0,,,,,1,8,44,13,,,,,,up,0.417020042,3045.505407,None,1,2,2019_Jun_04_1204,ACPT_experiment_5_30_19,3.1.0,59.95670855
,,,C,U,d,n,R,U,g,L,u,,,,,5,19,119,15,2,0,2,0,,,,,1,9,45,10,,,,,,up,0.533731464,3047.206746,None,1,2,2019_Jun_04_1204,ACPT_experiment_5_30_19,3.1.0,59.95670855
,,,C,U,d,n,R,D,g,L,i,,,,,5,19,119,15,2,0,2,0,,,,,1,10,46,2,,,,,,up,0.533742633,3049.024806,None,1,2,2019_Jun_04_1204,ACPT_experiment_5_30_19,3.1.0,59.95670855
,,,C,U,d,n,L,D,y,R,y,,,,,5,19,119,15,2,0,2,0,,,,,1,11,47,33,,,,,,down,0.516847017,3050.859787,None,1,2,2019_Jun_04_1204,ACPT_experiment_5_30_19,3.1.0,59.95670855
,,,C,U,d,n,R,G,g,L,c ,,,,,5,19,119,15,2,0,2,0,,,,,1,12,48,6,,,,,,up,0.550419402,3052.660944,None,1,2,2019_Jun_04_1204,ACPT_experiment_5_30_19,3.1.0,59.95670855
,,,C,U,d,n,L,G,d,R,i,,,,,5,19,119,15,2,0,2,0,,,,,1,13,49,17,,,,,,up,0.567120018,3054.495692,None,1,2,2019_Jun_04_1204,ACPT_experiment_5_30_19,3.1.0,59.95670855
,,,C,U,d,n,L,U,d,R,u,,,,,5,19,119,15,2,0,2,0,,,,,1,14,50,21,,,,,,up,0.450363015,3056.347093,None,1,2,2019_Jun_04_1204,ACPT_experiment_5_30_19,3.1.0,59.95670855
,,,C,U,d,n,R,U,y,R,u,,,,,5,19,119,15,2,0,2,0,,,,,1,15,51,31,,,,,,down,0.616780548,3058.115502,None,1,2,2019_Jun_04_1204,ACPT_experiment_5_30_19,3.1.0,59.95670855
,,,C,U,d,n,R,D,g,R,i,,,,,5,19,119,15,2,0,2,0,,,,,1,16,52,3,,,,,,up,0.850662821,3060.01661,None,1,2,2019_Jun_04_1204,ACPT_experiment_5_30_19,3.1.0,59.95670855
,,,C,U,d,n,R,U,g,R,u,,,,,5,19,119,15,2,0,2,0,,,,,1,17,53,11,,,,,,up,0.683880643,3062.151567,None,1,2,2019_Jun_04_1204,ACPT_experiment_5_30_19,3.1.0,59.95670855
,,,C,U,d,n,R,U,d,L,u,,,,,5,19,119,15,2,0,2,0,,,,,1,18,54,8,,,,,,up,0.700566769,3064.103073,None,1,2,2019_Jun_04_1204,ACPT_experiment_5_30_19,3.1.0,59.95670855
,,,C,U,d,n,L,G,d,L,i,,,,,5,19,119,15,2,0,2,0,,,,,1,19,55,16,,,,,,up,0.783924956,3066.087964,None,1,2,2019_Jun_04_1204,ACPT_experiment_5_30_19,3.1.0,59.95670855
,,,C,U,d,n,L,U,d,L,u,,,,,5,19,119,15,2,0,2,0,,,,,1,20,56,20,,,,,,up,0.433666021,3068.156223,None,1,2,2019_Jun_04_1204,ACPT_experiment_5_30_19,3.1.0,59.95670855
,,,C,U,d,n,R,G,d,L,i,,,,,5,19,119,15,2,0,2,0,,,,,1,21,57,4,,,,,,up,0.483719269,3069.87421,None,1,2,2019_Jun_04_1204,ACPT_experiment_5_30_19,3.1.0,59.95670855
,,,C,U,d,n,L,U,y,R,u,,,,,5,19,119,15,2,0,2,0,,,,,1,22,58,25,,,,,,down,0.533475488,3071.659192,None,1,2,2019_Jun_04_1204,ACPT_experiment_5_30_19,3.1.0,59.95670855
,,,C,U,d,n,R,G,g,R,c ,,,,,5,19,119,15,2,0,2,0,,,,,1,23,59,7,,,,,,up,0.7672503,3073.476991,None,1,2,2019_Jun_04_1204,ACPT_experiment_5_30_19,3.1.0,59.95670855
,,,C,U,d,n,R,D,y,L,y,,,,,5,19,119,15,2,0,2,0,,,,,1,24,60,26,,,,,,down,0.717221502,3075.528568,None,1,2,2019_Jun_04_1204,ACPT_experiment_5_30_19,3.1.0,59.95670855
,,,C,U,d,n,L,D,d,L,c ,,,,,5,19,119,15,2,0,2,0,,,,,1,25,61,12,,,,,,up,0.850648633,3077.530113,None,1,2,2019_Jun_04_1204,ACPT_experiment_5_30_19,3.1.0,59.95670855
,,,C,U,d,n,L,D,y,L,y,,,,,5,19,119,15,2,0,2,0,,,,,1,26,62,32,,,,,,down,0.717239614,3079.665067,None,1,2,2019_Jun_04_1204,ACPT_experiment_5_30_19,3.1.0,59.95670855
,,,C,U,d,n,R,D,y,R,y,,,,,5,19,119,15,2,0,2,0,,,,,1,27,63,27,,,,,,down,1.401105164,3081.666605,None,1,2,2019_Jun_04_1204,ACPT_experiment_5_30_19,3.1.0,59.95670855
,,,C,U,d,n,R,D,d,L,c,,,,,5,19,119,15,2,0,2,0,,,,,1,28,64,0,,,,,,up,0.500381851,3084.352035,None,1,2,2019_Jun_04_1204,ACPT_experiment_5_30_19,3.1.0,59.95670855
,,,C,U,d,n,L,G,g,R,c ,,,,,5,19,119,15,2,0,2,0,,,,,1,29,65,19,,,,,,up,0.667169462,3086.136753,None,1,2,2019_Jun_04_1204,ACPT_experiment_5_30_19,3.1.0,59.95670855
,,,C,U,d,n,R,G,y,R,y,,,,,5,19,119,15,2,0,2,0,,,,,1,30,66,29,,,,,,down,0.934047269,3088.104933,None,1,2,2019_Jun_04_1204,ACPT_experiment_5_30_19,3.1.0,59.95670855
,,,C,U,d,n,L,U,y,L,u,,,,,5,19,119,15,2,0,2,0,,,,,1,31,67,24,,,,,,down,0.833992089,3090.33996,None,1,2,2019_Jun_04_1204,ACPT_experiment_5_30_19,3.1.0,59.95670855
,,,C,U,d,n,L,U,g,L,u,,,,,5,19,119,15,2,0,2,0,,,,,1,32,68,22,,,,,,up,0.700538395,3092.458283,None,1,2,2019_Jun_04_1204,ACPT_experiment_5_30_19,3.1.0,59.95670855
,,,C,U,d,n,R,U,y,L,u,,,,,5,19,119,15,2,0,2,0,,,,,1,33,69,30,,,,,,down,0.917383178,3094.443153,None,1,2,2019_Jun_04_1204,ACPT_experiment_5_30_19,3.1.0,59.95670855
,,,C,U,d,n,L,G,y,L,y,,,,,5,19,119,15,2,0,2,0,,,,,1,34,70,34,,,,,,down,0.600494384,3096.644834,None,1,2,2019_Jun_04_1204,ACPT_experiment_5_30_19,3.1.0,59.95670855
,,,C,U,d,n,L,D,g,R,i,,,,,5,19,119,15,2,0,2,0,,,,,1,35,71,15,,,,,,up,0.583781995,3098.529626,None,1,2,2019_Jun_04_1204,ACPT_experiment_5_30_19,3.1.0,59.95670855
,,,C,U,d,n,,,,,,,,,,5,19,119,15,3,0,3,0,0,0,0,0,,,,,,,,,,,,,,1,2,2019_Jun_04_1204,ACPT_experiment_5_30_19,3.1.0,59.95670855
,,,C,U,d,n,L,D,y,L,y,,,,,5,19,119,15,3,0,3,0,,,,,0,0,0,32,,,,,,down,0.613812073,3106.906075,None,1,2,2019_Jun_04_1204,ACPT_experiment_5_30_19,3.1.0,59.95670855
,,,C,U,d,n,L,D,d,L,c ,,,,,5,19,119,15,3,0,3,0,,,,,0,1,1,12,,,,,,up,0.517082165,3108.804191,None,1,2,2019_Jun_04_1204,ACPT_experiment_5_30_19,3.1.0,59.95670855
,,,C,U,d,n,L,D,g,L,i,,,,,5,19,119,15,3,0,3,0,,,,,0,2,2,14,,,,,,up,0.483702063,3110.605605,None,1,2,2019_Jun_04_1204,ACPT_experiment_5_30_19,3.1.0,59.95670855
,,,C,U,d,n,L,U,g,R,u,,,,,5,19,119,15,3,0,3,0,,,,,0,3,3,23,,,,,,up,0.550420308,3112.373634,None,1,2,2019_Jun_04_1204,ACPT_experiment_5_30_19,3.1.0,59.95670855
,,,C,U,d,n,R,U,g,L,u,,,,,5,19,119,15,3,0,3,0,,,,,0,4,4,10,,,,,,up,0.41670943,3114.225334,None,1,2,2019_Jun_04_1204,ACPT_experiment_5_30_19,3.1.0,59.95670855
,,,C,U,d,n,L,D,g,R,i,,,,,5,19,119,15,3,0,3,0,,,,,0,5,5,15,,,,,,up,0.50040449,3115.909672,None,1,2,2019_Jun_04_1204,ACPT_experiment_5_30_19,3.1.0,59.95670855
,,,C,U,d,n,L,G,d,L,i,,,,,5,19,119,15,3,0,3,0,,,,,0,6,6,16,,,,,,up,0.700545639,3117.694399,None,1,2,2019_Jun_04_1204,ACPT_experiment_5_30_19,3.1.0,59.95670855
,,,C,U,d,n,R,G,g,R,c ,,,,,5,19,119,15,3,0,3,0,,,,,0,7,7,7,,,,,,up,0.567098888,3119.679268,None,1,2,2019_Jun_04_1204,ACPT_experiment_5_30_19,3.1.0,59.95670855
,,,C,U,d,n,L,G,y,R,y,,,,,5,19,119,15,3,0,3,0,,,,,0,8,8,35,,,,,,down,0.549982613,3121.547788,None,1,2,2019_Jun_04_1204,ACPT_experiment_5_30_19,3.1.0,59.95670855
,,,C,U,d,n,R,G,y,R,y,,,,,5,19,119,15,3,0,3,0,,,,,0,9,9,29,,,,,,down,0.650484845,3123.398802,None,1,2,2019_Jun_04_1204,ACPT_experiment_5_30_19,3.1.0,59.95670855
,,,C,U,d,n,L,U,y,R,u,,,,,5,19,119,15,3,0,3,0,,,,,0,10,10,25,,,,,,down,0.567093152,3125.350303,None,1,2,2019_Jun_04_1204,ACPT_experiment_5_30_19,3.1.0,59.95670855
,,,C,U,d,n,R,G,y,L,y,,,,,5,19,119,15,3,0,3,0,,,,,0,11,11,28,,,,,,down,0.633821962,3127.201724,None,1,2,2019_Jun_04_1204,ACPT_experiment_5_30_19,3.1.0,59.95670855
,,,C,U,d,n,R,D,y,R,y,,,,,5,19,119,15,3,0,3,0,,,,,0,12,12,27,,,,,,down,0.650530426,3129.119844,None,1,2,2019_Jun_04_1204,ACPT_experiment_5_30_19,3.1.0,59.95670855
,,,C,U,d,n,R,D,y,L,y,,,,,5,19,119,15,3,0,3,0,,,,,0,13,13,26,,,,,,down,0.500383964,3131.0547,None,1,2,2019_Jun_04_1204,ACPT_experiment_5_30_19,3.1.0,59.95670855
,,,C,U,d,n,L,D,d,R,c ,,,,,5,19,119,15,3,0,3,0,,,,,0,14,14,13,,,,,,up,0.450338262,3132.839407,None,1,2,2019_Jun_04_1204,ACPT_experiment_5_30_19,3.1.0,59.95670855
,,,C,U,d,n,R,D,d,L,c,,,,,5,19,119,15,3,0,3,0,,,,,0,15,15,0,,,,,,up,0.550405517,3134.590772,None,1,2,2019_Jun_04_1204,ACPT_experiment_5_30_19,3.1.0,59.95670855
,,,C,U,d,n,R,G,g,L,c ,,,,,5,19,119,15,3,0,3,0,,,,,0,16,16,6,,,,,,up,0.583750602,3136.425532,None,1,2,2019_Jun_04_1204,ACPT_experiment_5_30_19,3.1.0,59.95670855
,,,C,U,d,n,R,G,d,L,i,,,,,5,19,119,15,3,0,3,0,,,,,0,17,17,4,,,,,,up,0.66719844,3138.27691,None,1,2,2019_Jun_04_1204,ACPT_experiment_5_30_19,3.1.0,59.95670855
,,,C,U,d,n,L,D,y,R,y,,,,,5,19,119,15,3,0,3,0,,,,,0,18,18,33,,,,,,down,0.567078361,3140.245132,None,1,2,2019_Jun_04_1204,ACPT_experiment_5_30_19,3.1.0,59.95670855
,,,C,U,d,n,L,G,g,R,c ,,,,,5,19,119,15,3,0,3,0,,,,,0,19,19,19,,,,,,up,0.567093152,3142.113224,None,1,2,2019_Jun_04_1204,ACPT_experiment_5_30_19,3.1.0,59.95670855
,,,C,U,d,n,R,U,g,R,u,,,,,5,19,119,15,3,0,3,0,,,,,0,20,20,11,,,,,,up,0.817292983,3143.964648,None,1,2,2019_Jun_04_1204,ACPT_experiment_5_30_19,3.1.0,59.95670855
,,,C,U,d,n,L,G,y,L,y,,,,,5,19,119,15,3,0,3,0,,,,,0,21,21,34,,,,,,down,0.733819184,3146.066334,None,1,2,2019_Jun_04_1204,ACPT_experiment_5_30_19,3.1.0,59.95670855
,,,C,U,d,n,R,G,d,R,i,,,,,5,19,119,15,3,0,3,0,,,,,0,22,22,5,,,,,,up,0.583754526,3148.084512,None,1,2,2019_Jun_04_1204,ACPT_experiment_5_30_19,3.1.0,59.95670855
,,,C,U,d,n,L,U,d,R,u,,,,,5,19,119,15,3,0,3,0,,,,,0,23,23,21,,,,,,up,0.700533263,3149.952596,None,1,2,2019_Jun_04_1204,ACPT_experiment_5_30_19,3.1.0,59.95670855
,,,C,U,d,n,L,U,d,L,u,,,,,5,19,119,15,3,0,3,0,,,,,0,24,24,20,,,,,,up,0.900690712,3151.937461,None,1,2,2019_Jun_04_1204,ACPT_experiment_5_30_19,3.1.0,59.95670855
,,,C,U,d,n,R,D,d,R,c ,,,,,5,19,119,15,3,0,3,0,,,,,0,25,25,1,,,,,,up,0.633792681,3154.1225,None,1,2,2019_Jun_04_1204,ACPT_experiment_5_30_19,3.1.0,59.95670855
,,,C,U,d,n,R,D,g,L,i,,,,,5,19,119,15,3,0,3,0,,,,,0,26,26,2,,,,,,up,0.500400566,3156.023923,None,1,2,2019_Jun_04_1204,ACPT_experiment_5_30_19,3.1.0,59.95670855
,,,C,U,d,n,R,U,y,R,u,,,,,5,19,119,15,3,0,3,0,,,,,0,27,27,31,,,,,,down,0.350278555,3157.80865,None,1,2,2019_Jun_04_1204,ACPT_experiment_5_30_19,3.1.0,59.95670855
,,,C,U,d,n,R,U,d,L,u,,,,,5,19,119,15,3,0,3,0,,,,,0,28,28,8,,,,,,up,0.447016915,3159.463253,None,1,2,2019_Jun_04_1204,ACPT_experiment_5_30_19,3.1.0,59.95670855
,,,C,U,d,n,L,G,g,L,c ,,,,,5,19,119,15,3,0,3,0,,,,,0,29,29,18,,,,,,up,0.517062242,3161.194598,None,1,2,2019_Jun_04_1204,ACPT_experiment_5_30_19,3.1.0,59.95670855
,,,C,U,d,n,L,G,d,R,i,,,,,5,19,119,15,3,0,3,0,,,,,0,30,30,17,,,,,,up,0.416984121,3162.995983,None,1,2,2019_Jun_04_1204,ACPT_experiment_5_30_19,3.1.0,59.95670855
,,,C,U,d,n,R,U,y,L,u,,,,,5,19,119,15,3,0,3,0,,,,,0,31,31,30,,,,,,down,0.71720158,3164.697314,None,1,2,2019_Jun_04_1204,ACPT_experiment_5_30_19,3.1.0,59.95670855
,,,C,U,d,n,R,D,g,R,i,,,,,5,19,119,15,3,0,3,0,,,,,0,32,32,3,,,,,,up,0.516767326,3166.715812,None,1,2,2019_Jun_04_1204,ACPT_experiment_5_30_19,3.1.0,59.95670855
,,,C,U,d,n,L,U,y,L,u,,,,,5,19,119,15,3,0,3,0,,,,,0,33,33,24,,,,,,down,0.633618207,3168.533755,None,1,2,2019_Jun_04_1204,ACPT_experiment_5_30_19,3.1.0,59.95670855
,,,C,U,d,n,R,U,d,R,u,,,,,5,19,119,15,3,0,3,0,,,,,0,34,34,9,,,,,,up,0.467017748,3170.485091,None,1,2,2019_Jun_04_1204,ACPT_experiment_5_30_19,3.1.0,59.95670855
,,,C,U,d,n,L,U,g,L,u,,,,,5,19,119,15,3,0,3,0,,,,,0,35,35,22,,,,,,up,0.467032539,3172.236426,None,1,2,2019_Jun_04_1204,ACPT_experiment_5_30_19,3.1.0,59.95670855
,,,C,U,d,n,L,G,g,L,c ,,,,,5,19,119,15,3,0,3,0,,,,,1,0,36,18,,,,,,up,0.483424656,3174.004742,None,1,2,2019_Jun_04_1204,ACPT_experiment_5_30_19,3.1.0,59.95670855
,,,C,U,d,n,L,G,y,L,y,,,,,5,19,119,15,3,0,3,0,,,,,1,1,37,34,,,,,,down,0.617163304,3175.772472,None,1,2,2019_Jun_04_1204,ACPT_experiment_5_30_19,3.1.0,59.95670855
,,,C,U,d,n,L,G,d,R,i,,,,,5,19,119,15,3,0,3,0,,,,,1,2,38,17,,,,,,up,0.533726333,3177.690655,None,1,2,2019_Jun_04_1204,ACPT_experiment_5_30_19,3.1.0,59.95670855
,,,C,U,d,n,R,U,y,R,u,,,,,5,19,119,15,3,0,3,0,,,,,1,3,39,31,,,,,,down,0.650500542,3179.508711,None,1,2,2019_Jun_04_1204,ACPT_experiment_5_30_19,3.1.0,59.95670855
,,,C,U,d,n,R,G,g,L,c ,,,,,5,19,119,15,3,0,3,0,,,,,1,4,40,6,,,,,,up,0.55042725,3181.443542,None,1,2,2019_Jun_04_1204,ACPT_experiment_5_30_19,3.1.0,59.95670855
,,,C,U,d,n,L,D,d,R,c ,,,,,5,19,119,15,3,0,3,0,,,,,1,5,41,13,,,,,,up,0.683861928,3183.278285,None,1,2,2019_Jun_04_1204,ACPT_experiment_5_30_19,3.1.0,59.95670855
,,,C,U,d,n,R,U,d,R,u,,,,,5,19,119,15,3,0,3,0,,,,,1,6,42,9,,,,,,up,0.5504354,3185.246469,None,1,2,2019_Jun_04_1204,ACPT_experiment_5_30_19,3.1.0,59.95670855
,,,C,U,d,n,R,G,g,R,c ,,,,,5,19,119,15,3,0,3,0,,,,,1,7,43,7,,,,,,up,0.914051265,3187.101221,None,1,2,2019_Jun_04_1204,ACPT_experiment_5_30_19,3.1.0,59.95670855
,,,C,U,d,n,R,U,g,L,u,,,,,5,19,119,15,3,0,3,0,,,,,1,8,44,10,,,,,,up,0.700529943,3189.299592,None,1,2,2019_Jun_04_1204,ACPT_experiment_5_30_19,3.1.0,59.95670855
,,,C,U,d,n,L,D,g,L,i,,,,,5,19,119,15,3,0,3,0,,,,,1,9,45,14,,,,,,up,0.517063148,3191.284453,None,1,2,2019_Jun_04_1204,ACPT_experiment_5_30_19,3.1.0,59.95670855
,,,C,U,d,n,R,U,d,L,u,,,,,5,19,119,15,3,0,3,0,,,,,1,10,46,8,,,,,,up,0.483512798,3193.102675,None,1,2,2019_Jun_04_1204,ACPT_experiment_5_30_19,3.1.0,59.95670855
,,,C,U,d,n,R,D,d,R,c ,,,,,5,19,119,15,3,0,3,0,,,,,1,11,47,1,,,,,,up,0.467020767,3194.870553,None,1,2,2019_Jun_04_1204,ACPT_experiment_5_30_19,3.1.0,59.95670855
,,,C,U,d,n,L,D,d,L,c ,,,,,5,19,119,15,3,0,3,0,,,,,1,12,48,12,,,,,,up,0.450369052,3196.605192,None,1,2,2019_Jun_04_1204,ACPT_experiment_5_30_19,3.1.0,59.95670855
,,,C,U,d,n,R,U,g,R,u,,,,,5,19,119,15,3,0,3,0,,,,,1,13,49,11,,,,,,up,0.60045484,3198.339894,None,1,2,2019_Jun_04_1204,ACPT_experiment_5_30_19,3.1.0,59.95670855
,,,C,U,d,n,R,D,g,L,i,,,,,5,19,119,15,3,0,3,0,,,,,1,14,50,2,,,,,,up,0.583508512,3200.241634,None,1,2,2019_Jun_04_1204,ACPT_experiment_5_30_19,3.1.0,59.95670855
,,,C,U,d,n,R,G,d,R,i,,,,,5,19,119,15,3,0,3,0,,,,,1,15,51,5,,,,,,up,0.650488467,3202.109468,None,1,2,2019_Jun_04_1204,ACPT_experiment_5_30_19,3.1.0,59.95670855
,,,C,U,d,n,L,U,y,L,u,,,,,5,19,119,15,3,0,3,0,,,,,1,16,52,24,,,,,,down,0.700517566,3204.060975,None,1,2,2019_Jun_04_1204,ACPT_experiment_5_30_19,3.1.0,59.95670855
,,,C,U,d,n,L,D,y,L,y,,,,,5,19,119,15,3,0,3,0,,,,,1,17,53,32,,,,,,down,0.733924231,3206.062511,None,1,2,2019_Jun_04_1204,ACPT_experiment_5_30_19,3.1.0,59.95670855
,,,C,U,d,n,L,U,y,R,u,,,,,5,19,119,15,3,0,3,0,,,,,1,18,54,25,,,,,,down,0.867330232,3208.114089,None,1,2,2019_Jun_04_1204,ACPT_experiment_5_30_19,3.1.0,59.95670855
,,,C,U,d,n,R,G,y,L,y,,,,,5,19,119,15,3,0,3,0,,,,,1,19,55,28,,,,,,down,0.833967035,3210.282431,None,1,2,2019_Jun_04_1204,ACPT_experiment_5_30_19,3.1.0,59.95670855
,,,C,U,d,n,L,D,g,R,i,,,,,5,19,119,15,3,0,3,0,,,,,1,20,56,15,,,,,,up,0.500370682,3212.400737,None,1,2,2019_Jun_04_1204,ACPT_experiment_5_30_19,3.1.0,59.95670855
,,,C,U,d,n,L,G,d,L,i,,,,,5,19,119,15,3,0,3,0,,,,,1,21,57,16,,,,,,up,0.600455746,3214.185441,None,1,2,2019_Jun_04_1204,ACPT_experiment_5_30_19,3.1.0,59.95670855
,,,C,U,d,n,L,G,y,R,y,,,,,5,19,119,15,3,0,3,0,,,,,1,22,58,35,,,,,,down,0.550447777,3216.070197,None,1,2,2019_Jun_04_1204,ACPT_experiment_5_30_19,3.1.0,59.95670855
,,,C,U,d,n,R,G,y,R,y,,,,,5,19,119,15,3,0,3,0,,,,,1,23,59,29,,,,,,down,0.500457617,3217.921648,None,1,2,2019_Jun_04_1204,ACPT_experiment_5_30_19,3.1.0,59.95670855
,,,C,U,d,n,L,U,g,R,u,,,,,5,19,119,15,3,0,3,0,,,,,1,24,60,23,,,,,,up,0.516792381,3219.723308,None,1,2,2019_Jun_04_1204,ACPT_experiment_5_30_19,3.1.0,59.95670855
,,,C,U,d,n,L,U,d,R,u,,,,,5,19,119,15,3,0,3,0,,,,,1,25,61,21,,,,,,up,0.500419583,3221.524409,None,1,2,2019_Jun_04_1204,ACPT_experiment_5_30_19,3.1.0,59.95670855
,,,C,U,d,n,R,U,y,L,u,,,,,5,19,119,15,3,0,3,0,,,,,1,26,62,30,,,,,,down,0.517084881,3223.309108,None,1,2,2019_Jun_04_1204,ACPT_experiment_5_30_19,3.1.0,59.95670855
,,,C,U,d,n,L,U,g,L,u,,,,,5,19,119,15,3,0,3,0,,,,,1,27,63,22,,,,,,up,0.934042137,3225.110527,None,1,2,2019_Jun_04_1204,ACPT_experiment_5_30_19,3.1.0,59.95670855
,,,C,U,d,n,L,U,d,L,u,,,,,5,19,119,15,3,0,3,0,,,,,1,28,64,20,,,,,,up,0.800656965,3227.312203,None,1,2,2019_Jun_04_1204,ACPT_experiment_5_30_19,3.1.0,59.95670855
,,,C,U,d,n,R,G,d,L,i,,,,,5,19,119,15,3,0,3,0,,,,,1,29,65,4,,,,,,up,0.700564354,3229.38046,None,1,2,2019_Jun_04_1204,ACPT_experiment_5_30_19,3.1.0,59.95670855
,,,C,U,d,n,R,D,d,L,c,,,,,5,19,119,15,3,0,3,0,,,,,1,30,66,0,,,,,,up,0.633818943,3231.365343,None,1,2,2019_Jun_04_1204,ACPT_experiment_5_30_19,3.1.0,59.95670855
,,,C,U,d,n,L,G,g,R,c ,,,,,5,19,119,15,3,0,3,0,,,,,1,31,67,19,,,,,,up,0.667178518,3233.283489,None,1,2,2019_Jun_04_1204,ACPT_experiment_5_30_19,3.1.0,59.95670855
,,,C,U,d,n,L,D,y,R,y,,,,,5,19,119,15,3,0,3,0,,,,,1,32,68,33,,,,,,down,0.600320513,3235.234998,None,1,2,2019_Jun_04_1204,ACPT_experiment_5_30_19,3.1.0,59.95670855
,,,C,U,d,n,R,D,y,R,y,,,,,5,19,119,15,3,0,3,0,,,,,1,33,69,27,,,,,,down,0.66717067,3237.13646,None,1,2,2019_Jun_04_1204,ACPT_experiment_5_30_19,3.1.0,59.95670855
,,,C,U,d,n,R,D,y,L,y,,,,,5,19,119,15,3,0,3,0,,,,,1,34,70,26,,,,,,down,0.847195072,3239.141452,None,1,2,2019_Jun_04_1204,ACPT_experiment_5_30_19,3.1.0,59.95670855
,,,C,U,d,n,R,D,g,R,i,,,,,5,19,119,15,3,0,3,0,,,,,1,35,71,3,,,,,,up,0.867356494,3241.256277,None,1,2,2019_Jun_04_1204,ACPT_experiment_5_30_19,3.1.0,59.95670855
,,,C,U,d,n,,,,,,,,,,5,19,119,15,4,0,4,0,0,0,0,0,,,,,,,,,,,,,,1,2,2019_Jun_04_1204,ACPT_experiment_5_30_19,3.1.0,59.95670855
,,,C,U,d,n,R,D,y,L,y,,,,,5,19,119,15,4,0,4,0,,,,,0,0,0,26,,,,,,down,0.563766069,3253.402328,None,1,2,2019_Jun_04_1204,ACPT_experiment_5_30_19,3.1.0,59.95670855
,,,C,U,d,n,R,D,g,R,i,,,,,5,19,119,15,4,0,4,0,,,,,0,1,1,3,,,,,,up,0.500382756,3255.250417,None,1,2,2019_Jun_04_1204,ACPT_experiment_5_30_19,3.1.0,59.95670855
,,,C,U,d,n,L,D,d,L,c ,,,,,5,19,119,15,4,0,4,0,,,,,0,2,2,12,,,,,,up,0.567099491,3257.035127,None,1,2,2019_Jun_04_1204,ACPT_experiment_5_30_19,3.1.0,59.95670855
,,,C,U,d,n,R,G,y,L,y,,,,,5,19,119,15,4,0,4,0,,,,,0,3,3,28,,,,,,down,0.717210636,3258.886558,None,1,2,2019_Jun_04_1204,ACPT_experiment_5_30_19,3.1.0,59.95670855
,,,C,U,d,n,L,G,y,L,y,,,,,5,19,119,15,4,0,4,0,,,,,0,4,4,34,,,,,,down,0.750576248,3260.888098,None,1,2,2019_Jun_04_1204,ACPT_experiment_5_30_19,3.1.0,59.95670855
,,,C,U,d,n,R,U,g,R,u,,,,,5,19,119,15,4,0,4,0,,,,,0,5,5,11,,,,,,up,0.483747946,3262.922977,None,1,2,2019_Jun_04_1204,ACPT_experiment_5_30_19,3.1.0,59.95670855
,,,C,U,d,n,L,U,d,L,u,,,,,5,19,119,15,4,0,4,0,,,,,0,6,6,20,,,,,,up,0.500388492,3264.691028,None,1,2,2019_Jun_04_1204,ACPT_experiment_5_30_19,3.1.0,59.95670855
,,,C,U,d,n,R,U,d,L,u,,,,,5,19,119,15,4,0,4,0,,,,,0,7,7,8,,,,,,up,0.530411928,3266.495744,None,1,2,2019_Jun_04_1204,ACPT_experiment_5_30_19,3.1.0,59.95670855
,,,C,U,d,n,L,U,g,R,u,,,,,5,19,119,15,4,0,4,0,,,,,0,8,8,23,,,,,,up,0.550411252,3268.310488,None,1,2,2019_Jun_04_1204,ACPT_experiment_5_30_19,3.1.0,59.95670855
,,,C,U,d,n,L,G,y,R,y,,,,,5,19,119,15,4,0,4,0,,,,,0,9,9,35,,,,,,down,0.733880764,3270.161916,None,1,2,2019_Jun_04_1204,ACPT_experiment_5_30_19,3.1.0,59.95670855
,,,C,U,d,n,L,G,d,R,i,,,,,5,19,119,15,4,0,4,0,,,,,0,10,10,17,,,,,,up,0.567041233,3272.196869,None,1,2,2019_Jun_04_1204,ACPT_experiment_5_30_19,3.1.0,59.95670855
,,,C,U,d,n,R,U,y,R,u,,,,,5,19,119,15,4,0,4,0,,,,,0,11,11,31,,,,,,down,0.933854079,3274.065082,None,1,2,2019_Jun_04_1204,ACPT_experiment_5_30_19,3.1.0,59.95670855
,,,C,U,d,n,R,G,y,R,y,,,,,5,19,119,15,4,0,4,0,,,,,0,12,12,29,,,,,,down,0.73388348,3276.299984,None,1,2,2019_Jun_04_1204,ACPT_experiment_5_30_19,3.1.0,59.95670855
,,,C,U,d,n,L,D,y,L,y,,,,,5,19,119,15,4,0,4,0,,,,,0,13,13,32,,,,,,down,0.667172179,3278.318197,None,1,2,2019_Jun_04_1204,ACPT_experiment_5_30_19,3.1.0,59.95670855
,,,C,U,d,n,L,U,y,L,u,,,,,5,19,119,15,4,0,4,0,,,,,0,14,14,24,,,,,,down,0.833993598,3280.2697,None,1,2,2019_Jun_04_1204,ACPT_experiment_5_30_19,3.1.0,59.95670855
,,,C,U,d,n,R,G,g,L,c ,,,,,5,19,119,15,4,0,4,0,,,,,0,15,15,6,,,,,,up,0.617121648,3282.388008,None,1,2,2019_Jun_04_1204,ACPT_experiment_5_30_19,3.1.0,59.95670855
,,,C,U,d,n,R,U,y,L,u,,,,,5,19,119,15,4,0,4,0,,,,,0,16,16,30,,,,,,down,1.017475184,3284.289441,None,1,2,2019_Jun_04_1204,ACPT_experiment_5_30_19,3.1.0,59.95670855
,,,C,U,d,n,R,U,g,L,u,,,,,5,19,119,15,4,0,4,0,,,,,0,17,17,10,,,,,,up,4.620244976,3286.574544,None,1,2,2019_Jun_04_1204,ACPT_experiment_5_30_19,3.1.0,59.95670855
,,,C,U,d,n,R,U,d,R,u,,,,,5,19,119,15,4,0,4,0,,,,,0,18,18,9,,,,,,up,0.567119716,3292.462408,None,1,2,2019_Jun_04_1204,ACPT_experiment_5_30_19,3.1.0,59.95670855
,,,C,U,d,n,L,U,d,R,u,,,,,5,19,119,15,4,0,4,0,,,,,0,19,19,21,,,,,,up,0.633840375,3294.313834,None,1,2,2019_Jun_04_1204,ACPT_experiment_5_30_19,3.1.0,59.95670855
,,,C,U,d,n,L,G,d,L,i,,,,,5,19,119,15,4,0,4,0,,,,,0,20,20,16,,,,,,up,0.567097982,3296.232005,None,1,2,2019_Jun_04_1204,ACPT_experiment_5_30_19,3.1.0,59.95670855
,,,C,U,d,n,R,G,d,L,i,,,,,5,19,119,15,4,0,4,0,,,,,0,21,21,4,,,,,,up,0.533743237,3298.083427,None,1,2,2019_Jun_04_1204,ACPT_experiment_5_30_19,3.1.0,59.95670855
,,,C,U,d,n,L,G,g,R,c ,,,,,5,19,119,15,4,0,4,0,,,,,0,22,22,19,,,,,,up,0.46703586,3299.901482,None,1,2,2019_Jun_04_1204,ACPT_experiment_5_30_19,3.1.0,59.95670855
,,,C,U,d,n,R,D,d,R,c ,,,,,5,19,119,15,4,0,4,0,,,,,0,23,23,1,,,,,,up,0.550440532,3301.652828,None,1,2,2019_Jun_04_1204,ACPT_experiment_5_30_19,3.1.0,59.95670855
,,,C,U,d,n,R,D,y,R,y,,,,,5,19,119,15,4,0,4,0,,,,,0,24,24,27,,,,,,down,0.650239434,3303.504534,None,1,2,2019_Jun_04_1204,ACPT_experiment_5_30_19,3.1.0,59.95670855
,,,C,U,d,n,L,U,y,R,u,,,,,5,19,119,15,4,0,4,0,,,,,0,25,25,25,,,,,,down,0.600462387,3305.439108,None,1,2,2019_Jun_04_1204,ACPT_experiment_5_30_19,3.1.0,59.95670855
,,,C,U,d,n,L,D,g,L,i,,,,,5,19,119,15,4,0,4,0,,,,,0,26,26,14,,,,,,up,0.550420006,3307.323893,None,1,2,2019_Jun_04_1204,ACPT_experiment_5_30_19,3.1.0,59.95670855
,,,C,U,d,n,R,D,g,L,i,,,,,5,19,119,15,4,0,4,0,,,,,0,27,27,2,,,,,,up,0.500360419,3309.158657,None,1,2,2019_Jun_04_1204,ACPT_experiment_5_30_19,3.1.0,59.95670855
,,,C,U,d,n,R,G,g,R,c ,,,,,5,19,119,15,4,0,4,0,,,,,0,28,28,7,,,,,,up,0.497061409,3310.963347,None,1,2,2019_Jun_04_1204,ACPT_experiment_5_30_19,3.1.0,59.95670855
,,,C,U,d,n,L,D,g,R,i,,,,,5,19,119,15,4,0,4,0,,,,,0,29,29,15,,,,,,up,0.53374535,3312.744731,None,1,2,2019_Jun_04_1204,ACPT_experiment_5_30_19,3.1.0,59.95670855
,,,C,U,d,n,L,G,g,L,c ,,,,,5,19,119,15,4,0,4,0,,,,,0,30,30,18,,,,,,up,0.583778977,3314.562798,None,1,2,2019_Jun_04_1204,ACPT_experiment_5_30_19,3.1.0,59.95670855
,,,C,U,d,n,L,D,y,R,y,,,,,5,19,119,15,4,0,4,0,,,,,0,31,31,33,,,,,,down,0.533729955,3316.430908,None,1,2,2019_Jun_04_1204,ACPT_experiment_5_30_19,3.1.0,59.95670855
,,,C,U,d,n,L,U,g,L,u,,,,,5,19,119,15,4,0,4,0,,,,,0,32,32,22,,,,,,up,0.766977118,3318.265931,None,1,2,2019_Jun_04_1204,ACPT_experiment_5_30_19,3.1.0,59.95670855
,,,C,U,d,n,R,G,d,R,i,,,,,5,19,119,15,4,0,4,0,,,,,0,33,33,5,,,,,,up,0.56711881,3320.317247,None,1,2,2019_Jun_04_1204,ACPT_experiment_5_30_19,3.1.0,59.95670855
,,,C,U,d,n,L,D,d,R,c ,,,,,5,19,119,15,4,0,4,0,,,,,0,34,34,13,,,,,,up,0.583776864,3322.168664,None,1,2,2019_Jun_04_1204,ACPT_experiment_5_30_19,3.1.0,59.95670855
,,,C,U,d,n,R,D,d,L,c,,,,,5,19,119,15,4,0,4,0,,,,,0,35,35,0,,,,,,up,0.433713715,3324.036771,None,1,2,2019_Jun_04_1204,ACPT_experiment_5_30_19,3.1.0,59.95670855
,,,C,U,d,n,L,D,y,L,y,,,,,5,19,119,15,4,0,4,0,,,,,1,0,36,32,,,,,,down,0.667179122,3325.754758,None,1,2,2019_Jun_04_1204,ACPT_experiment_5_30_19,3.1.0,59.95670855
,,,C,U,d,n,R,D,g,L,i,,,,,5,19,119,15,4,0,4,0,,,,,1,1,37,2,,,,,,up,0.667176707,3327.706265,None,1,2,2019_Jun_04_1204,ACPT_experiment_5_30_19,3.1.0,59.95670855
,,,C,U,d,n,R,D,d,L,c,,,,,5,19,119,15,4,0,4,0,,,,,1,2,38,0,,,,,,up,0.400325464,3329.657764,None,1,2,2019_Jun_04_1204,ACPT_experiment_5_30_19,3.1.0,59.95670855
,,,C,U,d,n,R,U,g,R,u,,,,,5,19,119,15,4,0,4,0,,,,,1,3,39,11,,,,,,up,0.53346432,3331.359354,None,1,2,2019_Jun_04_1204,ACPT_experiment_5_30_19,3.1.0,59.95670855
,,,C,U,d,n,L,G,d,L,i,,,,,5,19,119,15,4,0,4,0,,,,,1,4,40,16,,,,,,up,0.500390907,3333.177146,None,1,2,2019_Jun_04_1204,ACPT_experiment_5_30_19,3.1.0,59.95670855
,,,C,U,d,n,R,G,d,L,i,,,,,5,19,119,15,4,0,4,0,,,,,1,5,41,4,,,,,,up,0.45033947,3334.945178,None,1,2,2019_Jun_04_1204,ACPT_experiment_5_30_19,3.1.0,59.95670855
,,,C,U,d,n,R,U,d,L,u,,,,,5,19,119,15,4,0,4,0,,,,,1,6,42,8,,,,,,up,0.583807352,3336.663139,None,1,2,2019_Jun_04_1204,ACPT_experiment_5_30_19,3.1.0,59.95670855
,,,C,U,d,n,L,D,d,L,c ,,,,,5,19,119,15,4,0,4,0,,,,,1,7,43,12,,,,,,up,0.467006277,3338.547964,None,1,2,2019_Jun_04_1204,ACPT_experiment_5_30_19,3.1.0,59.95670855
,,,C,U,d,n,L,D,g,L,i,,,,,5,19,119,15,4,0,4,0,,,,,1,8,44,14,,,,,,up,0.783927672,3340.299303,None,1,2,2019_Jun_04_1204,ACPT_experiment_5_30_19,3.1.0,59.95670855
,,,C,U,d,n,L,U,g,L,u,,,,,5,19,119,15,4,0,4,0,,,,,1,9,45,22,,,,,,up,0.833972468,3342.367562,None,1,2,2019_Jun_04_1204,ACPT_experiment_5_30_19,3.1.0,59.95670855
,,,C,U,d,n,R,G,g,L,c ,,,,,5,19,119,15,4,0,4,0,,,,,1,10,46,6,,,,,,up,0.500373701,3344.485868,None,1,2,2019_Jun_04_1204,ACPT_experiment_5_30_19,3.1.0,59.95670855
,,,C,U,d,n,R,G,d,R,i,,,,,5,19,119,15,4,0,4,0,,,,,1,11,47,5,,,,,,up,0.450363317,3346.270546,None,1,2,2019_Jun_04_1204,ACPT_experiment_5_30_19,3.1.0,59.95670855
,,,C,U,d,n,L,D,y,R,y,,,,,5,19,119,15,4,0,4,0,,,,,1,12,48,33,,,,,,down,0.717210937,3348.005242,None,1,2,2019_Jun_04_1204,ACPT_experiment_5_30_19,3.1.0,59.95670855
,,,C,U,d,n,R,D,g,R,i,,,,,5,19,119,15,4,0,4,0,,,,,1,13,49,3,,,,,,up,0.533804212,3350.006785,None,1,2,2019_Jun_04_1204,ACPT_experiment_5_30_19,3.1.0,59.95670855
,,,C,U,d,n,R,U,g,L,u,,,,,5,19,119,15,4,0,4,0,,,,,1,14,50,10,,,,,,up,0.566823593,3351.841811,None,1,2,2019_Jun_04_1204,ACPT_experiment_5_30_19,3.1.0,59.95670855
,,,C,U,d,n,R,G,y,L,y,,,,,5,19,119,15,4,0,4,0,,,,,1,15,51,28,,,,,,down,0.550410648,3353.692962,None,1,2,2019_Jun_04_1204,ACPT_experiment_5_30_19,3.1.0,59.95670855
,,,C,U,d,n,L,G,d,R,i,,,,,5,19,119,15,4,0,4,0,,,,,1,16,52,17,,,,,,up,0.56709768,3355.527708,None,1,2,2019_Jun_04_1204,ACPT_experiment_5_30_19,3.1.0,59.95670855
,,,C,U,d,n,L,U,d,L,u,,,,,5,19,119,15,4,0,4,0,,,,,1,17,53,20,,,,,,up,0.517083976,3357.362429,None,1,2,2019_Jun_04_1204,ACPT_experiment_5_30_19,3.1.0,59.95670855
,,,C,U,d,n,R,G,y,R,y,,,,,5,19,119,15,4,0,4,0,,,,,1,18,54,29,,,,,,down,0.600180753,3359.1808,None,1,2,2019_Jun_04_1204,ACPT_experiment_5_30_19,3.1.0,59.95670855
,,,C,U,d,n,R,U,y,L,u,,,,,5,19,119,15,4,0,4,0,,,,,1,19,55,30,,,,,,down,0.56710251,3361.048624,None,1,2,2019_Jun_04_1204,ACPT_experiment_5_30_19,3.1.0,59.95670855
,,,C,U,d,n,L,U,y,L,u,,,,,5,19,119,15,4,0,4,0,,,,,1,20,56,24,,,,,,down,0.600506156,3362.900051,None,1,2,2019_Jun_04_1204,ACPT_experiment_5_30_19,3.1.0,59.95670855
,,,C,U,d,n,L,G,g,L,c ,,,,,5,19,119,15,4,0,4,0,,,,,1,21,57,18,,,,,,up,0.567105528,3364.784839,None,1,2,2019_Jun_04_1204,ACPT_experiment_5_30_19,3.1.0,59.95670855
,,,C,U,d,n,L,G,y,L,y,,,,,5,19,119,15,4,0,4,0,,,,,1,22,58,34,,,,,,down,0.567096171,3366.636266,None,1,2,2019_Jun_04_1204,ACPT_experiment_5_30_19,3.1.0,59.95670855
,,,C,U,d,n,R,D,y,L,y,,,,,5,19,119,15,4,0,4,0,,,,,1,23,59,26,,,,,,down,0.51705711,3368.487697,None,1,2,2019_Jun_04_1204,ACPT_experiment_5_30_19,3.1.0,59.95670855
,,,C,U,d,n,L,U,y,R,u,,,,,5,19,119,15,4,0,4,0,,,,,1,24,60,25,,,,,,down,0.683861928,3370.289079,None,1,2,2019_Jun_04_1204,ACPT_experiment_5_30_19,3.1.0,59.95670855
,,,C,U,d,n,L,D,g,R,i,,,,,5,19,119,15,4,0,4,0,,,,,1,25,61,15,,,,,,up,0.600217881,3372.274186,None,1,2,2019_Jun_04_1204,ACPT_experiment_5_30_19,3.1.0,59.95670855
,,,C,U,d,n,R,U,y,R,u,,,,,5,19,119,15,4,0,4,0,,,,,1,26,62,31,,,,,,down,0.55042725,3374.158723,None,1,2,2019_Jun_04_1204,ACPT_experiment_5_30_19,3.1.0,59.95670855
,,,C,U,d,n,L,U,d,R,u,,,,,5,19,119,15,4,0,4,0,,,,,1,27,63,21,,,,,,up,0.650495712,3375.993478,None,1,2,2019_Jun_04_1204,ACPT_experiment_5_30_19,3.1.0,59.95670855
,,,C,U,d,n,R,D,y,R,y,,,,,5,19,119,15,4,0,4,0,,,,,1,28,64,27,,,,,,down,0.717213654,3377.944982,None,1,2,2019_Jun_04_1204,ACPT_experiment_5_30_19,3.1.0,59.95670855
,,,C,U,d,n,L,D,d,R,c ,,,,,5,19,119,15,4,0,4,0,,,,,1,29,65,13,,,,,,up,0.967410164,3379.963205,None,1,2,2019_Jun_04_1204,ACPT_experiment_5_30_19,3.1.0,59.95670855
,,,C,U,d,n,L,G,g,R,c ,,,,,5,19,119,15,4,0,4,0,,,,,1,30,66,19,,,,,,up,0.517052884,3382.214941,None,1,2,2019_Jun_04_1204,ACPT_experiment_5_30_19,3.1.0,59.95670855
,,,C,U,d,n,R,U,d,R,u,,,,,5,19,119,15,4,0,4,0,,,,,1,31,67,9,,,,,,up,0.633815019,3384.016327,None,1,2,2019_Jun_04_1204,ACPT_experiment_5_30_19,3.1.0,59.95670855
,,,C,U,d,n,R,D,d,R,c ,,,,,5,19,119,15,4,0,4,0,,,,,1,32,68,1,,,,,,up,0.600189507,3385.951424,None,1,2,2019_Jun_04_1204,ACPT_experiment_5_30_19,3.1.0,59.95670855
,,,C,U,d,n,L,U,g,R,u,,,,,5,19,119,15,4,0,4,0,,,,,1,33,69,23,,,,,,up,0.467017144,3387.83594,None,1,2,2019_Jun_04_1204,ACPT_experiment_5_30_19,3.1.0,59.95670855
,,,C,U,d,n,L,G,y,R,y,,,,,5,19,119,15,4,0,4,0,,,,,1,34,70,35,,,,,,down,0.500382756,3389.587288,None,1,2,2019_Jun_04_1204,ACPT_experiment_5_30_19,3.1.0,59.95670855
,,,C,U,d,n,R,G,g,R,c ,,,,,5,19,119,15,4,0,4,0,,,,,1,35,71,7,,,,,,up,0.450343394,3391.371996,None,1,2,2019_Jun_04_1204,ACPT_experiment_5_30_19,3.1.0,59.95670855
,,,C,U,d,n,,,,,,,,,,5,19,119,15,5,0,5,0,0,0,0,0,,,,,,,,,,,,,,1,2,2019_Jun_04_1204,ACPT_experiment_5_30_19,3.1.0,59.95670855
,,,C,U,d,n,L,D,d,R,c ,,,,,5,19,119,15,5,0,5,0,,,,,0,0,0,13,,,,,,up,0.516781514,3413.239127,None,1,2,2019_Jun_04_1204,ACPT_experiment_5_30_19,3.1.0,59.95670855
,,,C,U,d,n,L,U,y,R,u,,,,,5,19,119,15,5,0,5,0,,,,,0,1,1,25,,,,,,down,0.700521189,3415.056927,None,1,2,2019_Jun_04_1204,ACPT_experiment_5_30_19,3.1.0,59.95670855
,,,C,U,d,n,R,U,d,R,u,,,,,5,19,119,15,5,0,5,0,,,,,0,2,2,9,,,,,,up,0.550413969,3417.058463,None,1,2,2019_Jun_04_1204,ACPT_experiment_5_30_19,3.1.0,59.95670855
,,,C,U,d,n,R,D,d,L,c,,,,,5,19,119,15,5,0,5,0,,,,,0,3,3,0,,,,,,up,0.483704478,3418.876529,None,1,2,2019_Jun_04_1204,ACPT_experiment_5_30_19,3.1.0,59.95670855
,,,C,U,d,n,L,D,g,L,i,,,,,5,19,119,15,5,0,5,0,,,,,0,4,4,14,,,,,,up,0.583806748,3420.644559,None,1,2,2019_Jun_04_1204,ACPT_experiment_5_30_19,3.1.0,59.95670855
,,,C,U,d,n,R,U,g,L,u,,,,,5,19,119,15,5,0,5,0,,,,,0,5,5,10,,,,,,up,0.500372795,3422.51267,None,1,2,2019_Jun_04_1204,ACPT_experiment_5_30_19,3.1.0,59.95670855
,,,C,U,d,n,L,G,d,R,i,,,,,5,19,119,15,5,0,5,0,,,,,0,6,6,17,,,,,,up,0.483730438,3424.297348,None,1,2,2019_Jun_04_1204,ACPT_experiment_5_30_19,3.1.0,59.95670855
,,,C,U,d,n,L,D,d,L,c ,,,,,5,19,119,15,5,0,5,0,,,,,0,7,7,12,,,,,,up,0.400027831,3426.082362,None,1,2,2019_Jun_04_1204,ACPT_experiment_5_30_19,3.1.0,59.95670855
,,,C,U,d,n,L,G,y,R,y,,,,,5,19,119,15,5,0,5,0,,,,,0,8,8,35,,,,,,down,0.517072505,3427.766712,None,1,2,2019_Jun_04_1204,ACPT_experiment_5_30_19,3.1.0,59.95670855
,,,C,U,d,n,R,U,y,R,u,,,,,5,19,119,15,5,0,5,0,,,,,0,9,9,31,,,,,,down,0.600444879,3429.58479,None,1,2,2019_Jun_04_1204,ACPT_experiment_5_30_19,3.1.0,59.95670855
,,,C,U,d,n,L,U,y,L,u,,,,,5,19,119,15,5,0,5,0,,,,,0,10,10,24,,,,,,down,0.583794674,3431.486228,None,1,2,2019_Jun_04_1204,ACPT_experiment_5_30_19,3.1.0,59.95670855
,,,C,U,d,n,L,U,g,R,u,,,,,5,19,119,15,5,0,5,0,,,,,0,11,11,23,,,,,,up,0.530439699,3433.374359,None,1,2,2019_Jun_04_1204,ACPT_experiment_5_30_19,3.1.0,59.95670855
,,,C,U,d,n,L,G,g,R,c ,,,,,5,19,119,15,5,0,5,0,,,,,0,12,12,19,,,,,,up,0.550416987,3435.189108,None,1,2,2019_Jun_04_1204,ACPT_experiment_5_30_19,3.1.0,59.95670855
,,,C,U,d,n,R,G,g,L,c ,,,,,5,19,119,15,5,0,5,0,,,,,0,13,13,6,,,,,,up,1.167585423,3437.02383,None,1,2,2019_Jun_04_1204,ACPT_experiment_5_30_19,3.1.0,59.95670855
,,,C,U,d,n,L,D,y,L,y,,,,,5,19,119,15,5,0,5,0,,,,,0,14,14,32,,,,,,down,0.650508994,3439.475728,None,1,2,2019_Jun_04_1204,ACPT_experiment_5_30_19,3.1.0,59.95670855
,,,C,U,d,n,R,U,y,L,u,,,,,5,19,119,15,5,0,5,0,,,,,0,15,15,30,,,,,,down,0.700533867,3441.410566,None,1,2,2019_Jun_04_1204,ACPT_experiment_5_30_19,3.1.0,59.95670855
,,,C,U,d,n,R,D,g,L,i,,,,,5,19,119,15,5,0,5,0,,,,,0,16,16,2,,,,,,up,0.850663424,3443.395426,None,1,2,2019_Jun_04_1204,ACPT_experiment_5_30_19,3.1.0,59.95670855
,,,C,U,d,n,R,G,d,R,i,,,,,5,19,119,15,5,0,5,0,,,,,0,17,17,5,,,,,,up,0.95073098,3445.530409,None,1,2,2019_Jun_04_1204,ACPT_experiment_5_30_19,3.1.0,59.95670855
,,,C,U,d,n,L,U,g,L,u,,,,,5,19,119,15,5,0,5,0,,,,,0,18,18,22,,,,,,up,0.550422722,3447.765462,None,1,2,2019_Jun_04_1204,ACPT_experiment_5_30_19,3.1.0,59.95670855
,,,C,U,d,n,R,G,d,L,i,,,,,5,19,119,15,5,0,5,0,,,,,0,19,19,4,,,,,,up,0.517065864,3449.60021,None,1,2,2019_Jun_04_1204,ACPT_experiment_5_30_19,3.1.0,59.95670855
,,,C,U,d,n,R,D,y,R,y,,,,,5,19,119,15,5,0,5,0,,,,,0,20,20,27,,,,,,down,0.500383058,3451.401599,None,1,2,2019_Jun_04_1204,ACPT_experiment_5_30_19,3.1.0,59.95670855
,,,C,U,d,n,L,D,y,R,y,,,,,5,19,119,15,5,0,5,0,,,,,0,21,21,33,,,,,,down,0.667187574,3453.202969,None,1,2,2019_Jun_04_1204,ACPT_experiment_5_30_19,3.1.0,59.95670855
,,,C,U,d,n,R,D,g,R,i,,,,,5,19,119,15,5,0,5,0,,,,,0,22,22,3,,,,,,up,0.71712521,3455.171148,None,1,2,2019_Jun_04_1204,ACPT_experiment_5_30_19,3.1.0,59.95670855
,,,C,U,d,n,L,G,d,L,i,,,,,5,19,119,15,5,0,5,0,,,,,0,23,23,16,,,,,,up,0.633816528,3457.172713,None,1,2,2019_Jun_04_1204,ACPT_experiment_5_30_19,3.1.0,59.95670855
,,,C,U,d,n,R,U,g,R,u,,,,,5,19,119,15,5,0,5,0,,,,,0,24,24,11,,,,,,up,0.650489071,3459.090865,None,1,2,2019_Jun_04_1204,ACPT_experiment_5_30_19,3.1.0,59.95670855
,,,C,U,d,n,R,U,d,L,u,,,,,5,19,119,15,5,0,5,0,,,,,0,25,25,8,,,,,,up,0.567091039,3461.009011,None,1,2,2019_Jun_04_1204,ACPT_experiment_5_30_19,3.1.0,59.95670855
,,,C,U,d,n,L,D,g,R,i,,,,,5,19,119,15,5,0,5,0,,,,,0,26,26,15,,,,,,up,0.500383662,3462.860429,None,1,2,2019_Jun_04_1204,ACPT_experiment_5_30_19,3.1.0,59.95670855
,,,C,U,d,n,L,U,d,L,u,,,,,5,19,119,15,5,0,5,0,,,,,0,27,27,20,,,,,,up,0.516804153,3464.662088,None,1,2,2019_Jun_04_1204,ACPT_experiment_5_30_19,3.1.0,59.95670855
,,,C,U,d,n,R,D,d,R,c ,,,,,5,19,119,15,5,0,5,0,,,,,0,28,28,1,,,,,,up,0.500402679,3466.463184,None,1,2,2019_Jun_04_1204,ACPT_experiment_5_30_19,3.1.0,59.95670855
,,,C,U,d,n,R,G,g,R,c ,,,,,5,19,119,15,5,0,5,0,,,,,0,29,29,7,,,,,,up,0.416975971,3468.247922,None,1,2,2019_Jun_04_1204,ACPT_experiment_5_30_19,3.1.0,59.95670855
,,,C,U,d,n,L,G,g,L,c ,,,,,5,19,119,15,5,0,5,0,,,,,0,30,30,18,,,,,,up,0.533745048,3469.932545,None,1,2,2019_Jun_04_1204,ACPT_experiment_5_30_19,3.1.0,59.95670855
,,,C,U,d,n,R,G,y,L,y,,,,,5,19,119,15,5,0,5,0,,,,,0,31,31,28,,,,,,down,0.746982322,3471.787541,None,1,2,2019_Jun_04_1204,ACPT_experiment_5_30_19,3.1.0,59.95670855
,,,C,U,d,n,L,U,d,R,u,,,,,5,19,119,15,5,0,5,0,,,,,0,32,32,21,,,,,,up,0.567101001,3473.818878,None,1,2,2019_Jun_04_1204,ACPT_experiment_5_30_19,3.1.0,59.95670855
,,,C,U,d,n,L,G,y,L,y,,,,,5,19,119,15,5,0,5,0,,,,,0,33,33,34,,,,,,down,0.650518351,3475.670286,None,1,2,2019_Jun_04_1204,ACPT_experiment_5_30_19,3.1.0,59.95670855
,,,C,U,d,n,R,D,y,L,y,,,,,5,19,119,15,5,0,5,0,,,,,0,34,34,26,,,,,,down,0.550425741,3477.605135,None,1,2,2019_Jun_04_1204,ACPT_experiment_5_30_19,3.1.0,59.95670855
,,,C,U,d,n,R,G,y,R,y,,,,,5,19,119,15,5,0,5,0,,,,,0,35,35,29,,,,,,down,0.600478385,3479.423199,None,1,2,2019_Jun_04_1204,ACPT_experiment_5_30_19,3.1.0,59.95670855
,,,C,U,d,n,L,G,y,L,y,,,,,5,19,119,15,5,0,5,0,,,,,1,0,36,34,,,,,,down,0.51705711,3481.307982,None,1,2,2019_Jun_04_1204,ACPT_experiment_5_30_19,3.1.0,59.95670855
,,,C,U,d,n,R,G,y,L,y,,,,,5,19,119,15,5,0,5,0,,,,,1,1,37,28,,,,,,down,0.533738709,3483.092692,None,1,2,2019_Jun_04_1204,ACPT_experiment_5_30_19,3.1.0,59.95670855
,,,C,U,d,n,L,U,g,L,u,,,,,5,19,119,15,5,0,5,0,,,,,1,2,38,22,,,,,,up,0.58351153,3484.927706,None,1,2,2019_Jun_04_1204,ACPT_experiment_5_30_19,3.1.0,59.95670855
,,,C,U,d,n,R,D,y,R,y,,,,,5,19,119,15,5,0,5,0,,,,,1,3,39,27,,,,,,down,0.867360418,3486.795519,None,1,2,2019_Jun_04_1204,ACPT_experiment_5_30_19,3.1.0,59.95670855
,,,C,U,d,n,R,U,y,R,u,,,,,5,19,119,15,5,0,5,0,,,,,1,4,40,31,,,,,,down,0.550420609,3488.947205,None,1,2,2019_Jun_04_1204,ACPT_experiment_5_30_19,3.1.0,59.95670855
,,,C,U,d,n,R,D,d,L,c,,,,,5,19,119,15,5,0,5,0,,,,,1,5,41,0,,,,,,up,0.700538395,3490.781949,None,1,2,2019_Jun_04_1204,ACPT_experiment_5_30_19,3.1.0,59.95670855
,,,C,U,d,n,L,G,g,R,c ,,,,,5,19,119,15,5,0,5,0,,,,,1,6,42,19,,,,,,up,0.533739615,3492.766812,None,1,2,2019_Jun_04_1204,ACPT_experiment_5_30_19,3.1.0,59.95670855
,,,C,U,d,n,R,U,d,R,u,,,,,5,19,119,15,5,0,5,0,,,,,1,7,43,9,,,,,,up,0.483696328,3494.584881,None,1,2,2019_Jun_04_1204,ACPT_experiment_5_30_19,3.1.0,59.95670855
,,,C,U,d,n,L,D,g,L,i,,,,,5,19,119,15,5,0,5,0,,,,,1,8,44,14,,,,,,up,0.71721456,3496.35291,None,1,2,2019_Jun_04_1204,ACPT_experiment_5_30_19,3.1.0,59.95670855
,,,C,U,d,n,L,D,y,R,y,,,,,5,19,119,15,5,0,5,0,,,,,1,9,45,33,,,,,,down,0.617148815,3498.354433,None,1,2,2019_Jun_04_1204,ACPT_experiment_5_30_19,3.1.0,59.95670855
,,,C,U,d,n,L,G,y,R,y,,,,,5,19,119,15,5,0,5,0,,,,,1,10,46,35,,,,,,down,0.633806567,3500.272608,None,1,2,2019_Jun_04_1204,ACPT_experiment_5_30_19,3.1.0,59.95670855
,,,C,U,d,n,R,D,g,R,i,,,,,5,19,119,15,5,0,5,0,,,,,1,11,47,3,,,,,,up,0.633850034,3502.190716,None,1,2,2019_Jun_04_1204,ACPT_experiment_5_30_19,3.1.0,59.95670855
,,,C,U,d,n,R,D,y,L,y,,,,,5,19,119,15,5,0,5,0,,,,,1,12,48,26,,,,,,down,0.480369849,3504.128899,None,1,2,2019_Jun_04_1204,ACPT_experiment_5_30_19,3.1.0,59.95670855
,,,C,U,d,n,R,U,y,L,u,,,,,5,19,119,15,5,0,5,0,,,,,1,13,49,30,,,,,,down,0.600441257,3505.893611,None,1,2,2019_Jun_04_1204,ACPT_experiment_5_30_19,3.1.0,59.95670855
,,,C,U,d,n,R,G,y,R,y,,,,,5,19,119,15,5,0,5,0,,,,,1,14,50,29,,,,,,down,0.567088926,3507.795067,None,1,2,2019_Jun_04_1204,ACPT_experiment_5_30_19,3.1.0,59.95670855
,,,C,U,d,n,R,D,g,L,i,,,,,5,19,119,15,5,0,5,0,,,,,1,15,51,2,,,,,,up,0.917365066,3509.663171,None,1,2,2019_Jun_04_1204,ACPT_experiment_5_30_19,3.1.0,59.95670855
,,,C,U,d,n,L,G,d,R,i,,,,,5,19,119,15,5,0,5,0,,,,,1,16,52,17,,,,,,up,0.667169462,3511.864869,None,1,2,2019_Jun_04_1204,ACPT_experiment_5_30_19,3.1.0,59.95670855
,,,C,U,d,n,R,G,g,R,c ,,,,,5,19,119,15,5,0,5,0,,,,,1,17,53,7,,,,,,up,0.517078844,3513.81635,None,1,2,2019_Jun_04_1204,ACPT_experiment_5_30_19,3.1.0,59.95670855
,,,C,U,d,n,R,U,d,L,u,,,,,5,19,119,15,5,0,5,0,,,,,1,18,54,8,,,,,,up,0.533741124,3515.617761,None,1,2,2019_Jun_04_1204,ACPT_experiment_5_30_19,3.1.0,59.95670855
,,,C,U,d,n,L,U,y,R,u,,,,,5,19,119,15,5,0,5,0,,,,,1,19,55,25,,,,,,down,0.850438238,3517.452764,None,1,2,2019_Jun_04_1204,ACPT_experiment_5_30_19,3.1.0,59.95670855
,,,C,U,d,n,R,D,d,R,c ,,,,,5,19,119,15,5,0,5,0,,,,,1,20,56,1,,,,,,up,0.500374003,3519.587485,None,1,2,2019_Jun_04_1204,ACPT_experiment_5_30_19,3.1.0,59.95670855
,,,C,U,d,n,L,D,y,L,y,,,,,5,19,119,15,5,0,5,0,,,,,1,21,57,32,,,,,,down,0.600485026,3521.372167,None,1,2,2019_Jun_04_1204,ACPT_experiment_5_30_19,3.1.0,59.95670855
,,,C,U,d,n,L,U,y,L,u,,,,,5,19,119,15,5,0,5,0,,,,,1,22,58,24,,,,,,down,0.683843816,3523.273661,None,1,2,2019_Jun_04_1204,ACPT_experiment_5_30_19,3.1.0,59.95670855
,,,C,U,d,n,R,G,d,L,i,,,,,5,19,119,15,5,0,5,0,,,,,1,23,59,4,,,,,,up,0.617135231,3525.275202,None,1,2,2019_Jun_04_1204,ACPT_experiment_5_30_19,3.1.0,59.95670855
,,,C,U,d,n,L,U,d,L,u,,,,,5,19,119,15,5,0,5,0,,,,,1,24,60,20,,,,,,up,0.600474763,3527.176654,None,1,2,2019_Jun_04_1204,ACPT_experiment_5_30_19,3.1.0,59.95670855
,,,C,U,d,n,L,D,d,L,c ,,,,,5,19,119,15,5,0,5,0,,,,,1,25,61,12,,,,,,up,0.767267204,3529.061433,None,1,2,2019_Jun_04_1204,ACPT_experiment_5_30_19,3.1.0,59.95670855
,,,C,U,d,n,L,U,d,R,u,,,,,5,19,119,15,5,0,5,0,,,,,1,26,62,21,,,,,,up,0.633541837,3531.129986,None,1,2,2019_Jun_04_1204,ACPT_experiment_5_30_19,3.1.0,59.95670855
,,,C,U,d,n,R,U,g,R,u,,,,,5,19,119,15,5,0,5,0,,,,,1,27,63,11,,,,,,up,0.683854985,3533.047855,None,1,2,2019_Jun_04_1204,ACPT_experiment_5_30_19,3.1.0,59.95670855
,,,C,U,d,n,R,G,d,R,i,,,,,5,19,119,15,5,0,5,0,,,,,1,28,64,5,,,,,,up,0.984115609,3535.016024,None,1,2,2019_Jun_04_1204,ACPT_experiment_5_30_19,3.1.0,59.95670855
,,,C,U,d,n,L,G,d,L,i,,,,,5,19,119,15,5,0,5,0,,,,,1,29,65,16,,,,,,up,0.750572927,3537.284455,None,1,2,2019_Jun_04_1204,ACPT_experiment_5_30_19,3.1.0,59.95670855
,,,C,U,d,n,L,D,g,R,i,,,,,5,19,119,15,5,0,5,0,,,,,1,30,66,15,,,,,,up,0.617132515,3539.319361,None,1,2,2019_Jun_04_1204,ACPT_experiment_5_30_19,3.1.0,59.95670855
,,,C,U,d,n,L,D,d,R,c ,,,,,5,19,119,15,5,0,5,0,,,,,1,31,67,13,,,,,,up,0.467045217,3541.204116,None,1,2,2019_Jun_04_1204,ACPT_experiment_5_30_19,3.1.0,59.95670855
,,,C,U,d,n,R,G,g,L,c ,,,,,5,19,119,15,5,0,5,0,,,,,1,32,68,6,,,,,,up,1.250971984,3542.955491,None,1,2,2019_Jun_04_1204,ACPT_experiment_5_30_19,3.1.0,59.95670855
,,,C,U,d,n,L,G,g,L,c ,,,,,5,19,119,15,5,0,5,0,,,,,1,33,69,18,,,,,,up,0.467023483,3545.490777,None,1,2,2019_Jun_04_1204,ACPT_experiment_5_30_19,3.1.0,59.95670855
,,,C,U,d,n,R,U,g,L,u,,,,,5,19,119,15,5,0,5,0,,,,,1,34,70,10,,,,,,up,0.600541172,3547.242102,None,1,2,2019_Jun_04_1204,ACPT_experiment_5_30_19,3.1.0,59.95670855
,,,C,U,d,n,L,U,g,R,u,,,,,5,19,119,15,5,0,5,0,,,,,1,35,71,23,,,,,,up,0.817283323,3549.126917,None,1,2,2019_Jun_04_1204,ACPT_experiment_5_30_19,3.1.0,59.95670855
,,,C,U,d,n,,,,,,,,,,5,19,119,15,6,0,6,0,0,0,0,0,,,,,,,,,,,,,,1,2,2019_Jun_04_1204,ACPT_experiment_5_30_19,3.1.0,59.95670855
,,,C,U,d,n,L,U,y,L,u,,,,,5,19,119,15,6,0,6,0,,,,,0,0,0,24,,,,,,down,0.583804031,3553.813862,None,1,2,2019_Jun_04_1204,ACPT_experiment_5_30_19,3.1.0,59.95670855
,,,C,U,d,n,R,U,d,L,u,,,,,5,19,119,15,6,0,6,0,,,,,0,1,1,8,,,,,,up,0.517060129,3555.681967,None,1,2,2019_Jun_04_1204,ACPT_experiment_5_30_19,3.1.0,59.95670855
,,,C,U,d,n,L,D,g,R,i,,,,,5,19,119,15,6,0,6,0,,,,,0,2,2,15,,,,,,up,0.550435702,3557.483337,None,1,2,2019_Jun_04_1204,ACPT_experiment_5_30_19,3.1.0,59.95670855
,,,C,U,d,n,L,U,g,L,u,,,,,5,19,119,15,6,0,6,0,,,,,0,3,3,22,,,,,,up,0.500378229,3559.318104,None,1,2,2019_Jun_04_1204,ACPT_experiment_5_30_19,3.1.0,59.95670855
,,,C,U,d,n,L,G,g,R,c ,,,,,5,19,119,15,6,0,6,0,,,,,0,4,4,19,,,,,,up,0.500379436,3561.10281,None,1,2,2019_Jun_04_1204,ACPT_experiment_5_30_19,3.1.0,59.95670855
,,,C,U,d,n,L,U,d,R,u,,,,,5,19,119,15,6,0,6,0,,,,,0,5,5,21,,,,,,up,0.530405891,3562.907537,None,1,2,2019_Jun_04_1204,ACPT_experiment_5_30_19,3.1.0,59.95670855
,,,C,U,d,n,L,G,d,L,i,,,,,5,19,119,15,6,0,6,0,,,,,0,6,6,16,,,,,,up,0.483708101,3564.705582,None,1,2,2019_Jun_04_1204,ACPT_experiment_5_30_19,3.1.0,59.95670855
,,,C,U,d,n,R,U,y,L,u,,,,,5,19,119,15,6,0,6,0,,,,,0,7,7,30,,,,,,down,0.683896943,3566.473617,None,1,2,2019_Jun_04_1204,ACPT_experiment_5_30_19,3.1.0,59.95670855
,,,C,U,d,n,L,D,d,R,c ,,,,,5,19,119,15,6,0,6,0,,,,,0,8,8,13,,,,,,up,0.667195422,3568.441783,None,1,2,2019_Jun_04_1204,ACPT_experiment_5_30_19,3.1.0,59.95670855
,,,C,U,d,n,L,D,g,L,i,,,,,5,19,119,15,6,0,6,0,,,,,0,9,9,14,,,,,,up,0.550442947,3570.376602,None,1,2,2019_Jun_04_1204,ACPT_experiment_5_30_19,3.1.0,59.95670855
,,,C,U,d,n,R,D,d,L,c,,,,,5,19,119,15,6,0,6,0,,,,,0,10,10,0,,,,,,up,0.550423024,3572.211373,None,1,2,2019_Jun_04_1204,ACPT_experiment_5_30_19,3.1.0,59.95670855
,,,C,U,d,n,R,G,g,L,c ,,,,,5,19,119,15,6,0,6,0,,,,,0,11,11,6,,,,,,up,0.700533263,3574.062799,None,1,2,2019_Jun_04_1204,ACPT_experiment_5_30_19,3.1.0,59.95670855
,,,C,U,d,n,L,U,g,R,u,,,,,5,19,119,15,6,0,6,0,,,,,0,12,12,23,,,,,,up,0.447008463,3576.067671,None,1,2,2019_Jun_04_1204,ACPT_experiment_5_30_19,3.1.0,59.95670855
,,,C,U,d,n,L,D,y,L,y,,,,,5,19,119,15,6,0,6,0,,,,,0,13,13,32,,,,,,down,0.583787731,3577.79901,None,1,2,2019_Jun_04_1204,ACPT_experiment_5_30_19,3.1.0,59.95670855
,,,C,U,d,n,L,G,y,R,y,,,,,5,19,119,15,6,0,6,0,,,,,0,14,14,35,,,,,,down,0.617165417,3579.667097,None,1,2,2019_Jun_04_1204,ACPT_experiment_5_30_19,3.1.0,59.95670855
,,,C,U,d,n,R,D,g,L,i,,,,,5,19,119,15,6,0,6,0,,,,,0,15,15,2,,,,,,up,0.617148513,3581.568585,None,1,2,2019_Jun_04_1204,ACPT_experiment_5_30_19,3.1.0,59.95670855
,,,C,U,d,n,L,U,d,L,u,,,,,5,19,119,15,6,0,6,0,,,,,0,16,16,20,,,,,,up,0.667187574,3583.470029,None,1,2,2019_Jun_04_1204,ACPT_experiment_5_30_19,3.1.0,59.95670855
,,,C,U,d,n,R,G,y,L,y,,,,,5,19,119,15,6,0,6,0,,,,,0,17,17,28,,,,,,down,0.500380342,3585.421555,None,1,2,2019_Jun_04_1204,ACPT_experiment_5_30_19,3.1.0,59.95670855
,,,C,U,d,n,R,D,d,R,c ,,,,,5,19,119,15,6,0,6,0,,,,,0,18,18,1,,,,,,up,0.51705862,3587.206259,None,1,2,2019_Jun_04_1204,ACPT_experiment_5_30_19,3.1.0,59.95670855
,,,C,U,d,n,L,G,g,L,c ,,,,,5,19,119,15,6,0,6,0,,,,,0,19,19,18,,,,,,up,0.483428882,3589.024607,None,1,2,2019_Jun_04_1204,ACPT_experiment_5_30_19,3.1.0,59.95670855
,,,C,U,d,n,R,G,y,R,y,,,,,5,19,119,15,6,0,6,0,,,,,0,20,20,29,,,,,,down,0.533744142,3590.792361,None,1,2,2019_Jun_04_1204,ACPT_experiment_5_30_19,3.1.0,59.95670855
,,,C,U,d,n,R,U,d,R,u,,,,,5,19,119,15,6,0,6,0,,,,,0,21,21,9,,,,,,up,0.550465888,3592.610423,None,1,2,2019_Jun_04_1204,ACPT_experiment_5_30_19,3.1.0,59.95670855
,,,C,U,d,n,L,D,y,R,y,,,,,5,19,119,15,6,0,6,0,,,,,0,22,22,33,,,,,,down,0.517069788,3594.445173,None,1,2,2019_Jun_04_1204,ACPT_experiment_5_30_19,3.1.0,59.95670855
,,,C,U,d,n,R,U,g,L,u,,,,,5,19,119,15,6,0,6,0,,,,,0,23,23,10,,,,,,up,0.63346758,3596.263479,None,1,2,2019_Jun_04_1204,ACPT_experiment_5_30_19,3.1.0,59.95670855
,,,C,U,d,n,L,U,y,R,u,,,,,5,19,119,15,6,0,6,0,,,,,0,24,24,25,,,,,,down,0.500380945,3598.181387,None,1,2,2019_Jun_04_1204,ACPT_experiment_5_30_19,3.1.0,59.95670855
,,,C,U,d,n,R,U,y,R,u,,,,,5,19,119,15,6,0,6,0,,,,,0,25,25,31,,,,,,down,0.450337659,3599.966097,None,1,2,2019_Jun_04_1204,ACPT_experiment_5_30_19,3.1.0,59.95670855
,,,C,U,d,n,R,U,g,R,u,,,,,5,19,119,15,6,0,6,0,,,,,0,26,26,11,,,,,,up,0.600480196,3601.684063,None,1,2,2019_Jun_04_1204,ACPT_experiment_5_30_19,3.1.0,59.95670855
,,,C,U,d,n,R,G,d,R,i,,,,,5,19,119,15,6,0,6,0,,,,,0,27,27,5,,,,,,up,0.450075042,3603.585827,None,1,2,2019_Jun_04_1204,ACPT_experiment_5_30_19,3.1.0,59.95670855
,,,C,U,d,n,L,D,d,L,c ,,,,,5,19,119,15,6,0,6,0,,,,,0,28,28,12,,,,,,up,0.500399962,3605.303522,None,1,2,2019_Jun_04_1204,ACPT_experiment_5_30_19,3.1.0,59.95670855
,,,C,U,d,n,R,G,d,L,i,,,,,5,19,119,15,6,0,6,0,,,,,0,29,29,4,,,,,,up,0.483692706,3607.088254,None,1,2,2019_Jun_04_1204,ACPT_experiment_5_30_19,3.1.0,59.95670855
,,,C,U,d,n,R,D,y,L,y,,,,,5,19,119,15,6,0,6,0,,,,,0,30,30,26,,,,,,down,0.533742029,3608.856283,None,1,2,2019_Jun_04_1204,ACPT_experiment_5_30_19,3.1.0,59.95670855
,,,C,U,d,n,L,G,y,L,y,,,,,5,19,119,15,6,0,6,0,,,,,0,31,31,34,,,,,,down,0.583501871,3610.691308,None,1,2,2019_Jun_04_1204,ACPT_experiment_5_30_19,3.1.0,59.95670855
,,,C,U,d,n,R,D,y,R,y,,,,,5,19,119,15,6,0,6,0,,,,,0,32,32,27,,,,,,down,0.517060733,3612.559136,None,1,2,2019_Jun_04_1204,ACPT_experiment_5_30_19,3.1.0,59.95670855
,,,C,U,d,n,L,G,d,R,i,,,,,5,19,119,15,6,0,6,0,,,,,0,33,33,17,,,,,,up,0.567099793,3614.360523,None,1,2,2019_Jun_04_1204,ACPT_experiment_5_30_19,3.1.0,59.95670855
,,,C,U,d,n,R,G,g,R,c ,,,,,5,19,119,15,6,0,6,0,,,,,0,34,34,7,,,,,,up,0.433660588,3616.21195,None,1,2,2019_Jun_04_1204,ACPT_experiment_5_30_19,3.1.0,59.95670855
,,,C,U,d,n,R,D,g,R,i,,,,,5,19,119,15,6,0,6,0,,,,,0,35,35,3,,,,,,up,0.416711241,3617.930209,None,1,2,2019_Jun_04_1204,ACPT_experiment_5_30_19,3.1.0,59.95670855
,,,C,U,d,n,R,U,g,L,u,,,,,5,19,119,15,6,0,6,0,,,,,1,0,36,10,,,,,,up,0.433678096,3619.614572,None,1,2,2019_Jun_04_1204,ACPT_experiment_5_30_19,3.1.0,59.95670855
,,,C,U,d,n,R,D,y,L,y,,,,,5,19,119,15,6,0,6,0,,,,,1,1,37,26,,,,,,down,0.533736596,3621.332566,None,1,2,2019_Jun_04_1204,ACPT_experiment_5_30_19,3.1.0,59.95670855
,,,C,U,d,n,L,U,d,R,u,,,,,5,19,119,15,6,0,6,0,,,,,1,2,38,21,,,,,,up,0.583774147,3623.150632,None,1,2,2019_Jun_04_1204,ACPT_experiment_5_30_19,3.1.0,59.95670855
,,,C,U,d,n,L,G,g,R,c ,,,,,5,19,119,15,6,0,6,0,,,,,1,3,39,19,,,,,,up,0.566812424,3625.035698,None,1,2,2019_Jun_04_1204,ACPT_experiment_5_30_19,3.1.0,59.95670855
,,,C,U,d,n,L,G,d,R,i,,,,,5,19,119,15,6,0,6,0,,,,,1,4,40,17,,,,,,up,0.400331803,3626.886841,None,1,2,2019_Jun_04_1204,ACPT_experiment_5_30_19,3.1.0,59.95670855
,,,C,U,d,n,R,G,d,R,i,,,,,5,19,119,15,6,0,6,0,,,,,1,5,41,5,,,,,,up,0.433681718,3628.571476,None,1,2,2019_Jun_04_1204,ACPT_experiment_5_30_19,3.1.0,59.95670855
,,,C,U,d,n,L,D,g,R,i,,,,,5,19,119,15,6,0,6,0,,,,,1,6,42,15,,,,,,up,0.567105227,3630.289462,None,1,2,2019_Jun_04_1204,ACPT_experiment_5_30_19,3.1.0,59.95670855
,,,C,U,d,n,R,U,d,R,u,,,,,5,19,119,15,6,0,6,0,,,,,1,7,43,9,,,,,,up,0.583496136,3632.157849,None,1,2,2019_Jun_04_1204,ACPT_experiment_5_30_19,3.1.0,59.95670855
,,,C,U,d,n,R,G,y,R,y,,,,,5,19,119,15,6,0,6,0,,,,,1,8,44,29,,,,,,down,0.967412881,3634.025673,None,1,2,2019_Jun_04_1204,ACPT_experiment_5_30_19,3.1.0,59.95670855
,,,C,U,d,n,R,D,d,R,c ,,,,,5,19,119,15,6,0,6,0,,,,,1,9,45,1,,,,,,up,0.767272637,3636.27739,None,1,2,2019_Jun_04_1204,ACPT_experiment_5_30_19,3.1.0,59.95670855
,,,C,U,d,n,R,U,y,R,u,,,,,5,19,119,15,6,0,6,0,,,,,1,10,46,31,,,,,,down,0.817278795,3638.36236,None,1,2,2019_Jun_04_1204,ACPT_experiment_5_30_19,3.1.0,59.95670855
,,,C,U,d,n,R,U,d,L,u,,,,,5,19,119,15,6,0,6,0,,,,,1,11,47,8,,,,,,up,0.750590737,3640.480651,None,1,2,2019_Jun_04_1204,ACPT_experiment_5_30_19,3.1.0,59.95670855
,,,C,U,d,n,L,U,y,L,u,,,,,5,19,119,15,6,0,6,0,,,,,1,12,48,24,,,,,,down,0.533728446,3642.515562,None,1,2,2019_Jun_04_1204,ACPT_experiment_5_30_19,3.1.0,59.95670855
,,,C,U,d,n,L,D,y,L,y,,,,,5,19,119,15,6,0,6,0,,,,,1,13,49,32,,,,,,down,0.617041655,3644.333639,None,1,2,2019_Jun_04_1204,ACPT_experiment_5_30_19,3.1.0,59.95670855
,,,C,U,d,n,L,D,d,R,c ,,,,,5,19,119,15,6,0,6,0,,,,,1,14,50,13,,,,,,up,0.533767386,3646.218385,None,1,2,2019_Jun_04_1204,ACPT_experiment_5_30_19,3.1.0,59.95670855
,,,C,U,d,n,L,U,y,R,u,,,,,5,19,119,15,6,0,6,0,,,,,1,15,51,25,,,,,,down,0.550421213,3648.03648,None,1,2,2019_Jun_04_1204,ACPT_experiment_5_30_19,3.1.0,59.95670855
,,,C,U,d,n,R,U,g,R,u,,,,,5,19,119,15,6,0,6,0,,,,,1,16,52,11,,,,,,up,0.650488467,3649.871235,None,1,2,2019_Jun_04_1204,ACPT_experiment_5_30_19,3.1.0,59.95670855
,,,C,U,d,n,R,G,g,L,c ,,,,,5,19,119,15,6,0,6,0,,,,,1,17,53,6,,,,,,up,0.517065261,3651.806046,None,1,2,2019_Jun_04_1204,ACPT_experiment_5_30_19,3.1.0,59.95670855
,,,C,U,d,n,L,D,y,R,y,,,,,5,19,119,15,6,0,6,0,,,,,1,18,54,33,,,,,,down,0.683859211,3653.607435,None,1,2,2019_Jun_04_1204,ACPT_experiment_5_30_19,3.1.0,59.95670855
,,,C,U,d,n,L,G,y,R,y,,,,,5,19,119,15,6,0,6,0,,,,,1,19,55,35,,,,,,down,0.767272034,3655.575598,None,1,2,2019_Jun_04_1204,ACPT_experiment_5_30_19,3.1.0,59.95670855
,,,C,U,d,n,L,D,d,L,c ,,,,,5,19,119,15,6,0,6,0,,,,,1,20,56,12,,,,,,up,0.850440049,3657.644066,None,1,2,2019_Jun_04_1204,ACPT_experiment_5_30_19,3.1.0,59.95670855
,,,C,U,d,n,R,D,g,R,i,,,,,5,19,119,15,6,0,6,0,,,,,1,21,57,3,,,,,,up,0.733910346,3659.778842,None,1,2,2019_Jun_04_1204,ACPT_experiment_5_30_19,3.1.0,59.95670855
,,,C,U,d,n,R,G,g,R,c ,,,,,5,19,119,15,6,0,6,0,,,,,1,22,58,7,,,,,,up,0.450388975,3661.780383,None,1,2,2019_Jun_04_1204,ACPT_experiment_5_30_19,3.1.0,59.95670855
,,,C,U,d,n,L,U,g,L,u,,,,,5,19,119,15,6,0,6,0,,,,,1,23,59,22,,,,,,up,0.433671153,3663.49839,None,1,2,2019_Jun_04_1204,ACPT_experiment_5_30_19,3.1.0,59.95670855
,,,C,U,d,n,R,G,d,L,i,,,,,5,19,119,15,6,0,6,0,,,,,1,24,60,4,,,,,,up,0.683855589,3665.216383,None,1,2,2019_Jun_04_1204,ACPT_experiment_5_30_19,3.1.0,59.95670855
,,,C,U,d,n,L,U,g,R,u,,,,,5,19,119,15,6,0,6,0,,,,,1,25,61,23,,,,,,up,0.483702365,3667.184566,None,1,2,2019_Jun_04_1204,ACPT_experiment_5_30_19,3.1.0,59.95670855
,,,C,U,d,n,L,G,y,L,y,,,,,5,19,119,15,6,0,6,0,,,,,1,26,62,34,,,,,,down,0.617136741,3668.952595,None,1,2,2019_Jun_04_1204,ACPT_experiment_5_30_19,3.1.0,59.95670855
,,,C,U,d,n,R,G,y,L,y,,,,,5,19,119,15,6,0,6,0,,,,,1,27,63,28,,,,,,down,0.650278977,3670.887605,None,1,2,2019_Jun_04_1204,ACPT_experiment_5_30_19,3.1.0,59.95670855
,,,C,U,d,n,L,G,g,L,c ,,,,,5,19,119,15,6,0,6,0,,,,,1,28,64,18,,,,,,up,0.617130402,3672.83893,None,1,2,2019_Jun_04_1204,ACPT_experiment_5_30_19,3.1.0,59.95670855
,,,C,U,d,n,L,U,d,L,u,,,,,5,19,119,15,6,0,6,0,,,,,1,29,65,20,,,,,,up,0.800609573,3674.740393,None,1,2,2019_Jun_04_1204,ACPT_experiment_5_30_19,3.1.0,59.95670855
,,,C,U,d,n,R,D,g,L,i,,,,,5,19,119,15,6,0,6,0,,,,,1,30,66,2,,,,,,up,0.650514125,3676.825332,None,1,2,2019_Jun_04_1204,ACPT_experiment_5_30_19,3.1.0,59.95670855
,,,C,U,d,n,L,D,g,L,i,,,,,5,19,119,15,6,0,6,0,,,,,1,31,67,14,,,,,,up,1.367728987,3678.760144,None,1,2,2019_Jun_04_1204,ACPT_experiment_5_30_19,3.1.0,59.95670855
,,,C,U,d,n,R,D,y,R,y,,,,,5,19,119,15,6,0,6,0,,,,,1,32,68,27,,,,,,down,0.55041578,3681.4122,None,1,2,2019_Jun_04_1204,ACPT_experiment_5_30_19,3.1.0,59.95670855
