facing_vig,person_vig,text_vig,facing_train,person_train,food_train,correct_key_train,facing_exp,person_exp,food_exp,showL_R,consistent,vig_random.thisRepN,vig_random.thisTrialN,vig_random.thisN,vig_random.thisIndex,trainTrials.thisRepN,trainTrials.thisTrialN,trainTrials.thisN,trainTrials.thisIndex,expBlock.thisRepN,expBlock.thisTrialN,expBlock.thisN,expBlock.thisIndex,breakLoop.thisRepN,breakLoop.thisTrialN,breakLoop.thisN,breakLoop.thisIndex,expTrials.thisRepN,expTrials.thisTrialN,expTrials.thisN,expTrials.thisIndex,train_resp.keys,train_resp.corr,train_resp.rt,train_resp.started,train_resp.stopped,exp_resp.keys,exp_resp.rt,exp_resp.started,exp_resp.stopped,session,participant,date,expName,psychopyVersion,frameRate,
C,G,"cannot eat dairy products because she is lactose intolerant. She enjoys eating wheat products. She thinks eating insects, like crickets, is disgusting.",,,,,,,,,,0,0,0,0,,,,,,,,,,,,,,,,,,,,,,,,,,001,2,2019_Jun_04_1204,ACPT_experiment_5_30_19,3.1.0,59.956708546341595,
C,U,"did not report her food preferences, so her food preferences are unknown.",,,,,,,,,,0,1,1,2,,,,,,,,,,,,,,,,,,,,,,,,,,001,2,2019_Jun_04_1204,ACPT_experiment_5_30_19,3.1.0,59.956708546341595,
C,D,"is allergic to gluten, meaning she can’t eat wheat products. She enjoys eating dairy products. She thinks eating insects, like crickets, is disgusting.",,,,,,,,,,0,2,2,1,,,,,,,,,,,,,,,,,,,,,,,,,,001,2,2019_Jun_04_1204,ACPT_experiment_5_30_19,3.1.0,59.956708546341595,
,,,C,G,y,b,,,,,,,,,,0,0,0,14,,,,,,,,,,,,,b,1,2.218389996171936,2125.779565819008,None,,,,,001,2,2019_Jun_04_1204,ACPT_experiment_5_30_19,3.1.0,59.956708546341595,
,,,C,U,d,n,,,,,,,,,,0,1,1,6,,,,,,,,,,,,,v,0,1.0674819458508864,2131.300514789249,None,,,,,001,2,2019_Jun_04_1204,ACPT_experiment_5_30_19,3.1.0,59.956708546341595,
,,,C,G,g,v,,,,,,,,,,0,2,2,19,,,,,,,,,,,,,v,1,1.4010810151621627,2135.6705388050996,None,,,,,001,2,2019_Jun_04_1204,ACPT_experiment_5_30_19,3.1.0,59.956708546341595,
,,,C,D,g,b,,,,,,,,,,0,3,3,10,,,,,,,,,,,,,n,0,2.3685077813051976,2140.3574818009592,None,,,,,001,2,2019_Jun_04_1204,ACPT_experiment_5_30_19,3.1.0,59.956708546341595,
,,,C,D,y,b,,,,,,,,,,0,4,4,2,,,,,,,,,,,,,b,1,2.0349102212867365,2146.011849449954,None,,,,,001,2,2019_Jun_04_1204,ACPT_experiment_5_30_19,3.1.0,59.956708546341595,
,,,C,D,d,v,,,,,,,,,,0,5,5,9,,,,,,,,,,,,,v,1,1.13427203234005,2151.332593579111,None,,,,,001,2,2019_Jun_04_1204,ACPT_experiment_5_30_19,3.1.0,59.956708546341595,
,,,C,G,g,v,,,,,,,,,,0,6,6,13,,,,,,,,,,,,,v,1,1.0005545138083107,2155.7696120395603,None,,,,,001,2,2019_Jun_04_1204,ACPT_experiment_5_30_19,3.1.0,59.956708546341595,
,,,C,D,y,b,,,,,,,,,,0,7,7,11,,,,,,,,,,,,,b,1,1.5512395511723298,2160.0559883869055,None,,,,,001,2,2019_Jun_04_1204,ACPT_experiment_5_30_19,3.1.0,59.956708546341595,
,,,C,U,d,n,,,,,,,,,,0,8,8,15,,,,,,,,,,,,,n,1,0.43368141627070145,2164.8930796555915,None,,,,,001,2,2019_Jun_04_1204,ACPT_experiment_5_30_19,3.1.0,59.956708546341595,
,,,C,U,g,n,,,,,,,,,,0,9,9,16,,,,,,,,,,,,,n,1,0.9640897219651379,2168.632631130291,None,,,,,001,2,2019_Jun_04_1204,ACPT_experiment_5_30_19,3.1.0,59.956708546341595,
,,,C,G,d,b,,,,,,,,,,0,10,10,12,,,,,,,,,,,,,b,1,1.3844948038104121,2172.882558684284,None,,,,,001,2,2019_Jun_04_1204,ACPT_experiment_5_30_19,3.1.0,59.956708546341595,
,,,C,D,d,v,,,,,,,,,,0,11,11,18,,,,,,,,,,,,,v,1,1.4842324285227733,2177.569799916204,None,,,,,001,2,2019_Jun_04_1204,ACPT_experiment_5_30_19,3.1.0,59.956708546341595,
,,,C,G,y,b,,,,,,,,,,0,12,12,5,,,,,,,,,,,,,b,1,1.3510498030072995,2182.3398789306484,None,,,,,001,2,2019_Jun_04_1204,ACPT_experiment_5_30_19,3.1.0,59.956708546341595,
,,,C,D,d,v,,,,,,,,,,0,13,13,0,,,,,,,,,,,,,v,1,1.6010211264629106,2186.993712290345,None,,,,,001,2,2019_Jun_04_1204,ACPT_experiment_5_30_19,3.1.0,59.956708546341595,
,,,C,U,y,n,,,,,,,,,,0,14,14,17,,,,,,,,,,,,,n,1,1.4511246035090153,2191.8805742674203,None,,,,,001,2,2019_Jun_04_1204,ACPT_experiment_5_30_19,3.1.0,59.956708546341595,
,,,C,D,g,b,,,,,,,,,,0,15,15,1,,,,,,,,,,,,,b,1,1.117308196178783,2196.634487257351,None,,,,,001,2,2019_Jun_04_1204,ACPT_experiment_5_30_19,3.1.0,59.956708546341595,
,,,C,U,g,n,,,,,,,,,,0,16,16,7,,,,,,,,,,,,,n,1,1.1675953842232047,2201.0376157777746,None,,,,,001,2,2019_Jun_04_1204,ACPT_experiment_5_30_19,3.1.0,59.956708546341595,
,,,C,G,d,b,,,,,,,,,,0,17,17,3,,,,,,,,,,,,,b,1,1.7677616478085838,2205.50803456399,None,,,,,001,2,2019_Jun_04_1204,ACPT_experiment_5_30_19,3.1.0,59.956708546341595,
,,,C,U,y,n,,,,,,,,,,0,18,18,8,,,,,,,,,,,,,n,1,1.301008025810006,2210.5616542683374,None,,,,,001,2,2019_Jun_04_1204,ACPT_experiment_5_30_19,3.1.0,59.956708546341595,
,,,C,G,g,v,,,,,,,,,,0,19,19,4,,,,,,,,,,,,,v,1,1.3309312451174264,2215.1853621636246,None,,,,,001,2,2019_Jun_04_1204,ACPT_experiment_5_30_19,3.1.0,59.956708546341595,
,,,C,U,y,n,,,,,,,,,,1,0,20,8,,,,,,,,,,,,,n,1,1.1675778764383722,2219.802115845994,None,,,,,001,2,2019_Jun_04_1204,ACPT_experiment_5_30_19,3.1.0,59.956708546341595,
,,,C,D,y,b,,,,,,,,,,1,1,21,2,,,,,,,,,,,,,b,1,2.1180703885393086,2224.2724757698297,None,,,,,001,2,2019_Jun_04_1204,ACPT_experiment_5_30_19,3.1.0,59.956708546341595,
,,,C,D,g,b,,,,,,,,,,1,2,22,10,,,,,,,,,,,,,b,1,1.551232608430837,2229.6596996750795,None,,,,,001,2,2019_Jun_04_1204,ACPT_experiment_5_30_19,3.1.0,59.956708546341595,
,,,C,G,g,v,,,,,,,,,,1,3,23,13,,,,,,,,,,,,,v,1,1.334387825207159,2234.4967779638564,None,,,,,001,2,2019_Jun_04_1204,ACPT_experiment_5_30_19,3.1.0,59.956708546341595,
,,,C,G,g,v,,,,,,,,,,1,4,24,19,,,,,,,,,,,,,v,1,0.884017263883834,2239.1003500953266,None,,,,,001,2,2019_Jun_04_1204,ACPT_experiment_5_30_19,3.1.0,59.956708546341595,
,,,C,U,d,n,,,,,,,,,,1,5,25,6,,,,,,,,,,,,,n,1,1.4011078805551733,2243.2702048893807,None,,,,,001,2,2019_Jun_04_1204,ACPT_experiment_5_30_19,3.1.0,59.956708546341595,
,,,C,U,g,n,,,,,,,,,,1,6,26,7,,,,,,,,,,,,,n,1,0.7002999264668688,2247.957448536168,None,,,,,001,2,2019_Jun_04_1204,ACPT_experiment_5_30_19,3.1.0,59.956708546341595,
,,,C,G,g,v,,,,,,,,,,1,7,27,4,,,,,,,,,,,,,v,1,1.5178802781438208,2251.9435597311285,None,,,,,001,2,2019_Jun_04_1204,ACPT_experiment_5_30_19,3.1.0,59.956708546341595,
,,,C,D,d,v,,,,,,,,,,1,8,28,0,,,,,,,,,,,,,v,1,1.3844401674468827,2256.7472624465263,None,,,,,001,2,2019_Jun_04_1204,ACPT_experiment_5_30_19,3.1.0,59.956708546341595,
,,,C,D,g,b,,,,,,,,,,1,9,29,1,,,,,,,,,,,,,b,1,1.1172716713172122,2261.43451031933,None,,,,,001,2,2019_Jun_04_1204,ACPT_experiment_5_30_19,3.1.0,59.956708546341595,
,,,C,U,y,n,,,,,,,,,,1,10,30,17,,,,,,,,,,,,,n,1,1.2009283955740102,2265.854320438347,None,,,,,001,2,2019_Jun_04_1204,ACPT_experiment_5_30_19,3.1.0,59.956708546341595,
,,,C,D,y,b,,,,,,,,,,1,11,31,11,,,,,,,,,,,,,b,1,1.1008348798550287,2270.374493028883,None,,,,,001,2,2019_Jun_04_1204,ACPT_experiment_5_30_19,3.1.0,59.956708546341595,
,,,C,G,y,b,,,,,,,,,,1,12,32,5,,,,,,,,,,,,,b,1,0.7839433689568978,2274.761193209877,None,,,,,001,2,2019_Jun_04_1204,ACPT_experiment_5_30_19,3.1.0,59.956708546341595,
,,,C,D,d,v,,,,,,,,,,1,13,33,9,,,,,,,,,,,,,b,0,1.7344189769901277,2278.8479460953413,None,,,,,001,2,2019_Jun_04_1204,ACPT_experiment_5_30_19,3.1.0,59.956708546341595,
,,,C,U,g,n,,,,,,,,,,1,14,34,16,,,,,,,,,,,,,n,1,1.1676098734251354,2283.868195961618,None,,,,,001,2,2019_Jun_04_1204,ACPT_experiment_5_30_19,3.1.0,59.956708546341595,
,,,C,U,d,n,,,,,,,,,,1,15,35,15,,,,,,,,,,,,,n,1,1.117534589949173,2288.304985009714,None,,,,,001,2,2019_Jun_04_1204,ACPT_experiment_5_30_19,3.1.0,59.956708546341595,
,,,C,G,d,b,,,,,,,,,,1,16,36,12,,,,,,,,,,,,,b,1,1.4678164652868873,2292.7083861082365,None,,,,,001,2,2019_Jun_04_1204,ACPT_experiment_5_30_19,3.1.0,59.956708546341595,
,,,C,D,d,v,,,,,,,,,,1,17,37,18,,,,,,,,,,,,,v,1,1.0675239041638633,2297.4453376768743,None,,,,,001,2,2019_Jun_04_1204,ACPT_experiment_5_30_19,3.1.0,59.956708546341595,
,,,C,G,y,b,,,,,,,,,,1,18,38,14,,,,,,,,,,,,,n,0,1.3005642940197504,2301.8158171969917,None,,,,,001,2,2019_Jun_04_1204,ACPT_experiment_5_30_19,3.1.0,59.956708546341595,
,,,C,G,d,b,,,,,,,,,,1,19,39,3,,,,,,,,,,,,,b,1,1.4010961080794004,2306.3855896440846,None,,,,,001,2,2019_Jun_04_1204,ACPT_experiment_5_30_19,3.1.0,59.956708546341595,
,,,C,D,y,b,,,,,,,,,,2,0,40,2,,,,,,,,,,,,,b,1,1.6176417496672002,2311.089502513273,None,,,,,001,2,2019_Jun_04_1204,ACPT_experiment_5_30_19,3.1.0,59.956708546341595,
,,,C,U,y,n,,,,,,,,,,2,1,41,8,,,,,,,,,,,,,n,1,0.9006949383183382,2315.993006847355,None,,,,,001,2,2019_Jun_04_1204,ACPT_experiment_5_30_19,3.1.0,59.956708546341595,
,,,C,U,g,n,,,,,,,,,,2,2,42,16,,,,,,,,,,,,,n,1,1.0670626645878656,2320.1966577034855,None,,,,,001,2,2019_Jun_04_1204,ACPT_experiment_5_30_19,3.1.0,59.956708546341595,
,,,C,D,d,v,,,,,,,,,,2,3,43,18,,,,,,,,,,,,,v,1,1.050845626012233,2324.5495838580637,None,,,,,001,2,2019_Jun_04_1204,ACPT_experiment_5_30_19,3.1.0,59.956708546341595,
,,,C,G,y,b,,,,,,,,,,2,4,44,14,,,,,,,,,,,,,b,1,1.083761770966703,2328.90338328888,None,,,,,001,2,2019_Jun_04_1204,ACPT_experiment_5_30_19,3.1.0,59.956708546341595,
,,,C,G,g,v,,,,,,,,,,2,5,45,4,,,,,,,,,,,,,v,1,1.2843560093360793,2333.2563040100076,None,,,,,001,2,2019_Jun_04_1204,ACPT_experiment_5_30_19,3.1.0,59.956708546341595,
,,,C,G,d,b,,,,,,,,,,2,6,46,12,,,,,,,,,,,,,b,1,1.1175237230481798,2337.809851570207,None,,,,,001,2,2019_Jun_04_1204,ACPT_experiment_5_30_19,3.1.0,59.956708546341595,
,,,C,D,d,v,,,,,,,,,,2,7,47,9,,,,,,,,,,,,,v,1,0.8672291092889282,2342.2132357646615,None,,,,,001,2,2019_Jun_04_1204,ACPT_experiment_5_30_19,3.1.0,59.956708546341595,
,,,C,G,g,v,,,,,,,,,,2,8,48,19,,,,,,,,,,,,,v,1,0.9004311141106882,2346.38339362451,None,,,,,001,2,2019_Jun_04_1204,ACPT_experiment_5_30_19,3.1.0,59.956708546341595,
,,,C,U,d,n,,,,,,,,,,2,9,49,6,,,,,,,,,,,,,n,1,0.783941557806429,2350.56968460631,None,,,,,001,2,2019_Jun_04_1204,ACPT_experiment_5_30_19,3.1.0,59.956708546341595,
,,,C,G,d,b,,,,,,,,,,2,10,50,3,,,,,,,,,,,,,b,1,1.0005361004486986,2354.639729933362,None,,,,,001,2,2019_Jun_04_1204,ACPT_experiment_5_30_19,3.1.0,59.956708546341595,
,,,C,D,y,b,,,,,,,,,,2,11,51,11,,,,,,,,,,,,,b,1,1.0008092822654362,2358.926102960265,None,,,,,001,2,2019_Jun_04_1204,ACPT_experiment_5_30_19,3.1.0,59.956708546341595,
,,,C,U,y,n,,,,,,,,,,2,12,52,17,,,,,,,,,,,,,n,1,1.0337728189824702,2363.22969187506,None,,,,,001,2,2019_Jun_04_1204,ACPT_experiment_5_30_19,3.1.0,59.956708546341595,
,,,C,G,y,b,,,,,,,,,,2,13,53,5,,,,,,,,,,,,,n,0,1.217619653634756,2367.5494456069346,None,,,,,001,2,2019_Jun_04_1204,ACPT_experiment_5_30_19,3.1.0,59.956708546341595,
,,,C,G,g,v,,,,,,,,,,2,14,54,13,,,,,,,,,,,,,v,1,0.7339130623777237,2372.0529287505597,None,,,,,001,2,2019_Jun_04_1204,ACPT_experiment_5_30_19,3.1.0,59.956708546341595,
,,,C,D,g,b,,,,,,,,,,2,15,55,10,,,,,,,,,,,,,b,1,0.9006647524820437,2376.072708019652,None,,,,,001,2,2019_Jun_04_1204,ACPT_experiment_5_30_19,3.1.0,59.956708546341595,
,,,C,D,g,b,,,,,,,,,,2,16,56,1,,,,,,,,,,,,,v,0,1.2340241462534323,2380.2595215182755,None,,,,,001,2,2019_Jun_04_1204,ACPT_experiment_5_30_19,3.1.0,59.956708546341595,
,,,C,D,d,v,,,,,,,,,,2,17,57,0,,,,,,,,,,,,,v,1,0.6671902903035516,2384.7794016080597,None,,,,,001,2,2019_Jun_04_1204,ACPT_experiment_5_30_19,3.1.0,59.956708546341595,
,,,C,U,g,n,,,,,,,,,,2,18,58,7,,,,,,,,,,,,,n,1,1.1338346395750705,2388.749502537422,None,,,,,001,2,2019_Jun_04_1204,ACPT_experiment_5_30_19,3.1.0,59.956708546341595,
,,,C,U,d,n,,,,,,,,,,2,19,59,15,,,,,,,,,,,,,n,1,1.0674976424861597,2393.152528124144,None,,,,,001,2,2019_Jun_04_1204,ACPT_experiment_5_30_19,3.1.0,59.956708546341595,
,,,C,D,d,v,,,,,,,,,,3,0,60,18,,,,,,,,,,,,,v,1,1.8347669593085811,2397.5058774841436,None,,,,,001,2,2019_Jun_04_1204,ACPT_experiment_5_30_19,3.1.0,59.956708546341595,
,,,C,D,g,b,,,,,,,,,,3,1,61,1,,,,,,,,,,,,,b,1,0.8506522555462652,2402.6098314664405,None,,,,,001,2,2019_Jun_04_1204,ACPT_experiment_5_30_19,3.1.0,59.956708546341595,
,,,C,D,y,b,,,,,,,,,,3,2,62,2,,,,,,,,,,,,,b,1,0.7806205121214589,2406.7663531766975,None,,,,,001,2,2019_Jun_04_1204,ACPT_experiment_5_30_19,3.1.0,59.956708546341595,
,,,C,G,y,b,,,,,,,,,,3,3,63,5,,,,,,,,,,,,,b,1,0.9507454694075932,2410.832831745357,None,,,,,001,2,2019_Jun_04_1204,ACPT_experiment_5_30_19,3.1.0,59.956708546341595,
,,,C,G,d,b,,,,,,,,,,3,4,64,12,,,,,,,,,,,,,b,1,1.1673191838235653,2415.0863716383546,None,,,,,001,2,2019_Jun_04_1204,ACPT_experiment_5_30_19,3.1.0,59.956708546341595,
,,,C,U,d,n,,,,,,,,,,3,5,65,6,,,,,,,,,,,,,n,1,1.0341770073273437,2419.539545256417,None,,,,,001,2,2019_Jun_04_1204,ACPT_experiment_5_30_19,3.1.0,59.956708546341595,
,,,C,D,d,v,,,,,,,,,,3,6,66,0,,,,,,,,,,,,,v,1,1.3644109596316412,2423.8795494582855,None,,,,,001,2,2019_Jun_04_1204,ACPT_experiment_5_30_19,3.1.0,59.956708546341595,
,,,C,D,y,b,,,,,,,,,,3,7,67,11,,,,,,,,,,,,,b,1,0.767278976290072,2428.529812135431,None,,,,,001,2,2019_Jun_04_1204,ACPT_experiment_5_30_19,3.1.0,59.956708546341595,
,,,C,D,g,b,,,,,,,,,,3,8,68,10,,,,,,,,,,,,,b,1,1.217363074028981,2432.5998689331,None,,,,,001,2,2019_Jun_04_1204,ACPT_experiment_5_30_19,3.1.0,59.956708546341595,
,,,C,G,g,v,,,,,,,,,,3,9,69,13,,,,,,,,,,,,,v,1,1.517819302755015,2437.1031178346375,None,,,,,001,2,2019_Jun_04_1204,ACPT_experiment_5_30_19,3.1.0,59.956708546341595,
,,,C,U,y,n,,,,,,,,,,3,10,70,8,,,,,,,,,,,,,n,1,0.7338922341505167,2441.906807871983,None,,,,,001,2,2019_Jun_04_1204,ACPT_experiment_5_30_19,3.1.0,59.956708546341595,
,,,C,U,g,n,,,,,,,,,,3,11,71,16,,,,,,,,,,,,,n,1,0.3669607572055611,2445.926562690548,None,,,,,001,2,2019_Jun_04_1204,ACPT_experiment_5_30_19,3.1.0,59.956708546341595,
,,,C,U,g,n,,,,,,,,,,3,12,72,7,,,,,,,,,,,,,n,1,0.3333264912098457,2449.5796510638093,None,,,,,001,2,2019_Jun_04_1204,ACPT_experiment_5_30_19,3.1.0,59.956708546341595,
,,,C,G,y,b,,,,,,,,,,3,13,73,14,,,,,,,,,,,,,b,1,0.7672632796547987,2453.1988368189923,None,,,,,001,2,2019_Jun_04_1204,ACPT_experiment_5_30_19,3.1.0,59.956708546341595,
,,,C,U,d,n,,,,,,,,,,3,14,74,15,,,,,,,,,,,,,n,1,0.3331864289311852,2457.2690219064652,None,,,,,001,2,2019_Jun_04_1204,ACPT_experiment_5_30_19,3.1.0,59.956708546341595,
,,,C,G,g,v,,,,,,,,,,3,15,75,19,,,,,,,,,,,,,v,1,0.7505831903526996,2460.888102011222,None,,,,,001,2,2019_Jun_04_1204,ACPT_experiment_5_30_19,3.1.0,59.956708546341595,
,,,C,D,d,v,,,,,,,,,,3,16,76,9,,,,,,,,,,,,,v,1,1.0503590303342207,2464.941660740181,None,,,,,001,2,2019_Jun_04_1204,ACPT_experiment_5_30_19,3.1.0,59.956708546341595,
,,,C,G,g,v,,,,,,,,,,3,17,77,4,,,,,,,,,,,,,v,1,1.134238526061381,2469.2779055980236,None,,,,,001,2,2019_Jun_04_1204,ACPT_experiment_5_30_19,3.1.0,59.956708546341595,
,,,C,G,d,b,,,,,,,,,,3,18,78,3,,,,,,,,,,,,,b,1,0.7972909419549978,2473.717993958003,None,,,,,001,2,2019_Jun_04_1204,ACPT_experiment_5_30_19,3.1.0,59.956708546341595,
,,,C,U,y,n,,,,,,,,,,3,19,79,17,,,,,,,,,,,,,n,1,0.6505147288771695,2477.801142050922,None,,,,,001,2,2019_Jun_04_1204,ACPT_experiment_5_30_19,3.1.0,59.956708546341595,
,,,C,U,y,n,,,,,,,,,,4,0,80,17,,,,,,,,,,,,,n,1,0.299991366850918,2481.754434601179,None,,,,,001,2,2019_Jun_04_1204,ACPT_experiment_5_30_19,3.1.0,59.956708546341595,
,,,C,G,y,b,,,,,,,,,,4,1,81,14,,,,,,,,,,,,,b,1,0.8006110820651884,2485.3403039472205,None,,,,,001,2,2019_Jun_04_1204,ACPT_experiment_5_30_19,3.1.0,59.956708546341595,
,,,C,D,g,b,,,,,,,,,,4,2,82,10,,,,,,,,,,,,,b,1,1.4675481132035202,2489.4437145844677,None,,,,,001,2,2019_Jun_04_1204,ACPT_experiment_5_30_19,3.1.0,59.956708546341595,
,,,C,U,y,n,,,,,,,,,,4,3,83,8,,,,,,,,,,,,,n,1,0.6004807999970581,2494.19710626501,None,,,,,001,2,2019_Jun_04_1204,ACPT_experiment_5_30_19,3.1.0,59.956708546341595,
,,,C,U,d,n,,,,,,,,,,4,4,84,15,,,,,,,,,,,,,n,1,1.484473009636531,2498.066785860471,None,,,,,001,2,2019_Jun_04_1204,ACPT_experiment_5_30_19,3.1.0,59.956708546341595,
,,,C,D,d,v,,,,,,,,,,4,5,85,9,,,,,,,,,,,,,v,1,0.7839436708154608,2502.837115115497,None,,,,,001,2,2019_Jun_04_1204,ACPT_experiment_5_30_19,3.1.0,59.956708546341595,
,,,C,G,g,v,,,,,,,,,,4,6,86,4,,,,,,,,,,,,,v,1,0.9838541999970403,2506.923842946717,None,,,,,001,2,2019_Jun_04_1204,ACPT_experiment_5_30_19,3.1.0,59.956708546341595,
,,,C,G,g,v,,,,,,,,,,4,7,87,19,,,,,,,,,,,,,v,1,0.7172344823675303,2511.1768760195264,None,,,,,001,2,2019_Jun_04_1204,ACPT_experiment_5_30_19,3.1.0,59.956708546341595,
,,,C,D,y,b,,,,,,,,,,4,8,88,2,,,,,,,,,,,,,b,1,0.6669343144130835,2515.1968994920326,None,,,,,001,2,2019_Jun_04_1204,ACPT_experiment_5_30_19,3.1.0,59.956708546341595,
,,,C,D,d,v,,,,,,,,,,4,9,89,0,,,,,,,,,,,,,v,1,1.0841828633801924,2519.1330117736834,None,,,,,001,2,2019_Jun_04_1204,ACPT_experiment_5_30_19,3.1.0,59.956708546341595,
,,,C,D,y,b,,,,,,,,,,4,10,90,11,,,,,,,,,,,,,b,1,0.7503175549954904,2523.503326177278,None,,,,,001,2,2019_Jun_04_1204,ACPT_experiment_5_30_19,3.1.0,59.956708546341595,
,,,C,U,g,n,,,,,,,,,,4,11,91,16,,,,,,,,,,,,,n,1,0.2835775166231542,2527.5394697918264,None,,,,,001,2,2019_Jun_04_1204,ACPT_experiment_5_30_19,3.1.0,59.956708546341595,
,,,C,D,d,v,,,,,,,,,,4,12,92,18,,,,,,,,,,,,,v,1,0.8004384190835481,2531.1257620414317,None,,,,,001,2,2019_Jun_04_1204,ACPT_experiment_5_30_19,3.1.0,59.956708546341595,
,,,C,G,d,b,,,,,,,,,,4,13,93,12,,,,,,,,,,,,,b,1,1.2176296149618793,2535.212076024839,None,,,,,001,2,2019_Jun_04_1204,ACPT_experiment_5_30_19,3.1.0,59.956708546341595,
,,,C,U,g,n,,,,,,,,,,4,14,94,7,,,,,,,,,,,,,n,1,0.4665909203413321,2539.732657935313,None,,,,,001,2,2019_Jun_04_1204,ACPT_experiment_5_30_19,3.1.0,59.956708546341595,
,,,C,G,g,v,,,,,,,,,,4,15,95,13,,,,,,,,,,,,,v,1,0.9507484879914045,2543.4851247218376,None,,,,,001,2,2019_Jun_04_1204,ACPT_experiment_5_30_19,3.1.0,59.956708546341595,
,,,C,D,g,b,,,,,,,,,,4,16,96,1,,,,,,,,,,,,,b,1,0.7836668666986952,2547.73868212262,None,,,,,001,2,2019_Jun_04_1204,ACPT_experiment_5_30_19,3.1.0,59.956708546341595,
,,,C,G,d,b,,,,,,,,,,4,17,97,3,,,,,,,,,,,,,b,1,0.7338910267162646,2551.808227874084,None,,,,,001,2,2019_Jun_04_1204,ACPT_experiment_5_30_19,3.1.0,59.956708546341595,
,,,C,G,y,b,,,,,,,,,,4,18,98,5,,,,,,,,,,,,,b,1,0.48350615730669233,2555.828242592698,None,,,,,001,2,2019_Jun_04_1204,ACPT_experiment_5_30_19,3.1.0,59.956708546341595,
,,,C,U,d,n,,,,,,,,,,4,19,99,6,,,,,,,,,,,,,n,1,0.6672117222469751,2559.597547944163,None,,,,,001,2,2019_Jun_04_1204,ACPT_experiment_5_30_19,3.1.0,59.956708546341595,
,,,C,U,g,n,,,,,,,,,,5,0,100,16,,,,,,,,,,,,,n,1,0.500149118031004,2563.5675450342487,None,,,,,001,2,2019_Jun_04_1204,ACPT_experiment_5_30_19,3.1.0,59.956708546341595,
,,,C,D,g,b,,,,,,,,,,5,1,101,10,,,,,,,,,,,,,b,1,1.1342228294270171,2567.353522928557,None,,,,,001,2,2019_Jun_04_1204,ACPT_experiment_5_30_19,3.1.0,59.956708546341595,
,,,C,G,g,v,,,,,,,,,,5,2,102,19,,,,,,,,,,,,,v,1,1.2509722857803354,2571.773599588507,None,,,,,001,2,2019_Jun_04_1204,ACPT_experiment_5_30_19,3.1.0,59.956708546341595,
,,,C,G,d,b,,,,,,,,,,5,3,103,3,,,,,,,,,,,,,v,0,1.3510374268144005,2576.3104347605604,None,,,,,001,2,2019_Jun_04_1204,ACPT_experiment_5_30_19,3.1.0,59.956708546341595,
,,,C,G,y,b,,,,,,,,,,5,4,104,14,,,,,,,,,,,,,b,1,0.6000738949269362,2580.964290457774,None,,,,,001,2,2019_Jun_04_1204,ACPT_experiment_5_30_19,3.1.0,59.956708546341595,
,,,C,U,d,n,,,,,,,,,,5,5,105,6,,,,,,,,,,,,,n,1,0.9340795674488618,2584.8503277578084,None,,,,,001,2,2019_Jun_04_1204,ACPT_experiment_5_30_19,3.1.0,59.956708546341595,
,,,C,U,g,n,,,,,,,,,,5,6,106,7,,,,,,,,,,,,,n,1,0.3333165298845415,2589.087225293799,None,,,,,001,2,2019_Jun_04_1204,ACPT_experiment_5_30_19,3.1.0,59.956708546341595,
,,,C,U,y,n,,,,,,,,,,5,7,107,17,,,,,,,,,,,,,n,1,0.36695532375506446,2592.689731563397,None,,,,,001,2,2019_Jun_04_1204,ACPT_experiment_5_30_19,3.1.0,59.956708546341595,
,,,C,G,g,v,,,,,,,,,,5,8,108,4,,,,,,,,,,,,,v,1,0.7003032469101527,2596.359465312248,None,,,,,001,2,2019_Jun_04_1204,ACPT_experiment_5_30_19,3.1.0,59.956708546341595,
,,,C,G,g,v,,,,,,,,,,5,9,109,13,,,,,,,,,,,,,v,1,0.6505141251600435,2600.3289483375456,None,,,,,001,2,2019_Jun_04_1204,ACPT_experiment_5_30_19,3.1.0,59.956708546341595,
,,,C,D,y,b,,,,,,,,,,5,10,110,11,,,,,,,,,,,,,b,1,0.7169528485164847,2604.282273488505,None,,,,,001,2,2019_Jun_04_1204,ACPT_experiment_5_30_19,3.1.0,59.956708546341595,
,,,C,D,y,b,,,,,,,,,,5,11,111,2,,,,,,,,,,,,,b,1,0.6171805100930214,2608.2683744202814,None,,,,,001,2,2019_Jun_04_1204,ACPT_experiment_5_30_19,3.1.0,59.956708546341595,
,,,C,G,y,b,,,,,,,,,,5,12,112,5,,,,,,,,,,,,,b,1,0.7668464132593726,2612.1884854920836,None,,,,,001,2,2019_Jun_04_1204,ACPT_experiment_5_30_19,3.1.0,59.956708546341595,
,,,C,D,d,v,,,,,,,,,,5,13,113,18,,,,,,,,,,,,,v,1,0.8506634243058215,2616.241189961881,None,,,,,001,2,2019_Jun_04_1204,ACPT_experiment_5_30_19,3.1.0,59.956708546341595,
,,,C,U,y,n,,,,,,,,,,5,14,114,8,,,,,,,,,,,,,n,1,0.5500958098436968,2620.3947371598506,None,,,,,001,2,2019_Jun_04_1204,ACPT_experiment_5_30_19,3.1.0,59.956708546341595,
,,,C,G,d,b,,,,,,,,,,5,15,115,12,,,,,,,,,,,,,b,1,0.8340268026076956,2624.2307082321604,None,,,,,001,2,2019_Jun_04_1204,ACPT_experiment_5_30_19,3.1.0,59.956708546341595,
,,,C,D,d,v,,,,,,,,,,5,16,116,9,,,,,,,,,,,,,v,1,0.9505018697109335,2628.3674721052694,None,,,,,001,2,2019_Jun_04_1204,ACPT_experiment_5_30_19,3.1.0,59.956708546341595,
,,,C,D,g,b,,,,,,,,,,5,17,117,1,,,,,,,,,,,,,b,1,1.134187813857352,2632.6038564820465,None,,,,,001,2,2019_Jun_04_1204,ACPT_experiment_5_30_19,3.1.0,59.956708546341595,
,,,C,D,d,v,,,,,,,,,,5,18,118,0,,,,,,,,,,,,,v,1,0.7503139326954624,2637.040832078609,None,,,,,001,2,2019_Jun_04_1204,ACPT_experiment_5_30_19,3.1.0,59.956708546341595,
,,,C,U,d,n,,,,,,,,,,5,19,119,15,0,0,0,0,0,0,0,0,,,,,n,1,0.7672669019548266,2641.0770336499627,None,,,,,001,2,2019_Jun_04_1204,ACPT_experiment_5_30_19,3.1.0,59.956708546341595,
,,,C,U,d,n,L,G,d,R,i,,,,,5,19,119,15,0,0,0,0,,,,,0,0,0,17,,,,,,up,0.6337917756873139,2692.3832650328486,None,001,2,2019_Jun_04_1204,ACPT_experiment_5_30_19,3.1.0,59.956708546341595,
,,,C,U,d,n,R,U,g,R,u,,,,,5,19,119,15,0,0,0,0,,,,,0,1,1,11,,,,,,up,0.6504929950742735,2694.3013928952205,None,001,2,2019_Jun_04_1204,ACPT_experiment_5_30_19,3.1.0,59.956708546341595,
,,,C,U,d,n,L,U,d,R,u,,,,,5,19,119,15,0,0,0,0,,,,,0,2,2,21,,,,,,up,0.6505171437429453,2696.2361942060097,None,001,2,2019_Jun_04_1204,ACPT_experiment_5_30_19,3.1.0,59.956708546341595,
,,,C,U,d,n,L,G,g,R,c ,,,,,5,19,119,15,0,0,0,0,,,,,0,3,3,19,,,,,,up,0.6171373443467019,2698.1710465308624,None,001,2,2019_Jun_04_1204,ACPT_experiment_5_30_19,3.1.0,59.956708546341595,
,,,C,U,d,n,R,D,y,R,y,,,,,5,19,119,15,0,0,0,0,,,,,0,4,4,27,,,,,,down,0.53376708367432,2700.0724816258817,None,001,2,2019_Jun_04_1204,ACPT_experiment_5_30_19,3.1.0,59.956708546341595,
,,,C,U,d,n,L,D,g,L,i,,,,,5,19,119,15,0,0,0,0,,,,,0,5,5,14,,,,,,up,0.7839315964811249,2701.890578155356,None,001,2,2019_Jun_04_1204,ACPT_experiment_5_30_19,3.1.0,59.956708546341595,
,,,C,U,d,n,R,G,d,L,i,,,,,5,19,119,15,0,0,0,0,,,,,0,6,6,4,,,,,,up,0.4503500349555907,2703.958835273478,None,001,2,2019_Jun_04_1204,ACPT_experiment_5_30_19,3.1.0,59.956708546341595,
,,,C,U,d,n,L,U,y,R,u,,,,,5,19,119,15,0,0,0,0,,,,,0,7,7,25,,,,,,down,0.7336854611739909,2705.727044275377,None,001,2,2019_Jun_04_1204,ACPT_experiment_5_30_19,3.1.0,59.956708546341595,
,,,C,U,d,n,R,D,d,L,c,,,,,5,19,119,15,0,0,0,0,,,,,0,8,8,0,,,,,,up,0.5503913291786375,2707.761788474565,None,001,2,2019_Jun_04_1204,ACPT_experiment_5_30_19,3.1.0,59.956708546341595,
,,,C,U,d,n,L,D,d,L,c ,,,,,5,19,119,15,0,0,0,0,,,,,0,9,9,12,,,,,,up,0.5337338792542141,2709.5965243424616,None,001,2,2019_Jun_04_1204,ACPT_experiment_5_30_19,3.1.0,59.956708546341595,
,,,C,U,d,n,R,G,y,R,y,,,,,5,19,119,15,0,0,0,0,,,,,0,10,10,29,,,,,,down,0.7005426205896583,2711.4145752913237,None,001,2,2019_Jun_04_1204,ACPT_experiment_5_30_19,3.1.0,59.956708546341595,
,,,C,U,d,n,R,G,g,L,c ,,,,,5,19,119,15,0,0,0,0,,,,,0,11,11,6,,,,,,up,0.5304161540107089,2713.4194578503093,None,001,2,2019_Jun_04_1204,ACPT_experiment_5_30_19,3.1.0,59.956708546341595,
,,,C,U,d,n,L,U,g,R,u,,,,,5,19,119,15,0,0,0,0,,,,,0,12,12,23,,,,,,up,0.5337359922623364,2715.2342007333955,None,001,2,2019_Jun_04_1204,ACPT_experiment_5_30_19,3.1.0,59.956708546341595,
,,,C,U,d,n,R,G,d,R,i,,,,,5,19,119,15,0,0,0,0,,,,,0,13,13,5,,,,,,up,0.4169804987423049,2717.052262851016,None,001,2,2019_Jun_04_1204,ACPT_experiment_5_30_19,3.1.0,59.956708546341595,
,,,C,U,d,n,R,D,d,R,c ,,,,,5,19,119,15,0,0,0,0,,,,,0,14,14,1,,,,,,up,0.38361850898854755,2718.753579436443,None,001,2,2019_Jun_04_1204,ACPT_experiment_5_30_19,3.1.0,59.956708546341595,
,,,C,U,d,n,L,D,y,R,y,,,,,5,19,119,15,0,0,0,0,,,,,0,15,15,33,,,,,,down,0.5167854378696575,2720.4384848883665,None,001,2,2019_Jun_04_1204,ACPT_experiment_5_30_19,3.1.0,59.956708546341595,
,,,C,U,d,n,R,D,y,L,y,,,,,5,19,119,15,0,0,0,0,,,,,0,16,16,26,,,,,,down,0.7170760067283481,2722.2562967654067,None,001,2,2019_Jun_04_1204,ACPT_experiment_5_30_19,3.1.0,59.956708546341595,
,,,C,U,d,n,R,U,d,R,u,,,,,5,19,119,15,0,0,0,0,,,,,0,17,17,9,,,,,,up,0.4836884797559833,2724.2745063710227,None,001,2,2019_Jun_04_1204,ACPT_experiment_5_30_19,3.1.0,59.956708546341595,
,,,C,U,d,n,L,D,g,R,i,,,,,5,19,119,15,0,0,0,0,,,,,0,18,18,15,,,,,,up,0.400301616874458,2726.0425336541884,None,001,2,2019_Jun_04_1204,ACPT_experiment_5_30_19,3.1.0,59.956708546341595,
,,,C,U,d,n,L,U,y,L,u,,,,,5,19,119,15,0,0,0,0,,,,,0,19,19,24,,,,,,down,0.6002833846296198,2727.760677635797,None,001,2,2019_Jun_04_1204,ACPT_experiment_5_30_19,3.1.0,59.956708546341595,
,,,C,U,d,n,R,U,g,L,u,,,,,5,19,119,15,0,0,0,0,,,,,0,20,20,10,,,,,,up,0.6171316090376422,2729.6619865540215,None,001,2,2019_Jun_04_1204,ACPT_experiment_5_30_19,3.1.0,59.956708546341595,
,,,C,U,d,n,L,D,y,L,y,,,,,5,19,119,15,0,0,0,0,,,,,0,21,21,32,,,,,,down,0.5837433576070907,2731.5634856430124,None,001,2,2019_Jun_04_1204,ACPT_experiment_5_30_19,3.1.0,59.956708546341595,
,,,C,U,d,n,R,D,g,L,i,,,,,5,19,119,15,0,0,0,0,,,,,0,22,22,2,,,,,,up,0.5504245335987434,2733.4315545222607,None,001,2,2019_Jun_04_1204,ACPT_experiment_5_30_19,3.1.0,59.956708546341595,
,,,C,U,d,n,R,G,y,L,y,,,,,5,19,119,15,0,0,0,0,,,,,0,23,23,28,,,,,,down,0.6170959897517605,2735.2663359707703,None,001,2,2019_Jun_04_1204,ACPT_experiment_5_30_19,3.1.0,59.956708546341595,
,,,C,U,d,n,R,D,g,R,i,,,,,5,19,119,15,0,0,0,0,,,,,0,24,24,3,,,,,,up,0.4670186536395704,2737.167770763931,None,001,2,2019_Jun_04_1204,ACPT_experiment_5_30_19,3.1.0,59.956708546341595,
,,,C,U,d,n,L,G,y,L,y,,,,,5,19,119,15,0,0,0,0,,,,,0,25,25,34,,,,,,down,0.5670964727241881,2738.9191239949623,None,001,2,2019_Jun_04_1204,ACPT_experiment_5_30_19,3.1.0,59.956708546341595,
,,,C,U,d,n,L,G,d,L,i,,,,,5,19,119,15,0,0,0,0,,,,,0,26,26,16,,,,,,up,0.6638493219652446,2740.790557689359,None,001,2,2019_Jun_04_1204,ACPT_experiment_5_30_19,3.1.0,59.956708546341595,
,,,C,U,d,n,R,U,y,L,u,,,,,5,19,119,15,0,0,0,0,,,,,0,27,27,30,,,,,,down,0.5670931522827232,2742.7554126222676,None,001,2,2019_Jun_04_1204,ACPT_experiment_5_30_19,3.1.0,59.956708546341595,
,,,C,U,d,n,L,D,d,R,c ,,,,,5,19,119,15,0,0,0,0,,,,,0,28,28,13,,,,,,up,0.6338116983397413,2744.623522856112,None,001,2,2019_Jun_04_1204,ACPT_experiment_5_30_19,3.1.0,59.956708546341595,
,,,C,U,d,n,L,U,g,L,u,,,,,5,19,119,15,0,0,0,0,,,,,0,29,29,22,,,,,,up,0.46702227593959833,2746.5416582649423,None,001,2,2019_Jun_04_1204,ACPT_experiment_5_30_19,3.1.0,59.956708546341595,
,,,C,U,d,n,R,G,g,R,c ,,,,,5,19,119,15,0,0,0,0,,,,,0,30,30,7,,,,,,up,0.4670186536386609,2748.2930114959736,None,001,2,2019_Jun_04_1204,ACPT_experiment_5_30_19,3.1.0,59.956708546341595,
,,,C,U,d,n,R,U,d,L,u,,,,,5,19,119,15,0,0,0,0,,,,,0,31,31,8,,,,,,up,0.6171614930162832,2750.0443387671867,None,001,2,2019_Jun_04_1204,ACPT_experiment_5_30_19,3.1.0,59.956708546341595,
,,,C,U,d,n,R,U,y,R,u,,,,,5,19,119,15,0,0,0,0,,,,,0,32,32,31,,,,,,down,0.5170854850803153,2751.9458007276,None,001,2,2019_Jun_04_1204,ACPT_experiment_5_30_19,3.1.0,59.956708546341595,
,,,C,U,d,n,L,G,g,L,c ,,,,,5,19,119,15,0,0,0,0,,,,,0,33,33,18,,,,,,up,0.5168147181311724,2753.764140554912,None,001,2,2019_Jun_04_1204,ACPT_experiment_5_30_19,3.1.0,59.956708546341595,
,,,C,U,d,n,L,G,y,R,y,,,,,5,19,119,15,0,0,0,0,,,,,0,34,34,35,,,,,,down,0.5504200057239359,2755.5652865299935,None,001,2,2019_Jun_04_1204,ACPT_experiment_5_30_19,3.1.0,59.956708546341595,
,,,C,U,d,n,L,U,d,L,u,,,,,5,19,119,15,0,0,0,0,,,,,0,35,35,20,,,,,,up,0.4836981392245434,2757.4000344722253,None,001,2,2019_Jun_04_1204,ACPT_experiment_5_30_19,3.1.0,59.956708546341595,
,,,C,U,d,n,L,D,d,R,c ,,,,,5,19,119,15,0,0,0,0,,,,,1,0,36,13,,,,,,up,0.700531451830102,2759.1680602460992,None,001,2,2019_Jun_04_1204,ACPT_experiment_5_30_19,3.1.0,59.956708546341595,
,,,C,U,d,n,R,G,g,R,c ,,,,,5,19,119,15,0,0,0,0,,,,,1,1,37,7,,,,,,up,0.48369753550741734,2761.1529280864715,None,001,2,2019_Jun_04_1204,ACPT_experiment_5_30_19,3.1.0,59.956708546341595,
,,,C,U,d,n,L,G,g,L,c ,,,,,5,19,119,15,0,0,0,0,,,,,1,2,38,18,,,,,,up,0.5004373927649794,2762.9209538603463,None,001,2,2019_Jun_04_1204,ACPT_experiment_5_30_19,3.1.0,59.956708546341595,
,,,C,U,d,n,L,D,y,L,y,,,,,5,19,119,15,0,0,0,0,,,,,1,3,39,32,,,,,,down,0.5504486822674153,2764.7056379897203,None,001,2,2019_Jun_04_1204,ACPT_experiment_5_30_19,3.1.0,59.956708546341595,
,,,C,U,d,n,R,D,y,R,y,,,,,5,19,119,15,0,0,0,0,,,,,1,4,40,27,,,,,,down,0.4835103833238463,2766.590607616732,None,001,2,2019_Jun_04_1204,ACPT_experiment_5_30_19,3.1.0,59.956708546341595,
,,,C,U,d,n,R,D,g,L,i,,,,,5,19,119,15,0,0,0,0,,,,,1,5,41,2,,,,,,up,0.4837065912579419,2768.375155004268,None,001,2,2019_Jun_04_1204,ACPT_experiment_5_30_19,3.1.0,59.956708546341595,
,,,C,U,d,n,R,U,d,R,u,,,,,5,19,119,15,0,0,0,0,,,,,1,6,42,9,,,,,,up,0.5170577141116155,2770.1431889283185,None,001,2,2019_Jun_04_1204,ACPT_experiment_5_30_19,3.1.0,59.956708546341595,
,,,C,U,d,n,R,D,d,R,c ,,,,,5,19,119,15,0,0,0,0,,,,,1,7,43,1,,,,,,up,0.43366692707058974,2771.9445733715047,None,001,2,2019_Jun_04_1204,ACPT_experiment_5_30_19,3.1.0,59.956708546341595,
,,,C,U,d,n,R,G,d,R,i,,,,,5,19,119,15,0,0,0,0,,,,,1,8,44,5,,,,,,up,0.4333952545457578,2773.6628359834485,None,001,2,2019_Jun_04_1204,ACPT_experiment_5_30_19,3.1.0,59.956708546341595,
,,,C,U,d,n,R,U,g,R,u,,,,,5,19,119,15,0,0,0,0,,,,,1,9,45,11,,,,,,up,0.4670098997466994,2775.380565211669,None,001,2,2019_Jun_04_1204,ACPT_experiment_5_30_19,3.1.0,59.956708546341595,
,,,C,U,d,n,L,D,d,L,c ,,,,,5,19,119,15,0,0,0,0,,,,,1,10,46,12,,,,,,up,0.5670985857332198,2777.1319096888083,None,001,2,2019_Jun_04_1204,ACPT_experiment_5_30_19,3.1.0,59.956708546341595,
,,,C,U,d,n,L,U,g,R,u,,,,,5,19,119,15,0,0,0,0,,,,,1,11,47,23,,,,,,up,0.433720054141304,2778.983313269814,None,001,2,2019_Jun_04_1204,ACPT_experiment_5_30_19,3.1.0,59.956708546341595,
,,,C,U,d,n,L,U,d,R,u,,,,,5,19,119,15,0,0,0,0,,,,,1,12,48,21,,,,,,up,0.4333937452529426,2780.7015964081274,None,001,2,2019_Jun_04_1204,ACPT_experiment_5_30_19,3.1.0,59.956708546341595,
,,,C,U,d,n,L,D,g,L,i,,,,,5,19,119,15,0,0,0,0,,,,,1,13,49,14,,,,,,up,0.5671272622776087,2782.419290922636,None,001,2,2019_Jun_04_1204,ACPT_experiment_5_30_19,3.1.0,59.956708546341595,
,,,C,U,d,n,R,D,d,L,c,,,,,5,19,119,15,0,0,0,0,,,,,1,14,50,0,,,,,,up,0.40029708899874095,2784.270747026997,None,001,2,2019_Jun_04_1204,ACPT_experiment_5_30_19,3.1.0,59.956708546341595,
,,,C,U,d,n,R,G,g,L,c ,,,,,5,19,119,15,0,0,0,0,,,,,1,15,51,6,,,,,,up,0.35034043585983454,2785.9553497149855,None,001,2,2019_Jun_04_1204,ACPT_experiment_5_30_19,3.1.0,59.956708546341595,
,,,C,U,d,n,R,D,g,R,i,,,,,5,19,119,15,0,0,0,0,,,,,1,16,52,3,,,,,,up,0.4500662880955133,2787.6069218537004,None,001,2,2019_Jun_04_1204,ACPT_experiment_5_30_19,3.1.0,59.956708546341595,
,,,C,U,d,n,L,G,g,R,c ,,,,,5,19,119,15,0,0,0,0,,,,,1,17,53,19,,,,,,up,0.4003034280249267,2789.341320908038,None,001,2,2019_Jun_04_1204,ACPT_experiment_5_30_19,3.1.0,59.956708546341595,
,,,C,U,d,n,L,U,g,L,u,,,,,5,19,119,15,0,0,0,0,,,,,1,18,54,22,,,,,,up,0.3836242442976072,2791.0259531781458,None,001,2,2019_Jun_04_1204,ACPT_experiment_5_30_19,3.1.0,59.956708546341595,
,,,C,U,d,n,R,U,g,L,u,,,,,5,19,119,15,0,0,0,0,,,,,1,19,55,10,,,,,,up,0.41699679909379483,2792.6939065663855,None,001,2,2019_Jun_04_1204,ACPT_experiment_5_30_19,3.1.0,59.956708546341595,
,,,C,U,d,n,L,U,y,R,u,,,,,5,19,119,15,0,0,0,0,,,,,1,20,56,25,,,,,,down,0.5669793516799473,2794.428698338451,None,001,2,2019_Jun_04_1204,ACPT_experiment_5_30_19,3.1.0,59.956708546341595,
,,,C,U,d,n,L,D,g,R,i,,,,,5,19,119,15,0,0,0,0,,,,,1,21,57,15,,,,,,up,0.46701382390529034,2796.2966896401003,None,001,2,2019_Jun_04_1204,ACPT_experiment_5_30_19,3.1.0,59.956708546341595,
,,,C,U,d,n,L,D,y,R,y,,,,,5,19,119,15,0,0,0,0,,,,,1,22,58,33,,,,,,down,0.5170794479126926,2798.048009968571,None,001,2,2019_Jun_04_1204,ACPT_experiment_5_30_19,3.1.0,59.956708546341595,
,,,C,U,d,n,R,G,d,L,i,,,,,5,19,119,15,0,0,0,0,,,,,1,23,59,4,,,,,,up,0.4837277213437119,2799.8660702750412,None,001,2,2019_Jun_04_1204,ACPT_experiment_5_30_19,3.1.0,59.956708546341595,
,,,C,U,d,n,L,G,d,R,i,,,,,5,19,119,15,0,0,0,0,,,,,1,24,60,17,,,,,,up,0.5137408944428898,2801.6541258604475,None,001,2,2019_Jun_04_1204,ACPT_experiment_5_30_19,3.1.0,59.956708546341595,
,,,C,U,d,n,R,D,y,L,y,,,,,5,19,119,15,0,0,0,0,,,,,1,25,61,26,,,,,,down,0.500382152684324,2803.452194993257,None,001,2,2019_Jun_04_1204,ACPT_experiment_5_30_19,3.1.0,59.956708546341595,
,,,C,U,d,n,L,U,y,L,u,,,,,5,19,119,15,0,0,0,0,,,,,1,26,62,24,,,,,,down,0.5671263567028291,2805.236900856433,None,001,2,2019_Jun_04_1204,ACPT_experiment_5_30_19,3.1.0,59.956708546341595,
,,,C,U,d,n,L,G,y,R,y,,,,,5,19,119,15,0,0,0,0,,,,,1,27,63,35,,,,,,down,0.6004753665465614,2807.0883322084082,None,001,2,2019_Jun_04_1204,ACPT_experiment_5_30_19,3.1.0,59.956708546341595,
,,,C,U,d,n,L,G,y,L,y,,,,,5,19,119,15,0,0,0,0,,,,,1,28,64,34,,,,,,down,0.5670967745827511,2808.973119211111,None,001,2,2019_Jun_04_1204,ACPT_experiment_5_30_19,3.1.0,59.956708546341595,
,,,C,U,d,n,L,U,d,L,u,,,,,5,19,119,15,0,0,0,0,,,,,1,29,65,20,,,,,,up,0.5003933214447898,2810.8245318478685,None,001,2,2019_Jun_04_1204,ACPT_experiment_5_30_19,3.1.0,59.956708546341595,
,,,C,U,d,n,R,G,y,R,y,,,,,5,19,119,15,0,0,0,0,,,,,1,30,66,29,,,,,,down,0.43366270105252624,2812.6092552188293,None,001,2,2019_Jun_04_1204,ACPT_experiment_5_30_19,3.1.0,59.956708546341595,
,,,C,U,d,n,R,U,d,L,u,,,,,5,19,119,15,0,0,0,0,,,,,1,31,67,8,,,,,,up,0.45035999628089485,2814.327223217013,None,001,2,2019_Jun_04_1204,ACPT_experiment_5_30_19,3.1.0,59.956708546341595,
,,,C,U,d,n,R,G,y,L,y,,,,,5,19,119,15,0,0,0,0,,,,,1,32,68,28,,,,,,down,0.5333810068304956,2816.0956214841044,None,001,2,2019_Jun_04_1204,ACPT_experiment_5_30_19,3.1.0,59.956708546341595,
,,,C,U,d,n,R,U,y,L,u,,,,,5,19,119,15,0,0,0,0,,,,,1,33,69,30,,,,,,down,0.5170722033126367,2817.9133400869114,None,001,2,2019_Jun_04_1204,ACPT_experiment_5_30_19,3.1.0,59.956708546341595,
,,,C,U,d,n,L,G,d,L,i,,,,,5,19,119,15,0,0,0,0,,,,,1,34,70,16,,,,,,up,0.5003818508266704,2819.714732076556,None,001,2,2019_Jun_04_1204,ACPT_experiment_5_30_19,3.1.0,59.956708546341595,
,,,C,U,d,n,R,U,y,R,u,,,,,5,19,119,15,0,0,0,0,,,,,1,35,71,31,,,,,,down,0.5504181945734672,2821.516121953193,None,001,2,2019_Jun_04_1204,ACPT_experiment_5_30_19,3.1.0,59.956708546341595,
,,,C,U,d,n,,,,,,,,,,5,19,119,15,1,0,1,0,0,0,0,0,,,,,,,,,,,,,,001,2,2019_Jun_04_1204,ACPT_experiment_5_30_19,3.1.0,59.956708546341595,
,,,C,U,d,n,R,G,g,R,c ,,,,,5,19,119,15,1,0,1,0,,,,,0,0,0,7,,,,,,up,0.5168313203403159,2829.6226136587284,None,001,2,2019_Jun_04_1204,ACPT_experiment_5_30_19,3.1.0,59.956708546341595,
,,,C,U,d,n,L,U,d,R,u,,,,,5,19,119,15,1,0,1,0,,,,,0,1,1,21,,,,,,up,0.38369246428737824,2831.423732768416,None,001,2,2019_Jun_04_1204,ACPT_experiment_5_30_19,3.1.0,59.956708546341595,
,,,C,U,d,n,R,U,y,R,u,,,,,5,19,119,15,1,0,1,0,,,,,0,2,2,31,,,,,,down,0.4503331308869747,2833.1250707857853,None,001,2,2019_Jun_04_1204,ACPT_experiment_5_30_19,3.1.0,59.956708546341595,
,,,C,U,d,n,R,D,d,L,c,,,,,5,19,119,15,1,0,1,0,,,,,0,3,3,0,,,,,,up,0.633814113207336,2834.8930935410763,None,001,2,2019_Jun_04_1204,ACPT_experiment_5_30_19,3.1.0,59.956708546341595,
,,,C,U,d,n,L,G,y,R,y,,,,,5,19,119,15,1,0,1,0,,,,,0,4,4,35,,,,,,down,0.48332202370693267,2836.8281930879266,None,001,2,2019_Jun_04_1204,ACPT_experiment_5_30_19,3.1.0,59.956708546341595,
,,,C,U,d,n,L,D,d,R,c ,,,,,5,19,119,15,1,0,1,0,,,,,0,5,5,13,,,,,,up,0.5504172889977781,2838.5959502078595,None,001,2,2019_Jun_04_1204,ACPT_experiment_5_30_19,3.1.0,59.956708546341595,
,,,C,U,d,n,L,D,g,L,i,,,,,5,19,119,15,1,0,1,0,,,,,0,6,6,14,,,,,,up,0.7172411232513696,2840.4139945158377,None,001,2,2019_Jun_04_1204,ACPT_experiment_5_30_19,3.1.0,59.956708546341595,
,,,C,U,d,n,R,G,d,R,i,,,,,5,19,119,15,1,0,1,0,,,,,0,7,7,5,,,,,,up,0.41702426820484106,2842.4155596514383,None,001,2,2019_Jun_04_1204,ACPT_experiment_5_30_19,3.1.0,59.956708546341595,
,,,C,U,d,n,R,D,g,L,i,,,,,5,19,119,15,1,0,1,0,,,,,0,8,8,2,,,,,,up,0.5334546602707633,2844.1338328284246,None,001,2,2019_Jun_04_1204,ACPT_experiment_5_30_19,3.1.0,59.956708546341595,
,,,C,U,d,n,L,G,y,L,y,,,,,5,19,119,15,1,0,1,0,,,,,0,9,9,34,,,,,,down,0.5170411119015625,2845.9516419887395,None,001,2,2019_Jun_04_1204,ACPT_experiment_5_30_19,3.1.0,59.956708546341595,
,,,C,U,d,n,R,G,d,L,i,,,,,5,19,119,15,1,0,1,0,,,,,0,10,10,4,,,,,,up,0.48383457920317596,2847.7530086222823,None,001,2,2019_Jun_04_1204,ACPT_experiment_5_30_19,3.1.0,59.956708546341595,
,,,C,U,d,n,L,U,y,R,u,,,,,5,19,119,15,1,0,1,0,,,,,0,11,11,25,,,,,,down,0.46704189673346264,2849.5210165865137,None,001,2,2019_Jun_04_1204,ACPT_experiment_5_30_19,3.1.0,59.956708546341595,
,,,C,U,d,n,R,U,g,R,u,,,,,5,19,119,15,1,0,1,0,,,,,0,12,12,11,,,,,,up,0.5001089708675863,2851.2893399927316,None,001,2,2019_Jun_04_1204,ACPT_experiment_5_30_19,3.1.0,59.956708546341595,
,,,C,U,d,n,R,U,g,L,u,,,,,5,19,119,15,1,0,1,0,,,,,0,13,13,10,,,,,,up,0.3169274320425757,2853.057074171429,None,001,2,2019_Jun_04_1204,ACPT_experiment_5_30_19,3.1.0,59.956708546341595,
,,,C,U,d,n,L,U,d,L,u,,,,,5,19,119,15,1,0,1,0,,,,,0,14,14,20,,,,,,down,0.5003776248095164,2854.6583325585634,None,001,2,2019_Jun_04_1204,ACPT_experiment_5_30_19,3.1.0,59.956708546341595,
,,,C,U,d,n,R,G,y,R,y,,,,,5,19,119,15,1,0,1,0,,,,,0,15,15,29,,,,,,down,0.5671106600675557,2856.4430420440403,None,001,2,2019_Jun_04_1204,ACPT_experiment_5_30_19,3.1.0,59.956708546341595,
,,,C,U,d,n,L,D,y,R,y,,,,,5,19,119,15,1,0,1,0,,,,,0,16,16,33,,,,,,down,0.5334736773475015,2858.311417913241,None,001,2,2019_Jun_04_1204,ACPT_experiment_5_30_19,3.1.0,59.956708546341595,
,,,C,U,d,n,L,G,d,L,i,,,,,5,19,119,15,1,0,1,0,,,,,0,17,17,16,,,,,,up,0.4837038745336031,2860.12921530108,None,001,2,2019_Jun_04_1204,ACPT_experiment_5_30_19,3.1.0,59.956708546341595,
,,,C,U,d,n,L,U,g,R,u,,,,,5,19,119,15,1,0,1,0,,,,,0,18,18,23,,,,,,up,0.5003842656933557,2861.8972428861043,None,001,2,2019_Jun_04_1204,ACPT_experiment_5_30_19,3.1.0,59.956708546341595,
,,,C,U,d,n,L,U,g,L,u,,,,,5,19,119,15,1,0,1,0,,,,,0,19,19,22,,,,,,up,0.5171014835732421,2863.665123164248,None,001,2,2019_Jun_04_1204,ACPT_experiment_5_30_19,3.1.0,59.956708546341595,
,,,C,U,d,n,R,U,d,R,u,,,,,5,19,119,15,1,0,1,0,,,,,0,20,20,9,,,,,,up,0.6502430563523376,2865.4835939980903,None,001,2,2019_Jun_04_1204,ACPT_experiment_5_30_19,3.1.0,59.956708546341595,
,,,C,U,d,n,L,D,y,L,y,,,,,5,19,119,15,1,0,1,0,,,,,0,21,21,32,,,,,,down,0.4336642103444319,2867.418162576084,None,001,2,2019_Jun_04_1204,ACPT_experiment_5_30_19,3.1.0,59.956708546341595,
,,,C,U,d,n,R,U,d,L,u,,,,,5,19,119,15,1,0,1,0,,,,,0,22,22,8,,,,,,up,0.8840335642353239,2869.1361384225847,None,001,2,2019_Jun_04_1204,ACPT_experiment_5_30_19,3.1.0,59.956708546341595,
,,,C,U,d,n,R,G,g,L,c ,,,,,5,19,119,15,1,0,1,0,,,,,0,23,23,6,,,,,,up,0.36696890738130605,2871.304471548642,None,001,2,2019_Jun_04_1204,ACPT_experiment_5_30_19,3.1.0,59.956708546341595,
,,,C,U,d,n,L,G,d,R,i,,,,,5,19,119,15,1,0,1,0,,,,,0,24,24,17,,,,,,up,0.40030222059067455,2872.9557653739485,None,001,2,2019_Jun_04_1204,ACPT_experiment_5_30_19,3.1.0,59.956708546341595,
,,,C,U,d,n,L,U,y,L,u,,,,,5,19,119,15,1,0,1,0,,,,,0,25,25,24,,,,,,down,0.3836538264167757,2874.6403689675117,None,001,2,2019_Jun_04_1204,ACPT_experiment_5_30_19,3.1.0,59.956708546341595,
,,,C,U,d,n,R,D,y,R,y,,,,,5,19,119,15,1,0,1,0,,,,,0,26,26,27,,,,,,down,0.43366360662821535,2876.30835012672,None,001,2,2019_Jun_04_1204,ACPT_experiment_5_30_19,3.1.0,59.956708546341595,
,,,C,U,d,n,L,G,g,L,c ,,,,,5,19,119,15,1,0,1,0,,,,,0,27,27,18,,,,,,up,0.4500587416368944,2878.0433006762833,None,001,2,2019_Jun_04_1204,ACPT_experiment_5_30_19,3.1.0,59.956708546341595,
,,,C,U,d,n,L,G,g,R,c ,,,,,5,19,119,15,1,0,1,0,,,,,0,28,28,19,,,,,,up,0.4169904600685186,2879.7776933915957,None,001,2,2019_Jun_04_1204,ACPT_experiment_5_30_19,3.1.0,59.956708546341595,
,,,C,U,d,n,L,D,g,R,i,,,,,5,19,119,15,1,0,1,0,,,,,0,29,29,15,,,,,,up,0.3669444568540712,2881.4790042417135,None,001,2,2019_Jun_04_1204,ACPT_experiment_5_30_19,3.1.0,59.956708546341595,
,,,C,U,d,n,R,D,d,R,c ,,,,,5,19,119,15,1,0,1,0,,,,,0,30,30,1,,,,,,up,0.4169702355584377,2883.1302817666683,None,001,2,2019_Jun_04_1204,ACPT_experiment_5_30_19,3.1.0,59.956708546341595,
,,,C,U,d,n,R,D,y,L,y,,,,,5,19,119,15,1,0,1,0,,,,,0,31,31,26,,,,,,down,0.49712691212153004,2884.851595261065,None,001,2,2019_Jun_04_1204,ACPT_experiment_5_30_19,3.1.0,59.956708546341595,
,,,C,U,d,n,R,G,y,L,y,,,,,5,19,119,15,1,0,1,0,,,,,0,32,32,28,,,,,,down,0.5170930315398437,2886.6329480815693,None,001,2,2019_Jun_04_1204,ACPT_experiment_5_30_19,3.1.0,59.956708546341595,
,,,C,U,d,n,R,D,g,R,i,,,,,5,19,119,15,1,0,1,0,,,,,0,33,33,3,,,,,,up,0.5003770210923904,2888.4343681440423,None,001,2,2019_Jun_04_1204,ACPT_experiment_5_30_19,3.1.0,59.956708546341595,
,,,C,U,d,n,L,D,d,L,c ,,,,,5,19,119,15,1,0,1,0,,,,,0,34,34,12,,,,,,up,0.4336614936191836,2890.2190737053597,None,001,2,2019_Jun_04_1204,ACPT_experiment_5_30_19,3.1.0,59.956708546341595,
,,,C,U,d,n,R,U,y,L,u,,,,,5,19,119,15,1,0,1,0,,,,,0,35,35,30,,,,,,down,0.5167051435455505,2891.9540788912864,None,001,2,2019_Jun_04_1204,ACPT_experiment_5_30_19,3.1.0,59.956708546341595,
,,,C,U,d,n,R,U,y,R,u,,,,,5,19,119,15,1,0,1,0,,,,,1,0,36,31,,,,,,down,0.5672540427895001,2893.73830268666,None,001,2,2019_Jun_04_1204,ACPT_experiment_5_30_19,3.1.0,59.956708546341595,
,,,C,U,d,n,R,G,y,L,y,,,,,5,19,119,15,1,0,1,0,,,,,1,1,37,28,,,,,,down,0.6004536327454844,2895.6065641515424,None,001,2,2019_Jun_04_1204,ACPT_experiment_5_30_19,3.1.0,59.956708546341595,
,,,C,U,d,n,R,D,y,L,y,,,,,5,19,119,15,1,0,1,0,,,,,1,2,38,26,,,,,,down,0.5670991894494364,2897.5080363751404,None,001,2,2019_Jun_04_1204,ACPT_experiment_5_30_19,3.1.0,59.956708546341595,
,,,C,U,d,n,L,U,g,L,u,,,,,5,19,119,15,1,0,1,0,,,,,1,3,39,22,,,,,,up,0.6171243644366768,2899.359461689948,None,001,2,2019_Jun_04_1204,ACPT_experiment_5_30_19,3.1.0,59.956708546341595,
,,,C,U,d,n,L,G,g,R,c ,,,,,5,19,119,15,1,0,1,0,,,,,1,4,40,19,,,,,,up,0.46701804992335383,2901.260918216911,None,001,2,2019_Jun_04_1204,ACPT_experiment_5_30_19,3.1.0,59.956708546341595,
,,,C,U,d,n,R,D,y,R,y,,,,,5,19,119,15,1,0,1,0,,,,,1,5,41,27,,,,,,down,0.5671013024584681,2903.0122684293583,None,001,2,2019_Jun_04_1204,ACPT_experiment_5_30_19,3.1.0,59.956708546341595,
,,,C,U,d,n,L,U,g,R,u,,,,,5,19,119,15,1,0,1,0,,,,,1,6,42,23,,,,,,up,0.7672575443466485,2904.8636934423084,None,001,2,2019_Jun_04_1204,ACPT_experiment_5_30_19,3.1.0,59.956708546341595,
,,,C,U,d,n,R,G,d,R,i,,,,,5,19,119,15,1,0,1,0,,,,,1,7,43,5,,,,,,up,0.5003866805609505,2906.9152740934287,None,001,2,2019_Jun_04_1204,ACPT_experiment_5_30_19,3.1.0,59.956708546341595,
,,,C,U,d,n,L,G,y,R,y,,,,,5,19,119,15,1,0,1,0,,,,,1,8,44,35,,,,,,down,0.5170845795055357,2908.6999627506784,None,001,2,2019_Jun_04_1204,ACPT_experiment_5_30_19,3.1.0,59.956708546341595,
,,,C,U,d,n,R,G,g,R,c ,,,,,5,19,119,15,1,0,1,0,,,,,1,9,45,7,,,,,,up,0.5003896991438523,2910.5013725499666,None,001,2,2019_Jun_04_1204,ACPT_experiment_5_30_19,3.1.0,59.956708546341595,
,,,C,U,d,n,R,D,g,R,i,,,,,5,19,119,15,1,0,1,0,,,,,1,10,46,3,,,,,,up,0.4503449033627476,2912.2693998331324,None,001,2,2019_Jun_04_1204,ACPT_experiment_5_30_19,3.1.0,59.956708546341595,
,,,C,U,d,n,R,G,g,L,c ,,,,,5,19,119,15,1,0,1,0,,,,,1,11,47,6,,,,,,up,0.5170667698621401,2914.0040708618544,None,001,2,2019_Jun_04_1204,ACPT_experiment_5_30_19,3.1.0,59.956708546341595,
,,,C,U,d,n,R,U,y,L,u,,,,,5,19,119,15,1,0,1,0,,,,,1,12,48,30,,,,,,down,0.4836939132073894,2915.8054664737992,None,001,2,2019_Jun_04_1204,ACPT_experiment_5_30_19,3.1.0,59.956708546341595,
,,,C,U,d,n,L,U,d,R,u,,,,,5,19,119,15,1,0,1,0,,,,,1,13,49,21,,,,,,up,0.5001343269705103,2917.5904183515395,None,001,2,2019_Jun_04_1204,ACPT_experiment_5_30_19,3.1.0,59.956708546341595,
,,,C,U,d,n,R,U,g,L,u,,,,,5,19,119,15,1,0,1,0,,,,,1,14,50,10,,,,,,up,0.5504124592644075,2919.3748830298855,None,001,2,2019_Jun_04_1204,ACPT_experiment_5_30_19,3.1.0,59.956708546341595,
,,,C,U,d,n,R,U,d,R,u,,,,,5,19,119,15,1,0,1,0,,,,,1,15,51,9,,,,,,up,0.4336672289282433,2921.209625538666,None,001,2,2019_Jun_04_1204,ACPT_experiment_5_30_19,3.1.0,59.956708546341595,
,,,C,U,d,n,L,D,y,L,y,,,,,5,19,119,15,1,0,1,0,,,,,1,16,52,32,,,,,,down,0.5170586196863951,2922.944299284113,None,001,2,2019_Jun_04_1204,ACPT_experiment_5_30_19,3.1.0,59.956708546341595,
,,,C,U,d,n,L,D,g,L,i,,,,,5,19,119,15,1,0,1,0,,,,,1,17,53,14,,,,,,up,0.46358109062657604,2924.782489920949,None,001,2,2019_Jun_04_1204,ACPT_experiment_5_30_19,3.1.0,59.956708546341595,
,,,C,U,d,n,L,D,d,L,c ,,,,,5,19,119,15,1,0,1,0,,,,,1,18,54,12,,,,,,up,0.4003085596159508,2926.530400155518,None,001,2,2019_Jun_04_1204,ACPT_experiment_5_30_19,3.1.0,59.956708546341595,
,,,C,U,d,n,L,G,d,L,i,,,,,5,19,119,15,1,0,1,0,,,,,1,19,55,16,,,,,,up,0.6837505418361616,2928.2150242754497,None,001,2,2019_Jun_04_1204,ACPT_experiment_5_30_19,3.1.0,59.956708546341595,
,,,C,U,d,n,R,U,d,L,u,,,,,5,19,119,15,1,0,1,0,,,,,1,20,56,8,,,,,,up,0.4336699456534916,2930.1832093097946,None,001,2,2019_Jun_04_1204,ACPT_experiment_5_30_19,3.1.0,59.956708546341595,
,,,C,U,d,n,R,D,g,L,i,,,,,5,19,119,15,1,0,1,0,,,,,1,21,57,2,,,,,,up,0.5167920787534968,2931.9181535203325,None,001,2,2019_Jun_04_1204,ACPT_experiment_5_30_19,3.1.0,59.956708546341595,
,,,C,U,d,n,L,G,d,R,i,,,,,5,19,119,15,1,0,1,0,,,,,1,22,58,17,,,,,,up,0.5003854731266983,2933.719266290994,None,001,2,2019_Jun_04_1204,ACPT_experiment_5_30_19,3.1.0,59.956708546341595,
,,,C,U,d,n,L,D,d,R,c ,,,,,5,19,119,15,1,0,1,0,,,,,1,23,59,13,,,,,,up,0.4336596824687149,2935.4873017243362,None,001,2,2019_Jun_04_1204,ACPT_experiment_5_30_19,3.1.0,59.956708546341595,
,,,C,U,d,n,L,G,y,L,y,,,,,5,19,119,15,1,0,1,0,,,,,1,24,60,34,,,,,,down,0.5837816936182207,2937.205289343313,None,001,2,2019_Jun_04_1204,ACPT_experiment_5_30_19,3.1.0,59.956708546341595,
,,,C,U,d,n,R,G,d,L,i,,,,,5,19,119,15,1,0,1,0,,,,,1,25,61,4,,,,,,up,0.55016614284159,2939.0903293033234,None,001,2,2019_Jun_04_1204,ACPT_experiment_5_30_19,3.1.0,59.956708546341595,
,,,C,U,d,n,R,U,g,R,u,,,,,5,19,119,15,1,0,1,0,,,,,1,26,62,11,,,,,,up,0.5337453498723335,2940.924822477098,None,001,2,2019_Jun_04_1204,ACPT_experiment_5_30_19,3.1.0,59.956708546341595,
,,,C,U,d,n,R,G,y,R,y,,,,,5,19,119,15,1,0,1,0,,,,,1,27,63,29,,,,,,down,0.6171343257628905,2942.7595722304795,None,001,2,2019_Jun_04_1204,ACPT_experiment_5_30_19,3.1.0,59.956708546341595,
,,,C,U,d,n,L,D,y,R,y,,,,,5,19,119,15,1,0,1,0,,,,,1,28,64,33,,,,,,down,0.6338071704640242,2944.6610399262017,None,001,2,2019_Jun_04_1204,ACPT_experiment_5_30_19,3.1.0,59.956708546341595,
,,,C,U,d,n,L,U,y,L,u,,,,,5,19,119,15,1,0,1,0,,,,,1,29,65,24,,,,,,down,0.6171388536386075,2946.5791810703413,None,001,2,2019_Jun_04_1204,ACPT_experiment_5_30_19,3.1.0,59.956708546341595,
,,,C,U,d,n,R,D,d,R,c ,,,,,5,19,119,15,1,0,1,0,,,,,1,30,66,1,,,,,,up,0.6171406647890763,2948.4806493697806,None,001,2,2019_Jun_04_1204,ACPT_experiment_5_30_19,3.1.0,59.956708546341595,
,,,C,U,d,n,L,U,y,R,u,,,,,5,19,119,15,1,0,1,0,,,,,1,31,67,25,,,,,,down,0.5837569412333323,2950.3988056068383,None,001,2,2019_Jun_04_1204,ACPT_experiment_5_30_19,3.1.0,59.956708546341595,
,,,C,U,d,n,L,D,g,R,i,,,,,5,19,119,15,1,0,1,0,,,,,1,32,68,15,,,,,,up,0.65047639286513,2952.3002733025596,None,001,2,2019_Jun_04_1204,ACPT_experiment_5_30_19,3.1.0,59.956708546341595,
,,,C,U,d,n,L,U,d,L,u,,,,,5,19,119,15,1,0,1,0,,,,,1,33,69,20,,,,,,up,0.5837675062757626,2954.235093932285,None,001,2,2019_Jun_04_1204,ACPT_experiment_5_30_19,3.1.0,59.956708546341595,
,,,C,U,d,n,L,G,g,L,c ,,,,,5,19,119,15,1,0,1,0,,,,,1,34,70,18,,,,,,up,0.5170821646379409,2956.103187865777,None,001,2,2019_Jun_04_1204,ACPT_experiment_5_30_19,3.1.0,59.956708546341595,
,,,C,U,d,n,R,D,d,L,c,,,,,5,19,119,15,1,0,1,0,,,,,1,35,71,0,,,,,,up,0.6004463881436095,2957.9045840814388,None,001,2,2019_Jun_04_1204,ACPT_experiment_5_30_19,3.1.0,59.956708546341595,
,,,C,U,d,n,,,,,,,,,,5,19,119,15,2,0,2,0,0,0,0,0,,,,,,,,,,,,,,001,2,2019_Jun_04_1204,ACPT_experiment_5_30_19,3.1.0,59.956708546341595,
,,,C,U,d,n,L,G,d,R,i,,,,,5,19,119,15,2,0,2,0,,,,,0,0,0,17,,,,,,up,0.6171313071799887,2962.941793859718,None,001,2,2019_Jun_04_1204,ACPT_experiment_5_30_19,3.1.0,59.956708546341595,
,,,C,U,d,n,R,D,g,R,i,,,,,5,19,119,15,2,0,2,0,,,,,0,1,1,3,,,,,,up,0.5304086075511805,2964.863270840603,None,001,2,2019_Jun_04_1204,ACPT_experiment_5_30_19,3.1.0,59.956708546341595,
,,,C,U,d,n,L,G,d,L,i,,,,,5,19,119,15,2,0,2,0,,,,,0,2,2,16,,,,,,up,0.6505041638338298,2966.6780028567873,None,001,2,2019_Jun_04_1204,ACPT_experiment_5_30_19,3.1.0,59.956708546341595,
,,,C,U,d,n,R,G,g,R,c ,,,,,5,19,119,15,2,0,2,0,,,,,0,3,3,7,,,,,,up,0.5004081125034645,2968.612805978728,None,001,2,2019_Jun_04_1204,ACPT_experiment_5_30_19,3.1.0,59.956708546341595,
,,,C,U,d,n,R,D,y,L,y,,,,,5,19,119,15,2,0,2,0,,,,,0,4,4,26,,,,,,down,0.6171361369133592,2970.397537801723,None,001,2,2019_Jun_04_1204,ACPT_experiment_5_30_19,3.1.0,59.956708546341595,
,,,C,U,d,n,R,G,y,L,y,,,,,5,19,119,15,2,0,2,0,,,,,0,5,5,28,,,,,,down,0.6171376462052649,2972.2990039881524,None,001,2,2019_Jun_04_1204,ACPT_experiment_5_30_19,3.1.0,59.956708546341595,
,,,C,U,d,n,L,D,g,R,i,,,,,5,19,119,15,2,0,2,0,,,,,0,6,6,15,,,,,,up,0.6171415703638559,2974.2004707783,None,001,2,2019_Jun_04_1204,ACPT_experiment_5_30_19,3.1.0,59.956708546341595,
,,,C,U,d,n,L,G,g,L,c ,,,,,5,19,119,15,2,0,2,0,,,,,0,7,7,18,,,,,,up,0.5837693174253218,2976.101939983313,None,001,2,2019_Jun_04_1204,ACPT_experiment_5_30_19,3.1.0,59.956708546341595,
,,,C,U,d,n,R,U,d,R,u,,,,,5,19,119,15,2,0,2,0,,,,,0,8,8,9,,,,,,up,0.8003508801584758,2977.9869871879237,None,001,2,2019_Jun_04_1204,ACPT_experiment_5_30_19,3.1.0,59.956708546341595,
,,,C,U,d,n,R,U,g,L,u,,,,,5,19,119,15,2,0,2,0,,,,,0,9,9,10,,,,,,up,0.517079447913602,2980.0549650870616,None,001,2,2019_Jun_04_1204,ACPT_experiment_5_30_19,3.1.0,59.956708546341595,
,,,C,U,d,n,R,G,g,L,c ,,,,,5,19,119,15,2,0,2,0,,,,,0,10,10,6,,,,,,up,0.43366541777777456,2981.8563730752003,None,001,2,2019_Jun_04_1204,ACPT_experiment_5_30_19,3.1.0,59.956708546341595,
,,,C,U,d,n,L,U,g,L,u,,,,,5,19,119,15,2,0,2,0,,,,,0,11,11,22,,,,,,up,0.4336630029110893,2983.5576827178847,None,001,2,2019_Jun_04_1204,ACPT_experiment_5_30_19,3.1.0,59.956708546341595,
,,,C,U,d,n,R,D,d,R,c ,,,,,5,19,119,15,2,0,2,0,,,,,0,12,12,1,,,,,,up,0.48342888156639674,2985.2926269284226,None,001,2,2019_Jun_04_1204,ACPT_experiment_5_30_19,3.1.0,59.956708546341595,
,,,C,U,d,n,L,U,y,L,u,,,,,5,19,119,15,2,0,2,0,,,,,0,13,13,24,,,,,,down,0.7005507707654033,2987.077044215005,None,001,2,2019_Jun_04_1204,ACPT_experiment_5_30_19,3.1.0,59.956708546341595,
,,,C,U,d,n,L,D,y,L,y,,,,,5,19,119,15,2,0,2,0,,,,,0,14,14,32,,,,,,down,0.9173665755861293,2989.0619271482956,None,001,2,2019_Jun_04_1204,ACPT_experiment_5_30_19,3.1.0,59.956708546341595,
,,,C,U,d,n,L,D,g,L,i,,,,,5,19,119,15,2,0,2,0,,,,,0,15,15,14,,,,,,down,0.8673417024565424,2991.280287864207,None,001,2,2019_Jun_04_1204,ACPT_experiment_5_30_19,3.1.0,59.956708546341595,
,,,C,U,d,n,R,U,y,L,u,,,,,5,19,119,15,2,0,2,0,,,,,0,16,16,30,,,,,,down,0.6338461101922803,2993.4319318452117,None,001,2,2019_Jun_04_1204,ACPT_experiment_5_30_19,3.1.0,59.956708546341595,
,,,C,U,d,n,R,D,y,R,y,,,,,5,19,119,15,2,0,2,0,,,,,0,17,17,27,,,,,,down,0.6838269120007681,2995.3668086205917,None,001,2,2019_Jun_04_1204,ACPT_experiment_5_30_19,3.1.0,59.956708546341595,
,,,C,U,d,n,R,U,d,L,u,,,,,5,19,119,15,2,0,2,0,,,,,0,18,18,8,,,,,,up,0.4003034280240172,2997.3516492937115,None,001,2,2019_Jun_04_1204,ACPT_experiment_5_30_19,3.1.0,59.956708546341595,
,,,C,U,d,n,L,U,y,R,u,,,,,5,19,119,15,2,0,2,0,,,,,0,19,19,25,,,,,,down,0.5337528963309524,2999.036267074618,None,001,2,2019_Jun_04_1204,ACPT_experiment_5_30_19,3.1.0,59.956708546341595,
,,,C,U,d,n,L,U,d,R,u,,,,,5,19,119,15,2,0,2,0,,,,,0,20,20,21,,,,,,up,0.5170882018055636,3000.837643669487,None,001,2,2019_Jun_04_1204,ACPT_experiment_5_30_19,3.1.0,59.956708546341595,
,,,C,U,d,n,R,D,g,L,i,,,,,5,19,119,15,2,0,2,0,,,,,0,21,21,2,,,,,,up,0.5837810899020042,3002.6390540724924,None,001,2,2019_Jun_04_1204,ACPT_experiment_5_30_19,3.1.0,59.956708546341595,
,,,C,U,d,n,L,U,g,R,u,,,,,5,19,119,15,2,0,2,0,,,,,0,22,22,23,,,,,,up,0.8170158765424276,3004.524113653295,None,001,2,2019_Jun_04_1204,ACPT_experiment_5_30_19,3.1.0,59.956708546341595,
,,,C,U,d,n,R,G,d,R,i,,,,,5,19,119,15,2,0,2,0,,,,,0,23,23,5,,,,,,up,0.5671000950251255,3006.625461994221,None,001,2,2019_Jun_04_1204,ACPT_experiment_5_30_19,3.1.0,59.956708546341595,
,,,C,U,d,n,L,D,d,L,c ,,,,,5,19,119,15,2,0,2,0,,,,,0,24,24,12,,,,,,up,0.5337341811127772,3008.4768918369045,None,001,2,2019_Jun_04_1204,ACPT_experiment_5_30_19,3.1.0,59.956708546341595,
,,,C,U,d,n,R,U,y,R,u,,,,,5,19,119,15,2,0,2,0,,,,,0,25,25,31,,,,,,down,0.717215163432229,3010.294961199126,None,001,2,2019_Jun_04_1204,ACPT_experiment_5_30_19,3.1.0,59.956708546341595,
,,,C,U,d,n,L,G,y,R,y,,,,,5,19,119,15,2,0,2,0,,,,,0,26,26,35,,,,,,down,0.5838064460049281,3012.296472000222,None,001,2,2019_Jun_04_1204,ACPT_experiment_5_30_19,3.1.0,59.956708546341595,
,,,C,U,d,n,R,U,g,R,u,,,,,5,19,119,15,2,0,2,0,,,,,0,27,27,11,,,,,,up,0.533737199695679,3014.1646078920267,None,001,2,2019_Jun_04_1204,ACPT_experiment_5_30_19,3.1.0,59.956708546341595,
,,,C,U,d,n,L,U,d,L,u,,,,,5,19,119,15,2,0,2,0,,,,,0,28,28,20,,,,,,up,0.4169657076827207,3015.982689932299,None,001,2,2019_Jun_04_1204,ACPT_experiment_5_30_19,3.1.0,59.956708546341595,
,,,C,U,d,n,L,D,y,R,y,,,,,5,19,119,15,2,0,2,0,,,,,0,29,29,33,,,,,,down,0.6335786636846024,3017.700903039472,None,001,2,2019_Jun_04_1204,ACPT_experiment_5_30_19,3.1.0,59.956708546341595,
,,,C,U,d,n,L,D,d,R,c ,,,,,5,19,119,15,2,0,2,0,,,,,0,30,30,13,,,,,,up,0.8673305336978956,3019.6188087340906,None,001,2,2019_Jun_04_1204,ACPT_experiment_5_30_19,3.1.0,59.956708546341595,
,,,C,U,d,n,R,D,d,L,c,,,,,5,19,119,15,2,0,2,0,,,,,0,31,31,0,,,,,,up,0.5336282288280927,3021.770553535788,None,001,2,2019_Jun_04_1204,ACPT_experiment_5_30_19,3.1.0,59.956708546341595,
,,,C,U,d,n,L,G,g,R,c ,,,,,5,19,119,15,2,0,2,0,,,,,0,32,32,19,,,,,,up,0.5337432368633017,3023.60522027812,None,001,2,2019_Jun_04_1204,ACPT_experiment_5_30_19,3.1.0,59.956708546341595,
,,,C,U,d,n,R,G,d,L,i,,,,,5,19,119,15,2,0,2,0,,,,,0,33,33,4,,,,,,up,0.4837041763921661,3025.423286018042,None,001,2,2019_Jun_04_1204,ACPT_experiment_5_30_19,3.1.0,59.956708546341595,
,,,C,U,d,n,L,G,y,L,y,,,,,5,19,119,15,2,0,2,0,,,,,0,34,34,34,,,,,,down,0.5670901336998213,3027.1913142067824,None,001,2,2019_Jun_04_1204,ACPT_experiment_5_30_19,3.1.0,59.956708546341595,
,,,C,U,d,n,R,G,y,R,y,,,,,5,19,119,15,2,0,2,0,,,,,0,35,35,29,,,,,,down,0.550429363332114,3029.0427274472568,None,001,2,2019_Jun_04_1204,ACPT_experiment_5_30_19,3.1.0,59.956708546341595,
,,,C,U,d,n,L,U,g,R,u,,,,,5,19,119,15,2,0,2,0,,,,,1,0,36,23,,,,,,up,0.6502442637856802,3030.894418095563,None,001,2,2019_Jun_04_1204,ACPT_experiment_5_30_19,3.1.0,59.956708546341595,
,,,C,U,d,n,L,D,g,L,i,,,,,5,19,119,15,2,0,2,0,,,,,1,1,37,14,,,,,,up,0.48370689311741444,3032.828991503291,None,001,2,2019_Jun_04_1204,ACPT_experiment_5_30_19,3.1.0,59.956708546341595,
,,,C,U,d,n,R,G,d,R,i,,,,,5,19,119,15,2,0,2,0,,,,,1,2,38,5,,,,,,up,0.4503630148647062,3034.5970024861053,None,001,2,2019_Jun_04_1204,ACPT_experiment_5_30_19,3.1.0,59.956708546341595,
,,,C,U,d,n,R,U,d,R,u,,,,,5,19,119,15,2,0,2,0,,,,,1,3,39,9,,,,,,up,0.3669667943731838,3036.331662949784,None,001,2,2019_Jun_04_1204,ACPT_experiment_5_30_19,3.1.0,59.956708546341595,
,,,C,U,d,n,R,G,y,L,y,,,,,5,19,119,15,2,0,2,0,,,,,1,4,40,28,,,,,,down,0.5668492507275005,3037.9998925384234,None,001,2,2019_Jun_04_1204,ACPT_experiment_5_30_19,3.1.0,59.956708546341595,
,,,C,U,d,n,L,G,y,R,y,,,,,5,19,119,15,2,0,2,0,,,,,1,5,41,35,,,,,,down,0.683864644296591,3039.8510700275174,None,001,2,2019_Jun_04_1204,ACPT_experiment_5_30_19,3.1.0,59.956708546341595,
,,,C,U,d,n,L,G,g,L,c ,,,,,5,19,119,15,2,0,2,0,,,,,1,6,42,18,,,,,,up,0.5170885036641266,3041.8025523331844,None,001,2,2019_Jun_04_1204,ACPT_experiment_5_30_19,3.1.0,59.956708546341595,
,,,C,U,d,n,R,D,d,R,c ,,,,,5,19,119,15,2,0,2,0,,,,,1,7,43,1,,,,,,up,0.6170338069287027,3043.603960321322,None,001,2,2019_Jun_04_1204,ACPT_experiment_5_30_19,3.1.0,59.956708546341595,
,,,C,U,d,n,L,D,d,R,c ,,,,,5,19,119,15,2,0,2,0,,,,,1,8,44,13,,,,,,up,0.41702004218768707,3045.5054068869586,None,001,2,2019_Jun_04_1204,ACPT_experiment_5_30_19,3.1.0,59.956708546341595,
,,,C,U,d,n,R,U,g,L,u,,,,,5,19,119,15,2,0,2,0,,,,,1,9,45,10,,,,,,up,0.5337314643875288,3047.2067458099045,None,001,2,2019_Jun_04_1204,ACPT_experiment_5_30_19,3.1.0,59.956708546341595,
,,,C,U,d,n,R,D,g,L,i,,,,,5,19,119,15,2,0,2,0,,,,,1,10,46,2,,,,,,up,0.5337426331461756,3049.0248064182333,None,001,2,2019_Jun_04_1204,ACPT_experiment_5_30_19,3.1.0,59.956708546341595,
,,,C,U,d,n,L,D,y,R,y,,,,,5,19,119,15,2,0,2,0,,,,,1,11,47,33,,,,,,down,0.5168470169755892,3050.859787093261,None,001,2,2019_Jun_04_1204,ACPT_experiment_5_30_19,3.1.0,59.956708546341595,
,,,C,U,d,n,R,G,g,L,c ,,,,,5,19,119,15,2,0,2,0,,,,,1,12,48,6,,,,,,up,0.5504194020068098,3052.6609436333847,None,001,2,2019_Jun_04_1204,ACPT_experiment_5_30_19,3.1.0,59.956708546341595,
,,,C,U,d,n,L,G,d,R,i,,,,,5,19,119,15,2,0,2,0,,,,,1,13,49,17,,,,,,up,0.5671200176766433,3054.4956915756165,None,001,2,2019_Jun_04_1204,ACPT_experiment_5_30_19,3.1.0,59.956708546341595,
,,,C,U,d,n,L,U,d,R,u,,,,,5,19,119,15,2,0,2,0,,,,,1,14,50,21,,,,,,up,0.4503630148647062,3056.347093345472,None,001,2,2019_Jun_04_1204,ACPT_experiment_5_30_19,3.1.0,59.956708546341595,
,,,C,U,d,n,R,U,y,R,u,,,,,5,19,119,15,2,0,2,0,,,,,1,15,51,31,,,,,,down,0.6167805477643924,3058.1155021776067,None,001,2,2019_Jun_04_1204,ACPT_experiment_5_30_19,3.1.0,59.956708546341595,
,,,C,U,d,n,R,D,g,R,i,,,,,5,19,119,15,2,0,2,0,,,,,1,16,52,3,,,,,,up,0.8506628205886955,3060.016610058162,None,001,2,2019_Jun_04_1204,ACPT_experiment_5_30_19,3.1.0,59.956708546341595,
,,,C,U,d,n,R,U,g,R,u,,,,,5,19,119,15,2,0,2,0,,,,,1,17,53,11,,,,,,up,0.6838806427886084,3062.1515667052645,None,001,2,2019_Jun_04_1204,ACPT_experiment_5_30_19,3.1.0,59.956708546341595,
,,,C,U,d,n,R,U,d,L,u,,,,,5,19,119,15,2,0,2,0,,,,,1,18,54,8,,,,,,up,0.7005667692583302,3064.103073461458,None,001,2,2019_Jun_04_1204,ACPT_experiment_5_30_19,3.1.0,59.956708546341595,
,,,C,U,d,n,L,G,d,L,i,,,,,5,19,119,15,2,0,2,0,,,,,1,19,55,16,,,,,,up,0.7839249555963761,3066.087963941208,None,001,2,2019_Jun_04_1204,ACPT_experiment_5_30_19,3.1.0,59.956708546341595,
,,,C,U,d,n,L,U,d,L,u,,,,,5,19,119,15,2,0,2,0,,,,,1,20,56,20,,,,,,up,0.43366602149490063,3068.1562228704797,None,001,2,2019_Jun_04_1204,ACPT_experiment_5_30_19,3.1.0,59.956708546341595,
,,,C,U,d,n,R,G,d,L,i,,,,,5,19,119,15,2,0,2,0,,,,,1,21,57,4,,,,,,up,0.4837192693094039,3069.8742101875987,None,001,2,2019_Jun_04_1204,ACPT_experiment_5_30_19,3.1.0,59.956708546341595,
,,,C,U,d,n,L,U,y,R,u,,,,,5,19,119,15,2,0,2,0,,,,,1,22,58,25,,,,,,down,0.5334754884979702,3071.6591919493167,None,001,2,2019_Jun_04_1204,ACPT_experiment_5_30_19,3.1.0,59.956708546341595,
,,,C,U,d,n,R,G,g,R,c ,,,,,5,19,119,15,2,0,2,0,,,,,1,23,59,7,,,,,,up,0.7672502997447737,3073.476990846447,None,001,2,2019_Jun_04_1204,ACPT_experiment_5_30_19,3.1.0,59.956708546341595,
,,,C,U,d,n,R,D,y,L,y,,,,,5,19,119,15,2,0,2,0,,,,,1,24,60,26,,,,,,down,0.7172215024575053,3075.5285681771256,None,001,2,2019_Jun_04_1204,ACPT_experiment_5_30_19,3.1.0,59.956708546341595,
,,,C,U,d,n,L,D,d,L,c ,,,,,5,19,119,15,2,0,2,0,,,,,1,25,61,12,,,,,,up,0.8506486332453278,3077.530113390075,None,001,2,2019_Jun_04_1204,ACPT_experiment_5_30_19,3.1.0,59.956708546341595,
,,,C,U,d,n,L,D,y,L,y,,,,,5,19,119,15,2,0,2,0,,,,,1,26,62,32,,,,,,down,0.7172396139594639,3079.6650673204513,None,001,2,2019_Jun_04_1204,ACPT_experiment_5_30_19,3.1.0,59.956708546341595,
,,,C,U,d,n,R,D,y,R,y,,,,,5,19,119,15,2,0,2,0,,,,,1,27,63,27,,,,,,down,1.4011051638308345,3081.6666046850833,None,001,2,2019_Jun_04_1204,ACPT_experiment_5_30_19,3.1.0,59.956708546341595,
,,,C,U,d,n,R,D,d,L,c,,,,,5,19,119,15,2,0,2,0,,,,,1,28,64,0,,,,,,up,0.5003818508266704,3084.3520353705553,None,001,2,2019_Jun_04_1204,ACPT_experiment_5_30_19,3.1.0,59.956708546341595,
,,,C,U,d,n,L,G,g,R,c ,,,,,5,19,119,15,2,0,2,0,,,,,1,29,65,19,,,,,,up,0.6671694620763446,3086.1367533080656,None,001,2,2019_Jun_04_1204,ACPT_experiment_5_30_19,3.1.0,59.956708546341595,
,,,C,U,d,n,R,G,y,R,y,,,,,5,19,119,15,2,0,2,0,,,,,1,30,66,29,,,,,,down,0.934047268604445,3088.1049326071025,None,001,2,2019_Jun_04_1204,ACPT_experiment_5_30_19,3.1.0,59.956708546341595,
,,,C,U,d,n,L,U,y,L,u,,,,,5,19,119,15,2,0,2,0,,,,,1,31,67,24,,,,,,down,0.833992088895684,3090.339960130548,None,001,2,2019_Jun_04_1204,ACPT_experiment_5_30_19,3.1.0,59.956708546341595,
,,,C,U,d,n,L,U,g,L,u,,,,,5,19,119,15,2,0,2,0,,,,,1,32,68,22,,,,,,up,0.7005383945725043,3092.458283476394,None,001,2,2019_Jun_04_1204,ACPT_experiment_5_30_19,3.1.0,59.956708546341595,
,,,C,U,d,n,R,U,y,L,u,,,,,5,19,119,15,2,0,2,0,,,,,1,33,69,30,,,,,,down,0.9173831777952728,3094.4431528260584,None,001,2,2019_Jun_04_1204,ACPT_experiment_5_30_19,3.1.0,59.956708546341595,
,,,C,U,d,n,L,G,y,L,y,,,,,5,19,119,15,2,0,2,0,,,,,1,34,70,34,,,,,,down,0.6004943836232997,3096.6448340563848,None,001,2,2019_Jun_04_1204,ACPT_experiment_5_30_19,3.1.0,59.956708546341595,
,,,C,U,d,n,L,D,g,R,i,,,,,5,19,119,15,2,0,2,0,,,,,1,35,71,15,,,,,,up,0.5837819954767838,3098.5296261906806,None,001,2,2019_Jun_04_1204,ACPT_experiment_5_30_19,3.1.0,59.956708546341595,
,,,C,U,d,n,,,,,,,,,,5,19,119,15,3,0,3,0,0,0,0,0,,,,,,,,,,,,,,001,2,2019_Jun_04_1204,ACPT_experiment_5_30_19,3.1.0,59.956708546341595,
,,,C,U,d,n,L,D,y,L,y,,,,,5,19,119,15,3,0,3,0,,,,,0,0,0,32,,,,,,down,0.6138120726445777,3106.9060752617415,None,001,2,2019_Jun_04_1204,ACPT_experiment_5_30_19,3.1.0,59.956708546341595,
,,,C,U,d,n,L,D,d,L,c ,,,,,5,19,119,15,3,0,3,0,,,,,0,1,1,12,,,,,,up,0.5170821646379409,3108.8041911222253,None,001,2,2019_Jun_04_1204,ACPT_experiment_5_30_19,3.1.0,59.956708546341595,
,,,C,U,d,n,L,D,g,L,i,,,,,5,19,119,15,3,0,3,0,,,,,0,2,2,14,,,,,,up,0.4837020633831344,3110.6056051475307,None,001,2,2019_Jun_04_1204,ACPT_experiment_5_30_19,3.1.0,59.956708546341595,
,,,C,U,d,n,L,U,g,R,u,,,,,5,19,119,15,3,0,3,0,,,,,0,3,3,23,,,,,,up,0.5504203075815894,3112.373634241847,None,001,2,2019_Jun_04_1204,ACPT_experiment_5_30_19,3.1.0,59.956708546341595,
,,,C,U,d,n,R,U,g,L,u,,,,,5,19,119,15,3,0,3,0,,,,,0,4,4,10,,,,,,up,0.41670942993459903,3114.2253336440463,None,001,2,2019_Jun_04_1204,ACPT_experiment_5_30_19,3.1.0,59.956708546341595,
,,,C,U,d,n,L,D,g,R,i,,,,,5,19,119,15,3,0,3,0,,,,,0,5,5,15,,,,,,up,0.5004044902034366,3115.909671904111,None,001,2,2019_Jun_04_1204,ACPT_experiment_5_30_19,3.1.0,59.956708546341595,
,,,C,U,d,n,L,G,d,L,i,,,,,5,19,119,15,3,0,3,0,,,,,0,6,6,16,,,,,,up,0.7005456391725602,3117.694398595513,None,001,2,2019_Jun_04_1204,ACPT_experiment_5_30_19,3.1.0,59.956708546341595,
,,,C,U,d,n,R,G,g,R,c ,,,,,5,19,119,15,3,0,3,0,,,,,0,7,7,7,,,,,,up,0.5670988875908733,3119.6792676433197,None,001,2,2019_Jun_04_1204,ACPT_experiment_5_30_19,3.1.0,59.956708546341595,
,,,C,U,d,n,L,G,y,R,y,,,,,5,19,119,15,3,0,3,0,,,,,0,8,8,35,,,,,,down,0.549982612958047,3121.5477881026754,None,001,2,2019_Jun_04_1204,ACPT_experiment_5_30_19,3.1.0,59.956708546341595,
,,,C,U,d,n,R,G,y,R,y,,,,,5,19,119,15,3,0,3,0,,,,,0,9,9,29,,,,,,down,0.650484844899438,3123.3988019845374,None,001,2,2019_Jun_04_1204,ACPT_experiment_5_30_19,3.1.0,59.956708546341595,
,,,C,U,d,n,L,U,y,R,u,,,,,5,19,119,15,3,0,3,0,,,,,0,10,10,25,,,,,,down,0.5670931522827232,3125.350302703564,None,001,2,2019_Jun_04_1204,ACPT_experiment_5_30_19,3.1.0,59.956708546341595,
,,,C,U,d,n,R,G,y,L,y,,,,,5,19,119,15,3,0,3,0,,,,,0,11,11,28,,,,,,down,0.6338219615236085,3127.2017237923556,None,001,2,2019_Jun_04_1204,ACPT_experiment_5_30_19,3.1.0,59.956708546341595,
,,,C,U,d,n,R,D,y,R,y,,,,,5,19,119,15,3,0,3,0,,,,,0,12,12,27,,,,,,down,0.6505304255115334,3129.1198435045517,None,001,2,2019_Jun_04_1204,ACPT_experiment_5_30_19,3.1.0,59.956708546341595,
,,,C,U,d,n,R,D,y,L,y,,,,,5,19,119,15,3,0,3,0,,,,,0,13,13,26,,,,,,down,0.5003839638347927,3131.054699753563,None,001,2,2019_Jun_04_1204,ACPT_experiment_5_30_19,3.1.0,59.956708546341595,
,,,C,U,d,n,L,D,d,R,c ,,,,,5,19,119,15,3,0,3,0,,,,,0,14,14,13,,,,,,up,0.4503382624798178,3132.839407126031,None,001,2,2019_Jun_04_1204,ACPT_experiment_5_30_19,3.1.0,59.956708546341595,
,,,C,U,d,n,R,D,d,L,c,,,,,5,19,119,15,3,0,3,0,,,,,0,15,15,0,,,,,,up,0.5504055165220052,3134.5907718276803,None,001,2,2019_Jun_04_1204,ACPT_experiment_5_30_19,3.1.0,59.956708546341595,
,,,C,U,d,n,R,G,g,L,c ,,,,,5,19,119,15,3,0,3,0,,,,,0,16,16,6,,,,,,up,0.5837506022080561,3136.425531542388,None,001,2,2019_Jun_04_1204,ACPT_experiment_5_30_19,3.1.0,59.956708546341595,
,,,C,U,d,n,R,G,d,L,i,,,,,5,19,119,15,3,0,3,0,,,,,0,17,17,4,,,,,,up,0.6671984404792966,3138.2769097672917,None,001,2,2019_Jun_04_1204,ACPT_experiment_5_30_19,3.1.0,59.956708546341595,
,,,C,U,d,n,L,D,y,R,y,,,,,5,19,119,15,3,0,3,0,,,,,0,18,18,33,,,,,,down,0.5670783612231389,3140.2451319302154,None,001,2,2019_Jun_04_1204,ACPT_experiment_5_30_19,3.1.0,59.956708546341595,
,,,C,U,d,n,L,G,g,R,c ,,,,,5,19,119,15,3,0,3,0,,,,,0,19,19,19,,,,,,up,0.5670931522818137,3142.1132243544153,None,001,2,2019_Jun_04_1204,ACPT_experiment_5_30_19,3.1.0,59.956708546341595,
,,,C,U,d,n,R,U,g,R,u,,,,,5,19,119,15,3,0,3,0,,,,,0,20,20,11,,,,,,up,0.8172929825177562,3143.964648159932,None,001,2,2019_Jun_04_1204,ACPT_experiment_5_30_19,3.1.0,59.956708546341595,
,,,C,U,d,n,L,G,y,L,y,,,,,5,19,119,15,3,0,3,0,,,,,0,21,21,34,,,,,,down,0.7338191844264657,3146.0663342803637,None,001,2,2019_Jun_04_1204,ACPT_experiment_5_30_19,3.1.0,59.956708546341595,
,,,C,U,d,n,R,G,d,R,i,,,,,5,19,119,15,3,0,3,0,,,,,0,22,22,5,,,,,,up,0.5837545263657375,3148.08451249271,None,001,2,2019_Jun_04_1204,ACPT_experiment_5_30_19,3.1.0,59.956708546341595,
,,,C,U,d,n,L,U,d,R,u,,,,,5,19,119,15,3,0,3,0,,,,,0,23,23,21,,,,,,up,0.7005332629796612,3149.952596163018,None,001,2,2019_Jun_04_1204,ACPT_experiment_5_30_19,3.1.0,59.956708546341595,
,,,C,U,d,n,L,U,d,L,u,,,,,5,19,119,15,3,0,3,0,,,,,0,24,24,20,,,,,,up,0.9006907123011842,3151.9374606829488,None,001,2,2019_Jun_04_1204,ACPT_experiment_5_30_19,3.1.0,59.956708546341595,
,,,C,U,d,n,R,D,d,R,c ,,,,,5,19,119,15,3,0,3,0,,,,,0,25,25,1,,,,,,up,0.633792681263003,3154.122499556268,None,001,2,2019_Jun_04_1204,ACPT_experiment_5_30_19,3.1.0,59.956708546341595,
,,,C,U,d,n,R,D,g,L,i,,,,,5,19,119,15,3,0,3,0,,,,,0,26,26,2,,,,,,up,0.5004005660448456,3156.023922576953,None,001,2,2019_Jun_04_1204,ACPT_experiment_5_30_19,3.1.0,59.956708546341595,
,,,C,U,d,n,R,U,y,R,u,,,,,5,19,119,15,3,0,3,0,,,,,0,27,27,31,,,,,,down,0.35027855489533977,3157.8086504757894,None,001,2,2019_Jun_04_1204,ACPT_experiment_5_30_19,3.1.0,59.956708546341595,
,,,C,U,d,n,R,U,d,L,u,,,,,5,19,119,15,3,0,3,0,,,,,0,28,28,8,,,,,,up,0.4470169149344656,3159.4632529705887,None,001,2,2019_Jun_04_1204,ACPT_experiment_5_30_19,3.1.0,59.956708546341595,
,,,C,U,d,n,L,G,g,L,c ,,,,,5,19,119,15,3,0,3,0,,,,,0,29,29,18,,,,,,up,0.517062241986423,3161.1945981238896,None,001,2,2019_Jun_04_1204,ACPT_experiment_5_30_19,3.1.0,59.956708546341595,
,,,C,U,d,n,L,G,d,R,i,,,,,5,19,119,15,3,0,3,0,,,,,0,30,30,17,,,,,,up,0.41698412104233284,3162.9959834726515,None,001,2,2019_Jun_04_1204,ACPT_experiment_5_30_19,3.1.0,59.956708546341595,
,,,C,U,d,n,R,U,y,L,u,,,,,5,19,119,15,3,0,3,0,,,,,0,31,31,30,,,,,,down,0.7172015798059874,3164.6973136417037,None,001,2,2019_Jun_04_1204,ACPT_experiment_5_30_19,3.1.0,59.956708546341595,
,,,C,U,d,n,R,D,g,R,i,,,,,5,19,119,15,3,0,3,0,,,,,0,32,32,3,,,,,,up,0.5167673263676988,3166.7158124276293,None,001,2,2019_Jun_04_1204,ACPT_experiment_5_30_19,3.1.0,59.956708546341595,
,,,C,U,d,n,L,U,y,L,u,,,,,5,19,119,15,3,0,3,0,,,,,0,33,33,24,,,,,,down,0.6336182071299845,3168.53375500934,None,001,2,2019_Jun_04_1204,ACPT_experiment_5_30_19,3.1.0,59.956708546341595,
,,,C,U,d,n,R,U,d,R,u,,,,,5,19,119,15,3,0,3,0,,,,,0,34,34,9,,,,,,up,0.4670177480638813,3170.4850906118427,None,001,2,2019_Jun_04_1204,ACPT_experiment_5_30_19,3.1.0,59.956708546341595,
,,,C,U,d,n,L,U,g,L,u,,,,,5,19,119,15,3,0,3,0,,,,,0,35,35,22,,,,,,up,0.46703253912437503,3172.236426335089,None,001,2,2019_Jun_04_1204,ACPT_experiment_5_30_19,3.1.0,59.956708546341595,
,,,C,U,d,n,L,G,g,L,c ,,,,,5,19,119,15,3,0,3,0,,,,,1,0,36,18,,,,,,up,0.48342465554924274,3174.00474189299,None,001,2,2019_Jun_04_1204,ACPT_experiment_5_30_19,3.1.0,59.956708546341595,
,,,C,U,d,n,L,G,y,L,y,,,,,5,19,119,15,3,0,3,0,,,,,1,1,37,34,,,,,,down,0.6171633041658424,3175.772472147529,None,001,2,2019_Jun_04_1204,ACPT_experiment_5_30_19,3.1.0,59.956708546341595,
,,,C,U,d,n,L,G,d,R,i,,,,,5,19,119,15,3,0,3,0,,,,,1,2,38,17,,,,,,up,0.5337263327955952,3177.6906552499813,None,001,2,2019_Jun_04_1204,ACPT_experiment_5_30_19,3.1.0,59.956708546341595,
,,,C,U,d,n,R,U,y,R,u,,,,,5,19,119,15,3,0,3,0,,,,,1,3,39,31,,,,,,down,0.6505005415338019,3179.508710726718,None,001,2,2019_Jun_04_1204,ACPT_experiment_5_30_19,3.1.0,59.956708546341595,
,,,C,U,d,n,R,G,g,L,c ,,,,,5,19,119,15,3,0,3,0,,,,,1,4,40,6,,,,,,up,0.5504272503239918,3181.443541921485,None,001,2,2019_Jun_04_1204,ACPT_experiment_5_30_19,3.1.0,59.956708546341595,
,,,C,U,d,n,L,D,d,R,c ,,,,,5,19,119,15,3,0,3,0,,,,,1,5,41,13,,,,,,up,0.6838619275713427,3183.2782850339836,None,001,2,2019_Jun_04_1204,ACPT_experiment_5_30_19,3.1.0,59.956708546341595,
,,,C,U,d,n,R,U,d,R,u,,,,,5,19,119,15,3,0,3,0,,,,,1,6,42,9,,,,,,up,0.5504354004997367,3185.2464685590367,None,001,2,2019_Jun_04_1204,ACPT_experiment_5_30_19,3.1.0,59.956708546341595,
,,,C,U,d,n,R,G,g,R,c ,,,,,5,19,119,15,3,0,3,0,,,,,1,7,43,7,,,,,,up,0.9140512652093093,3187.1012212585565,None,001,2,2019_Jun_04_1204,ACPT_experiment_5_30_19,3.1.0,59.956708546341595,
,,,C,U,d,n,R,U,g,L,u,,,,,5,19,119,15,3,0,3,0,,,,,1,8,44,10,,,,,,up,0.7005299425381963,3189.2995920082394,None,001,2,2019_Jun_04_1204,ACPT_experiment_5_30_19,3.1.0,59.956708546341595,
,,,C,U,d,n,L,D,g,L,i,,,,,5,19,119,15,3,0,3,0,,,,,1,9,45,14,,,,,,up,0.5170631475621121,3191.284453207728,None,001,2,2019_Jun_04_1204,ACPT_experiment_5_30_19,3.1.0,59.956708546341595,
,,,C,U,d,n,R,U,d,L,u,,,,,5,19,119,15,3,0,3,0,,,,,1,10,46,8,,,,,,up,0.4835127981905316,3193.102675008422,None,001,2,2019_Jun_04_1204,ACPT_experiment_5_30_19,3.1.0,59.956708546341595,
,,,C,U,d,n,R,D,d,R,c ,,,,,5,19,119,15,3,0,3,0,,,,,1,11,47,1,,,,,,up,0.46702076664769265,3194.870552871699,None,001,2,2019_Jun_04_1204,ACPT_experiment_5_30_19,3.1.0,59.956708546341595,
,,,C,U,d,n,L,D,d,L,c ,,,,,5,19,119,15,3,0,3,0,,,,,1,12,48,12,,,,,,up,0.4503690520323289,3196.6051919034344,None,001,2,2019_Jun_04_1204,ACPT_experiment_5_30_19,3.1.0,59.956708546341595,
,,,C,U,d,n,R,U,g,R,u,,,,,5,19,119,15,3,0,3,0,,,,,1,13,49,11,,,,,,up,0.600454840178827,3198.339893721708,None,001,2,2019_Jun_04_1204,ACPT_experiment_5_30_19,3.1.0,59.956708546341595,
,,,C,U,d,n,R,D,g,L,i,,,,,5,19,119,15,3,0,3,0,,,,,1,14,50,2,,,,,,up,0.5835085118023926,3200.24163399553,None,001,2,2019_Jun_04_1204,ACPT_experiment_5_30_19,3.1.0,59.956708546341595,
,,,C,U,d,n,R,G,d,R,i,,,,,5,19,119,15,3,0,3,0,,,,,1,15,51,5,,,,,,up,0.650488467199466,3202.1094680289734,None,001,2,2019_Jun_04_1204,ACPT_experiment_5_30_19,3.1.0,59.956708546341595,
,,,C,U,d,n,L,U,y,L,u,,,,,5,19,119,15,3,0,3,0,,,,,1,16,52,24,,,,,,down,0.7005175663462069,3204.060975388884,None,001,2,2019_Jun_04_1204,ACPT_experiment_5_30_19,3.1.0,59.956708546341595,
,,,C,U,d,n,L,D,y,L,y,,,,,5,19,119,15,3,0,3,0,,,,,1,17,53,32,,,,,,down,0.73392423113728,3206.062511244224,None,001,2,2019_Jun_04_1204,ACPT_experiment_5_30_19,3.1.0,59.956708546341595,
,,,C,U,d,n,L,U,y,R,u,,,,,5,19,119,15,3,0,3,0,,,,,1,18,54,25,,,,,,down,0.8673302318393326,3208.1140888767613,None,001,2,2019_Jun_04_1204,ACPT_experiment_5_30_19,3.1.0,59.956708546341595,
,,,C,U,d,n,R,G,y,L,y,,,,,5,19,119,15,3,0,3,0,,,,,1,19,55,28,,,,,,down,0.8339670346522325,3210.2824310585693,None,001,2,2019_Jun_04_1204,ACPT_experiment_5_30_19,3.1.0,59.956708546341595,
,,,C,U,d,n,L,D,g,R,i,,,,,5,19,119,15,3,0,3,0,,,,,1,20,56,15,,,,,,up,0.5003706820671141,3212.4007368966304,None,001,2,2019_Jun_04_1204,ACPT_experiment_5_30_19,3.1.0,59.956708546341595,
,,,C,U,d,n,L,G,d,L,i,,,,,5,19,119,15,3,0,3,0,,,,,1,21,57,16,,,,,,up,0.6004557457536066,3214.185440948657,None,001,2,2019_Jun_04_1204,ACPT_experiment_5_30_19,3.1.0,59.956708546341595,
,,,C,U,d,n,L,G,y,R,y,,,,,5,19,119,15,3,0,3,0,,,,,1,22,58,35,,,,,,down,0.5504477766926357,3216.070197463665,None,001,2,2019_Jun_04_1204,ACPT_experiment_5_30_19,3.1.0,59.956708546341595,
,,,C,U,d,n,R,G,y,R,y,,,,,5,19,119,15,3,0,3,0,,,,,1,23,59,29,,,,,,down,0.5004576172750603,3217.9216481345757,None,001,2,2019_Jun_04_1204,ACPT_experiment_5_30_19,3.1.0,59.956708546341595,
,,,C,U,d,n,L,U,g,R,u,,,,,5,19,119,15,3,0,3,0,,,,,1,24,60,23,,,,,,up,0.5167923806120598,3219.723308476304,None,001,2,2019_Jun_04_1204,ACPT_experiment_5_30_19,3.1.0,59.956708546341595,
,,,C,U,d,n,L,U,d,R,u,,,,,5,19,119,15,3,0,3,0,,,,,1,25,61,21,,,,,,up,0.5004195831215839,3221.524409172631,None,001,2,2019_Jun_04_1204,ACPT_experiment_5_30_19,3.1.0,59.956708546341595,
,,,C,U,d,n,R,U,y,L,u,,,,,5,19,119,15,3,0,3,0,,,,,1,26,62,30,,,,,,down,0.5170848813631892,3223.309108394923,None,001,2,2019_Jun_04_1204,ACPT_experiment_5_30_19,3.1.0,59.956708546341595,
,,,C,U,d,n,L,U,g,L,u,,,,,5,19,119,15,3,0,3,0,,,,,1,27,63,22,,,,,,up,0.9340421370116019,3225.110526948103,None,001,2,2019_Jun_04_1204,ACPT_experiment_5_30_19,3.1.0,59.956708546341595,
,,,C,U,d,n,L,U,d,L,u,,,,,5,19,119,15,3,0,3,0,,,,,1,28,64,20,,,,,,up,0.8006569645367563,3227.312203348696,None,001,2,2019_Jun_04_1204,ACPT_experiment_5_30_19,3.1.0,59.956708546341595,
,,,C,U,d,n,R,G,d,L,i,,,,,5,19,119,15,3,0,3,0,,,,,1,29,65,4,,,,,,up,0.7005643543916449,3229.38046016496,None,001,2,2019_Jun_04_1204,ACPT_experiment_5_30_19,3.1.0,59.956708546341595,
,,,C,U,d,n,R,D,d,L,c,,,,,5,19,119,15,3,0,3,0,,,,,1,30,66,0,,,,,,up,0.6338189429407066,3231.365342796392,None,001,2,2019_Jun_04_1204,ACPT_experiment_5_30_19,3.1.0,59.956708546341595,
,,,C,U,d,n,L,G,g,R,c ,,,,,5,19,119,15,3,0,3,0,,,,,1,31,67,19,,,,,,up,0.6671785178268692,3233.2834890721233,None,001,2,2019_Jun_04_1204,ACPT_experiment_5_30_19,3.1.0,59.956708546341595,
,,,C,U,d,n,L,D,y,R,y,,,,,5,19,119,15,3,0,3,0,,,,,1,32,68,33,,,,,,down,0.6003205132083167,3235.234997639468,None,001,2,2019_Jun_04_1204,ACPT_experiment_5_30_19,3.1.0,59.956708546341595,
,,,C,U,d,n,R,D,y,R,y,,,,,5,19,119,15,3,0,3,0,,,,,1,33,69,27,,,,,,down,0.6671706695096873,3237.136459599881,None,001,2,2019_Jun_04_1204,ACPT_experiment_5_30_19,3.1.0,59.956708546341595,
,,,C,U,d,n,R,D,y,L,y,,,,,5,19,119,15,3,0,3,0,,,,,1,34,70,26,,,,,,down,0.8471950717394066,3239.1414523371686,None,001,2,2019_Jun_04_1204,ACPT_experiment_5_30_19,3.1.0,59.956708546341595,
,,,C,U,d,n,R,D,g,R,i,,,,,5,19,119,15,3,0,3,0,,,,,1,35,71,3,,,,,,up,0.8673564935170361,3241.256276842755,None,001,2,2019_Jun_04_1204,ACPT_experiment_5_30_19,3.1.0,59.956708546341595,
,,,C,U,d,n,,,,,,,,,,5,19,119,15,4,0,4,0,0,0,0,0,,,,,,,,,,,,,,001,2,2019_Jun_04_1204,ACPT_experiment_5_30_19,3.1.0,59.956708546341595,
,,,C,U,d,n,R,D,y,L,y,,,,,5,19,119,15,4,0,4,0,,,,,0,0,0,26,,,,,,down,0.5637660694301303,3253.4023279920502,None,001,2,2019_Jun_04_1204,ACPT_experiment_5_30_19,3.1.0,59.956708546341595,
,,,C,U,d,n,R,D,g,R,i,,,,,5,19,119,15,4,0,4,0,,,,,0,1,1,3,,,,,,up,0.50038275640145,3255.250417168255,None,001,2,2019_Jun_04_1204,ACPT_experiment_5_30_19,3.1.0,59.956708546341595,
,,,C,U,d,n,L,D,d,L,c ,,,,,5,19,119,15,4,0,4,0,,,,,0,2,2,12,,,,,,up,0.5670994913079994,3257.0351269555895,None,001,2,2019_Jun_04_1204,ACPT_experiment_5_30_19,3.1.0,59.956708546341595,
,,,C,U,d,n,R,G,y,L,y,,,,,5,19,119,15,4,0,4,0,,,,,0,3,3,28,,,,,,down,0.717210635556512,3258.8865580057063,None,001,2,2019_Jun_04_1204,ACPT_experiment_5_30_19,3.1.0,59.956708546341595,
,,,C,U,d,n,L,G,y,L,y,,,,,5,19,119,15,4,0,4,0,,,,,0,4,4,34,,,,,,down,0.7505762476112068,3260.888098388921,None,001,2,2019_Jun_04_1204,ACPT_experiment_5_30_19,3.1.0,59.956708546341595,
,,,C,U,d,n,R,U,g,R,u,,,,,5,19,119,15,4,0,4,0,,,,,0,5,5,11,,,,,,up,0.48374794585379277,3262.9229772169383,None,001,2,2019_Jun_04_1204,ACPT_experiment_5_30_19,3.1.0,59.956708546341595,
,,,C,U,d,n,L,U,d,L,u,,,,,5,19,119,15,4,0,4,0,,,,,0,6,6,20,,,,,,up,0.5003884917096002,3264.6910280450566,None,001,2,2019_Jun_04_1204,ACPT_experiment_5_30_19,3.1.0,59.956708546341595,
,,,C,U,d,n,R,U,d,L,u,,,,,5,19,119,15,4,0,4,0,,,,,0,7,7,8,,,,,,up,0.5304119279935549,3266.495744098971,None,001,2,2019_Jun_04_1204,ACPT_experiment_5_30_19,3.1.0,59.956708546341595,
,,,C,U,d,n,L,U,g,R,u,,,,,5,19,119,15,4,0,4,0,,,,,0,8,8,23,,,,,,up,0.5504112518310649,3268.3104875857734,None,001,2,2019_Jun_04_1204,ACPT_experiment_5_30_19,3.1.0,59.956708546341595,
,,,C,U,d,n,L,G,y,R,y,,,,,5,19,119,15,4,0,4,0,,,,,0,9,9,35,,,,,,down,0.7338807635323974,3270.1619156173065,None,001,2,2019_Jun_04_1204,ACPT_experiment_5_30_19,3.1.0,59.956708546341595,
,,,C,U,d,n,L,G,d,R,i,,,,,5,19,119,15,4,0,4,0,,,,,0,10,10,17,,,,,,up,0.5670412326444421,3272.196869306197,None,001,2,2019_Jun_04_1204,ACPT_experiment_5_30_19,3.1.0,59.956708546341595,
,,,C,U,d,n,R,U,y,R,u,,,,,5,19,119,15,4,0,4,0,,,,,0,11,11,31,,,,,,down,0.9338540792541608,3274.0650815681665,None,001,2,2019_Jun_04_1204,ACPT_experiment_5_30_19,3.1.0,59.956708546341595,
,,,C,U,d,n,R,G,y,R,y,,,,,5,19,119,15,4,0,4,0,,,,,0,12,12,29,,,,,,down,0.7338834802576457,3276.29998412225,None,001,2,2019_Jun_04_1204,ACPT_experiment_5_30_19,3.1.0,59.956708546341595,
,,,C,U,d,n,L,D,y,L,y,,,,,5,19,119,15,4,0,4,0,,,,,0,13,13,32,,,,,,down,0.667172178801593,3278.3181967464498,None,001,2,2019_Jun_04_1204,ACPT_experiment_5_30_19,3.1.0,59.956708546341595,
,,,C,U,d,n,L,U,y,L,u,,,,,5,19,119,15,4,0,4,0,,,,,0,14,14,24,,,,,,down,0.8339935981875897,3280.2697001822016,None,001,2,2019_Jun_04_1204,ACPT_experiment_5_30_19,3.1.0,59.956708546341595,
,,,C,U,d,n,R,G,g,L,c ,,,,,5,19,119,15,4,0,4,0,,,,,0,15,15,6,,,,,,up,0.617121647712338,3282.3880078314132,None,001,2,2019_Jun_04_1204,ACPT_experiment_5_30_19,3.1.0,59.956708546341595,
,,,C,U,d,n,R,U,y,L,u,,,,,5,19,119,15,4,0,4,0,,,,,0,16,16,30,,,,,,down,1.0174751842241676,3284.289441115282,None,001,2,2019_Jun_04_1204,ACPT_experiment_5_30_19,3.1.0,59.956708546341595,
,,,C,U,d,n,R,U,g,L,u,,,,,5,19,119,15,4,0,4,0,,,,,0,17,17,10,,,,,,up,4.620244976171307,3286.5745436203442,None,001,2,2019_Jun_04_1204,ACPT_experiment_5_30_19,3.1.0,59.956708546341595,
,,,C,U,d,n,R,U,d,R,u,,,,,5,19,119,15,4,0,4,0,,,,,0,18,18,9,,,,,,up,0.5671197158189898,3292.462408370895,None,001,2,2019_Jun_04_1204,ACPT_experiment_5_30_19,3.1.0,59.956708546341595,
,,,C,U,d,n,L,U,d,R,u,,,,,5,19,119,15,4,0,4,0,,,,,0,19,19,21,,,,,,up,0.6338403748841301,3294.31383428942,None,001,2,2019_Jun_04_1204,ACPT_experiment_5_30_19,3.1.0,59.956708546341595,
,,,C,U,d,n,L,G,d,L,i,,,,,5,19,119,15,4,0,4,0,,,,,0,20,20,16,,,,,,up,0.5670979820170032,3296.232005317537,None,001,2,2019_Jun_04_1204,ACPT_experiment_5_30_19,3.1.0,59.956708546341595,
,,,C,U,d,n,R,G,d,L,i,,,,,5,19,119,15,4,0,4,0,,,,,0,21,21,4,,,,,,up,0.5337432368633017,3298.083427010045,None,001,2,2019_Jun_04_1204,ACPT_experiment_5_30_19,3.1.0,59.956708546341595,
,,,C,U,d,n,L,G,g,R,c ,,,,,5,19,119,15,4,0,4,0,,,,,0,22,22,19,,,,,,up,0.46703585956583993,3299.901481581207,None,001,2,2019_Jun_04_1204,ACPT_experiment_5_30_19,3.1.0,59.956708546341595,
,,,C,U,d,n,R,D,d,R,c ,,,,,5,19,119,15,4,0,4,0,,,,,0,23,23,1,,,,,,up,0.5504405320925798,3301.6528275676374,None,001,2,2019_Jun_04_1204,ACPT_experiment_5_30_19,3.1.0,59.956708546341595,
,,,C,U,d,n,R,D,y,R,y,,,,,5,19,119,15,4,0,4,0,,,,,0,24,24,27,,,,,,down,0.6502394340514002,3303.5045336107214,None,001,2,2019_Jun_04_1204,ACPT_experiment_5_30_19,3.1.0,59.956708546341595,
,,,C,U,d,n,L,U,y,R,u,,,,,5,19,119,15,4,0,4,0,,,,,0,25,25,25,,,,,,down,0.6004623866374459,3305.439107924023,None,001,2,2019_Jun_04_1204,ACPT_experiment_5_30_19,3.1.0,59.956708546341595,
,,,C,U,d,n,L,D,g,L,i,,,,,5,19,119,15,4,0,4,0,,,,,0,26,26,14,,,,,,up,0.5504200057230264,3307.323892813719,None,001,2,2019_Jun_04_1204,ACPT_experiment_5_30_19,3.1.0,59.956708546341595,
,,,C,U,d,n,R,D,g,L,i,,,,,5,19,119,15,4,0,4,0,,,,,0,27,27,2,,,,,,up,0.5003604188832469,3309.1586567544427,None,001,2,2019_Jun_04_1204,ACPT_experiment_5_30_19,3.1.0,59.956708546341595,
,,,C,U,d,n,R,G,g,R,c ,,,,,5,19,119,15,4,0,4,0,,,,,0,28,28,7,,,,,,up,0.49706140885791683,3310.9633471503967,None,001,2,2019_Jun_04_1204,ACPT_experiment_5_30_19,3.1.0,59.956708546341595,
,,,C,U,d,n,L,D,g,R,i,,,,,5,19,119,15,4,0,4,0,,,,,0,29,29,15,,,,,,up,0.5337453498723335,3312.7447313641705,None,001,2,2019_Jun_04_1204,ACPT_experiment_5_30_19,3.1.0,59.956708546341595,
,,,C,U,d,n,L,G,g,L,c ,,,,,5,19,119,15,4,0,4,0,,,,,0,30,30,18,,,,,,up,0.5837789768929724,3314.562798009667,None,001,2,2019_Jun_04_1204,ACPT_experiment_5_30_19,3.1.0,59.956708546341595,
,,,C,U,d,n,L,D,y,R,y,,,,,5,19,119,15,4,0,4,0,,,,,0,31,31,33,,,,,,down,0.5337299550956232,3316.43090824351,None,001,2,2019_Jun_04_1204,ACPT_experiment_5_30_19,3.1.0,59.956708546341595,
,,,C,U,d,n,L,U,g,L,u,,,,,5,19,119,15,4,0,4,0,,,,,0,32,32,22,,,,,,up,0.7669771179289455,3318.265931480567,None,001,2,2019_Jun_04_1204,ACPT_experiment_5_30_19,3.1.0,59.956708546341595,
,,,C,U,d,n,R,G,d,R,i,,,,,5,19,119,15,4,0,4,0,,,,,0,33,33,5,,,,,,up,0.5671188102442102,3320.317247100047,None,001,2,2019_Jun_04_1204,ACPT_experiment_5_30_19,3.1.0,59.956708546341595,
,,,C,U,d,n,L,D,d,R,c ,,,,,5,19,119,15,4,0,4,0,,,,,0,34,34,13,,,,,,up,0.5837768638848502,3322.1686639628206,None,001,2,2019_Jun_04_1204,ACPT_experiment_5_30_19,3.1.0,59.956708546341595,
,,,C,U,d,n,R,D,d,L,c,,,,,5,19,119,15,4,0,4,0,,,,,0,35,35,0,,,,,,up,0.43371371511602774,3324.0367714799395,None,001,2,2019_Jun_04_1204,ACPT_experiment_5_30_19,3.1.0,59.956708546341595,
,,,C,U,d,n,L,D,y,L,y,,,,,5,19,119,15,4,0,4,0,,,,,1,0,36,32,,,,,,down,0.6671791215439953,3325.7547581933413,None,001,2,2019_Jun_04_1204,ACPT_experiment_5_30_19,3.1.0,59.956708546341595,
,,,C,U,d,n,R,D,g,L,i,,,,,5,19,119,15,4,0,4,0,,,,,1,1,37,2,,,,,,up,0.66717670667731,3327.706265251394,None,001,2,2019_Jun_04_1204,ACPT_experiment_5_30_19,3.1.0,59.956708546341595,
,,,C,U,d,n,R,D,d,L,c,,,,,5,19,119,15,4,0,4,0,,,,,1,2,38,0,,,,,,up,0.4003254636845668,3329.6577641592703,None,001,2,2019_Jun_04_1204,ACPT_experiment_5_30_19,3.1.0,59.956708546341595,
,,,C,U,d,n,R,U,g,R,u,,,,,5,19,119,15,4,0,4,0,,,,,1,3,39,11,,,,,,up,0.5334643197384139,3331.359353926513,None,001,2,2019_Jun_04_1204,ACPT_experiment_5_30_19,3.1.0,59.956708546341595,
,,,C,U,d,n,L,G,d,L,i,,,,,5,19,119,15,4,0,4,0,,,,,1,4,40,16,,,,,,up,0.500390906577195,3333.177146484618,None,001,2,2019_Jun_04_1204,ACPT_experiment_5_30_19,3.1.0,59.956708546341595,
,,,C,U,d,n,R,G,d,L,i,,,,,5,19,119,15,4,0,4,0,,,,,1,5,41,4,,,,,,up,0.45033946991225093,3334.9451782956594,None,001,2,2019_Jun_04_1204,ACPT_experiment_5_30_19,3.1.0,59.956708546341595,
,,,C,U,d,n,R,U,d,L,u,,,,,5,19,119,15,4,0,4,0,,,,,1,6,42,8,,,,,,up,0.5838073515797078,3336.663139049243,None,001,2,2019_Jun_04_1204,ACPT_experiment_5_30_19,3.1.0,59.956708546341595,
,,,C,U,d,n,L,D,d,L,c ,,,,,5,19,119,15,4,0,4,0,,,,,1,7,43,12,,,,,,up,0.46700627744667145,3338.547964387958,None,001,2,2019_Jun_04_1204,ACPT_experiment_5_30_19,3.1.0,59.956708546341595,
,,,C,U,d,n,L,D,g,L,i,,,,,5,19,119,15,4,0,4,0,,,,,1,8,44,14,,,,,,up,0.7839276723216244,3340.299302526071,None,001,2,2019_Jun_04_1204,ACPT_experiment_5_30_19,3.1.0,59.956708546341595,
,,,C,U,d,n,L,U,g,L,u,,,,,5,19,119,15,4,0,4,0,,,,,1,9,45,22,,,,,,up,0.8339724681027292,3342.3675617572026,None,001,2,2019_Jun_04_1204,ACPT_experiment_5_30_19,3.1.0,59.956708546341595,
,,,C,U,d,n,R,G,g,L,c ,,,,,5,19,119,15,4,0,4,0,,,,,1,10,46,6,,,,,,up,0.500373700650016,3344.4858678971223,None,001,2,2019_Jun_04_1204,ACPT_experiment_5_30_19,3.1.0,59.956708546341595,
,,,C,U,d,n,R,G,d,R,i,,,,,5,19,119,15,4,0,4,0,,,,,1,11,47,5,,,,,,up,0.45036331672326924,3346.27054568747,None,001,2,2019_Jun_04_1204,ACPT_experiment_5_30_19,3.1.0,59.956708546341595,
,,,C,U,d,n,L,D,y,R,y,,,,,5,19,119,15,4,0,4,0,,,,,1,12,48,33,,,,,,down,0.717210937415075,3348.0052417704355,None,001,2,2019_Jun_04_1204,ACPT_experiment_5_30_19,3.1.0,59.956708546341595,
,,,C,U,d,n,R,D,g,R,i,,,,,5,19,119,15,4,0,4,0,,,,,1,13,49,3,,,,,,up,0.5338042122530169,3350.006784568518,None,001,2,2019_Jun_04_1204,ACPT_experiment_5_30_19,3.1.0,59.956708546341595,
,,,C,U,d,n,R,U,g,L,u,,,,,5,19,119,15,4,0,4,0,,,,,1,14,50,10,,,,,,up,0.5668235927660135,3351.8418108241576,None,001,2,2019_Jun_04_1204,ACPT_experiment_5_30_19,3.1.0,59.956708546341595,
,,,C,U,d,n,R,G,y,L,y,,,,,5,19,119,15,4,0,4,0,,,,,1,15,51,28,,,,,,down,0.5504106481139388,3353.692962051575,None,001,2,2019_Jun_04_1204,ACPT_experiment_5_30_19,3.1.0,59.956708546341595,
,,,C,U,d,n,L,G,d,R,i,,,,,5,19,119,15,4,0,4,0,,,,,1,16,52,17,,,,,,up,0.5670976801584402,3355.5277078807976,None,001,2,2019_Jun_04_1204,ACPT_experiment_5_30_19,3.1.0,59.956708546341595,
,,,C,U,d,n,L,U,d,L,u,,,,,5,19,119,15,4,0,4,0,,,,,1,17,53,20,,,,,,up,0.5170839757884096,3357.362428655777,None,001,2,2019_Jun_04_1204,ACPT_experiment_5_30_19,3.1.0,59.956708546341595,
,,,C,U,d,n,R,G,y,R,y,,,,,5,19,119,15,4,0,4,0,,,,,1,18,54,29,,,,,,down,0.6001807527864003,3359.180799876359,None,001,2,2019_Jun_04_1204,ACPT_experiment_5_30_19,3.1.0,59.956708546341595,
,,,C,U,d,n,R,U,y,L,u,,,,,5,19,119,15,4,0,4,0,,,,,1,19,55,30,,,,,,down,0.5671025098918108,3361.0486239484762,None,001,2,2019_Jun_04_1204,ACPT_experiment_5_30_19,3.1.0,59.956708546341595,
,,,C,U,d,n,L,U,y,L,u,,,,,5,19,119,15,4,0,4,0,,,,,1,20,56,24,,,,,,down,0.600506156099982,3362.900051376293,None,001,2,2019_Jun_04_1204,ACPT_experiment_5_30_19,3.1.0,59.956708546341595,
,,,C,U,d,n,L,G,g,L,c ,,,,,5,19,119,15,4,0,4,0,,,,,1,21,57,18,,,,,,up,0.5671055284756221,3364.784838982713,None,001,2,2019_Jun_04_1204,ACPT_experiment_5_30_19,3.1.0,59.956708546341595,
,,,C,U,d,n,L,G,y,L,y,,,,,5,19,119,15,4,0,4,0,,,,,1,22,58,34,,,,,,down,0.567096170865625,3366.636265806813,None,001,2,2019_Jun_04_1204,ACPT_experiment_5_30_19,3.1.0,59.956708546341595,
,,,C,U,d,n,R,D,y,L,y,,,,,5,19,119,15,4,0,4,0,,,,,1,23,59,26,,,,,,down,0.5170571103944894,3368.4876971587883,None,001,2,2019_Jun_04_1204,ACPT_experiment_5_30_19,3.1.0,59.956708546341595,
,,,C,U,d,n,L,U,y,R,u,,,,,5,19,119,15,4,0,4,0,,,,,1,24,60,25,,,,,,down,0.6838619275704332,3370.2890791871077,None,001,2,2019_Jun_04_1204,ACPT_experiment_5_30_19,3.1.0,59.956708546341595,
,,,C,U,d,n,L,D,g,R,i,,,,,5,19,119,15,4,0,4,0,,,,,1,25,61,15,,,,,,up,0.6002178813650971,3372.2741857974434,None,001,2,2019_Jun_04_1204,ACPT_experiment_5_30_19,3.1.0,59.956708546341595,
,,,C,U,d,n,R,U,y,R,u,,,,,5,19,119,15,4,0,4,0,,,,,1,26,62,31,,,,,,down,0.5504272503239918,3374.1587228614244,None,001,2,2019_Jun_04_1204,ACPT_experiment_5_30_19,3.1.0,59.956708546341595,
,,,C,U,d,n,L,U,d,R,u,,,,,5,19,119,15,4,0,4,0,,,,,1,27,63,21,,,,,,up,0.6504957118004313,3375.9934780482563,None,001,2,2019_Jun_04_1204,ACPT_experiment_5_30_19,3.1.0,59.956708546341595,
,,,C,U,d,n,R,D,y,R,y,,,,,5,19,119,15,4,0,4,0,,,,,1,28,64,27,,,,,,down,0.7172136541403233,3377.9449820877253,None,001,2,2019_Jun_04_1204,ACPT_experiment_5_30_19,3.1.0,59.956708546341595,
,,,C,U,d,n,L,D,d,R,c ,,,,,5,19,119,15,4,0,4,0,,,,,1,29,65,13,,,,,,up,0.9674101639338915,3379.9632052769675,None,001,2,2019_Jun_04_1204,ACPT_experiment_5_30_19,3.1.0,59.956708546341595,
,,,C,U,d,n,L,G,g,R,c ,,,,,5,19,119,15,4,0,4,0,,,,,1,30,66,19,,,,,,up,0.5170528843773354,3382.2149412644003,None,001,2,2019_Jun_04_1204,ACPT_experiment_5_30_19,3.1.0,59.956708546341595,
,,,C,U,d,n,R,U,d,R,u,,,,,5,19,119,15,4,0,4,0,,,,,1,31,67,9,,,,,,up,0.6338150187812062,3384.0163272168784,None,001,2,2019_Jun_04_1204,ACPT_experiment_5_30_19,3.1.0,59.956708546341595,
,,,C,U,d,n,R,D,d,R,c ,,,,,5,19,119,15,4,0,4,0,,,,,1,32,68,1,,,,,,up,0.6001895066783618,3385.9514240470035,None,001,2,2019_Jun_04_1204,ACPT_experiment_5_30_19,3.1.0,59.956708546341595,
,,,C,U,d,n,L,U,g,R,u,,,,,5,19,119,15,4,0,4,0,,,,,1,33,69,23,,,,,,up,0.46701714434675523,3387.8359399808987,None,001,2,2019_Jun_04_1204,ACPT_experiment_5_30_19,3.1.0,59.956708546341595,
,,,C,U,d,n,L,G,y,R,y,,,,,5,19,119,15,4,0,4,0,,,,,1,34,70,35,,,,,,down,0.50038275640145,3389.5872883821967,None,001,2,2019_Jun_04_1204,ACPT_experiment_5_30_19,3.1.0,59.956708546341595,
,,,C,U,d,n,R,G,g,R,c ,,,,,5,19,119,15,4,0,4,0,,,,,1,35,71,7,,,,,,up,0.4503433940708419,3391.3719957546637,None,001,2,2019_Jun_04_1204,ACPT_experiment_5_30_19,3.1.0,59.956708546341595,
,,,C,U,d,n,,,,,,,,,,5,19,119,15,5,0,5,0,0,0,0,0,,,,,,,,,,,,,,001,2,2019_Jun_04_1204,ACPT_experiment_5_30_19,3.1.0,59.956708546341595,
,,,C,U,d,n,L,D,d,R,c ,,,,,5,19,119,15,5,0,5,0,,,,,0,0,0,13,,,,,,up,0.5167815137110665,3413.239126759985,None,001,2,2019_Jun_04_1204,ACPT_experiment_5_30_19,3.1.0,59.956708546341595,
,,,C,U,d,n,L,U,y,R,u,,,,,5,19,119,15,5,0,5,0,,,,,0,1,1,25,,,,,,down,0.7005211886453253,3415.056926562691,None,001,2,2019_Jun_04_1204,ACPT_experiment_5_30_19,3.1.0,59.956708546341595,
,,,C,U,d,n,R,U,d,R,u,,,,,5,19,119,15,5,0,5,0,,,,,0,2,2,9,,,,,,up,0.5504139685563132,3417.058463323606,None,001,2,2019_Jun_04_1204,ACPT_experiment_5_30_19,3.1.0,59.956708546341595,
,,,C,U,d,n,R,D,d,L,c,,,,,5,19,119,15,5,0,5,0,,,,,0,3,3,0,,,,,,up,0.48370447824981966,3418.876529365385,None,001,2,2019_Jun_04_1204,ACPT_experiment_5_30_19,3.1.0,59.956708546341595,
,,,C,U,d,n,L,D,g,L,i,,,,,5,19,119,15,5,0,5,0,,,,,0,4,4,14,,,,,,up,0.5838067478625817,3420.6445590634185,None,001,2,2019_Jun_04_1204,ACPT_experiment_5_30_19,3.1.0,59.956708546341595,
,,,C,U,d,n,R,U,g,L,u,,,,,5,19,119,15,5,0,5,0,,,,,0,5,5,10,,,,,,up,0.5003727950761458,3422.512669900979,None,001,2,2019_Jun_04_1204,ACPT_experiment_5_30_19,3.1.0,59.956708546341595,
,,,C,U,d,n,L,G,d,R,i,,,,,5,19,119,15,5,0,5,0,,,,,0,6,6,17,,,,,,up,0.4837304380689602,3424.297348295044,None,001,2,2019_Jun_04_1204,ACPT_experiment_5_30_19,3.1.0,59.956708546341595,
,,,C,U,d,n,L,D,d,L,c ,,,,,5,19,119,15,5,0,5,0,,,,,0,7,7,12,,,,,,up,0.40002783134150377,3426.082361751889,None,001,2,2019_Jun_04_1204,ACPT_experiment_5_30_19,3.1.0,59.956708546341595,
,,,C,U,d,n,L,G,y,R,y,,,,,5,19,119,15,5,0,5,0,,,,,0,8,8,35,,,,,,down,0.5170725051711997,3427.766712086288,None,001,2,2019_Jun_04_1204,ACPT_experiment_5_30_19,3.1.0,59.956708546341595,
,,,C,U,d,n,R,U,y,R,u,,,,,5,19,119,15,5,0,5,0,,,,,0,9,9,31,,,,,,down,0.6004448788526133,3429.5847902024025,None,001,2,2019_Jun_04_1204,ACPT_experiment_5_30_19,3.1.0,59.956708546341595,
,,,C,U,d,n,L,U,y,L,u,,,,,5,19,119,15,5,0,5,0,,,,,0,10,10,24,,,,,,down,0.5837946735282458,3431.4862277122884,None,001,2,2019_Jun_04_1204,ACPT_experiment_5_30_19,3.1.0,59.956708546341595,
,,,C,U,d,n,L,U,g,R,u,,,,,5,19,119,15,5,0,5,0,,,,,0,11,11,23,,,,,,up,0.5304396989622546,3433.3743587019126,None,001,2,2019_Jun_04_1204,ACPT_experiment_5_30_19,3.1.0,59.956708546341595,
,,,C,U,d,n,L,G,g,R,c ,,,,,5,19,119,15,5,0,5,0,,,,,0,12,12,19,,,,,,up,0.550416987139215,3435.1891076221655,None,001,2,2019_Jun_04_1204,ACPT_experiment_5_30_19,3.1.0,59.956708546341595,
,,,C,U,d,n,R,G,g,L,c ,,,,,5,19,119,15,5,0,5,0,,,,,0,13,13,6,,,,,,up,1.1675854228979006,3437.0238302082944,None,001,2,2019_Jun_04_1204,ACPT_experiment_5_30_19,3.1.0,59.956708546341595,
,,,C,U,d,n,L,D,y,L,y,,,,,5,19,119,15,5,0,5,0,,,,,0,14,14,32,,,,,,down,0.6505089935681099,3439.475728474782,None,001,2,2019_Jun_04_1204,ACPT_experiment_5_30_19,3.1.0,59.956708546341595,
,,,C,U,d,n,R,U,y,L,u,,,,,5,19,119,15,5,0,5,0,,,,,0,15,15,30,,,,,,down,0.7005338666967873,3441.4105657067166,None,001,2,2019_Jun_04_1204,ACPT_experiment_5_30_19,3.1.0,59.956708546341595,
,,,C,U,d,n,R,D,g,L,i,,,,,5,19,119,15,5,0,5,0,,,,,0,16,16,2,,,,,,up,0.850663424304912,3443.3954256987718,None,001,2,2019_Jun_04_1204,ACPT_experiment_5_30_19,3.1.0,59.956708546341595,
,,,C,U,d,n,R,G,d,R,i,,,,,5,19,119,15,5,0,5,0,,,,,0,17,17,5,,,,,,up,0.950730980206572,3445.5304092112683,None,001,2,2019_Jun_04_1204,ACPT_experiment_5_30_19,3.1.0,59.956708546341595,
,,,C,U,d,n,L,U,g,L,u,,,,,5,19,119,15,5,0,5,0,,,,,0,18,18,22,,,,,,up,0.5504227224491842,3447.7654617889575,None,001,2,2019_Jun_04_1204,ACPT_experiment_5_30_19,3.1.0,59.956708546341595,
,,,C,U,d,n,R,G,d,L,i,,,,,5,19,119,15,5,0,5,0,,,,,0,19,19,4,,,,,,up,0.517065864286451,3449.600210033048,None,001,2,2019_Jun_04_1204,ACPT_experiment_5_30_19,3.1.0,59.956708546341595,
,,,C,U,d,n,R,D,y,R,y,,,,,5,19,119,15,5,0,5,0,,,,,0,20,20,27,,,,,,down,0.5003830582591036,3451.401599004109,None,001,2,2019_Jun_04_1204,ACPT_experiment_5_30_19,3.1.0,59.956708546341595,
,,,C,U,d,n,L,D,y,R,y,,,,,5,19,119,15,5,0,5,0,,,,,0,21,21,33,,,,,,down,0.6671875735773938,3453.2029686562355,None,001,2,2019_Jun_04_1204,ACPT_experiment_5_30_19,3.1.0,59.956708546341595,
,,,C,U,d,n,R,D,g,R,i,,,,,5,19,119,15,5,0,5,0,,,,,0,22,22,3,,,,,,up,0.7171252096404714,3455.17114825713,None,001,2,2019_Jun_04_1204,ACPT_experiment_5_30_19,3.1.0,59.956708546341595,
,,,C,U,d,n,L,G,d,L,i,,,,,5,19,119,15,5,0,5,0,,,,,0,23,23,16,,,,,,up,0.6338165280731118,3457.1727133927307,None,001,2,2019_Jun_04_1204,ACPT_experiment_5_30_19,3.1.0,59.956708546341595,
,,,C,U,d,n,R,U,g,R,u,,,,,5,19,119,15,5,0,5,0,,,,,0,24,24,11,,,,,,up,0.6504890709156825,3459.090864800055,None,001,2,2019_Jun_04_1204,ACPT_experiment_5_30_19,3.1.0,59.956708546341595,
,,,C,U,d,n,R,U,d,L,u,,,,,5,19,119,15,5,0,5,0,,,,,0,25,25,8,,,,,,up,0.5670910392736914,3461.009011377645,None,001,2,2019_Jun_04_1204,ACPT_experiment_5_30_19,3.1.0,59.956708546341595,
,,,C,U,d,n,L,D,g,R,i,,,,,5,19,119,15,5,0,5,0,,,,,0,26,26,15,,,,,,up,0.5003836619762296,3462.8604294478528,None,001,2,2019_Jun_04_1204,ACPT_experiment_5_30_19,3.1.0,59.956708546341595,
,,,C,U,d,n,L,U,d,L,u,,,,,5,19,119,15,5,0,5,0,,,,,0,27,27,20,,,,,,up,0.5168041530878327,3464.6620879784305,None,001,2,2019_Jun_04_1204,ACPT_experiment_5_30_19,3.1.0,59.956708546341595,
,,,C,U,d,n,R,D,d,R,c ,,,,,5,19,119,15,5,0,5,0,,,,,0,28,28,1,,,,,,up,0.5004026790529679,3466.4631841468818,None,001,2,2019_Jun_04_1204,ACPT_experiment_5_30_19,3.1.0,59.956708546341595,
,,,C,U,d,n,R,G,g,R,c ,,,,,5,19,119,15,5,0,5,0,,,,,0,29,29,7,,,,,,up,0.4169759708665879,3468.2479220070445,None,001,2,2019_Jun_04_1204,ACPT_experiment_5_30_19,3.1.0,59.956708546341595,
,,,C,U,d,n,L,G,g,L,c ,,,,,5,19,119,15,5,0,5,0,,,,,0,30,30,18,,,,,,up,0.5337450480137704,3469.932544919543,None,001,2,2019_Jun_04_1204,ACPT_experiment_5_30_19,3.1.0,59.956708546341595,
,,,C,U,d,n,R,G,y,L,y,,,,,5,19,119,15,5,0,5,0,,,,,0,31,31,28,,,,,,down,0.7469823219671525,3471.787540916901,None,001,2,2019_Jun_04_1204,ACPT_experiment_5_30_19,3.1.0,59.956708546341595,
,,,C,U,d,n,L,U,d,R,u,,,,,5,19,119,15,5,0,5,0,,,,,0,32,32,21,,,,,,up,0.5671010006008146,3473.8188783426285,None,001,2,2019_Jun_04_1204,ACPT_experiment_5_30_19,3.1.0,59.956708546341595,
,,,C,U,d,n,L,G,y,L,y,,,,,5,19,119,15,5,0,5,0,,,,,0,33,33,34,,,,,,down,0.6505183511771975,3475.6702855459353,None,001,2,2019_Jun_04_1204,ACPT_experiment_5_30_19,3.1.0,59.956708546341595,
,,,C,U,d,n,R,D,y,L,y,,,,,5,19,119,15,5,0,5,0,,,,,0,34,34,26,,,,,,down,0.5504257410320861,3477.605134852204,None,001,2,2019_Jun_04_1204,ACPT_experiment_5_30_19,3.1.0,59.956708546341595,
,,,C,U,d,n,R,G,y,R,y,,,,,5,19,119,15,5,0,5,0,,,,,0,35,35,29,,,,,,down,0.6004783851294633,3479.4231987809753,None,001,2,2019_Jun_04_1204,ACPT_experiment_5_30_19,3.1.0,59.956708546341595,
,,,C,U,d,n,L,G,y,L,y,,,,,5,19,119,15,5,0,5,0,,,,,1,0,36,34,,,,,,down,0.5170571103944894,3481.307982463237,None,001,2,2019_Jun_04_1204,ACPT_experiment_5_30_19,3.1.0,59.956708546341595,
,,,C,U,d,n,R,G,y,L,y,,,,,5,19,119,15,5,0,5,0,,,,,1,1,37,28,,,,,,down,0.5337387089884942,3483.092691646855,None,001,2,2019_Jun_04_1204,ACPT_experiment_5_30_19,3.1.0,59.956708546341595,
,,,C,U,d,n,L,U,g,L,u,,,,,5,19,119,15,5,0,5,0,,,,,1,2,38,22,,,,,,up,0.583511530386204,3484.9277064318776,None,001,2,2019_Jun_04_1204,ACPT_experiment_5_30_19,3.1.0,59.956708546341595,
,,,C,U,d,n,R,D,y,R,y,,,,,5,19,119,15,5,0,5,0,,,,,1,3,39,27,,,,,,down,0.8673604176756271,3486.7955193352354,None,001,2,2019_Jun_04_1204,ACPT_experiment_5_30_19,3.1.0,59.956708546341595,
,,,C,U,d,n,R,U,y,R,u,,,,,5,19,119,15,5,0,5,0,,,,,1,4,40,31,,,,,,down,0.550420609439243,3488.9472049726937,None,001,2,2019_Jun_04_1204,ACPT_experiment_5_30_19,3.1.0,59.956708546341595,
,,,C,U,d,n,R,D,d,L,c,,,,,5,19,119,15,5,0,5,0,,,,,1,5,41,0,,,,,,up,0.7005383945725043,3490.7819492926255,None,001,2,2019_Jun_04_1204,ACPT_experiment_5_30_19,3.1.0,59.956708546341595,
,,,C,U,d,n,L,G,g,R,c ,,,,,5,19,119,15,5,0,5,0,,,,,1,6,42,19,,,,,,up,0.5337396145632738,3492.7668116995474,None,001,2,2019_Jun_04_1204,ACPT_experiment_5_30_19,3.1.0,59.956708546341595,
,,,C,U,d,n,R,U,d,R,u,,,,,5,19,119,15,5,0,5,0,,,,,1,7,43,9,,,,,,up,0.4836963280740747,3494.5848813636276,None,001,2,2019_Jun_04_1204,ACPT_experiment_5_30_19,3.1.0,59.956708546341595,
,,,C,U,d,n,L,D,g,L,i,,,,,5,19,119,15,5,0,5,0,,,,,1,8,44,14,,,,,,up,0.7172145597160124,3496.352909552368,None,001,2,2019_Jun_04_1204,ACPT_experiment_5_30_19,3.1.0,59.956708546341595,
,,,C,U,d,n,L,D,y,R,y,,,,,5,19,119,15,5,0,5,0,,,,,1,9,45,33,,,,,,down,0.6171488149639117,3498.354433333374,None,001,2,2019_Jun_04_1204,ACPT_experiment_5_30_19,3.1.0,59.956708546341595,
,,,C,U,d,n,L,G,y,R,y,,,,,5,19,119,15,5,0,5,0,,,,,1,10,46,35,,,,,,down,0.6338065667478077,3500.272607983791,None,001,2,2019_Jun_04_1204,ACPT_experiment_5_30_19,3.1.0,59.956708546341595,
,,,C,U,d,n,R,D,g,R,i,,,,,5,19,119,15,5,0,5,0,,,,,1,11,47,3,,,,,,up,0.6338500343508713,3502.190715621653,None,001,2,2019_Jun_04_1204,ACPT_experiment_5_30_19,3.1.0,59.956708546341595,
,,,C,U,d,n,R,D,y,L,y,,,,,5,19,119,15,5,0,5,0,,,,,1,12,48,26,,,,,,down,0.4803698489386079,3504.1288992553755,None,001,2,2019_Jun_04_1204,ACPT_experiment_5_30_19,3.1.0,59.956708546341595,
,,,C,U,d,n,R,U,y,L,u,,,,,5,19,119,15,5,0,5,0,,,,,1,13,49,30,,,,,,down,0.6004412565525854,3505.8936112281654,None,001,2,2019_Jun_04_1204,ACPT_experiment_5_30_19,3.1.0,59.956708546341595,
,,,C,U,d,n,R,G,y,R,y,,,,,5,19,119,15,5,0,5,0,,,,,1,14,50,29,,,,,,down,0.5670889262664787,3507.795067151411,None,001,2,2019_Jun_04_1204,ACPT_experiment_5_30_19,3.1.0,59.956708546341595,
,,,C,U,d,n,R,D,g,L,i,,,,,5,19,119,15,5,0,5,0,,,,,1,15,51,2,,,,,,up,0.9173650662942237,3509.6631707443703,None,001,2,2019_Jun_04_1204,ACPT_experiment_5_30_19,3.1.0,59.956708546341595,
,,,C,U,d,n,L,G,d,R,i,,,,,5,19,119,15,5,0,5,0,,,,,1,16,52,17,,,,,,up,0.6671694620763446,3511.864869180624,None,001,2,2019_Jun_04_1204,ACPT_experiment_5_30_19,3.1.0,59.956708546341595,
,,,C,U,d,n,R,G,g,R,c ,,,,,5,19,119,15,5,0,5,0,,,,,1,17,53,7,,,,,,up,0.517078844196476,3513.8163496751404,None,001,2,2019_Jun_04_1204,ACPT_experiment_5_30_19,3.1.0,59.956708546341595,
,,,C,U,d,n,R,U,d,L,u,,,,,5,19,119,15,5,0,5,0,,,,,1,18,54,8,,,,,,up,0.5337411238551795,3515.617760681862,None,001,2,2019_Jun_04_1204,ACPT_experiment_5_30_19,3.1.0,59.956708546341595,
,,,C,U,d,n,L,U,y,R,u,,,,,5,19,119,15,5,0,5,0,,,,,1,19,55,25,,,,,,down,0.850438237968774,3517.4527642981247,None,001,2,2019_Jun_04_1204,ACPT_experiment_5_30_19,3.1.0,59.956708546341595,
,,,C,U,d,n,R,D,d,R,c ,,,,,5,19,119,15,5,0,5,0,,,,,1,20,56,1,,,,,,up,0.5003740025094885,3519.587485193848,None,001,2,2019_Jun_04_1204,ACPT_experiment_5_30_19,3.1.0,59.956708546341595,
,,,C,U,d,n,L,D,y,L,y,,,,,5,19,119,15,5,0,5,0,,,,,1,21,57,32,,,,,,down,0.600485026014212,3521.3721669083543,None,001,2,2019_Jun_04_1204,ACPT_experiment_5_30_19,3.1.0,59.956708546341595,
,,,C,U,d,n,L,U,y,L,u,,,,,5,19,119,15,5,0,5,0,,,,,1,22,58,24,,,,,,down,0.683843816069384,3523.2736611676128,None,001,2,2019_Jun_04_1204,ACPT_experiment_5_30_19,3.1.0,59.956708546341595,
,,,C,U,d,n,R,G,d,L,i,,,,,5,19,119,15,5,0,5,0,,,,,1,23,59,4,,,,,,up,0.6171352313385796,3525.275201852686,None,001,2,2019_Jun_04_1204,ACPT_experiment_5_30_19,3.1.0,59.956708546341595,
,,,C,U,d,n,L,U,d,L,u,,,,,5,19,119,15,5,0,5,0,,,,,1,24,60,20,,,,,,up,0.6004747628303448,3527.176653851773,None,001,2,2019_Jun_04_1204,ACPT_experiment_5_30_19,3.1.0,59.956708546341595,
,,,C,U,d,n,L,D,d,L,c ,,,,,5,19,119,15,5,0,5,0,,,,,1,25,61,12,,,,,,up,0.7672672038133896,3529.0614333080175,None,001,2,2019_Jun_04_1204,ACPT_experiment_5_30_19,3.1.0,59.956708546341595,
,,,C,U,d,n,L,U,d,R,u,,,,,5,19,119,15,5,0,5,0,,,,,1,26,62,21,,,,,,up,0.633541836965378,3531.129985945475,None,001,2,2019_Jun_04_1204,ACPT_experiment_5_30_19,3.1.0,59.956708546341595,
,,,C,U,d,n,R,U,g,R,u,,,,,5,19,119,15,5,0,5,0,,,,,1,27,63,11,,,,,,up,0.6838549848289404,3533.0478554170895,None,001,2,2019_Jun_04_1204,ACPT_experiment_5_30_19,3.1.0,59.956708546341595,
