facing_vig,person_vig,text_vig,facing_train,person_train,food_train,correct_key_train,facing_exp,person_exp,food_exp,showL_R,consistent,vig_random.thisRepN,vig_random.thisTrialN,vig_random.thisN,vig_random.thisIndex,trainTrials.thisRepN,trainTrials.thisTrialN,trainTrials.thisN,trainTrials.thisIndex,expBlock.thisRepN,expBlock.thisTrialN,expBlock.thisN,expBlock.thisIndex,breakLoop.thisRepN,breakLoop.thisTrialN,breakLoop.thisN,breakLoop.thisIndex,expTrials.thisRepN,expTrials.thisTrialN,expTrials.thisN,expTrials.thisIndex,train_resp.keys,train_resp.corr,train_resp.rt,train_resp.started,train_resp.stopped,exp_resp.keys,exp_resp.rt,exp_resp.started,exp_resp.stopped,session,participant,date,expName,psychopyVersion,frameRate,
C,G,"cannot eat dairy products because she is lactose intolerant. She enjoys eating wheat products. She thinks eating insects, like crickets, is disgusting.",,,,,,,,,,0,0,0,0,,,,,,,,,,,,,,,,,,,,,,,,,,001,3 ,2019_Jun_04_1333,ACPT_experiment_5_30_19,3.1.0,59.95475538976341,
C,U,"did not report her food preferences, so her food preferences are unknown.",,,,,,,,,,0,1,1,2,,,,,,,,,,,,,,,,,,,,,,,,,,001,3 ,2019_Jun_04_1333,ACPT_experiment_5_30_19,3.1.0,59.95475538976341,
C,D,"is allergic to gluten, meaning she can’t eat wheat products. She enjoys eating dairy products. She thinks eating insects, like crickets, is disgusting.",,,,,,,,,,0,2,2,1,,,,,,,,,,,,,,,,,,,,,,,,,,001,3 ,2019_Jun_04_1333,ACPT_experiment_5_30_19,3.1.0,59.95475538976341,
,,,C,G,y,b,,,,,,,,,,0,0,0,5,,,,,,,,,,,,,b,1,4.420120429411327,944.8647583986058,None,,,,,001,3 ,2019_Jun_04_1333,ACPT_experiment_5_30_19,3.1.0,59.95475538976341,
,,,C,G,g,v,,,,,,,,,,0,1,1,19,,,,,,,,,,,,,v,1,3.6361864180635166,952.5540260057005,None,,,,,001,3 ,2019_Jun_04_1333,ACPT_experiment_5_30_19,3.1.0,59.95475538976341,
,,,C,D,g,b,,,,,,,,,,0,2,2,10,,,,,,,,,,,,,b,1,2.7021234528256173,959.4760318424342,None,,,,,001,3 ,2019_Jun_04_1333,ACPT_experiment_5_30_19,3.1.0,59.95475538976341,
,,,C,D,d,v,,,,,,,,,,0,3,3,9,,,,,,,,,,,,,v,1,1.3010523989887588,965.4639777325119,None,,,,,001,3 ,2019_Jun_04_1333,ACPT_experiment_5_30_19,3.1.0,59.95475538976341,
,,,C,D,g,b,,,,,,,,,,0,4,4,1,,,,,,,,,,,,,b,1,2.2849002599596133,970.0678043305797,None,,,,,001,3 ,2019_Jun_04_1333,ACPT_experiment_5_30_19,3.1.0,59.95475538976341,
,,,C,U,y,n,,,,,,,,,,0,5,5,17,,,,,,,,,,,,,b,0,1.4344728888936515,975.6385071051427,None,,,,,001,3 ,2019_Jun_04_1333,ACPT_experiment_5_30_19,3.1.0,59.95475538976341,
,,,C,G,y,b,,,,,,,,,,0,6,6,14,,,,,,,,,,,,,b,1,1.4678206913031318,980.3755078766917,None,,,,,001,3 ,2019_Jun_04_1333,ACPT_experiment_5_30_19,3.1.0,59.95475538976341,
,,,C,U,g,n,,,,,,,,,,0,7,7,7,,,,,,,,,,,,,v,0,3.602850689987463,985.1291585517083,None,,,,,001,3 ,2019_Jun_04_1333,ACPT_experiment_5_30_19,3.1.0,59.95475538976341,
,,,C,U,d,n,,,,,,,,,,0,8,8,6,,,,,,,,,,,,,b,0,4.620277576874287,992.0010969532832,None,,,,,001,3 ,2019_Jun_04_1333,ACPT_experiment_5_30_19,3.1.0,59.95475538976341,
,,,C,D,y,b,,,,,,,,,,0,9,9,11,,,,,,,,,,,,,b,1,1.1843219597121788,999.9072020990025,None,,,,,001,3 ,2019_Jun_04_1333,ACPT_experiment_5_30_19,3.1.0,59.95475538976341,
,,,C,U,d,n,,,,,,,,,,0,10,10,15,,,,,,,,,,,,,v,0,1.534553424704427,1004.3773549480011,None,,,,,001,3 ,2019_Jun_04_1333,ACPT_experiment_5_30_19,3.1.0,59.95475538976341,
,,,C,D,d,v,,,,,,,,,,0,11,11,18,,,,,,,,,,,,,v,1,1.5178742409771075,1009.1977302062423,None,,,,,001,3 ,2019_Jun_04_1333,ACPT_experiment_5_30_19,3.1.0,59.95475538976341,
,,,C,G,g,v,,,,,,,,,,0,12,12,4,,,,,,,,,,,,,b,0,3.903018342121868,1014.0014449959726,None,,,,,001,3 ,2019_Jun_04_1333,ACPT_experiment_5_30_19,3.1.0,59.95475538976341,
,,,C,U,y,n,,,,,,,,,,0,13,13,8,,,,,,,,,,,,,n,1,3.1024289938577567,1021.2069891077426,None,,,,,001,3 ,2019_Jun_04_1333,ACPT_experiment_5_30_19,3.1.0,59.95475538976341,
,,,C,U,g,n,,,,,,,,,,0,14,14,16,,,,,,,,,,,,,n,1,1.5679190367591218,1027.595258952213,None,,,,,001,3 ,2019_Jun_04_1333,ACPT_experiment_5_30_19,3.1.0,59.95475538976341,
,,,C,G,d,b,,,,,,,,,,0,15,15,12,,,,,,,,,,,,,v,0,2.501997698631385,1032.4489913704729,None,,,,,001,3 ,2019_Jun_04_1333,ACPT_experiment_5_30_19,3.1.0,59.95475538976341,
,,,C,D,y,b,,,,,,,,,,0,16,16,2,,,,,,,,,,,,,b,1,1.6179982443918561,1038.2367970171563,None,,,,,001,3 ,2019_Jun_04_1333,ACPT_experiment_5_30_19,3.1.0,59.95475538976341,
,,,C,G,g,v,,,,,,,,,,0,17,17,13,,,,,,,,,,,,,v,1,2.2517933405215445,1043.1405639680124,None,,,,,001,3 ,2019_Jun_04_1333,ACPT_experiment_5_30_19,3.1.0,59.95475538976341,
,,,C,D,d,v,,,,,,,,,,0,18,18,0,,,,,,,,,,,,,v,1,1.83475820541571,1048.9617249635648,None,,,,,001,3 ,2019_Jun_04_1333,ACPT_experiment_5_30_19,3.1.0,59.95475538976341,
,,,C,G,d,b,,,,,,,,,,0,19,19,3,,,,,,,,,,,,,v,0,1.6846410240013938,1054.0823442441033,None,,,,,001,3 ,2019_Jun_04_1333,ACPT_experiment_5_30_19,3.1.0,59.95475538976341,
,,,C,G,d,b,,,,,,,,,,1,0,20,12,,,,,,,,,,,,,b,1,1.2009425829182874,1059.036154179592,None,,,,,001,3 ,2019_Jun_04_1333,ACPT_experiment_5_30_19,3.1.0,59.95475538976341,
,,,C,D,g,b,,,,,,,,,,1,1,21,10,,,,,,,,,,,,,b,1,5.770877127950371,1063.539883639638,None,,,,,001,3 ,2019_Jun_04_1333,ACPT_experiment_5_30_19,3.1.0,59.95475538976341,
,,,C,D,g,b,,,,,,,,,,1,2,22,1,,,,,,,,,,,,,b,1,1.3512010340473353,1072.5797835796293,None,,,,,001,3 ,2019_Jun_04_1333,ACPT_experiment_5_30_19,3.1.0,59.95475538976341,
,,,C,D,d,v,,,,,,,,,,1,3,23,0,,,,,,,,,,,,,v,1,1.0975234936358902,1077.2368540683856,None,,,,,001,3 ,2019_Jun_04_1333,ACPT_experiment_5_30_19,3.1.0,59.95475538976341,
,,,C,G,g,v,,,,,,,,,,1,4,24,13,,,,,,,,,,,,,v,1,2.1683479171169893,1081.6202404482956,None,,,,,001,3 ,2019_Jun_04_1333,ACPT_experiment_5_30_19,3.1.0,59.95475538976341,
,,,C,D,y,b,,,,,,,,,,1,5,25,11,,,,,,,,,,,,,b,1,2.10170694865883,1087.0744485349605,None,,,,,001,3 ,2019_Jun_04_1333,ACPT_experiment_5_30_19,3.1.0,59.95475538976341,
,,,C,D,d,v,,,,,,,,,,1,6,26,9,,,,,,,,,,,,,v,1,2.518625868297022,1092.4452507416663,None,,,,,001,3 ,2019_Jun_04_1333,ACPT_experiment_5_30_19,3.1.0,59.95475538976341,
,,,C,U,d,n,,,,,,,,,,1,7,27,6,,,,,,,,,,,,,n,1,1.0341435010486748,1098.2497228940247,None,,,,,001,3 ,2019_Jun_04_1333,ACPT_experiment_5_30_19,3.1.0,59.95475538976341,
,,,C,U,y,n,,,,,,,,,,1,8,28,8,,,,,,,,,,,,,n,1,0.7169501317912363,1102.5866713837058,None,,,,,001,3 ,2019_Jun_04_1333,ACPT_experiment_5_30_19,3.1.0,59.95475538976341,
,,,C,G,g,v,,,,,,,,,,1,9,29,19,,,,,,,,,,,,,v,1,1.1843820295252954,1106.5895194173409,None,,,,,001,3 ,2019_Jun_04_1333,ACPT_experiment_5_30_19,3.1.0,59.95475538976341,
,,,C,G,y,b,,,,,,,,,,1,10,30,5,,,,,,,,,,,,,b,1,1.3478775734929513,1111.0796190668225,None,,,,,001,3 ,2019_Jun_04_1333,ACPT_experiment_5_30_19,3.1.0,59.95475538976341,
,,,C,D,d,v,,,,,,,,,,1,11,31,18,,,,,,,,,,,,,v,1,2.9189347297706263,1115.729867858483,None,,,,,001,3 ,2019_Jun_04_1333,ACPT_experiment_5_30_19,3.1.0,59.95475538976341,
,,,C,G,g,v,,,,,,,,,,1,12,32,4,,,,,,,,,,,,,v,1,1.63459139848419,1121.9346612485097,None,,,,,001,3 ,2019_Jun_04_1333,ACPT_experiment_5_30_19,3.1.0,59.95475538976341,
,,,C,U,y,n,,,,,,,,,,1,13,33,17,,,,,,,,,,,,,n,1,1.000892897031008,1126.8551185518518,None,,,,,001,3 ,2019_Jun_04_1333,ACPT_experiment_5_30_19,3.1.0,59.95475538976341,
,,,C,U,g,n,,,,,,,,,,1,14,34,7,,,,,,,,,,,,,n,1,0.6138175060950744,1131.1617661974178,None,,,,,001,3 ,2019_Jun_04_1333,ACPT_experiment_5_30_19,3.1.0,59.95475538976341,
,,,C,U,d,n,,,,,,,,,,1,15,35,15,,,,,,,,,,,,,n,1,0.4670289168225281,1135.0614468916428,None,,,,,001,3 ,2019_Jun_04_1333,ACPT_experiment_5_30_19,3.1.0,59.95475538976341,
,,,C,G,d,b,,,,,,,,,,1,16,36,3,,,,,,,,,,,,,b,1,1.184017082767241,1138.8312512149805,None,,,,,001,3 ,2019_Jun_04_1333,ACPT_experiment_5_30_19,3.1.0,59.95475538976341,
,,,C,U,g,n,,,,,,,,,,1,17,37,16,,,,,,,,,,,,,n,1,0.5504178927149042,1143.301134806321,None,,,,,001,3 ,2019_Jun_04_1333,ACPT_experiment_5_30_19,3.1.0,59.95475538976341,
,,,C,G,y,b,,,,,,,,,,1,18,38,14,,,,,,,,,,,,,b,1,0.9504958325433108,1147.1543428966088,None,,,,,001,3 ,2019_Jun_04_1333,ACPT_experiment_5_30_19,3.1.0,59.95475538976341,
,,,C,D,y,b,,,,,,,,,,1,19,39,2,,,,,,,,,,,,,b,1,0.884026621492012,1151.3906943708243,None,,,,,001,3 ,2019_Jun_04_1333,ACPT_experiment_5_30_19,3.1.0,59.95475538976341,
,,,C,U,d,n,,,,,,,,,,2,0,40,15,,,,,,,,,,,,,n,1,0.4667847134096519,1155.5775072657307,None,,,,,001,3 ,2019_Jun_04_1333,ACPT_experiment_5_30_19,3.1.0,59.95475538976341,
,,,C,U,d,n,,,,,,,,,,2,1,41,6,,,,,,,,,,,,,n,1,0.5672543446471536,1159.3133292803814,None,,,,,001,3 ,2019_Jun_04_1333,ACPT_experiment_5_30_19,3.1.0,59.95475538976341,
,,,C,U,g,n,,,,,,,,,,2,2,42,7,,,,,,,,,,,,,n,1,0.5971331907749118,1163.186459720624,None,,,,,001,3 ,2019_Jun_04_1333,ACPT_experiment_5_30_19,3.1.0,59.95475538976341,
,,,C,D,y,b,,,,,,,,,,2,3,43,11,,,,,,,,,,,,,b,1,0.9340825860308541,1167.0694316490044,None,,,,,001,3 ,2019_Jun_04_1333,ACPT_experiment_5_30_19,3.1.0,59.95475538976341,
,,,C,D,g,b,,,,,,,,,,2,4,44,10,,,,,,,,,,,,,b,1,2.952269250412428,1171.2893891956446,None,,,,,001,3 ,2019_Jun_04_1333,ACPT_experiment_5_30_19,3.1.0,59.95475538976341,
,,,C,G,d,b,,,,,,,,,,2,5,45,3,,,,,,,,,,,,,b,1,1.084212445499361,1177.5275125784374,None,,,,,001,3 ,2019_Jun_04_1333,ACPT_experiment_5_30_19,3.1.0,59.95475538976341,
,,,C,G,d,b,,,,,,,,,,2,6,46,12,,,,,,,,,,,,,b,1,1.3174493451479066,1181.8977946831874,None,,,,,001,3 ,2019_Jun_04_1333,ACPT_experiment_5_30_19,3.1.0,59.95475538976341,
,,,C,G,y,b,,,,,,,,,,2,7,47,14,,,,,,,,,,,,,b,1,0.9007245204393257,1186.4844192788478,None,,,,,001,3 ,2019_Jun_04_1333,ACPT_experiment_5_30_19,3.1.0,59.95475538976341,
,,,C,D,y,b,,,,,,,,,,2,8,48,2,,,,,,,,,,,,,b,1,1.0505428620745079,1190.6879342987158,None,,,,,001,3 ,2019_Jun_04_1333,ACPT_experiment_5_30_19,3.1.0,59.95475538976341,
,,,C,G,y,b,,,,,,,,,,2,9,49,5,,,,,,,,,,,,,b,1,0.9507409415309667,1195.024342461933,None,,,,,001,3 ,2019_Jun_04_1333,ACPT_experiment_5_30_19,3.1.0,59.95475538976341,
,,,C,U,y,n,,,,,,,,,,2,10,50,8,,,,,,,,,,,,,n,1,0.5835145489691058,1199.2778883920964,None,,,,,001,3 ,2019_Jun_04_1333,ACPT_experiment_5_30_19,3.1.0,59.95475538976341,
,,,C,D,g,b,,,,,,,,,,2,11,51,1,,,,,,,,,,,,,b,1,3.1691387860209943,1203.147280014682,None,,,,,001,3 ,2019_Jun_04_1333,ACPT_experiment_5_30_19,3.1.0,59.95475538976341,
,,,C,U,y,n,,,,,,,,,,2,12,52,17,,,,,,,,,,,,,n,1,0.6004660089383833,1209.60225361415,None,,,,,001,3 ,2019_Jun_04_1333,ACPT_experiment_5_30_19,3.1.0,59.95475538976341,
,,,C,G,g,v,,,,,,,,,,2,13,53,4,,,,,,,,,,,,,v,1,2.21838848688094,1213.4885719443173,None,,,,,001,3 ,2019_Jun_04_1333,ACPT_experiment_5_30_19,3.1.0,59.95475538976341,
,,,C,U,g,n,,,,,,,,,,2,14,54,16,,,,,,,,,,,,,n,1,0.683873398189462,1218.99280339482,None,,,,,001,3 ,2019_Jun_04_1333,ACPT_experiment_5_30_19,3.1.0,59.95475538976341,
,,,C,D,d,v,,,,,,,,,,2,15,55,0,,,,,,,,,,,,,v,1,1.684642231433827,1222.9792155425657,None,,,,,001,3 ,2019_Jun_04_1333,ACPT_experiment_5_30_19,3.1.0,59.95475538976341,
,,,C,G,g,v,,,,,,,,,,2,16,56,13,,,,,,,,,,,,,v,1,1.267645130481469,1227.9497285085909,None,,,,,001,3 ,2019_Jun_04_1333,ACPT_experiment_5_30_19,3.1.0,59.95475538976341,
,,,C,D,d,v,,,,,,,,,,2,17,57,9,,,,,,,,,,,,,v,1,1.2840453970820818,1232.5201970410635,None,,,,,001,3 ,2019_Jun_04_1333,ACPT_experiment_5_30_19,3.1.0,59.95475538976341,
,,,C,D,d,v,,,,,,,,,,2,18,58,18,,,,,,,,,,,,,v,1,1.3510736498174083,1237.0900784590249,None,,,,,001,3 ,2019_Jun_04_1333,ACPT_experiment_5_30_19,3.1.0,59.95475538976341,
,,,C,G,g,v,,,,,,,,,,2,19,59,19,,,,,,,,,,,,,v,1,1.8011474843733595,1241.7439311376565,None,,,,,001,3 ,2019_Jun_04_1333,ACPT_experiment_5_30_19,3.1.0,59.95475538976341,
,,,C,G,d,b,,,,,,,,,,3,0,60,3,,,,,,,,,,,,,b,1,1.4678007686525234,1246.8142656450163,None,,,,,001,3 ,2019_Jun_04_1333,ACPT_experiment_5_30_19,3.1.0,59.95475538976341,
,,,C,G,y,b,,,,,,,,,,3,1,61,14,,,,,,,,,,,,,b,1,1.8347802410753502,1251.5512470976319,None,,,,,001,3 ,2019_Jun_04_1333,ACPT_experiment_5_30_19,3.1.0,59.95475538976341,
,,,C,G,y,b,,,,,,,,,,3,2,62,5,,,,,,,,,,,,,b,1,1.2176299168186233,1256.655185685151,None,,,,,001,3 ,2019_Jun_04_1333,ACPT_experiment_5_30_19,3.1.0,59.95475538976341,
,,,C,D,g,b,,,,,,,,,,3,3,63,10,,,,,,,,,,,,,b,1,2.3348949472529057,1261.1755810471586,None,,,,,001,3 ,2019_Jun_04_1333,ACPT_experiment_5_30_19,3.1.0,59.95475538976341,
,,,C,U,y,n,,,,,,,,,,3,4,64,8,,,,,,,,,,,,,n,1,0.5503071106959396,1266.7964230991674,None,,,,,001,3 ,2019_Jun_04_1333,ACPT_experiment_5_30_19,3.1.0,59.95475538976341,
,,,C,U,d,n,,,,,,,,,,3,5,65,6,,,,,,,,,,,,,n,1,0.5668528730275284,1270.6495508951302,None,,,,,001,3 ,2019_Jun_04_1333,ACPT_experiment_5_30_19,3.1.0,59.95475538976341,
,,,C,G,g,v,,,,,,,,,,3,6,66,19,,,,,,,,,,,,,v,1,1.3343666951222986,1274.5022754083238,None,,,,,001,3 ,2019_Jun_04_1333,ACPT_experiment_5_30_19,3.1.0,59.95475538976341,
,,,C,D,y,b,,,,,,,,,,3,7,67,2,,,,,,,,,,,,,b,1,1.2843197863330715,1279.1225137436104,None,,,,,001,3 ,2019_Jun_04_1333,ACPT_experiment_5_30_19,3.1.0,59.95475538976341,
,,,C,D,d,v,,,,,,,,,,3,8,68,0,,,,,,,,,,,,,v,1,1.2509629281703383,1283.6760166287731,None,,,,,001,3 ,2019_Jun_04_1333,ACPT_experiment_5_30_19,3.1.0,59.95475538976341,
,,,C,G,d,b,,,,,,,,,,3,9,69,12,,,,,,,,,,,,,b,1,1.1175306657914916,1288.2128463673762,None,,,,,001,3 ,2019_Jun_04_1333,ACPT_experiment_5_30_19,3.1.0,59.95475538976341,
,,,C,D,y,b,,,,,,,,,,3,10,70,11,,,,,,,,,,,,,b,1,0.9674261624259088,1292.6162314674057,None,,,,,001,3 ,2019_Jun_04_1333,ACPT_experiment_5_30_19,3.1.0,59.95475538976341,
,,,C,U,g,n,,,,,,,,,,3,11,71,7,,,,,,,,,,,,,n,1,0.38339573751727585,1296.886438771653,None,,,,,001,3 ,2019_Jun_04_1333,ACPT_experiment_5_30_19,3.1.0,59.95475538976341,
,,,C,G,g,v,,,,,,,,,,3,12,72,13,,,,,,,,,,,,,v,1,1.5845888628755347,1300.5556653984586,None,,,,,001,3 ,2019_Jun_04_1333,ACPT_experiment_5_30_19,3.1.0,59.95475538976341,
,,,C,G,g,v,,,,,,,,,,3,13,73,4,,,,,,,,,,,,,v,1,1.0674955294780375,1305.4094361527295,None,,,,,001,3 ,2019_Jun_04_1333,ACPT_experiment_5_30_19,3.1.0,59.95475538976341,
,,,C,D,d,v,,,,,,,,,,3,14,74,9,,,,,,,,,,,,,v,1,1.0672247625279851,1309.7797390857068,None,,,,,001,3 ,2019_Jun_04_1333,ACPT_experiment_5_30_19,3.1.0,59.95475538976341,
,,,C,U,g,n,,,,,,,,,,3,15,75,16,,,,,,,,,,,,,n,1,0.500399660470066,1314.1328225084908,None,,,,,001,3 ,2019_Jun_04_1333,ACPT_experiment_5_30_19,3.1.0,59.95475538976341,
,,,C,U,y,n,,,,,,,,,,3,16,76,17,,,,,,,,,,,,,n,1,0.5471007711876155,1317.9390867939383,None,,,,,001,3 ,2019_Jun_04_1333,ACPT_experiment_5_30_19,3.1.0,59.95475538976341,
,,,C,U,d,n,,,,,,,,,,3,17,77,15,,,,,,,,,,,,,n,1,0.4170167217453127,1321.755343496703,None,,,,,001,3 ,2019_Jun_04_1333,ACPT_experiment_5_30_19,3.1.0,59.95475538976341,
,,,C,D,d,v,,,,,,,,,,3,18,78,18,,,,,,,,,,,,,v,1,1.000803848815849,1325.4748944401308,None,,,,,001,3 ,2019_Jun_04_1333,ACPT_experiment_5_30_19,3.1.0,59.95475538976341,
,,,C,D,g,b,,,,,,,,,,3,19,79,1,,,,,,,,,,,,,b,1,1.234297931787296,1329.7615424600008,None,,,,,001,3 ,2019_Jun_04_1333,ACPT_experiment_5_30_19,3.1.0,59.95475538976341,
,,,C,U,g,n,,,,,,,,,,4,0,80,16,,,,,,,,,,,,,n,1,0.5168325277736585,1334.2986100629914,None,,,,,001,3 ,2019_Jun_04_1333,ACPT_experiment_5_30_19,3.1.0,59.95475538976341,
,,,C,D,d,v,,,,,,,,,,4,1,81,18,,,,,,,,,,,,,v,1,0.8673459284746059,1338.101304873322,None,,,,,001,3 ,2019_Jun_04_1333,ACPT_experiment_5_30_19,3.1.0,59.95475538976341,
,,,C,U,d,n,,,,,,,,,,4,2,82,15,,,,,,,,,,,,,n,1,1.067087115114191,1342.2715599315616,None,,,,,001,3 ,2019_Jun_04_1333,ACPT_experiment_5_30_19,3.1.0,59.95475538976341,
,,,C,D,g,b,,,,,,,,,,4,3,83,10,,,,,,,,,,,,,b,1,1.0174468095374323,1346.6245479671052,None,,,,,001,3 ,2019_Jun_04_1333,ACPT_experiment_5_30_19,3.1.0,59.95475538976341,
,,,C,D,d,v,,,,,,,,,,4,4,84,0,,,,,,,,,,,,,v,1,0.8306508187015424,1350.947861514629,None,,,,,001,3 ,2019_Jun_04_1333,ACPT_experiment_5_30_19,3.1.0,59.95475538976341,
,,,C,G,d,b,,,,,,,,,,4,5,85,12,,,,,,,,,,,,,b,1,1.3010010830676038,1355.0643939348192,None,,,,,001,3 ,2019_Jun_04_1333,ACPT_experiment_5_30_19,3.1.0,59.95475538976341,
,,,C,G,g,v,,,,,,,,,,4,6,86,4,,,,,,,,,,,,,v,1,1.0505413527844212,1359.651519313502,None,,,,,001,3 ,2019_Jun_04_1333,ACPT_experiment_5_30_19,3.1.0,59.95475538976341,
,,,C,G,d,b,,,,,,,,,,4,7,87,3,,,,,,,,,,,,,b,1,2.418542313900616,1363.9712410483899,None,,,,,001,3 ,2019_Jun_04_1333,ACPT_experiment_5_30_19,3.1.0,59.95475538976341,
,,,C,D,y,b,,,,,,,,,,4,8,88,2,,,,,,,,,,,,,b,1,0.9173807629285875,1369.6756435318384,None,,,,,001,3 ,2019_Jun_04_1333,ACPT_experiment_5_30_19,3.1.0,59.95475538976341,
,,,C,U,d,n,,,,,,,,,,4,9,89,6,,,,,,,,,,,,,n,1,0.5671082452008704,1373.8788805401564,None,,,,,001,3 ,2019_Jun_04_1333,ACPT_experiment_5_30_19,3.1.0,59.95475538976341,
,,,C,D,y,b,,,,,,,,,,4,10,90,11,,,,,,,,,,,,,b,1,1.050819666192183,1377.731851369772,None,,,,,001,3 ,2019_Jun_04_1333,ACPT_experiment_5_30_19,3.1.0,59.95475538976341,
,,,C,U,y,n,,,,,,,,,,4,11,91,8,,,,,,,,,,,,,n,1,0.5667203572065773,1382.0856012958175,None,,,,,001,3 ,2019_Jun_04_1333,ACPT_experiment_5_30_19,3.1.0,59.95475538976341,
,,,C,D,d,v,,,,,,,,,,4,12,92,9,,,,,,,,,,,,,v,1,0.7672602610709873,1385.9381800114224,None,,,,,001,3 ,2019_Jun_04_1333,ACPT_experiment_5_30_19,3.1.0,59.95475538976341,
,,,C,G,g,v,,,,,,,,,,4,13,93,13,,,,,,,,,,,,,v,1,0.883550288999686,1390.00842486685,None,,,,,001,3 ,2019_Jun_04_1333,ACPT_experiment_5_30_19,3.1.0,59.95475538976341,
,,,C,G,y,b,,,,,,,,,,4,14,94,5,,,,,,,,,,,,,b,1,0.8006213452499651,1394.1611836107804,None,,,,,001,3 ,2019_Jun_04_1333,ACPT_experiment_5_30_19,3.1.0,59.95475538976341,
,,,C,G,g,v,,,,,,,,,,4,15,95,19,,,,,,,,,,,,,v,1,0.8170475716706278,1398.247933175804,None,,,,,001,3 ,2019_Jun_04_1333,ACPT_experiment_5_30_19,3.1.0,59.95475538976341,
,,,C,D,g,b,,,,,,,,,,4,16,96,1,,,,,,,,,,,,,b,1,1.100862047105693,1402.350821899945,None,,,,,001,3 ,2019_Jun_04_1333,ACPT_experiment_5_30_19,3.1.0,59.95475538976341,
,,,C,U,g,n,,,,,,,,,,4,17,97,7,,,,,,,,,,,,,n,1,0.5001445901543775,1406.7544696167479,None,,,,,001,3 ,2019_Jun_04_1333,ACPT_experiment_5_30_19,3.1.0,59.95475538976341,
,,,C,G,y,b,,,,,,,,,,4,18,98,14,,,,,,,,,,,,,b,1,0.8506607075796637,1410.5404755838845,None,,,,,001,3 ,2019_Jun_04_1333,ACPT_experiment_5_30_19,3.1.0,59.95475538976341,
,,,C,U,y,n,,,,,,,,,,4,19,99,17,,,,,,,,,,,,,n,1,0.5504139685563132,1414.6936840967737,None,,,,,001,3 ,2019_Jun_04_1333,ACPT_experiment_5_30_19,3.1.0,59.95475538976341,
,,,C,D,d,v,,,,,,,,,,5,0,100,18,,,,,,,,,,,,,v,1,1.1342128681026225,1418.529965479478,None,,,,,001,3 ,2019_Jun_04_1333,ACPT_experiment_5_30_19,3.1.0,59.95475538976341,
,,,C,U,d,n,,,,,,,,,,5,1,101,15,,,,,,,,,,,,,n,1,0.6168720108471462,1422.9669893733771,None,,,,,001,3 ,2019_Jun_04_1333,ACPT_experiment_5_30_19,3.1.0,59.95475538976341,
,,,C,G,d,b,,,,,,,,,,5,2,102,3,,,,,,,,,,,,,b,1,1.3676966878902022,1426.8697550600518,None,,,,,001,3 ,2019_Jun_04_1333,ACPT_experiment_5_30_19,3.1.0,59.95475538976341,
,,,C,U,d,n,,,,,,,,,,5,3,103,6,,,,,,,,,,,,,n,1,0.5001171210442408,1431.5402642830322,None,,,,,001,3 ,2019_Jun_04_1333,ACPT_experiment_5_30_19,3.1.0,59.95475538976341,
,,,C,G,g,v,,,,,,,,,,5,4,104,4,,,,,,,,,,,,,b,0,1.2843255216412217,1435.3262494219416,None,,,,,001,3 ,2019_Jun_04_1333,ACPT_experiment_5_30_19,3.1.0,59.95475538976341,
,,,C,G,d,b,,,,,,,,,,5,5,105,12,,,,,,,,,,,,,b,1,2.2684390179692855,1439.8797453643601,None,,,,,001,3 ,2019_Jun_04_1333,ACPT_experiment_5_30_19,3.1.0,59.95475538976341,
,,,C,D,g,b,,,,,,,,,,5,6,106,1,,,,,,,,,,,,,b,1,1.467810126261611,1445.4340339868359,None,,,,,001,3 ,2019_Jun_04_1333,ACPT_experiment_5_30_19,3.1.0,59.95475538976341,
,,,C,G,g,v,,,,,,,,,,5,7,107,13,,,,,,,,,,,,,v,1,1.2176127108923538,1450.1876982454778,None,,,,,001,3 ,2019_Jun_04_1333,ACPT_experiment_5_30_19,3.1.0,59.95475538976341,
,,,C,U,y,n,,,,,,,,,,5,8,108,8,,,,,,,,,,,,,n,1,0.7503516649903759,1454.7081210765955,None,,,,,001,3 ,2019_Jun_04_1333,ACPT_experiment_5_30_19,3.1.0,59.95475538976341,
,,,C,D,y,b,,,,,,,,,,5,9,109,2,,,,,,,,,,,,,b,1,0.8173050568530016,1458.7442945751227,None,,,,,001,3 ,2019_Jun_04_1333,ACPT_experiment_5_30_19,3.1.0,59.95475538976341,
,,,C,G,y,b,,,,,,,,,,5,10,110,5,,,,,,,,,,,,,b,1,1.0506678314377496,1462.864256408151,None,,,,,001,3 ,2019_Jun_04_1333,ACPT_experiment_5_30_19,3.1.0,59.95475538976341,
,,,C,D,g,b,,,,,,,,,,5,11,111,10,,,,,,,,,,,,,b,1,1.6512672617700446,1467.2174998158662,None,,,,,001,3 ,2019_Jun_04_1333,ACPT_experiment_5_30_19,3.1.0,59.95475538976341,
,,,C,U,g,n,,,,,,,,,,5,12,112,7,,,,,,,,,,,,,n,1,0.46705729151108244,1472.1546091356831,None,,,,,001,3 ,2019_Jun_04_1333,ACPT_experiment_5_30_19,3.1.0,59.95475538976341,
,,,C,D,d,v,,,,,,,,,,5,13,113,9,,,,,,,,,,,,,v,1,0.9838330699112703,1475.9244711139654,None,,,,,001,3 ,2019_Jun_04_1333,ACPT_experiment_5_30_19,3.1.0,59.95475538976341,
,,,C,D,d,v,,,,,,,,,,5,14,114,0,,,,,,,,,,,,,v,1,1.0509687842222775,1480.1773309200762,None,,,,,001,3 ,2019_Jun_04_1333,ACPT_experiment_5_30_19,3.1.0,59.95475538976341,
,,,C,U,y,n,,,,,,,,,,5,15,115,17,,,,,,,,,,,,,n,1,0.5170842776478821,1484.5141438753544,None,,,,,001,3 ,2019_Jun_04_1333,ACPT_experiment_5_30_19,3.1.0,59.95475538976341,
,,,C,D,y,b,,,,,,,,,,5,16,116,11,,,,,,,,,,,,,b,1,0.8506601038625377,1488.3170907374151,None,,,,,001,3 ,2019_Jun_04_1333,ACPT_experiment_5_30_19,3.1.0,59.95475538976341,
,,,C,U,g,n,,,,,,,,,,5,17,117,16,,,,,,,,,,,,,n,1,0.5337260309370322,1492.4869893009327,None,,,,,001,3 ,2019_Jun_04_1333,ACPT_experiment_5_30_19,3.1.0,59.95475538976341,
,,,C,G,g,v,,,,,,,,,,5,18,118,19,,,,,,,,,,,,,v,1,1.0674919071771,1496.3065866701763,None,,,,,001,3 ,2019_Jun_04_1333,ACPT_experiment_5_30_19,3.1.0,59.95475538976341,
,,,C,G,y,b,,,,,,,,,,5,19,119,14,0,0,0,0,0,0,0,0,,,,,b,1,1.5979237578230823,1500.6799368633056,None,,,,,001,3 ,2019_Jun_04_1333,ACPT_experiment_5_30_19,3.1.0,59.95475538976341,
,,,C,G,y,b,R,G,d,L,i,,,,,5,19,119,14,0,0,0,0,,,,,0,0,0,4,,,,,,up,1.1008475579055812,1566.5774188212308,None,001,3 ,2019_Jun_04_1333,ACPT_experiment_5_30_19,3.1.0,59.95475538976341,
,,,C,G,y,b,R,D,y,R,y,,,,,5,19,119,14,0,0,0,0,,,,,0,1,1,27,,,,,,down,0.7172184838727844,1568.9625840524604,None,001,3 ,2019_Jun_04_1333,ACPT_experiment_5_30_19,3.1.0,59.95475538976341,
,,,C,G,y,b,R,G,g,R,c ,,,,,5,19,119,14,0,0,0,0,,,,,0,2,2,7,,,,,,up,0.9340376091367943,1570.9641443583278,None,001,3 ,2019_Jun_04_1333,ACPT_experiment_5_30_19,3.1.0,59.95475538976341,
,,,C,G,y,b,L,G,g,L,c ,,,,,5,19,119,14,0,0,0,0,,,,,0,3,3,18,,,,,,up,1.0174431872364949,1573.182515337423,None,001,3 ,2019_Jun_04_1333,ACPT_experiment_5_30_19,3.1.0,59.95475538976341,
,,,C,G,y,b,R,G,g,L,c ,,,,,5,19,119,14,0,0,0,0,,,,,0,4,4,6,,,,,,up,0.7505723234535253,1575.4842903853278,None,001,3 ,2019_Jun_04_1333,ACPT_experiment_5_30_19,3.1.0,59.95475538976341,
,,,C,G,y,b,L,D,y,L,y,,,,,5,19,119,14,0,0,0,0,,,,,0,5,5,32,,,,,,down,0.6503266711169999,1577.5360041559852,None,001,3 ,2019_Jun_04_1333,ACPT_experiment_5_30_19,3.1.0,59.95475538976341,
,,,C,G,y,b,R,U,y,L,u,,,,,5,19,119,14,0,0,0,0,,,,,0,6,6,30,,,,,,down,0.7172202950241626,1579.4873853391018,None,001,3 ,2019_Jun_04_1333,ACPT_experiment_5_30_19,3.1.0,59.95475538976341,
,,,C,G,y,b,L,D,d,L,c ,,,,,5,19,119,14,0,0,0,0,,,,,0,7,7,12,,,,,,up,0.7338958564505447,1581.4889133461238,None,001,3 ,2019_Jun_04_1333,ACPT_experiment_5_30_19,3.1.0,59.95475538976341,
,,,C,G,y,b,L,D,y,R,y,,,,,5,19,119,14,0,0,0,0,,,,,0,8,8,33,,,,,,down,0.6504996359599318,1583.507134422358,None,001,3 ,2019_Jun_04_1333,ACPT_experiment_5_30_19,3.1.0,59.95475538976341,
,,,C,G,y,b,R,G,y,L,y,,,,,5,19,119,14,0,0,0,0,,,,,0,9,9,28,,,,,,down,0.7005362815634726,1585.4419616929663,None,001,3 ,2019_Jun_04_1333,ACPT_experiment_5_30_19,3.1.0,59.95475538976341,
,,,C,G,y,b,R,U,d,L,u,,,,,5,19,119,14,0,0,0,0,,,,,0,10,10,8,,,,,,up,0.7005420168716228,1587.4268213831638,None,001,3 ,2019_Jun_04_1333,ACPT_experiment_5_30_19,3.1.0,59.95475538976341,
,,,C,G,y,b,L,G,d,R,i,,,,,5,19,119,14,0,0,0,0,,,,,0,11,11,17,,,,,,up,0.667176404818747,1589.4116856012351,None,001,3 ,2019_Jun_04_1333,ACPT_experiment_5_30_19,3.1.0,59.95475538976341,
,,,C,G,y,b,R,U,d,R,u,,,,,5,19,119,14,0,0,0,0,,,,,0,12,12,9,,,,,,up,0.5504423432412295,1591.363166699468,None,001,3 ,2019_Jun_04_1333,ACPT_experiment_5_30_19,3.1.0,59.95475538976341,
,,,C,G,y,b,R,D,d,R,c ,,,,,5,19,119,14,0,0,0,0,,,,,0,13,13,1,,,,,,up,0.5337341811118677,1593.1979415070946,None,001,3 ,2019_Jun_04_1333,ACPT_experiment_5_30_19,3.1.0,59.95475538976341,
,,,C,G,y,b,L,U,d,R,u,,,,,5,19,119,14,0,0,0,0,,,,,0,14,14,21,,,,,,up,0.500404188345783,1594.9993096499293,None,001,3 ,2019_Jun_04_1333,ACPT_experiment_5_30_19,3.1.0,59.95475538976341,
,,,C,G,y,b,L,G,y,R,y,,,,,5,19,119,14,0,0,0,0,,,,,0,15,15,35,,,,,,down,0.633821961522699,1596.7840348320406,None,001,3 ,2019_Jun_04_1333,ACPT_experiment_5_30_19,3.1.0,59.95475538976341,
,,,C,G,y,b,R,D,d,L,c,,,,,5,19,119,14,0,0,0,0,,,,,0,16,16,0,,,,,,up,0.6168638606723107,1598.7191340770314,None,001,3 ,2019_Jun_04_1333,ACPT_experiment_5_30_19,3.1.0,59.95475538976341,
,,,C,G,y,b,L,U,y,L,u,,,,,5,19,119,14,0,0,0,0,,,,,0,17,17,24,,,,,,down,0.5003981511781603,1600.6203092720025,None,001,3 ,2019_Jun_04_1333,ACPT_experiment_5_30_19,3.1.0,59.95475538976341,
,,,C,G,y,b,L,D,g,L,i,,,,,5,19,119,14,0,0,0,0,,,,,0,18,18,14,,,,,,up,0.6004433695616171,1602.405040793139,None,001,3 ,2019_Jun_04_1333,ACPT_experiment_5_30_19,3.1.0,59.95475538976341,
,,,C,G,y,b,L,G,d,L,i,,,,,5,19,119,14,0,0,0,0,,,,,0,19,19,16,,,,,,up,0.5170649587107619,1604.2898268902663,None,001,3 ,2019_Jun_04_1333,ACPT_experiment_5_30_19,3.1.0,59.95475538976341,
,,,C,G,y,b,L,D,d,R,c ,,,,,5,19,119,14,0,0,0,0,,,,,0,20,20,13,,,,,,up,0.6304864266367076,1606.1112224297667,None,001,3 ,2019_Jun_04_1333,ACPT_experiment_5_30_19,3.1.0,59.95475538976341,
,,,C,G,y,b,L,G,y,L,y,,,,,5,19,119,14,0,0,0,0,,,,,0,21,21,34,,,,,,down,0.6670037418371066,1608.0428804894455,None,001,3 ,2019_Jun_04_1333,ACPT_experiment_5_30_19,3.1.0,59.95475538976341,
,,,C,G,y,b,L,G,g,R,c ,,,,,5,19,119,14,0,0,0,0,,,,,0,22,22,19,,,,,,up,1.034141388041462,1610.0108988979755,None,001,3 ,2019_Jun_04_1333,ACPT_experiment_5_30_19,3.1.0,59.95475538976341,
,,,C,G,y,b,R,D,g,L,i,,,,,5,19,119,14,0,0,0,0,,,,,0,23,23,2,,,,,,up,0.6504990322428057,1612.3293531296076,None,001,3 ,2019_Jun_04_1333,ACPT_experiment_5_30_19,3.1.0,59.95475538976341,
,,,C,G,y,b,R,D,g,R,i,,,,,5,19,119,14,0,0,0,0,,,,,0,24,24,3,,,,,,up,0.8173129051701835,1614.2474752566704,None,001,3 ,2019_Jun_04_1333,ACPT_experiment_5_30_19,3.1.0,59.95475538976341,
,,,C,G,y,b,R,U,y,R,u,,,,,5,19,119,14,0,0,0,0,,,,,0,25,25,31,,,,,,down,0.650496919233774,1616.3491185132152,None,001,3 ,2019_Jun_04_1333,ACPT_experiment_5_30_19,3.1.0,59.95475538976341,
,,,C,G,y,b,L,U,y,R,u,,,,,5,19,119,14,0,0,0,0,,,,,0,26,26,25,,,,,,down,0.4837047801083827,1618.2839430670974,None,001,3 ,2019_Jun_04_1333,ACPT_experiment_5_30_19,3.1.0,59.95475538976341,
,,,C,G,y,b,R,U,g,R,u,,,,,5,19,119,14,0,0,0,0,,,,,0,27,27,11,,,,,,up,0.517066166146833,1620.0519694446884,None,001,3 ,2019_Jun_04_1333,ACPT_experiment_5_30_19,3.1.0,59.95475538976341,
,,,C,G,y,b,L,D,g,R,i,,,,,5,19,119,14,0,0,0,0,,,,,0,28,28,15,,,,,,up,0.46701291833051073,1621.853366565927,None,001,3 ,2019_Jun_04_1333,ACPT_experiment_5_30_19,3.1.0,59.95475538976341,
,,,C,G,y,b,L,U,d,L,u,,,,,5,19,119,14,0,0,0,0,,,,,0,29,29,20,,,,,,up,0.7172088244060433,1623.6047119486411,None,001,3 ,2019_Jun_04_1333,ACPT_experiment_5_30_19,3.1.0,59.95475538976341,
,,,C,G,y,b,R,G,y,R,y,,,,,5,19,119,14,0,0,0,0,,,,,0,30,30,29,,,,,,down,0.7001308857852564,1625.6233076311,None,001,3 ,2019_Jun_04_1333,ACPT_experiment_5_30_19,3.1.0,59.95475538976341,
,,,C,G,y,b,R,D,y,L,y,,,,,5,19,119,14,0,0,0,0,,,,,0,31,31,26,,,,,,down,0.6838492495207902,1627.6244764266721,None,001,3 ,2019_Jun_04_1333,ACPT_experiment_5_30_19,3.1.0,59.95475538976341,
,,,C,G,y,b,L,U,g,R,u,,,,,5,19,119,14,0,0,0,0,,,,,0,32,32,23,,,,,,up,0.5171102374642942,1629.6093397391705,None,001,3 ,2019_Jun_04_1333,ACPT_experiment_5_30_19,3.1.0,59.95475538976341,
,,,C,G,y,b,L,U,g,L,u,,,,,5,19,119,14,0,0,0,0,,,,,0,33,33,22,,,,,,up,0.6171569651414757,1631.3940280945608,None,001,3 ,2019_Jun_04_1333,ACPT_experiment_5_30_19,3.1.0,59.95475538976341,
,,,C,G,y,b,R,U,g,L,u,,,,,5,19,119,14,0,0,0,0,,,,,0,34,34,10,,,,,,up,0.5668229890507064,1633.3124647580353,None,001,3 ,2019_Jun_04_1333,ACPT_experiment_5_30_19,3.1.0,59.95475538976341,
,,,C,G,y,b,R,G,d,R,i,,,,,5,19,119,14,0,0,0,0,,,,,0,35,35,5,,,,,,up,0.5670910392727819,1635.1636223244786,None,001,3 ,2019_Jun_04_1333,ACPT_experiment_5_30_19,3.1.0,59.95475538976341,
,,,C,G,y,b,L,U,g,L,u,,,,,5,19,119,14,0,0,0,0,,,,,1,0,36,22,,,,,,up,0.5337263327965047,1637.0317301434552,None,001,3 ,2019_Jun_04_1333,ACPT_experiment_5_30_19,3.1.0,59.95475538976341,
,,,C,G,y,b,L,G,d,R,i,,,,,5,19,119,14,0,0,0,0,,,,,1,1,37,17,,,,,,up,0.5837741471586924,1638.849796487093,None,001,3 ,2019_Jun_04_1333,ACPT_experiment_5_30_19,3.1.0,59.95475538976341,
,,,C,G,y,b,R,G,y,R,y,,,,,5,19,119,14,0,0,0,0,,,,,1,2,38,29,,,,,,down,0.5835746187822224,1640.7347483044614,None,001,3 ,2019_Jun_04_1333,ACPT_experiment_5_30_19,3.1.0,59.95475538976341,
,,,C,G,y,b,R,U,d,R,u,,,,,5,19,119,14,0,0,0,0,,,,,1,3,39,9,,,,,,up,0.6338120001983043,1642.6193680776323,None,001,3 ,2019_Jun_04_1333,ACPT_experiment_5_30_19,3.1.0,59.95475538976341,
,,,C,G,y,b,R,D,y,R,y,,,,,5,19,119,14,0,0,0,0,,,,,1,4,40,27,,,,,,down,0.6171225532871176,1644.554197159392,None,001,3 ,2019_Jun_04_1333,ACPT_experiment_5_30_19,3.1.0,59.95475538976341,
,,,C,G,y,b,R,G,d,L,i,,,,,5,19,119,14,0,0,0,0,,,,,1,5,41,4,,,,,,up,0.8170228192848299,1646.4892674259809,None,001,3 ,2019_Jun_04_1333,ACPT_experiment_5_30_19,3.1.0,59.95475538976341,
,,,C,G,y,b,R,G,g,L,c ,,,,,5,19,119,14,0,0,0,0,,,,,1,6,42,6,,,,,,up,0.683881246506644,1648.5739320553057,None,001,3 ,2019_Jun_04_1333,ACPT_experiment_5_30_19,3.1.0,59.95475538976341,
,,,C,G,y,b,R,U,g,L,u,,,,,5,19,119,14,0,0,0,0,,,,,1,7,43,10,,,,,,up,1.0007715499705228,1650.542140030886,None,001,3 ,2019_Jun_04_1333,ACPT_experiment_5_30_19,3.1.0,59.95475538976341,
,,,C,G,y,b,L,D,y,R,y,,,,,5,19,119,14,0,0,0,0,,,,,1,8,44,33,,,,,,down,0.6004608773455402,1652.8272343857716,None,001,3 ,2019_Jun_04_1333,ACPT_experiment_5_30_19,3.1.0,59.95475538976341,
,,,C,G,y,b,L,D,d,L,c ,,,,,5,19,119,14,0,0,0,0,,,,,1,9,45,12,,,,,,up,0.5336961469602102,1654.7120545928956,None,001,3 ,2019_Jun_04_1333,ACPT_experiment_5_30_19,3.1.0,59.95475538976341,
,,,C,G,y,b,R,U,y,R,u,,,,,5,19,119,14,0,0,0,0,,,,,1,10,46,31,,,,,,down,0.7005589209402387,1656.5300656964537,None,001,3 ,2019_Jun_04_1333,ACPT_experiment_5_30_19,3.1.0,59.95475538976341,
,,,C,G,y,b,R,G,g,R,c ,,,,,5,19,119,14,0,0,0,0,,,,,1,11,47,7,,,,,,up,0.5170860887974413,1658.5149271978007,None,001,3 ,2019_Jun_04_1333,ACPT_experiment_5_30_19,3.1.0,59.95475538976341,
,,,C,G,y,b,R,U,d,L,u,,,,,5,19,119,14,0,0,0,0,,,,,1,12,48,8,,,,,,down,0.6168677848309017,1660.333290871924,None,001,3 ,2019_Jun_04_1333,ACPT_experiment_5_30_19,3.1.0,59.95475538976341,
,,,C,G,y,b,R,D,d,R,c ,,,,,5,19,119,14,0,0,0,0,,,,,1,13,49,1,,,,,,up,0.717214861573666,1662.2344850839709,None,001,3 ,2019_Jun_04_1333,ACPT_experiment_5_30_19,3.1.0,59.95475538976341,
,,,C,G,y,b,L,D,d,R,c ,,,,,5,19,119,14,0,0,0,0,,,,,1,14,50,13,,,,,,up,0.5671305827199831,1664.236025165328,None,001,3 ,2019_Jun_04_1333,ACPT_experiment_5_30_19,3.1.0,59.95475538976341,
,,,C,G,y,b,L,G,g,L,c ,,,,,5,19,119,14,0,0,0,0,,,,,1,15,51,18,,,,,,up,0.6004430677021446,1666.0874646674783,None,001,3 ,2019_Jun_04_1333,ACPT_experiment_5_30_19,3.1.0,59.95475538976341,
,,,C,G,y,b,L,D,y,L,y,,,,,5,19,119,14,0,0,0,0,,,,,1,16,52,32,,,,,,down,0.6170479942720704,1667.9889975646074,None,001,3 ,2019_Jun_04_1333,ACPT_experiment_5_30_19,3.1.0,59.95475538976341,
,,,C,G,y,b,L,G,y,L,y,,,,,5,19,119,14,0,0,0,0,,,,,1,17,53,34,,,,,,down,1.1508784682027908,1669.923745748325,None,001,3 ,2019_Jun_04_1333,ACPT_experiment_5_30_19,3.1.0,59.95475538976341,
,,,C,G,y,b,R,D,g,L,i,,,,,5,19,119,14,0,0,0,0,,,,,1,18,54,2,,,,,,up,0.5337275402271189,1672.358965736661,None,001,3 ,2019_Jun_04_1333,ACPT_experiment_5_30_19,3.1.0,59.95475538976341,
,,,C,G,y,b,L,U,y,R,u,,,,,5,19,119,14,0,0,0,0,,,,,1,19,55,25,,,,,,down,0.7338925360090798,1674.1770260431313,None,001,3 ,2019_Jun_04_1333,ACPT_experiment_5_30_19,3.1.0,59.95475538976341,
,,,C,G,y,b,L,G,y,R,y,,,,,5,19,119,14,0,0,0,0,,,,,1,20,56,35,,,,,,down,0.5837765620253776,1676.1952447044987,None,001,3 ,2019_Jun_04_1333,ACPT_experiment_5_30_19,3.1.0,59.95475538976341,
,,,C,G,y,b,L,U,y,L,u,,,,,5,19,119,14,0,0,0,0,,,,,1,21,57,24,,,,,,down,0.7170421985920257,1678.080187164258,None,001,3 ,2019_Jun_04_1333,ACPT_experiment_5_30_19,3.1.0,59.95475538976341,
,,,C,G,y,b,L,U,g,R,u,,,,,5,19,119,14,0,0,0,0,,,,,1,22,58,23,,,,,,up,0.7005284332462907,1680.0982545945863,None,001,3 ,2019_Jun_04_1333,ACPT_experiment_5_30_19,3.1.0,59.95475538976341,
,,,C,G,y,b,L,U,d,R,u,,,,,5,19,119,14,0,0,0,0,,,,,1,23,59,21,,,,,,up,0.483690290906452,1682.0831290758415,None,001,3 ,2019_Jun_04_1333,ACPT_experiment_5_30_19,3.1.0,59.95475538976341,
,,,C,G,y,b,L,D,g,L,i,,,,,5,19,119,14,0,0,0,0,,,,,1,24,60,14,,,,,,up,0.9173943465557386,1683.851125267598,None,001,3 ,2019_Jun_04_1333,ACPT_experiment_5_30_19,3.1.0,59.95475538976341,
,,,C,G,y,b,L,D,g,R,i,,,,,5,19,119,14,0,0,0,0,,,,,1,25,61,15,,,,,,up,0.5304173614440515,1686.072851402374,None,001,3 ,2019_Jun_04_1333,ACPT_experiment_5_30_19,3.1.0,59.95475538976341,
,,,C,G,y,b,R,U,g,R,u,,,,,5,19,119,14,0,0,0,0,,,,,1,26,62,11,,,,,,up,0.517092125963245,1687.8875942854593,None,001,3 ,2019_Jun_04_1333,ACPT_experiment_5_30_19,3.1.0,59.95475538976341,
,,,C,G,y,b,R,D,d,L,c,,,,,5,19,119,14,0,0,0,0,,,,,1,27,63,0,,,,,,up,0.6005967136079562,1689.6889844639536,None,001,3 ,2019_Jun_04_1333,ACPT_experiment_5_30_19,3.1.0,59.95475538976341,
,,,C,G,y,b,R,D,g,R,i,,,,,5,19,119,14,0,0,0,0,,,,,1,28,64,3,,,,,,up,0.633979833446574,1691.5737693536485,None,001,3 ,2019_Jun_04_1333,ACPT_experiment_5_30_19,3.1.0,59.95475538976341,
,,,C,G,y,b,R,U,y,L,u,,,,,5,19,119,14,0,0,0,0,,,,,1,29,65,30,,,,,,down,0.6671718769430299,1693.4919147238052,None,001,3 ,2019_Jun_04_1333,ACPT_experiment_5_30_19,3.1.0,59.95475538976341,
,,,C,G,y,b,L,G,d,L,i,,,,,5,19,119,14,0,0,0,0,,,,,1,30,66,16,,,,,,up,0.567095567148499,1695.4434178576994,None,001,3 ,2019_Jun_04_1333,ACPT_experiment_5_30_19,3.1.0,59.95475538976341,
,,,C,G,y,b,L,G,g,R,c ,,,,,5,19,119,14,0,0,0,0,,,,,1,31,67,19,,,,,,up,0.5671031136080273,1697.294841965073,None,001,3 ,2019_Jun_04_1333,ACPT_experiment_5_30_19,3.1.0,59.95475538976341,
,,,C,G,y,b,R,D,y,L,y,,,,,5,19,119,14,0,0,0,0,,,,,1,32,68,26,,,,,,down,0.6002553118014475,1699.1797958954503,None,001,3 ,2019_Jun_04_1333,ACPT_experiment_5_30_19,3.1.0,59.95475538976341,
,,,C,G,y,b,R,G,d,R,i,,,,,5,19,119,14,0,0,0,0,,,,,1,33,69,5,,,,,,up,0.5337344829695212,1701.081095154208,None,001,3 ,2019_Jun_04_1333,ACPT_experiment_5_30_19,3.1.0,59.95475538976341,
,,,C,G,y,b,R,G,y,L,y,,,,,5,19,119,14,0,0,0,0,,,,,1,34,70,28,,,,,,down,0.5004096217944607,1702.8824563542985,None,001,3 ,2019_Jun_04_1333,ACPT_experiment_5_30_19,3.1.0,59.95475538976341,
,,,C,G,y,b,L,U,d,L,u,,,,,5,19,119,14,0,0,0,0,,,,,1,35,71,20,,,,,,up,0.5170525825196819,1704.667192101453,None,001,3 ,2019_Jun_04_1333,ACPT_experiment_5_30_19,3.1.0,59.95475538976341,
,,,C,G,y,b,,,,,,,,,,5,19,119,14,1,0,1,0,0,0,0,0,,,,,,,,,,,,,,001,3 ,2019_Jun_04_1333,ACPT_experiment_5_30_19,3.1.0,59.95475538976341,
,,,C,G,y,b,L,U,y,R,u,,,,,5,19,119,14,1,0,1,0,,,,,0,0,0,25,,,,,,down,0.6001946382712049,1711.4059892321075,None,001,3 ,2019_Jun_04_1333,ACPT_experiment_5_30_19,3.1.0,59.95475538976341,
,,,C,G,y,b,R,U,d,R,u,,,,,5,19,119,14,1,0,1,0,,,,,0,1,1,9,,,,,,up,0.5337474628813652,1713.2905018455622,None,001,3 ,2019_Jun_04_1333,ACPT_experiment_5_30_19,3.1.0,59.95475538976341,
,,,C,G,y,b,L,D,g,L,i,,,,,5,19,119,14,1,0,1,0,,,,,0,2,2,14,,,,,,up,0.6671622174762888,1715.1085859988434,None,001,3 ,2019_Jun_04_1333,ACPT_experiment_5_30_19,3.1.0,59.95475538976341,
,,,C,G,y,b,R,U,y,L,u,,,,,5,19,119,14,1,0,1,0,,,,,0,3,3,30,,,,,,down,0.6338068686054612,1717.0767592607117,None,001,3 ,2019_Jun_04_1333,ACPT_experiment_5_30_19,3.1.0,59.95475538976341,
,,,C,G,y,b,L,G,d,L,i,,,,,5,19,119,14,1,0,1,0,,,,,0,4,4,16,,,,,,up,0.6004424639850185,1719.028269639206,None,001,3 ,2019_Jun_04_1333,ACPT_experiment_5_30_19,3.1.0,59.95475538976341,
,,,C,G,y,b,L,D,g,R,i,,,,,5,19,119,14,1,0,1,0,,,,,0,5,5,15,,,,,,up,0.6671637267663755,1720.92973522192,None,001,3 ,2019_Jun_04_1333,ACPT_experiment_5_30_19,3.1.0,59.95475538976341,
,,,C,G,y,b,R,G,g,R,c ,,,,,5,19,119,14,1,0,1,0,,,,,0,6,6,7,,,,,,up,0.5837853159191582,1722.8812332242214,None,001,3 ,2019_Jun_04_1333,ACPT_experiment_5_30_19,3.1.0,59.95475538976341,
,,,C,G,y,b,L,U,g,R,u,,,,,5,19,119,14,1,0,1,0,,,,,0,7,7,23,,,,,,up,0.5835233028628863,1724.7662940124574,None,001,3 ,2019_Jun_04_1333,ACPT_experiment_5_30_19,3.1.0,59.95475538976341,
,,,C,G,y,b,R,U,g,R,u,,,,,5,19,119,14,1,0,1,0,,,,,0,8,8,11,,,,,,up,0.5837832029101264,1726.6341238198838,None,001,3 ,2019_Jun_04_1333,ACPT_experiment_5_30_19,3.1.0,59.95475538976341,
,,,C,G,y,b,R,G,g,L,c ,,,,,5,19,119,14,1,0,1,0,,,,,0,9,9,6,,,,,,up,0.8339619030593894,1728.5022346574442,None,001,3 ,2019_Jun_04_1333,ACPT_experiment_5_30_19,3.1.0,59.95475538976341,
,,,C,G,y,b,R,U,y,R,u,,,,,5,19,119,14,1,0,1,0,,,,,0,10,10,31,,,,,,down,0.41698170617564756,1730.6205308360386,None,001,3 ,2019_Jun_04_1333,ACPT_experiment_5_30_19,3.1.0,59.95475538976341,
,,,C,G,y,b,L,G,g,L,c ,,,,,5,19,119,14,1,0,1,0,,,,,0,11,11,18,,,,,,up,0.6338162262163678,1732.3218392712897,None,001,3 ,2019_Jun_04_1333,ACPT_experiment_5_30_19,3.1.0,59.95475538976341,
,,,C,G,y,b,L,U,g,L,u,,,,,5,19,119,14,1,0,1,0,,,,,0,12,12,22,,,,,,up,0.550412157404935,1734.239986452596,None,001,3 ,2019_Jun_04_1333,ACPT_experiment_5_30_19,3.1.0,59.95475538976341,
,,,C,G,y,b,L,G,d,R,i,,,,,5,19,119,14,1,0,1,0,,,,,0,13,13,17,,,,,,up,0.6838764167714544,1736.0747072275753,None,001,3 ,2019_Jun_04_1333,ACPT_experiment_5_30_19,3.1.0,59.95475538976341,
,,,C,G,y,b,R,G,d,R,i,,,,,5,19,119,14,1,0,1,0,,,,,0,14,14,5,,,,,,up,0.4670056737304549,1738.059609479802,None,001,3 ,2019_Jun_04_1333,ACPT_experiment_5_30_19,3.1.0,59.95475538976341,
,,,C,G,y,b,L,U,d,R,u,,,,,5,19,119,14,1,0,1,0,,,,,0,15,15,21,,,,,,up,0.5003890954267263,1739.8109464104818,None,001,3 ,2019_Jun_04_1333,ACPT_experiment_5_30_19,3.1.0,59.95475538976341,
,,,C,G,y,b,L,U,d,L,u,,,,,5,19,119,14,1,0,1,0,,,,,0,16,16,20,,,,,,up,0.4503627130052337,1741.5789558840042,None,001,3 ,2019_Jun_04_1333,ACPT_experiment_5_30_19,3.1.0,59.95475538976341,
,,,C,G,y,b,R,D,y,R,y,,,,,5,19,119,14,1,0,1,0,,,,,0,17,17,27,,,,,,down,0.5502394944232947,1743.3304766464262,None,001,3 ,2019_Jun_04_1333,ACPT_experiment_5_30_19,3.1.0,59.95475538976341,
,,,C,G,y,b,R,G,y,L,y,,,,,5,19,119,14,1,0,1,0,,,,,0,18,18,28,,,,,,down,0.6335527038663713,1745.198687097245,None,001,3 ,2019_Jun_04_1333,ACPT_experiment_5_30_19,3.1.0,59.95475538976341,
,,,C,G,y,b,L,D,d,R,c ,,,,,5,19,119,14,1,0,1,0,,,,,0,19,19,13,,,,,,up,0.5003670597670862,1747.1165909807132,None,001,3 ,2019_Jun_04_1333,ACPT_experiment_5_30_19,3.1.0,59.95475538976341,
,,,C,G,y,b,R,D,d,R,c ,,,,,5,19,119,14,1,0,1,0,,,,,0,20,20,1,,,,,,up,0.4170025344028545,1748.884585663176,None,001,3 ,2019_Jun_04_1333,ACPT_experiment_5_30_19,3.1.0,59.95475538976341,
,,,C,G,y,b,L,D,d,L,c ,,,,,5,19,119,14,1,0,1,0,,,,,0,21,21,12,,,,,,up,0.7505771531868959,1750.585917341521,None,001,3 ,2019_Jun_04_1333,ACPT_experiment_5_30_19,3.1.0,59.95475538976341,
,,,C,G,y,b,L,D,y,L,y,,,,,5,19,119,14,1,0,1,0,,,,,0,22,22,32,,,,,,down,0.6504791095903784,1752.6375145948514,None,001,3 ,2019_Jun_04_1333,ACPT_experiment_5_30_19,3.1.0,59.95475538976341,
,,,C,G,y,b,L,U,y,L,u,,,,,5,19,119,14,1,0,1,0,,,,,0,23,23,24,,,,,,down,0.5337341811118677,1754.5890038432608,None,001,3 ,2019_Jun_04_1333,ACPT_experiment_5_30_19,3.1.0,59.95475538976341,
,,,C,G,y,b,R,D,g,L,i,,,,,5,19,119,14,1,0,1,0,,,,,0,24,24,2,,,,,,up,0.5837533189333044,1756.4070913169835,None,001,3 ,2019_Jun_04_1333,ACPT_experiment_5_30_19,3.1.0,59.95475538976341,
,,,C,G,y,b,L,G,y,L,y,,,,,5,19,119,14,1,0,1,0,,,,,0,25,25,34,,,,,,down,0.5337375015551515,1758.2751801188842,None,001,3 ,2019_Jun_04_1333,ACPT_experiment_5_30_19,3.1.0,59.95475538976341,
,,,C,G,y,b,R,G,y,R,y,,,,,5,19,119,14,1,0,1,0,,,,,0,26,26,29,,,,,,down,0.6504911839238048,1760.093247971814,None,001,3 ,2019_Jun_04_1333,ACPT_experiment_5_30_19,3.1.0,59.95475538976341,
,,,C,G,y,b,R,G,d,L,i,,,,,5,19,119,14,1,0,1,0,,,,,0,27,27,4,,,,,,up,0.6004524253112322,1762.0280731294133,None,001,3 ,2019_Jun_04_1333,ACPT_experiment_5_30_19,3.1.0,59.95475538976341,
,,,C,G,y,b,L,G,g,R,c ,,,,,5,19,119,14,1,0,1,0,,,,,0,28,28,19,,,,,,up,0.5504227224482747,1763.9128522838,None,001,3 ,2019_Jun_04_1333,ACPT_experiment_5_30_19,3.1.0,59.95475538976341,
,,,C,G,y,b,L,G,y,R,y,,,,,5,19,119,14,1,0,1,0,,,,,0,29,29,35,,,,,,down,0.5835000597671751,1765.7478797468739,None,001,3 ,2019_Jun_04_1333,ACPT_experiment_5_30_19,3.1.0,59.95475538976341,
,,,C,G,y,b,R,U,g,L,u,,,,,5,19,119,14,1,0,1,0,,,,,0,30,30,10,,,,,,up,0.5504097425382497,1767.615714082176,None,001,3 ,2019_Jun_04_1333,ACPT_experiment_5_30_19,3.1.0,59.95475538976341,
,,,C,G,y,b,R,D,d,L,c,,,,,5,19,119,14,1,0,1,0,,,,,0,31,31,0,,,,,,up,0.8172914732240315,1769.4504605151142,None,001,3 ,2019_Jun_04_1333,ACPT_experiment_5_30_19,3.1.0,59.95475538976341,
,,,C,G,y,b,R,D,g,R,i,,,,,5,19,119,14,1,0,1,0,,,,,0,32,32,3,,,,,,up,0.7338837821152993,1771.5354094950144,None,001,3 ,2019_Jun_04_1333,ACPT_experiment_5_30_19,3.1.0,59.95475538976341,
,,,C,G,y,b,L,D,y,R,y,,,,,5,19,119,14,1,0,1,0,,,,,0,33,33,33,,,,,,down,0.5504209112987155,1773.5536203080646,None,001,3 ,2019_Jun_04_1333,ACPT_experiment_5_30_19,3.1.0,59.95475538976341,
,,,C,G,y,b,R,U,d,L,u,,,,,5,19,119,14,1,0,1,0,,,,,0,34,34,8,,,,,,up,0.867321176086989,1775.3883776079056,None,001,3 ,2019_Jun_04_1333,ACPT_experiment_5_30_19,3.1.0,59.95475538976341,
,,,C,G,y,b,R,D,y,L,y,,,,,5,19,119,14,1,0,1,0,,,,,0,35,35,26,,,,,,down,0.7338822728233936,1777.5567113376783,None,001,3 ,2019_Jun_04_1333,ACPT_experiment_5_30_19,3.1.0,59.95475538976341,
,,,C,G,y,b,R,G,d,L,i,,,,,5,19,119,14,1,0,1,0,,,,,1,0,36,4,,,,,,up,0.5504112518301554,1779.591614314364,None,001,3 ,2019_Jun_04_1333,ACPT_experiment_5_30_19,3.1.0,59.95475538976341,
,,,C,G,y,b,R,U,y,L,u,,,,,5,19,119,14,1,0,1,0,,,,,1,1,37,30,,,,,,down,0.5170628457035491,1781.4263568231454,None,001,3 ,2019_Jun_04_1333,ACPT_experiment_5_30_19,3.1.0,59.95475538976341,
,,,C,G,y,b,R,G,g,R,c ,,,,,5,19,119,14,1,0,1,0,,,,,1,2,38,7,,,,,,up,0.617134627620544,1783.2277463979244,None,001,3 ,2019_Jun_04_1333,ACPT_experiment_5_30_19,3.1.0,59.95475538976341,
,,,C,G,y,b,L,D,y,L,y,,,,,5,19,119,14,1,0,1,0,,,,,1,3,39,32,,,,,,down,0.600234181716587,1785.1461353677787,None,001,3 ,2019_Jun_04_1333,ACPT_experiment_5_30_19,3.1.0,59.95475538976341,
,,,C,G,y,b,L,G,g,L,c ,,,,,5,19,119,14,1,0,1,0,,,,,1,4,40,18,,,,,,up,0.5670979820170032,1787.030675148484,None,001,3 ,2019_Jun_04_1333,ACPT_experiment_5_30_19,3.1.0,59.95475538976341,
,,,C,G,y,b,R,G,d,R,i,,,,,5,19,119,14,1,0,1,0,,,,,1,5,41,5,,,,,,up,0.6004379361093015,1788.8821161599262,None,001,3 ,2019_Jun_04_1333,ACPT_experiment_5_30_19,3.1.0,59.95475538976341,
,,,C,G,y,b,L,D,y,R,y,,,,,5,19,119,14,1,0,1,0,,,,,1,6,42,33,,,,,,down,0.5670862095412303,1790.8169292431921,None,001,3 ,2019_Jun_04_1333,ACPT_experiment_5_30_19,3.1.0,59.95475538976341,
,,,C,G,y,b,L,D,d,R,c ,,,,,5,19,119,14,1,0,1,0,,,,,1,7,43,13,,,,,,up,0.7172091262655158,1792.685036760311,None,001,3 ,2019_Jun_04_1333,ACPT_experiment_5_30_19,3.1.0,59.95475538976341,
,,,C,G,y,b,L,U,d,R,u,,,,,5,19,119,14,1,0,1,0,,,,,1,8,44,21,,,,,,up,0.6671788196854322,1794.6865747286593,None,001,3 ,2019_Jun_04_1333,ACPT_experiment_5_30_19,3.1.0,59.95475538976341,
,,,C,G,y,b,R,D,g,L,i,,,,,5,19,119,14,1,0,1,0,,,,,1,9,45,2,,,,,,up,0.9006907123020937,1796.638079673703,None,001,3 ,2019_Jun_04_1333,ACPT_experiment_5_30_19,3.1.0,59.95475538976341,
,,,C,G,y,b,R,U,d,R,u,,,,,5,19,119,14,1,0,1,0,,,,,1,10,46,9,,,,,,up,0.46370273954562435,1798.8430928166163,None,001,3 ,2019_Jun_04_1333,ACPT_experiment_5_30_19,3.1.0,59.95475538976341,
,,,C,G,y,b,R,G,y,R,y,,,,,5,19,119,14,1,0,1,0,,,,,1,11,47,29,,,,,,down,0.6004654052194383,1800.5911307372699,None,001,3 ,2019_Jun_04_1333,ACPT_experiment_5_30_19,3.1.0,59.95475538976341,
,,,C,G,y,b,R,D,d,R,c ,,,,,5,19,119,14,1,0,1,0,,,,,1,12,48,1,,,,,,up,0.5504172889977781,1802.4759141176746,None,001,3 ,2019_Jun_04_1333,ACPT_experiment_5_30_19,3.1.0,59.95475538976341,
,,,C,G,y,b,R,U,g,L,u,,,,,5,19,119,14,1,0,1,0,,,,,1,13,49,10,,,,,,up,0.5170655624278879,1804.3106560227388,None,001,3 ,2019_Jun_04_1333,ACPT_experiment_5_30_19,3.1.0,59.95475538976341,
,,,C,G,y,b,L,U,y,L,u,,,,,5,19,119,14,1,0,1,0,,,,,1,14,50,24,,,,,,down,0.5502841694615199,1806.145547951408,None,001,3 ,2019_Jun_04_1333,ACPT_experiment_5_30_19,3.1.0,59.95475538976341,
,,,C,G,y,b,L,G,d,R,i,,,,,5,19,119,14,1,0,1,0,,,,,1,15,51,17,,,,,,up,0.6338113964811782,1807.996833203937,None,001,3 ,2019_Jun_04_1333,ACPT_experiment_5_30_19,3.1.0,59.95475538976341,
,,,C,G,y,b,L,U,y,R,u,,,,,5,19,119,14,1,0,1,0,,,,,1,16,52,25,,,,,,down,0.5837780713172833,1809.9149831019695,None,001,3 ,2019_Jun_04_1333,ACPT_experiment_5_30_19,3.1.0,59.95475538976341,
,,,C,G,y,b,L,D,d,L,c ,,,,,5,19,119,14,1,0,1,0,,,,,1,17,53,12,,,,,,up,0.5838043329968059,1811.7830906190866,None,001,3 ,2019_Jun_04_1333,ACPT_experiment_5_30_19,3.1.0,59.95475538976341,
,,,C,G,y,b,L,D,g,L,i,,,,,5,19,119,14,1,0,1,0,,,,,1,18,54,14,,,,,,up,0.48372500461846357,1813.634491483368,None,001,3 ,2019_Jun_04_1333,ACPT_experiment_5_30_19,3.1.0,59.95475538976341,
,,,C,G,y,b,R,D,y,L,y,,,,,5,19,119,14,1,0,1,0,,,,,1,19,55,26,,,,,,down,0.5003791341005126,1815.4025429152025,None,001,3 ,2019_Jun_04_1333,ACPT_experiment_5_30_19,3.1.0,59.95475538976341,
,,,C,G,y,b,R,U,g,R,u,,,,,5,19,119,14,1,0,1,0,,,,,1,20,56,11,,,,,,up,0.5337230123532208,1817.1872668898814,None,001,3 ,2019_Jun_04_1333,ACPT_experiment_5_30_19,3.1.0,59.95475538976341,
,,,C,G,y,b,R,D,g,R,i,,,,,5,19,119,14,1,0,1,0,,,,,1,21,57,3,,,,,,up,0.4834243536915892,1819.0222747321604,None,001,3 ,2019_Jun_04_1333,ACPT_experiment_5_30_19,3.1.0,59.95475538976341,
,,,C,G,y,b,R,U,d,L,u,,,,,5,19,119,14,1,0,1,0,,,,,1,22,58,8,,,,,,up,0.6671987423360406,1820.790003779266,None,001,3 ,2019_Jun_04_1333,ACPT_experiment_5_30_19,3.1.0,59.95475538976341,
,,,C,G,y,b,L,D,g,R,i,,,,,5,19,119,14,1,0,1,0,,,,,1,23,59,15,,,,,,up,0.46701382390529034,1822.7415370989966,None,001,3 ,2019_Jun_04_1333,ACPT_experiment_5_30_19,3.1.0,59.95475538976341,
,,,C,G,y,b,R,G,g,L,c ,,,,,5,19,119,14,1,0,1,0,,,,,1,24,60,6,,,,,,up,0.483698742942579,1824.4928788594098,None,001,3 ,2019_Jun_04_1333,ACPT_experiment_5_30_19,3.1.0,59.95475538976341,
,,,C,G,y,b,L,G,g,R,c ,,,,,5,19,119,14,1,0,1,0,,,,,1,25,61,19,,,,,,up,0.5001162154694612,1826.2778591118367,None,001,3 ,2019_Jun_04_1333,ACPT_experiment_5_30_19,3.1.0,59.95475538976341,
,,,C,G,y,b,R,D,y,R,y,,,,,5,19,119,14,1,0,1,0,,,,,1,26,62,27,,,,,,down,0.5170607326945174,1828.0623002452303,None,001,3 ,2019_Jun_04_1333,ACPT_experiment_5_30_19,3.1.0,59.95475538976341,
,,,C,G,y,b,R,U,y,R,u,,,,,5,19,119,14,1,0,1,0,,,,,1,27,63,31,,,,,,down,0.4836990448002325,1829.8636901218651,None,001,3 ,2019_Jun_04_1333,ACPT_experiment_5_30_19,3.1.0,59.95475538976341,
,,,C,G,y,b,L,G,y,L,y,,,,,5,19,119,14,1,0,1,0,,,,,1,28,64,34,,,,,,down,0.6504875616246864,1831.6484029277835,None,001,3 ,2019_Jun_04_1333,ACPT_experiment_5_30_19,3.1.0,59.95475538976341,
,,,C,G,y,b,R,D,d,L,c,,,,,5,19,119,14,1,0,1,0,,,,,1,29,65,0,,,,,,up,0.5337341811136866,1833.6165967160232,None,001,3 ,2019_Jun_04_1333,ACPT_experiment_5_30_19,3.1.0,59.95475538976341,
,,,C,G,y,b,L,U,g,L,u,,,,,5,19,119,14,1,0,1,0,,,,,1,30,66,22,,,,,,up,0.4336572676020296,1835.434663059661,None,001,3 ,2019_Jun_04_1333,ACPT_experiment_5_30_19,3.1.0,59.95475538976341,
,,,C,G,y,b,R,G,y,L,y,,,,,5,19,119,14,1,0,1,0,,,,,1,31,67,28,,,,,,down,0.600480498138495,1837.1526355857204,None,001,3 ,2019_Jun_04_1333,ACPT_experiment_5_30_19,3.1.0,59.95475538976341,
,,,C,G,y,b,L,U,g,R,u,,,,,5,19,119,14,1,0,1,0,,,,,1,32,68,23,,,,,,up,0.6004657070807298,1839.0374262107234,None,001,3 ,2019_Jun_04_1333,ACPT_experiment_5_30_19,3.1.0,59.95475538976341,
,,,C,G,y,b,L,U,d,L,u,,,,,5,19,119,14,1,0,1,0,,,,,1,33,69,20,,,,,,up,0.5334670364627527,1840.922482169226,None,001,3 ,2019_Jun_04_1333,ACPT_experiment_5_30_19,3.1.0,59.95475538976341,
,,,C,G,y,b,L,G,d,L,i,,,,,5,19,119,14,1,0,1,0,,,,,1,34,70,16,,,,,,up,0.45034309221227886,1842.7402771421985,None,001,3 ,2019_Jun_04_1333,ACPT_experiment_5_30_19,3.1.0,59.95475538976341,
,,,C,G,y,b,L,G,y,R,y,,,,,5,19,119,14,1,0,1,0,,,,,1,35,71,35,,,,,,down,0.6338147169226431,1844.4749539062286,None,001,3 ,2019_Jun_04_1333,ACPT_experiment_5_30_19,3.1.0,59.95475538976341,
,,,C,G,y,b,,,,,,,,,,5,19,119,14,2,0,2,0,0,0,0,0,,,,,,,,,,,,,,001,3 ,2019_Jun_04_1333,ACPT_experiment_5_30_19,3.1.0,59.95475538976341,
,,,C,G,y,b,R,U,d,R,u,,,,,5,19,119,14,2,0,2,0,,,,,0,0,0,9,,,,,,up,0.5167975122039934,1872.129872144873,None,001,3 ,2019_Jun_04_1333,ACPT_experiment_5_30_19,3.1.0,59.95475538976341,
,,,C,G,y,b,L,D,g,R,i,,,,,5,19,119,14,2,0,2,0,,,,,0,1,1,15,,,,,,up,0.5504227224482747,1873.9309897452677,None,001,3 ,2019_Jun_04_1333,ACPT_experiment_5_30_19,3.1.0,59.95475538976341,
,,,C,G,y,b,L,D,d,L,c ,,,,,5,19,119,14,2,0,2,0,,,,,0,2,2,12,,,,,,up,0.6004593680536345,1875.76573738564,None,001,3 ,2019_Jun_04_1333,ACPT_experiment_5_30_19,3.1.0,59.95475538976341,
,,,C,G,y,b,L,U,d,L,u,,,,,5,19,119,14,2,0,2,0,,,,,0,3,3,20,,,,,,up,0.7172112392727286,1877.6505234827691,None,001,3 ,2019_Jun_04_1333,ACPT_experiment_5_30_19,3.1.0,59.95475538976341,
,,,C,G,y,b,L,D,d,R,c ,,,,,5,19,119,14,2,0,2,0,,,,,0,4,4,13,,,,,,up,0.45033524389509694,1879.652069601294,None,001,3 ,2019_Jun_04_1333,ACPT_experiment_5_30_19,3.1.0,59.95475538976341,
,,,C,G,y,b,R,D,g,R,i,,,,,5,19,119,14,2,0,2,0,,,,,0,5,5,3,,,,,,up,0.5003915102934116,1881.3867351965637,None,001,3 ,2019_Jun_04_1333,ACPT_experiment_5_30_19,3.1.0,59.95475538976341,
,,,C,G,y,b,R,D,d,R,c ,,,,,5,19,119,14,2,0,2,0,,,,,0,6,6,1,,,,,,up,0.4170025344028545,1883.154739538495,None,001,3 ,2019_Jun_04_1333,ACPT_experiment_5_30_19,3.1.0,59.95475538976341,
,,,C,G,y,b,R,G,y,L,y,,,,,5,19,119,14,2,0,2,0,,,,,0,7,7,28,,,,,,down,0.5835015690608998,1884.8730335437085,None,001,3 ,2019_Jun_04_1333,ACPT_experiment_5_30_19,3.1.0,59.95475538976341,
,,,C,G,y,b,L,U,d,R,u,,,,,5,19,119,14,2,0,2,0,,,,,0,8,8,21,,,,,,up,0.46705155620111327,1886.7408660678593,None,001,3 ,2019_Jun_04_1333,ACPT_experiment_5_30_19,3.1.0,59.95475538976341,
,,,C,G,y,b,R,U,d,L,u,,,,,5,19,119,14,2,0,2,0,,,,,0,9,9,8,,,,,,up,0.4503349420374434,1888.4922177896005,None,001,3 ,2019_Jun_04_1333,ACPT_experiment_5_30_19,3.1.0,59.95475538976341,
,,,C,G,y,b,R,U,g,L,u,,,,,5,19,119,14,2,0,2,0,,,,,0,10,10,10,,,,,,up,0.5671191121018637,1890.210182467341,None,001,3 ,2019_Jun_04_1333,ACPT_experiment_5_30_19,3.1.0,59.95475538976341,
,,,C,G,y,b,R,G,g,R,c ,,,,,5,19,119,14,2,0,2,0,,,,,0,11,11,7,,,,,,up,0.6668992988434184,1892.0785858056533,None,001,3 ,2019_Jun_04_1333,ACPT_experiment_5_30_19,3.1.0,59.95475538976341,
,,,C,G,y,b,R,U,y,L,u,,,,,5,19,119,14,2,0,2,0,,,,,0,12,12,30,,,,,,down,0.6004563494698232,1894.0298136447218,None,001,3 ,2019_Jun_04_1333,ACPT_experiment_5_30_19,3.1.0,59.95475538976341,
,,,C,G,y,b,L,G,y,R,y,,,,,5,19,119,14,2,0,2,0,,,,,0,13,13,35,,,,,,down,0.43366209733721917,1895.9146030622924,None,001,3 ,2019_Jun_04_1333,ACPT_experiment_5_30_19,3.1.0,59.95475538976341,
,,,C,G,y,b,L,U,g,R,u,,,,,5,19,119,14,2,0,2,0,,,,,0,14,14,23,,,,,,up,0.4336639084849594,1897.6325918887032,None,001,3 ,2019_Jun_04_1333,ACPT_experiment_5_30_19,3.1.0,59.95475538976341,
,,,C,G,y,b,R,D,y,L,y,,,,,5,19,119,14,2,0,2,0,,,,,0,15,15,26,,,,,,down,0.6502457730784954,1899.3675089319895,None,001,3 ,2019_Jun_04_1333,ACPT_experiment_5_30_19,3.1.0,59.95475538976341,
,,,C,G,y,b,R,D,g,L,i,,,,,5,19,119,14,2,0,2,0,,,,,0,16,16,2,,,,,,up,0.7839602730236948,1901.28538655378,None,001,3 ,2019_Jun_04_1333,ACPT_experiment_5_30_19,3.1.0,59.95475538976341,
,,,C,G,y,b,L,U,y,R,u,,,,,5,19,119,14,2,0,2,0,,,,,0,17,17,25,,,,,,down,0.6004358231002698,1903.3536898562306,None,001,3 ,2019_Jun_04_1333,ACPT_experiment_5_30_19,3.1.0,59.95475538976341,
,,,C,G,y,b,L,D,g,L,i,,,,,5,19,119,14,2,0,2,0,,,,,0,18,18,14,,,,,,up,0.48367700913877343,1905.238472934776,None,001,3 ,2019_Jun_04_1333,ACPT_experiment_5_30_19,3.1.0,59.95475538976341,
,,,C,G,y,b,R,D,y,R,y,,,,,5,19,119,14,2,0,2,0,,,,,0,19,19,27,,,,,,down,0.46702137036299973,1907.0064878417488,None,001,3 ,2019_Jun_04_1333,ACPT_experiment_5_30_19,3.1.0,59.95475538976341,
,,,C,G,y,b,L,G,g,L,c ,,,,,5,19,119,14,2,0,2,0,,,,,0,20,20,18,,,,,,up,0.5170767311883537,1908.7578111888033,None,001,3 ,2019_Jun_04_1333,ACPT_experiment_5_30_19,3.1.0,59.95475538976341,
,,,C,G,y,b,R,G,d,L,i,,,,,5,19,119,14,2,0,2,0,,,,,0,21,21,4,,,,,,up,0.5837644876937702,1910.5592312512745,None,001,3 ,2019_Jun_04_1333,ACPT_experiment_5_30_19,3.1.0,59.95475538976341,
,,,C,G,y,b,L,U,y,L,u,,,,,5,19,119,14,2,0,2,0,,,,,0,22,22,24,,,,,,down,0.5003661541923066,1912.4440258004379,None,001,3 ,2019_Jun_04_1333,ACPT_experiment_5_30_19,3.1.0,59.95475538976341,
,,,C,G,y,b,L,D,y,R,y,,,,,5,19,119,14,2,0,2,0,,,,,0,23,23,33,,,,,,down,0.5670967745827511,1914.2287207967129,None,001,3 ,2019_Jun_04_1333,ACPT_experiment_5_30_19,3.1.0,59.95475538976341,
,,,C,G,y,b,R,G,y,R,y,,,,,5,19,119,14,2,0,2,0,,,,,0,24,24,29,,,,,,down,0.40030222059067455,1916.0801470170954,None,001,3 ,2019_Jun_04_1333,ACPT_experiment_5_30_19,3.1.0,59.95475538976341,
,,,C,G,y,b,R,G,d,R,i,,,,,5,19,119,14,2,0,2,0,,,,,0,25,25,5,,,,,,up,0.4670443116010574,1917.7480753510918,None,001,3 ,2019_Jun_04_1333,ACPT_experiment_5_30_19,3.1.0,59.95475538976341,
,,,C,G,y,b,L,G,d,R,i,,,,,5,19,119,14,2,0,2,0,,,,,0,26,26,17,,,,,,up,0.5304122298512084,1919.5194535639203,None,001,3 ,2019_Jun_04_1333,ACPT_experiment_5_30_19,3.1.0,59.95475538976341,
,,,C,G,y,b,R,G,g,L,c ,,,,,5,19,119,14,2,0,2,0,,,,,0,27,27,6,,,,,,up,0.5504239298825269,1921.3341940321388,None,001,3 ,2019_Jun_04_1333,ACPT_experiment_5_30_19,3.1.0,59.95475538976341,
,,,C,G,y,b,L,G,g,R,c ,,,,,5,19,119,14,2,0,2,0,,,,,0,28,28,19,,,,,,up,0.5170414137592161,1923.1689588784393,None,001,3 ,2019_Jun_04_1333,ACPT_experiment_5_30_19,3.1.0,59.95475538976341,
,,,C,G,y,b,L,U,g,L,u,,,,,5,19,119,14,2,0,2,0,,,,,0,29,29,22,,,,,,up,0.5170574122530525,1924.9703312472902,None,001,3 ,2019_Jun_04_1333,ACPT_experiment_5_30_19,3.1.0,59.95475538976341,
,,,C,G,y,b,L,G,d,L,i,,,,,5,19,119,14,2,0,2,0,,,,,0,30,30,16,,,,,,up,0.45006085464410717,1926.7886725838944,None,001,3 ,2019_Jun_04_1333,ACPT_experiment_5_30_19,3.1.0,59.95475538976341,
,,,C,G,y,b,R,U,g,R,u,,,,,5,19,119,14,2,0,2,0,,,,,0,31,31,11,,,,,,up,0.483694818782169,1928.5230749586754,None,001,3 ,2019_Jun_04_1333,ACPT_experiment_5_30_19,3.1.0,59.95475538976341,
,,,C,G,y,b,R,U,y,R,u,,,,,5,19,119,14,2,0,2,0,,,,,0,32,32,31,,,,,,down,0.5671242436928878,1930.2743980038704,None,001,3 ,2019_Jun_04_1333,ACPT_experiment_5_30_19,3.1.0,59.95475538976341,
,,,C,G,y,b,R,D,d,L,c,,,,,5,19,119,14,2,0,2,0,,,,,0,33,33,0,,,,,,up,0.5670991894512554,1932.125842939473,None,001,3 ,2019_Jun_04_1333,ACPT_experiment_5_30_19,3.1.0,59.95475538976341,
,,,C,G,y,b,L,D,y,L,y,,,,,5,19,119,14,2,0,2,0,,,,,0,34,34,32,,,,,,down,0.6002531987942348,1933.9941255344402,None,001,3 ,2019_Jun_04_1333,ACPT_experiment_5_30_19,3.1.0,59.95475538976341,
,,,C,G,y,b,L,G,y,L,y,,,,,5,19,119,14,2,0,2,0,,,,,0,35,35,34,,,,,,down,0.683848042086538,1935.8787513447787,None,001,3 ,2019_Jun_04_1333,ACPT_experiment_5_30_19,3.1.0,59.95475538976341,
,,,C,G,y,b,L,U,g,R,u,,,,,5,19,119,14,2,0,2,0,,,,,1,0,36,23,,,,,,up,0.43365938061106135,1937.846923097357,None,001,3 ,2019_Jun_04_1333,ACPT_experiment_5_30_19,3.1.0,59.95475538976341,
,,,C,G,y,b,R,U,d,R,u,,,,,5,19,119,14,2,0,2,0,,,,,1,1,37,9,,,,,,up,0.400288938822996,1939.5649242999607,None,001,3 ,2019_Jun_04_1333,ACPT_experiment_5_30_19,3.1.0,59.95475538976341,
,,,C,G,y,b,R,U,g,R,u,,,,,5,19,119,14,2,0,2,0,,,,,1,2,38,11,,,,,,up,0.38017038093312294,1941.2696479607057,None,001,3 ,2019_Jun_04_1333,ACPT_experiment_5_30_19,3.1.0,59.95475538976341,
,,,C,G,y,b,R,G,d,R,i,,,,,5,19,119,14,2,0,2,0,,,,,1,3,39,5,,,,,,up,0.85065074625345,1942.9341797844245,None,001,3 ,2019_Jun_04_1333,ACPT_experiment_5_30_19,3.1.0,59.95475538976341,
,,,C,G,y,b,R,U,g,L,u,,,,,5,19,119,14,2,0,2,0,,,,,1,4,40,10,,,,,,up,0.6171331183286384,1945.0691581653282,None,001,3 ,2019_Jun_04_1333,ACPT_experiment_5_30_19,3.1.0,59.95475538976341,
,,,C,G,y,b,L,G,d,L,i,,,,,5,19,119,14,2,0,2,0,,,,,1,5,41,16,,,,,,up,0.4670210685053462,1946.970617409017,None,001,3 ,2019_Jun_04_1333,ACPT_experiment_5_30_19,3.1.0,59.95475538976341,
,,,C,G,y,b,L,D,g,R,i,,,,,5,19,119,14,2,0,2,0,,,,,1,6,42,15,,,,,,up,0.5837810899010947,1948.7219664140302,None,001,3 ,2019_Jun_04_1333,ACPT_experiment_5_30_19,3.1.0,59.95475538976341,
,,,C,G,y,b,L,G,g,L,c ,,,,,5,19,119,14,2,0,2,0,,,,,1,7,43,18,,,,,,up,0.5837617709676124,1950.5900959668106,None,001,3 ,2019_Jun_04_1333,ACPT_experiment_5_30_19,3.1.0,59.95475538976341,
,,,C,G,y,b,L,U,y,R,u,,,,,5,19,119,14,2,0,2,0,,,,,1,8,44,25,,,,,,down,0.3836360167733801,1952.4748642542945,None,001,3 ,2019_Jun_04_1333,ACPT_experiment_5_30_19,3.1.0,59.95475538976341,
,,,C,G,y,b,L,G,y,R,y,,,,,5,19,119,14,2,0,2,0,,,,,1,9,45,35,,,,,,down,0.41696208538269275,1954.1761914047638,None,001,3 ,2019_Jun_04_1333,ACPT_experiment_5_30_19,3.1.0,59.95475538976341,
,,,C,G,y,b,R,G,d,L,i,,,,,5,19,119,14,2,0,2,0,,,,,1,10,46,4,,,,,,up,0.5003933214429708,1955.8774690504615,None,001,3 ,2019_Jun_04_1333,ACPT_experiment_5_30_19,3.1.0,59.95475538976341,
,,,C,G,y,b,R,U,y,R,u,,,,,5,19,119,14,2,0,2,0,,,,,1,11,47,31,,,,,,down,0.6504948062247422,1957.6955498833013,None,001,3 ,2019_Jun_04_1333,ACPT_experiment_5_30_19,3.1.0,59.95475538976341,
,,,C,G,y,b,L,D,g,L,i,,,,,5,19,119,14,2,0,2,0,,,,,1,12,48,14,,,,,,up,0.4336530415857851,1959.66374155853,None,001,3 ,2019_Jun_04_1333,ACPT_experiment_5_30_19,3.1.0,59.95475538976341,
,,,C,G,y,b,L,D,d,L,c ,,,,,5,19,119,14,2,0,2,0,,,,,1,13,49,12,,,,,,up,0.4000248127576924,1961.3820044723325,None,001,3 ,2019_Jun_04_1333,ACPT_experiment_5_30_19,3.1.0,59.95475538976341,
,,,C,G,y,b,L,D,y,L,y,,,,,5,19,119,14,2,0,2,0,,,,,1,14,50,32,,,,,,down,0.6838341566017334,1963.0497006772493,None,001,3 ,2019_Jun_04_1333,ACPT_experiment_5_30_19,3.1.0,59.95475538976341,
,,,C,G,y,b,L,U,y,L,u,,,,,5,19,119,14,2,0,2,0,,,,,1,15,51,24,,,,,,down,0.5170758256117551,1965.0178712223933,None,001,3 ,2019_Jun_04_1333,ACPT_experiment_5_30_19,3.1.0,59.95475538976341,
,,,C,G,y,b,R,D,g,R,i,,,,,5,19,119,14,2,0,2,0,,,,,1,16,52,3,,,,,,up,0.583780184328134,1966.81925385443,None,001,3 ,2019_Jun_04_1333,ACPT_experiment_5_30_19,3.1.0,59.95475538976341,
,,,C,G,y,b,R,G,y,L,y,,,,,5,19,119,14,2,0,2,0,,,,,1,17,53,28,,,,,,down,0.6169251379196794,1968.7208899871166,None,001,3 ,2019_Jun_04_1333,ACPT_experiment_5_30_19,3.1.0,59.95475538976341,
,,,C,G,y,b,R,G,g,L,c ,,,,,5,19,119,14,2,0,2,0,,,,,1,18,54,6,,,,,,up,0.5670910392746009,1970.6388660147331,None,001,3 ,2019_Jun_04_1333,ACPT_experiment_5_30_19,3.1.0,59.95475538976341,
,,,C,G,y,b,R,D,d,L,c,,,,,5,19,119,14,2,0,2,0,,,,,1,19,55,0,,,,,,up,0.4169651039665041,1972.490302800159,None,001,3 ,2019_Jun_04_1333,ACPT_experiment_5_30_19,3.1.0,59.95475538976341,
,,,C,G,y,b,R,D,y,R,y,,,,,5,19,119,14,2,0,2,0,,,,,1,20,56,27,,,,,,down,0.5671200176784623,1974.1749009602718,None,001,3 ,2019_Jun_04_1333,ACPT_experiment_5_30_19,3.1.0,59.95475538976341,
,,,C,G,y,b,L,U,d,R,u,,,,,5,19,119,14,2,0,2,0,,,,,1,21,57,21,,,,,,up,0.5837493947747134,1976.0430483226937,None,001,3 ,2019_Jun_04_1333,ACPT_experiment_5_30_19,3.1.0,59.95475538976341,
,,,C,G,y,b,L,U,g,L,u,,,,,5,19,119,14,2,0,2,0,,,,,1,22,58,22,,,,,,up,0.7004155382201134,1977.9111380301692,None,001,3 ,2019_Jun_04_1333,ACPT_experiment_5_30_19,3.1.0,59.95475538976341,
,,,C,G,y,b,R,D,d,R,c ,,,,,5,19,119,14,2,0,2,0,,,,,1,23,59,1,,,,,,up,0.633808981614493,1979.8960022482406,None,001,3 ,2019_Jun_04_1333,ACPT_experiment_5_30_19,3.1.0,59.95475538976341,
,,,C,G,y,b,R,D,y,L,y,,,,,5,19,119,14,2,0,2,0,,,,,1,24,60,26,,,,,,down,0.5337257290793787,1981.8308322355751,None,001,3 ,2019_Jun_04_1333,ACPT_experiment_5_30_19,3.1.0,59.95475538976341,
,,,C,G,y,b,L,G,y,L,y,,,,,5,19,119,14,2,0,2,0,,,,,1,25,61,34,,,,,,down,0.5504157797058724,1983.665570820198,None,001,3 ,2019_Jun_04_1333,ACPT_experiment_5_30_19,3.1.0,59.95475538976341,
,,,C,G,y,b,L,D,d,R,c ,,,,,5,19,119,14,2,0,2,0,,,,,1,26,62,13,,,,,,up,0.7672496960276476,1985.5003223847289,None,001,3 ,2019_Jun_04_1333,ACPT_experiment_5_30_19,3.1.0,59.95475538976341,
,,,C,G,y,b,L,U,d,L,u,,,,,5,19,119,14,2,0,2,0,,,,,1,27,63,20,,,,,,up,0.5337637632328551,1987.5351945718612,None,001,3 ,2019_Jun_04_1333,ACPT_experiment_5_30_19,3.1.0,59.95475538976341,
,,,C,G,y,b,L,D,y,R,y,,,,,5,19,119,14,2,0,2,0,,,,,1,28,64,33,,,,,,down,0.516853657860338,1989.3868121704454,None,001,3 ,2019_Jun_04_1333,ACPT_experiment_5_30_19,3.1.0,59.95475538976341,
,,,C,G,y,b,R,G,g,R,c ,,,,,5,19,119,14,2,0,2,0,,,,,1,29,65,7,,,,,,up,0.517053789953934,1991.204714303136,None,001,3 ,2019_Jun_04_1333,ACPT_experiment_5_30_19,3.1.0,59.95475538976341,
,,,C,G,y,b,L,G,g,R,c ,,,,,5,19,119,14,2,0,2,0,,,,,1,30,66,19,,,,,,up,0.46701895549813344,1993.0061041797726,None,001,3 ,2019_Jun_04_1333,ACPT_experiment_5_30_19,3.1.0,59.95475538976341,
,,,C,G,y,b,R,D,g,L,i,,,,,5,19,119,14,2,0,2,0,,,,,1,31,67,2,,,,,,up,0.6171403629305132,1994.7574504680615,None,001,3 ,2019_Jun_04_1333,ACPT_experiment_5_30_19,3.1.0,59.95475538976341,
,,,C,G,y,b,L,G,d,R,i,,,,,5,19,119,14,2,0,2,0,,,,,1,32,68,17,,,,,,up,0.700259175588144,1996.675869623752,None,001,3 ,2019_Jun_04_1333,ACPT_experiment_5_30_19,3.1.0,59.95475538976341,
,,,C,G,y,b,R,U,d,L,u,,,,,5,19,119,14,2,0,2,0,,,,,1,33,69,8,,,,,,up,0.5003764173761738,1998.6604633767329,None,001,3 ,2019_Jun_04_1333,ACPT_experiment_5_30_19,3.1.0,59.95475538976341,
,,,C,G,y,b,R,G,y,R,y,,,,,5,19,119,14,2,0,2,0,,,,,1,34,70,29,,,,,,down,0.6504860523327807,2000.445176484509,None,001,3 ,2019_Jun_04_1333,ACPT_experiment_5_30_19,3.1.0,59.95475538976341,
,,,C,G,y,b,R,U,y,L,u,,,,,5,19,119,14,2,0,2,0,,,,,1,35,71,30,,,,,,down,0.5504260428915586,2002.3799889640577,None,001,3 ,2019_Jun_04_1333,ACPT_experiment_5_30_19,3.1.0,59.95475538976341,
,,,C,G,y,b,,,,,,,,,,5,19,119,14,3,0,3,0,0,0,0,0,,,,,,,,,,,,,,001,3 ,2019_Jun_04_1333,ACPT_experiment_5_30_19,3.1.0,59.95475538976341,
,,,C,G,y,b,L,G,d,R,i,,,,,5,19,119,14,3,0,3,0,,,,,0,0,0,17,,,,,,up,0.7002963041668409,2048.1655370120607,None,001,3 ,2019_Jun_04_1333,ACPT_experiment_5_30_19,3.1.0,59.95475538976341,
,,,C,G,y,b,L,D,d,R,c ,,,,,5,19,119,14,3,0,3,0,,,,,0,1,1,13,,,,,,up,0.5003764173761738,2050.1501546118525,None,001,3 ,2019_Jun_04_1333,ACPT_experiment_5_30_19,3.1.0,59.95475538976341,
,,,C,G,y,b,R,D,y,L,y,,,,,5,19,119,14,3,0,3,0,,,,,0,2,2,26,,,,,,down,0.7005362815652916,2051.934858663879,None,001,3 ,2019_Jun_04_1333,ACPT_experiment_5_30_19,3.1.0,59.95475538976341,
,,,C,G,y,b,R,U,y,L,u,,,,,5,19,119,14,3,0,3,0,,,,,0,3,3,30,,,,,,down,0.5003806433924183,2053.9197228819503,None,001,3 ,2019_Jun_04_1333,ACPT_experiment_5_30_19,3.1.0,59.95475538976341,
,,,C,G,y,b,R,G,g,R,c ,,,,,5,19,119,14,3,0,3,0,,,,,0,4,4,7,,,,,,up,0.46702257779725187,2055.7044329711425,None,001,3 ,2019_Jun_04_1333,ACPT_experiment_5_30_19,3.1.0,59.95475538976341,
,,,C,G,y,b,R,U,y,R,u,,,,,5,19,119,14,3,0,3,0,,,,,0,5,5,31,,,,,,down,0.5337435387209553,2057.455779561291,None,001,3 ,2019_Jun_04_1333,ACPT_experiment_5_30_19,3.1.0,59.95475538976341,
,,,C,G,y,b,L,G,g,L,c ,,,,,5,19,119,14,3,0,3,0,,,,,0,6,6,18,,,,,,up,0.5003779266662605,2059.273854356963,None,001,3 ,2019_Jun_04_1333,ACPT_experiment_5_30_19,3.1.0,59.95475538976341,
,,,C,G,y,b,L,U,g,R,u,,,,,5,19,119,14,3,0,3,0,,,,,0,7,7,23,,,,,,up,0.5168092846797663,2061.0754911537388,None,001,3 ,2019_Jun_04_1333,ACPT_experiment_5_30_19,3.1.0,59.95475538976341,
,,,C,G,y,b,L,U,d,R,u,,,,,5,19,119,14,3,0,3,0,,,,,0,8,8,21,,,,,,up,0.4836954224992951,2062.8766283749264,None,001,3 ,2019_Jun_04_1333,ACPT_experiment_5_30_19,3.1.0,59.95475538976341,
,,,C,G,y,b,R,U,d,R,u,,,,,5,19,119,14,3,0,3,0,,,,,0,9,9,9,,,,,,up,0.5003791341005126,2064.644655658094,None,001,3 ,2019_Jun_04_1333,ACPT_experiment_5_30_19,3.1.0,59.95475538976341,
,,,C,G,y,b,L,U,g,L,u,,,,,5,19,119,14,3,0,3,0,,,,,0,10,10,22,,,,,,up,0.4836927057731373,2066.429369671445,None,001,3 ,2019_Jun_04_1333,ACPT_experiment_5_30_19,3.1.0,59.95475538976341,
,,,C,G,y,b,R,G,d,L,i,,,,,5,19,119,14,3,0,3,0,,,,,0,11,11,4,,,,,,up,0.5334625085870357,2068.2143502257295,None,001,3 ,2019_Jun_04_1333,ACPT_experiment_5_30_19,3.1.0,59.95475538976341,
,,,C,G,y,b,R,U,d,L,u,,,,,5,19,119,14,3,0,3,0,,,,,0,12,12,8,,,,,,up,0.5670759463573631,2070.032161197194,None,001,3 ,2019_Jun_04_1333,ACPT_experiment_5_30_19,3.1.0,59.95475538976341,
,,,C,G,y,b,L,D,y,R,y,,,,,5,19,119,14,3,0,3,0,,,,,0,13,13,33,,,,,,down,0.6503070503240451,2071.9004015319915,None,001,3 ,2019_Jun_04_1333,ACPT_experiment_5_30_19,3.1.0,59.95475538976341,
,,,C,G,y,b,L,U,y,L,u,,,,,5,19,119,14,3,0,3,0,,,,,0,14,14,24,,,,,,down,0.5170489602187445,2073.8517579627223,None,001,3 ,2019_Jun_04_1333,ACPT_experiment_5_30_19,3.1.0,59.95475538976341,
,,,C,G,y,b,R,D,g,R,i,,,,,5,19,119,14,3,0,3,0,,,,,0,15,15,3,,,,,,up,0.45034309221227886,2075.6531424059067,None,001,3 ,2019_Jun_04_1333,ACPT_experiment_5_30_19,3.1.0,59.95475538976341,
,,,C,G,y,b,R,G,d,R,i,,,,,5,19,119,14,3,0,3,0,,,,,0,16,16,5,,,,,,up,0.5337390108470572,2077.387814038346,None,001,3 ,2019_Jun_04_1333,ACPT_experiment_5_30_19,3.1.0,59.95475538976341,
,,,C,G,y,b,L,G,d,L,i,,,,,5,19,119,14,3,0,3,0,,,,,0,17,17,16,,,,,,up,0.517061638269297,2079.2058806838413,None,001,3 ,2019_Jun_04_1333,ACPT_experiment_5_30_19,3.1.0,59.95475538976341,
,,,C,G,y,b,L,U,y,R,u,,,,,5,19,119,14,3,0,3,0,,,,,0,18,18,25,,,,,,down,0.6000636317439785,2081.0243074463633,None,001,3 ,2019_Jun_04_1333,ACPT_experiment_5_30_19,3.1.0,59.95475538976341,
,,,C,G,y,b,R,U,g,L,u,,,,,5,19,119,14,3,0,3,0,,,,,0,19,19,10,,,,,,up,0.5837653932667308,2082.9087388599164,None,001,3 ,2019_Jun_04_1333,ACPT_experiment_5_30_19,3.1.0,59.95475538976341,
,,,C,G,y,b,L,G,g,R,c ,,,,,5,19,119,14,3,0,3,0,,,,,0,20,20,19,,,,,,up,0.4503418847798457,2084.7768439621686,None,001,3 ,2019_Jun_04_1333,ACPT_experiment_5_30_19,3.1.0,59.95475538976341,
,,,C,G,y,b,L,G,y,R,y,,,,,5,19,119,14,3,0,3,0,,,,,0,21,21,35,,,,,,down,0.5837998051210889,2086.494809243628,None,001,3 ,2019_Jun_04_1333,ACPT_experiment_5_30_19,3.1.0,59.95475538976341,
,,,C,G,y,b,L,D,d,L,c ,,,,,5,19,119,14,3,0,3,0,,,,,0,22,22,12,,,,,,up,0.4667499996994593,2088.3798875396496,None,001,3 ,2019_Jun_04_1333,ACPT_experiment_5_30_19,3.1.0,59.95475538976341,
,,,C,G,y,b,R,G,y,R,y,,,,,5,19,119,14,3,0,3,0,,,,,0,23,23,29,,,,,,up,0.2835533679553919,2090.1309624572714,None,001,3 ,2019_Jun_04_1333,ACPT_experiment_5_30_19,3.1.0,59.95475538976341,
,,,C,G,y,b,L,D,g,R,i,,,,,5,19,119,14,3,0,3,0,,,,,0,24,24,15,,,,,,up,0.5003860768429149,2091.6988473840356,None,001,3 ,2019_Jun_04_1333,ACPT_experiment_5_30_19,3.1.0,59.95475538976341,
,,,C,G,y,b,L,U,d,L,u,,,,,5,19,119,14,3,0,3,0,,,,,0,25,25,20,,,,,,up,0.5170812590640708,2093.4835499267683,None,001,3 ,2019_Jun_04_1333,ACPT_experiment_5_30_19,3.1.0,59.95475538976341,
,,,C,G,y,b,R,D,d,L,c,,,,,5,19,119,14,3,0,3,0,,,,,0,26,26,0,,,,,,up,0.4166997704669484,2095.301898809832,None,001,3 ,2019_Jun_04_1333,ACPT_experiment_5_30_19,3.1.0,59.95475538976341,
,,,C,G,y,b,R,D,g,L,i,,,,,5,19,119,14,3,0,3,0,,,,,0,27,27,2,,,,,,up,0.5504169871401245,2097.002934365126,None,001,3 ,2019_Jun_04_1333,ACPT_experiment_5_30_19,3.1.0,59.95475538976341,
,,,C,G,y,b,L,D,g,L,i,,,,,5,19,119,14,3,0,3,0,,,,,0,28,28,14,,,,,,up,0.43368051069592184,2098.8376629884224,None,001,3 ,2019_Jun_04_1333,ACPT_experiment_5_30_19,3.1.0,59.95475538976341,
,,,C,G,y,b,R,D,d,R,c ,,,,,5,19,119,14,3,0,3,0,,,,,0,29,29,1,,,,,,up,0.4836842537406483,2100.5556813969524,None,001,3 ,2019_Jun_04_1333,ACPT_experiment_5_30_19,3.1.0,59.95475538976341,
,,,C,G,y,b,L,D,y,L,y,,,,,5,19,119,14,3,0,3,0,,,,,0,30,30,32,,,,,,down,0.40005650788589264,2102.3406212003574,None,001,3 ,2019_Jun_04_1333,ACPT_experiment_5_30_19,3.1.0,59.95475538976341,
,,,C,G,y,b,L,G,y,L,y,,,,,5,19,119,14,3,0,3,0,,,,,0,31,31,34,,,,,,down,0.5002725780996116,2104.0250089651927,None,001,3 ,2019_Jun_04_1333,ACPT_experiment_5_30_19,3.1.0,59.95475538976341,
,,,C,G,y,b,R,G,y,L,y,,,,,5,19,119,14,3,0,3,0,,,,,0,32,32,28,,,,,,down,0.46701472948006995,2105.8097250915525,None,001,3 ,2019_Jun_04_1333,ACPT_experiment_5_30_19,3.1.0,59.95475538976341,
,,,C,G,y,b,R,U,g,R,u,,,,,5,19,119,14,3,0,3,0,,,,,0,33,33,11,,,,,,up,0.3836052272217785,2107.5610828504596,None,001,3 ,2019_Jun_04_1333,ACPT_experiment_5_30_19,3.1.0,59.95475538976341,
,,,C,G,y,b,R,D,y,R,y,,,,,5,19,119,14,3,0,3,0,,,,,0,34,34,27,,,,,,down,0.5501407867395756,2109.2459768317676,None,001,3 ,2019_Jun_04_1333,ACPT_experiment_5_30_19,3.1.0,59.95475538976341,
,,,C,G,y,b,R,G,g,L,c ,,,,,5,19,119,14,3,0,3,0,,,,,0,35,35,6,,,,,,up,0.38362514987238683,2111.080448573599,None,001,3 ,2019_Jun_04_1333,ACPT_experiment_5_30_19,3.1.0,59.95475538976341,
,,,C,G,y,b,R,D,y,L,y,,,,,5,19,119,14,3,0,3,0,,,,,1,0,36,26,,,,,,down,0.5504616621765308,2112.7483717760024,None,001,3 ,2019_Jun_04_1333,ACPT_experiment_5_30_19,3.1.0,59.95475538976341,
,,,C,G,y,b,R,G,g,R,c ,,,,,5,19,119,14,3,0,3,0,,,,,1,1,37,7,,,,,,up,0.48369512063982256,2114.5831523189354,None,001,3 ,2019_Jun_04_1333,ACPT_experiment_5_30_19,3.1.0,59.95475538976341,
,,,C,G,y,b,R,U,y,R,u,,,,,5,19,119,14,3,0,3,0,,,,,1,2,38,31,,,,,,down,0.5001548533400637,2116.368122911894,None,001,3 ,2019_Jun_04_1333,ACPT_experiment_5_30_19,3.1.0,59.95475538976341,
,,,C,G,y,b,R,G,y,L,y,,,,,5,19,119,14,3,0,3,0,,,,,1,3,39,28,,,,,,down,0.6502964852825244,2118.1694071381044,None,001,3 ,2019_Jun_04_1333,ACPT_experiment_5_30_19,3.1.0,59.95475538976341,
,,,C,G,y,b,R,G,d,R,i,,,,,5,19,119,14,3,0,3,0,,,,,1,4,40,5,,,,,,up,0.7338886118504888,2120.1207533056513,None,001,3 ,2019_Jun_04_1333,ACPT_experiment_5_30_19,3.1.0,59.95475538976341,
,,,C,G,y,b,L,D,y,R,y,,,,,5,19,119,14,3,0,3,0,,,,,1,5,41,33,,,,,,down,0.500373700650016,2122.1389825320603,None,001,3 ,2019_Jun_04_1333,ACPT_experiment_5_30_19,3.1.0,59.95475538976341,
,,,C,G,y,b,L,D,d,R,c ,,,,,5,19,119,14,3,0,3,0,,,,,1,6,42,13,,,,,,up,0.6504987303833332,2123.923680546919,None,001,3 ,2019_Jun_04_1333,ACPT_experiment_5_30_19,3.1.0,59.95475538976341,
,,,C,G,y,b,L,G,y,R,y,,,,,5,19,119,14,3,0,3,0,,,,,1,7,43,35,,,,,,down,0.5335431047697057,2125.8753400434434,None,001,3 ,2019_Jun_04_1333,ACPT_experiment_5_30_19,3.1.0,59.95475538976341,
,,,C,G,y,b,L,U,g,L,u,,,,,5,19,119,14,3,0,3,0,,,,,1,8,44,22,,,,,,up,0.8172890583591652,2127.709931019328,None,001,3 ,2019_Jun_04_1333,ACPT_experiment_5_30_19,3.1.0,59.95475538976341,
,,,C,G,y,b,R,G,g,L,c ,,,,,5,19,119,14,3,0,3,0,,,,,1,9,45,6,,,,,,up,0.6003516046203003,2129.811553145786,None,001,3 ,2019_Jun_04_1333,ACPT_experiment_5_30_19,3.1.0,59.95475538976341,
,,,C,G,y,b,R,U,g,R,u,,,,,5,19,119,14,3,0,3,0,,,,,1,10,46,11,,,,,,up,0.6338198485154862,2131.696339242915,None,001,3 ,2019_Jun_04_1333,ACPT_experiment_5_30_19,3.1.0,59.95475538976341,
,,,C,G,y,b,R,D,g,L,i,,,,,5,19,119,14,3,0,3,0,,,,,1,11,47,2,,,,,,up,0.5170565066764539,2133.614483707497,None,001,3 ,2019_Jun_04_1333,ACPT_experiment_5_30_19,3.1.0,59.95475538976341,
,,,C,G,y,b,R,U,d,R,u,,,,,5,19,119,14,3,0,3,0,,,,,1,12,48,9,,,,,,up,0.5335298230020271,2135.432723015976,None,001,3 ,2019_Jun_04_1333,ACPT_experiment_5_30_19,3.1.0,59.95475538976341,
,,,C,G,y,b,L,U,d,L,u,,,,,5,19,119,14,3,0,3,0,,,,,1,13,49,20,,,,,,up,0.5003987548952864,2137.2505970758375,None,001,3 ,2019_Jun_04_1333,ACPT_experiment_5_30_19,3.1.0,59.95475538976341,
,,,C,G,y,b,L,D,g,L,i,,,,,5,19,119,14,3,0,3,0,,,,,1,14,50,14,,,,,,up,0.3836188108471106,2139.0353313137,None,001,3 ,2019_Jun_04_1333,ACPT_experiment_5_30_19,3.1.0,59.95475538976341,
,,,C,G,y,b,R,U,g,L,u,,,,,5,19,119,14,3,0,3,0,,,,,1,15,51,10,,,,,,up,0.417002232543382,2140.68657835096,None,001,3 ,2019_Jun_04_1333,ACPT_experiment_5_30_19,3.1.0,59.95475538976341,
,,,C,G,y,b,R,G,d,L,i,,,,,5,19,119,14,3,0,3,0,,,,,1,16,52,4,,,,,,up,0.36692362862595473,2142.4046046078074,None,001,3 ,2019_Jun_04_1333,ACPT_experiment_5_30_19,3.1.0,59.95475538976341,
,,,C,G,y,b,L,G,y,L,y,,,,,5,19,119,14,3,0,3,0,,,,,1,17,53,34,,,,,,down,0.43365998432636843,2144.0558652286945,None,001,3 ,2019_Jun_04_1333,ACPT_experiment_5_30_19,3.1.0,59.95475538976341,
,,,C,G,y,b,R,D,y,R,y,,,,,5,19,119,14,3,0,3,0,,,,,1,18,54,27,,,,,,down,0.6171249681538029,2145.7905377667066,None,001,3 ,2019_Jun_04_1333,ACPT_experiment_5_30_19,3.1.0,59.95475538976341,
,,,C,G,y,b,R,U,d,L,u,,,,,5,19,119,14,3,0,3,0,,,,,1,19,55,8,,,,,,up,0.467015333197196,2147.7086807219966,None,001,3 ,2019_Jun_04_1333,ACPT_experiment_5_30_19,3.1.0,59.95475538976341,
,,,C,G,y,b,R,D,d,L,c,,,,,5,19,119,14,3,0,3,0,,,,,1,20,56,0,,,,,,up,0.4500696085378877,2149.4769823944134,None,001,3 ,2019_Jun_04_1333,ACPT_experiment_5_30_19,3.1.0,59.95475538976341,
,,,C,G,y,b,L,G,d,L,i,,,,,5,19,119,14,3,0,3,0,,,,,1,21,57,16,,,,,,up,0.383511952986737,2151.211380845034,None,001,3 ,2019_Jun_04_1333,ACPT_experiment_5_30_19,3.1.0,59.95475538976341,
,,,C,G,y,b,R,D,d,R,c ,,,,,5,19,119,14,3,0,3,0,,,,,1,22,58,1,,,,,,up,0.5504396265150717,2152.862631504595,None,001,3 ,2019_Jun_04_1333,ACPT_experiment_5_30_19,3.1.0,59.95475538976341,
,,,C,G,y,b,L,U,d,R,u,,,,,5,19,119,14,3,0,3,0,,,,,1,23,59,21,,,,,,up,0.45034460150600353,2154.697398765762,None,001,3 ,2019_Jun_04_1333,ACPT_experiment_5_30_19,3.1.0,59.95475538976341,
,,,C,G,y,b,L,G,d,R,i,,,,,5,19,119,14,3,0,3,0,,,,,1,24,60,17,,,,,,up,0.3636122424086352,2156.452079683362,None,001,3 ,2019_Jun_04_1333,ACPT_experiment_5_30_19,3.1.0,59.95475538976341,
,,,C,G,y,b,L,D,y,L,y,,,,,5,19,119,14,3,0,3,0,,,,,1,25,61,32,,,,,,down,0.5504181945725577,2158.100020465996,None,001,3 ,2019_Jun_04_1333,ACPT_experiment_5_30_19,3.1.0,59.95475538976341,
,,,C,G,y,b,R,D,g,R,i,,,,,5,19,119,14,3,0,3,0,,,,,1,26,62,3,,,,,,up,0.4002982964320836,2159.9347720305286,None,001,3 ,2019_Jun_04_1333,ACPT_experiment_5_30_19,3.1.0,59.95475538976341,
,,,C,G,y,b,L,U,g,R,u,,,,,5,19,119,14,3,0,3,0,,,,,1,27,63,23,,,,,,up,0.3502694991439057,2161.6193967541767,None,001,3 ,2019_Jun_04_1333,ACPT_experiment_5_30_19,3.1.0,59.95475538976341,
,,,C,G,y,b,L,G,g,R,c ,,,,,5,19,119,14,3,0,3,0,,,,,1,28,64,19,,,,,,up,0.3333283023603144,2163.270928142014,None,001,3 ,2019_Jun_04_1333,ACPT_experiment_5_30_19,3.1.0,59.95475538976341,
,,,C,G,y,b,R,G,y,R,y,,,,,5,19,119,14,3,0,3,0,,,,,1,29,65,29,,,,,,down,0.48372470276081003,2164.8885632507972,None,001,3 ,2019_Jun_04_1333,ACPT_experiment_5_30_19,3.1.0,59.95475538976341,
,,,C,G,y,b,L,U,y,L,u,,,,,5,19,119,14,3,0,3,0,,,,,1,30,66,24,,,,,,down,0.48370176152457134,2166.6566140789146,None,001,3 ,2019_Jun_04_1333,ACPT_experiment_5_30_19,3.1.0,59.95475538976341,
,,,C,G,y,b,R,U,y,L,u,,,,,5,19,119,14,3,0,3,0,,,,,1,31,67,30,,,,,,up,0.41697898945130873,2168.4246461918156,None,001,3 ,2019_Jun_04_1333,ACPT_experiment_5_30_19,3.1.0,59.95475538976341,
,,,C,G,y,b,L,D,d,L,c ,,,,,5,19,119,14,3,0,3,0,,,,,1,32,68,12,,,,,,up,0.5137285182481719,2170.1459645159466,None,001,3 ,2019_Jun_04_1333,ACPT_experiment_5_30_19,3.1.0,59.95475538976341,
,,,C,G,y,b,L,D,g,R,i,,,,,5,19,119,14,3,0,3,0,,,,,1,33,69,15,,,,,,up,0.5671230362604547,2171.92732095875,None,001,3 ,2019_Jun_04_1333,ACPT_experiment_5_30_19,3.1.0,59.95475538976341,
,,,C,G,y,b,L,U,y,R,u,,,,,5,19,119,14,3,0,3,0,,,,,1,34,70,25,,,,,,down,0.6338116983388318,2173.7954532282547,None,001,3 ,2019_Jun_04_1333,ACPT_experiment_5_30_19,3.1.0,59.95475538976341,
,,,C,G,y,b,L,G,g,L,c ,,,,,5,19,119,14,3,0,3,0,,,,,1,35,71,18,,,,,,up,0.5170954464065289,2175.7302786877135,None,001,3 ,2019_Jun_04_1333,ACPT_experiment_5_30_19,3.1.0,59.95475538976341,
,,,C,G,y,b,,,,,,,,,,5,19,119,14,4,0,4,0,0,0,0,0,,,,,,,,,,,,,,001,3 ,2019_Jun_04_1333,ACPT_experiment_5_30_19,3.1.0,59.95475538976341,
,,,C,G,y,b,L,D,g,R,i,,,,,5,19,119,14,4,0,4,0,,,,,0,0,0,15,,,,,,up,0.4834804993461148,2227.82068466306,None,001,3 ,2019_Jun_04_1333,ACPT_experiment_5_30_19,3.1.0,59.95475538976341,
,,,C,G,y,b,R,G,d,R,i,,,,,5,19,119,14,4,0,4,0,,,,,0,1,1,5,,,,,,up,0.41698019688556087,2229.5884559703354,None,001,3 ,2019_Jun_04_1333,ACPT_experiment_5_30_19,3.1.0,59.95475538976341,
,,,C,G,y,b,L,D,d,R,c ,,,,,5,19,119,14,4,0,4,0,,,,,0,2,2,13,,,,,,up,0.4503322253112856,2231.289771952046,None,001,3 ,2019_Jun_04_1333,ACPT_experiment_5_30_19,3.1.0,59.95475538976341,
,,,C,G,y,b,L,U,g,R,u,,,,,5,19,119,14,4,0,4,0,,,,,0,3,3,23,,,,,,up,0.4503382624789083,2233.024439660325,None,001,3 ,2019_Jun_04_1333,ACPT_experiment_5_30_19,3.1.0,59.95475538976341,
,,,C,G,y,b,L,G,y,R,y,,,,,5,19,119,14,4,0,4,0,,,,,0,4,4,35,,,,,,down,0.5501806320426113,2234.776029850169,None,001,3 ,2019_Jun_04_1333,ACPT_experiment_5_30_19,3.1.0,59.95475538976341,
,,,C,G,y,b,R,D,g,R,i,,,,,5,19,119,14,4,0,4,0,,,,,0,5,5,3,,,,,,up,0.4503406773455936,2236.610539324296,None,001,3 ,2019_Jun_04_1333,ACPT_experiment_5_30_19,3.1.0,59.95475538976341,
,,,C,G,y,b,R,D,y,L,y,,,,,5,19,119,14,4,0,4,0,,,,,0,6,6,26,,,,,,down,0.5670922467070341,2238.3452115604505,None,001,3 ,2019_Jun_04_1333,ACPT_experiment_5_30_19,3.1.0,59.95475538976341,
,,,C,G,y,b,L,U,d,R,u,,,,,5,19,119,14,4,0,4,0,,,,,0,7,7,21,,,,,,up,0.5337344829713402,2240.196634158534,None,001,3 ,2019_Jun_04_1333,ACPT_experiment_5_30_19,3.1.0,59.95475538976341,
,,,C,G,y,b,L,G,y,L,y,,,,,5,19,119,14,4,0,4,0,,,,,0,8,8,34,,,,,,down,0.5666871527882904,2242.0316776201,None,001,3 ,2019_Jun_04_1333,ACPT_experiment_5_30_19,3.1.0,59.95475538976341,
,,,C,G,y,b,L,G,d,L,i,,,,,5,19,119,14,4,0,4,0,,,,,0,9,9,16,,,,,,up,0.5337414257119235,2243.882808623006,None,001,3 ,2019_Jun_04_1333,ACPT_experiment_5_30_19,3.1.0,59.95475538976341,
,,,C,G,y,b,R,U,g,L,u,,,,,5,19,119,14,4,0,4,0,,,,,0,10,10,10,,,,,,up,0.4670252945234097,2245.7008788908024,None,001,3 ,2019_Jun_04_1333,ACPT_experiment_5_30_19,3.1.0,59.95475538976341,
,,,C,G,y,b,L,D,y,R,y,,,,,5,19,119,14,4,0,4,0,,,,,0,11,11,33,,,,,,down,0.5170625438440766,2247.4522266883832,None,001,3 ,2019_Jun_04_1333,ACPT_experiment_5_30_19,3.1.0,59.95475538976341,
,,,C,G,y,b,R,G,g,R,c ,,,,,5,19,119,14,4,0,4,0,,,,,0,12,12,7,,,,,,up,0.416713655951753,2249.27056591198,None,001,3 ,2019_Jun_04_1333,ACPT_experiment_5_30_19,3.1.0,59.95475538976341,
,,,C,G,y,b,L,G,g,L,c ,,,,,5,19,119,14,4,0,4,0,,,,,0,13,13,18,,,,,,up,0.5671236399775808,2250.9715830539135,None,001,3 ,2019_Jun_04_1333,ACPT_experiment_5_30_19,3.1.0,59.95475538976341,
,,,C,G,y,b,L,U,y,L,u,,,,,5,19,119,14,4,0,4,0,,,,,0,14,14,24,,,,,,down,0.5504160815653449,2252.8230352341143,None,001,3 ,2019_Jun_04_1333,ACPT_experiment_5_30_19,3.1.0,59.95475538976341,
,,,C,G,y,b,R,U,y,R,u,,,,,5,19,119,14,4,0,4,0,,,,,0,15,15,31,,,,,,down,0.5504453618250409,2254.641079843952,None,001,3 ,2019_Jun_04_1333,ACPT_experiment_5_30_19,3.1.0,59.95475538976341,
,,,C,G,y,b,R,D,d,R,c ,,,,,5,19,119,14,4,0,4,0,,,,,0,16,16,1,,,,,,up,0.7806108526547177,2256.4958545791305,None,001,3 ,2019_Jun_04_1333,ACPT_experiment_5_30_19,3.1.0,59.95475538976341,
,,,C,G,y,b,R,U,d,R,u,,,,,5,19,119,14,4,0,4,0,,,,,0,17,17,9,,,,,,up,0.3836191127065831,2258.560792160859,None,001,3 ,2019_Jun_04_1333,ACPT_experiment_5_30_19,3.1.0,59.95475538976341,
,,,C,G,y,b,L,U,g,L,u,,,,,5,19,119,14,4,0,4,0,,,,,0,18,18,22,,,,,,up,0.450331319736506,2260.2287527936987,None,001,3 ,2019_Jun_04_1333,ACPT_experiment_5_30_19,3.1.0,59.95475538976341,
,,,C,G,y,b,R,D,y,R,y,,,,,5,19,119,14,4,0,4,0,,,,,0,19,19,27,,,,,,down,0.43347041727611213,2261.980246690726,None,001,3 ,2019_Jun_04_1333,ACPT_experiment_5_30_19,3.1.0,59.95475538976341,
,,,C,G,y,b,L,D,y,L,y,,,,,5,19,119,14,4,0,4,0,,,,,0,20,20,32,,,,,,down,0.46701140903860505,2263.731451407444,None,001,3 ,2019_Jun_04_1333,ACPT_experiment_5_30_19,3.1.0,59.95475538976341,
,,,C,G,y,b,R,U,d,L,u,,,,,5,19,119,14,4,0,4,0,,,,,0,21,21,8,,,,,,up,0.46702076664769265,2265.4827895455583,None,001,3 ,2019_Jun_04_1333,ACPT_experiment_5_30_19,3.1.0,59.95475538976341,
,,,C,G,y,b,R,U,y,L,u,,,,,5,19,119,14,4,0,4,0,,,,,0,22,22,30,,,,,,down,0.4837228916094318,2267.234118024204,None,001,3 ,2019_Jun_04_1333,ACPT_experiment_5_30_19,3.1.0,59.95475538976341,
,,,C,G,y,b,L,U,d,L,u,,,,,5,19,119,14,4,0,4,0,,,,,0,23,23,20,,,,,,up,0.500373700651835,2269.0021757950653,None,001,3 ,2019_Jun_04_1333,ACPT_experiment_5_30_19,3.1.0,59.95475538976341,
,,,C,G,y,b,R,G,d,L,i,,,,,5,19,119,14,4,0,4,0,,,,,0,24,24,4,,,,,,up,0.38359979376946285,2270.8035792553273,None,001,3 ,2019_Jun_04_1333,ACPT_experiment_5_30_19,3.1.0,59.95475538976341,
,,,C,G,y,b,L,U,y,R,u,,,,,5,19,119,14,4,0,4,0,,,,,0,25,25,25,,,,,,down,0.41698230989095464,2272.47151181534,None,001,3 ,2019_Jun_04_1333,ACPT_experiment_5_30_19,3.1.0,59.95475538976341,
,,,C,G,y,b,R,G,y,R,y,,,,,5,19,119,14,4,0,4,0,,,,,0,26,26,29,,,,,,down,0.43365636202725,2274.1728287026253,None,001,3 ,2019_Jun_04_1333,ACPT_experiment_5_30_19,3.1.0,59.95475538976341,
,,,C,G,y,b,R,D,d,L,c,,,,,5,19,119,14,4,0,4,0,,,,,0,27,27,0,,,,,,up,0.683851966245129,2275.8908160197443,None,001,3 ,2019_Jun_04_1333,ACPT_experiment_5_30_19,3.1.0,59.95475538976341,
,,,C,G,y,b,R,D,g,L,i,,,,,5,19,119,14,4,0,4,0,,,,,0,28,28,2,,,,,,up,0.43330047102062963,2277.8592724247555,None,001,3 ,2019_Jun_04_1333,ACPT_experiment_5_30_19,3.1.0,59.95475538976341,
,,,C,G,y,b,R,G,y,L,y,,,,,5,19,119,14,4,0,4,0,,,,,0,29,29,28,,,,,,down,0.5003803415347647,2279.576990786076,None,001,3 ,2019_Jun_04_1333,ACPT_experiment_5_30_19,3.1.0,59.95475538976341,
,,,C,G,y,b,R,G,g,L,c ,,,,,5,19,119,14,4,0,4,0,,,,,0,30,30,6,,,,,,up,0.46703948186586786,2281.361697252967,None,001,3 ,2019_Jun_04_1333,ACPT_experiment_5_30_19,3.1.0,59.95475538976341,
,,,C,G,y,b,L,D,d,L,c ,,,,,5,19,119,14,4,0,4,0,,,,,0,31,31,12,,,,,,up,0.4169792913089623,2283.1130474654165,None,001,3 ,2019_Jun_04_1333,ACPT_experiment_5_30_19,3.1.0,59.95475538976341,
,,,C,G,y,b,R,U,g,R,u,,,,,5,19,119,14,4,0,4,0,,,,,0,32,32,11,,,,,,up,0.5637642582787521,2284.834366393263,None,001,3 ,2019_Jun_04_1333,ACPT_experiment_5_30_19,3.1.0,59.95475538976341,
,,,C,G,y,b,L,G,g,R,c ,,,,,5,19,119,14,4,0,4,0,,,,,0,33,33,19,,,,,,up,0.41697476343324524,2286.6824685493775,None,001,3 ,2019_Jun_04_1333,ACPT_experiment_5_30_19,3.1.0,59.95475538976341,
,,,C,G,y,b,L,G,d,R,i,,,,,5,19,119,14,4,0,4,0,,,,,0,34,34,17,,,,,,up,0.5170824664965039,2288.3670745578074,None,001,3 ,2019_Jun_04_1333,ACPT_experiment_5_30_19,3.1.0,59.95475538976341,
,,,C,G,y,b,L,D,g,L,i,,,,,5,19,119,14,4,0,4,0,,,,,0,35,35,14,,,,,,up,0.5003963400267821,2290.1684626232945,None,001,3 ,2019_Jun_04_1333,ACPT_experiment_5_30_19,3.1.0,59.95475538976341,
,,,C,G,y,b,L,G,d,R,i,,,,,5,19,119,14,4,0,4,0,,,,,1,0,36,17,,,,,,up,0.5167890601696854,2291.9701456043986,None,001,3 ,2019_Jun_04_1333,ACPT_experiment_5_30_19,3.1.0,59.95475538976341,
,,,C,G,y,b,L,U,y,L,u,,,,,5,19,119,14,4,0,4,0,,,,,1,1,37,24,,,,,,down,0.583766600700983,2293.7879423885206,None,001,3 ,2019_Jun_04_1333,ACPT_experiment_5_30_19,3.1.0,59.95475538976341,
,,,C,G,y,b,R,G,g,L,c ,,,,,5,19,119,14,4,0,4,0,,,,,1,2,38,6,,,,,,up,0.5670862095394114,2295.6727357302498,None,001,3 ,2019_Jun_04_1333,ACPT_experiment_5_30_19,3.1.0,59.95475538976341,
,,,C,G,y,b,L,G,y,R,y,,,,,5,19,119,14,4,0,4,0,,,,,1,3,39,35,,,,,,down,0.5337356904055923,2297.5408396250677,None,001,3 ,2019_Jun_04_1333,ACPT_experiment_5_30_19,3.1.0,59.95475538976341,
,,,C,G,y,b,R,D,g,R,i,,,,,5,19,119,14,4,0,4,0,,,,,1,4,40,3,,,,,,up,0.7672379235518747,2299.3755978304835,None,001,3 ,2019_Jun_04_1333,ACPT_experiment_5_30_19,3.1.0,59.95475538976341,
,,,C,G,y,b,L,U,d,L,u,,,,,5,19,119,14,4,0,4,0,,,,,1,5,41,20,,,,,,up,0.517061638269297,2301.427163086828,None,001,3 ,2019_Jun_04_1333,ACPT_experiment_5_30_19,3.1.0,59.95475538976341,
,,,C,G,y,b,L,U,g,R,u,,,,,5,19,119,14,4,0,4,0,,,,,1,6,42,23,,,,,,up,0.5003800396771112,2303.2118734778796,None,001,3 ,2019_Jun_04_1333,ACPT_experiment_5_30_19,3.1.0,59.95475538976341,
,,,C,G,y,b,R,D,y,R,y,,,,,5,19,119,14,4,0,4,0,,,,,1,7,43,27,,,,,,down,0.583524208435847,2305.013508463504,None,001,3 ,2019_Jun_04_1333,ACPT_experiment_5_30_19,3.1.0,59.95475538976341,
,,,C,G,y,b,R,U,g,R,u,,,,,5,19,119,14,4,0,4,0,,,,,1,8,44,11,,,,,,up,0.4837038745336031,2306.881366947475,None,001,3 ,2019_Jun_04_1333,ACPT_experiment_5_30_19,3.1.0,59.95475538976341,
,,,C,G,y,b,L,U,g,L,u,,,,,5,19,119,14,4,0,4,0,,,,,1,9,45,22,,,,,,up,0.4837090061246272,2308.649397551084,None,001,3 ,2019_Jun_04_1333,ACPT_experiment_5_30_19,3.1.0,59.95475538976341,
,,,C,G,y,b,L,D,y,L,y,,,,,5,19,119,14,4,0,4,0,,,,,1,10,46,32,,,,,,down,0.5837768638848502,2310.4174266453992,None,001,3 ,2019_Jun_04_1333,ACPT_experiment_5_30_19,3.1.0,59.95475538976341,
,,,C,G,y,b,L,U,d,R,u,,,,,5,19,119,14,4,0,4,0,,,,,1,11,47,21,,,,,,up,0.4834575581116951,2312.3024560403665,None,001,3 ,2019_Jun_04_1333,ACPT_experiment_5_30_19,3.1.0,59.95475538976341,
,,,C,G,y,b,L,G,g,L,c ,,,,,5,19,119,14,4,0,4,0,,,,,1,12,48,18,,,,,,up,0.5170574122512335,2314.07024455357,None,001,3 ,2019_Jun_04_1333,ACPT_experiment_5_30_19,3.1.0,59.95475538976341,
,,,C,G,y,b,R,U,g,L,u,,,,,5,19,119,14,4,0,4,0,,,,,1,13,49,10,,,,,,up,0.4169804987432144,2315.871634128347,None,001,3 ,2019_Jun_04_1333,ACPT_experiment_5_30_19,3.1.0,59.95475538976341,
,,,C,G,y,b,R,D,d,R,c ,,,,,5,19,119,14,4,0,4,0,,,,,1,14,50,1,,,,,,up,0.5170592234026117,2317.572942563598,None,001,3 ,2019_Jun_04_1333,ACPT_experiment_5_30_19,3.1.0,59.95475538976341,
,,,C,G,y,b,L,G,y,L,y,,,,,5,19,119,14,4,0,4,0,,,,,1,15,51,34,,,,,,down,0.5000965946746874,2319.391291144804,None,001,3 ,2019_Jun_04_1333,ACPT_experiment_5_30_19,3.1.0,59.95475538976341,
,,,C,G,y,b,L,D,d,R,c ,,,,,5,19,119,14,4,0,4,0,,,,,1,16,52,13,,,,,,up,0.5837732415857317,2321.175717487138,None,001,3 ,2019_Jun_04_1333,ACPT_experiment_5_30_19,3.1.0,59.95475538976341,
,,,C,G,y,b,L,U,y,R,u,,,,,5,19,119,14,4,0,4,0,,,,,1,17,53,25,,,,,,down,0.5170522806602094,2323.0438328525725,None,001,3 ,2019_Jun_04_1333,ACPT_experiment_5_30_19,3.1.0,59.95475538976341,
,,,C,G,y,b,L,D,g,R,i,,,,,5,19,119,14,4,0,4,0,,,,,1,18,54,15,,,,,,up,0.5337408219966164,2324.845209749301,None,001,3 ,2019_Jun_04_1333,ACPT_experiment_5_30_19,3.1.0,59.95475538976341,
,,,C,G,y,b,R,G,d,L,i,,,,,5,19,119,14,4,0,4,0,,,,,1,19,55,4,,,,,,up,0.5334637160212878,2326.6802329863567,None,001,3 ,2019_Jun_04_1333,ACPT_experiment_5_30_19,3.1.0,59.95475538976341,
,,,C,G,y,b,R,G,y,L,y,,,,,5,19,119,14,4,0,4,0,,,,,1,20,56,28,,,,,,down,0.4836981392254529,2328.498030977913,None,001,3 ,2019_Jun_04_1333,ACPT_experiment_5_30_19,3.1.0,59.95475538976341,
,,,C,G,y,b,R,U,d,L,u,,,,,5,19,119,14,4,0,4,0,,,,,1,21,57,8,,,,,,up,0.46702167222429125,2330.266060374086,None,001,3 ,2019_Jun_04_1333,ACPT_experiment_5_30_19,3.1.0,59.95475538976341,
,,,C,G,y,b,R,G,d,R,i,,,,,5,19,119,14,4,0,4,0,,,,,1,22,58,5,,,,,,up,0.45033041416172637,2332.0174226608688,None,001,3 ,2019_Jun_04_1333,ACPT_experiment_5_30_19,3.1.0,59.95475538976341,
,,,C,G,y,b,R,U,y,L,u,,,,,5,19,119,14,4,0,4,0,,,,,1,23,59,30,,,,,,down,0.516815321847389,2333.785674828514,None,001,3 ,2019_Jun_04_1333,ACPT_experiment_5_30_19,3.1.0,59.95475538976341,
,,,C,G,y,b,L,G,d,L,i,,,,,5,19,119,14,4,0,4,0,,,,,1,24,60,16,,,,,,up,0.3669420419882954,2335.603504817056,None,001,3 ,2019_Jun_04_1333,ACPT_experiment_5_30_19,3.1.0,59.95475538976341,
,,,C,G,y,b,R,U,y,R,u,,,,,5,19,119,14,4,0,4,0,,,,,1,25,61,31,,,,,,down,0.5837726378686057,2337.271460318303,None,001,3 ,2019_Jun_04_1333,ACPT_experiment_5_30_19,3.1.0,59.95475538976341,
,,,C,G,y,b,R,D,y,L,y,,,,,5,19,119,14,4,0,4,0,,,,,1,26,62,26,,,,,,down,0.5670892281250417,2339.1562470191493,None,001,3 ,2019_Jun_04_1333,ACPT_experiment_5_30_19,3.1.0,59.95475538976341,
,,,C,G,y,b,L,D,g,L,i,,,,,5,19,119,14,4,0,4,0,,,,,1,27,63,14,,,,,,up,0.41658808287502325,2341.024631340384,None,001,3 ,2019_Jun_04_1333,ACPT_experiment_5_30_19,3.1.0,59.95475538976341,
,,,C,G,y,b,R,D,g,L,i,,,,,5,19,119,14,4,0,4,0,,,,,1,28,64,2,,,,,,up,0.4002992020086822,2342.725661764085,None,001,3 ,2019_Jun_04_1333,ACPT_experiment_5_30_19,3.1.0,59.95475538976341,
,,,C,G,y,b,R,G,y,R,y,,,,,5,19,119,14,4,0,4,0,,,,,1,29,65,29,,,,,,down,0.5504172889977781,2344.4102949397675,None,001,3 ,2019_Jun_04_1333,ACPT_experiment_5_30_19,3.1.0,59.95475538976341,
,,,C,G,y,b,R,U,d,R,u,,,,,5,19,119,14,4,0,4,0,,,,,1,30,66,9,,,,,,up,0.5003857749852614,2346.245043183857,None,001,3 ,2019_Jun_04_1333,ACPT_experiment_5_30_19,3.1.0,59.95475538976341,
,,,C,G,y,b,R,G,g,R,c ,,,,,5,19,119,14,4,0,4,0,,,,,1,31,67,7,,,,,,up,0.39696789313711633,2348.049761048922,None,001,3 ,2019_Jun_04_1333,ACPT_experiment_5_30_19,3.1.0,59.95475538976341,
,,,C,G,y,b,L,G,g,R,c ,,,,,5,19,119,14,4,0,4,0,,,,,1,32,68,19,,,,,,up,0.400327274835945,2349.7310601990084,None,001,3 ,2019_Jun_04_1333,ACPT_experiment_5_30_19,3.1.0,59.95475538976341,
,,,C,G,y,b,L,D,y,R,y,,,,,5,19,119,14,4,0,4,0,,,,,1,33,69,33,,,,,,down,0.5003755118013942,2351.4156969969918,None,001,3 ,2019_Jun_04_1333,ACPT_experiment_5_30_19,3.1.0,59.95475538976341,
,,,C,G,y,b,L,D,d,L,c ,,,,,5,19,119,14,4,0,4,0,,,,,1,34,70,12,,,,,,up,0.6504763928642205,2353.20041704751,None,001,3 ,2019_Jun_04_1333,ACPT_experiment_5_30_19,3.1.0,59.95475538976341,
,,,C,G,y,b,R,D,d,L,c,,,,,5,19,119,14,4,0,4,0,,,,,1,35,71,0,,,,,,up,0.39696879871189594,2355.1552339824902,None,001,3 ,2019_Jun_04_1333,ACPT_experiment_5_30_19,3.1.0,59.95475538976341,
,,,C,G,y,b,,,,,,,,,,5,19,119,14,5,0,5,0,0,0,0,0,,,,,,,,,,,,,,001,3 ,2019_Jun_04_1333,ACPT_experiment_5_30_19,3.1.0,59.95475538976341,
,,,C,G,y,b,L,G,d,L,i,,,,,5,19,119,14,5,0,5,0,,,,,0,0,0,16,,,,,,up,0.5304113242764288,2410.364459860686,None,001,3 ,2019_Jun_04_1333,ACPT_experiment_5_30_19,3.1.0,59.95475538976341,
,,,C,G,y,b,L,U,d,L,u,,,,,5,19,119,14,5,0,5,0,,,,,0,1,1,20,,,,,,up,0.3836182071299845,2412.179203045629,None,001,3 ,2019_Jun_04_1333,ACPT_experiment_5_30_19,3.1.0,59.95475538976341,
,,,C,G,y,b,L,U,y,L,u,,,,,5,19,119,14,5,0,5,0,,,,,0,2,2,24,,,,,,down,0.5170640531359822,2413.847147679977,None,001,3 ,2019_Jun_04_1333,ACPT_experiment_5_30_19,3.1.0,59.95475538976341,
,,,C,G,y,b,R,D,g,R,i,,,,,5,19,119,14,5,0,5,0,,,,,0,3,3,3,,,,,,up,0.5670880206907896,2415.64853997148,None,001,3 ,2019_Jun_04_1333,ACPT_experiment_5_30_19,3.1.0,59.95475538976341,
,,,C,G,y,b,L,G,g,L,c ,,,,,5,19,119,14,5,0,5,0,,,,,0,4,4,18,,,,,,up,0.5167917768958432,2417.516906784931,None,001,3 ,2019_Jun_04_1333,ACPT_experiment_5_30_19,3.1.0,59.95475538976341,
,,,C,G,y,b,R,G,g,L,c ,,,,,5,19,119,14,5,0,5,0,,,,,0,5,5,6,,,,,,up,0.38362877217332425,2419.3013515406237,None,001,3 ,2019_Jun_04_1333,ACPT_experiment_5_30_19,3.1.0,59.95475538976341,
,,,C,G,y,b,L,G,y,R,y,,,,,5,19,119,14,5,0,5,0,,,,,0,6,6,35,,,,,,down,0.550416685280652,2420.9693070418725,None,001,3 ,2019_Jun_04_1333,ACPT_experiment_5_30_19,3.1.0,59.95475538976341,
,,,C,G,y,b,R,G,y,R,y,,,,,5,19,119,14,5,0,5,0,,,,,0,7,7,29,,,,,,down,0.4503331308878842,2422.8207386957056,None,001,3 ,2019_Jun_04_1333,ACPT_experiment_5_30_19,3.1.0,59.95475538976341,
,,,C,G,y,b,L,D,g,L,i,,,,,5,19,119,14,5,0,5,0,,,,,0,8,8,14,,,,,,up,0.4503307160193799,2424.588777147632,None,001,3 ,2019_Jun_04_1333,ACPT_experiment_5_30_19,3.1.0,59.95475538976341,
,,,C,G,y,b,L,U,g,L,u,,,,,5,19,119,14,5,0,5,0,,,,,0,9,9,22,,,,,,up,0.4169838191846793,2426.3234364038763,None,001,3 ,2019_Jun_04_1333,ACPT_experiment_5_30_19,3.1.0,59.95475538976341,
,,,C,G,y,b,L,U,g,R,u,,,,,5,19,119,14,5,0,5,0,,,,,0,10,10,23,,,,,,up,0.5170818627811968,2428.0080433178828,None,001,3 ,2019_Jun_04_1333,ACPT_experiment_5_30_19,3.1.0,59.95475538976341,
,,,C,G,y,b,R,G,d,L,i,,,,,5,19,119,14,5,0,5,0,,,,,0,11,11,4,,,,,,up,0.7005272258120385,2429.809457343188,None,001,3 ,2019_Jun_04_1333,ACPT_experiment_5_30_19,3.1.0,59.95475538976341,
,,,C,G,y,b,L,D,d,R,c ,,,,,5,19,119,14,5,0,5,0,,,,,0,12,12,13,,,,,,up,0.5170405081844365,2431.8110110081707,None,001,3 ,2019_Jun_04_1333,ACPT_experiment_5_30_19,3.1.0,59.95475538976341,
,,,C,G,y,b,R,U,g,R,u,,,,,5,19,119,14,5,0,5,0,,,,,0,13,13,11,,,,,,up,0.43366783264355035,2433.6123818677297,None,001,3 ,2019_Jun_04_1333,ACPT_experiment_5_30_19,3.1.0,59.95475538976341,
,,,C,G,y,b,R,U,g,L,u,,,,,5,19,119,14,5,0,5,0,,,,,0,14,14,10,,,,,,up,0.5839277930663229,2435.313543901677,None,001,3 ,2019_Jun_04_1333,ACPT_experiment_5_30_19,3.1.0,59.95475538976341,
,,,C,G,y,b,R,G,d,R,i,,,,,5,19,119,14,5,0,5,0,,,,,0,15,15,5,,,,,,up,0.5170441304853739,2437.181812007442,None,001,3 ,2019_Jun_04_1333,ACPT_experiment_5_30_19,3.1.0,59.95475538976341,
,,,C,G,y,b,L,G,d,R,i,,,,,5,19,119,14,5,0,5,0,,,,,0,16,16,17,,,,,,up,0.500127384228108,2439.0001219507776,None,001,3 ,2019_Jun_04_1333,ACPT_experiment_5_30_19,3.1.0,59.95475538976341,
,,,C,G,y,b,L,U,d,R,u,,,,,5,19,119,14,5,0,5,0,,,,,0,17,17,21,,,,,,up,0.46701744620622776,2440.784582101247,None,001,3 ,2019_Jun_04_1333,ACPT_experiment_5_30_19,3.1.0,59.95475538976341,
,,,C,G,y,b,R,U,d,L,u,,,,,5,19,119,14,5,0,5,0,,,,,0,18,18,8,,,,,,up,0.43364670256050886,2442.5359468028964,None,001,3 ,2019_Jun_04_1333,ACPT_experiment_5_30_19,3.1.0,59.95475538976341,
,,,C,G,y,b,R,G,g,R,c ,,,,,5,19,119,14,5,0,5,0,,,,,0,19,19,7,,,,,,up,0.5337347848289937,2444.253919932673,None,001,3 ,2019_Jun_04_1333,ACPT_experiment_5_30_19,3.1.0,59.95475538976341,
,,,C,G,y,b,R,D,y,R,y,,,,,5,19,119,14,5,0,5,0,,,,,0,20,20,27,,,,,,down,0.7170135220476368,2446.1055067417037,None,001,3 ,2019_Jun_04_1333,ACPT_experiment_5_30_19,3.1.0,59.95475538976341,
,,,C,G,y,b,L,D,g,R,i,,,,,5,19,119,14,5,0,5,0,,,,,0,21,21,15,,,,,,up,0.4670144276224164,2448.12357266274,None,001,3 ,2019_Jun_04_1333,ACPT_experiment_5_30_19,3.1.0,59.95475538976341,
,,,C,G,y,b,R,U,d,R,u,,,,,5,19,119,14,5,0,5,0,,,,,0,22,22,9,,,,,,up,0.467015333197196,2449.874923177047,None,001,3 ,2019_Jun_04_1333,ACPT_experiment_5_30_19,3.1.0,59.95475538976341,
,,,C,G,y,b,R,D,d,L,c,,,,,5,19,119,14,5,0,5,0,,,,,0,23,23,0,,,,,,up,0.48371806187606126,2451.626267956044,None,001,3 ,2019_Jun_04_1333,ACPT_experiment_5_30_19,3.1.0,59.95475538976341,
,,,C,G,y,b,R,U,y,L,u,,,,,5,19,119,14,5,0,5,0,,,,,0,24,24,30,,,,,,down,0.4636945893707889,2453.414309354108,None,001,3 ,2019_Jun_04_1333,ACPT_experiment_5_30_19,3.1.0,59.95475538976341,
,,,C,G,y,b,L,D,y,R,y,,,,,5,19,119,14,5,0,5,0,,,,,0,25,25,33,,,,,,down,0.5004059994953423,2455.145626736439,None,001,3 ,2019_Jun_04_1333,ACPT_experiment_5_30_19,3.1.0,59.95475538976341,
,,,C,G,y,b,L,G,g,R,c ,,,,,5,19,119,14,5,0,5,0,,,,,0,26,26,19,,,,,,up,0.3669465698640124,2456.9303561445686,None,001,3 ,2019_Jun_04_1333,ACPT_experiment_5_30_19,3.1.0,59.95475538976341,
,,,C,G,y,b,R,D,g,L,i,,,,,5,19,119,14,5,0,5,0,,,,,0,27,27,2,,,,,,up,0.4670219740801258,2458.5816291416468,None,001,3 ,2019_Jun_04_1333,ACPT_experiment_5_30_19,3.1.0,59.95475538976341,
,,,C,G,y,b,L,G,y,L,y,,,,,5,19,119,14,5,0,5,0,,,,,0,28,28,34,,,,,,down,0.5499590680065012,2460.3500907989946,None,001,3 ,2019_Jun_04_1333,ACPT_experiment_5_30_19,3.1.0,59.95475538976341,
,,,C,G,y,b,R,D,y,L,y,,,,,5,19,119,14,5,0,5,0,,,,,0,29,29,26,,,,,,down,0.5003730969347089,2462.201086267498,None,001,3 ,2019_Jun_04_1333,ACPT_experiment_5_30_19,3.1.0,59.95475538976341,
,,,C,G,y,b,R,U,y,R,u,,,,,5,19,119,14,5,0,5,0,,,,,0,30,30,31,,,,,,down,0.533732671819962,2464.002477351567,None,001,3 ,2019_Jun_04_1333,ACPT_experiment_5_30_19,3.1.0,59.95475538976341,
,,,C,G,y,b,R,G,y,L,y,,,,,5,19,119,14,5,0,5,0,,,,,0,31,31,28,,,,,,down,0.5170610345521709,2465.8205388654715,None,001,3 ,2019_Jun_04_1333,ACPT_experiment_5_30_19,3.1.0,59.95475538976341,
,,,C,G,y,b,R,D,d,R,c ,,,,,5,19,119,14,5,0,5,0,,,,,0,32,32,1,,,,,,up,0.46686591330944793,2467.638728669179,None,001,3 ,2019_Jun_04_1333,ACPT_experiment_5_30_19,3.1.0,59.95475538976341,
,,,C,G,y,b,L,D,d,L,c ,,,,,5,19,119,14,5,0,5,0,,,,,0,33,33,12,,,,,,up,0.7005320555472281,2469.389962364299,None,001,3 ,2019_Jun_04_1333,ACPT_experiment_5_30_19,3.1.0,59.95475538976341,
,,,C,G,y,b,L,U,y,R,u,,,,,5,19,119,14,5,0,5,0,,,,,0,34,34,25,,,,,,down,0.5670973782998772,2471.3748238656462,None,001,3 ,2019_Jun_04_1333,ACPT_experiment_5_30_19,3.1.0,59.95475538976341,
,,,C,G,y,b,L,D,y,L,y,,,,,5,19,119,14,5,0,5,0,,,,,0,35,35,32,,,,,,down,0.5838073515787983,2473.226254312047,None,001,3 ,2019_Jun_04_1333,ACPT_experiment_5_30_19,3.1.0,59.95475538976341,
,,,C,G,y,b,R,G,d,R,i,,,,,5,19,119,14,5,0,5,0,,,,,1,0,36,5,,,,,,up,0.6004575569022563,2475.0943554901387,None,001,3 ,2019_Jun_04_1333,ACPT_experiment_5_30_19,3.1.0,59.95475538976341,
,,,C,G,y,b,L,G,g,L,c ,,,,,5,19,119,14,5,0,5,0,,,,,1,1,37,18,,,,,,up,0.4837271176274953,2476.9791446058516,None,001,3 ,2019_Jun_04_1333,ACPT_experiment_5_30_19,3.1.0,59.95475538976341,
,,,C,G,y,b,L,D,g,L,i,,,,,5,19,119,14,5,0,5,0,,,,,1,2,38,14,,,,,,up,0.43365153229206044,2478.7471869819346,None,001,3 ,2019_Jun_04_1333,ACPT_experiment_5_30_19,3.1.0,59.95475538976341,
,,,C,G,y,b,L,U,y,R,u,,,,,5,19,119,14,5,0,5,0,,,,,1,3,39,25,,,,,,down,0.6001804509287467,2480.4821194199976,None,001,3 ,2019_Jun_04_1333,ACPT_experiment_5_30_19,3.1.0,59.95475538976341,
,,,C,G,y,b,L,U,g,L,u,,,,,5,19,119,14,5,0,5,0,,,,,1,4,40,22,,,,,,up,0.48370930798228073,2482.3666332408848,None,001,3 ,2019_Jun_04_1333,ACPT_experiment_5_30_19,3.1.0,59.95475538976341,
,,,C,G,y,b,R,D,g,R,i,,,,,5,19,119,14,5,0,5,0,,,,,1,5,41,3,,,,,,up,0.5504203075815894,2484.134658109184,None,001,3 ,2019_Jun_04_1333,ACPT_experiment_5_30_19,3.1.0,59.95475538976341,
,,,C,G,y,b,R,D,g,L,i,,,,,5,19,119,14,5,0,5,0,,,,,1,6,42,2,,,,,,up,0.6004599717707606,2485.9694090699977,None,001,3 ,2019_Jun_04_1333,ACPT_experiment_5_30_19,3.1.0,59.95475538976341,
,,,C,G,y,b,L,G,y,L,y,,,,,5,19,119,14,5,0,5,0,,,,,1,7,43,34,,,,,,down,0.5168071716707345,2487.871118554267,None,001,3 ,2019_Jun_04_1333,ACPT_experiment_5_30_19,3.1.0,59.95475538976341,
,,,C,G,y,b,L,D,d,L,c ,,,,,5,19,119,14,5,0,5,0,,,,,1,8,44,12,,,,,,up,0.4336581731786282,2489.672263321914,None,001,3 ,2019_Jun_04_1333,ACPT_experiment_5_30_19,3.1.0,59.95475538976341,
,,,C,G,y,b,R,D,d,L,c,,,,,5,19,119,14,5,0,5,0,,,,,1,9,45,0,,,,,,up,0.48370447825072915,2491.3902518464674,None,001,3 ,2019_Jun_04_1333,ACPT_experiment_5_30_19,3.1.0,59.95475538976341,
,,,C,G,y,b,R,U,y,R,u,,,,,5,19,119,14,5,0,5,0,,,,,1,10,46,31,,,,,,down,0.6171382499214815,2493.1582776203413,None,001,3 ,2019_Jun_04_1333,ACPT_experiment_5_30_19,3.1.0,59.95475538976341,
,,,C,G,y,b,L,D,y,L,y,,,,,5,19,119,14,5,0,5,0,,,,,1,11,47,32,,,,,,down,0.5168135106978298,2495.076672627363,None,001,3 ,2019_Jun_04_1333,ACPT_experiment_5_30_19,3.1.0,59.95475538976341,
,,,C,G,y,b,L,D,y,R,y,,,,,5,19,119,14,5,0,5,0,,,,,1,12,48,33,,,,,,down,0.6838573996956256,2496.8778143764266,None,001,3 ,2019_Jun_04_1333,ACPT_experiment_5_30_19,3.1.0,59.95475538976341,
,,,C,G,y,b,R,G,y,L,y,,,,,5,19,119,14,5,0,5,0,,,,,1,13,49,28,,,,,,down,0.6338153206397692,2498.845999108913,None,001,3 ,2019_Jun_04_1333,ACPT_experiment_5_30_19,3.1.0,59.95475538976341,
,,,C,G,y,b,L,U,y,L,u,,,,,5,19,119,14,5,0,5,0,,,,,1,14,50,24,,,,,,down,0.46702318151437794,2500.7641402530535,None,001,3 ,2019_Jun_04_1333,ACPT_experiment_5_30_19,3.1.0,59.95475538976341,
,,,C,G,y,b,R,G,d,L,i,,,,,5,19,119,14,5,0,5,0,,,,,1,15,51,4,,,,,,up,0.3835367053725349,2502.5155466111573,None,001,3 ,2019_Jun_04_1333,ACPT_experiment_5_30_19,3.1.0,59.95475538976341,
,,,C,G,y,b,R,G,g,L,c ,,,,,5,19,119,14,5,0,5,0,,,,,1,16,52,6,,,,,,up,0.4336554564524704,2504.1834456648903,None,001,3 ,2019_Jun_04_1333,ACPT_experiment_5_30_19,3.1.0,59.95475538976341,
,,,C,G,y,b,L,G,d,L,i,,,,,5,19,119,14,5,0,5,0,,,,,1,17,53,16,,,,,,up,0.36692393048542726,2505.9014507916527,None,001,3 ,2019_Jun_04_1333,ACPT_experiment_5_30_19,3.1.0,59.95475538976341,
,,,C,G,y,b,R,U,g,L,u,,,,,5,19,119,14,5,0,5,0,,,,,1,18,54,10,,,,,,up,0.4303398442170874,2507.5727158679692,None,001,3 ,2019_Jun_04_1333,ACPT_experiment_5_30_19,3.1.0,59.95475538976341,
,,,C,G,y,b,L,D,d,R,c ,,,,,5,19,119,14,5,0,5,0,,,,,1,19,55,13,,,,,,up,0.4503367531870026,2509.2873836486942,None,001,3 ,2019_Jun_04_1333,ACPT_experiment_5_30_19,3.1.0,59.95475538976341,
,,,C,G,y,b,R,D,y,L,y,,,,,5,19,119,14,5,0,5,0,,,,,1,20,56,26,,,,,,down,0.7339142698110663,2511.022025095297,None,001,3 ,2019_Jun_04_1333,ACPT_experiment_5_30_19,3.1.0,59.95475538976341,
,,,C,G,y,b,R,G,g,R,c ,,,,,5,19,119,14,5,0,5,0,,,,,1,21,57,7,,,,,,up,0.5337483684561448,2513.0402706220575,None,001,3 ,2019_Jun_04_1333,ACPT_experiment_5_30_19,3.1.0,59.95475538976341,
,,,C,G,y,b,R,U,y,L,u,,,,,5,19,119,14,5,0,5,0,,,,,1,22,58,30,,,,,,down,0.5501706707163976,2514.875263673279,None,001,3 ,2019_Jun_04_1333,ACPT_experiment_5_30_19,3.1.0,59.95475538976341,
,,,C,G,y,b,R,D,d,R,c ,,,,,5,19,119,14,5,0,5,0,,,,,1,23,59,1,,,,,,up,0.567096170865625,2516.709769525105,None,001,3 ,2019_Jun_04_1333,ACPT_experiment_5_30_19,3.1.0,59.95475538976341,
,,,C,G,y,b,R,D,y,R,y,,,,,5,19,119,14,5,0,5,0,,,,,1,24,60,27,,,,,,down,0.5670973782998772,2518.5611951417704,None,001,3 ,2019_Jun_04_1333,ACPT_experiment_5_30_19,3.1.0,59.95475538976341,
,,,C,G,y,b,R,U,d,L,u,,,,,5,19,119,14,5,0,5,0,,,,,1,25,61,8,,,,,,up,0.4670195592134405,2520.412619249146,None,001,3 ,2019_Jun_04_1333,ACPT_experiment_5_30_19,3.1.0,59.95475538976341,
,,,C,G,y,b,R,U,g,R,u,,,,,5,19,119,14,5,0,5,0,,,,,1,26,62,11,,,,,,up,0.5669325636354188,2522.164238417392,None,001,3 ,2019_Jun_04_1333,ACPT_experiment_5_30_19,3.1.0,59.95475538976341,
,,,C,G,y,b,L,U,d,R,u,,,,,5,19,119,14,5,0,5,0,,,,,1,27,63,21,,,,,,up,0.4503376587617822,2524.0153974931272,None,001,3 ,2019_Jun_04_1333,ACPT_experiment_5_30_19,3.1.0,59.95475538976341,
