facing_vig,person_vig,text_vig,facing_train,person_train,food_train,correct_key_train,facing_exp,person_exp,food_exp,showL_R,consistent,vig_random.thisRepN,vig_random.thisTrialN,vig_random.thisN,vig_random.thisIndex,trainTrials.thisRepN,trainTrials.thisTrialN,trainTrials.thisN,trainTrials.thisIndex,expBlock.thisRepN,expBlock.thisTrialN,expBlock.thisN,expBlock.thisIndex,breakLoop.thisRepN,breakLoop.thisTrialN,breakLoop.thisN,breakLoop.thisIndex,expTrials.thisRepN,expTrials.thisTrialN,expTrials.thisN,expTrials.thisIndex,train_resp.keys,train_resp.corr,train_resp.rt,train_resp.started,train_resp.stopped,exp_resp.keys,exp_resp.rt,exp_resp.started,exp_resp.stopped,session,participant,date,expName,psychopyVersion,frameRate,
C,D,"is allergic to gluten, meaning she can’t eat wheat products. She enjoys eating dairy products. She thinks eating insects, like crickets, is disgusting.",,,,,,,,,,0,0,0,1,,,,,,,,,,,,,,,,,,,,,,,,,,001,30,2019_Oct_15_1409,ACPT_experiment_5_30_19,3.1.0,59.95461085352911,
C,G,"cannot eat dairy products because she is lactose intolerant. She enjoys eating wheat products. She thinks eating insects, like crickets, is disgusting.",,,,,,,,,,0,1,1,0,,,,,,,,,,,,,,,,,,,,,,,,,,001,30,2019_Oct_15_1409,ACPT_experiment_5_30_19,3.1.0,59.95461085352911,
C,U,"did not report her food preferences, so her food preferences are unknown.",,,,,,,,,,0,2,2,2,,,,,,,,,,,,,,,,,,,,,,,,,,001,30,2019_Oct_15_1409,ACPT_experiment_5_30_19,3.1.0,59.95461085352911,
,,,C,U,g,n,,,,,,,,,,0,0,0,7,,,,,,,,,,,,,n,1,4.4365344712150545,548.9948581602039,None,,,,,001,30,2019_Oct_15_1409,ACPT_experiment_5_30_19,3.1.0,59.95461085352911,
,,,C,U,y,n,,,,,,,,,,0,1,1,8,,,,,,,,,,,,,n,1,1.3510445173324115,556.7005613341134,None,,,,,001,30,2019_Oct_15_1409,ACPT_experiment_5_30_19,3.1.0,59.95461085352911,
,,,C,U,d,n,,,,,,,,,,0,2,2,6,,,,,,,,,,,,,n,1,1.1839908694164478,561.3543927201645,None,,,,,001,30,2019_Oct_15_1409,ACPT_experiment_5_30_19,3.1.0,59.95461085352911,
,,,C,G,g,v,,,,,,,,,,0,3,3,13,,,,,,,,,,,,,v,1,8.589953821847303,565.8242256903632,None,,,,,001,30,2019_Oct_15_1409,ACPT_experiment_5_30_19,3.1.0,59.95461085352911,
,,,C,U,y,n,,,,,,,,,,0,4,4,17,,,,,,,,,,,,,n,1,1.3677233488560887,577.7000276501421,None,,,,,001,30,2019_Oct_15_1409,ACPT_experiment_5_30_19,3.1.0,59.95461085352911,
,,,C,D,g,b,,,,,,,,,,0,5,5,1,,,,,,,,,,,,,v,0,16.695956800576823,582.387179570771,None,,,,,001,30,2019_Oct_15_1409,ACPT_experiment_5_30_19,3.1.0,59.95461085352911,
,,,C,D,d,v,,,,,,,,,,0,6,6,0,,,,,,,,,,,,,v,1,8.506548193654453,602.3523068851882,None,,,,,001,30,2019_Oct_15_1409,ACPT_experiment_5_30_19,3.1.0,59.95461085352911,
,,,C,G,g,v,,,,,,,,,,0,7,7,19,,,,,,,,,,,,,v,1,5.437528487796953,614.1446920480485,None,,,,,001,30,2019_Oct_15_1409,ACPT_experiment_5_30_19,3.1.0,59.95461085352911,
,,,C,D,d,v,,,,,,,,,,0,8,8,18,,,,,,,,,,,,,v,1,3.9864405633634306,622.8680481474712,None,,,,,001,30,2019_Oct_15_1409,ACPT_experiment_5_30_19,3.1.0,59.95461085352911,
,,,C,D,y,b,,,,,,,,,,0,9,9,2,,,,,,,,,,,,,n,0,1.5011853942050948,630.123651980095,None,,,,,001,30,2019_Oct_15_1409,ACPT_experiment_5_30_19,3.1.0,59.95461085352911,
,,,C,D,g,b,,,,,,,,,,0,10,10,10,,,,,,,,,,,,,b,1,30.173239008918245,634.8939502333669,None,,,,,001,30,2019_Oct_15_1409,ACPT_experiment_5_30_19,3.1.0,59.95461085352911,
,,,C,G,y,b,,,,,,,,,,0,11,11,5,,,,,,,,,,,,,b,1,5.320794476732772,668.3530171557668,None,,,,,001,30,2019_Oct_15_1409,ACPT_experiment_5_30_19,3.1.0,59.95461085352911,
,,,C,G,g,v,,,,,,,,,,0,12,12,4,,,,,,,,,,,,,v,1,2.2684324723759346,676.9429456215876,None,,,,,001,30,2019_Oct_15_1409,ACPT_experiment_5_30_19,3.1.0,59.95461085352911,
,,,C,G,y,b,,,,,,,,,,0,13,13,14,,,,,,,,,,,,,b,1,1.7013760473691946,682.4805226480639,None,,,,,001,30,2019_Oct_15_1409,ACPT_experiment_5_30_19,3.1.0,59.95461085352911,
,,,C,U,d,n,,,,,,,,,,0,14,14,15,,,,,,,,,,,,,n,1,2.2017047701319825,687.4677057807512,None,,,,,001,30,2019_Oct_15_1409,ACPT_experiment_5_30_19,3.1.0,59.95461085352911,
,,,C,G,d,b,,,,,,,,,,0,15,15,12,,,,,,,,,,,,,b,1,2.652182942518266,692.955259292532,None,,,,,001,30,2019_Oct_15_1409,ACPT_experiment_5_30_19,3.1.0,59.95461085352911,
,,,C,D,d,v,,,,,,,,,,0,16,16,9,,,,,,,,,,,,,v,1,2.051592267860542,698.8931484999812,None,,,,,001,30,2019_Oct_15_1409,ACPT_experiment_5_30_19,3.1.0,59.95461085352911,
,,,C,D,y,b,,,,,,,,,,0,17,17,11,,,,,,,,,,,,,n,0,1.0841856278420892,704.2139414674257,None,,,,,001,30,2019_Oct_15_1409,ACPT_experiment_5_30_19,3.1.0,59.95461085352911,
,,,C,U,g,n,,,,,,,,,,0,18,18,16,,,,,,,,,,,,,n,1,2.201447285728136,708.6008692890846,None,,,,,001,30,2019_Oct_15_1409,ACPT_experiment_5_30_19,3.1.0,59.95461085352911,
,,,C,G,d,b,,,,,,,,,,0,19,19,3,,,,,,,,,,,,,b,1,5.4542061118900165,714.0881641090291,None,,,,,001,30,2019_Oct_15_1409,ACPT_experiment_5_30_19,3.1.0,59.95461085352911,
,,,C,D,y,b,,,,,,,,,,1,0,20,2,,,,,,,,,,,,,b,1,2.185022920035408,722.8282096049843,None,,,,,001,30,2019_Oct_15_1409,ACPT_experiment_5_30_19,3.1.0,59.95461085352911,
,,,C,G,d,b,,,,,,,,,,1,1,21,3,,,,,,,,,,,,,b,1,2.6186812934702175,728.2990951521097,None,,,,,001,30,2019_Oct_15_1409,ACPT_experiment_5_30_19,3.1.0,59.95461085352911,
,,,C,G,g,v,,,,,,,,,,1,2,22,19,,,,,,,,,,,,,v,1,2.351823309552856,734.1869348851233,None,,,,,001,30,2019_Oct_15_1409,ACPT_experiment_5_30_19,3.1.0,59.95461085352911,
,,,C,U,g,n,,,,,,,,,,1,3,23,7,,,,,,,,,,,,,n,1,1.7847203985002125,739.8245984843143,None,,,,,001,30,2019_Oct_15_1409,ACPT_experiment_5_30_19,3.1.0,59.95461085352911,
,,,C,D,y,b,,,,,,,,,,1,4,24,11,,,,,,,,,,,,,b,1,1.717996922261591,744.895187547052,None,,,,,001,30,2019_Oct_15_1409,ACPT_experiment_5_30_19,3.1.0,59.95461085352911,
,,,C,U,g,n,,,,,,,,,,1,5,25,16,,,,,,,,,,,,,n,1,2.2350621313180454,749.8990075530783,None,,,,,001,30,2019_Oct_15_1409,ACPT_experiment_5_30_19,3.1.0,59.95461085352911,
,,,C,U,d,n,,,,,,,,,,1,6,26,15,,,,,,,,,,,,,n,1,1.2843645085667958,755.4032411038079,None,,,,,001,30,2019_Oct_15_1409,ACPT_experiment_5_30_19,3.1.0,59.95461085352911,
,,,C,U,d,n,,,,,,,,,,1,7,27,6,,,,,,,,,,,,,n,1,1.6342245372688922,759.973767682055,None,,,,,001,30,2019_Oct_15_1409,ACPT_experiment_5_30_19,3.1.0,59.95461085352911,
,,,C,D,d,v,,,,,,,,,,1,8,28,9,,,,,,,,,,,,,v,1,3.5861048375063547,764.893862392848,None,,,,,001,30,2019_Oct_15_1409,ACPT_experiment_5_30_19,3.1.0,59.95461085352911,
,,,C,G,d,b,,,,,,,,,,1,9,29,12,,,,,,,,,,,,,b,1,2.0849783055055013,771.7658123497131,None,,,,,001,30,2019_Oct_15_1409,ACPT_experiment_5_30_19,3.1.0,59.95461085352911,
,,,C,U,y,n,,,,,,,,,,1,10,30,8,,,,,,,,,,,,,n,1,1.7346941670875822,777.1366203798461,None,,,,,001,30,2019_Oct_15_1409,ACPT_experiment_5_30_19,3.1.0,59.95461085352911,
,,,C,G,y,b,,,,,,,,,,1,11,31,5,,,,,,,,,,,,,b,1,3.619470348843606,782.1571234433977,None,,,,,001,30,2019_Oct_15_1409,ACPT_experiment_5_30_19,3.1.0,59.95461085352911,
,,,C,G,g,v,,,,,,,,,,1,12,32,13,,,,,,,,,,,,,v,1,3.586126269385204,789.0457437797759,None,,,,,001,30,2019_Oct_15_1409,ACPT_experiment_5_30_19,3.1.0,59.95461085352911,
,,,C,D,d,v,,,,,,,,,,1,13,33,18,,,,,,,,,,,,,v,1,2.1016637778920995,795.9176964533563,None,,,,,001,30,2019_Oct_15_1409,ACPT_experiment_5_30_19,3.1.0,59.95461085352911,
,,,C,D,g,b,,,,,,,,,,1,14,34,10,,,,,,,,,,,,,b,1,1.1508822387677355,801.2885017667722,None,,,,,001,30,2019_Oct_15_1409,ACPT_experiment_5_30_19,3.1.0,59.95461085352911,
,,,C,G,g,v,,,,,,,,,,1,15,35,4,,,,,,,,,,,,,v,1,1.9848775454884162,805.7252309360429,None,,,,,001,30,2019_Oct_15_1409,ACPT_experiment_5_30_19,3.1.0,59.95461085352911,
,,,C,D,g,b,,,,,,,,,,1,16,36,1,,,,,,,,,,,,,b,1,2.251729492258164,810.9792786935141,None,,,,,001,30,2019_Oct_15_1409,ACPT_experiment_5_30_19,3.1.0,59.95461085352911,
,,,C,D,d,v,,,,,,,,,,1,17,37,0,,,,,,,,,,,,,v,1,1.8848625129885477,816.5001705494597,None,,,,,001,30,2019_Oct_15_1409,ACPT_experiment_5_30_19,3.1.0,59.95461085352911,
,,,C,U,y,n,,,,,,,,,,1,18,38,17,,,,,,,,,,,,,n,1,1.0841614792479959,821.6708304883268,None,,,,,001,30,2019_Oct_15_1409,ACPT_experiment_5_30_19,3.1.0,59.95461085352911,
,,,C,G,y,b,,,,,,,,,,1,19,39,14,,,,,,,,,,,,,b,1,1.7677949494409404,826.0577619322739,None,,,,,001,30,2019_Oct_15_1409,ACPT_experiment_5_30_19,3.1.0,59.95461085352911,
,,,C,D,y,b,,,,,,,,,,2,0,40,2,,,,,,,,,,,,,b,1,7.238896626500718,831.1114198106643,None,,,,,001,30,2019_Oct_15_1409,ACPT_experiment_5_30_19,3.1.0,59.95461085352911,
,,,C,G,y,b,,,,,,,,,,2,1,41,5,,,,,,,,,,,,,b,1,4.486823318608003,841.6361497840826,None,,,,,001,30,2019_Oct_15_1409,ACPT_experiment_5_30_19,3.1.0,59.95461085352911,
,,,C,G,g,v,,,,,,,,,,2,2,42,19,,,,,,,,,,,,,v,1,1.6846314109243394,849.3921227883657,None,,,,,001,30,2019_Oct_15_1409,ACPT_experiment_5_30_19,3.1.0,59.95461085352911,
,,,C,U,d,n,,,,,,,,,,2,3,43,15,,,,,,,,,,,,,n,1,1.48449116795382,854.3625932814994,None,,,,,001,30,2019_Oct_15_1409,ACPT_experiment_5_30_19,3.1.0,59.95461085352911,
,,,C,G,d,b,,,,,,,,,,2,4,44,3,,,,,,,,,,,,,b,1,2.118292501076212,859.1329392282478,None,,,,,001,30,2019_Oct_15_1409,ACPT_experiment_5_30_19,3.1.0,59.95461085352911,
,,,C,D,g,b,,,,,,,,,,2,5,45,1,,,,,,,,,,,,,b,1,1.5679284911784634,864.5370750375369,None,,,,,001,30,2019_Oct_15_1409,ACPT_experiment_5_30_19,3.1.0,59.95461085352911,
,,,C,D,y,b,,,,,,,,,,2,6,46,11,,,,,,,,,,,,,b,1,1.934855238221644,869.3741257453621,None,,,,,001,30,2019_Oct_15_1409,ACPT_experiment_5_30_19,3.1.0,59.95461085352911,
,,,C,U,g,n,,,,,,,,,,2,7,47,7,,,,,,,,,,,,,n,1,1.3343687043852697,874.5948085952095,None,,,,,001,30,2019_Oct_15_1409,ACPT_experiment_5_30_19,3.1.0,59.95461085352911,
,,,C,G,y,b,,,,,,,,,,2,8,48,14,,,,,,,,,,,,,b,1,2.535320340180988,879.2149979685,None,,,,,001,30,2019_Oct_15_1409,ACPT_experiment_5_30_19,3.1.0,59.95461085352911,
,,,C,D,d,v,,,,,,,,,,2,9,49,9,,,,,,,,,,,,,v,1,1.4844697360731516,885.0361745967639,None,,,,,001,30,2019_Oct_15_1409,ACPT_experiment_5_30_19,3.1.0,59.95461085352911,
,,,C,D,g,b,,,,,,,,,,2,10,50,10,,,,,,,,,,,,,b,1,0.8840209344180039,889.7898157522504,None,,,,,001,30,2019_Oct_15_1409,ACPT_experiment_5_30_19,3.1.0,59.95461085352911,
,,,C,G,g,v,,,,,,,,,,2,11,51,13,,,,,,,,,,,,,v,1,8.13935007676264,893.9766344222553,None,,,,,001,30,2019_Oct_15_1409,ACPT_experiment_5_30_19,3.1.0,59.95461085352911,
,,,C,U,g,n,,,,,,,,,,2,12,52,16,,,,,,,,,,,,,n,1,1.83475960978285,905.401804564206,None,,,,,001,30,2019_Oct_15_1409,ACPT_experiment_5_30_19,3.1.0,59.95461085352911,
,,,C,U,y,n,,,,,,,,,,2,13,53,8,,,,,,,,,,,,,n,1,1.6012894746527309,910.5224047654847,None,,,,,001,30,2019_Oct_15_1409,ACPT_experiment_5_30_19,3.1.0,59.95461085352911,
,,,C,D,d,v,,,,,,,,,,2,14,54,18,,,,,,,,,,,,,v,1,4.253292811989013,915.4261704975397,None,,,,,001,30,2019_Oct_15_1409,ACPT_experiment_5_30_19,3.1.0,59.95461085352911,
,,,C,U,d,n,,,,,,,,,,2,15,55,6,,,,,,,,,,,,,n,1,1.8014257934773923,922.965312654891,None,,,,,001,30,2019_Oct_15_1409,ACPT_experiment_5_30_19,3.1.0,59.95461085352911,
,,,C,U,y,n,,,,,,,,,,2,16,56,17,,,,,,,,,,,,,n,1,1.7680297945371422,928.0358694188835,None,,,,,001,30,2019_Oct_15_1409,ACPT_experiment_5_30_19,3.1.0,59.95461085352911,
,,,C,G,d,b,,,,,,,,,,2,17,57,12,,,,,,,,,,,,,b,1,6.638433033831461,933.0897521810712,None,,,,,001,30,2019_Oct_15_1409,ACPT_experiment_5_30_19,3.1.0,59.95461085352911,
,,,C,G,g,v,,,,,,,,,,2,18,58,4,,,,,,,,,,,,,v,1,1.434456786390001,942.9973466730189,None,,,,,001,30,2019_Oct_15_1409,ACPT_experiment_5_30_19,3.1.0,59.95461085352911,
,,,C,D,d,v,,,,,,,,,,2,19,59,0,,,,,,,,,,,,,v,1,2.9019914139662433,947.7345966671328,None,,,,,001,30,2019_Oct_15_1409,ACPT_experiment_5_30_19,3.1.0,59.95461085352911,
,,,C,G,d,b,,,,,,,,,,3,0,60,3,,,,,,,,,,,,,b,1,1.1842598244038527,953.9224090518601,None,,,,,001,30,2019_Oct_15_1409,ACPT_experiment_5_30_19,3.1.0,59.95461085352911,
,,,C,D,d,v,,,,,,,,,,3,1,61,9,,,,,,,,,,,,,v,1,1.434152514080779,958.4094777805749,None,,,,,001,30,2019_Oct_15_1409,ACPT_experiment_5_30_19,3.1.0,59.95461085352911,
,,,C,G,y,b,,,,,,,,,,3,2,62,14,,,,,,,,,,,,,b,1,1.8514139908511424,963.1295086183327,None,,,,,001,30,2019_Oct_15_1409,ACPT_experiment_5_30_19,3.1.0,59.95461085352911,
,,,C,G,g,v,,,,,,,,,,3,3,63,4,,,,,,,,,,,,,v,1,4.903782937930373,968.2500819542984,None,,,,,001,30,2019_Oct_15_1409,ACPT_experiment_5_30_19,3.1.0,59.95461085352911,
,,,C,U,d,n,,,,,,,,,,3,4,64,6,,,,,,,,,,,,,n,1,1.6345943126434577,976.4397109171587,None,,,,,001,30,2019_Oct_15_1409,ACPT_experiment_5_30_19,3.1.0,59.95461085352911,
,,,C,U,y,n,,,,,,,,,,3,5,65,17,,,,,,,,,,,,,n,1,1.1508771071912633,981.3601699698938,None,,,,,001,30,2019_Oct_15_1409,ACPT_experiment_5_30_19,3.1.0,59.95461085352911,
,,,C,D,y,b,,,,,,,,,,3,6,66,11,,,,,,,,,,,,,b,1,1.3143525368996052,985.8502666306849,None,,,,,001,30,2019_Oct_15_1409,ACPT_experiment_5_30_19,3.1.0,59.95461085352911,
,,,C,G,d,b,,,,,,,,,,3,7,67,12,,,,,,,,,,,,,b,1,1.417796971887583,990.4504670036604,None,,,,,001,30,2019_Oct_15_1409,ACPT_experiment_5_30_19,3.1.0,59.95461085352911,
,,,C,U,g,n,,,,,,,,,,3,8,68,16,,,,,,,,,,,,,n,1,0.9340637679906649,995.1540752868714,None,,,,,001,30,2019_Oct_15_1409,ACPT_experiment_5_30_19,3.1.0,59.95461085352911,
,,,C,U,y,n,,,,,,,,,,3,9,69,8,,,,,,,,,,,,,n,1,0.8507000979825534,999.3739887020802,None,,,,,001,30,2019_Oct_15_1409,ACPT_experiment_5_30_19,3.1.0,59.95461085352911,
,,,C,D,g,b,,,,,,,,,,3,10,70,1,,,,,,,,,,,,,b,1,1.9181359578033153,1003.5438719617305,None,,,,,001,30,2019_Oct_15_1409,ACPT_experiment_5_30_19,3.1.0,59.95461085352911,
,,,C,U,g,n,,,,,,,,,,3,11,71,7,,,,,,,,,,,,,n,1,0.8173044008999568,1008.7478611890419,None,,,,,001,30,2019_Oct_15_1409,ACPT_experiment_5_30_19,3.1.0,59.95461085352911,
,,,C,G,g,v,,,,,,,,,,3,12,72,19,,,,,,,,,,,,,v,1,4.386447264596427,1012.8679584958081,None,,,,,001,30,2019_Oct_15_1409,ACPT_experiment_5_30_19,3.1.0,59.95461085352911,
,,,C,G,y,b,,,,,,,,,,3,13,73,5,,,,,,,,,,,,,b,1,3.719543036118921,1020.5235651055209,None,,,,,001,30,2019_Oct_15_1409,ACPT_experiment_5_30_19,3.1.0,59.95461085352911,
,,,C,D,d,v,,,,,,,,,,3,14,74,18,,,,,,,,,,,,,v,1,0.9173837290381925,1027.528946620132,None,,,,,001,30,2019_Oct_15_1409,ACPT_experiment_5_30_19,3.1.0,59.95461085352911,
,,,C,D,g,b,,,,,,,,,,3,15,75,10,,,,,,,,,,,,,b,1,0.9505116785621794,1031.732442008657,None,,,,,001,30,2019_Oct_15_1409,ACPT_experiment_5_30_19,3.1.0,59.95461085352911,
,,,C,G,g,v,,,,,,,,,,3,16,76,13,,,,,,,,,,,,,v,1,1.6012218585838127,1035.9687806951297,None,,,,,001,30,2019_Oct_15_1409,ACPT_experiment_5_30_19,3.1.0,59.95461085352911,
,,,C,U,d,n,,,,,,,,,,3,17,77,15,,,,,,,,,,,,,n,1,1.3844190843938122,1040.8558509935046,None,,,,,001,30,2019_Oct_15_1409,ACPT_experiment_5_30_19,3.1.0,59.95461085352911,
,,,C,D,d,v,,,,,,,,,,3,18,78,0,,,,,,,,,,,,,v,1,0.8138520572483685,1045.546214677397,None,,,,,001,30,2019_Oct_15_1409,ACPT_experiment_5_30_19,3.1.0,59.95461085352911,
,,,C,D,y,b,,,,,,,,,,3,19,79,2,,,,,,,,,,,,,b,1,1.2009383540680574,1049.6292541525017,None,,,,,001,30,2019_Oct_15_1409,ACPT_experiment_5_30_19,3.1.0,59.95461085352911,
,,,C,U,y,n,,,,,,,,,,4,0,80,8,,,,,,,,,,,,,n,1,0.9004688449913374,1054.1329573396943,None,,,,,001,30,2019_Oct_15_1409,ACPT_experiment_5_30_19,3.1.0,59.95461085352911,
,,,C,D,g,b,,,,,,,,,,4,1,81,10,,,,,,,,,,,,,b,1,1.467807506711324,1058.3192637576067,None,,,,,001,30,2019_Oct_15_1409,ACPT_experiment_5_30_19,3.1.0,59.95461085352911,
,,,C,G,d,b,,,,,,,,,,4,2,82,3,,,,,,,,,,,,,b,1,2.5019650919966807,1063.0729142706732,None,,,,,001,30,2019_Oct_15_1409,ACPT_experiment_5_30_19,3.1.0,59.95461085352911,
,,,C,G,y,b,,,,,,,,,,4,3,83,14,,,,,,,,,,,,,b,1,3.169119560301624,1068.8606915795663,None,,,,,001,30,2019_Oct_15_1409,ACPT_experiment_5_30_19,3.1.0,59.95461085352911,
,,,C,G,g,v,,,,,,,,,,4,4,84,4,,,,,,,,,,,,,v,1,1.9181721806962742,1075.2989538828224,None,,,,,001,30,2019_Oct_15_1409,ACPT_experiment_5_30_19,3.1.0,59.95461085352911,
,,,C,D,g,b,,,,,,,,,,4,5,85,1,,,,,,,,,,,,,b,1,3.019034225202631,1080.5029705791621,None,,,,,001,30,2019_Oct_15_1409,ACPT_experiment_5_30_19,3.1.0,59.95461085352911,
,,,C,D,d,v,,,,,,,,,,4,6,86,18,,,,,,,,,,,,,v,1,1.401090369479789,1086.8078118896829,None,,,,,001,30,2019_Oct_15_1409,ACPT_experiment_5_30_19,3.1.0,59.95461085352911,
,,,C,G,y,b,,,,,,,,,,4,7,87,5,,,,,,,,,,,,,b,1,2.1349909533328173,1091.494748887806,None,,,,,001,30,2019_Oct_15_1409,ACPT_experiment_5_30_19,3.1.0,59.95461085352911,
,,,C,U,g,n,,,,,,,,,,4,8,88,7,,,,,,,,,,,,,n,1,1.6345840494905133,1096.9155964310794,None,,,,,001,30,2019_Oct_15_1409,ACPT_experiment_5_30_19,3.1.0,59.95461085352911,
,,,C,U,d,n,,,,,,,,,,4,9,89,15,,,,,,,,,,,,,n,1,1.9848787529190304,1101.819335599679,None,,,,,001,30,2019_Oct_15_1409,ACPT_experiment_5_30_19,3.1.0,59.95461085352911,
,,,C,G,g,v,,,,,,,,,,4,10,90,19,,,,,,,,,,,,,v,1,1.718034956300471,1107.0900618868145,None,,,,,001,30,2019_Oct_15_1409,ACPT_experiment_5_30_19,3.1.0,59.95461085352911,
,,,C,G,g,v,,,,,,,,,,4,11,91,13,,,,,,,,,,,,,v,1,3.135797818295032,1112.0771961185965,None,,,,,001,30,2019_Oct_15_1409,ACPT_experiment_5_30_19,3.1.0,59.95461085352911,
,,,C,U,d,n,,,,,,,,,,4,12,92,6,,,,,,,,,,,,,n,1,1.2176159781593014,1118.498820039229,None,,,,,001,30,2019_Oct_15_1409,ACPT_experiment_5_30_19,3.1.0,59.95461085352911,
,,,C,U,g,n,,,,,,,,,,4,13,93,16,,,,,,,,,,,,,n,1,0.8837501682846778,1123.0192331492617,None,,,,,001,30,2019_Oct_15_1409,ACPT_experiment_5_30_19,3.1.0,59.95461085352911,
,,,C,D,d,v,,,,,,,,,,4,14,94,9,,,,,,,,,,,,,v,1,1.2343159397041745,1127.1888290406187,None,,,,,001,30,2019_Oct_15_1409,ACPT_experiment_5_30_19,3.1.0,59.95461085352911,
,,,C,D,y,b,,,,,,,,,,4,15,95,11,,,,,,,,,,,,,b,1,2.301305050496012,1131.7260975687805,None,,,,,001,30,2019_Oct_15_1409,ACPT_experiment_5_30_19,3.1.0,59.95461085352911,
,,,C,G,d,b,,,,,,,,,,4,16,96,12,,,,,,,,,,,,,b,1,1.45112988262008,1137.3132694723718,None,,,,,001,30,2019_Oct_15_1409,ACPT_experiment_5_30_19,3.1.0,59.95461085352911,
,,,C,D,d,v,,,,,,,,,,4,17,97,0,,,,,,,,,,,,,v,1,1.8681148579653382,1142.050246285493,None,,,,,001,30,2019_Oct_15_1409,ACPT_experiment_5_30_19,3.1.0,59.95461085352911,
,,,C,D,y,b,,,,,,,,,,4,18,98,2,,,,,,,,,,,,,b,1,1.684642881506079,1147.2042002256694,None,,,,,001,30,2019_Oct_15_1409,ACPT_experiment_5_30_19,3.1.0,59.95461085352911,
,,,C,U,y,n,,,,,,,,,,4,19,99,17,,,,,,,,,,,,,n,1,1.901474935870283,1152.1746846042442,None,,,,,001,30,2019_Oct_15_1409,ACPT_experiment_5_30_19,3.1.0,59.95461085352911,
,,,C,D,g,b,,,,,,,,,,5,0,100,1,,,,,,,,,,,,,b,1,1.0508355112360732,1157.362000433468,None,,,,,001,30,2019_Oct_15_1409,ACPT_experiment_5_30_19,3.1.0,59.95461085352911,
,,,C,D,d,v,,,,,,,,,,5,1,101,18,,,,,,,,,,,,,v,1,2.001304326038735,1161.698936435463,None,,,,,001,30,2019_Oct_15_1409,ACPT_experiment_5_30_19,3.1.0,59.95461085352911,
,,,C,G,g,v,,,,,,,,,,5,2,102,13,,,,,,,,,,,,,v,1,1.5012032037939207,1166.9860566006864,None,,,,,001,30,2019_Oct_15_1409,ACPT_experiment_5_30_19,3.1.0,59.95461085352911,
,,,C,G,y,b,,,,,,,,,,5,3,103,5,,,,,,,,,,,,,b,1,1.150929932244253,1171.7563913787108,None,,,,,001,30,2019_Oct_15_1409,ACPT_experiment_5_30_19,3.1.0,59.95461085352911,
,,,C,U,y,n,,,,,,,,,,5,4,104,8,,,,,,,,,,,,,n,1,1.0837409918185585,1176.210231941228,None,,,,,001,30,2019_Oct_15_1409,ACPT_experiment_5_30_19,3.1.0,59.95461085352911,
,,,C,U,g,n,,,,,,,,,,5,5,105,7,,,,,,,,,,,,,n,1,0.8673430084691063,1180.5631558230416,None,,,,,001,30,2019_Oct_15_1409,ACPT_experiment_5_30_19,3.1.0,59.95461085352911,
,,,C,U,g,n,,,,,,,,,,5,6,106,16,,,,,,,,,,,,,n,1,0.7971481715594564,1184.736486294767,None,,,,,001,30,2019_Oct_15_1409,ACPT_experiment_5_30_19,3.1.0,59.95461085352911,
,,,C,G,g,v,,,,,,,,,,5,7,107,19,,,,,,,,,,,,,v,1,1.267658509874309,1188.8194986027029,None,,,,,001,30,2019_Oct_15_1409,ACPT_experiment_5_30_19,3.1.0,59.95461085352911,
,,,C,G,g,v,,,,,,,,,,5,8,108,4,,,,,,,,,,,,,v,1,2.73544428284913,1193.3729967985,None,,,,,001,30,2019_Oct_15_1409,ACPT_experiment_5_30_19,3.1.0,59.95461085352911,
,,,C,D,y,b,,,,,,,,,,5,9,109,2,,,,,,,,,,,,,b,1,1.0007775847898301,1199.394285295135,None,,,,,001,30,2019_Oct_15_1409,ACPT_experiment_5_30_19,3.1.0,59.95461085352911,
,,,C,D,y,b,,,,,,,,,,5,10,110,11,,,,,,,,,,,,,b,1,1.1006066731024475,1203.7145192225853,None,,,,,001,30,2019_Oct_15_1409,ACPT_experiment_5_30_19,3.1.0,59.95461085352911,
,,,C,U,d,n,,,,,,,,,,5,11,111,15,,,,,,,,,,,,,n,1,1.41776859728634,1208.1009749391906,None,,,,,001,30,2019_Oct_15_1409,ACPT_experiment_5_30_19,3.1.0,59.95461085352911,
,,,C,G,d,b,,,,,,,,,,5,12,112,12,,,,,,,,,,,,,b,1,1.8848410811078793,1212.804585637261,None,,,,,001,30,2019_Oct_15_1409,ACPT_experiment_5_30_19,3.1.0,59.95461085352911,
,,,C,G,d,b,,,,,,,,,,5,13,113,3,,,,,,,,,,,,,b,1,1.5178732814492832,1217.9585193529874,None,,,,,001,30,2019_Oct_15_1409,ACPT_experiment_5_30_19,3.1.0,59.95461085352911,
,,,C,D,d,v,,,,,,,,,,5,14,114,0,,,,,,,,,,,,,v,1,1.768039755832433,1222.7622347352208,None,,,,,001,30,2019_Oct_15_1409,ACPT_experiment_5_30_19,3.1.0,59.95461085352911,
,,,C,G,y,b,,,,,,,,,,5,15,115,14,,,,,,,,,,,,,b,1,1.000798111097538,1227.8160969711025,None,,,,,001,30,2019_Oct_15_1409,ACPT_experiment_5_30_19,3.1.0,59.95461085352911,
,,,C,U,d,n,,,,,,,,,,5,16,116,6,,,,,,,,,,,,,n,1,2.485099108855138,1232.119548529925,None,,,,,001,30,2019_Oct_15_1409,ACPT_experiment_5_30_19,3.1.0,59.95461085352911,
,,,C,D,d,v,,,,,,,,,,5,17,117,9,,,,,,,,,,,,,v,1,1.06750347588968,1237.8905193215942,None,,,,,001,30,2019_Oct_15_1409,ACPT_experiment_5_30_19,3.1.0,59.95461085352911,
,,,C,D,g,b,,,,,,,,,,5,18,118,10,,,,,,,,,,,,,b,1,1.3010246249268675,1242.2438739539884,None,,,,,001,30,2019_Oct_15_1409,ACPT_experiment_5_30_19,3.1.0,59.95461085352911,
,,,C,U,y,n,,,,,,,,,,5,19,119,17,0,0,0,0,0,0,0,0,,,,,n,1,0.8173059101864055,1246.8307171348188,None,,,,,001,30,2019_Oct_15_1409,ACPT_experiment_5_30_19,3.1.0,59.95461085352911,
,,,C,U,y,n,L,D,g,R,i,,,,,5,19,119,17,0,0,0,0,,,,,0,0,0,15,,,,,,down,2.6687223158987763,1311.4470222064465,None,001,30,2019_Oct_15_1409,ACPT_experiment_5_30_19,3.1.0,59.95461085352911,
,,,C,U,y,n,R,D,d,L,c,,,,,5,19,119,17,0,0,0,0,,,,,0,1,1,0,,,,,,up,0.9840912068320904,1315.400055300286,None,001,30,2019_Oct_15_1409,ACPT_experiment_5_30_19,3.1.0,59.95461085352911,
,,,C,U,y,n,L,G,g,R,c ,,,,,5,19,119,17,0,0,0,0,,,,,0,2,2,19,,,,,,up,1.0508164942166331,1317.6684633222067,None,001,30,2019_Oct_15_1409,ACPT_experiment_5_30_19,3.1.0,59.95461085352911,
,,,C,U,y,n,R,G,g,R,c ,,,,,5,19,119,17,0,0,0,0,,,,,0,3,3,7,,,,,,up,0.717190962872337,1320.0036210819671,None,001,30,2019_Oct_15_1409,ACPT_experiment_5_30_19,3.1.0,59.95461085352911,
,,,C,U,y,n,R,G,y,R,y,,,,,5,19,119,17,0,0,0,0,,,,,0,4,4,29,,,,,,down,1.2676410021413176,1322.0051339915044,None,001,30,2019_Oct_15_1409,ACPT_experiment_5_30_19,3.1.0,59.95461085352911,
,,,C,U,y,n,R,U,y,L,u,,,,,5,19,119,17,0,0,0,0,,,,,0,5,5,30,,,,,,up,4.019777096385951,1324.5570655471383,None,001,30,2019_Oct_15_1409,ACPT_experiment_5_30_19,3.1.0,59.95461085352911,
,,,C,U,y,n,L,U,d,R,u,,,,,5,19,119,17,0,0,0,0,,,,,0,6,6,21,,,,,,up,0.800617419228729,1329.8611670050486,None,001,30,2019_Oct_15_1409,ACPT_experiment_5_30_19,3.1.0,59.95461085352911,
,,,C,U,y,n,R,D,y,R,y,,,,,5,19,119,17,0,0,0,0,,,,,0,7,7,27,,,,,,down,0.7839708864521526,1331.9460994282217,None,001,30,2019_Oct_15_1409,ACPT_experiment_5_30_19,3.1.0,59.95461085352911,
,,,C,U,y,n,L,D,y,L,y,,,,,5,19,119,17,0,0,0,0,,,,,0,8,8,32,,,,,,down,0.8006113820792962,1334.0143569440206,None,001,30,2019_Oct_15_1409,ACPT_experiment_5_30_19,3.1.0,59.95461085352911,
,,,C,U,y,n,L,D,d,L,c ,,,,,5,19,119,17,0,0,0,0,,,,,0,9,9,12,,,,,,up,1.0174509828775626,1336.0992935931972,None,001,30,2019_Oct_15_1409,ACPT_experiment_5_30_19,3.1.0,59.95461085352911,
,,,C,U,y,n,L,D,g,L,i,,,,,5,19,119,17,0,0,0,0,,,,,0,10,10,14,,,,,,down,0.7672685100496892,1338.4010556558733,None,001,30,2019_Oct_15_1409,ACPT_experiment_5_30_19,3.1.0,59.95461085352911,
,,,C,U,y,n,R,D,y,L,y,,,,,5,19,119,17,0,0,0,0,,,,,0,11,11,26,,,,,,down,2.0348808357357484,1340.4526563757427,None,001,30,2019_Oct_15_1409,ACPT_experiment_5_30_19,3.1.0,59.95461085352911,
,,,C,U,y,n,R,U,d,L,u,,,,,5,19,119,17,0,0,0,0,,,,,0,12,12,8,,,,,,up,1.5345131733611197,1343.7718543284245,None,001,30,2019_Oct_15_1409,ACPT_experiment_5_30_19,3.1.0,59.95461085352911,
,,,C,U,y,n,L,G,d,L,i,,,,,5,19,119,17,0,0,0,0,,,,,0,13,13,16,,,,,,down,1.0507754416030366,1346.5907117859042,None,001,30,2019_Oct_15_1409,ACPT_experiment_5_30_19,3.1.0,59.95461085352911,
,,,C,U,y,n,L,G,g,L,c ,,,,,5,19,119,17,0,0,0,0,,,,,0,14,14,18,,,,,,up,0.8840707408980961,1348.909105590341,None,001,30,2019_Oct_15_1409,ACPT_experiment_5_30_19,3.1.0,59.95461085352911,
,,,C,U,y,n,R,U,g,R,u,,,,,5,19,119,17,0,0,0,0,,,,,0,15,15,11,,,,,,down,0.9174232723635214,1351.0607823179162,None,001,30,2019_Oct_15_1409,ACPT_experiment_5_30_19,3.1.0,59.95461085352911,
,,,C,U,y,n,L,D,d,R,c ,,,,,5,19,119,17,0,0,0,0,,,,,0,16,16,13,,,,,,up,1.167588539317876,1353.262475315607,None,001,30,2019_Oct_15_1409,ACPT_experiment_5_30_19,3.1.0,59.95461085352911,
,,,C,U,y,n,R,G,y,L,y,,,,,5,19,119,17,0,0,0,0,,,,,0,17,17,28,,,,,,down,1.0007721513557044,1355.7143522954157,None,001,30,2019_Oct_15_1409,ACPT_experiment_5_30_19,3.1.0,59.95461085352911,
,,,C,U,y,n,L,G,y,R,y,,,,,5,19,119,17,0,0,0,0,,,,,0,18,18,35,,,,,,down,0.9507287140695553,1357.9994451860075,None,001,30,2019_Oct_15_1409,ACPT_experiment_5_30_19,3.1.0,59.95461085352911,
,,,C,U,y,n,L,U,g,R,u,,,,,5,19,119,17,0,0,0,0,,,,,0,19,19,23,,,,,,up,1.1675674092966801,1360.2344952430285,None,001,30,2019_Oct_15_1409,ACPT_experiment_5_30_19,3.1.0,59.95461085352911,
,,,C,U,y,n,R,G,d,L,i,,,,,5,19,119,17,0,0,0,0,,,,,0,20,20,4,,,,,,down,1.7013395226185821,1362.6863800711308,None,001,30,2019_Oct_15_1409,ACPT_experiment_5_30_19,3.1.0,59.95461085352911,
,,,C,U,y,n,L,U,d,L,u,,,,,5,19,119,17,0,0,0,0,,,,,0,21,21,20,,,,,,down,1.100843027485098,1365.6720062230943,None,001,30,2019_Oct_15_1409,ACPT_experiment_5_30_19,3.1.0,59.95461085352911,
,,,C,U,y,n,R,U,y,R,u,,,,,5,19,119,17,0,0,0,0,,,,,0,22,22,31,,,,,,up,1.5011527936003404,1368.0738448971915,None,001,30,2019_Oct_15_1409,ACPT_experiment_5_30_19,3.1.0,59.95461085352911,
,,,C,U,y,n,L,U,y,L,u,,,,,5,19,119,17,0,0,0,0,,,,,0,23,23,24,,,,,,up,0.9507308270713111,1370.8759996764093,None,001,30,2019_Oct_15_1409,ACPT_experiment_5_30_19,3.1.0,59.95461085352911,
,,,C,U,y,n,R,D,g,L,i,,,,,5,19,119,17,0,0,0,0,,,,,0,24,24,2,,,,,,down,1.684627788634316,1373.1110678448767,None,001,30,2019_Oct_15_1409,ACPT_experiment_5_30_19,3.1.0,59.95461085352911,
,,,C,U,y,n,L,U,y,R,u,,,,,5,19,119,17,0,0,0,0,,,,,0,25,25,25,,,,,,up,1.134208840680003,1376.0799976575872,None,001,30,2019_Oct_15_1409,ACPT_experiment_5_30_19,3.1.0,59.95461085352911,
,,,C,U,y,n,R,G,d,R,i,,,,,5,19,119,17,0,0,0,0,,,,,0,26,26,5,,,,,,down,0.9674166013137437,1378.4985190873522,None,001,30,2019_Oct_15_1409,ACPT_experiment_5_30_19,3.1.0,59.95461085352911,
,,,C,U,y,n,L,G,d,R,i,,,,,5,19,119,17,0,0,0,0,,,,,0,27,27,17,,,,,,down,1.4844893568097177,1380.7502715207756,None,001,30,2019_Oct_15_1409,ACPT_experiment_5_30_19,3.1.0,59.95461085352911,
,,,C,U,y,n,L,G,y,L,y,,,,,5,19,119,17,0,0,0,0,,,,,0,28,28,34,,,,,,down,1.2009244686250895,1383.5190447902132,None,001,30,2019_Oct_15_1409,ACPT_experiment_5_30_19,3.1.0,59.95461085352911,
,,,C,U,y,n,L,U,g,L,u,,,,,5,19,119,17,0,0,0,0,,,,,0,29,29,22,,,,,,up,1.5011521898868523,1386.0209688295963,None,001,30,2019_Oct_15_1409,ACPT_experiment_5_30_19,3.1.0,59.95461085352911,
,,,C,U,y,n,L,D,y,R,y,,,,,5,19,119,17,0,0,0,0,,,,,0,30,30,33,,,,,,down,1.2676582080166554,1388.8231187790952,None,001,30,2019_Oct_15_1409,ACPT_experiment_5_30_19,3.1.0,59.95461085352911,
,,,C,U,y,n,R,U,g,L,u,,,,,5,19,119,17,0,0,0,0,,,,,0,31,31,10,,,,,,up,2.7521125493622094,1391.3917581445676,None,001,30,2019_Oct_15_1409,ACPT_experiment_5_30_19,3.1.0,59.95461085352911,
,,,C,U,y,n,R,U,d,R,u,,,,,5,19,119,17,0,0,0,0,,,,,0,32,32,9,,,,,,up,1.3677124819860182,1395.4115213555087,None,001,30,2019_Oct_15_1409,ACPT_experiment_5_30_19,3.1.0,59.95461085352911,
,,,C,U,y,n,R,G,g,L,c ,,,,,5,19,119,17,0,0,0,0,,,,,0,33,33,6,,,,,,down,0.9340519955494528,1398.0635509544427,None,001,30,2019_Oct_15_1409,ACPT_experiment_5_30_19,3.1.0,59.95461085352911,
,,,C,U,y,n,R,D,d,R,c ,,,,,5,19,119,17,0,0,0,0,,,,,0,34,34,1,,,,,,up,2.351842930287603,1400.2819206706554,None,001,30,2019_Oct_15_1409,ACPT_experiment_5_30_19,3.1.0,59.95461085352911,
,,,C,U,y,n,R,D,g,R,i,,,,,5,19,119,17,0,0,0,0,,,,,0,35,35,3,,,,,,down,0.8173137584817596,1403.901361437469,None,001,30,2019_Oct_15_1409,ACPT_experiment_5_30_19,3.1.0,59.95461085352911,
,,,C,U,y,n,R,D,y,L,y,,,,,5,19,119,17,0,0,0,0,,,,,1,0,36,26,,,,,,down,0.9507232806354295,1406.0029841627475,None,001,30,2019_Oct_15_1409,ACPT_experiment_5_30_19,3.1.0,59.95461085352911,
,,,C,U,y,n,L,U,d,L,u,,,,,5,19,119,17,0,0,0,0,,,,,1,1,37,20,,,,,,up,0.9173613915863825,1408.2547100327156,None,001,30,2019_Oct_15_1409,ACPT_experiment_5_30_19,3.1.0,59.95461085352911,
,,,C,U,y,n,R,D,y,R,y,,,,,5,19,119,17,0,0,0,0,,,,,1,2,38,27,,,,,,down,0.917376182602311,1410.4563957858281,None,001,30,2019_Oct_15_1409,ACPT_experiment_5_30_19,3.1.0,59.95461085352911,
,,,C,U,y,n,R,G,g,R,c ,,,,,5,19,119,17,0,0,0,0,,,,,1,3,39,7,,,,,,up,1.5011515861715452,1412.6580908965225,None,001,30,2019_Oct_15_1409,ACPT_experiment_5_30_19,3.1.0,59.95461085352911,
,,,C,U,y,n,R,G,g,L,c ,,,,,5,19,119,17,0,0,0,0,,,,,1,4,40,6,,,,,,up,0.9173967089081998,1415.4268623548141,None,001,30,2019_Oct_15_1409,ACPT_experiment_5_30_19,3.1.0,59.95461085352911,
,,,C,U,y,n,R,G,y,L,y,,,,,5,19,119,17,0,0,0,0,,,,,1,5,41,28,,,,,,down,0.7839826588915457,1417.6118738042678,None,001,30,2019_Oct_15_1409,ACPT_experiment_5_30_19,3.1.0,59.95461085352911,
,,,C,U,y,n,L,U,g,R,u,,,,,5,19,119,17,0,0,0,0,,,,,1,6,42,23,,,,,,up,2.08494842161781,1419.6801482240826,None,001,30,2019_Oct_15_1409,ACPT_experiment_5_30_19,3.1.0,59.95461085352911,
,,,C,U,y,n,L,D,y,L,y,,,,,5,19,119,17,0,0,0,0,,,,,1,7,43,32,,,,,,down,0.7839431155680359,1423.0494041032089,None,001,30,2019_Oct_15_1409,ACPT_experiment_5_30_19,3.1.0,59.95461085352911,
,,,C,U,y,n,R,U,g,L,u,,,,,5,19,119,17,0,0,0,0,,,,,1,8,44,10,,,,,,up,1.301005306049774,1425.1176589022907,None,001,30,2019_Oct_15_1409,ACPT_experiment_5_30_19,3.1.0,59.95461085352911,
,,,C,U,y,n,R,U,d,L,u,,,,,5,19,119,17,0,0,0,0,,,,,1,9,45,8,,,,,,up,1.31770134344697,1427.6862768358824,None,001,30,2019_Oct_15_1409,ACPT_experiment_5_30_19,3.1.0,59.95461085352911,
,,,C,U,y,n,R,D,d,L,c,,,,,5,19,119,17,0,0,0,0,,,,,1,10,46,0,,,,,,up,1.6679408069612691,1430.2883128040085,None,001,30,2019_Oct_15_1409,ACPT_experiment_5_30_19,3.1.0,59.95461085352911,
,,,C,U,y,n,R,G,y,R,y,,,,,5,19,119,17,0,0,0,0,,,,,1,11,47,29,,,,,,down,0.9340372045353433,1433.2405800854995,None,001,30,2019_Oct_15_1409,ACPT_experiment_5_30_19,3.1.0,59.95461085352911,
,,,C,U,y,n,R,D,g,L,i,,,,,5,19,119,17,0,0,0,0,,,,,1,12,48,2,,,,,,down,4.036444457324251,1435.4589350106962,None,001,30,2019_Oct_15_1409,ACPT_experiment_5_30_19,3.1.0,59.95461085352911,
,,,C,U,y,n,L,G,y,R,y,,,,,5,19,119,17,0,0,0,0,,,,,1,13,49,35,,,,,,down,3.702770628786311,1440.7796857180983,None,001,30,2019_Oct_15_1409,ACPT_experiment_5_30_19,3.1.0,59.95461085352911,
,,,C,U,y,n,L,D,g,R,i,,,,,5,19,119,17,0,0,0,0,,,,,1,14,50,15,,,,,,down,2.8521988202210196,1445.7668486263374,None,001,30,2019_Oct_15_1409,ACPT_experiment_5_30_19,3.1.0,59.95461085352911,
,,,C,U,y,n,L,G,g,L,c ,,,,,5,19,119,17,0,0,0,0,,,,,1,15,51,18,,,,,,up,1.067517965046136,1449.9033600356433,None,001,30,2019_Oct_15_1409,ACPT_experiment_5_30_19,3.1.0,59.95461085352911,
,,,C,U,y,n,L,D,g,L,i,,,,,5,19,119,17,0,0,0,0,,,,,1,16,52,14,,,,,,down,1.2509694151995063,1452.2551625170327,None,001,30,2019_Oct_15_1409,ACPT_experiment_5_30_19,3.1.0,59.95461085352911,
,,,C,U,y,n,R,G,d,R,i,,,,,5,19,119,17,0,0,0,0,,,,,1,17,53,5,,,,,,down,4.119811749620567,1454.7904689717707,None,001,30,2019_Oct_15_1409,ACPT_experiment_5_30_19,3.1.0,59.95461085352911,
,,,C,U,y,n,L,U,y,L,u,,,,,5,19,119,17,0,0,0,0,,,,,1,18,54,24,,,,,,down,0.8173258327788062,1460.1945700674532,None,001,30,2019_Oct_15_1409,ACPT_experiment_5_30_19,3.1.0,59.95461085352911,
,,,C,U,y,n,L,D,d,L,c ,,,,,5,19,119,17,0,0,0,0,,,,,1,19,55,12,,,,,,up,1.2343141285600723,1462.2962121116088,None,001,30,2019_Oct_15_1409,ACPT_experiment_5_30_19,3.1.0,59.95461085352911,
,,,C,U,y,n,L,U,d,R,u,,,,,5,19,119,17,0,0,0,0,,,,,1,20,56,21,,,,,,up,1.7680159090959933,1464.8148086435067,None,001,30,2019_Oct_15_1409,ACPT_experiment_5_30_19,3.1.0,59.95461085352911,
,,,C,U,y,n,L,U,g,L,u,,,,,5,19,119,17,0,0,0,0,,,,,1,21,57,22,,,,,,up,0.6672069915002794,1467.8504540841623,None,001,30,2019_Oct_15_1409,ACPT_experiment_5_30_19,3.1.0,59.95461085352911,
,,,C,U,y,n,L,G,d,R,i,,,,,5,19,119,17,0,0,0,0,,,,,1,22,58,17,,,,,,down,1.1175547614693642,1469.8019682313152,None,001,30,2019_Oct_15_1409,ACPT_experiment_5_30_19,3.1.0,59.95461085352911,
,,,C,U,y,n,R,G,d,L,i,,,,,5,19,119,17,0,0,0,0,,,,,1,23,59,4,,,,,,down,1.5845517809284502,1472.18714346862,None,001,30,2019_Oct_15_1409,ACPT_experiment_5_30_19,3.1.0,59.95461085352911,
,,,C,U,y,n,L,G,y,L,y,,,,,5,19,119,17,0,0,0,0,,,,,1,24,60,34,,,,,,down,1.3010511883840081,1475.0560069330622,None,001,30,2019_Oct_15_1409,ACPT_experiment_5_30_19,3.1.0,59.95461085352911,
,,,C,U,y,n,R,D,g,R,i,,,,,5,19,119,17,0,0,0,0,,,,,1,25,61,3,,,,,,down,3.3192794541937474,1477.6413305634906,None,001,30,2019_Oct_15_1409,ACPT_experiment_5_30_19,3.1.0,59.95461085352911,
,,,C,U,y,n,L,D,d,R,c ,,,,,5,19,119,17,0,0,0,0,,,,,1,26,62,13,,,,,,up,0.600447292368699,1482.2448628389939,None,001,30,2019_Oct_15_1409,ACPT_experiment_5_30_19,3.1.0,59.95461085352911,
,,,C,U,y,n,R,U,y,L,u,,,,,5,19,119,17,0,0,0,0,,,,,1,27,63,30,,,,,,down,0.833964215404194,1484.1296595470576,None,001,30,2019_Oct_15_1409,ACPT_experiment_5_30_19,3.1.0,59.95461085352911,
,,,C,U,y,n,L,U,y,R,u,,,,,5,19,119,17,0,0,0,0,,,,,1,28,64,25,,,,,,up,0.5838547920775454,1486.2479396719773,None,001,30,2019_Oct_15_1409,ACPT_experiment_5_30_19,3.1.0,59.95461085352911,
,,,C,U,y,n,L,G,d,L,i,,,,,5,19,119,17,0,0,0,0,,,,,1,29,65,16,,,,,,down,1.0004868960659223,1488.133004731315,None,001,30,2019_Oct_15_1409,ACPT_experiment_5_30_19,3.1.0,59.95461085352911,
,,,C,U,y,n,R,U,g,R,u,,,,,5,19,119,17,0,0,0,0,,,,,1,30,66,11,,,,,,up,2.0515820047075977,1490.4178084424711,None,001,30,2019_Oct_15_1409,ACPT_experiment_5_30_19,3.1.0,59.95461085352911,
,,,C,U,y,n,R,U,y,R,u,,,,,5,19,119,17,0,0,0,0,,,,,1,31,67,31,,,,,,up,1.4177773511528358,1493.7370039802936,None,001,30,2019_Oct_15_1409,ACPT_experiment_5_30_19,3.1.0,59.95461085352911,
,,,C,U,y,n,R,D,d,R,c ,,,,,5,19,119,17,0,0,0,0,,,,,1,32,68,1,,,,,,up,1.2342739815194363,1496.439108107832,None,001,30,2019_Oct_15_1409,ACPT_experiment_5_30_19,3.1.0,59.95461085352911,
,,,C,U,y,n,L,G,g,R,c ,,,,,5,19,119,17,0,0,0,0,,,,,1,33,69,19,,,,,,up,1.417760748992805,1498.9576925654328,None,001,30,2019_Oct_15_1409,ACPT_experiment_5_30_19,3.1.0,59.95461085352911,
,,,C,U,y,n,R,U,d,R,u,,,,,5,19,119,17,0,0,0,0,,,,,1,34,70,9,,,,,,up,1.1008852875274897,1501.6597707332312,None,001,30,2019_Oct_15_1409,ACPT_experiment_5_30_19,3.1.0,59.95461085352911,
,,,C,U,y,n,L,D,y,R,y,,,,,5,19,119,17,0,0,0,0,,,,,1,35,71,33,,,,,,down,0.8339696488365007,1504.0449462723936,None,001,30,2019_Oct_15_1409,ACPT_experiment_5_30_19,3.1.0,59.95461085352911,
,,,C,U,y,n,,,,,,,,,,5,19,119,17,1,0,1,0,0,0,0,0,,,,,,,,,,,,,,001,30,2019_Oct_15_1409,ACPT_experiment_5_30_19,3.1.0,59.95461085352911,
,,,C,U,y,n,R,U,d,L,u,,,,,5,19,119,17,1,0,1,0,,,,,0,0,0,8,,,,,,down,1.3674652607369353,1529.3979975380516,None,001,30,2019_Oct_15_1409,ACPT_experiment_5_30_19,3.1.0,59.95461085352911,
,,,C,U,y,n,L,G,y,R,y,,,,,5,19,119,17,1,0,1,0,,,,,0,1,1,35,,,,,,down,1.6846259774902137,1532.0497856510246,None,001,30,2019_Oct_15_1409,ACPT_experiment_5_30_19,3.1.0,59.95461085352911,
,,,C,U,y,n,R,U,d,R,u,,,,,5,19,119,17,1,0,1,0,,,,,0,2,2,9,,,,,,down,1.4678011677060567,1535.0187281417475,None,001,30,2019_Oct_15_1409,ACPT_experiment_5_30_19,3.1.0,59.95461085352911,
,,,C,U,y,n,L,G,d,L,i,,,,,5,19,119,17,1,0,1,0,,,,,0,3,3,16,,,,,,down,2.235070885184541,1537.7541612558725,None,001,30,2019_Oct_15_1409,ACPT_experiment_5_30_19,3.1.0,59.95461085352911,
,,,C,U,y,n,R,U,g,R,u,,,,,5,19,119,17,1,0,1,0,,,,,0,4,4,11,,,,,,up,1.184251070537357,1541.2735347688467,None,001,30,2019_Oct_15_1409,ACPT_experiment_5_30_19,3.1.0,59.95461085352911,
,,,C,U,y,n,R,U,g,L,u,,,,,5,19,119,17,1,0,1,0,,,,,0,5,5,10,,,,,,up,1.0341618112888682,1543.7420972210402,None,001,30,2019_Oct_15_1409,ACPT_experiment_5_30_19,3.1.0,59.95461085352911,
,,,C,U,y,n,R,D,g,R,i,,,,,5,19,119,17,1,0,1,0,,,,,0,6,6,3,,,,,,down,4.119792430743473,1546.0605477746776,None,001,30,2019_Oct_15_1409,ACPT_experiment_5_30_19,3.1.0,59.95461085352911,
,,,C,U,y,n,L,U,g,L,u,,,,,5,19,119,17,1,0,1,0,,,,,0,7,7,22,,,,,,up,0.917394595906444,1551.4647173920002,None,001,30,2019_Oct_15_1409,ACPT_experiment_5_30_19,3.1.0,59.95461085352911,
,,,C,U,y,n,R,G,y,R,y,,,,,5,19,119,17,1,0,1,0,,,,,0,8,8,29,,,,,,down,2.118127385050684,1553.68320090847,None,001,30,2019_Oct_15_1409,ACPT_experiment_5_30_19,3.1.0,59.95461085352911,
,,,C,U,y,n,R,G,y,L,y,,,,,5,19,119,17,1,0,1,0,,,,,0,9,9,28,,,,,,down,2.668721712183469,1557.1023646908889,None,001,30,2019_Oct_15_1409,ACPT_experiment_5_30_19,3.1.0,59.95461085352911,
,,,C,U,y,n,R,G,g,L,c ,,,,,5,19,119,17,1,0,1,0,,,,,0,10,10,6,,,,,,up,1.6012366495979222,1561.055394464298,None,001,30,2019_Oct_15_1409,ACPT_experiment_5_30_19,3.1.0,59.95461085352911,
,,,C,U,y,n,L,U,d,R,u,,,,,5,19,119,17,1,0,1,0,,,,,0,11,11,21,,,,,,up,1.1342224242653174,1563.940949740132,None,001,30,2019_Oct_15_1409,ACPT_experiment_5_30_19,3.1.0,59.95461085352911,
,,,C,U,y,n,R,G,g,R,c ,,,,,5,19,119,17,1,0,1,0,,,,,0,12,12,7,,,,,,up,1.4344468250928912,1566.3594654346052,None,001,30,2019_Oct_15_1409,ACPT_experiment_5_30_19,3.1.0,59.95461085352911,
,,,C,U,y,n,L,D,y,L,y,,,,,5,19,119,17,1,0,1,0,,,,,0,13,13,32,,,,,,down,2.8854457015804655,1569.0782248487849,None,001,30,2019_Oct_15_1409,ACPT_experiment_5_30_19,3.1.0,59.95461085352911,
,,,C,U,y,n,L,U,y,R,u,,,,,5,19,119,17,1,0,1,0,,,,,0,14,14,25,,,,,,up,2.4185304854891,1573.2480902988445,None,001,30,2019_Oct_15_1409,ACPT_experiment_5_30_19,3.1.0,59.95461085352911,
,,,C,U,y,n,L,U,d,L,u,,,,,5,19,119,17,1,0,1,0,,,,,0,15,15,20,,,,,,up,1.8847849356225197,1576.9509394105698,None,001,30,2019_Oct_15_1409,ACPT_experiment_5_30_19,3.1.0,59.95461085352911,
,,,C,U,y,n,L,G,g,L,c ,,,,,5,19,119,17,1,0,1,0,,,,,0,16,16,18,,,,,,up,4.470103736330202,1580.1200378408503,None,001,30,2019_Oct_15_1409,ACPT_experiment_5_30_19,3.1.0,59.95461085352911,
,,,C,U,y,n,L,D,y,R,y,,,,,5,19,119,17,1,0,1,0,,,,,0,17,17,33,,,,,,down,1.0174434364416811,1585.8744583922708,None,001,30,2019_Oct_15_1409,ACPT_experiment_5_30_19,3.1.0,59.95461085352911,
,,,C,U,y,n,R,G,d,L,i,,,,,5,19,119,17,1,0,1,0,,,,,0,18,18,4,,,,,,down,2.468566074483533,1588.1762237753792,None,001,30,2019_Oct_15_1409,ACPT_experiment_5_30_19,3.1.0,59.95461085352911,
,,,C,U,y,n,L,D,d,L,c ,,,,,5,19,119,17,1,0,1,0,,,,,0,19,19,12,,,,,,up,0.9173659194493666,1591.9291166262483,None,001,30,2019_Oct_15_1409,ACPT_experiment_5_30_19,3.1.0,59.95461085352911,
,,,C,U,y,n,L,D,g,L,i,,,,,5,19,119,17,1,0,1,0,,,,,0,20,20,14,,,,,,down,1.1342574397294811,1594.1140987955296,None,001,30,2019_Oct_15_1409,ACPT_experiment_5_30_19,3.1.0,59.95461085352911,
,,,C,U,y,n,R,D,g,L,i,,,,,5,19,119,17,1,0,1,0,,,,,0,21,21,2,,,,,,down,0.7672531153202726,1596.5326407516022,None,001,30,2019_Oct_15_1409,ACPT_experiment_5_30_19,3.1.0,59.95461085352911,
,,,C,U,y,n,L,U,g,R,u,,,,,5,19,119,17,1,0,1,0,,,,,0,22,22,23,,,,,,up,1.7180011482669215,1598.5842354343222,None,001,30,2019_Oct_15_1409,ACPT_experiment_5_30_19,3.1.0,59.95461085352911,
,,,C,U,y,n,L,G,g,R,c ,,,,,5,19,119,17,1,0,1,0,,,,,0,23,23,19,,,,,,up,1.5678780809830641,1601.5865207970728,None,001,30,2019_Oct_15_1409,ACPT_experiment_5_30_19,3.1.0,59.95461085352911,
,,,C,U,y,n,R,D,d,L,c,,,,,5,19,119,17,1,0,1,0,,,,,0,24,24,0,,,,,,up,1.7847031926266936,1604.4387253525856,None,001,30,2019_Oct_15_1409,ACPT_experiment_5_30_19,3.1.0,59.95461085352911,
,,,C,U,y,n,L,D,d,R,c ,,,,,5,19,119,17,1,0,1,0,,,,,0,25,25,13,,,,,,up,1.0173631423604093,1607.5078081466509,None,001,30,2019_Oct_15_1409,ACPT_experiment_5_30_19,3.1.0,59.95461085352911,
,,,C,U,y,n,R,D,d,R,c ,,,,,5,19,119,17,1,0,1,0,,,,,0,26,26,1,,,,,,up,1.000794790665168,1609.809503498831,None,001,30,2019_Oct_15_1409,ACPT_experiment_5_30_19,3.1.0,59.95461085352911,
,,,C,U,y,n,L,U,y,L,u,,,,,5,19,119,17,1,0,1,0,,,,,0,27,27,24,,,,,,up,3.1524259377656563,1612.0945918615616,None,001,30,2019_Oct_15_1409,ACPT_experiment_5_30_19,3.1.0,59.95461085352911,
,,,C,U,y,n,R,G,d,R,i,,,,,5,19,119,17,1,0,1,0,,,,,0,28,28,5,,,,,,down,4.837101118020655,1616.5313300865546,None,001,30,2019_Oct_15_1409,ACPT_experiment_5_30_19,3.1.0,59.95461085352911,
,,,C,U,y,n,R,U,y,R,u,,,,,5,19,119,17,1,0,1,0,,,,,0,29,29,31,,,,,,down,1.167569522298436,1622.652698515043,None,001,30,2019_Oct_15_1409,ACPT_experiment_5_30_19,3.1.0,59.95461085352911,
,,,C,U,y,n,R,D,y,L,y,,,,,5,19,119,17,1,0,1,0,,,,,0,30,30,26,,,,,,down,0.9007187829593022,1625.1045836450012,None,001,30,2019_Oct_15_1409,ACPT_experiment_5_30_19,3.1.0,59.95461085352911,
,,,C,U,y,n,R,U,y,L,u,,,,,5,19,119,17,1,0,1,0,,,,,0,31,31,30,,,,,,down,0.8673031632843049,1627.2896295062037,None,001,30,2019_Oct_15_1409,ACPT_experiment_5_30_19,3.1.0,59.95461085352911,
,,,C,U,y,n,L,G,y,L,y,,,,,5,19,119,17,1,0,1,0,,,,,0,32,32,34,,,,,,down,1.4509152619739325,1629.4580928284104,None,001,30,2019_Oct_15_1409,ACPT_experiment_5_30_19,3.1.0,59.95461085352911,
,,,C,U,y,n,R,D,y,R,y,,,,,5,19,119,17,1,0,1,0,,,,,0,33,33,27,,,,,,down,1.2342809242400108,1632.210040261747,None,001,30,2019_Oct_15_1409,ACPT_experiment_5_30_19,3.1.0,59.95461085352911,
,,,C,U,y,n,L,D,g,R,i,,,,,5,19,119,17,1,0,1,0,,,,,0,34,34,15,,,,,,down,1.401083728615049,1634.7286392085061,None,001,30,2019_Oct_15_1409,ACPT_experiment_5_30_19,3.1.0,59.95461085352911,
,,,C,U,y,n,L,G,d,R,i,,,,,5,19,119,17,1,0,1,0,,,,,0,35,35,17,,,,,,down,1.1842447315302707,1637.414037337352,None,001,30,2019_Oct_15_1409,ACPT_experiment_5_30_19,3.1.0,59.95461085352911,
,,,C,U,y,n,R,U,g,L,u,,,,,5,19,119,17,1,0,1,0,,,,,1,0,36,10,,,,,,up,1.4844730565055215,1639.8826000914032,None,001,30,2019_Oct_15_1409,ACPT_experiment_5_30_19,3.1.0,59.95461085352911,
,,,C,U,y,n,L,D,g,R,i,,,,,5,19,119,17,1,0,1,0,,,,,1,1,37,15,,,,,,down,1.1342097462529637,1642.634709622189,None,001,30,2019_Oct_15_1409,ACPT_experiment_5_30_19,3.1.0,59.95461085352911,
,,,C,U,y,n,R,D,d,L,c,,,,,5,19,119,17,1,0,1,0,,,,,1,2,38,0,,,,,,up,1.7180295228663454,1645.0532376928204,None,001,30,2019_Oct_15_1409,ACPT_experiment_5_30_19,3.1.0,59.95461085352911,
,,,C,U,y,n,R,U,g,R,u,,,,,5,19,119,17,1,0,1,0,,,,,1,3,39,11,,,,,,down,1.1509127263689152,1648.0555384503004,None,001,30,2019_Oct_15_1409,ACPT_experiment_5_30_19,3.1.0,59.95461085352911,
,,,C,U,y,n,L,G,d,R,i,,,,,5,19,119,17,1,0,1,0,,,,,1,4,40,17,,,,,,down,1.4344329396517423,1650.4907550118915,None,001,30,2019_Oct_15_1409,ACPT_experiment_5_30_19,3.1.0,59.95461085352911,
,,,C,U,y,n,R,U,y,R,u,,,,,5,19,119,17,1,0,1,0,,,,,1,5,41,31,,,,,,up,1.000773660643972,1653.2095023517722,None,001,30,2019_Oct_15_1409,ACPT_experiment_5_30_19,3.1.0,59.95461085352911,
,,,C,U,y,n,R,G,y,L,y,,,,,5,19,119,17,1,0,1,0,,,,,1,6,42,28,,,,,,down,1.8681006706665357,1655.4945901107876,None,001,30,2019_Oct_15_1409,ACPT_experiment_5_30_19,3.1.0,59.95461085352911,
,,,C,U,y,n,L,U,d,R,u,,,,,5,19,119,17,1,0,1,0,,,,,1,7,43,21,,,,,,up,1.567736207982307,1658.6470314432845,None,001,30,2019_Oct_15_1409,ACPT_experiment_5_30_19,3.1.0,59.95461085352911,
,,,C,U,y,n,L,U,d,L,u,,,,,5,19,119,17,1,0,1,0,,,,,1,8,44,20,,,,,,up,2.068290418259494,1661.4824970976406,None,001,30,2019_Oct_15_1409,ACPT_experiment_5_30_19,3.1.0,59.95461085352911,
,,,C,U,y,n,R,U,d,R,u,,,,,5,19,119,17,1,0,1,0,,,,,1,9,45,9,,,,,,up,1.0507787620335876,1664.8351266684422,None,001,30,2019_Oct_15_1409,ACPT_experiment_5_30_19,3.1.0,59.95461085352911,
,,,C,U,y,n,L,U,y,L,u,,,,,5,19,119,17,1,0,1,0,,,,,1,10,46,24,,,,,,up,1.0174621516034676,1667.1702134916995,None,001,30,2019_Oct_15_1409,ACPT_experiment_5_30_19,3.1.0,59.95461085352911,
,,,C,U,y,n,L,D,y,L,y,,,,,5,19,119,17,1,0,1,0,,,,,1,11,47,32,,,,,,down,6.271519870369957,1669.4719906472492,None,001,30,2019_Oct_15_1409,ACPT_experiment_5_30_19,3.1.0,59.95461085352911,
,,,C,U,y,n,L,D,y,R,y,,,,,5,19,119,17,1,0,1,0,,,,,1,12,48,33,,,,,,down,1.7680307001101028,1677.0277896005282,None,001,30,2019_Oct_15_1409,ACPT_experiment_5_30_19,3.1.0,59.95461085352911,
,,,C,U,y,n,L,G,y,R,y,,,,,5,19,119,17,1,0,1,0,,,,,1,13,49,35,,,,,,down,0.7172003204505017,1680.0801585476074,None,001,30,2019_Oct_15_1409,ACPT_experiment_5_30_19,3.1.0,59.95461085352911,
,,,C,U,y,n,L,D,g,L,i,,,,,5,19,119,17,1,0,1,0,,,,,1,14,50,14,,,,,,down,2.2684554135412327,1682.0816476104064,None,001,30,2019_Oct_15_1409,ACPT_experiment_5_30_19,3.1.0,59.95461085352911,
,,,C,U,y,n,R,D,g,L,i,,,,,5,19,119,17,1,0,1,0,,,,,1,15,51,2,,,,,,down,1.5845608366525994,1685.634403236878,None,001,30,2019_Oct_15_1409,ACPT_experiment_5_30_19,3.1.0,59.95461085352911,
,,,C,U,y,n,L,G,d,L,i,,,,,5,19,119,17,1,0,1,0,,,,,1,16,52,16,,,,,,down,2.0515774768464325,1688.5032721347543,None,001,30,2019_Oct_15_1409,ACPT_experiment_5_30_19,3.1.0,59.95461085352911,
,,,C,U,y,n,L,U,g,L,u,,,,,5,19,119,17,1,0,1,0,,,,,1,17,53,22,,,,,,down,1.3010089283379784,1691.8391715582675,None,001,30,2019_Oct_15_1409,ACPT_experiment_5_30_19,3.1.0,59.95461085352911,
,,,C,U,y,n,R,G,g,R,c ,,,,,5,19,119,17,1,0,1,0,,,,,1,18,54,7,,,,,,up,2.0682867959712894,1694.4078048865904,None,001,30,2019_Oct_15_1409,ACPT_experiment_5_30_19,3.1.0,59.95461085352911,
,,,C,U,y,n,R,G,d,L,i,,,,,5,19,119,17,1,0,1,0,,,,,1,19,55,4,,,,,,down,6.104696539687211,1697.74369857481,None,001,30,2019_Oct_15_1409,ACPT_experiment_5_30_19,3.1.0,59.95461085352911,
,,,C,U,y,n,R,G,g,L,c ,,,,,5,19,119,17,1,0,1,0,,,,,1,20,56,6,,,,,,up,2.0015569807255815,1705.1160143829038,None,001,30,2019_Oct_15_1409,ACPT_experiment_5_30_19,3.1.0,59.95461085352911,
,,,C,U,y,n,L,G,y,L,y,,,,,5,19,119,17,1,0,1,0,,,,,1,21,57,34,,,,,,down,0.817298363752343,1708.4018936121538,None,001,30,2019_Oct_15_1409,ACPT_experiment_5_30_19,3.1.0,59.95461085352911,
,,,C,U,y,n,R,D,d,R,c ,,,,,5,19,119,17,1,0,1,0,,,,,1,22,58,1,,,,,,up,1.1842429203861684,1710.5035021501317,None,001,30,2019_Oct_15_1409,ACPT_experiment_5_30_19,3.1.0,59.95461085352911,
,,,C,U,y,n,R,D,g,R,i,,,,,5,19,119,17,1,0,1,0,,,,,1,23,59,3,,,,,,down,2.5853550236006413,1712.9553634333515,None,001,30,2019_Oct_15_1409,ACPT_experiment_5_30_19,3.1.0,59.95461085352911,
,,,C,U,y,n,L,G,g,L,c ,,,,,5,19,119,17,1,0,1,0,,,,,1,24,60,18,,,,,,down,4.636898692413524,1716.8250280274642,None,001,30,2019_Oct_15_1409,ACPT_experiment_5_30_19,3.1.0,59.95461085352911,
,,,C,U,y,n,R,G,y,R,y,,,,,5,19,119,17,1,0,1,0,,,,,1,25,61,29,,,,,,down,0.8171776207727817,1722.7462426293969,None,001,30,2019_Oct_15_1409,ACPT_experiment_5_30_19,3.1.0,59.95461085352911,
,,,C,U,y,n,R,G,d,R,i,,,,,5,19,119,17,1,0,1,0,,,,,1,26,62,5,,,,,,down,1.4177734270051587,1724.8478514692306,None,001,30,2019_Oct_15_1409,ACPT_experiment_5_30_19,3.1.0,59.95461085352911,
,,,C,U,y,n,L,G,g,R,c ,,,,,5,19,119,17,1,0,1,0,,,,,1,27,63,19,,,,,,down,7.105480161626474,1727.5499069977195,None,001,30,2019_Oct_15_1409,ACPT_experiment_5_30_19,3.1.0,59.95461085352911,
,,,C,U,y,n,R,D,y,L,y,,,,,5,19,119,17,1,0,1,0,,,,,1,28,64,26,,,,,,down,0.9841117331397982,1735.9397139357334,None,001,30,2019_Oct_15_1409,ACPT_experiment_5_30_19,3.1.0,59.95461085352911,
,,,C,U,y,n,R,D,y,R,y,,,,,5,19,119,17,1,0,1,0,,,,,1,29,65,27,,,,,,down,0.7505649262166116,1738.224795959457,None,001,30,2019_Oct_15_1409,ACPT_experiment_5_30_19,3.1.0,59.95461085352911,
,,,C,U,y,n,R,U,d,L,u,,,,,5,19,119,17,1,0,1,0,,,,,1,30,66,8,,,,,,up,1.2843116835138062,1740.2763722288728,None,001,30,2019_Oct_15_1409,ACPT_experiment_5_30_19,3.1.0,59.95461085352911,
,,,C,U,y,n,L,U,y,R,u,,,,,5,19,119,17,1,0,1,0,,,,,1,31,67,25,,,,,,down,7.805992292975134,1742.861689520294,None,001,30,2019_Oct_15_1409,ACPT_experiment_5_30_19,3.1.0,59.95461085352911,
,,,C,U,y,n,L,D,d,L,c ,,,,,5,19,119,17,1,0,1,0,,,,,1,32,68,12,,,,,,up,0.9841337687321356,1751.9853638378409,None,001,30,2019_Oct_15_1409,ACPT_experiment_5_30_19,3.1.0,59.95461085352911,
,,,C,U,y,n,R,U,y,L,u,,,,,5,19,119,17,1,0,1,0,,,,,1,33,69,30,,,,,,down,2.0849297064560233,1754.270447068995,None,001,30,2019_Oct_15_1409,ACPT_experiment_5_30_19,3.1.0,59.95461085352911,
,,,C,U,y,n,L,D,d,R,c ,,,,,5,19,119,17,1,0,1,0,,,,,1,34,70,13,,,,,,up,8.189631377717888,1757.6563760443514,None,001,30,2019_Oct_15_1409,ACPT_experiment_5_30_19,3.1.0,59.95461085352911,
,,,C,U,y,n,L,U,g,R,u,,,,,5,19,119,17,1,0,1,0,,,,,1,35,71,23,,,,,,down,2.135035930092272,1767.1303233315884,None,001,30,2019_Oct_15_1409,ACPT_experiment_5_30_19,3.1.0,59.95461085352911,
,,,C,U,y,n,,,,,,,,,,5,19,119,17,2,0,2,0,0,0,0,0,,,,,,,,,,,,,,001,30,2019_Oct_15_1409,ACPT_experiment_5_30_19,3.1.0,59.95461085352911,
,,,C,U,y,n,L,U,d,L,u,,,,,5,19,119,17,2,0,2,0,,,,,0,0,0,20,,,,,,down,1.5676097297109663,1808.9460475087417,None,001,30,2019_Oct_15_1409,ACPT_experiment_5_30_19,3.1.0,59.95461085352911,
,,,C,U,y,n,R,D,y,L,y,,,,,5,19,119,17,2,0,2,0,,,,,0,1,1,26,,,,,,down,1.0006544269508595,1811.7979677145358,None,001,30,2019_Oct_15_1409,ACPT_experiment_5_30_19,3.1.0,59.95461085352911,
,,,C,U,y,n,L,D,d,R,c ,,,,,5,19,119,17,2,0,2,0,,,,,0,2,2,13,,,,,,up,1.9348193171863386,1814.08306392556,None,001,30,2019_Oct_15_1409,ACPT_experiment_5_30_19,3.1.0,59.95461085352911,
,,,C,U,y,n,L,D,y,L,y,,,,,5,19,119,17,2,0,2,0,,,,,0,3,3,32,,,,,,down,0.8840864374851662,1817.2854934554289,None,001,30,2019_Oct_15_1409,ACPT_experiment_5_30_19,3.1.0,59.95461085352911,
,,,C,U,y,n,R,G,g,L,c ,,,,,5,19,119,17,2,0,2,0,,,,,0,4,4,6,,,,,,up,1.2009238649116014,1819.4538478070972,None,001,30,2019_Oct_15_1409,ACPT_experiment_5_30_19,3.1.0,59.95461085352911,
,,,C,U,y,n,R,D,g,L,i,,,,,5,19,119,17,2,0,2,0,,,,,0,5,5,2,,,,,,down,1.050811966353649,1821.9390854685225,None,001,30,2019_Oct_15_1409,ACPT_experiment_5_30_19,3.1.0,59.95461085352911,
,,,C,U,y,n,R,D,d,L,c,,,,,5,19,119,17,2,0,2,0,,,,,0,6,6,0,,,,,,up,0.8172874968840915,1824.2575429648805,None,001,30,2019_Oct_15_1409,ACPT_experiment_5_30_19,3.1.0,59.95461085352911,
,,,C,U,y,n,L,D,d,L,c ,,,,,5,19,119,17,2,0,2,0,,,,,0,7,7,12,,,,,,up,0.7503856228922814,1826.3593114873056,None,001,30,2019_Oct_15_1409,ACPT_experiment_5_30_19,3.1.0,59.95461085352911,
,,,C,U,y,n,L,G,g,L,c ,,,,,5,19,119,17,2,0,2,0,,,,,0,8,8,18,,,,,,up,1.651359777253674,1828.3940293200176,None,001,30,2019_Oct_15_1409,ACPT_experiment_5_30_19,3.1.0,59.95461085352911,
,,,C,U,y,n,R,U,d,R,u,,,,,5,19,119,17,2,0,2,0,,,,,0,9,9,9,,,,,,up,1.0342034676177718,1831.3296325610008,None,001,30,2019_Oct_15_1409,ACPT_experiment_5_30_19,3.1.0,59.95461085352911,
,,,C,U,y,n,L,D,g,R,i,,,,,5,19,119,17,2,0,2,0,,,,,0,10,10,15,,,,,,down,0.9507963301384734,1833.6480577586117,None,001,30,2019_Oct_15_1409,ACPT_experiment_5_30_19,3.1.0,59.95461085352911,
,,,C,U,y,n,R,U,y,R,u,,,,,5,19,119,17,2,0,2,0,,,,,0,11,11,31,,,,,,down,0.8173575278106,1835.8831367939492,None,001,30,2019_Oct_15_1409,ACPT_experiment_5_30_19,3.1.0,59.95461085352911,
,,,C,U,y,n,L,U,y,L,u,,,,,5,19,119,17,2,0,2,0,,,,,0,12,12,24,,,,,,down,9.090292204047728,1837.9847646508024,None,001,30,2019_Oct_15_1409,ACPT_experiment_5_30_19,3.1.0,59.95461085352911,
,,,C,U,y,n,R,G,y,L,y,,,,,5,19,119,17,2,0,2,0,,,,,0,13,13,28,,,,,,down,4.169876316927912,1848.3593830275222,None,001,30,2019_Oct_15_1409,ACPT_experiment_5_30_19,3.1.0,59.95461085352911,
,,,C,U,y,n,R,U,g,R,u,,,,,5,19,119,17,2,0,2,0,,,,,0,14,14,11,,,,,,down,4.253288585985501,1853.8135740465386,None,001,30,2019_Oct_15_1409,ACPT_experiment_5_30_19,3.1.0,59.95461085352911,
,,,C,U,y,n,L,G,g,R,c ,,,,,5,19,119,17,2,0,2,0,,,,,0,15,15,19,,,,,,up,2.5853474771647598,1859.351160430595,None,001,30,2019_Oct_15_1409,ACPT_experiment_5_30_19,3.1.0,59.95461085352911,
,,,C,U,y,n,R,D,y,R,y,,,,,5,19,119,17,2,0,2,0,,,,,0,16,16,27,,,,,,down,0.9674003010113665,1863.2208138559818,None,001,30,2019_Oct_15_1409,ACPT_experiment_5_30_19,3.1.0,59.95461085352911,
,,,C,U,y,n,R,D,d,R,c ,,,,,5,19,119,17,2,0,2,0,,,,,0,17,17,1,,,,,,up,2.235025002853945,1865.4725493853894,None,001,30,2019_Oct_15_1409,ACPT_experiment_5_30_19,3.1.0,59.95461085352911,
,,,C,U,y,n,L,U,y,R,u,,,,,5,19,119,17,2,0,2,0,,,,,0,18,18,25,,,,,,down,0.7005226963592577,1868.991909616636,None,001,30,2019_Oct_15_1409,ACPT_experiment_5_30_19,3.1.0,59.95461085352911,
,,,C,U,y,n,L,D,g,L,i,,,,,5,19,119,17,2,0,2,0,,,,,0,19,19,14,,,,,,down,4.536821779134698,1870.9767554670925,None,001,30,2019_Oct_15_1409,ACPT_experiment_5_30_19,3.1.0,59.95461085352911,
,,,C,U,y,n,R,U,g,L,u,,,,,5,19,119,17,2,0,2,0,,,,,0,20,20,10,,,,,,down,1.1508831443406962,1876.797892552031,None,001,30,2019_Oct_15_1409,ACPT_experiment_5_30_19,3.1.0,59.95461085352911,
,,,C,U,y,n,R,G,y,R,y,,,,,5,19,119,17,2,0,2,0,,,,,0,21,21,29,,,,,,down,2.3851664834382973,1879.233094624462,None,001,30,2019_Oct_15_1409,ACPT_experiment_5_30_19,3.1.0,59.95461085352911,
,,,C,U,y,n,R,G,g,R,c ,,,,,5,19,119,17,2,0,2,0,,,,,0,22,22,7,,,,,,up,0.8172974581793824,1882.9025806397094,None,001,30,2019_Oct_15_1409,ACPT_experiment_5_30_19,3.1.0,59.95461085352911,
,,,C,U,y,n,L,G,y,R,y,,,,,5,19,119,17,2,0,2,0,,,,,0,23,23,35,,,,,,down,0.867344517755555,1885.0041949129773,None,001,30,2019_Oct_15_1409,ACPT_experiment_5_30_19,3.1.0,59.95461085352911,
,,,C,U,y,n,L,G,d,L,i,,,,,5,19,119,17,2,0,2,0,,,,,0,24,24,16,,,,,,down,1.0508059292060352,1887.1558496049602,None,001,30,2019_Oct_15_1409,ACPT_experiment_5_30_19,3.1.0,59.95461085352911,
,,,C,U,y,n,R,G,d,R,i,,,,,5,19,119,17,2,0,2,0,,,,,0,25,25,5,,,,,,down,2.5853423455901066,1889.4909512192335,None,001,30,2019_Oct_15_1409,ACPT_experiment_5_30_19,3.1.0,59.95461085352911,
,,,C,U,y,n,R,U,y,L,u,,,,,5,19,119,17,2,0,2,0,,,,,0,26,26,30,,,,,,down,5.287421117101985,1893.3605862313161,None,001,30,2019_Oct_15_1409,ACPT_experiment_5_30_19,3.1.0,59.95461085352911,
,,,C,U,y,n,L,G,d,R,i,,,,,5,19,119,17,2,0,2,0,,,,,0,27,27,17,,,,,,down,1.7346926577993145,1899.9323226542201,None,001,30,2019_Oct_15_1409,ACPT_experiment_5_30_19,3.1.0,59.95461085352911,
,,,C,U,y,n,L,U,d,R,u,,,,,5,19,119,17,2,0,2,0,,,,,0,28,28,21,,,,,,down,1.050807438492484,1902.9513188453839,None,001,30,2019_Oct_15_1409,ACPT_experiment_5_30_19,3.1.0,59.95461085352911,
,,,C,U,y,n,L,U,g,L,u,,,,,5,19,119,17,2,0,2,0,,,,,0,29,29,22,,,,,,down,1.9014885194555973,1905.2697352891282,None,001,30,2019_Oct_15_1409,ACPT_experiment_5_30_19,3.1.0,59.95461085352911,
,,,C,U,y,n,L,G,y,L,y,,,,,5,19,119,17,2,0,2,0,,,,,0,30,30,34,,,,,,down,4.420085655070579,1908.4555448496794,None,001,30,2019_Oct_15_1409,ACPT_experiment_5_30_19,3.1.0,59.95461085352911,
,,,C,U,y,n,L,U,g,R,u,,,,,5,19,119,17,2,0,2,0,,,,,0,31,31,23,,,,,,up,1.0174543033099326,1914.1599198508102,None,001,30,2019_Oct_15_1409,ACPT_experiment_5_30_19,3.1.0,59.95461085352911,
,,,C,U,y,n,L,D,y,R,y,,,,,5,19,119,17,2,0,2,0,,,,,0,32,32,33,,,,,,down,1.1506944834345632,1916.478525559176,None,001,30,2019_Oct_15_1409,ACPT_experiment_5_30_19,3.1.0,59.95461085352911,
,,,C,U,y,n,R,U,d,L,u,,,,,5,19,119,17,2,0,2,0,,,,,0,33,33,8,,,,,,up,4.23658047428944,1918.946936780787,None,001,30,2019_Oct_15_1409,ACPT_experiment_5_30_19,3.1.0,59.95461085352911,
,,,C,U,y,n,R,D,g,R,i,,,,,5,19,119,17,2,0,2,0,,,,,0,34,34,3,,,,,,down,1.9348244487628108,1924.4678370887432,None,001,30,2019_Oct_15_1409,ACPT_experiment_5_30_19,3.1.0,59.95461085352911,
,,,C,U,y,n,R,G,d,L,i,,,,,5,19,119,17,2,0,2,0,,,,,0,35,35,4,,,,,,down,6.788521689364643,1927.687006425338,None,001,30,2019_Oct_15_1409,ACPT_experiment_5_30_19,3.1.0,59.95461085352911,
,,,C,U,y,n,R,D,y,L,y,,,,,5,19,119,17,2,0,2,0,,,,,1,0,36,26,,,,,,down,1.2009262797691918,1935.7598452316488,None,001,30,2019_Oct_15_1409,ACPT_experiment_5_30_19,3.1.0,59.95461085352911,
,,,C,U,y,n,R,U,d,L,u,,,,,5,19,119,17,2,0,2,0,,,,,1,1,37,8,,,,,,up,1.0174473605893581,1938.2450880246506,None,001,30,2019_Oct_15_1409,ACPT_experiment_5_30_19,3.1.0,59.95461085352911,
,,,C,U,y,n,R,U,g,L,u,,,,,5,19,119,17,2,0,2,0,,,,,1,2,38,10,,,,,,up,2.6687259381887998,1940.5468549170473,None,001,30,2019_Oct_15_1409,ACPT_experiment_5_30_19,3.1.0,59.95461085352911,
,,,C,U,y,n,R,G,y,L,y,,,,,5,19,119,17,2,0,2,0,,,,,1,3,39,28,,,,,,down,1.8013814204314258,1944.5165698609835,None,001,30,2019_Oct_15_1409,ACPT_experiment_5_30_19,3.1.0,59.95461085352911,
,,,C,U,y,n,R,D,g,R,i,,,,,5,19,119,17,2,0,2,0,,,,,1,4,40,3,,,,,,down,3.369287574159898,1947.6189526633189,None,001,30,2019_Oct_15_1409,ACPT_experiment_5_30_19,3.1.0,59.95461085352911,
,,,C,U,y,n,R,U,d,R,u,,,,,5,19,119,17,2,0,2,0,,,,,1,5,41,9,,,,,,up,1.2009220537656802,1952.2725253575354,None,001,30,2019_Oct_15_1409,ACPT_experiment_5_30_19,3.1.0,59.95461085352911,
,,,C,U,y,n,L,D,d,L,c ,,,,,5,19,119,17,2,0,2,0,,,,,1,6,42,12,,,,,,up,2.685392997269446,1954.7577708672543,None,001,30,2019_Oct_15_1409,ACPT_experiment_5_30_19,3.1.0,59.95461085352911,
,,,C,U,y,n,L,G,y,R,y,,,,,5,19,119,17,2,0,2,0,,,,,1,7,43,35,,,,,,down,2.4852455097206985,1958.727483396331,None,001,30,2019_Oct_15_1409,ACPT_experiment_5_30_19,3.1.0,59.95461085352911,
,,,C,U,y,n,L,U,g,R,u,,,,,5,19,119,17,2,0,2,0,,,,,1,8,44,23,,,,,,down,2.9189087128725077,1962.4970475322862,None,001,30,2019_Oct_15_1409,ACPT_experiment_5_30_19,3.1.0,59.95461085352911,
,,,C,U,y,n,L,U,y,R,u,,,,,5,19,119,17,2,0,2,0,,,,,1,9,45,25,,,,,,down,0.867329424881973,1966.7002763806813,None,001,30,2019_Oct_15_1409,ACPT_experiment_5_30_19,3.1.0,59.95461085352911,
,,,C,U,y,n,L,D,y,L,y,,,,,5,19,119,17,2,0,2,0,,,,,1,10,46,32,,,,,,down,0.8840028229697054,1968.85193499681,None,001,30,2019_Oct_15_1409,ACPT_experiment_5_30_19,3.1.0,59.95461085352911,
,,,C,U,y,n,L,U,d,R,u,,,,,5,19,119,17,2,0,2,0,,,,,1,11,47,21,,,,,,down,0.7839579065821454,1971.02025825716,None,001,30,2019_Oct_15_1409,ACPT_experiment_5_30_19,3.1.0,59.95461085352911,
,,,C,U,y,n,R,G,d,R,i,,,,,5,19,119,17,2,0,2,0,,,,,1,12,48,5,,,,,,down,1.9848636600454483,1973.088512150669,None,001,30,2019_Oct_15_1409,ACPT_experiment_5_30_19,3.1.0,59.95461085352911,
,,,C,U,y,n,L,G,g,L,c ,,,,,5,19,119,17,2,0,2,0,,,,,1,13,49,18,,,,,,up,5.404164183888497,1976.3576941350912,None,001,30,2019_Oct_15_1409,ACPT_experiment_5_30_19,3.1.0,59.95461085352911,
,,,C,U,y,n,L,G,g,R,c ,,,,,5,19,119,17,2,0,2,0,,,,,1,14,50,19,,,,,,up,1.267795855013901,1983.0293299790937,None,001,30,2019_Oct_15_1409,ACPT_experiment_5_30_19,3.1.0,59.95461085352911,
,,,C,U,y,n,L,U,y,L,u,,,,,5,19,119,17,2,0,2,0,,,,,1,15,51,24,,,,,,down,1.3177049657369935,1985.5814384231944,None,001,30,2019_Oct_15_1409,ACPT_experiment_5_30_19,3.1.0,59.95461085352911,
,,,C,U,y,n,R,G,g,R,c ,,,,,5,19,119,17,2,0,2,0,,,,,1,16,52,7,,,,,,up,1.1343341115225485,1988.1834511482957,None,001,30,2019_Oct_15_1409,ACPT_experiment_5_30_19,3.1.0,59.95461085352911,
,,,C,U,y,n,L,G,d,R,i,,,,,5,19,119,17,2,0,2,0,,,,,1,17,53,17,,,,,,down,3.8529438044042763,1990.601981331929,None,001,30,2019_Oct_15_1409,ACPT_experiment_5_30_19,3.1.0,59.95461085352911,
,,,C,U,y,n,L,D,g,R,i,,,,,5,19,119,17,2,0,2,0,,,,,1,18,54,15,,,,,,down,3.3025360251776874,1995.7392419514235,None,001,30,2019_Oct_15_1409,ACPT_experiment_5_30_19,3.1.0,59.95461085352911,
,,,C,U,y,n,R,U,y,R,u,,,,,5,19,119,17,2,0,2,0,,,,,1,19,55,31,,,,,,down,1.8514133871358354,2000.3427844900816,None,001,30,2019_Oct_15_1409,ACPT_experiment_5_30_19,3.1.0,59.95461085352911,
,,,C,U,y,n,R,D,y,R,y,,,,,5,19,119,17,2,0,2,0,,,,,1,20,56,27,,,,,,down,2.9355929778284917,2003.495199560979,None,001,30,2019_Oct_15_1409,ACPT_experiment_5_30_19,3.1.0,59.95461085352911,
,,,C,U,y,n,R,D,d,R,c ,,,,,5,19,119,17,2,0,2,0,,,,,1,21,57,1,,,,,,up,3.0356656651038065,2007.7151069390384,None,001,30,2019_Oct_15_1409,ACPT_experiment_5_30_19,3.1.0,59.95461085352911,
,,,C,U,y,n,R,U,y,L,u,,,,,5,19,119,17,2,0,2,0,,,,,1,22,58,30,,,,,,down,0.9006901065022248,2012.0350936452378,None,001,30,2019_Oct_15_1409,ACPT_experiment_5_30_19,3.1.0,59.95461085352911,
,,,C,U,y,n,L,D,g,L,i,,,,,5,19,119,17,2,0,2,0,,,,,1,23,59,14,,,,,,down,1.4344422972317261,2014.2200978501114,None,001,30,2019_Oct_15_1409,ACPT_experiment_5_30_19,3.1.0,59.95461085352911,
,,,C,U,y,n,L,D,d,R,c ,,,,,5,19,119,17,2,0,2,0,,,,,1,24,60,13,,,,,,up,2.1683658222500526,2016.9221482470239,None,001,30,2019_Oct_15_1409,ACPT_experiment_5_30_19,3.1.0,59.95461085352911,
,,,C,U,y,n,L,G,d,L,i,,,,,5,19,119,17,2,0,2,0,,,,,1,25,61,16,,,,,,down,0.8840342161456647,2020.3748073394836,None,001,30,2019_Oct_15_1409,ACPT_experiment_5_30_19,3.1.0,59.95461085352911,
,,,C,U,y,n,L,G,y,L,y,,,,,5,19,119,17,2,0,2,0,,,,,1,26,62,34,,,,,,down,0.8673605162002787,2022.543136636983,None,001,30,2019_Oct_15_1409,ACPT_experiment_5_30_19,3.1.0,59.95461085352911,
,,,C,U,y,n,R,D,d,L,c,,,,,5,19,119,17,2,0,2,0,,,,,1,27,63,0,,,,,,down,1.300998665186853,2024.694810044126,None,001,30,2019_Oct_15_1409,ACPT_experiment_5_30_19,3.1.0,59.95461085352911,
,,,C,U,y,n,L,U,g,L,u,,,,,5,19,119,17,2,0,2,0,,,,,1,28,64,22,,,,,,down,0.7672796787755942,2027.2801327689813,None,001,30,2019_Oct_15_1409,ACPT_experiment_5_30_19,3.1.0,59.95461085352911,
,,,C,U,y,n,L,U,d,L,u,,,,,5,19,119,17,2,0,2,0,,,,,1,29,65,20,,,,,,up,0.8006113820774772,2029.33170994397,None,001,30,2019_Oct_15_1409,ACPT_experiment_5_30_19,3.1.0,59.95461085352911,
,,,C,U,y,n,R,G,g,L,c ,,,,,5,19,119,17,2,0,2,0,,,,,1,30,66,6,,,,,,up,1.234268246225838,2031.4166571581572,None,001,30,2019_Oct_15_1409,ACPT_experiment_5_30_19,3.1.0,59.95461085352911,
,,,C,U,y,n,R,U,g,R,u,,,,,5,19,119,17,2,0,2,0,,,,,1,31,67,11,,,,,,up,1.1508831443388772,2033.9352467473364,None,001,30,2019_Oct_15_1409,ACPT_experiment_5_30_19,3.1.0,59.95461085352911,
,,,C,U,y,n,R,G,y,R,y,,,,,5,19,119,17,2,0,2,0,,,,,1,32,68,29,,,,,,up,0.7005335632275091,2036.3704488197673,None,001,30,2019_Oct_15_1409,ACPT_experiment_5_30_19,3.1.0,59.95461085352911,
,,,C,U,y,n,R,D,g,L,i,,,,,5,19,119,17,2,0,2,0,,,,,1,33,69,2,,,,,,down,1.5341503407071286,2038.3723468994122,None,001,30,2019_Oct_15_1409,ACPT_experiment_5_30_19,3.1.0,59.95461085352911,
,,,C,U,y,n,R,G,d,L,i,,,,,5,19,119,17,2,0,2,0,,,,,1,34,70,4,,,,,,down,10.124440431751282,2041.190814658923,None,001,30,2019_Oct_15_1409,ACPT_experiment_5_30_19,3.1.0,59.95461085352911,
,,,C,U,y,n,L,D,y,R,y,,,,,5,19,119,17,2,0,2,0,,,,,1,35,71,33,,,,,,down,1.417760748992805,2052.5995719057646,None,001,30,2019_Oct_15_1409,ACPT_experiment_5_30_19,3.1.0,59.95461085352911,
,,,C,U,y,n,,,,,,,,,,5,19,119,17,3,0,3,0,0,0,0,0,,,,,,,,,,,,,,001,30,2019_Oct_15_1409,ACPT_experiment_5_30_19,3.1.0,59.95461085352911,
,,,C,U,y,n,R,U,g,L,u,,,,,5,19,119,17,3,0,3,0,,,,,0,0,0,10,,,,,,up,1.284077140273439,2092.4137415170517,None,001,30,2019_Oct_15_1409,ACPT_experiment_5_30_19,3.1.0,59.95461085352911,
,,,C,U,y,n,L,G,g,R,c ,,,,,5,19,119,17,3,0,3,0,,,,,0,1,1,19,,,,,,up,2.1850081290212984,2094.982133963129,None,001,30,2019_Oct_15_1409,ACPT_experiment_5_30_19,3.1.0,59.95461085352911,
,,,C,U,y,n,R,D,g,R,i,,,,,5,19,119,17,3,0,3,0,,,,,0,2,2,3,,,,,,down,1.234293904110018,2098.4514580016676,None,001,30,2019_Oct_15_1409,ACPT_experiment_5_30_19,3.1.0,59.95461085352911,
,,,C,U,y,n,R,D,y,R,y,,,,,5,19,119,17,3,0,3,0,,,,,0,3,3,27,,,,,,down,1.1508900870612706,2100.9700654004355,None,001,30,2019_Oct_15_1409,ACPT_experiment_5_30_19,3.1.0,59.95461085352911,
,,,C,U,y,n,R,D,d,L,c,,,,,5,19,119,17,3,0,3,0,,,,,0,4,4,0,,,,,,up,3.185630257225057,2103.4052831694553,None,001,30,2019_Oct_15_1409,ACPT_experiment_5_30_19,3.1.0,59.95461085352911,
,,,C,U,y,n,L,G,d,L,i,,,,,5,19,119,17,3,0,3,0,,,,,0,5,5,16,,,,,,down,1.584554497647332,2107.8753681906255,None,001,30,2019_Oct_15_1409,ACPT_experiment_5_30_19,3.1.0,59.95461085352911,
,,,C,U,y,n,L,U,y,R,u,,,,,5,19,119,17,3,0,3,0,,,,,0,6,6,25,,,,,,down,4.169846131184386,2110.7442681798184,None,001,30,2019_Oct_15_1409,ACPT_experiment_5_30_19,3.1.0,59.95461085352911,
,,,C,U,y,n,L,G,g,L,c ,,,,,5,19,119,17,3,0,3,0,,,,,0,7,7,18,,,,,,up,1.25096639662479,2116.19842659823,None,001,30,2019_Oct_15_1409,ACPT_experiment_5_30_19,3.1.0,59.95461085352911,
,,,C,U,y,n,L,D,d,R,c ,,,,,5,19,119,17,3,0,3,0,,,,,0,8,8,13,,,,,,up,3.736206774769016,2118.7337086025145,None,001,30,2019_Oct_15_1409,ACPT_experiment_5_30_19,3.1.0,59.95461085352911,
,,,C,U,y,n,R,G,y,R,y,,,,,5,19,119,17,3,0,3,0,,,,,0,9,9,29,,,,,,down,1.2843174188037665,2123.7542391350944,None,001,30,2019_Oct_15_1409,ACPT_experiment_5_30_19,3.1.0,59.95461085352911,
,,,C,U,y,n,L,G,y,R,y,,,,,5,19,119,17,3,0,3,0,,,,,0,10,10,35,,,,,,down,0.7505727745119657,2126.3395573320886,None,001,30,2019_Oct_15_1409,ACPT_experiment_5_30_19,3.1.0,59.95461085352911,
,,,C,U,y,n,R,U,y,L,u,,,,,5,19,119,17,3,0,3,0,,,,,0,11,11,30,,,,,,down,2.0682587232277,2128.3744490346908,None,001,30,2019_Oct_15_1409,ACPT_experiment_5_30_19,3.1.0,59.95461085352911,
,,,C,U,y,n,L,U,g,R,u,,,,,5,19,119,17,3,0,3,0,,,,,0,12,12,23,,,,,,up,2.501798466684704,2131.743708536107,None,001,30,2019_Oct_15_1409,ACPT_experiment_5_30_19,3.1.0,59.95461085352911,
,,,C,U,y,n,R,U,y,R,u,,,,,5,19,119,17,3,0,3,0,,,,,0,13,13,31,,,,,,up,1.1342070295359008,2135.5299439571463,None,001,30,2019_Oct_15_1409,ACPT_experiment_5_30_19,3.1.0,59.95461085352911,
,,,C,U,y,n,L,G,d,R,i,,,,,5,19,119,17,3,0,3,0,,,,,0,14,14,17,,,,,,down,6.054504286677911,2137.948586733608,None,001,30,2019_Oct_15_1409,ACPT_experiment_5_30_19,3.1.0,59.95461085352911,
,,,C,U,y,n,L,D,d,L,c ,,,,,5,19,119,17,3,0,3,0,,,,,0,15,15,12,,,,,,up,1.1008801559510175,2145.287418400385,None,001,30,2019_Oct_15_1409,ACPT_experiment_5_30_19,3.1.0,59.95461085352911,
,,,C,U,y,n,L,D,g,R,i,,,,,5,19,119,17,3,0,3,0,,,,,0,16,16,15,,,,,,down,0.9340519955494528,2147.672607221275,None,001,30,2019_Oct_15_1409,ACPT_experiment_5_30_19,3.1.0,59.95461085352911,
,,,C,U,y,n,R,D,y,L,y,,,,,5,19,119,17,3,0,3,0,,,,,0,17,17,26,,,,,,down,0.8673442158979014,2149.8909669761924,None,001,30,2019_Oct_15_1409,ACPT_experiment_5_30_19,3.1.0,59.95461085352911,
,,,C,U,y,n,L,U,g,L,u,,,,,5,19,119,17,3,0,3,0,,,,,0,18,18,22,,,,,,down,1.0174558125982003,2152.0426225737465,None,001,30,2019_Oct_15_1409,ACPT_experiment_5_30_19,3.1.0,59.95461085352911,
,,,C,U,y,n,R,U,g,R,u,,,,,5,19,119,17,3,0,3,0,,,,,0,19,19,11,,,,,,up,0.8006159099404613,2154.344399125579,None,001,30,2019_Oct_15_1409,ACPT_experiment_5_30_19,3.1.0,59.95461085352911,
,,,C,U,y,n,R,G,g,L,c ,,,,,5,19,119,17,3,0,3,0,,,,,0,20,20,6,,,,,,up,1.2175915277075546,2156.4293406044762,None,001,30,2019_Oct_15_1409,ACPT_experiment_5_30_19,3.1.0,59.95461085352911,
,,,C,U,y,n,R,D,d,R,c ,,,,,5,19,119,17,3,0,3,0,,,,,0,21,21,1,,,,,,up,0.8506910422602232,2158.9312489472723,None,001,30,2019_Oct_15_1409,ACPT_experiment_5_30_19,3.1.0,59.95461085352911,
,,,C,U,y,n,L,G,y,L,y,,,,,5,19,119,17,3,0,3,0,,,,,0,22,22,34,,,,,,down,3.5694063852497493,2161.0662202798703,None,001,30,2019_Oct_15_1409,ACPT_experiment_5_30_19,3.1.0,59.95461085352911,
,,,C,U,y,n,R,U,d,L,u,,,,,5,19,119,17,3,0,3,0,,,,,0,23,23,8,,,,,,up,1.801389872442087,2165.919952837792,None,001,30,2019_Oct_15_1409,ACPT_experiment_5_30_19,3.1.0,59.95461085352911,
,,,C,U,y,n,L,U,d,L,u,,,,,5,19,119,17,3,0,3,0,,,,,0,24,24,20,,,,,,up,1.3010074190533487,2169.0056568086075,None,001,30,2019_Oct_15_1409,ACPT_experiment_5_30_19,3.1.0,59.95461085352911,
,,,C,U,y,n,R,G,g,R,c ,,,,,5,19,119,17,3,0,3,0,,,,,0,25,25,7,,,,,,down,1.2509600576195226,2171.590979231605,None,001,30,2019_Oct_15_1409,ACPT_experiment_5_30_19,3.1.0,59.95461085352911,
,,,C,U,y,n,L,D,y,L,y,,,,,5,19,119,17,3,0,3,0,,,,,0,26,26,32,,,,,,down,0.984106601563326,2174.1262361817207,None,001,30,2019_Oct_15_1409,ACPT_experiment_5_30_19,3.1.0,59.95461085352911,
,,,C,U,y,n,R,G,d,R,i,,,,,5,19,119,17,3,0,3,0,,,,,0,27,27,5,,,,,,down,1.8681045948142128,2176.3946668429526,None,001,30,2019_Oct_15_1409,ACPT_experiment_5_30_19,3.1.0,59.95461085352911,
,,,C,U,y,n,R,G,y,L,y,,,,,5,19,119,17,3,0,3,0,,,,,0,28,28,28,,,,,,down,1.134187106945319,2179.530428136495,None,001,30,2019_Oct_15_1409,ACPT_experiment_5_30_19,3.1.0,59.95461085352911,
,,,C,U,y,n,L,D,g,L,i,,,,,5,19,119,17,3,0,3,0,,,,,0,29,29,14,,,,,,down,1.1342100481106172,2181.9489290399542,None,001,30,2019_Oct_15_1409,ACPT_experiment_5_30_19,3.1.0,59.95461085352911,
,,,C,U,y,n,L,U,d,R,u,,,,,5,19,119,17,3,0,3,0,,,,,0,30,30,21,,,,,,up,0.9341289691983548,2184.3674776368916,None,001,30,2019_Oct_15_1409,ACPT_experiment_5_30_19,3.1.0,59.95461085352911,
,,,C,U,y,n,R,D,g,L,i,,,,,5,19,119,17,3,0,3,0,,,,,0,31,31,2,,,,,,down,2.3184584019290924,2186.5858195822184,None,001,30,2019_Oct_15_1409,ACPT_experiment_5_30_19,3.1.0,59.95461085352911,
,,,C,U,y,n,R,U,d,R,u,,,,,5,19,119,17,3,0,3,0,,,,,0,32,32,9,,,,,,up,3.7529191124667705,2190.1885905732343,None,001,30,2019_Oct_15_1409,ACPT_experiment_5_30_19,3.1.0,59.95461085352911,
,,,C,U,y,n,R,G,d,L,i,,,,,5,19,119,17,3,0,3,0,,,,,0,33,33,4,,,,,,down,1.0842043430038757,2195.2257975224747,None,001,30,2019_Oct_15_1409,ACPT_experiment_5_30_19,3.1.0,59.95461085352911,
,,,C,U,y,n,L,D,y,R,y,,,,,5,19,119,17,3,0,3,0,,,,,0,34,34,33,,,,,,down,1.4511398439153709,2197.594276722384,None,001,30,2019_Oct_15_1409,ACPT_experiment_5_30_19,3.1.0,59.95461085352911,
,,,C,U,y,n,L,U,y,L,u,,,,,5,19,119,17,3,0,3,0,,,,,0,35,35,24,,,,,,up,2.001546717570818,2200.3463956107516,None,001,30,2019_Oct_15_1409,ACPT_experiment_5_30_19,3.1.0,59.95461085352911,
,,,C,U,y,n,R,U,d,R,u,,,,,5,19,119,17,3,0,3,0,,,,,1,0,36,9,,,,,,up,1.8514209335735359,2203.648934654504,None,001,30,2019_Oct_15_1409,ACPT_experiment_5_30_19,3.1.0,59.95461085352911,
,,,C,U,y,n,L,G,g,R,c ,,,,,5,19,119,17,3,0,3,0,,,,,1,1,37,19,,,,,,down,1.1175230664375704,2206.7846754217408,None,001,30,2019_Oct_15_1409,ACPT_experiment_5_30_19,3.1.0,59.95461085352911,
,,,C,U,y,n,R,U,y,L,u,,,,,5,19,119,17,3,0,3,0,,,,,1,2,38,30,,,,,,up,1.6845822081613733,2209.186564807889,None,001,30,2019_Oct_15_1409,ACPT_experiment_5_30_19,3.1.0,59.95461085352911,
,,,C,U,y,n,L,D,g,L,i,,,,,5,19,119,17,3,0,3,0,,,,,1,3,39,14,,,,,,down,1.1842468445338454,2212.155468660858,None,001,30,2019_Oct_15_1409,ACPT_experiment_5_30_19,3.1.0,59.95461085352911,
,,,C,U,y,n,L,D,y,R,y,,,,,5,19,119,17,3,0,3,0,,,,,1,4,40,33,,,,,,down,0.9840824529655947,2214.640710850146,None,001,30,2019_Oct_15_1409,ACPT_experiment_5_30_19,3.1.0,59.95461085352911,
,,,C,U,y,n,L,U,d,L,u,,,,,5,19,119,17,3,0,3,0,,,,,1,5,41,20,,,,,,up,1.434430524792333,2216.925797099875,None,001,30,2019_Oct_15_1409,ACPT_experiment_5_30_19,3.1.0,59.95461085352911,
,,,C,U,y,n,L,D,g,R,i,,,,,5,19,119,17,3,0,3,0,,,,,1,6,42,15,,,,,,down,2.0015150225408433,2219.6445752292166,None,001,30,2019_Oct_15_1409,ACPT_experiment_5_30_19,3.1.0,59.95461085352911,
,,,C,U,y,n,L,D,d,R,c ,,,,,5,19,119,17,3,0,3,0,,,,,1,7,43,13,,,,,,up,3.202480845635364,2222.9137110294487,None,001,30,2019_Oct_15_1409,ACPT_experiment_5_30_19,3.1.0,59.95461085352911,
,,,C,U,y,n,R,U,g,L,u,,,,,5,19,119,17,3,0,3,0,,,,,1,8,44,10,,,,,,up,1.5011355877250026,2227.4005231793326,None,001,30,2019_Oct_15_1409,ACPT_experiment_5_30_19,3.1.0,59.95461085352911,
,,,C,U,y,n,L,G,g,L,c ,,,,,5,19,119,17,3,0,3,0,,,,,1,9,45,18,,,,,,up,1.9014661820037873,2230.185982223011,None,001,30,2019_Oct_15_1409,ACPT_experiment_5_30_19,3.1.0,59.95461085352911,
,,,C,U,y,n,L,D,y,L,y,,,,,5,19,119,17,3,0,3,0,,,,,1,10,46,32,,,,,,down,1.2842214281354245,2233.37176582382,None,001,30,2019_Oct_15_1409,ACPT_experiment_5_30_19,3.1.0,59.95461085352911,
,,,C,U,y,n,L,G,d,R,i,,,,,5,19,119,17,3,0,3,0,,,,,1,11,47,17,,,,,,down,1.4344347507958446,2235.9404036800042,None,001,30,2019_Oct_15_1409,ACPT_experiment_5_30_19,3.1.0,59.95461085352911,
,,,C,U,y,n,R,U,d,L,u,,,,,5,19,119,17,3,0,3,0,,,,,1,12,48,8,,,,,,up,1.1175248775816726,2238.6591516236003,None,001,30,2019_Oct_15_1409,ACPT_experiment_5_30_19,3.1.0,59.95461085352911,
,,,C,U,y,n,L,G,y,L,y,,,,,5,19,119,17,3,0,3,0,,,,,1,13,49,34,,,,,,down,0.9173665231646737,2241.0610002589947,None,001,30,2019_Oct_15_1409,ACPT_experiment_5_30_19,3.1.0,59.95461085352911,
,,,C,U,y,n,R,D,g,R,i,,,,,5,19,119,17,3,0,3,0,,,,,1,14,50,3,,,,,,down,2.718760621608453,2243.262691747399,None,001,30,2019_Oct_15_1409,ACPT_experiment_5_30_19,3.1.0,59.95461085352911,
,,,C,U,y,n,R,G,g,R,c ,,,,,5,19,119,17,3,0,3,0,,,,,1,15,51,7,,,,,,up,1.1175248775816726,2247.2657664673807,None,001,30,2019_Oct_15_1409,ACPT_experiment_5_30_19,3.1.0,59.95461085352911,
,,,C,U,y,n,R,D,d,L,c,,,,,5,19,119,17,3,0,3,0,,,,,1,16,52,0,,,,,,up,0.8172576129964,2249.6676416662303,None,001,30,2019_Oct_15_1409,ACPT_experiment_5_30_19,3.1.0,59.95461085352911,
,,,C,U,y,n,R,G,y,R,y,,,,,5,19,119,17,3,0,3,0,,,,,1,17,53,29,,,,,,down,2.401889688006122,2251.7692091515946,None,001,30,2019_Oct_15_1409,ACPT_experiment_5_30_19,3.1.0,59.95461085352911,
,,,C,U,y,n,L,U,g,R,u,,,,,5,19,119,17,3,0,3,0,,,,,1,18,54,23,,,,,,up,1.8514227447176381,2255.4553939209545,None,001,30,2019_Oct_15_1409,ACPT_experiment_5_30_19,3.1.0,59.95461085352911,
,,,C,U,y,n,L,U,y,L,u,,,,,5,19,119,17,3,0,3,0,,,,,1,19,55,24,,,,,,down,1.2509712263436086,2258.591146158775,None,001,30,2019_Oct_15_1409,ACPT_experiment_5_30_19,3.1.0,59.95461085352911,
,,,C,U,y,n,R,G,d,L,i,,,,,5,19,119,17,3,0,3,0,,,,,1,20,56,4,,,,,,down,1.4344317322211282,2261.143092505423,None,001,30,2019_Oct_15_1409,ACPT_experiment_5_30_19,3.1.0,59.95461085352911,
,,,C,U,y,n,L,U,g,L,u,,,,,5,19,119,17,3,0,3,0,,,,,1,21,57,22,,,,,,up,1.167562881435515,2263.8618492028854,None,001,30,2019_Oct_15_1409,ACPT_experiment_5_30_19,3.1.0,59.95461085352911,
,,,C,U,y,n,L,G,d,L,i,,,,,5,19,119,17,3,0,3,0,,,,,1,22,58,16,,,,,,down,2.068221896619434,2266.3137639148736,None,001,30,2019_Oct_15_1409,ACPT_experiment_5_30_19,3.1.0,59.95461085352911,
,,,C,U,y,n,R,U,g,R,u,,,,,5,19,119,17,3,0,3,0,,,,,1,23,59,11,,,,,,up,1.084220643306253,2269.6662817984197,None,001,30,2019_Oct_15_1409,ACPT_experiment_5_30_19,3.1.0,59.95461085352911,
,,,C,U,y,n,R,G,d,R,i,,,,,5,19,119,17,3,0,3,0,,,,,1,24,60,5,,,,,,down,1.0508252480813098,2272.0347914859303,None,001,30,2019_Oct_15_1409,ACPT_experiment_5_30_19,3.1.0,59.95461085352911,
,,,C,U,y,n,R,D,g,L,i,,,,,5,19,119,17,3,0,3,0,,,,,1,25,61,2,,,,,,down,1.2009507302227576,2274.3698876667695,None,001,30,2019_Oct_15_1409,ACPT_experiment_5_30_19,3.1.0,59.95461085352911,
,,,C,U,y,n,L,U,y,R,u,,,,,5,19,119,17,3,0,3,0,,,,,1,26,62,25,,,,,,down,1.6344189334649855,2276.8886586722747,None,001,30,2019_Oct_15_1409,ACPT_experiment_5_30_19,3.1.0,59.95461085352911,
,,,C,U,y,n,L,G,y,R,y,,,,,5,19,119,17,3,0,3,0,,,,,1,27,63,35,,,,,,down,1.117520651578161,2279.807426719577,None,001,30,2019_Oct_15_1409,ACPT_experiment_5_30_19,3.1.0,59.95461085352911,
,,,C,U,y,n,L,U,d,R,u,,,,,5,19,119,17,3,0,3,0,,,,,1,28,64,21,,,,,,up,5.721060473517355,2282.225954488349,None,001,30,2019_Oct_15_1409,ACPT_experiment_5_30_19,3.1.0,59.95461085352911,
,,,C,U,y,n,R,D,y,R,y,,,,,5,19,119,17,3,0,3,0,,,,,1,29,65,27,,,,,,down,4.503464116090981,2289.2313326825297,None,001,30,2019_Oct_15_1409,ACPT_experiment_5_30_19,3.1.0,59.95461085352911,
,,,C,U,y,n,R,D,y,L,y,,,,,5,19,119,17,3,0,3,0,,,,,1,30,66,26,,,,,,down,2.9522564146227523,2295.019126593581,None,001,30,2019_Oct_15_1409,ACPT_experiment_5_30_19,3.1.0,59.95461085352911,
,,,C,U,y,n,L,D,d,L,c ,,,,,5,19,119,17,3,0,3,0,,,,,1,31,67,12,,,,,,down,1.084207361578592,2299.2556974084328,None,001,30,2019_Oct_15_1409,ACPT_experiment_5_30_19,3.1.0,59.95461085352911,
,,,C,U,y,n,R,G,g,L,c ,,,,,5,19,119,17,3,0,3,0,,,,,1,32,68,6,,,,,,up,1.8681027836682915,2301.6241950216463,None,001,30,2019_Oct_15_1409,ACPT_experiment_5_30_19,3.1.0,59.95461085352911,
,,,C,U,y,n,R,U,y,R,u,,,,,5,19,119,17,3,0,3,0,,,,,1,33,69,31,,,,,,down,1.0508056273465627,2304.77660224425,None,001,30,2019_Oct_15_1409,ACPT_experiment_5_30_19,3.1.0,59.95461085352911,
,,,C,U,y,n,R,G,y,L,y,,,,,5,19,119,17,3,0,3,0,,,,,1,34,70,28,,,,,,down,1.1842380906673498,2307.128409857216,None,001,30,2019_Oct_15_1409,ACPT_experiment_5_30_19,3.1.0,59.95461085352911,
,,,C,U,y,n,R,D,d,R,c ,,,,,5,19,119,17,3,0,3,0,,,,,1,35,71,1,,,,,,up,1.601220953012671,2309.613658083652,None,001,30,2019_Oct_15_1409,ACPT_experiment_5_30_19,3.1.0,59.95461085352911,
,,,C,U,y,n,,,,,,,,,,5,19,119,17,4,0,4,0,0,0,0,0,,,,,,,,,,,,,,001,30,2019_Oct_15_1409,ACPT_experiment_5_30_19,3.1.0,59.95461085352911,
,,,C,U,y,n,R,G,d,R,i,,,,,5,19,119,17,4,0,4,0,,,,,0,0,0,5,,,,,,down,1.164186605859868,2317.623184402906,None,001,30,2019_Oct_15_1409,ACPT_experiment_5_30_19,3.1.0,59.95461085352911,
,,,C,U,y,n,R,U,g,R,u,,,,,5,19,119,17,4,0,4,0,,,,,0,1,1,11,,,,,,up,3.1857869212417427,2320.071690842431,None,001,30,2019_Oct_15_1409,ACPT_experiment_5_30_19,3.1.0,59.95461085352911,
,,,C,U,y,n,R,D,y,L,y,,,,,5,19,119,17,4,0,4,0,,,,,0,2,2,26,,,,,,down,0.9674045270166971,2324.55846676942,None,001,30,2019_Oct_15_1409,ACPT_experiment_5_30_19,3.1.0,59.95461085352911,
,,,C,U,y,n,L,G,d,R,i,,,,,5,19,119,17,4,0,4,0,,,,,0,3,3,17,,,,,,down,4.086502987483982,2326.8268868656396,None,001,30,2019_Oct_15_1409,ACPT_experiment_5_30_19,3.1.0,59.95461085352911,
,,,C,U,y,n,R,G,y,L,y,,,,,5,19,119,17,4,0,4,0,,,,,0,4,4,28,,,,,,down,0.9507250917795318,2332.214344748978,None,001,30,2019_Oct_15_1409,ACPT_experiment_5_30_19,3.1.0,59.95461085352911,
,,,C,U,y,n,L,G,y,R,y,,,,,5,19,119,17,4,0,4,0,,,,,0,5,5,35,,,,,,down,2.368369323796287,2334.4660775616685,None,001,30,2019_Oct_15_1409,ACPT_experiment_5_30_19,3.1.0,59.95461085352911,
,,,C,U,y,n,L,D,d,R,c ,,,,,5,19,119,17,4,0,4,0,,,,,0,6,6,13,,,,,,up,1.8847752761848824,2338.118892593686,None,001,30,2019_Oct_15_1409,ACPT_experiment_5_30_19,3.1.0,59.95461085352911,
,,,C,U,y,n,R,U,g,L,u,,,,,5,19,119,17,4,0,4,0,,,,,0,7,7,10,,,,,,up,0.9840878863997204,2341.2879834775304,None,001,30,2019_Oct_15_1409,ACPT_experiment_5_30_19,3.1.0,59.95461085352911,
,,,C,U,y,n,L,U,g,L,u,,,,,5,19,119,17,4,0,4,0,,,,,0,8,8,22,,,,,,up,1.0841657052515075,2343.5563933105987,None,001,30,2019_Oct_15_1409,ACPT_experiment_5_30_19,3.1.0,59.95461085352911,
,,,C,U,y,n,R,U,y,L,u,,,,,5,19,119,17,4,0,4,0,,,,,0,9,9,30,,,,,,down,0.8506626676589804,2345.9248740197945,None,001,30,2019_Oct_15_1409,ACPT_experiment_5_30_19,3.1.0,59.95461085352911,
,,,C,U,y,n,R,G,y,R,y,,,,,5,19,119,17,4,0,4,0,,,,,0,10,10,29,,,,,,down,1.8847816151919687,2348.059852295113,None,001,30,2019_Oct_15_1409,ACPT_experiment_5_30_19,3.1.0,59.95461085352911,
,,,C,U,y,n,L,U,y,L,u,,,,,5,19,119,17,4,0,4,0,,,,,0,11,11,24,,,,,,down,0.733698339361581,2351.2457886357915,None,001,30,2019_Oct_15_1409,ACPT_experiment_5_30_19,3.1.0,59.95461085352911,
,,,C,U,y,n,L,G,d,L,i,,,,,5,19,119,17,4,0,4,0,,,,,0,12,12,16,,,,,,down,1.9848564154672204,2353.28052457995,None,001,30,2019_Oct_15_1409,ACPT_experiment_5_30_19,3.1.0,59.95461085352911,
,,,C,U,y,n,L,G,g,R,c ,,,,,5,19,119,17,4,0,4,0,,,,,0,13,13,19,,,,,,up,0.9340855017253489,2356.532997547107,None,001,30,2019_Oct_15_1409,ACPT_experiment_5_30_19,3.1.0,59.95461085352911,
,,,C,U,y,n,L,U,y,R,u,,,,,5,19,119,17,4,0,4,0,,,,,0,14,14,25,,,,,,up,1.4344317322211282,2358.7513968453495,None,001,30,2019_Oct_15_1409,ACPT_experiment_5_30_19,3.1.0,59.95461085352911,
,,,C,U,y,n,L,D,g,L,i,,,,,5,19,119,17,4,0,4,0,,,,,0,15,15,14,,,,,,down,1.6179169904080482,2361.4701502223797,None,001,30,2019_Oct_15_1409,ACPT_experiment_5_30_19,3.1.0,59.95461085352911,
,,,C,U,y,n,R,G,g,L,c ,,,,,5,19,119,17,4,0,4,0,,,,,0,16,16,6,,,,,,up,1.301030963932135,2364.3556994610644,None,001,30,2019_Oct_15_1409,ACPT_experiment_5_30_19,3.1.0,59.95461085352911,
,,,C,U,y,n,R,U,y,R,u,,,,,5,19,119,17,4,0,4,0,,,,,0,17,17,31,,,,,,down,0.8673357638890593,2366.941016450628,None,001,30,2019_Oct_15_1409,ACPT_experiment_5_30_19,3.1.0,59.95461085352911,
,,,C,U,y,n,L,U,d,L,u,,,,,5,19,119,17,4,0,4,0,,,,,0,18,18,20,,,,,,up,1.1175303110157984,2369.092674161184,None,001,30,2019_Oct_15_1409,ACPT_experiment_5_30_19,3.1.0,59.95461085352911,
,,,C,U,y,n,L,G,g,L,c ,,,,,5,19,119,17,4,0,4,0,,,,,0,19,19,18,,,,,,up,1.3343548189423018,2371.494524004007,None,001,30,2019_Oct_15_1409,ACPT_experiment_5_30_19,3.1.0,59.95461085352911,
,,,C,U,y,n,R,U,d,L,u,,,,,5,19,119,17,4,0,4,0,,,,,0,20,20,8,,,,,,up,1.134222726122971,2374.1132001659007,None,001,30,2019_Oct_15_1409,ACPT_experiment_5_30_19,3.1.0,59.95461085352911,
,,,C,U,y,n,R,D,g,R,i,,,,,5,19,119,17,4,0,4,0,,,,,0,21,21,3,,,,,,down,1.2342697555141058,2376.5317345755375,None,001,30,2019_Oct_15_1409,ACPT_experiment_5_30_19,3.1.0,59.95461085352911,
,,,C,U,y,n,R,D,y,R,y,,,,,5,19,119,17,4,0,4,0,,,,,0,22,22,27,,,,,,down,1.467795734271931,2379.050318127567,None,001,30,2019_Oct_15_1409,ACPT_experiment_5_30_19,3.1.0,59.95461085352911,
,,,C,U,y,n,L,D,y,R,y,,,,,5,19,119,17,4,0,4,0,,,,,0,23,23,33,,,,,,down,1.501182677486213,2381.802407132047,None,001,30,2019_Oct_15_1409,ACPT_experiment_5_30_19,3.1.0,59.95461085352911,
,,,C,U,y,n,L,D,d,L,c ,,,,,5,19,119,17,4,0,4,0,,,,,0,24,24,12,,,,,,up,1.6179181978386623,2384.587903907908,None,001,30,2019_Oct_15_1409,ACPT_experiment_5_30_19,3.1.0,59.95461085352911,
,,,C,U,y,n,R,D,d,R,c ,,,,,5,19,119,17,4,0,4,0,,,,,0,25,25,1,,,,,,down,1.8847849356225197,2387.490136505976,None,001,30,2019_Oct_15_1409,ACPT_experiment_5_30_19,3.1.0,59.95461085352911,
,,,C,U,y,n,L,G,y,L,y,,,,,5,19,119,17,4,0,4,0,,,,,0,26,26,34,,,,,,down,1.0675025703149004,2390.6592427845517,None,001,30,2019_Oct_15_1409,ACPT_experiment_5_30_19,3.1.0,59.95461085352911,
,,,C,U,y,n,L,D,g,R,i,,,,,5,19,119,17,4,0,4,0,,,,,0,27,27,15,,,,,,down,1.0841714405414677,2393.0110356065015,None,001,30,2019_Oct_15_1409,ACPT_experiment_5_30_19,3.1.0,59.95461085352911,
,,,C,U,y,n,R,U,d,R,u,,,,,5,19,119,17,4,0,4,0,,,,,0,28,28,9,,,,,,up,1.451133806765938,2395.3795271825657,None,001,30,2019_Oct_15_1409,ACPT_experiment_5_30_19,3.1.0,59.95461085352911,
,,,C,U,y,n,L,D,y,L,y,,,,,5,19,119,17,4,0,4,0,,,,,0,29,29,32,,,,,,down,1.234285452101176,2398.1149669375536,None,001,30,2019_Oct_15_1409,ACPT_experiment_5_30_19,3.1.0,59.95461085352911,
,,,C,U,y,n,R,D,d,L,c,,,,,5,19,119,17,4,0,4,0,,,,,0,30,30,0,,,,,,up,1.0341548685682938,2400.6335625638803,None,001,30,2019_Oct_15_1409,ACPT_experiment_5_30_19,3.1.0,59.95461085352911,
,,,C,U,y,n,R,D,g,L,i,,,,,5,19,119,17,4,0,4,0,,,,,0,31,31,2,,,,,,down,1.7847303597955033,2402.9520131175177,None,001,30,2019_Oct_15_1409,ACPT_experiment_5_30_19,3.1.0,59.95461085352911,
,,,C,U,y,n,R,G,g,R,c ,,,,,5,19,119,17,4,0,4,0,,,,,0,32,32,7,,,,,,up,1.2176144688728527,2406.021032823375,None,001,30,2019_Oct_15_1409,ACPT_experiment_5_30_19,3.1.0,59.95461085352911,
,,,C,U,y,n,L,U,d,R,u,,,,,5,19,119,17,4,0,4,0,,,,,0,33,33,21,,,,,,down,1.1175191422898934,2408.5229583720466,None,001,30,2019_Oct_15_1409,ACPT_experiment_5_30_19,3.1.0,59.95461085352911,
,,,C,U,y,n,R,G,d,L,i,,,,,5,19,119,17,4,0,4,0,,,,,0,34,34,4,,,,,,down,3.3192187808472227,2410.924803988866,None,001,30,2019_Oct_15_1409,ACPT_experiment_5_30_19,3.1.0,59.95461085352911,
,,,C,U,y,n,L,U,g,R,u,,,,,5,19,119,17,4,0,4,0,,,,,0,35,35,23,,,,,,up,1.4511066395971284,2415.528351659099,None,001,30,2019_Oct_15_1409,ACPT_experiment_5_30_19,3.1.0,59.95461085352911,
,,,C,U,y,n,L,G,g,R,c ,,,,,5,19,119,17,4,0,4,0,,,,,1,0,36,19,,,,,,up,1.8514468933135504,2418.2470730392397,None,001,30,2019_Oct_15_1409,ACPT_experiment_5_30_19,3.1.0,59.95461085352911,
,,,C,U,y,n,L,G,d,L,i,,,,,5,19,119,17,4,0,4,0,,,,,1,1,37,16,,,,,,down,1.1676084619102767,2421.366132560095,None,001,30,2019_Oct_15_1409,ACPT_experiment_5_30_19,3.1.0,59.95461085352911,
,,,C,U,y,n,L,G,g,L,c ,,,,,5,19,119,17,4,0,4,0,,,,,1,2,38,18,,,,,,down,1.2009365429239551,2423.8013536495473,None,001,30,2019_Oct_15_1409,ACPT_experiment_5_30_19,3.1.0,59.95461085352911,
,,,C,U,y,n,L,U,d,R,u,,,,,5,19,119,17,4,0,4,0,,,,,1,3,39,21,,,,,,up,1.0174555107387278,2426.2866012722698,None,001,30,2019_Oct_15_1409,ACPT_experiment_5_30_19,3.1.0,59.95461085352911,
,,,C,U,y,n,R,D,g,L,i,,,,,5,19,119,17,4,0,4,0,,,,,1,4,40,2,,,,,,down,0.984066454520871,2428.5883959355506,None,001,30,2019_Oct_15_1409,ACPT_experiment_5_30_19,3.1.0,59.95461085352911,
,,,C,U,y,n,L,U,g,R,u,,,,,5,19,119,17,4,0,4,0,,,,,1,5,41,23,,,,,,up,2.368515422804194,2430.8568018444694,None,001,30,2019_Oct_15_1409,ACPT_experiment_5_30_19,3.1.0,59.95461085352911,
,,,C,U,y,n,L,D,d,L,c ,,,,,5,19,119,17,4,0,4,0,,,,,1,6,42,12,,,,,,up,0.9007094253774994,2434.509596048325,None,001,30,2019_Oct_15_1409,ACPT_experiment_5_30_19,3.1.0,59.95461085352911,
,,,C,U,y,n,R,G,y,L,y,,,,,5,19,119,17,4,0,4,0,,,,,1,7,43,28,,,,,,down,1.6512701255905995,2436.694602668058,None,001,30,2019_Oct_15_1409,ACPT_experiment_5_30_19,3.1.0,59.95461085352911,
,,,C,U,y,n,R,D,y,L,y,,,,,5,19,119,17,4,0,4,0,,,,,1,8,44,26,,,,,,down,3.9697167550802988,2439.6301850808777,None,001,30,2019_Oct_15_1409,ACPT_experiment_5_30_19,3.1.0,59.95461085352911,
,,,C,U,y,n,R,G,g,L,c ,,,,,5,19,119,17,4,0,4,0,,,,,1,9,45,6,,,,,,up,1.0507992883412953,2444.884229819774,None,001,30,2019_Oct_15_1409,ACPT_experiment_5_30_19,3.1.0,59.95461085352911,
,,,C,U,y,n,R,U,y,R,u,,,,,5,19,119,17,4,0,4,0,,,,,1,10,46,31,,,,,,down,0.9006973510804528,2447.2193456213463,None,001,30,2019_Oct_15_1409,ACPT_experiment_5_30_19,3.1.0,59.95461085352911,
,,,C,U,y,n,R,D,d,L,c,,,,,5,19,119,17,4,0,4,0,,,,,1,11,47,0,,,,,,up,1.6012731743503537,2449.4043558633693,None,001,30,2019_Oct_15_1409,ACPT_experiment_5_30_19,3.1.0,59.95461085352911,
,,,C,U,y,n,R,U,d,L,u,,,,,5,19,119,17,4,0,4,0,,,,,1,12,48,8,,,,,,up,0.7505691522219422,2452.2899204967853,None,001,30,2019_Oct_15_1409,ACPT_experiment_5_30_19,3.1.0,59.95461085352911,
,,,C,U,y,n,L,U,g,L,u,,,,,5,19,119,17,4,0,4,0,,,,,1,13,49,22,,,,,,up,1.5846094357020775,2454.3247799006404,None,001,30,2019_Oct_15_1409,ACPT_experiment_5_30_19,3.1.0,59.95461085352911,
,,,C,U,y,n,R,U,g,L,u,,,,,5,19,119,17,4,0,4,0,,,,,1,14,50,10,,,,,,up,0.9007338758310652,2457.193670834111,None,001,30,2019_Oct_15_1409,ACPT_experiment_5_30_19,3.1.0,59.95461085352911,
,,,C,U,y,n,R,D,y,R,y,,,,,5,19,119,17,4,0,4,0,,,,,1,15,51,27,,,,,,down,5.621024009138637,2459.378661757257,None,001,30,2019_Oct_15_1409,ACPT_experiment_5_30_19,3.1.0,59.95461085352911,
,,,C,U,y,n,L,D,g,R,i,,,,,5,19,119,17,4,0,4,0,,,,,1,16,52,15,,,,,,down,1.301006513480388,2466.2839844700393,None,001,30,2019_Oct_15_1409,ACPT_experiment_5_30_19,3.1.0,59.95461085352911,
,,,C,U,y,n,R,D,g,R,i,,,,,5,19,119,17,4,0,4,0,,,,,1,17,53,3,,,,,,down,1.718029824723999,2468.8692963280246,None,001,30,2019_Oct_15_1409,ACPT_experiment_5_30_19,3.1.0,59.95461085352911,
,,,C,U,y,n,L,D,d,R,c ,,,,,5,19,119,17,4,0,4,0,,,,,1,18,54,13,,,,,,up,2.885549238684689,2471.87161791367,None,001,30,2019_Oct_15_1409,ACPT_experiment_5_30_19,3.1.0,59.95461085352911,
,,,C,U,y,n,R,G,d,L,i,,,,,5,19,119,17,4,0,4,0,,,,,1,19,55,4,,,,,,down,1.8680916149423865,2476.041498758461,None,001,30,2019_Oct_15_1409,ACPT_experiment_5_30_19,3.1.0,59.95461085352911,
,,,C,U,y,n,R,D,d,R,c ,,,,,5,19,119,17,4,0,4,0,,,,,1,20,56,1,,,,,,up,2.11830306608681,2479.1772220179664,None,001,30,2019_Oct_15_1409,ACPT_experiment_5_30_19,3.1.0,59.95461085352911,
,,,C,U,y,n,L,D,y,L,y,,,,,5,19,119,17,4,0,4,0,,,,,1,21,57,32,,,,,,down,1.1842383925250033,2482.579841295428,None,001,30,2019_Oct_15_1409,ACPT_experiment_5_30_19,3.1.0,59.95461085352911,
,,,C,U,y,n,L,U,d,L,u,,,,,5,19,119,17,4,0,4,0,,,,,1,22,58,20,,,,,,up,0.9340909351594746,2485.0483856361734,None,001,30,2019_Oct_15_1409,ACPT_experiment_5_30_19,3.1.0,59.95461085352911,
,,,C,U,y,n,L,G,y,L,y,,,,,5,19,119,17,4,0,4,0,,,,,1,23,59,34,,,,,,down,0.8673224821613985,2487.2667867455602,None,001,30,2019_Oct_15_1409,ACPT_experiment_5_30_19,3.1.0,59.95461085352911,
,,,C,U,y,n,R,G,g,R,c ,,,,,5,19,119,17,4,0,4,0,,,,,1,24,60,7,,,,,,up,2.0015609048714396,2489.41842392981,None,001,30,2019_Oct_15_1409,ACPT_experiment_5_30_19,3.1.0,59.95461085352911,
,,,C,U,y,n,L,U,y,R,u,,,,,5,19,119,17,4,0,4,0,,,,,1,25,61,25,,,,,,up,1.8012153988365753,2492.7211048465633,None,001,30,2019_Oct_15_1409,ACPT_experiment_5_30_19,3.1.0,59.95461085352911,
,,,C,U,y,n,L,U,y,L,u,,,,,5,19,119,17,4,0,4,0,,,,,1,26,62,24,,,,,,up,1.1842426185285149,2495.8233460777556,None,001,30,2019_Oct_15_1409,ACPT_experiment_5_30_19,3.1.0,59.95461085352911,
,,,C,U,y,n,L,D,y,R,y,,,,,5,19,119,17,4,0,4,0,,,,,1,27,63,33,,,,,,down,1.1507454973434506,2498.3087265177546,None,001,30,2019_Oct_15_1409,ACPT_experiment_5_30_19,3.1.0,59.95461085352911,
,,,C,U,y,n,R,U,y,L,u,,,,,5,19,119,17,4,0,4,0,,,,,1,28,64,30,,,,,,down,1.534508343642301,2500.7437915469054,None,001,30,2019_Oct_15_1409,ACPT_experiment_5_30_19,3.1.0,59.95461085352911,
,,,C,U,y,n,L,G,y,R,y,,,,,5,19,119,17,4,0,4,0,,,,,1,29,65,35,,,,,,down,0.8172929303163983,2503.5793079133146,None,001,30,2019_Oct_15_1409,ACPT_experiment_5_30_19,3.1.0,59.95461085352911,
,,,C,U,y,n,R,U,g,R,u,,,,,5,19,119,17,4,0,4,0,,,,,1,30,66,11,,,,,,up,0.9840824529655947,2505.6809209791536,None,001,30,2019_Oct_15_1409,ACPT_experiment_5_30_19,3.1.0,59.95461085352911,
,,,C,U,y,n,R,U,d,R,u,,,,,5,19,119,17,4,0,4,0,,,,,1,31,67,9,,,,,,up,5.053911136788884,2507.932648660266,None,001,30,2019_Oct_15_1409,ACPT_experiment_5_30_19,3.1.0,59.95461085352911,
,,,C,U,y,n,R,G,d,R,i,,,,,5,19,119,17,4,0,4,0,,,,,1,32,68,5,,,,,,down,9.907653052292517,2514.2708473319726,None,001,30,2019_Oct_15_1409,ACPT_experiment_5_30_19,3.1.0,59.95461085352911,
,,,C,U,y,n,L,G,d,R,i,,,,,5,19,119,17,4,0,4,0,,,,,1,33,69,17,,,,,,down,1.284347302693277,2525.4627782597436,None,001,30,2019_Oct_15_1409,ACPT_experiment_5_30_19,3.1.0,59.95461085352911,
,,,C,U,y,n,R,G,y,R,y,,,,,5,19,119,17,4,0,4,0,,,,,1,34,70,29,,,,,,down,2.1015991803960787,2528.0314363403777,None,001,30,2019_Oct_15_1409,ACPT_experiment_5_30_19,3.1.0,59.95461085352911,
,,,C,U,y,n,L,D,g,L,i,,,,,5,19,119,17,4,0,4,0,,,,,1,35,71,14,,,,,,down,1.2676506615807739,2531.417348713574,None,001,30,2019_Oct_15_1409,ACPT_experiment_5_30_19,3.1.0,59.95461085352911,
,,,C,U,y,n,,,,,,,,,,5,19,119,17,5,0,5,0,0,0,0,0,,,,,,,,,,,,,,001,30,2019_Oct_15_1409,ACPT_experiment_5_30_19,3.1.0,59.95461085352911,
,,,C,U,y,n,R,U,g,L,u,,,,,5,19,119,17,5,0,5,0,,,,,0,0,0,10,,,,,,up,1.7177581530195312,2614.898383010015,None,001,30,2019_Oct_15_1409,ACPT_experiment_5_30_19,3.1.0,59.95461085352911,
,,,C,U,y,n,R,D,g,R,i,,,,,5,19,119,17,5,0,5,0,,,,,0,1,1,3,,,,,,down,1.1008635537928058,2617.900454355833,None,001,30,2019_Oct_15_1409,ACPT_experiment_5_30_19,3.1.0,59.95461085352911,
,,,C,U,y,n,L,U,y,L,u,,,,,5,19,119,17,5,0,5,0,,,,,0,2,2,24,,,,,,up,1.2175987722857826,2620.2856205374155,None,001,30,2019_Oct_15_1409,ACPT_experiment_5_30_19,3.1.0,59.95461085352911,
,,,C,U,y,n,L,G,y,R,y,,,,,5,19,119,17,5,0,5,0,,,,,0,3,3,35,,,,,,down,1.2176111484404828,2622.787535822934,None,001,30,2019_Oct_15_1409,ACPT_experiment_5_30_19,3.1.0,59.95461085352911,
,,,C,U,y,n,R,U,g,R,u,,,,,5,19,119,17,5,0,5,0,,,,,0,4,4,11,,,,,,up,0.7839328524132725,2625.2894640883223,None,001,30,2019_Oct_15_1409,ACPT_experiment_5_30_19,3.1.0,59.95461085352911,
,,,C,U,y,n,R,G,y,L,y,,,,,5,19,119,17,5,0,5,0,,,,,0,5,5,28,,,,,,down,1.1341964645253029,2627.35772854684,None,001,30,2019_Oct_15_1409,ACPT_experiment_5_30_19,3.1.0,59.95461085352911,
,,,C,U,y,n,L,G,d,L,i,,,,,5,19,119,17,5,0,5,0,,,,,0,6,6,16,,,,,,down,2.3684891612028878,2629.7762430338844,None,001,30,2019_Oct_15_1409,ACPT_experiment_5_30_19,3.1.0,59.95461085352911,
,,,C,U,y,n,R,U,y,R,u,,,,,5,19,119,17,5,0,5,0,,,,,0,7,7,31,,,,,,up,1.2509567371871526,2633.429055047329,None,001,30,2019_Oct_15_1409,ACPT_experiment_5_30_19,3.1.0,59.95461085352911,
,,,C,U,y,n,R,U,d,L,u,,,,,5,19,119,17,5,0,5,0,,,,,0,8,8,8,,,,,,up,1.8013587811237812,2635.964356672348,None,001,30,2019_Oct_15_1409,ACPT_experiment_5_30_19,3.1.0,59.95461085352911,
,,,C,U,y,n,L,U,g,R,u,,,,,5,19,119,17,5,0,5,0,,,,,0,9,9,23,,,,,,up,2.401852257682549,2639.050033174135,None,001,30,2019_Oct_15_1409,ACPT_experiment_5_30_19,3.1.0,59.95461085352911,
,,,C,U,y,n,R,D,d,L,c,,,,,5,19,119,17,5,0,5,0,,,,,0,10,10,0,,,,,,up,1.9681845266659366,2642.7362010394772,None,001,30,2019_Oct_15_1409,ACPT_experiment_5_30_19,3.1.0,59.95461085352911,
,,,C,U,y,n,L,D,y,L,y,,,,,5,19,119,17,5,0,5,0,,,,,0,11,11,32,,,,,,down,1.6012351403114735,2645.9886978533723,None,001,30,2019_Oct_15_1409,ACPT_experiment_5_30_19,3.1.0,59.95461085352911,
,,,C,U,y,n,R,U,d,R,u,,,,,5,19,119,17,5,0,5,0,,,,,0,12,12,9,,,,,,up,6.354878408799777,2648.874257958925,None,001,30,2019_Oct_15_1409,ACPT_experiment_5_30_19,3.1.0,59.95461085352911,
,,,C,U,y,n,L,U,y,R,u,,,,,5,19,119,17,5,0,5,0,,,,,0,13,13,25,,,,,,up,1.1342281595570967,2656.5134251100735,None,001,30,2019_Oct_15_1409,ACPT_experiment_5_30_19,3.1.0,59.95461085352911,
,,,C,U,y,n,R,G,d,R,i,,,,,5,19,119,17,5,0,5,0,,,,,0,14,14,5,,,,,,down,1.1508873703442077,2658.931975518153,None,001,30,2019_Oct_15_1409,ACPT_experiment_5_30_19,3.1.0,59.95461085352911,
,,,C,U,y,n,L,D,g,L,i,,,,,5,19,119,17,5,0,5,0,,,,,0,15,15,14,,,,,,down,1.367744780734938,2661.3671760812995,None,001,30,2019_Oct_15_1409,ACPT_experiment_5_30_19,3.1.0,59.95461085352911,
,,,C,U,y,n,L,G,d,R,i,,,,,5,19,119,17,5,0,5,0,,,,,0,16,16,17,,,,,,down,1.8347381779040006,2664.0192129248117,None,001,30,2019_Oct_15_1409,ACPT_experiment_5_30_19,3.1.0,59.95461085352911,
,,,C,U,y,n,L,U,g,L,u,,,,,5,19,119,17,5,0,5,0,,,,,0,17,17,22,,,,,,up,1.3677188209931046,2667.138277879101,None,001,30,2019_Oct_15_1409,ACPT_experiment_5_30_19,3.1.0,59.95461085352911,
,,,C,U,y,n,L,D,g,R,i,,,,,5,19,119,17,5,0,5,0,,,,,0,18,18,15,,,,,,down,1.534537321957032,2669.7903129114693,None,001,30,2019_Oct_15_1409,ACPT_experiment_5_30_19,3.1.0,59.95461085352911,
,,,C,U,y,n,L,G,y,L,y,,,,,5,19,119,17,5,0,5,0,,,,,0,19,19,34,,,,,,down,2.5019285672460683,2672.6091422962054,None,001,30,2019_Oct_15_1409,ACPT_experiment_5_30_19,3.1.0,59.95461085352911,
,,,C,U,y,n,L,D,d,L,c ,,,,,5,19,119,17,5,0,5,0,,,,,0,20,20,12,,,,,,up,4.236616395326564,2676.395364435519,None,001,30,2019_Oct_15_1409,ACPT_experiment_5_30_19,3.1.0,59.95461085352911,
,,,C,U,y,n,L,U,d,L,u,,,,,5,19,119,17,5,0,5,0,,,,,0,21,21,20,,,,,,up,1.0007621900604136,2681.916298249649,None,001,30,2019_Oct_15_1409,ACPT_experiment_5_30_19,3.1.0,59.95461085352911,
,,,C,U,y,n,L,G,g,R,c ,,,,,5,19,119,17,5,0,5,0,,,,,0,22,22,19,,,,,,up,1.1008738169457501,2684.2013745380827,None,001,30,2019_Oct_15_1409,ACPT_experiment_5_30_19,3.1.0,59.95461085352911,
,,,C,U,y,n,L,U,d,R,u,,,,,5,19,119,17,5,0,5,0,,,,,0,23,23,21,,,,,,up,3.285719848516237,2686.586665990506,None,001,30,2019_Oct_15_1409,ACPT_experiment_5_30_19,3.1.0,59.95461085352911,
,,,C,U,y,n,R,G,g,R,c ,,,,,5,19,119,17,5,0,5,0,,,,,0,24,24,7,,,,,,up,2.2350536793110223,2691.156730726856,None,001,30,2019_Oct_15_1409,ACPT_experiment_5_30_19,3.1.0,59.95461085352911,
,,,C,U,y,n,R,G,d,L,i,,,,,5,19,119,17,5,0,5,0,,,,,0,25,25,4,,,,,,down,1.3343542152269947,2694.676098202681,None,001,30,2019_Oct_15_1409,ACPT_experiment_5_30_19,3.1.0,59.95461085352911,
,,,C,U,y,n,R,D,y,R,y,,,,,5,19,119,17,5,0,5,0,,,,,0,26,26,27,,,,,,down,1.2843385488267813,2697.2947514234093,None,001,30,2019_Oct_15_1409,ACPT_experiment_5_30_19,3.1.0,59.95461085352911,
,,,C,U,y,n,R,G,g,L,c ,,,,,5,19,119,17,5,0,5,0,,,,,0,27,27,6,,,,,,up,2.335126366584518,2699.8634161449063,None,001,30,2019_Oct_15_1409,ACPT_experiment_5_30_19,3.1.0,59.95461085352911,
,,,C,U,y,n,L,D,y,R,y,,,,,5,19,119,17,5,0,5,0,,,,,0,28,28,33,,,,,,down,2.301778362980258,2703.4828590247234,None,001,30,2019_Oct_15_1409,ACPT_experiment_5_30_19,3.1.0,59.95461085352911,
,,,C,U,y,n,R,D,y,L,y,,,,,5,19,119,17,5,0,5,0,,,,,0,29,29,26,,,,,,down,0.7839325505574379,2707.0689475619274,None,001,30,2019_Oct_15_1409,ACPT_experiment_5_30_19,3.1.0,59.95461085352911,
,,,C,U,y,n,L,G,g,L,c ,,,,,5,19,119,17,5,0,5,0,,,,,0,30,30,18,,,,,,up,3.369256180983939,2709.137212624162,None,001,30,2019_Oct_15_1409,ACPT_experiment_5_30_19,3.1.0,59.95461085352911,
,,,C,U,y,n,R,U,y,L,u,,,,,5,19,119,17,5,0,5,0,,,,,0,31,31,30,,,,,,down,3.118872972951067,2713.8076171916273,None,001,30,2019_Oct_15_1409,ACPT_experiment_5_30_19,3.1.0,59.95461085352911,
,,,C,U,y,n,R,D,g,L,i,,,,,5,19,119,17,5,0,5,0,,,,,0,32,32,2,,,,,,down,4.820371876303398,2718.227516600651,None,001,30,2019_Oct_15_1409,ACPT_experiment_5_30_19,3.1.0,59.95461085352911,
,,,C,U,y,n,R,G,y,R,y,,,,,5,19,119,17,5,0,5,0,,,,,0,33,33,29,,,,,,down,1.1508816350524285,2724.3322095180483,None,001,30,2019_Oct_15_1409,ACPT_experiment_5_30_19,3.1.0,59.95461085352911,
,,,C,U,y,n,L,D,d,R,c ,,,,,5,19,119,17,5,0,5,0,,,,,0,34,34,13,,,,,,up,1.2175987722857826,2726.76740706262,None,001,30,2019_Oct_15_1409,ACPT_experiment_5_30_19,3.1.0,59.95461085352911,
,,,C,U,y,n,R,D,d,R,c ,,,,,5,19,119,17,5,0,5,0,,,,,0,35,35,1,,,,,,up,0.8005965910633677,2729.269352533882,None,001,30,2019_Oct_15_1409,ACPT_experiment_5_30_19,3.1.0,59.95461085352911,
,,,C,U,y,n,R,D,g,L,i,,,,,5,19,119,17,5,0,5,0,,,,,1,0,36,2,,,,,,down,1.5178355492698756,2731.337586806656,None,001,30,2019_Oct_15_1409,ACPT_experiment_5_30_19,3.1.0,59.95461085352911,
,,,C,U,y,n,L,G,g,R,c ,,,,,5,19,119,17,5,0,5,0,,,,,1,1,37,19,,,,,,up,15.261764441313062,2734.123054302345,None,001,30,2019_Oct_15_1409,ACPT_experiment_5_30_19,3.1.0,59.95461085352911,
,,,C,U,y,n,L,U,g,L,u,,,,,5,19,119,17,5,0,5,0,,,,,1,2,38,22,,,,,,up,1.534518908652899,2750.6690993358534,None,001,30,2019_Oct_15_1409,ACPT_experiment_5_30_19,3.1.0,59.95461085352911,
,,,C,U,y,n,R,D,d,R,c ,,,,,5,19,119,17,5,0,5,0,,,,,1,3,39,1,,,,,,down,1.4010650134532625,2753.4879426060324,None,001,30,2019_Oct_15_1409,ACPT_experiment_5_30_19,3.1.0,59.95461085352911,
,,,C,U,y,n,L,G,y,R,y,,,,,5,19,119,17,5,0,5,0,,,,,1,4,40,35,,,,,,down,1.9347064225003123,2756.1733256420066,None,001,30,2019_Oct_15_1409,ACPT_experiment_5_30_19,3.1.0,59.95461085352911,
,,,C,U,y,n,R,D,d,L,c,,,,,5,19,119,17,5,0,5,0,,,,,1,5,41,0,,,,,,up,2.034892306317488,2759.392475961582,None,001,30,2019_Oct_15_1409,ACPT_experiment_5_30_19,3.1.0,59.95461085352911,
,,,C,U,y,n,R,G,y,R,y,,,,,5,19,119,17,5,0,5,0,,,,,1,6,42,29,,,,,,down,3.9030035419964406,2762.7116814607016,None,001,30,2019_Oct_15_1409,ACPT_experiment_5_30_19,3.1.0,59.95461085352911,
,,,C,U,y,n,R,U,g,L,u,,,,,5,19,119,17,5,0,5,0,,,,,1,7,43,10,,,,,,up,6.454985507823949,2767.899003327073,None,001,30,2019_Oct_15_1409,ACPT_experiment_5_30_19,3.1.0,59.95461085352911,
,,,C,U,y,n,L,U,d,L,u,,,,,5,19,119,17,5,0,5,0,,,,,1,8,44,20,,,,,,up,1.217635297036395,2775.638264295516,None,001,30,2019_Oct_15_1409,ACPT_experiment_5_30_19,3.1.0,59.95461085352911,
,,,C,U,y,n,L,U,y,R,u,,,,,5,19,119,17,5,0,5,0,,,,,1,9,45,25,,,,,,up,2.134993066334573,2778.123520672105,None,001,30,2019_Oct_15_1409,ACPT_experiment_5_30_19,3.1.0,59.95461085352911,
,,,C,U,y,n,R,U,d,R,u,,,,,5,19,119,17,5,0,5,0,,,,,1,10,46,9,,,,,,up,1.1008445367715467,2781.5428106309373,None,001,30,2019_Oct_15_1409,ACPT_experiment_5_30_19,3.1.0,59.95461085352911,
,,,C,U,y,n,L,D,y,L,y,,,,,5,19,119,17,5,0,5,0,,,,,1,11,47,32,,,,,,down,11.892463887284975,2783.944664699764,None,001,30,2019_Oct_15_1409,ACPT_experiment_5_30_19,3.1.0,59.95461085352911,
,,,C,U,y,n,L,D,d,R,c ,,,,,5,19,119,17,5,0,5,0,,,,,1,12,48,13,,,,,,up,14.411075813912248,2797.1381172909387,None,001,30,2019_Oct_15_1409,ACPT_experiment_5_30_19,3.1.0,59.95461085352911,
,,,C,U,y,n,R,D,y,L,y,,,,,5,19,119,17,5,0,5,0,,,,,1,13,49,26,,,,,,down,13.243575416970998,2812.833493317783,None,001,30,2019_Oct_15_1409,ACPT_experiment_5_30_19,3.1.0,59.95461085352911,
,,,C,U,y,n,L,G,d,R,i,,,,,5,19,119,17,5,0,5,0,,,,,1,14,50,17,,,,,,up,1.567884721845985,2827.361327593213,None,001,30,2019_Oct_15_1409,ACPT_experiment_5_30_19,3.1.0,59.95461085352911,
,,,C,U,y,n,L,D,y,R,y,,,,,5,19,119,17,5,0,5,0,,,,,1,15,51,33,,,,,,down,4.920460562023436,2830.230210980246,None,001,30,2019_Oct_15_1409,ACPT_experiment_5_30_19,3.1.0,59.95461085352911,
,,,C,U,y,n,R,U,y,R,u,,,,,5,19,119,17,5,0,5,0,,,,,1,16,52,31,,,,,,down,2.6186275628442672,2836.4517043173473,None,001,30,2019_Oct_15_1409,ACPT_experiment_5_30_19,3.1.0,59.95461085352911,
,,,C,U,y,n,L,U,y,L,u,,,,,5,19,119,17,5,0,5,0,,,,,1,17,53,24,,,,,,up,1.3510043702917756,2840.354692162755,None,001,30,2019_Oct_15_1409,ACPT_experiment_5_30_19,3.1.0,59.95461085352911,
,,,C,U,y,n,R,G,y,L,y,,,,,5,19,119,17,5,0,5,0,,,,,1,18,54,28,,,,,,down,2.5851871908598696,2842.9900181778557,None,001,30,2019_Oct_15_1409,ACPT_experiment_5_30_19,3.1.0,59.95461085352911,
,,,C,U,y,n,R,U,d,L,u,,,,,5,19,119,17,5,0,5,0,,,,,1,19,55,8,,,,,,up,0.9507435050836648,2846.8596290413443,None,001,30,2019_Oct_15_1409,ACPT_experiment_5_30_19,3.1.0,59.95461085352911,
,,,C,U,y,n,L,D,d,L,c ,,,,,5,19,119,17,5,0,5,0,,,,,1,20,56,12,,,,,,down,1.651221828400594,2849.0947412809983,None,001,30,2019_Oct_15_1409,ACPT_experiment_5_30_19,3.1.0,59.95461085352911,
,,,C,U,y,n,L,U,g,R,u,,,,,5,19,119,17,5,0,5,0,,,,,1,21,57,23,,,,,,up,1.6345979349316622,2852.0302787170585,None,001,30,2019_Oct_15_1409,ACPT_experiment_5_30_19,3.1.0,59.95461085352911,
,,,C,U,y,n,R,G,d,R,i,,,,,5,19,119,17,5,0,5,0,,,,,1,22,58,5,,,,,,down,4.136531935613675,2854.9491904485058,None,001,30,2019_Oct_15_1409,ACPT_experiment_5_30_19,3.1.0,59.95461085352911,
,,,C,U,y,n,R,U,g,R,u,,,,,5,19,119,17,5,0,5,0,,,,,1,23,59,11,,,,,,up,3.502635517392264,2860.3700210877614,None,001,30,2019_Oct_15_1409,ACPT_experiment_5_30_19,3.1.0,59.95461085352911,
,,,C,U,y,n,L,D,g,L,i,,,,,5,19,119,17,5,0,5,0,,,,,1,24,60,14,,,,,,up,3.836285499190126,2865.1403498286363,None,001,30,2019_Oct_15_1409,ACPT_experiment_5_30_19,3.1.0,59.95461085352911,
,,,C,U,y,n,L,G,d,L,i,,,,,5,19,119,17,5,0,5,0,,,,,1,25,61,16,,,,,,up,8.823446596285066,2870.2609569726355,None,001,30,2019_Oct_15_1409,ACPT_experiment_5_30_19,3.1.0,59.95461085352911,
,,,C,U,y,n,R,D,g,R,i,,,,,5,19,119,17,5,0,5,0,,,,,1,26,62,3,,,,,,up,4.40337361922866,2880.3687412121762,None,001,30,2019_Oct_15_1409,ACPT_experiment_5_30_19,3.1.0,59.95461085352911,
,,,C,U,y,n,L,G,g,L,c ,,,,,5,19,119,17,5,0,5,0,,,,,1,27,63,18,,,,,,up,1.4344287136464118,2886.039749494541,None,001,30,2019_Oct_15_1409,ACPT_experiment_5_30_19,3.1.0,59.95461085352911,
