facing_vig,person_vig,text_vig,facing_train,person_train,food_train,correct_key_train,facing_exp,person_exp,food_exp,showL_R,consistent,vig_random.thisRepN,vig_random.thisTrialN,vig_random.thisN,vig_random.thisIndex,trainTrials.thisRepN,trainTrials.thisTrialN,trainTrials.thisN,trainTrials.thisIndex,expBlock.thisRepN,expBlock.thisTrialN,expBlock.thisN,expBlock.thisIndex,breakLoop.thisRepN,breakLoop.thisTrialN,breakLoop.thisN,breakLoop.thisIndex,expTrials.thisRepN,expTrials.thisTrialN,expTrials.thisN,expTrials.thisIndex,train_resp.keys,train_resp.corr,train_resp.rt,train_resp.started,train_resp.stopped,exp_resp.keys,exp_resp.rt,exp_resp.started,exp_resp.stopped,session,participant,date,expName,psychopyVersion,frameRate,
C,G,"cannot eat dairy products because she is lactose intolerant. She enjoys eating wheat products. She thinks eating insects, like crickets, is disgusting.",,,,,,,,,,0,0,0,0,,,,,,,,,,,,,,,,,,,,,,,,,,001,31,2019_Oct_15_1703,ACPT_experiment_5_30_19,3.1.0,59.951464393544484,
C,U,"did not report her food preferences, so her food preferences are unknown.",,,,,,,,,,0,1,1,2,,,,,,,,,,,,,,,,,,,,,,,,,,001,31,2019_Oct_15_1703,ACPT_experiment_5_30_19,3.1.0,59.951464393544484,
C,D,"is allergic to gluten, meaning she can’t eat wheat products. She enjoys eating dairy products. She thinks eating insects, like crickets, is disgusting.",,,,,,,,,,0,2,2,1,,,,,,,,,,,,,,,,,,,,,,,,,,001,31,2019_Oct_15_1703,ACPT_experiment_5_30_19,3.1.0,59.951464393544484,
,,,C,U,d,n,,,,,,,,,,0,0,0,15,,,,,,,,,,,,,v,0,8.856585412679124,1212.7780904014762,None,,,,,001,31,2019_Oct_15_1703,ACPT_experiment_5_30_19,3.1.0,59.951464393544484,
,,,C,U,g,n,,,,,,,,,,0,1,1,16,,,,,,,,,,,,,b,0,4.2866785477745,1224.903842403848,None,,,,,001,31,2019_Oct_15_1703,ACPT_experiment_5_30_19,3.1.0,59.951464393544484,
,,,C,D,d,v,,,,,,,,,,0,2,2,9,,,,,,,,,,,,,n,0,3.786241156332835,1232.4763503743961,None,,,,,001,31,2019_Oct_15_1703,ACPT_experiment_5_30_19,3.1.0,59.951464393544484,
,,,C,G,g,v,,,,,,,,,,0,3,3,19,,,,,,,,,,,,,v,1,4.186582919333887,1239.548433027794,None,,,,,001,31,2019_Oct_15_1703,ACPT_experiment_5_30_19,3.1.0,59.951464393544484,
,,,C,U,y,n,,,,,,,,,,0,4,4,8,,,,,,,,,,,,,v,0,2.5019442638331384,1247.0208480866168,None,,,,,001,31,2019_Oct_15_1703,ACPT_experiment_5_30_19,3.1.0,59.951464393544484,
,,,C,D,y,b,,,,,,,,,,0,5,5,11,,,,,,,,,,,,,b,1,7.172203336009261,1252.8086341493763,None,,,,,001,31,2019_Oct_15_1703,ACPT_experiment_5_30_19,3.1.0,59.951464393544484,
,,,C,G,d,b,,,,,,,,,,0,6,6,3,,,,,,,,,,,,,v,0,4.636992871939583,1263.266672039732,None,,,,,001,31,2019_Oct_15_1703,ACPT_experiment_5_30_19,3.1.0,59.951464393544484,
,,,C,D,g,b,,,,,,,,,,0,7,7,1,,,,,,,,,,,,,b,1,3.6861899009345507,1271.1894378870966,None,,,,,001,31,2019_Oct_15_1703,ACPT_experiment_5_30_19,3.1.0,59.951464393544484,
,,,C,D,g,b,,,,,,,,,,0,8,8,10,,,,,,,,,,,,,v,0,6.338223122162162,1278.1447813978557,None,,,,,001,31,2019_Oct_15_1703,ACPT_experiment_5_30_19,3.1.0,59.951464393544484,
,,,C,U,y,n,,,,,,,,,,0,9,9,17,,,,,,,,,,,,,b,0,2.301804624577926,1287.7688538653747,None,,,,,001,31,2019_Oct_15_1703,ACPT_experiment_5_30_19,3.1.0,59.951464393544484,
,,,C,G,g,v,,,,,,,,,,0,10,10,13,,,,,,,,,,,,,v,1,2.6854379740289005,1293.3564538028295,None,,,,,001,31,2019_Oct_15_1703,ACPT_experiment_5_30_19,3.1.0,59.951464393544484,
,,,C,U,g,n,,,,,,,,,,0,11,11,7,,,,,,,,,,,,,n,1,2.1683501256629825,1299.3277344813578,None,,,,,001,31,2019_Oct_15_1703,ACPT_experiment_5_30_19,3.1.0,59.951464393544484,
,,,C,D,d,v,,,,,,,,,,0,12,12,0,,,,,,,,,,,,,v,1,3.652812617157906,1304.7819369709578,None,,,,,001,31,2019_Oct_15_1703,ACPT_experiment_5_30_19,3.1.0,59.951464393544484,
,,,C,D,d,v,,,,,,,,,,0,13,13,18,,,,,,,,,,,,,v,1,1.901500593754463,1311.7205980279068,None,,,,,001,31,2019_Oct_15_1703,ACPT_experiment_5_30_19,3.1.0,59.951464393544484,
,,,C,G,y,b,,,,,,,,,,0,14,14,5,,,,,,,,,,,,,b,1,2.0515937771488097,1316.907917479417,None,,,,,001,31,2019_Oct_15_1703,ACPT_experiment_5_30_19,3.1.0,59.951464393544484,
,,,C,G,d,b,,,,,,,,,,0,15,15,12,,,,,,,,,,,,,b,1,1.7680756768713763,1322.228653999522,None,,,,,001,31,2019_Oct_15_1703,ACPT_experiment_5_30_19,3.1.0,59.951464393544484,
,,,C,G,y,b,,,,,,,,,,0,16,16,14,,,,,,,,,,,,,b,1,1.9014948584626836,1327.2658636654814,None,,,,,001,31,2019_Oct_15_1703,ACPT_experiment_5_30_19,3.1.0,59.951464393544484,
,,,C,U,d,n,,,,,,,,,,0,17,17,6,,,,,,,,,,,,,n,1,1.7513530760152207,1332.4532114915928,None,,,,,001,31,2019_Oct_15_1703,ACPT_experiment_5_30_19,3.1.0,59.951464393544484,
,,,C,G,g,v,,,,,,,,,,0,18,18,4,,,,,,,,,,,,,v,1,1.6179227257016464,1337.4904133092568,None,,,,,001,31,2019_Oct_15_1703,ACPT_experiment_5_30_19,3.1.0,59.951464393544484,
,,,C,D,y,b,,,,,,,,,,0,19,19,2,,,,,,,,,,,,,n,0,1.484483923373773,1342.3941880970378,None,,,,,001,31,2019_Oct_15_1703,ACPT_experiment_5_30_19,3.1.0,59.951464393544484,
,,,C,U,y,n,,,,,,,,,,1,0,20,17,,,,,,,,,,,,,n,1,1.0174491717334604,1347.1645307233557,None,,,,,001,31,2019_Oct_15_1703,ACPT_experiment_5_30_19,3.1.0,59.951464393544484,
,,,C,U,d,n,,,,,,,,,,1,1,21,15,,,,,,,,,,,,,n,1,1.3674755238898797,1351.4847827622507,None,,,,,001,31,2019_Oct_15_1703,ACPT_experiment_5_30_19,3.1.0,59.951464393544484,
,,,C,D,d,v,,,,,,,,,,1,2,22,18,,,,,,,,,,,,,v,1,2.2684155683600693,1356.1380907274834,None,,,,,001,31,2019_Oct_15_1703,ACPT_experiment_5_30_19,3.1.0,59.951464393544484,
,,,C,D,g,b,,,,,,,,,,1,3,23,1,,,,,,,,,,,,,b,1,2.235065149892762,1361.6756771115397,None,,,,,001,31,2019_Oct_15_1703,ACPT_experiment_5_30_19,3.1.0,59.951464393544484,
,,,C,G,y,b,,,,,,,,,,1,4,24,14,,,,,,,,,,,,,b,1,1.6679589184095676,1367.19659070122,None,,,,,001,31,2019_Oct_15_1703,ACPT_experiment_5_30_19,3.1.0,59.951464393544484,
,,,C,D,y,b,,,,,,,,,,1,5,25,2,,,,,,,,,,,,,b,1,1.7346881299381494,1372.150397757563,None,,,,,001,31,2019_Oct_15_1703,ACPT_experiment_5_30_19,3.1.0,59.951464393544484,
,,,C,G,d,b,,,,,,,,,,1,6,26,12,,,,,,,,,,,,,b,1,1.9848754324884794,1377.17092738457,None,,,,,001,31,2019_Oct_15_1703,ACPT_experiment_5_30_19,3.1.0,59.951464393544484,
,,,C,G,d,b,,,,,,,,,,1,7,27,3,,,,,,,,,,,,,b,1,1.6179450631534564,1382.4249675956053,None,,,,,001,31,2019_Oct_15_1703,ACPT_experiment_5_30_19,3.1.0,59.951464393544484,
,,,C,U,g,n,,,,,,,,,,1,8,28,16,,,,,,,,,,,,,n,1,1.3010080227650178,1387.3287360443755,None,,,,,001,31,2019_Oct_15_1703,ACPT_experiment_5_30_19,3.1.0,59.951464393544484,
,,,C,G,g,v,,,,,,,,,,1,9,29,4,,,,,,,,,,,,,v,1,1.6842480519626406,1391.9326915240235,None,,,,,001,31,2019_Oct_15_1703,ACPT_experiment_5_30_19,3.1.0,59.951464393544484,
,,,C,D,d,v,,,,,,,,,,1,10,30,0,,,,,,,,,,,,,v,1,1.6179184996944969,1396.902767791329,None,,,,,001,31,2019_Oct_15_1703,ACPT_experiment_5_30_19,3.1.0,59.951464393544484,
,,,C,U,d,n,,,,,,,,,,1,11,31,6,,,,,,,,,,,,,n,1,1.0675007591707981,1401.80653020295,None,,,,,001,31,2019_Oct_15_1703,ACPT_experiment_5_30_19,3.1.0,59.951464393544484,
,,,C,G,y,b,,,,,,,,,,1,12,32,5,,,,,,,,,,,,,b,1,1.4843468800900155,1406.1766593556786,None,,,,,001,31,2019_Oct_15_1703,ACPT_experiment_5_30_19,3.1.0,59.951464393544484,
,,,C,D,g,b,,,,,,,,,,1,13,33,10,,,,,,,,,,,,,b,1,2.3518381005669653,1410.9468779185845,None,,,,,001,31,2019_Oct_15_1703,ACPT_experiment_5_30_19,3.1.0,59.951464393544484,
,,,C,D,d,v,,,,,,,,,,1,14,34,9,,,,,,,,,,,,,v,1,1.6679646537013468,1416.567881703275,None,,,,,001,31,2019_Oct_15_1703,ACPT_experiment_5_30_19,3.1.0,59.951464393544484,
,,,C,D,y,b,,,,,,,,,,1,15,35,11,,,,,,,,,,,,,b,1,1.084131897216139,1421.5050518862772,None,,,,,001,31,2019_Oct_15_1703,ACPT_experiment_5_30_19,3.1.0,59.951464393544484,
,,,C,G,g,v,,,,,,,,,,1,16,36,19,,,,,,,,,,,,,v,1,2.251509438177891,1425.891972463356,None,,,,,001,31,2019_Oct_15_1703,ACPT_experiment_5_30_19,3.1.0,59.951464393544484,
,,,C,U,g,n,,,,,,,,,,1,17,37,7,,,,,,,,,,,,,n,1,1.5512055884682923,1431.429308607585,None,,,,,001,31,2019_Oct_15_1703,ACPT_experiment_5_30_19,3.1.0,59.951464393544484,
,,,C,G,g,v,,,,,,,,,,1,18,38,13,,,,,,,,,,,,,v,1,2.0682563083682908,1436.2663701822821,None,,,,,001,31,2019_Oct_15_1703,ACPT_experiment_5_30_19,3.1.0,59.951464393544484,
,,,C,U,y,n,,,,,,,,,,1,19,39,8,,,,,,,,,,,,,n,1,1.7013162795956305,1441.6204791564414,None,,,,,001,31,2019_Oct_15_1703,ACPT_experiment_5_30_19,3.1.0,59.951464393544484,
,,,C,D,y,b,,,,,,,,,,2,0,40,11,,,,,,,,,,,,,b,1,1.4511304863335681,1446.6076435739706,None,,,,,001,31,2019_Oct_15_1703,ACPT_experiment_5_30_19,3.1.0,59.951464393544484,
,,,C,D,d,v,,,,,,,,,,2,1,41,0,,,,,,,,,,,,,v,1,1.9182008571551705,1451.327936725851,None,,,,,001,31,2019_Oct_15_1703,ACPT_experiment_5_30_19,3.1.0,59.951464393544484,
,,,C,D,d,v,,,,,,,,,,2,2,42,18,,,,,,,,,,,,,v,1,1.5013173059087421,1456.5151085690704,None,,,,,001,31,2019_Oct_15_1703,ACPT_experiment_5_30_19,3.1.0,59.951464393544484,
,,,C,G,y,b,,,,,,,,,,2,3,43,5,,,,,,,,,,,,,b,1,0.7339099414348311,1461.3022685794786,None,,,,,001,31,2019_Oct_15_1703,ACPT_experiment_5_30_19,3.1.0,59.951464393544484,
,,,C,U,g,n,,,,,,,,,,2,4,44,16,,,,,,,,,,,,,n,1,0.8170647260849364,1465.3389493911855,None,,,,,001,31,2019_Oct_15_1703,ACPT_experiment_5_30_19,3.1.0,59.951464393544484,
,,,C,G,y,b,,,,,,,,,,2,5,45,14,,,,,,,,,,,,,b,1,1.0508180035030819,1469.4418601422003,None,,,,,001,31,2019_Oct_15_1703,ACPT_experiment_5_30_19,3.1.0,59.951464393544484,
,,,C,D,y,b,,,,,,,,,,2,6,46,2,,,,,,,,,,,,,b,1,1.2009486172210018,1473.7785262836333,None,,,,,001,31,2019_Oct_15_1703,ACPT_experiment_5_30_19,3.1.0,59.951464393544484,
,,,C,G,g,v,,,,,,,,,,2,7,47,4,,,,,,,,,,,,,v,1,1.7847143613507797,1478.2653145867807,None,,,,,001,31,2019_Oct_15_1703,ACPT_experiment_5_30_19,3.1.0,59.951464393544484,
,,,C,U,d,n,,,,,,,,,,2,8,48,6,,,,,,,,,,,,,n,1,1.0674877793026099,1483.3358798027803,None,,,,,001,31,2019_Oct_15_1703,ACPT_experiment_5_30_19,3.1.0,59.951464393544484,
,,,C,D,g,b,,,,,,,,,,2,9,49,1,,,,,,,,,,,,,b,1,1.9679463611355459,1487.7061447913584,None,,,,,001,31,2019_Oct_15_1703,ACPT_experiment_5_30_19,3.1.0,59.951464393544484,
,,,C,D,g,b,,,,,,,,,,2,10,50,10,,,,,,,,,,,,,b,1,1.8014363584879902,1492.943259855194,None,,,,,001,31,2019_Oct_15_1703,ACPT_experiment_5_30_19,3.1.0,59.951464393544484,
,,,C,D,d,v,,,,,,,,,,2,11,51,9,,,,,,,,,,,,,v,1,1.234360916463629,1498.0138265804817,None,,,,,001,31,2019_Oct_15_1703,ACPT_experiment_5_30_19,3.1.0,59.951464393544484,
,,,C,G,d,b,,,,,,,,,,2,12,52,12,,,,,,,,,,,,,b,1,1.500917646648304,1502.5509173146056,None,,,,,001,31,2019_Oct_15_1703,ACPT_experiment_5_30_19,3.1.0,59.951464393544484,
,,,C,G,g,v,,,,,,,,,,2,13,53,19,,,,,,,,,,,,,v,1,1.3510544786295213,1507.3209731763454,None,,,,,001,31,2019_Oct_15_1703,ACPT_experiment_5_30_19,3.1.0,59.951464393544484,
,,,C,U,g,n,,,,,,,,,,2,14,54,7,,,,,,,,,,,,,n,1,0.9170697972913331,1511.9748619153106,None,,,,,001,31,2019_Oct_15_1703,ACPT_experiment_5_30_19,3.1.0,59.951464393544484,
,,,C,U,y,n,,,,,,,,,,2,15,55,17,,,,,,,,,,,,,n,1,1.1008451404850348,1516.1777883025425,None,,,,,001,31,2019_Oct_15_1703,ACPT_experiment_5_30_19,3.1.0,59.951464393544484,
,,,C,G,d,b,,,,,,,,,,2,16,56,3,,,,,,,,,,,,,b,1,1.6679643518400553,1520.5811863722229,None,,,,,001,31,2019_Oct_15_1703,ACPT_experiment_5_30_19,3.1.0,59.951464393544484,
,,,C,G,g,v,,,,,,,,,,2,17,57,13,,,,,,,,,,,,,v,1,1.3343765526769857,1525.518290750304,None,,,,,001,31,2019_Oct_15_1703,ACPT_experiment_5_30_19,3.1.0,59.951464393544484,
,,,C,U,d,n,,,,,,,,,,2,18,58,15,,,,,,,,,,,,,n,1,1.1339429042673146,1530.1554641329967,None,,,,,001,31,2019_Oct_15_1703,ACPT_experiment_5_30_19,3.1.0,59.951464393544484,
,,,C,U,y,n,,,,,,,,,,2,19,59,8,,,,,,,,,,,,,n,1,1.0174503791640745,1534.575258495628,None,,,,,001,31,2019_Oct_15_1703,ACPT_experiment_5_30_19,3.1.0,59.951464393544484,
,,,C,G,y,b,,,,,,,,,,3,0,60,5,,,,,,,,,,,,,b,1,1.6012333291691903,1538.8952509371156,None,,,,,001,31,2019_Oct_15_1703,ACPT_experiment_5_30_19,3.1.0,59.951464393544484,
,,,C,U,d,n,,,,,,,,,,3,1,61,6,,,,,,,,,,,,,n,1,1.184258315115585,1543.78233089493,None,,,,,001,31,2019_Oct_15_1703,ACPT_experiment_5_30_19,3.1.0,59.951464393544484,
,,,C,G,g,v,,,,,,,,,,3,2,62,19,,,,,,,,,,,,,v,1,1.017191687325976,1548.2693830214848,None,,,,,001,31,2019_Oct_15_1703,ACPT_experiment_5_30_19,3.1.0,59.951464393544484,
,,,C,G,y,b,,,,,,,,,,3,3,63,14,,,,,,,,,,,,,b,1,1.2176114502981363,1552.5557455245107,None,,,,,001,31,2019_Oct_15_1703,ACPT_experiment_5_30_19,3.1.0,59.951464393544484,
,,,C,D,g,b,,,,,,,,,,3,4,64,10,,,,,,,,,,,,,b,1,4.052688614119688,1557.0763002056883,None,,,,,001,31,2019_Oct_15_1703,ACPT_experiment_5_30_19,3.1.0,59.951464393544484,
,,,C,G,g,v,,,,,,,,,,3,5,65,4,,,,,,,,,,,,,v,1,2.018211361795693,1564.4148804252109,None,,,,,001,31,2019_Oct_15_1703,ACPT_experiment_5_30_19,3.1.0,59.951464393544484,
,,,C,D,y,b,,,,,,,,,,3,6,66,11,,,,,,,,,,,,,b,1,1.0674741957154765,1569.7189544140929,None,,,,,001,31,2019_Oct_15_1703,ACPT_experiment_5_30_19,3.1.0,59.951464393544484,
,,,C,G,d,b,,,,,,,,,,3,7,67,12,,,,,,,,,,,,,b,1,1.1838429592644388,1574.089334108503,None,,,,,001,31,2019_Oct_15_1703,ACPT_experiment_5_30_19,3.1.0,59.951464393544484,
,,,C,D,d,v,,,,,,,,,,3,8,68,9,,,,,,,,,,,,,v,1,1.5012035056533932,1578.5590590137363,None,,,,,001,31,2019_Oct_15_1703,ACPT_experiment_5_30_19,3.1.0,59.951464393544484,
,,,C,D,g,b,,,,,,,,,,3,9,69,1,,,,,,,,,,,,,b,1,3.686181147069874,1583.3293940936164,None,,,,,001,31,2019_Oct_15_1703,ACPT_experiment_5_30_19,3.1.0,59.951464393544484,
,,,C,D,d,v,,,,,,,,,,3,10,70,0,,,,,,,,,,,,,v,1,1.1509000483601994,1590.2847388118062,None,,,,,001,31,2019_Oct_15_1703,ACPT_experiment_5_30_19,3.1.0,59.951464393544484,
,,,C,U,y,n,,,,,,,,,,3,11,71,17,,,,,,,,,,,,,n,1,1.0508279647983727,1594.7214900166691,None,,,,,001,31,2019_Oct_15_1703,ACPT_experiment_5_30_19,3.1.0,59.951464393544484,
,,,C,D,d,v,,,,,,,,,,3,12,72,18,,,,,,,,,,,,,v,1,1.3343747415310645,1599.0581428763762,None,,,,,001,31,2019_Oct_15_1703,ACPT_experiment_5_30_19,3.1.0,59.951464393544484,
,,,C,U,g,n,,,,,,,,,,3,13,73,7,,,,,,,,,,,,,n,1,0.8003538976736309,1603.6953168627842,None,,,,,001,31,2019_Oct_15_1703,ACPT_experiment_5_30_19,3.1.0,59.951464393544484,
,,,C,G,d,b,,,,,,,,,,3,14,74,3,,,,,,,,,,,,,b,1,0.9006976529381063,1607.7815164835301,None,,,,,001,31,2019_Oct_15_1703,ACPT_experiment_5_30_19,3.1.0,59.951464393544484,
,,,C,D,y,b,,,,,,,,,,3,15,75,2,,,,,,,,,,,,,b,1,1.3677155005607347,1611.9680803858464,None,,,,,001,31,2019_Oct_15_1703,ACPT_experiment_5_30_19,3.1.0,59.951464393544484,
,,,C,U,g,n,,,,,,,,,,3,16,76,16,,,,,,,,,,,,,n,1,0.9507667481084354,1616.6216494577748,None,,,,,001,31,2019_Oct_15_1703,ACPT_experiment_5_30_19,3.1.0,59.951464393544484,
,,,C,U,d,n,,,,,,,,,,3,17,77,15,,,,,,,,,,,,,n,1,1.050681865792285,1620.8582420063613,None,,,,,001,31,2019_Oct_15_1703,ACPT_experiment_5_30_19,3.1.0,59.951464393544484,
,,,C,G,g,v,,,,,,,,,,3,18,78,13,,,,,,,,,,,,,v,1,2.118311518093833,1625.1949009032178,None,,,,,001,31,2019_Oct_15_1703,ACPT_experiment_5_30_19,3.1.0,59.951464393544484,
,,,C,U,y,n,,,,,,,,,,3,19,79,8,,,,,,,,,,,,,n,1,0.7672691137668153,1630.5990518053804,None,,,,,001,31,2019_Oct_15_1703,ACPT_experiment_5_30_19,3.1.0,59.951464393544484,
,,,C,U,d,n,,,,,,,,,,4,0,80,15,,,,,,,,,,,,,n,1,0.6138304442574736,1634.6721825078457,None,,,,,001,31,2019_Oct_15_1703,ACPT_experiment_5_30_19,3.1.0,59.951464393544484,
,,,C,D,d,v,,,,,,,,,,4,1,81,18,,,,,,,,,,,,,v,1,1.4845144109749526,1638.571846299019,None,,,,,001,31,2019_Oct_15_1703,ACPT_experiment_5_30_19,3.1.0,59.951464393544484,
,,,C,D,d,v,,,,,,,,,,4,2,82,0,,,,,,,,,,,,,v,1,1.0007851312257117,1643.3421720213155,None,,,,,001,31,2019_Oct_15_1703,ACPT_experiment_5_30_19,3.1.0,59.951464393544484,
,,,C,D,g,b,,,,,,,,,,4,3,83,10,,,,,,,,,,,,,b,1,1.7847303597955033,1647.628816157343,None,,,,,001,31,2019_Oct_15_1703,ACPT_experiment_5_30_19,3.1.0,59.951464393544484,
,,,C,U,d,n,,,,,,,,,,4,4,84,6,,,,,,,,,,,,,n,1,0.6504970686619345,1652.6993849956343,None,,,,,001,31,2019_Oct_15_1703,ACPT_experiment_5_30_19,3.1.0,59.951464393544484,
,,,C,D,g,b,,,,,,,,,,4,5,85,1,,,,,,,,,,,,,b,1,1.3508018239444937,1656.6526731590166,None,,,,,001,31,2019_Oct_15_1703,ACPT_experiment_5_30_19,3.1.0,59.951464393544484,
,,,C,G,y,b,,,,,,,,,,4,6,86,5,,,,,,,,,,,,,b,1,1.0341651317212381,1661.2893038020156,None,,,,,001,31,2019_Oct_15_1703,ACPT_experiment_5_30_19,3.1.0,59.951464393544484,
,,,C,U,y,n,,,,,,,,,,4,7,87,17,,,,,,,,,,,,,n,1,0.7338924337018398,1665.6259753768863,None,,,,,001,31,2019_Oct_15_1703,ACPT_experiment_5_30_19,3.1.0,59.951464393544484,
,,,C,G,g,v,,,,,,,,,,4,8,88,13,,,,,,,,,,,,,v,1,1.5679158131679287,1669.6456948184968,None,,,,,001,31,2019_Oct_15_1703,ACPT_experiment_5_30_19,3.1.0,59.951464393544484,
,,,C,D,y,b,,,,,,,,,,4,9,89,11,,,,,,,,,,,,,b,1,1.0174603404593654,1674.4994545435911,None,,,,,001,31,2019_Oct_15_1703,ACPT_experiment_5_30_19,3.1.0,59.951464393544484,
,,,C,D,y,b,,,,,,,,,,4,10,90,2,,,,,,,,,,,,,b,1,0.7503080455280724,1678.8030331843984,None,,,,,001,31,2019_Oct_15_1703,ACPT_experiment_5_30_19,3.1.0,59.951464393544484,
,,,C,G,g,v,,,,,,,,,,4,11,91,4,,,,,,,,,,,,,v,1,1.4177655787134427,1682.8391963105787,None,,,,,001,31,2019_Oct_15_1703,ACPT_experiment_5_30_19,3.1.0,59.951464393544484,
,,,C,U,g,n,,,,,,,,,,4,12,92,7,,,,,,,,,,,,,n,1,1.000987375718978,1687.5427961417809,None,,,,,001,31,2019_Oct_15_1703,ACPT_experiment_5_30_19,3.1.0,59.951464393544484,
,,,C,U,y,n,,,,,,,,,,4,13,93,8,,,,,,,,,,,,,n,1,0.9173674287339963,1691.829437862947,None,,,,,001,31,2019_Oct_15_1703,ACPT_experiment_5_30_19,3.1.0,59.951464393544484,
,,,C,G,d,b,,,,,,,,,,4,14,94,12,,,,,,,,,,,,,b,1,1.0172417956673598,1696.066262238055,None,,,,,001,31,2019_Oct_15_1703,ACPT_experiment_5_30_19,3.1.0,59.951464393544484,
,,,C,G,y,b,,,,,,,,,,4,15,95,14,,,,,,,,,,,,,b,1,0.950734147503681,1700.3693304379158,None,,,,,001,31,2019_Oct_15_1703,ACPT_experiment_5_30_19,3.1.0,59.951464393544484,
,,,C,U,g,n,,,,,,,,,,4,16,96,16,,,,,,,,,,,,,n,1,1.3174233327372349,1704.6228680563,None,,,,,001,31,2019_Oct_15_1703,ACPT_experiment_5_30_19,3.1.0,59.951464393544484,
,,,C,G,g,v,,,,,,,,,,4,17,97,19,,,,,,,,,,,,,v,1,1.7513539815881813,1709.2261368102481,None,,,,,001,31,2019_Oct_15_1703,ACPT_experiment_5_30_19,3.1.0,59.951464393544484,
,,,C,D,d,v,,,,,,,,,,4,18,98,9,,,,,,,,,,,,,v,1,2.3351366297392815,1714.2633377223428,None,,,,,001,31,2019_Oct_15_1703,ACPT_experiment_5_30_19,3.1.0,59.951464393544484,
,,,C,G,d,b,,,,,,,,,,4,19,99,3,,,,,,,,,,,,,b,1,0.9340384119641385,1719.8843399977413,None,,,,,001,31,2019_Oct_15_1703,ACPT_experiment_5_30_19,3.1.0,59.951464393544484,
,,,C,U,d,n,,,,,,,,,,5,0,100,6,,,,,,,,,,,,,n,1,0.8170764985261485,1724.1211583357035,None,,,,,001,31,2019_Oct_15_1703,ACPT_experiment_5_30_19,3.1.0,59.951464393544484,
,,,C,U,d,n,,,,,,,,,,5,1,101,15,,,,,,,,,,,,,n,1,0.8006119857964222,1728.2073866329083,None,,,,,001,31,2019_Oct_15_1703,ACPT_experiment_5_30_19,3.1.0,59.951464393544484,
,,,C,G,d,b,,,,,,,,,,5,2,102,12,,,,,,,,,,,,,b,1,0.9507410902224365,1732.3105313234482,None,,,,,001,31,2019_Oct_15_1703,ACPT_experiment_5_30_19,3.1.0,59.951464393544484,
,,,C,G,d,b,,,,,,,,,,5,3,103,3,,,,,,,,,,,,,b,1,1.267692619767331,1736.5471256831806,None,,,,,001,31,2019_Oct_15_1703,ACPT_experiment_5_30_19,3.1.0,59.951464393544484,
,,,C,U,y,n,,,,,,,,,,5,4,104,17,,,,,,,,,,,,,n,1,0.6834801266122668,1741.117693917753,None,,,,,001,31,2019_Oct_15_1703,ACPT_experiment_5_30_19,3.1.0,59.951464393544484,
,,,C,G,g,v,,,,,,,,,,5,5,105,19,,,,,,,,,,,,,v,1,1.2342929985388764,1745.0870167488647,None,,,,,001,31,2019_Oct_15_1703,ACPT_experiment_5_30_19,3.1.0,59.951464393544484,
,,,C,D,y,b,,,,,,,,,,5,6,106,2,,,,,,,,,,,,,b,1,1.084158158813807,1749.6238581487341,None,,,,,001,31,2019_Oct_15_1703,ACPT_experiment_5_30_19,3.1.0,59.951464393544484,
,,,C,G,y,b,,,,,,,,,,5,7,107,14,,,,,,,,,,,,,b,1,1.301028247213253,1753.993843919172,None,,,,,001,31,2019_Oct_15_1703,ACPT_experiment_5_30_19,3.1.0,59.951464393544484,
,,,C,D,d,v,,,,,,,,,,5,8,108,0,,,,,,,,,,,,,v,1,1.4344519566693634,1758.5807172857458,None,,,,,001,31,2019_Oct_15_1703,ACPT_experiment_5_30_19,3.1.0,59.951464393544484,
,,,C,G,y,b,,,,,,,,,,5,9,109,5,,,,,,,,,,,,,b,1,0.9507392790801532,1763.3010146636334,None,,,,,001,31,2019_Oct_15_1703,ACPT_experiment_5_30_19,3.1.0,59.951464393544484,
,,,C,D,y,b,,,,,,,,,,5,10,110,11,,,,,,,,,,,,,b,1,0.7639441539577092,1767.5576125128391,None,,,,,001,31,2019_Oct_15_1703,ACPT_experiment_5_30_19,3.1.0,59.951464393544484,
,,,C,D,d,v,,,,,,,,,,5,11,111,9,,,,,,,,,,,,,v,1,1.1342148778276169,1771.590712993333,None,,,,,001,31,2019_Oct_15_1703,ACPT_experiment_5_30_19,3.1.0,59.951464393544484,
,,,C,G,g,v,,,,,,,,,,5,12,112,13,,,,,,,,,,,,,v,1,2.0346502166430582,1776.0277379829058,None,,,,,001,31,2019_Oct_15_1703,ACPT_experiment_5_30_19,3.1.0,59.951464393544484,
,,,C,G,g,v,,,,,,,,,,5,13,113,4,,,,,,,,,,,,,v,1,1.4009560429149133,1781.331543318658,None,,,,,001,31,2019_Oct_15_1703,ACPT_experiment_5_30_19,3.1.0,59.951464393544484,
,,,C,D,d,v,,,,,,,,,,5,14,114,18,,,,,,,,,,,,,v,1,1.4177532025569235,1786.0351594501626,None,,,,,001,31,2019_Oct_15_1703,ACPT_experiment_5_30_19,3.1.0,59.951464393544484,
,,,C,U,g,n,,,,,,,,,,5,15,115,7,,,,,,,,,,,,,n,1,0.8171724891944905,1790.7387647147953,None,,,,,001,31,2019_Oct_15_1703,ACPT_experiment_5_30_19,3.1.0,59.951464393544484,
,,,C,U,y,n,,,,,,,,,,5,16,116,8,,,,,,,,,,,,,n,1,0.7169515899113321,1794.8421910383368,None,,,,,001,31,2019_Oct_15_1703,ACPT_experiment_5_30_19,3.1.0,59.951464393544484,
,,,C,D,g,b,,,,,,,,,,5,17,117,10,,,,,,,,,,,,,b,1,1.8514345171606692,1798.8449916717545,None,,,,,001,31,2019_Oct_15_1703,ACPT_experiment_5_30_19,3.1.0,59.951464393544484,
,,,C,U,g,n,,,,,,,,,,5,18,118,16,,,,,,,,,,,,,n,1,0.6838411481221556,1803.9822963624392,None,,,,,001,31,2019_Oct_15_1703,ACPT_experiment_5_30_19,3.1.0,59.951464393544484,
,,,C,D,g,b,,,,,,,,,,5,19,119,1,0,0,0,0,0,0,0,0,,,,,b,1,1.2507218920873129,1807.9689207569863,None,,,,,001,31,2019_Oct_15_1703,ACPT_experiment_5_30_19,3.1.0,59.951464393544484,
,,,C,D,g,b,R,G,y,R,y,,,,,5,19,119,1,0,0,0,0,,,,,0,0,0,29,,,,,,down,0.9007148588098062,1958.4342693329127,None,001,31,2019_Oct_15_1703,ACPT_experiment_5_30_19,3.1.0,59.951464393544484,
,,,C,D,g,b,R,U,d,R,u,,,,,5,19,119,1,0,0,0,0,,,,,0,1,1,9,,,,,,up,1.050811966353649,1960.6192853102293,None,001,31,2019_Oct_15_1703,ACPT_experiment_5_30_19,3.1.0,59.951464393544484,
,,,C,D,g,b,R,G,d,R,i,,,,,5,19,119,1,0,0,0,0,,,,,0,2,2,5,,,,,,up,0.8673544790508458,1962.9543845096414,None,001,31,2019_Oct_15_1703,ACPT_experiment_5_30_19,3.1.0,59.951464393544484,
,,,C,D,g,b,R,U,g,R,u,,,,,5,19,119,1,0,0,0,0,,,,,0,3,3,11,,,,,,up,0.950726299208327,1965.1060660669355,None,001,31,2019_Oct_15_1703,ACPT_experiment_5_30_19,3.1.0,59.951464393544484,
,,,C,D,g,b,L,G,d,L,i,,,,,5,19,119,1,0,0,0,0,,,,,0,4,4,16,,,,,,up,1.5011820737745438,1967.3411131053836,None,001,31,2019_Oct_15_1703,ACPT_experiment_5_30_19,3.1.0,59.951464393544484,
,,,C,D,g,b,L,D,y,L,y,,,,,5,19,119,1,0,0,0,0,,,,,0,5,5,32,,,,,,down,0.7339026968547842,1970.1265787899283,None,001,31,2019_Oct_15_1703,ACPT_experiment_5_30_19,3.1.0,59.951464393544484,
,,,C,D,g,b,R,D,y,L,y,,,,,5,19,119,1,0,0,0,0,,,,,0,6,6,26,,,,,,down,0.8504706863204774,1972.1783087047843,None,001,31,2019_Oct_15_1703,ACPT_experiment_5_30_19,3.1.0,59.951464393544484,
,,,C,D,g,b,R,D,d,L,c,,,,,5,19,119,1,0,0,0,0,,,,,0,7,7,0,,,,,,up,0.7172096780341235,1974.3298127698981,None,001,31,2019_Oct_15_1703,ACPT_experiment_5_30_19,3.1.0,59.951464393544484,
,,,C,D,g,b,L,D,g,L,i,,,,,5,19,119,1,0,0,0,0,,,,,0,8,8,14,,,,,,up,0.8173152677700273,1976.331327792439,None,001,31,2019_Oct_15_1703,ACPT_experiment_5_30_19,3.1.0,59.951464393544484,
,,,C,D,g,b,R,D,g,R,i,,,,,5,19,119,1,0,0,0,0,,,,,0,9,9,3,,,,,,up,0.9173894643317908,1978.4329680254486,None,001,31,2019_Oct_15_1703,ACPT_experiment_5_30_19,3.1.0,59.951464393544484,
,,,C,D,g,b,L,U,y,R,u,,,,,5,19,119,1,0,0,0,0,,,,,0,10,10,25,,,,,,down,0.8173016841865319,1980.6346534767035,None,001,31,2019_Oct_15_1703,ACPT_experiment_5_30_19,3.1.0,59.951464393544484,
,,,C,D,g,b,R,D,d,R,c ,,,,,5,19,119,1,0,0,0,0,,,,,0,11,11,1,,,,,,up,1.25094073874061,1982.7362867669945,None,001,31,2019_Oct_15_1703,ACPT_experiment_5_30_19,3.1.0,59.951464393544484,
,,,C,D,g,b,L,U,y,L,u,,,,,5,19,119,1,0,0,0,0,,,,,0,12,12,24,,,,,,down,0.7672540208914143,1985.2715515654018,None,001,31,2019_Oct_15_1703,ACPT_experiment_5_30_19,3.1.0,59.951464393544484,
,,,C,D,g,b,R,D,y,R,y,,,,,5,19,119,1,0,0,0,0,,,,,0,13,13,27,,,,,,down,1.5845475549249386,1987.3231299478211,None,001,31,2019_Oct_15_1703,ACPT_experiment_5_30_19,3.1.0,59.951464393544484,
,,,C,D,g,b,R,U,y,L,u,,,,,5,19,119,1,0,0,0,0,,,,,0,14,14,30,,,,,,down,0.6838662022892095,1990.191984356541,None,001,31,2019_Oct_15_1703,ACPT_experiment_5_30_19,3.1.0,59.951464393544484,
,,,C,D,g,b,R,U,d,L,u,,,,,5,19,119,1,0,0,0,0,,,,,0,15,15,8,,,,,,up,1.9514966394199291,1992.1601797500734,None,001,31,2019_Oct_15_1703,ACPT_experiment_5_30_19,3.1.0,59.951464393544484,
,,,C,D,g,b,R,G,g,R,c ,,,,,5,19,119,1,0,0,0,0,,,,,0,16,16,7,,,,,,up,0.9007091235180269,1995.3959711689931,None,001,31,2019_Oct_15_1703,ACPT_experiment_5_30_19,3.1.0,59.951464393544484,
,,,C,D,g,b,L,G,y,L,y,,,,,5,19,119,1,0,0,0,0,,,,,0,17,17,34,,,,,,down,0.5837808370051789,1997.5810049558968,None,001,31,2019_Oct_15_1703,ACPT_experiment_5_30_19,3.1.0,59.951464393544484,
,,,C,D,g,b,L,G,y,R,y,,,,,5,19,119,1,0,0,0,0,,,,,0,18,18,35,,,,,,down,0.700580351131066,1999.4490908355474,None,001,31,2019_Oct_15_1703,ACPT_experiment_5_30_19,3.1.0,59.951464393544484,
,,,C,D,g,b,R,G,d,L,i,,,,,5,19,119,1,0,0,0,0,,,,,0,19,19,4,,,,,,up,0.833979308274138,2001.4673399295243,None,001,31,2019_Oct_15_1703,ACPT_experiment_5_30_19,3.1.0,59.951464393544484,
,,,C,D,g,b,L,D,d,R,c ,,,,,5,19,119,1,0,0,0,0,,,,,0,20,20,13,,,,,,up,0.8339669321212568,2003.5856266953087,None,001,31,2019_Oct_15_1703,ACPT_experiment_5_30_19,3.1.0,59.951464393544484,
,,,C,D,g,b,L,D,y,R,y,,,,,5,19,119,1,0,0,0,0,,,,,0,21,21,33,,,,,,down,1.0007700383539486,2005.7039092350897,None,001,31,2019_Oct_15_1703,ACPT_experiment_5_30_19,3.1.0,59.951464393544484,
,,,C,D,g,b,R,G,y,L,y,,,,,5,19,119,1,0,0,0,0,,,,,0,22,22,28,,,,,,down,0.8005685183197784,2007.9890419708645,None,001,31,2019_Oct_15_1703,ACPT_experiment_5_30_19,3.1.0,59.951464393544484,
,,,C,D,g,b,R,U,y,R,u,,,,,5,19,119,1,0,0,0,0,,,,,0,23,23,31,,,,,,down,0.7672808862043894,2010.073912815118,None,001,31,2019_Oct_15_1703,ACPT_experiment_5_30_19,3.1.0,59.951464393544484,
,,,C,D,g,b,L,G,g,R,c ,,,,,5,19,119,1,0,0,0,0,,,,,0,24,24,19,,,,,,up,1.2676627358778205,2012.1255090071245,None,001,31,2019_Oct_15_1703,ACPT_experiment_5_30_19,3.1.0,59.951464393544484,
,,,C,D,g,b,L,U,d,R,u,,,,,5,19,119,1,0,0,0,0,,,,,0,25,25,21,,,,,,up,0.650386286979483,2014.6774710503632,None,001,31,2019_Oct_15_1703,ACPT_experiment_5_30_19,3.1.0,59.951464393544484,
,,,C,D,g,b,L,U,g,L,u,,,,,5,19,119,1,0,0,0,0,,,,,0,26,26,22,,,,,,up,0.9174063683494751,2016.5955901041489,None,001,31,2019_Oct_15_1703,ACPT_experiment_5_30_19,3.1.0,59.951464393544484,
,,,C,D,g,b,R,D,g,L,i,,,,,5,19,119,1,0,0,0,0,,,,,0,27,27,2,,,,,,up,0.6670596850672155,2018.7806241929102,None,001,31,2019_Oct_15_1703,ACPT_experiment_5_30_19,3.1.0,59.951464393544484,
,,,C,D,g,b,L,G,d,R,i,,,,,5,19,119,1,0,0,0,0,,,,,0,28,28,17,,,,,,up,1.284354547271505,2020.7321196248995,None,001,31,2019_Oct_15_1703,ACPT_experiment_5_30_19,3.1.0,59.951464393544484,
,,,C,D,g,b,L,U,g,R,u,,,,,5,19,119,1,0,0,0,0,,,,,0,29,29,23,,,,,,up,0.7672558320373355,2023.3007595940871,None,001,31,2019_Oct_15_1703,ACPT_experiment_5_30_19,3.1.0,59.951464393544484,
,,,C,D,g,b,L,D,d,L,c ,,,,,5,19,119,1,0,0,0,0,,,,,0,30,30,12,,,,,,up,0.8172953451758076,2025.352335863503,None,001,31,2019_Oct_15_1703,ACPT_experiment_5_30_19,3.1.0,59.951464393544484,
,,,C,D,g,b,R,U,g,L,u,,,,,5,19,119,1,0,0,0,0,,,,,0,31,31,10,,,,,,up,0.7672543227490678,2027.4539546646338,None,001,31,2019_Oct_15_1703,ACPT_experiment_5_30_19,3.1.0,59.951464393544484,
,,,C,D,g,b,L,U,d,L,u,,,,,5,19,119,1,0,0,0,0,,,,,0,32,32,20,,,,,,up,0.5504153256661084,2029.5055291229073,None,001,31,2019_Oct_15_1703,ACPT_experiment_5_30_19,3.1.0,59.951464393544484,
,,,C,D,g,b,L,D,g,R,i,,,,,5,19,119,1,0,0,0,0,,,,,0,33,33,15,,,,,,up,1.651300009478291,2031.3402503967918,None,001,31,2019_Oct_15_1703,ACPT_experiment_5_30_19,3.1.0,59.951464393544484,
,,,C,D,g,b,L,G,g,L,c ,,,,,5,19,119,1,0,0,0,0,,,,,0,34,34,18,,,,,,up,0.7672513041725324,2034.2758723529369,None,001,31,2019_Oct_15_1703,ACPT_experiment_5_30_19,3.1.0,59.951464393544484,
,,,C,D,g,b,R,G,g,L,c ,,,,,5,19,119,1,0,0,0,0,,,,,0,35,35,6,,,,,,up,0.9507359586459643,2036.3274320201926,None,001,31,2019_Oct_15_1703,ACPT_experiment_5_30_19,3.1.0,59.951464393544484,
,,,C,D,g,b,L,G,g,L,c ,,,,,5,19,119,1,0,0,0,0,,,,,1,0,36,18,,,,,,up,0.8006596792693017,2038.5624872087901,None,001,31,2019_Oct_15_1703,ACPT_experiment_5_30_19,3.1.0,59.951464393544484,
,,,C,D,g,b,L,G,y,R,y,,,,,5,19,119,1,0,0,0,0,,,,,1,1,37,35,,,,,,down,0.6171692895040906,2040.6474211412497,None,001,31,2019_Oct_15_1703,ACPT_experiment_5_30_19,3.1.0,59.951464393544484,
,,,C,D,g,b,L,D,y,R,y,,,,,5,19,119,1,0,0,0,0,,,,,1,2,38,33,,,,,,down,0.717028563562053,2042.5657149705003,None,001,31,2019_Oct_15_1703,ACPT_experiment_5_30_19,3.1.0,59.951464393544484,
,,,C,D,g,b,R,D,y,L,y,,,,,5,19,119,1,0,0,0,0,,,,,1,3,39,26,,,,,,down,0.9506100840917497,2044.5837811388592,None,001,31,2019_Oct_15_1703,ACPT_experiment_5_30_19,3.1.0,59.951464393544484,
,,,C,D,g,b,L,U,y,L,u,,,,,5,19,119,1,0,0,0,0,,,,,1,4,40,24,,,,,,down,0.6004804966905795,2046.8188064435708,None,001,31,2019_Oct_15_1703,ACPT_experiment_5_30_19,3.1.0,59.951464393544484,
,,,C,D,g,b,R,D,y,R,y,,,,,5,19,119,1,0,0,0,0,,,,,1,5,41,27,,,,,,down,0.9674464852032543,2048.703610094355,None,001,31,2019_Oct_15_1703,ACPT_experiment_5_30_19,3.1.0,59.951464393544484,
,,,C,D,g,b,L,G,g,R,c ,,,,,5,19,119,1,0,0,0,0,,,,,1,6,42,19,,,,,,up,0.9007085198063578,2050.9553377754673,None,001,31,2019_Oct_15_1703,ACPT_experiment_5_30_19,3.1.0,59.951464393544484,
,,,C,D,g,b,R,U,d,L,u,,,,,5,19,119,1,0,0,0,0,,,,,1,7,43,8,,,,,,up,1.2342917911082623,2053.140348017492,None,001,31,2019_Oct_15_1703,ACPT_experiment_5_30_19,3.1.0,59.951464393544484,
,,,C,D,g,b,R,G,y,L,y,,,,,5,19,119,1,0,0,0,0,,,,,1,8,44,28,,,,,,down,0.6505188023984374,2055.658955718118,None,001,31,2019_Oct_15_1703,ACPT_experiment_5_30_19,3.1.0,59.951464393544484,
,,,C,D,g,b,L,U,g,L,u,,,,,5,19,119,1,0,0,0,0,,,,,1,9,45,22,,,,,,up,0.550426796249667,2057.5937680925817,None,001,31,2019_Oct_15_1703,ACPT_experiment_5_30_19,3.1.0,59.951464393544484,
,,,C,D,g,b,L,G,y,L,y,,,,,5,19,119,1,0,0,0,0,,,,,1,10,46,34,,,,,,down,0.6001843745289079,2059.445475187018,None,001,31,2019_Oct_15_1703,ACPT_experiment_5_30_19,3.1.0,59.951464393544484,
,,,C,D,g,b,L,G,d,L,i,,,,,5,19,119,1,0,0,0,0,,,,,1,11,47,16,,,,,,up,0.6338324244425166,2061.3132981488307,None,001,31,2019_Oct_15_1703,ACPT_experiment_5_30_19,3.1.0,59.951464393544484,
,,,C,D,g,b,L,U,g,R,u,,,,,5,19,119,1,0,0,0,0,,,,,1,12,48,23,,,,,,up,0.7672507004608633,2063.2314404456374,None,001,31,2019_Oct_15_1703,ACPT_experiment_5_30_19,3.1.0,59.951464393544484,
,,,C,D,g,b,L,D,y,L,y,,,,,5,19,119,1,0,0,0,0,,,,,1,13,49,32,,,,,,down,0.5670980813338247,2065.2830146020533,None,001,31,2019_Oct_15_1703,ACPT_experiment_5_30_19,3.1.0,59.951464393544484,
,,,C,D,g,b,R,U,y,L,u,,,,,5,19,119,1,0,0,0,0,,,,,1,14,50,30,,,,,,down,0.7839400969933195,2067.1344334226233,None,001,31,2019_Oct_15_1703,ACPT_experiment_5_30_19,3.1.0,59.951464393544484,
,,,C,D,g,b,R,G,d,R,i,,,,,5,19,119,1,0,0,0,0,,,,,1,15,51,5,,,,,,up,0.6838559391326271,2069.202692447707,None,001,31,2019_Oct_15_1703,ACPT_experiment_5_30_19,3.1.0,59.951464393544484,
,,,C,D,g,b,R,D,g,L,i,,,,,5,19,119,1,0,0,0,0,,,,,1,16,52,2,,,,,,up,0.6004545369505649,2071.170871842798,None,001,31,2019_Oct_15_1703,ACPT_experiment_5_30_19,3.1.0,59.951464393544484,
,,,C,D,g,b,R,D,g,R,i,,,,,5,19,119,1,0,0,0,0,,,,,1,17,53,3,,,,,,up,0.7171046316398133,2073.0556456096965,None,001,31,2019_Oct_15_1703,ACPT_experiment_5_30_19,3.1.0,59.951464393544484,
,,,C,D,g,b,L,U,d,R,u,,,,,5,19,119,1,0,0,0,0,,,,,1,18,54,21,,,,,,up,0.9173767863139801,2075.057183573401,None,001,31,2019_Oct_15_1703,ACPT_experiment_5_30_19,3.1.0,59.951464393544484,
,,,C,D,g,b,L,D,g,L,i,,,,,5,19,119,1,0,0,0,0,,,,,1,19,55,14,,,,,,up,0.667181635475572,2077.2588774766664,None,001,31,2019_Oct_15_1703,ACPT_experiment_5_30_19,3.1.0,59.951464393544484,
,,,C,D,g,b,L,G,d,R,i,,,,,5,19,119,1,0,0,0,0,,,,,1,20,56,17,,,,,,up,0.6339172463849536,2079.210381662524,None,001,31,2019_Oct_15_1703,ACPT_experiment_5_30_19,3.1.0,59.951464393544484,
,,,C,D,g,b,R,G,g,L,c ,,,,,5,19,119,1,0,0,0,0,,,,,1,21,57,6,,,,,,up,0.5171053560989094,2081.128497094018,None,001,31,2019_Oct_15_1703,ACPT_experiment_5_30_19,3.1.0,59.951464393544484,
,,,C,D,g,b,R,G,y,R,y,,,,,5,19,119,1,0,0,0,0,,,,,1,22,58,29,,,,,,down,0.6004605740963598,2082.9298954184706,None,001,31,2019_Oct_15_1703,ACPT_experiment_5_30_19,3.1.0,59.951464393544484,
,,,C,D,g,b,L,U,d,L,u,,,,,5,19,119,1,0,0,0,0,,,,,1,23,59,20,,,,,,up,0.5837545754038729,2084.8313782026344,None,001,31,2019_Oct_15_1703,ACPT_experiment_5_30_19,3.1.0,59.951464393544484,
,,,C,D,g,b,L,D,d,R,c ,,,,,5,19,119,1,0,0,0,0,,,,,1,24,60,13,,,,,,up,0.6504976723772415,2086.6994625729967,None,001,31,2019_Oct_15_1703,ACPT_experiment_5_30_19,3.1.0,59.951464393544484,
,,,C,D,g,b,R,U,y,R,u,,,,,5,19,119,1,0,0,0,0,,,,,1,25,61,31,,,,,,down,0.6838535242750368,2088.6342849087596,None,001,31,2019_Oct_15_1703,ACPT_experiment_5_30_19,3.1.0,59.951464393544484,
,,,C,D,g,b,R,D,d,R,c ,,,,,5,19,119,1,0,0,0,0,,,,,1,26,62,1,,,,,,up,0.6672169527955703,2090.6024612852743,None,001,31,2019_Oct_15_1703,ACPT_experiment_5_30_19,3.1.0,59.951464393544484,
,,,C,D,g,b,R,U,d,R,u,,,,,5,19,119,1,0,0,0,0,,,,,1,27,63,9,,,,,,up,0.4670256959179824,2092.553959132125,None,001,31,2019_Oct_15_1703,ACPT_experiment_5_30_19,3.1.0,59.951464393544484,
,,,C,D,g,b,L,D,g,R,i,,,,,5,19,119,1,0,0,0,0,,,,,1,28,64,15,,,,,,up,0.5504092885166756,2094.305306472852,None,001,31,2019_Oct_15_1703,ACPT_experiment_5_30_19,3.1.0,59.951464393544484,
,,,C,D,g,b,R,D,d,L,c,,,,,5,19,119,1,0,0,0,0,,,,,1,29,65,0,,,,,,up,0.5837666497027385,2096.140049480473,None,001,31,2019_Oct_15_1703,ACPT_experiment_5_30_19,3.1.0,59.951464393544484,
,,,C,D,g,b,R,G,g,R,c ,,,,,5,19,119,1,0,0,0,0,,,,,1,30,66,7,,,,,,up,0.5170446827505657,2098.0248425662467,None,001,31,2019_Oct_15_1703,ACPT_experiment_5_30_19,3.1.0,59.951464393544484,
,,,C,D,g,b,L,D,d,L,c ,,,,,5,19,119,1,0,0,0,0,,,,,1,31,67,12,,,,,,up,0.5337431350053521,2099.826213421671,None,001,31,2019_Oct_15_1703,ACPT_experiment_5_30_19,3.1.0,59.951464393544484,
,,,C,D,g,b,L,U,y,R,u,,,,,5,19,119,1,0,0,0,0,,,,,1,32,68,25,,,,,,down,0.7172154133259028,2101.6442745791974,None,001,31,2019_Oct_15_1703,ACPT_experiment_5_30_19,3.1.0,59.951464393544484,
,,,C,D,g,b,R,G,d,L,i,,,,,5,19,119,1,0,0,0,0,,,,,1,33,69,4,,,,,,up,0.6004469905128644,2103.6458164670476,None,001,31,2019_Oct_15_1703,ACPT_experiment_5_30_19,3.1.0,59.951464393544484,
,,,C,D,g,b,R,U,g,L,u,,,,,5,19,119,1,0,0,0,0,,,,,1,34,70,10,,,,,,up,0.6671737871802179,2105.5305935543765,None,001,31,2019_Oct_15_1703,ACPT_experiment_5_30_19,3.1.0,59.951464393544484,
,,,C,D,g,b,R,U,g,R,u,,,,,5,19,119,1,0,0,0,0,,,,,1,35,71,11,,,,,,up,0.5672511230586679,2107.4652631502686,None,001,31,2019_Oct_15_1703,ACPT_experiment_5_30_19,3.1.0,59.951464393544484,
,,,C,D,g,b,,,,,,,,,,5,19,119,1,1,0,1,0,0,0,0,0,,,,,,,,,,,,,,001,31,2019_Oct_15_1703,ACPT_experiment_5_30_19,3.1.0,59.951464393544484,
,,,C,D,g,b,R,G,y,R,y,,,,,5,19,119,1,1,0,1,0,,,,,0,0,0,29,,,,,,down,0.683622603326512,2224.255374119104,None,001,31,2019_Oct_15_1703,ACPT_experiment_5_30_19,3.1.0,59.951464393544484,
,,,C,D,g,b,R,D,g,R,i,,,,,5,19,119,1,1,0,1,0,,,,,0,1,1,3,,,,,,up,0.5671186076397134,2226.223318970955,None,001,31,2019_Oct_15_1703,ACPT_experiment_5_30_19,3.1.0,59.951464393544484,
,,,C,D,g,b,R,G,g,R,c ,,,,,5,19,119,1,1,0,1,0,,,,,0,2,2,7,,,,,,up,0.5004038852675876,2228.0747103225003,None,001,31,2019_Oct_15_1703,ACPT_experiment_5_30_19,3.1.0,59.951464393544484,
,,,C,D,g,b,R,D,d,L,c,,,,,5,19,119,1,1,0,1,0,,,,,0,3,3,0,,,,,,up,0.8006165136575873,2229.859434947004,None,001,31,2019_Oct_15_1703,ACPT_experiment_5_30_19,3.1.0,59.951464393544484,
,,,C,D,g,b,R,U,d,R,u,,,,,5,19,119,1,1,0,1,0,,,,,0,4,4,9,,,,,,up,0.6838517131327535,2231.944379444474,None,001,31,2019_Oct_15_1703,ACPT_experiment_5_30_19,3.1.0,59.951464393544484,
,,,C,D,g,b,L,G,d,L,i,,,,,5,19,119,1,1,0,1,0,,,,,0,5,5,16,,,,,,up,0.7339615590572066,2233.912551896843,None,001,31,2019_Oct_15_1703,ACPT_experiment_5_30_19,3.1.0,59.951464393544484,
,,,C,D,g,b,L,U,g,L,u,,,,,5,19,119,1,1,0,1,0,,,,,0,6,6,22,,,,,,up,0.8172959488911147,2235.9307671827846,None,001,31,2019_Oct_15_1703,ACPT_experiment_5_30_19,3.1.0,59.951464393544484,
,,,C,D,g,b,L,G,y,R,y,,,,,5,19,119,1,1,0,1,0,,,,,0,7,7,35,,,,,,down,0.7172123947493674,2238.032385682058,None,001,31,2019_Oct_15_1703,ACPT_experiment_5_30_19,3.1.0,59.951464393544484,
,,,C,D,g,b,L,U,y,R,u,,,,,5,19,119,1,1,0,1,0,,,,,0,8,8,25,,,,,,down,0.7670581154088723,2240.050762461731,None,001,31,2019_Oct_15_1703,ACPT_experiment_5_30_19,3.1.0,59.951464393544484,
,,,C,D,g,b,L,U,d,L,u,,,,,5,19,119,1,1,0,1,0,,,,,0,9,9,20,,,,,,up,1.2676527745825297,2242.11885908751,None,001,31,2019_Oct_15_1703,ACPT_experiment_5_30_19,3.1.0,59.951464393544484,
,,,C,D,g,b,R,D,y,R,y,,,,,5,19,119,1,1,0,1,0,,,,,0,10,10,27,,,,,,down,0.6338197464283439,2244.6708187158874,None,001,31,2019_Oct_15_1703,ACPT_experiment_5_30_19,3.1.0,59.951464393544484,
,,,C,D,g,b,L,U,g,R,u,,,,,5,19,119,1,1,0,1,0,,,,,0,11,11,23,,,,,,up,0.8006071560739656,2246.588964634986,None,001,31,2019_Oct_15_1703,ACPT_experiment_5_30_19,3.1.0,59.951464393544484,
,,,C,D,g,b,R,D,y,L,y,,,,,5,19,119,1,1,0,1,0,,,,,0,12,12,26,,,,,,down,0.733894244844123,2248.673891926581,None,001,31,2019_Oct_15_1703,ACPT_experiment_5_30_19,3.1.0,59.951464393544484,
,,,C,D,g,b,R,U,y,R,u,,,,,5,19,119,1,1,0,1,0,,,,,0,13,13,31,,,,,,down,0.7505691522201232,2250.6921111366682,None,001,31,2019_Oct_15_1703,ACPT_experiment_5_30_19,3.1.0,59.951464393544484,
,,,C,D,g,b,L,D,d,L,c ,,,,,5,19,119,1,1,0,1,0,,,,,0,14,14,12,,,,,,up,0.6671499404437782,2252.7270284971564,None,001,31,2019_Oct_15_1703,ACPT_experiment_5_30_19,3.1.0,59.951464393544484,
,,,C,D,g,b,R,D,g,L,i,,,,,5,19,119,1,1,0,1,0,,,,,0,15,15,2,,,,,,up,0.5837726868521713,2254.6785052139858,None,001,31,2019_Oct_15_1703,ACPT_experiment_5_30_19,3.1.0,59.951464393544484,
,,,C,D,g,b,L,G,y,L,y,,,,,5,19,119,1,1,0,1,0,,,,,0,16,16,34,,,,,,down,0.6836389036288892,2256.563534050427,None,001,31,2019_Oct_15_1703,ACPT_experiment_5_30_19,3.1.0,59.951464393544484,
,,,C,D,g,b,L,D,d,R,c ,,,,,5,19,119,1,1,0,1,0,,,,,0,17,17,13,,,,,,up,0.7672612654714612,2258.53145988526,None,001,31,2019_Oct_15_1703,ACPT_experiment_5_30_19,3.1.0,59.951464393544484,
,,,C,D,g,b,R,G,g,L,c ,,,,,5,19,119,1,1,0,1,0,,,,,0,18,18,6,,,,,,up,1.150870164470689,2260.5830521531207,None,001,31,2019_Oct_15_1703,ACPT_experiment_5_30_19,3.1.0,59.951464393544484,
,,,C,D,g,b,L,G,g,R,c ,,,,,5,19,119,1,1,0,1,0,,,,,0,19,19,19,,,,,,up,0.5170643034871318,2263.018241547539,None,001,31,2019_Oct_15_1703,ACPT_experiment_5_30_19,3.1.0,59.951464393544484,
,,,C,D,g,b,R,D,d,R,c ,,,,,5,19,119,1,1,0,1,0,,,,,0,20,20,1,,,,,,up,0.6338381597306579,2264.8196311181237,None,001,31,2019_Oct_15_1703,ACPT_experiment_5_30_19,3.1.0,59.951464393544484,
,,,C,D,g,b,R,G,d,R,i,,,,,5,19,119,1,1,0,1,0,,,,,0,21,21,5,,,,,,up,0.6004762706834299,2266.737745040333,None,001,31,2019_Oct_15_1703,ACPT_experiment_5_30_19,3.1.0,59.951464393544484,
,,,C,D,g,b,L,G,g,L,c ,,,,,5,19,119,1,1,0,1,0,,,,,0,22,22,18,,,,,,up,0.583773592421494,2268.622552615263,None,001,31,2019_Oct_15_1703,ACPT_experiment_5_30_19,3.1.0,59.951464393544484,
,,,C,D,g,b,L,G,d,R,i,,,,,5,19,119,1,1,0,1,0,,,,,0,23,23,17,,,,,,up,0.4667440629164048,2270.490921939061,None,001,31,2019_Oct_15_1703,ACPT_experiment_5_30_19,3.1.0,59.951464393544484,
,,,C,D,g,b,R,G,y,L,y,,,,,5,19,119,1,1,0,1,0,,,,,0,24,24,28,,,,,,down,0.7672808862043894,2272.2419737613454,None,001,31,2019_Oct_15_1703,ACPT_experiment_5_30_19,3.1.0,59.951464393544484,
,,,C,D,g,b,R,G,d,L,i,,,,,5,19,119,1,1,0,1,0,,,,,0,25,25,4,,,,,,up,0.5504437002637133,2274.276868784378,None,001,31,2019_Oct_15_1703,ACPT_experiment_5_30_19,3.1.0,59.951464393544484,
,,,C,D,g,b,L,D,g,L,i,,,,,5,19,119,1,1,0,1,0,,,,,0,26,26,14,,,,,,up,0.6838462796986278,2276.111638355458,None,001,31,2019_Oct_15_1703,ACPT_experiment_5_30_19,3.1.0,59.951464393544484,
,,,C,D,g,b,R,U,d,L,u,,,,,5,19,119,1,1,0,1,0,,,,,0,27,27,8,,,,,,up,0.633827594723698,2278.0798150338305,None,001,31,2019_Oct_15_1703,ACPT_experiment_5_30_19,3.1.0,59.951464393544484,
,,,C,D,g,b,L,U,d,R,u,,,,,5,19,119,1,1,0,1,0,,,,,0,28,28,21,,,,,,up,0.9840948291202949,2279.98126853782,None,001,31,2019_Oct_15_1703,ACPT_experiment_5_30_19,3.1.0,59.951464393544484,
,,,C,D,g,b,L,U,y,L,u,,,,,5,19,119,1,1,0,1,0,,,,,0,29,29,24,,,,,,down,0.6504931445160764,2282.249685917326,None,001,31,2019_Oct_15_1703,ACPT_experiment_5_30_19,3.1.0,59.951464393544484,
,,,C,D,g,b,L,D,y,L,y,,,,,5,19,119,1,1,0,1,0,,,,,0,30,30,32,,,,,,down,0.6004572536621708,2284.1844988955054,None,001,31,2019_Oct_15_1703,ACPT_experiment_5_30_19,3.1.0,59.951464393544484,
,,,C,D,g,b,R,U,g,L,u,,,,,5,19,119,1,1,0,1,0,,,,,0,31,31,10,,,,,,up,0.550434644541383,2286.069259682532,None,001,31,2019_Oct_15_1703,ACPT_experiment_5_30_19,3.1.0,59.951464393544484,
,,,C,D,g,b,R,U,g,R,u,,,,,5,19,119,1,1,0,1,0,,,,,0,32,32,11,,,,,,up,0.9174323280858516,2287.887322953062,None,001,31,2019_Oct_15_1703,ACPT_experiment_5_30_19,3.1.0,59.951464393544484,
,,,C,D,g,b,L,D,y,R,y,,,,,5,19,119,1,1,0,1,0,,,,,0,33,33,33,,,,,,down,0.6671755983261392,2290.089034967772,None,001,31,2019_Oct_15_1703,ACPT_experiment_5_30_19,3.1.0,59.951464393544484,
,,,C,D,g,b,L,D,g,R,i,,,,,5,19,119,1,1,0,1,0,,,,,0,34,34,15,,,,,,up,0.5504138163778407,2292.040537040626,None,001,31,2019_Oct_15_1703,ACPT_experiment_5_30_19,3.1.0,59.951464393544484,
,,,C,D,g,b,R,U,y,L,u,,,,,5,19,119,1,1,0,1,0,,,,,0,35,35,30,,,,,,down,0.6504626569148968,2293.8753093284213,None,001,31,2019_Oct_15_1703,ACPT_experiment_5_30_19,3.1.0,59.951464393544484,
,,,C,D,g,b,R,U,g,L,u,,,,,5,19,119,1,1,0,1,0,,,,,1,0,36,10,,,,,,up,0.5304112324774906,2295.8301073827715,None,001,31,2019_Oct_15_1703,ACPT_experiment_5_30_19,3.1.0,59.951464393544484,
,,,C,D,g,b,L,U,g,L,u,,,,,5,19,119,1,1,0,1,0,,,,,1,1,37,22,,,,,,up,0.5003815478157776,2297.6448408637734,None,001,31,2019_Oct_15_1703,ACPT_experiment_5_30_19,3.1.0,59.951464393544484,
,,,C,D,g,b,R,G,d,R,i,,,,,5,19,119,1,1,0,1,0,,,,,1,2,38,5,,,,,,up,0.4670480333697924,2299.4295461693982,None,001,31,2019_Oct_15_1703,ACPT_experiment_5_30_19,3.1.0,59.951464393544484,
,,,C,D,g,b,R,U,d,L,u,,,,,5,19,119,1,1,0,1,0,,,,,1,3,39,8,,,,,,up,0.40031550140702166,2301.1808838506877,None,001,31,2019_Oct_15_1703,ACPT_experiment_5_30_19,3.1.0,59.951464393544484,
,,,C,D,g,b,L,U,d,L,u,,,,,5,19,119,1,1,0,1,0,,,,,1,4,40,20,,,,,,up,0.5670829884620616,2302.8822094878633,None,001,31,2019_Oct_15_1703,ACPT_experiment_5_30_19,3.1.0,59.951464393544484,
,,,C,D,g,b,L,U,g,R,u,,,,,5,19,119,1,1,0,1,0,,,,,1,5,41,23,,,,,,up,0.6004789874023118,2304.7169177818796,None,001,31,2019_Oct_15_1703,ACPT_experiment_5_30_19,3.1.0,59.951464393544484,
,,,C,D,g,b,L,D,y,R,y,,,,,5,19,119,1,1,0,1,0,,,,,1,6,42,33,,,,,,down,0.6838523168444226,2306.6017190178063,None,001,31,2019_Oct_15_1703,ACPT_experiment_5_30_19,3.1.0,59.951464393544484,
,,,C,D,g,b,L,U,y,L,u,,,,,5,19,119,1,1,0,1,0,,,,,1,7,43,24,,,,,,down,0.4837347131870047,2308.5698947906058,None,001,31,2019_Oct_15_1703,ACPT_experiment_5_30_19,3.1.0,59.951464393544484,
,,,C,D,g,b,L,D,g,R,i,,,,,5,19,119,1,1,0,1,0,,,,,1,8,44,15,,,,,,up,0.5337703021759808,2310.337926094431,None,001,31,2019_Oct_15_1703,ACPT_experiment_5_30_19,3.1.0,59.951464393544484,
,,,C,D,g,b,L,D,d,R,c ,,,,,5,19,119,1,1,0,1,0,,,,,1,9,45,13,,,,,,up,0.7672458707384067,2312.155988459388,None,001,31,2019_Oct_15_1703,ACPT_experiment_5_30_19,3.1.0,59.951464393544484,
,,,C,D,g,b,L,G,g,R,c ,,,,,5,19,119,1,1,0,1,0,,,,,1,10,46,19,,,,,,up,0.7672256462901714,2314.207579519818,None,001,31,2019_Oct_15_1703,ACPT_experiment_5_30_19,3.1.0,59.951464393544484,
,,,C,D,g,b,R,G,g,L,c ,,,,,5,19,119,1,1,0,1,0,,,,,1,11,47,6,,,,,,up,0.567093251615006,2316.259137677789,None,001,31,2019_Oct_15_1703,ACPT_experiment_5_30_19,3.1.0,59.951464393544484,
,,,C,D,g,b,R,D,y,L,y,,,,,5,19,119,1,1,0,1,0,,,,,1,12,48,26,,,,,,down,0.6671644296002341,2318.127242876315,None,001,31,2019_Oct_15_1703,ACPT_experiment_5_30_19,3.1.0,59.951464393544484,
,,,C,D,g,b,R,G,g,R,c ,,,,,5,19,119,1,1,0,1,0,,,,,1,13,49,7,,,,,,up,0.7505664355048793,2320.0954201584027,None,001,31,2019_Oct_15_1703,ACPT_experiment_5_30_19,3.1.0,59.951464393544484,
,,,C,D,g,b,L,G,g,L,c ,,,,,5,19,119,1,1,0,1,0,,,,,1,14,50,18,,,,,,up,0.6835718912770972,2322.147281079393,None,001,31,2019_Oct_15_1703,ACPT_experiment_5_30_19,3.1.0,59.951464393544484,
,,,C,D,g,b,R,D,g,L,i,,,,,5,19,119,1,1,0,1,0,,,,,1,15,51,2,,,,,,up,0.8339968160071294,2324.098469220502,None,001,31,2019_Oct_15_1703,ACPT_experiment_5_30_19,3.1.0,59.951464393544484,
,,,C,D,g,b,L,D,y,L,y,,,,,5,19,119,1,1,0,1,0,,,,,1,16,52,32,,,,,,down,0.6171288406076201,2326.2334707388436,None,001,31,2019_Oct_15_1703,ACPT_experiment_5_30_19,3.1.0,59.951464393544484,
,,,C,D,g,b,R,G,d,L,i,,,,,5,19,119,1,1,0,1,0,,,,,1,17,53,4,,,,,,up,0.5170555496188172,2328.151608507793,None,001,31,2019_Oct_15_1703,ACPT_experiment_5_30_19,3.1.0,59.951464393544484,
,,,C,D,g,b,L,U,d,R,u,,,,,5,19,119,1,1,0,1,0,,,,,1,18,54,21,,,,,,up,0.4837015088633052,2329.9363126059907,None,001,31,2019_Oct_15_1703,ACPT_experiment_5_30_19,3.1.0,59.951464393544484,
,,,C,D,g,b,L,D,g,L,i,,,,,5,19,119,1,1,0,1,0,,,,,1,19,55,14,,,,,,up,0.7172308080553194,2331.7043369670937,None,001,31,2019_Oct_15_1703,ACPT_experiment_5_30_19,3.1.0,59.951464393544484,
,,,C,D,g,b,L,G,y,L,y,,,,,5,19,119,1,1,0,1,0,,,,,1,20,56,34,,,,,,down,0.6504928426584229,2333.7058743270863,None,001,31,2019_Oct_15_1703,ACPT_experiment_5_30_19,3.1.0,59.951464393544484,
,,,C,D,g,b,L,D,d,L,c ,,,,,5,19,119,1,1,0,1,0,,,,,1,21,57,12,,,,,,up,0.7338836798335251,2335.640699077707,None,001,31,2019_Oct_15_1703,ACPT_experiment_5_30_19,3.1.0,59.951464393544484,
,,,C,D,g,b,R,D,g,R,i,,,,,5,19,119,1,1,0,1,0,,,,,1,22,58,3,,,,,,up,0.5170522291882662,2337.658911043214,None,001,31,2019_Oct_15_1703,ACPT_experiment_5_30_19,3.1.0,59.951464393544484,
,,,C,D,g,b,R,U,y,R,u,,,,,5,19,119,1,1,0,1,0,,,,,1,23,59,31,,,,,,down,0.6505136708219652,2339.4602903506457,None,001,31,2019_Oct_15_1703,ACPT_experiment_5_30_19,3.1.0,59.951464393544484,
,,,C,D,g,b,R,G,y,R,y,,,,,5,19,119,1,1,0,1,0,,,,,1,24,60,29,,,,,,down,0.7336189508532698,2341.395385867396,None,001,31,2019_Oct_15_1703,ACPT_experiment_5_30_19,3.1.0,59.951464393544484,
,,,C,D,g,b,R,G,y,L,y,,,,,5,19,119,1,1,0,1,0,,,,,1,25,61,28,,,,,,down,0.700587595711113,2343.3966277089457,None,001,31,2019_Oct_15_1703,ACPT_experiment_5_30_19,3.1.0,59.951464393544484,
,,,C,D,g,b,R,D,d,L,c,,,,,5,19,119,1,1,0,1,0,,,,,1,26,62,0,,,,,,up,0.6671737871838559,2345.3815088767224,None,001,31,2019_Oct_15_1703,ACPT_experiment_5_30_19,3.1.0,59.951464393544484,
,,,C,D,g,b,R,D,d,R,c ,,,,,5,19,119,1,1,0,1,0,,,,,1,27,63,1,,,,,,up,0.6171541966359655,2347.3330055161423,None,001,31,2019_Oct_15_1703,ACPT_experiment_5_30_19,3.1.0,59.951464393544484,
,,,C,D,g,b,R,U,y,L,u,,,,,5,19,119,1,1,0,1,0,,,,,1,28,64,30,,,,,,down,0.8339473113846907,2349.267866791517,None,001,31,2019_Oct_15_1703,ACPT_experiment_5_30_19,3.1.0,59.951464393544484,
,,,C,D,g,b,L,G,d,L,i,,,,,5,19,119,1,1,0,1,0,,,,,1,29,65,16,,,,,,up,0.9673990935807524,2351.402800391934,None,001,31,2019_Oct_15_1703,ACPT_experiment_5_30_19,3.1.0,59.951464393544484,
,,,C,D,g,b,R,U,d,R,u,,,,,5,19,119,1,1,0,1,0,,,,,1,30,66,9,,,,,,up,0.7505655299319187,2353.6545389399143,None,001,31,2019_Oct_15_1703,ACPT_experiment_5_30_19,3.1.0,59.951464393544484,
,,,C,D,g,b,R,D,y,R,y,,,,,5,19,119,1,1,0,1,0,,,,,1,31,67,27,,,,,,down,0.6004463867975574,2355.6894282276553,None,001,31,2019_Oct_15_1703,ACPT_experiment_5_30_19,3.1.0,59.951464393544484,
,,,C,D,g,b,R,U,g,R,u,,,,,5,19,119,1,1,0,1,0,,,,,1,32,68,11,,,,,,up,0.5504231739578245,2357.574205616842,None,001,31,2019_Oct_15_1703,ACPT_experiment_5_30_19,3.1.0,59.951464393544484,
,,,C,D,g,b,L,G,d,R,i,,,,,5,19,119,1,1,0,1,0,,,,,1,33,69,17,,,,,,up,0.5837729887098249,2359.4089495300395,None,001,31,2019_Oct_15_1703,ACPT_experiment_5_30_19,3.1.0,59.951464393544484,
,,,C,D,g,b,L,U,y,R,u,,,,,5,19,119,1,1,0,1,0,,,,,1,34,70,25,,,,,,down,0.6171279350346595,2361.293730843372,None,001,31,2019_Oct_15_1703,ACPT_experiment_5_30_19,3.1.0,59.951464393544484,
,,,C,D,g,b,L,G,y,R,y,,,,,5,19,119,1,1,0,1,0,,,,,1,35,71,35,,,,,,down,0.533739210859494,2363.2118674048907,None,001,31,2019_Oct_15_1703,ACPT_experiment_5_30_19,3.1.0,59.951464393544484,
,,,C,D,g,b,,,,,,,,,,5,19,119,1,2,0,2,0,0,0,0,0,,,,,,,,,,,,,,001,31,2019_Oct_15_1703,ACPT_experiment_5_30_19,3.1.0,59.951464393544484,
,,,C,D,g,b,L,D,y,R,y,,,,,5,19,119,1,2,0,2,0,,,,,0,0,0,33,,,,,,down,0.666775335350394,2479.318097984138,None,001,31,2019_Oct_15_1703,ACPT_experiment_5_30_19,3.1.0,59.951464393544484,
,,,C,D,g,b,R,U,g,L,u,,,,,5,19,119,1,2,0,2,0,,,,,0,1,1,10,,,,,,up,0.700536279942753,2481.269227263041,None,001,31,2019_Oct_15_1703,ACPT_experiment_5_30_19,3.1.0,59.951464393544484,
,,,C,D,g,b,R,G,y,L,y,,,,,5,19,119,1,2,0,2,0,,,,,0,2,2,28,,,,,,down,0.6839018214668613,2483.270761604457,None,001,31,2019_Oct_15_1703,ACPT_experiment_5_30_19,3.1.0,59.951464393544484,
,,,C,D,g,b,L,U,y,L,u,,,,,5,19,119,1,2,0,2,0,,,,,0,3,3,24,,,,,,down,0.6338158222788479,2485.2723053034533,None,001,31,2019_Oct_15_1703,ACPT_experiment_5_30_19,3.1.0,59.951464393544484,
,,,C,D,g,b,R,U,d,L,u,,,,,5,19,119,1,2,0,2,0,,,,,0,4,4,8,,,,,,up,0.5337404182901082,2487.1904406575413,None,001,31,2019_Oct_15_1703,ACPT_experiment_5_30_19,3.1.0,59.951464393544484,
,,,C,D,g,b,L,U,g,R,u,,,,,5,19,119,1,2,0,2,0,,,,,0,5,5,23,,,,,,up,0.583759103265038,2489.0085157005124,None,001,31,2019_Oct_15_1703,ACPT_experiment_5_30_19,3.1.0,59.951464393544484,
,,,C,D,g,b,R,D,y,R,y,,,,,5,19,119,1,2,0,2,0,,,,,0,6,6,27,,,,,,down,0.5835882519495499,2490.8934434147086,None,001,31,2019_Oct_15_1703,ACPT_experiment_5_30_19,3.1.0,59.951464393544484,
,,,C,D,g,b,L,G,g,R,c ,,,,,5,19,119,1,2,0,2,0,,,,,0,7,7,19,,,,,,up,0.4503420346773055,2492.7780695733127,None,001,31,2019_Oct_15_1703,ACPT_experiment_5_30_19,3.1.0,59.951464393544484,
,,,C,D,g,b,R,G,d,L,i,,,,,5,19,119,1,2,0,2,0,,,,,0,8,8,4,,,,,,up,0.650490125939541,2494.5127347620873,None,001,31,2019_Oct_15_1703,ACPT_experiment_5_30_19,3.1.0,59.951464393544484,
,,,C,D,g,b,L,D,y,L,y,,,,,5,19,119,1,2,0,2,0,,,,,0,9,9,32,,,,,,down,0.7172078668882023,2496.4642359293684,None,001,31,2019_Oct_15_1703,ACPT_experiment_5_30_19,3.1.0,59.951464393544484,
,,,C,D,g,b,L,U,d,L,u,,,,,5,19,119,1,2,0,2,0,,,,,0,10,10,20,,,,,,up,0.5504104959472897,2498.515814915503,None,001,31,2019_Oct_15_1703,ACPT_experiment_5_30_19,3.1.0,59.951464393544484,
,,,C,D,g,b,L,D,g,L,i,,,,,5,19,119,1,2,0,2,0,,,,,0,11,11,14,,,,,,up,0.7505658317895723,2500.3505467543982,None,001,31,2019_Oct_15_1703,ACPT_experiment_5_30_19,3.1.0,59.951464393544484,
,,,C,D,g,b,L,G,d,R,i,,,,,5,19,119,1,2,0,2,0,,,,,0,12,12,17,,,,,,up,0.48370271629755734,2502.385446909011,None,001,31,2019_Oct_15_1703,ACPT_experiment_5_30_19,3.1.0,59.951464393544484,
,,,C,D,g,b,R,G,g,R,c ,,,,,5,19,119,1,2,0,2,0,,,,,0,13,13,7,,,,,,up,0.5670950627609272,2504.1534736849753,None,001,31,2019_Oct_15_1703,ACPT_experiment_5_30_19,3.1.0,59.951464393544484,
,,,C,D,g,b,L,U,g,L,u,,,,,5,19,119,1,2,0,2,0,,,,,0,14,14,22,,,,,,up,0.6004484997974942,2506.00489401483,None,001,31,2019_Oct_15_1703,ACPT_experiment_5_30_19,3.1.0,59.951464393544484,
,,,C,D,g,b,L,G,d,L,i,,,,,5,19,119,1,2,0,2,0,,,,,0,15,15,16,,,,,,up,0.5504699618650193,2507.889649368426,None,001,31,2019_Oct_15_1703,ACPT_experiment_5_30_19,3.1.0,59.951464393544484,
,,,C,D,g,b,R,D,g,R,i,,,,,5,19,119,1,2,0,2,0,,,,,0,16,16,3,,,,,,up,0.6505115578220284,2509.724397205766,None,001,31,2019_Oct_15_1703,ACPT_experiment_5_30_19,3.1.0,59.951464393544484,
,,,C,D,g,b,L,U,y,R,u,,,,,5,19,119,1,2,0,2,0,,,,,0,17,17,25,,,,,,down,0.7002851345459931,2511.676165516892,None,001,31,2019_Oct_15_1703,ACPT_experiment_5_30_19,3.1.0,59.951464393544484,
,,,C,D,g,b,R,U,d,R,u,,,,,5,19,119,1,2,0,2,0,,,,,0,18,18,9,,,,,,up,0.4668297904318024,2513.6776041694975,None,001,31,2019_Oct_15_1703,ACPT_experiment_5_30_19,3.1.0,59.951464393544484,
,,,C,D,g,b,R,U,y,R,u,,,,,5,19,119,1,2,0,2,0,,,,,0,19,19,31,,,,,,down,0.6171342740417458,2515.4454794130215,None,001,31,2019_Oct_15_1703,ACPT_experiment_5_30_19,3.1.0,59.951464393544484,
,,,C,D,g,b,R,U,y,L,u,,,,,5,19,119,1,2,0,2,0,,,,,0,20,20,30,,,,,,down,0.8840076526903431,2517.3636195968284,None,001,31,2019_Oct_15_1703,ACPT_experiment_5_30_19,3.1.0,59.951464393544484,
,,,C,D,g,b,R,G,y,R,y,,,,,5,19,119,1,2,0,2,0,,,,,0,21,21,29,,,,,,down,0.8006137969387055,2519.531948894328,None,001,31,2019_Oct_15_1703,ACPT_experiment_5_30_19,3.1.0,59.951464393544484,
,,,C,D,g,b,R,G,g,L,c ,,,,,5,19,119,1,2,0,2,0,,,,,0,22,22,6,,,,,,up,0.7506011491095705,2521.6001801485254,None,001,31,2019_Oct_15_1703,ACPT_experiment_5_30_19,3.1.0,59.951464393544484,
,,,C,D,g,b,L,G,y,L,y,,,,,5,19,119,1,2,0,2,0,,,,,0,23,23,34,,,,,,down,1.0507944586206577,2523.635115922316,None,001,31,2019_Oct_15_1703,ACPT_experiment_5_30_19,3.1.0,59.951464393544484,
,,,C,D,g,b,L,D,d,L,c ,,,,,5,19,119,1,2,0,2,0,,,,,0,24,24,12,,,,,,up,0.7172051501729584,2525.9702326294646,None,001,31,2019_Oct_15_1703,ACPT_experiment_5_30_19,3.1.0,59.951464393544484,
,,,C,D,g,b,R,D,y,L,y,,,,,5,19,119,1,2,0,2,0,,,,,0,25,25,26,,,,,,down,0.7338598330970854,2527.9718031937737,None,001,31,2019_Oct_15_1703,ACPT_experiment_5_30_19,3.1.0,59.951464393544484,
,,,C,D,g,b,R,D,g,L,i,,,,,5,19,119,1,2,0,2,0,,,,,0,26,26,2,,,,,,up,0.6505037095266744,2529.9899813512493,None,001,31,2019_Oct_15_1703,ACPT_experiment_5_30_19,3.1.0,59.951464393544484,
,,,C,D,g,b,R,G,d,R,i,,,,,5,19,119,1,2,0,2,0,,,,,0,27,27,5,,,,,,up,0.5670799698855262,2531.9248314578945,None,001,31,2019_Oct_15_1703,ACPT_experiment_5_30_19,3.1.0,59.951464393544484,
,,,C,D,g,b,L,D,g,R,i,,,,,5,19,119,1,2,0,2,0,,,,,0,28,28,15,,,,,,up,0.5837796295709268,2533.776225526155,None,001,31,2019_Oct_15_1703,ACPT_experiment_5_30_19,3.1.0,59.951464393544484,
,,,C,D,g,b,R,U,g,R,u,,,,,5,19,119,1,2,0,2,0,,,,,0,29,29,11,,,,,,up,0.5003718883781403,2535.644333139542,None,001,31,2019_Oct_15_1703,ACPT_experiment_5_30_19,3.1.0,59.951464393544484,
,,,C,D,g,b,L,G,g,L,c ,,,,,5,19,119,1,2,0,2,0,,,,,0,30,30,18,,,,,,up,0.6171608374970674,2537.4290263708717,None,001,31,2019_Oct_15_1703,ACPT_experiment_5_30_19,3.1.0,59.951464393544484,
,,,C,D,g,b,R,D,d,L,c,,,,,5,19,119,1,2,0,2,0,,,,,0,31,31,0,,,,,,up,0.7172111873223912,2539.330493156591,None,001,31,2019_Oct_15_1703,ACPT_experiment_5_30_19,3.1.0,59.951464393544484,
,,,C,D,g,b,L,U,d,R,u,,,,,5,19,119,1,2,0,2,0,,,,,0,32,32,21,,,,,,up,0.6838834081645473,2541.332003651267,None,001,31,2019_Oct_15_1703,ACPT_experiment_5_30_19,3.1.0,59.951464393544484,
,,,C,D,g,b,L,G,y,R,y,,,,,5,19,119,1,2,0,2,0,,,,,0,33,33,35,,,,,,down,0.6671900874825951,2543.300190290938,None,001,31,2019_Oct_15_1703,ACPT_experiment_5_30_19,3.1.0,59.951464393544484,
,,,C,D,g,b,R,D,d,R,c ,,,,,5,19,119,1,2,0,2,0,,,,,0,34,34,1,,,,,,up,0.5170597756259667,2545.251707456664,None,001,31,2019_Oct_15_1703,ACPT_experiment_5_30_19,3.1.0,59.951464393544484,
,,,C,D,g,b,L,D,d,R,c ,,,,,5,19,119,1,2,0,2,0,,,,,0,35,35,13,,,,,,up,0.5170818112164852,2547.0530906882414,None,001,31,2019_Oct_15_1703,ACPT_experiment_5_30_19,3.1.0,59.951464393544484,
,,,C,D,g,b,R,U,d,R,u,,,,,5,19,119,1,2,0,2,0,,,,,1,0,36,9,,,,,,up,0.6972101127066708,2548.874477409292,None,001,31,2019_Oct_15_1703,ACPT_experiment_5_30_19,3.1.0,59.951464393544484,
,,,C,D,g,b,R,U,g,L,u,,,,,5,19,119,1,2,0,2,0,,,,,1,1,37,10,,,,,,up,0.6505517048608453,2550.839305281119,None,001,31,2019_Oct_15_1703,ACPT_experiment_5_30_19,3.1.0,59.951464393544484,
,,,C,D,g,b,L,G,g,L,c ,,,,,5,19,119,1,2,0,2,0,,,,,1,2,38,18,,,,,,up,0.6171828730912239,2552.7741478413263,None,001,31,2019_Oct_15_1703,ACPT_experiment_5_30_19,3.1.0,59.951464393544484,
,,,C,D,g,b,R,D,y,R,y,,,,,5,19,119,1,2,0,2,0,,,,,1,3,39,27,,,,,,down,0.6505037095266744,2554.67560466575,None,001,31,2019_Oct_15_1703,ACPT_experiment_5_30_19,3.1.0,59.951464393544484,
,,,C,D,g,b,R,G,g,R,c ,,,,,5,19,119,1,2,0,2,0,,,,,1,4,40,7,,,,,,up,0.5003942258299503,2556.6104297182283,None,001,31,2019_Oct_15_1703,ACPT_experiment_5_30_19,3.1.0,59.951464393544484,
,,,C,D,g,b,R,G,y,L,y,,,,,5,19,119,1,2,0,2,0,,,,,1,5,41,28,,,,,,down,0.5170842260777135,2558.395130194138,None,001,31,2019_Oct_15_1703,ACPT_experiment_5_30_19,3.1.0,59.951464393544484,
,,,C,D,g,b,R,D,d,L,c,,,,,5,19,119,1,2,0,2,0,,,,,1,6,42,0,,,,,,up,0.7172193374717608,2560.196511916427,None,001,31,2019_Oct_15_1703,ACPT_experiment_5_30_19,3.1.0,59.951464393544484,
,,,C,D,g,b,R,U,d,L,u,,,,,5,19,119,1,2,0,2,0,,,,,1,7,43,8,,,,,,up,0.4470273380211438,2562.218066047619,None,001,31,2019_Oct_15_1703,ACPT_experiment_5_30_19,3.1.0,59.951464393544484,
,,,C,D,g,b,L,U,y,R,u,,,,,5,19,119,1,2,0,2,0,,,,,1,8,44,25,,,,,,down,0.6671734853225644,2563.949401748723,None,001,31,2019_Oct_15_1703,ACPT_experiment_5_30_19,3.1.0,59.951464393544484,
,,,C,D,g,b,L,U,g,L,u,,,,,5,19,119,1,2,0,2,0,,,,,1,9,45,22,,,,,,up,0.567066990017338,2565.9009267627443,None,001,31,2019_Oct_15_1703,ACPT_experiment_5_30_19,3.1.0,59.951464393544484,
,,,C,D,g,b,L,D,d,L,c ,,,,,5,19,119,1,2,0,2,0,,,,,1,10,46,12,,,,,,up,0.7339138655806892,2567.752321132859,None,001,31,2019_Oct_15_1703,ACPT_experiment_5_30_19,3.1.0,59.951464393544484,
,,,C,D,g,b,L,G,y,R,y,,,,,5,19,119,1,2,0,2,0,,,,,1,11,47,35,,,,,,down,0.7839361728474614,2569.770529476078,None,001,31,2019_Oct_15_1703,ACPT_experiment_5_30_19,3.1.0,59.951464393544484,
,,,C,D,g,b,L,D,g,R,i,,,,,5,19,119,1,2,0,2,0,,,,,1,12,48,15,,,,,,up,0.46701513090374647,2571.8387948401687,None,001,31,2019_Oct_15_1703,ACPT_experiment_5_30_19,3.1.0,59.951464393544484,
,,,C,D,g,b,L,U,d,L,u,,,,,5,19,119,1,2,0,2,0,,,,,1,13,49,20,,,,,,up,0.5337696984643117,2573.590139766038,None,001,31,2019_Oct_15_1703,ACPT_experiment_5_30_19,3.1.0,59.951464393544484,
,,,C,D,g,b,R,G,d,L,i,,,,,5,19,119,1,2,0,2,0,,,,,1,14,50,4,,,,,,up,0.6471515825469396,2575.4282490879377,None,001,31,2019_Oct_15_1703,ACPT_experiment_5_30_19,3.1.0,59.951464393544484,
,,,C,D,g,b,L,D,y,R,y,,,,,5,19,119,1,2,0,2,0,,,,,1,15,51,33,,,,,,down,0.6171348777570529,2577.3597011852726,None,001,31,2019_Oct_15_1703,ACPT_experiment_5_30_19,3.1.0,59.951464393544484,
,,,C,D,g,b,R,D,y,L,y,,,,,5,19,119,1,2,0,2,0,,,,,1,16,52,26,,,,,,down,0.750575189373194,2579.261159217127,None,001,31,2019_Oct_15_1703,ACPT_experiment_5_30_19,3.1.0,59.951464393544484,
,,,C,D,g,b,L,G,d,L,i,,,,,5,19,119,1,2,0,2,0,,,,,1,17,53,16,,,,,,up,0.4837042255785491,2581.296057560594,None,001,31,2019_Oct_15_1703,ACPT_experiment_5_30_19,3.1.0,59.951464393544484,
,,,C,D,g,b,L,D,y,L,y,,,,,5,19,119,1,2,0,2,0,,,,,1,18,54,32,,,,,,down,0.6004620833809895,2583.064076488263,None,001,31,2019_Oct_15_1703,ACPT_experiment_5_30_19,3.1.0,59.951464393544484,
,,,C,D,g,b,L,U,g,R,u,,,,,5,19,119,1,2,0,2,0,,,,,1,19,55,23,,,,,,up,0.6004684223917138,2584.948866253606,None,001,31,2019_Oct_15_1703,ACPT_experiment_5_30_19,3.1.0,59.951464393544484,
,,,C,D,g,b,R,G,g,L,c ,,,,,5,19,119,1,2,0,2,0,,,,,1,20,56,6,,,,,,up,0.6838876341680589,2586.833623720202,None,001,31,2019_Oct_15_1703,ACPT_experiment_5_30_19,3.1.0,59.951464393544484,
,,,C,D,g,b,L,U,d,R,u,,,,,5,19,119,1,2,0,2,0,,,,,1,21,57,21,,,,,,up,0.6837249330019404,2588.8353117070583,None,001,31,2019_Oct_15_1703,ACPT_experiment_5_30_19,3.1.0,59.951464393544484,
,,,C,D,g,b,L,D,g,L,i,,,,,5,19,119,1,2,0,2,0,,,,,1,22,58,14,,,,,,up,0.417069193576026,2590.803352549581,None,001,31,2019_Oct_15_1703,ACPT_experiment_5_30_19,3.1.0,59.951464393544484,
,,,C,D,g,b,L,G,g,R,c ,,,,,5,19,119,1,2,0,2,0,,,,,1,23,59,19,,,,,,up,0.4503538071148796,2592.487975206637,None,001,31,2019_Oct_15_1703,ACPT_experiment_5_30_19,3.1.0,59.951464393544484,
,,,C,D,g,b,L,D,d,R,c ,,,,,5,19,119,1,2,0,2,0,,,,,1,24,60,13,,,,,,up,0.4502185749806813,2594.2226554882836,None,001,31,2019_Oct_15_1703,ACPT_experiment_5_30_19,3.1.0,59.951464393544484,
,,,C,D,g,b,R,D,g,L,i,,,,,5,19,119,1,2,0,2,0,,,,,1,25,61,2,,,,,,up,0.630481504893396,2595.9773332222503,None,001,31,2019_Oct_15_1703,ACPT_experiment_5_30_19,3.1.0,59.951464393544484,
,,,C,D,g,b,L,G,y,L,y,,,,,5,19,119,1,2,0,2,0,,,,,1,26,62,34,,,,,,down,0.6838556372749736,2597.8921333533763,None,001,31,2019_Oct_15_1703,ACPT_experiment_5_30_19,3.1.0,59.951464393544484,
,,,C,D,g,b,R,D,d,R,c ,,,,,5,19,119,1,2,0,2,0,,,,,1,27,63,1,,,,,,up,0.6671795224756352,2599.8603118428946,None,001,31,2019_Oct_15_1703,ACPT_experiment_5_30_19,3.1.0,59.951464393544484,
,,,C,D,g,b,R,G,d,R,i,,,,,5,19,119,1,2,0,2,0,,,,,1,28,64,5,,,,,,up,0.4670477315085009,2601.7951039929103,None,001,31,2019_Oct_15_1703,ACPT_experiment_5_30_19,3.1.0,59.951464393544484,
,,,C,D,g,b,R,U,y,L,u,,,,,5,19,119,1,2,0,2,0,,,,,1,29,65,30,,,,,,down,0.6171418204758083,2603.546477595235,None,001,31,2019_Oct_15_1703,ACPT_experiment_5_30_19,3.1.0,59.951464393544484,
,,,C,D,g,b,R,G,y,R,y,,,,,5,19,119,1,2,0,2,0,,,,,1,30,66,29,,,,,,down,0.7337086025145254,2605.464771122628,None,001,31,2019_Oct_15_1703,ACPT_experiment_5_30_19,3.1.0,59.951464393544484,
,,,C,D,g,b,L,U,y,L,u,,,,,5,19,119,1,2,0,2,0,,,,,1,31,67,24,,,,,,down,0.6171391037605645,2607.4995109909323,None,001,31,2019_Oct_15_1703,ACPT_experiment_5_30_19,3.1.0,59.951464393544484,
,,,C,D,g,b,L,G,d,R,i,,,,,5,19,119,1,2,0,2,0,,,,,1,32,68,17,,,,,,up,0.717194887016376,2609.4009958880997,None,001,31,2019_Oct_15_1703,ACPT_experiment_5_30_19,3.1.0,59.951464393544484,
,,,C,D,g,b,R,D,g,R,i,,,,,5,19,119,1,2,0,2,0,,,,,1,33,69,3,,,,,,up,0.5670923460420454,2611.402512419925,None,001,31,2019_Oct_15_1703,ACPT_experiment_5_30_19,3.1.0,59.951464393544484,
,,,C,D,g,b,R,U,g,R,u,,,,,5,19,119,1,2,0,2,0,,,,,1,34,70,11,,,,,,up,0.6338170297094621,2613.2539363720716,None,001,31,2019_Oct_15_1703,ACPT_experiment_5_30_19,3.1.0,59.951464393544484,
,,,C,D,g,b,R,U,y,R,u,,,,,5,19,119,1,2,0,2,0,,,,,1,35,71,31,,,,,,down,0.6001904116783408,2615.1723446052965,None,001,31,2019_Oct_15_1703,ACPT_experiment_5_30_19,3.1.0,59.951464393544484,
,,,C,D,g,b,,,,,,,,,,5,19,119,1,3,0,3,0,0,0,0,0,,,,,,,,,,,,,,001,31,2019_Oct_15_1703,ACPT_experiment_5_30_19,3.1.0,59.951464393544484,
,,,C,D,g,b,L,D,y,R,y,,,,,5,19,119,1,3,0,3,0,,,,,0,0,0,33,,,,,,down,0.9504603627974575,2718.8853512202004,None,001,31,2019_Oct_15_1703,ACPT_experiment_5_30_19,3.1.0,59.951464393544484,
,,,C,D,g,b,R,G,g,L,c ,,,,,5,19,119,1,3,0,3,0,,,,,0,1,1,6,,,,,,up,0.5837618199839198,2721.120145302102,None,001,31,2019_Oct_15_1703,ACPT_experiment_5_30_19,3.1.0,59.951464393544484,
,,,C,D,g,b,L,U,g,R,u,,,,,5,19,119,1,3,0,3,0,,,,,0,2,2,23,,,,,,up,0.48369909400571487,2722.988228766895,None,001,31,2019_Oct_15_1703,ACPT_experiment_5_30_19,3.1.0,59.951464393544484,
,,,C,D,g,b,R,D,y,R,y,,,,,5,19,119,1,3,0,3,0,,,,,0,3,3,27,,,,,,down,0.8506475747853983,2724.7562603725783,None,001,31,2019_Oct_15_1703,ACPT_experiment_5_30_19,3.1.0,59.951464393544484,
,,,C,D,g,b,R,G,d,R,i,,,,,5,19,119,1,3,0,3,0,,,,,0,4,4,5,,,,,,up,0.5504325315378082,2726.891209065867,None,001,31,2019_Oct_15_1703,ACPT_experiment_5_30_19,3.1.0,59.951464393544484,
,,,C,D,g,b,L,D,d,L,c ,,,,,5,19,119,1,3,0,3,0,,,,,0,5,5,12,,,,,,up,0.5504017420789751,2728.7259873908115,None,001,31,2019_Oct_15_1703,ACPT_experiment_5_30_19,3.1.0,59.951464393544484,
,,,C,D,g,b,R,U,g,L,u,,,,,5,19,119,1,3,0,3,0,,,,,0,6,6,10,,,,,,up,0.40030674754234497,2730.560713796276,None,001,31,2019_Oct_15_1703,ACPT_experiment_5_30_19,3.1.0,59.951464393544484,
,,,C,D,g,b,L,D,g,L,i,,,,,5,19,119,1,3,0,3,0,,,,,0,7,7,14,,,,,,up,0.4500640239639324,2732.2622978234285,None,001,31,2019_Oct_15_1703,ACPT_experiment_5_30_19,3.1.0,59.951464393544484,
,,,C,D,g,b,R,U,d,R,u,,,,,5,19,119,1,3,0,3,0,,,,,0,8,8,9,,,,,,up,0.48369728285979363,2733.996690434924,None,001,31,2019_Oct_15_1703,ACPT_experiment_5_30_19,3.1.0,59.951464393544484,
,,,C,D,g,b,R,D,g,L,i,,,,,5,19,119,1,3,0,3,0,,,,,0,9,9,2,,,,,,up,0.667174390899163,2735.7647132867387,None,001,31,2019_Oct_15_1703,ACPT_experiment_5_30_19,3.1.0,59.951464393544484,
,,,C,D,g,b,R,U,g,R,u,,,,,5,19,119,1,3,0,3,0,,,,,0,10,10,11,,,,,,up,0.5337250235606916,2737.716223207888,None,001,31,2019_Oct_15_1703,ACPT_experiment_5_30_19,3.1.0,59.951464393544484,
,,,C,D,g,b,R,G,y,R,y,,,,,5,19,119,1,3,0,3,0,,,,,0,11,11,29,,,,,,down,0.6335417357149709,2739.551226114774,None,001,31,2019_Oct_15_1703,ACPT_experiment_5_30_19,3.1.0,59.951464393544484,
,,,C,D,g,b,L,U,d,L,u,,,,,5,19,119,1,3,0,3,0,,,,,0,12,12,20,,,,,,up,0.500406300125178,2741.4690650448465,None,001,31,2019_Oct_15_1703,ACPT_experiment_5_30_19,3.1.0,59.951464393544484,
,,,C,D,g,b,L,D,y,L,y,,,,,5,19,119,1,3,0,3,0,,,,,0,13,13,32,,,,,,down,0.6836724098066043,2743.2706384466182,None,001,31,2019_Oct_15_1703,ACPT_experiment_5_30_19,3.1.0,59.951464393544484,
,,,C,D,g,b,R,D,d,R,c ,,,,,5,19,119,1,3,0,3,0,,,,,0,14,14,1,,,,,,up,0.4670148290460929,2745.2553384999264,None,001,31,2019_Oct_15_1703,ACPT_experiment_5_30_19,3.1.0,59.951464393544484,
,,,C,D,g,b,R,G,d,L,i,,,,,5,19,119,1,3,0,3,0,,,,,0,15,15,4,,,,,,up,0.8172908173146425,2747.00668161465,None,001,31,2019_Oct_15_1703,ACPT_experiment_5_30_19,3.1.0,59.951464393544484,
,,,C,D,g,b,L,G,y,L,y,,,,,5,19,119,1,3,0,3,0,,,,,0,16,16,34,,,,,,down,0.6669718445482431,2749.125141042896,None,001,31,2019_Oct_15_1703,ACPT_experiment_5_30_19,3.1.0,59.951464393544484,
,,,C,D,g,b,R,U,y,R,u,,,,,5,19,119,1,3,0,3,0,,,,,0,17,17,31,,,,,,down,0.7505773023731308,2751.0931520015256,None,001,31,2019_Oct_15_1703,ACPT_experiment_5_30_19,3.1.0,59.951464393544484,
,,,C,D,g,b,L,D,d,R,c ,,,,,5,19,119,1,3,0,3,0,,,,,0,18,18,13,,,,,,up,0.4836984902904078,2753.1280545709997,None,001,31,2019_Oct_15_1703,ACPT_experiment_5_30_19,3.1.0,59.951464393544484,
,,,C,D,g,b,L,D,g,R,i,,,,,5,19,119,1,3,0,3,0,,,,,0,19,19,15,,,,,,up,0.4170045960818243,2754.879372329695,None,001,31,2019_Oct_15_1703,ACPT_experiment_5_30_19,3.1.0,59.951464393544484,
,,,C,D,g,b,L,G,g,R,c ,,,,,5,19,119,1,3,0,3,0,,,,,0,20,20,19,,,,,,up,0.45034475139254937,2756.580700079874,None,001,31,2019_Oct_15_1703,ACPT_experiment_5_30_19,3.1.0,59.951464393544484,
,,,C,D,g,b,L,G,g,L,c ,,,,,5,19,119,1,3,0,3,0,,,,,0,21,21,18,,,,,,up,0.5137215340873809,2758.33538385099,None,001,31,2019_Oct_15_1703,ACPT_experiment_5_30_19,3.1.0,59.951464393544484,
,,,C,D,g,b,R,G,y,L,y,,,,,5,19,119,1,3,0,3,0,,,,,0,22,22,28,,,,,,down,0.5504144200931478,2760.1501067669815,None,001,31,2019_Oct_15_1703,ACPT_experiment_5_30_19,3.1.0,59.951464393544484,
,,,C,D,g,b,L,U,y,L,u,,,,,5,19,119,1,3,0,3,0,,,,,0,23,23,24,,,,,,down,0.6338487247412559,2762.0015283042667,None,001,31,2019_Oct_15_1703,ACPT_experiment_5_30_19,3.1.0,59.951464393544484,
,,,C,D,g,b,R,D,d,L,c,,,,,5,19,119,1,3,0,3,0,,,,,0,24,24,0,,,,,,up,0.48375222091635806,2763.9196527914864,None,001,31,2019_Oct_15_1703,ACPT_experiment_5_30_19,3.1.0,59.951464393544484,
,,,C,D,g,b,L,G,y,R,y,,,,,5,19,119,1,3,0,3,0,,,,,0,25,25,35,,,,,,down,0.5837639329874946,2765.704384962428,None,001,31,2019_Oct_15_1703,ACPT_experiment_5_30_19,3.1.0,59.951464393544484,
,,,C,D,g,b,R,U,d,L,u,,,,,5,19,119,1,3,0,3,0,,,,,0,26,26,8,,,,,,up,1.0341355496930191,2767.572459975214,None,001,31,2019_Oct_15_1703,ACPT_experiment_5_30_19,3.1.0,59.951464393544484,
,,,C,D,g,b,L,G,d,L,i,,,,,5,19,119,1,3,0,3,0,,,,,0,27,27,16,,,,,,up,0.4169698824734951,2769.8909307532995,None,001,31,2019_Oct_15_1703,ACPT_experiment_5_30_19,3.1.0,59.951464393544484,
,,,C,D,g,b,R,D,g,R,i,,,,,5,19,119,1,3,0,3,0,,,,,0,28,28,3,,,,,,up,0.5837754035710532,2771.592232543735,None,001,31,2019_Oct_15_1703,ACPT_experiment_5_30_19,3.1.0,59.951464393544484,
,,,C,D,g,b,R,U,y,L,u,,,,,5,19,119,1,3,0,3,0,,,,,0,29,29,30,,,,,,down,1.1175115958540118,2773.4770171775017,None,001,31,2019_Oct_15_1703,ACPT_experiment_5_30_19,3.1.0,59.951464393544484,
,,,C,D,g,b,L,U,d,R,u,,,,,5,19,119,1,3,0,3,0,,,,,0,30,30,21,,,,,,up,0.4503287529478257,2775.9122189480768,None,001,31,2019_Oct_15_1703,ACPT_experiment_5_30_19,3.1.0,59.951464393544484,
,,,C,D,g,b,L,U,g,L,u,,,,,5,19,119,1,3,0,3,0,,,,,0,31,31,22,,,,,,up,0.5337600390266743,2777.6468599882537,None,001,31,2019_Oct_15_1703,ACPT_experiment_5_30_19,3.1.0,59.951464393544484,
,,,C,D,g,b,L,U,y,R,u,,,,,5,19,119,1,3,0,3,0,,,,,0,32,32,25,,,,,,down,0.5671457748103421,2779.4482426161157,None,001,31,2019_Oct_15_1703,ACPT_experiment_5_30_19,3.1.0,59.951464393544484,
,,,C,D,g,b,L,G,d,R,i,,,,,5,19,119,1,3,0,3,0,,,,,0,33,33,17,,,,,,up,0.6004611778116669,2781.2996901131446,None,001,31,2019_Oct_15_1703,ACPT_experiment_5_30_19,3.1.0,59.951464393544484,
,,,C,D,g,b,R,D,y,L,y,,,,,5,19,119,1,3,0,3,0,,,,,0,34,34,26,,,,,,down,0.7338912262712256,2783.1844672004736,None,001,31,2019_Oct_15_1703,ACPT_experiment_5_30_19,3.1.0,59.951464393544484,
,,,C,D,g,b,R,G,g,R,c ,,,,,5,19,119,1,3,0,3,0,,,,,0,35,35,7,,,,,,up,0.5003899998228007,2785.2026824864115,None,001,31,2019_Oct_15_1703,ACPT_experiment_5_30_19,3.1.0,59.951464393544484,
,,,C,D,g,b,R,G,g,R,c ,,,,,5,19,119,1,3,0,3,0,,,,,1,0,36,7,,,,,,up,0.383640895888675,2786.97069084907,None,001,31,2019_Oct_15_1703,ACPT_experiment_5_30_19,3.1.0,59.951464393544484,
,,,C,D,g,b,R,U,y,R,u,,,,,5,19,119,1,3,0,3,0,,,,,1,1,37,31,,,,,,down,0.5337482665818243,2788.638652786056,None,001,31,2019_Oct_15_1703,ACPT_experiment_5_30_19,3.1.0,59.951464393544484,
,,,C,D,g,b,R,G,d,L,i,,,,,5,19,119,1,3,0,3,0,,,,,1,2,38,4,,,,,,up,0.4803617580437276,2790.476732827785,None,001,31,2019_Oct_15_1703,ACPT_experiment_5_30_19,3.1.0,59.951464393544484,
,,,C,D,g,b,R,D,y,L,y,,,,,5,19,119,1,3,0,3,0,,,,,1,3,39,26,,,,,,down,0.6004644982458558,2792.2414267956447,None,001,31,2019_Oct_15_1703,ACPT_experiment_5_30_19,3.1.0,59.951464393544484,
,,,C,D,g,b,L,G,y,L,y,,,,,5,19,119,1,3,0,3,0,,,,,1,4,40,34,,,,,,down,0.583784761151037,2794.1262002606854,None,001,31,2019_Oct_15_1703,ACPT_experiment_5_30_19,3.1.0,59.951464393544484,
,,,C,D,g,b,R,D,d,L,c,,,,,5,19,119,1,3,0,3,0,,,,,1,5,41,0,,,,,,up,0.5170796982129104,2795.994307572215,None,001,31,2019_Oct_15_1703,ACPT_experiment_5_30_19,3.1.0,59.951464393544484,
,,,C,D,g,b,L,D,g,R,i,,,,,5,19,119,1,3,0,3,0,,,,,1,6,42,15,,,,,,up,0.5668300319193804,2797.829309271674,None,001,31,2019_Oct_15_1703,ACPT_experiment_5_30_19,3.1.0,59.951464393544484,
,,,C,D,g,b,L,D,y,L,y,,,,,5,19,119,1,3,0,3,0,,,,,1,7,43,32,,,,,,down,0.8172784411617613,2799.6804766449895,None,001,31,2019_Oct_15_1703,ACPT_experiment_5_30_19,3.1.0,59.951464393544484,
,,,C,D,g,b,L,U,y,L,u,,,,,5,19,119,1,3,0,3,0,,,,,1,8,44,24,,,,,,down,0.5670953646149428,2801.782084579252,None,001,31,2019_Oct_15_1703,ACPT_experiment_5_30_19,3.1.0,59.951464393544484,
,,,C,D,g,b,R,G,y,L,y,,,,,5,19,119,1,3,0,3,0,,,,,1,9,45,28,,,,,,down,0.5838176636098069,2803.650190683351,None,001,31,2019_Oct_15_1703,ACPT_experiment_5_30_19,3.1.0,59.951464393544484,
,,,C,D,g,b,R,U,g,L,u,,,,,5,19,119,1,3,0,3,0,,,,,1,10,46,10,,,,,,up,0.450316074933653,2805.551665619223,None,001,31,2019_Oct_15_1703,ACPT_experiment_5_30_19,3.1.0,59.951464393544484,
,,,C,D,g,b,L,G,g,L,c ,,,,,5,19,119,1,3,0,3,0,,,,,1,11,47,18,,,,,,up,0.5170812075011781,2807.286317828126,None,001,31,2019_Oct_15_1703,ACPT_experiment_5_30_19,3.1.0,59.951464393544484,
,,,C,D,g,b,L,U,d,L,u,,,,,5,19,119,1,3,0,3,0,,,,,1,12,48,20,,,,,,up,0.43368312574602896,2809.0876980411267,None,001,31,2019_Oct_15_1703,ACPT_experiment_5_30_19,3.1.0,59.951464393544484,
,,,C,D,g,b,L,U,g,L,u,,,,,5,19,119,1,3,0,3,0,,,,,1,13,49,22,,,,,,up,0.6004756669681228,2810.788985342406,None,001,31,2019_Oct_15_1703,ACPT_experiment_5_30_19,3.1.0,59.951464393544484,
,,,C,D,g,b,L,D,d,R,c ,,,,,5,19,119,1,3,0,3,0,,,,,1,14,50,13,,,,,,up,0.6500596772202698,2812.6908846898514,None,001,31,2019_Oct_15_1703,ACPT_experiment_5_30_19,3.1.0,59.951464393544484,
,,,C,D,g,b,R,G,y,R,y,,,,,5,19,119,1,3,0,3,0,,,,,1,15,51,29,,,,,,down,0.5503957049331802,2814.625304045916,None,001,31,2019_Oct_15_1703,ACPT_experiment_5_30_19,3.1.0,59.951464393544484,
,,,C,D,g,b,L,D,y,R,y,,,,,5,19,119,1,3,0,3,0,,,,,1,16,52,33,,,,,,down,0.4336683347282815,2816.44333954556,None,001,31,2019_Oct_15_1703,ACPT_experiment_5_30_19,3.1.0,59.951464393544484,
,,,C,D,g,b,L,D,d,L,c ,,,,,5,19,119,1,3,0,3,0,,,,,1,17,53,12,,,,,,up,0.7005589192522166,2818.144626846839,None,001,31,2019_Oct_15_1703,ACPT_experiment_5_30_19,3.1.0,59.951464393544484,
,,,C,D,g,b,L,U,d,R,u,,,,,5,19,119,1,3,0,3,0,,,,,1,18,54,21,,,,,,up,0.45036074983727303,2820.129491714317,None,001,31,2019_Oct_15_1703,ACPT_experiment_5_30_19,3.1.0,59.951464393544484,
,,,C,D,g,b,R,U,y,L,u,,,,,5,19,119,1,3,0,3,0,,,,,1,19,55,30,,,,,,down,0.6838610707127373,2821.8641729015326,None,001,31,2019_Oct_15_1703,ACPT_experiment_5_30_19,3.1.0,59.951464393544484,
,,,C,D,g,b,R,D,y,R,y,,,,,5,19,119,1,3,0,3,0,,,,,1,20,56,27,,,,,,down,0.6171348777570529,2823.8156776911055,None,001,31,2019_Oct_15_1703,ACPT_experiment_5_30_19,3.1.0,59.951464393544484,
,,,C,D,g,b,R,D,g,R,i,,,,,5,19,119,1,3,0,3,0,,,,,1,21,57,3,,,,,,up,0.49705538057605736,2825.737137703145,None,001,31,2019_Oct_15_1703,ACPT_experiment_5_30_19,3.1.0,59.951464393544484,
,,,C,D,g,b,L,D,g,L,i,,,,,5,19,119,1,3,0,3,0,,,,,1,22,58,14,,,,,,up,0.7339129600077285,2827.5185168415337,None,001,31,2019_Oct_15_1703,ACPT_experiment_5_30_19,3.1.0,59.951464393544484,
,,,C,D,g,b,R,U,d,L,u,,,,,5,19,119,1,3,0,3,0,,,,,1,23,59,8,,,,,,up,0.7003385633179278,2829.5368951304954,None,001,31,2019_Oct_15_1703,ACPT_experiment_5_30_19,3.1.0,59.951464393544484,
,,,C,D,g,b,R,U,g,R,u,,,,,5,19,119,1,3,0,3,0,,,,,1,24,60,11,,,,,,up,0.7339102432888467,2831.5215954856612,None,001,31,2019_Oct_15_1703,ACPT_experiment_5_30_19,3.1.0,59.951464393544484,
,,,C,D,g,b,L,G,g,R,c ,,,,,5,19,119,1,3,0,3,0,,,,,1,25,61,19,,,,,,up,0.9173668250186893,2833.539814393891,None,001,31,2019_Oct_15_1703,ACPT_experiment_5_30_19,3.1.0,59.951464393544484,
,,,C,D,g,b,R,D,d,R,c ,,,,,5,19,119,1,3,0,3,0,,,,,1,26,62,1,,,,,,up,0.43366078829421895,2835.74150316558,None,001,31,2019_Oct_15_1703,ACPT_experiment_5_30_19,3.1.0,59.951464393544484,
,,,C,D,g,b,R,D,g,L,i,,,,,5,19,119,1,3,0,3,0,,,,,1,27,63,2,,,,,,up,0.6004448775092897,2837.4595012952705,None,001,31,2019_Oct_15_1703,ACPT_experiment_5_30_19,3.1.0,59.951464393544484,
,,,C,D,g,b,L,U,y,R,u,,,,,5,19,119,1,3,0,3,0,,,,,1,28,64,25,,,,,,down,1.9014580318544176,2839.3442699305924,None,001,31,2019_Oct_15_1703,ACPT_experiment_5_30_19,3.1.0,59.951464393544484,
,,,C,D,g,b,L,G,d,L,i,,,,,5,19,119,1,3,0,3,0,,,,,1,29,65,16,,,,,,up,0.6170020604804449,2842.530152540643,None,001,31,2019_Oct_15_1703,ACPT_experiment_5_30_19,3.1.0,59.951464393544484,
,,,C,D,g,b,L,U,g,R,u,,,,,5,19,119,1,3,0,3,0,,,,,1,30,66,23,,,,,,up,0.45033811053144746,2844.4315094502526,None,001,31,2019_Oct_15_1703,ACPT_experiment_5_30_19,3.1.0,59.951464393544484,
,,,C,D,g,b,L,G,d,R,i,,,,,5,19,119,1,3,0,3,0,,,,,1,31,67,17,,,,,,up,0.5003803403888014,2846.1661764501696,None,001,31,2019_Oct_15_1703,ACPT_experiment_5_30_19,3.1.0,59.951464393544484,
,,,C,D,g,b,L,G,y,R,y,,,,,5,19,119,1,3,0,3,0,,,,,1,32,68,35,,,,,,down,0.7172208467600285,2847.950870587072,None,001,31,2019_Oct_15_1703,ACPT_experiment_5_30_19,3.1.0,59.951464393544484,
,,,C,D,g,b,R,G,d,R,i,,,,,5,19,119,1,3,0,3,0,,,,,1,33,69,5,,,,,,up,0.48369818843275425,2849.969108210462,None,001,31,2019_Oct_15_1703,ACPT_experiment_5_30_19,3.1.0,59.951464393544484,
,,,C,D,g,b,R,U,d,R,u,,,,,5,19,119,1,3,0,3,0,,,,,1,34,70,9,,,,,,up,0.433661392009526,2851.7371177805508,None,001,31,2019_Oct_15_1703,ACPT_experiment_5_30_19,3.1.0,59.951464393544484,
,,,C,D,g,b,R,G,g,L,c ,,,,,5,19,119,1,3,0,3,0,,,,,1,35,71,6,,,,,,up,0.597126860422577,2853.475116984857,None,001,31,2019_Oct_15_1703,ACPT_experiment_5_30_19,3.1.0,59.951464393544484,
,,,C,D,g,b,,,,,,,,,,5,19,119,1,4,0,4,0,0,0,0,0,,,,,,,,,,,,,,001,31,2019_Oct_15_1703,ACPT_experiment_5_30_19,3.1.0,59.951464393544484,
,,,C,D,g,b,L,U,d,L,u,,,,,5,19,119,1,4,0,4,0,,,,,0,0,0,20,,,,,,up,0.6638452050865453,2936.8224761245874,None,001,31,2019_Oct_15_1703,ACPT_experiment_5_30_19,3.1.0,59.951464393544484,
,,,C,D,g,b,R,U,d,R,u,,,,,5,19,119,1,4,0,4,0,,,,,0,1,1,9,,,,,,up,0.567100496191415,2938.770648106056,None,001,31,2019_Oct_15_1703,ACPT_experiment_5_30_19,3.1.0,59.951464393544484,
,,,C,D,g,b,L,U,g,L,u,,,,,5,19,119,1,4,0,4,0,,,,,0,2,2,22,,,,,,up,0.40032516084465897,2940.622040665028,None,001,31,2019_Oct_15_1703,ACPT_experiment_5_30_19,3.1.0,59.951464393544484,
,,,C,D,g,b,L,G,g,R,c ,,,,,5,19,119,1,4,0,4,0,,,,,0,3,3,19,,,,,,up,0.45034233653495903,2942.3066935078314,None,001,31,2019_Oct_15_1703,ACPT_experiment_5_30_19,3.1.0,59.951464393544484,
,,,C,D,g,b,L,U,d,R,u,,,,,5,19,119,1,4,0,4,0,,,,,0,4,4,21,,,,,,up,0.4167051534932398,2944.058317651841,None,001,31,2019_Oct_15_1703,ACPT_experiment_5_30_19,3.1.0,59.951464393544484,
,,,C,D,g,b,L,U,y,L,u,,,,,5,19,119,1,4,0,4,0,,,,,0,5,5,24,,,,,,down,0.7005344688004698,2945.7593483742858,None,001,31,2019_Oct_15_1703,ACPT_experiment_5_30_19,3.1.0,59.951464393544484,
,,,C,D,g,b,L,D,g,R,i,,,,,5,19,119,1,4,0,4,0,,,,,0,6,6,15,,,,,,up,0.467037770216848,2947.74421112876,None,001,31,2019_Oct_15_1703,ACPT_experiment_5_30_19,3.1.0,59.951464393544484,
,,,C,D,g,b,L,G,y,R,y,,,,,5,19,119,1,4,0,4,0,,,,,0,7,7,35,,,,,,down,0.5671017036220292,2949.495551224907,None,001,31,2019_Oct_15_1703,ACPT_experiment_5_30_19,3.1.0,59.951464393544484,
,,,C,D,g,b,L,G,y,L,y,,,,,5,19,119,1,4,0,4,0,,,,,0,8,8,34,,,,,,down,0.6805336960460409,2951.3669780628115,None,001,31,2019_Oct_15_1703,ACPT_experiment_5_30_19,3.1.0,59.951464393544484,
,,,C,D,g,b,L,G,d,L,i,,,,,5,19,119,1,4,0,4,0,,,,,0,9,9,16,,,,,,up,0.46701271604615613,2953.331848798396,None,001,31,2019_Oct_15_1703,ACPT_experiment_5_30_19,3.1.0,59.951464393544484,
,,,C,D,g,b,L,D,d,L,c ,,,,,5,19,119,1,4,0,4,0,,,,,0,10,10,12,,,,,,up,0.4170039923665172,2955.0831762165326,None,001,31,2019_Oct_15_1703,ACPT_experiment_5_30_19,3.1.0,59.951464393544484,
,,,C,D,g,b,L,U,y,R,u,,,,,5,19,119,1,4,0,4,0,,,,,0,11,11,25,,,,,,down,0.6336437635363836,2956.80131772851,None,001,31,2019_Oct_15_1703,ACPT_experiment_5_30_19,3.1.0,59.951464393544484,
,,,C,D,g,b,R,D,g,L,i,,,,,5,19,119,1,4,0,4,0,,,,,0,12,12,2,,,,,,up,0.6171336703264387,2958.7526730986465,None,001,31,2019_Oct_15_1703,ACPT_experiment_5_30_19,3.1.0,59.951464393544484,
,,,C,D,g,b,L,D,g,L,i,,,,,5,19,119,1,4,0,4,0,,,,,0,13,13,14,,,,,,up,0.517065510914108,2960.6374375079613,None,001,31,2019_Oct_15_1703,ACPT_experiment_5_30_19,3.1.0,59.951464393544484,
,,,C,D,g,b,L,G,d,R,i,,,,,5,19,119,1,4,0,4,0,,,,,0,14,14,17,,,,,,up,0.7338963578476978,2962.4388279841187,None,001,31,2019_Oct_15_1703,ACPT_experiment_5_30_19,3.1.0,59.951464393544484,
,,,C,D,g,b,L,D,y,R,y,,,,,5,19,119,1,4,0,4,0,,,,,0,15,15,33,,,,,,down,0.9340477695477603,2964.4570414589143,None,001,31,2019_Oct_15_1703,ACPT_experiment_5_30_19,3.1.0,59.951464393544484,
,,,C,D,g,b,R,D,y,R,y,,,,,5,19,119,1,4,0,4,0,,,,,0,16,16,27,,,,,,down,0.5337325699983921,2966.6754226457087,None,001,31,2019_Oct_15_1703,ACPT_experiment_5_30_19,3.1.0,59.951464393544484,
,,,C,D,g,b,L,D,y,L,y,,,,,5,19,119,1,4,0,4,0,,,,,0,17,17,32,,,,,,down,0.8673574976273812,2968.493453315634,None,001,31,2019_Oct_15_1703,ACPT_experiment_5_30_19,3.1.0,59.951464393544484,
,,,C,D,g,b,R,U,y,L,u,,,,,5,19,119,1,4,0,4,0,,,,,0,18,18,30,,,,,,down,0.5504663395768148,2970.6451333636396,None,001,31,2019_Oct_15_1703,ACPT_experiment_5_30_19,3.1.0,59.951464393544484,
,,,C,D,g,b,R,G,d,L,i,,,,,5,19,119,1,4,0,4,0,,,,,0,19,19,4,,,,,,up,0.5835918742377544,2972.5133991503317,None,001,31,2019_Oct_15_1703,ACPT_experiment_5_30_19,3.1.0,59.951464393544484,
,,,C,D,g,b,L,U,g,R,u,,,,,5,19,119,1,4,0,4,0,,,,,0,20,20,23,,,,,,up,0.5671143816362019,2974.381313876809,None,001,31,2019_Oct_15_1703,ACPT_experiment_5_30_19,3.1.0,59.951464393544484,
,,,C,D,g,b,R,D,d,R,c ,,,,,5,19,119,1,4,0,4,0,,,,,0,21,21,1,,,,,,up,0.5003658512287075,2976.232764090557,None,001,31,2019_Oct_15_1703,ACPT_experiment_5_30_19,3.1.0,59.951464393544484,
,,,C,D,g,b,R,G,y,R,y,,,,,5,19,119,1,4,0,4,0,,,,,0,22,22,29,,,,,,down,0.7172344303435239,2978.0174416252994,None,001,31,2019_Oct_15_1703,ACPT_experiment_5_30_19,3.1.0,59.951464393544484,
,,,C,D,g,b,R,U,y,R,u,,,,,5,19,119,1,4,0,4,0,,,,,0,23,23,31,,,,,,down,0.5501834991446231,2980.035914093787,None,001,31,2019_Oct_15_1703,ACPT_experiment_5_30_19,3.1.0,59.951464393544484,
,,,C,D,g,b,R,G,d,R,i,,,,,5,19,119,1,4,0,4,0,,,,,0,24,24,5,,,,,,up,0.6004738558258396,2981.870411087588,None,001,31,2019_Oct_15_1703,ACPT_experiment_5_30_19,3.1.0,59.951464393544484,
,,,C,D,g,b,L,G,g,L,c ,,,,,5,19,119,1,4,0,4,0,,,,,0,25,25,18,,,,,,up,0.600454536946927,2983.7552017585003,None,001,31,2019_Oct_15_1703,ACPT_experiment_5_30_19,3.1.0,59.951464393544484,
,,,C,D,g,b,R,G,g,R,c ,,,,,5,19,119,1,4,0,4,0,,,,,0,26,26,7,,,,,,up,0.567097175764502,2985.6399749216835,None,001,31,2019_Oct_15_1703,ACPT_experiment_5_30_19,3.1.0,59.951464393544484,
,,,C,D,g,b,L,D,d,R,c ,,,,,5,19,119,1,4,0,4,0,,,,,0,27,27,13,,,,,,up,0.45034626068081707,2987.491397666403,None,001,31,2019_Oct_15_1703,ACPT_experiment_5_30_19,3.1.0,59.951464393544484,
,,,C,D,g,b,R,U,g,R,u,,,,,5,19,119,1,4,0,4,0,,,,,0,28,28,11,,,,,,up,0.5003839626733679,2989.2260661756045,None,001,31,2019_Oct_15_1703,ACPT_experiment_5_30_19,3.1.0,59.951464393544484,
,,,C,D,g,b,R,U,g,L,u,,,,,5,19,119,1,4,0,4,0,,,,,0,29,29,10,,,,,,up,0.4671733042123378,2990.9939384005556,None,001,31,2019_Oct_15_1703,ACPT_experiment_5_30_19,3.1.0,59.951464393544484,
,,,C,D,g,b,R,D,g,R,i,,,,,5,19,119,1,4,0,4,0,,,,,0,30,30,3,,,,,,up,0.44701435814931756,2992.7654492152033,None,001,31,2019_Oct_15_1703,ACPT_experiment_5_30_19,3.1.0,59.951464393544484,
,,,C,D,g,b,R,U,d,L,u,,,,,5,19,119,1,4,0,4,0,,,,,0,31,31,8,,,,,,up,0.5337564167348319,2994.496759862137,None,001,31,2019_Oct_15_1703,ACPT_experiment_5_30_19,3.1.0,59.951464393544484,
,,,C,D,g,b,R,D,d,L,c,,,,,5,19,119,1,4,0,4,0,,,,,0,32,32,0,,,,,,up,0.5170673220563913,2996.314844262688,None,001,31,2019_Oct_15_1703,ACPT_experiment_5_30_19,3.1.0,59.951464393544484,
,,,C,D,g,b,R,G,g,L,c ,,,,,5,19,119,1,4,0,4,0,,,,,0,33,33,6,,,,,,up,0.4670223754874314,2998.1162287016923,None,001,31,2019_Oct_15_1703,ACPT_experiment_5_30_19,3.1.0,59.951464393544484,
,,,C,D,g,b,R,G,y,L,y,,,,,5,19,119,1,4,0,4,0,,,,,0,34,34,28,,,,,,down,0.6471651661340729,2999.8875858709,None,001,31,2019_Oct_15_1703,ACPT_experiment_5_30_19,3.1.0,59.951464393544484,
,,,C,D,g,b,R,D,y,L,y,,,,,5,19,119,1,4,0,4,0,,,,,0,35,35,26,,,,,,down,0.7670644544159586,3001.835904253232,None,001,31,2019_Oct_15_1703,ACPT_experiment_5_30_19,3.1.0,59.951464393544484,
,,,C,D,g,b,R,U,d,R,u,,,,,5,19,119,1,4,0,4,0,,,,,1,0,36,9,,,,,,up,0.467015432765038,3003.92068936997,None,001,31,2019_Oct_15_1703,ACPT_experiment_5_30_19,3.1.0,59.951464393544484,
,,,C,D,g,b,R,G,g,R,c ,,,,,5,19,119,1,4,0,4,0,,,,,1,1,37,7,,,,,,up,0.48370422558218706,3005.6720161843914,None,001,31,2019_Oct_15_1703,ACPT_experiment_5_30_19,3.1.0,59.951464393544484,
,,,C,D,g,b,L,U,g,R,u,,,,,5,19,119,1,4,0,4,0,,,,,1,2,38,23,,,,,,up,0.38364632932280074,3007.440039941779,None,001,31,2019_Oct_15_1703,ACPT_experiment_5_30_19,3.1.0,59.951464393544484,
,,,C,D,g,b,L,U,y,R,u,,,,,5,19,119,1,4,0,4,0,,,,,1,3,39,25,,,,,,down,0.7005405059462646,3009.107999765758,None,001,31,2019_Oct_15_1703,ACPT_experiment_5_30_19,3.1.0,59.951464393544484,
,,,C,D,g,b,L,G,g,R,c ,,,,,5,19,119,1,4,0,4,0,,,,,1,4,40,19,,,,,,up,0.6171798545183265,3011.0928591998018,None,001,31,2019_Oct_15_1703,ACPT_experiment_5_30_19,3.1.0,59.951464393544484,
,,,C,D,g,b,R,U,y,R,u,,,,,5,19,119,1,4,0,4,0,,,,,1,5,41,31,,,,,,down,0.5667581898451317,3013.0113335398055,None,001,31,2019_Oct_15_1703,ACPT_experiment_5_30_19,3.1.0,59.951464393544484,
,,,C,D,g,b,L,G,g,L,c ,,,,,5,19,119,1,4,0,4,0,,,,,1,6,42,18,,,,,,up,0.7339250343065942,3014.862403111307,None,001,31,2019_Oct_15_1703,ACPT_experiment_5_30_19,3.1.0,59.951464393544484,
,,,C,D,g,b,R,D,g,L,i,,,,,5,19,119,1,4,0,4,0,,,,,1,7,43,2,,,,,,up,0.4335457806046179,3016.8806434514154,None,001,31,2019_Oct_15_1703,ACPT_experiment_5_30_19,3.1.0,59.951464393544484,
,,,C,D,g,b,L,G,y,R,y,,,,,5,19,119,1,4,0,4,0,,,,,1,8,44,35,,,,,,down,0.650523028405587,3018.5986032452092,None,001,31,2019_Oct_15_1703,ACPT_experiment_5_30_19,3.1.0,59.951464393544484,
,,,C,D,g,b,R,U,y,L,u,,,,,5,19,119,1,4,0,4,0,,,,,1,9,45,30,,,,,,down,0.8504664603133278,3020.550280395386,None,001,31,2019_Oct_15_1703,ACPT_experiment_5_30_19,3.1.0,59.951464393544484,
,,,C,D,g,b,R,U,g,R,u,,,,,5,19,119,1,4,0,4,0,,,,,1,10,46,11,,,,,,up,0.4837642952152237,3022.701779630781,None,001,31,2019_Oct_15_1703,ACPT_experiment_5_30_19,3.1.0,59.951464393544484,
,,,C,D,g,b,L,G,d,L,i,,,,,5,19,119,1,4,0,4,0,,,,,1,11,47,16,,,,,,up,0.5837808370051789,3024.4698051993146,None,001,31,2019_Oct_15_1703,ACPT_experiment_5_30_19,3.1.0,59.951464393544484,
,,,C,D,g,b,R,D,y,L,y,,,,,5,19,119,1,4,0,4,0,,,,,1,12,48,26,,,,,,down,1.1006419904224458,3026.371433478769,None,001,31,2019_Oct_15_1703,ACPT_experiment_5_30_19,3.1.0,59.951464393544484,
,,,C,D,g,b,R,G,y,R,y,,,,,5,19,119,1,4,0,4,0,,,,,1,13,49,29,,,,,,down,0.6004481979398406,3028.7731139795615,None,001,31,2019_Oct_15_1703,ACPT_experiment_5_30_19,3.1.0,59.951464393544484,
,,,C,D,g,b,L,D,g,R,i,,,,,5,19,119,1,4,0,4,0,,,,,1,14,50,15,,,,,,up,0.41698799392179353,3030.6578871427446,None,001,31,2019_Oct_15_1703,ACPT_experiment_5_30_19,3.1.0,59.951464393544484,
,,,C,D,g,b,R,U,g,L,u,,,,,5,19,119,1,4,0,4,0,,,,,1,15,51,10,,,,,,up,0.6004575555198244,3032.35919617776,None,001,31,2019_Oct_15_1703,ACPT_experiment_5_30_19,3.1.0,59.951464393544484,
,,,C,D,g,b,R,D,y,R,y,,,,,5,19,119,1,4,0,4,0,,,,,1,16,52,27,,,,,,down,0.4999683049682062,3034.261049944729,None,001,31,2019_Oct_15_1703,ACPT_experiment_5_30_19,3.1.0,59.951464393544484,
,,,C,D,g,b,R,G,y,L,y,,,,,5,19,119,1,4,0,4,0,,,,,1,17,53,28,,,,,,down,0.700525111220486,3036.0453667598194,None,001,31,2019_Oct_15_1703,ACPT_experiment_5_30_19,3.1.0,59.951464393544484,
,,,C,D,g,b,L,D,d,R,c ,,,,,5,19,119,1,4,0,4,0,,,,,1,18,54,13,,,,,,up,0.43365867529428215,3038.0302210622867,None,001,31,2019_Oct_15_1703,ACPT_experiment_5_30_19,3.1.0,59.951464393544484,
,,,C,D,g,b,R,D,d,R,c ,,,,,5,19,119,1,4,0,4,0,,,,,1,19,55,1,,,,,,up,0.3836218788710539,3039.748208325109,None,001,31,2019_Oct_15_1703,ACPT_experiment_5_30_19,3.1.0,59.951464393544484,
,,,C,D,g,b,R,G,d,R,i,,,,,5,19,119,1,4,0,4,0,,,,,1,20,56,5,,,,,,up,0.38036272398676374,3041.4361628846964,None,001,31,2019_Oct_15_1703,ACPT_experiment_5_30_19,3.1.0,59.951464393544484,
,,,C,D,g,b,L,G,y,L,y,,,,,5,19,119,1,4,0,4,0,,,,,1,21,57,34,,,,,,down,0.5337144585464557,3043.117462393089,None,001,31,2019_Oct_15_1703,ACPT_experiment_5_30_19,3.1.0,59.951464393544484,
,,,C,D,g,b,L,D,g,L,i,,,,,5,19,119,1,4,0,4,0,,,,,1,22,58,14,,,,,,up,0.4836948680022033,3044.952205098856,None,001,31,2019_Oct_15_1703,ACPT_experiment_5_30_19,3.1.0,59.951464393544484,
,,,C,D,g,b,L,U,d,R,u,,,,,5,19,119,1,4,0,4,0,,,,,1,23,59,21,,,,,,up,0.4336879554648476,3046.7202001797887,None,001,31,2019_Oct_15_1703,ACPT_experiment_5_30_19,3.1.0,59.951464393544484,
,,,C,D,g,b,R,G,g,L,c ,,,,,5,19,119,1,4,0,4,0,,,,,1,24,60,6,,,,,,up,0.41671451107322355,3048.4551605851448,None,001,31,2019_Oct_15_1703,ACPT_experiment_5_30_19,3.1.0,59.951464393544484,
,,,C,D,g,b,L,D,y,R,y,,,,,5,19,119,1,4,0,4,0,,,,,1,25,61,33,,,,,,down,0.5504204572425806,3050.156203080034,None,001,31,2019_Oct_15_1703,ACPT_experiment_5_30_19,3.1.0,59.951464393544484,
,,,C,D,g,b,R,G,d,L,i,,,,,5,19,119,1,4,0,4,0,,,,,1,26,62,4,,,,,,up,0.4670229791991005,3051.990938541221,None,001,31,2019_Oct_15_1703,ACPT_experiment_5_30_19,3.1.0,59.951464393544484,
,,,C,D,g,b,R,D,d,L,c,,,,,5,19,119,1,4,0,4,0,,,,,1,27,63,0,,,,,,up,0.41693275401121355,3053.7423302549905,None,001,31,2019_Oct_15_1703,ACPT_experiment_5_30_19,3.1.0,59.951464393544484,
,,,C,D,g,b,L,U,d,L,u,,,,,5,19,119,1,4,0,4,0,,,,,1,28,64,20,,,,,,up,0.36669582609829376,3055.4605137251565,None,001,31,2019_Oct_15_1703,ACPT_experiment_5_30_19,3.1.0,59.951464393544484,
,,,C,D,g,b,L,D,d,L,c ,,,,,5,19,119,1,4,0,4,0,,,,,1,29,65,12,,,,,,down,0.4837009051516361,3057.1115393462132,None,001,31,2019_Oct_15_1703,ACPT_experiment_5_30_19,3.1.0,59.951464393544484,
,,,C,D,g,b,L,G,d,R,i,,,,,5,19,119,1,4,0,4,0,,,,,1,30,66,17,,,,,,up,0.5504280036766431,3058.8795628017433,None,001,31,2019_Oct_15_1703,ACPT_experiment_5_30_19,3.1.0,59.951464393544484,
,,,C,D,g,b,L,U,y,L,u,,,,,5,19,119,1,4,0,4,0,,,,,1,31,67,24,,,,,,down,0.6338257835777767,3060.7143088279445,None,001,31,2019_Oct_15_1703,ACPT_experiment_5_30_19,3.1.0,59.951464393544484,
,,,C,D,g,b,R,U,d,L,u,,,,,5,19,119,1,4,0,4,0,,,,,1,32,68,8,,,,,,up,0.3833553387412394,3062.6493925722534,None,001,31,2019_Oct_15_1703,ACPT_experiment_5_30_19,3.1.0,59.951464393544484,
,,,C,D,g,b,R,D,g,R,i,,,,,5,19,119,1,4,0,4,0,,,,,1,33,69,3,,,,,,up,0.41697712705354206,3064.3170828375332,None,001,31,2019_Oct_15_1703,ACPT_experiment_5_30_19,3.1.0,59.951464393544484,
,,,C,D,g,b,L,D,y,L,y,,,,,5,19,119,1,4,0,4,0,,,,,1,34,70,32,,,,,,down,0.8673233877343591,3066.0350670817825,None,001,31,2019_Oct_15_1703,ACPT_experiment_5_30_19,3.1.0,59.951464393544484,
,,,C,D,g,b,L,U,g,L,u,,,,,5,19,119,1,4,0,4,0,,,,,1,35,71,22,,,,,,up,0.5671152872055245,3068.2034015108584,None,001,31,2019_Oct_15_1703,ACPT_experiment_5_30_19,3.1.0,59.951464393544484,
,,,C,D,g,b,,,,,,,,,,5,19,119,1,5,0,5,0,0,0,0,0,,,,,,,,,,,,,,001,31,2019_Oct_15_1703,ACPT_experiment_5_30_19,3.1.0,59.951464393544484,
,,,C,D,g,b,R,D,y,R,y,,,,,5,19,119,1,5,0,5,0,,,,,0,0,0,27,,,,,,down,0.5499990642420016,3148.7656656469917,None,001,31,2019_Oct_15_1703,ACPT_experiment_5_30_19,3.1.0,59.951464393544484,
,,,C,D,g,b,L,D,y,L,y,,,,,5,19,119,1,5,0,5,0,,,,,0,1,1,32,,,,,,down,0.8840025211138709,3150.616702617888,None,001,31,2019_Oct_15_1703,ACPT_experiment_5_30_19,3.1.0,59.951464393544484,
,,,C,D,g,b,R,G,y,R,y,,,,,5,19,119,1,5,0,5,0,,,,,0,2,2,29,,,,,,down,0.6838215273855894,3152.8017339899343,None,001,31,2019_Oct_15_1703,ACPT_experiment_5_30_19,3.1.0,59.951464393544484,
,,,C,D,g,b,R,D,d,R,c ,,,,,5,19,119,1,5,0,5,0,,,,,0,3,3,1,,,,,,up,0.5170621904799191,3154.769887425282,None,001,31,2019_Oct_15_1703,ACPT_experiment_5_30_19,3.1.0,59.951464393544484,
,,,C,D,g,b,R,U,g,R,u,,,,,5,19,119,1,5,0,5,0,,,,,0,4,4,11,,,,,,up,0.5003818496734311,3156.571274279151,None,001,31,2019_Oct_15_1703,ACPT_experiment_5_30_19,3.1.0,59.951464393544484,
,,,C,D,g,b,R,G,g,R,c ,,,,,5,19,119,1,5,0,5,0,,,,,0,5,5,7,,,,,,up,0.350290175567352,3158.3559750569148,None,001,31,2019_Oct_15_1703,ACPT_experiment_5_30_19,3.1.0,59.951464393544484,
,,,C,D,g,b,L,G,d,L,i,,,,,5,19,119,1,5,0,5,0,,,,,0,6,6,16,,,,,,up,0.5003730958051165,3159.990569671416,None,001,31,2019_Oct_15_1703,ACPT_experiment_5_30_19,3.1.0,59.951464393544484,
,,,C,D,g,b,L,U,g,R,u,,,,,5,19,119,1,5,0,5,0,,,,,0,7,7,23,,,,,,up,0.38335564059889293,3161.7922245746995,None,001,31,2019_Oct_15_1703,ACPT_experiment_5_30_19,3.1.0,59.951464393544484,
,,,C,D,g,b,L,U,g,L,u,,,,,5,19,119,1,5,0,5,0,,,,,0,8,8,22,,,,,,up,0.43368372946133604,3163.443197974415,None,001,31,2019_Oct_15_1703,ACPT_experiment_5_30_19,3.1.0,59.951464393544484,
,,,C,D,g,b,R,G,d,R,i,,,,,5,19,119,1,5,0,5,0,,,,,0,9,9,5,,,,,,up,0.40030342710815603,3165.1612066691196,None,001,31,2019_Oct_15_1703,ACPT_experiment_5_30_19,3.1.0,59.951464393544484,
,,,C,D,g,b,L,G,y,L,y,,,,,5,19,119,1,5,0,5,0,,,,,0,10,10,34,,,,,,down,0.6670313104659726,3166.8459524840146,None,001,31,2019_Oct_15_1703,ACPT_experiment_5_30_19,3.1.0,59.951464393544484,
,,,C,D,g,b,L,D,g,R,i,,,,,5,19,119,1,5,0,5,0,,,,,0,11,11,15,,,,,,up,0.616895504801505,3168.814254735087,None,001,31,2019_Oct_15_1703,ACPT_experiment_5_30_19,3.1.0,59.951464393544484,
,,,C,D,g,b,L,G,d,R,i,,,,,5,19,119,1,5,0,5,0,,,,,0,12,12,17,,,,,,up,0.40030523825407727,3170.715470073552,None,001,31,2019_Oct_15_1703,ACPT_experiment_5_30_19,3.1.0,59.951464393544484,
,,,C,D,g,b,R,D,g,R,i,,,,,5,19,119,1,5,0,5,0,,,,,0,13,13,3,,,,,,up,0.5670992887608008,3172.4000993714726,None,001,31,2019_Oct_15_1703,ACPT_experiment_5_30_19,3.1.0,59.951464393544484,
,,,C,D,g,b,R,U,g,L,u,,,,,5,19,119,1,5,0,5,0,,,,,0,14,14,10,,,,,,up,0.5170908669388155,3174.2348450958125,None,001,31,2019_Oct_15_1703,ACPT_experiment_5_30_19,3.1.0,59.951464393544484,
,,,C,D,g,b,L,U,y,R,u,,,,,5,19,119,1,5,0,5,0,,,,,0,15,15,25,,,,,,down,0.5834810925553029,3176.0532062996463,None,001,31,2019_Oct_15_1703,ACPT_experiment_5_30_19,3.1.0,59.951464393544484,
,,,C,D,g,b,R,D,g,L,i,,,,,5,19,119,1,5,0,5,0,,,,,0,16,16,2,,,,,,up,0.6006066731024475,3177.9210081314377,None,001,31,2019_Oct_15_1703,ACPT_experiment_5_30_19,3.1.0,59.951464393544484,
,,,C,D,g,b,R,G,y,L,y,,,,,5,19,119,1,5,0,5,0,,,,,0,17,17,28,,,,,,down,0.6004593666657456,3179.805791255916,None,001,31,2019_Oct_15_1703,ACPT_experiment_5_30_19,3.1.0,59.951464393544484,
,,,C,D,g,b,R,G,g,L,c ,,,,,5,19,119,1,5,0,5,0,,,,,0,18,18,6,,,,,,up,0.4003007103892742,3181.6905686451028,None,001,31,2019_Oct_15_1703,ACPT_experiment_5_30_19,3.1.0,59.951464393544484,
,,,C,D,g,b,R,U,d,L,u,,,,,5,19,119,1,5,0,5,0,,,,,0,19,19,8,,,,,,up,0.6002109379842295,3183.3921433146716,None,001,31,2019_Oct_15_1703,ACPT_experiment_5_30_19,3.1.0,59.951464393544484,
,,,C,D,g,b,L,G,y,R,y,,,,,5,19,119,1,5,0,5,0,,,,,0,20,20,35,,,,,,down,0.5838007595957606,3185.2766592953085,None,001,31,2019_Oct_15_1703,ACPT_experiment_5_30_19,3.1.0,59.951464393544484,
,,,C,D,g,b,L,U,y,L,u,,,,,5,19,119,1,5,0,5,0,,,,,0,21,21,24,,,,,,down,0.5170585681917146,3187.144760871546,None,001,31,2019_Oct_15_1703,ACPT_experiment_5_30_19,3.1.0,59.951464393544484,
,,,C,D,g,b,L,D,y,R,y,,,,,5,19,119,1,5,0,5,0,,,,,0,22,22,33,,,,,,down,0.5337546055925486,3188.9461410845506,None,001,31,2019_Oct_15_1703,ACPT_experiment_5_30_19,3.1.0,59.951464393544484,
,,,C,D,g,b,R,U,y,L,u,,,,,5,19,119,1,5,0,5,0,,,,,0,23,23,30,,,,,,down,0.6002227104290796,3190.7811551601626,None,001,31,2019_Oct_15_1703,ACPT_experiment_5_30_19,3.1.0,59.951464393544484,
,,,C,D,g,b,L,D,g,L,i,,,,,5,19,119,1,5,0,5,0,,,,,0,24,24,14,,,,,,up,0.5170561533304863,3192.6656696315113,None,001,31,2019_Oct_15_1703,ACPT_experiment_5_30_19,3.1.0,59.951464393544484,
,,,C,D,g,b,R,U,d,R,u,,,,,5,19,119,1,5,0,5,0,,,,,0,25,25,9,,,,,,up,0.7672537190337607,3194.4670513538003,None,001,31,2019_Oct_15_1703,ACPT_experiment_5_30_19,3.1.0,59.951464393544484,
,,,C,D,g,b,L,G,g,L,c ,,,,,5,19,119,1,5,0,5,0,,,,,0,26,26,18,,,,,,up,0.4169816549147072,3196.5186261139315,None,001,31,2019_Oct_15_1703,ACPT_experiment_5_30_19,3.1.0,59.951464393544484,
,,,C,D,g,b,L,D,d,R,c ,,,,,5,19,119,1,5,0,5,0,,,,,0,27,27,13,,,,,,up,0.40032274598706863,3198.2199100947764,None,001,31,2019_Oct_15_1703,ACPT_experiment_5_30_19,3.1.0,59.951464393544484,
,,,C,D,g,b,R,U,y,R,u,,,,,5,19,119,1,5,0,5,0,,,,,0,28,28,31,,,,,,down,0.8339705544094613,3199.921240259817,None,001,31,2019_Oct_15_1703,ACPT_experiment_5_30_19,3.1.0,59.951464393544484,
,,,C,D,g,b,R,G,d,L,i,,,,,5,19,119,1,5,0,5,0,,,,,0,29,29,4,,,,,,up,0.5003906035417458,3202.0562022348313,None,001,31,2019_Oct_15_1703,ACPT_experiment_5_30_19,3.1.0,59.951464393544484,
,,,C,D,g,b,L,D,d,L,c ,,,,,5,19,119,1,5,0,5,0,,,,,0,30,30,12,,,,,,up,0.48368852899511694,3203.8576078038604,None,001,31,2019_Oct_15_1703,ACPT_experiment_5_30_19,3.1.0,59.951464393544484,
,,,C,D,g,b,L,U,d,R,u,,,,,5,19,119,1,5,0,5,0,,,,,0,31,31,21,,,,,,up,0.8172992693216656,3205.625620392526,None,001,31,2019_Oct_15_1703,ACPT_experiment_5_30_19,3.1.0,59.951464393544484,
,,,C,D,g,b,L,U,d,L,u,,,,,5,19,119,1,5,0,5,0,,,,,0,32,32,20,,,,,,up,0.5504132126625336,3207.710560060277,None,001,31,2019_Oct_15_1703,ACPT_experiment_5_30_19,3.1.0,59.951464393544484,
,,,C,D,g,b,R,D,y,L,y,,,,,5,19,119,1,5,0,5,0,,,,,0,33,33,26,,,,,,down,0.5670823847467545,3209.5619972941495,None,001,31,2019_Oct_15_1703,ACPT_experiment_5_30_19,3.1.0,59.951464393544484,
,,,C,D,g,b,R,D,d,L,c,,,,,5,19,119,1,5,0,5,0,,,,,0,34,34,0,,,,,,up,0.5004186762816971,3211.430085890519,None,001,31,2019_Oct_15_1703,ACPT_experiment_5_30_19,3.1.0,59.951464393544484,
,,,C,D,g,b,L,G,g,R,c ,,,,,5,19,119,1,5,0,5,0,,,,,0,35,35,19,,,,,,up,0.5170609830529429,3213.2147824422827,None,001,31,2019_Oct_15_1703,ACPT_experiment_5_30_19,3.1.0,59.951464393544484,
,,,C,D,g,b,R,U,y,L,u,,,,,5,19,119,1,5,0,5,0,,,,,1,0,36,30,,,,,,down,0.7005405059499026,3215.0161671831447,None,001,31,2019_Oct_15_1703,ACPT_experiment_5_30_19,3.1.0,59.951464393544484,
,,,C,D,g,b,L,D,y,R,y,,,,,5,19,119,1,5,0,5,0,,,,,1,1,37,33,,,,,,down,0.6669141897764348,3217.0012940628876,None,001,31,2019_Oct_15_1703,ACPT_experiment_5_30_19,3.1.0,59.951464393544484,
,,,C,D,g,b,R,U,y,R,u,,,,,5,19,119,1,5,0,5,0,,,,,1,2,38,31,,,,,,down,0.5504240795307851,3218.9525193324625,None,001,31,2019_Oct_15_1703,ACPT_experiment_5_30_19,3.1.0,59.951464393544484,
,,,C,D,g,b,L,U,d,L,u,,,,,5,19,119,1,5,0,5,0,,,,,1,3,39,20,,,,,,up,0.7505688503624697,3220.787271093952,None,001,31,2019_Oct_15_1703,ACPT_experiment_5_30_19,3.1.0,59.951464393544484,
,,,C,D,g,b,R,D,d,R,c ,,,,,5,19,119,1,5,0,5,0,,,,,1,4,40,1,,,,,,up,0.3836194640098256,3222.8221655132693,None,001,31,2019_Oct_15_1703,ACPT_experiment_5_30_19,3.1.0,59.951464393544484,
,,,C,D,g,b,R,U,d,R,u,,,,,5,19,119,1,5,0,5,0,,,,,1,5,41,9,,,,,,up,0.35027930869546253,3224.4734126976946,None,001,31,2019_Oct_15_1703,ACPT_experiment_5_30_19,3.1.0,59.951464393544484,
,,,C,D,g,b,R,D,y,R,y,,,,,5,19,119,1,5,0,5,0,,,,,1,6,42,27,,,,,,down,0.5504153256661084,3226.1080242162134,None,001,31,2019_Oct_15_1703,ACPT_experiment_5_30_19,3.1.0,59.951464393544484,
,,,C,D,g,b,R,G,y,L,y,,,,,5,19,119,1,5,0,5,0,,,,,1,7,43,28,,,,,,down,0.5670941571879666,3227.942767525692,None,001,31,2019_Oct_15_1703,ACPT_experiment_5_30_19,3.1.0,59.951464393544484,
,,,C,D,g,b,R,U,g,L,u,,,,,5,19,119,1,5,0,5,0,,,,,1,8,44,10,,,,,,up,0.583518522878876,3229.811122964049,None,001,31,2019_Oct_15_1703,ACPT_experiment_5_30_19,3.1.0,59.951464393544484,
,,,C,D,g,b,R,G,d,R,i,,,,,5,19,119,1,5,0,5,0,,,,,1,9,45,5,,,,,,up,0.5672245596033463,3231.678957396445,None,001,31,2019_Oct_15_1703,ACPT_experiment_5_30_19,3.1.0,59.951464393544484,
,,,C,D,g,b,L,U,y,R,u,,,,,5,19,119,1,5,0,5,0,,,,,1,10,46,25,,,,,,down,0.650493446370092,3233.5303901024563,None,001,31,2019_Oct_15_1703,ACPT_experiment_5_30_19,3.1.0,59.951464393544484,
,,,C,D,g,b,R,U,d,L,u,,,,,5,19,119,1,5,0,5,0,,,,,1,11,47,8,,,,,,up,0.5837744979944546,3235.4652106270732,None,001,31,2019_Oct_15_1703,ACPT_experiment_5_30_19,3.1.0,59.951464393544484,
,,,C,D,g,b,R,G,g,R,c ,,,,,5,19,119,1,5,0,5,0,,,,,1,12,48,7,,,,,,up,0.5504201553812891,3237.333311901457,None,001,31,2019_Oct_15_1703,ACPT_experiment_5_30_19,3.1.0,59.951464393544484,
,,,C,D,g,b,R,G,y,R,y,,,,,5,19,119,1,5,0,5,0,,,,,1,13,49,29,,,,,,down,0.6338097851330531,3239.1680615499426,None,001,31,2019_Oct_15_1703,ACPT_experiment_5_30_19,3.1.0,59.951464393544484,
,,,C,D,g,b,R,G,d,L,i,,,,,5,19,119,1,5,0,5,0,,,,,1,14,50,4,,,,,,up,0.6838541279939818,3241.086194791027,None,001,31,2019_Oct_15_1703,ACPT_experiment_5_30_19,3.1.0,59.951464393544484,
,,,C,D,g,b,R,U,g,R,u,,,,,5,19,119,1,5,0,5,0,,,,,1,15,51,11,,,,,,up,0.513785226008622,3243.0743779774457,None,001,31,2019_Oct_15_1703,ACPT_experiment_5_30_19,3.1.0,59.951464393544484,
,,,C,D,g,b,L,D,d,R,c ,,,,,5,19,119,1,5,0,5,0,,,,,1,16,52,13,,,,,,up,0.4670142253344238,3244.8724362492176,None,001,31,2019_Oct_15_1703,ACPT_experiment_5_30_19,3.1.0,59.951464393544484,
,,,C,D,g,b,L,U,g,R,u,,,,,5,19,119,1,5,0,5,0,,,,,1,17,53,23,,,,,,up,0.4670552779462014,3246.623755517201,None,001,31,2019_Oct_15_1703,ACPT_experiment_5_30_19,3.1.0,59.951464393544484,
,,,C,D,g,b,L,G,g,L,c ,,,,,5,19,119,1,5,0,5,0,,,,,1,18,54,18,,,,,,up,0.5004171669970674,3248.375118856373,None,001,31,2019_Oct_15_1703,ACPT_experiment_5_30_19,3.1.0,59.951464393544484,
,,,C,D,g,b,R,D,y,L,y,,,,,5,19,119,1,5,0,5,0,,,,,1,19,55,26,,,,,,down,0.6337913718271011,3250.1932020494933,None,001,31,2019_Oct_15_1703,ACPT_experiment_5_30_19,3.1.0,59.951464393544484,
,,,C,D,g,b,L,G,d,L,i,,,,,5,19,119,1,5,0,5,0,,,,,1,20,56,16,,,,,,up,0.4836912457103608,3252.144690236906,None,001,31,2019_Oct_15_1703,ACPT_experiment_5_30_19,3.1.0,59.951464393544484,
,,,C,D,g,b,L,G,g,R,c ,,,,,5,19,119,1,5,0,5,0,,,,,1,21,57,19,,,,,,up,0.6839114809044986,3253.912688638269,None,001,31,2019_Oct_15_1703,ACPT_experiment_5_30_19,3.1.0,59.951464393544484,
,,,C,D,g,b,L,D,y,L,y,,,,,5,19,119,1,5,0,5,0,,,,,1,22,58,32,,,,,,down,0.600451216516376,3255.897573428334,None,001,31,2019_Oct_15_1703,ACPT_experiment_5_30_19,3.1.0,59.951464393544484,
,,,C,D,g,b,L,G,y,L,y,,,,,5,19,119,1,5,0,5,0,,,,,1,23,59,34,,,,,,down,0.7172111873187532,3257.799024517466,None,001,31,2019_Oct_15_1703,ACPT_experiment_5_30_19,3.1.0,59.951464393544484,
,,,C,D,g,b,L,U,y,L,u,,,,,5,19,119,1,5,0,5,0,,,,,1,24,60,24,,,,,,down,0.5337283439948806,3259.817257009283,None,001,31,2019_Oct_15_1703,ACPT_experiment_5_30_19,3.1.0,59.951464393544484,
,,,C,D,g,b,L,G,d,R,i,,,,,5,19,119,1,5,0,5,0,,,,,1,25,61,17,,,,,,up,0.5671107593443594,3261.635305488795,None,001,31,2019_Oct_15_1703,ACPT_experiment_5_30_19,3.1.0,59.951464393544484,
,,,C,D,g,b,L,U,d,R,u,,,,,5,19,119,1,5,0,5,0,,,,,1,26,62,21,,,,,,up,0.4003052382504393,3263.486727026084,None,001,31,2019_Oct_15_1703,ACPT_experiment_5_30_19,3.1.0,59.951464393544484,
