facing_vig,person_vig,text_vig,facing_train,person_train,food_train,correct_key_train,facing_exp,person_exp,food_exp,showL_R,consistent,vig_random.thisRepN,vig_random.thisTrialN,vig_random.thisN,vig_random.thisIndex,trainTrials.thisRepN,trainTrials.thisTrialN,trainTrials.thisN,trainTrials.thisIndex,expBlock.thisRepN,expBlock.thisTrialN,expBlock.thisN,expBlock.thisIndex,breakLoop.thisRepN,breakLoop.thisTrialN,breakLoop.thisN,breakLoop.thisIndex,expTrials.thisRepN,expTrials.thisTrialN,expTrials.thisN,expTrials.thisIndex,train_resp.keys,train_resp.corr,train_resp.rt,train_resp.started,train_resp.stopped,exp_resp.keys,exp_resp.rt,exp_resp.started,exp_resp.stopped,session,participant,date,expName,psychopyVersion,frameRate,
C,U,"did not report her food preferences, so her food preferences are unknown.",,,,,,,,,,0,0,0,2,,,,,,,,,,,,,,,,,,,,,,,,,,001,32,2019_Oct_16_1003,ACPT_experiment_5_30_19,3.1.0,59.95593127093672,
C,D,"is allergic to gluten, meaning she can’t eat wheat products. She enjoys eating dairy products. She thinks eating insects, like crickets, is disgusting.",,,,,,,,,,0,1,1,1,,,,,,,,,,,,,,,,,,,,,,,,,,001,32,2019_Oct_16_1003,ACPT_experiment_5_30_19,3.1.0,59.95593127093672,
C,G,"cannot eat dairy products because she is lactose intolerant. She enjoys eating wheat products. She thinks eating insects, like crickets, is disgusting.",,,,,,,,,,0,2,2,0,,,,,,,,,,,,,,,,,,,,,,,,,,001,32,2019_Oct_16_1003,ACPT_experiment_5_30_19,3.1.0,59.95593127093672,
,,,C,U,d,n,,,,,,,,,,0,0,0,6,,,,,,,,,,,,,b,0,2.885554121070072,950.0909928970332,None,,,,,001,32,2019_Oct_16_1003,ACPT_experiment_5_30_19,3.1.0,59.95593127093672,
,,,C,G,y,b,,,,,,,,,,0,1,1,5,,,,,,,,,,,,,b,1,2.852186084391178,956.262375405279,None,,,,,001,32,2019_Oct_16_1003,ACPT_experiment_5_30_19,3.1.0,59.95593127093672,
,,,C,G,y,b,,,,,,,,,,0,2,2,14,,,,,,,,,,,,,b,1,0.6338221484218138,962.4003950083932,None,,,,,001,32,2019_Oct_16_1003,ACPT_experiment_5_30_19,3.1.0,59.95593127093672,
,,,C,D,y,b,,,,,,,,,,0,3,3,11,,,,,,,,,,,,,b,1,0.8170482676348456,966.3370007796934,None,,,,,001,32,2019_Oct_16_1003,ACPT_experiment_5_30_19,3.1.0,59.95593127093672,
,,,C,D,y,b,,,,,,,,,,0,4,4,2,,,,,,,,,,,,,b,1,0.5172816926619817,970.4230320742831,None,,,,,001,32,2019_Oct_16_1003,ACPT_experiment_5_30_19,3.1.0,59.95593127093672,
,,,C,U,g,n,,,,,,,,,,0,5,5,16,,,,,,,,,,,,,v,0,1.6508477165066324,974.2431743630316,None,,,,,001,32,2019_Oct_16_1003,ACPT_experiment_5_30_19,3.1.0,59.95593127093672,
,,,C,D,g,b,,,,,,,,,,0,6,6,10,,,,,,,,,,,,,b,1,1.1008747476862482,979.1798420147543,None,,,,,001,32,2019_Oct_16_1003,ACPT_experiment_5_30_19,3.1.0,59.95593127093672,
,,,C,U,g,n,,,,,,,,,,0,7,7,7,,,,,,,,,,,,,b,0,3.6692150332598885,983.5834952537716,None,,,,,001,32,2019_Oct_16_1003,ACPT_experiment_5_30_19,3.1.0,59.95593127093672,
,,,C,G,g,v,,,,,,,,,,0,8,8,13,,,,,,,,,,,,,b,0,1.0841558650113257,990.5385438057547,None,,,,,001,32,2019_Oct_16_1003,ACPT_experiment_5_30_19,3.1.0,59.95593127093672,
,,,C,D,d,v,,,,,,,,,,0,9,9,0,,,,,,,,,,,,,v,1,2.301569257323308,994.9254573340527,None,,,,,001,32,2019_Oct_16_1003,ACPT_experiment_5_30_19,3.1.0,59.95593127093672,
,,,C,D,g,b,,,,,,,,,,0,10,10,1,,,,,,,,,,,,,b,1,1.4011064823214383,1000.5128148317413,None,,,,,001,32,2019_Oct_16_1003,ACPT_experiment_5_30_19,3.1.0,59.95593127093672,
,,,C,U,y,n,,,,,,,,,,0,11,11,17,,,,,,,,,,,,,b,0,0.8670980587357917,1005.2166436602301,None,,,,,001,32,2019_Oct_16_1003,ACPT_experiment_5_30_19,3.1.0,59.95593127093672,
,,,C,D,d,v,,,,,,,,,,0,12,12,18,,,,,,,,,,,,,v,1,2.268412217791365,1009.3695722191317,None,,,,,001,32,2019_Oct_16_1003,ACPT_experiment_5_30_19,3.1.0,59.95593127093672,
,,,C,U,d,n,,,,,,,,,,0,13,13,15,,,,,,,,,,,,,b,0,0.9006976187508826,1014.9238122203874,None,,,,,001,32,2019_Oct_16_1003,ACPT_experiment_5_30_19,3.1.0,59.95593127093672,
,,,C,G,d,b,,,,,,,,,,0,14,14,3,,,,,,,,,,,,,v,0,1.8511090631877778,1019.1439948370598,None,,,,,001,32,2019_Oct_16_1003,ACPT_experiment_5_30_19,3.1.0,59.95593127093672,
,,,C,G,g,v,,,,,,,,,,0,15,15,4,,,,,,,,,,,,,b,0,2.151681592928753,1024.2642698517677,None,,,,,001,32,2019_Oct_16_1003,ACPT_experiment_5_30_19,3.1.0,59.95593127093672,
,,,C,D,d,v,,,,,,,,,,0,16,16,9,,,,,,,,,,,,,v,1,2.0515925756774323,1029.701730025679,None,,,,,001,32,2019_Oct_16_1003,ACPT_experiment_5_30_19,3.1.0,59.95593127093672,
,,,C,G,d,b,,,,,,,,,,0,17,17,12,,,,,,,,,,,,,b,1,2.018225444565587,1035.0391597423481,None,,,,,001,32,2019_Oct_16_1003,ACPT_experiment_5_30_19,3.1.0,59.95593127093672,
,,,C,G,g,v,,,,,,,,,,0,18,18,19,,,,,,,,,,,,,v,1,1.8181216665695956,1040.3265073693547,None,,,,,001,32,2019_Oct_16_1003,ACPT_experiment_5_30_19,3.1.0,59.95593127093672,
,,,C,U,y,n,,,,,,,,,,0,19,19,8,,,,,,,,,,,,,b,0,0.9507350337669322,1045.4304341802097,None,,,,,001,32,2019_Oct_16_1003,ACPT_experiment_5_30_19,3.1.0,59.95593127093672,
,,,C,D,y,b,,,,,,,,,,1,0,20,2,,,,,,,,,,,,,b,1,0.9171064956030932,1049.6839410644823,None,,,,,001,32,2019_Oct_16_1003,ACPT_experiment_5_30_19,3.1.0,59.95593127093672,
,,,C,U,y,n,,,,,,,,,,1,1,21,8,,,,,,,,,,,,,b,0,1.0341226759751407,1053.8868804750969,None,,,,,001,32,2019_Oct_16_1003,ACPT_experiment_5_30_19,3.1.0,59.95593127093672,
,,,C,U,g,n,,,,,,,,,,1,2,22,7,,,,,,,,,,,,,v,0,1.6844026018754903,1058.2237505512642,None,,,,,001,32,2019_Oct_16_1003,ACPT_experiment_5_30_19,3.1.0,59.95593127093672,
,,,C,G,g,v,,,,,,,,,,1,3,23,4,,,,,,,,,,,,,b,0,2.8021471600959558,1063.193983049594,None,,,,,001,32,2019_Oct_16_1003,ACPT_experiment_5_30_19,3.1.0,59.95593127093672,
,,,C,D,d,v,,,,,,,,,,1,4,24,9,,,,,,,,,,,,,v,1,1.2676494283907687,1069.2819598042888,None,,,,,001,32,2019_Oct_16_1003,ACPT_experiment_5_30_19,3.1.0,59.95593127093672,
,,,C,D,g,b,,,,,,,,,,1,5,25,1,,,,,,,,,,,,,b,1,1.331033997707891,1073.8554412964584,None,,,,,001,32,2019_Oct_16_1003,ACPT_experiment_5_30_19,3.1.0,59.95593127093672,
,,,C,G,d,b,,,,,,,,,,1,6,26,12,,,,,,,,,,,,,v,0,1.4844932189621431,1078.472317566705,None,,,,,001,32,2019_Oct_16_1003,ACPT_experiment_5_30_19,3.1.0,59.95593127093672,
,,,C,U,d,n,,,,,,,,,,1,7,27,15,,,,,,,,,,,,,v,0,1.7846932587467563,1083.2426334375843,None,,,,,001,32,2019_Oct_16_1003,ACPT_experiment_5_30_19,3.1.0,59.95593127093672,
,,,C,U,y,n,,,,,,,,,,1,8,28,17,,,,,,,,,,,,,b,0,0.7672952007053482,1088.296471517951,None,,,,,001,32,2019_Oct_16_1003,ACPT_experiment_5_30_19,3.1.0,59.95593127093672,
,,,C,D,d,v,,,,,,,,,,1,9,29,0,,,,,,,,,,,,,v,1,1.0340789068959566,1092.366301310567,None,,,,,001,32,2019_Oct_16_1003,ACPT_experiment_5_30_19,3.1.0,59.95593127093672,
,,,C,U,g,n,,,,,,,,,,1,10,30,16,,,,,,,,,,,,,b,0,2.4184988051040364,1096.6862409032008,None,,,,,001,32,2019_Oct_16_1003,ACPT_experiment_5_30_19,3.1.0,59.95593127093672,
,,,C,U,d,n,,,,,,,,,,1,11,31,6,,,,,,,,,,,,,v,0,1.9014730860915279,1102.3738833225018,None,,,,,001,32,2019_Oct_16_1003,ACPT_experiment_5_30_19,3.1.0,59.95593127093672,
,,,C,D,d,v,,,,,,,,,,1,12,32,18,,,,,,,,,,,,,v,1,0.8673504101161598,1107.5611651751474,None,,,,,001,32,2019_Oct_16_1003,ACPT_experiment_5_30_19,3.1.0,59.95593127093672,
,,,C,D,g,b,,,,,,,,,,1,13,33,10,,,,,,,,,,,,,b,1,1.2006917929354586,1111.7312983025747,None,,,,,001,32,2019_Oct_16_1003,ACPT_experiment_5_30_19,3.1.0,59.95593127093672,
,,,C,G,g,v,,,,,,,,,,1,14,34,13,,,,,,,,,,,,,v,1,1.2342853158361322,1116.2177801470098,None,,,,,001,32,2019_Oct_16_1003,ACPT_experiment_5_30_19,3.1.0,59.95593127093672,
,,,C,D,y,b,,,,,,,,,,1,15,35,11,,,,,,,,,,,,,b,1,1.2672422250268482,1120.754961979763,None,,,,,001,32,2019_Oct_16_1003,ACPT_experiment_5_30_19,3.1.0,59.95593127093672,
,,,C,G,y,b,,,,,,,,,,1,16,36,5,,,,,,,,,,,,,b,1,1.067494334922685,1125.308051608876,None,,,,,001,32,2019_Oct_16_1003,ACPT_experiment_5_30_19,3.1.0,59.95593127093672,
,,,C,G,d,b,,,,,,,,,,1,17,37,3,,,,,,,,,,,,,b,1,1.6843841886768587,1129.6783005885281,None,,,,,001,32,2019_Oct_16_1003,ACPT_experiment_5_30_19,3.1.0,59.95593127093672,
,,,C,G,g,v,,,,,,,,,,1,18,38,19,,,,,,,,,,,,,v,1,1.1175251091133305,1134.6485176922165,None,,,,,001,32,2019_Oct_16_1003,ACPT_experiment_5_30_19,3.1.0,59.95593127093672,
,,,C,G,y,b,,,,,,,,,,1,19,39,14,,,,,,,,,,,,,b,1,1.1008424491244568,1139.035203319447,None,,,,,001,32,2019_Oct_16_1003,ACPT_experiment_5_30_19,3.1.0,59.95593127093672,
,,,C,U,y,n,,,,,,,,,,2,0,40,17,,,,,,,,,,,,,b,0,0.6171720888505661,1143.4218469887328,None,,,,,001,32,2019_Oct_16_1003,ACPT_experiment_5_30_19,3.1.0,59.95593127093672,
,,,C,D,d,v,,,,,,,,,,2,1,41,0,,,,,,,,,,,,,v,1,0.8506647315703049,1147.3248510870278,None,,,,,001,32,2019_Oct_16_1003,ACPT_experiment_5_30_19,3.1.0,59.95593127093672,
,,,C,G,g,v,,,,,,,,,,2,2,42,13,,,,,,,,,,,,,b,0,0.9006973168950481,1151.4613405835053,None,,,,,001,32,2019_Oct_16_1003,ACPT_experiment_5_30_19,3.1.0,59.95593127093672,
,,,C,G,y,b,,,,,,,,,,2,3,43,14,,,,,,,,,,,,,b,1,0.9337991168306417,1155.6648006952341,None,,,,,001,32,2019_Oct_16_1003,ACPT_experiment_5_30_19,3.1.0,59.95593127093672,
,,,C,G,d,b,,,,,,,,,,2,4,44,3,,,,,,,,,,,,,b,1,1.4010690522122786,1159.8844423864593,None,,,,,001,32,2019_Oct_16_1003,ACPT_experiment_5_30_19,3.1.0,59.95593127093672,
,,,C,U,y,n,,,,,,,,,,2,5,45,8,,,,,,,,,,,,,v,0,1.2676240725104435,1164.588037880478,None,,,,,001,32,2019_Oct_16_1003,ACPT_experiment_5_30_19,3.1.0,59.95593127093672,
,,,C,G,g,v,,,,,,,,,,2,6,46,4,,,,,,,,,,,,,v,1,2.9522566884434127,1169.1415018106816,None,,,,,001,32,2019_Oct_16_1003,ACPT_experiment_5_30_19,3.1.0,59.95593127093672,
,,,C,D,y,b,,,,,,,,,,2,7,47,2,,,,,,,,,,,,,b,1,0.9173757509038296,1175.3795956401168,None,,,,,001,32,2019_Oct_16_1003,ACPT_experiment_5_30_19,3.1.0,59.95593127093672,
,,,C,U,d,n,,,,,,,,,,2,8,48,15,,,,,,,,,,,,,v,0,2.568631576341886,1179.5994920975684,None,,,,,001,32,2019_Oct_16_1003,ACPT_experiment_5_30_19,3.1.0,59.95593127093672,
,,,C,G,d,b,,,,,,,,,,2,9,49,12,,,,,,,,,,,,,b,1,1.0674943349229125,1185.4539463258275,None,,,,,001,32,2019_Oct_16_1003,ACPT_experiment_5_30_19,3.1.0,59.95593127093672,
,,,C,D,g,b,,,,,,,,,,2,10,50,10,,,,,,,,,,,,,b,1,1.7677727364518887,1189.8241995314597,None,,,,,001,32,2019_Oct_16_1003,ACPT_experiment_5_30_19,3.1.0,59.95593127093672,
,,,C,U,g,n,,,,,,,,,,2,11,51,16,,,,,,,,,,,,,v,0,1.7013059183943824,1194.8778078996245,None,,,,,001,32,2019_Oct_16_1003,ACPT_experiment_5_30_19,3.1.0,59.95593127093672,
,,,C,D,g,b,,,,,,,,,,2,12,52,1,,,,,,,,,,,,,v,0,2.652038235460168,1199.8649434126178,None,,,,,001,32,2019_Oct_16_1003,ACPT_experiment_5_30_19,3.1.0,59.95593127093672,
,,,C,U,g,n,,,,,,,,,,2,13,53,7,,,,,,,,,,,,,b,0,2.568640632013512,1205.8028070166965,None,,,,,001,32,2019_Oct_16_1003,ACPT_experiment_5_30_19,3.1.0,59.95593127093672,
,,,C,G,y,b,,,,,,,,,,2,14,54,5,,,,,,,,,,,,,b,1,0.9173769583267131,1211.6572760358858,None,,,,,001,32,2019_Oct_16_1003,ACPT_experiment_5_30_19,3.1.0,59.95593127093672,
,,,C,D,y,b,,,,,,,,,,2,15,55,11,,,,,,,,,,,,,b,1,0.8673492026932763,1215.8604714201497,None,,,,,001,32,2019_Oct_16_1003,ACPT_experiment_5_30_19,3.1.0,59.95593127093672,
,,,C,D,d,v,,,,,,,,,,2,16,56,9,,,,,,,,,,,,,v,1,0.8005023482867273,1220.0136453877503,None,,,,,001,32,2019_Oct_16_1003,ACPT_experiment_5_30_19,3.1.0,59.95593127093672,
,,,C,G,g,v,,,,,,,,,,2,17,57,19,,,,,,,,,,,,,v,1,1.3176853341287824,1224.1001010914802,None,,,,,001,32,2019_Oct_16_1003,ACPT_experiment_5_30_19,3.1.0,59.95593127093672,
,,,C,U,d,n,,,,,,,,,,2,18,58,6,,,,,,,,,,,,,v,0,2.985636497495534,1228.7036130016504,None,,,,,001,32,2019_Oct_16_1003,ACPT_experiment_5_30_19,3.1.0,59.95593127093672,
,,,C,D,d,v,,,,,,,,,,2,19,59,18,,,,,,,,,,,,,v,1,1.918015986882665,1234.9750664158046,None,,,,,001,32,2019_Oct_16_1003,ACPT_experiment_5_30_19,3.1.0,59.95593127093672,
,,,C,G,y,b,,,,,,,,,,3,0,60,5,,,,,,,,,,,,,b,1,0.867340448877485,1240.1790411915333,None,,,,,001,32,2019_Oct_16_1003,ACPT_experiment_5_30_19,3.1.0,59.95593127093672,
,,,C,G,g,v,,,,,,,,,,3,1,61,19,,,,,,,,,,,,,v,1,4.369720128433528,1244.332492564539,None,,,,,001,32,2019_Oct_16_1003,ACPT_experiment_5_30_19,3.1.0,59.95593127093672,
,,,C,G,d,b,,,,,,,,,,3,2,62,12,,,,,,,,,,,,,b,1,1.1175284295261463,1251.9713701925327,None,,,,,001,32,2019_Oct_16_1003,ACPT_experiment_5_30_19,3.1.0,59.95593127093672,
,,,C,G,d,b,,,,,,,,,,3,3,63,3,,,,,,,,,,,,,v,0,2.4685513129063565,1256.3580615550218,None,,,,,001,32,2019_Oct_16_1003,ACPT_experiment_5_30_19,3.1.0,59.95593127093672,
,,,C,U,d,n,,,,,,,,,,3,4,64,6,,,,,,,,,,,,,b,0,2.501921764431245,1262.1124297845868,None,,,,,001,32,2019_Oct_16_1003,ACPT_experiment_5_30_19,3.1.0,59.95593127093672,
,,,C,U,y,n,,,,,,,,,,3,5,65,17,,,,,,,,,,,,,v,0,1.5678775407573085,1267.8835093504338,None,,,,,001,32,2019_Oct_16_1003,ACPT_experiment_5_30_19,3.1.0,59.95593127093672,
,,,C,U,y,n,,,,,,,,,,3,6,66,8,,,,,,,,,,,,,b,0,1.1008647864475734,1272.7371929410438,None,,,,,001,32,2019_Oct_16_1003,ACPT_experiment_5_30_19,3.1.0,59.95593127093672,
,,,C,D,d,v,,,,,,,,,,3,7,67,9,,,,,,,,,,,,,v,1,0.7672810134865813,1277.1238731348712,None,,,,,001,32,2019_Oct_16_1003,ACPT_experiment_5_30_19,3.1.0,59.95593127093672,
,,,C,D,d,v,,,,,,,,,,3,8,68,18,,,,,,,,,,,,,v,1,0.6506672067871477,1281.1601736998546,None,,,,,001,32,2019_Oct_16_1003,ACPT_experiment_5_30_19,3.1.0,59.95593127093672,
,,,C,D,g,b,,,,,,,,,,3,9,69,1,,,,,,,,,,,,,b,1,1.1339394193682892,1285.096916513651,None,,,,,001,32,2019_Oct_16_1003,ACPT_experiment_5_30_19,3.1.0,59.95593127093672,
,,,C,U,g,n,,,,,,,,,,3,10,70,16,,,,,,,,,,,,,v,0,1.6512691070897745,1289.516680396071,None,,,,,001,32,2019_Oct_16_1003,ACPT_experiment_5_30_19,3.1.0,59.95593127093672,
,,,C,D,y,b,,,,,,,,,,3,11,71,11,,,,,,,,,,,,,b,1,1.467799994023153,1294.453784833018,None,,,,,001,32,2019_Oct_16_1003,ACPT_experiment_5_30_19,3.1.0,59.95593127093672,
,,,C,G,g,v,,,,,,,,,,3,12,72,4,,,,,,,,,,,,,v,1,3.5861047964569934,1299.2073863490582,None,,,,,001,32,2019_Oct_16_1003,ACPT_experiment_5_30_19,3.1.0,59.95593127093672,
,,,C,U,d,n,,,,,,,,,,3,13,73,15,,,,,,,,,,,,,v,0,2.985491908606491,1306.0793213438255,None,,,,,001,32,2019_Oct_16_1003,ACPT_experiment_5_30_19,3.1.0,59.95593127093672,
,,,C,D,d,v,,,,,,,,,,3,14,74,0,,,,,,,,,,,,,v,1,1.7513569169179846,1312.3507672115868,None,,,,,001,32,2019_Oct_16_1003,ACPT_experiment_5_30_19,3.1.0,59.95593127093672,
,,,C,D,y,b,,,,,,,,,,3,15,75,2,,,,,,,,,,,,,b,1,1.4844883892708367,1317.371269855692,None,,,,,001,32,2019_Oct_16_1003,ACPT_experiment_5_30_19,3.1.0,59.95593127093672,
,,,C,G,g,v,,,,,,,,,,3,16,76,13,,,,,,,,,,,,,v,1,1.5345134282024446,1322.1415724449198,None,,,,,001,32,2019_Oct_16_1003,ACPT_experiment_5_30_19,3.1.0,59.95593127093672,
,,,C,U,g,n,,,,,,,,,,3,17,77,7,,,,,,,,,,,,,v,0,1.85142269127914,1326.9619151658653,None,,,,,001,32,2019_Oct_16_1003,ACPT_experiment_5_30_19,3.1.0,59.95593127093672,
,,,C,G,y,b,,,,,,,,,,3,18,78,14,,,,,,,,,,,,,b,1,0.9340378847036845,1332.0991855630862,None,,,,,001,32,2019_Oct_16_1003,ACPT_experiment_5_30_19,3.1.0,59.95593127093672,
,,,C,D,g,b,,,,,,,,,,3,19,79,10,,,,,,,,,,,,,b,1,1.284083962979139,1336.3359735646836,None,,,,,001,32,2019_Oct_16_1003,ACPT_experiment_5_30_19,3.1.0,59.95593127093672,
,,,C,D,d,v,,,,,,,,,,4,0,80,18,,,,,,,,,,,,,v,1,0.9674125622086649,1340.9058865185502,None,,,,,001,32,2019_Oct_16_1003,ACPT_experiment_5_30_19,3.1.0,59.95593127093672,
,,,C,G,g,v,,,,,,,,,,4,1,81,13,,,,,,,,,,,,,v,1,1.384378845830497,1345.175828842978,None,,,,,001,32,2019_Oct_16_1003,ACPT_experiment_5_30_19,3.1.0,59.95593127093672,
,,,C,G,y,b,,,,,,,,,,4,2,82,5,,,,,,,,,,,,,b,1,0.9174270663759216,1349.8293377194982,None,,,,,001,32,2019_Oct_16_1003,ACPT_experiment_5_30_19,3.1.0,59.95593127093672,
,,,C,U,d,n,,,,,,,,,,4,3,83,15,,,,,,,,,,,,,v,0,2.051311548003696,1354.0495203361706,None,,,,,001,32,2019_Oct_16_1003,ACPT_experiment_5_30_19,3.1.0,59.95593127093672,
,,,C,D,d,v,,,,,,,,,,4,4,84,9,,,,,,,,,,,,,v,1,0.6672070890213035,1359.386625256087,None,,,,,001,32,2019_Oct_16_1003,ACPT_experiment_5_30_19,3.1.0,59.95593127093672,
,,,C,D,g,b,,,,,,,,,,4,5,85,1,,,,,,,,,,,,,b,1,1.4341886616352895,1363.3565966492206,None,,,,,001,32,2019_Oct_16_1003,ACPT_experiment_5_30_19,3.1.0,59.95593127093672,
,,,C,G,d,b,,,,,,,,,,4,6,86,12,,,,,,,,,,,,,b,1,1.0841616002699084,1368.0766191314344,None,,,,,001,32,2019_Oct_16_1003,ACPT_experiment_5_30_19,3.1.0,59.95593127093672,
,,,C,U,d,n,,,,,,,,,,4,7,87,6,,,,,,,,,,,,,v,0,2.2681170028988618,1372.4635830696373,None,,,,,001,32,2019_Oct_16_1003,ACPT_experiment_5_30_19,3.1.0,59.95593127093672,
,,,C,D,y,b,,,,,,,,,,4,8,88,11,,,,,,,,,,,,,b,1,1.5512015215942938,1378.0175251392989,None,,,,,001,32,2019_Oct_16_1003,ACPT_experiment_5_30_19,3.1.0,59.95593127093672,
,,,C,U,g,n,,,,,,,,,,4,9,89,16,,,,,,,,,,,,,b,0,1.4344425222943755,1382.8545502183777,None,,,,,001,32,2019_Oct_16_1003,ACPT_experiment_5_30_19,3.1.0,59.95593127093672,
,,,C,U,g,n,,,,,,,,,,4,10,90,7,,,,,,,,,,,,,v,0,1.067216929517599,1387.5750906850042,None,,,,,001,32,2019_Oct_16_1003,ACPT_experiment_5_30_19,3.1.0,59.95593127093672,
,,,C,U,y,n,,,,,,,,,,4,11,91,8,,,,,,,,,,,,,v,0,1.134230710136535,1391.9114388526343,None,,,,,001,32,2019_Oct_16_1003,ACPT_experiment_5_30_19,3.1.0,59.95593127093672,
,,,C,D,d,v,,,,,,,,,,4,12,92,0,,,,,,,,,,,,,v,1,1.8343008312201619,1396.3485956615486,None,,,,,001,32,2019_Oct_16_1003,ACPT_experiment_5_30_19,3.1.0,59.95593127093672,
,,,C,G,g,v,,,,,,,,,,4,13,93,19,,,,,,,,,,,,,v,1,1.2843055250764337,1401.4687668378895,None,,,,,001,32,2019_Oct_16_1003,ACPT_experiment_5_30_19,3.1.0,59.95593127093672,
,,,C,U,y,n,,,,,,,,,,4,14,94,17,,,,,,,,,,,,,v,0,2.0346536401837056,1406.0558321392425,None,,,,,001,32,2019_Oct_16_1003,ACPT_experiment_5_30_19,3.1.0,59.95593127093672,
,,,C,D,y,b,,,,,,,,,,4,15,95,2,,,,,,,,,,,,,b,1,1.200953501843287,1411.3762812643288,None,,,,,001,32,2019_Oct_16_1003,ACPT_experiment_5_30_19,3.1.0,59.95593127093672,
,,,C,G,d,b,,,,,,,,,,4,16,96,3,,,,,,,,,,,,,b,1,0.9674653869594749,1415.8630646626266,None,,,,,001,32,2019_Oct_16_1003,ACPT_experiment_5_30_19,3.1.0,59.95593127093672,
,,,C,D,g,b,,,,,,,,,,4,17,97,10,,,,,,,,,,,,,b,1,1.4511460103276477,1420.116306517578,None,,,,,001,32,2019_Oct_16_1003,ACPT_experiment_5_30_19,3.1.0,59.95593127093672,
,,,C,G,g,v,,,,,,,,,,4,18,98,4,,,,,,,,,,,,,v,1,1.0841878617175098,1424.853234429301,None,,,,,001,32,2019_Oct_16_1003,ACPT_experiment_5_30_19,3.1.0,59.95593127093672,
,,,C,G,y,b,,,,,,,,,,4,19,99,14,,,,,,,,,,,,,b,1,0.9173938622470814,1429.2065550384098,None,,,,,001,32,2019_Oct_16_1003,ACPT_experiment_5_30_19,3.1.0,59.95593127093672,
,,,C,G,g,v,,,,,,,,,,5,0,100,19,,,,,,,,,,,,,v,1,1.0341232796865825,1433.3931073057838,None,,,,,001,32,2019_Oct_16_1003,ACPT_experiment_5_30_19,3.1.0,59.95593127093672,
,,,C,U,d,n,,,,,,,,,,5,1,101,15,,,,,,,,,,,,,b,0,1.6679496540884884,1437.713061387492,None,,,,,001,32,2019_Oct_16_1003,ACPT_experiment_5_30_19,3.1.0,59.95593127093672,
,,,C,G,g,v,,,,,,,,,,5,2,102,4,,,,,,,,,,,,,v,1,3.2858483096533746,1442.6668397306119,None,,,,,001,32,2019_Oct_16_1003,ACPT_experiment_5_30_19,3.1.0,59.95593127093672,
,,,C,G,d,b,,,,,,,,,,5,3,103,12,,,,,,,,,,,,,b,1,2.5519824223379146,1449.2384904678493,None,,,,,001,32,2019_Oct_16_1003,ACPT_experiment_5_30_19,3.1.0,59.95593127093672,
,,,C,D,d,v,,,,,,,,,,5,4,104,18,,,,,,,,,,,,,v,1,1.0174865017668253,1455.0762994662286,None,,,,,001,32,2019_Oct_16_1003,ACPT_experiment_5_30_19,3.1.0,59.95593127093672,
,,,C,U,y,n,,,,,,,,,,5,5,105,17,,,,,,,,,,,,,n,1,1.1506392851333658,1459.3965092197302,None,,,,,001,32,2019_Oct_16_1003,ACPT_experiment_5_30_19,3.1.0,59.95593127093672,
,,,C,U,g,n,,,,,,,,,,5,6,106,16,,,,,,,,,,,,,n,1,1.1175543891181405,1463.816295741329,None,,,,,001,32,2019_Oct_16_1003,ACPT_experiment_5_30_19,3.1.0,59.95593127093672,
,,,C,G,y,b,,,,,,,,,,5,7,107,14,,,,,,,,,,,,,b,1,1.9679136427014328,1468.2366035677535,None,,,,,001,32,2019_Oct_16_1003,ACPT_experiment_5_30_19,3.1.0,59.95593127093672,
,,,C,U,d,n,,,,,,,,,,5,8,108,6,,,,,,,,,,,,,n,1,1.3510473336934865,1473.4903434846406,None,,,,,001,32,2019_Oct_16_1003,ACPT_experiment_5_30_19,3.1.0,59.95593127093672,
,,,C,D,g,b,,,,,,,,,,5,9,109,1,,,,,,,,,,,,,b,1,1.3506663917767128,1478.1441421426505,None,,,,,001,32,2019_Oct_16_1003,ACPT_experiment_5_30_19,3.1.0,59.95593127093672,
,,,C,D,d,v,,,,,,,,,,5,10,110,0,,,,,,,,,,,,,v,1,1.017472616403893,1482.7807600787362,None,,,,,001,32,2019_Oct_16_1003,ACPT_experiment_5_30_19,3.1.0,59.95593127093672,
,,,C,D,y,b,,,,,,,,,,5,11,111,11,,,,,,,,,,,,,b,1,1.217202998876246,1487.101000621521,None,,,,,001,32,2019_Oct_16_1003,ACPT_experiment_5_30_19,3.1.0,59.95593127093672,
,,,C,U,g,n,,,,,,,,,,5,12,112,7,,,,,,,,,,,,,n,1,0.884042729488101,1491.6041358459402,None,,,,,001,32,2019_Oct_16_1003,ACPT_experiment_5_30_19,3.1.0,59.95593127093672,
,,,C,D,y,b,,,,,,,,,,5,13,113,2,,,,,,,,,,,,,b,1,0.8003677206361317,1495.7909377479934,None,,,,,001,32,2019_Oct_16_1003,ACPT_experiment_5_30_19,3.1.0,59.95593127093672,
,,,C,U,y,n,,,,,,,,,,5,14,114,8,,,,,,,,,,,,,n,1,0.8339799585912715,1499.8771260075566,None,,,,,001,32,2019_Oct_16_1003,ACPT_experiment_5_30_19,3.1.0,59.95593127093672,
,,,C,D,d,v,,,,,,,,,,5,15,115,9,,,,,,,,,,,,,v,1,1.634610293702508,1503.9969452201299,None,,,,,001,32,2019_Oct_16_1003,ACPT_experiment_5_30_19,3.1.0,59.95593127093672,
,,,C,G,d,b,,,,,,,,,,5,16,116,3,,,,,,,,,,,,,b,1,0.8673582583649022,1508.9173588469837,None,,,,,001,32,2019_Oct_16_1003,ACPT_experiment_5_30_19,3.1.0,59.95593127093672,
,,,C,G,y,b,,,,,,,,,,5,17,117,5,,,,,,,,,,,,,b,1,0.7172360520773964,1513.0538353636653,None,,,,,001,32,2019_Oct_16_1003,ACPT_experiment_5_30_19,3.1.0,59.95593127093672,
,,,C,D,g,b,,,,,,,,,,5,18,118,10,,,,,,,,,,,,,b,1,1.1008457695372726,1517.05690251962,None,,,,,001,32,2019_Oct_16_1003,ACPT_experiment_5_30_19,3.1.0,59.95593127093672,
,,,C,G,g,v,,,,,,,,,,5,19,119,13,,,,,,,,,,,,,v,1,1.367435080645464,1521.4605464011102,None,,,,,001,32,2019_Oct_16_1003,ACPT_experiment_5_30_19,3.1.0,59.95593127093672,
,,,C,U,g,n,,,,,,,,,,6,0,120,7,,,,,,,,,,,,,n,1,0.9840937129188205,1526.0971241903853,None,,,,,001,32,2019_Oct_16_1003,ACPT_experiment_5_30_19,3.1.0,59.95593127093672,
,,,C,U,y,n,,,,,,,,,,6,1,121,17,,,,,,,,,,,,,n,1,0.7169495910006844,1530.3673203754724,None,,,,,001,32,2019_Oct_16_1003,ACPT_experiment_5_30_19,3.1.0,59.95593127093672,
,,,C,G,g,v,,,,,,,,,,6,2,122,19,,,,,,,,,,,,,v,1,1.4344367870357928,1534.3701225021064,None,,,,,001,32,2019_Oct_16_1003,ACPT_experiment_5_30_19,3.1.0,59.95593127093672,
,,,C,D,g,b,,,,,,,,,,6,3,123,10,,,,,,,,,,,,,b,1,1.1838636384902657,1539.107306689334,None,,,,,001,32,2019_Oct_16_1003,ACPT_experiment_5_30_19,3.1.0,59.95593127093672,
,,,C,D,g,b,,,,,,,,,,6,4,124,1,,,,,,,,,,,,,b,1,1.1009988103867272,1543.5602922084097,None,,,,,001,32,2019_Oct_16_1003,ACPT_experiment_5_30_19,3.1.0,59.95593127093672,
,,,C,G,y,b,,,,,,,,,,6,5,125,5,,,,,,,,,,,,,b,1,0.7005413178599156,1547.9471251412308,None,,,,,001,32,2019_Oct_16_1003,ACPT_experiment_5_30_19,3.1.0,59.95593127093672,
,,,C,D,d,v,,,,,,,,,,6,6,126,9,,,,,,,,,,,,,v,1,0.9007042595767416,1551.9334827720377,None,,,,,001,32,2019_Oct_16_1003,ACPT_experiment_5_30_19,3.1.0,59.95593127093672,
,,,C,G,g,v,,,,,,,,,,6,7,127,13,,,,,,,,,,,,,b,0,1.217228958468013,1556.1369558635624,None,,,,,001,32,2019_Oct_16_1003,ACPT_experiment_5_30_19,3.1.0,59.95593127093672,
,,,C,G,y,b,,,,,,,,,,6,8,128,14,,,,,,,,,,,,,b,1,0.8505521393872186,1560.6234352931517,None,,,,,001,32,2019_Oct_16_1003,ACPT_experiment_5_30_19,3.1.0,59.95593127093672,
,,,C,D,y,b,,,,,,,,,,6,9,129,11,,,,,,,,,,,,,b,1,1.400684488027082,1564.7768927032719,None,,,,,001,32,2019_Oct_16_1003,ACPT_experiment_5_30_19,3.1.0,59.95593127093672,
,,,C,G,d,b,,,,,,,,,,6,10,130,3,,,,,,,,,,,,,b,1,1.401076900461021,1569.463528735608,None,,,,,001,32,2019_Oct_16_1003,ACPT_experiment_5_30_19,3.1.0,59.95593127093672,
,,,C,U,d,n,,,,,,,,,,6,11,131,6,,,,,,,,,,,,,n,1,1.1172630983496674,1574.1674001257531,None,,,,,001,32,2019_Oct_16_1003,ACPT_experiment_5_30_19,3.1.0,59.95593127093672,
,,,C,G,d,b,,,,,,,,,,6,12,132,12,,,,,,,,,,,,,b,1,0.9006970150394409,1578.5704722925127,None,,,,,001,32,2019_Oct_16_1003,ACPT_experiment_5_30_19,3.1.0,59.95593127093672,
,,,C,D,y,b,,,,,,,,,,6,13,133,2,,,,,,,,,,,,,b,1,0.8170712086694039,1582.7739164058885,None,,,,,001,32,2019_Oct_16_1003,ACPT_experiment_5_30_19,3.1.0,59.95593127093672,
,,,C,U,d,n,,,,,,,,,,6,14,134,15,,,,,,,,,,,,,n,1,1.0842165380106508,1586.8768045312165,None,,,,,001,32,2019_Oct_16_1003,ACPT_experiment_5_30_19,3.1.0,59.95593127093672,
,,,C,U,y,n,,,,,,,,,,6,15,135,8,,,,,,,,,,,,,n,1,0.8837435904711128,1591.2637551877679,None,,,,,001,32,2019_Oct_16_1003,ACPT_experiment_5_30_19,3.1.0,59.95593127093672,
,,,C,U,g,n,,,,,,,,,,6,16,136,16,,,,,,,,,,,,,n,1,1.0841957099660249,1595.4166260922273,None,,,,,001,32,2019_Oct_16_1003,ACPT_experiment_5_30_19,3.1.0,59.95593127093672,
,,,C,D,d,v,,,,,,,,,,6,17,137,18,,,,,,,,,,,,,v,1,1.1339696049403756,1599.8035716172312,None,,,,,001,32,2019_Oct_16_1003,ACPT_experiment_5_30_19,3.1.0,59.95593127093672,
,,,C,D,d,v,,,,,,,,,,6,18,138,0,,,,,,,,,,,,,v,1,0.8506608074460473,1604.2066893642043,None,,,,,001,32,2019_Oct_16_1003,ACPT_experiment_5_30_19,3.1.0,59.95593127093672,
,,,C,G,g,v,,,,,,,,,,6,19,139,4,,,,,,,,,,,,,b,0,0.76726048729779,1608.3431749365575,None,,,,,001,32,2019_Oct_16_1003,ACPT_experiment_5_30_19,3.1.0,59.95593127093672,
,,,C,G,y,b,,,,,,,,,,7,0,140,5,,,,,,,,,,,,,b,1,0.800627618409635,1612.379587791868,None,,,,,001,32,2019_Oct_16_1003,ACPT_experiment_5_30_19,3.1.0,59.95593127093672,
,,,C,G,g,v,,,,,,,,,,7,1,141,13,,,,,,,,,,,,,v,1,0.6138214903764947,1616.486042644365,None,,,,,001,32,2019_Oct_16_1003,ACPT_experiment_5_30_19,3.1.0,59.95593127093672,
,,,C,U,g,n,,,,,,,,,,7,2,142,7,,,,,,,,,,,,,n,1,1.1675921059900247,1620.3856644493353,None,,,,,001,32,2019_Oct_16_1003,ACPT_experiment_5_30_19,3.1.0,59.95593127093672,
,,,C,U,d,n,,,,,,,,,,7,3,143,15,,,,,,,,,,,,,n,1,0.8837432886152783,1624.8393578200705,None,,,,,001,32,2019_Oct_16_1003,ACPT_experiment_5_30_19,3.1.0,59.95593127093672,
,,,C,U,g,n,,,,,,,,,,7,4,144,16,,,,,,,,,,,,,n,1,0.8006227887181012,1628.9922537785544,None,,,,,001,32,2019_Oct_16_1003,ACPT_experiment_5_30_19,3.1.0,59.95593127093672,
,,,C,G,d,b,,,,,,,,,,7,5,145,12,,,,,,,,,,,,,v,0,1.301004485274234,1633.0787046525927,None,,,,,001,32,2019_Oct_16_1003,ACPT_experiment_5_30_19,3.1.0,59.95593127093672,
,,,C,U,y,n,,,,,,,,,,7,6,146,17,,,,,,,,,,,,,n,1,0.800622486862494,1637.6655320916398,None,,,,,001,32,2019_Oct_16_1003,ACPT_experiment_5_30_19,3.1.0,59.95593127093672,
,,,C,U,d,n,,,,,,,,,,7,7,147,6,,,,,,,,,,,,,n,1,0.9671442124749774,1641.7522516172676,None,,,,,001,32,2019_Oct_16_1003,ACPT_experiment_5_30_19,3.1.0,59.95593127093672,
,,,C,D,g,b,,,,,,,,,,7,8,148,1,,,,,,,,,,,,,b,1,1.7847017107069405,1646.0052275373314,None,,,,,001,32,2019_Oct_16_1003,ACPT_experiment_5_30_19,3.1.0,59.95593127093672,
,,,C,G,d,b,,,,,,,,,,7,9,149,3,,,,,,,,,,,,,b,1,0.7839642771866693,1651.0757549185125,None,,,,,001,32,2019_Oct_16_1003,ACPT_experiment_5_30_19,3.1.0,59.95593127093672,
,,,C,D,d,v,,,,,,,,,,7,10,150,0,,,,,,,,,,,,,v,1,1.200637458906158,1655.1624922536278,None,,,,,001,32,2019_Oct_16_1003,ACPT_experiment_5_30_19,3.1.0,59.95593127093672,
,,,C,D,d,v,,,,,,,,,,7,11,151,9,,,,,,,,,,,,,v,1,0.8006227887181012,1659.6322829861138,None,,,,,001,32,2019_Oct_16_1003,ACPT_experiment_5_30_19,3.1.0,59.95593127093672,
,,,C,G,g,v,,,,,,,,,,7,12,152,4,,,,,,,,,,,,,v,1,0.9340496570766845,1663.718732954585,None,,,,,001,32,2019_Oct_16_1003,ACPT_experiment_5_30_19,3.1.0,59.95593127093672,
,,,C,D,y,b,,,,,,,,,,7,13,153,2,,,,,,,,,,,,,b,1,0.9006955057609503,1667.9386103951263,None,,,,,001,32,2019_Oct_16_1003,ACPT_experiment_5_30_19,3.1.0,59.95593127093672,
,,,C,U,y,n,,,,,,,,,,7,14,154,8,,,,,,,,,,,,,n,1,0.9171472461250687,1672.1420551122135,None,,,,,001,32,2019_Oct_16_1003,ACPT_experiment_5_30_19,3.1.0,59.95593127093672,
,,,C,D,g,b,,,,,,,,,,7,15,155,10,,,,,,,,,,,,,v,0,1.6846546514004785,1676.3450259158228,None,,,,,001,32,2019_Oct_16_1003,ACPT_experiment_5_30_19,3.1.0,59.95593127093672,
,,,C,D,d,v,,,,,,,,,,7,16,156,18,,,,,,,,,,,,,v,1,0.7339030155687851,1681.2987964106942,None,,,,,001,32,2019_Oct_16_1003,ACPT_experiment_5_30_19,3.1.0,59.95593127093672,
,,,C,D,y,b,,,,,,,,,,7,17,157,11,,,,,,,,,,,,,b,1,0.7503118924209957,1685.318801898431,None,,,,,001,32,2019_Oct_16_1003,ACPT_experiment_5_30_19,3.1.0,59.95593127093672,
,,,C,G,g,v,,,,,,,,,,7,18,158,19,,,,,,,,,,,,,v,1,1.0841700522300926,1689.3549406687494,None,,,,,001,32,2019_Oct_16_1003,ACPT_experiment_5_30_19,3.1.0,59.95593127093672,
,,,C,G,y,b,,,,,,,,,,7,19,159,14,,,,,,,,,,,,,b,1,1.801120548797826,1693.7252065523219,None,,,,,001,32,2019_Oct_16_1003,ACPT_experiment_5_30_19,3.1.0,59.95593127093672,
,,,C,U,g,n,,,,,,,,,,8,0,160,7,,,,,,,,,,,,,n,1,1.0007446780573446,1698.812177523763,None,,,,,001,32,2019_Oct_16_1003,ACPT_experiment_5_30_19,3.1.0,59.95593127093672,
,,,C,D,y,b,,,,,,,,,,8,1,161,2,,,,,,,,,,,,,b,1,1.4675820541945086,1703.1156457554107,None,,,,,001,32,2019_Oct_16_1003,ACPT_experiment_5_30_19,3.1.0,59.95593127093672,
,,,C,D,g,b,,,,,,,,,,8,2,162,1,,,,,,,,,,,,,b,1,1.0841911821303256,1707.8523765553493,None,,,,,001,32,2019_Oct_16_1003,ACPT_experiment_5_30_19,3.1.0,59.95593127093672,
,,,C,U,y,n,,,,,,,,,,8,3,163,8,,,,,,,,,,,,,n,1,0.9671580978381371,1712.2393329471593,None,,,,,001,32,2019_Oct_16_1003,ACPT_experiment_5_30_19,3.1.0,59.95593127093672,
,,,C,G,y,b,,,,,,,,,,8,4,164,14,,,,,,,,,,,,,b,1,0.9840949203419314,1716.4922943781487,None,,,,,001,32,2019_Oct_16_1003,ACPT_experiment_5_30_19,3.1.0,59.95593127093672,
,,,C,U,d,n,,,,,,,,,,8,5,165,6,,,,,,,,,,,,,b,0,1.0336843814718577,1720.7793286789195,None,,,,,001,32,2019_Oct_16_1003,ACPT_experiment_5_30_19,3.1.0,59.95593127093672,
,,,C,U,d,n,,,,,,,,,,8,6,166,15,,,,,,,,,,,,,n,1,1.5178461628552213,1725.0821772007773,None,,,,,001,32,2019_Oct_16_1003,ACPT_experiment_5_30_19,3.1.0,59.95593127093672,
,,,C,D,d,v,,,,,,,,,,8,7,167,18,,,,,,,,,,,,,v,1,0.9173808824509706,1729.885837261734,None,,,,,001,32,2019_Oct_16_1003,ACPT_experiment_5_30_19,3.1.0,59.95593127093672,
,,,C,G,y,b,,,,,,,,,,8,8,168,5,,,,,,,,,,,,,b,1,0.9173603562621793,1734.089063435281,None,,,,,001,32,2019_Oct_16_1003,ACPT_experiment_5_30_19,3.1.0,59.95593127093672,
,,,C,U,y,n,,,,,,,,,,8,9,169,17,,,,,,,,,,,,,n,1,1.1842524286555545,1738.2922482545948,None,,,,,001,32,2019_Oct_16_1003,ACPT_experiment_5_30_19,3.1.0,59.95593127093672,
,,,C,D,d,v,,,,,,,,,,8,10,170,9,,,,,,,,,,,,,v,1,1.21736449168543,1742.779245668597,None,,,,,001,32,2019_Oct_16_1003,ACPT_experiment_5_30_19,3.1.0,59.95593127093672,
,,,C,D,d,v,,,,,,,,,,8,11,171,0,,,,,,,,,,,,,v,1,0.7339513124838959,1747.2824092674534,None,,,,,001,32,2019_Oct_16_1003,ACPT_experiment_5_30_19,3.1.0,59.95593127093672,
,,,C,G,g,v,,,,,,,,,,8,12,172,13,,,,,,,,,,,,,v,1,1.2809896400099205,1751.3388602109187,None,,,,,001,32,2019_Oct_16_1003,ACPT_experiment_5_30_19,3.1.0,59.95593127093672,
,,,C,G,d,b,,,,,,,,,,8,13,173,12,,,,,,,,,,,,,b,1,1.2009854985494712,1755.8889750519268,None,,,,,001,32,2019_Oct_16_1003,ACPT_experiment_5_30_19,3.1.0,59.95593127093672,
,,,C,D,y,b,,,,,,,,,,8,14,174,11,,,,,,,,,,,,,b,1,0.9004238356142196,1760.392707346957,None,,,,,001,32,2019_Oct_16_1003,ACPT_experiment_5_30_19,3.1.0,59.95593127093672,
,,,C,G,g,v,,,,,,,,,,8,15,175,19,,,,,,,,,,,,,v,1,2.201714480109331,1764.578928780464,None,,,,,001,32,2019_Oct_16_1003,ACPT_experiment_5_30_19,3.1.0,59.95593127093672,
,,,C,G,g,v,,,,,,,,,,8,16,176,4,,,,,,,,,,,,,v,1,0.8006249017084883,1770.0497907988945,None,,,,,001,32,2019_Oct_16_1003,ACPT_experiment_5_30_19,3.1.0,59.95593127093672,
,,,C,D,g,b,,,,,,,,,,8,17,177,10,,,,,,,,,,,,,b,1,1.0838902319787849,1774.1531953993565,None,,,,,001,32,2019_Oct_16_1003,ACPT_experiment_5_30_19,3.1.0,59.95593127093672,
,,,C,G,d,b,,,,,,,,,,8,18,178,3,,,,,,,,,,,,,b,1,1.2509722018048706,1778.5229191500587,None,,,,,001,32,2019_Oct_16_1003,ACPT_experiment_5_30_19,3.1.0,59.95593127093672,
,,,C,U,g,n,,,,,,,,,,8,19,179,16,,,,,,,,,,,,,n,1,1.033858552221318,1783.076668032061,None,,,,,001,32,2019_Oct_16_1003,ACPT_experiment_5_30_19,3.1.0,59.95593127093672,
,,,C,D,d,v,,,,,,,,,,9,0,180,9,,,,,,,,,,,,,v,1,0.7505778273093711,1787.3963495380551,None,,,,,001,32,2019_Oct_16_1003,ACPT_experiment_5_30_19,3.1.0,59.95593127093672,
,,,C,G,g,v,,,,,,,,,,9,1,181,4,,,,,,,,,,,,,v,1,0.8673401470218778,1791.4327614877986,None,,,,,001,32,2019_Oct_16_1003,ACPT_experiment_5_30_19,3.1.0,59.95593127093672,
,,,C,D,y,b,,,,,,,,,,9,2,182,11,,,,,,,,,,,,,b,1,0.7172254871270525,1795.5859297201407,None,,,,,001,32,2019_Oct_16_1003,ACPT_experiment_5_30_19,3.1.0,59.95593127093672,
,,,C,D,y,b,,,,,,,,,,9,3,183,2,,,,,,,,,,,,,b,1,0.9338130021933466,1799.6058977777686,None,,,,,001,32,2019_Oct_16_1003,ACPT_experiment_5_30_19,3.1.0,59.95593127093672,
,,,C,D,g,b,,,,,,,,,,9,4,184,1,,,,,,,,,,,,,b,1,1.284301299096569,1803.8255491283765,None,,,,,001,32,2019_Oct_16_1003,ACPT_experiment_5_30_19,3.1.0,59.95593127093672,
,,,C,U,y,n,,,,,,,,,,9,5,185,17,,,,,,,,,,,,,n,1,1.0674943349231398,1808.4123735488663,None,,,,,001,32,2019_Oct_16_1003,ACPT_experiment_5_30_19,3.1.0,59.95593127093672,
,,,C,U,g,n,,,,,,,,,,9,6,186,16,,,,,,,,,,,,,n,1,1.1008620697461993,1812.7656887245723,None,,,,,001,32,2019_Oct_16_1003,ACPT_experiment_5_30_19,3.1.0,59.95593127093672,
,,,C,D,d,v,,,,,,,,,,9,7,187,0,,,,,,,,,,,,,v,1,0.7169677023434815,1817.1692981945105,None,,,,,001,32,2019_Oct_16_1003,ACPT_experiment_5_30_19,3.1.0,59.95593127093672,
,,,C,G,g,v,,,,,,,,,,9,8,188,19,,,,,,,,,,,,,v,1,0.6338031315117405,1821.1721250733133,None,,,,,001,32,2019_Oct_16_1003,ACPT_experiment_5_30_19,3.1.0,59.95593127093672,
,,,C,G,g,v,,,,,,,,,,9,9,189,13,,,,,,,,,,,,,v,1,1.2344133026608688,1825.0749456433316,None,,,,,001,32,2019_Oct_16_1003,ACPT_experiment_5_30_19,3.1.0,59.95593127093672,
,,,C,G,d,b,,,,,,,,,,9,10,190,3,,,,,,,,,,,,,b,1,0.7672692411138087,1829.5951731459493,None,,,,,001,32,2019_Oct_16_1003,ACPT_experiment_5_30_19,3.1.0,59.95593127093672,
,,,C,U,d,n,,,,,,,,,,9,11,191,15,,,,,,,,,,,,,n,1,1.0308046779182405,1833.6849601293877,None,,,,,001,32,2019_Oct_16_1003,ACPT_experiment_5_30_19,3.1.0,59.95593127093672,
,,,C,D,d,v,,,,,,,,,,9,12,192,18,,,,,,,,,,,,,v,1,0.7839591456395283,1838.0015968167506,None,,,,,001,32,2019_Oct_16_1003,ACPT_experiment_5_30_19,3.1.0,59.95593127093672,
,,,C,G,y,b,,,,,,,,,,9,13,193,5,,,,,,,,,,,,,b,1,0.9507353356229942,1842.0713650308,None,,,,,001,32,2019_Oct_16_1003,ACPT_experiment_5_30_19,3.1.0,59.95593127093672,
,,,C,G,y,b,,,,,,,,,,9,14,194,14,,,,,,,,,,,,,b,1,0.7672535446163238,1846.3079308665885,None,,,,,001,32,2019_Oct_16_1003,ACPT_experiment_5_30_19,3.1.0,59.95593127093672,
,,,C,U,d,n,,,,,,,,,,9,15,195,6,0,0,0,0,0,0,0,0,,,,,n,1,0.9838860361846855,1850.3946030008685,None,,,,,001,32,2019_Oct_16_1003,ACPT_experiment_5_30_19,3.1.0,59.95593127093672,
,,,C,U,d,n,R,U,g,L,u,,,,,9,15,195,6,0,0,0,0,,,,,0,0,0,10,,,,,,down,5.003807306176441,1885.9548327251443,None,001,32,2019_Oct_16_1003,ACPT_experiment_5_30_19,3.1.0,59.95593127093672,
,,,C,U,d,n,L,D,y,L,y,,,,,9,15,195,6,0,0,0,0,,,,,0,1,1,32,,,,,,down,1.1175691800481218,1892.242949782377,None,001,32,2019_Oct_16_1003,ACPT_experiment_5_30_19,3.1.0,59.95593127093672,
,,,C,U,d,n,L,G,d,R,i,,,,,9,15,195,6,0,0,0,0,,,,,0,2,2,17,,,,,,down,1.417720017350348,1894.6447930945071,None,001,32,2019_Oct_16_1003,ACPT_experiment_5_30_19,3.1.0,59.95593127093672,
,,,C,U,d,n,L,D,d,R,c ,,,,,9,15,195,6,0,0,0,0,,,,,0,3,3,13,,,,,,up,1.1675658445424233,1897.3468412761133,None,001,32,2019_Oct_16_1003,ACPT_experiment_5_30_19,3.1.0,59.95593127093672,
,,,C,U,d,n,L,G,g,L,c ,,,,,9,15,195,6,0,0,0,0,,,,,0,4,4,18,,,,,,up,1.000768524659179,1899.7987057030507,None,001,32,2019_Oct_16_1003,ACPT_experiment_5_30_19,3.1.0,59.95593127093672,
,,,C,U,d,n,R,D,d,L,c,,,,,9,15,195,6,0,0,0,0,,,,,0,5,5,0,,,,,,up,0.783908433878878,1902.0838008826865,None,001,32,2019_Oct_16_1003,ACPT_experiment_5_30_19,3.1.0,59.95593127093672,
,,,C,U,d,n,R,D,y,R,y,,,,,9,15,195,6,0,0,0,0,,,,,0,6,6,27,,,,,,down,0.7172342409430712,1904.151998843289,None,001,32,2019_Oct_16_1003,ACPT_experiment_5_30_19,3.1.0,59.95593127093672,
,,,C,U,d,n,R,G,d,L,i,,,,,9,15,195,6,0,0,0,0,,,,,0,7,7,4,,,,,,down,1.0841640151156753,1906.1535494761144,None,001,32,2019_Oct_16_1003,ACPT_experiment_5_30_19,3.1.0,59.95593127093672,
,,,C,U,d,n,L,U,y,R,u,,,,,9,15,195,6,0,0,0,0,,,,,0,8,8,25,,,,,,down,1.7678343150182627,1908.5388613579705,None,001,32,2019_Oct_16_1003,ACPT_experiment_5_30_19,3.1.0,59.95593127093672,
,,,C,U,d,n,R,G,d,R,i,,,,,9,15,195,6,0,0,0,0,,,,,0,9,9,5,,,,,,down,1.0674765254352678,1911.607706497233,None,001,32,2019_Oct_16_1003,ACPT_experiment_5_30_19,3.1.0,59.95593127093672,
,,,C,U,d,n,L,U,d,R,u,,,,,9,15,195,6,0,0,0,0,,,,,0,10,10,21,,,,,,down,1.2342608655230833,1913.959506659088,None,001,32,2019_Oct_16_1003,ACPT_experiment_5_30_19,3.1.0,59.95593127093672,
,,,C,U,d,n,L,U,g,R,u,,,,,9,15,195,6,0,0,0,0,,,,,0,11,11,23,,,,,,down,0.9174143884361001,1916.461385861863,None,001,32,2019_Oct_16_1003,ACPT_experiment_5_30_19,3.1.0,59.95593127093672,
,,,C,U,d,n,R,U,d,L,u,,,,,9,15,195,6,0,0,0,0,,,,,0,12,12,8,,,,,,down,1.0341202611293738,1918.663090078878,None,001,32,2019_Oct_16_1003,ACPT_experiment_5_30_19,3.1.0,59.95593127093672,
,,,C,U,d,n,L,G,y,L,y,,,,,9,15,195,6,0,0,0,0,,,,,0,13,13,34,,,,,,down,1.5845526543530468,1920.9982021473413,None,001,32,2019_Oct_16_1003,ACPT_experiment_5_30_19,3.1.0,59.95593127093672,
,,,C,U,d,n,R,D,y,L,y,,,,,9,15,195,6,0,0,0,0,,,,,0,14,14,26,,,,,,down,0.9173618655408973,1923.8837351385112,None,001,32,2019_Oct_16_1003,ACPT_experiment_5_30_19,3.1.0,59.95593127093672,
,,,C,U,d,n,L,U,g,L,u,,,,,9,15,195,6,0,0,0,0,,,,,0,15,15,22,,,,,,down,1.1175085070485693,1926.0854173200585,None,001,32,2019_Oct_16_1003,ACPT_experiment_5_30_19,3.1.0,59.95593127093672,
,,,C,U,d,n,R,U,y,R,u,,,,,9,15,195,6,0,0,0,0,,,,,0,16,16,31,,,,,,down,0.6338188280087707,1928.487242822701,None,001,32,2019_Oct_16_1003,ACPT_experiment_5_30_19,3.1.0,59.95593127093672,
,,,C,U,d,n,L,G,d,L,i,,,,,9,15,195,6,0,0,0,0,,,,,0,17,17,16,,,,,,down,1.1175030736458211,1930.4053895131099,None,001,32,2019_Oct_16_1003,ACPT_experiment_5_30_19,3.1.0,59.95593127093672,
,,,C,U,d,n,R,G,g,R,c ,,,,,9,15,195,6,0,0,0,0,,,,,0,18,18,7,,,,,,up,0.9340481477984213,1932.8072017341008,None,001,32,2019_Oct_16_1003,ACPT_experiment_5_30_19,3.1.0,59.95593127093672,
,,,C,U,d,n,R,G,y,R,y,,,,,9,15,195,6,0,0,0,0,,,,,0,19,19,29,,,,,,down,0.7005334696109458,1935.0255578218214,None,001,32,2019_Oct_16_1003,ACPT_experiment_5_30_19,3.1.0,59.95593127093672,
,,,C,U,d,n,L,G,g,R,c ,,,,,9,15,195,6,0,0,0,0,,,,,0,20,20,19,,,,,,up,1.2343007104777826,1937.010405268469,None,001,32,2019_Oct_16_1003,ACPT_experiment_5_30_19,3.1.0,59.95593127093672,
,,,C,U,d,n,R,D,g,R,i,,,,,9,15,195,6,0,0,0,0,,,,,0,21,21,3,,,,,,up,0.5837560571121685,1939.51233125888,None,001,32,2019_Oct_16_1003,ACPT_experiment_5_30_19,3.1.0,59.95593127093672,
,,,C,U,d,n,R,D,g,L,i,,,,,9,15,195,6,0,0,0,0,,,,,0,22,22,2,,,,,,down,0.980747642280221,1941.4004140253035,None,001,32,2019_Oct_16_1003,ACPT_experiment_5_30_19,3.1.0,59.95593127093672,
,,,C,U,d,n,R,G,y,L,y,,,,,9,15,195,6,0,0,0,0,,,,,0,23,23,28,,,,,,down,0.6504960545948961,1943.665476248332,None,001,32,2019_Oct_16_1003,ACPT_experiment_5_30_19,3.1.0,59.95593127093672,
,,,C,U,d,n,L,D,y,R,y,,,,,9,15,195,6,0,0,0,0,,,,,0,24,24,33,,,,,,down,0.6505247308882645,1945.6002811484161,None,001,32,2019_Oct_16_1003,ACPT_experiment_5_30_19,3.1.0,59.95593127093672,
,,,C,U,d,n,R,U,y,L,u,,,,,9,15,195,6,0,0,0,0,,,,,0,25,25,30,,,,,,down,0.6004589414342263,1947.535088463346,None,001,32,2019_Oct_16_1003,ACPT_experiment_5_30_19,3.1.0,59.95593127093672,
,,,C,U,d,n,L,D,g,R,i,,,,,9,15,195,6,0,0,0,0,,,,,0,26,26,15,,,,,,down,0.9507190354138402,1949.4198650040855,None,001,32,2019_Oct_16_1003,ACPT_experiment_5_30_19,3.1.0,59.95593127093672,
,,,C,U,d,n,R,U,g,R,u,,,,,9,15,195,6,0,0,0,0,,,,,0,27,27,11,,,,,,down,1.417772238390171,1951.6548989221035,None,001,32,2019_Oct_16_1003,ACPT_experiment_5_30_19,3.1.0,59.95593127093672,
,,,C,U,d,n,L,U,y,L,u,,,,,9,15,195,6,0,0,0,0,,,,,0,28,28,24,,,,,,down,0.6671989389164992,1954.3569353313367,None,001,32,2019_Oct_16_1003,ACPT_experiment_5_30_19,3.1.0,59.95593127093672,
,,,C,U,d,n,L,G,y,R,y,,,,,9,15,195,6,0,0,0,0,,,,,0,29,29,35,,,,,,down,0.9173636766749951,1956.3084509639914,None,001,32,2019_Oct_16_1003,ACPT_experiment_5_30_19,3.1.0,59.95593127093672,
,,,C,U,d,n,R,G,g,L,c ,,,,,9,15,195,6,0,0,0,0,,,,,0,30,30,6,,,,,,up,0.6338158094517894,1958.510125599146,None,001,32,2019_Oct_16_1003,ACPT_experiment_5_30_19,3.1.0,59.95593127093672,
,,,C,U,d,n,R,D,d,R,c ,,,,,9,15,195,6,0,0,0,0,,,,,0,31,31,1,,,,,,up,0.8506306218741884,1960.4282725914102,None,001,32,2019_Oct_16_1003,ACPT_experiment_5_30_19,3.1.0,59.95593127093672,
,,,C,U,d,n,L,U,d,L,u,,,,,9,15,195,6,0,0,0,0,,,,,0,32,32,20,,,,,,down,0.6671723756139727,1962.5632135680523,None,001,32,2019_Oct_16_1003,ACPT_experiment_5_30_19,3.1.0,59.95593127093672,
,,,C,U,d,n,L,D,g,L,i,,,,,9,15,195,6,0,0,0,0,,,,,0,33,33,14,,,,,,down,0.600457432155963,1964.514703844827,None,001,32,2019_Oct_16_1003,ACPT_experiment_5_30_19,3.1.0,59.95593127093672,
,,,C,U,d,n,R,U,d,R,u,,,,,9,15,195,6,0,0,0,0,,,,,0,34,34,9,,,,,,down,0.9507178279914115,1966.399472537318,None,001,32,2019_Oct_16_1003,ACPT_experiment_5_30_19,3.1.0,59.95593127093672,
,,,C,U,d,n,L,D,d,L,c ,,,,,9,15,195,6,0,0,0,0,,,,,0,35,35,12,,,,,,up,0.9507440894385581,1968.6345136998727,None,001,32,2019_Oct_16_1003,ACPT_experiment_5_30_19,3.1.0,59.95593127093672,
,,,C,U,d,n,L,U,d,R,u,,,,,9,15,195,6,0,0,0,0,,,,,1,0,36,21,,,,,,down,0.9340415069723349,1970.8695485234578,None,001,32,2019_Oct_16_1003,ACPT_experiment_5_30_19,3.1.0,59.95593127093672,
,,,C,U,d,n,R,G,d,L,i,,,,,9,15,195,6,0,0,0,0,,,,,1,1,37,4,,,,,,down,1.1341806020873264,1973.0879203076754,None,001,32,2019_Oct_16_1003,ACPT_experiment_5_30_19,3.1.0,59.95593127093672,
,,,C,U,d,n,L,U,d,L,u,,,,,9,15,195,6,0,0,0,0,,,,,1,2,38,20,,,,,,down,0.6505165807839148,1975.4897358490796,None,001,32,2019_Oct_16_1003,ACPT_experiment_5_30_19,3.1.0,59.95593127093672,
,,,C,U,d,n,R,D,d,L,c,,,,,9,15,195,6,0,0,0,0,,,,,1,3,39,0,,,,,,up,0.9840433030140048,1977.4245760662827,None,001,32,2019_Oct_16_1003,ACPT_experiment_5_30_19,3.1.0,59.95593127093672,
,,,C,U,d,n,R,G,y,L,y,,,,,9,15,195,6,0,0,0,0,,,,,1,4,40,28,,,,,,down,0.8840089216473643,1979.6929408927265,None,001,32,2019_Oct_16_1003,ACPT_experiment_5_30_19,3.1.0,59.95593127093672,
,,,C,U,d,n,R,U,d,L,u,,,,,9,15,195,6,0,0,0,0,,,,,1,5,41,8,,,,,,down,0.9340243011965867,1981.861278582341,None,001,32,2019_Oct_16_1003,ACPT_experiment_5_30_19,3.1.0,59.95593127093672,
,,,C,U,d,n,L,G,y,R,y,,,,,9,15,195,6,0,0,0,0,,,,,1,6,42,35,,,,,,down,1.501149013792201,1984.09630465211,None,001,32,2019_Oct_16_1003,ACPT_experiment_5_30_19,3.1.0,59.95593127093672,
,,,C,U,d,n,R,D,g,R,i,,,,,9,15,195,6,0,0,0,0,,,,,1,7,43,3,,,,,,down,1.217592996464191,1986.898434908286,None,001,32,2019_Oct_16_1003,ACPT_experiment_5_30_19,3.1.0,59.95593127093672,
,,,C,U,d,n,L,D,y,L,y,,,,,9,15,195,6,0,0,0,0,,,,,1,8,44,32,,,,,,down,0.7172094887741878,1989.4003476170453,None,001,32,2019_Oct_16_1003,ACPT_experiment_5_30_19,3.1.0,59.95593127093672,
,,,C,U,d,n,L,U,g,L,u,,,,,9,15,195,6,0,0,0,0,,,,,1,9,45,22,,,,,,down,1.3009942221797246,1991.4018671587316,None,001,32,2019_Oct_16_1003,ACPT_experiment_5_30_19,3.1.0,59.95593127093672,
,,,C,U,d,n,R,G,d,R,i,,,,,9,15,195,6,0,0,0,0,,,,,1,10,46,5,,,,,,down,1.0674895052311513,1993.9871672078436,None,001,32,2019_Oct_16_1003,ACPT_experiment_5_30_19,3.1.0,59.95593127093672,
,,,C,U,d,n,R,U,y,R,u,,,,,9,15,195,6,0,0,0,0,,,,,1,11,47,31,,,,,,down,0.6504873007788774,1996.3556427851502,None,001,32,2019_Oct_16_1003,ACPT_experiment_5_30_19,3.1.0,59.95593127093672,
,,,C,U,d,n,R,U,g,R,u,,,,,9,15,195,6,0,0,0,0,,,,,1,12,48,11,,,,,,down,0.9674038083931009,1998.3071330619248,None,001,32,2019_Oct_16_1003,ACPT_experiment_5_30_19,3.1.0,59.95593127093672,
,,,C,U,d,n,L,D,d,R,c ,,,,,9,15,195,6,0,0,0,0,,,,,1,13,49,13,,,,,,up,0.6838532244682938,2000.55884692323,None,001,32,2019_Oct_16_1003,ACPT_experiment_5_30_19,3.1.0,59.95593127093672,
,,,C,U,d,n,L,D,g,R,i,,,,,9,15,195,6,0,0,0,0,,,,,1,14,50,15,,,,,,down,1.0508152972024618,2002.51032059794,None,001,32,2019_Oct_16_1003,ACPT_experiment_5_30_19,3.1.0,59.95593127093672,
,,,C,U,d,n,R,D,g,L,i,,,,,9,15,195,6,0,0,0,0,,,,,1,15,51,2,,,,,,down,0.5837747721670894,2004.8454465517664,None,001,32,2019_Oct_16_1003,ACPT_experiment_5_30_19,3.1.0,59.95593127093672,
,,,C,U,d,n,L,G,d,R,i,,,,,9,15,195,6,0,0,0,0,,,,,1,16,52,17,,,,,,down,0.884009827214868,2006.7135337916914,None,001,32,2019_Oct_16_1003,ACPT_experiment_5_30_19,3.1.0,59.95593127093672,
,,,C,U,d,n,L,D,y,R,y,,,,,9,15,195,6,0,0,0,0,,,,,1,17,53,33,,,,,,down,0.7339108638175276,2008.898517314897,None,001,32,2019_Oct_16_1003,ACPT_experiment_5_30_19,3.1.0,59.95593127093672,
,,,C,U,d,n,L,D,d,L,c ,,,,,9,15,195,6,0,0,0,0,,,,,1,18,54,12,,,,,,up,0.833989316118732,2010.933423608317,None,001,32,2019_Oct_16_1003,ACPT_experiment_5_30_19,3.1.0,59.95593127093672,
,,,C,U,d,n,R,U,g,L,u,,,,,9,15,195,6,0,0,0,0,,,,,1,19,55,10,,,,,,down,0.633813696461857,2013.0517054697164,None,001,32,2019_Oct_16_1003,ACPT_experiment_5_30_19,3.1.0,59.95593127093672,
,,,C,U,d,n,L,G,y,L,y,,,,,9,15,195,6,0,0,0,0,,,,,1,20,56,34,,,,,,down,0.6338155075959548,2014.969831633936,None,001,32,2019_Oct_16_1003,ACPT_experiment_5_30_19,3.1.0,59.95593127093672,
,,,C,U,d,n,L,U,g,R,u,,,,,9,15,195,6,0,0,0,0,,,,,1,21,57,23,,,,,,down,1.034122374119761,2016.8879620241357,None,001,32,2019_Oct_16_1003,ACPT_experiment_5_30_19,3.1.0,59.95593127093672,
,,,C,U,d,n,R,G,y,R,y,,,,,9,15,195,6,0,0,0,0,,,,,1,22,58,29,,,,,,down,0.6337868313025865,2019.2064225237493,None,001,32,2019_Oct_16_1003,ACPT_experiment_5_30_19,3.1.0,59.95593127093672,
,,,C,U,d,n,R,D,y,R,y,,,,,9,15,195,6,0,0,0,0,,,,,1,23,59,27,,,,,,down,0.5838046558828864,2021.1244925428057,None,001,32,2019_Oct_16_1003,ACPT_experiment_5_30_19,3.1.0,59.95593127093672,
,,,C,U,d,n,R,D,d,R,c ,,,,,9,15,195,6,0,0,0,0,,,,,1,24,60,1,,,,,,up,0.6171582034876337,2022.992612383148,None,001,32,2019_Oct_16_1003,ACPT_experiment_5_30_19,3.1.0,59.95593127093672,
,,,C,U,d,n,R,D,y,L,y,,,,,9,15,195,6,0,0,0,0,,,,,1,25,61,26,,,,,,down,0.3836151508630792,2024.8940573966577,None,001,32,2019_Oct_16_1003,ACPT_experiment_5_30_19,3.1.0,59.95593127093672,
,,,C,U,d,n,L,G,g,L,c ,,,,,9,15,195,6,0,0,0,0,,,,,1,26,62,18,,,,,,down,0.4836984328553626,2026.5619998062086,None,001,32,2019_Oct_16_1003,ACPT_experiment_5_30_19,3.1.0,59.95593127093672,
,,,C,U,d,n,L,G,g,R,c ,,,,,9,15,195,6,0,0,0,0,,,,,1,27,63,19,,,,,,up,0.900832548256858,2028.3131840616559,None,001,32,2019_Oct_16_1003,ACPT_experiment_5_30_19,3.1.0,59.95593127093672,
,,,C,U,d,n,L,U,y,L,u,,,,,9,15,195,6,0,0,0,0,,,,,1,28,64,24,,,,,,down,0.583525137487868,2030.5152888412092,None,001,32,2019_Oct_16_1003,ACPT_experiment_5_30_19,3.1.0,59.95593127093672,
,,,C,U,d,n,R,G,g,L,c ,,,,,9,15,195,6,0,0,0,0,,,,,1,29,65,6,,,,,,up,0.6838662042637225,2032.3831062221218,None,001,32,2019_Oct_16_1003,ACPT_experiment_5_30_19,3.1.0,59.95593127093672,
,,,C,U,d,n,L,U,y,R,u,,,,,9,15,195,6,0,0,0,0,,,,,1,30,66,25,,,,,,down,0.4670471658619135,2034.351247464035,None,001,32,2019_Oct_16_1003,ACPT_experiment_5_30_19,3.1.0,59.95593127093672,
,,,C,U,d,n,R,U,y,L,u,,,,,9,15,195,6,0,0,0,0,,,,,1,31,67,30,,,,,,down,0.5669843496862086,2036.1026049846644,None,001,32,2019_Oct_16_1003,ACPT_experiment_5_30_19,3.1.0,59.95593127093672,
,,,C,U,d,n,L,G,d,L,i,,,,,9,15,195,6,0,0,0,0,,,,,1,32,68,16,,,,,,down,0.950744995005607,2037.9540186202719,None,001,32,2019_Oct_16_1003,ACPT_experiment_5_30_19,3.1.0,59.95593127093672,
,,,C,U,d,n,L,D,g,L,i,,,,,9,15,195,6,0,0,0,0,,,,,1,33,69,14,,,,,,down,0.9507419764486258,2040.189054349424,None,001,32,2019_Oct_16_1003,ACPT_experiment_5_30_19,3.1.0,59.95593127093672,
,,,C,U,d,n,R,G,g,R,c ,,,,,9,15,195,6,0,0,0,0,,,,,1,34,70,7,,,,,,up,0.6671762997380029,2042.4074137575574,None,001,32,2019_Oct_16_1003,ACPT_experiment_5_30_19,3.1.0,59.95593127093672,
,,,C,U,d,n,R,U,d,R,u,,,,,9,15,195,6,0,0,0,0,,,,,1,35,71,9,,,,,,down,0.7339283714491103,2044.3588998083517,None,001,32,2019_Oct_16_1003,ACPT_experiment_5_30_19,3.1.0,59.95593127093672,
,,,C,U,d,n,,,,,,,,,,9,15,195,6,1,0,1,0,0,0,0,0,,,,,,,,,,,,,,001,32,2019_Oct_16_1003,ACPT_experiment_5_30_19,3.1.0,59.95593127093672,
,,,C,U,d,n,R,D,y,R,y,,,,,9,15,195,6,1,0,1,0,,,,,0,0,0,27,,,,,,down,0.9171004584886759,2053.816386298044,None,001,32,2019_Oct_16_1003,ACPT_experiment_5_30_19,3.1.0,59.95593127093672,
,,,C,U,d,n,L,G,d,R,i,,,,,9,15,195,6,1,0,1,0,,,,,0,1,1,17,,,,,,down,1.0007621856889273,2056.0177853389278,None,001,32,2019_Oct_16_1003,ACPT_experiment_5_30_19,3.1.0,59.95593127093672,
,,,C,U,d,n,L,U,d,R,u,,,,,9,15,195,6,1,0,1,0,,,,,0,2,2,21,,,,,,down,0.6338194317204398,2058.302860897942,None,001,32,2019_Oct_16_1003,ACPT_experiment_5_30_19,3.1.0,59.95593127093672,
,,,C,U,d,n,R,G,g,L,c ,,,,,9,15,195,6,1,0,1,0,,,,,0,3,3,6,,,,,,up,1.1308731689809974,2060.240999190725,None,001,32,2019_Oct_16_1003,ACPT_experiment_5_30_19,3.1.0,59.95593127093672,
,,,C,U,d,n,L,U,y,L,u,,,,,9,15,195,6,1,0,1,0,,,,,0,4,4,24,,,,,,down,0.5504227338410601,2062.6561757717923,None,001,32,2019_Oct_16_1003,ACPT_experiment_5_30_19,3.1.0,59.95593127093672,
,,,C,U,d,n,R,D,g,R,i,,,,,9,15,195,6,1,0,1,0,,,,,0,5,5,3,,,,,,down,0.9006825259648394,2064.4909127845253,None,001,32,2019_Oct_16_1003,ACPT_experiment_5_30_19,3.1.0,59.95593127093672,
,,,C,U,d,n,L,U,y,R,u,,,,,9,15,195,6,1,0,1,0,,,,,0,6,6,25,,,,,,down,0.4667987386051209,2066.6928382617816,None,001,32,2019_Oct_16_1003,ACPT_experiment_5_30_19,3.1.0,59.95593127093672,
,,,C,U,d,n,L,D,y,L,y,,,,,9,15,195,6,1,0,1,0,,,,,0,7,7,32,,,,,,down,0.5838070707286533,2068.443922904842,None,001,32,2019_Oct_16_1003,ACPT_experiment_5_30_19,3.1.0,59.95593127093672,
,,,C,U,d,n,R,G,d,R,i,,,,,9,15,195,6,1,0,1,0,,,,,0,8,8,5,,,,,,down,0.7172043572268194,2070.312016483737,None,001,32,2019_Oct_16_1003,ACPT_experiment_5_30_19,3.1.0,59.95593127093672,
,,,C,U,d,n,R,U,g,L,u,,,,,9,15,195,6,1,0,1,0,,,,,0,9,9,10,,,,,,down,0.6171307346171488,2072.3135444773834,None,001,32,2019_Oct_16_1003,ACPT_experiment_5_30_19,3.1.0,59.95593127093672,
,,,C,U,d,n,R,D,y,L,y,,,,,9,15,195,6,1,0,1,0,,,,,0,10,10,26,,,,,,down,0.6504894137688098,2074.2149940187287,None,001,32,2019_Oct_16_1003,ACPT_experiment_5_30_19,3.1.0,59.95593127093672,
,,,C,U,d,n,R,G,d,L,i,,,,,9,15,195,6,1,0,1,0,,,,,0,11,11,4,,,,,,down,0.6671645273645481,2076.149804352216,None,001,32,2019_Oct_16_1003,ACPT_experiment_5_30_19,3.1.0,59.95593127093672,
,,,C,U,d,n,R,U,g,R,u,,,,,9,15,195,6,1,0,1,0,,,,,0,12,12,11,,,,,,down,0.6171325457512467,2078.1012864788863,None,001,32,2019_Oct_16_1003,ACPT_experiment_5_30_19,3.1.0,59.95593127093672,
,,,C,U,d,n,L,D,d,R,c ,,,,,9,15,195,6,1,0,1,0,,,,,0,13,13,13,,,,,,up,0.7169589485279175,2080.019685822531,None,001,32,2019_Oct_16_1003,ACPT_experiment_5_30_19,3.1.0,59.95593127093672,
,,,C,U,d,n,R,G,g,R,c ,,,,,9,15,195,6,1,0,1,0,,,,,0,14,14,7,,,,,,up,0.6504897156246443,2082.0209442590212,None,001,32,2019_Oct_16_1003,ACPT_experiment_5_30_19,3.1.0,59.95593127093672,
,,,C,U,d,n,L,G,y,L,y,,,,,9,15,195,6,1,0,1,0,,,,,0,15,15,34,,,,,,down,0.5837777907240707,2083.9557500646724,None,001,32,2019_Oct_16_1003,ACPT_experiment_5_30_19,3.1.0,59.95593127093672,
,,,C,U,d,n,R,D,d,L,c,,,,,9,15,195,6,1,0,1,0,,,,,0,16,16,0,,,,,,up,0.7172279019728194,2085.823820098821,None,001,32,2019_Oct_16_1003,ACPT_experiment_5_30_19,3.1.0,59.95593127093672,
,,,C,U,d,n,R,D,d,R,c ,,,,,9,15,195,6,1,0,1,0,,,,,0,17,17,1,,,,,,up,0.5839241907474388,2087.825215275952,None,001,32,2019_Oct_16_1003,ACPT_experiment_5_30_19,3.1.0,59.95593127093672,
,,,C,U,d,n,L,D,g,L,i,,,,,9,15,195,6,1,0,1,0,,,,,0,18,18,14,,,,,,down,1.1175112237501708,2089.6934621975515,None,001,32,2019_Oct_16_1003,ACPT_experiment_5_30_19,3.1.0,59.95593127093672,
,,,C,U,d,n,R,D,g,L,i,,,,,9,15,195,6,1,0,1,0,,,,,0,19,19,2,,,,,,down,0.6670631038432475,2092.095287096483,None,001,32,2019_Oct_16_1003,ACPT_experiment_5_30_19,3.1.0,59.95593127093672,
,,,C,U,d,n,R,U,y,R,u,,,,,9,15,195,6,1,0,1,0,,,,,0,20,20,31,,,,,,down,0.567095130735197,2094.0467761658347,None,001,32,2019_Oct_16_1003,ACPT_experiment_5_30_19,3.1.0,59.95593127093672,
,,,C,U,d,n,R,U,y,L,u,,,,,9,15,195,6,1,0,1,0,,,,,0,21,21,30,,,,,,down,0.416974735581789,2095.8982097239195,None,001,32,2019_Oct_16_1003,ACPT_experiment_5_30_19,3.1.0,59.95593127093672,
,,,C,U,d,n,L,D,d,L,c ,,,,,9,15,195,6,1,0,1,0,,,,,0,22,22,12,,,,,,up,0.5504124707463234,2097.599485758598,None,001,32,2019_Oct_16_1003,ACPT_experiment_5_30_19,3.1.0,59.95593127093672,
,,,C,U,d,n,L,G,d,L,i,,,,,9,15,195,6,1,0,1,0,,,,,0,23,23,16,,,,,,down,0.6669004036111801,2099.451165630949,None,001,32,2019_Oct_16_1003,ACPT_experiment_5_30_19,3.1.0,59.95593127093672,
,,,C,U,d,n,L,U,d,L,u,,,,,9,15,195,6,1,0,1,0,,,,,0,24,24,20,,,,,,down,0.6672255022199352,2101.4023591835526,None,001,32,2019_Oct_16_1003,ACPT_experiment_5_30_19,3.1.0,59.95593127093672,
,,,C,U,d,n,R,U,d,L,u,,,,,9,15,195,6,1,0,1,0,,,,,0,25,25,8,,,,,,down,0.4503569594799046,2103.3538736087844,None,001,32,2019_Oct_16_1003,ACPT_experiment_5_30_19,3.1.0,59.95593127093672,
,,,C,U,d,n,L,D,g,R,i,,,,,9,15,195,6,1,0,1,0,,,,,0,26,26,15,,,,,,down,0.7505530751400329,2105.0885264339577,None,001,32,2019_Oct_16_1003,ACPT_experiment_5_30_19,3.1.0,59.95593127093672,
,,,C,U,d,n,L,D,y,R,y,,,,,9,15,195,6,1,0,1,0,,,,,0,27,27,33,,,,,,down,0.48372771286040006,2107.1233796007714,None,001,32,2019_Oct_16_1003,ACPT_experiment_5_30_19,3.1.0,59.95593127093672,
,,,C,U,d,n,L,U,g,L,u,,,,,9,15,195,6,1,0,1,0,,,,,0,28,28,22,,,,,,down,0.6171575997759646,2108.891424611081,None,001,32,2019_Oct_16_1003,ACPT_experiment_5_30_19,3.1.0,59.95593127093672,
,,,C,U,d,n,L,G,g,R,c ,,,,,9,15,195,6,1,0,1,0,,,,,0,29,29,19,,,,,,up,0.8172903559211591,2110.7928702283025,None,001,32,2019_Oct_16_1003,ACPT_experiment_5_30_19,3.1.0,59.95593127093672,
,,,C,U,d,n,R,G,y,L,y,,,,,9,15,195,6,1,0,1,0,,,,,0,30,30,28,,,,,,down,0.5170818641763617,2112.8944510165143,None,001,32,2019_Oct_16_1003,ACPT_experiment_5_30_19,3.1.0,59.95593127093672,
,,,C,U,d,n,R,G,y,R,y,,,,,9,15,195,6,1,0,1,0,,,,,0,31,31,29,,,,,,down,0.5505513243765563,2114.679056133391,None,001,32,2019_Oct_16_1003,ACPT_experiment_5_30_19,3.1.0,59.95593127093672,
,,,C,U,d,n,R,U,d,R,u,,,,,9,15,195,6,1,0,1,0,,,,,0,32,32,9,,,,,,down,0.7172469188831201,2116.513880382427,None,001,32,2019_Oct_16_1003,ACPT_experiment_5_30_19,3.1.0,59.95593127093672,
,,,C,U,d,n,L,G,y,R,y,,,,,9,15,195,6,1,0,1,0,,,,,0,33,33,35,,,,,,down,0.4667601010733051,2118.532396514049,None,001,32,2019_Oct_16_1003,ACPT_experiment_5_30_19,3.1.0,59.95593127093672,
,,,C,U,d,n,L,U,g,R,u,,,,,9,15,195,6,1,0,1,0,,,,,0,34,34,23,,,,,,down,0.6671925999467021,2120.2834407084433,None,001,32,2019_Oct_16_1003,ACPT_experiment_5_30_19,3.1.0,59.95593127093672,
,,,C,U,d,n,L,G,g,L,c ,,,,,9,15,195,6,1,0,1,0,,,,,0,35,35,18,,,,,,up,2.985618084296675,2122.2349297777946,None,001,32,2019_Oct_16_1003,ACPT_experiment_5_30_19,3.1.0,59.95593127093672,
,,,C,U,d,n,L,U,d,R,u,,,,,9,15,195,6,1,0,1,0,,,,,1,0,36,21,,,,,,down,0.5004070524364579,2126.504825616442,None,001,32,2019_Oct_16_1003,ACPT_experiment_5_30_19,3.1.0,59.95593127093672,
,,,C,U,d,n,L,D,y,L,y,,,,,9,15,195,6,1,0,1,0,,,,,1,1,37,32,,,,,,down,0.5838303136188188,2128.289543627358,None,001,32,2019_Oct_16_1003,ACPT_experiment_5_30_19,3.1.0,59.95593127093672,
,,,C,U,d,n,R,U,d,L,u,,,,,9,15,195,6,1,0,1,0,,,,,1,2,38,8,,,,,,down,0.7339162972202757,2130.1576387155314,None,001,32,2019_Oct_16_1003,ACPT_experiment_5_30_19,3.1.0,59.95593127093672,
,,,C,U,d,n,R,U,y,R,u,,,,,9,15,195,6,1,0,1,0,,,,,1,3,39,31,,,,,,down,0.41689021598085674,2132.1591383347404,None,001,32,2019_Oct_16_1003,ACPT_experiment_5_30_19,3.1.0,59.95593127093672,
,,,C,U,d,n,L,D,y,R,y,,,,,9,15,195,6,1,0,1,0,,,,,1,4,40,33,,,,,,down,0.483693301308449,2133.860459949632,None,001,32,2019_Oct_16_1003,ACPT_experiment_5_30_19,3.1.0,59.95593127093672,
,,,C,U,d,n,L,G,d,R,i,,,,,9,15,195,6,1,0,1,0,,,,,1,5,41,17,,,,,,down,0.850658392600053,2135.628468737256,None,001,32,2019_Oct_16_1003,ACPT_experiment_5_30_19,3.1.0,59.95593127093672,
,,,C,U,d,n,L,U,y,L,u,,,,,9,15,195,6,1,0,1,0,,,,,1,6,42,24,,,,,,down,0.4500946468606344,2137.780356195785,None,001,32,2019_Oct_16_1003,ACPT_experiment_5_30_19,3.1.0,59.95593127093672,
,,,C,U,d,n,R,U,g,R,u,,,,,9,15,195,6,1,0,1,0,,,,,1,7,43,11,,,,,,down,0.7172103943412367,2139.5147672345274,None,001,32,2019_Oct_16_1003,ACPT_experiment_5_30_19,3.1.0,59.95593127093672,
,,,C,U,d,n,R,G,d,L,i,,,,,9,15,195,6,1,0,1,0,,,,,1,8,44,4,,,,,,down,0.9340418088281695,2141.516293115184,None,001,32,2019_Oct_16_1003,ACPT_experiment_5_30_19,3.1.0,59.95593127093672,
,,,C,U,d,n,L,U,d,L,u,,,,,9,15,195,6,1,0,1,0,,,,,1,9,45,20,,,,,,down,0.6838779766367225,2143.734646486203,None,001,32,2019_Oct_16_1003,ACPT_experiment_5_30_19,3.1.0,59.95593127093672,
,,,C,U,d,n,R,D,d,L,c,,,,,9,15,195,6,1,0,1,0,,,,,1,10,46,0,,,,,,up,0.6003478585298581,2145.7028139895633,None,001,32,2019_Oct_16_1003,ACPT_experiment_5_30_19,3.1.0,59.95593127093672,
,,,C,U,d,n,R,G,g,L,c ,,,,,9,15,195,6,1,0,1,0,,,,,1,11,47,6,,,,,,up,1.0508255602967438,2147.587584493189,None,001,32,2019_Oct_16_1003,ACPT_experiment_5_30_19,3.1.0,59.95593127093672,
,,,C,U,d,n,L,G,y,L,y,,,,,9,15,195,6,1,0,1,0,,,,,1,12,48,34,,,,,,down,0.6003418214154408,2149.9394574022717,None,001,32,2019_Oct_16_1003,ACPT_experiment_5_30_19,3.1.0,59.95593127093672,
,,,C,U,d,n,R,D,y,L,y,,,,,9,15,195,6,1,0,1,0,,,,,1,13,49,26,,,,,,down,0.5170519804601099,2151.8408284611305,None,001,32,2019_Oct_16_1003,ACPT_experiment_5_30_19,3.1.0,59.95593127093672,
,,,C,U,d,n,L,U,y,R,u,,,,,9,15,195,6,1,0,1,0,,,,,1,14,50,25,,,,,,down,0.46702331925962426,2153.642196531617,None,001,32,2019_Oct_16_1003,ACPT_experiment_5_30_19,3.1.0,59.95593127093672,
,,,C,U,d,n,R,U,g,L,u,,,,,9,15,195,6,1,0,1,0,,,,,1,15,51,10,,,,,,down,0.5504151874479248,2155.3935350353368,None,001,32,2019_Oct_16_1003,ACPT_experiment_5_30_19,3.1.0,59.95593127093672,
,,,C,U,d,n,L,D,g,R,i,,,,,9,15,195,6,1,0,1,0,,,,,1,16,52,15,,,,,,down,0.8673350154745094,2157.211586369524,None,001,32,2019_Oct_16_1003,ACPT_experiment_5_30_19,3.1.0,59.95593127093672,
,,,C,U,d,n,L,D,d,R,c ,,,,,9,15,195,6,1,0,1,0,,,,,1,17,53,13,,,,,,up,0.7672653169893238,2159.34653338328,None,001,32,2019_Oct_16_1003,ACPT_experiment_5_30_19,3.1.0,59.95593127093672,
,,,C,U,d,n,R,G,y,L,y,,,,,9,15,195,6,1,0,1,0,,,,,1,18,54,28,,,,,,down,0.5170607342761286,2161.398109658749,None,001,32,2019_Oct_16_1003,ACPT_experiment_5_30_19,3.1.0,59.95593127093672,
,,,C,U,d,n,R,D,g,L,i,,,,,9,15,195,6,1,0,1,0,,,,,1,19,55,2,,,,,,down,0.9504633636206563,2163.2164208907097,None,001,32,2019_Oct_16_1003,ACPT_experiment_5_30_19,3.1.0,59.95593127093672,
,,,C,U,d,n,R,G,y,R,y,,,,,9,15,195,6,1,0,1,0,,,,,1,20,56,29,,,,,,down,0.6004722230859443,2165.4678799857884,None,001,32,2019_Oct_16_1003,ACPT_experiment_5_30_19,3.1.0,59.95593127093672,
,,,C,U,d,n,R,U,d,R,u,,,,,9,15,195,6,1,0,1,0,,,,,1,21,57,9,,,,,,down,0.9506979055136071,2167.369353977447,None,001,32,2019_Oct_16_1003,ACPT_experiment_5_30_19,3.1.0,59.95593127093672,
,,,C,U,d,n,L,U,g,R,u,,,,,9,15,195,6,1,0,1,0,,,,,1,22,58,23,,,,,,down,1.0171807219244329,2169.6213213975557,None,001,32,2019_Oct_16_1003,ACPT_experiment_5_30_19,3.1.0,59.95593127093672,
,,,C,U,d,n,R,G,g,R,c ,,,,,9,15,195,6,1,0,1,0,,,,,1,23,59,7,,,,,,up,0.7839226210976449,2171.9228022111533,None,001,32,2019_Oct_16_1003,ACPT_experiment_5_30_19,3.1.0,59.95593127093672,
,,,C,U,d,n,R,U,y,L,u,,,,,9,15,195,6,1,0,1,0,,,,,1,24,60,30,,,,,,down,0.567096640013915,2173.991044846402,None,001,32,2019_Oct_16_1003,ACPT_experiment_5_30_19,3.1.0,59.95593127093672,
,,,C,U,d,n,L,G,d,L,i,,,,,9,15,195,6,1,0,1,0,,,,,1,25,61,16,,,,,,down,1.434431957344259,2175.842454859741,None,001,32,2019_Oct_16_1003,ACPT_experiment_5_30_19,3.1.0,59.95593127093672,
,,,C,U,d,n,R,G,d,R,i,,,,,9,15,195,6,1,0,1,0,,,,,1,26,62,5,,,,,,down,0.9006740740046553,2178.561198379276,None,001,32,2019_Oct_16_1003,ACPT_experiment_5_30_19,3.1.0,59.95593127093672,
,,,C,U,d,n,R,D,d,R,c ,,,,,9,15,195,6,1,0,1,0,,,,,1,27,63,1,,,,,,up,0.8673247523802274,2180.7461951841333,None,001,32,2019_Oct_16_1003,ACPT_experiment_5_30_19,3.1.0,59.95593127093672,
,,,C,U,d,n,L,G,g,R,c ,,,,,9,15,195,6,1,0,1,0,,,,,1,28,64,19,,,,,,up,0.9674026009702175,2182.897835422829,None,001,32,2019_Oct_16_1003,ACPT_experiment_5_30_19,3.1.0,59.95593127093672,
,,,C,U,d,n,L,G,g,L,c ,,,,,9,15,195,6,1,0,1,0,,,,,1,29,65,18,,,,,,up,0.7340418691997002,2185.1327223371118,None,001,32,2019_Oct_16_1003,ACPT_experiment_5_30_19,3.1.0,59.95593127093672,
,,,C,U,d,n,L,G,y,R,y,,,,,9,15,195,6,1,0,1,0,,,,,1,30,66,35,,,,,,down,0.6002639426401402,2187.1679114693397,None,001,32,2019_Oct_16_1003,ACPT_experiment_5_30_19,3.1.0,59.95593127093672,
,,,C,U,d,n,R,D,g,R,i,,,,,9,15,195,6,1,0,1,0,,,,,1,31,67,3,,,,,,down,0.7839301674907801,2189.06920978097,None,001,32,2019_Oct_16_1003,ACPT_experiment_5_30_19,3.1.0,59.95593127093672,
,,,C,U,d,n,L,D,g,L,i,,,,,9,15,195,6,1,0,1,0,,,,,1,32,68,14,,,,,,down,0.9169287025847552,2191.154568239164,None,001,32,2019_Oct_16_1003,ACPT_experiment_5_30_19,3.1.0,59.95593127093672,
,,,C,U,d,n,L,D,d,L,c ,,,,,9,15,195,6,1,0,1,0,,,,,1,33,69,12,,,,,,up,0.9340424125393838,2193.3558069946607,None,001,32,2019_Oct_16_1003,ACPT_experiment_5_30_19,3.1.0,59.95593127093672,
,,,C,U,d,n,L,U,g,L,u,,,,,9,15,195,6,1,0,1,0,,,,,1,34,70,22,,,,,,down,0.7839265452221298,2195.5741642898042,None,001,32,2019_Oct_16_1003,ACPT_experiment_5_30_19,3.1.0,59.95593127093672,
,,,C,U,d,n,R,D,y,R,y,,,,,9,15,195,6,1,0,1,0,,,,,1,35,71,27,,,,,,down,0.6667473627621803,2197.659489242013,None,001,32,2019_Oct_16_1003,ACPT_experiment_5_30_19,3.1.0,59.95593127093672,
,,,C,U,d,n,,,,,,,,,,9,15,195,6,2,0,2,0,0,0,0,0,,,,,,,,,,,,,,001,32,2019_Oct_16_1003,ACPT_experiment_5_30_19,3.1.0,59.95593127093672,
,,,C,U,d,n,R,G,d,L,i,,,,,9,15,195,6,2,0,2,0,,,,,0,0,0,4,,,,,,down,1.5342260615589112,2210.252295235419,None,001,32,2019_Oct_16_1003,ACPT_experiment_5_30_19,3.1.0,59.95593127093672,
,,,C,U,d,n,L,G,y,L,y,,,,,9,15,195,6,2,0,2,0,,,,,0,1,1,34,,,,,,down,0.633813696461857,2213.070832859168,None,001,32,2019_Oct_16_1003,ACPT_experiment_5_30_19,3.1.0,59.95593127093672,
,,,C,U,d,n,R,D,g,R,i,,,,,9,15,195,6,2,0,2,0,,,,,0,2,2,3,,,,,,down,1.0341214685522573,2214.9889635512236,None,001,32,2019_Oct_16_1003,ACPT_experiment_5_30_19,3.1.0,59.95593127093672,
,,,C,U,d,n,R,G,d,R,i,,,,,9,15,195,6,2,0,2,0,,,,,0,3,3,5,,,,,,down,0.7338667928829636,2217.307412278464,None,001,32,2019_Oct_16_1003,ACPT_experiment_5_30_19,3.1.0,59.95593127093672,
,,,C,U,d,n,L,G,y,R,y,,,,,9,15,195,6,2,0,2,0,,,,,0,4,4,35,,,,,,down,0.517052584171779,2219.3256024059106,None,001,32,2019_Oct_16_1003,ACPT_experiment_5_30_19,3.1.0,59.95593127093672,
,,,C,U,d,n,L,D,y,R,y,,,,,9,15,195,6,2,0,2,0,,,,,0,5,5,33,,,,,,down,0.6338378449190714,2221.1102678939315,None,001,32,2019_Oct_16_1003,ACPT_experiment_5_30_19,3.1.0,59.95593127093672,
,,,C,U,d,n,R,G,g,L,c ,,,,,9,15,195,6,2,0,2,0,,,,,0,6,6,6,,,,,,up,0.7672583743078576,2223.0284248474345,None,001,32,2019_Oct_16_1003,ACPT_experiment_5_30_19,3.1.0,59.95593127093672,
,,,C,U,d,n,L,U,g,L,u,,,,,9,15,195,6,2,0,2,0,,,,,0,7,7,22,,,,,,down,0.6304884538676561,2225.0999860844513,None,001,32,2019_Oct_16_1003,ACPT_experiment_5_30_19,3.1.0,59.95593127093672,
,,,C,U,d,n,L,G,g,R,c ,,,,,9,15,195,6,2,0,2,0,,,,,0,8,8,19,,,,,,up,1.0341229778309753,2227.014793345047,None,001,32,2019_Oct_16_1003,ACPT_experiment_5_30_19,3.1.0,59.95593127093672,
,,,C,U,d,n,R,D,y,L,y,,,,,9,15,195,6,2,0,2,0,,,,,0,9,9,26,,,,,,down,0.617176012975051,2229.3332315073376,None,001,32,2019_Oct_16_1003,ACPT_experiment_5_30_19,3.1.0,59.95593127093672,
,,,C,U,d,n,R,D,d,R,c ,,,,,9,15,195,6,2,0,2,0,,,,,0,10,10,1,,,,,,up,0.600563987224632,2231.2347070082747,None,001,32,2019_Oct_16_1003,ACPT_experiment_5_30_19,3.1.0,59.95593127093672,
,,,C,U,d,n,L,D,g,R,i,,,,,9,15,195,6,2,0,2,0,,,,,0,11,11,15,,,,,,down,0.9507220539712762,2233.119448231895,None,001,32,2019_Oct_16_1003,ACPT_experiment_5_30_19,3.1.0,59.95593127093672,
,,,C,U,d,n,L,D,d,L,c ,,,,,9,15,195,6,2,0,2,0,,,,,0,12,12,12,,,,,,up,0.6838689209653239,2235.3377859064167,None,001,32,2019_Oct_16_1003,ACPT_experiment_5_30_19,3.1.0,59.95593127093672,
,,,C,U,d,n,L,D,g,L,i,,,,,9,15,195,6,2,0,2,0,,,,,0,13,13,14,,,,,,down,1.067535085444888,2237.28928825742,None,001,32,2019_Oct_16_1003,ACPT_experiment_5_30_19,3.1.0,59.95593127093672,
,,,C,U,d,n,R,U,y,L,u,,,,,9,15,195,6,2,0,2,0,,,,,0,14,14,30,,,,,,down,0.46701788585733084,2239.6410860044293,None,001,32,2019_Oct_16_1003,ACPT_experiment_5_30_19,3.1.0,59.95593127093672,
,,,C,U,d,n,L,U,d,R,u,,,,,9,15,195,6,2,0,2,0,,,,,0,15,15,21,,,,,,down,0.9007045614321214,2241.3924006615466,None,001,32,2019_Oct_16_1003,ACPT_experiment_5_30_19,3.1.0,59.95593127093672,
,,,C,U,d,n,R,U,g,R,u,,,,,9,15,195,6,2,0,2,0,,,,,0,16,16,11,,,,,,down,0.5671138457901179,2243.577396560837,None,001,32,2019_Oct_16_1003,ACPT_experiment_5_30_19,3.1.0,59.95593127093672,
,,,C,U,d,n,R,U,d,R,u,,,,,9,15,195,6,2,0,2,0,,,,,0,17,17,9,,,,,,down,0.43325200334084,2245.4458910041258,None,001,32,2019_Oct_16_1003,ACPT_experiment_5_30_19,3.1.0,59.95593127093672,
,,,C,U,d,n,R,D,y,R,y,,,,,9,15,195,6,2,0,2,0,,,,,0,18,18,27,,,,,,down,0.9173854102868972,2247.163466342031,None,001,32,2019_Oct_16_1003,ACPT_experiment_5_30_19,3.1.0,59.95593127093672,
,,,C,U,d,n,R,G,y,L,y,,,,,9,15,195,6,2,0,2,0,,,,,0,19,19,28,,,,,,down,0.4670212062696919,2249.3651651256428,None,001,32,2019_Oct_16_1003,ACPT_experiment_5_30_19,3.1.0,59.95593127093672,
,,,C,U,d,n,R,D,d,L,c,,,,,9,15,195,6,2,0,2,0,,,,,0,20,20,0,,,,,,up,1.5178325793481235,2251.116498195959,None,001,32,2019_Oct_16_1003,ACPT_experiment_5_30_19,3.1.0,59.95593127093672,
,,,C,U,d,n,L,G,g,L,c ,,,,,9,15,195,6,2,0,2,0,,,,,0,21,21,18,,,,,,up,0.7338903376289636,2253.9186381115182,None,001,32,2019_Oct_16_1003,ACPT_experiment_5_30_19,3.1.0,59.95593127093672,
,,,C,U,d,n,R,U,y,R,u,,,,,9,15,195,6,2,0,2,0,,,,,0,22,22,31,,,,,,down,0.6504906211916932,2255.9535217657594,None,001,32,2019_Oct_16_1003,ACPT_experiment_5_30_19,3.1.0,59.95593127093672,
,,,C,U,d,n,L,D,y,L,y,,,,,9,15,195,6,2,0,2,0,,,,,0,23,23,32,,,,,,down,0.683830585288888,2257.921699230358,None,001,32,2019_Oct_16_1003,ACPT_experiment_5_30_19,3.1.0,59.95593127093672,
,,,C,U,d,n,R,U,d,L,u,,,,,9,15,195,6,2,0,2,0,,,,,0,24,24,8,,,,,,down,0.7172085832071389,2259.8898489242315,None,001,32,2019_Oct_16_1003,ACPT_experiment_5_30_19,3.1.0,59.95593127093672,
,,,C,U,d,n,L,G,d,R,i,,,,,9,15,195,6,2,0,2,0,,,,,0,25,25,17,,,,,,down,0.6171488459604006,2261.891361825092,None,001,32,2019_Oct_16_1003,ACPT_experiment_5_30_19,3.1.0,59.95593127093672,
,,,C,U,d,n,L,D,d,R,c ,,,,,9,15,195,6,2,0,2,0,,,,,0,26,26,13,,,,,,up,0.7172055646497029,2263.7928285722132,None,001,32,2019_Oct_16_1003,ACPT_experiment_5_30_19,3.1.0,59.95593127093672,
,,,C,U,d,n,L,U,g,R,u,,,,,9,15,195,6,2,0,2,0,,,,,0,27,27,23,,,,,,down,0.750572695761548,2265.79435233988,None,001,32,2019_Oct_16_1003,ACPT_experiment_5_30_19,3.1.0,59.95593127093672,
,,,C,U,d,n,R,G,y,R,y,,,,,9,15,195,6,2,0,2,0,,,,,0,28,28,29,,,,,,down,0.6838272648765269,2267.829261350001,None,001,32,2019_Oct_16_1003,ACPT_experiment_5_30_19,3.1.0,59.95593127093672,
,,,C,U,d,n,L,G,d,L,i,,,,,9,15,195,6,2,0,2,0,,,,,0,29,29,16,,,,,,down,1.7012962590115421,2269.79740711975,None,001,32,2019_Oct_16_1003,ACPT_experiment_5_30_19,3.1.0,59.95593127093672,
,,,C,U,d,n,L,U,d,L,u,,,,,9,15,195,6,2,0,2,0,,,,,0,30,30,20,,,,,,down,1.1175151478746557,2272.7830137335295,None,001,32,2019_Oct_16_1003,ACPT_experiment_5_30_19,3.1.0,59.95593127093672,
,,,C,U,d,n,R,G,g,R,c ,,,,,9,15,195,6,2,0,2,0,,,,,0,31,31,7,,,,,,up,1.0007630912559762,2275.184846782565,None,001,32,2019_Oct_16_1003,ACPT_experiment_5_30_19,3.1.0,59.95593127093672,
,,,C,U,d,n,L,U,y,L,u,,,,,9,15,195,6,2,0,2,0,,,,,0,32,32,24,,,,,,down,0.550417602293237,2277.469921737868,None,001,32,2019_Oct_16_1003,ACPT_experiment_5_30_19,3.1.0,59.95593127093672,
,,,C,U,d,n,R,D,g,L,i,,,,,9,15,195,6,2,0,2,0,,,,,0,33,33,2,,,,,,down,1.050802619262413,2279.304648185651,None,001,32,2019_Oct_16_1003,ACPT_experiment_5_30_19,3.1.0,59.95593127093672,
,,,C,U,d,n,R,U,g,L,u,,,,,9,15,195,6,2,0,2,0,,,,,0,34,34,10,,,,,,down,0.7172182425897518,2281.6397620652483,None,001,32,2019_Oct_16_1003,ACPT_experiment_5_30_19,3.1.0,59.95593127093672,
,,,C,U,d,n,L,U,y,R,u,,,,,9,15,195,6,2,0,2,0,,,,,0,35,35,25,,,,,,down,0.5004034301678075,2283.641288851472,None,001,32,2019_Oct_16_1003,ACPT_experiment_5_30_19,3.1.0,59.95593127093672,
,,,C,U,d,n,R,G,g,R,c ,,,,,9,15,195,6,2,0,2,0,,,,,1,0,36,7,,,,,,up,1.1675821447515773,2285.425984223209,None,001,32,2019_Oct_16_1003,ACPT_experiment_5_30_19,3.1.0,59.95593127093672,
,,,C,U,d,n,R,G,y,L,y,,,,,9,15,195,6,2,0,2,0,,,,,1,1,37,28,,,,,,down,0.583827596917672,2287.8778275202462,None,001,32,2019_Oct_16_1003,ACPT_experiment_5_30_19,3.1.0,59.95593127093672,
,,,C,U,d,n,L,D,g,L,i,,,,,9,15,195,6,2,0,2,0,,,,,1,2,38,14,,,,,,up,0.7005265269294796,2289.7459431346083,None,001,32,2019_Oct_16_1003,ACPT_experiment_5_30_19,3.1.0,59.95593127093672,
,,,C,U,d,n,R,D,y,R,y,,,,,9,15,195,6,2,0,2,0,,,,,1,3,39,27,,,,,,down,0.6504924323262458,2291.7307926942462,None,001,32,2019_Oct_16_1003,ACPT_experiment_5_30_19,3.1.0,59.95593127093672,
,,,C,U,d,n,R,G,y,R,y,,,,,9,15,195,6,2,0,2,0,,,,,1,4,40,29,,,,,,down,0.5004013171778752,2293.6655752570073,None,001,32,2019_Oct_16_1003,ACPT_experiment_5_30_19,3.1.0,59.95593127093672,
,,,C,U,d,n,L,G,d,R,i,,,,,9,15,195,6,2,0,2,0,,,,,1,5,41,17,,,,,,down,0.8339380006464125,2295.450322547928,None,001,32,2019_Oct_16_1003,ACPT_experiment_5_30_19,3.1.0,59.95593127093672,
,,,C,U,d,n,L,G,y,L,y,,,,,9,15,195,6,2,0,2,0,,,,,1,6,42,34,,,,,,down,0.5337811262297691,2297.5518776784033,None,001,32,2019_Oct_16_1003,ACPT_experiment_5_30_19,3.1.0,59.95593127093672,
,,,C,U,d,n,L,D,y,R,y,,,,,9,15,195,6,2,0,2,0,,,,,1,7,43,33,,,,,,down,0.616940263658762,2299.3867828247717,None,001,32,2019_Oct_16_1003,ACPT_experiment_5_30_19,3.1.0,59.95593127093672,
,,,C,U,d,n,R,U,d,L,u,,,,,9,15,195,6,2,0,2,0,,,,,1,8,44,8,,,,,,down,0.7338981858774787,2301.304752325874,None,001,32,2019_Oct_16_1003,ACPT_experiment_5_30_19,3.1.0,59.95593127093672,
,,,C,U,d,n,L,D,y,L,y,,,,,9,15,195,6,2,0,2,0,,,,,1,9,45,32,,,,,,down,0.5170749214948955,2303.339616359493,None,001,32,2019_Oct_16_1003,ACPT_experiment_5_30_19,3.1.0,59.95593127093672,
,,,C,U,d,n,L,U,d,R,u,,,,,9,15,195,6,2,0,2,0,,,,,1,10,46,21,,,,,,down,0.600441131946809,2305.1743811429524,None,001,32,2019_Oct_16_1003,ACPT_experiment_5_30_19,3.1.0,59.95593127093672,
,,,C,U,d,n,L,D,d,R,c ,,,,,9,15,195,6,2,0,2,0,,,,,1,11,47,13,,,,,,down,0.5671041864065955,2307.059130818533,None,001,32,2019_Oct_16_1003,ACPT_experiment_5_30_19,3.1.0,59.95593127093672,
,,,C,U,d,n,R,D,g,L,i,,,,,9,15,195,6,2,0,2,0,,,,,1,12,48,2,,,,,,down,0.9006822241094596,2308.9105559246577,None,001,32,2019_Oct_16_1003,ACPT_experiment_5_30_19,3.1.0,59.95593127093672,
,,,C,U,d,n,R,G,g,L,c ,,,,,9,15,195,6,2,0,2,0,,,,,1,13,49,6,,,,,,up,0.7338930543301103,2311.0955500128134,None,001,32,2019_Oct_16_1003,ACPT_experiment_5_30_19,3.1.0,59.95593127093672,
,,,C,U,d,n,R,D,d,L,c,,,,,9,15,195,6,2,0,2,0,,,,,1,14,50,0,,,,,,up,0.6002600185156552,2313.1139188388456,None,001,32,2019_Oct_16_1003,ACPT_experiment_5_30_19,3.1.0,59.95593127093672,
,,,C,U,d,n,L,G,y,R,y,,,,,9,15,195,6,2,0,2,0,,,,,1,15,51,35,,,,,,down,0.5003886392378263,2314.9985127568752,None,001,32,2019_Oct_16_1003,ACPT_experiment_5_30_19,3.1.0,59.95593127093672,
,,,C,U,d,n,R,D,y,L,y,,,,,9,15,195,6,2,0,2,0,,,,,1,16,52,26,,,,,,down,0.6504906211916932,2316.7832214102636,None,001,32,2019_Oct_16_1003,ACPT_experiment_5_30_19,3.1.0,59.95593127093672,
,,,C,U,d,n,R,U,g,L,u,,,,,9,15,195,6,2,0,2,0,,,,,1,17,53,10,,,,,,down,1.1506356628647154,2318.734977923782,None,001,32,2019_Oct_16_1003,ACPT_experiment_5_30_19,3.1.0,59.95593127093672,
,,,C,U,d,n,R,U,d,R,u,,,,,9,15,195,6,2,0,2,0,,,,,1,18,54,9,,,,,,down,1.1842569564910264,2321.153197814202,None,001,32,2019_Oct_16_1003,ACPT_experiment_5_30_19,3.1.0,59.95593127093672,
,,,C,U,d,n,L,G,d,L,i,,,,,9,15,195,6,2,0,2,0,,,,,1,19,55,16,,,,,,down,1.0841570724342091,2323.621766936596,None,001,32,2019_Oct_16_1003,ACPT_experiment_5_30_19,3.1.0,59.95593127093672,
,,,C,U,d,n,L,U,d,L,u,,,,,9,15,195,6,2,0,2,0,,,,,1,20,56,20,,,,,,down,1.63459882318557,2325.9902102153405,None,001,32,2019_Oct_16_1003,ACPT_experiment_5_30_19,3.1.0,59.95593127093672,
,,,C,U,d,n,L,D,d,L,c ,,,,,9,15,195,6,2,0,2,0,,,,,1,21,57,12,,,,,,up,0.5670664544418287,2328.909155012269,None,001,32,2019_Oct_16_1003,ACPT_experiment_5_30_19,3.1.0,59.95593127093672,
,,,C,U,d,n,L,U,y,L,u,,,,,9,15,195,6,2,0,2,0,,,,,1,22,58,24,,,,,,down,0.5004013171778752,2330.7605170305487,None,001,32,2019_Oct_16_1003,ACPT_experiment_5_30_19,3.1.0,59.95593127093672,
,,,C,U,d,n,L,U,g,R,u,,,,,9,15,195,6,2,0,2,0,,,,,1,23,59,23,,,,,,down,0.4670130561653423,2332.5452305136287,None,001,32,2019_Oct_16_1003,ACPT_experiment_5_30_19,3.1.0,59.95593127093672,
,,,C,U,d,n,R,U,g,R,u,,,,,9,15,195,6,2,0,2,0,,,,,1,24,60,11,,,,,,down,0.4167069895597706,2334.313522441916,None,001,32,2019_Oct_16_1003,ACPT_experiment_5_30_19,3.1.0,59.95593127093672,
,,,C,U,d,n,L,G,g,L,c ,,,,,9,15,195,6,2,0,2,0,,,,,1,25,61,18,,,,,,up,0.8506632222915869,2336.0145458233583,None,001,32,2019_Oct_16_1003,ACPT_experiment_5_30_19,3.1.0,59.95593127093672,
,,,C,U,d,n,R,D,d,R,c ,,,,,9,15,195,6,2,0,2,0,,,,,1,26,62,1,,,,,,up,0.5504151874479248,2338.1495037039203,None,001,32,2019_Oct_16_1003,ACPT_experiment_5_30_19,3.1.0,59.95593127093672,
,,,C,U,d,n,L,U,g,L,u,,,,,9,15,195,6,2,0,2,0,,,,,1,27,63,22,,,,,,down,0.5837904686641195,2339.9842162663404,None,001,32,2019_Oct_16_1003,ACPT_experiment_5_30_19,3.1.0,59.95593127093672,
,,,C,U,d,n,L,G,g,R,c ,,,,,9,15,195,6,2,0,2,0,,,,,1,28,64,19,,,,,,up,0.8006028662407516,2341.852328258434,None,001,32,2019_Oct_16_1003,ACPT_experiment_5_30_19,3.1.0,59.95593127093672,
,,,C,U,d,n,R,G,d,L,i,,,,,9,15,195,6,2,0,2,0,,,,,1,29,65,4,,,,,,down,0.9674056195271987,2343.9372475165574,None,001,32,2019_Oct_16_1003,ACPT_experiment_5_30_19,3.1.0,59.95593127093672,
,,,C,U,d,n,R,U,y,R,u,,,,,9,15,195,6,2,0,2,0,,,,,1,30,66,31,,,,,,down,0.6338635026554584,2346.188942662808,None,001,32,2019_Oct_16_1003,ACPT_experiment_5_30_19,3.1.0,59.95593127093672,
,,,C,U,d,n,R,D,g,R,i,,,,,9,15,195,6,2,0,2,0,,,,,1,31,67,3,,,,,,down,0.7505705827716156,2348.107092975485,None,001,32,2019_Oct_16_1003,ACPT_experiment_5_30_19,3.1.0,59.95593127093672,
,,,C,U,d,n,L,D,g,R,i,,,,,9,15,195,6,2,0,2,0,,,,,1,32,68,15,,,,,,down,0.5504166967266428,2350.1253003087077,None,001,32,2019_Oct_16_1003,ACPT_experiment_5_30_19,3.1.0,59.95593127093672,
,,,C,U,d,n,L,U,y,R,u,,,,,9,15,195,6,2,0,2,0,,,,,1,33,69,25,,,,,,down,0.5671126383672345,2351.9600077395803,None,001,32,2019_Oct_16_1003,ACPT_experiment_5_30_19,3.1.0,59.95593127093672,
,,,C,U,d,n,R,U,y,L,u,,,,,9,15,195,6,2,0,2,0,,,,,1,34,70,30,,,,,,down,1.7010991472275236,2353.828280922628,None,001,32,2019_Oct_16_1003,ACPT_experiment_5_30_19,3.1.0,59.95593127093672,
,,,C,U,d,n,R,G,d,R,i,,,,,9,15,195,6,2,0,2,0,,,,,1,35,71,5,,,,,,up,0.6671705644789654,2356.830412627711,None,001,32,2019_Oct_16_1003,ACPT_experiment_5_30_19,3.1.0,59.95593127093672,
,,,C,U,d,n,,,,,,,,,,9,15,195,6,3,0,3,0,0,0,0,0,,,,,,,,,,,,,,001,32,2019_Oct_16_1003,ACPT_experiment_5_30_19,3.1.0,59.95593127093672,
,,,C,U,d,n,L,U,d,R,u,,,,,9,15,195,6,3,0,3,0,,,,,0,0,0,21,,,,,,down,0.9340282253206169,2367.10492263287,None,001,32,2019_Oct_16_1003,ACPT_experiment_5_30_19,3.1.0,59.95593127093672,
,,,C,U,d,n,R,U,g,R,u,,,,,9,15,195,6,3,0,3,0,,,,,0,1,1,11,,,,,,down,0.3836353751958086,2369.32324702574,None,001,32,2019_Oct_16_1003,ACPT_experiment_5_30_19,3.1.0,59.95593127093672,
,,,C,U,d,n,R,U,g,L,u,,,,,9,15,195,6,3,0,3,0,,,,,0,2,2,10,,,,,,down,0.45036541143963404,2370.974500134477,None,001,32,2019_Oct_16_1003,ACPT_experiment_5_30_19,3.1.0,59.95593127093672,
,,,C,U,d,n,L,U,y,L,u,,,,,9,15,195,6,3,0,3,0,,,,,0,3,3,24,,,,,,down,0.35032589852608,2372.7091523559384,None,001,32,2019_Oct_16_1003,ACPT_experiment_5_30_19,3.1.0,59.95593127093672,
,,,C,U,d,n,L,G,y,R,y,,,,,9,15,195,6,3,0,3,0,,,,,0,4,4,35,,,,,,down,0.647163869319229,2374.363763911398,None,001,32,2019_Oct_16_1003,ACPT_experiment_5_30_19,3.1.0,59.95593127093672,
,,,C,U,d,n,R,G,y,R,y,,,,,9,15,195,6,3,0,3,0,,,,,0,5,5,29,,,,,,down,0.7005370918795961,2376.2952468893013,None,001,32,2019_Oct_16_1003,ACPT_experiment_5_30_19,3.1.0,59.95593127093672,
,,,C,U,d,n,R,G,d,R,i,,,,,9,15,195,6,3,0,3,0,,,,,0,6,6,5,,,,,,down,0.7339443698024297,2378.2633896404927,None,001,32,2019_Oct_16_1003,ACPT_experiment_5_30_19,3.1.0,59.95593127093672,
,,,C,U,d,n,R,U,d,L,u,,,,,9,15,195,6,3,0,3,0,,,,,0,7,7,8,,,,,,down,0.6004224168918881,2380.2816416483615,None,001,32,2019_Oct_16_1003,ACPT_experiment_5_30_19,3.1.0,59.95593127093672,
,,,C,U,d,n,L,G,d,R,i,,,,,9,15,195,6,3,0,3,0,,,,,0,8,8,17,,,,,,down,0.7839289600678967,2382.166391323942,None,001,32,2019_Oct_16_1003,ACPT_experiment_5_30_19,3.1.0,59.95593127093672,
,,,C,U,d,n,L,D,g,L,i,,,,,9,15,195,6,3,0,3,0,,,,,0,9,9,14,,,,,,down,0.7839262433662952,2384.234634864758,None,001,32,2019_Oct_16_1003,ACPT_experiment_5_30_19,3.1.0,59.95593127093672,
,,,C,U,d,n,L,G,y,L,y,,,,,9,15,195,6,3,0,3,0,,,,,0,10,10,34,,,,,,down,0.6169493193306153,2386.3197273880633,None,001,32,2019_Oct_16_1003,ACPT_experiment_5_30_19,3.1.0,59.95593127093672,
,,,C,U,d,n,R,D,y,L,y,,,,,9,15,195,6,3,0,3,0,,,,,0,11,11,26,,,,,,down,0.4670281489511581,2388.2376932668967,None,001,32,2019_Oct_16_1003,ACPT_experiment_5_30_19,3.1.0,59.95593127093672,
,,,C,U,d,n,L,U,g,L,u,,,,,9,15,195,6,3,0,3,0,,,,,0,12,12,22,,,,,,down,0.4169801689849919,2389.989017885253,None,001,32,2019_Oct_16_1003,ACPT_experiment_5_30_19,3.1.0,59.95593127093672,
,,,C,U,d,n,R,G,y,L,y,,,,,9,15,195,6,3,0,3,0,,,,,0,13,13,28,,,,,,down,0.40033524096088513,2391.690316860966,None,001,32,2019_Oct_16_1003,ACPT_experiment_5_30_19,3.1.0,59.95593127093672,
,,,C,U,d,n,R,G,d,L,i,,,,,9,15,195,6,3,0,3,0,,,,,0,14,14,4,,,,,,down,0.6835915155597831,2393.3751997152895,None,001,32,2019_Oct_16_1003,ACPT_experiment_5_30_19,3.1.0,59.95593127093672,
,,,C,U,d,n,R,U,y,R,u,,,,,9,15,195,6,3,0,3,0,,,,,0,15,15,31,,,,,,down,0.5337551666380023,2395.3430771353046,None,001,32,2019_Oct_16_1003,ACPT_experiment_5_30_19,3.1.0,59.95593127093672,
,,,C,U,d,n,R,U,y,L,u,,,,,9,15,195,6,3,0,3,0,,,,,0,16,16,30,,,,,,down,0.36693581128702135,2397.1611556365065,None,001,32,2019_Oct_16_1003,ACPT_experiment_5_30_19,3.1.0,59.95593127093672,
,,,C,U,d,n,R,D,d,R,c ,,,,,9,15,195,6,3,0,3,0,,,,,0,17,17,1,,,,,,up,0.6171449218359157,2398.812393954313,None,001,32,2019_Oct_16_1003,ACPT_experiment_5_30_19,3.1.0,59.95593127093672,
,,,C,U,d,n,L,G,g,R,c ,,,,,9,15,195,6,3,0,3,0,,,,,0,18,18,19,,,,,,down,0.5170559045845948,2400.713862814424,None,001,32,2019_Oct_16_1003,ACPT_experiment_5_30_19,3.1.0,59.95593127093672,
,,,C,U,d,n,R,D,g,L,i,,,,,9,15,195,6,3,0,3,0,,,,,0,19,19,2,,,,,,down,0.8339597342583147,2402.4985630158526,None,001,32,2019_Oct_16_1003,ACPT_experiment_5_30_19,3.1.0,59.95593127093672,
,,,C,U,d,n,L,D,y,L,y,,,,,9,15,195,6,3,0,3,0,,,,,0,20,20,32,,,,,,down,0.5170574138633128,2404.616837029003,None,001,32,2019_Oct_16_1003,ACPT_experiment_5_30_19,3.1.0,59.95593127093672,
,,,C,U,d,n,R,D,y,R,y,,,,,9,15,195,6,3,0,3,0,,,,,0,21,21,27,,,,,,down,0.5668696445136447,2406.4351138494117,None,001,32,2019_Oct_16_1003,ACPT_experiment_5_30_19,3.1.0,59.95593127093672,
,,,C,U,d,n,L,U,d,L,u,,,,,9,15,195,6,3,0,3,0,,,,,0,22,22,20,,,,,,down,0.667172979325187,2408.2862992820965,None,001,32,2019_Oct_16_1003,ACPT_experiment_5_30_19,3.1.0,59.95593127093672,
,,,C,U,d,n,L,D,d,L,c ,,,,,9,15,195,6,3,0,3,0,,,,,0,23,23,12,,,,,,up,0.6838954842687599,2410.2377629955677,None,001,32,2019_Oct_16_1003,ACPT_experiment_5_30_19,3.1.0,59.95593127093672,
,,,C,U,d,n,R,D,g,R,i,,,,,9,15,195,6,3,0,3,0,,,,,0,24,24,3,,,,,,down,0.8339817697255967,2412.205937139754,None,001,32,2019_Oct_16_1003,ACPT_experiment_5_30_19,3.1.0,59.95593127093672,
,,,C,U,d,n,R,G,g,R,c ,,,,,9,15,195,6,3,0,3,0,,,,,0,25,25,7,,,,,,up,0.9006864500893244,2414.3075580747764,None,001,32,2019_Oct_16_1003,ACPT_experiment_5_30_19,3.1.0,59.95593127093672,
,,,C,U,d,n,L,G,g,L,c ,,,,,9,15,195,6,3,0,3,0,,,,,0,26,26,18,,,,,,up,0.8006517668673041,2416.4925557852007,None,001,32,2019_Oct_16_1003,ACPT_experiment_5_30_19,3.1.0,59.95593127093672,
,,,C,U,d,n,R,U,d,R,u,,,,,9,15,195,6,3,0,3,0,,,,,0,27,27,9,,,,,,down,0.5504257523980414,2418.5774741377563,None,001,32,2019_Oct_16_1003,ACPT_experiment_5_30_19,3.1.0,59.95593127093672,
,,,C,U,d,n,L,D,y,R,y,,,,,9,15,195,6,3,0,3,0,,,,,0,28,28,33,,,,,,down,0.5337406775634008,2420.4122048115196,None,001,32,2019_Oct_16_1003,ACPT_experiment_5_30_19,3.1.0,59.95593127093672,
,,,C,U,d,n,L,G,d,L,i,,,,,9,15,195,6,3,0,3,0,,,,,0,29,29,16,,,,,,down,0.6838640912737901,2422.230241052921,None,001,32,2019_Oct_16_1003,ACPT_experiment_5_30_19,3.1.0,59.95593127093672,
,,,C,U,d,n,L,U,g,R,u,,,,,9,15,195,6,3,0,3,0,,,,,0,30,30,23,,,,,,down,0.38365982550885747,2424.198398595043,None,001,32,2019_Oct_16_1003,ACPT_experiment_5_30_19,3.1.0,59.95593127093672,
,,,C,U,d,n,R,G,g,L,c ,,,,,9,15,195,6,3,0,3,0,,,,,0,31,31,6,,,,,,up,0.7503236647939957,2425.883315860918,None,001,32,2019_Oct_16_1003,ACPT_experiment_5_30_19,3.1.0,59.95593127093672,
,,,C,U,d,n,L,D,d,R,c ,,,,,9,15,195,6,3,0,3,0,,,,,0,32,32,13,,,,,,down,0.7338930543301103,2427.9179251283113,None,001,32,2019_Oct_16_1003,ACPT_experiment_5_30_19,3.1.0,59.95593127093672,
,,,C,U,d,n,L,D,g,R,i,,,,,9,15,195,6,3,0,3,0,,,,,0,33,33,15,,,,,,down,0.783947373266983,2429.9194350106145,None,001,32,2019_Oct_16_1003,ACPT_experiment_5_30_19,3.1.0,59.95593127093672,
,,,C,U,d,n,L,U,y,R,u,,,,,9,15,195,6,3,0,3,0,,,,,0,34,34,25,,,,,,down,0.4836987347111972,2431.987699379475,None,001,32,2019_Oct_16_1003,ACPT_experiment_5_30_19,3.1.0,59.95593127093672,
,,,C,U,d,n,R,D,d,L,c,,,,,9,15,195,6,3,0,3,0,,,,,0,35,35,0,,,,,,up,0.6503771234415581,2433.7557136005016,None,001,32,2019_Oct_16_1003,ACPT_experiment_5_30_19,3.1.0,59.95593127093672,
,,,C,U,d,n,R,D,d,L,c,,,,,9,15,195,6,3,0,3,0,,,,,1,0,36,0,,,,,,up,0.8006442204741688,2435.673818936677,None,001,32,2019_Oct_16_1003,ACPT_experiment_5_30_19,3.1.0,59.95593127093672,
,,,C,U,d,n,L,D,d,L,c ,,,,,9,15,195,6,3,0,3,0,,,,,1,1,37,12,,,,,,up,0.5670981492921783,2437.758764154392,None,001,32,2019_Oct_16_1003,ACPT_experiment_5_30_19,3.1.0,59.95593127093672,
,,,C,U,d,n,R,G,g,L,c ,,,,,9,15,195,6,3,0,3,0,,,,,1,2,38,6,,,,,,down,0.7672478093572863,2439.610173865875,None,001,32,2019_Oct_16_1003,ACPT_experiment_5_30_19,3.1.0,59.95593127093672,
,,,C,U,d,n,L,U,d,L,u,,,,,9,15,195,6,3,0,3,0,,,,,1,3,39,20,,,,,,down,0.6338441838893232,2441.6617121075233,None,001,32,2019_Oct_16_1003,ACPT_experiment_5_30_19,3.1.0,59.95593127093672,
,,,C,U,d,n,R,D,y,L,y,,,,,9,15,195,6,3,0,3,0,,,,,1,4,40,26,,,,,,down,0.6004568284442939,2443.5798648350465,None,001,32,2019_Oct_16_1003,ACPT_experiment_5_30_19,3.1.0,59.95593127093672,
,,,C,U,d,n,R,G,d,R,i,,,,,9,15,195,6,3,0,3,0,,,,,1,5,41,5,,,,,,down,0.9173506968791116,2445.464646507333,None,001,32,2019_Oct_16_1003,ACPT_experiment_5_30_19,3.1.0,59.95593127093672,
,,,C,U,d,n,L,D,y,L,y,,,,,9,15,195,6,3,0,3,0,,,,,1,6,42,32,,,,,,down,0.5337681464338857,2447.6662891457813,None,001,32,2019_Oct_16_1003,ACPT_experiment_5_30_19,3.1.0,59.95593127093672,
,,,C,U,d,n,L,G,d,R,i,,,,,9,15,195,6,3,0,3,0,,,,,1,7,43,17,,,,,,down,0.9006927890591214,2449.4843649302816,None,001,32,2019_Oct_16_1003,ACPT_experiment_5_30_19,3.1.0,59.95593127093672,
,,,C,U,d,n,R,D,g,L,i,,,,,9,15,195,6,3,0,3,0,,,,,1,8,44,2,,,,,,down,0.7839283563566823,2451.669368979676,None,001,32,2019_Oct_16_1003,ACPT_experiment_5_30_19,3.1.0,59.95593127093672,
,,,C,U,d,n,R,G,y,R,y,,,,,9,15,195,6,3,0,3,0,,,,,1,9,45,29,,,,,,down,0.6336334885977521,2453.754467540096,None,001,32,2019_Oct_16_1003,ACPT_experiment_5_30_19,3.1.0,59.95593127093672,
,,,C,U,d,n,L,D,g,R,i,,,,,9,15,195,6,3,0,3,0,,,,,1,10,46,15,,,,,,down,1.2175899779072097,2455.689095854585,None,001,32,2019_Oct_16_1003,ACPT_experiment_5_30_19,3.1.0,59.95593127093672,
,,,C,U,d,n,L,G,d,L,i,,,,,9,15,195,6,3,0,3,0,,,,,1,11,47,16,,,,,,down,0.7172067720725863,2458.1910043373646,None,001,32,2019_Oct_16_1003,ACPT_experiment_5_30_19,3.1.0,59.95593127093672,
,,,C,U,d,n,R,D,y,R,y,,,,,9,15,195,6,3,0,3,0,,,,,1,12,48,27,,,,,,down,0.5836540298796535,2460.209291964208,None,001,32,2019_Oct_16_1003,ACPT_experiment_5_30_19,3.1.0,59.95593127093672,
,,,C,U,d,n,R,U,g,L,u,,,,,9,15,195,6,3,0,3,0,,,,,1,13,49,10,,,,,,down,0.5503231214538573,2462.0939547053417,None,001,32,2019_Oct_16_1003,ACPT_experiment_5_30_19,3.1.0,59.95593127093672,
,,,C,U,d,n,L,G,g,L,c ,,,,,9,15,195,6,3,0,3,0,,,,,1,14,50,18,,,,,,up,0.6838514133337412,2463.928710131274,None,001,32,2019_Oct_16_1003,ACPT_experiment_5_30_19,3.1.0,59.95593127093672,
,,,C,U,d,n,L,G,y,L,y,,,,,9,15,195,6,3,0,3,0,,,,,1,15,51,34,,,,,,down,0.6504993750077119,2465.8968752197884,None,001,32,2019_Oct_16_1003,ACPT_experiment_5_30_19,3.1.0,59.95593127093672,
,,,C,U,d,n,R,U,y,R,u,,,,,9,15,195,6,3,0,3,0,,,,,1,16,52,31,,,,,,down,0.717217035167323,2467.831682232863,None,001,32,2019_Oct_16_1003,ACPT_experiment_5_30_19,3.1.0,59.95593127093672,
,,,C,U,d,n,L,G,g,R,c ,,,,,9,15,195,6,3,0,3,0,,,,,1,17,53,19,,,,,,up,0.7338948654642081,2469.8332087172307,None,001,32,2019_Oct_16_1003,ACPT_experiment_5_30_19,3.1.0,59.95593127093672,
,,,C,U,d,n,R,G,d,L,i,,,,,9,15,195,6,3,0,3,0,,,,,1,18,54,4,,,,,,down,0.8840007715434695,2471.8514139374633,None,001,32,2019_Oct_16_1003,ACPT_experiment_5_30_19,3.1.0,59.95593127093672,
,,,C,U,d,n,R,U,g,R,u,,,,,9,15,195,6,3,0,3,0,,,,,1,19,55,11,,,,,,down,0.9006846389547718,2474.0197347231574,None,001,32,2019_Oct_16_1003,ACPT_experiment_5_30_19,3.1.0,59.95593127093672,
,,,C,U,d,n,R,G,y,L,y,,,,,9,15,195,6,3,0,3,0,,,,,1,20,56,28,,,,,,down,0.6171406958555963,2476.2047318298705,None,001,32,2019_Oct_16_1003,ACPT_experiment_5_30_19,3.1.0,59.95593127093672,
,,,C,U,d,n,R,D,g,R,i,,,,,9,15,195,6,3,0,3,0,,,,,1,21,57,3,,,,,,down,0.8171656895092383,2478.1061874083302,None,001,32,2019_Oct_16_1003,ACPT_experiment_5_30_19,3.1.0,59.95593127093672,
,,,C,U,d,n,L,D,y,R,y,,,,,9,15,195,6,3,0,3,0,,,,,1,22,58,33,,,,,,down,0.8172828095284785,2480.224469571585,None,001,32,2019_Oct_16_1003,ACPT_experiment_5_30_19,3.1.0,59.95593127093672,
,,,C,U,d,n,R,U,y,L,u,,,,,9,15,195,6,3,0,3,0,,,,,1,23,59,30,,,,,,down,0.4336981460928655,2482.3427405661787,None,001,32,2019_Oct_16_1003,ACPT_experiment_5_30_19,3.1.0,59.95593127093672,
,,,C,U,d,n,L,G,y,R,y,,,,,9,15,195,6,3,0,3,0,,,,,1,24,60,35,,,,,,down,1.3510304297733455,2484.060721296313,None,001,32,2019_Oct_16_1003,ACPT_experiment_5_30_19,3.1.0,59.95593127093672,
,,,C,U,d,n,L,U,d,R,u,,,,,9,15,195,6,3,0,3,0,,,,,1,25,61,21,,,,,,down,0.43366946979949716,2486.696057251163,None,001,32,2019_Oct_16_1003,ACPT_experiment_5_30_19,3.1.0,59.95593127093672,
,,,C,U,d,n,L,U,g,R,u,,,,,9,15,195,6,3,0,3,0,,,,,1,26,62,23,,,,,,down,0.43367943103839934,2488.3973417378015,None,001,32,2019_Oct_16_1003,ACPT_experiment_5_30_19,3.1.0,59.95593127093672,
,,,C,U,d,n,R,U,d,L,u,,,,,9,15,195,6,3,0,3,0,,,,,1,27,63,8,,,,,,down,0.4670302619415452,2490.1153381644335,None,001,32,2019_Oct_16_1003,ACPT_experiment_5_30_19,3.1.0,59.95593127093672,
,,,C,U,d,n,L,U,g,L,u,,,,,9,15,195,6,3,0,3,0,,,,,1,28,64,22,,,,,,down,0.7171965089783043,2491.866683610834,None,001,32,2019_Oct_16_1003,ACPT_experiment_5_30_19,3.1.0,59.95593127093672,
,,,C,U,d,n,L,U,y,L,u,,,,,9,15,195,6,3,0,3,0,,,,,1,29,65,24,,,,,,down,0.9337634978560345,2493.9018283702717,None,001,32,2019_Oct_16_1003,ACPT_experiment_5_30_19,3.1.0,59.95593127093672,
,,,C,U,d,n,L,D,g,L,i,,,,,9,15,195,6,3,0,3,0,,,,,1,30,66,14,,,,,,down,0.9007003354522567,2496.136593032989,None,001,32,2019_Oct_16_1003,ACPT_experiment_5_30_19,3.1.0,59.95593127093672,
,,,C,U,d,n,R,U,d,R,u,,,,,9,15,195,6,3,0,3,0,,,,,1,31,67,9,,,,,,down,0.43366041412809864,2498.3215862155776,None,001,32,2019_Oct_16_1003,ACPT_experiment_5_30_19,3.1.0,59.95593127093672,
,,,C,U,d,n,L,U,y,R,u,,,,,9,15,195,6,3,0,3,0,,,,,1,32,68,25,,,,,,down,0.4003159221947499,2500.0395624178764,None,001,32,2019_Oct_16_1003,ACPT_experiment_5_30_19,3.1.0,59.95593127093672,
,,,C,U,d,n,R,D,d,R,c ,,,,,9,15,195,6,3,0,3,0,,,,,1,33,69,1,,,,,,up,0.6504945453161781,2501.7241832614363,None,001,32,2019_Oct_16_1003,ACPT_experiment_5_30_19,3.1.0,59.95593127093672,
,,,C,U,d,n,L,D,d,R,c ,,,,,9,15,195,6,3,0,3,0,,,,,1,34,70,13,,,,,,up,1.5344992409836777,2503.658995104202,None,001,32,2019_Oct_16_1003,ACPT_experiment_5_30_19,3.1.0,59.95593127093672,
,,,C,U,d,n,R,G,g,R,c ,,,,,9,15,195,6,3,0,3,0,,,,,1,35,71,7,,,,,,up,0.7637834112774726,2506.4979348541024,None,001,32,2019_Oct_16_1003,ACPT_experiment_5_30_19,3.1.0,59.95593127093672,
,,,C,U,d,n,,,,,,,,,,9,15,195,6,4,0,4,0,0,0,0,0,,,,,,,,,,,,,,001,32,2019_Oct_16_1003,ACPT_experiment_5_30_19,3.1.0,59.95593127093672,
,,,C,U,d,n,R,D,g,R,i,,,,,9,15,195,6,4,0,4,0,,,,,0,0,0,3,,,,,,down,1.3007243631677738,2526.8102417230407,None,001,32,2019_Oct_16_1003,ACPT_experiment_5_30_19,3.1.0,59.95593127093672,
,,,C,U,d,n,L,D,y,L,y,,,,,9,15,195,6,4,0,4,0,,,,,0,1,1,32,,,,,,down,0.9674047139601498,2529.395273422419,None,001,32,2019_Oct_16_1003,ACPT_experiment_5_30_19,3.1.0,59.95593127093672,
,,,C,U,d,n,L,D,g,R,i,,,,,9,15,195,6,4,0,4,0,,,,,0,2,2,15,,,,,,down,0.7839265452221298,2531.646993320838,None,001,32,2019_Oct_16_1003,ACPT_experiment_5_30_19,3.1.0,59.95593127093672,
,,,C,U,d,n,L,D,d,L,c ,,,,,9,15,195,6,4,0,4,0,,,,,0,3,3,12,,,,,,up,0.8673570509422461,2533.6985282420737,None,001,32,2019_Oct_16_1003,ACPT_experiment_5_30_19,3.1.0,59.95593127093672,
,,,C,U,d,n,L,U,g,L,u,,,,,9,15,195,6,4,0,4,0,,,,,0,4,4,22,,,,,,down,0.7005485623972163,2535.850174819739,None,001,32,2019_Oct_16_1003,ACPT_experiment_5_30_19,3.1.0,59.95593127093672,
,,,C,U,d,n,L,U,d,L,u,,,,,9,15,195,6,4,0,4,0,,,,,0,5,5,20,,,,,,down,0.36692494448107027,2537.818379451353,None,001,32,2019_Oct_16_1003,ACPT_experiment_5_30_19,3.1.0,59.95593127093672,
,,,C,U,d,n,L,D,g,L,i,,,,,9,15,195,6,4,0,4,0,,,,,0,6,6,14,,,,,,down,0.33361124183147695,2539.4695954318363,None,001,32,2019_Oct_16_1003,ACPT_experiment_5_30_19,3.1.0,59.95593127093672,
,,,C,U,d,n,R,G,d,R,i,,,,,9,15,195,6,4,0,4,0,,,,,0,7,7,5,,,,,,down,0.8336965160719956,2541.104472264138,None,001,32,2019_Oct_16_1003,ACPT_experiment_5_30_19,3.1.0,59.95593127093672,
,,,C,U,d,n,R,D,g,L,i,,,,,9,15,195,6,4,0,4,0,,,,,0,8,8,2,,,,,,down,1.0341266000996256,2543.2224806442564,None,001,32,2019_Oct_16_1003,ACPT_experiment_5_30_19,3.1.0,59.95593127093672,
,,,C,U,d,n,R,D,d,R,c ,,,,,9,15,195,6,4,0,4,0,,,,,0,9,9,1,,,,,,up,1.1342234655994616,2545.5242132055237,None,001,32,2019_Oct_16_1003,ACPT_experiment_5_30_19,3.1.0,59.95593127093672,
,,,C,U,d,n,L,G,y,R,y,,,,,9,15,195,6,4,0,4,0,,,,,0,10,10,35,,,,,,down,0.650511751092381,2547.942728310836,None,001,32,2019_Oct_16_1003,ACPT_experiment_5_30_19,3.1.0,59.95593127093672,
,,,C,U,d,n,R,U,g,R,u,,,,,9,15,195,6,4,0,4,0,,,,,0,11,11,11,,,,,,down,0.5170667713900912,2549.877557057522,None,001,32,2019_Oct_16_1003,ACPT_experiment_5_30_19,3.1.0,59.95593127093672,
,,,C,U,d,n,L,D,y,R,y,,,,,9,15,195,6,4,0,4,0,,,,,0,12,12,33,,,,,,down,0.6336093401405378,2551.712453148219,None,001,32,2019_Oct_16_1003,ACPT_experiment_5_30_19,3.1.0,59.95593127093672,
,,,C,U,d,n,R,U,d,R,u,,,,,9,15,195,6,4,0,4,0,,,,,0,13,13,9,,,,,,down,0.9173597525509649,2553.6470932350812,None,001,32,2019_Oct_16_1003,ACPT_experiment_5_30_19,3.1.0,59.95593127093672,
,,,C,U,d,n,R,D,y,L,y,,,,,9,15,195,6,4,0,4,0,,,,,0,14,14,26,,,,,,down,0.6505120529482156,2555.8487518718825,None,001,32,2019_Oct_16_1003,ACPT_experiment_5_30_19,3.1.0,59.95593127093672,
,,,C,U,d,n,R,D,d,L,c,,,,,9,15,195,6,4,0,4,0,,,,,0,15,15,0,,,,,,up,0.6337952832627707,2557.766917277346,None,001,32,2019_Oct_16_1003,ACPT_experiment_5_30_19,3.1.0,59.95593127093672,
,,,C,U,d,n,R,G,y,R,y,,,,,9,15,195,6,4,0,4,0,,,,,0,16,16,29,,,,,,down,0.650486697067663,2559.6850307636255,None,001,32,2019_Oct_16_1003,ACPT_experiment_5_30_19,3.1.0,59.95593127093672,
,,,C,U,d,n,R,D,y,R,y,,,,,9,15,195,6,4,0,4,0,,,,,0,17,17,27,,,,,,down,0.5003823002671197,2561.6198356637096,None,001,32,2019_Oct_16_1003,ACPT_experiment_5_30_19,3.1.0,59.95593127093672,
,,,C,U,d,n,L,U,d,R,u,,,,,9,15,195,6,4,0,4,0,,,,,0,18,18,21,,,,,,down,0.5003741501627701,2563.404535865138,None,001,32,2019_Oct_16_1003,ACPT_experiment_5_30_19,3.1.0,59.95593127093672,
,,,C,U,d,n,R,G,g,R,c ,,,,,9,15,195,6,4,0,4,0,,,,,0,19,19,7,,,,,,down,0.8006786320261199,2565.189223690482,None,001,32,2019_Oct_16_1003,ACPT_experiment_5_30_19,3.1.0,59.95593127093672,
,,,C,U,d,n,R,U,g,L,u,,,,,9,15,195,6,4,0,4,0,,,,,0,20,20,10,,,,,,down,0.7005422234269645,2567.2741468727295,None,001,32,2019_Oct_16_1003,ACPT_experiment_5_30_19,3.1.0,59.95593127093672,
,,,C,U,d,n,L,U,g,R,u,,,,,9,15,195,6,4,0,4,0,,,,,0,21,21,23,,,,,,down,0.8006327499570034,2569.258998545357,None,001,32,2019_Oct_16_1003,ACPT_experiment_5_30_19,3.1.0,59.95593127093672,
,,,C,U,d,n,R,G,y,L,y,,,,,9,15,195,6,4,0,4,0,,,,,0,22,22,28,,,,,,down,0.6671687533448676,2571.360607104295,None,001,32,2019_Oct_16_1003,ACPT_experiment_5_30_19,3.1.0,59.95593127093672,
,,,C,U,d,n,L,G,d,R,i,,,,,9,15,195,6,4,0,4,0,,,,,0,23,23,17,,,,,,down,1.067484071828403,2573.3287595148695,None,001,32,2019_Oct_16_1003,ACPT_experiment_5_30_19,3.1.0,59.95593127093672,
,,,C,U,d,n,R,U,y,L,u,,,,,9,15,195,6,4,0,4,0,,,,,0,24,24,30,,,,,,down,0.667183242419469,2575.697220301246,None,001,32,2019_Oct_16_1003,ACPT_experiment_5_30_19,3.1.0,59.95593127093672,
,,,C,U,d,n,R,U,d,L,u,,,,,9,15,195,6,4,0,4,0,,,,,0,25,25,8,,,,,,down,0.8339663750839463,2577.665401086258,None,001,32,2019_Oct_16_1003,ACPT_experiment_5_30_19,3.1.0,59.95593127093672,
,,,C,U,d,n,R,U,y,R,u,,,,,9,15,195,6,4,0,4,0,,,,,0,26,26,31,,,,,,down,0.45036178917143843,2579.766985496738,None,001,32,2019_Oct_16_1003,ACPT_experiment_5_30_19,3.1.0,59.95593127093672,
,,,C,U,d,n,L,D,d,R,c ,,,,,9,15,195,6,4,0,4,0,,,,,0,27,27,13,,,,,,up,0.5837977132014203,2581.5016340959314,None,001,32,2019_Oct_16_1003,ACPT_experiment_5_30_19,3.1.0,59.95593127093672,
,,,C,U,d,n,R,G,g,L,c ,,,,,9,15,195,6,4,0,4,0,,,,,0,28,28,6,,,,,,up,0.7172116017641201,2583.386440520387,None,001,32,2019_Oct_16_1003,ACPT_experiment_5_30_19,3.1.0,59.95593127093672,
,,,C,U,d,n,L,G,g,L,c ,,,,,9,15,195,6,4,0,4,0,,,,,0,29,29,18,,,,,,up,0.6671702626235856,2585.387955534238,None,001,32,2019_Oct_16_1003,ACPT_experiment_5_30_19,3.1.0,59.95593127093672,
,,,C,U,d,n,R,G,d,L,i,,,,,9,15,195,6,4,0,4,0,,,,,0,30,30,4,,,,,,down,0.7505714883386645,2587.339439472042,None,001,32,2019_Oct_16_1003,ACPT_experiment_5_30_19,3.1.0,59.95593127093672,
,,,C,U,d,n,L,U,y,R,u,,,,,9,15,195,6,4,0,4,0,,,,,0,31,31,25,,,,,,down,0.5504151874479248,2589.3743252392733,None,001,32,2019_Oct_16_1003,ACPT_experiment_5_30_19,3.1.0,59.95593127093672,
,,,C,U,d,n,L,G,y,L,y,,,,,9,15,195,6,4,0,4,0,,,,,0,32,32,34,,,,,,down,0.6338143001730714,2591.209054403758,None,001,32,2019_Oct_16_1003,ACPT_experiment_5_30_19,3.1.0,59.95593127093672,
,,,C,U,d,n,L,U,y,L,u,,,,,9,15,195,6,4,0,4,0,,,,,0,33,33,24,,,,,,down,0.48368424563659573,2593.1272007923108,None,001,32,2019_Oct_16_1003,ACPT_experiment_5_30_19,3.1.0,59.95593127093672,
,,,C,U,d,n,L,G,d,L,i,,,,,9,15,195,6,4,0,4,0,,,,,0,34,34,16,,,,,,down,0.7506062017469048,2594.895183016631,None,001,32,2019_Oct_16_1003,ACPT_experiment_5_30_19,3.1.0,59.95593127093672,
,,,C,U,d,n,L,G,g,R,c ,,,,,9,15,195,6,4,0,4,0,,,,,0,35,35,19,,,,,,up,0.6004411319472638,2596.930095950877,None,001,32,2019_Oct_16_1003,ACPT_experiment_5_30_19,3.1.0,59.95593127093672,
,,,C,U,d,n,L,G,d,L,i,,,,,9,15,195,6,4,0,4,0,,,,,1,0,36,16,,,,,,down,0.6338399579090037,2598.7981520996627,None,001,32,2019_Oct_16_1003,ACPT_experiment_5_30_19,3.1.0,59.95593127093672,
,,,C,U,d,n,L,D,d,L,c ,,,,,9,15,195,6,4,0,4,0,,,,,1,1,37,12,,,,,,down,0.5837723573208677,2600.7163054308976,None,001,32,2019_Oct_16_1003,ACPT_experiment_5_30_19,3.1.0,59.95593127093672,
,,,C,U,d,n,L,D,y,L,y,,,,,9,15,195,6,4,0,4,0,,,,,1,2,38,32,,,,,,down,0.7502955922122965,2602.584668566949,None,001,32,2019_Oct_16_1003,ACPT_experiment_5_30_19,3.1.0,59.95593127093672,
,,,C,U,d,n,R,D,d,L,c,,,,,9,15,195,6,4,0,4,0,,,,,1,3,39,0,,,,,,up,0.9173905418342656,2604.6192503654715,None,001,32,2019_Oct_16_1003,ACPT_experiment_5_30_19,3.1.0,59.95593127093672,
,,,C,U,d,n,L,U,g,R,u,,,,,9,15,195,6,4,0,4,0,,,,,1,4,40,23,,,,,,down,0.767274372661177,2606.8209343581534,None,001,32,2019_Oct_16_1003,ACPT_experiment_5_30_19,3.1.0,59.95593127093672,
,,,C,U,d,n,R,G,g,R,c ,,,,,9,15,195,6,4,0,4,0,,,,,1,5,41,7,,,,,,up,0.8506511480627523,2608.872516972592,None,001,32,2019_Oct_16_1003,ACPT_experiment_5_30_19,3.1.0,59.95593127093672,
,,,C,U,d,n,R,D,d,R,c ,,,,,9,15,195,6,4,0,4,0,,,,,1,6,42,1,,,,,,up,0.8506529591973049,2611.0074772680005,None,001,32,2019_Oct_16_1003,ACPT_experiment_5_30_19,3.1.0,59.95593127093672,
,,,C,U,d,n,L,U,y,R,u,,,,,9,15,195,6,4,0,4,0,,,,,1,7,43,25,,,,,,down,0.5170474526244107,2613.1424514487717,None,001,32,2019_Oct_16_1003,ACPT_experiment_5_30_19,3.1.0,59.95593127093672,
,,,C,U,d,n,R,U,d,L,u,,,,,9,15,195,6,4,0,4,0,,,,,1,8,44,8,,,,,,down,0.667168451489033,2614.943818915547,None,001,32,2019_Oct_16_1003,ACPT_experiment_5_30_19,3.1.0,59.95593127093672,
,,,C,U,d,n,R,D,g,L,i,,,,,9,15,195,6,4,0,4,0,,,,,1,9,45,2,,,,,,down,0.9006834315318883,2616.8953028533515,None,001,32,2019_Oct_16_1003,ACPT_experiment_5_30_19,3.1.0,59.95593127093672,
,,,C,U,d,n,R,G,d,L,i,,,,,9,15,195,6,4,0,4,0,,,,,1,10,46,4,,,,,,down,1.0007588652761115,2619.0803008656317,None,001,32,2019_Oct_16_1003,ACPT_experiment_5_30_19,3.1.0,59.95593127093672,
,,,C,U,d,n,L,U,g,L,u,,,,,9,15,195,6,4,0,4,0,,,,,1,11,47,22,,,,,,down,0.6168593663264801,2621.3823376974624,None,001,32,2019_Oct_16_1003,ACPT_experiment_5_30_19,3.1.0,59.95593127093672,
,,,C,U,d,n,R,U,g,L,u,,,,,9,15,195,6,4,0,4,0,,,,,1,12,48,10,,,,,,down,0.6671741867476157,2623.283502890721,None,001,32,2019_Oct_16_1003,ACPT_experiment_5_30_19,3.1.0,59.95593127093672,
,,,C,U,d,n,L,D,g,L,i,,,,,9,15,195,6,4,0,4,0,,,,,1,13,49,14,,,,,,down,0.7839500899681298,2625.2182911887407,None,001,32,2019_Oct_16_1003,ACPT_experiment_5_30_19,3.1.0,59.95593127093672,
,,,C,U,d,n,L,G,g,L,c ,,,,,9,15,195,6,4,0,4,0,,,,,1,14,50,18,,,,,,up,0.6337961888298196,2627.286570650387,None,001,32,2019_Oct_16_1003,ACPT_experiment_5_30_19,3.1.0,59.95593127093672,
,,,C,U,d,n,L,G,g,R,c ,,,,,9,15,195,6,4,0,4,0,,,,,1,15,51,19,,,,,,up,0.6171600146217315,2629.204682929244,None,001,32,2019_Oct_16_1003,ACPT_experiment_5_30_19,3.1.0,59.95593127093672,
,,,C,U,d,n,R,D,y,R,y,,,,,9,15,195,6,4,0,4,0,,,,,1,16,52,27,,,,,,down,0.8840122420601801,2631.106128546465,None,001,32,2019_Oct_16_1003,ACPT_experiment_5_30_19,3.1.0,59.95593127093672,
,,,C,U,d,n,L,U,y,L,u,,,,,9,15,195,6,4,0,4,0,,,,,1,17,53,24,,,,,,down,0.6838477910650909,2633.291133199571,None,001,32,2019_Oct_16_1003,ACPT_experiment_5_30_19,3.1.0,59.95593127093672,
,,,C,U,d,n,R,U,y,R,u,,,,,9,15,195,6,4,0,4,0,,,,,1,18,54,31,,,,,,down,0.8840149587617816,2635.275976722094,None,001,32,2019_Oct_16_1003,ACPT_experiment_5_30_19,3.1.0,59.95593127093672,
,,,C,U,d,n,L,G,y,L,y,,,,,9,15,195,6,4,0,4,0,,,,,1,19,55,34,,,,,,down,0.7339084489717607,2637.4609798659217,None,001,32,2019_Oct_16_1003,ACPT_experiment_5_30_19,3.1.0,59.95593127093672,
,,,C,U,d,n,L,U,d,L,u,,,,,9,15,195,6,4,0,4,0,,,,,1,20,56,20,,,,,,down,0.717203149803936,2639.5125428597385,None,001,32,2019_Oct_16_1003,ACPT_experiment_5_30_19,3.1.0,59.95593127093672,
,,,C,U,d,n,L,G,y,R,y,,,,,9,15,195,6,4,0,4,0,,,,,1,21,57,35,,,,,,down,0.8506396775460416,2641.5474250047014,None,001,32,2019_Oct_16_1003,ACPT_experiment_5_30_19,3.1.0,59.95593127093672,
,,,C,U,d,n,R,U,d,R,u,,,,,9,15,195,6,4,0,4,0,,,,,1,22,58,9,,,,,,down,0.7672523371934403,2643.6990676582423,None,001,32,2019_Oct_16_1003,ACPT_experiment_5_30_19,3.1.0,59.95593127093672,
,,,C,U,d,n,L,U,d,R,u,,,,,9,15,195,6,4,0,4,0,,,,,1,23,59,21,,,,,,down,0.88402009030915,2645.733927465882,None,001,32,2019_Oct_16_1003,ACPT_experiment_5_30_19,3.1.0,59.95593127093672,
,,,C,U,d,n,R,G,y,R,y,,,,,9,15,195,6,4,0,4,0,,,,,1,24,60,29,,,,,,down,0.5337446016878857,2647.9022660610635,None,001,32,2019_Oct_16_1003,ACPT_experiment_5_30_19,3.1.0,59.95593127093672,
,,,C,U,d,n,R,G,g,L,c ,,,,,9,15,195,6,4,0,4,0,,,,,1,25,61,6,,,,,,down,0.6171422051343143,2649.7203101507134,None,001,32,2019_Oct_16_1003,ACPT_experiment_5_30_19,3.1.0,59.95593127093672,
,,,C,U,d,n,R,U,y,L,u,,,,,9,15,195,6,4,0,4,0,,,,,1,26,62,30,,,,,,down,0.5003904503719241,2651.6384489928732,None,001,32,2019_Oct_16_1003,ACPT_experiment_5_30_19,3.1.0,59.95593127093672,
,,,C,U,d,n,L,D,d,R,c ,,,,,9,15,195,6,4,0,4,0,,,,,1,27,63,13,,,,,,up,0.7672466019348576,2653.456518136548,None,001,32,2019_Oct_16_1003,ACPT_experiment_5_30_19,3.1.0,59.95593127093672,
,,,C,U,d,n,R,G,y,L,y,,,,,9,15,195,6,4,0,4,0,,,,,1,28,64,28,,,,,,down,0.5337784095281677,2655.5080418891216,None,001,32,2019_Oct_16_1003,ACPT_experiment_5_30_19,3.1.0,59.95593127093672,
,,,C,U,d,n,L,D,y,R,y,,,,,9,15,195,6,4,0,4,0,,,,,1,29,65,33,,,,,,down,0.5337307163244986,2657.3427930890734,None,001,32,2019_Oct_16_1003,ACPT_experiment_5_30_19,3.1.0,59.95593127093672,
,,,C,U,d,n,R,G,d,R,i,,,,,9,15,195,6,4,0,4,0,,,,,1,30,66,5,,,,,,down,0.7672529409051094,2659.177528894384,None,001,32,2019_Oct_16_1003,ACPT_experiment_5_30_19,3.1.0,59.95593127093672,
,,,C,U,d,n,L,D,g,R,i,,,,,9,15,195,6,4,0,4,0,,,,,1,31,67,15,,,,,,down,0.7839328841923816,2661.2290921900567,None,001,32,2019_Oct_16_1003,ACPT_experiment_5_30_19,3.1.0,59.95593127093672,
