facing_vig,person_vig,text_vig,facing_train,person_train,food_train,correct_key_train,facing_exp,person_exp,food_exp,showL_R,consistent,vig_random.thisRepN,vig_random.thisTrialN,vig_random.thisN,vig_random.thisIndex,trainTrials.thisRepN,trainTrials.thisTrialN,trainTrials.thisN,trainTrials.thisIndex,expBlock.thisRepN,expBlock.thisTrialN,expBlock.thisN,expBlock.thisIndex,breakLoop.thisRepN,breakLoop.thisTrialN,breakLoop.thisN,breakLoop.thisIndex,expTrials.thisRepN,expTrials.thisTrialN,expTrials.thisN,expTrials.thisIndex,train_resp.keys,train_resp.corr,train_resp.rt,train_resp.started,train_resp.stopped,exp_resp.keys,exp_resp.rt,exp_resp.started,exp_resp.stopped,session,participant,date,expName,psychopyVersion,frameRate,
C,G,"cannot eat dairy products because she is lactose intolerant. She enjoys eating wheat products. She thinks eating insects, like crickets, is disgusting.",,,,,,,,,,0,0,0,0,,,,,,,,,,,,,,,,,,,,,,,,,,001,33,2019_Oct_16_1106,ACPT_experiment_5_30_19,3.1.0,59.948662083793025,
C,D,"is allergic to gluten, meaning she can’t eat wheat products. She enjoys eating dairy products. She thinks eating insects, like crickets, is disgusting.",,,,,,,,,,0,1,1,1,,,,,,,,,,,,,,,,,,,,,,,,,,001,33,2019_Oct_16_1106,ACPT_experiment_5_30_19,3.1.0,59.948662083793025,
C,U,"did not report her food preferences, so her food preferences are unknown.",,,,,,,,,,0,2,2,2,,,,,,,,,,,,,,,,,,,,,,,,,,001,33,2019_Oct_16_1106,ACPT_experiment_5_30_19,3.1.0,59.948662083793025,
,,,C,G,d,b,,,,,,,,,,0,0,0,12,,,,,,,,,,,,,v,0,2.2017011984580677,1150.4695160437823,None,,,,,001,33,2019_Oct_16_1106,ACPT_experiment_5_30_19,3.1.0,59.948662083793025,
,,,C,U,d,n,,,,,,,,,,0,1,1,15,,,,,,,,,,,,,v,0,1.2009556148332194,1155.9570462331276,None,,,,,001,33,2019_Oct_16_1106,ACPT_experiment_5_30_19,3.1.0,59.948662083793025,
,,,C,D,y,b,,,,,,,,,,0,2,2,2,,,,,,,,,,,,,n,0,1.4675672632647547,1160.4607169495912,None,,,,,001,33,2019_Oct_16_1106,ACPT_experiment_5_30_19,3.1.0,59.948662083793025,
,,,C,D,g,b,,,,,,,,,,0,3,3,10,,,,,,,,,,,,,b,1,2.185008879085217,1165.1974281289085,None,,,,,001,33,2019_Oct_16_1106,ACPT_experiment_5_30_19,3.1.0,59.948662083793025,
,,,C,D,d,v,,,,,,,,,,0,4,4,18,,,,,,,,,,,,,b,0,2.3851920451361366,1170.6515661331168,None,,,,,001,33,2019_Oct_16_1106,ACPT_experiment_5_30_19,3.1.0,59.948662083793025,
,,,C,G,y,b,,,,,,,,,,0,5,5,5,,,,,,,,,,,,,n,0,1.6679713877001632,1176.322583546871,None,,,,,001,33,2019_Oct_16_1106,ACPT_experiment_5_30_19,3.1.0,59.948662083793025,
,,,C,D,d,v,,,,,,,,,,0,6,6,9,,,,,,,,,,,,,b,0,6.4382558655852336,1181.2763661159715,None,,,,,001,33,2019_Oct_16_1106,ACPT_experiment_5_30_19,3.1.0,59.948662083793025,
,,,C,D,y,b,,,,,,,,,,0,7,7,11,,,,,,,,,,,,,b,1,1.9181400495826892,1190.983768916166,None,,,,,001,33,2019_Oct_16_1106,ACPT_experiment_5_30_19,3.1.0,59.948662083793025,
,,,C,G,y,b,,,,,,,,,,0,8,8,14,,,,,,,,,,,,,b,1,1.6679535782132007,1196.1877400696258,None,,,,,001,33,2019_Oct_16_1106,ACPT_experiment_5_30_19,3.1.0,59.948662083793025,
,,,C,G,g,v,,,,,,,,,,0,9,9,4,,,,,,,,,,,,,v,1,2.00155938664102,1201.1248200562604,None,,,,,001,33,2019_Oct_16_1106,ACPT_experiment_5_30_19,3.1.0,59.948662083793025,
,,,C,U,y,n,,,,,,,,,,0,10,10,8,,,,,,,,,,,,,n,1,1.9515035584263387,1206.4122090375004,None,,,,,001,33,2019_Oct_16_1106,ACPT_experiment_5_30_19,3.1.0,59.948662083793025,
,,,C,D,g,b,,,,,,,,,,0,11,11,1,,,,,,,,,,,,,b,1,3.0690325916639267,1211.6495391719673,None,,,,,001,33,2019_Oct_16_1106,ACPT_experiment_5_30_19,3.1.0,59.948662083793025,
,,,C,U,d,n,,,,,,,,,,0,12,12,6,,,,,,,,,,,,,n,1,1.3510316371966837,1218.004391698847,None,,,,,001,33,2019_Oct_16_1106,ACPT_experiment_5_30_19,3.1.0,59.948662083793025,
,,,C,U,g,n,,,,,,,,,,0,13,13,7,,,,,,,,,,,,,n,1,0.9004331931419074,1222.6582060533547,None,,,,,001,33,2019_Oct_16_1106,ACPT_experiment_5_30_19,3.1.0,59.948662083793025,
,,,C,G,g,v,,,,,,,,,,0,14,14,19,,,,,,,,,,,,,v,1,2.4018574993488073,1226.8444670299605,None,,,,,001,33,2019_Oct_16_1106,ACPT_experiment_5_30_19,3.1.0,59.948662083793025,
,,,C,G,d,b,,,,,,,,,,0,15,15,3,,,,,,,,,,,,,b,1,0.7672559594620907,1232.5154636156703,None,,,,,001,33,2019_Oct_16_1106,ACPT_experiment_5_30_19,3.1.0,59.948662083793025,
,,,C,U,y,n,,,,,,,,,,0,16,16,17,,,,,,,,,,,,,n,1,0.7339271640266816,1236.5685509808654,None,,,,,001,33,2019_Oct_16_1106,ACPT_experiment_5_30_19,3.1.0,59.948662083793025,
,,,C,D,d,v,,,,,,,,,,0,17,17,0,,,,,,,,,,,,,v,1,1.4844763150422295,1240.5882860058782,None,,,,,001,33,2019_Oct_16_1106,ACPT_experiment_5_30_19,3.1.0,59.948662083793025,
,,,C,U,g,n,,,,,,,,,,0,18,18,16,,,,,,,,,,,,,n,1,0.6004701100955572,1245.3585931229418,None,,,,,001,33,2019_Oct_16_1106,ACPT_experiment_5_30_19,3.1.0,59.948662083793025,
,,,C,G,g,v,,,,,,,,,,0,19,19,13,,,,,,,,,,,,,v,1,1.5007022673289612,1249.2620011041881,None,,,,,001,33,2019_Oct_16_1106,ACPT_experiment_5_30_19,3.1.0,59.948662083793025,
,,,C,D,g,b,,,,,,,,,,1,0,20,1,,,,,,,,,,,,,b,1,1.0174548069171578,1254.048554699728,None,,,,,001,33,2019_Oct_16_1106,ACPT_experiment_5_30_19,3.1.0,59.948662083793025,
,,,C,U,y,n,,,,,,,,,,1,1,21,8,,,,,,,,,,,,,n,1,0.6505319754260199,1258.3518469494911,None,,,,,001,33,2019_Oct_16_1106,ACPT_experiment_5_30_19,3.1.0,59.948662083793025,
,,,C,U,g,n,,,,,,,,,,1,2,22,7,,,,,,,,,,,,,n,1,1.0341247889655278,1262.271500805502,None,,,,,001,33,2019_Oct_16_1106,ACPT_experiment_5_30_19,3.1.0,59.948662083793025,
,,,C,G,y,b,,,,,,,,,,1,3,23,14,,,,,,,,,,,,,n,0,1.1508726196034331,1266.6081499232832,None,,,,,001,33,2019_Oct_16_1106,ACPT_experiment_5_30_19,3.1.0,59.948662083793025,
,,,C,U,d,n,,,,,,,,,,1,4,24,15,,,,,,,,,,,,,n,1,0.767210379248354,1271.0449091882165,None,,,,,001,33,2019_Oct_16_1106,ACPT_experiment_5_30_19,3.1.0,59.948662083793025,
,,,C,D,d,v,,,,,,,,,,1,5,25,9,,,,,,,,,,,,,v,1,1.6843648699114055,1275.114898058796,None,,,,,001,33,2019_Oct_16_1106,ACPT_experiment_5_30_19,3.1.0,59.948662083793025,
,,,C,U,d,n,,,,,,,,,,1,6,26,6,,,,,,,,,,,,,n,1,0.9340590146039176,1280.0850846750573,None,,,,,001,33,2019_Oct_16_1106,ACPT_experiment_5_30_19,3.1.0,59.948662083793025,
,,,C,G,g,v,,,,,,,,,,1,7,27,13,,,,,,,,,,,,,v,1,1.267449298050451,1284.3218910898531,None,,,,,001,33,2019_Oct_16_1106,ACPT_experiment_5_30_19,3.1.0,59.948662083793025,
,,,C,D,y,b,,,,,,,,,,1,8,28,2,,,,,,,,,,,,,b,1,1.3510603134891426,1288.8751132336265,None,,,,,001,33,2019_Oct_16_1106,ACPT_experiment_5_30_19,3.1.0,59.948662083793025,
,,,C,D,d,v,,,,,,,,,,1,9,29,18,,,,,,,,,,,,,v,1,2.1483358241466703,1293.531991725531,None,,,,,001,33,2019_Oct_16_1106,ACPT_experiment_5_30_19,3.1.0,59.948662083793025,
,,,C,G,d,b,,,,,,,,,,1,10,30,3,,,,,,,,,,,,,b,1,1.0174535994938196,1298.9661562387091,None,,,,,001,33,2019_Oct_16_1106,ACPT_experiment_5_30_19,3.1.0,59.948662083793025,
,,,C,D,d,v,,,,,,,,,,1,11,31,0,,,,,,,,,,,,,v,1,1.264379727249434,1303.289440392702,None,,,,,001,33,2019_Oct_16_1106,ACPT_experiment_5_30_19,3.1.0,59.948662083793025,
,,,C,D,g,b,,,,,,,,,,1,12,32,10,,,,,,,,,,,,,v,0,0.9006964113277718,1307.8229145316664,None,,,,,001,33,2019_Oct_16_1106,ACPT_experiment_5_30_19,3.1.0,59.948662083793025,
,,,C,D,y,b,,,,,,,,,,1,13,33,11,,,,,,,,,,,,,b,1,1.064180562846559,1312.0294336492452,None,,,,,001,33,2019_Oct_16_1106,ACPT_experiment_5_30_19,3.1.0,59.948662083793025,
,,,C,G,y,b,,,,,,,,,,1,14,34,5,,,,,,,,,,,,,b,1,0.783966390176829,1316.3794160359648,None,,,,,001,33,2019_Oct_16_1106,ACPT_experiment_5_30_19,3.1.0,59.948662083793025,
,,,C,U,g,n,,,,,,,,,,1,15,35,16,,,,,,,,,,,,,n,1,0.8673205264003627,1320.4492144355854,None,,,,,001,33,2019_Oct_16_1106,ACPT_experiment_5_30_19,3.1.0,59.948662083793025,
,,,C,G,d,b,,,,,,,,,,1,16,36,12,,,,,,,,,,,,,b,1,1.3510944231857138,1324.6023787438035,None,,,,,001,33,2019_Oct_16_1106,ACPT_experiment_5_30_19,3.1.0,59.948662083793025,
,,,C,G,g,v,,,,,,,,,,1,17,37,4,,,,,,,,,,,,,v,1,0.7973111296314528,1329.2592418410668,None,,,,,001,33,2019_Oct_16_1106,ACPT_experiment_5_30_19,3.1.0,59.948662083793025,
,,,C,U,y,n,,,,,,,,,,1,18,38,17,,,,,,,,,,,,,n,1,0.600489730717527,1333.3423599261178,None,,,,,001,33,2019_Oct_16_1106,ACPT_experiment_5_30_19,3.1.0,59.948662083793025,
,,,C,G,g,v,,,,,,,,,,1,19,39,19,,,,,,,,,,,,,v,1,1.9344040356900223,1337.245754323857,None,,,,,001,33,2019_Oct_16_1106,ACPT_experiment_5_30_19,3.1.0,59.948662083793025,
,,,C,U,y,n,,,,,,,,,,2,0,40,8,,,,,,,,,,,,,n,1,1.0007549411511718,1342.466022969409,None,,,,,001,33,2019_Oct_16_1106,ACPT_experiment_5_30_19,3.1.0,59.948662083793025,
,,,C,D,y,b,,,,,,,,,,2,1,41,2,,,,,,,,,,,,,n,0,0.6670057512574203,1346.769460713629,None,,,,,001,33,2019_Oct_16_1106,ACPT_experiment_5_30_19,3.1.0,59.948662083793025,
,,,C,D,g,b,,,,,,,,,,2,2,42,10,,,,,,,,,,,,,b,1,2.5686110501528674,1350.7056526407396,None,,,,,001,33,2019_Oct_16_1106,ACPT_experiment_5_30_19,3.1.0,59.948662083793025,
,,,C,G,g,v,,,,,,,,,,2,3,43,19,,,,,,,,,,,,,b,0,1.5178570296611724,1356.5600887576556,None,,,,,001,33,2019_Oct_16_1106,ACPT_experiment_5_30_19,3.1.0,59.948662083793025,
,,,C,D,g,b,,,,,,,,,,2,4,44,1,,,,,,,,,,,,,b,1,1.9348359912237356,1361.363753346448,None,,,,,001,33,2019_Oct_16_1106,ACPT_experiment_5_30_19,3.1.0,59.948662083793025,
,,,C,D,d,v,,,,,,,,,,2,5,45,0,,,,,,,,,,,,,v,1,1.100870823562218,1366.567722386918,None,,,,,001,33,2019_Oct_16_1106,ACPT_experiment_5_30_19,3.1.0,59.948662083793025,
,,,C,U,g,n,,,,,,,,,,2,6,46,16,,,,,,,,,,,,,n,1,0.6505051102658399,1370.9543995621889,None,,,,,001,33,2019_Oct_16_1106,ACPT_experiment_5_30_19,3.1.0,59.948662083793025,
,,,C,G,y,b,,,,,,,,,,2,7,47,14,,,,,,,,,,,,,b,1,1.0174490716581204,1374.8907397004568,None,,,,,001,33,2019_Oct_16_1106,ACPT_experiment_5_30_19,3.1.0,59.948662083793025,
,,,C,G,g,v,,,,,,,,,,2,8,48,4,,,,,,,,,,,,,v,1,1.7842763959997683,1379.2110979669715,None,,,,,001,33,2019_Oct_16_1106,ACPT_experiment_5_30_19,3.1.0,59.948662083793025,
,,,C,G,g,v,,,,,,,,,,2,9,49,13,,,,,,,,,,,,,v,1,0.8839527764839659,1384.264616080277,None,,,,,001,33,2019_Oct_16_1106,ACPT_experiment_5_30_19,3.1.0,59.948662083793025,
,,,C,G,d,b,,,,,,,,,,2,10,50,12,,,,,,,,,,,,,b,1,0.7672716559591208,1388.4177369212712,None,,,,,001,33,2019_Oct_16_1106,ACPT_experiment_5_30_19,3.1.0,59.948662083793025,
,,,C,D,d,v,,,,,,,,,,2,11,51,18,,,,,,,,,,,,,v,1,1.300999051870349,1392.4708116085258,None,,,,,001,33,2019_Oct_16_1106,ACPT_experiment_5_30_19,3.1.0,59.948662083793025,
,,,C,D,d,v,,,,,,,,,,2,12,52,9,,,,,,,,,,,,,v,1,0.7002717607037994,1397.0579155474106,None,,,,,001,33,2019_Oct_16_1106,ACPT_experiment_5_30_19,3.1.0,59.948662083793025,
,,,C,G,d,b,,,,,,,,,,2,13,53,3,,,,,,,,,,,,,b,1,0.9507341282005655,1401.044019619414,None,,,,,001,33,2019_Oct_16_1106,ACPT_experiment_5_30_19,3.1.0,59.948662083793025,
,,,C,U,d,n,,,,,,,,,,2,14,54,6,,,,,,,,,,,,,n,1,0.7003007388520928,1405.2975035626523,None,,,,,001,33,2019_Oct_16_1106,ACPT_experiment_5_30_19,3.1.0,59.948662083793025,
,,,C,U,d,n,,,,,,,,,,2,15,55,15,,,,,,,,,,,,,n,1,0.7841136957677008,1409.2668075527927,None,,,,,001,33,2019_Oct_16_1106,ACPT_experiment_5_30_19,3.1.0,59.948662083793025,
,,,C,U,y,n,,,,,,,,,,2,16,56,17,,,,,,,,,,,,,n,1,0.5499744780991023,1413.3538398009441,None,,,,,001,33,2019_Oct_16_1106,ACPT_experiment_5_30_19,3.1.0,59.948662083793025,
,,,C,G,y,b,,,,,,,,,,2,17,57,5,,,,,,,,,,,,,b,1,1.0508237491621912,1417.189665607254,None,,,,,001,33,2019_Oct_16_1106,ACPT_experiment_5_30_19,3.1.0,59.948662083793025,
,,,C,D,y,b,,,,,,,,,,2,18,58,11,,,,,,,,,,,,,b,1,0.6667706056523457,1421.5433737991052,None,,,,,001,33,2019_Oct_16_1106,ACPT_experiment_5_30_19,3.1.0,59.948662083793025,
,,,C,U,g,n,,,,,,,,,,2,19,59,7,,,,,,,,,,,,,n,1,0.950755258099889,1425.4960032793606,None,,,,,001,33,2019_Oct_16_1106,ACPT_experiment_5_30_19,3.1.0,59.948662083793025,
,,,C,D,g,b,,,,,,,,,,3,0,60,10,,,,,,,,,,,,,v,0,1.3174061175895986,1429.7495225397179,None,,,,,001,33,2019_Oct_16_1106,ACPT_experiment_5_30_19,3.1.0,59.948662083793025,
,,,C,G,y,b,,,,,,,,,,3,1,61,14,,,,,,,,,,,,,b,1,0.8339935420981419,1434.3527600630396,None,,,,,001,33,2019_Oct_16_1106,ACPT_experiment_5_30_19,3.1.0,59.948662083793025,
,,,C,G,g,v,,,,,,,,,,3,2,62,19,,,,,,,,,,,,,v,1,1.0141724278346373,1438.4925654445842,None,,,,,001,33,2019_Oct_16_1106,ACPT_experiment_5_30_19,3.1.0,59.948662083793025,
,,,C,U,d,n,,,,,,,,,,3,3,63,15,,,,,,,,,,,,,n,1,0.7005437327061372,1442.7925264146397,None,,,,,001,33,2019_Oct_16_1106,ACPT_experiment_5_30_19,3.1.0,59.948662083793025,
,,,C,G,y,b,,,,,,,,,,3,4,64,5,,,,,,,,,,,,,b,1,0.7836621196129272,1446.7958519590893,None,,,,,001,33,2019_Oct_16_1106,ACPT_experiment_5_30_19,3.1.0,59.948662083793025,
,,,C,D,d,v,,,,,,,,,,3,5,65,9,,,,,,,,,,,,,v,1,1.5178256366662026,1450.865355747529,None,,,,,001,33,2019_Oct_16_1106,ACPT_experiment_5_30_19,3.1.0,59.948662083793025,
,,,C,U,g,n,,,,,,,,,,3,6,66,16,,,,,,,,,,,,,n,1,0.6505093362466141,1455.6690115825058,None,,,,,001,33,2019_Oct_16_1106,ACPT_experiment_5_30_19,3.1.0,59.948662083793025,
,,,C,U,d,n,,,,,,,,,,3,7,67,6,,,,,,,,,,,,,n,1,0.9504681933121901,1459.6056137315372,None,,,,,001,33,2019_Oct_16_1106,ACPT_experiment_5_30_19,3.1.0,59.948662083793025,
,,,C,D,y,b,,,,,,,,,,3,8,68,2,,,,,,,,,,,,,b,1,0.984091901784268,1463.8419112175925,None,,,,,001,33,2019_Oct_16_1106,ACPT_experiment_5_30_19,3.1.0,59.948662083793025,
,,,C,D,d,v,,,,,,,,,,3,9,69,0,,,,,,,,,,,,,v,1,0.9006852426664409,1468.111843882637,None,,,,,001,33,2019_Oct_16_1106,ACPT_experiment_5_30_19,3.1.0,59.948662083793025,
,,,C,D,d,v,,,,,,,,,,3,10,70,18,,,,,,,,,,,,,v,1,0.4837129219304188,1472.281678776615,None,,,,,001,33,2019_Oct_16_1106,ACPT_experiment_5_30_19,3.1.0,59.948662083793025,
,,,C,U,y,n,,,,,,,,,,3,11,71,8,,,,,,,,,,,,,n,1,0.6671630180862849,1476.0512406119096,None,,,,,001,33,2019_Oct_16_1106,ACPT_experiment_5_30_19,3.1.0,59.948662083793025,
,,,C,D,y,b,,,,,,,,,,3,12,72,11,,,,,,,,,,,,,b,1,0.7004085013440999,1480.0042519396493,None,,,,,001,33,2019_Oct_16_1106,ACPT_experiment_5_30_19,3.1.0,59.948662083793025,
,,,C,G,g,v,,,,,,,,,,3,13,73,4,,,,,,,,,,,,,v,1,0.8671182830685211,1484.0075056424384,None,,,,,001,33,2019_Oct_16_1106,ACPT_experiment_5_30_19,3.1.0,59.948662083793025,
,,,C,G,d,b,,,,,,,,,,3,14,74,12,,,,,,,,,,,,,v,0,0.8173015245829447,1488.1437714638287,None,,,,,001,33,2019_Oct_16_1106,ACPT_experiment_5_30_19,3.1.0,59.948662083793025,
,,,C,D,g,b,,,,,,,,,,3,15,75,1,,,,,,,,,,,,,b,1,1.65100619075929,1492.263846951906,None,,,,,001,33,2019_Oct_16_1106,ACPT_experiment_5_30_19,3.1.0,59.948662083793025,
,,,C,G,d,b,,,,,,,,,,3,16,76,3,,,,,,,,,,,,,v,0,1.184244580406812,1497.2006791149952,None,,,,,001,33,2019_Oct_16_1106,ACPT_experiment_5_30_19,3.1.0,59.948662083793025,
,,,C,G,g,v,,,,,,,,,,3,17,77,13,,,,,,,,,,,,,v,1,1.1175287313817535,1501.6707638549515,None,,,,,001,33,2019_Oct_16_1106,ACPT_experiment_5_30_19,3.1.0,59.948662083793025,
,,,C,U,g,n,,,,,,,,,,3,18,78,7,,,,,,,,,,,,,n,1,0.6838544318907225,1506.0741176530964,None,,,,,001,33,2019_Oct_16_1106,ACPT_experiment_5_30_19,3.1.0,59.948662083793025,
,,,C,U,y,n,,,,,,,,,,3,19,79,17,,,,,,,,,,,,,n,1,0.6504830747990127,1510.0271591664077,None,,,,,001,33,2019_Oct_16_1106,ACPT_experiment_5_30_19,3.1.0,59.948662083793025,
,,,C,D,y,b,,,,,,,,,,4,0,80,11,,,,,,,,,,,,,b,1,0.7005226028059042,1513.9634781747754,None,,,,,001,33,2019_Oct_16_1106,ACPT_experiment_5_30_19,3.1.0,59.948662083793025,
,,,C,U,y,n,,,,,,,,,,4,1,81,17,,,,,,,,,,,,,b,0,0.41699707290536026,1517.9665199748497,None,,,,,001,33,2019_Oct_16_1106,ACPT_experiment_5_30_19,3.1.0,59.948662083793025,
,,,C,U,d,n,,,,,,,,,,4,2,82,15,,,,,,,,,,,,,n,1,0.2390223376251015,None,None,,,,,001,33,2019_Oct_16_1106,ACPT_experiment_5_30_19,3.1.0,59.948662083793025,
,,,C,D,d,v,,,,,,,,,,4,3,83,18,,,,,,,,,,,,,v,1,1.2840812462782196,1524.9720913258443,None,,,,,001,33,2019_Oct_16_1106,ACPT_experiment_5_30_19,3.1.0,59.948662083793025,
,,,C,U,g,n,,,,,,,,,,4,4,84,16,,,,,,,,,,,,,n,1,0.7506037869006832,1529.5420079019796,None,,,,,001,33,2019_Oct_16_1106,ACPT_experiment_5_30_19,3.1.0,59.948662083793025,
,,,C,G,g,v,,,,,,,,,,4,5,85,19,,,,,,,,,,,,,v,1,2.0179190610115256,1533.595392595057,None,,,,,001,33,2019_Oct_16_1106,ACPT_experiment_5_30_19,3.1.0,59.948662083793025,
,,,C,G,g,v,,,,,,,,,,4,6,86,13,,,,,,,,,,,,,v,1,0.6671832424199238,1538.8824631185134,None,,,,,001,33,2019_Oct_16_1106,ACPT_experiment_5_30_19,3.1.0,59.948662083793025,
,,,C,G,d,b,,,,,,,,,,4,7,87,12,,,,,,,,,,,,,b,1,0.366943961391371,1542.8188126143095,None,,,,,001,33,2019_Oct_16_1106,ACPT_experiment_5_30_19,3.1.0,59.948662083793025,
,,,C,G,y,b,,,,,,,,,,4,8,88,14,,,,,,,,,,,,,b,1,0.7172215630034771,1546.454903208455,None,,,,,001,33,2019_Oct_16_1106,ACPT_experiment_5_30_19,3.1.0,59.948662083793025,
,,,C,D,g,b,,,,,,,,,,4,9,89,10,,,,,,,,,,,,,b,1,1.5007200768159237,1550.475040003429,None,,,,,001,33,2019_Oct_16_1106,ACPT_experiment_5_30_19,3.1.0,59.948662083793025,
,,,C,D,g,b,,,,,,,,,,4,10,90,1,,,,,,,,,,,,,b,1,0.6171518645178367,1555.2449332763026,None,,,,,001,33,2019_Oct_16_1106,ACPT_experiment_5_30_19,3.1.0,59.948662083793025,
,,,C,G,d,b,,,,,,,,,,4,11,91,3,,,,,,,,,,,,,v,0,0.7839232248088592,1559.1646043380897,None,,,,,001,33,2019_Oct_16_1106,ACPT_experiment_5_30_19,3.1.0,59.948662083793025,
,,,C,U,g,n,,,,,,,,,,4,12,92,7,,,,,,,,,,,,,n,1,1.3343556180334417,1563.234361987189,None,,,,,001,33,2019_Oct_16_1106,ACPT_experiment_5_30_19,3.1.0,59.948662083793025,
,,,C,D,d,v,,,,,,,,,,4,13,93,9,,,,,,,,,,,,,v,1,2.0678372430184027,1567.8716376668845,None,,,,,001,33,2019_Oct_16_1106,ACPT_experiment_5_30_19,3.1.0,59.948662083793025,
,,,C,G,g,v,,,,,,,,,,4,14,94,4,,,,,,,,,,,,,v,1,1.1342174284854991,1573.225303900791,None,,,,,001,33,2019_Oct_16_1106,ACPT_experiment_5_30_19,3.1.0,59.948662083793025,
,,,C,U,d,n,,,,,,,,,,4,15,95,6,,,,,,,,,,,,,n,1,0.7838420256211975,1577.6622623904987,None,,,,,001,33,2019_Oct_16_1106,ACPT_experiment_5_30_19,3.1.0,59.948662083793025,
,,,C,D,y,b,,,,,,,,,,4,16,96,2,,,,,,,,,,,,,b,1,0.6171760129745962,1581.7317996849233,None,,,,,001,33,2019_Oct_16_1106,ACPT_experiment_5_30_19,3.1.0,59.948662083793025,
,,,C,D,d,v,,,,,,,,,,4,17,97,0,,,,,,,,,,,,,b,0,1.5509259273230782,1585.6350398343902,None,,,,,001,33,2019_Oct_16_1106,ACPT_experiment_5_30_19,3.1.0,59.948662083793025,
,,,C,G,y,b,,,,,,,,,,4,18,98,5,,,,,,,,,,,,,b,1,0.6338127908948081,1590.4717986767255,None,,,,,001,33,2019_Oct_16_1106,ACPT_experiment_5_30_19,3.1.0,59.948662083793025,
,,,C,U,y,n,,,,,,,,,,4,19,99,8,,,,,,,,,,,,,b,0,0.5837198344261196,1594.408192545311,None,,,,,001,33,2019_Oct_16_1106,ACPT_experiment_5_30_19,3.1.0,59.948662083793025,
,,,C,G,d,b,,,,,,,,,,5,0,100,12,,,,,,,,,,,,,v,0,2.0015346344725913,1598.27774801145,None,,,,,001,33,2019_Oct_16_1106,ACPT_experiment_5_30_19,3.1.0,59.948662083793025,
,,,C,D,d,v,,,,,,,,,,5,1,101,18,,,,,,,,,,,,,v,1,0.9840931092076062,1603.565113447944,None,,,,,001,33,2019_Oct_16_1106,ACPT_experiment_5_30_19,3.1.0,59.948662083793025,
,,,C,G,y,b,,,,,,,,,,5,2,102,5,,,,,,,,,,,,,b,1,0.6502672479600733,1607.8519515424978,None,,,,,001,33,2019_Oct_16_1106,ACPT_experiment_5_30_19,3.1.0,59.948662083793025,
,,,C,U,d,n,,,,,,,,,,5,3,103,15,,,,,,,,,,,,,n,1,1.1342059579683337,1611.7880504980467,None,,,,,001,33,2019_Oct_16_1106,ACPT_experiment_5_30_19,3.1.0,59.948662083793025,
,,,C,U,y,n,,,,,,,,,,5,4,104,17,,,,,,,,,,,,,n,1,0.7336370806806372,1616.2083595318945,None,,,,,001,33,2019_Oct_16_1106,ACPT_experiment_5_30_19,3.1.0,59.948662083793025,
,,,C,G,g,v,,,,,,,,,,5,5,105,19,,,,,,,,,,,,,v,1,1.4177568437480659,1620.227816547791,None,,,,,001,33,2019_Oct_16_1106,ACPT_experiment_5_30_19,3.1.0,59.948662083793025,
,,,C,U,g,n,,,,,,,,,,5,6,106,7,,,,,,,,,,,,,n,1,0.5671241088839452,1624.9313981564464,None,,,,,001,33,2019_Oct_16_1106,ACPT_experiment_5_30_19,3.1.0,59.948662083793025,
,,,C,U,g,n,,,,,,,,,,5,7,107,16,,,,,,,,,,,,,n,1,0.667175394170954,1628.7676628609706,None,,,,,001,33,2019_Oct_16_1106,ACPT_experiment_5_30_19,3.1.0,59.948662083793025,
,,,C,D,d,v,,,,,,,,,,5,8,108,9,,,,,,,,,,,,,v,1,1.5509413219651833,1632.7375953147166,None,,,,,001,33,2019_Oct_16_1106,ACPT_experiment_5_30_19,3.1.0,59.948662083793025,
,,,C,D,y,b,,,,,,,,,,5,9,109,2,,,,,,,,,,,,,n,0,0.7672626002877223,1637.5743743813846,None,,,,,001,33,2019_Oct_16_1106,ACPT_experiment_5_30_19,3.1.0,59.948662083793025,
,,,C,D,g,b,,,,,,,,,,5,10,110,10,,,,,,,,,,,,,b,1,2.1316588994159247,1641.6474581786451,None,,,,,001,33,2019_Oct_16_1106,ACPT_experiment_5_30_19,3.1.0,59.948662083793025,
,,,C,G,d,b,,,,,,,,,,5,11,111,3,,,,,,,,,,,,,b,1,1.4844944263850266,1647.0649442578142,None,,,,,001,33,2019_Oct_16_1106,ACPT_experiment_5_30_19,3.1.0,59.948662083793025,
,,,C,D,g,b,,,,,,,,,,5,12,112,1,,,,,,,,,,,,,b,1,1.401061505819598,1651.8352583175592,None,,,,,001,33,2019_Oct_16_1106,ACPT_experiment_5_30_19,3.1.0,59.948662083793025,
,,,C,U,y,n,,,,,,,,,,5,13,113,8,,,,,,,,,,,,,b,0,0.8003580612530641,1656.5390874479035,None,,,,,001,33,2019_Oct_16_1106,ACPT_experiment_5_30_19,3.1.0,59.948662083793025,
,,,C,D,y,b,,,,,,,,,,5,14,114,11,,,,,,,,,,,,,n,0,0.23612452272755036,None,None,,,,,001,33,2019_Oct_16_1106,ACPT_experiment_5_30_19,3.1.0,59.948662083793025,
,,,C,U,d,n,,,,,,,,,,5,15,115,6,,,,,,,,,,,,,n,1,0.8506429979588574,1663.8610956577759,None,,,,,001,33,2019_Oct_16_1106,ACPT_experiment_5_30_19,3.1.0,59.948662083793025,
,,,C,D,d,v,,,,,,,,,,5,16,116,0,,,,,,,,,,,,,v,1,1.5011644084333966,1667.9975703633227,None,,,,,001,33,2019_Oct_16_1106,ACPT_experiment_5_30_19,3.1.0,59.948662083793025,
,,,C,G,g,v,,,,,,,,,,5,17,117,4,,,,,,,,,,,,,b,0,2.101619123887758,1672.7845507828479,None,,,,,001,33,2019_Oct_16_1106,ACPT_experiment_5_30_19,3.1.0,59.948662083793025,
,,,C,G,g,v,,,,,,,,,,5,18,118,13,,,,,,,,,,,,,v,1,1.2843432570416553,1678.155294805878,None,,,,,001,33,2019_Oct_16_1106,ACPT_experiment_5_30_19,3.1.0,59.948662083793025,
,,,C,G,y,b,,,,,,,,,,5,19,119,14,,,,,,,,,,,,,b,1,0.6669538320738866,1682.7423851612557,None,,,,,001,33,2019_Oct_16_1106,ACPT_experiment_5_30_19,3.1.0,59.948662083793025,
,,,C,G,g,v,,,,,,,,,,6,0,120,13,,,,,,,,,,,,,v,1,1.451139369502016,1686.6951586266896,None,,,,,001,33,2019_Oct_16_1106,ACPT_experiment_5_30_19,3.1.0,59.948662083793025,
,,,C,G,y,b,,,,,,,,,,6,1,121,14,,,,,,,,,,,,,b,1,0.7503176276804879,1691.449034831433,None,,,,,001,33,2019_Oct_16_1106,ACPT_experiment_5_30_19,3.1.0,59.948662083793025,
,,,C,G,g,v,,,,,,,,,,6,2,122,4,,,,,,,,,,,,,v,1,0.7839467695548592,1695.4851865815472,None,,,,,001,33,2019_Oct_16_1106,ACPT_experiment_5_30_19,3.1.0,59.948662083793025,
,,,C,D,d,v,,,,,,,,,,6,3,123,9,,,,,,,,,,,,,v,1,1.4174854754573971,1699.5719088238766,None,,,,,001,33,2019_Oct_16_1106,ACPT_experiment_5_30_19,3.1.0,59.948662083793025,
,,,C,U,g,n,,,,,,,,,,6,4,124,7,,,,,,,,,,,,,n,1,0.7005708997203328,1704.2752202716647,None,,,,,001,33,2019_Oct_16_1106,ACPT_experiment_5_30_19,3.1.0,59.948662083793025,
,,,C,D,d,v,,,,,,,,,,6,5,125,18,,,,,,,,,,,,,v,1,0.8837505331521243,1708.278542495701,None,,,,,001,33,2019_Oct_16_1106,ACPT_experiment_5_30_19,3.1.0,59.948662083793025,
,,,C,G,g,v,,,,,,,,,,6,6,126,19,,,,,,,,,,,,,v,1,0.900709692979035,1712.4481066250992,None,,,,,001,33,2019_Oct_16_1106,ACPT_experiment_5_30_19,3.1.0,59.948662083793025,
,,,C,U,g,n,,,,,,,,,,6,7,127,16,,,,,,,,,,,,,n,1,0.7506080128805479,1716.6346437996872,None,,,,,001,33,2019_Oct_16_1106,ACPT_experiment_5_30_19,3.1.0,59.948662083793025,
,,,C,D,y,b,,,,,,,,,,6,8,128,2,,,,,,,,,,,,,b,1,0.7338987895891478,1720.6710599754106,None,,,,,001,33,2019_Oct_16_1106,ACPT_experiment_5_30_19,3.1.0,59.948662083793025,
,,,C,D,y,b,,,,,,,,,,6,9,129,11,,,,,,,,,,,,,b,1,0.6334113227885609,1724.7078492448027,None,,,,,001,33,2019_Oct_16_1106,ACPT_experiment_5_30_19,3.1.0,59.948662083793025,
,,,C,U,y,n,,,,,,,,,,6,10,130,8,,,,,,,,,,,,,n,1,0.3336030917271273,1728.6271227626075,None,,,,,001,33,2019_Oct_16_1106,ACPT_experiment_5_30_19,3.1.0,59.948662083793025,
,,,C,U,d,n,,,,,,,,,,6,11,131,15,,,,,,,,,,,,,n,1,1.3510195629669397,1732.229883957606,None,,,,,001,33,2019_Oct_16_1106,ACPT_experiment_5_30_19,3.1.0,59.948662083793025,
,,,C,D,d,v,,,,,,,,,,6,12,132,0,,,,,,,,,,,,,v,1,2.084950952973486,1736.866734926307,None,,,,,001,33,2019_Oct_16_1106,ACPT_experiment_5_30_19,3.1.0,59.948662083793025,
,,,C,U,y,n,,,,,,,,,,6,13,133,17,,,,,,,,,,,,,n,1,0.733894261752539,1742.2374997773813,None,,,,,001,33,2019_Oct_16_1106,ACPT_experiment_5_30_19,3.1.0,59.948662083793025,
,,,C,G,d,b,,,,,,,,,,6,14,134,3,,,,,,,,,,,,,b,1,1.1003996267854745,1746.2743358344096,None,,,,,001,33,2019_Oct_16_1106,ACPT_experiment_5_30_19,3.1.0,59.948662083793025,
,,,C,D,g,b,,,,,,,,,,6,15,135,1,,,,,,,,,,,,,b,1,1.3176596763933048,1750.6606049007487,None,,,,,001,33,2019_Oct_16_1106,ACPT_experiment_5_30_19,3.1.0,59.948662083793025,
,,,C,U,d,n,,,,,,,,,,6,16,136,6,,,,,,,,,,,,,n,1,0.6836195881423919,1755.281015901458,None,,,,,001,33,2019_Oct_16_1106,ACPT_experiment_5_30_19,3.1.0,59.948662083793025,
,,,C,D,g,b,,,,,,,,,,6,17,137,10,,,,,,,,,,,,,b,1,1.0674846755400722,1759.250469612034,None,,,,,001,33,2019_Oct_16_1106,ACPT_experiment_5_30_19,3.1.0,59.948662083793025,
,,,C,G,y,b,,,,,,,,,,6,18,138,5,,,,,,,,,,,,,b,1,0.7005352807454983,1763.603792032277,None,,,,,001,33,2019_Oct_16_1106,ACPT_experiment_5_30_19,3.1.0,59.948662083793025,
,,,C,G,d,b,,,,,,,,,,6,19,139,12,,,,,,,,,,,,,v,0,0.8339693936413823,1767.5901608317454,None,,,,,001,33,2019_Oct_16_1106,ACPT_experiment_5_30_19,3.1.0,59.948662083793025,
,,,C,U,g,n,,,,,,,,,,7,0,140,7,,,,,,,,,,,,,n,1,0.7837191703438293,1771.7268942276432,None,,,,,001,33,2019_Oct_16_1106,ACPT_experiment_5_30_19,3.1.0,59.948662083793025,
,,,C,G,g,v,,,,,,,,,,7,1,141,4,,,,,,,,,,,,,v,1,1.2343037290356733,1775.7963904696908,None,,,,,001,33,2019_Oct_16_1106,ACPT_experiment_5_30_19,3.1.0,59.948662083793025,
,,,C,U,y,n,,,,,,,,,,7,2,142,8,,,,,,,,,,,,,n,1,0.6004550173092866,1780.3332136978506,None,,,,,001,33,2019_Oct_16_1106,ACPT_experiment_5_30_19,3.1.0,59.948662083793025,
,,,C,U,d,n,,,,,,,,,,7,3,143,15,,,,,,,,,,,,,n,1,0.5670848676400055,1784.2195242693506,None,,,,,001,33,2019_Oct_16_1106,ACPT_experiment_5_30_19,3.1.0,59.948662083793025,
,,,C,D,d,v,,,,,,,,,,7,4,144,0,,,,,,,,,,,,,v,1,1.264320261672765,1788.0924354655117,None,,,,,001,33,2019_Oct_16_1106,ACPT_experiment_5_30_19,3.1.0,59.948662083793025,
,,,C,G,d,b,,,,,,,,,,7,5,145,12,,,,,,,,,,,,,b,1,0.4670338842097408,1792.6425907551857,None,,,,,001,33,2019_Oct_16_1106,ACPT_experiment_5_30_19,3.1.0,59.948662083793025,
,,,C,G,g,v,,,,,,,,,,7,6,146,19,,,,,,,,,,,,,v,1,0.8837629092367933,1796.3957207725934,None,,,,,001,33,2019_Oct_16_1106,ACPT_experiment_5_30_19,3.1.0,59.948662083793025,
,,,C,D,g,b,,,,,,,,,,7,7,147,1,,,,,,,,,,,,,b,1,0.3836495624145755,1800.5652948632305,None,,,,,001,33,2019_Oct_16_1106,ACPT_experiment_5_30_19,3.1.0,59.948662083793025,
,,,C,G,g,v,,,,,,,,,,7,8,148,13,,,,,,,,,,,,,v,1,1.1673128894508409,1804.2516927314055,None,,,,,001,33,2019_Oct_16_1106,ACPT_experiment_5_30_19,3.1.0,59.948662083793025,
,,,C,G,d,b,,,,,,,,,,7,9,149,3,,,,,,,,,,,,,v,0,0.8173214470598396,1808.6881570833011,None,,,,,001,33,2019_Oct_16_1106,ACPT_experiment_5_30_19,3.1.0,59.948662083793025,
,,,C,D,d,v,,,,,,,,,,7,10,150,9,,,,,,,,,,,,,v,1,1.0339397514098891,1812.808125412599,None,,,,,001,33,2019_Oct_16_1106,ACPT_experiment_5_30_19,3.1.0,59.948662083793025,
,,,C,D,g,b,,,,,,,,,,7,11,151,10,,,,,,,,,,,,,b,1,0.5170706955141213,1817.127920114488,None,,,,,001,33,2019_Oct_16_1106,ACPT_experiment_5_30_19,3.1.0,59.948662083793025,
,,,C,D,d,v,,,,,,,,,,7,12,152,18,,,,,,,,,,,,,b,0,0.6169293968532656,1820.9310863394894,None,,,,,001,33,2019_Oct_16_1106,ACPT_experiment_5_30_19,3.1.0,59.948662083793025,
,,,C,U,g,n,,,,,,,,,,7,13,153,16,,,,,,,,,,,,,n,1,0.9841091075604709,1824.8338027692853,None,,,,,001,33,2019_Oct_16_1106,ACPT_experiment_5_30_19,3.1.0,59.948662083793025,
,,,C,G,y,b,,,,,,,,,,7,14,154,5,,,,,,,,,,,,,b,1,0.6671663384986459,1829.120405718234,None,,,,,001,33,2019_Oct_16_1106,ACPT_experiment_5_30_19,3.1.0,59.948662083793025,
,,,C,D,y,b,,,,,,,,,,7,15,155,11,,,,,,,,,,,,,b,1,0.46703841204634955,1833.073402858755,None,,,,,001,33,2019_Oct_16_1106,ACPT_experiment_5_30_19,3.1.0,59.948662083793025,
,,,C,U,d,n,,,,,,,,,,7,16,156,6,,,,,,,,,,,,,n,1,0.8172960911797418,1836.8262726765333,None,,,,,001,33,2019_Oct_16_1106,ACPT_experiment_5_30_19,3.1.0,59.948662083793025,
,,,C,U,y,n,,,,,,,,,,7,17,157,17,,,,,,,,,,,,,n,1,1.2176041651255218,1840.912719626448,None,,,,,001,33,2019_Oct_16_1106,ACPT_experiment_5_30_19,3.1.0,59.948662083793025,
,,,C,G,y,b,,,,,,,,,,7,18,158,14,,,,,,,,,,,,,b,1,0.7003001351413332,1845.4330757196012,None,,,,,001,33,2019_Oct_16_1106,ACPT_experiment_5_30_19,3.1.0,59.948662083793025,
,,,C,D,y,b,,,,,,,,,,7,19,159,2,,,,,,,,,,,,,b,1,0.9173745434809462,1849.4192027326399,None,,,,,001,33,2019_Oct_16_1106,ACPT_experiment_5_30_19,3.1.0,59.948662083793025,
,,,C,G,g,v,,,,,,,,,,8,0,160,13,,,,,,,,,,,,,v,1,2.184602581289255,1853.6394683596345,None,,,,,001,33,2019_Oct_16_1106,ACPT_experiment_5_30_19,3.1.0,59.948662083793025,
,,,C,U,d,n,,,,,,,,,,8,1,161,15,,,,,,,,,,,,,n,1,0.8506611093016545,1859.1099280043927,None,,,,,001,33,2019_Oct_16_1106,ACPT_experiment_5_30_19,3.1.0,59.948662083793025,
,,,C,D,d,v,,,,,,,,,,8,2,162,9,,,,,,,,,,,,,v,1,2.3182096575110336,1863.2633268545032,None,,,,,001,33,2019_Oct_16_1106,ACPT_experiment_5_30_19,3.1.0,59.948662083793025,
,,,C,U,y,n,,,,,,,,,,8,3,163,17,,,,,,,,,,,,,n,1,1.6012181085652628,1868.8840463517572,None,,,,,001,33,2019_Oct_16_1106,ACPT_experiment_5_30_19,3.1.0,59.948662083793025,
,,,C,U,y,n,,,,,,,,,,8,4,164,8,,,,,,,,,,,,,n,1,0.8172979023147491,1873.7710976771905,None,,,,,001,33,2019_Oct_16_1106,ACPT_experiment_5_30_19,3.1.0,59.948662083793025,
,,,C,D,y,b,,,,,,,,,,8,5,165,11,,,,,,,,,,,,,b,1,1.06416818676189,1877.894228850706,None,,,,,001,33,2019_Oct_16_1106,ACPT_experiment_5_30_19,3.1.0,59.948662083793025,
,,,C,G,g,v,,,,,,,,,,8,6,166,4,,,,,,,,,,,,,v,1,1.3843966553185965,1882.2442251227876,None,,,,,001,33,2019_Oct_16_1106,ACPT_experiment_5_30_19,3.1.0,59.948662083793025,
,,,C,D,g,b,,,,,,,,,,8,7,167,1,,,,,,,,,,,,,b,1,0.633560137657696,1886.9313936286107,None,,,,,001,33,2019_Oct_16_1106,ACPT_experiment_5_30_19,3.1.0,59.948662083793025,
,,,C,D,g,b,,,,,,,,,,8,8,168,10,,,,,,,,,,,,,b,1,0.5504456748749362,1890.834087721083,None,,,,,001,33,2019_Oct_16_1106,ACPT_experiment_5_30_19,3.1.0,59.948662083793025,
,,,C,D,y,b,,,,,,,,,,8,9,169,2,,,,,,,,,,,,,b,1,0.5971536213173749,1894.6903554984983,None,,,,,001,33,2019_Oct_16_1106,ACPT_experiment_5_30_19,3.1.0,59.948662083793025,
,,,C,G,d,b,,,,,,,,,,8,10,170,3,,,,,,,,,,,,,b,1,1.4677924476309272,1898.5733411292604,None,,,,,001,33,2019_Oct_16_1106,ACPT_experiment_5_30_19,3.1.0,59.948662083793025,
,,,C,U,g,n,,,,,,,,,,8,11,171,7,,,,,,,,,,,,,n,1,0.8840336738167025,1903.3269643789126,None,,,,,001,33,2019_Oct_16_1106,ACPT_experiment_5_30_19,3.1.0,59.948662083793025,
,,,C,G,d,b,,,,,,,,,,8,12,172,12,,,,,,,,,,,,,b,1,1.4673318158038455,1907.5139214348046,None,,,,,001,33,2019_Oct_16_1106,ACPT_experiment_5_30_19,3.1.0,59.948662083793025,
,,,C,G,g,v,,,,,,,,,,8,13,173,19,,,,,,,,,,,,,v,1,1.250965560979239,1912.2504297670794,None,,,,,001,33,2019_Oct_16_1106,ACPT_experiment_5_30_19,3.1.0,59.948662083793025,
,,,C,U,d,n,,,,,,,,,,8,14,174,6,,,,,,,,,,,,,n,1,0.7005313566214681,1916.7872276393582,None,,,,,001,33,2019_Oct_16_1106,ACPT_experiment_5_30_19,3.1.0,59.948662083793025,
,,,C,G,y,b,,,,,,,,,,8,15,175,5,,,,,,,,,,,,,b,1,0.8173350305678468,1920.7735946276925,None,,,,,001,33,2019_Oct_16_1106,ACPT_experiment_5_30_19,3.1.0,59.948662083793025,
,,,C,D,d,v,,,,,,,,,,8,16,176,0,,,,,,,,,,,,,v,1,2.001284094226321,1924.8936661916468,None,,,,,001,33,2019_Oct_16_1106,ACPT_experiment_5_30_19,3.1.0,59.948662083793025,
,,,C,U,g,n,,,,,,,,,,8,17,177,16,,,,,,,,,,,,,n,1,1.8180836327492216,1930.1807653913966,None,,,,,001,33,2019_Oct_16_1106,ACPT_experiment_5_30_19,3.1.0,59.948662083793025,
,,,C,G,y,b,,,,,,,,,,8,18,178,14,,,,,,,,,,,,,b,1,0.6338779917296051,1935.2846577907003,None,,,,,001,33,2019_Oct_16_1106,ACPT_experiment_5_30_19,3.1.0,59.948662083793025,
,,,C,D,d,v,,,,,,,,,,8,19,179,18,,,,,,,,,,,,,v,1,1.0003694713986988,1939.2213716263477,None,,,,,001,33,2019_Oct_16_1106,ACPT_experiment_5_30_19,3.1.0,59.948662083793025,
,,,C,G,g,v,,,,,,,,,,9,0,180,13,,,,,,,,,,,,,v,1,0.9840894869385011,1943.507594840803,None,,,,,001,33,2019_Oct_16_1106,ACPT_experiment_5_30_19,3.1.0,59.948662083793025,
,,,C,G,y,b,,,,,,,,,,9,1,181,5,,,,,,,,,,,,,b,1,0.583529061612353,1947.7944438021623,None,,,,,001,33,2019_Oct_16_1106,ACPT_experiment_5_30_19,3.1.0,59.948662083793025,
,,,C,U,y,n,,,,,,,,,,9,2,182,8,,,,,,,,,,,,,n,1,0.6838547337474665,1951.663817249304,None,,,,,001,33,2019_Oct_16_1106,ACPT_experiment_5_30_19,3.1.0,59.948662083793025,
,,,C,D,y,b,,,,,,,,,,9,3,183,2,,,,,,,,,,,,,b,1,0.400058741122848,1955.6504284389139,None,,,,,001,33,2019_Oct_16_1106,ACPT_experiment_5_30_19,3.1.0,59.948662083793025,
,,,C,D,y,b,,,,,,,,,,9,4,184,11,,,,,,,,,,,,,b,1,0.6171693721489646,1959.319622040418,None,,,,,001,33,2019_Oct_16_1106,ACPT_experiment_5_30_19,3.1.0,59.948662083793025,
,,,C,U,g,n,,,,,,,,,,9,5,185,16,,,,,,,,,,,,,n,1,0.9504660803222578,1963.2395680927639,None,,,,,001,33,2019_Oct_16_1106,ACPT_experiment_5_30_19,3.1.0,59.948662083793025,
,,,C,D,d,v,,,,,,,,,,9,6,186,18,,,,,,,,,,,,,v,1,1.701306823961204,1967.4758649751075,None,,,,,001,33,2019_Oct_16_1106,ACPT_experiment_5_30_19,3.1.0,59.948662083793025,
,,,C,G,g,v,,,,,,,,,,9,7,187,19,,,,,,,,,,,,,v,1,1.1842427692727142,1972.4629977713994,None,,,,,001,33,2019_Oct_16_1106,ACPT_experiment_5_30_19,3.1.0,59.948662083793025,
,,,C,G,g,v,,,,,,,,,,9,8,188,4,,,,,,,,,,,,,v,1,1.597907355046118,1976.953073208162,None,,,,,001,33,2019_Oct_16_1106,ACPT_experiment_5_30_19,3.1.0,59.948662083793025,
,,,C,D,d,v,,,,,,,,,,9,9,189,0,,,,,,,,,,,,,b,0,1.0007670153800063,1981.8368107615188,None,,,,,001,33,2019_Oct_16_1106,ACPT_experiment_5_30_19,3.1.0,59.948662083793025,
,,,C,U,d,n,,,,,,,,,,9,10,190,15,,,,,,,,,,,,,n,1,0.6004737323646623,1986.1234076733535,None,,,,,001,33,2019_Oct_16_1106,ACPT_experiment_5_30_19,3.1.0,59.948662083793025,
,,,C,D,g,b,,,,,,,,,,9,11,191,10,,,,,,,,,,,,,b,1,1.11753507035246,1990.0097040576356,None,,,,,001,33,2019_Oct_16_1106,ACPT_experiment_5_30_19,3.1.0,59.948662083793025,
,,,C,G,y,b,,,,,,,,,,9,12,192,14,,,,,,,,,,,,,b,1,0.6669296836162175,1994.4299862263233,None,,,,,001,33,2019_Oct_16_1106,ACPT_experiment_5_30_19,3.1.0,59.948662083793025,
,,,C,G,d,b,,,,,,,,,,9,13,193,12,,,,,,,,,,,,,b,1,1.0674885996641024,1998.3660785410466,None,,,,,001,33,2019_Oct_16_1106,ACPT_experiment_5_30_19,3.1.0,59.948662083793025,
,,,C,U,y,n,,,,,,,,,,9,14,194,17,,,,,,,,,,,,,b,0,0.46704203431454516,2002.719382246235,None,,,,,001,33,2019_Oct_16_1106,ACPT_experiment_5_30_19,3.1.0,59.948662083793025,
,,,C,G,d,b,,,,,,,,,,9,15,195,3,,,,,,,,,,,,,v,0,1.2676053574559774,2006.4722913052574,None,,,,,001,33,2019_Oct_16_1106,ACPT_experiment_5_30_19,3.1.0,59.948662083793025,
,,,C,D,d,v,,,,,,,,,,9,16,196,9,,,,,,,,,,,,,v,1,0.9337861370349856,2011.042672135488,None,,,,,001,33,2019_Oct_16_1106,ACPT_experiment_5_30_19,3.1.0,59.948662083793025,
,,,C,D,g,b,,,,,,,,,,9,17,197,1,,,,,,,,,,,,,b,1,0.80063908892771,2015.2456061126995,None,,,,,001,33,2019_Oct_16_1106,ACPT_experiment_5_30_19,3.1.0,59.948662083793025,
,,,C,U,g,n,,,,,,,,,,9,18,198,7,,,,,,,,,,,,,n,1,0.7338987895882383,2019.3320572885932,None,,,,,001,33,2019_Oct_16_1106,ACPT_experiment_5_30_19,3.1.0,59.948662083793025,
,,,C,U,d,n,,,,,,,,,,9,19,199,6,,,,,,,,,,,,,n,1,0.6171394884331676,2023.3517871820595,None,,,,,001,33,2019_Oct_16_1106,ACPT_experiment_5_30_19,3.1.0,59.948662083793025,
,,,C,U,y,n,,,,,,,,,,10,0,200,17,,,,,,,,,,,,,n,1,0.7336491549094717,2027.2717069729579,None,,,,,001,33,2019_Oct_16_1106,ACPT_experiment_5_30_19,3.1.0,59.948662083793025,
,,,C,G,d,b,,,,,,,,,,10,1,201,3,,,,,,,,,,,,,b,1,1.9681548254202426,2031.2911932688594,None,,,,,001,33,2019_Oct_16_1106,ACPT_experiment_5_30_19,3.1.0,59.948662083793025,
,,,C,G,y,b,,,,,,,,,,10,2,202,14,,,,,,,,,,,,,b,1,0.6338191298646052,2036.528502273426,None,,,,,001,33,2019_Oct_16_1106,ACPT_experiment_5_30_19,3.1.0,59.948662083793025,
,,,C,D,d,v,,,,,,,,,,10,3,203,0,,,,,,,,,,,,,v,1,0.7668022703173847,2040.4652607837206,None,,,,,001,33,2019_Oct_16_1106,ACPT_experiment_5_30_19,3.1.0,59.948662083793025,
,,,C,G,d,b,,,,,,,,,,10,4,204,12,,,,,,,,,,,,,b,1,2.0182006923960216,2044.5179264564767,None,,,,,001,33,2019_Oct_16_1106,ACPT_experiment_5_30_19,3.1.0,59.948662083793025,
,,,C,D,d,v,,,,,,,,,,10,5,205,18,,,,,,,,,,,,,v,1,0.733885507936975,2049.821977873372,None,,,,,001,33,2019_Oct_16_1106,ACPT_experiment_5_30_19,3.1.0,59.948662083793025,
,,,C,D,g,b,,,,,,,,,,10,6,206,10,,,,,,,,,,,,,b,1,0.9171140419957737,2053.8419607219303,None,,,,,001,33,2019_Oct_16_1106,ACPT_experiment_5_30_19,3.1.0,59.948662083793025,
,,,C,D,g,b,,,,,,,,,,10,7,207,1,,,,,,,,,,,,,b,1,0.767263807710151,2058.0282171707004,None,,,,,001,33,2019_Oct_16_1106,ACPT_experiment_5_30_19,3.1.0,59.948662083793025,
,,,C,G,g,v,,,,,,,,,,10,8,208,4,0,0,0,0,0,0,0,0,,,,,v,1,0.5333319649207624,2062.098377797184,None,,,,,001,33,2019_Oct_16_1106,ACPT_experiment_5_30_19,3.1.0,59.948662083793025,
,,,C,G,g,v,L,G,y,L,y,,,,,10,8,208,4,0,0,0,0,,,,,0,0,0,34,,,,,,down,1.0672398705528394,2129.7664759642857,None,001,33,2019_Oct_16_1106,ACPT_experiment_5_30_19,3.1.0,59.948662083793025,
,,,C,G,g,v,R,G,d,L,i,,,,,10,8,208,4,0,0,0,0,,,,,0,1,1,4,,,,,,up,1.000755544862841,2132.1180376601233,None,001,33,2019_Oct_16_1106,ACPT_experiment_5_30_19,3.1.0,59.948662083793025,
,,,C,G,g,v,L,G,g,L,c ,,,,,10,8,208,4,0,0,0,0,,,,,0,2,2,18,,,,,,up,1.2009127513219937,2134.403108691302,None,001,33,2019_Oct_16_1106,ACPT_experiment_5_30_19,3.1.0,59.948662083793025,
,,,C,G,g,v,L,U,d,R,u,,,,,10,8,208,4,0,0,0,0,,,,,0,3,3,21,,,,,,up,0.9507151112893553,2136.888336928938,None,001,33,2019_Oct_16_1106,ACPT_experiment_5_30_19,3.1.0,59.948662083793025,
,,,C,G,g,v,R,D,y,L,y,,,,,10,8,208,4,0,0,0,0,,,,,0,4,4,26,,,,,,down,0.7172067720721316,2139.1233762803586,None,001,33,2019_Oct_16_1106,ACPT_experiment_5_30_19,3.1.0,59.948662083793025,
,,,C,G,g,v,R,U,y,L,u,,,,,10,8,208,4,0,0,0,0,,,,,0,5,5,30,,,,,,down,1.0674726013103282,2141.1249060851396,None,001,33,2019_Oct_16_1106,ACPT_experiment_5_30_19,3.1.0,59.948662083793025,
,,,C,G,g,v,R,U,d,L,u,,,,,10,8,208,4,0,0,0,0,,,,,0,6,6,8,,,,,,up,0.667172979325187,2143.460013022056,None,001,33,2019_Oct_16_1106,ACPT_experiment_5_30_19,3.1.0,59.948662083793025,
,,,C,G,g,v,R,D,g,L,i,,,,,10,8,208,4,0,0,0,0,,,,,0,7,7,2,,,,,,up,0.5136367848617738,2145.4314915807918,None,001,33,2019_Oct_16_1106,ACPT_experiment_5_30_19,3.1.0,59.948662083793025,
,,,C,G,g,v,L,U,y,R,u,,,,,10,8,208,4,0,0,0,0,,,,,0,8,8,25,,,,,,down,0.600454413598527,2147.2295534255945,None,001,33,2019_Oct_16_1106,ACPT_experiment_5_30_19,3.1.0,59.948662083793025,
,,,C,G,g,v,L,D,y,R,y,,,,,10,8,208,4,0,0,0,0,,,,,0,9,9,33,,,,,,down,0.5003696223275256,2149.1143257403537,None,001,33,2019_Oct_16_1106,ACPT_experiment_5_30_19,3.1.0,59.948662083793025,
,,,C,G,g,v,L,D,g,R,i,,,,,10,8,208,4,0,0,0,0,,,,,0,10,10,15,,,,,,up,0.7338746411314787,2150.8990220176584,None,001,33,2019_Oct_16_1106,ACPT_experiment_5_30_19,3.1.0,59.948662083793025,
,,,C,G,g,v,L,D,g,L,i,,,,,10,8,208,4,0,0,0,0,,,,,0,11,11,14,,,,,,up,0.5671105253768474,2152.9172224081995,None,001,33,2019_Oct_16_1106,ACPT_experiment_5_30_19,3.1.0,59.948662083793025,
,,,C,G,g,v,L,U,y,L,u,,,,,10,8,208,4,0,0,0,0,,,,,0,12,12,24,,,,,,down,0.5837756777336836,2154.7686324215383,None,001,33,2019_Oct_16_1106,ACPT_experiment_5_30_19,3.1.0,59.948662083793025,
,,,C,G,g,v,R,U,g,R,u,,,,,10,8,208,4,0,0,0,0,,,,,0,13,13,11,,,,,,up,0.6671750923151194,2156.6367223781644,None,001,33,2019_Oct_16_1106,ACPT_experiment_5_30_19,3.1.0,59.948662083793025,
,,,C,G,g,v,R,D,g,R,i,,,,,10,8,208,4,0,0,0,0,,,,,0,14,14,3,,,,,,up,0.8306972776535986,2158.608216633397,None,001,33,2019_Oct_16_1106,ACPT_experiment_5_30_19,3.1.0,59.948662083793025,
,,,C,G,g,v,R,U,d,R,u,,,,,10,8,208,4,0,0,0,0,,,,,0,15,15,9,,,,,,up,0.617150958950333,2160.723187741277,None,001,33,2019_Oct_16_1106,ACPT_experiment_5_30_19,3.1.0,59.948662083793025,
,,,C,G,g,v,R,D,d,L,c,,,,,10,8,208,4,0,0,0,0,,,,,0,16,16,0,,,,,,up,0.5670972437246746,2162.607942548405,None,001,33,2019_Oct_16_1106,ACPT_experiment_5_30_19,3.1.0,59.948662083793025,
,,,C,G,g,v,L,D,d,R,c ,,,,,10,8,208,4,0,0,0,0,,,,,0,17,17,13,,,,,,up,0.5504194134282443,2164.459362221127,None,001,33,2019_Oct_16_1106,ACPT_experiment_5_30_19,3.1.0,59.948662083793025,
,,,C,G,g,v,L,D,y,L,y,,,,,10,8,208,4,0,0,0,0,,,,,0,18,18,32,,,,,,up,0.5003527184071572,2166.310793364366,None,001,33,2019_Oct_16_1106,ACPT_experiment_5_30_19,3.1.0,59.948662083793025,
,,,C,G,g,v,R,D,y,R,y,,,,,10,8,208,4,0,0,0,0,,,,,0,19,19,27,,,,,,down,0.7171907737201764,2168.112157208873,None,001,33,2019_Oct_16_1106,ACPT_experiment_5_30_19,3.1.0,59.948662083793025,
,,,C,G,g,v,L,G,y,R,y,,,,,10,8,208,4,0,0,0,0,,,,,0,20,20,35,,,,,,down,0.7505778273089163,2170.130326508275,None,001,33,2019_Oct_16_1106,ACPT_experiment_5_30_19,3.1.0,59.948662083793025,
,,,C,G,g,v,L,G,d,R,i,,,,,10,8,208,4,0,0,0,0,,,,,0,21,21,17,,,,,,up,0.5337295089020699,2172.1819112357043,None,001,33,2019_Oct_16_1106,ACPT_experiment_5_30_19,3.1.0,59.948662083793025,
,,,C,G,g,v,L,U,d,L,u,,,,,10,8,208,4,0,0,0,0,,,,,0,22,22,20,,,,,,up,0.7672405648199856,2173.9832817210363,None,001,33,2019_Oct_16_1106,ACPT_experiment_5_30_19,3.1.0,59.948662083793025,
,,,C,G,g,v,L,U,g,L,u,,,,,10,8,208,4,0,0,0,0,,,,,0,23,23,22,,,,,,up,0.483719864611885,2176.0181445472335,None,001,33,2019_Oct_16_1106,ACPT_experiment_5_30_19,3.1.0,59.948662083793025,
,,,C,G,g,v,L,U,g,R,u,,,,,10,8,208,4,0,0,0,0,,,,,0,24,24,23,,,,,,up,0.5637689825734924,2177.806185385897,None,001,33,2019_Oct_16_1106,ACPT_experiment_5_30_19,3.1.0,59.948662083793025,
,,,C,G,g,v,R,U,y,R,u,,,,,10,8,208,4,0,0,0,0,,,,,0,25,25,31,,,,,,down,0.5337385645734685,2179.6709525147753,None,001,33,2019_Oct_16_1106,ACPT_experiment_5_30_19,3.1.0,59.948662083793025,
,,,C,G,g,v,R,U,g,L,u,,,,,10,8,208,4,0,0,0,0,,,,,0,26,26,10,,,,,,up,0.533727094056303,2181.5056889237967,None,001,33,2019_Oct_16_1106,ACPT_experiment_5_30_19,3.1.0,59.948662083793025,
,,,C,G,g,v,L,G,g,R,c ,,,,,10,8,208,4,0,0,0,0,,,,,0,27,27,19,,,,,,up,0.5837264752526607,2183.323781914073,None,001,33,2019_Oct_16_1106,ACPT_experiment_5_30_19,3.1.0,59.948662083793025,
,,,C,G,g,v,R,G,d,R,i,,,,,10,8,208,4,0,0,0,0,,,,,0,28,28,5,,,,,,down,0.4836978291441483,2185.191826894197,None,001,33,2019_Oct_16_1106,ACPT_experiment_5_30_19,3.1.0,59.948662083793025,
,,,C,G,g,v,L,D,d,L,c ,,,,,10,8,208,4,0,0,0,0,,,,,0,29,29,12,,,,,,up,0.6671660366437209,2186.959846850483,None,001,33,2019_Oct_16_1106,ACPT_experiment_5_30_19,3.1.0,59.948662083793025,
,,,C,G,g,v,L,G,d,L,i,,,,,10,8,208,4,0,0,0,0,,,,,0,30,30,16,,,,,,up,0.5670999604271856,2188.9113223363274,None,001,33,2019_Oct_16_1106,ACPT_experiment_5_30_19,3.1.0,59.948662083793025,
,,,C,G,g,v,R,D,d,R,c ,,,,,10,8,208,4,0,0,0,0,,,,,0,31,31,1,,,,,,up,0.5836027144077889,2190.7795870674145,None,001,33,2019_Oct_16_1106,ACPT_experiment_5_30_19,3.1.0,59.948662083793025,
,,,C,G,g,v,R,G,y,L,y,,,,,10,8,208,4,0,0,0,0,,,,,0,32,32,28,,,,,,down,0.5837660183515254,2192.6475100978287,None,001,33,2019_Oct_16_1106,ACPT_experiment_5_30_19,3.1.0,59.948662083793025,
,,,C,G,g,v,R,G,g,R,c ,,,,,10,8,208,4,0,0,0,0,,,,,0,33,33,7,,,,,,up,0.5838182393899842,2194.498897471989,None,001,33,2019_Oct_16_1106,ACPT_experiment_5_30_19,3.1.0,59.948662083793025,
,,,C,G,g,v,R,G,g,L,c ,,,,,10,8,208,4,0,0,0,0,,,,,0,34,34,6,,,,,,up,0.5005247761664577,2196.3501813096373,None,001,33,2019_Oct_16_1106,ACPT_experiment_5_30_19,3.1.0,59.948662083793025,
,,,C,G,g,v,R,G,y,R,y,,,,,10,8,208,4,0,0,0,0,,,,,0,35,35,29,,,,,,down,0.4170034118751573,2198.118324724912,None,001,33,2019_Oct_16_1106,ACPT_experiment_5_30_19,3.1.0,59.948662083793025,
,,,C,G,g,v,L,G,g,R,c ,,,,,10,8,208,4,0,0,0,0,,,,,1,0,36,19,,,,,,up,0.5504278653879737,2199.8196502639275,None,001,33,2019_Oct_16_1106,ACPT_experiment_5_30_19,3.1.0,59.948662083793025,
,,,C,G,g,v,R,U,g,L,u,,,,,10,8,208,4,0,0,0,0,,,,,1,1,37,10,,,,,,up,0.45033764071376936,2201.6543736931535,None,001,33,2019_Oct_16_1106,ACPT_experiment_5_30_19,3.1.0,59.948662083793025,
,,,C,G,g,v,L,U,y,R,u,,,,,10,8,208,4,0,0,0,0,,,,,1,2,38,25,,,,,,down,0.5804395683335315,2203.4090311004966,None,001,33,2019_Oct_16_1106,ACPT_experiment_5_30_19,3.1.0,59.948662083793025,
,,,C,G,g,v,L,G,d,L,i,,,,,10,8,208,4,0,0,0,0,,,,,1,3,39,16,,,,,,up,0.46701758400104154,2205.2737991349422,None,001,33,2019_Oct_16_1106,ACPT_experiment_5_30_19,3.1.0,59.948662083793025,
,,,C,G,g,v,R,D,y,L,y,,,,,10,8,208,4,0,0,0,0,,,,,1,4,40,26,,,,,,down,0.717206168361372,2207.041815167103,None,001,33,2019_Oct_16_1106,ACPT_experiment_5_30_19,3.1.0,59.948662083793025,
,,,C,G,g,v,R,U,y,L,u,,,,,10,8,208,4,0,0,0,0,,,,,1,5,41,30,,,,,,down,0.4670091320413121,2209.043342858894,None,001,33,2019_Oct_16_1106,ACPT_experiment_5_30_19,3.1.0,59.948662083793025,
,,,C,G,g,v,R,G,d,L,i,,,,,10,8,208,4,0,0,0,0,,,,,1,6,42,4,,,,,,up,0.7338839986587118,2210.8113546650748,None,001,33,2019_Oct_16_1106,ACPT_experiment_5_30_19,3.1.0,59.948662083793025,
,,,C,G,g,v,R,U,d,L,u,,,,,10,8,208,4,0,0,0,0,,,,,1,7,43,8,,,,,,up,0.5671775373466517,2212.829560790874,None,001,33,2019_Oct_16_1106,ACPT_experiment_5_30_19,3.1.0,59.948662083793025,
,,,C,G,g,v,L,D,d,R,c ,,,,,10,8,208,4,0,0,0,0,,,,,1,8,44,13,,,,,,up,0.5670972437255841,2214.66428844608,None,001,33,2019_Oct_16_1106,ACPT_experiment_5_30_19,3.1.0,59.948662083793025,
,,,C,G,g,v,L,U,d,L,u,,,,,10,8,208,4,0,0,0,0,,,,,1,9,45,20,,,,,,up,0.5137400195180817,2216.5356921747834,None,001,33,2019_Oct_16_1106,ACPT_experiment_5_30_19,3.1.0,59.948662083793025,
,,,C,G,g,v,L,D,d,L,c ,,,,,10,8,208,4,0,0,0,0,,,,,1,10,46,12,,,,,,up,0.4836957161542159,2218.3337576418553,None,001,33,2019_Oct_16_1106,ACPT_experiment_5_30_19,3.1.0,59.948662083793025,
,,,C,G,g,v,L,D,g,L,i,,,,,10,8,208,4,0,0,0,0,,,,,1,11,47,14,,,,,,up,0.46701939513513935,2220.0850904103154,None,001,33,2019_Oct_16_1106,ACPT_experiment_5_30_19,3.1.0,59.948662083793025,
,,,C,G,g,v,R,G,d,R,i,,,,,10,8,208,4,0,0,0,0,,,,,1,12,48,5,,,,,,down,0.3502576791343017,2221.836425593622,None,001,33,2019_Oct_16_1106,ACPT_experiment_5_30_19,3.1.0,59.948662083793025,
,,,C,G,g,v,L,D,y,L,y,,,,,10,8,208,4,0,0,0,0,,,,,1,13,49,32,,,,,,down,0.6671065710661424,2223.5044108666852,None,001,33,2019_Oct_16_1106,ACPT_experiment_5_30_19,3.1.0,59.948662083793025,
,,,C,G,g,v,R,U,d,R,u,,,,,10,8,208,4,0,0,0,0,,,,,1,14,50,9,,,,,,up,0.5504097540442672,2225.472533091688,None,001,33,2019_Oct_16_1106,ACPT_experiment_5_30_19,3.1.0,59.948662083793025,
,,,C,G,g,v,R,G,g,L,c ,,,,,10,8,208,4,0,0,0,0,,,,,1,15,51,6,,,,,,up,0.6004486783394896,2227.307264972874,None,001,33,2019_Oct_16_1106,ACPT_experiment_5_30_19,3.1.0,59.948662083793025,
,,,C,G,g,v,R,U,g,R,u,,,,,10,8,208,4,0,0,0,0,,,,,1,16,52,11,,,,,,up,0.5671271274413812,2229.192030948663,None,001,33,2019_Oct_16_1106,ACPT_experiment_5_30_19,3.1.0,59.948662083793025,
,,,C,G,g,v,R,D,d,L,c,,,,,10,8,208,4,0,0,0,0,,,,,1,17,53,0,,,,,,up,0.5670918103223812,2231.043442471281,None,001,33,2019_Oct_16_1106,ACPT_experiment_5_30_19,3.1.0,59.948662083793025,
,,,C,G,g,v,R,D,g,L,i,,,,,10,8,208,4,0,0,0,0,,,,,1,18,54,2,,,,,,up,0.4169931487804206,2232.8781595615364,None,001,33,2019_Oct_16_1106,ACPT_experiment_5_30_19,3.1.0,59.948662083793025,
,,,C,G,g,v,L,U,g,R,u,,,,,10,8,208,4,0,0,0,0,,,,,1,19,55,23,,,,,,up,0.5003717353174579,2234.579473026324,None,001,33,2019_Oct_16_1106,ACPT_experiment_5_30_19,3.1.0,59.948662083793025,
,,,C,G,g,v,L,G,d,R,i,,,,,10,8,208,4,0,0,0,0,,,,,1,20,56,17,,,,,,up,0.5167890641296253,2236.3811076354104,None,001,33,2019_Oct_16_1106,ACPT_experiment_5_30_19,3.1.0,59.948662083793025,
,,,C,G,g,v,R,D,g,R,i,,,,,10,8,208,4,0,0,0,0,,,,,1,21,57,3,,,,,,up,0.5837811111368865,2238.182210374721,None,001,33,2019_Oct_16_1106,ACPT_experiment_5_30_19,3.1.0,59.948662083793025,
,,,C,G,g,v,R,D,y,R,y,,,,,10,8,208,4,0,0,0,0,,,,,1,22,58,27,,,,,,down,0.6338115834714699,2240.050306368462,None,001,33,2019_Oct_16_1106,ACPT_experiment_5_30_19,3.1.0,59.948662083793025,
,,,C,G,g,v,L,U,y,L,u,,,,,10,8,208,4,0,0,0,0,,,,,1,23,59,24,,,,,,down,0.5170577157186926,2241.9684346456716,None,001,33,2019_Oct_16_1106,ACPT_experiment_5_30_19,3.1.0,59.948662083793025,
,,,C,G,g,v,R,D,d,R,c ,,,,,10,8,208,4,0,0,0,0,,,,,1,24,60,1,,,,,,up,0.5670912066107121,2243.769813582964,None,001,33,2019_Oct_16_1106,ACPT_experiment_5_30_19,3.1.0,59.948662083793025,
,,,C,G,g,v,R,U,y,R,u,,,,,10,8,208,4,0,0,0,0,,,,,1,25,61,31,,,,,,up,0.5337409794192354,2245.6212184647557,None,001,33,2019_Oct_16_1106,ACPT_experiment_5_30_19,3.1.0,59.948662083793025,
,,,C,G,g,v,L,G,g,L,c ,,,,,10,8,208,4,0,0,0,0,,,,,1,26,62,18,,,,,,up,0.7505696772050214,2247.4392719119332,None,001,33,2019_Oct_16_1106,ACPT_experiment_5_30_19,3.1.0,59.948662083793025,
,,,C,G,g,v,R,G,y,R,y,,,,,10,8,208,4,0,0,0,0,,,,,1,27,63,29,,,,,,down,0.5334653851487019,2249.4911080851753,None,001,33,2019_Oct_16_1106,ACPT_experiment_5_30_19,3.1.0,59.948662083793025,
,,,C,G,g,v,L,U,d,R,u,,,,,10,8,208,4,0,0,0,0,,,,,1,28,64,21,,,,,,up,0.7505633382343149,2251.3088853343706,None,001,33,2019_Oct_16_1106,ACPT_experiment_5_30_19,3.1.0,59.948662083793025,
,,,C,G,g,v,R,G,y,L,y,,,,,10,8,208,4,0,0,0,0,,,,,1,29,65,28,,,,,,down,0.6671642255087136,2253.36045376159,None,001,33,2019_Oct_16_1106,ACPT_experiment_5_30_19,3.1.0,59.948662083793025,
,,,C,G,g,v,L,U,g,L,u,,,,,10,8,208,4,0,0,0,0,,,,,1,30,66,22,,,,,,up,0.6671630180862849,2255.328622774229,None,001,33,2019_Oct_16_1106,ACPT_experiment_5_30_19,3.1.0,59.948662083793025,
,,,C,G,g,v,L,D,y,R,y,,,,,10,8,208,4,0,0,0,0,,,,,1,31,67,33,,,,,,down,0.6338082630581994,2257.280107919457,None,001,33,2019_Oct_16_1106,ACPT_experiment_5_30_19,3.1.0,59.948662083793025,
,,,C,G,g,v,L,G,y,L,y,,,,,10,8,208,4,0,0,0,0,,,,,1,32,68,34,,,,,,down,0.5505809062369735,2259.198237705945,None,001,33,2019_Oct_16_1106,ACPT_experiment_5_30_19,3.1.0,59.948662083793025,
,,,C,G,g,v,L,G,y,R,y,,,,,10,8,208,4,0,0,0,0,,,,,1,33,69,35,,,,,,down,1.1008032078807446,2261.0496769992887,None,001,33,2019_Oct_16_1106,ACPT_experiment_5_30_19,3.1.0,59.948662083793025,
,,,C,G,g,v,L,D,g,R,i,,,,,10,8,208,4,0,0,0,0,,,,,1,34,70,15,,,,,,up,0.8005971309821689,2263.4514801646083,None,001,33,2019_Oct_16_1106,ACPT_experiment_5_30_19,3.1.0,59.948662083793025,
,,,C,G,g,v,R,G,g,R,c ,,,,,10,8,208,4,0,0,0,0,,,,,1,35,71,7,,,,,,up,0.5337518462247317,2265.536404856134,None,001,33,2019_Oct_16_1106,ACPT_experiment_5_30_19,3.1.0,59.948662083793025,
,,,C,G,g,v,,,,,,,,,,10,8,208,4,1,0,1,0,0,0,0,0,,,,,,,,,,,,,,001,33,2019_Oct_16_1106,ACPT_experiment_5_30_19,3.1.0,59.948662083793025,
,,,C,G,g,v,L,U,d,R,u,,,,,10,8,208,4,1,0,1,0,,,,,0,0,0,21,,,,,,up,0.766984893026347,2288.8377591921862,None,001,33,2019_Oct_16_1106,ACPT_experiment_5_30_19,3.1.0,59.948662083793025,
,,,C,G,g,v,R,G,y,L,y,,,,,10,8,208,4,1,0,1,0,,,,,0,1,1,28,,,,,,down,0.5670924140331408,2290.889061986374,None,001,33,2019_Oct_16_1106,ACPT_experiment_5_30_19,3.1.0,59.948662083793025,
,,,C,G,g,v,L,G,g,R,c ,,,,,10,8,208,4,1,0,1,0,,,,,0,2,2,19,,,,,,up,0.6671627162304503,2292.7404747164146,None,001,33,2019_Oct_16_1106,ACPT_experiment_5_30_19,3.1.0,59.948662083793025,
,,,C,G,g,v,R,U,y,R,u,,,,,10,8,208,4,1,0,1,0,,,,,0,3,3,31,,,,,,down,0.583769640619721,2294.691956843084,None,001,33,2019_Oct_16_1106,ACPT_experiment_5_30_19,3.1.0,59.948662083793025,
,,,C,G,g,v,R,G,d,L,i,,,,,10,8,208,4,1,0,1,0,,,,,0,4,4,4,,,,,,up,0.7839537122363254,2296.5600498182675,None,001,33,2019_Oct_16_1106,ACPT_experiment_5_30_19,3.1.0,59.948662083793025,
,,,C,G,g,v,L,U,g,R,u,,,,,10,8,208,4,1,0,1,0,,,,,0,5,5,23,,,,,,up,0.5337343385936038,2298.6282918498055,None,001,33,2019_Oct_16_1106,ACPT_experiment_5_30_19,3.1.0,59.948662083793025,
,,,C,G,g,v,R,D,g,L,i,,,,,10,8,208,4,1,0,1,0,,,,,0,6,6,2,,,,,,up,0.46701939513513935,2300.4463425802805,None,001,33,2019_Oct_16_1106,ACPT_experiment_5_30_19,3.1.0,59.948662083793025,
,,,C,G,g,v,L,D,d,R,c ,,,,,10,8,208,4,1,0,1,0,,,,,0,7,7,13,,,,,,up,0.7138999426779264,2302.217671780807,None,001,33,2019_Oct_16_1106,ACPT_experiment_5_30_19,3.1.0,59.948662083793025,
,,,C,G,g,v,R,G,y,R,y,,,,,10,8,208,4,1,0,1,0,,,,,0,8,8,29,,,,,,down,0.5837373420572476,2304.2159083397,None,001,33,2019_Oct_16_1106,ACPT_experiment_5_30_19,3.1.0,59.948662083793025,
,,,C,G,g,v,L,G,g,L,c ,,,,,10,8,208,4,1,0,1,0,,,,,0,9,9,18,,,,,,up,0.6171343568857992,2306.0839738460136,None,001,33,2019_Oct_16_1106,ACPT_experiment_5_30_19,3.1.0,59.948662083793025,
,,,C,G,g,v,R,D,d,L,c,,,,,10,8,208,4,1,0,1,0,,,,,0,10,10,0,,,,,,up,0.4169901302229846,2307.9854288207616,None,001,33,2019_Oct_16_1106,ACPT_experiment_5_30_19,3.1.0,59.948662083793025,
,,,C,G,g,v,R,D,d,R,c ,,,,,10,8,208,4,1,0,1,0,,,,,0,11,11,1,,,,,,up,0.4836975272883137,2309.6867166278125,None,001,33,2019_Oct_16_1106,ACPT_experiment_5_30_19,3.1.0,59.948662083793025,
,,,C,G,g,v,L,G,d,L,i,,,,,10,8,208,4,1,0,1,0,,,,,0,12,12,16,,,,,,up,0.41699345063625515,2311.4547181708995,None,001,33,2019_Oct_16_1106,ACPT_experiment_5_30_19,3.1.0,59.948662083793025,
,,,C,G,g,v,R,U,d,L,u,,,,,10,8,208,4,1,0,1,0,,,,,0,13,13,8,,,,,,up,0.40029267930458445,2313.139357729514,None,001,33,2019_Oct_16_1106,ACPT_experiment_5_30_19,3.1.0,59.948662083793025,
,,,C,G,g,v,L,D,d,L,c ,,,,,10,8,208,4,1,0,1,0,,,,,0,14,14,12,,,,,,up,0.600181234172851,2314.840923847538,None,001,33,2019_Oct_16_1106,ACPT_experiment_5_30_19,3.1.0,59.948662083793025,
,,,C,G,g,v,R,D,g,R,i,,,,,10,8,208,4,1,0,1,0,,,,,0,15,15,3,,,,,,up,0.6004532061751888,2316.7254187568915,None,001,33,2019_Oct_16_1106,ACPT_experiment_5_30_19,3.1.0,59.948662083793025,
,,,C,G,g,v,R,U,y,L,u,,,,,10,8,208,4,1,0,1,0,,,,,0,16,16,30,,,,,,down,0.8840107327823716,2318.6101874493825,None,001,33,2019_Oct_16_1106,ACPT_experiment_5_30_19,3.1.0,59.948662083793025,
,,,C,G,g,v,R,U,d,R,u,,,,,10,8,208,4,1,0,1,0,,,,,0,17,17,9,,,,,,up,0.7672387536858878,2320.761832215914,None,001,33,2019_Oct_16_1106,ACPT_experiment_5_30_19,3.1.0,59.948662083793025,
,,,C,G,g,v,L,D,y,R,y,,,,,10,8,208,4,1,0,1,0,,,,,0,18,18,33,,,,,,down,0.6004803731902939,2322.813394002308,None,001,33,2019_Oct_16_1106,ACPT_experiment_5_30_19,3.1.0,59.948662083793025,
,,,C,G,g,v,L,U,g,L,u,,,,,10,8,208,4,1,0,1,0,,,,,0,19,19,22,,,,,,up,1.0674783365693656,2324.6981614873757,None,001,33,2019_Oct_16_1106,ACPT_experiment_5_30_19,3.1.0,59.948662083793025,
,,,C,G,g,v,L,U,y,R,u,,,,,10,8,208,4,1,0,1,0,,,,,0,20,20,25,,,,,,down,0.5837711498979843,2327.04995681954,None,001,33,2019_Oct_16_1106,ACPT_experiment_5_30_19,3.1.0,59.948662083793025,
,,,C,G,g,v,L,G,y,R,y,,,,,10,8,208,4,1,0,1,0,,,,,0,21,21,35,,,,,,down,0.7005289417757012,2328.9347264175976,None,001,33,2019_Oct_16_1106,ACPT_experiment_5_30_19,3.1.0,59.948662083793025,
,,,C,G,g,v,R,G,g,R,c ,,,,,10,8,208,4,1,0,1,0,,,,,0,22,22,7,,,,,,up,0.7338788671113434,2330.9362562223787,None,001,33,2019_Oct_16_1106,ACPT_experiment_5_30_19,3.1.0,59.948662083793025,
,,,C,G,g,v,L,U,y,L,u,,,,,10,8,208,4,1,0,1,0,,,,,0,23,23,24,,,,,,down,0.517036283962625,2332.9544804595207,None,001,33,2019_Oct_16_1106,ACPT_experiment_5_30_19,3.1.0,59.948662083793025,
,,,C,G,g,v,R,D,y,R,y,,,,,10,8,208,4,1,0,1,0,,,,,0,24,24,27,,,,,,down,0.7839220173864305,2334.755830720521,None,001,33,2019_Oct_16_1106,ACPT_experiment_5_30_19,3.1.0,59.948662083793025,
,,,C,G,g,v,L,G,y,L,y,,,,,10,8,208,4,1,0,1,0,,,,,0,25,25,34,,,,,,down,1.050786922764928,2336.8407542046243,None,001,33,2019_Oct_16_1106,ACPT_experiment_5_30_19,3.1.0,59.948662083793025,
,,,C,G,g,v,L,U,d,L,u,,,,,10,8,208,4,1,0,1,0,,,,,0,26,26,20,,,,,,up,0.7505645456576531,2339.1925462163745,None,001,33,2019_Oct_16_1106,ACPT_experiment_5_30_19,3.1.0,59.948662083793025,
,,,C,G,g,v,R,U,g,L,u,,,,,10,8,208,4,1,0,1,0,,,,,0,27,27,10,,,,,,up,0.5003524165513227,2341.2274549246404,None,001,33,2019_Oct_16_1106,ACPT_experiment_5_30_19,3.1.0,59.948662083793025,
,,,C,G,g,v,L,D,y,L,y,,,,,10,8,208,4,1,0,1,0,,,,,0,28,28,32,,,,,,down,0.5337343385936038,2343.0121246386416,None,001,33,2019_Oct_16_1106,ACPT_experiment_5_30_19,3.1.0,59.948662083793025,
,,,C,G,g,v,R,D,y,L,y,,,,,10,8,208,4,1,0,1,0,,,,,0,29,29,26,,,,,,down,0.533744903544175,2344.8301756709725,None,001,33,2019_Oct_16_1106,ACPT_experiment_5_30_19,3.1.0,59.948662083793025,
,,,C,G,g,v,R,U,g,R,u,,,,,10,8,208,4,1,0,1,0,,,,,0,30,30,11,,,,,,up,0.9840722811632077,2346.64822911815,None,001,33,2019_Oct_16_1106,ACPT_experiment_5_30_19,3.1.0,59.948662083793025,
,,,C,G,g,v,L,D,g,R,i,,,,,10,8,208,4,1,0,1,0,,,,,0,31,31,15,,,,,,up,0.5003789798538492,2348.9166220171755,None,001,33,2019_Oct_16_1106,ACPT_experiment_5_30_19,3.1.0,59.948662083793025,
,,,C,G,g,v,L,D,g,L,i,,,,,10,8,208,4,1,0,1,0,,,,,0,32,32,14,,,,,,up,0.6505259383102384,2350.701314974066,None,001,33,2019_Oct_16_1106,ACPT_experiment_5_30_19,3.1.0,59.948662083793025,
,,,C,G,g,v,R,G,d,R,i,,,,,10,8,208,4,1,0,1,0,,,,,0,33,33,5,,,,,,up,0.6171102084281301,2352.6361422114733,None,001,33,2019_Oct_16_1106,ACPT_experiment_5_30_19,3.1.0,59.948662083793025,
,,,C,G,g,v,R,G,g,L,c ,,,,,10,8,208,4,1,0,1,0,,,,,0,34,34,6,,,,,,up,0.43365679185899353,2354.5375766600328,None,001,33,2019_Oct_16_1106,ACPT_experiment_5_30_19,3.1.0,59.948662083793025,
,,,C,G,g,v,L,G,d,R,i,,,,,10,8,208,4,1,0,1,0,,,,,0,35,35,17,,,,,,up,0.5170528860271588,2356.255552258621,None,001,33,2019_Oct_16_1106,ACPT_experiment_5_30_19,3.1.0,59.948662083793025,
,,,C,G,g,v,R,G,g,R,c ,,,,,10,8,208,4,1,0,1,0,,,,,1,0,36,7,,,,,,up,0.5837838278384879,2358.0736132521906,None,001,33,2019_Oct_16_1106,ACPT_experiment_5_30_19,3.1.0,59.948662083793025,
,,,C,G,g,v,L,G,g,R,c ,,,,,10,8,208,4,1,0,1,0,,,,,1,1,37,19,,,,,,up,0.5170836753104595,2359.941695058713,None,001,33,2019_Oct_16_1106,ACPT_experiment_5_30_19,3.1.0,59.948662083793025,
,,,C,G,g,v,L,U,y,R,u,,,,,10,8,208,4,1,0,1,0,,,,,1,2,38,25,,,,,,down,0.5504145837367105,2361.743064940334,None,001,33,2019_Oct_16_1106,ACPT_experiment_5_30_19,3.1.0,59.948662083793025,
,,,C,G,g,v,L,U,d,L,u,,,,,10,8,208,4,1,0,1,0,,,,,1,3,39,20,,,,,,up,0.6004803731902939,2363.5610930316307,None,001,33,2019_Oct_16_1106,ACPT_experiment_5_30_19,3.1.0,59.948662083793025,
,,,C,G,g,v,R,G,d,R,i,,,,,10,8,208,4,1,0,1,0,,,,,1,4,40,5,,,,,,up,0.4503614873156039,2365.4291896290824,None,001,33,2019_Oct_16_1106,ACPT_experiment_5_30_19,3.1.0,59.948662083793025,
,,,C,G,g,v,L,D,g,L,i,,,,,10,8,208,4,1,0,1,0,,,,,1,5,41,14,,,,,,up,0.43368244959492586,2367.163838831988,None,001,33,2019_Oct_16_1106,ACPT_experiment_5_30_19,3.1.0,59.948662083793025,
,,,C,G,g,v,R,D,g,R,i,,,,,10,8,208,4,1,0,1,0,,,,,1,6,42,3,,,,,,up,0.6505008842868847,2368.881842503157,None,001,33,2019_Oct_16_1106,ACPT_experiment_5_30_19,3.1.0,59.948662083793025,
,,,C,G,g,v,L,G,d,L,i,,,,,10,8,208,4,1,0,1,0,,,,,1,7,43,16,,,,,,up,0.5668011232655772,2370.833621353998,None,001,33,2019_Oct_16_1106,ACPT_experiment_5_30_19,3.1.0,59.948662083793025,
,,,C,G,g,v,L,G,y,R,y,,,,,10,8,208,4,1,0,1,0,,,,,1,8,44,35,,,,,,down,0.6338127908948081,2372.6680628499826,None,001,33,2019_Oct_16_1106,ACPT_experiment_5_30_19,3.1.0,59.948662083793025,
,,,C,G,g,v,R,D,d,R,c ,,,,,10,8,208,4,1,0,1,0,,,,,1,9,45,1,,,,,,up,0.7505669605025105,2374.586191730904,None,001,33,2019_Oct_16_1106,ACPT_experiment_5_30_19,3.1.0,59.948662083793025,
,,,C,G,g,v,R,U,y,L,u,,,,,10,8,208,4,1,0,1,0,,,,,1,10,46,30,,,,,,down,0.533771164990867,2376.6210774981355,None,001,33,2019_Oct_16_1106,ACPT_experiment_5_30_19,3.1.0,59.948662083793025,
,,,C,G,g,v,L,D,y,R,y,,,,,10,8,208,4,1,0,1,0,,,,,1,11,47,33,,,,,,down,0.5002654821046235,2378.4391267193323,None,001,33,2019_Oct_16_1106,ACPT_experiment_5_30_19,3.1.0,59.948662083793025,
,,,C,G,g,v,R,U,g,R,u,,,,,10,8,208,4,1,0,1,0,,,,,1,12,48,11,,,,,,up,0.7172058665055374,2380.2238254114827,None,001,33,2019_Oct_16_1106,ACPT_experiment_5_30_19,3.1.0,59.948662083793025,
,,,C,G,g,v,L,D,g,R,i,,,,,10,8,208,4,1,0,1,0,,,,,1,13,49,15,,,,,,up,0.500366301914255,2382.225355216263,None,001,33,2019_Oct_16_1106,ACPT_experiment_5_30_19,3.1.0,59.948662083793025,
,,,C,G,g,v,L,U,d,R,u,,,,,10,8,208,4,1,0,1,0,,,,,1,14,50,21,,,,,,up,0.41369145093358384,2384.0300298142893,None,001,33,2019_Oct_16_1106,ACPT_experiment_5_30_19,3.1.0,59.948662083793025,
,,,C,G,g,v,R,U,d,L,u,,,,,10,8,208,4,1,0,1,0,,,,,1,15,51,8,,,,,,up,0.48368756605032104,2385.711347752579,None,001,33,2019_Oct_16_1106,ACPT_experiment_5_30_19,3.1.0,59.948662083793025,
,,,C,G,g,v,R,D,g,L,i,,,,,10,8,208,4,1,0,1,0,,,,,1,16,52,2,,,,,,up,0.5837729610320821,2387.479351710511,None,001,33,2019_Oct_16_1106,ACPT_experiment_5_30_19,3.1.0,59.948662083793025,
,,,C,G,g,v,L,D,d,R,c ,,,,,10,8,208,4,1,0,1,0,,,,,1,17,53,13,,,,,,up,0.6671663384986459,2389.3474410634262,None,001,33,2019_Oct_16_1106,ACPT_experiment_5_30_19,3.1.0,59.948662083793025,
,,,C,G,g,v,L,G,d,R,i,,,,,10,8,208,4,1,0,1,0,,,,,1,18,54,17,,,,,,up,0.5668470053351484,2391.3158760109527,None,001,33,2019_Oct_16_1106,ACPT_experiment_5_30_19,3.1.0,59.948662083793025,
,,,C,G,g,v,R,G,g,L,c ,,,,,10,8,208,4,1,0,1,0,,,,,1,19,55,6,,,,,,up,0.5670960363022459,2393.167024013528,None,001,33,2019_Oct_16_1106,ACPT_experiment_5_30_19,3.1.0,59.948662083793025,
,,,C,G,g,v,L,G,y,L,y,,,,,10,8,208,4,1,0,1,0,,,,,1,20,56,34,,,,,,down,0.583775375877849,2395.0184316120212,None,001,33,2019_Oct_16_1106,ACPT_experiment_5_30_19,3.1.0,59.948662083793025,
,,,C,G,g,v,L,U,y,L,u,,,,,10,8,208,4,1,0,1,0,,,,,1,21,57,24,,,,,,down,0.6171316401841977,2396.886520361225,None,001,33,2019_Oct_16_1106,ACPT_experiment_5_30_19,3.1.0,59.948662083793025,
,,,C,G,g,v,R,G,d,L,i,,,,,10,8,208,4,1,0,1,0,,,,,1,22,58,4,,,,,,up,0.650493639749584,2398.78796990257,None,001,33,2019_Oct_16_1106,ACPT_experiment_5_30_19,3.1.0,59.948662083793025,
,,,C,G,g,v,R,U,y,R,u,,,,,10,8,208,4,1,0,1,0,,,,,1,23,59,31,,,,,,down,0.6004634692699256,2400.7227790286342,None,001,33,2019_Oct_16_1106,ACPT_experiment_5_30_19,3.1.0,59.948662083793025,
,,,C,G,g,v,R,G,y,R,y,,,,,10,8,208,4,1,0,1,0,,,,,1,24,60,29,,,,,,down,0.4670411287470415,2402.590844233092,None,001,33,2019_Oct_16_1106,ACPT_experiment_5_30_19,3.1.0,59.948662083793025,
,,,C,G,g,v,R,U,d,R,u,,,,,10,8,208,4,1,0,1,0,,,,,1,25,61,9,,,,,,up,0.6168705349882657,2404.359139481792,None,001,33,2019_Oct_16_1106,ACPT_experiment_5_30_19,3.1.0,59.948662083793025,
,,,C,G,g,v,L,G,g,L,c ,,,,,10,8,208,4,1,0,1,0,,,,,1,26,62,18,,,,,,up,0.5504462785875148,2406.2603336532,None,001,33,2019_Oct_16_1106,ACPT_experiment_5_30_19,3.1.0,59.948662083793025,
,,,C,G,g,v,L,D,y,L,y,,,,,10,8,208,4,1,0,1,0,,,,,1,27,63,32,,,,,,down,0.5670921121782158,2408.0950646288184,None,001,33,2019_Oct_16_1106,ACPT_experiment_5_30_19,3.1.0,59.948662083793025,
,,,C,G,g,v,R,D,y,L,y,,,,,10,8,208,4,1,0,1,0,,,,,1,28,64,26,,,,,,down,0.41698348939735297,2409.9464716236007,None,001,33,2019_Oct_16_1106,ACPT_experiment_5_30_19,3.1.0,59.948662083793025,
,,,C,G,g,v,R,D,y,R,y,,,,,10,8,208,4,1,0,1,0,,,,,1,29,65,27,,,,,,down,0.7836711752843257,2411.681380724279,None,001,33,2019_Oct_16_1106,ACPT_experiment_5_30_19,3.1.0,59.948662083793025,
,,,C,G,g,v,R,U,g,L,u,,,,,10,8,208,4,1,0,1,0,,,,,1,30,66,10,,,,,,up,0.6338284873918383,2413.7660503477227,None,001,33,2019_Oct_16_1106,ACPT_experiment_5_30_19,3.1.0,59.948662083793025,
,,,C,G,g,v,R,G,y,L,y,,,,,10,8,208,4,1,0,1,0,,,,,1,31,67,28,,,,,,down,0.5003865262478939,2415.7008609830655,None,001,33,2019_Oct_16_1106,ACPT_experiment_5_30_19,3.1.0,59.948662083793025,
,,,C,G,g,v,L,U,g,R,u,,,,,10,8,208,4,1,0,1,0,,,,,1,32,68,23,,,,,,up,0.500351510983819,2417.502257729846,None,001,33,2019_Oct_16_1106,ACPT_experiment_5_30_19,3.1.0,59.948662083793025,
,,,C,G,g,v,L,U,g,L,u,,,,,10,8,208,4,1,0,1,0,,,,,1,33,69,22,,,,,,up,0.4837210720352232,2419.270229992928,None,001,33,2019_Oct_16_1106,ACPT_experiment_5_30_19,3.1.0,59.948662083793025,
,,,C,G,g,v,L,D,d,L,c ,,,,,10,8,208,4,1,0,1,0,,,,,1,34,70,12,,,,,,up,0.650490621192148,2421.0382638345764,None,001,33,2019_Oct_16_1106,ACPT_experiment_5_30_19,3.1.0,59.948662083793025,
,,,C,G,g,v,R,D,d,L,c,,,,,10,8,208,4,1,0,1,0,,,,,1,35,71,0,,,,,,up,0.40029871641945647,2422.9730738662074,None,001,33,2019_Oct_16_1106,ACPT_experiment_5_30_19,3.1.0,59.948662083793025,
,,,C,G,g,v,,,,,,,,,,10,8,208,4,2,0,2,0,0,0,0,0,,,,,,,,,,,,,,001,33,2019_Oct_16_1106,ACPT_experiment_5_30_19,3.1.0,59.948662083793025,
,,,C,G,g,v,R,U,y,L,u,,,,,10,8,208,4,2,0,2,0,,,,,0,0,0,30,,,,,,down,0.6001830453078583,2452.0955391460084,None,001,33,2019_Oct_16_1106,ACPT_experiment_5_30_19,3.1.0,59.948662083793025,
,,,C,G,g,v,R,G,y,L,y,,,,,10,8,208,4,2,0,2,0,,,,,0,1,1,28,,,,,,down,0.46701939513513935,2453.980038281343,None,001,33,2019_Oct_16_1106,ACPT_experiment_5_30_19,3.1.0,59.948662083793025,
,,,C,G,g,v,L,D,g,R,i,,,,,10,8,208,4,2,0,2,0,,,,,0,2,2,15,,,,,,up,0.517071902938369,2455.7313761813502,None,001,33,2019_Oct_16_1106,ACPT_experiment_5_30_19,3.1.0,59.948662083793025,
,,,C,G,g,v,R,D,d,R,c ,,,,,10,8,208,4,2,0,2,0,,,,,0,3,3,1,,,,,,up,0.5170869957237301,2457.532748779673,None,001,33,2019_Oct_16_1106,ACPT_experiment_5_30_19,3.1.0,59.948662083793025,
,,,C,G,g,v,R,U,d,L,u,,,,,10,8,208,4,2,0,2,0,,,,,0,4,4,8,,,,,,up,0.3835922098278388,2459.3508224511834,None,001,33,2019_Oct_16_1106,ACPT_experiment_5_30_19,3.1.0,59.948662083793025,
,,,C,G,g,v,L,U,y,R,u,,,,,10,8,208,4,2,0,2,0,,,,,0,5,5,25,,,,,,down,0.6004393208122565,2461.03541673144,None,001,33,2019_Oct_16_1106,ACPT_experiment_5_30_19,3.1.0,59.948662083793025,
,,,C,G,g,v,L,U,d,L,u,,,,,10,8,208,4,2,0,2,0,,,,,0,6,6,20,,,,,,down,0.6671723756135179,2462.9368701969097,None,001,33,2019_Oct_16_1106,ACPT_experiment_5_30_19,3.1.0,59.948662083793025,
,,,C,G,g,v,L,G,y,R,y,,,,,10,8,208,4,2,0,2,0,,,,,0,7,7,35,,,,,,down,0.6171603164775661,2464.8883257602765,None,001,33,2019_Oct_16_1106,ACPT_experiment_5_30_19,3.1.0,59.948662083793025,
,,,C,G,g,v,R,D,d,L,c,,,,,10,8,208,4,2,0,2,0,,,,,0,8,8,0,,,,,,up,1.1341914688928227,2466.7898066946163,None,001,33,2019_Oct_16_1106,ACPT_experiment_5_30_19,3.1.0,59.948662083793025,
,,,C,G,g,v,R,D,g,R,i,,,,,10,8,208,4,2,0,2,0,,,,,0,9,9,3,,,,,,up,0.5170565082962639,2469.191634913961,None,001,33,2019_Oct_16_1106,ACPT_experiment_5_30_19,3.1.0,59.948662083793025,
,,,C,G,g,v,R,U,y,R,u,,,,,10,8,208,4,2,0,2,0,,,,,0,10,10,31,,,,,,down,0.7172013386698382,2470.9930216995026,None,001,33,2019_Oct_16_1106,ACPT_experiment_5_30_19,3.1.0,59.948662083793025,
,,,C,G,g,v,L,G,g,R,c ,,,,,10,8,208,4,2,0,2,0,,,,,0,11,11,19,,,,,,up,0.6505081288241854,2472.99453550593,None,001,33,2019_Oct_16_1106,ACPT_experiment_5_30_19,3.1.0,59.948662083793025,
,,,C,G,g,v,R,G,d,L,i,,,,,10,8,208,4,2,0,2,0,,,,,0,12,12,4,,,,,,up,0.6838477910650909,2474.9293461412726,None,001,33,2019_Oct_16_1106,ACPT_experiment_5_30_19,3.1.0,59.948662083793025,
,,,C,G,g,v,L,G,y,L,y,,,,,10,8,208,4,2,0,2,0,,,,,0,13,13,34,,,,,,down,0.6003234082163544,2476.914279314945,None,001,33,2019_Oct_16_1106,ACPT_experiment_5_30_19,3.1.0,59.948662083793025,
,,,C,G,g,v,L,D,y,L,y,,,,,10,8,208,4,2,0,2,0,,,,,0,14,14,32,,,,,,down,0.41697262259185663,2478.8156446385447,None,001,33,2019_Oct_16_1106,ACPT_experiment_5_30_19,3.1.0,59.948662083793025,
,,,C,G,g,v,R,U,d,R,u,,,,,10,8,208,4,2,0,2,0,,,,,0,15,15,9,,,,,,up,0.6003400102817977,2480.5169402938445,None,001,33,2019_Oct_16_1106,ACPT_experiment_5_30_19,3.1.0,59.948662083793025,
,,,C,G,g,v,L,D,d,R,c ,,,,,10,8,208,4,2,0,2,0,,,,,0,16,16,13,,,,,,up,0.8005962254146652,2482.401710193758,None,001,33,2019_Oct_16_1106,ACPT_experiment_5_30_19,3.1.0,59.948662083793025,
,,,C,G,g,v,L,U,y,L,u,,,,,10,8,208,4,2,0,2,0,,,,,0,17,17,24,,,,,,down,0.4667474231328015,2484.5035786504695,None,001,33,2019_Oct_16_1106,ACPT_experiment_5_30_19,3.1.0,59.948662083793025,
,,,C,G,g,v,L,G,d,L,i,,,,,10,8,208,4,2,0,2,0,,,,,0,18,18,16,,,,,,down,0.4169801689849919,2486.254641559918,None,001,33,2019_Oct_16_1106,ACPT_experiment_5_30_19,3.1.0,59.948662083793025,
,,,C,G,g,v,L,D,g,L,i,,,,,10,8,208,4,2,0,2,0,,,,,0,19,19,14,,,,,,up,0.8339935420990514,2487.9559402337754,None,001,33,2019_Oct_16_1106,ACPT_experiment_5_30_19,3.1.0,59.948662083793025,
,,,C,G,g,v,R,D,y,R,y,,,,,10,8,208,4,2,0,2,0,,,,,0,20,20,27,,,,,,down,0.6004516968969256,2490.074220887752,None,001,33,2019_Oct_16_1106,ACPT_experiment_5_30_19,3.1.0,59.948662083793025,
,,,C,G,g,v,L,D,y,R,y,,,,,10,8,208,4,2,0,2,0,,,,,0,21,21,33,,,,,,down,0.7005232065166638,2491.9756707309525,None,001,33,2019_Oct_16_1106,ACPT_experiment_5_30_19,3.1.0,59.948662083793025,
,,,C,G,g,v,R,D,y,L,y,,,,,10,8,208,4,2,0,2,0,,,,,0,22,22,26,,,,,,down,0.5670794342377121,2493.9772008375894,None,001,33,2019_Oct_16_1106,ACPT_experiment_5_30_19,3.1.0,59.948662083793025,
,,,C,G,g,v,L,D,d,L,c ,,,,,10,8,208,4,2,0,2,0,,,,,0,23,23,12,,,,,,up,0.6838668079753916,2495.828607530516,None,001,33,2019_Oct_16_1106,ACPT_experiment_5_30_19,3.1.0,59.948662083793025,
,,,C,G,g,v,L,G,g,L,c ,,,,,10,8,208,4,2,0,2,0,,,,,0,24,24,18,,,,,,up,0.566713886962134,2497.8137996963933,None,001,33,2019_Oct_16_1106,ACPT_experiment_5_30_19,3.1.0,59.948662083793025,
,,,C,G,g,v,L,U,g,L,u,,,,,10,8,208,4,2,0,2,0,,,,,0,25,25,22,,,,,,up,0.6004468672053918,2499.6648713294726,None,001,33,2019_Oct_16_1106,ACPT_experiment_5_30_19,3.1.0,59.948662083793025,
,,,C,G,g,v,L,U,d,R,u,,,,,10,8,208,4,2,0,2,0,,,,,0,26,26,21,,,,,,up,0.6671735830359466,2501.5329498155816,None,001,33,2019_Oct_16_1106,ACPT_experiment_5_30_19,3.1.0,59.948662083793025,
,,,C,G,g,v,R,G,g,L,c ,,,,,10,8,208,4,2,0,2,0,,,,,0,27,27,6,,,,,,up,0.6671732811801121,2503.4844425072015,None,001,33,2019_Oct_16_1106,ACPT_experiment_5_30_19,3.1.0,59.948662083793025,
,,,C,G,g,v,R,G,y,R,y,,,,,10,8,208,4,2,0,2,0,,,,,0,28,28,29,,,,,,down,0.46708399225917674,2505.4192308052216,None,001,33,2019_Oct_16_1106,ACPT_experiment_5_30_19,3.1.0,59.948662083793025,
,,,C,G,g,v,L,G,d,R,i,,,,,10,8,208,4,2,0,2,0,,,,,0,29,29,17,,,,,,up,0.5670921121782158,2507.1705895332743,None,001,33,2019_Oct_16_1106,ACPT_experiment_5_30_19,3.1.0,59.948662083793025,
,,,C,G,g,v,R,U,g,R,u,,,,,10,8,208,4,2,0,2,0,,,,,0,30,30,11,,,,,,up,0.43364381206356484,2509.0220092059963,None,001,33,2019_Oct_16_1106,ACPT_experiment_5_30_19,3.1.0,59.948662083793025,
,,,C,G,g,v,R,G,d,R,i,,,,,10,8,208,4,2,0,2,0,,,,,0,31,31,5,,,,,,up,0.8670588174918521,2510.7569219289426,None,001,33,2019_Oct_16_1106,ACPT_experiment_5_30_19,3.1.0,59.948662083793025,
,,,C,G,g,v,R,D,g,L,i,,,,,10,8,208,4,2,0,2,0,,,,,0,32,32,2,,,,,,up,0.5003732445957212,2512.9082914030587,None,001,33,2019_Oct_16_1106,ACPT_experiment_5_30_19,3.1.0,59.948662083793025,
,,,C,G,g,v,R,G,g,R,c ,,,,,10,8,208,4,2,0,2,0,,,,,0,33,33,7,,,,,,up,0.9507205446925582,2514.6929891896416,None,001,33,2019_Oct_16_1106,ACPT_experiment_5_30_19,3.1.0,59.948662083793025,
,,,C,G,g,v,R,U,g,L,u,,,,,10,8,208,4,2,0,2,0,,,,,0,34,34,10,,,,,,up,0.4169807726957515,2516.9280237113708,None,001,33,2019_Oct_16_1106,ACPT_experiment_5_30_19,3.1.0,59.948662083793025,
,,,C,G,g,v,L,U,g,R,u,,,,,10,8,208,4,2,0,2,0,,,,,0,35,35,23,,,,,,up,0.43365467886906117,2518.6293232907947,None,001,33,2019_Oct_16_1106,ACPT_experiment_5_30_19,3.1.0,59.948662083793025,
,,,C,G,g,v,R,G,y,L,y,,,,,10,8,208,4,2,0,2,0,,,,,1,0,36,28,,,,,,up,0.5003856206803903,2520.36397671968,None,001,33,2019_Oct_16_1106,ACPT_experiment_5_30_19,3.1.0,59.948662083793025,
,,,C,G,g,v,L,U,d,L,u,,,,,10,8,208,4,2,0,2,0,,,,,1,1,37,20,,,,,,up,0.8006255054197027,2522.165327886247,None,001,33,2019_Oct_16_1106,ACPT_experiment_5_30_19,3.1.0,59.948662083793025,
,,,C,G,g,v,R,G,d,L,i,,,,,10,8,208,4,2,0,2,0,,,,,1,2,38,4,,,,,,up,0.6004477727719859,2524.2502721983947,None,001,33,2019_Oct_16_1106,ACPT_experiment_5_30_19,3.1.0,59.948662083793025,
,,,C,G,g,v,L,D,d,R,c ,,,,,10,8,208,4,2,0,2,0,,,,,1,3,39,13,,,,,,up,0.6338136964614023,2526.135044211298,None,001,33,2019_Oct_16_1106,ACPT_experiment_5_30_19,3.1.0,59.948662083793025,
,,,C,G,g,v,L,D,g,L,i,,,,,10,8,208,4,2,0,2,0,,,,,1,4,40,14,,,,,,up,0.5337379608617994,2528.053173695931,None,001,33,2019_Oct_16_1106,ACPT_experiment_5_30_19,3.1.0,59.948662083793025,
,,,C,G,g,v,R,D,y,R,y,,,,,10,8,208,4,2,0,2,0,,,,,1,5,41,27,,,,,,down,0.7168937476926658,2529.888220714487,None,001,33,2019_Oct_16_1106,ACPT_experiment_5_30_19,3.1.0,59.948662083793025,
,,,C,G,g,v,R,U,d,R,u,,,,,10,8,208,4,2,0,2,0,,,,,1,6,42,9,,,,,,up,0.5670881880532761,2531.8894305522062,None,001,33,2019_Oct_16_1106,ACPT_experiment_5_30_19,3.1.0,59.948662083793025,
,,,C,G,g,v,R,G,d,R,i,,,,,10,8,208,4,2,0,2,0,,,,,1,7,43,5,,,,,,up,0.5670776231036143,2533.740854149052,None,001,33,2019_Oct_16_1106,ACPT_experiment_5_30_19,3.1.0,59.948662083793025,
,,,C,G,g,v,R,U,y,L,u,,,,,10,8,208,4,2,0,2,0,,,,,1,8,44,30,,,,,,down,0.6504860933555392,2535.608930824027,None,001,33,2019_Oct_16_1106,ACPT_experiment_5_30_19,3.1.0,59.948662083793025,
,,,C,G,g,v,L,U,d,R,u,,,,,10,8,208,4,2,0,2,0,,,,,1,9,45,21,,,,,,up,0.5170420192216625,2537.577104062646,None,001,33,2019_Oct_16_1106,ACPT_experiment_5_30_19,3.1.0,59.948662083793025,
,,,C,G,g,v,L,U,y,L,u,,,,,10,8,208,4,2,0,2,0,,,,,1,10,46,24,,,,,,down,0.5170703936591963,2539.395147246729,None,001,33,2019_Oct_16_1106,ACPT_experiment_5_30_19,3.1.0,59.948662083793025,
,,,C,G,g,v,L,U,g,R,u,,,,,10,8,208,4,2,0,2,0,,,,,1,11,47,23,,,,,,up,0.5003358144867889,2541.213226653498,None,001,33,2019_Oct_16_1106,ACPT_experiment_5_30_19,3.1.0,59.948662083793025,
,,,C,G,g,v,R,D,g,L,i,,,,,10,8,208,4,2,0,2,0,,,,,1,12,48,2,,,,,,up,0.6805337171326755,2543.0178876680166,None,001,33,2019_Oct_16_1106,ACPT_experiment_5_30_19,3.1.0,59.948662083793025,
,,,C,G,g,v,R,D,g,R,i,,,,,10,8,208,4,2,0,2,0,,,,,1,13,49,3,,,,,,up,0.6004728267971586,2544.9660394205457,None,001,33,2019_Oct_16_1106,ACPT_experiment_5_30_19,3.1.0,59.948662083793025,
,,,C,G,g,v,L,G,g,R,c ,,,,,10,8,208,4,2,0,2,0,,,,,1,14,50,19,,,,,,up,0.4836748881098174,2546.850856711807,None,001,33,2019_Oct_16_1106,ACPT_experiment_5_30_19,3.1.0,59.948662083793025,
,,,C,G,g,v,L,G,y,R,y,,,,,10,8,208,4,2,0,2,0,,,,,1,15,51,35,,,,,,down,0.583760283092488,2548.618858254894,None,001,33,2019_Oct_16_1106,ACPT_experiment_5_30_19,3.1.0,59.948662083793025,
,,,C,G,g,v,L,D,y,R,y,,,,,10,8,208,4,2,0,2,0,,,,,1,16,52,33,,,,,,down,0.5337334330261001,2550.4869355335795,None,001,33,2019_Oct_16_1106,ACPT_experiment_5_30_19,3.1.0,59.948662083793025,
,,,C,G,g,v,L,G,d,R,i,,,,,10,8,208,4,2,0,2,0,,,,,1,17,53,17,,,,,,up,0.5337358478727765,2552.304989584469,None,001,33,2019_Oct_16_1106,ACPT_experiment_5_30_19,3.1.0,59.948662083793025,
,,,C,G,g,v,R,U,y,R,u,,,,,10,8,208,4,2,0,2,0,,,,,1,18,54,31,,,,,,down,0.6171289234835058,2554.1397253897785,None,001,33,2019_Oct_16_1106,ACPT_experiment_5_30_19,3.1.0,59.948662083793025,
,,,C,G,g,v,R,D,y,L,y,,,,,10,8,208,4,2,0,2,0,,,,,1,19,55,26,,,,,,down,0.5670821509393136,2556.057857892969,None,001,33,2019_Oct_16_1106,ACPT_experiment_5_30_19,3.1.0,59.948662083793025,
,,,C,G,g,v,L,D,g,R,i,,,,,10,8,208,4,2,0,2,0,,,,,1,20,56,15,,,,,,up,0.5170773363406624,2557.9259152491777,None,001,33,2019_Oct_16_1106,ACPT_experiment_5_30_19,3.1.0,59.948662083793025,
,,,C,G,g,v,R,D,d,L,c,,,,,10,8,208,4,2,0,2,0,,,,,1,21,57,0,,,,,,up,0.9173600544063447,2559.7273177312163,None,001,33,2019_Oct_16_1106,ACPT_experiment_5_30_19,3.1.0,59.948662083793025,
,,,C,G,g,v,L,G,g,L,c ,,,,,10,8,208,4,2,0,2,0,,,,,1,22,58,18,,,,,,up,0.5670975455814187,2561.9289908570927,None,001,33,2019_Oct_16_1106,ACPT_experiment_5_30_19,3.1.0,59.948662083793025,
,,,C,G,g,v,L,D,d,L,c ,,,,,10,8,208,4,2,0,2,0,,,,,1,23,59,12,,,,,,up,0.48370296069151664,2563.7803990592975,None,001,33,2019_Oct_16_1106,ACPT_experiment_5_30_19,3.1.0,59.948662083793025,
,,,C,G,g,v,R,U,d,L,u,,,,,10,8,208,4,2,0,2,0,,,,,1,24,60,8,,,,,,up,0.45034005555953627,2565.5484298823885,None,001,33,2019_Oct_16_1106,ACPT_experiment_5_30_19,3.1.0,59.948662083793025,
,,,C,G,g,v,L,G,y,L,y,,,,,10,8,208,4,2,0,2,0,,,,,1,25,61,34,,,,,,down,0.5837524348435181,2567.2997768380674,None,001,33,2019_Oct_16_1106,ACPT_experiment_5_30_19,3.1.0,59.948662083793025,
,,,C,G,g,v,L,G,d,L,i,,,,,10,8,208,4,2,0,2,0,,,,,1,26,62,16,,,,,,up,0.6970708826647751,2569.2046545548064,None,001,33,2019_Oct_16_1106,ACPT_experiment_5_30_19,3.1.0,59.948662083793025,
,,,C,G,g,v,R,G,y,R,y,,,,,10,8,208,4,2,0,2,0,,,,,1,27,63,29,,,,,,down,0.6672182576821797,2571.186049073892,None,001,33,2019_Oct_16_1106,ACPT_experiment_5_30_19,3.1.0,59.948662083793025,
,,,C,G,g,v,R,U,g,L,u,,,,,10,8,208,4,2,0,2,0,,,,,1,28,64,10,,,,,,up,0.633815205740575,2573.1375339172637,None,001,33,2019_Oct_16_1106,ACPT_experiment_5_30_19,3.1.0,59.948662083793025,
,,,C,G,g,v,R,D,d,R,c ,,,,,10,8,208,4,2,0,2,0,,,,,1,29,65,1,,,,,,up,0.5003747538739844,2575.055661288906,None,001,33,2019_Oct_16_1106,ACPT_experiment_5_30_19,3.1.0,59.948662083793025,
,,,C,G,g,v,L,D,y,L,y,,,,,10,8,208,4,2,0,2,0,,,,,1,30,66,32,,,,,,down,0.583775375877849,2576.8403599810554,None,001,33,2019_Oct_16_1106,ACPT_experiment_5_30_19,3.1.0,59.948662083793025,
,,,C,G,g,v,L,U,g,L,u,,,,,10,8,208,4,2,0,2,0,,,,,1,31,67,22,,,,,,up,0.8339210967260442,2578.708488273358,None,001,33,2019_Oct_16_1106,ACPT_experiment_5_30_19,3.1.0,59.948662083793025,
,,,C,G,g,v,L,U,y,R,u,,,,,10,8,208,4,2,0,2,0,,,,,1,32,68,25,,,,,,down,0.5170709973699559,2580.826716706296,None,001,33,2019_Oct_16_1106,ACPT_experiment_5_30_19,3.1.0,59.948662083793025,
,,,C,G,g,v,R,G,g,R,c ,,,,,10,8,208,4,2,0,2,0,,,,,1,33,69,7,,,,,,up,0.5003774705755859,2582.6281019825583,None,001,33,2019_Oct_16_1106,ACPT_experiment_5_30_19,3.1.0,59.948662083793025,
,,,C,G,g,v,R,G,g,L,c ,,,,,10,8,208,4,2,0,2,0,,,,,1,34,70,6,,,,,,up,0.5170027779777229,2584.4128444437874,None,001,33,2019_Oct_16_1106,ACPT_experiment_5_30_19,3.1.0,59.948662083793025,
,,,C,G,g,v,R,U,g,R,u,,,,,10,8,208,4,2,0,2,0,,,,,1,35,71,11,,,,,,up,0.8673250542351525,2586.214170254473,None,001,33,2019_Oct_16_1106,ACPT_experiment_5_30_19,3.1.0,59.948662083793025,
,,,C,G,g,v,,,,,,,,,,10,8,208,4,3,0,3,0,0,0,0,0,,,,,,,,,,,,,,001,33,2019_Oct_16_1106,ACPT_experiment_5_30_19,3.1.0,59.948662083793025,
,,,C,G,g,v,L,U,g,L,u,,,,,10,8,208,4,3,0,3,0,,,,,0,0,0,22,,,,,,up,0.6168684219983334,2616.070524966336,None,001,33,2019_Oct_16_1106,ACPT_experiment_5_30_19,3.1.0,59.948662083793025,
,,,C,G,g,v,L,D,g,R,i,,,,,10,8,208,4,3,0,3,0,,,,,0,1,1,15,,,,,,up,0.5337382627185434,2617.9717100820717,None,001,33,2019_Oct_16_1106,ACPT_experiment_5_30_19,3.1.0,59.948662083793025,
,,,C,G,g,v,R,U,g,L,u,,,,,10,8,208,4,3,0,3,0,,,,,0,2,2,10,,,,,,up,0.3669406409781004,2619.789762321826,None,001,33,2019_Oct_16_1106,ACPT_experiment_5_30_19,3.1.0,59.948662083793025,
,,,C,G,g,v,R,U,g,R,u,,,,,10,8,208,4,3,0,3,0,,,,,0,3,3,11,,,,,,up,0.48384483287918556,2621.42419059653,None,001,33,2019_Oct_16_1106,ACPT_experiment_5_30_19,3.1.0,59.948662083793025,
,,,C,G,g,v,R,G,d,L,i,,,,,10,8,208,4,3,0,3,0,,,,,0,4,4,4,,,,,,up,0.4000303666853142,2623.209305849571,None,001,33,2019_Oct_16_1106,ACPT_experiment_5_30_19,3.1.0,59.948662083793025,
,,,C,G,g,v,R,G,g,R,c ,,,,,10,8,208,4,3,0,3,0,,,,,0,5,5,7,,,,,,up,0.4503313017439723,2624.8769762871207,None,001,33,2019_Oct_16_1106,ACPT_experiment_5_30_19,3.1.0,59.948662083793025,
,,,C,G,g,v,L,U,y,R,u,,,,,10,8,208,4,3,0,3,0,,,,,0,6,6,25,,,,,,down,0.8005871697432667,2626.6116442050798,None,001,33,2019_Oct_16_1106,ACPT_experiment_5_30_19,3.1.0,59.948662083793025,
,,,C,G,g,v,R,G,y,R,y,,,,,10,8,208,4,3,0,3,0,,,,,0,7,7,29,,,,,,down,0.5337195476631678,2628.6965691984615,None,001,33,2019_Oct_16_1106,ACPT_experiment_5_30_19,3.1.0,59.948662083793025,
,,,C,G,g,v,R,D,g,R,i,,,,,10,8,208,4,3,0,3,0,,,,,0,8,8,3,,,,,,up,0.6305071689221222,2630.5345994570825,None,001,33,2019_Oct_16_1106,ACPT_experiment_5_30_19,3.1.0,59.948662083793025,
,,,C,G,g,v,R,G,y,L,y,,,,,10,8,208,4,3,0,3,0,,,,,0,9,9,28,,,,,,down,0.5170447359232639,2632.466097527772,None,001,33,2019_Oct_16_1106,ACPT_experiment_5_30_19,3.1.0,59.948662083793025,
,,,C,G,g,v,R,D,y,R,y,,,,,10,8,208,4,3,0,3,0,,,,,0,10,10,27,,,,,,down,0.617130432761769,2634.2841452396906,None,001,33,2019_Oct_16_1106,ACPT_experiment_5_30_19,3.1.0,59.948662083793025,
,,,C,G,g,v,L,U,d,R,u,,,,,10,8,208,4,3,0,3,0,,,,,0,11,11,21,,,,,,up,0.6004873158717601,2636.1855962903137,None,001,33,2019_Oct_16_1106,ACPT_experiment_5_30_19,3.1.0,59.948662083793025,
,,,C,G,g,v,R,D,d,R,c ,,,,,10,8,208,4,3,0,3,0,,,,,0,12,12,1,,,,,,up,0.583775375877849,2638.0536826246716,None,001,33,2019_Oct_16_1106,ACPT_experiment_5_30_19,3.1.0,59.948662083793025,
,,,C,G,g,v,L,G,y,L,y,,,,,10,8,208,4,3,0,3,0,,,,,0,13,13,34,,,,,,down,0.4670130561653423,2639.92177952398,None,001,33,2019_Oct_16_1106,ACPT_experiment_5_30_19,3.1.0,59.948662083793025,
,,,C,G,g,v,R,U,d,L,u,,,,,10,8,208,4,3,0,3,0,,,,,0,14,14,8,,,,,,down,0.5504121688900341,2641.6731234611016,None,001,33,2019_Oct_16_1106,ACPT_experiment_5_30_19,3.1.0,59.948662083793025,
,,,C,G,g,v,L,G,g,R,c ,,,,,10,8,208,4,3,0,3,0,,,,,0,15,15,19,,,,,,up,0.5471038302175657,2643.52785479291,None,001,33,2019_Oct_16_1106,ACPT_experiment_5_30_19,3.1.0,59.948662083793025,
,,,C,G,g,v,L,D,g,L,i,,,,,10,8,208,4,3,0,3,0,,,,,0,16,16,14,,,,,,up,0.6171554867860323,2645.359228227374,None,001,33,2019_Oct_16_1106,ACPT_experiment_5_30_19,3.1.0,59.948662083793025,
,,,C,G,g,v,L,D,d,R,c ,,,,,10,8,208,4,3,0,3,0,,,,,0,17,17,13,,,,,,up,0.467017282145207,2647.2607034264547,None,001,33,2019_Oct_16_1106,ACPT_experiment_5_30_19,3.1.0,59.948662083793025,
,,,C,G,g,v,L,U,g,R,u,,,,,10,8,208,4,3,0,3,0,,,,,0,18,18,23,,,,,,up,0.46702362111500406,2649.012037402338,None,001,33,2019_Oct_16_1106,ACPT_experiment_5_30_19,3.1.0,59.948662083793025,
,,,C,G,g,v,L,G,y,R,y,,,,,10,8,208,4,3,0,3,0,,,,,0,19,19,35,,,,,,down,0.5667193203662464,2650.7803169545414,None,001,33,2019_Oct_16_1106,ACPT_experiment_5_30_19,3.1.0,59.948662083793025,
,,,C,G,g,v,R,U,d,R,u,,,,,10,8,208,4,3,0,3,0,,,,,0,20,20,9,,,,,,up,0.6505051102658399,2652.6314697868083,None,001,33,2019_Oct_16_1106,ACPT_experiment_5_30_19,3.1.0,59.948662083793025,
,,,C,G,g,v,L,U,y,L,u,,,,,10,8,208,4,3,0,3,0,,,,,0,21,21,24,,,,,,down,0.5170604324202941,2654.566268649778,None,001,33,2019_Oct_16_1106,ACPT_experiment_5_30_19,3.1.0,59.948662083793025,
,,,C,G,g,v,R,G,d,R,i,,,,,10,8,208,4,3,0,3,0,,,,,0,22,22,5,,,,,,up,0.6004513950420005,2656.3676460777924,None,001,33,2019_Oct_16_1106,ACPT_experiment_5_30_19,3.1.0,59.948662083793025,
,,,C,G,g,v,L,D,d,L,c ,,,,,10,8,208,4,3,0,3,0,,,,,0,23,23,12,,,,,,up,0.5838082781519915,2658.235742977101,None,001,33,2019_Oct_16_1106,ACPT_experiment_5_30_19,3.1.0,59.948662083793025,
,,,C,G,g,v,L,D,y,L,y,,,,,10,8,208,4,3,0,3,0,,,,,0,24,24,32,,,,,,down,0.6504441354109076,2660.103856478473,None,001,33,2019_Oct_16_1106,ACPT_experiment_5_30_19,3.1.0,59.948662083793025,
,,,C,G,g,v,R,D,g,L,i,,,,,10,8,208,4,3,0,3,0,,,,,0,25,25,2,,,,,,up,0.5170501693264669,2662.055318078954,None,001,33,2019_Oct_16_1106,ACPT_experiment_5_30_19,3.1.0,59.948662083793025,
,,,C,G,g,v,L,D,y,R,y,,,,,10,8,208,4,3,0,3,0,,,,,0,26,26,33,,,,,,down,0.8671034921389946,2663.890225036457,None,001,33,2019_Oct_16_1106,ACPT_experiment_5_30_19,3.1.0,59.948662083793025,
,,,C,G,g,v,L,G,d,L,i,,,,,10,8,208,4,3,0,3,0,,,,,0,27,27,16,,,,,,up,0.9340384884153536,2666.058363501297,None,001,33,2019_Oct_16_1106,ACPT_experiment_5_30_19,3.1.0,59.948662083793025,
,,,C,G,g,v,R,D,y,L,y,,,,,10,8,208,4,3,0,3,0,,,,,0,28,28,26,,,,,,down,0.6504924323262458,2668.2767232112865,None,001,33,2019_Oct_16_1106,ACPT_experiment_5_30_19,3.1.0,59.948662083793025,
,,,C,G,g,v,L,G,d,R,i,,,,,10,8,208,4,3,0,3,0,,,,,0,29,29,17,,,,,,down,0.483696319865885,2670.211532035495,None,001,33,2019_Oct_16_1106,ACPT_experiment_5_30_19,3.1.0,59.948662083793025,
,,,C,G,g,v,L,G,g,L,c ,,,,,10,8,208,4,3,0,3,0,,,,,0,30,30,18,,,,,,up,0.4834104625006148,2671.9798327175986,None,001,33,2019_Oct_16_1106,ACPT_experiment_5_30_19,3.1.0,59.948662083793025,
,,,C,G,g,v,L,U,d,L,u,,,,,10,8,208,4,3,0,3,0,,,,,0,31,31,20,,,,,,up,0.6004538098868579,2673.747560779404,None,001,33,2019_Oct_16_1106,ACPT_experiment_5_30_19,3.1.0,59.948662083793025,
,,,C,G,g,v,R,D,d,L,c,,,,,10,8,208,4,3,0,3,0,,,,,0,32,32,0,,,,,,up,0.4336576974264972,2675.632327962616,None,001,33,2019_Oct_16_1106,ACPT_experiment_5_30_19,3.1.0,59.948662083793025,
,,,C,G,g,v,R,U,y,L,u,,,,,10,8,208,4,3,0,3,0,,,,,0,33,33,30,,,,,,down,0.7672435833774216,2677.3503102020295,None,001,33,2019_Oct_16_1106,ACPT_experiment_5_30_19,3.1.0,59.948662083793025,
,,,C,G,g,v,R,G,g,L,c ,,,,,10,8,208,4,3,0,3,0,,,,,0,34,34,6,,,,,,up,0.5170752233507301,2679.4018737995575,None,001,33,2019_Oct_16_1106,ACPT_experiment_5_30_19,3.1.0,59.948662083793025,
,,,C,G,g,v,R,U,y,R,u,,,,,10,8,208,4,3,0,3,0,,,,,0,35,35,31,,,,,,down,0.5670960363022459,2681.2032424737563,None,001,33,2019_Oct_16_1106,ACPT_experiment_5_30_19,3.1.0,59.948662083793025,
,,,C,G,g,v,R,D,y,R,y,,,,,10,8,208,4,3,0,3,0,,,,,1,0,36,27,,,,,,down,0.4837494464718475,2683.0546539963734,None,001,33,2019_Oct_16_1106,ACPT_experiment_5_30_19,3.1.0,59.948662083793025,
,,,C,G,g,v,L,U,g,R,u,,,,,10,8,208,4,3,0,3,0,,,,,1,1,37,23,,,,,,up,0.46675255468016985,2684.8396137937198,None,001,33,2019_Oct_16_1106,ACPT_experiment_5_30_19,3.1.0,59.948662083793025,
,,,C,G,g,v,R,G,d,L,i,,,,,10,8,208,4,3,0,3,0,,,,,1,2,38,4,,,,,,down,0.7172285056849432,2686.5906827402823,None,001,33,2019_Oct_16_1106,ACPT_experiment_5_30_19,3.1.0,59.948662083793025,
,,,C,G,g,v,L,G,y,L,y,,,,,10,8,208,4,3,0,3,0,,,,,1,3,39,34,,,,,,down,0.6504936397486745,2688.5922107339293,None,001,33,2019_Oct_16_1106,ACPT_experiment_5_30_19,3.1.0,59.948662083793025,
,,,C,G,g,v,L,G,g,R,c ,,,,,10,8,208,4,3,0,3,0,,,,,1,4,40,19,,,,,,up,0.5670927158889754,2690.5270183507146,None,001,33,2019_Oct_16_1106,ACPT_experiment_5_30_19,3.1.0,59.948662083793025,
,,,C,G,g,v,R,U,g,L,u,,,,,10,8,208,4,3,0,3,0,,,,,1,5,41,10,,,,,,up,0.500366301914255,2692.378441041994,None,001,33,2019_Oct_16_1106,ACPT_experiment_5_30_19,3.1.0,59.948662083793025,
,,,C,G,g,v,L,D,d,R,c ,,,,,10,8,208,4,3,0,3,0,,,,,1,6,42,13,,,,,,up,0.6171458274029646,2694.1631243395022,None,001,33,2019_Oct_16_1106,ACPT_experiment_5_30_19,3.1.0,59.948662083793025,
,,,C,G,g,v,R,U,d,L,u,,,,,10,8,208,4,3,0,3,0,,,,,1,7,43,8,,,,,,up,0.4837014514132534,2696.064572371569,None,001,33,2019_Oct_16_1106,ACPT_experiment_5_30_19,3.1.0,59.948662083793025,
,,,C,G,g,v,R,U,y,L,u,,,,,10,8,208,4,3,0,3,0,,,,,1,8,44,30,,,,,,down,0.4803840570675675,2697.852576987547,None,001,33,2019_Oct_16_1106,ACPT_experiment_5_30_19,3.1.0,59.948662083793025,
,,,C,G,g,v,R,U,y,R,u,,,,,10,8,208,4,3,0,3,0,,,,,1,9,45,31,,,,,,down,0.7006840956146334,2699.6004483764846,None,001,33,2019_Oct_16_1106,ACPT_experiment_5_30_19,3.1.0,59.948662083793025,
,,,C,G,g,v,L,U,y,R,u,,,,,10,8,208,4,3,0,3,0,,,,,1,10,46,25,,,,,,down,0.7839177914065658,2701.6021294109796,None,001,33,2019_Oct_16_1106,ACPT_experiment_5_30_19,3.1.0,59.948662083793025,
,,,C,G,g,v,L,U,g,L,u,,,,,10,8,208,4,3,0,3,0,,,,,1,11,47,22,,,,,,up,0.65048488593402,2703.687052895083,None,001,33,2019_Oct_16_1106,ACPT_experiment_5_30_19,3.1.0,59.948662083793025,
,,,C,G,g,v,L,D,g,R,i,,,,,10,8,208,4,3,0,3,0,,,,,1,12,48,15,,,,,,up,0.6171295271942654,2705.6051772481687,None,001,33,2019_Oct_16_1106,ACPT_experiment_5_30_19,3.1.0,59.948662083793025,
,,,C,G,g,v,R,D,g,L,i,,,,,10,8,208,4,3,0,3,0,,,,,1,13,49,2,,,,,,up,0.4503599780373406,2707.506602641057,None,001,33,2019_Oct_16_1106,ACPT_experiment_5_30_19,3.1.0,59.948662083793025,
,,,C,G,g,v,L,D,g,L,i,,,,,10,8,208,4,3,0,3,0,,,,,1,14,50,14,,,,,,up,0.5003753575856535,2709.2412817276772,None,001,33,2019_Oct_16_1106,ACPT_experiment_5_30_19,3.1.0,59.948662083793025,
,,,C,G,g,v,R,U,d,R,u,,,,,10,8,208,4,3,0,3,0,,,,,1,15,51,9,,,,,,up,0.6502992446667122,2711.042817026232,None,001,33,2019_Oct_16_1106,ACPT_experiment_5_30_19,3.1.0,59.948662083793025,
,,,C,G,g,v,R,G,d,R,i,,,,,10,8,208,4,3,0,3,0,,,,,1,16,52,5,,,,,,up,0.4169493797016912,2712.977486393099,None,001,33,2019_Oct_16_1106,ACPT_experiment_5_30_19,3.1.0,59.948662083793025,
,,,C,G,g,v,L,U,d,R,u,,,,,10,8,208,4,3,0,3,0,,,,,1,17,53,21,,,,,,up,0.5837735647437512,2714.6787603147877,None,001,33,2019_Oct_16_1106,ACPT_experiment_5_30_19,3.1.0,59.948662083793025,
,,,C,G,g,v,L,D,y,R,y,,,,,10,8,208,4,3,0,3,0,,,,,1,18,54,33,,,,,,down,0.6004818824685572,2716.546828839658,None,001,33,2019_Oct_16_1106,ACPT_experiment_5_30_19,3.1.0,59.948662083793025,
,,,C,G,g,v,R,G,g,L,c ,,,,,10,8,208,4,3,0,3,0,,,,,1,19,55,6,,,,,,up,0.5504127726026127,2718.431622284317,None,001,33,2019_Oct_16_1106,ACPT_experiment_5_30_19,3.1.0,59.948662083793025,
,,,C,G,g,v,L,G,d,L,i,,,,,10,8,208,4,3,0,3,0,,,,,1,20,56,16,,,,,,up,0.6838489984884291,2720.266353561792,None,001,33,2019_Oct_16_1106,ACPT_experiment_5_30_19,3.1.0,59.948662083793025,
,,,C,G,g,v,R,U,g,R,u,,,,,10,8,208,4,3,0,3,0,,,,,1,21,57,11,,,,,,up,0.7505920145276832,2722.234495709272,None,001,33,2019_Oct_16_1106,ACPT_experiment_5_30_19,3.1.0,59.948662083793025,
,,,C,G,g,v,L,G,g,L,c ,,,,,10,8,208,4,3,0,3,0,,,,,1,22,58,18,,,,,,up,0.45009555242813803,2724.2863264491116,None,001,33,2019_Oct_16_1106,ACPT_experiment_5_30_19,3.1.0,59.948662083793025,
,,,C,G,g,v,R,D,d,R,c ,,,,,10,8,208,4,3,0,3,0,,,,,1,23,59,1,,,,,,up,0.5837771870128563,2726.020735073009,None,001,33,2019_Oct_16_1106,ACPT_experiment_5_30_19,3.1.0,59.948662083793025,
,,,C,G,g,v,R,D,y,L,y,,,,,10,8,208,4,3,0,3,0,,,,,1,24,60,26,,,,,,down,0.6504981675852832,2727.8888274444807,None,001,33,2019_Oct_16_1106,ACPT_experiment_5_30_19,3.1.0,59.948662083793025,
,,,C,G,g,v,R,G,g,R,c ,,,,,10,8,208,4,3,0,3,0,,,,,1,25,61,7,,,,,,up,0.600427246583422,2729.823660115291,None,001,33,2019_Oct_16_1106,ACPT_experiment_5_30_19,3.1.0,59.948662083793025,
,,,C,G,g,v,L,D,y,L,y,,,,,10,8,208,4,3,0,3,0,,,,,1,26,62,32,,,,,,down,0.5170619416985573,2731.708405866747,None,001,33,2019_Oct_16_1106,ACPT_experiment_5_30_19,3.1.0,59.948662083793025,
,,,C,G,g,v,R,D,d,L,c,,,,,10,8,208,4,3,0,3,0,,,,,1,27,63,0,,,,,,down,0.41701126012412715,2733.509777861358,None,001,33,2019_Oct_16_1106,ACPT_experiment_5_30_19,3.1.0,59.948662083793025,
,,,C,G,g,v,R,G,y,L,y,,,,,10,8,208,4,3,0,3,0,,,,,1,28,64,28,,,,,,down,0.6504897156246443,2735.211075025937,None,001,33,2019_Oct_16_1106,ACPT_experiment_5_30_19,3.1.0,59.948662083793025,
,,,C,G,g,v,L,U,y,L,u,,,,,10,8,208,4,3,0,3,0,,,,,1,29,65,24,,,,,,down,0.6471457579764319,2737.1658836026236,None,001,33,2019_Oct_16_1106,ACPT_experiment_5_30_19,3.1.0,59.948662083793025,
,,,C,G,g,v,R,D,g,R,i,,,,,10,8,208,4,3,0,3,0,,,,,1,30,66,3,,,,,,up,0.6171256030702352,2739.0973732213533,None,001,33,2019_Oct_16_1106,ACPT_experiment_5_30_19,3.1.0,59.948662083793025,
,,,C,G,g,v,L,G,d,R,i,,,,,10,8,208,4,3,0,3,0,,,,,1,31,67,17,,,,,,up,0.5670981492921783,2740.998818838574,None,001,33,2019_Oct_16_1106,ACPT_experiment_5_30_19,3.1.0,59.948662083793025,
,,,C,G,g,v,L,D,d,L,c ,,,,,10,8,208,4,3,0,3,0,,,,,1,32,68,12,,,,,,up,0.7005226028059042,2742.850257830062,None,001,33,2019_Oct_16_1106,ACPT_experiment_5_30_19,3.1.0,59.948662083793025,
,,,C,G,g,v,L,U,d,L,u,,,,,10,8,208,4,3,0,3,0,,,,,1,33,69,20,,,,,,up,0.46701516915527463,2744.8350796189734,None,001,33,2019_Oct_16_1106,ACPT_experiment_5_30_19,3.1.0,59.948662083793025,
,,,C,G,g,v,R,G,y,R,y,,,,,10,8,208,4,3,0,3,0,,,,,1,34,70,29,,,,,,down,0.6503701807596372,2746.6030980659807,None,001,33,2019_Oct_16_1106,ACPT_experiment_5_30_19,3.1.0,59.948662083793025,
,,,C,G,g,v,L,G,y,R,y,,,,,10,8,208,4,3,0,3,0,,,,,1,35,71,35,,,,,,down,0.4670073209063048,2748.53790538091,None,001,33,2019_Oct_16_1106,ACPT_experiment_5_30_19,3.1.0,59.948662083793025,
,,,C,G,g,v,,,,,,,,,,10,8,208,4,4,0,4,0,0,0,0,0,,,,,,,,,,,,,,001,33,2019_Oct_16_1106,ACPT_experiment_5_30_19,3.1.0,59.948662083793025,
,,,C,G,g,v,L,U,d,R,u,,,,,10,8,208,4,4,0,4,0,,,,,0,0,0,21,,,,,,up,0.6504827729431781,2773.023239569904,None,001,33,2019_Oct_16_1106,ACPT_experiment_5_30_19,3.1.0,59.948662083793025,
,,,C,G,g,v,L,U,y,L,u,,,,,10,8,208,4,4,0,4,0,,,,,0,1,1,24,,,,,,down,0.550554041077703,2774.95803239576,None,001,33,2019_Oct_16_1106,ACPT_experiment_5_30_19,3.1.0,59.948662083793025,
,,,C,G,g,v,R,D,y,R,y,,,,,10,8,208,4,4,0,4,0,,,,,0,2,2,27,,,,,,down,0.6171240937910625,2776.792774841896,None,001,33,2019_Oct_16_1106,ACPT_experiment_5_30_19,3.1.0,59.948662083793025,
,,,C,G,g,v,R,G,d,R,i,,,,,10,8,208,4,4,0,4,0,,,,,0,3,3,5,,,,,,up,0.48370114955741883,2778.694222572107,None,001,33,2019_Oct_16_1106,ACPT_experiment_5_30_19,3.1.0,59.948662083793025,
,,,C,G,g,v,L,G,d,R,i,,,,,10,8,208,4,4,0,4,0,,,,,0,4,4,17,,,,,,up,0.7336216860394416,2780.479182671309,None,001,33,2019_Oct_16_1106,ACPT_experiment_5_30_19,3.1.0,59.948662083793025,
,,,C,G,g,v,R,D,y,L,y,,,,,10,8,208,4,4,0,4,0,,,,,0,5,5,26,,,,,,down,0.6171056805924309,2782.4971485199567,None,001,33,2019_Oct_16_1106,ACPT_experiment_5_30_19,3.1.0,59.948662083793025,
,,,C,G,g,v,R,G,d,L,i,,,,,10,8,208,4,4,0,4,0,,,,,0,6,6,4,,,,,,down,0.5003819984112852,2784.3985690831523,None,001,33,2019_Oct_16_1106,ACPT_experiment_5_30_19,3.1.0,59.948662083793025,
,,,C,G,g,v,L,G,g,L,c ,,,,,10,8,208,4,4,0,4,0,,,,,0,7,7,18,,,,,,up,0.4336583011381663,2786.183265662313,None,001,33,2019_Oct_16_1106,ACPT_experiment_5_30_19,3.1.0,59.948662083793025,
,,,C,G,g,v,L,G,y,L,y,,,,,10,8,208,4,4,0,4,0,,,,,0,8,8,34,,,,,,down,0.4836884716169152,2787.917921204187,None,001,33,2019_Oct_16_1106,ACPT_experiment_5_30_19,3.1.0,59.948662083793025,
,,,C,G,g,v,L,D,g,L,i,,,,,10,8,208,4,4,0,4,0,,,,,0,9,9,14,,,,,,up,0.6171262067819043,2789.7026138592228,None,001,33,2019_Oct_16_1106,ACPT_experiment_5_30_19,3.1.0,59.948662083793025,
,,,C,G,g,v,L,U,g,R,u,,,,,10,8,208,4,4,0,4,0,,,,,0,10,10,23,,,,,,up,0.41697383001519484,2791.6040679284033,None,001,33,2019_Oct_16_1106,ACPT_experiment_5_30_19,3.1.0,59.948662083793025,
,,,C,G,g,v,R,G,g,R,c ,,,,,10,8,208,4,4,0,4,0,,,,,0,11,11,7,,,,,,up,0.3833507252538766,2793.3056277074575,None,001,33,2019_Oct_16_1106,ACPT_experiment_5_30_19,3.1.0,59.948662083793025,
,,,C,G,g,v,R,D,g,R,i,,,,,10,8,208,4,4,0,4,0,,,,,0,12,12,3,,,,,,up,0.45033703700300975,2794.973296635728,None,001,33,2019_Oct_16_1106,ACPT_experiment_5_30_19,3.1.0,59.948662083793025,
,,,C,G,g,v,L,D,d,R,c ,,,,,10,8,208,4,4,0,4,0,,,,,0,13,13,13,,,,,,up,0.43368305330659496,2796.707933160692,None,001,33,2019_Oct_16_1106,ACPT_experiment_5_30_19,3.1.0,59.948662083793025,
,,,C,G,g,v,L,U,y,R,u,,,,,10,8,208,4,4,0,4,0,,,,,0,14,14,25,,,,,,down,0.5504085466218385,2798.459287360909,None,001,33,2019_Oct_16_1106,ACPT_experiment_5_30_19,3.1.0,59.948662083793025,
,,,C,G,g,v,L,U,g,L,u,,,,,10,8,208,4,4,0,4,0,,,,,0,15,15,22,,,,,,up,0.5469598450390549,2800.330830245098,None,001,33,2019_Oct_16_1106,ACPT_experiment_5_30_19,3.1.0,59.948662083793025,
,,,C,G,g,v,R,U,g,R,u,,,,,10,8,208,4,4,0,4,0,,,,,0,16,16,11,,,,,,up,0.5003669056259241,2802.162120367383,None,001,33,2019_Oct_16_1106,ACPT_experiment_5_30_19,3.1.0,59.948662083793025,
,,,C,G,g,v,L,D,d,L,c ,,,,,10,8,208,4,4,0,4,0,,,,,0,17,17,12,,,,,,up,0.3836193768429439,2803.946808192726,None,001,33,2019_Oct_16_1106,ACPT_experiment_5_30_19,3.1.0,59.948662083793025,
,,,C,G,g,v,L,G,d,L,i,,,,,10,8,208,4,4,0,4,0,,,,,0,18,18,16,,,,,,up,0.41699284692458605,2805.598062508886,None,001,33,2019_Oct_16_1106,ACPT_experiment_5_30_19,3.1.0,59.948662083793025,
,,,C,G,g,v,R,U,g,L,u,,,,,10,8,208,4,4,0,4,0,,,,,0,19,19,10,,,,,,up,0.5804549629756366,2807.3193603315103,None,001,33,2019_Oct_16_1106,ACPT_experiment_5_30_19,3.1.0,59.948662083793025,
,,,C,G,g,v,R,U,y,L,u,,,,,10,8,208,4,4,0,4,0,,,,,0,20,20,30,,,,,,down,0.5504311858003348,2809.1841289696667,None,001,33,2019_Oct_16_1106,ACPT_experiment_5_30_19,3.1.0,59.948662083793025,
,,,C,G,g,v,R,U,d,L,u,,,,,10,8,208,4,4,0,4,0,,,,,0,21,21,8,,,,,,up,0.4003515411704939,2811.002157664675,None,001,33,2019_Oct_16_1106,ACPT_experiment_5_30_19,3.1.0,59.948662083793025,
,,,C,G,g,v,L,G,g,R,c ,,,,,10,8,208,4,4,0,4,0,,,,,0,22,22,19,,,,,,up,0.7672722596707899,2812.6867993362794,None,001,33,2019_Oct_16_1106,ACPT_experiment_5_30_19,3.1.0,59.948662083793025,
,,,C,G,g,v,R,G,y,R,y,,,,,10,8,208,4,4,0,4,0,,,,,0,23,23,29,,,,,,down,0.8671161700794983,2814.755220670114,None,001,33,2019_Oct_16_1106,ACPT_experiment_5_30_19,3.1.0,59.948662083793025,
,,,C,G,g,v,L,D,g,R,i,,,,,10,8,208,4,4,0,4,0,,,,,0,24,24,15,,,,,,up,0.8172991097371778,2816.9233633609338,None,001,33,2019_Oct_16_1106,ACPT_experiment_5_30_19,3.1.0,59.948662083793025,
,,,C,G,g,v,R,D,g,L,i,,,,,10,8,208,4,4,0,4,0,,,,,0,25,25,2,,,,,,up,0.5337482239556266,2819.024965882758,None,001,33,2019_Oct_16_1106,ACPT_experiment_5_30_19,3.1.0,59.948662083793025,
,,,C,G,g,v,R,D,d,L,c,,,,,10,8,208,4,4,0,4,0,,,,,0,26,26,0,,,,,,up,0.5003741501632248,2820.8430196317904,None,001,33,2019_Oct_16_1106,ACPT_experiment_5_30_19,3.1.0,59.948662083793025,
,,,C,G,g,v,R,U,d,R,u,,,,,10,8,208,4,4,0,4,0,,,,,0,27,27,9,,,,,,up,0.6338106779048758,2822.627714399816,None,001,33,2019_Oct_16_1106,ACPT_experiment_5_30_19,3.1.0,59.948662083793025,
,,,C,G,g,v,R,D,d,R,c ,,,,,10,8,208,4,4,0,4,0,,,,,0,28,28,1,,,,,,up,0.45036299659386714,2824.5458384510457,None,001,33,2019_Oct_16_1106,ACPT_experiment_5_30_19,3.1.0,59.948662083793025,
,,,C,G,g,v,R,G,y,L,y,,,,,10,8,208,4,4,0,4,0,,,,,0,29,29,28,,,,,,down,0.5504257523980414,2826.280482522403,None,001,33,2019_Oct_16_1106,ACPT_experiment_5_30_19,3.1.0,59.948662083793025,
,,,C,G,g,v,L,G,y,R,y,,,,,10,8,208,4,4,0,4,0,,,,,0,30,30,35,,,,,,down,0.6504936397486745,2828.1152246666834,None,001,33,2019_Oct_16_1106,ACPT_experiment_5_30_19,3.1.0,59.948662083793025,
,,,C,G,g,v,R,U,y,R,u,,,,,10,8,208,4,4,0,4,0,,,,,0,31,31,31,,,,,,down,0.46701939513513935,2830.050037415016,None,001,33,2019_Oct_16_1106,ACPT_experiment_5_30_19,3.1.0,59.948662083793025,
,,,C,G,g,v,L,D,y,L,y,,,,,10,8,208,4,4,0,4,0,,,,,0,32,32,32,,,,,,down,0.5504176022941465,2831.801374409457,None,001,33,2019_Oct_16_1106,ACPT_experiment_5_30_19,3.1.0,59.948662083793025,
,,,C,G,g,v,L,U,d,L,u,,,,,10,8,208,4,4,0,4,0,,,,,0,33,33,20,,,,,,up,0.7005645607505357,2833.636105686932,None,001,33,2019_Oct_16_1106,ACPT_experiment_5_30_19,3.1.0,59.948662083793025,
,,,C,G,g,v,R,G,g,L,c ,,,,,10,8,208,4,4,0,4,0,,,,,0,34,34,6,,,,,,up,0.467008528329643,2835.620952831724,None,001,33,2019_Oct_16_1106,ACPT_experiment_5_30_19,3.1.0,59.948662083793025,
,,,C,G,g,v,L,D,y,R,y,,,,,10,8,208,4,4,0,4,0,,,,,0,35,35,33,,,,,,down,0.7672312072927525,2837.388966449039,None,001,33,2019_Oct_16_1106,ACPT_experiment_5_30_19,3.1.0,59.948662083793025,
,,,C,G,g,v,L,D,g,L,i,,,,,10,8,208,4,4,0,4,0,,,,,1,0,36,14,,,,,,up,0.5803200334694338,2839.477331390188,None,001,33,2019_Oct_16_1106,ACPT_experiment_5_30_19,3.1.0,59.948662083793025,
,,,C,G,g,v,L,G,y,L,y,,,,,10,8,208,4,4,0,4,0,,,,,1,1,37,34,,,,,,down,0.5837937890773901,2841.3419487986293,None,001,33,2019_Oct_16_1106,ACPT_experiment_5_30_19,3.1.0,59.948662083793025,
,,,C,G,g,v,R,D,y,L,y,,,,,10,8,208,4,4,0,4,0,,,,,1,2,38,26,,,,,,down,0.43364441577432444,2843.2100795057777,None,001,33,2019_Oct_16_1106,ACPT_experiment_5_30_19,3.1.0,59.948662083793025,
,,,C,G,g,v,R,U,y,R,u,,,,,10,8,208,4,4,0,4,0,,,,,1,3,39,31,,,,,,down,0.7672363388401209,2844.928044539415,None,001,33,2019_Oct_16_1106,ACPT_experiment_5_30_19,3.1.0,59.948662083793025,
,,,C,G,g,v,R,D,d,L,c,,,,,10,8,208,4,4,0,4,0,,,,,1,4,40,0,,,,,,up,0.550414885592545,2846.9796051183866,None,001,33,2019_Oct_16_1106,ACPT_experiment_5_30_19,3.1.0,59.948662083793025,
,,,C,G,g,v,R,U,g,R,u,,,,,10,8,208,4,4,0,4,0,,,,,1,5,41,11,,,,,,up,0.7672695429691885,2848.8143403199856,None,001,33,2019_Oct_16_1106,ACPT_experiment_5_30_19,3.1.0,59.948662083793025,
,,,C,G,g,v,R,G,g,R,c ,,,,,10,8,208,4,4,0,4,0,,,,,1,6,42,7,,,,,,up,0.5170577157196021,2850.849224879794,None,001,33,2019_Oct_16_1106,ACPT_experiment_5_30_19,3.1.0,59.948662083793025,
,,,C,G,g,v,R,G,y,L,y,,,,,10,8,208,4,4,0,4,0,,,,,1,7,43,28,,,,,,down,0.5334644795811982,2852.6508667334174,None,001,33,2019_Oct_16_1106,ACPT_experiment_5_30_19,3.1.0,59.948662083793025,
,,,C,G,g,v,L,G,d,L,i,,,,,10,8,208,4,4,0,4,0,,,,,1,8,44,16,,,,,,up,1.3343510901977425,2854.4686424733336,None,001,33,2019_Oct_16_1106,ACPT_experiment_5_30_19,3.1.0,59.948662083793025,
,,,C,G,g,v,L,G,g,L,c ,,,,,10,8,208,4,4,0,4,0,,,,,1,9,45,18,,,,,,up,0.517077638196497,2857.0706088822253,None,001,33,2019_Oct_16_1106,ACPT_experiment_5_30_19,3.1.0,59.948662083793025,
,,,C,G,g,v,R,D,g,R,i,,,,,10,8,208,4,4,0,4,0,,,,,1,10,46,3,,,,,,up,0.4670209044143121,2858.872002912304,None,001,33,2019_Oct_16_1106,ACPT_experiment_5_30_19,3.1.0,59.948662083793025,
,,,C,G,g,v,L,U,d,L,u,,,,,10,8,208,4,4,0,4,0,,,,,1,11,47,20,,,,,,up,0.6171310364734381,2860.6233386993217,None,001,33,2019_Oct_16_1106,ACPT_experiment_5_30_19,3.1.0,59.948662083793025,
,,,C,G,g,v,R,U,d,R,u,,,,,10,8,208,4,4,0,4,0,,,,,1,12,48,9,,,,,,up,0.8005753973702667,2862.524810879846,None,001,33,2019_Oct_16_1106,ACPT_experiment_5_30_19,3.1.0,59.948662083793025,
,,,C,G,g,v,R,U,g,L,u,,,,,10,8,208,4,4,0,4,0,,,,,1,13,49,10,,,,,,up,0.5170722047942036,2864.593056533652,None,001,33,2019_Oct_16_1106,ACPT_experiment_5_30_19,3.1.0,59.948662083793025,
,,,C,G,g,v,L,G,y,R,y,,,,,10,8,208,4,4,0,4,0,,,,,1,14,50,35,,,,,,down,0.6004121537980609,2866.3944339616664,None,001,33,2019_Oct_16_1106,ACPT_experiment_5_30_19,3.1.0,59.948662083793025,
,,,C,G,g,v,R,U,y,L,u,,,,,10,8,208,4,4,0,4,0,,,,,1,15,51,30,,,,,,down,0.5003832058346234,2868.279172468585,None,001,33,2019_Oct_16_1106,ACPT_experiment_5_30_19,3.1.0,59.948662083793025,
,,,C,G,g,v,L,U,d,R,u,,,,,10,8,208,4,4,0,4,0,,,,,1,16,52,21,,,,,,up,0.7172309205298006,2870.063864218054,None,001,33,2019_Oct_16_1106,ACPT_experiment_5_30_19,3.1.0,59.948662083793025,
,,,C,G,g,v,L,D,y,L,y,,,,,10,8,208,4,4,0,4,0,,,,,1,17,53,32,,,,,,down,0.5501586100872373,2872.0823495603927,None,001,33,2019_Oct_16_1106,ACPT_experiment_5_30_19,3.1.0,59.948662083793025,
,,,C,G,g,v,R,D,d,R,c ,,,,,10,8,208,4,4,0,4,0,,,,,1,18,54,1,,,,,,up,0.6170996434784684,2873.9168260716406,None,001,33,2019_Oct_16_1106,ACPT_experiment_5_30_19,3.1.0,59.948662083793025,
