facing_vig,person_vig,text_vig,facing_train,person_train,food_train,correct_key_train,facing_exp,person_exp,food_exp,showL_R,consistent,vig_random.thisRepN,vig_random.thisTrialN,vig_random.thisN,vig_random.thisIndex,trainTrials.thisRepN,trainTrials.thisTrialN,trainTrials.thisN,trainTrials.thisIndex,expBlock.thisRepN,expBlock.thisTrialN,expBlock.thisN,expBlock.thisIndex,breakLoop.thisRepN,breakLoop.thisTrialN,breakLoop.thisN,breakLoop.thisIndex,expTrials.thisRepN,expTrials.thisTrialN,expTrials.thisN,expTrials.thisIndex,train_resp.keys,train_resp.corr,train_resp.rt,train_resp.started,train_resp.stopped,exp_resp.keys,exp_resp.rt,exp_resp.started,exp_resp.stopped,session,participant,date,expName,psychopyVersion,frameRate,
C,U,"did not report her food preferences, so her food preferences are unknown.",,,,,,,,,,0,0,0,2,,,,,,,,,,,,,,,,,,,,,,,,,,001,34,2019_Oct_16_1400,ACPT_experiment_5_30_19,3.1.0,59.95582276227594,
C,D,"is allergic to gluten, meaning she can’t eat wheat products. She enjoys eating dairy products. She thinks eating insects, like crickets, is disgusting.",,,,,,,,,,0,1,1,1,,,,,,,,,,,,,,,,,,,,,,,,,,001,34,2019_Oct_16_1400,ACPT_experiment_5_30_19,3.1.0,59.95582276227594,
C,G,"cannot eat dairy products because she is lactose intolerant. She enjoys eating wheat products. She thinks eating insects, like crickets, is disgusting.",,,,,,,,,,0,2,2,0,,,,,,,,,,,,,,,,,,,,,,,,,,001,34,2019_Oct_16_1400,ACPT_experiment_5_30_19,3.1.0,59.95582276227594,
,,,C,U,y,n,,,,,,,,,,0,0,0,8,,,,,,,,,,,,,b,0,3.636150663434819,1084.0686438014982,None,,,,,001,34,2019_Oct_16_1400,ACPT_experiment_5_30_19,3.1.0,59.95582276227594,
,,,C,D,y,b,,,,,,,,,,0,1,1,11,,,,,,,,,,,,,b,1,2.2016954631981207,1090.9905944776692,None,,,,,001,34,2019_Oct_16_1400,ACPT_experiment_5_30_19,3.1.0,59.95582276227594,
,,,C,U,d,n,,,,,,,,,,0,2,2,15,,,,,,,,,,,,,b,0,5.971241903851478,1096.4781134983532,None,,,,,001,34,2019_Oct_16_1400,ACPT_experiment_5_30_19,3.1.0,59.95582276227594,
,,,C,D,d,v,,,,,,,,,,0,3,3,18,,,,,,,,,,,,,b,0,4.286634341944591,1105.7351520945303,None,,,,,001,34,2019_Oct_16_1400,ACPT_experiment_5_30_19,3.1.0,59.95582276227594,
,,,C,D,y,b,,,,,,,,,,0,4,4,2,,,,,,,,,,,,,b,1,1.8847846908447536,1113.3076172384972,None,,,,,001,34,2019_Oct_16_1400,ACPT_experiment_5_30_19,3.1.0,59.95582276227594,
,,,C,G,y,b,,,,,,,,,,0,5,5,5,,,,,,,,,,,,,b,1,2.6187043084773904,1118.4782052624923,None,,,,,001,34,2019_Oct_16_1400,ACPT_experiment_5_30_19,3.1.0,59.95582276227594,
,,,C,U,y,n,,,,,,,,,,0,6,6,17,,,,,,,,,,,,,b,0,1.484491105973575,1124.3827204505124,None,,,,,001,34,2019_Oct_16_1400,ACPT_experiment_5_30_19,3.1.0,59.95582276227594,
,,,C,G,g,v,,,,,,,,,,0,7,7,4,,,,,,,,,,,,,v,1,9.607369022540297,1129.153019417472,None,,,,,001,34,2019_Oct_16_1400,ACPT_experiment_5_30_19,3.1.0,59.95582276227594,
,,,C,U,g,n,,,,,,,,,,0,8,8,16,,,,,,,,,,,,,b,0,3.986410757412159,1142.0462153179087,None,,,,,001,34,2019_Oct_16_1400,ACPT_experiment_5_30_19,3.1.0,59.95582276227594,
,,,C,D,d,v,,,,,,,,,,0,9,9,9,,,,,,,,,,,,,b,0,2.2183766139096406,1149.3184278991957,None,,,,,001,34,2019_Oct_16_1400,ACPT_experiment_5_30_19,3.1.0,59.95582276227594,
,,,C,G,d,b,,,,,,,,,,0,10,10,3,,,,,,,,,,,,,b,1,2.21838114174534,1154.822631089146,None,,,,,001,34,2019_Oct_16_1400,ACPT_experiment_5_30_19,3.1.0,59.95582276227594,
,,,C,D,g,b,,,,,,,,,,0,11,11,10,,,,,,,,,,,,,b,1,1.951502049147166,1160.3268327698188,None,,,,,001,34,2019_Oct_16_1400,ACPT_experiment_5_30_19,3.1.0,59.95582276227594,
,,,C,G,y,b,,,,,,,,,,0,12,12,14,,,,,,,,,,,,,b,1,1.3844205019213405,1165.5641632061415,None,,,,,001,34,2019_Oct_16_1400,ACPT_experiment_5_30_19,3.1.0,59.95582276227594,
,,,C,D,g,b,,,,,,,,,,0,13,13,1,,,,,,,,,,,,,v,0,3.6023506712226663,1170.2514521523972,None,,,,,001,34,2019_Oct_16_1400,ACPT_experiment_5_30_19,3.1.0,59.95582276227594,
,,,C,G,d,b,,,,,,,,,,0,14,14,12,,,,,,,,,,,,,v,0,3.3525632531109295,1177.139663811211,None,,,,,001,34,2019_Oct_16_1400,ACPT_experiment_5_30_19,3.1.0,59.95582276227594,
,,,C,U,d,n,,,,,,,,,,0,15,15,6,,,,,,,,,,,,,n,1,7.906052841050041,1183.7780617904682,None,,,,,001,34,2019_Oct_16_1400,ACPT_experiment_5_30_19,3.1.0,59.95582276227594,
,,,C,U,g,n,,,,,,,,,,0,16,16,7,,,,,,,,,,,,,n,1,1.284343860752415,1194.953242247364,None,,,,,001,34,2019_Oct_16_1400,ACPT_experiment_5_30_19,3.1.0,59.95582276227594,
,,,C,G,g,v,,,,,,,,,,0,17,17,19,,,,,,,,,,,,,b,0,3.582764159222279,1199.5434063995217,None,,,,,001,34,2019_Oct_16_1400,ACPT_experiment_5_30_19,3.1.0,59.95582276227594,
,,,C,G,g,v,,,,,,,,,,0,18,18,13,,,,,,,,,,,,,v,1,2.9856265362577687,1206.3953298694378,None,,,,,001,34,2019_Oct_16_1400,ACPT_experiment_5_30_19,3.1.0,59.95582276227594,
,,,C,D,d,v,,,,,,,,,,0,19,19,0,,,,,,,,,,,,,v,1,3.152428987688836,1212.666783283592,None,,,,,001,34,2019_Oct_16_1400,ACPT_experiment_5_30_19,3.1.0,59.95582276227594,
,,,C,D,d,v,,,,,,,,,,1,0,20,18,,,,,,,,,,,,,v,1,4.770366280785311,1219.0883423019695,None,,,,,001,34,2019_Oct_16_1400,ACPT_experiment_5_30_19,3.1.0,59.95582276227594,
,,,C,D,y,b,,,,,,,,,,1,1,21,11,,,,,,,,,,,,,n,0,1.60125523681927,1227.1444744857963,None,,,,,001,34,2019_Oct_16_1400,ACPT_experiment_5_30_19,3.1.0,59.95582276227594,
,,,C,G,y,b,,,,,,,,,,1,2,22,14,,,,,,,,,,,,,b,1,3.385947891854812,1232.0315430170049,None,,,,,001,34,2019_Oct_16_1400,ACPT_experiment_5_30_19,3.1.0,59.95582276227594,
,,,C,G,d,b,,,,,,,,,,1,3,23,3,,,,,,,,,,,,,b,1,3.352593136827636,1238.703290317886,None,,,,,001,34,2019_Oct_16_1400,ACPT_experiment_5_30_19,3.1.0,59.95582276227594,
,,,C,G,y,b,,,,,,,,,,1,4,24,5,,,,,,,,,,,,,b,1,1.01746476815606,1245.34171818086,None,,,,,001,34,2019_Oct_16_1400,ACPT_experiment_5_30_19,3.1.0,59.95582276227594,
,,,C,D,d,v,,,,,,,,,,1,5,25,0,,,,,,,,,,,,,v,1,2.3184381622904766,1249.661693090613,None,,,,,001,34,2019_Oct_16_1400,ACPT_experiment_5_30_19,3.1.0,59.95582276227594,
,,,C,U,y,n,,,,,,,,,,1,6,26,17,,,,,,,,,,,,,n,1,1.9181629906161106,1255.2659385101779,None,,,,,001,34,2019_Oct_16_1400,ACPT_experiment_5_30_19,3.1.0,59.95582276227594,
,,,C,G,d,b,,,,,,,,,,1,7,27,12,,,,,,,,,,,,,b,1,2.702075046765458,1260.4699262657032,None,,,,,001,34,2019_Oct_16_1400,ACPT_experiment_5_30_19,3.1.0,59.95582276227594,
,,,C,D,d,v,,,,,,,,,,1,8,28,9,,,,,,,,,,,,,v,1,1.9014492394890112,1266.4578475091312,None,,,,,001,34,2019_Oct_16_1400,ACPT_experiment_5_30_19,3.1.0,59.95582276227594,
,,,C,G,g,v,,,,,,,,,,1,9,29,4,,,,,,,,,,,,,v,1,2.785457557425616,1271.6451679993097,None,,,,,001,34,2019_Oct_16_1400,ACPT_experiment_5_30_19,3.1.0,59.95582276227594,
,,,C,U,d,n,,,,,,,,,,1,10,30,15,,,,,,,,,,,,,n,1,2.501921764431245,1277.7164252676175,None,,,,,001,34,2019_Oct_16_1400,ACPT_experiment_5_30_19,3.1.0,59.95582276227594,
,,,C,U,y,n,,,,,,,,,,1,11,31,8,,,,,,,,,,,,,n,1,0.8506596000224818,1283.5041772303593,None,,,,,001,34,2019_Oct_16_1400,ACPT_experiment_5_30_19,3.1.0,59.95582276227594,
,,,C,G,g,v,,,,,,,,,,1,12,32,19,,,,,,,,,,,,,v,1,1.7509113778778556,1287.6577580994672,None,,,,,001,34,2019_Oct_16_1400,ACPT_experiment_5_30_19,3.1.0,59.95582276227594,
,,,C,U,g,n,,,,,,,,,,1,13,33,7,,,,,,,,,,,,,n,1,1.7513478612454492,1292.6945268426698,None,,,,,001,34,2019_Oct_16_1400,ACPT_experiment_5_30_19,3.1.0,59.95582276227594,
,,,C,U,g,n,,,,,,,,,,1,14,34,16,,,,,,,,,,,,,n,1,1.63459127679198,1297.7150231478045,None,,,,,001,34,2019_Oct_16_1400,ACPT_experiment_5_30_19,3.1.0,59.95582276227594,
,,,C,D,g,b,,,,,,,,,,1,15,35,1,,,,,,,,,,,,,b,1,1.6012356161973003,1302.635444622907,None,,,,,001,34,2019_Oct_16_1400,ACPT_experiment_5_30_19,3.1.0,59.95582276227594,
,,,C,G,g,v,,,,,,,,,,1,16,36,13,,,,,,,,,,,,,v,1,1.534542406350738,1307.5224808555558,None,,,,,001,34,2019_Oct_16_1400,ACPT_experiment_5_30_19,3.1.0,59.95582276227594,
,,,C,D,g,b,,,,,,,,,,1,17,37,10,,,,,,,,,,,,,b,1,1.984863445000883,1312.3428492342373,None,,,,,001,34,2019_Oct_16_1400,ACPT_experiment_5_30_19,3.1.0,59.95582276227594,
,,,C,D,y,b,,,,,,,,,,1,18,38,2,,,,,,,,,,,,,b,1,2.0682864043265,1317.5968324468322,None,,,,,001,34,2019_Oct_16_1400,ACPT_experiment_5_30_19,3.1.0,59.95582276227594,
,,,C,U,d,n,,,,,,,,,,1,19,39,6,,,,,,,,,,,,,n,1,1.0841537520209386,1322.9509641422574,None,,,,,001,34,2019_Oct_16_1400,ACPT_experiment_5_30_19,3.1.0,59.95582276227594,
,,,C,D,d,v,,,,,,,,,,2,0,40,9,,,,,,,,,,,,,v,1,2.7685904635927727,1327.3378701241618,None,,,,,001,34,2019_Oct_16_1400,ACPT_experiment_5_30_19,3.1.0,59.95582276227594,
,,,C,G,d,b,,,,,,,,,,2,1,41,12,,,,,,,,,,,,,b,1,1.7846911457581882,1333.3922627134834,None,,,,,001,34,2019_Oct_16_1400,ACPT_experiment_5_30_19,3.1.0,59.95582276227594,
,,,C,U,g,n,,,,,,,,,,2,2,42,16,,,,,,,,,,,,,n,1,2.0515961979454005,1338.4627768130122,None,,,,,001,34,2019_Oct_16_1400,ACPT_experiment_5_30_19,3.1.0,59.95582276227594,
,,,C,D,g,b,,,,,,,,,,2,3,43,10,,,,,,,,,,,,,b,1,4.6702564354891365,1343.800183588648,None,,,,,001,34,2019_Oct_16_1400,ACPT_experiment_5_30_19,3.1.0,59.95582276227594,
,,,C,G,y,b,,,,,,,,,,2,4,44,5,,,,,,,,,,,,,b,1,2.485251178672115,1351.756260261207,None,,,,,001,34,2019_Oct_16_1400,ACPT_experiment_5_30_19,3.1.0,59.95582276227594,
,,,C,G,y,b,,,,,,,,,,2,5,45,14,,,,,,,,,,,,,b,1,1.884828158068558,1357.5106281889166,None,,,,,001,34,2019_Oct_16_1400,ACPT_experiment_5_30_19,3.1.0,59.95582276227594,
,,,C,G,g,v,,,,,,,,,,2,6,46,19,,,,,,,,,,,,,v,1,1.7013192000467825,1362.664578529424,None,,,,,001,34,2019_Oct_16_1400,ACPT_experiment_5_30_19,3.1.0,59.95582276227594,
,,,C,G,g,v,,,,,,,,,,2,7,47,13,,,,,,,,,,,,,v,1,2.6020077631237655,1367.6350298731504,None,,,,,001,34,2019_Oct_16_1400,ACPT_experiment_5_30_19,3.1.0,59.95582276227594,
,,,C,U,d,n,,,,,,,,,,2,8,48,6,,,,,,,,,,,,,n,1,1.501148711937276,1373.522871154999,None,,,,,001,34,2019_Oct_16_1400,ACPT_experiment_5_30_19,3.1.0,59.95582276227594,
,,,C,D,g,b,,,,,,,,,,2,9,49,1,,,,,,,,,,,,,b,1,1.7346664086799137,1378.3098591209164,None,,,,,001,34,2019_Oct_16_1400,ACPT_experiment_5_30_19,3.1.0,59.95582276227594,
,,,C,U,y,n,,,,,,,,,,2,10,50,17,,,,,,,,,,,,,n,1,1.1008777662427747,1383.3303279571828,None,,,,,001,34,2019_Oct_16_1400,ACPT_experiment_5_30_19,3.1.0,59.95582276227594,
,,,C,U,g,n,,,,,,,,,,2,11,51,7,,,,,,,,,,,,,n,1,1.2676376560193603,1387.7170389402927,None,,,,,001,34,2019_Oct_16_1400,ACPT_experiment_5_30_19,3.1.0,59.95582276227594,
,,,C,D,y,b,,,,,,,,,,2,12,52,11,,,,,,,,,,,,,b,1,1.6179158613413165,1392.27050045565,None,,,,,001,34,2019_Oct_16_1400,ACPT_experiment_5_30_19,3.1.0,59.95582276227594,
,,,C,G,g,v,,,,,,,,,,2,13,53,4,,,,,,,,,,,,,v,1,1.4010977285070112,1397.1742450060228,None,,,,,001,34,2019_Oct_16_1400,ACPT_experiment_5_30_19,3.1.0,59.95582276227594,
,,,C,G,d,b,,,,,,,,,,2,14,54,3,,,,,,,,,,,,,b,1,1.600970285022413,1401.8614150211251,None,,,,,001,34,2019_Oct_16_1400,ACPT_experiment_5_30_19,3.1.0,59.95582276227594,
,,,C,U,d,n,,,,,,,,,,2,15,55,15,,,,,,,,,,,,,n,1,1.5845544654875994,1406.748216108168,None,,,,,001,34,2019_Oct_16_1400,ACPT_experiment_5_30_19,3.1.0,59.95582276227594,
,,,C,U,y,n,,,,,,,,,,2,16,56,8,,,,,,,,,,,,,n,1,1.4177583530272386,1411.6019172064098,None,,,,,001,34,2019_Oct_16_1400,ACPT_experiment_5_30_19,3.1.0,59.95582276227594,
,,,C,D,d,v,,,,,,,,,,2,17,57,18,,,,,,,,,,,,,v,1,1.7175750360474922,1416.3225947155315,None,,,,,001,34,2019_Oct_16_1400,ACPT_experiment_5_30_19,3.1.0,59.95582276227594,
,,,C,D,d,v,,,,,,,,,,2,18,58,0,,,,,,,,,,,,,v,1,3.11907483637151,1421.325977310713,None,,,,,001,34,2019_Oct_16_1400,ACPT_experiment_5_30_19,3.1.0,59.95582276227594,
,,,C,D,y,b,,,,,,,,,,2,19,59,2,,,,,,,,,,,,,b,1,1.3176910693873651,1427.7308802324042,None,,,,,001,34,2019_Oct_16_1400,ACPT_experiment_5_30_19,3.1.0,59.95582276227594,
,,,C,D,y,b,,,,,,,,,,3,0,60,11,,,,,,,,,,,,,b,1,1.3674806608596555,1432.3513171927043,None,,,,,001,34,2019_Oct_16_1400,ACPT_experiment_5_30_19,3.1.0,59.95582276227594,
,,,C,D,d,v,,,,,,,,,,3,1,61,0,,,,,,,,,,,,,v,1,1.3510343538964662,1437.0046277500187,None,,,,,001,34,2019_Oct_16_1400,ACPT_experiment_5_30_19,3.1.0,59.95582276227594,
,,,C,U,g,n,,,,,,,,,,3,2,62,7,,,,,,,,,,,,,n,1,1.4844802391671692,1441.641493509649,None,,,,,001,34,2019_Oct_16_1400,ACPT_experiment_5_30_19,3.1.0,59.95582276227594,
,,,C,G,g,v,,,,,,,,,,3,3,63,13,,,,,,,,,,,,,v,1,1.7346679179590865,1446.4118024378458,None,,,,,001,34,2019_Oct_16_1400,ACPT_experiment_5_30_19,3.1.0,59.95582276227594,
,,,C,U,d,n,,,,,,,,,,3,4,64,15,,,,,,,,,,,,,n,1,1.5011562583295017,1451.4322960262798,None,,,,,001,34,2019_Oct_16_1400,ACPT_experiment_5_30_19,3.1.0,59.95582276227594,
,,,C,D,y,b,,,,,,,,,,3,5,65,2,,,,,,,,,,,,,b,1,1.567909235607658,1456.2192818792082,None,,,,,001,34,2019_Oct_16_1400,ACPT_experiment_5_30_19,3.1.0,59.95582276227594,
,,,C,U,y,n,,,,,,,,,,3,6,66,17,,,,,,,,,,,,,n,1,1.2842925452805503,1461.0730077296193,None,,,,,001,34,2019_Oct_16_1400,ACPT_experiment_5_30_19,3.1.0,59.95582276227594,
,,,C,D,d,v,,,,,,,,,,3,7,67,18,,,,,,,,,,,,,v,1,1.6679861786305992,1465.6431247379514,None,,,,,001,34,2019_Oct_16_1400,ACPT_experiment_5_30_19,3.1.0,59.95582276227594,
,,,C,D,g,b,,,,,,,,,,3,8,68,10,,,,,,,,,,,,,b,1,1.1508940513595007,1470.5802340045902,None,,,,,001,34,2019_Oct_16_1400,ACPT_experiment_5_30_19,3.1.0,59.95582276227594,
,,,C,D,d,v,,,,,,,,,,3,9,69,9,,,,,,,,,,,,,v,1,1.7844457370592863,1475.0338959823293,None,,,,,001,34,2019_Oct_16_1400,ACPT_experiment_5_30_19,3.1.0,59.95582276227594,
,,,C,G,d,b,,,,,,,,,,3,10,70,12,,,,,,,,,,,,,b,1,1.7013065221053694,1480.1041701065642,None,,,,,001,34,2019_Oct_16_1400,ACPT_experiment_5_30_19,3.1.0,59.95582276227594,
,,,C,U,d,n,,,,,,,,,,3,11,71,6,,,,,,,,,,,,,n,1,1.5845589933232986,1485.091301393577,None,,,,,001,34,2019_Oct_16_1400,ACPT_experiment_5_30_19,3.1.0,59.95582276227594,
,,,C,U,g,n,,,,,,,,,,3,12,72,16,,,,,,,,,,,,,n,1,1.9848522763386427,1489.945010038211,None,,,,,001,34,2019_Oct_16_1400,ACPT_experiment_5_30_19,3.1.0,59.95582276227594,
,,,C,D,g,b,,,,,,,,,,3,13,73,1,,,,,,,,,,,,,b,1,1.8847967650726787,1495.215675307085,None,,,,,001,34,2019_Oct_16_1400,ACPT_experiment_5_30_19,3.1.0,59.95582276227594,
,,,C,G,y,b,,,,,,,,,,3,14,74,14,,,,,,,,,,,,,b,1,1.634588560089469,1500.3863043834572,None,,,,,001,34,2019_Oct_16_1400,ACPT_experiment_5_30_19,3.1.0,59.95582276227594,
,,,C,G,y,b,,,,,,,,,,3,15,75,5,,,,,,,,,,,,,b,1,1.6512941611126735,1505.2900202575365,None,,,,,001,34,2019_Oct_16_1400,ACPT_experiment_5_30_19,3.1.0,59.95582276227594,
,,,C,U,y,n,,,,,,,,,,3,16,76,8,,,,,,,,,,,,,n,1,1.6512515994581918,1510.2271388817026,None,,,,,001,34,2019_Oct_16_1400,ACPT_experiment_5_30_19,3.1.0,59.95582276227594,
,,,C,G,d,b,,,,,,,,,,3,17,77,3,,,,,,,,,,,,,b,1,1.8181195535798906,1515.164213736789,None,,,,,001,34,2019_Oct_16_1400,ACPT_experiment_5_30_19,3.1.0,59.95582276227594,
,,,C,G,g,v,,,,,,,,,,3,18,78,19,,,,,,,,,,,,,v,1,1.8514308413832623,1520.2514723767308,None,,,,,001,34,2019_Oct_16_1400,ACPT_experiment_5_30_19,3.1.0,59.95582276227594,
,,,C,G,g,v,,,,,,,,,,3,19,79,4,,,,,,,,,,,,,v,1,1.1341978078635293,1525.372036569217,None,,,,,001,34,2019_Oct_16_1400,ACPT_experiment_5_30_19,3.1.0,59.95582276227594,
,,,C,G,y,b,,,,,,,,,,4,0,80,5,,,,,,,,,,,,,b,1,1.5176031690007221,1529.79233383069,None,,,,,001,34,2019_Oct_16_1400,ACPT_experiment_5_30_19,3.1.0,59.95582276227594,
,,,C,U,d,n,,,,,,,,,,4,1,81,6,,,,,,,,,,,,,n,1,1.2009227125599864,1534.5957309753157,None,,,,,001,34,2019_Oct_16_1400,ACPT_experiment_5_30_19,3.1.0,59.95582276227594,
,,,C,U,d,n,,,,,,,,,,4,2,82,15,,,,,,,,,,,,,n,1,1.2343136902745755,1539.082480565774,None,,,,,001,34,2019_Oct_16_1400,ACPT_experiment_5_30_19,3.1.0,59.95582276227594,
,,,C,D,g,b,,,,,,,,,,4,3,83,1,,,,,,,,,,,,,b,1,1.2509658628332545,1543.602595778064,None,,,,,001,34,2019_Oct_16_1400,ACPT_experiment_5_30_19,3.1.0,59.95582276227594,
,,,C,D,y,b,,,,,,,,,,4,4,84,11,,,,,,,,,,,,,b,1,1.5678530904442596,1548.1394108561199,None,,,,,001,34,2019_Oct_16_1400,ACPT_experiment_5_30_19,3.1.0,59.95582276227594,
,,,C,G,g,v,,,,,,,,,,4,5,85,13,,,,,,,,,,,,,v,1,1.4844895966944023,1552.9930736186852,None,,,,,001,34,2019_Oct_16_1400,ACPT_experiment_5_30_19,3.1.0,59.95582276227594,
,,,C,U,y,n,,,,,,,,,,4,6,86,8,,,,,,,,,,,,,n,1,1.5678576182799588,1557.7634042804948,None,,,,,001,34,2019_Oct_16_1400,ACPT_experiment_5_30_19,3.1.0,59.95582276227594,
,,,C,G,g,v,,,,,,,,,,4,7,87,19,,,,,,,,,,,,,v,1,2.051625477950438,1562.6170703634725,None,,,,,001,34,2019_Oct_16_1400,ACPT_experiment_5_30_19,3.1.0,59.95582276227594,
,,,C,U,g,n,,,,,,,,,,4,8,88,16,,,,,,,,,,,,,n,1,1.2176050706930255,1567.954501287566,None,,,,,001,34,2019_Oct_16_1400,ACPT_experiment_5_30_19,3.1.0,59.95582276227594,
,,,C,D,d,v,,,,,,,,,,4,9,89,9,,,,,,,,,,,,,v,1,1.6677108862149908,1572.4748504380368,None,,,,,001,34,2019_Oct_16_1400,ACPT_experiment_5_30_19,3.1.0,59.95582276227594,
,,,C,G,d,b,,,,,,,,,,4,10,90,12,,,,,,,,,,,,,b,1,1.9014015462853422,1577.4284407250452,None,,,,,001,34,2019_Oct_16_1400,ACPT_experiment_5_30_19,3.1.0,59.95582276227594,
,,,C,D,y,b,,,,,,,,,,4,11,91,2,,,,,,,,,,,,,b,1,1.3677299936825875,1582.6156797141775,None,,,,,001,34,2019_Oct_16_1400,ACPT_experiment_5_30_19,3.1.0,59.95582276227594,
,,,C,G,y,b,,,,,,,,,,4,12,92,14,,,,,,,,,,,,,b,1,1.4008354158868315,1587.2861528820722,None,,,,,001,34,2019_Oct_16_1400,ACPT_experiment_5_30_19,3.1.0,59.95582276227594,
,,,C,D,d,v,,,,,,,,,,4,13,93,18,,,,,,,,,,,,,v,1,1.4010838431422599,1591.9728145721456,None,,,,,001,34,2019_Oct_16_1400,ACPT_experiment_5_30_19,3.1.0,59.95582276227594,
,,,C,U,y,n,,,,,,,,,,4,14,94,17,,,,,,,,,,,,,n,1,1.484294899755696,1596.6765676348477,None,,,,,001,34,2019_Oct_16_1400,ACPT_experiment_5_30_19,3.1.0,59.95582276227594,
,,,C,G,d,b,,,,,,,,,,4,15,95,3,,,,,,,,,,,,,b,1,1.9181388421602605,1601.4467117498243,None,,,,,001,34,2019_Oct_16_1400,ACPT_experiment_5_30_19,3.1.0,59.95582276227594,
,,,C,D,g,b,,,,,,,,,,4,16,96,10,,,,,,,,,,,,,b,1,1.6346108974139497,1606.650688940399,None,,,,,001,34,2019_Oct_16_1400,ACPT_experiment_5_30_19,3.1.0,59.95582276227594,
,,,C,G,g,v,,,,,,,,,,4,17,97,4,,,,,,,,,,,,,v,1,1.9181409551511024,1611.5710956245712,None,,,,,001,34,2019_Oct_16_1400,ACPT_experiment_5_30_19,3.1.0,59.95582276227594,
,,,C,D,d,v,,,,,,,,,,4,18,98,0,,,,,,,,,,,,,v,1,1.784698692148595,1616.7750643631844,None,,,,,001,34,2019_Oct_16_1400,ACPT_experiment_5_30_19,3.1.0,59.95582276227594,
,,,C,U,g,n,,,,,,,,,,4,19,99,7,,,,,,,,,,,,,n,1,1.3844023905749054,1621.8455917443662,None,,,,,001,34,2019_Oct_16_1400,ACPT_experiment_5_30_19,3.1.0,59.95582276227594,
,,,C,G,g,v,,,,,,,,,,5,0,100,13,,,,,,,,,,,,,v,1,1.200679718705942,1626.5327481759614,None,,,,,001,34,2019_Oct_16_1400,ACPT_experiment_5_30_19,3.1.0,59.95582276227594,
,,,C,G,g,v,,,,,,,,,,5,1,101,4,,,,,,,,,,,,,v,1,1.4344446352843079,1631.0025790552572,None,,,,,001,34,2019_Oct_16_1400,ACPT_experiment_5_30_19,3.1.0,59.95582276227594,
,,,C,G,y,b,,,,,,,,,,5,2,102,14,,,,,,,,,,,,,b,1,1.3311556455610116,1635.7428442838027,None,,,,,001,34,2019_Oct_16_1400,ACPT_experiment_5_30_19,3.1.0,59.95582276227594,
,,,C,D,g,b,,,,,,,,,,5,3,103,10,,,,,,,,,,,,,b,1,1.2509906150025927,1640.3596903684775,None,,,,,001,34,2019_Oct_16_1400,ACPT_experiment_5_30_19,3.1.0,59.95582276227594,
,,,C,U,y,n,,,,,,,,,,5,4,104,8,,,,,,,,,,,,,n,1,1.2509827667563513,1644.8965190300405,None,,,,,001,34,2019_Oct_16_1400,ACPT_experiment_5_30_19,3.1.0,59.95582276227594,
,,,C,D,y,b,,,,,,,,,,5,5,105,2,,,,,,,,,,,,,b,1,1.868102030854061,1649.4332975835532,None,,,,,001,34,2019_Oct_16_1400,ACPT_experiment_5_30_19,3.1.0,59.95582276227594,
,,,C,D,y,b,,,,,,,,,,5,6,106,11,,,,,,,,,,,,,b,1,1.5512084642759874,1654.5705281358205,None,,,,,001,34,2019_Oct_16_1400,ACPT_experiment_5_30_19,3.1.0,59.95582276227594,
,,,C,D,d,v,,,,,,,,,,5,7,107,0,,,,,,,,,,,,,v,1,1.3510503522502404,1659.3908841384182,None,,,,,001,34,2019_Oct_16_1400,ACPT_experiment_5_30_19,3.1.0,59.95582276227594,
,,,C,G,d,b,,,,,,,,,,5,8,108,3,,,,,,,,,,,,,b,1,2.0177708498522406,1664.0448605894453,None,,,,,001,34,2019_Oct_16_1400,ACPT_experiment_5_30_19,3.1.0,59.95582276227594,
,,,C,U,y,n,,,,,,,,,,5,9,109,17,,,,,,,,,,,,,n,1,1.351045220704691,1669.348483069365,None,,,,,001,34,2019_Oct_16_1400,ACPT_experiment_5_30_19,3.1.0,59.95582276227594,
,,,C,G,d,b,,,,,,,,,,5,10,110,12,,,,,,,,,,,,,b,1,2.0846708308672532,1674.002300744285,None,,,,,001,34,2019_Oct_16_1400,ACPT_experiment_5_30_19,3.1.0,59.95582276227594,
,,,C,D,g,b,,,,,,,,,,5,11,111,1,,,,,,,,,,,,,b,1,2.301771500653558,1679.3727921140799,None,,,,,001,34,2019_Oct_16_1400,ACPT_experiment_5_30_19,3.1.0,59.95582276227594,
,,,C,G,g,v,,,,,,,,,,5,12,112,19,,,,,,,,,,,,,v,1,1.6345897675146261,1684.9603883796408,None,,,,,001,34,2019_Oct_16_1400,ACPT_experiment_5_30_19,3.1.0,59.95582276227594,
,,,C,D,d,v,,,,,,,,,,5,13,113,18,,,,,,,,,,,,,v,1,1.4844871818477259,1689.8808050250518,None,,,,,001,34,2019_Oct_16_1400,ACPT_experiment_5_30_19,3.1.0,59.95582276227594,
,,,C,U,d,n,,,,,,,,,,5,14,114,15,,,,,,,,,,,,,n,1,1.2843194104407303,1694.6511118402595,None,,,,,001,34,2019_Oct_16_1400,ACPT_experiment_5_30_19,3.1.0,59.95582276227594,
,,,C,G,y,b,,,,,,,,,,5,15,115,5,,,,,,,,,,,,,b,1,1.534249304449986,1699.2382052141947,None,,,,,001,34,2019_Oct_16_1400,ACPT_experiment_5_30_19,3.1.0,59.95582276227594,
,,,C,U,d,n,,,,,,,,,,5,16,116,6,,,,,,,,,,,,,n,1,2.485238500732521,1704.058285622521,None,,,,,001,34,2019_Oct_16_1400,ACPT_experiment_5_30_19,3.1.0,59.95582276227594,
,,,C,U,g,n,,,,,,,,,,5,17,117,16,,,,,,,,,,,,,n,1,1.384409333257281,1709.8126653226027,None,,,,,001,34,2019_Oct_16_1400,ACPT_experiment_5_30_19,3.1.0,59.95582276227594,
,,,C,U,g,n,,,,,,,,,,5,18,118,7,,,,,,,,,,,,,n,1,1.100790831796985,1714.4662777356352,None,,,,,001,34,2019_Oct_16_1400,ACPT_experiment_5_30_19,3.1.0,59.95582276227594,
,,,C,D,d,v,,,,,,,,,,5,19,119,9,0,0,0,0,0,0,0,0,,,,,v,1,1.4010775041733723,1718.852902388011,None,,,,,001,34,2019_Oct_16_1400,ACPT_experiment_5_30_19,3.1.0,59.95582276227594,
,,,C,D,d,v,R,U,d,R,u,,,,,5,19,119,9,0,0,0,0,,,,,0,0,0,9,,,,,,up,1.3510201666795183,1814.2589913008196,None,001,34,2019_Oct_16_1400,ACPT_experiment_5_30_19,3.1.0,59.95582276227594,
,,,C,D,d,v,L,D,g,R,i,,,,,5,19,119,9,0,0,0,0,,,,,0,1,1,15,,,,,,up,0.8339947495223896,1816.89431518144,None,001,34,2019_Oct_16_1400,ACPT_experiment_5_30_19,3.1.0,59.95582276227594,
,,,C,D,d,v,L,G,y,L,y,,,,,5,19,119,9,0,0,0,0,,,,,0,2,2,34,,,,,,down,0.8006297314004769,1819.012583157477,None,001,34,2019_Oct_16_1400,ACPT_experiment_5_30_19,3.1.0,59.95582276227594,
,,,C,D,d,v,R,G,g,R,c ,,,,,5,19,119,9,0,0,0,0,,,,,0,3,3,7,,,,,,up,0.5504173004374024,1821.0975274696248,None,001,34,2019_Oct_16_1400,ACPT_experiment_5_30_19,3.1.0,59.95582276227594,
,,,C,D,d,v,R,G,y,R,y,,,,,5,19,119,9,0,0,0,0,,,,,0,4,4,29,,,,,,down,0.6337889442929736,1822.9322747454517,None,001,34,2019_Oct_16_1400,ACPT_experiment_5_30_19,3.1.0,59.95582276227594,
,,,C,D,d,v,R,U,d,L,u,,,,,5,19,119,9,0,0,0,0,,,,,0,5,5,8,,,,,,up,0.7839497881122952,1824.850364083275,None,001,34,2019_Oct_16_1400,ACPT_experiment_5_30_19,3.1.0,59.95582276227594,
,,,C,D,d,v,L,G,d,L,i,,,,,5,19,119,9,0,0,0,0,,,,,0,6,6,16,,,,,,up,0.8006285239771387,1826.9186465634775,None,001,34,2019_Oct_16_1400,ACPT_experiment_5_30_19,3.1.0,59.95582276227594,
,,,C,D,d,v,L,G,y,R,y,,,,,5,19,119,9,0,0,0,0,,,,,0,7,7,35,,,,,,down,0.7505844681345479,1829.003534730462,None,001,34,2019_Oct_16_1400,ACPT_experiment_5_30_19,3.1.0,59.95582276227594,
,,,C,D,d,v,R,U,y,L,u,,,,,5,19,119,9,0,0,0,0,,,,,0,8,8,30,,,,,,down,0.8840225051553716,1831.0550974224243,None,001,34,2019_Oct_16_1400,ACPT_experiment_5_30_19,3.1.0,59.95582276227594,
,,,C,D,d,v,L,G,d,R,i,,,,,5,19,119,9,0,0,0,0,,,,,0,9,9,17,,,,,,up,0.6838731469451886,1833.223413378426,None,001,34,2019_Oct_16_1400,ACPT_experiment_5_30_19,3.1.0,59.95582276227594,
,,,C,D,d,v,R,D,d,L,c,,,,,5,19,119,9,0,0,0,0,,,,,0,10,10,0,,,,,,up,0.9173691100768337,1835.1915893337464,None,001,34,2019_Oct_16_1400,ACPT_experiment_5_30_19,3.1.0,59.95582276227594,
,,,C,D,d,v,R,G,g,L,c ,,,,,5,19,119,9,0,0,0,0,,,,,0,11,11,6,,,,,,up,0.6671735830368561,1837.3932811746763,None,001,34,2019_Oct_16_1400,ACPT_experiment_5_30_19,3.1.0,59.95582276227594,
,,,C,D,d,v,R,D,y,L,y,,,,,5,19,119,9,0,0,0,0,,,,,0,12,12,26,,,,,,down,0.7672517334813165,1839.3447678291832,None,001,34,2019_Oct_16_1400,ACPT_experiment_5_30_19,3.1.0,59.95582276227594,
,,,C,D,d,v,L,D,d,R,c ,,,,,5,19,119,9,0,0,0,0,,,,,0,13,13,13,,,,,,up,0.6338130927506427,1841.3963362564027,None,001,34,2019_Oct_16_1400,ACPT_experiment_5_30_19,3.1.0,59.95582276227594,
,,,C,D,d,v,L,G,g,L,c ,,,,,5,19,119,9,0,0,0,0,,,,,0,14,14,18,,,,,,up,0.7505708846274501,1843.314463628045,None,001,34,2019_Oct_16_1400,ACPT_experiment_5_30_19,3.1.0,59.95582276227594,
,,,C,D,d,v,L,U,d,R,u,,,,,5,19,119,9,0,0,0,0,,,,,0,15,15,21,,,,,,up,0.7339144860852684,1845.3493219264074,None,001,34,2019_Oct_16_1400,ACPT_experiment_5_30_19,3.1.0,59.95582276227594,
,,,C,D,d,v,R,D,d,R,c ,,,,,5,19,119,9,0,0,0,0,,,,,0,16,16,1,,,,,,up,0.6838529226115497,1847.3675534080867,None,001,34,2019_Oct_16_1400,ACPT_experiment_5_30_19,3.1.0,59.95582276227594,
,,,C,D,d,v,R,D,g,L,i,,,,,5,19,119,9,0,0,0,0,,,,,0,17,17,2,,,,,,up,0.6671741867485252,1849.3357175910332,None,001,34,2019_Oct_16_1400,ACPT_experiment_5_30_19,3.1.0,59.95582276227594,
,,,C,D,d,v,R,G,d,R,i,,,,,5,19,119,9,0,0,0,0,,,,,0,18,18,5,,,,,,up,0.6004969752557372,1851.2872072640967,None,001,34,2019_Oct_16_1400,ACPT_experiment_5_30_19,3.1.0,59.95582276227594,
,,,C,D,d,v,L,D,y,L,y,,,,,5,19,119,9,0,0,0,0,,,,,0,19,19,32,,,,,,down,0.9171774316964729,1853.205491298857,None,001,34,2019_Oct_16_1400,ACPT_experiment_5_30_19,3.1.0,59.95582276227594,
,,,C,D,d,v,L,D,y,R,y,,,,,5,19,119,9,0,0,0,0,,,,,0,20,20,33,,,,,,down,0.6839398570591584,1855.4236949494407,None,001,34,2019_Oct_16_1400,ACPT_experiment_5_30_19,3.1.0,59.95582276227594,
,,,C,D,d,v,R,D,g,R,i,,,,,5,19,119,9,0,0,0,0,,,,,0,21,21,3,,,,,,up,0.700539204870438,1857.3918600379548,None,001,34,2019_Oct_16_1400,ACPT_experiment_5_30_19,3.1.0,59.95582276227594,
,,,C,D,d,v,R,G,d,L,i,,,,,5,19,119,9,0,0,0,0,,,,,0,22,22,4,,,,,,up,0.6505259383102384,1859.376685449135,None,001,34,2019_Oct_16_1400,ACPT_experiment_5_30_19,3.1.0,59.95582276227594,
,,,C,D,d,v,L,U,y,L,u,,,,,5,19,119,9,0,0,0,0,,,,,0,23,23,24,,,,,,down,0.9674038083921914,1861.311515101388,None,001,34,2019_Oct_16_1400,ACPT_experiment_5_30_19,3.1.0,59.95582276227594,
,,,C,D,d,v,L,U,d,L,u,,,,,5,19,119,9,0,0,0,0,,,,,0,24,24,20,,,,,,up,0.767281617198023,1863.5632334905295,None,001,34,2019_Oct_16_1400,ACPT_experiment_5_30_19,3.1.0,59.95582276227594,
,,,C,D,d,v,L,U,g,L,u,,,,,5,19,119,9,0,0,0,0,,,,,0,25,25,22,,,,,,up,0.7170920668995677,1865.5981231818841,None,001,34,2019_Oct_16_1400,ACPT_experiment_5_30_19,3.1.0,59.95582276227594,
,,,C,D,d,v,L,D,g,L,i,,,,,5,19,119,9,0,0,0,0,,,,,0,26,26,14,,,,,,up,0.5170634509777301,1867.5996442328506,None,001,34,2019_Oct_16_1400,ACPT_experiment_5_30_19,3.1.0,59.95582276227594,
,,,C,D,d,v,L,D,d,L,c ,,,,,5,19,119,9,0,0,0,0,,,,,0,27,27,12,,,,,,up,0.4002996219860506,1869.4010180385958,None,001,34,2019_Oct_16_1400,ACPT_experiment_5_30_19,3.1.0,59.95582276227594,
,,,C,D,d,v,L,U,y,R,u,,,,,5,19,119,9,0,0,0,0,,,,,0,28,28,25,,,,,,down,0.6504876026356214,1871.1023136938948,None,001,34,2019_Oct_16_1400,ACPT_experiment_5_30_19,3.1.0,59.95582276227594,
,,,C,D,d,v,R,U,g,R,u,,,,,5,19,119,9,0,0,0,0,,,,,0,29,29,11,,,,,,up,0.7338719244307867,1873.0705014215891,None,001,34,2019_Oct_16_1400,ACPT_experiment_5_30_19,3.1.0,59.95582276227594,
,,,C,D,d,v,L,U,g,R,u,,,,,5,19,119,9,0,0,0,0,,,,,0,30,30,23,,,,,,up,0.4670369027680863,1875.0886661931545,None,001,34,2019_Oct_16_1400,ACPT_experiment_5_30_19,3.1.0,59.95582276227594,
,,,C,D,d,v,R,D,y,R,y,,,,,5,19,119,9,0,0,0,0,,,,,0,31,31,27,,,,,,down,0.517095145827625,1876.8400049987304,None,001,34,2019_Oct_16_1400,ACPT_experiment_5_30_19,3.1.0,59.95582276227594,
,,,C,D,d,v,R,G,y,L,y,,,,,5,19,119,9,0,0,0,0,,,,,0,32,32,28,,,,,,down,0.6171672591590323,1878.6413932935502,None,001,34,2019_Oct_16_1400,ACPT_experiment_5_30_19,3.1.0,59.95582276227594,
,,,C,D,d,v,R,U,g,L,u,,,,,5,19,119,9,0,0,0,0,,,,,0,33,33,10,,,,,,up,0.5504197152840788,1880.5428452497417,None,001,34,2019_Oct_16_1400,ACPT_experiment_5_30_19,3.1.0,59.95582276227594,
,,,C,D,d,v,R,U,y,R,u,,,,,5,19,119,9,0,0,0,0,,,,,0,34,34,31,,,,,,down,0.750570280915781,1882.3775786402057,None,001,34,2019_Oct_16_1400,ACPT_experiment_5_30_19,3.1.0,59.95582276227594,
,,,C,D,d,v,L,G,g,R,c ,,,,,5,19,119,9,0,0,0,0,,,,,0,35,35,19,,,,,,up,0.6838526207557152,1884.4124598796006,None,001,34,2019_Oct_16_1400,ACPT_experiment_5_30_19,3.1.0,59.95582276227594,
,,,C,D,d,v,L,U,y,L,u,,,,,5,19,119,9,0,0,0,0,,,,,1,0,36,24,,,,,,down,0.7171962071224698,1886.4139939103625,None,001,34,2019_Oct_16_1400,ACPT_experiment_5_30_19,3.1.0,59.95582276227594,
,,,C,D,d,v,L,D,d,R,c ,,,,,5,19,119,9,0,0,0,0,,,,,1,1,37,13,,,,,,up,0.6838640912737901,1888.432191584201,None,001,34,2019_Oct_16_1400,ACPT_experiment_5_30_19,3.1.0,59.95582276227594,
,,,C,D,d,v,L,G,g,L,c ,,,,,5,19,119,9,0,0,0,0,,,,,1,2,38,18,,,,,,up,0.7505708846274501,1890.400360596841,None,001,34,2019_Oct_16_1400,ACPT_experiment_5_30_19,3.1.0,59.95582276227594,
,,,C,D,d,v,L,U,d,L,u,,,,,5,19,119,9,0,0,0,0,,,,,1,3,39,20,,,,,,up,1.0174333751601807,1892.4352539104657,None,001,34,2019_Oct_16_1400,ACPT_experiment_5_30_19,3.1.0,59.95582276227594,
,,,C,D,d,v,L,D,y,L,y,,,,,5,19,119,9,0,0,0,0,,,,,1,4,40,32,,,,,,down,0.7005256213633402,1894.7370232981302,None,001,34,2019_Oct_16_1400,ACPT_experiment_5_30_19,3.1.0,59.95582276227594,
,,,C,D,d,v,R,D,d,L,c,,,,,5,19,119,9,0,0,0,0,,,,,1,5,41,0,,,,,,up,0.6171606183324911,1896.7218191274496,None,001,34,2019_Oct_16_1400,ACPT_experiment_5_30_19,3.1.0,59.95582276227594,
,,,C,D,d,v,R,G,g,L,c ,,,,,5,19,119,9,0,0,0,0,,,,,1,6,42,6,,,,,,up,0.5170513767498051,1898.623293119108,None,001,34,2019_Oct_16_1400,ACPT_experiment_5_30_19,3.1.0,59.95582276227594,
,,,C,D,d,v,L,U,d,R,u,,,,,5,19,119,9,0,0,0,0,,,,,1,7,43,21,,,,,,up,0.5668270828573441,1900.4416121993181,None,001,34,2019_Oct_16_1400,ACPT_experiment_5_30_19,3.1.0,59.95582276227594,
,,,C,D,d,v,L,G,d,L,i,,,,,5,19,119,9,0,0,0,0,,,,,1,8,44,16,,,,,,up,0.7338794708230125,1902.2927620130267,None,001,34,2019_Oct_16_1400,ACPT_experiment_5_30_19,3.1.0,59.95582276227594,
,,,C,D,d,v,R,G,g,R,c ,,,,,5,19,119,9,0,0,0,0,,,,,1,9,45,7,,,,,,up,0.5503807758959738,1904.3109781000658,None,001,34,2019_Oct_16_1400,ACPT_experiment_5_30_19,3.1.0,59.95582276227594,
,,,C,D,d,v,R,U,y,L,u,,,,,5,19,119,9,0,0,0,0,,,,,1,10,46,30,,,,,,down,0.8339757326120889,1906.1456976051668,None,001,34,2019_Oct_16_1400,ACPT_experiment_5_30_19,3.1.0,59.95582276227594,
,,,C,D,d,v,L,D,y,R,y,,,,,5,19,119,9,0,0,0,0,,,,,1,11,47,33,,,,,,down,0.783925035944776,1908.2806585042872,None,001,34,2019_Oct_16_1400,ACPT_experiment_5_30_19,3.1.0,59.95582276227594,
,,,C,D,d,v,R,U,g,L,u,,,,,5,19,119,9,0,0,0,0,,,,,1,12,48,10,,,,,,up,0.6171286216267617,1910.3655819883897,None,001,34,2019_Oct_16_1400,ACPT_experiment_5_30_19,3.1.0,59.95582276227594,
,,,C,D,d,v,L,G,g,R,c ,,,,,5,19,119,9,0,0,0,0,,,,,1,13,49,19,,,,,,up,0.45031560524512315,1912.2503772441833,None,001,34,2019_Oct_16_1400,ACPT_experiment_5_30_19,3.1.0,59.95582276227594,
,,,C,D,d,v,R,G,d,R,i,,,,,5,19,119,9,0,0,0,0,,,,,1,14,50,5,,,,,,up,0.5337276977679721,1913.9850152784275,None,001,34,2019_Oct_16_1400,ACPT_experiment_5_30_19,3.1.0,59.95582276227594,
,,,C,D,d,v,R,D,y,L,y,,,,,5,19,119,9,0,0,0,0,,,,,1,15,51,26,,,,,,down,0.6336244329249894,1915.819890842935,None,001,34,2019_Oct_16_1400,ACPT_experiment_5_30_19,3.1.0,59.95582276227594,
,,,C,D,d,v,R,U,g,R,u,,,,,5,19,119,9,0,0,0,0,,,,,1,16,52,11,,,,,,up,0.8006037718078005,1917.754547833716,None,001,34,2019_Oct_16_1400,ACPT_experiment_5_30_19,3.1.0,59.95582276227594,
,,,C,D,d,v,L,U,g,R,u,,,,,5,19,119,9,0,0,0,0,,,,,1,17,53,23,,,,,,up,0.7670232287036924,1919.8564168941393,None,001,34,2019_Oct_16_1400,ACPT_experiment_5_30_19,3.1.0,59.95582276227594,
,,,C,D,d,v,L,G,d,R,i,,,,,5,19,119,9,0,0,0,0,,,,,1,18,54,17,,,,,,up,0.4503379425696039,1921.9077109345108,None,001,34,2019_Oct_16_1400,ACPT_experiment_5_30_19,3.1.0,59.95582276227594,
,,,C,D,d,v,R,D,y,R,y,,,,,5,19,119,9,0,0,0,0,,,,,1,19,55,27,,,,,,down,0.6671901851004804,1923.6423483650433,None,001,34,2019_Oct_16_1400,ACPT_experiment_5_30_19,3.1.0,59.95582276227594,
,,,C,D,d,v,L,D,g,L,i,,,,,5,19,119,9,0,0,0,0,,,,,1,20,56,14,,,,,,up,0.7005624477606034,1925.5938522253255,None,001,34,2019_Oct_16_1400,ACPT_experiment_5_30_19,3.1.0,59.95582276227594,
,,,C,D,d,v,R,G,y,R,y,,,,,5,19,119,9,0,0,0,0,,,,,1,21,57,29,,,,,,down,0.6504972620168701,1927.5786981626952,None,001,34,2019_Oct_16_1400,ACPT_experiment_5_30_19,3.1.0,59.95582276227594,
,,,C,D,d,v,L,G,y,L,y,,,,,5,19,119,9,0,0,0,0,,,,,1,22,58,34,,,,,,down,0.7172315242423792,1929.513487366281,None,001,34,2019_Oct_16_1400,ACPT_experiment_5_30_19,3.1.0,59.95582276227594,
,,,C,D,d,v,R,G,y,L,y,,,,,5,19,119,9,0,0,0,0,,,,,1,23,59,28,,,,,,down,0.5504145837367105,1931.515036791683,None,001,34,2019_Oct_16_1400,ACPT_experiment_5_30_19,3.1.0,59.95582276227594,
,,,C,D,d,v,L,D,d,L,c ,,,,,5,19,119,9,0,0,0,0,,,,,1,24,60,12,,,,,,up,0.6671959203595179,1933.3497448262679,None,001,34,2019_Oct_16_1400,ACPT_experiment_5_30_19,3.1.0,59.95582276227594,
,,,C,D,d,v,R,U,d,R,u,,,,,5,19,119,9,0,0,0,0,,,,,1,25,61,9,,,,,,up,0.45040284154856636,1935.2845732710975,None,001,34,2019_Oct_16_1400,ACPT_experiment_5_30_19,3.1.0,59.95582276227594,
,,,C,D,d,v,L,G,y,R,y,,,,,5,19,119,9,0,0,0,0,,,,,1,26,62,35,,,,,,down,0.8673060373257613,1937.0359271694597,None,001,34,2019_Oct_16_1400,ACPT_experiment_5_30_19,3.1.0,59.95582276227594,
,,,C,D,d,v,R,D,d,R,c ,,,,,5,19,119,9,0,0,0,0,,,,,1,27,63,1,,,,,,up,0.7839011893411225,1939.2209405763806,None,001,34,2019_Oct_16_1400,ACPT_experiment_5_30_19,3.1.0,59.95582276227594,
,,,C,D,d,v,L,U,y,R,u,,,,,5,19,119,9,0,0,0,0,,,,,1,28,64,25,,,,,,down,0.8673307894950995,1941.289150309356,None,001,34,2019_Oct_16_1400,ACPT_experiment_5_30_19,3.1.0,59.95582276227594,
,,,C,D,d,v,R,D,g,R,i,,,,,5,19,119,9,0,0,0,0,,,,,1,29,65,3,,,,,,up,0.7005712015761674,1943.4407911517628,None,001,34,2019_Oct_16_1400,ACPT_experiment_5_30_19,3.1.0,59.95582276227594,
,,,C,D,d,v,L,U,g,L,u,,,,,5,19,119,9,0,0,0,0,,,,,1,30,66,22,,,,,,up,0.7005334696114005,1945.4256395039774,None,001,34,2019_Oct_16_1400,ACPT_experiment_5_30_19,3.1.0,59.95582276227594,
,,,C,D,d,v,R,D,g,L,i,,,,,5,19,119,9,0,0,0,0,,,,,1,31,67,2,,,,,,up,0.5671038845503062,1947.4104812153673,None,001,34,2019_Oct_16_1400,ACPT_experiment_5_30_19,3.1.0,59.95582276227594,
,,,C,D,d,v,R,U,d,L,u,,,,,5,19,119,9,0,0,0,0,,,,,1,32,68,8,,,,,,up,0.6838532244673843,1949.2619026992234,None,001,34,2019_Oct_16_1400,ACPT_experiment_5_30_19,3.1.0,59.95582276227594,
,,,C,D,d,v,R,G,d,L,i,,,,,5,19,119,9,0,0,0,0,,,,,1,33,69,4,,,,,,up,0.5003792817096837,1951.230064467325,None,001,34,2019_Oct_16_1400,ACPT_experiment_5_30_19,3.1.0,59.95582276227594,
,,,C,D,d,v,L,D,g,R,i,,,,,5,19,119,9,0,0,0,0,,,,,1,34,70,15,,,,,,up,0.5838312191863224,1953.0147378035945,None,001,34,2019_Oct_16_1400,ACPT_experiment_5_30_19,3.1.0,59.95582276227594,
,,,C,D,d,v,R,U,y,R,u,,,,,5,19,119,9,0,0,0,0,,,,,1,35,71,31,,,,,,down,0.7672179256405798,1954.8828754534243,None,001,34,2019_Oct_16_1400,ACPT_experiment_5_30_19,3.1.0,59.95582276227594,
,,,C,D,d,v,,,,,,,,,,5,19,119,9,1,0,1,0,0,0,0,0,,,,,,,,,,,,,,001,34,2019_Oct_16_1400,ACPT_experiment_5_30_19,3.1.0,59.95582276227594,
,,,C,D,d,v,L,G,y,L,y,,,,,5,19,119,9,1,0,1,0,,,,,0,0,0,34,,,,,,down,0.9674192030342965,1988.6919837082423,None,001,34,2019_Oct_16_1400,ACPT_experiment_5_30_19,3.1.0,59.95582276227594,
,,,C,D,d,v,R,D,d,R,c ,,,,,5,19,119,9,1,0,1,0,,,,,0,1,1,1,,,,,,up,0.6338146020279964,1990.9603542699442,None,001,34,2019_Oct_16_1400,ACPT_experiment_5_30_19,3.1.0,59.95582276227594,
,,,C,D,d,v,L,U,y,R,u,,,,,5,19,119,9,1,0,1,0,,,,,0,2,2,25,,,,,,down,0.8004410715748236,1992.8786485677992,None,001,34,2019_Oct_16_1400,ACPT_experiment_5_30_19,3.1.0,59.95582276227594,
,,,C,D,d,v,R,G,y,R,y,,,,,5,19,119,9,1,0,1,0,,,,,0,3,3,29,,,,,,down,0.8504265674091585,1994.980304819941,None,001,34,2019_Oct_16_1400,ACPT_experiment_5_30_19,3.1.0,59.95582276227594,
,,,C,D,d,v,L,U,g,L,u,,,,,5,19,119,9,1,0,1,0,,,,,0,4,4,22,,,,,,up,0.5502666744341695,1997.1151911606976,None,001,34,2019_Oct_16_1400,ACPT_experiment_5_30_19,3.1.0,59.95582276227594,
,,,C,D,d,v,L,G,d,L,i,,,,,5,19,119,9,1,0,1,0,,,,,0,5,5,16,,,,,,up,0.7172544652767101,1998.949750984124,None,001,34,2019_Oct_16_1400,ACPT_experiment_5_30_19,3.1.0,59.95582276227594,
,,,C,D,d,v,L,U,g,R,u,,,,,5,19,119,9,1,0,1,0,,,,,0,6,6,23,,,,,,up,0.7505769217423222,2000.9512973909696,None,001,34,2019_Oct_16_1400,ACPT_experiment_5_30_19,3.1.0,59.95582276227594,
,,,C,D,d,v,L,D,y,L,y,,,,,5,19,119,9,1,0,1,0,,,,,0,7,7,32,,,,,,down,0.7172085832098674,2002.9861882897494,None,001,34,2019_Oct_16_1400,ACPT_experiment_5_30_19,3.1.0,59.95582276227594,
,,,C,D,d,v,L,D,d,R,c ,,,,,5,19,119,9,1,0,1,0,,,,,0,8,8,13,,,,,,up,0.48373797595195356,2004.9877123592705,None,001,34,2019_Oct_16_1400,ACPT_experiment_5_30_19,3.1.0,59.95582276227594,
,,,C,D,d,v,L,G,g,L,c ,,,,,5,19,119,9,1,0,1,0,,,,,0,9,9,18,,,,,,up,0.5504073392003193,2006.7557329192678,None,001,34,2019_Oct_16_1400,ACPT_experiment_5_30_19,3.1.0,59.95582276227594,
,,,C,D,d,v,R,D,d,L,c,,,,,5,19,119,9,1,0,1,0,,,,,0,10,10,0,,,,,,up,0.5001163653796539,2008.6074025285234,None,001,34,2019_Oct_16_1400,ACPT_experiment_5_30_19,3.1.0,59.95582276227594,
,,,C,D,d,v,R,U,y,L,u,,,,,5,19,119,9,1,0,1,0,,,,,0,11,11,30,,,,,,down,0.6505362014067941,2010.3918117410394,None,001,34,2019_Oct_16_1400,ACPT_experiment_5_30_19,3.1.0,59.95582276227594,
,,,C,D,d,v,L,U,d,R,u,,,,,5,19,119,9,1,0,1,0,,,,,0,12,12,21,,,,,,up,0.5170764307731588,2012.326638072882,None,001,34,2019_Oct_16_1400,ACPT_experiment_5_30_19,3.1.0,59.95582276227594,
,,,C,D,d,v,R,G,d,L,i,,,,,5,19,119,9,1,0,1,0,,,,,0,13,13,4,,,,,,up,0.4336921089779935,2014.111349744824,None,001,34,2019_Oct_16_1400,ACPT_experiment_5_30_19,3.1.0,59.95582276227594,
,,,C,D,d,v,R,G,g,L,c ,,,,,5,19,119,9,1,0,1,0,,,,,0,14,14,6,,,,,,up,0.4500680835553794,2015.8295804114969,None,001,34,2019_Oct_16_1400,ACPT_experiment_5_30_19,3.1.0,59.95582276227594,
,,,C,D,d,v,R,G,d,R,i,,,,,5,19,119,9,1,0,1,0,,,,,0,15,15,5,,,,,,up,0.5336320095047995,2017.5641158147955,None,001,34,2019_Oct_16_1400,ACPT_experiment_5_30_19,3.1.0,59.95582276227594,
,,,C,D,d,v,R,U,g,L,u,,,,,5,19,119,9,1,0,1,0,,,,,0,16,16,10,,,,,,up,0.41699888404036756,2019.3819978079227,None,001,34,2019_Oct_16_1400,ACPT_experiment_5_30_19,3.1.0,59.95582276227594,
,,,C,D,d,v,R,G,g,R,c ,,,,,5,19,119,9,1,0,1,0,,,,,0,17,17,7,,,,,,up,0.6838375279730826,2021.0833333081791,None,001,34,2019_Oct_16_1400,ACPT_experiment_5_30_19,3.1.0,59.95582276227594,
,,,C,D,d,v,L,U,d,L,u,,,,,5,19,119,9,1,0,1,0,,,,,0,18,18,20,,,,,,up,0.48037922737785266,2023.0714779248374,None,001,34,2019_Oct_16_1400,ACPT_experiment_5_30_19,3.1.0,59.95582276227594,
,,,C,D,d,v,R,U,d,L,u,,,,,5,19,119,9,1,0,1,0,,,,,0,19,19,8,,,,,,up,0.5003913559376088,2024.8361605643004,None,001,34,2019_Oct_16_1400,ACPT_experiment_5_30_19,3.1.0,59.95582276227594,
,,,C,D,d,v,R,D,y,R,y,,,,,5,19,119,9,1,0,1,0,,,,,0,20,20,27,,,,,,down,0.5837620942256763,2026.62088461233,None,001,34,2019_Oct_16_1400,ACPT_experiment_5_30_19,3.1.0,59.95582276227594,
,,,C,D,d,v,L,U,y,L,u,,,,,5,19,119,9,1,0,1,0,,,,,0,21,21,24,,,,,,down,0.6671714700496523,2028.4889649095749,None,001,34,2019_Oct_16_1400,ACPT_experiment_5_30_19,3.1.0,59.95582276227594,
,,,C,D,d,v,R,U,y,R,u,,,,,5,19,119,9,1,0,1,0,,,,,0,22,22,31,,,,,,down,0.5672711126171635,2030.4404485455234,None,001,34,2019_Oct_16_1400,ACPT_experiment_5_30_19,3.1.0,59.95582276227594,
,,,C,D,d,v,R,U,g,R,u,,,,,5,19,119,9,1,0,1,0,,,,,0,23,23,11,,,,,,up,0.6004716193747299,2032.2918697275236,None,001,34,2019_Oct_16_1400,ACPT_experiment_5_30_19,3.1.0,59.95582276227594,
,,,C,D,d,v,L,D,y,R,y,,,,,5,19,119,9,1,0,1,0,,,,,0,24,24,33,,,,,,down,1.8347756502662378,2034.176633590323,None,001,34,2019_Oct_16_1400,ACPT_experiment_5_30_19,3.1.0,59.95582276227594,
,,,C,D,d,v,R,D,g,L,i,,,,,5,19,119,9,1,0,1,0,,,,,0,25,25,2,,,,,,up,0.6671723756153369,2037.2956752225655,None,001,34,2019_Oct_16_1400,ACPT_experiment_5_30_19,3.1.0,59.95582276227594,
,,,C,D,d,v,L,G,y,R,y,,,,,5,19,119,9,1,0,1,0,,,,,0,26,26,35,,,,,,down,0.6838797877717298,2039.247145275007,None,001,34,2019_Oct_16_1400,ACPT_experiment_5_30_19,3.1.0,59.95582276227594,
,,,C,D,d,v,R,U,d,R,u,,,,,5,19,119,9,1,0,1,0,,,,,0,27,27,9,,,,,,up,0.934076220379211,2041.215323947028,None,001,34,2019_Oct_16_1400,ACPT_experiment_5_30_19,3.1.0,59.95582276227594,
,,,C,D,d,v,L,D,g,R,i,,,,,5,19,119,9,1,0,1,0,,,,,0,28,28,15,,,,,,up,0.7338927524724568,2043.4336896941313,None,001,34,2019_Oct_16_1400,ACPT_experiment_5_30_19,3.1.0,59.95582276227594,
,,,C,D,d,v,L,D,d,L,c ,,,,,5,19,119,9,1,0,1,0,,,,,0,29,29,12,,,,,,up,0.5336957010622427,2045.4519395890093,None,001,34,2019_Oct_16_1400,ACPT_experiment_5_30_19,3.1.0,59.95582276227594,
,,,C,D,d,v,L,G,d,R,i,,,,,5,19,119,9,1,0,1,0,,,,,0,30,30,17,,,,,,up,0.8506378664096701,2047.2699574172148,None,001,34,2019_Oct_16_1400,ACPT_experiment_5_30_19,3.1.0,59.95582276227594,
,,,C,D,d,v,R,G,y,L,y,,,,,5,19,119,9,1,0,1,0,,,,,0,31,31,28,,,,,,down,0.9007217672078696,2049.421568074049,None,001,34,2019_Oct_16_1400,ACPT_experiment_5_30_19,3.1.0,59.95582276227594,
,,,C,D,d,v,L,D,g,L,i,,,,,5,19,119,9,1,0,1,0,,,,,0,32,32,14,,,,,,up,0.7338882246403955,2051.623267763229,None,001,34,2019_Oct_16_1400,ACPT_experiment_5_30_19,3.1.0,59.95582276227594,
,,,C,D,d,v,R,D,g,R,i,,,,,5,19,119,9,1,0,1,0,,,,,0,33,33,3,,,,,,up,0.5838146171226981,2053.6414690593374,None,001,34,2019_Oct_16_1400,ACPT_experiment_5_30_19,3.1.0,59.95582276227594,
,,,C,D,d,v,L,G,g,R,c ,,,,,5,19,119,9,1,0,1,0,,,,,0,34,34,19,,,,,,up,0.6004592432909703,2055.5095650530748,None,001,34,2019_Oct_16_1400,ACPT_experiment_5_30_19,3.1.0,59.95582276227594,
,,,C,D,d,v,R,D,y,L,y,,,,,5,19,119,9,1,0,1,0,,,,,0,35,35,26,,,,,,down,0.7005769368333858,2057.39433344371,None,001,34,2019_Oct_16_1400,ACPT_experiment_5_30_19,3.1.0,59.95582276227594,
,,,C,D,d,v,R,G,g,L,c ,,,,,5,19,119,9,1,0,1,0,,,,,1,0,36,6,,,,,,up,0.56710811053199,2059.379172438399,None,001,34,2019_Oct_16_1400,ACPT_experiment_5_30_19,3.1.0,59.95582276227594,
,,,C,D,d,v,R,D,d,L,c,,,,,5,19,119,9,1,0,1,0,,,,,1,1,37,0,,,,,,up,0.5168120051639562,2061.2475343670267,None,001,34,2019_Oct_16_1400,ACPT_experiment_5_30_19,3.1.0,59.95582276227594,
,,,C,D,d,v,R,G,y,R,y,,,,,5,19,119,9,1,0,1,0,,,,,1,2,38,29,,,,,,down,0.7338833949470427,2063.065323388597,None,001,34,2019_Oct_16_1400,ACPT_experiment_5_30_19,3.1.0,59.95582276227594,
,,,C,D,d,v,L,G,y,R,y,,,,,5,19,119,9,1,0,1,0,,,,,1,3,39,35,,,,,,down,0.5170794493315043,2065.083500536246,None,001,34,2019_Oct_16_1400,ACPT_experiment_5_30_19,3.1.0,59.95582276227594,
,,,C,D,d,v,L,U,y,L,u,,,,,5,19,119,9,1,0,1,0,,,,,1,4,40,24,,,,,,down,0.6338100741922972,2066.9015778300236,None,001,34,2019_Oct_16_1400,ACPT_experiment_5_30_19,3.1.0,59.95582276227594,
,,,C,D,d,v,R,U,g,L,u,,,,,5,19,119,9,1,0,1,0,,,,,1,5,41,10,,,,,,up,0.600471619371092,2068.819710333217,None,001,34,2019_Oct_16_1400,ACPT_experiment_5_30_19,3.1.0,59.95582276227594,
,,,C,D,d,v,L,G,g,L,c ,,,,,5,19,119,9,1,0,1,0,,,,,1,6,42,18,,,,,,up,0.48372197760181734,2070.7044747997243,None,001,34,2019_Oct_16_1400,ACPT_experiment_5_30_19,3.1.0,59.95582276227594,
,,,C,D,d,v,L,D,d,L,c ,,,,,5,19,119,9,1,0,1,0,,,,,1,7,43,12,,,,,,up,0.3669427539680328,2072.472488718897,None,001,34,2019_Oct_16_1400,ACPT_experiment_5_30_19,3.1.0,59.95582276227594,
,,,C,D,d,v,R,U,d,R,u,,,,,5,19,119,9,1,0,1,0,,,,,1,8,44,9,,,,,,up,0.550148045134847,2074.140697063336,None,001,34,2019_Oct_16_1400,ACPT_experiment_5_30_19,3.1.0,59.95582276227594,
,,,C,D,d,v,R,D,y,L,y,,,,,5,19,119,9,1,0,1,0,,,,,1,9,45,26,,,,,,down,0.6671657347906148,2075.9751741782966,None,001,34,2019_Oct_16_1400,ACPT_experiment_5_30_19,3.1.0,59.95582276227594,
,,,C,D,d,v,L,G,g,R,c ,,,,,5,19,119,9,1,0,1,0,,,,,1,10,46,19,,,,,,up,0.8172906577783579,2077.926648154862,None,001,34,2019_Oct_16_1400,ACPT_experiment_5_30_19,3.1.0,59.95582276227594,
,,,C,D,d,v,L,D,y,R,y,,,,,5,19,119,9,1,0,1,0,,,,,1,11,47,33,,,,,,down,0.7005527883775358,2080.0282491674043,None,001,34,2019_Oct_16_1400,ACPT_experiment_5_30_19,3.1.0,59.95582276227594,
,,,C,D,d,v,L,G,y,L,y,,,,,5,19,119,9,1,0,1,0,,,,,1,12,48,34,,,,,,down,0.6172107263810176,2082.0130975196225,None,001,34,2019_Oct_16_1400,ACPT_experiment_5_30_19,3.1.0,59.95582276227594,
,,,C,D,d,v,R,D,g,R,i,,,,,5,19,119,9,1,0,1,0,,,,,1,13,49,3,,,,,,up,0.5837711499007128,2083.9145512869472,None,001,34,2019_Oct_16_1400,ACPT_experiment_5_30_19,3.1.0,59.95582276227594,
,,,C,D,d,v,R,D,d,R,c ,,,,,5,19,119,9,1,0,1,0,,,,,1,14,50,1,,,,,,up,0.46704626029531937,2085.7659350388385,None,001,34,2019_Oct_16_1400,ACPT_experiment_5_30_19,3.1.0,59.95582276227594,
,,,C,D,d,v,L,D,d,R,c ,,,,,5,19,119,9,1,0,1,0,,,,,1,15,51,13,,,,,,up,0.4803894904689514,2087.53728627483,None,001,34,2019_Oct_16_1400,ACPT_experiment_5_30_19,3.1.0,59.95582276227594,
,,,C,D,d,v,L,U,d,L,u,,,,,5,19,119,9,1,0,1,0,,,,,1,16,52,20,,,,,,up,0.5337485258132801,2089.3019870256358,None,001,34,2019_Oct_16_1400,ACPT_experiment_5_30_19,3.1.0,59.95582276227594,
,,,C,D,d,v,L,U,y,R,u,,,,,5,19,119,9,1,0,1,0,,,,,1,17,53,25,,,,,,down,0.4170049211534206,2091.1033357773595,None,001,34,2019_Oct_16_1400,ACPT_experiment_5_30_19,3.1.0,59.95582276227594,
,,,C,D,d,v,R,U,g,R,u,,,,,5,19,119,9,1,0,1,0,,,,,1,18,54,11,,,,,,up,0.5671355794002011,2092.804634451215,None,001,34,2019_Oct_16_1400,ACPT_experiment_5_30_19,3.1.0,59.95582276227594,
,,,C,D,d,v,R,U,d,L,u,,,,,5,19,119,9,1,0,1,0,,,,,1,19,55,8,,,,,,up,0.9337782887887442,2094.6563354534665,None,001,34,2019_Oct_16_1400,ACPT_experiment_5_30_19,3.1.0,59.95582276227594,
,,,C,D,d,v,R,U,y,L,u,,,,,5,19,119,9,1,0,1,0,,,,,1,20,56,30,,,,,,down,0.8006082996434998,2096.8744225877417,None,001,34,2019_Oct_16_1400,ACPT_experiment_5_30_19,3.1.0,59.95582276227594,
,,,C,D,d,v,R,G,g,R,c ,,,,,5,19,119,9,1,0,1,0,,,,,1,21,57,7,,,,,,up,0.5670978474372532,2098.9593463737,None,001,34,2019_Oct_16_1400,ACPT_experiment_5_30_19,3.1.0,59.95582276227594,
,,,C,D,d,v,L,U,d,R,u,,,,,5,19,119,9,1,0,1,0,,,,,1,22,58,21,,,,,,up,0.7672149070858723,2100.8107923078715,None,001,34,2019_Oct_16_1400,ACPT_experiment_5_30_19,3.1.0,59.95582276227594,
,,,C,D,d,v,R,G,d,L,i,,,,,5,19,119,9,1,0,1,0,,,,,1,23,59,4,,,,,,up,0.6671741867503442,2102.8623263235386,None,001,34,2019_Oct_16_1400,ACPT_experiment_5_30_19,3.1.0,59.95582276227594,
,,,C,D,d,v,L,G,d,R,i,,,,,5,19,119,9,1,0,1,0,,,,,1,24,60,17,,,,,,up,0.5004070524373674,2104.8138147891805,None,001,34,2019_Oct_16_1400,ACPT_experiment_5_30_19,3.1.0,59.95582276227594,
,,,C,D,d,v,L,D,y,L,y,,,,,5,19,119,9,1,0,1,0,,,,,1,25,61,32,,,,,,down,0.7172792174424103,2106.59850352009,None,001,34,2019_Oct_16_1400,ACPT_experiment_5_30_19,3.1.0,59.95582276227594,
,,,C,D,d,v,L,U,g,R,u,,,,,5,19,119,9,1,0,1,0,,,,,1,26,62,23,,,,,,up,0.4503095681320701,2108.6000535492058,None,001,34,2019_Oct_16_1400,ACPT_experiment_5_30_19,3.1.0,59.95582276227594,
,,,C,D,d,v,R,G,d,R,i,,,,,5,19,119,9,1,0,1,0,,,,,1,27,63,5,,,,,,up,0.7505726957642764,2110.334687659324,None,001,34,2019_Oct_16_1400,ACPT_experiment_5_30_19,3.1.0,59.95582276227594,
,,,C,D,d,v,L,G,d,L,i,,,,,5,19,119,9,1,0,1,0,,,,,1,28,64,16,,,,,,up,0.5003738483064808,2112.369571313564,None,001,34,2019_Oct_16_1400,ACPT_experiment_5_30_19,3.1.0,59.95582276227594,
,,,C,D,d,v,R,D,y,R,y,,,,,5,19,119,9,1,0,1,0,,,,,1,29,65,27,,,,,,down,0.7005334696114005,2114.154269100145,None,001,34,2019_Oct_16_1400,ACPT_experiment_5_30_19,3.1.0,59.95582276227594,
,,,C,D,d,v,L,U,g,L,u,,,,,5,19,119,9,1,0,1,0,,,,,1,30,66,22,,,,,,up,0.5671059975429671,2116.1391093022576,None,001,34,2019_Oct_16_1400,ACPT_experiment_5_30_19,3.1.0,59.95582276227594,
,,,C,D,d,v,R,D,g,L,i,,,,,5,19,119,9,1,0,1,0,,,,,1,31,67,2,,,,,,up,0.5671056956853135,2117.9905159951813,None,001,34,2019_Oct_16_1400,ACPT_experiment_5_30_19,3.1.0,59.95582276227594,
,,,C,D,d,v,R,U,y,R,u,,,,,5,19,119,9,1,0,1,0,,,,,1,32,68,31,,,,,,down,0.6335927380750945,2119.858839889992,None,001,34,2019_Oct_16_1400,ACPT_experiment_5_30_19,3.1.0,59.95582276227594,
,,,C,D,d,v,L,D,g,R,i,,,,,5,19,119,9,1,0,1,0,,,,,1,33,69,15,,,,,,up,0.7672632039975724,2121.776739964276,None,001,34,2019_Oct_16_1400,ACPT_experiment_5_30_19,3.1.0,59.95582276227594,
,,,C,D,d,v,L,D,g,L,i,,,,,5,19,119,9,1,0,1,0,,,,,1,34,70,14,,,,,,up,0.7005884073514608,2123.811607016454,None,001,34,2019_Oct_16_1400,ACPT_experiment_5_30_19,3.1.0,59.95582276227594,
,,,C,D,d,v,R,G,y,L,y,,,,,5,19,119,9,1,0,1,0,,,,,1,35,71,28,,,,,,down,0.8006221850082511,2125.8131310859753,None,001,34,2019_Oct_16_1400,ACPT_experiment_5_30_19,3.1.0,59.95582276227594,
,,,C,D,d,v,,,,,,,,,,5,19,119,9,2,0,2,0,0,0,0,0,,,,,,,,,,,,,,001,34,2019_Oct_16_1400,ACPT_experiment_5_30_19,3.1.0,59.95582276227594,
,,,C,D,d,v,R,D,g,L,i,,,,,5,19,119,9,2,0,2,0,,,,,0,0,0,2,,,,,,up,0.5337255847807683,2162.557841743688,None,001,34,2019_Oct_16_1400,ACPT_experiment_5_30_19,3.1.0,59.95582276227594,
,,,C,D,d,v,L,G,g,R,c ,,,,,5,19,119,9,2,0,2,0,,,,,0,1,1,19,,,,,,up,0.5337159253940627,2164.3759081706594,None,001,34,2019_Oct_16_1400,ACPT_experiment_5_30_19,3.1.0,59.95582276227594,
,,,C,D,d,v,R,G,y,L,y,,,,,5,19,119,9,2,0,2,0,,,,,0,2,2,28,,,,,,down,0.8671460537952953,2166.210788866716,None,001,34,2019_Oct_16_1400,ACPT_experiment_5_30_19,3.1.0,59.95582276227594,
,,,C,D,d,v,R,D,d,L,c,,,,,5,19,119,9,2,0,2,0,,,,,0,3,3,0,,,,,,up,0.567099356714607,2168.3789381983624,None,001,34,2019_Oct_16_1400,ACPT_experiment_5_30_19,3.1.0,59.95582276227594,
,,,C,D,d,v,L,U,d,R,u,,,,,5,19,119,9,2,0,2,0,,,,,0,4,4,21,,,,,,up,0.396983736918628,2170.2503437382,None,001,34,2019_Oct_16_1400,ACPT_experiment_5_30_19,3.1.0,59.95582276227594,
,,,C,D,d,v,L,G,d,R,i,,,,,5,19,119,9,2,0,2,0,,,,,0,5,5,17,,,,,,up,0.5004179192437732,2171.9316215296785,None,001,34,2019_Oct_16_1400,ACPT_experiment_5_30_19,3.1.0,59.95582276227594,
,,,C,D,d,v,L,U,d,L,u,,,,,5,19,119,9,2,0,2,0,,,,,0,6,6,20,,,,,,up,0.43366826237615896,2173.699655069471,None,001,34,2019_Oct_16_1400,ACPT_experiment_5_30_19,3.1.0,59.95582276227594,
,,,C,D,d,v,R,G,d,R,i,,,,,5,19,119,9,2,0,2,0,,,,,0,7,7,5,,,,,,up,0.36699708799642394,2175.400957063739,None,001,34,2019_Oct_16_1400,ACPT_experiment_5_30_19,3.1.0,59.95582276227594,
,,,C,D,d,v,R,D,g,R,i,,,,,5,19,119,9,2,0,2,0,,,,,0,8,8,3,,,,,,up,0.3969767942362523,2177.0722129435126,None,001,34,2019_Oct_16_1400,ACPT_experiment_5_30_19,3.1.0,59.95582276227594,
,,,C,D,d,v,L,G,g,L,c ,,,,,5,19,119,9,2,0,2,0,,,,,0,9,9,18,,,,,,up,0.4003433910620515,2178.7701884877642,None,001,34,2019_Oct_16_1400,ACPT_experiment_5_30_19,3.1.0,59.95582276227594,
,,,C,D,d,v,L,G,d,L,i,,,,,5,19,119,9,2,0,2,0,,,,,0,10,10,16,,,,,,up,0.5838131078417064,2180.438109767416,None,001,34,2019_Oct_16_1400,ACPT_experiment_5_30_19,3.1.0,59.95582276227594,
,,,C,D,d,v,R,G,g,L,c ,,,,,5,19,119,9,2,0,2,0,,,,,0,11,11,6,,,,,,up,0.5670999604262761,2182.3062145149743,None,001,34,2019_Oct_16_1400,ACPT_experiment_5_30_19,3.1.0,59.95582276227594,
,,,C,D,d,v,L,U,g,L,u,,,,,5,19,119,9,2,0,2,0,,,,,0,12,12,22,,,,,,up,0.4000508928729687,2184.1745556155583,None,001,34,2019_Oct_16_1400,ACPT_experiment_5_30_19,3.1.0,59.95582276227594,
,,,C,D,d,v,L,D,y,R,y,,,,,5,19,119,9,2,0,2,0,,,,,0,13,13,33,,,,,,down,0.5337292070471449,2185.87561129556,None,001,34,2019_Oct_16_1400,ACPT_experiment_5_30_19,3.1.0,59.95582276227594,
,,,C,D,d,v,R,G,y,R,y,,,,,5,19,119,9,2,0,2,0,,,,,0,14,14,29,,,,,,down,0.533732527459506,2187.7103407618997,None,001,34,2019_Oct_16_1400,ACPT_experiment_5_30_19,3.1.0,59.95582276227594,
,,,C,D,d,v,R,U,y,L,u,,,,,5,19,119,9,2,0,2,0,,,,,0,15,15,30,,,,,,down,0.5671210903274186,2189.528372777324,None,001,34,2019_Oct_16_1400,ACPT_experiment_5_30_19,3.1.0,59.95582276227594,
,,,C,D,d,v,L,G,y,R,y,,,,,5,19,119,9,2,0,2,0,,,,,0,16,16,35,,,,,,down,0.6502536644511565,2191.396739837499,None,001,34,2019_Oct_16_1400,ACPT_experiment_5_30_19,3.1.0,59.95582276227594,
,,,C,D,d,v,R,U,g,R,u,,,,,5,19,119,9,2,0,2,0,,,,,0,17,17,11,,,,,,up,0.5004067505797138,2193.3312978196045,None,001,34,2019_Oct_16_1400,ACPT_experiment_5_30_19,3.1.0,59.95582276227594,
,,,C,D,d,v,R,U,d,R,u,,,,,5,19,119,9,2,0,2,0,,,,,0,18,18,9,,,,,,up,1.01746205145173,2195.115988663507,None,001,34,2019_Oct_16_1400,ACPT_experiment_5_30_19,3.1.0,59.95582276227594,
,,,C,D,d,v,L,D,d,L,c ,,,,,5,19,119,9,2,0,2,0,,,,,0,19,19,12,,,,,,up,0.5003762631531572,2197.417739336117,None,001,34,2019_Oct_16_1400,ACPT_experiment_5_30_19,3.1.0,59.95582276227594,
,,,C,D,d,v,L,D,g,R,i,,,,,5,19,119,9,2,0,2,0,,,,,0,20,20,15,,,,,,up,0.5336440837309055,2199.1857327291,None,001,34,2019_Oct_16_1400,ACPT_experiment_5_30_19,3.1.0,59.95582276227594,
,,,C,D,d,v,L,D,y,L,y,,,,,5,19,119,9,2,0,2,0,,,,,0,21,21,32,,,,,,down,0.7505895996800973,2201.0037901004,None,001,34,2019_Oct_16_1400,ACPT_experiment_5_30_19,3.1.0,59.95582276227594,
,,,C,D,d,v,L,U,g,R,u,,,,,5,19,119,9,2,0,2,0,,,,,0,22,22,23,,,,,,up,0.8506445072380302,2203.03869579011,None,001,34,2019_Oct_16_1400,ACPT_experiment_5_30_19,3.1.0,59.95582276227594,
,,,C,D,d,v,R,U,g,L,u,,,,,5,19,119,9,2,0,2,0,,,,,0,23,23,10,,,,,,up,0.5166586624582123,2205.1907139521645,None,001,34,2019_Oct_16_1400,ACPT_experiment_5_30_19,3.1.0,59.95582276227594,
,,,C,D,d,v,R,G,d,L,i,,,,,5,19,119,9,2,0,2,0,,,,,0,24,24,4,,,,,,up,0.5337630148860626,2206.9917016844447,None,001,34,2019_Oct_16_1400,ACPT_experiment_5_30_19,3.1.0,59.95582276227594,
,,,C,D,d,v,L,U,y,L,u,,,,,5,19,119,9,2,0,2,0,,,,,0,25,25,24,,,,,,down,0.6838372261154291,2208.8264492621274,None,001,34,2019_Oct_16_1400,ACPT_experiment_5_30_19,3.1.0,59.95582276227594,
,,,C,D,d,v,R,D,d,R,c ,,,,,5,19,119,9,2,0,2,0,,,,,0,26,26,1,,,,,,up,0.6004716193747299,2210.81128584197,None,001,34,2019_Oct_16_1400,ACPT_experiment_5_30_19,3.1.0,59.95582276227594,
,,,C,D,d,v,R,D,y,L,y,,,,,5,19,119,9,2,0,2,0,,,,,0,27,27,26,,,,,,down,0.7006418358141673,2212.679369459627,None,001,34,2019_Oct_16_1400,ACPT_experiment_5_30_19,3.1.0,59.95582276227594,
,,,C,D,d,v,R,G,g,R,c ,,,,,5,19,119,9,2,0,2,0,,,,,0,28,28,7,,,,,,up,0.53374460168925,2214.664217509984,None,001,34,2019_Oct_16_1400,ACPT_experiment_5_30_19,3.1.0,59.95582276227594,
,,,C,D,d,v,L,G,y,L,y,,,,,5,19,119,9,2,0,2,0,,,,,0,29,29,34,,,,,,down,0.5003835076931864,2216.498952711583,None,001,34,2019_Oct_16_1400,ACPT_experiment_5_30_19,3.1.0,59.95582276227594,
,,,C,D,d,v,L,U,y,R,u,,,,,5,19,119,9,2,0,2,0,,,,,0,30,30,25,,,,,,down,0.5504058299193275,2218.300336478569,None,001,34,2019_Oct_16_1400,ACPT_experiment_5_30_19,3.1.0,59.95582276227594,
,,,C,D,d,v,R,D,y,R,y,,,,,5,19,119,9,2,0,2,0,,,,,0,31,31,27,,,,,,down,0.6838689209653239,2220.1517332102558,None,001,34,2019_Oct_16_1400,ACPT_experiment_5_30_19,3.1.0,59.95582276227594,
,,,C,D,d,v,L,D,g,L,i,,,,,5,19,119,9,2,0,2,0,,,,,0,32,32,14,,,,,,up,0.7505666586475854,2222.1199046377405,None,001,34,2019_Oct_16_1400,ACPT_experiment_5_30_19,3.1.0,59.95582276227594,
,,,C,D,d,v,R,U,y,R,u,,,,,5,19,119,9,2,0,2,0,,,,,0,33,33,31,,,,,,down,0.7505820532896905,2224.154796140232,None,001,34,2019_Oct_16_1400,ACPT_experiment_5_30_19,3.1.0,59.95582276227594,
,,,C,D,d,v,L,D,d,R,c ,,,,,5,19,119,9,2,0,2,0,,,,,0,34,34,13,,,,,,up,0.7839325823370018,2226.189672248078,None,001,34,2019_Oct_16_1400,ACPT_experiment_5_30_19,3.1.0,59.95582276227594,
,,,C,D,d,v,R,U,d,L,u,,,,,5,19,119,9,2,0,2,0,,,,,0,35,35,8,,,,,,up,0.8172933744790498,2228.2579124684817,None,001,34,2019_Oct_16_1400,ACPT_experiment_5_30_19,3.1.0,59.95582276227594,
,,,C,D,d,v,R,D,g,R,i,,,,,5,19,119,9,2,0,2,0,,,,,1,0,36,3,,,,,,up,0.533732527459506,2230.3595152921625,None,001,34,2019_Oct_16_1400,ACPT_experiment_5_30_19,3.1.0,59.95582276227594,
,,,C,D,d,v,R,G,y,L,y,,,,,5,19,119,9,2,0,2,0,,,,,1,1,37,28,,,,,,down,0.5838448026916012,2232.177549420572,None,001,34,2019_Oct_16_1400,ACPT_experiment_5_30_19,3.1.0,59.95582276227594,
,,,C,D,d,v,R,G,d,L,i,,,,,5,19,119,9,2,0,2,0,,,,,1,2,38,4,,,,,,up,1.2676319207566848,2234.0456716757617,None,001,34,2019_Oct_16_1400,ACPT_experiment_5_30_19,3.1.0,59.95582276227594,
,,,C,D,d,v,R,U,g,L,u,,,,,5,19,119,9,2,0,2,0,,,,,1,3,39,10,,,,,,up,0.617219178344385,2236.597608819742,None,001,34,2019_Oct_16_1400,ACPT_experiment_5_30_19,3.1.0,59.95582276227594,
,,,C,D,d,v,R,U,y,R,u,,,,,5,19,119,9,2,0,2,0,,,,,1,4,40,31,,,,,,down,0.7339398419680947,2238.482358193465,None,001,34,2019_Oct_16_1400,ACPT_experiment_5_30_19,3.1.0,59.95582276227594,
,,,C,D,d,v,L,D,y,R,y,,,,,5,19,119,9,2,0,2,0,,,,,1,5,41,33,,,,,,down,0.7672544501838274,2240.5005839398873,None,001,34,2019_Oct_16_1400,ACPT_experiment_5_30_19,3.1.0,59.95582276227594,
,,,C,D,d,v,L,U,g,R,u,,,,,5,19,119,9,2,0,2,0,,,,,1,6,42,23,,,,,,up,0.8339721103438933,2242.5521448207146,None,001,34,2019_Oct_16_1400,ACPT_experiment_5_30_19,3.1.0,59.95582276227594,
,,,C,D,d,v,L,D,d,R,c ,,,,,5,19,119,9,2,0,2,0,,,,,1,7,43,13,,,,,,up,0.6838997102495341,2244.670401929943,None,001,34,2019_Oct_16_1400,ACPT_experiment_5_30_19,3.1.0,59.95582276227594,
,,,C,D,d,v,L,G,y,R,y,,,,,5,19,119,9,2,0,2,0,,,,,1,8,44,35,,,,,,down,0.8006306369679805,2246.638574866709,None,001,34,2019_Oct_16_1400,ACPT_experiment_5_30_19,3.1.0,59.95582276227594,
,,,C,D,d,v,R,D,d,R,c ,,,,,5,19,119,9,2,0,2,0,,,,,1,9,45,1,,,,,,up,0.6004444523605343,2248.7235279326705,None,001,34,2019_Oct_16_1400,ACPT_experiment_5_30_19,3.1.0,59.95582276227594,
,,,C,D,d,v,L,D,g,R,i,,,,,5,19,119,9,2,0,2,0,,,,,1,10,46,15,,,,,,up,0.9006921853469976,2250.6082751934046,None,001,34,2019_Oct_16_1400,ACPT_experiment_5_30_19,3.1.0,59.95582276227594,
,,,C,D,d,v,L,G,d,R,i,,,,,5,19,119,9,2,0,2,0,,,,,1,11,47,17,,,,,,up,0.5003641889234132,2252.793320597033,None,001,34,2019_Oct_16_1400,ACPT_experiment_5_30_19,3.1.0,59.95582276227594,
,,,C,D,d,v,R,U,d,L,u,,,,,5,19,119,9,2,0,2,0,,,,,1,12,48,8,,,,,,up,0.6338441838888684,2254.5779589180383,None,001,34,2019_Oct_16_1400,ACPT_experiment_5_30_19,3.1.0,59.95582276227594,
,,,C,D,d,v,L,U,d,R,u,,,,,5,19,119,9,2,0,2,0,,,,,1,13,49,21,,,,,,up,0.5668304032697051,2256.4963769767382,None,001,34,2019_Oct_16_1400,ACPT_experiment_5_30_19,3.1.0,59.95582276227594,
,,,C,D,d,v,L,D,y,L,y,,,,,5,19,119,9,2,0,2,0,,,,,1,14,50,32,,,,,,down,0.8172924689097272,2258.3475213570455,None,001,34,2019_Oct_16_1400,ACPT_experiment_5_30_19,3.1.0,59.95582276227594,
,,,C,D,d,v,R,G,g,R,c ,,,,,5,19,119,9,2,0,2,0,,,,,1,15,51,7,,,,,,up,1.1675573925822391,2260.449121162168,None,001,34,2019_Oct_16_1400,ACPT_experiment_5_30_19,3.1.0,59.95582276227594,
,,,C,D,d,v,R,U,y,L,u,,,,,5,19,119,9,2,0,2,0,,,,,1,16,52,30,,,,,,down,0.666988847337052,2262.9345030443656,None,001,34,2019_Oct_16_1400,ACPT_experiment_5_30_19,3.1.0,59.95582276227594,
,,,C,D,d,v,R,D,g,L,i,,,,,5,19,119,9,2,0,2,0,,,,,1,17,53,2,,,,,,up,0.6504824710900721,2264.902522034714,None,001,34,2019_Oct_16_1400,ACPT_experiment_5_30_19,3.1.0,59.95582276227594,
,,,C,D,d,v,L,G,g,L,c ,,,,,5,19,119,9,2,0,2,0,,,,,1,18,54,18,,,,,,up,0.567096640013915,2266.8373254255166,None,001,34,2019_Oct_16_1400,ACPT_experiment_5_30_19,3.1.0,59.95582276227594,
,,,C,D,d,v,R,D,y,L,y,,,,,5,19,119,9,2,0,2,0,,,,,1,19,55,26,,,,,,down,0.6671880721114576,2268.6887345332907,None,001,34,2019_Oct_16_1400,ACPT_experiment_5_30_19,3.1.0,59.95582276227594,
,,,C,D,d,v,L,U,y,L,u,,,,,5,19,119,9,2,0,2,0,,,,,1,20,56,24,,,,,,down,0.7505612252462015,2270.6402368842937,None,001,34,2019_Oct_16_1400,ACPT_experiment_5_30_19,3.1.0,59.95582276227594,
,,,C,D,d,v,L,D,g,L,i,,,,,5,19,119,9,2,0,2,0,,,,,1,21,57,14,,,,,,up,0.8506463183693995,2272.6751069550264,None,001,34,2019_Oct_16_1400,ACPT_experiment_5_30_19,3.1.0,59.95582276227594,
,,,C,D,d,v,R,U,d,R,u,,,,,5,19,119,9,2,0,2,0,,,,,1,22,58,9,,,,,,up,0.850666844558873,2274.8100687597143,None,001,34,2019_Oct_16_1400,ACPT_experiment_5_30_19,3.1.0,59.95582276227594,
,,,C,D,d,v,L,G,y,L,y,,,,,5,19,119,9,2,0,2,0,,,,,1,23,59,34,,,,,,down,0.497060076231719,2276.965029109455,None,001,34,2019_Oct_16_1400,ACPT_experiment_5_30_19,3.1.0,59.95582276227594,
,,,C,D,d,v,R,G,g,L,c ,,,,,5,19,119,9,2,0,2,0,,,,,1,24,60,6,,,,,,up,0.6004610544223397,2278.746396521896,None,001,34,2019_Oct_16_1400,ACPT_experiment_5_30_19,3.1.0,59.95582276227594,
,,,C,D,d,v,L,U,g,L,u,,,,,5,19,119,9,2,0,2,0,,,,,1,25,61,22,,,,,,up,0.5003557369636837,2280.6312107946032,None,001,34,2019_Oct_16_1400,ACPT_experiment_5_30_19,3.1.0,59.95582276227594,
,,,C,D,d,v,R,G,d,R,i,,,,,5,19,119,9,2,0,2,0,,,,,1,26,62,5,,,,,,up,0.8006040736618161,2282.4158651139624,None,001,34,2019_Oct_16_1400,ACPT_experiment_5_30_19,3.1.0,59.95582276227594,
,,,C,D,d,v,L,G,g,R,c ,,,,,5,19,119,9,2,0,2,0,,,,,1,27,63,19,,,,,,up,0.6004523006085947,2284.500790409198,None,001,34,2019_Oct_16_1400,ACPT_experiment_5_30_19,3.1.0,59.95582276227594,
,,,C,D,d,v,R,D,y,R,y,,,,,5,19,119,9,2,0,2,0,,,,,1,28,64,27,,,,,,down,0.717206168359553,2286.4022360264207,None,001,34,2019_Oct_16_1400,ACPT_experiment_5_30_19,3.1.0,59.95582276227594,
,,,C,D,d,v,R,U,g,R,u,,,,,5,19,119,9,2,0,2,0,,,,,1,29,65,11,,,,,,up,0.4837047718283429,2288.420446076343,None,001,34,2019_Oct_16_1400,ACPT_experiment_5_30_19,3.1.0,59.95582276227594,
,,,C,D,d,v,R,G,y,R,y,,,,,5,19,119,9,2,0,2,0,,,,,1,30,66,29,,,,,,down,0.4834122736356221,2290.2054276072995,None,001,34,2019_Oct_16_1400,ACPT_experiment_5_30_19,3.1.0,59.95582276227594,
,,,C,D,d,v,L,D,d,L,c ,,,,,5,19,119,9,2,0,2,0,,,,,1,31,67,12,,,,,,up,0.8339706010665395,2291.9731635173557,None,001,34,2019_Oct_16_1400,ACPT_experiment_5_30_19,3.1.0,59.95582276227594,
,,,C,D,d,v,R,D,d,L,c,,,,,5,19,119,9,2,0,2,0,,,,,1,32,68,0,,,,,,up,0.7505736013299611,2294.0914330026717,None,001,34,2019_Oct_16_1400,ACPT_experiment_5_30_19,3.1.0,59.95582276227594,
,,,C,D,d,v,L,U,d,L,u,,,,,5,19,119,9,2,0,2,0,,,,,1,33,69,20,,,,,,up,0.5503949631129217,2296.126331749696,None,001,34,2019_Oct_16_1400,ACPT_experiment_5_30_19,3.1.0,59.95582276227594,
,,,C,D,d,v,L,G,d,L,i,,,,,5,19,119,9,2,0,2,0,,,,,1,34,70,16,,,,,,up,0.48370537554001203,2297.9610403879924,None,001,34,2019_Oct_16_1400,ACPT_experiment_5_30_19,3.1.0,59.95582276227594,
,,,C,D,d,v,L,U,y,R,u,,,,,5,19,119,9,2,0,2,0,,,,,1,35,71,25,,,,,,down,0.6671769034510362,2299.7290588350006,None,001,34,2019_Oct_16_1400,ACPT_experiment_5_30_19,3.1.0,59.95582276227594,
,,,C,D,d,v,,,,,,,,,,5,19,119,9,3,0,3,0,0,0,0,0,,,,,,,,,,,,,,001,34,2019_Oct_16_1400,ACPT_experiment_5_30_19,3.1.0,59.95582276227594,
,,,C,D,d,v,L,D,y,L,y,,,,,5,19,119,9,3,0,3,0,,,,,0,0,0,32,,,,,,down,0.7836871736362809,2358.0070721776247,None,001,34,2019_Oct_16_1400,ACPT_experiment_5_30_19,3.1.0,59.95582276227594,
,,,C,D,d,v,R,G,g,L,c ,,,,,5,19,119,9,3,0,3,0,,,,,0,1,1,6,,,,,,up,0.650496658308839,2360.075065781908,None,001,34,2019_Oct_16_1400,ACPT_experiment_5_30_19,3.1.0,59.95582276227594,
,,,C,D,d,v,R,G,g,R,c ,,,,,5,19,119,9,3,0,3,0,,,,,0,2,2,7,,,,,,up,0.45049249269868596,2361.99304796095,None,001,34,2019_Oct_16_1400,ACPT_experiment_5_30_19,3.1.0,59.95582276227594,
,,,C,D,d,v,R,U,g,R,u,,,,,5,19,119,9,3,0,3,0,,,,,0,3,3,11,,,,,,up,0.7337729157516151,2363.727854430683,None,001,34,2019_Oct_16_1400,ACPT_experiment_5_30_19,3.1.0,59.95582276227594,
,,,C,D,d,v,L,G,g,R,c ,,,,,5,19,119,9,3,0,3,0,,,,,0,4,4,19,,,,,,up,0.46702633781387703,2365.7460590472037,None,001,34,2019_Oct_16_1400,ACPT_experiment_5_30_19,3.1.0,59.95582276227594,
,,,C,D,d,v,R,U,y,L,u,,,,,5,19,119,9,3,0,3,0,,,,,0,5,5,30,,,,,,down,0.6671436993201496,2367.497418680825,None,001,34,2019_Oct_16_1400,ACPT_experiment_5_30_19,3.1.0,59.95582276227594,
,,,C,D,d,v,L,D,g,L,i,,,,,5,19,119,9,3,0,3,0,,,,,0,6,6,14,,,,,,up,0.48371020522972685,2369.448882092438,None,001,34,2019_Oct_16_1400,ACPT_experiment_5_30_19,3.1.0,59.95582276227594,
,,,C,D,d,v,L,U,g,R,u,,,,,5,19,119,9,3,0,3,0,,,,,0,7,7,23,,,,,,up,0.5001163653796539,2371.217159833508,None,001,34,2019_Oct_16_1400,ACPT_experiment_5_30_19,3.1.0,59.95582276227594,
,,,C,D,d,v,R,U,d,R,u,,,,,5,19,119,9,3,0,3,0,,,,,0,8,8,9,,,,,,up,0.5170577157186926,2373.001590779637,None,001,34,2019_Oct_16_1400,ACPT_experiment_5_30_19,3.1.0,59.95582276227594,
,,,C,D,d,v,R,D,d,L,c,,,,,5,19,119,9,3,0,3,0,,,,,0,9,9,0,,,,,,up,0.6838894471547974,2374.802960661258,None,001,34,2019_Oct_16_1400,ACPT_experiment_5_30_19,3.1.0,59.95582276227594,
,,,C,D,d,v,L,G,d,L,i,,,,,5,19,119,9,3,0,3,0,,,,,0,10,10,16,,,,,,up,0.46702694152554614,2376.7711332961626,None,001,34,2019_Oct_16_1400,ACPT_experiment_5_30_19,3.1.0,59.95582276227594,
,,,C,D,d,v,R,D,y,R,y,,,,,5,19,119,9,3,0,3,0,,,,,0,11,11,27,,,,,,down,0.6667201957461657,2378.539571020763,None,001,34,2019_Oct_16_1400,ACPT_experiment_5_30_19,3.1.0,59.95582276227594,
,,,C,D,d,v,L,G,g,L,c ,,,,,5,19,119,9,3,0,3,0,,,,,0,12,12,18,,,,,,up,0.6171301309077535,2380.4906326624186,None,001,34,2019_Oct_16_1400,ACPT_experiment_5_30_19,3.1.0,59.95582276227594,
,,,C,D,d,v,L,U,y,R,u,,,,,5,19,119,9,3,0,3,0,,,,,0,13,13,25,,,,,,down,0.6004589414333168,2382.3920776759296,None,001,34,2019_Oct_16_1400,ACPT_experiment_5_30_19,3.1.0,59.95582276227594,
,,,C,D,d,v,R,G,d,L,i,,,,,5,19,119,9,3,0,3,0,,,,,0,14,14,4,,,,,,up,0.5671129402217048,2384.276831879346,None,001,34,2019_Oct_16_1400,ACPT_experiment_5_30_19,3.1.0,59.95582276227594,
,,,C,D,d,v,L,U,y,L,u,,,,,5,19,119,9,3,0,3,0,,,,,0,15,15,24,,,,,,down,0.883998054840049,2386.144945682572,None,001,34,2019_Oct_16_1400,ACPT_experiment_5_30_19,3.1.0,59.95582276227594,
,,,C,D,d,v,R,U,g,L,u,,,,,5,19,119,9,3,0,3,0,,,,,0,16,16,10,,,,,,up,0.533782937363867,2388.3299461096976,None,001,34,2019_Oct_16_1400,ACPT_experiment_5_30_19,3.1.0,59.95582276227594,
,,,C,D,d,v,R,G,y,R,y,,,,,5,19,119,9,3,0,3,0,,,,,0,17,17,29,,,,,,down,0.6504866970681178,2390.1480049902784,None,001,34,2019_Oct_16_1400,ACPT_experiment_5_30_19,3.1.0,59.95582276227594,
,,,C,D,d,v,L,D,d,L,c ,,,,,5,19,119,9,3,0,3,0,,,,,0,18,18,12,,,,,,up,0.46704837328434223,2392.082800230979,None,001,34,2019_Oct_16_1400,ACPT_experiment_5_30_19,3.1.0,59.95582276227594,
,,,C,D,d,v,L,D,d,R,c ,,,,,5,19,119,9,3,0,3,0,,,,,0,19,19,13,,,,,,up,0.5504390340502141,2393.817438868933,None,001,34,2019_Oct_16_1400,ACPT_experiment_5_30_19,3.1.0,59.95582276227594,
,,,C,D,d,v,L,D,y,R,y,,,,,5,19,119,9,3,0,3,0,,,,,0,20,20,33,,,,,,down,0.6838764673557307,2395.6354847697185,None,001,34,2019_Oct_16_1400,ACPT_experiment_5_30_19,3.1.0,59.95582276227594,
,,,C,D,d,v,R,G,y,L,y,,,,,5,19,119,9,3,0,3,0,,,,,0,21,21,28,,,,,,down,0.7169743431695679,2397.620588190017,None,001,34,2019_Oct_16_1400,ACPT_experiment_5_30_19,3.1.0,59.95582276227594,
,,,C,D,d,v,L,G,y,R,y,,,,,5,19,119,9,3,0,3,0,,,,,0,22,22,35,,,,,,down,0.4503415648396185,2399.621880736202,None,001,34,2019_Oct_16_1400,ACPT_experiment_5_30_19,3.1.0,59.95582276227594,
,,,C,D,d,v,L,U,g,L,u,,,,,5,19,119,9,3,0,3,0,,,,,0,23,23,22,,,,,,up,0.533750638802303,2401.3565199778677,None,001,34,2019_Oct_16_1400,ACPT_experiment_5_30_19,3.1.0,59.95582276227594,
,,,C,D,d,v,R,D,d,R,c ,,,,,5,19,119,9,3,0,3,0,,,,,0,24,24,1,,,,,,up,0.5003717353174579,2403.1745930456673,None,001,34,2019_Oct_16_1400,ACPT_experiment_5_30_19,3.1.0,59.95582276227594,
,,,C,D,d,v,R,D,g,L,i,,,,,5,19,119,9,3,0,3,0,,,,,0,25,25,2,,,,,,up,0.5000680684643157,2404.992945028149,None,001,34,2019_Oct_16_1400,ACPT_experiment_5_30_19,3.1.0,59.95582276227594,
,,,C,D,d,v,L,U,d,L,u,,,,,5,19,119,9,3,0,3,0,,,,,0,26,26,20,,,,,,up,0.400417647571885,2406.777338242311,None,001,34,2019_Oct_16_1400,ACPT_experiment_5_30_19,3.1.0,59.95582276227594,
,,,C,D,d,v,L,D,g,R,i,,,,,5,19,119,9,3,0,3,0,,,,,0,27,27,15,,,,,,up,0.48371141265306505,2408.4619527469004,None,001,34,2019_Oct_16_1400,ACPT_experiment_5_30_19,3.1.0,59.95582276227594,
,,,C,D,d,v,R,D,y,L,y,,,,,5,19,119,9,3,0,3,0,,,,,0,28,28,26,,,,,,down,0.6338127908929891,2410.229969684631,None,001,34,2019_Oct_16_1400,ACPT_experiment_5_30_19,3.1.0,59.95582276227594,
,,,C,D,d,v,R,D,g,R,i,,,,,5,19,119,9,3,0,3,0,,,,,0,29,29,3,,,,,,up,0.5501453284377931,2412.1483663115723,None,001,34,2019_Oct_16_1400,ACPT_experiment_5_30_19,3.1.0,59.95582276227594,
,,,C,D,d,v,R,G,d,R,i,,,,,5,19,119,9,3,0,3,0,,,,,0,30,30,5,,,,,,up,0.5504218282731017,2413.9828259189017,None,001,34,2019_Oct_16_1400,ACPT_experiment_5_30_19,3.1.0,59.95582276227594,
,,,C,D,d,v,L,G,y,L,y,,,,,5,19,119,9,3,0,3,0,,,,,0,31,31,34,,,,,,down,0.7506285390700214,2415.817534859052,None,001,34,2019_Oct_16_1400,ACPT_experiment_5_30_19,3.1.0,59.95582276227594,
,,,C,D,d,v,L,U,d,R,u,,,,,5,19,119,9,3,0,3,0,,,,,0,32,32,21,,,,,,up,0.6171603164802946,2417.8524191170036,None,001,34,2019_Oct_16_1400,ACPT_experiment_5_30_19,3.1.0,59.95582276227594,
,,,C,D,d,v,R,U,d,L,u,,,,,5,19,119,9,3,0,3,0,,,,,0,33,33,8,,,,,,up,0.9674022991130187,2419.7538958253645,None,001,34,2019_Oct_16_1400,ACPT_experiment_5_30_19,3.1.0,59.95582276227594,
,,,C,D,d,v,R,U,y,R,u,,,,,5,19,119,9,3,0,3,0,,,,,0,34,34,31,,,,,,down,0.75058778854509,2421.9889134431724,None,001,34,2019_Oct_16_1400,ACPT_experiment_5_30_19,3.1.0,59.95582276227594,
,,,C,D,d,v,L,G,d,R,i,,,,,5,19,119,9,3,0,3,0,,,,,0,35,35,17,,,,,,up,0.6338728601804178,2424.0238136994813,None,001,34,2019_Oct_16_1400,ACPT_experiment_5_30_19,3.1.0,59.95582276227594,
,,,C,D,d,v,R,G,g,L,c ,,,,,5,19,119,9,3,0,3,0,,,,,1,0,36,6,,,,,,up,0.7338966766001249,2425.941942580401,None,001,34,2019_Oct_16_1400,ACPT_experiment_5_30_19,3.1.0,59.95582276227594,
,,,C,D,d,v,L,G,d,L,i,,,,,5,19,119,9,3,0,3,0,,,,,1,1,37,16,,,,,,up,0.5003765650071728,2427.960150517334,None,001,34,2019_Oct_16_1400,ACPT_experiment_5_30_19,3.1.0,59.95582276227594,
,,,C,D,d,v,L,D,d,R,c ,,,,,5,19,119,9,3,0,3,0,,,,,1,2,38,13,,,,,,up,0.5170728085067822,2429.7448211369046,None,001,34,2019_Oct_16_1400,ACPT_experiment_5_30_19,3.1.0,59.95582276227594,
,,,C,D,d,v,R,D,y,R,y,,,,,5,19,119,9,3,0,3,0,,,,,1,3,39,27,,,,,,down,0.6171482422469126,2431.546200979763,None,001,34,2019_Oct_16_1400,ACPT_experiment_5_30_19,3.1.0,59.95582276227594,
,,,C,D,d,v,R,G,y,L,y,,,,,5,19,119,9,3,0,3,0,,,,,1,4,40,28,,,,,,down,0.5504109614703339,2433.4643494813063,None,001,34,2019_Oct_16_1400,ACPT_experiment_5_30_19,3.1.0,59.95582276227594,
,,,C,D,d,v,L,U,g,L,u,,,,,5,19,119,9,3,0,3,0,,,,,1,5,41,22,,,,,,up,0.4670215081278002,2435.3157552686644,None,001,34,2019_Oct_16_1400,ACPT_experiment_5_30_19,3.1.0,59.95582276227594,
,,,C,D,d,v,R,D,d,L,c,,,,,5,19,119,9,3,0,3,0,,,,,1,6,42,0,,,,,,up,0.933777081365406,2437.0840411598365,None,001,34,2019_Oct_16_1400,ACPT_experiment_5_30_19,3.1.0,59.95582276227594,
,,,C,D,d,v,L,U,y,L,u,,,,,5,19,119,9,3,0,3,0,,,,,1,7,43,24,,,,,,down,0.5671147513567121,2439.3021092772033,None,001,34,2019_Oct_16_1400,ACPT_experiment_5_30_19,3.1.0,59.95582276227594,
,,,C,D,d,v,L,U,g,R,u,,,,,5,19,119,9,3,0,3,0,,,,,1,8,44,23,,,,,,up,0.8673169041321671,2441.1535537020936,None,001,34,2019_Oct_16_1400,ACPT_experiment_5_30_19,3.1.0,59.95582276227594,
,,,C,D,d,v,L,D,y,L,y,,,,,5,19,119,9,3,0,3,0,,,,,1,9,45,32,,,,,,down,2.0682438426701992,2443.305181564705,None,001,34,2019_Oct_16_1400,ACPT_experiment_5_30_19,3.1.0,59.95582276227594,
,,,C,D,d,v,L,G,y,R,y,,,,,5,19,119,9,3,0,3,0,,,,,1,10,46,35,,,,,,down,0.5671023752729525,2446.6577339510113,None,001,34,2019_Oct_16_1400,ACPT_experiment_5_30_19,3.1.0,59.95582276227594,
,,,C,D,d,v,L,D,y,R,y,,,,,5,19,119,9,3,0,3,0,,,,,1,11,47,33,,,,,,down,0.6338462968778913,2448.5091391346577,None,001,34,2019_Oct_16_1400,ACPT_experiment_5_30_19,3.1.0,59.95582276227594,
,,,C,D,d,v,R,U,d,R,u,,,,,5,19,119,9,3,0,3,0,,,,,1,12,48,9,,,,,,up,1.1842617861839244,2450.427255035782,None,001,34,2019_Oct_16_1400,ACPT_experiment_5_30_19,3.1.0,59.95582276227594,
,,,C,D,d,v,R,G,g,R,c ,,,,,5,19,119,9,3,0,3,0,,,,,1,13,49,7,,,,,,up,0.6004698082433606,2452.895823554467,None,001,34,2019_Oct_16_1400,ACPT_experiment_5_30_19,3.1.0,59.95582276227594,
,,,C,D,d,v,R,U,g,L,u,,,,,5,19,119,9,3,0,3,0,,,,,1,14,50,10,,,,,,up,0.650490621192148,2454.7639213593393,None,001,34,2019_Oct_16_1400,ACPT_experiment_5_30_19,3.1.0,59.95582276227594,
,,,C,D,d,v,R,U,d,L,u,,,,,5,19,119,9,3,0,3,0,,,,,1,15,51,8,,,,,,up,0.5337618074627244,2456.6820254880913,None,001,34,2019_Oct_16_1400,ACPT_experiment_5_30_19,3.1.0,59.95582276227594,
,,,C,D,d,v,L,D,g,L,i,,,,,5,19,119,9,3,0,3,0,,,,,1,16,52,14,,,,,,up,0.46370954718076973,2458.520085630429,None,001,34,2019_Oct_16_1400,ACPT_experiment_5_30_19,3.1.0,59.95582276227594,
,,,C,D,d,v,R,G,y,R,y,,,,,5,19,119,9,3,0,3,0,,,,,1,17,53,29,,,,,,down,0.7003457153514319,2460.2849415350756,None,001,34,2019_Oct_16_1400,ACPT_experiment_5_30_19,3.1.0,59.95582276227594,
,,,C,D,d,v,R,D,d,R,c ,,,,,5,19,119,9,3,0,3,0,,,,,1,18,54,1,,,,,,up,0.9674016954013496,2462.302995827449,None,001,34,2019_Oct_16_1400,ACPT_experiment_5_30_19,3.1.0,59.95582276227594,
,,,C,D,d,v,L,G,d,R,i,,,,,5,19,119,9,3,0,3,0,,,,,1,19,55,17,,,,,,up,0.5837780925794505,2464.554711499888,None,001,34,2019_Oct_16_1400,ACPT_experiment_5_30_19,3.1.0,59.95582276227594,
,,,C,D,d,v,L,G,g,L,c ,,,,,5,19,119,9,3,0,3,0,,,,,1,20,56,18,,,,,,up,0.5504474860099435,2466.406101892604,None,001,34,2019_Oct_16_1400,ACPT_experiment_5_30_19,3.1.0,59.95582276227594,
,,,C,D,d,v,R,D,g,L,i,,,,,5,19,119,9,3,0,3,0,,,,,1,21,57,2,,,,,,up,0.45032103865014506,2468.240863959363,None,001,34,2019_Oct_16_1400,ACPT_experiment_5_30_19,3.1.0,59.95582276227594,
,,,C,D,d,v,R,U,y,L,u,,,,,5,19,119,9,3,0,3,0,,,,,1,22,58,30,,,,,,down,0.8673087540264532,2469.9755104455653,None,001,34,2019_Oct_16_1400,ACPT_experiment_5_30_19,3.1.0,59.95582276227594,
,,,C,D,d,v,R,D,y,L,y,,,,,5,19,119,9,3,0,3,0,,,,,1,23,59,26,,,,,,down,0.6838707321003312,2472.127143439724,None,001,34,2019_Oct_16_1400,ACPT_experiment_5_30_19,3.1.0,59.95582276227594,
,,,C,D,d,v,R,G,d,L,i,,,,,5,19,119,9,3,0,3,0,,,,,1,24,60,4,,,,,,up,0.6338136964623118,2474.0953157727745,None,001,34,2019_Oct_16_1400,ACPT_experiment_5_30_19,3.1.0,59.95582276227594,
,,,C,D,d,v,L,D,g,R,i,,,,,5,19,119,9,3,0,3,0,,,,,1,25,61,15,,,,,,up,0.5837599812366534,2476.013462161329,None,001,34,2019_Oct_16_1400,ACPT_experiment_5_30_19,3.1.0,59.95582276227594,
,,,C,D,d,v,L,G,g,R,c ,,,,,5,19,119,9,3,0,3,0,,,,,1,26,62,19,,,,,,up,0.6000408712643548,2477.898601532641,None,001,34,2019_Oct_16_1400,ACPT_experiment_5_30_19,3.1.0,59.95582276227594,
,,,C,D,d,v,L,D,d,L,c ,,,,,5,19,119,9,3,0,3,0,,,,,1,27,63,12,,,,,,up,0.700539204870438,2479.7829880757927,None,001,34,2019_Oct_16_1400,ACPT_experiment_5_30_19,3.1.0,59.95582276227594,
,,,C,D,d,v,R,D,g,R,i,,,,,5,19,119,9,3,0,3,0,,,,,1,28,64,3,,,,,,up,0.5503976798172516,2481.7678382391423,None,001,34,2019_Oct_16_1400,ACPT_experiment_5_30_19,3.1.0,59.95582276227594,
,,,C,D,d,v,L,U,d,L,u,,,,,5,19,119,9,3,0,3,0,,,,,1,29,65,20,,,,,,up,0.4836945087299682,2483.6025689129056,None,001,34,2019_Oct_16_1400,ACPT_experiment_5_30_19,3.1.0,59.95582276227594,
,,,C,D,d,v,L,G,y,L,y,,,,,5,19,119,9,3,0,3,0,,,,,1,30,66,34,,,,,,down,0.6004495839079027,2485.370581020943,None,001,34,2019_Oct_16_1400,ACPT_experiment_5_30_19,3.1.0,59.95582276227594,
,,,C,D,d,v,L,U,d,R,u,,,,,5,19,119,9,3,0,3,0,,,,,1,31,67,21,,,,,,up,0.4837086959487351,2487.2553469967315,None,001,34,2019_Oct_16_1400,ACPT_experiment_5_30_19,3.1.0,59.95582276227594,
,,,C,D,d,v,L,U,y,R,u,,,,,5,19,119,9,3,0,3,0,,,,,1,32,68,25,,,,,,up,0.45033703700028127,2489.023364840028,None,001,34,2019_Oct_16_1400,ACPT_experiment_5_30_19,3.1.0,59.95582276227594,
,,,C,D,d,v,R,U,y,R,u,,,,,5,19,119,9,3,0,3,0,,,,,1,33,69,31,,,,,,down,0.8005913957240409,2490.791394153839,None,001,34,2019_Oct_16_1400,ACPT_experiment_5_30_19,3.1.0,59.95582276227594,
,,,C,D,d,v,R,G,d,R,i,,,,,5,19,119,9,3,0,3,0,,,,,1,34,70,5,,,,,,up,0.9340342624382174,2492.8763116008267,None,001,34,2019_Oct_16_1400,ACPT_experiment_5_30_19,3.1.0,59.95582276227594,
,,,C,D,d,v,R,U,g,R,u,,,,,5,19,119,9,3,0,3,0,,,,,1,35,71,11,,,,,,up,0.43366282897113706,2495.094661651434,None,001,34,2019_Oct_16_1400,ACPT_experiment_5_30_19,3.1.0,59.95582276227594,
,,,C,D,d,v,,,,,,,,,,5,19,119,9,4,0,4,0,0,0,0,0,,,,,,,,,,,,,,001,34,2019_Oct_16_1400,ACPT_experiment_5_30_19,3.1.0,59.95582276227594,
,,,C,D,d,v,R,G,g,R,c ,,,,,5,19,119,9,4,0,4,0,,,,,0,0,0,7,,,,,,up,0.6669052333018044,2563.046732698611,None,001,34,2019_Oct_16_1400,ACPT_experiment_5_30_19,3.1.0,59.95582276227594,
,,,C,D,d,v,R,D,y,R,y,,,,,5,19,119,9,4,0,4,0,,,,,0,1,1,27,,,,,,down,0.7672629021435569,2564.9979476829685,None,001,34,2019_Oct_16_1400,ACPT_experiment_5_30_19,3.1.0,59.95582276227594,
,,,C,D,d,v,R,G,d,R,i,,,,,5,19,119,9,4,0,4,0,,,,,0,2,2,5,,,,,,up,0.5504254505431163,2567.049505847095,None,001,34,2019_Oct_16_1400,ACPT_experiment_5_30_19,3.1.0,59.95582276227594,
,,,C,D,d,v,R,D,d,L,c,,,,,5,19,119,9,4,0,4,0,,,,,0,3,3,0,,,,,,up,0.6338013203749142,2568.884254934059,None,001,34,2019_Oct_16_1400,ACPT_experiment_5_30_19,3.1.0,59.95582276227594,
,,,C,D,d,v,L,U,y,L,u,,,,,5,19,119,9,4,0,4,0,,,,,0,4,4,24,,,,,,down,0.7172508430085145,2570.802355138687,None,001,34,2019_Oct_16_1400,ACPT_experiment_5_30_19,3.1.0,59.95582276227594,
,,,C,D,d,v,R,U,y,L,u,,,,,5,19,119,9,4,0,4,0,,,,,0,5,5,30,,,,,,down,0.700488794966077,2572.787263560189,None,001,34,2019_Oct_16_1400,ACPT_experiment_5_30_19,3.1.0,59.95582276227594,
,,,C,D,d,v,L,G,d,R,i,,,,,5,19,119,9,4,0,4,0,,,,,0,6,6,17,,,,,,up,0.6671929018011724,2574.772046107857,None,001,34,2019_Oct_16_1400,ACPT_experiment_5_30_19,3.1.0,59.95582276227594,
,,,C,D,d,v,L,U,y,R,u,,,,,5,19,119,9,4,0,4,0,,,,,0,7,7,25,,,,,,down,0.6171382810098294,2576.7235457421593,None,001,34,2019_Oct_16_1400,ACPT_experiment_5_30_19,3.1.0,59.95582276227594,
,,,C,D,d,v,R,U,y,R,u,,,,,5,19,119,9,4,0,4,0,,,,,0,8,8,31,,,,,,down,0.6002871855307603,2578.6418282676423,None,001,34,2019_Oct_16_1400,ACPT_experiment_5_30_19,3.1.0,59.95582276227594,
,,,C,D,d,v,L,D,y,L,y,,,,,5,19,119,9,4,0,4,0,,,,,0,9,9,32,,,,,,down,0.6505129585166287,2580.5431540481404,None,001,34,2019_Oct_16_1400,ACPT_experiment_5_30_19,3.1.0,59.95582276227594,
,,,C,D,d,v,R,G,y,L,y,,,,,5,19,119,9,4,0,4,0,,,,,0,10,10,28,,,,,,down,0.5668291958500049,2582.4948891299027,None,001,34,2019_Oct_16_1400,ACPT_experiment_5_30_19,3.1.0,59.95582276227594,
,,,C,D,d,v,R,D,g,L,i,,,,,5,19,119,9,4,0,4,0,,,,,0,11,11,2,,,,,,up,0.6338161113089882,2584.3460326046443,None,001,34,2019_Oct_16_1400,ACPT_experiment_5_30_19,3.1.0,59.95582276227594,
,,,C,D,d,v,L,D,g,L,i,,,,,5,19,119,9,4,0,4,0,,,,,0,12,12,14,,,,,,up,0.5504447693056136,2586.2474890886697,None,001,34,2019_Oct_16_1400,ACPT_experiment_5_30_19,3.1.0,59.95582276227594,
,,,C,D,d,v,R,U,d,R,u,,,,,5,19,119,9,4,0,4,0,,,,,0,13,13,9,,,,,,up,0.5670782268134644,2588.0822324403744,None,001,34,2019_Oct_16_1400,ACPT_experiment_5_30_19,3.1.0,59.95582276227594,
,,,C,D,d,v,R,U,g,L,u,,,,,5,19,119,9,4,0,4,0,,,,,0,14,14,10,,,,,,up,0.6505253346003883,2589.9169296081527,None,001,34,2019_Oct_16_1400,ACPT_experiment_5_30_19,3.1.0,59.95582276227594,
,,,C,D,d,v,R,D,g,R,i,,,,,5,19,119,9,4,0,4,0,,,,,0,15,15,3,,,,,,up,0.40030082940575085,2591.8350735818603,None,001,34,2019_Oct_16_1400,ACPT_experiment_5_30_19,3.1.0,59.95582276227594,
,,,C,D,d,v,L,U,g,R,u,,,,,5,19,119,9,4,0,4,0,,,,,0,16,16,23,,,,,,up,0.43366464010978234,2593.519689293873,None,001,34,2019_Oct_16_1400,ACPT_experiment_5_30_19,3.1.0,59.95582276227594,
,,,C,D,d,v,R,D,y,L,y,,,,,5,19,119,9,4,0,4,0,,,,,0,17,17,26,,,,,,down,0.7002883627683332,2595.254586622177,None,001,34,2019_Oct_16_1400,ACPT_experiment_5_30_19,3.1.0,59.95582276227594,
,,,C,D,d,v,R,G,d,L,i,,,,,5,19,119,9,4,0,4,0,,,,,0,18,18,4,,,,,,up,0.8173286915989593,2597.239191074972,None,001,34,2019_Oct_16_1400,ACPT_experiment_5_30_19,3.1.0,59.95582276227594,
,,,C,D,d,v,L,D,y,R,y,,,,,5,19,119,9,4,0,4,0,,,,,0,19,19,33,,,,,,down,0.41698047083991696,2599.340798426485,None,001,34,2019_Oct_16_1400,ACPT_experiment_5_30_19,3.1.0,59.95582276227594,
,,,C,D,d,v,L,U,d,L,u,,,,,5,19,119,9,4,0,4,0,,,,,0,20,20,20,,,,,,up,0.5670809435177944,2601.042109174574,None,001,34,2019_Oct_16_1400,ACPT_experiment_5_30_19,3.1.0,59.95582276227594,
,,,C,D,d,v,R,G,g,L,c ,,,,,5,19,119,9,4,0,4,0,,,,,0,21,21,6,,,,,,up,0.7171922829984396,2602.910200942333,None,001,34,2019_Oct_16_1400,ACPT_experiment_5_30_19,3.1.0,59.95582276227594,
,,,C,D,d,v,R,U,d,L,u,,,,,5,19,119,9,4,0,4,0,,,,,0,22,22,8,,,,,,up,0.7172170351659588,2604.911709315358,None,001,34,2019_Oct_16_1400,ACPT_experiment_5_30_19,3.1.0,59.95582276227594,
,,,C,D,d,v,L,U,d,R,u,,,,,5,19,119,9,4,0,4,0,,,,,0,23,23,21,,,,,,up,0.46703660091225174,2606.91321285869,None,001,34,2019_Oct_16_1400,ACPT_experiment_5_30_19,3.1.0,59.95582276227594,
,,,C,D,d,v,R,D,d,R,c ,,,,,5,19,119,9,4,0,4,0,,,,,0,24,24,1,,,,,,up,0.667172979323368,2608.6645730960227,None,001,34,2019_Oct_16_1400,ACPT_experiment_5_30_19,3.1.0,59.95582276227594,
,,,C,D,d,v,L,U,g,L,u,,,,,5,19,119,9,4,0,4,0,,,,,0,25,25,22,,,,,,up,0.416971717022534,2610.616082389708,None,001,34,2019_Oct_16_1400,ACPT_experiment_5_30_19,3.1.0,59.95582276227594,
,,,C,D,d,v,L,D,d,L,c ,,,,,5,19,119,9,4,0,4,0,,,,,0,26,26,12,,,,,,up,0.48372439244849375,2612.3173339740715,None,001,34,2019_Oct_16_1400,ACPT_experiment_5_30_19,3.1.0,59.95582276227594,
,,,C,D,d,v,L,G,g,R,c ,,,,,5,19,119,9,4,0,4,0,,,,,0,27,27,19,,,,,,up,0.6505162789289898,2614.0853448746857,None,001,34,2019_Oct_16_1400,ACPT_experiment_5_30_19,3.1.0,59.95582276227594,
,,,C,D,d,v,R,U,g,R,u,,,,,5,19,119,9,4,0,4,0,,,,,0,28,28,11,,,,,,up,0.5833494574617362,2616.0372598624563,None,001,34,2019_Oct_16_1400,ACPT_experiment_5_30_19,3.1.0,59.95582276227594,
,,,C,D,d,v,L,G,g,L,c ,,,,,5,19,119,9,4,0,4,0,,,,,0,29,29,18,,,,,,up,0.7338948654651176,2617.9049474454114,None,001,34,2019_Oct_16_1400,ACPT_experiment_5_30_19,3.1.0,59.95582276227594,
,,,C,D,d,v,L,G,y,L,y,,,,,5,19,119,9,4,0,4,0,,,,,0,30,30,34,,,,,,down,0.9507238651058287,2619.923149345228,None,001,34,2019_Oct_16_1400,ACPT_experiment_5_30_19,3.1.0,59.95582276227594,
,,,C,D,d,v,R,G,y,R,y,,,,,5,19,119,9,4,0,4,0,,,,,0,31,31,29,,,,,,down,0.6338616915236344,2622.158187791083,None,001,34,2019_Oct_16_1400,ACPT_experiment_5_30_19,3.1.0,59.95582276227594,
,,,C,D,d,v,L,D,d,R,c ,,,,,5,19,119,9,4,0,4,0,,,,,0,32,32,13,,,,,,up,0.8506511480627523,2624.076323312831,None,001,34,2019_Oct_16_1400,ACPT_experiment_5_30_19,3.1.0,59.95582276227594,
,,,C,D,d,v,L,G,d,L,i,,,,,5,19,119,9,4,0,4,0,,,,,0,33,33,16,,,,,,up,0.5170504711786634,2626.211280891537,None,001,34,2019_Oct_16_1400,ACPT_experiment_5_30_19,3.1.0,59.95582276227594,
,,,C,D,d,v,L,D,g,R,i,,,,,5,19,119,9,4,0,4,0,,,,,0,34,34,15,,,,,,up,0.4503989174263552,2628.012632359958,None,001,34,2019_Oct_16_1400,ACPT_experiment_5_30_19,3.1.0,59.95582276227594,
,,,C,D,d,v,L,G,y,R,y,,,,,5,19,119,9,4,0,4,0,,,,,0,35,35,35,,,,,,down,0.8172728482895764,2629.764003765951,None,001,34,2019_Oct_16_1400,ACPT_experiment_5_30_19,3.1.0,59.95582276227594,
,,,C,D,d,v,L,U,g,L,u,,,,,5,19,119,9,4,0,4,0,,,,,1,0,36,22,,,,,,up,0.5170622435543919,2631.8822705345665,None,001,34,2019_Oct_16_1400,ACPT_experiment_5_30_19,3.1.0,59.95582276227594,
,,,C,D,d,v,L,G,d,L,i,,,,,5,19,119,9,4,0,4,0,,,,,1,1,37,16,,,,,,up,0.3836163582855079,2633.6836443403117,None,001,34,2019_Oct_16_1400,ACPT_experiment_5_30_19,3.1.0,59.95582276227594,
,,,C,D,d,v,R,D,d,R,c ,,,,,5,19,119,9,4,0,4,0,,,,,1,2,38,1,,,,,,up,0.46674953612455283,2635.3518457420687,None,001,34,2019_Oct_16_1400,ACPT_experiment_5_30_19,3.1.0,59.95582276227594,
,,,C,D,d,v,L,U,d,L,u,,,,,5,19,119,9,4,0,4,0,,,,,1,3,39,20,,,,,,up,0.5671310515645018,2637.102911971928,None,001,34,2019_Oct_16_1400,ACPT_experiment_5_30_19,3.1.0,59.95582276227594,
,,,C,D,d,v,R,D,g,L,i,,,,,5,19,119,9,4,0,4,0,,,,,1,4,40,2,,,,,,up,0.5336963047702739,2638.95435217084,None,001,34,2019_Oct_16_1400,ACPT_experiment_5_30_19,3.1.0,59.95582276227594,
,,,C,D,d,v,L,G,y,L,y,,,,,5,19,119,9,4,0,4,0,,,,,1,5,41,34,,,,,,down,0.5671431257942459,2640.7723567173925,None,001,34,2019_Oct_16_1400,ACPT_experiment_5_30_19,3.1.0,59.95582276227594,
,,,C,D,d,v,L,G,y,R,y,,,,,5,19,119,9,4,0,4,0,,,,,1,6,42,35,,,,,,down,0.3969921888819954,2642.6437833871278,None,001,34,2019_Oct_16_1400,ACPT_experiment_5_30_19,3.1.0,59.95582276227594,
,,,C,D,d,v,R,U,y,R,u,,,,,5,19,119,9,4,0,4,0,,,,,1,7,43,31,,,,,,down,0.4169913376463228,2644.325082610365,None,001,34,2019_Oct_16_1400,ACPT_experiment_5_30_19,3.1.0,59.95582276227594,
,,,C,D,d,v,R,G,y,L,y,,,,,5,19,119,9,4,0,4,0,,,,,1,8,44,28,,,,,,down,0.38363567705164314,2646.0430422105965,None,001,34,2019_Oct_16_1400,ACPT_experiment_5_30_19,3.1.0,59.95582276227594,
,,,C,D,d,v,R,D,y,R,y,,,,,5,19,119,9,4,0,4,0,,,,,1,9,45,27,,,,,,down,0.40029750899702776,2647.7276820710686,None,001,34,2019_Oct_16_1400,ACPT_experiment_5_30_19,3.1.0,59.95582276227594,
,,,C,D,d,v,L,G,d,R,i,,,,,5,19,119,9,4,0,4,0,,,,,1,10,46,17,,,,,,up,0.5833708892132563,2649.4293580645717,None,001,34,2019_Oct_16_1400,ACPT_experiment_5_30_19,3.1.0,59.95582276227594,
,,,C,D,d,v,L,D,g,R,i,,,,,5,19,119,9,4,0,4,0,,,,,1,11,47,15,,,,,,up,0.3836260176685755,2651.2970655700046,None,001,34,2019_Oct_16_1400,ACPT_experiment_5_30_19,3.1.0,59.95582276227594,
,,,C,D,d,v,R,U,d,L,u,,,,,5,19,119,9,4,0,4,0,,,,,1,12,48,8,,,,,,up,0.4670145654454245,2652.96500284801,None,001,34,2019_Oct_16_1400,ACPT_experiment_5_30_19,3.1.0,59.95582276227594,
,,,C,D,d,v,L,U,g,R,u,,,,,5,19,119,9,4,0,4,0,,,,,1,13,49,23,,,,,,up,0.533729810758814,2654.7163470869855,None,001,34,2019_Oct_16_1400,ACPT_experiment_5_30_19,3.1.0,59.95582276227594,
,,,C,D,d,v,L,U,y,R,u,,,,,5,19,119,9,4,0,4,0,,,,,1,14,50,25,,,,,,down,0.6304975095408736,2656.554392136539,None,001,34,2019_Oct_16_1400,ACPT_experiment_5_30_19,3.1.0,59.95582276227594,
,,,C,D,d,v,R,U,d,R,u,,,,,5,19,119,9,4,0,4,0,,,,,1,15,51,9,,,,,,up,0.5504230356964399,2658.469196680431,None,001,34,2019_Oct_16_1400,ACPT_experiment_5_30_19,3.1.0,59.95582276227594,
,,,C,D,d,v,R,U,y,L,u,,,,,5,19,119,9,4,0,4,0,,,,,1,16,52,30,,,,,,down,0.5004269749115338,2660.287239562658,None,001,34,2019_Oct_16_1400,ACPT_experiment_5_30_19,3.1.0,59.95582276227594,
,,,C,D,d,v,R,G,d,L,i,,,,,5,19,119,9,4,0,4,0,,,,,1,17,53,4,,,,,,up,0.6004535080319329,2662.0719488197574,None,001,34,2019_Oct_16_1400,ACPT_experiment_5_30_19,3.1.0,59.95582276227594,
,,,C,D,d,v,L,D,d,R,c ,,,,,5,19,119,9,4,0,4,0,,,,,1,18,54,13,,,,,,up,0.35026250882583554,2663.9400405875203,None,001,34,2019_Oct_16_1400,ACPT_experiment_5_30_19,3.1.0,59.95582276227594,
,,,C,D,d,v,R,D,y,L,y,,,,,5,19,119,9,4,0,4,0,,,,,1,19,55,26,,,,,,up,0.43367339392352733,2665.57460107503,None,001,34,2019_Oct_16_1400,ACPT_experiment_5_30_19,3.1.0,59.95582276227594,
,,,C,D,d,v,L,D,d,L,c ,,,,,5,19,119,9,4,0,4,0,,,,,1,20,56,12,,,,,,up,0.41698107455158606,2667.2925959923814,None,001,34,2019_Oct_16_1400,ACPT_experiment_5_30_19,3.1.0,59.95582276227594,
,,,C,D,d,v,L,U,d,R,u,,,,,5,19,119,9,4,0,4,0,,,,,1,21,57,21,,,,,,down,0.4803801329435373,2669.013885966757,None,001,34,2019_Oct_16_1400,ACPT_experiment_5_30_19,3.1.0,59.95582276227594,
,,,C,D,d,v,L,D,g,L,i,,,,,5,19,119,9,4,0,4,0,,,,,1,22,58,14,,,,,,up,0.6171412995681749,2670.778585811997,None,001,34,2019_Oct_16_1400,ACPT_experiment_5_30_19,3.1.0,59.95582276227594,
,,,C,D,d,v,R,U,g,R,u,,,,,5,19,119,9,4,0,4,0,,,,,1,23,59,11,,,,,,up,0.6004519987545791,2672.6800338440626,None,001,34,2019_Oct_16_1400,ACPT_experiment_5_30_19,3.1.0,59.95582276227594,
,,,C,D,d,v,R,G,g,R,c ,,,,,5,19,119,9,4,0,4,0,,,,,1,24,60,7,,,,,,up,0.4336613196937833,2674.564801630986,None,001,34,2019_Oct_16_1400,ACPT_experiment_5_30_19,3.1.0,59.95582276227594,
,,,C,D,d,v,L,D,y,L,y,,,,,5,19,119,9,4,0,4,0,,,,,1,25,61,32,,,,,,down,0.5501755140066962,2676.2997007704253,None,001,34,2019_Oct_16_1400,ACPT_experiment_5_30_19,3.1.0,59.95582276227594,
,,,C,D,d,v,R,D,d,L,c,,,,,5,19,119,9,4,0,4,0,,,,,1,26,62,0,,,,,,up,0.6505141659363289,2678.134193581882,None,001,34,2019_Oct_16_1400,ACPT_experiment_5_30_19,3.1.0,59.95582276227594,
,,,C,D,d,v,R,G,y,R,y,,,,,5,19,119,9,4,0,4,0,,,,,1,27,63,29,,,,,,down,0.5502271313343954,2680.0858480681673,None,001,34,2019_Oct_16_1400,ACPT_experiment_5_30_19,3.1.0,59.95582276227594,
,,,C,D,d,v,R,G,g,L,c ,,,,,5,19,119,9,4,0,4,0,,,,,1,28,64,6,,,,,,up,0.45032647205516696,2681.937097192411,None,001,34,2019_Oct_16_1400,ACPT_experiment_5_30_19,3.1.0,59.95582276227594,
,,,C,D,d,v,R,G,d,R,i,,,,,5,19,119,9,4,0,4,0,,,,,1,29,65,5,,,,,,up,0.46703599720058264,2683.6550486425404,None,001,34,2019_Oct_16_1400,ACPT_experiment_5_30_19,3.1.0,59.95582276227594,
,,,C,D,d,v,L,G,g,R,c ,,,,,5,19,119,9,4,0,4,0,,,,,1,30,66,19,,,,,,up,0.5504151874483796,2685.406404352034,None,001,34,2019_Oct_16_1400,ACPT_experiment_5_30_19,3.1.0,59.95582276227594,
,,,C,D,d,v,R,U,g,L,u,,,,,5,19,119,9,4,0,4,0,,,,,1,31,67,10,,,,,,up,0.5003204198474123,2687.2245015682893,None,001,34,2019_Oct_16_1400,ACPT_experiment_5_30_19,3.1.0,59.95582276227594,
,,,C,D,d,v,L,D,y,R,y,,,,,5,19,119,9,4,0,4,0,,,,,1,32,68,33,,,,,,down,0.6503176578626153,2689.0593264210365,None,001,34,2019_Oct_16_1400,ACPT_experiment_5_30_19,3.1.0,59.95582276227594,
,,,C,D,d,v,R,D,g,R,i,,,,,5,19,119,9,4,0,4,0,,,,,1,33,69,3,,,,,,up,0.43365679185808403,2691.010676033049,None,001,34,2019_Oct_16_1400,ACPT_experiment_5_30_19,3.1.0,59.95582276227594,
,,,C,D,d,v,L,U,y,L,u,,,,,5,19,119,9,4,0,4,0,,,,,1,34,70,24,,,,,,down,0.6004734305097372,2692.7286510279228,None,001,34,2019_Oct_16_1400,ACPT_experiment_5_30_19,3.1.0,59.95582276227594,
,,,C,D,d,v,L,G,g,L,c ,,,,,5,19,119,9,4,0,4,0,,,,,1,35,71,18,,,,,,up,0.5504308839445002,2694.613401005361,None,001,34,2019_Oct_16_1400,ACPT_experiment_5_30_19,3.1.0,59.95582276227594,
,,,C,D,d,v,,,,,,,,,,5,19,119,9,5,0,5,0,0,0,0,0,,,,,,,,,,,,,,001,34,2019_Oct_16_1400,ACPT_experiment_5_30_19,3.1.0,59.95582276227594,
,,,C,D,d,v,L,D,d,L,c ,,,,,5,19,119,9,5,0,5,0,,,,,0,0,0,12,,,,,,up,0.5501432154451322,2721.1672733463492,None,001,34,2019_Oct_16_1400,ACPT_experiment_5_30_19,3.1.0,59.95582276227594,
,,,C,D,d,v,R,D,g,R,i,,,,,5,19,119,9,5,0,5,0,,,,,0,1,1,3,,,,,,up,0.38367310716057546,2723.001722690584,None,001,34,2019_Oct_16_1400,ACPT_experiment_5_30_19,3.1.0,59.95582276227594,
,,,C,D,d,v,R,U,g,L,u,,,,,5,19,119,9,5,0,5,0,,,,,0,2,2,10,,,,,,up,0.43365860299309134,2724.6696657038483,None,001,34,2019_Oct_16_1400,ACPT_experiment_5_30_19,3.1.0,59.95582276227594,
,,,C,D,d,v,L,G,y,R,y,,,,,5,19,119,9,5,0,5,0,,,,,0,3,3,35,,,,,,up,0.3669475836577476,2726.3876373783096,None,001,34,2019_Oct_16_1400,ACPT_experiment_5_30_19,3.1.0,59.95582276227594,
,,,C,D,d,v,R,U,d,R,u,,,,,5,19,119,9,5,0,5,0,,,,,0,4,4,9,,,,,,up,0.5003635852117441,2728.055592163946,None,001,34,2019_Oct_16_1400,ACPT_experiment_5_30_19,3.1.0,59.95582276227594,
,,,C,D,d,v,R,D,y,R,y,,,,,5,19,119,9,5,0,5,0,,,,,0,5,5,27,,,,,,down,0.5837826204151497,2729.8569563103083,None,001,34,2019_Oct_16_1400,ACPT_experiment_5_30_19,3.1.0,59.95582276227594,
,,,C,D,d,v,L,G,y,L,y,,,,,5,19,119,9,5,0,5,0,,,,,0,6,6,34,,,,,,down,0.6171458274002362,2731.741706287743,None,001,34,2019_Oct_16_1400,ACPT_experiment_5_30_19,3.1.0,59.95582276227594,
,,,C,D,d,v,R,G,d,R,i,,,,,5,19,119,9,5,0,5,0,,,,,0,7,7,5,,,,,,up,0.5504194134300633,2733.6431682051734,None,001,34,2019_Oct_16_1400,ACPT_experiment_5_30_19,3.1.0,59.95582276227594,
,,,C,D,d,v,R,D,y,L,y,,,,,5,19,119,9,5,0,5,0,,,,,0,8,8,26,,,,,,down,0.5670921121782158,2735.494583651918,None,001,34,2019_Oct_16_1400,ACPT_experiment_5_30_19,3.1.0,59.95582276227594,
,,,C,D,d,v,R,G,y,R,y,,,,,5,19,119,9,5,0,5,0,,,,,0,9,9,29,,,,,,down,0.5170525841713243,2737.3626772308126,None,001,34,2019_Oct_16_1400,ACPT_experiment_5_30_19,3.1.0,59.95582276227594,
,,,C,D,d,v,R,U,d,L,u,,,,,5,19,119,9,5,0,5,0,,,,,0,10,10,8,,,,,,up,0.5670951307365613,2739.1640471124338,None,001,34,2019_Oct_16_1400,ACPT_experiment_5_30_19,3.1.0,59.95582276227594,
,,,C,D,d,v,R,U,y,L,u,,,,,5,19,119,9,5,0,5,0,,,,,0,11,11,30,,,,,,down,0.7002584790498076,2741.0157284940615,None,001,34,2019_Oct_16_1400,ACPT_experiment_5_30_19,3.1.0,59.95582276227594,
,,,C,D,d,v,L,G,g,R,c ,,,,,5,19,119,9,5,0,5,0,,,,,0,12,12,19,,,,,,up,0.8006176571725518,2743.000300044583,None,001,34,2019_Oct_16_1400,ACPT_experiment_5_30_19,3.1.0,59.95582276227594,
,,,C,D,d,v,L,D,g,L,i,,,,,5,19,119,9,5,0,5,0,,,,,0,13,13,14,,,,,,up,0.600462865557347,2745.0852268491,None,001,34,2019_Oct_16_1400,ACPT_experiment_5_30_19,3.1.0,59.95582276227594,
,,,C,D,d,v,L,U,d,L,u,,,,,5,19,119,9,5,0,5,0,,,,,0,14,14,20,,,,,,up,0.5670863769191783,2746.9700042954064,None,001,34,2019_Oct_16_1400,ACPT_experiment_5_30_19,3.1.0,59.95582276227594,
,,,C,D,d,v,R,G,g,L,c ,,,,,5,19,119,9,5,0,5,0,,,,,0,15,15,6,,,,,,up,0.4837062811056967,2748.821408875341,None,001,34,2019_Oct_16_1400,ACPT_experiment_5_30_19,3.1.0,59.95582276227594,
,,,C,D,d,v,L,D,y,L,y,,,,,5,19,119,9,5,0,5,0,,,,,0,16,16,32,,,,,,down,0.7003994456717919,2750.6062071798806,None,001,34,2019_Oct_16_1400,ACPT_experiment_5_30_19,3.1.0,59.95582276227594,
,,,C,D,d,v,R,G,g,R,c ,,,,,5,19,119,9,5,0,5,0,,,,,0,17,17,7,,,,,,up,0.9173805805949087,2752.6076349574287,None,001,34,2019_Oct_16_1400,ACPT_experiment_5_30_19,3.1.0,59.95582276227594,
,,,C,D,d,v,R,G,y,L,y,,,,,5,19,119,9,5,0,5,0,,,,,0,18,18,28,,,,,,down,0.6338052445025824,2754.825989234014,None,001,34,2019_Oct_16_1400,ACPT_experiment_5_30_19,3.1.0,59.95582276227594,
,,,C,D,d,v,L,U,d,R,u,,,,,5,19,119,9,5,0,5,0,,,,,0,19,19,21,,,,,,up,1.2676672378765943,2756.7607766264664,None,001,34,2019_Oct_16_1400,ACPT_experiment_5_30_19,3.1.0,59.95582276227594,
,,,C,D,d,v,L,D,y,R,y,,,,,5,19,119,9,5,0,5,0,,,,,0,20,20,33,,,,,,down,0.5670821509411326,2759.3461125964095,None,001,34,2019_Oct_16_1400,ACPT_experiment_5_30_19,3.1.0,59.95582276227594,
,,,C,D,d,v,R,U,g,R,u,,,,,5,19,119,9,5,0,5,0,,,,,0,21,21,11,,,,,,up,0.5003992041856691,2761.2141675377716,None,001,34,2019_Oct_16_1400,ACPT_experiment_5_30_19,3.1.0,59.95582276227594,
,,,C,D,d,v,L,D,d,R,c ,,,,,5,19,119,9,5,0,5,0,,,,,0,22,22,13,,,,,,up,0.40028120878560003,2762.9989012451842,None,001,34,2019_Oct_16_1400,ACPT_experiment_5_30_19,3.1.0,59.95582276227594,
,,,C,D,d,v,R,G,d,L,i,,,,,5,19,119,9,5,0,5,0,,,,,0,23,23,4,,,,,,up,0.43367309206951177,2764.6834825456463,None,001,34,2019_Oct_16_1400,ACPT_experiment_5_30_19,3.1.0,59.95582276227594,
,,,C,D,d,v,L,G,g,L,c ,,,,,5,19,119,9,5,0,5,0,,,,,0,24,24,18,,,,,,up,0.46666229981929064,2766.43518720035,None,001,34,2019_Oct_16_1400,ACPT_experiment_5_30_19,3.1.0,59.95582276227594,
,,,C,D,d,v,L,U,g,R,u,,,,,5,19,119,9,5,0,5,0,,,,,0,25,25,23,,,,,,up,0.450341262981965,2768.169490476601,None,001,34,2019_Oct_16_1400,ACPT_experiment_5_30_19,3.1.0,59.95582276227594,
,,,C,D,d,v,R,U,y,R,u,,,,,5,19,119,9,5,0,5,0,,,,,0,26,26,31,,,,,,down,0.5504100559010112,2769.904154470438,None,001,34,2019_Oct_16_1400,ACPT_experiment_5_30_19,3.1.0,59.95582276227594,
,,,C,D,d,v,L,G,d,R,i,,,,,5,19,119,9,5,0,5,0,,,,,0,27,27,17,,,,,,up,0.6504015737555164,2771.7388914831718,None,001,34,2019_Oct_16_1400,ACPT_experiment_5_30_19,3.1.0,59.95582276227594,
,,,C,D,d,v,L,U,g,L,u,,,,,5,19,119,9,5,0,5,0,,,,,0,28,28,22,,,,,,up,0.6001911954117531,2773.690634413182,None,001,34,2019_Oct_16_1400,ACPT_experiment_5_30_19,3.1.0,59.95582276227594,
,,,C,D,d,v,L,U,y,R,u,,,,,5,19,119,9,5,0,5,0,,,,,0,29,29,25,,,,,,down,0.5837814129918115,2775.5751335485147,None,001,34,2019_Oct_16_1400,ACPT_experiment_5_30_19,3.1.0,59.95582276227594,
,,,C,D,d,v,L,G,d,L,i,,,,,5,19,119,9,5,0,5,0,,,,,0,30,30,16,,,,,,up,0.5670851694958401,2777.443253992569,None,001,34,2019_Oct_16_1400,ACPT_experiment_5_30_19,3.1.0,59.95582276227594,
,,,C,D,d,v,L,D,g,R,i,,,,,5,19,119,9,5,0,5,0,,,,,0,31,31,15,,,,,,up,0.4669584202783881,2779.294691172923,None,001,34,2019_Oct_16_1400,ACPT_experiment_5_30_19,3.1.0,59.95582276227594,
,,,C,D,d,v,L,U,y,L,u,,,,,5,19,119,9,5,0,5,0,,,,,0,32,32,24,,,,,,down,0.5499998339801095,2781.0630449816344,None,001,34,2019_Oct_16_1400,ACPT_experiment_5_30_19,3.1.0,59.95582276227594,
,,,C,D,d,v,R,D,d,L,c,,,,,5,19,119,9,5,0,5,0,,,,,0,33,33,0,,,,,,down,0.5504194134300633,2782.8973859596626,None,001,34,2019_Oct_16_1400,ACPT_experiment_5_30_19,3.1.0,59.95582276227594,
,,,C,D,d,v,R,D,d,R,c ,,,,,5,19,119,9,5,0,5,0,,,,,0,34,34,1,,,,,,up,0.76727286338064,2784.7154176732292,None,001,34,2019_Oct_16_1400,ACPT_experiment_5_30_19,3.1.0,59.95582276227594,
,,,C,D,d,v,R,D,g,L,i,,,,,5,19,119,9,5,0,5,0,,,,,0,35,35,2,,,,,,up,0.6004785620571056,2786.7503016293267,None,001,34,2019_Oct_16_1400,ACPT_experiment_5_30_19,3.1.0,59.95582276227594,
,,,C,D,d,v,R,G,y,R,y,,,,,5,19,119,9,5,0,5,0,,,,,1,0,36,29,,,,,,down,0.6838607708596101,2788.6350881313047,None,001,34,2019_Oct_16_1400,ACPT_experiment_5_30_19,3.1.0,59.95582276227594,
,,,C,D,d,v,R,U,y,L,u,,,,,5,19,119,9,5,0,5,0,,,,,1,1,37,30,,,,,,down,0.46703780833558994,2790.6032616717785,None,001,34,2019_Oct_16_1400,ACPT_experiment_5_30_19,3.1.0,59.95582276227594,
,,,C,D,d,v,L,D,y,R,y,,,,,5,19,119,9,5,0,5,0,,,,,1,2,38,33,,,,,,down,0.6004523006085947,2792.354595043951,None,001,34,2019_Oct_16_1400,ACPT_experiment_5_30_19,3.1.0,59.95582276227594,
,,,C,D,d,v,R,G,y,L,y,,,,,5,19,119,9,5,0,5,0,,,,,1,3,39,28,,,,,,down,0.5668328181163815,2794.239632689889,None,001,34,2019_Oct_16_1400,ACPT_experiment_5_30_19,3.1.0,59.95582276227594,
,,,C,D,d,v,L,G,y,R,y,,,,,5,19,119,9,5,0,5,0,,,,,1,4,40,35,,,,,,down,0.5670939233132231,2796.0907764664807,None,001,34,2019_Oct_16_1400,ACPT_experiment_5_30_19,3.1.0,59.95582276227594,
,,,C,D,d,v,R,G,g,R,c ,,,,,5,19,119,9,5,0,5,0,,,,,1,5,41,7,,,,,,up,0.6338155075973191,2797.942185574255,None,001,34,2019_Oct_16_1400,ACPT_experiment_5_30_19,3.1.0,59.95582276227594,
,,,C,D,d,v,R,D,y,L,y,,,,,5,19,119,9,5,0,5,0,,,,,1,6,42,26,,,,,,down,1.4511073727953772,2799.8603159644554,None,001,34,2019_Oct_16_1400,ACPT_experiment_5_30_19,3.1.0,59.95582276227594,
,,,C,D,d,v,R,D,g,R,i,,,,,5,19,119,9,5,0,5,0,,,,,1,7,43,3,,,,,,up,0.6004773546337674,2802.57903412811,None,001,34,2019_Oct_16_1400,ACPT_experiment_5_30_19,3.1.0,59.95582276227594,
,,,C,D,d,v,L,U,d,R,u,,,,,5,19,119,9,5,0,5,0,,,,,1,8,44,21,,,,,,up,0.50038109284651,2804.463858362051,None,001,34,2019_Oct_16_1400,ACPT_experiment_5_30_19,3.1.0,59.95582276227594,
,,,C,D,d,v,R,G,d,L,i,,,,,5,19,119,9,5,0,5,0,,,,,1,9,45,4,,,,,,up,0.9840789219888393,2806.24851992595,None,001,34,2019_Oct_16_1400,ACPT_experiment_5_30_19,3.1.0,59.95582276227594,
,,,C,D,d,v,L,D,d,R,c ,,,,,5,19,119,9,5,0,5,0,,,,,1,10,46,13,,,,,,up,0.6004812787577976,2808.516888978371,None,001,34,2019_Oct_16_1400,ACPT_experiment_5_30_19,3.1.0,59.95582276227594,
,,,C,D,d,v,L,G,g,L,c ,,,,,5,19,119,9,5,0,5,0,,,,,1,11,47,18,,,,,,up,0.4670332804998907,2810.4016676321007,None,001,34,2019_Oct_16_1400,ACPT_experiment_5_30_19,3.1.0,59.95582276227594,
,,,C,D,d,v,L,D,d,L,c ,,,,,5,19,119,9,5,0,5,0,,,,,1,12,48,12,,,,,,up,0.7839316767676792,2812.1530206248935,None,001,34,2019_Oct_16_1400,ACPT_experiment_5_30_19,3.1.0,59.95582276227594,
,,,C,D,d,v,R,D,d,L,c,,,,,5,19,119,9,5,0,5,0,,,,,1,13,49,0,,,,,,up,0.45035665762407007,2814.221239413542,None,001,34,2019_Oct_16_1400,ACPT_experiment_5_30_19,3.1.0,59.95582276227594,
,,,C,D,d,v,R,D,y,R,y,,,,,5,19,119,9,5,0,5,0,,,,,1,14,50,27,,,,,,down,0.5003765650071728,2815.9559206131526,None,001,34,2019_Oct_16_1400,ACPT_experiment_5_30_19,3.1.0,59.95582276227594,
,,,C,D,d,v,R,D,g,L,i,,,,,5,19,119,9,5,0,5,0,,,,,1,15,51,2,,,,,,up,0.6004794676227903,2817.7239106857232,None,001,34,2019_Oct_16_1400,ACPT_experiment_5_30_19,3.1.0,59.95582276227594,
,,,C,D,d,v,R,G,g,L,c ,,,,,5,19,119,9,5,0,5,0,,,,,1,16,52,6,,,,,,up,0.6305458064525737,2819.6286954309,None,001,34,2019_Oct_16_1400,ACPT_experiment_5_30_19,3.1.0,59.95582276227594,
,,,C,D,d,v,R,G,d,R,i,,,,,5,19,119,9,5,0,5,0,,,,,1,17,53,5,,,,,,up,1.601245879293856,2821.5268085609896,None,001,34,2019_Oct_16_1400,ACPT_experiment_5_30_19,3.1.0,59.95582276227594,
,,,C,D,d,v,L,U,y,L,u,,,,,5,19,119,9,5,0,5,0,,,,,1,18,54,24,,,,,,down,0.700527734352363,2824.4290405123575,None,001,34,2019_Oct_16_1400,ACPT_experiment_5_30_19,3.1.0,59.95582276227594,
,,,C,D,d,v,R,D,d,R,c ,,,,,5,19,119,9,5,0,5,0,,,,,1,19,55,1,,,,,,up,0.8172819039609749,2826.4305703171376,None,001,34,2019_Oct_16_1400,ACPT_experiment_5_30_19,3.1.0,59.95582276227594,
,,,C,D,d,v,L,G,d,R,i,,,,,5,19,119,9,5,0,5,0,,,,,1,20,56,17,,,,,,up,0.4836951124452753,2828.5321734426725,None,001,34,2019_Oct_16_1400,ACPT_experiment_5_30_19,3.1.0,59.95582276227594,
,,,C,D,d,v,L,U,g,L,u,,,,,5,19,119,9,5,0,5,0,,,,,1,21,57,22,,,,,,up,0.5837720554663974,2830.3001813247283,None,001,34,2019_Oct_16_1400,ACPT_experiment_5_30_19,3.1.0,59.95582276227594,
,,,C,D,d,v,L,D,g,R,i,,,,,5,19,119,9,5,0,5,0,,,,,1,22,58,15,,,,,,up,0.6504942434621626,2832.168273696203,None,001,34,2019_Oct_16_1400,ACPT_experiment_5_30_19,3.1.0,59.95582276227594,
,,,C,D,d,v,L,U,d,L,u,,,,,5,19,119,9,5,0,5,0,,,,,1,23,59,20,,,,,,up,0.8172846206616668,2834.1031006317535,None,001,34,2019_Oct_16_1400,ACPT_experiment_5_30_19,3.1.0,59.95582276227594,
,,,C,D,d,v,L,G,g,R,c ,,,,,5,19,119,9,5,0,5,0,,,,,1,24,60,19,,,,,,up,0.4636920395496418,2836.224690228115,None,001,34,2019_Oct_16_1400,ACPT_experiment_5_30_19,3.1.0,59.95582276227594,
,,,C,D,d,v,L,G,y,L,y,,,,,5,19,119,9,5,0,5,0,,,,,1,25,61,34,,,,,,down,0.6671648292212922,2837.972699866972,None,001,34,2019_Oct_16_1400,ACPT_experiment_5_30_19,3.1.0,59.95582276227594,
,,,C,D,d,v,R,U,g,R,u,,,,,5,19,119,9,5,0,5,0,,,,,1,26,62,11,,,,,,up,0.45034518710599514,2839.9241853140556,None,001,34,2019_Oct_16_1400,ACPT_experiment_5_30_19,3.1.0,59.95582276227594,
,,,C,D,d,v,L,D,y,L,y,,,,,5,19,119,9,5,0,5,0,,,,,1,27,63,32,,,,,,down,0.5337630148897006,2841.6588188204623,None,001,34,2019_Oct_16_1400,ACPT_experiment_5_30_19,3.1.0,59.95582276227594,
,,,C,D,d,v,L,G,d,L,i,,,,,5,19,119,9,5,0,5,0,,,,,1,28,64,16,,,,,,up,0.783681740234897,2843.493821164371,None,001,34,2019_Oct_16_1400,ACPT_experiment_5_30_19,3.1.0,59.95582276227594,
,,,C,D,d,v,R,U,d,R,u,,,,,5,19,119,9,5,0,5,0,,,,,1,29,65,9,,,,,,up,0.5670924140322313,2845.5618195983443,None,001,34,2019_Oct_16_1400,ACPT_experiment_5_30_19,3.1.0,59.95582276227594,
,,,C,D,d,v,R,U,g,L,u,,,,,5,19,119,9,5,0,5,0,,,,,1,30,66,10,,,,,,up,0.8840246181462135,2847.396529745918,None,001,34,2019_Oct_16_1400,ACPT_experiment_5_30_19,3.1.0,59.95582276227594,
