facing_vig,person_vig,text_vig,facing_train,person_train,food_train,correct_key_train,facing_exp,person_exp,food_exp,showL_R,consistent,vig_random.thisRepN,vig_random.thisTrialN,vig_random.thisN,vig_random.thisIndex,trainTrials.thisRepN,trainTrials.thisTrialN,trainTrials.thisN,trainTrials.thisIndex,expBlock.thisRepN,expBlock.thisTrialN,expBlock.thisN,expBlock.thisIndex,breakLoop.thisRepN,breakLoop.thisTrialN,breakLoop.thisN,breakLoop.thisIndex,expTrials.thisRepN,expTrials.thisTrialN,expTrials.thisN,expTrials.thisIndex,train_resp.keys,train_resp.corr,train_resp.rt,train_resp.started,train_resp.stopped,exp_resp.keys,exp_resp.rt,exp_resp.started,exp_resp.stopped,session,participant,date,expName,psychopyVersion,frameRate,
C,U,"did not report her food preferences, so her food preferences are unknown.",,,,,,,,,,0,0,0,2,,,,,,,,,,,,,,,,,,,,,,,,,,001,35,2019_Oct_16_1502,ACPT_experiment_5_30_19,3.1.0,59.95386968007985,
C,D,"is allergic to gluten, meaning she can’t eat wheat products. She enjoys eating dairy products. She thinks eating insects, like crickets, is disgusting.",,,,,,,,,,0,1,1,1,,,,,,,,,,,,,,,,,,,,,,,,,,001,35,2019_Oct_16_1502,ACPT_experiment_5_30_19,3.1.0,59.95386968007985,
C,G,"cannot eat dairy products because she is lactose intolerant. She enjoys eating wheat products. She thinks eating insects, like crickets, is disgusting.",,,,,,,,,,0,2,2,0,,,,,,,,,,,,,,,,,,,,,,,,,,001,35,2019_Oct_16_1502,ACPT_experiment_5_30_19,3.1.0,59.95386968007985,
,,,C,U,y,n,,,,,,,,,,0,0,0,8,,,,,,,,,,,,,n,1,2.501936555359862,1105.594794317025,None,,,,,001,35,2019_Oct_16_1502,ACPT_experiment_5_30_19,3.1.0,59.95386968007985,
,,,C,G,g,v,,,,,,,,,,0,1,1,13,,,,,,,,,,,,,v,1,4.837072470425483,1111.3825474871883,None,,,,,001,35,2019_Oct_16_1502,ACPT_experiment_5_30_19,3.1.0,59.95386968007985,
,,,C,U,g,n,,,,,,,,,,0,2,2,7,,,,,,,,,,,,,n,1,1.467796673612611,1119.5054103109687,None,,,,,001,35,2019_Oct_16_1502,ACPT_experiment_5_30_19,3.1.0,59.95386968007985,
,,,C,G,d,b,,,,,,,,,,0,3,3,12,,,,,,,,,,,,,b,1,2.3351247464015614,1124.2590420125816,None,,,,,001,35,2019_Oct_16_1502,ACPT_experiment_5_30_19,3.1.0,59.95386968007985,
,,,C,D,d,v,,,,,,,,,,0,4,4,9,,,,,,,,,,,,,v,1,4.269935683601943,1129.8799930331697,None,,,,,001,35,2019_Oct_16_1502,ACPT_experiment_5_30_19,3.1.0,59.95386968007985,
,,,C,G,y,b,,,,,,,,,,0,5,5,5,,,,,,,,,,,,,b,1,2.468538634962897,1137.4357694800347,None,,,,,001,35,2019_Oct_16_1502,ACPT_experiment_5_30_19,3.1.0,59.95386968007985,
,,,C,U,g,n,,,,,,,,,,0,6,6,16,,,,,,,,,,,,,n,1,1.851394014985999,1143.1901766489864,None,,,,,001,35,2019_Oct_16_1502,ACPT_experiment_5_30_19,3.1.0,59.95386968007985,
,,,C,D,g,b,,,,,,,,,,0,7,7,1,,,,,,,,,,,,,b,1,1.868107464259083,1148.327400862283,None,,,,,001,35,2019_Oct_16_1502,ACPT_experiment_5_30_19,3.1.0,59.95386968007985,
,,,C,D,d,v,,,,,,,,,,0,8,8,0,,,,,,,,,,,,,v,1,1.7847116719458427,1153.4646603926958,None,,,,,001,35,2019_Oct_16_1502,ACPT_experiment_5_30_19,3.1.0,59.95386968007985,
,,,C,D,d,v,,,,,,,,,,0,9,9,18,,,,,,,,,,,,,v,1,1.8682490345927363,1158.5183641472686,None,,,,,001,35,2019_Oct_16_1502,ACPT_experiment_5_30_19,3.1.0,59.95386968007985,
,,,C,G,g,v,,,,,,,,,,0,10,10,19,,,,,,,,,,,,,v,1,2.068252596487582,1163.6724460968726,None,,,,,001,35,2019_Oct_16_1502,ACPT_experiment_5_30_19,3.1.0,59.95386968007985,
,,,C,D,y,b,,,,,,,,,,0,11,11,11,,,,,,,,,,,,,b,1,1.584554767341615,1169.0265325139371,None,,,,,001,35,2019_Oct_16_1502,ACPT_experiment_5_30_19,3.1.0,59.95386968007985,
,,,C,G,g,v,,,,,,,,,,0,12,12,4,,,,,,,,,,,,,v,1,2.4852421229988977,1173.896915970312,None,,,,,001,35,2019_Oct_16_1502,ACPT_experiment_5_30_19,3.1.0,59.95386968007985,
,,,C,U,d,n,,,,,,,,,,0,13,13,6,,,,,,,,,,,,,n,1,1.4844793335978466,1179.667984971209,None,,,,,001,35,2019_Oct_16_1502,ACPT_experiment_5_30_19,3.1.0,59.95386968007985,
,,,C,U,y,n,,,,,,,,,,0,14,14,17,,,,,,,,,,,,,n,1,1.3843872977922729,1184.4382990309532,None,,,,,001,35,2019_Oct_16_1502,ACPT_experiment_5_30_19,3.1.0,59.95386968007985,
,,,C,D,g,b,,,,,,,,,,0,15,15,10,,,,,,,,,,,,,b,1,2.1347278665052727,1189.125438860483,None,,,,,001,35,2019_Oct_16_1502,ACPT_experiment_5_30_19,3.1.0,59.95386968007985,
,,,C,U,d,n,,,,,,,,,,0,16,16,15,,,,,,,,,,,,,n,1,1.6513026130742219,1194.5460231867473,None,,,,,001,35,2019_Oct_16_1502,ACPT_experiment_5_30_19,3.1.0,59.95386968007985,
,,,C,G,y,b,,,,,,,,,,0,17,17,14,,,,,,,,,,,,,b,1,1.4344322591969103,1199.4831104179175,None,,,,,001,35,2019_Oct_16_1502,ACPT_experiment_5_30_19,3.1.0,59.95386968007985,
,,,C,D,y,b,,,,,,,,,,0,18,18,2,,,,,,,,,,,,,b,1,1.7346851237380179,1204.2033568770748,None,,,,,001,35,2019_Oct_16_1502,ACPT_experiment_5_30_19,3.1.0,59.95386968007985,
,,,C,G,d,b,,,,,,,,,,0,19,19,3,,,,,,,,,,,,,b,1,2.134994405103498,1209.2238555970544,None,,,,,001,35,2019_Oct_16_1502,ACPT_experiment_5_30_19,3.1.0,59.95386968007985,
,,,C,D,g,b,,,,,,,,,,1,0,20,10,,,,,,,,,,,,,b,1,1.334354712464119,1214.6446946895448,None,,,,,001,35,2019_Oct_16_1502,ACPT_experiment_5_30_19,3.1.0,59.95386968007985,
,,,C,G,g,v,,,,,,,,,,1,1,21,4,,,,,,,,,,,,,v,1,1.2840631349354226,1219.2818055560165,None,,,,,001,35,2019_Oct_16_1502,ACPT_experiment_5_30_19,3.1.0,59.95386968007985,
,,,C,U,y,n,,,,,,,,,,1,2,22,17,,,,,,,,,,,,,n,1,1.2009513888515357,1223.8517010022515,None,,,,,001,35,2019_Oct_16_1502,ACPT_experiment_5_30_19,3.1.0,59.95386968007985,
,,,C,D,d,v,,,,,,,,,,1,3,23,9,,,,,,,,,,,,,v,1,1.6345689394693181,1228.3384765523006,None,,,,,001,35,2019_Oct_16_1502,ACPT_experiment_5_30_19,3.1.0,59.95386968007985,
,,,C,D,y,b,,,,,,,,,,1,4,24,11,,,,,,,,,,,,,b,1,1.8847789555838972,1233.2422048024637,None,,,,,001,35,2019_Oct_16_1502,ACPT_experiment_5_30_19,3.1.0,59.95386968007985,
,,,C,D,d,v,,,,,,,,,,1,5,25,0,,,,,,,,,,,,,v,1,2.835520328320854,1238.396135220497,None,,,,,001,35,2019_Oct_16_1502,ACPT_experiment_5_30_19,3.1.0,59.95386968007985,
,,,C,D,d,v,,,,,,,,,,1,6,26,18,,,,,,,,,,,,,v,1,1.084177598622773,1244.5174712580556,None,,,,,001,35,2019_Oct_16_1502,ACPT_experiment_5_30_19,3.1.0,59.95386968007985,
,,,C,U,y,n,,,,,,,,,,1,7,27,8,,,,,,,,,,,,,n,1,1.0674879959515238,1248.8874712067372,None,,,,,001,35,2019_Oct_16_1502,ACPT_experiment_5_30_19,3.1.0,59.95386968007985,
,,,C,U,d,n,,,,,,,,,,1,8,28,6,,,,,,,,,,,,,n,1,1.3510455225587066,1253.2241151929738,None,,,,,001,35,2019_Oct_16_1502,ACPT_experiment_5_30_19,3.1.0,59.95386968007985,
,,,C,G,g,v,,,,,,,,,,1,9,29,13,,,,,,,,,,,,,v,1,2.4514194916118868,1257.8780979829717,None,,,,,001,35,2019_Oct_16_1502,ACPT_experiment_5_30_19,3.1.0,59.95386968007985,
,,,C,G,d,b,,,,,,,,,,1,10,30,12,,,,,,,,,,,,,b,1,1.0674901089405466,1263.5986951984742,None,,,,,001,35,2019_Oct_16_1502,ACPT_experiment_5_30_19,3.1.0,59.95386968007985,
,,,C,G,g,v,,,,,,,,,,1,11,31,19,,,,,,,,,,,,,v,1,1.4175035868029227,1267.9522904962869,None,,,,,001,35,2019_Oct_16_1502,ACPT_experiment_5_30_19,3.1.0,59.95386968007985,
,,,C,D,g,b,,,,,,,,,,1,12,32,1,,,,,,,,,,,,,b,1,1.4677915420616046,1272.6556116034553,None,,,,,001,35,2019_Oct_16_1502,ACPT_experiment_5_30_19,3.1.0,59.95386968007985,
,,,C,G,y,b,,,,,,,,,,1,13,33,14,,,,,,,,,,,,,b,1,1.367569708294468,1277.409245719915,None,,,,,001,35,2019_Oct_16_1502,ACPT_experiment_5_30_19,3.1.0,59.95386968007985,
,,,C,U,g,n,,,,,,,,,,1,14,34,16,,,,,,,,,,,,,n,1,1.2009314663773694,1282.062786894996,None,,,,,001,35,2019_Oct_16_1502,ACPT_experiment_5_30_19,3.1.0,59.95386968007985,
,,,C,G,d,b,,,,,,,,,,1,15,35,3,,,,,,,,,,,,,b,1,3.168837260825967,1286.5664693838335,None,,,,,001,35,2019_Oct_16_1502,ACPT_experiment_5_30_19,3.1.0,59.95386968007985,
,,,C,G,y,b,,,,,,,,,,1,16,36,5,,,,,,,,,,,,,b,1,1.0841739763527585,1293.0044662572109,None,,,,,001,35,2019_Oct_16_1502,ACPT_experiment_5_30_19,3.1.0,59.95386968007985,
,,,C,D,y,b,,,,,,,,,,1,17,37,2,,,,,,,,,,,,,b,1,1.2006760964395653,1297.3913888411807,None,,,,,001,35,2019_Oct_16_1502,ACPT_experiment_5_30_19,3.1.0,59.95386968007985,
,,,C,U,d,n,,,,,,,,,,1,18,38,15,,,,,,,,,,,,,n,1,1.2009254292606784,1301.8778999656206,None,,,,,001,35,2019_Oct_16_1502,ACPT_experiment_5_30_19,3.1.0,59.95386968007985,
,,,C,U,g,n,,,,,,,,,,1,19,39,7,,,,,,,,,,,,,n,1,1.0005001749232179,1306.3649254522024,None,,,,,001,35,2019_Oct_16_1502,ACPT_experiment_5_30_19,3.1.0,59.95386968007985,
,,,C,D,d,v,,,,,,,,,,2,0,40,9,,,,,,,,,,,,,v,1,2.43518780406157,1310.6512591458522,None,,,,,001,35,2019_Oct_16_1502,ACPT_experiment_5_30_19,3.1.0,59.95386968007985,
,,,C,D,g,b,,,,,,,,,,2,1,41,10,,,,,,,,,,,,,b,1,1.3009957314570784,1316.355615014425,None,,,,,001,35,2019_Oct_16_1502,ACPT_experiment_5_30_19,3.1.0,59.95386968007985,
,,,C,G,y,b,,,,,,,,,,2,2,42,5,,,,,,,,,,,,,b,1,1.68419824555167,1320.9595235630077,None,,,,,001,35,2019_Oct_16_1502,ACPT_experiment_5_30_19,3.1.0,59.95386968007985,
,,,C,G,y,b,,,,,,,,,,2,3,43,14,,,,,,,,,,,,,b,1,1.25099302984745,1325.9128992305996,None,,,,,001,35,2019_Oct_16_1502,ACPT_experiment_5_30_19,3.1.0,59.95386968007985,
,,,C,D,y,b,,,,,,,,,,2,4,44,11,,,,,,,,,,,,,b,1,0.9838467949412006,1330.4666179270316,None,,,,,001,35,2019_Oct_16_1502,ACPT_experiment_5_30_19,3.1.0,59.95386968007985,
,,,C,G,d,b,,,,,,,,,,2,5,45,3,,,,,,,,,,,,,b,1,1.7346498066181084,1334.7363106167795,None,,,,,001,35,2019_Oct_16_1502,ACPT_experiment_5_30_19,3.1.0,59.95386968007985,
,,,C,D,g,b,,,,,,,,,,2,6,46,1,,,,,,,,,,,,,b,1,1.050810769367672,1339.7567960551096,None,,,,,001,35,2019_Oct_16_1502,ACPT_experiment_5_30_19,3.1.0,59.95386968007985,
,,,C,D,d,v,,,,,,,,,,2,7,47,0,,,,,,,,,,,,,v,1,1.617900768556865,1344.0767691537258,None,,,,,001,35,2019_Oct_16_1502,ACPT_experiment_5_30_19,3.1.0,59.95386968007985,
,,,C,G,d,b,,,,,,,,,,2,8,48,12,,,,,,,,,,,,,b,1,2.401844519554288,1348.9804940834765,None,,,,,001,35,2019_Oct_16_1502,ACPT_experiment_5_30_19,3.1.0,59.95386968007985,
,,,C,U,g,n,,,,,,,,,,2,9,49,7,,,,,,,,,,,,,n,1,1.034125694532122,1354.6681730273194,None,,,,,001,35,2019_Oct_16_1502,ACPT_experiment_5_30_19,3.1.0,59.95386968007985,
,,,C,D,y,b,,,,,,,,,,2,10,50,2,,,,,,,,,,,,,b,1,1.2006748890125891,1359.0050609129758,None,,,,,001,35,2019_Oct_16_1502,ACPT_experiment_5_30_19,3.1.0,59.95386968007985,
,,,C,G,g,v,,,,,,,,,,2,11,51,4,,,,,,,,,,,,,v,1,1.5511966919038969,1363.4915644910216,None,,,,,001,35,2019_Oct_16_1502,ACPT_experiment_5_30_19,3.1.0,59.95386968007985,
,,,C,U,d,n,,,,,,,,,,2,12,52,6,,,,,,,,,,,,,n,1,1.284349897865468,1368.3619231952289,None,,,,,001,35,2019_Oct_16_1502,ACPT_experiment_5_30_19,3.1.0,59.95386968007985,
,,,C,U,d,n,,,,,,,,,,2,13,53,15,,,,,,,,,,,,,n,1,0.964086414045596,1372.9521075717203,None,,,,,001,35,2019_Oct_16_1502,ACPT_experiment_5_30_19,3.1.0,59.95386968007985,
,,,C,U,g,n,,,,,,,,,,2,14,54,16,,,,,,,,,,,,,n,1,0.9507528432513936,1377.202022674799,None,,,,,001,35,2019_Oct_16_1502,ACPT_experiment_5_30_19,3.1.0,59.95386968007985,
,,,C,G,g,v,,,,,,,,,,2,15,55,19,,,,,,,,,,,,,v,1,1.9845869451637554,1381.4555383128863,None,,,,,001,35,2019_Oct_16_1502,ACPT_experiment_5_30_19,3.1.0,59.95386968007985,
,,,C,U,y,n,,,,,,,,,,2,16,56,8,,,,,,,,,,,,,n,1,1.1008436565498414,1386.7259578712074,None,,,,,001,35,2019_Oct_16_1502,ACPT_experiment_5_30_19,3.1.0,59.95386968007985,
,,,C,D,d,v,,,,,,,,,,2,17,57,18,,,,,,,,,,,,,v,1,1.9178937353171932,1391.1462279656662,None,,,,,001,35,2019_Oct_16_1502,ACPT_experiment_5_30_19,3.1.0,59.95386968007985,
,,,C,U,y,n,,,,,,,,,,2,18,58,17,,,,,,,,,,,,,n,1,1.034119657415431,1396.349965482801,None,,,,,001,35,2019_Oct_16_1502,ACPT_experiment_5_30_19,3.1.0,59.95386968007985,
,,,C,G,g,v,,,,,,,,,,2,19,59,13,,,,,,,,,,,,,v,1,3.218863507183414,1400.6868723853659,None,,,,,001,35,2019_Oct_16_1502,ACPT_experiment_5_30_19,3.1.0,59.95386968007985,
,,,C,D,d,v,,,,,,,,,,3,0,60,9,,,,,,,,,,,,,v,1,2.8021456508176925,1407.1915627704439,None,,,,,001,35,2019_Oct_16_1502,ACPT_experiment_5_30_19,3.1.0,59.95386968007985,
,,,C,D,d,v,,,,,,,,,,3,1,61,18,,,,,,,,,,,,,v,1,1.2009275422497012,1413.2628592799956,None,,,,,001,35,2019_Oct_16_1502,ACPT_experiment_5_30_19,3.1.0,59.95386968007985,
,,,C,D,d,v,,,,,,,,,,3,2,62,0,,,,,,,,,,,,,v,1,1.0505397029337473,1417.7498856721468,None,,,,,001,35,2019_Oct_16_1502,ACPT_experiment_5_30_19,3.1.0,59.95386968007985,
,,,C,D,y,b,,,,,,,,,,3,3,63,11,,,,,,,,,,,,,b,1,1.1508849956881022,1422.0695753282453,None,,,,,001,35,2019_Oct_16_1502,ACPT_experiment_5_30_19,3.1.0,59.95386968007985,
,,,C,D,g,b,,,,,,,,,,3,4,64,1,,,,,,,,,,,,,b,1,1.280991149291367,1426.5263086879204,None,,,,,001,35,2019_Oct_16_1502,ACPT_experiment_5_30_19,3.1.0,59.95386968007985,
,,,C,G,y,b,,,,,,,,,,3,5,65,5,,,,,,,,,,,,,b,1,1.000765506101743,1431.1098129973652,None,,,,,001,35,2019_Oct_16_1502,ACPT_experiment_5_30_19,3.1.0,59.95386968007985,
,,,C,U,g,n,,,,,,,,,,3,6,66,7,,,,,,,,,,,,,n,1,1.2006751908702427,1435.4133355630438,None,,,,,001,35,2019_Oct_16_1502,ACPT_experiment_5_30_19,3.1.0,59.95386968007985,
,,,C,G,d,b,,,,,,,,,,3,7,67,12,,,,,,,,,,,,,b,1,1.7680199562855705,1439.899842763356,None,,,,,001,35,2019_Oct_16_1502,ACPT_experiment_5_30_19,3.1.0,59.95386968007985,
,,,C,U,d,n,,,,,,,,,,3,8,68,15,,,,,,,,,,,,,n,1,1.1008415435571806,1444.9536974457878,None,,,,,001,35,2019_Oct_16_1502,ACPT_experiment_5_30_19,3.1.0,59.95386968007985,
,,,C,D,y,b,,,,,,,,,,3,9,69,2,,,,,,,,,,,,,b,1,1.0341175444264081,1449.3403815637394,None,,,,,001,35,2019_Oct_16_1502,ACPT_experiment_5_30_19,3.1.0,59.95386968007985,
,,,C,G,g,v,,,,,,,,,,3,10,70,19,,,,,,,,,,,,,v,1,1.1842687288663,1453.6603111951372,None,,,,,001,35,2019_Oct_16_1502,ACPT_experiment_5_30_19,3.1.0,59.95386968007985,
,,,C,U,g,n,,,,,,,,,,3,11,71,16,,,,,,,,,,,,,n,1,1.4344376926019322,1458.1304077074637,None,,,,,001,35,2019_Oct_16_1502,ACPT_experiment_5_30_19,3.1.0,59.95386968007985,
,,,C,G,g,v,,,,,,,,,,3,12,72,13,,,,,,,,,,,,,v,1,1.7513469556797645,1462.8506768057996,None,,,,,001,35,2019_Oct_16_1502,ACPT_experiment_5_30_19,3.1.0,59.95386968007985,
,,,C,D,g,b,,,,,,,,,,3,13,73,10,,,,,,,,,,,,,b,1,1.1008460713928798,1467.8878527523666,None,,,,,001,35,2019_Oct_16_1502,ACPT_experiment_5_30_19,3.1.0,59.95386968007985,
,,,C,U,d,n,,,,,,,,,,3,14,74,6,,,,,,,,,,,,,n,1,1.0174801627945271,1472.2745320406284,None,,,,,001,35,2019_Oct_16_1502,ACPT_experiment_5_30_19,3.1.0,59.95386968007985,
,,,C,G,y,b,,,,,,,,,,3,15,75,14,,,,,,,,,,,,,b,1,1.284323636420595,1476.5778094994603,None,,,,,001,35,2019_Oct_16_1502,ACPT_experiment_5_30_19,3.1.0,59.95386968007985,
,,,C,U,y,n,,,,,,,,,,3,16,76,17,,,,,,,,,,,,,n,1,0.833745114843623,1481.164885969476,None,,,,,001,35,2019_Oct_16_1502,ACPT_experiment_5_30_19,3.1.0,59.95386968007985,
,,,C,G,d,b,,,,,,,,,,3,17,77,3,,,,,,,,,,,,,b,1,1.9014549747480487,1485.2844540380902,None,,,,,001,35,2019_Oct_16_1502,ACPT_experiment_5_30_19,3.1.0,59.95386968007985,
,,,C,G,g,v,,,,,,,,,,3,18,78,4,,,,,,,,,,,,,v,1,1.150895862494508,1490.45506017343,None,,,,,001,35,2019_Oct_16_1502,ACPT_experiment_5_30_19,3.1.0,59.95386968007985,
,,,C,U,y,n,,,,,,,,,,3,19,79,8,,,,,,,,,,,,,n,1,1.0005167769886611,1494.9087185289027,None,,,,,001,35,2019_Oct_16_1502,ACPT_experiment_5_30_19,3.1.0,59.95386968007985,
,,,C,D,g,b,,,,,,,,,,4,0,80,10,,,,,,,,,,,,,b,1,1.4011834555312817,1499.1950624856436,None,,,,,001,35,2019_Oct_16_1502,ACPT_experiment_5_30_19,3.1.0,59.95386968007985,
,,,C,D,y,b,,,,,,,,,,4,1,81,11,,,,,,,,,,,,,b,1,1.2809959789810819,1503.901970544317,None,,,,,001,35,2019_Oct_16_1502,ACPT_experiment_5_30_19,3.1.0,59.95386968007985,
,,,C,U,y,n,,,,,,,,,,4,2,82,8,,,,,,,,,,,,,n,1,0.9340261123325035,1508.4688187570755,None,,,,,001,35,2019_Oct_16_1502,ACPT_experiment_5_30_19,3.1.0,59.95386968007985,
,,,C,G,g,v,,,,,,,,,,4,3,83,19,,,,,,,,,,,,,v,1,1.7010088923670992,1512.7390034716445,None,,,,,001,35,2019_Oct_16_1502,ACPT_experiment_5_30_19,3.1.0,59.95386968007985,
,,,C,U,d,n,,,,,,,,,,4,4,84,15,,,,,,,,,,,,,n,1,1.2175984298664844,1517.7258597680957,None,,,,,001,35,2019_Oct_16_1502,ACPT_experiment_5_30_19,3.1.0,59.95386968007985,
,,,C,U,g,n,,,,,,,,,,4,5,85,16,,,,,,,,,,,,,n,1,0.8840125439164694,1522.229292924112,None,,,,,001,35,2019_Oct_16_1502,ACPT_experiment_5_30_19,3.1.0,59.95386968007985,
,,,C,D,g,b,,,,,,,,,,4,6,86,1,,,,,,,,,,,,,b,1,2.034885767232481,1526.3991401941712,None,,,,,001,35,2019_Oct_16_1502,ACPT_experiment_5_30_19,3.1.0,59.95386968007985,
,,,C,U,d,n,,,,,,,,,,4,7,87,6,,,,,,,,,,,,,n,1,0.8006134311908681,1531.7198652153857,None,,,,,001,35,2019_Oct_16_1502,ACPT_experiment_5_30_19,3.1.0,59.95386968007985,
,,,C,D,d,v,,,,,,,,,,4,8,88,18,,,,,,,,,,,,,v,1,1.384118344343733,1535.823270419558,None,,,,,001,35,2019_Oct_16_1502,ACPT_experiment_5_30_19,3.1.0,59.95386968007985,
,,,C,D,d,v,,,,,,,,,,4,9,89,0,,,,,,,,,,,,,v,1,1.2676433912747598,1540.476538113362,None,,,,,001,35,2019_Oct_16_1502,ACPT_experiment_5_30_19,3.1.0,59.95386968007985,
,,,C,G,d,b,,,,,,,,,,4,10,90,12,,,,,,,,,,,,,b,1,0.9974381505162455,1545.0500235296531,None,,,,,001,35,2019_Oct_16_1502,ACPT_experiment_5_30_19,3.1.0,59.95386968007985,
,,,C,G,g,v,,,,,,,,,,4,11,91,4,,,,,,,,,,,,,v,1,0.9674077325180406,1549.3166134444728,None,,,,,001,35,2019_Oct_16_1502,ACPT_experiment_5_30_19,3.1.0,59.95386968007985,
,,,C,U,g,n,,,,,,,,,,4,12,92,7,,,,,,,,,,,,,n,1,1.083715155662503,1553.5869626704116,None,,,,,001,35,2019_Oct_16_1502,ACPT_experiment_5_30_19,3.1.0,59.95386968007985,
,,,C,D,d,v,,,,,,,,,,4,13,93,9,,,,,,,,,,,,,v,1,2.802146556383377,1557.9565351913989,None,,,,,001,35,2019_Oct_16_1502,ACPT_experiment_5_30_19,3.1.0,59.95386968007985,
,,,C,G,y,b,,,,,,,,,,4,14,94,5,,,,,,,,,,,,,b,1,1.4010980303610268,1564.0444871939217,None,,,,,001,35,2019_Oct_16_1502,ACPT_experiment_5_30_19,3.1.0,59.95386968007985,
,,,C,G,y,b,,,,,,,,,,4,15,95,14,,,,,,,,,,,,,b,1,0.6638498497231922,1568.751434795693,None,,,,,001,35,2019_Oct_16_1502,ACPT_experiment_5_30_19,3.1.0,59.95386968007985,
,,,C,G,g,v,,,,,,,,,,4,16,96,13,,,,,,,,,,,,,v,1,1.7013149740669178,1572.6844406356977,None,,,,,001,35,2019_Oct_16_1502,ACPT_experiment_5_30_19,3.1.0,59.95386968007985,
,,,C,D,y,b,,,,,,,,,,4,17,97,2,,,,,,,,,,,,,b,1,1.5178322774918342,1577.6715658855974,None,,,,,001,35,2019_Oct_16_1502,ACPT_experiment_5_30_19,3.1.0,59.95386968007985,
,,,C,U,y,n,,,,,,,,,,4,18,98,17,,,,,,,,,,,,,n,1,1.0007670153790968,1582.4752298706771,None,,,,,001,35,2019_Oct_16_1502,ACPT_experiment_5_30_19,3.1.0,59.95386968007985,
,,,C,G,d,b,,,,,,,,,,4,19,99,3,,,,,,,,,,,,,b,1,1.9680295552971074,1586.7953309561199,None,,,,,001,35,2019_Oct_16_1502,ACPT_experiment_5_30_19,3.1.0,59.95386968007985,
,,,C,D,d,v,,,,,,,,,,5,0,100,9,,,,,,,,,,,,,v,1,1.5178331830611569,1592.04919765241,None,,,,,001,35,2019_Oct_16_1502,ACPT_experiment_5_30_19,3.1.0,59.95386968007985,
,,,C,U,g,n,,,,,,,,,,5,1,101,16,,,,,,,,,,,,,n,1,1.0508119767873723,1596.8528577133657,None,,,,,001,35,2019_Oct_16_1502,ACPT_experiment_5_30_19,3.1.0,59.95386968007985,
,,,C,D,y,b,,,,,,,,,,5,2,102,2,,,,,,,,,,,,,b,1,1.0172030592475494,1601.2064240330292,None,,,,,001,35,2019_Oct_16_1502,ACPT_experiment_5_30_19,3.1.0,59.95386968007985,
,,,C,U,y,n,,,,,,,,,,5,3,103,8,,,,,,,,,,,,,n,1,0.7338936580417794,1605.509461818423,None,,,,,001,35,2019_Oct_16_1502,ACPT_experiment_5_30_19,3.1.0,59.95386968007985,
,,,C,D,d,v,,,,,,,,,,5,4,104,18,,,,,,,,,,,,,v,1,2.901804825527506,1609.546259539773,None,,,,,001,35,2019_Oct_16_1502,ACPT_experiment_5_30_19,3.1.0,59.95386968007985,
,,,C,G,y,b,,,,,,,,,,5,5,105,14,,,,,,,,,,,,,b,1,1.0341561819586786,1615.7339033174248,None,,,,,001,35,2019_Oct_16_1502,ACPT_experiment_5_30_19,3.1.0,59.95386968007985,
,,,C,G,y,b,,,,,,,,,,5,6,106,5,,,,,,,,,,,,,b,1,0.9641015068336856,1620.0738852241957,None,,,,,001,35,2019_Oct_16_1502,ACPT_experiment_5_30_19,3.1.0,59.95386968007985,
,,,C,G,g,v,,,,,,,,,,5,7,107,4,,,,,,,,,,,,,v,1,1.6846268806766602,1624.3071237043987,None,,,,,001,35,2019_Oct_16_1502,ACPT_experiment_5_30_19,3.1.0,59.95386968007985,
,,,C,G,g,v,,,,,,,,,,5,8,108,19,,,,,,,,,,,,,v,1,1.0841800134658115,1629.2609014438058,None,,,,,001,35,2019_Oct_16_1502,ACPT_experiment_5_30_19,3.1.0,59.95386968007985,
,,,C,G,g,v,,,,,,,,,,5,9,109,13,,,,,,,,,,,,,v,1,0.8170268358808244,1633.6311709496476,None,,,,,001,35,2019_Oct_16_1502,ACPT_experiment_5_30_19,3.1.0,59.95386968007985,
,,,C,U,d,n,,,,,,,,,,5,10,110,15,,,,,,,,,,,,,n,1,1.1675489406225097,1637.7340421710578,None,,,,,001,35,2019_Oct_16_1502,ACPT_experiment_5_30_19,3.1.0,59.95386968007985,
,,,C,D,g,b,,,,,,,,,,5,11,111,1,,,,,,,,,,,,,b,1,1.6345725617393327,1642.1874406287534,None,,,,,001,35,2019_Oct_16_1502,ACPT_experiment_5_30_19,3.1.0,59.95386968007985,
,,,C,U,g,n,,,,,,,,,,5,12,112,7,,,,,,,,,,,,,n,1,1.200923618125671,1647.1078427850916,None,,,,,001,35,2019_Oct_16_1502,ACPT_experiment_5_30_19,3.1.0,59.95386968007985,
,,,C,G,d,b,,,,,,,,,,5,13,113,12,,,,,,,,,,,,,b,1,1.4008037210369366,1651.6115506298083,None,,,,,001,35,2019_Oct_16_1502,ACPT_experiment_5_30_19,3.1.0,59.95386968007985,
,,,C,U,d,n,,,,,,,,,,5,14,114,6,,,,,,,,,,,,,n,1,0.9507190354124759,1656.2981996419403,None,,,,,001,35,2019_Oct_16_1502,ACPT_experiment_5_30_19,3.1.0,59.95386968007985,
,,,C,U,y,n,,,,,,,,,,5,15,115,17,,,,,,,,,,,,,n,1,0.8669450178895204,1660.5350172253966,None,,,,,001,35,2019_Oct_16_1502,ACPT_experiment_5_30_19,3.1.0,59.95386968007985,
,,,C,D,y,b,,,,,,,,,,5,16,116,11,,,,,,,,,,,,,n,0,0.7839567307928519,1664.6878971855294,None,,,,,001,35,2019_Oct_16_1502,ACPT_experiment_5_30_19,3.1.0,59.95386968007985,
,,,C,D,d,v,,,,,,,,,,5,17,117,0,,,,,,,,,,,,,v,1,1.3143410746270092,1668.7777016765976,None,,,,,001,35,2019_Oct_16_1502,ACPT_experiment_5_30_19,3.1.0,59.95386968007985,
,,,C,D,g,b,,,,,,,,,,5,18,118,10,,,,,,,,,,,,,b,1,1.4010672410768166,1673.3612002507834,None,,,,,001,35,2019_Oct_16_1502,ACPT_experiment_5_30_19,3.1.0,59.95386968007985,
,,,C,G,d,b,,,,,,,,,,5,19,119,3,0,0,0,0,0,0,0,0,,,,,b,1,1.8013493554317392,1678.0648051023272,None,,,,,001,35,2019_Oct_16_1502,ACPT_experiment_5_30_19,3.1.0,59.95386968007985,
,,,C,G,d,b,R,D,d,L,c,,,,,5,19,119,3,0,0,0,0,,,,,0,0,0,0,,,,,,up,1.05080141183862,1719.062706601373,None,001,35,2019_Oct_16_1502,ACPT_experiment_5_30_19,3.1.0,59.95386968007985,
,,,C,G,d,b,R,U,d,R,u,,,,,5,19,119,3,0,0,0,0,,,,,0,1,1,9,,,,,,down,6.15469049072999,1721.3978180661252,None,001,35,2019_Oct_16_1502,ACPT_experiment_5_30_19,3.1.0,59.95386968007985,
,,,C,G,d,b,L,G,g,R,c ,,,,,5,19,119,3,0,0,0,0,,,,,0,2,2,19,,,,,,up,0.8673624843431753,1728.836806535539,None,001,35,2019_Oct_16_1502,ACPT_experiment_5_30_19,3.1.0,59.95386968007985,
,,,C,G,d,b,R,D,g,L,i,,,,,5,19,119,3,0,0,0,0,,,,,0,3,3,2,,,,,,up,0.967398676846642,1730.9884673004235,None,001,35,2019_Oct_16_1502,ACPT_experiment_5_30_19,3.1.0,59.95386968007985,
,,,C,G,d,b,R,G,g,R,c ,,,,,5,19,119,3,0,0,0,0,,,,,0,4,4,7,,,,,,up,0.5170556027296698,1733.2235051425669,None,001,35,2019_Oct_16_1502,ACPT_experiment_5_30_19,3.1.0,59.95386968007985,
,,,C,G,d,b,R,G,y,R,y,,,,,5,19,119,3,0,0,0,0,,,,,0,5,5,29,,,,,,down,0.8001518937999208,1735.0586584143348,None,001,35,2019_Oct_16_1502,ACPT_experiment_5_30_19,3.1.0,59.95386968007985,
,,,C,G,d,b,L,U,y,R,u,,,,,5,19,119,3,0,0,0,0,,,,,0,6,6,25,,,,,,down,0.48368122708052397,1737.1598476956788,None,001,35,2019_Oct_16_1502,ACPT_experiment_5_30_19,3.1.0,59.95386968007985,
,,,C,G,d,b,R,U,y,L,u,,,,,5,19,119,3,0,0,0,0,,,,,0,7,7,30,,,,,,down,0.7505606215308944,1738.9445391432928,None,001,35,2019_Oct_16_1502,ACPT_experiment_5_30_19,3.1.0,59.95386968007985,
,,,C,G,d,b,L,D,y,L,y,,,,,5,19,119,3,0,0,0,0,,,,,0,8,8,32,,,,,,down,0.6671666403526615,1740.9960951944267,None,001,35,2019_Oct_16_1502,ACPT_experiment_5_30_19,3.1.0,59.95386968007985,
,,,C,G,d,b,L,D,g,L,i,,,,,5,19,119,3,0,0,0,0,,,,,0,9,9,14,,,,,,up,0.8673362228983024,1742.9475842637803,None,001,35,2019_Oct_16_1502,ACPT_experiment_5_30_19,3.1.0,59.95386968007985,
,,,C,G,d,b,R,U,d,L,u,,,,,5,19,119,3,0,0,0,0,,,,,0,10,10,8,,,,,,up,0.7338716225749522,1745.0992275210338,None,001,35,2019_Oct_16_1502,ACPT_experiment_5_30_19,3.1.0,59.95386968007985,
,,,C,G,d,b,R,U,g,L,u,,,,,5,19,119,3,0,0,0,0,,,,,0,11,11,10,,,,,,up,0.783930469344341,1747.1007322717887,None,001,35,2019_Oct_16_1502,ACPT_experiment_5_30_19,3.1.0,59.95386968007985,
,,,C,G,d,b,R,G,y,L,y,,,,,5,19,119,3,0,0,0,0,,,,,0,12,12,28,,,,,,down,0.6002382849037531,1749.1858462268501,None,001,35,2019_Oct_16_1502,ACPT_experiment_5_30_19,3.1.0,59.95386968007985,
,,,C,G,d,b,R,U,y,R,u,,,,,5,19,119,3,0,0,0,0,,,,,0,13,13,31,,,,,,down,0.9173603562594508,1751.0871264271373,None,001,35,2019_Oct_16_1502,ACPT_experiment_5_30_19,3.1.0,59.95386968007985,
,,,C,G,d,b,L,G,d,R,i,,,,,5,19,119,3,0,0,0,0,,,,,0,14,14,17,,,,,,up,0.8506626185808273,1753.2887820453798,None,001,35,2019_Oct_16_1502,ACPT_experiment_5_30_19,3.1.0,59.95386968007985,
,,,C,G,d,b,R,D,y,L,y,,,,,5,19,119,3,0,0,0,0,,,,,0,15,15,26,,,,,,down,0.6505205049070355,1755.4237396240896,None,001,35,2019_Oct_16_1502,ACPT_experiment_5_30_19,3.1.0,59.95386968007985,
,,,C,G,d,b,L,D,d,L,c ,,,,,5,19,119,3,0,0,0,0,,,,,0,16,16,12,,,,,,up,0.8172933744790498,1757.3585686726292,None,001,35,2019_Oct_16_1502,ACPT_experiment_5_30_19,3.1.0,59.95386968007985,
,,,C,G,d,b,L,U,d,R,u,,,,,5,19,119,3,0,0,0,0,,,,,0,17,17,21,,,,,,up,0.7172109980529058,1759.460173307445,None,001,35,2019_Oct_16_1502,ACPT_experiment_5_30_19,3.1.0,59.95386968007985,
,,,C,G,d,b,R,U,g,R,u,,,,,5,19,119,3,0,0,0,0,,,,,0,18,18,11,,,,,,up,0.6671633199439384,1761.4617019048019,None,001,35,2019_Oct_16_1502,ACPT_experiment_5_30_19,3.1.0,59.95386968007985,
,,,C,G,d,b,L,U,y,L,u,,,,,5,19,119,3,0,0,0,0,,,,,0,19,19,24,,,,,,down,0.7172306186730566,1763.4131616941486,None,001,35,2019_Oct_16_1502,ACPT_experiment_5_30_19,3.1.0,59.95386968007985,
,,,C,G,d,b,L,D,d,R,c ,,,,,5,19,119,3,0,0,0,0,,,,,0,20,20,13,,,,,,up,0.7172197518666508,1765.4147144399649,None,001,35,2019_Oct_16_1502,ACPT_experiment_5_30_19,3.1.0,59.95386968007985,
,,,C,G,d,b,R,D,y,R,y,,,,,5,19,119,3,0,0,0,0,,,,,0,21,21,27,,,,,,down,0.9006822241099144,1767.41624243361,None,001,35,2019_Oct_16_1502,ACPT_experiment_5_30_19,3.1.0,59.95386968007985,
,,,C,G,d,b,R,G,g,L,c ,,,,,5,19,119,3,0,0,0,0,,,,,0,22,22,6,,,,,,up,0.7172125073338975,1769.6012374273341,None,001,35,2019_Oct_16_1502,ACPT_experiment_5_30_19,3.1.0,59.95386968007985,
,,,C,G,d,b,L,G,g,L,c ,,,,,5,19,119,3,0,0,0,0,,,,,0,23,23,18,,,,,,up,0.8006064885084925,1771.6027669302566,None,001,35,2019_Oct_16_1502,ACPT_experiment_5_30_19,3.1.0,59.95386968007985,
,,,C,G,d,b,L,G,y,R,y,,,,,5,19,119,3,0,0,0,0,,,,,0,24,24,35,,,,,,down,0.4836920938832918,1773.687688603226,None,001,35,2019_Oct_16_1502,ACPT_experiment_5_30_19,3.1.0,59.95386968007985,
,,,C,G,d,b,L,U,g,L,u,,,,,5,19,119,3,0,0,0,0,,,,,0,25,25,22,,,,,,up,0.5670809435177944,1775.4557055409568,None,001,35,2019_Oct_16_1502,ACPT_experiment_5_30_19,3.1.0,59.95386968007985,
,,,C,G,d,b,R,D,d,R,c ,,,,,5,19,119,3,0,0,0,0,,,,,0,26,26,1,,,,,,down,0.40028905703729833,1777.3071206858403,None,001,35,2019_Oct_16_1502,ACPT_experiment_5_30_19,3.1.0,59.95386968007985,
,,,C,G,d,b,L,D,y,R,y,,,,,5,19,119,3,0,0,0,0,,,,,0,27,27,33,,,,,,down,0.7672281887353165,1779.0084241893892,None,001,35,2019_Oct_16_1502,ACPT_experiment_5_30_19,3.1.0,59.95386968007985,
,,,C,G,d,b,L,D,g,R,i,,,,,5,19,119,3,0,0,0,0,,,,,0,28,28,15,,,,,,up,0.600454111743602,1781.043296071257,None,001,35,2019_Oct_16_1502,ACPT_experiment_5_30_19,3.1.0,59.95386968007985,
,,,C,G,d,b,R,G,d,R,i,,,,,5,19,119,3,0,0,0,0,,,,,0,29,29,5,,,,,,up,0.6671919962354877,1782.928044841272,None,001,35,2019_Oct_16_1502,ACPT_experiment_5_30_19,3.1.0,59.95386968007985,
,,,C,G,d,b,R,G,d,L,i,,,,,5,19,119,3,0,0,0,0,,,,,0,30,30,4,,,,,,up,0.7005449401294754,1784.862854872903,None,001,35,2019_Oct_16_1502,ACPT_experiment_5_30_19,3.1.0,59.95386968007985,
,,,C,G,d,b,L,G,d,L,i,,,,,5,19,119,3,0,0,0,0,,,,,0,31,31,16,,,,,,down,0.9340330550148792,1786.8477249587304,None,001,35,2019_Oct_16_1502,ACPT_experiment_5_30_19,3.1.0,59.95386968007985,
,,,C,G,d,b,L,U,d,L,u,,,,,5,19,119,3,0,0,0,0,,,,,0,32,32,20,,,,,,up,0.9006782999822462,1789.0660816501622,None,001,35,2019_Oct_16_1502,ACPT_experiment_5_30_19,3.1.0,59.95386968007985,
,,,C,G,d,b,L,U,g,R,u,,,,,5,19,119,3,0,0,0,0,,,,,0,33,33,23,,,,,,up,0.7005386011587689,1791.2343876449268,None,001,35,2019_Oct_16_1502,ACPT_experiment_5_30_19,3.1.0,59.95386968007985,
,,,C,G,d,b,L,G,y,L,y,,,,,5,19,119,3,0,0,0,0,,,,,0,34,34,34,,,,,,down,0.7839202062532422,1793.2192471658018,None,001,35,2019_Oct_16_1502,ACPT_experiment_5_30_19,3.1.0,59.95386968007985,
,,,C,G,d,b,R,D,g,R,i,,,,,5,19,119,3,0,0,0,0,,,,,0,35,35,3,,,,,,up,0.650493941604509,1795.28750610126,None,001,35,2019_Oct_16_1502,ACPT_experiment_5_30_19,3.1.0,59.95386968007985,
,,,C,G,d,b,R,D,y,L,y,,,,,5,19,119,3,0,0,0,0,,,,,1,0,36,26,,,,,,down,2.051548202885897,1797.2223040586614,None,001,35,2019_Oct_16_1502,ACPT_experiment_5_30_19,3.1.0,59.95386968007985,
,,,C,G,d,b,R,D,g,R,i,,,,,5,19,119,3,0,0,0,0,,,,,1,1,37,3,,,,,,up,0.5670960363022459,1800.5581746905445,None,001,35,2019_Oct_16_1502,ACPT_experiment_5_30_19,3.1.0,59.95386968007985,
,,,C,G,d,b,L,U,y,R,u,,,,,5,19,119,3,0,0,0,0,,,,,1,2,38,25,,,,,,down,0.5504097540433577,1802.409588929866,None,001,35,2019_Oct_16_1502,ACPT_experiment_5_30_19,3.1.0,59.95386968007985,
,,,C,G,d,b,L,U,d,R,u,,,,,5,19,119,3,0,0,0,0,,,,,1,3,39,21,,,,,,up,0.5837753758751205,1804.2443174906366,None,001,35,2019_Oct_16_1502,ACPT_experiment_5_30_19,3.1.0,59.95386968007985,
,,,C,G,d,b,R,U,d,L,u,,,,,5,19,119,3,0,0,0,0,,,,,1,4,40,8,,,,,,up,0.6803698094772699,1806.1158884474098,None,001,35,2019_Oct_16_1502,ACPT_experiment_5_30_19,3.1.0,59.95386968007985,
,,,C,G,d,b,L,U,g,L,u,,,,,5,19,119,3,0,0,0,0,,,,,1,5,41,22,,,,,,up,0.7339141842312529,1808.0805511040235,None,001,35,2019_Oct_16_1502,ACPT_experiment_5_30_19,3.1.0,59.95386968007985,
,,,C,G,d,b,R,U,g,L,u,,,,,5,19,119,3,0,0,0,0,,,,,1,6,42,10,,,,,,up,0.6671720737576834,1810.0987789634346,None,001,35,2019_Oct_16_1502,ACPT_experiment_5_30_19,3.1.0,59.95386968007985,
,,,C,G,d,b,R,G,y,R,y,,,,,5,19,119,3,0,0,0,0,,,,,1,7,43,29,,,,,,down,0.5670441171205312,1812.0669869154626,None,001,35,2019_Oct_16_1502,ACPT_experiment_5_30_19,3.1.0,59.95386968007985,
,,,C,G,d,b,L,U,d,L,u,,,,,5,19,119,3,0,0,0,0,,,,,1,8,44,20,,,,,,up,0.5837605849483225,1813.9350427623904,None,001,35,2019_Oct_16_1502,ACPT_experiment_5_30_19,3.1.0,59.95386968007985,
,,,C,G,d,b,R,G,g,L,c ,,,,,5,19,119,3,0,0,0,0,,,,,1,9,45,6,,,,,,up,0.7672514316254819,1815.803129398606,None,001,35,2019_Oct_16_1502,ACPT_experiment_5_30_19,3.1.0,59.95386968007985,
,,,C,G,d,b,L,U,y,L,u,,,,,5,19,119,3,0,0,0,0,,,,,1,10,46,24,,,,,,down,0.7505545844178414,1817.8547074852067,None,001,35,2019_Oct_16_1502,ACPT_experiment_5_30_19,3.1.0,59.95386968007985,
,,,C,G,d,b,L,U,g,R,u,,,,,5,19,119,3,0,0,0,0,,,,,1,11,47,23,,,,,,up,0.567087282484863,1819.8895790652205,None,001,35,2019_Oct_16_1502,ACPT_experiment_5_30_19,3.1.0,59.95386968007985,
,,,C,G,d,b,R,U,d,R,u,,,,,5,19,119,3,0,0,0,0,,,,,1,12,48,9,,,,,,up,0.6671648292212922,1821.740992097115,None,001,35,2019_Oct_16_1502,ACPT_experiment_5_30_19,3.1.0,59.95386968007985,
,,,C,G,d,b,L,G,y,R,y,,,,,5,19,119,3,0,0,0,0,,,,,1,13,49,35,,,,,,down,0.567090602897224,1823.6924802609028,None,001,35,2019_Oct_16_1502,ACPT_experiment_5_30_19,3.1.0,59.95386968007985,
,,,C,G,d,b,L,D,d,R,c ,,,,,5,19,119,3,0,0,0,0,,,,,1,14,50,13,,,,,,up,0.48324987525847973,1825.5609813450174,None,001,35,2019_Oct_16_1502,ACPT_experiment_5_30_19,3.1.0,59.95386968007985,
,,,C,G,d,b,L,D,d,L,c ,,,,,5,19,119,3,0,0,0,0,,,,,1,15,51,12,,,,,,up,0.800615544179891,1827.311902684134,None,001,35,2019_Oct_16_1502,ACPT_experiment_5_30_19,3.1.0,59.95386968007985,
,,,C,G,d,b,R,U,y,R,u,,,,,5,19,119,3,0,0,0,0,,,,,1,16,52,31,,,,,,down,0.6171171511123248,1829.413511846782,None,001,35,2019_Oct_16_1502,ACPT_experiment_5_30_19,3.1.0,59.95386968007985,
,,,C,G,d,b,R,D,y,R,y,,,,,5,19,119,3,0,0,0,0,,,,,1,17,53,27,,,,,,down,0.6671554716958781,1831.3316467648183,None,001,35,2019_Oct_16_1502,ACPT_experiment_5_30_19,3.1.0,59.95386968007985,
,,,C,G,d,b,L,G,g,R,c ,,,,,5,19,119,3,0,0,0,0,,,,,1,18,54,19,,,,,,up,0.5170474526239559,1833.2831264766428,None,001,35,2019_Oct_16_1502,ACPT_experiment_5_30_19,3.1.0,59.95386968007985,
,,,C,G,d,b,R,G,g,R,c ,,,,,5,19,119,3,0,0,0,0,,,,,1,19,55,7,,,,,,up,0.5504097540469957,1835.0844981693954,None,001,35,2019_Oct_16_1502,ACPT_experiment_5_30_19,3.1.0,59.95386968007985,
,,,C,G,d,b,R,D,d,L,c,,,,,5,19,119,3,0,0,0,0,,,,,1,20,56,0,,,,,,down,0.7839567307928519,1836.9192294468703,None,001,35,2019_Oct_16_1502,ACPT_experiment_5_30_19,3.1.0,59.95386968007985,
,,,C,G,d,b,R,U,y,L,u,,,,,5,19,119,3,0,0,0,0,,,,,1,21,57,30,,,,,,down,0.7171992256808153,1838.9874796285148,None,001,35,2019_Oct_16_1502,ACPT_experiment_5_30_19,3.1.0,59.95386968007985,
,,,C,G,d,b,R,G,d,R,i,,,,,5,19,119,3,0,0,0,0,,,,,1,22,58,5,,,,,,up,0.5170854864445573,1840.988972003186,None,001,35,2019_Oct_16_1502,ACPT_experiment_5_30_19,3.1.0,59.95386968007985,
,,,C,G,d,b,L,D,y,L,y,,,,,5,19,119,3,0,0,0,0,,,,,1,23,59,32,,,,,,down,0.6004507913312409,1842.7903723722338,None,001,35,2019_Oct_16_1502,ACPT_experiment_5_30_19,3.1.0,59.95386968007985,
,,,C,G,d,b,L,D,y,R,y,,,,,5,19,119,3,0,0,0,0,,,,,1,24,60,33,,,,,,down,0.5971062299722689,1844.6951468543157,None,001,35,2019_Oct_16_1502,ACPT_experiment_5_30_19,3.1.0,59.95386968007985,
,,,C,G,d,b,R,G,y,L,y,,,,,5,19,119,3,0,0,0,0,,,,,1,25,61,28,,,,,,down,0.6004538098895864,1846.5599097572158,None,001,35,2019_Oct_16_1502,ACPT_experiment_5_30_19,3.1.0,59.95386968007985,
,,,C,G,d,b,L,D,g,R,i,,,,,5,19,119,3,0,0,0,0,,,,,1,26,62,15,,,,,,up,0.5837611886599916,1848.444685694245,None,001,35,2019_Oct_16_1502,ACPT_experiment_5_30_19,3.1.0,59.95386968007985,
,,,C,G,d,b,L,D,g,L,i,,,,,5,19,119,3,0,0,0,0,,,,,1,27,63,14,,,,,,up,0.800633051811019,1850.2960679368553,None,001,35,2019_Oct_16_1502,ACPT_experiment_5_30_19,3.1.0,59.95386968007985,
,,,C,G,d,b,R,G,d,L,i,,,,,5,19,119,3,0,0,0,0,,,,,1,28,64,4,,,,,,up,0.7338821875237045,1852.3810170786965,None,001,35,2019_Oct_16_1502,ACPT_experiment_5_30_19,3.1.0,59.95386968007985,
,,,C,G,d,b,R,D,d,R,c ,,,,,5,19,119,3,0,0,0,0,,,,,1,29,65,1,,,,,,up,0.5504480897216126,1854.3825363185279,None,001,35,2019_Oct_16_1502,ACPT_experiment_5_30_19,3.1.0,59.95386968007985,
,,,C,G,d,b,L,G,d,R,i,,,,,5,19,119,3,0,0,0,0,,,,,1,30,66,17,,,,,,up,0.6171289234844153,1856.2172766516742,None,001,35,2019_Oct_16_1502,ACPT_experiment_5_30_19,3.1.0,59.95386968007985,
,,,C,G,d,b,R,D,g,L,i,,,,,5,19,119,3,0,0,0,0,,,,,1,31,67,2,,,,,,up,0.7005328658997314,1858.1187222688932,None,001,35,2019_Oct_16_1502,ACPT_experiment_5_30_19,3.1.0,59.95386968007985,
,,,C,G,d,b,R,U,g,R,u,,,,,5,19,119,3,0,0,0,0,,,,,1,32,68,11,,,,,,up,0.4170016007410595,1860.0868683404988,None,001,35,2019_Oct_16_1502,ACPT_experiment_5_30_19,3.1.0,59.95386968007985,
,,,C,G,d,b,L,G,y,L,y,,,,,5,19,119,3,0,0,0,0,,,,,1,33,69,34,,,,,,down,0.6836485662897758,1861.8050232413807,None,001,35,2019_Oct_16_1502,ACPT_experiment_5_30_19,3.1.0,59.95386968007985,
,,,C,G,d,b,L,G,d,L,i,,,,,5,19,119,3,0,0,0,0,,,,,1,34,70,16,,,,,,up,0.713752033374476,1863.809843273495,None,001,35,2019_Oct_16_1502,ACPT_experiment_5_30_19,3.1.0,59.95386968007985,
,,,C,G,d,b,L,G,g,L,c ,,,,,5,19,119,3,0,0,0,0,,,,,1,35,71,18,,,,,,up,0.6171340550281457,1865.7912356795896,None,001,35,2019_Oct_16_1502,ACPT_experiment_5_30_19,3.1.0,59.95386968007985,
,,,C,G,d,b,,,,,,,,,,5,19,119,3,1,0,1,0,0,0,0,0,,,,,,,,,,,,,,001,35,2019_Oct_16_1502,ACPT_experiment_5_30_19,3.1.0,59.95386968007985,
,,,C,G,d,b,L,D,d,R,c ,,,,,5,19,119,3,1,0,1,0,,,,,0,0,0,13,,,,,,up,0.6335408188933798,1889.609668559402,None,001,35,2019_Oct_16_1502,ACPT_experiment_5_30_19,3.1.0,59.95386968007985,
,,,C,G,d,b,L,D,g,L,i,,,,,5,19,119,3,1,0,1,0,,,,,0,1,1,14,,,,,,up,0.7005494679651747,1891.5108268099793,None,001,35,2019_Oct_16_1502,ACPT_experiment_5_30_19,3.1.0,59.95386968007985,
,,,C,G,d,b,L,D,d,L,c ,,,,,5,19,119,3,1,0,1,0,,,,,0,2,2,12,,,,,,up,0.6338161113089882,1893.4790154432412,None,001,35,2019_Oct_16_1502,ACPT_experiment_5_30_19,3.1.0,59.95386968007985,
,,,C,G,d,b,L,U,g,L,u,,,,,5,19,119,3,1,0,1,0,,,,,0,3,3,22,,,,,,up,0.6338052444989444,1895.397145531584,None,001,35,2019_Oct_16_1502,ACPT_experiment_5_30_19,3.1.0,59.95386968007985,
,,,C,G,d,b,R,G,g,L,c ,,,,,5,19,119,3,1,0,1,0,,,,,0,4,4,6,,,,,,up,0.4503306980332127,1897.2985986952008,None,001,35,2019_Oct_16_1502,ACPT_experiment_5_30_19,3.1.0,59.95386968007985,
,,,C,G,d,b,L,G,d,R,i,,,,,5,19,119,3,1,0,1,0,,,,,0,5,5,17,,,,,,up,0.6504869989221334,1899.0332524259393,None,001,35,2019_Oct_16_1502,ACPT_experiment_5_30_19,3.1.0,59.95386968007985,
,,,C,G,d,b,L,D,y,R,y,,,,,5,19,119,3,1,0,1,0,,,,,0,6,6,33,,,,,,down,0.73388520608205,1900.9680624575703,None,001,35,2019_Oct_16_1502,ACPT_experiment_5_30_19,3.1.0,59.95386968007985,
,,,C,G,d,b,R,U,g,L,u,,,,,5,19,119,3,1,0,1,0,,,,,0,7,7,10,,,,,,up,0.800327875684161,1903.0032214042294,None,001,35,2019_Oct_16_1502,ACPT_experiment_5_30_19,3.1.0,59.95386968007985,
,,,C,G,d,b,R,D,d,L,c,,,,,5,19,119,3,1,0,1,0,,,,,0,8,8,0,,,,,,up,0.7672381499723997,1905.0878738218962,None,001,35,2019_Oct_16_1502,ACPT_experiment_5_30_19,3.1.0,59.95386968007985,
,,,C,G,d,b,R,D,y,R,y,,,,,5,19,119,3,1,0,1,0,,,,,0,9,9,27,,,,,,down,0.5504480897216126,1907.1394359101469,None,001,35,2019_Oct_16_1502,ACPT_experiment_5_30_19,3.1.0,59.95386968007985,
,,,C,G,d,b,L,U,d,R,u,,,,,5,19,119,3,1,0,1,0,,,,,0,10,10,21,,,,,,up,0.5003816965545411,1908.9908498476107,None,001,35,2019_Oct_16_1502,ACPT_experiment_5_30_19,3.1.0,59.95386968007985,
,,,C,G,d,b,L,U,y,R,u,,,,,5,19,119,3,1,0,1,0,,,,,0,11,11,25,,,,,,down,0.5837708480430592,1910.7588592389438,None,001,35,2019_Oct_16_1502,ACPT_experiment_5_30_19,3.1.0,59.95386968007985,
,,,C,G,d,b,L,U,g,R,u,,,,,5,19,119,3,1,0,1,0,,,,,0,12,12,23,,,,,,up,0.6004498857619183,1912.6102728745536,None,001,35,2019_Oct_16_1502,ACPT_experiment_5_30_19,3.1.0,59.95386968007985,
,,,C,G,d,b,R,G,d,L,i,,,,,5,19,119,3,1,0,1,0,,,,,0,13,13,4,,,,,,up,0.6505512941912457,1914.4950403596195,None,001,35,2019_Oct_16_1502,ACPT_experiment_5_30_19,3.1.0,59.95386968007985,
,,,C,G,d,b,L,U,d,L,u,,,,,5,19,119,3,1,0,1,0,,,,,0,14,14,20,,,,,,up,0.6004468672072107,1916.4298494856848,None,001,35,2019_Oct_16_1502,ACPT_experiment_5_30_19,3.1.0,59.95386968007985,
,,,C,G,d,b,L,G,d,L,i,,,,,5,19,119,3,1,0,1,0,,,,,0,15,15,16,,,,,,up,0.6337747570760257,1918.3146356858051,None,001,35,2019_Oct_16_1502,ACPT_experiment_5_30_19,3.1.0,59.95386968007985,
,,,C,G,d,b,R,D,g,R,i,,,,,5,19,119,3,1,0,1,0,,,,,0,16,16,3,,,,,,up,0.5670884899118391,1920.2327518887869,None,001,35,2019_Oct_16_1502,ACPT_experiment_5_30_19,3.1.0,59.95386968007985,
,,,C,G,d,b,R,U,y,L,u,,,,,5,19,119,3,1,0,1,0,,,,,0,17,17,30,,,,,,down,0.7169372149182891,1922.1011095914364,None,001,35,2019_Oct_16_1502,ACPT_experiment_5_30_19,3.1.0,59.95386968007985,
,,,C,G,d,b,R,D,g,L,i,,,,,5,19,119,3,1,0,1,0,,,,,0,18,18,2,,,,,,up,0.6838474892101658,1924.102363801947,None,001,35,2019_Oct_16_1502,ACPT_experiment_5_30_19,3.1.0,59.95386968007985,
,,,C,G,d,b,R,D,d,R,c ,,,,,5,19,119,3,1,0,1,0,,,,,0,19,19,1,,,,,,up,0.5837648109263682,1926.0705355312857,None,001,35,2019_Oct_16_1502,ACPT_experiment_5_30_19,3.1.0,59.95386968007985,
,,,C,G,d,b,L,D,y,L,y,,,,,5,19,119,3,1,0,1,0,,,,,0,20,20,32,,,,,,down,0.5837974113455857,1927.9385977171878,None,001,35,2019_Oct_16_1502,ACPT_experiment_5_30_19,3.1.0,59.95386968007985,
,,,C,G,d,b,R,G,g,R,c ,,,,,5,19,119,3,1,0,1,0,,,,,0,21,21,7,,,,,,up,0.600448074630549,1929.806713331549,None,001,35,2019_Oct_16_1502,ACPT_experiment_5_30_19,3.1.0,59.95386968007985,
,,,C,G,d,b,L,G,y,R,y,,,,,5,19,119,3,1,0,1,0,,,,,0,22,22,35,,,,,,down,0.7172571819792211,1931.691466025688,None,001,35,2019_Oct_16_1502,ACPT_experiment_5_30_19,3.1.0,59.95386968007985,
,,,C,G,d,b,L,G,g,L,c ,,,,,5,19,119,3,1,0,1,0,,,,,0,23,23,18,,,,,,up,0.7672094736808504,1933.6930226956283,None,001,35,2019_Oct_16_1502,ACPT_experiment_5_30_19,3.1.0,59.95386968007985,
,,,C,G,d,b,R,U,d,L,u,,,,,5,19,119,3,1,0,1,0,,,,,0,24,24,8,,,,,,up,0.8506710705405567,1935.744549466759,None,001,35,2019_Oct_16_1502,ACPT_experiment_5_30_19,3.1.0,59.95386968007985,
,,,C,G,d,b,L,D,g,R,i,,,,,5,19,119,3,1,0,1,0,,,,,0,25,25,15,,,,,,up,0.6171917094725359,1937.8795067436076,None,001,35,2019_Oct_16_1502,ACPT_experiment_5_30_19,3.1.0,59.95386968007985,
,,,C,G,d,b,R,G,d,R,i,,,,,5,19,119,3,1,0,1,0,,,,,0,26,26,5,,,,,,down,0.817149389302358,1939.7810818569342,None,001,35,2019_Oct_16_1502,ACPT_experiment_5_30_19,3.1.0,59.95386968007985,
,,,C,G,d,b,R,G,y,R,y,,,,,5,19,119,3,1,0,1,0,,,,,0,27,27,29,,,,,,down,0.6504830747981032,1941.8992671245032,None,001,35,2019_Oct_16_1502,ACPT_experiment_5_30_19,3.1.0,59.95386968007985,
,,,C,G,d,b,L,G,g,R,c ,,,,,5,19,119,3,1,0,1,0,,,,,0,28,28,19,,,,,,up,0.5837645090723527,1943.8507540808641,None,001,35,2019_Oct_16_1502,ACPT_experiment_5_30_19,3.1.0,59.95386968007985,
,,,C,G,d,b,R,D,y,L,y,,,,,5,19,119,3,1,0,1,0,,,,,0,29,29,26,,,,,,down,0.7338839986587118,1945.7188455467694,None,001,35,2019_Oct_16_1502,ACPT_experiment_5_30_19,3.1.0,59.95386968007985,
,,,C,G,d,b,R,G,y,L,y,,,,,5,19,119,3,1,0,1,0,,,,,0,30,30,28,,,,,,down,0.5668322144047124,1947.7539791375457,None,001,35,2019_Oct_16_1502,ACPT_experiment_5_30_19,3.1.0,59.95386968007985,
,,,C,G,d,b,L,G,y,L,y,,,,,5,19,119,3,1,0,1,0,,,,,0,31,31,34,,,,,,down,0.7171986219655082,1949.621825798462,None,001,35,2019_Oct_16_1502,ACPT_experiment_5_30_19,3.1.0,59.95386968007985,
,,,C,G,d,b,R,U,y,R,u,,,,,5,19,119,3,1,0,1,0,,,,,0,32,32,31,,,,,,down,0.6338502210055594,1951.6233296436512,None,001,35,2019_Oct_16_1502,ACPT_experiment_5_30_19,3.1.0,59.95386968007985,
,,,C,G,d,b,R,U,d,R,u,,,,,5,19,119,3,1,0,1,0,,,,,0,33,33,9,,,,,,up,0.6338290911044169,1953.5581547680704,None,001,35,2019_Oct_16_1502,ACPT_experiment_5_30_19,3.1.0,59.95386968007985,
,,,C,G,d,b,R,U,g,R,u,,,,,5,19,119,3,1,0,1,0,,,,,0,34,34,11,,,,,,up,0.6338103760463127,1955.459604913125,None,001,35,2019_Oct_16_1502,ACPT_experiment_5_30_19,3.1.0,59.95386968007985,
,,,C,G,d,b,L,U,y,L,u,,,,,5,19,119,3,1,0,1,0,,,,,0,35,35,24,,,,,,down,0.6671708663379832,1957.3777313792016,None,001,35,2019_Oct_16_1502,ACPT_experiment_5_30_19,3.1.0,59.95386968007985,
,,,C,G,d,b,R,U,g,R,u,,,,,5,19,119,3,1,0,1,0,,,,,1,0,36,11,,,,,,up,0.6671633199439384,1959.3292234671098,None,001,35,2019_Oct_16_1502,ACPT_experiment_5_30_19,3.1.0,59.95386968007985,
,,,C,G,d,b,R,U,y,L,u,,,,,5,19,119,3,1,0,1,0,,,,,1,1,37,30,,,,,,down,0.6335317632219812,1961.314341074627,None,001,35,2019_Oct_16_1502,ACPT_experiment_5_30_19,3.1.0,59.95386968007985,
,,,C,G,d,b,L,D,y,R,y,,,,,5,19,119,3,1,0,1,0,,,,,1,2,38,33,,,,,,down,0.4836866604819079,1963.232202209525,None,001,35,2019_Oct_16_1502,ACPT_experiment_5_30_19,3.1.0,59.95386968007985,
,,,C,G,d,b,L,D,g,R,i,,,,,5,19,119,3,1,0,1,0,,,,,1,3,39,15,,,,,,up,0.6504722079916974,1965.0168954682704,None,001,35,2019_Oct_16_1502,ACPT_experiment_5_30_19,3.1.0,59.95386968007985,
,,,C,G,d,b,L,U,y,L,u,,,,,5,19,119,3,1,0,1,0,,,,,1,4,40,24,,,,,,down,0.6338447876005375,1966.9516674660808,None,001,35,2019_Oct_16_1502,ACPT_experiment_5_30_19,3.1.0,59.95386968007985,
,,,C,G,d,b,R,G,g,R,c ,,,,,5,19,119,3,1,0,1,0,,,,,1,5,41,7,,,,,,up,0.9507462024303095,1968.8698247214415,None,001,35,2019_Oct_16_1502,ACPT_experiment_5_30_19,3.1.0,59.95386968007985,
,,,C,G,d,b,R,U,y,R,u,,,,,5,19,119,3,1,0,1,0,,,,,1,6,42,31,,,,,,down,0.7505588103995251,1971.104866789563,None,001,35,2019_Oct_16_1502,ACPT_experiment_5_30_19,3.1.0,59.95386968007985,
,,,C,G,d,b,L,D,g,L,i,,,,,5,19,119,3,1,0,1,0,,,,,1,7,43,14,,,,,,up,0.6671929018048104,1973.1397256916352,None,001,35,2019_Oct_16_1502,ACPT_experiment_5_30_19,3.1.0,59.95386968007985,
,,,C,G,d,b,R,D,y,L,y,,,,,5,19,119,3,1,0,1,0,,,,,1,8,44,26,,,,,,down,0.7005657681729645,1975.1078995339667,None,001,35,2019_Oct_16_1502,ACPT_experiment_5_30_19,3.1.0,59.95386968007985,
,,,C,G,d,b,R,D,y,R,y,,,,,5,19,119,3,1,0,1,0,,,,,1,9,45,27,,,,,,down,0.48368575491258525,1977.109445035243,None,001,35,2019_Oct_16_1502,ACPT_experiment_5_30_19,3.1.0,59.95386968007985,
,,,C,G,d,b,L,U,d,L,u,,,,,5,19,119,3,1,0,1,0,,,,,1,10,46,20,,,,,,down,0.6336983875771693,1978.8774562377148,None,001,35,2019_Oct_16_1502,ACPT_experiment_5_30_19,3.1.0,59.95386968007985,
,,,C,G,d,b,R,G,g,L,c ,,,,,5,19,119,3,1,0,1,0,,,,,1,11,47,6,,,,,,up,1.4678341037215432,1980.7955591590435,None,001,35,2019_Oct_16_1502,ACPT_experiment_5_30_19,3.1.0,59.95386968007985,
,,,C,G,d,b,R,D,d,R,c ,,,,,5,19,119,3,1,0,1,0,,,,,1,12,48,1,,,,,,up,0.6337961888275458,1983.5476960711385,None,001,35,2019_Oct_16_1502,ACPT_experiment_5_30_19,3.1.0,59.95386968007985,
,,,C,G,d,b,L,D,d,L,c ,,,,,5,19,119,3,1,0,1,0,,,,,1,13,49,12,,,,,,down,0.7005201879583183,1985.4658137833976,None,001,35,2019_Oct_16_1502,ACPT_experiment_5_30_19,3.1.0,59.95386968007985,
,,,C,G,d,b,R,G,y,R,y,,,,,5,19,119,3,1,0,1,0,,,,,1,14,50,29,,,,,,down,0.7839238285196188,1987.4506582114882,None,001,35,2019_Oct_16_1502,ACPT_experiment_5_30_19,3.1.0,59.95386968007985,
,,,C,G,d,b,R,G,d,L,i,,,,,5,19,119,3,1,0,1,0,,,,,1,15,51,4,,,,,,up,0.7172109980529058,1989.5189020541584,None,001,35,2019_Oct_16_1502,ACPT_experiment_5_30_19,3.1.0,59.95386968007985,
,,,C,G,d,b,R,G,d,R,i,,,,,5,19,119,3,1,0,1,0,,,,,1,16,52,5,,,,,,up,0.6004519987509411,1991.5037495008073,None,001,35,2019_Oct_16_1502,ACPT_experiment_5_30_19,3.1.0,59.95386968007985,
,,,C,G,d,b,R,U,d,L,u,,,,,5,19,119,3,1,0,1,0,,,,,1,17,53,8,,,,,,up,0.7803881924883171,1993.4087331689043,None,001,35,2019_Oct_16_1502,ACPT_experiment_5_30_19,3.1.0,59.95386968007985,
,,,C,G,d,b,L,G,g,L,c ,,,,,5,19,119,3,1,0,1,0,,,,,1,18,54,18,,,,,,up,0.7839229229539342,1995.4734425829702,None,001,35,2019_Oct_16_1502,ACPT_experiment_5_30_19,3.1.0,59.95386968007985,
,,,C,G,d,b,L,U,d,R,u,,,,,5,19,119,3,1,0,1,0,,,,,1,19,55,21,,,,,,up,0.6671421900427958,1997.541695179454,None,001,35,2019_Oct_16_1502,ACPT_experiment_5_30_19,3.1.0,59.95386968007985,
,,,C,G,d,b,L,G,g,R,c ,,,,,5,19,119,3,1,0,1,0,,,,,1,20,56,19,,,,,,up,0.7672490167788055,1999.4931724764356,None,001,35,2019_Oct_16_1502,ACPT_experiment_5_30_19,3.1.0,59.95386968007985,
,,,C,G,d,b,R,U,g,L,u,,,,,5,19,119,3,1,0,1,0,,,,,1,21,57,10,,,,,,up,0.8840037901027245,2001.5447363758176,None,001,35,2019_Oct_16_1502,ACPT_experiment_5_30_19,3.1.0,59.95386968007985,
,,,C,G,d,b,L,D,d,R,c ,,,,,5,19,119,3,1,0,1,0,,,,,1,22,58,13,,,,,,down,0.7172028479471919,2003.7130577652242,None,001,35,2019_Oct_16_1502,ACPT_experiment_5_30_19,3.1.0,59.95386968007985,
,,,C,G,d,b,L,G,y,R,y,,,,,5,19,119,3,1,0,1,0,,,,,1,23,59,35,,,,,,down,0.7839494862564607,2005.7145588937128,None,001,35,2019_Oct_16_1502,ACPT_experiment_5_30_19,3.1.0,59.95386968007985,
,,,C,G,d,b,L,G,y,L,y,,,,,5,19,119,3,1,0,1,0,,,,,1,24,60,34,,,,,,down,0.7673933038131509,2007.7659975229726,None,001,35,2019_Oct_16_1502,ACPT_experiment_5_30_19,3.1.0,59.95386968007985,
,,,C,G,d,b,R,U,d,R,u,,,,,5,19,119,3,1,0,1,0,,,,,1,25,61,9,,,,,,down,0.6838317927104072,2009.8177205003194,None,001,35,2019_Oct_16_1502,ACPT_experiment_5_30_19,3.1.0,59.95386968007985,
,,,C,G,d,b,R,D,g,L,i,,,,,5,19,119,3,1,0,1,0,,,,,1,26,62,2,,,,,,up,0.783921715530596,2011.785878042443,None,001,35,2019_Oct_16_1502,ACPT_experiment_5_30_19,3.1.0,59.95386968007985,
,,,C,G,d,b,L,U,g,R,u,,,,,5,19,119,3,1,0,1,0,,,,,1,27,63,23,,,,,,up,0.6671627162322693,2013.854122488825,None,001,35,2019_Oct_16_1502,ACPT_experiment_5_30_19,3.1.0,59.95386968007985,
,,,C,G,d,b,L,G,d,R,i,,,,,5,19,119,3,1,0,1,0,,,,,1,28,64,17,,,,,,up,0.6335335743533506,2015.8225646808896,None,001,35,2019_Oct_16_1502,ACPT_experiment_5_30_19,3.1.0,59.95386968007985,
,,,C,G,d,b,R,D,d,L,c,,,,,5,19,119,3,1,0,1,0,,,,,1,29,65,0,,,,,,up,0.7839150747058738,2017.7404191749629,None,001,35,2019_Oct_16_1502,ACPT_experiment_5_30_19,3.1.0,59.95386968007985,
,,,C,G,d,b,L,U,g,L,u,,,,,5,19,119,3,1,0,1,0,,,,,1,30,66,22,,,,,,up,0.6337931702728383,2019.8086672436148,None,001,35,2019_Oct_16_1502,ACPT_experiment_5_30_19,3.1.0,59.95386968007985,
,,,C,G,d,b,L,U,y,R,u,,,,,5,19,119,3,1,0,1,0,,,,,1,31,67,25,,,,,,down,0.6671702626263141,2021.7267876725746,None,001,35,2019_Oct_16_1502,ACPT_experiment_5_30_19,3.1.0,59.95386968007985,
,,,C,G,d,b,R,G,y,L,y,,,,,5,19,119,3,1,0,1,0,,,,,1,32,68,28,,,,,,down,0.8506463183730375,2023.6782731196581,None,001,35,2019_Oct_16_1502,ACPT_experiment_5_30_19,3.1.0,59.95386968007985,
,,,C,G,d,b,L,G,d,L,i,,,,,5,19,119,3,1,0,1,0,,,,,1,33,69,16,,,,,,up,0.9340279234675108,2025.8132518282655,None,001,35,2019_Oct_16_1502,ACPT_experiment_5_30_19,3.1.0,59.95386968007985,
,,,C,G,d,b,L,D,y,L,y,,,,,5,19,119,3,1,0,1,0,,,,,1,34,70,32,,,,,,down,0.7839186969722505,2028.031597652891,None,001,35,2019_Oct_16_1502,ACPT_experiment_5_30_19,3.1.0,59.95386968007985,
,,,C,G,d,b,R,D,g,R,i,,,,,5,19,119,3,1,0,1,0,,,,,1,35,71,3,,,,,,up,0.6171491478162352,2030.0998173471053,None,001,35,2019_Oct_16_1502,ACPT_experiment_5_30_19,3.1.0,59.95386968007985,
,,,C,G,d,b,,,,,,,,,,5,19,119,3,2,0,2,0,0,0,0,0,,,,,,,,,,,,,,001,35,2019_Oct_16_1502,ACPT_experiment_5_30_19,3.1.0,59.95386968007985,
,,,C,G,d,b,L,U,g,L,u,,,,,5,19,119,3,2,0,2,0,,,,,0,0,0,22,,,,,,up,0.5668307051273587,2041.3586860945034,None,001,35,2019_Oct_16_1502,ACPT_experiment_5_30_19,3.1.0,59.95386968007985,
,,,C,G,d,b,R,G,y,R,y,,,,,5,19,119,3,2,0,2,0,,,,,0,1,1,29,,,,,,down,0.717206168359553,2043.2098343989346,None,001,35,2019_Oct_16_1502,ACPT_experiment_5_30_19,3.1.0,59.95386968007985,
,,,C,G,d,b,R,G,d,L,i,,,,,5,19,119,3,2,0,2,0,,,,,0,2,2,4,,,,,,up,0.7839482788331225,2045.1946564897044,None,001,35,2019_Oct_16_1502,ACPT_experiment_5_30_19,3.1.0,59.95386968007985,
,,,C,G,d,b,L,D,g,L,i,,,,,5,19,119,3,2,0,2,0,,,,,0,3,3,14,,,,,,up,0.7338894320600957,2047.2629232734107,None,001,35,2019_Oct_16_1502,ACPT_experiment_5_30_19,3.1.0,59.95386968007985,
,,,C,G,d,b,L,U,d,R,u,,,,,5,19,119,3,2,0,2,0,,,,,0,4,4,21,,,,,,up,0.5837750740247429,2049.281127588074,None,001,35,2019_Oct_16_1502,ACPT_experiment_5_30_19,3.1.0,59.95386968007985,
,,,C,G,d,b,R,G,g,R,c ,,,,,5,19,119,3,2,0,2,0,,,,,0,5,5,7,,,,,,up,0.4836908864635916,2051.149219657691,None,001,35,2019_Oct_16_1502,ACPT_experiment_5_30_19,3.1.0,59.95386968007985,
,,,C,G,d,b,R,U,g,L,u,,,,,5,19,119,3,2,0,2,0,,,,,0,6,6,10,,,,,,up,0.6171301309077535,2052.917236293564,None,001,35,2019_Oct_16_1502,ACPT_experiment_5_30_19,3.1.0,59.95386968007985,
,,,C,G,d,b,R,U,y,L,u,,,,,5,19,119,3,2,0,2,0,,,,,0,7,7,30,,,,,,down,0.6505189956296817,2054.801981743163,None,001,35,2019_Oct_16_1502,ACPT_experiment_5_30_19,3.1.0,59.95386968007985,
,,,C,G,d,b,R,U,d,R,u,,,,,5,19,119,3,2,0,2,0,,,,,0,8,8,9,,,,,,down,0.6838477910641814,2056.7368126028414,None,001,35,2019_Oct_16_1502,ACPT_experiment_5_30_19,3.1.0,59.95386968007985,
,,,C,G,d,b,L,G,g,L,c ,,,,,5,19,119,3,2,0,2,0,,,,,0,9,9,18,,,,,,up,0.8339585268367955,2058.7049816154795,None,001,35,2019_Oct_16_1502,ACPT_experiment_5_30_19,3.1.0,59.95386968007985,
,,,C,G,d,b,L,D,y,L,y,,,,,5,19,119,3,2,0,2,0,,,,,0,10,10,32,,,,,,down,0.7172369576437632,2060.8232351024417,None,001,35,2019_Oct_16_1502,ACPT_experiment_5_30_19,3.1.0,59.95386968007985,
,,,C,G,d,b,R,G,d,R,i,,,,,5,19,119,3,2,0,2,0,,,,,0,11,11,5,,,,,,up,0.5504130744593567,2062.824786037123,None,001,35,2019_Oct_16_1502,ACPT_experiment_5_30_19,3.1.0,59.95386968007985,
,,,C,G,d,b,L,G,g,R,c ,,,,,5,19,119,3,2,0,2,0,,,,,0,12,12,19,,,,,,up,0.5504136781710258,2064.6595191257293,None,001,35,2019_Oct_16_1502,ACPT_experiment_5_30_19,3.1.0,59.95386968007985,
,,,C,G,d,b,L,D,y,R,y,,,,,5,19,119,3,2,0,2,0,,,,,0,13,13,33,,,,,,down,0.5501637416346057,2066.5111772644705,None,001,35,2019_Oct_16_1502,ACPT_experiment_5_30_19,3.1.0,59.95386968007985,
,,,C,G,d,b,L,U,y,L,u,,,,,5,19,119,3,2,0,2,0,,,,,0,14,14,24,,,,,,down,0.7172164314542897,2068.3456592091206,None,001,35,2019_Oct_16_1502,ACPT_experiment_5_30_19,3.1.0,59.95386968007985,
,,,C,G,d,b,L,G,d,L,i,,,,,5,19,119,3,2,0,2,0,,,,,0,15,15,16,,,,,,up,0.9173552247157204,2070.347191730605,None,001,35,2019_Oct_16_1502,ACPT_experiment_5_30_19,3.1.0,59.95386968007985,
,,,C,G,d,b,R,D,y,R,y,,,,,5,19,119,3,2,0,2,0,,,,,0,16,16,27,,,,,,down,0.5670921121782158,2072.5488645546247,None,001,35,2019_Oct_16_1502,ACPT_experiment_5_30_19,3.1.0,59.95386968007985,
,,,C,G,d,b,R,U,y,R,u,,,,,5,19,119,3,2,0,2,0,,,,,0,17,17,31,,,,,,down,0.5837768851597502,2074.400274266107,None,001,35,2019_Oct_16_1502,ACPT_experiment_5_30_19,3.1.0,59.95386968007985,
,,,C,G,d,b,R,D,g,R,i,,,,,5,19,119,3,2,0,2,0,,,,,0,18,18,3,,,,,,up,0.5670927158898849,2076.268370259848,None,001,35,2019_Oct_16_1502,ACPT_experiment_5_30_19,3.1.0,59.95386968007985,
,,,C,G,d,b,L,G,d,R,i,,,,,5,19,119,3,2,0,2,0,,,,,0,19,19,17,,,,,,up,0.6504945453161781,2078.1197784620526,None,001,35,2019_Oct_16_1502,ACPT_experiment_5_30_19,3.1.0,59.95386968007985,
,,,C,G,d,b,L,U,d,L,u,,,,,5,19,119,3,2,0,2,0,,,,,0,20,20,20,,,,,,up,0.6502412883673969,2080.054858956406,None,001,35,2019_Oct_16_1502,ACPT_experiment_5_30_19,3.1.0,59.95386968007985,
,,,C,G,d,b,R,G,g,L,c ,,,,,5,19,119,3,2,0,2,0,,,,,0,21,21,6,,,,,,up,0.7172348446547403,2081.989370754589,None,001,35,2019_Oct_16_1502,ACPT_experiment_5_30_19,3.1.0,59.95386968007985,
,,,C,G,d,b,L,D,d,R,c ,,,,,5,19,119,3,2,0,2,0,,,,,0,22,22,13,,,,,,up,0.6004752416447445,2083.990900257515,None,001,35,2019_Oct_16_1502,ACPT_experiment_5_30_19,3.1.0,59.95386968007985,
,,,C,G,d,b,L,G,y,L,y,,,,,5,19,119,3,2,0,2,0,,,,,0,23,23,34,,,,,,down,0.7338897339177493,2085.875692494752,None,001,35,2019_Oct_16_1502,ACPT_experiment_5_30_19,3.1.0,59.95386968007985,
,,,C,G,d,b,R,U,d,L,u,,,,,5,19,119,3,2,0,2,0,,,,,0,24,24,8,,,,,,up,0.6004432449371961,2087.8938998279737,None,001,35,2019_Oct_16_1502,ACPT_experiment_5_30_19,3.1.0,59.95386968007985,
,,,C,G,d,b,R,U,g,R,u,,,,,5,19,119,3,2,0,2,0,,,,,0,25,25,11,,,,,,up,0.5671059975393291,2089.76198072893,None,001,35,2019_Oct_16_1502,ACPT_experiment_5_30_19,3.1.0,59.95386968007985,
,,,C,G,d,b,L,D,d,L,c ,,,,,5,19,119,3,2,0,2,0,,,,,0,26,26,12,,,,,,up,0.7172064702172065,2091.613402816496,None,001,35,2019_Oct_16_1502,ACPT_experiment_5_30_19,3.1.0,59.95386968007985,
,,,C,G,d,b,R,D,g,L,i,,,,,5,19,119,3,2,0,2,0,,,,,0,27,27,2,,,,,,up,0.6338067537799361,2093.6149259804515,None,001,35,2019_Oct_16_1502,ACPT_experiment_5_30_19,3.1.0,59.95386968007985,
,,,C,G,d,b,L,G,y,R,y,,,,,5,19,119,3,2,0,2,0,,,,,0,28,28,35,,,,,,down,0.7172085832098674,2095.533054861371,None,001,35,2019_Oct_16_1502,ACPT_experiment_5_30_19,3.1.0,59.95386968007985,
,,,C,G,d,b,L,U,y,R,u,,,,,5,19,119,3,2,0,2,0,,,,,0,29,29,25,,,,,,down,0.46702362111682305,2097.53457923275,None,001,35,2019_Oct_16_1502,ACPT_experiment_5_30_19,3.1.0,59.95386968007985,
,,,C,G,d,b,R,D,d,R,c ,,,,,5,19,119,3,2,0,2,0,,,,,0,30,30,1,,,,,,up,0.5835245337766537,2099.302843390313,None,001,35,2019_Oct_16_1502,ACPT_experiment_5_30_19,3.1.0,59.95386968007985,
,,,C,G,d,b,R,D,y,L,y,,,,,5,19,119,3,2,0,2,0,,,,,0,31,31,26,,,,,,down,0.7006653805619862,2101.1706867308167,None,001,35,2019_Oct_16_1502,ACPT_experiment_5_30_19,3.1.0,59.95386968007985,
,,,C,G,d,b,R,D,d,L,c,,,,,5,19,119,3,2,0,2,0,,,,,0,32,32,0,,,,,,up,1.2175963168774615,2103.1555311589073,None,001,35,2019_Oct_16_1502,ACPT_experiment_5_30_19,3.1.0,59.95386968007985,
,,,C,G,d,b,R,G,y,L,y,,,,,5,19,119,3,2,0,2,0,,,,,0,33,33,28,,,,,,down,0.7005382993011153,2105.67412260353,None,001,35,2019_Oct_16_1502,ACPT_experiment_5_30_19,3.1.0,59.95386968007985,
,,,C,G,d,b,L,D,g,R,i,,,,,5,19,119,3,2,0,2,0,,,,,0,34,34,15,,,,,,up,0.6171265086377389,2107.6756478804746,None,001,35,2019_Oct_16_1502,ACPT_experiment_5_30_19,3.1.0,59.95386968007985,
,,,C,G,d,b,L,U,g,R,u,,,,,5,19,119,3,2,0,2,0,,,,,0,35,35,23,,,,,,up,0.6171228863677243,2109.577100138522,None,001,35,2019_Oct_16_1502,ACPT_experiment_5_30_19,3.1.0,59.95386968007985,
,,,C,G,d,b,L,D,y,R,y,,,,,5,19,119,3,2,0,2,0,,,,,1,0,36,33,,,,,,down,0.6004538098859484,2111.4785421334745,None,001,35,2019_Oct_16_1502,ACPT_experiment_5_30_19,3.1.0,59.95386968007985,
,,,C,G,d,b,L,G,g,R,c ,,,,,5,19,119,3,2,0,2,0,,,,,1,1,37,19,,,,,,up,0.5835317783130449,2113.3802346686753,None,001,35,2019_Oct_16_1502,ACPT_experiment_5_30_19,3.1.0,59.95386968007985,
,,,C,G,d,b,L,U,g,R,u,,,,,5,19,119,3,2,0,2,0,,,,,1,2,38,23,,,,,,up,0.5504185078607406,2115.248082537015,None,001,35,2019_Oct_16_1502,ACPT_experiment_5_30_19,3.1.0,59.95386968007985,
,,,C,G,d,b,R,G,d,R,i,,,,,5,19,119,3,2,0,2,0,,,,,1,3,39,5,,,,,,down,0.6338318078051088,2117.0827987217017,None,001,35,2019_Oct_16_1502,ACPT_experiment_5_30_19,3.1.0,59.95386968007985,
,,,C,G,d,b,R,U,y,L,u,,,,,5,19,119,3,2,0,2,0,,,,,1,4,40,30,,,,,,down,0.7338933561841259,2119.0176283739565,None,001,35,2019_Oct_16_1502,ACPT_experiment_5_30_19,3.1.0,59.95386968007985,
,,,C,G,d,b,R,G,y,R,y,,,,,5,19,119,3,2,0,2,0,,,,,1,5,41,29,,,,,,down,0.9340342624345794,2121.035834499755,None,001,35,2019_Oct_16_1502,ACPT_experiment_5_30_19,3.1.0,59.95386968007985,
,,,C,G,d,b,L,G,y,L,y,,,,,5,19,119,3,2,0,2,0,,,,,1,6,42,34,,,,,,down,0.6671572828272474,2123.2541936060334,None,001,35,2019_Oct_16_1502,ACPT_experiment_5_30_19,3.1.0,59.95386968007985,
,,,C,G,d,b,R,G,d,L,i,,,,,5,19,119,3,2,0,2,0,,,,,1,7,43,4,,,,,,down,0.6004408300905197,2125.222361411248,None,001,35,2019_Oct_16_1502,ACPT_experiment_5_30_19,3.1.0,59.95386968007985,
,,,C,G,d,b,L,D,d,L,c ,,,,,5,19,119,3,2,0,2,0,,,,,1,8,44,12,,,,,,up,0.8672326863852504,2127.1070999181684,None,001,35,2019_Oct_16_1502,ACPT_experiment_5_30_19,3.1.0,59.95386968007985,
,,,C,G,d,b,R,U,y,R,u,,,,,5,19,119,3,2,0,2,0,,,,,1,9,45,31,,,,,,down,0.6171440162688668,2129.2587561552173,None,001,35,2019_Oct_16_1502,ACPT_experiment_5_30_19,3.1.0,59.95386968007985,
,,,C,G,d,b,L,D,y,L,y,,,,,5,19,119,3,2,0,2,0,,,,,1,10,46,32,,,,,,down,0.6838649968412938,2131.1602162615127,None,001,35,2019_Oct_16_1502,ACPT_experiment_5_30_19,3.1.0,59.95386968007985,
,,,C,G,d,b,R,G,g,R,c ,,,,,5,19,119,3,2,0,2,0,,,,,1,11,47,7,,,,,,up,0.5501761177183653,2133.145302777888,None,001,35,2019_Oct_16_1502,ACPT_experiment_5_30_19,3.1.0,59.95386968007985,
,,,C,G,d,b,L,U,d,L,u,,,,,5,19,119,3,2,0,2,0,,,,,1,12,48,20,,,,,,up,0.6671714700460143,2134.979794080067,None,001,35,2019_Oct_16_1502,ACPT_experiment_5_30_19,3.1.0,59.95386968007985,
,,,C,G,d,b,R,U,d,L,u,,,,,5,19,119,3,2,0,2,0,,,,,1,13,49,8,,,,,,down,0.6338143001739809,2136.9312774141617,None,001,35,2019_Oct_16_1502,ACPT_experiment_5_30_19,3.1.0,59.95386968007985,
,,,C,G,d,b,L,G,g,L,c ,,,,,5,19,119,3,2,0,2,0,,,,,1,14,50,18,,,,,,up,0.6505144677903445,2138.84938516518,None,001,35,2019_Oct_16_1502,ACPT_experiment_5_30_19,3.1.0,59.95386968007985,
,,,C,G,d,b,R,D,d,L,c,,,,,5,19,119,3,2,0,2,0,,,,,1,15,51,0,,,,,,up,0.7336201767611783,2140.8011751846825,None,001,35,2019_Oct_16_1502,ACPT_experiment_5_30_19,3.1.0,59.95386968007985,
,,,C,G,d,b,L,U,y,R,u,,,,,5,19,119,3,2,0,2,0,,,,,1,16,52,25,,,,,,down,0.817312089529878,2142.8190752287846,None,001,35,2019_Oct_16_1502,ACPT_experiment_5_30_19,3.1.0,59.95386968007985,
,,,C,G,d,b,L,G,y,R,y,,,,,5,19,119,3,2,0,2,0,,,,,1,17,53,35,,,,,,down,0.7839235266619653,2144.9207082380344,None,001,35,2019_Oct_16_1502,ACPT_experiment_5_30_19,3.1.0,59.95386968007985,
,,,C,G,d,b,R,U,d,R,u,,,,,5,19,119,3,2,0,2,0,,,,,1,18,54,9,,,,,,up,0.6171313383310917,2146.98894906215,None,001,35,2019_Oct_16_1502,ACPT_experiment_5_30_19,3.1.0,59.95386968007985,
,,,C,G,d,b,L,G,d,L,i,,,,,5,19,119,3,2,0,2,0,,,,,1,19,55,16,,,,,,up,0.700551279100182,2148.8903696253474,None,001,35,2019_Oct_16_1502,ACPT_experiment_5_30_19,3.1.0,59.95386968007985,
,,,C,G,d,b,L,D,g,L,i,,,,,5,19,119,3,2,0,2,0,,,,,1,20,56,14,,,,,,up,0.5504046224959893,2150.8752445408645,None,001,35,2019_Oct_16_1502,ACPT_experiment_5_30_19,3.1.0,59.95386968007985,
,,,C,G,d,b,L,D,d,R,c ,,,,,5,19,119,3,2,0,2,0,,,,,1,21,57,13,,,,,,up,0.6004713175207144,2152.693276556285,None,001,35,2019_Oct_16_1502,ACPT_experiment_5_30_19,3.1.0,59.95386968007985,
,,,C,G,d,b,R,G,y,L,y,,,,,5,19,119,3,2,0,2,0,,,,,1,22,58,28,,,,,,down,0.6671747904620133,2154.5780651712557,None,001,35,2019_Oct_16_1502,ACPT_experiment_5_30_19,3.1.0,59.95386968007985,
,,,C,G,d,b,L,D,g,R,i,,,,,5,19,119,3,2,0,2,0,,,,,1,23,59,15,,,,,,up,0.8339558101361035,2156.5295584665873,None,001,35,2019_Oct_16_1502,ACPT_experiment_5_30_19,3.1.0,59.95386968007985,
,,,C,G,d,b,R,U,g,R,u,,,,,5,19,119,3,2,0,2,0,,,,,1,24,60,11,,,,,,up,0.6171249993603851,2158.6311634032536,None,001,35,2019_Oct_16_1502,ACPT_experiment_5_30_19,3.1.0,59.95386968007985,
,,,C,G,d,b,L,G,d,R,i,,,,,5,19,119,3,2,0,2,0,,,,,1,25,61,17,,,,,,up,0.650493941604509,2160.532607209341,None,001,35,2019_Oct_16_1502,ACPT_experiment_5_30_19,3.1.0,59.95386968007985,
,,,C,G,d,b,R,D,y,R,y,,,,,5,19,119,3,2,0,2,0,,,,,1,26,62,27,,,,,,down,0.7339051285598543,2162.4840953731255,None,001,35,2019_Oct_16_1502,ACPT_experiment_5_30_19,3.1.0,59.95386968007985,
,,,C,G,d,b,L,U,g,L,u,,,,,5,19,119,3,2,0,2,0,,,,,1,27,63,22,,,,,,up,0.6004501876195718,2164.5189766125222,None,001,35,2019_Oct_16_1502,ACPT_experiment_5_30_19,3.1.0,59.95386968007985,
,,,C,G,d,b,L,U,d,R,u,,,,,5,19,119,3,2,0,2,0,,,,,1,28,64,21,,,,,,up,0.5504145837367105,2166.387067474716,None,001,35,2019_Oct_16_1502,ACPT_experiment_5_30_19,3.1.0,59.95386968007985,
,,,C,G,d,b,R,D,g,R,i,,,,,5,19,119,3,2,0,2,0,,,,,1,29,65,3,,,,,,up,0.6504918286154862,2168.221805694873,None,001,35,2019_Oct_16_1502,ACPT_experiment_5_30_19,3.1.0,59.95386968007985,
,,,C,G,d,b,R,D,g,L,i,,,,,5,19,119,3,2,0,2,0,,,,,1,30,66,2,,,,,,up,0.7339096563955536,2170.139912540326,None,001,35,2019_Oct_16_1502,ACPT_experiment_5_30_19,3.1.0,59.95386968007985,
,,,C,G,d,b,L,U,y,L,u,,,,,5,19,119,3,2,0,2,0,,,,,1,31,67,24,,,,,,down,0.800598036548763,2172.158136777467,None,001,35,2019_Oct_16_1502,ACPT_experiment_5_30_19,3.1.0,59.95386968007985,
,,,C,G,d,b,R,U,g,L,u,,,,,5,19,119,3,2,0,2,0,,,,,1,32,68,10,,,,,,up,0.7338888283484266,2174.2430599597137,None,001,35,2019_Oct_16_1502,ACPT_experiment_5_30_19,3.1.0,59.95386968007985,
,,,C,G,d,b,R,D,d,R,c ,,,,,5,19,119,3,2,0,2,0,,,,,1,33,69,1,,,,,,up,0.7839346953260247,2176.2612606521106,None,001,35,2019_Oct_16_1502,ACPT_experiment_5_30_19,3.1.0,59.95386968007985,
,,,C,G,d,b,R,D,y,L,y,,,,,5,19,119,3,2,0,2,0,,,,,1,34,70,26,,,,,,down,0.7505865811253898,2178.3128100624235,None,001,35,2019_Oct_16_1502,ACPT_experiment_5_30_19,3.1.0,59.95386968007985,
,,,C,G,d,b,R,G,g,L,c ,,,,,5,19,119,3,2,0,2,0,,,,,1,35,71,6,,,,,,up,0.6504933378928399,2180.347708507594,None,001,35,2019_Oct_16_1502,ACPT_experiment_5_30_19,3.1.0,59.95386968007985,
,,,C,G,d,b,,,,,,,,,,5,19,119,3,3,0,3,0,0,0,0,0,,,,,,,,,,,,,,001,35,2019_Oct_16_1502,ACPT_experiment_5_30_19,3.1.0,59.95386968007985,
,,,C,G,d,b,L,D,y,R,y,,,,,5,19,119,3,3,0,3,0,,,,,0,0,0,33,,,,,,down,0.6335477615757554,2194.6088517378303,None,001,35,2019_Oct_16_1502,ACPT_experiment_5_30_19,3.1.0,59.95386968007985,
,,,C,G,d,b,R,U,y,L,u,,,,,5,19,119,3,3,0,3,0,,,,,0,1,1,30,,,,,,down,0.7005298473450239,2196.526711363451,None,001,35,2019_Oct_16_1502,ACPT_experiment_5_30_19,3.1.0,59.95386968007985,
,,,C,G,d,b,R,D,g,R,i,,,,,5,19,119,3,3,0,3,0,,,,,0,2,2,3,,,,,,up,0.5504118670360185,2198.5115579045305,None,001,35,2019_Oct_16_1502,ACPT_experiment_5_30_19,3.1.0,59.95386968007985,
,,,C,G,d,b,L,G,d,R,i,,,,,5,19,119,3,3,0,3,0,,,,,0,3,3,17,,,,,,down,0.6671621125206002,2200.346291898706,None,001,35,2019_Oct_16_1502,ACPT_experiment_5_30_19,3.1.0,59.95386968007985,
,,,C,G,d,b,R,D,d,R,c ,,,,,5,19,119,3,3,0,3,0,,,,,0,4,4,1,,,,,,up,0.5670803398061253,2202.31446423176,None,001,35,2019_Oct_16_1502,ACPT_experiment_5_30_19,3.1.0,59.95386968007985,
,,,C,G,d,b,L,G,y,L,y,,,,,5,19,119,3,3,0,3,0,,,,,0,5,5,34,,,,,,down,0.6171249993603851,2204.1658742450963,None,001,35,2019_Oct_16_1502,ACPT_experiment_5_30_19,3.1.0,59.95386968007985,
,,,C,G,d,b,R,G,y,R,y,,,,,5,19,119,3,3,0,3,0,,,,,0,6,6,29,,,,,,down,0.6669734526949469,2206.0841576761486,None,001,35,2019_Oct_16_1502,ACPT_experiment_5_30_19,3.1.0,59.95386968007985,
,,,C,G,d,b,R,G,d,R,i,,,,,5,19,119,3,3,0,3,0,,,,,0,7,7,5,,,,,,up,0.5670915084665467,2208.0521661015446,None,001,35,2019_Oct_16_1502,ACPT_experiment_5_30_19,3.1.0,59.95386968007985,
,,,C,G,d,b,L,D,d,R,c ,,,,,5,19,119,3,3,0,3,0,,,,,0,8,8,13,,,,,,up,0.6004758453527757,2209.903554984983,None,001,35,2019_Oct_16_1502,ACPT_experiment_5_30_19,3.1.0,59.95386968007985,
,,,C,G,d,b,L,G,y,R,y,,,,,5,19,119,3,3,0,3,0,,,,,0,9,9,35,,,,,,down,0.48368575491622323,2211.7883544667566,None,001,35,2019_Oct_16_1502,ACPT_experiment_5_30_19,3.1.0,59.95386968007985,
,,,C,G,d,b,L,U,y,R,u,,,,,5,19,119,3,3,0,3,0,,,,,0,10,10,25,,,,,,down,0.43032762514121714,2213.5763672328394,None,001,35,2019_Oct_16_1502,ACPT_experiment_5_30_19,3.1.0,59.95386968007985,
,,,C,G,d,b,R,U,d,R,u,,,,,5,19,119,3,3,0,3,0,,,,,0,11,11,9,,,,,,up,0.5003907522259397,2215.291007325737,None,001,35,2019_Oct_16_1502,ACPT_experiment_5_30_19,3.1.0,59.95386968007985,
,,,C,G,d,b,L,G,g,L,c ,,,,,5,19,119,3,3,0,3,0,,,,,0,12,12,18,,,,,,up,0.7672773912163393,2217.075683680563,None,001,35,2019_Oct_16_1502,ACPT_experiment_5_30_19,3.1.0,59.95386968007985,
,,,C,G,d,b,R,G,g,R,c ,,,,,5,19,119,3,3,0,3,0,,,,,0,13,13,7,,,,,,up,0.4837328444082232,2219.1272502966494,None,001,35,2019_Oct_16_1502,ACPT_experiment_5_30_19,3.1.0,59.95386968007985,
,,,C,G,d,b,R,D,y,R,y,,,,,5,19,119,3,3,0,3,0,,,,,0,14,14,27,,,,,,down,0.6001730840689561,2220.9122463166823,None,001,35,2019_Oct_16_1502,ACPT_experiment_5_30_19,3.1.0,59.95386968007985,
,,,C,G,d,b,R,G,d,L,i,,,,,5,19,119,3,3,0,3,0,,,,,0,15,15,4,,,,,,up,0.8006043755194696,2222.796740924179,None,001,35,2019_Oct_16_1502,ACPT_experiment_5_30_19,3.1.0,59.95386968007985,
,,,C,G,d,b,R,D,y,L,y,,,,,5,19,119,3,3,0,3,0,,,,,0,16,16,26,,,,,,down,0.7505672623592545,2224.881665011995,None,001,35,2019_Oct_16_1502,ACPT_experiment_5_30_19,3.1.0,59.95386968007985,
,,,C,G,d,b,L,U,d,R,u,,,,,5,19,119,3,3,0,3,0,,,,,0,17,17,21,,,,,,up,0.5837934872215556,2226.9165236122135,None,001,35,2019_Oct_16_1502,ACPT_experiment_5_30_19,3.1.0,59.95386968007985,
,,,C,G,d,b,L,U,g,L,u,,,,,5,19,119,3,3,0,3,0,,,,,0,18,18,22,,,,,,up,0.8506475257963757,2228.767956566586,None,001,35,2019_Oct_16_1502,ACPT_experiment_5_30_19,3.1.0,59.95386968007985,
,,,C,G,d,b,L,D,g,L,i,,,,,5,19,119,3,3,0,3,0,,,,,0,19,19,14,,,,,,up,0.6171536756519345,2230.8862145813837,None,001,35,2019_Oct_16_1502,ACPT_experiment_5_30_19,3.1.0,59.95386968007985,
,,,C,G,d,b,R,G,y,L,y,,,,,5,19,119,3,3,0,3,0,,,,,0,20,20,28,,,,,,down,0.7005567125015659,2232.7876674431427,None,001,35,2019_Oct_16_1502,ACPT_experiment_5_30_19,3.1.0,59.95386968007985,
,,,C,G,d,b,R,D,d,L,c,,,,,5,19,119,3,3,0,3,0,,,,,0,21,21,0,,,,,,up,0.6504399094301334,2234.7725825054695,None,001,35,2019_Oct_16_1502,ACPT_experiment_5_30_19,3.1.0,59.95386968007985,
,,,C,G,d,b,L,G,d,L,i,,,,,5,19,119,3,3,0,3,0,,,,,0,22,22,16,,,,,,up,0.8172785835449758,2236.707344240185,None,001,35,2019_Oct_16_1502,ACPT_experiment_5_30_19,3.1.0,59.95386968007985,
,,,C,G,d,b,L,U,g,R,u,,,,,5,19,119,3,3,0,3,0,,,,,0,23,23,23,,,,,,up,0.6338239595570485,2238.8089253302533,None,001,35,2019_Oct_16_1502,ACPT_experiment_5_30_19,3.1.0,59.95386968007985,
,,,C,G,d,b,R,U,g,R,u,,,,,5,19,119,3,3,0,3,0,,,,,0,24,24,11,,,,,,up,0.7839500899681298,2240.7103739660306,None,001,35,2019_Oct_16_1502,ACPT_experiment_5_30_19,3.1.0,59.95386968007985,
,,,C,G,d,b,L,G,g,R,c ,,,,,5,19,119,3,3,0,3,0,,,,,0,25,25,19,,,,,,up,0.7839241303772724,2242.7619583916057,None,001,35,2019_Oct_16_1502,ACPT_experiment_5_30_19,3.1.0,59.95386968007985,
,,,C,G,d,b,R,U,y,R,u,,,,,5,19,119,3,3,0,3,0,,,,,0,26,26,31,,,,,,down,0.6171265086377389,2244.8302031398453,None,001,35,2019_Oct_16_1502,ACPT_experiment_5_30_19,3.1.0,59.95386968007985,
,,,C,G,d,b,L,U,y,L,u,,,,,5,19,119,3,3,0,3,0,,,,,0,27,27,24,,,,,,down,0.6838314908563916,2246.731672603666,None,001,35,2019_Oct_16_1502,ACPT_experiment_5_30_19,3.1.0,59.95386968007985,
,,,C,G,d,b,L,D,d,L,c ,,,,,5,19,119,3,3,0,3,0,,,,,0,28,28,12,,,,,,up,0.6171500533819199,2248.6997975453705,None,001,35,2019_Oct_16_1502,ACPT_experiment_5_30_19,3.1.0,59.95386968007985,
,,,C,G,d,b,L,D,g,R,i,,,,,5,19,119,3,3,0,3,0,,,,,0,29,29,15,,,,,,up,0.7005340733230696,2250.5845876696185,None,001,35,2019_Oct_16_1502,ACPT_experiment_5_30_19,3.1.0,59.95386968007985,
,,,C,G,d,b,R,G,g,L,c ,,,,,5,19,119,3,3,0,3,0,,,,,0,30,30,6,,,,,,up,0.6170945119338285,2252.5694625851356,None,001,35,2019_Oct_16_1502,ACPT_experiment_5_30_19,3.1.0,59.95386968007985,
,,,C,G,d,b,R,D,g,L,i,,,,,5,19,119,3,3,0,3,0,,,,,0,31,31,2,,,,,,up,0.8173027320081019,2254.45420501618,None,001,35,2019_Oct_16_1502,ACPT_experiment_5_30_19,3.1.0,59.95386968007985,
,,,C,G,d,b,R,U,d,L,u,,,,,5,19,119,3,3,0,3,0,,,,,0,32,32,8,,,,,,up,0.6004486783385801,2256.5558126695505,None,001,35,2019_Oct_16_1502,ACPT_experiment_5_30_19,3.1.0,59.95386968007985,
,,,C,G,d,b,L,D,y,L,y,,,,,5,19,119,3,3,0,3,0,,,,,0,33,33,32,,,,,,down,0.5337373571492208,2258.4405801546163,None,001,35,2019_Oct_16_1502,ACPT_experiment_5_30_19,3.1.0,59.95386968007985,
,,,C,G,d,b,L,U,d,L,u,,,,,5,19,119,3,3,0,3,0,,,,,0,34,34,20,,,,,,up,0.5670909047585155,2260.258631186949,None,001,35,2019_Oct_16_1502,ACPT_experiment_5_30_19,3.1.0,59.95386968007985,
,,,C,G,d,b,R,U,g,L,u,,,,,5,19,119,3,3,0,3,0,,,,,0,35,35,10,,,,,,up,0.6005015030932555,2262.110019466676,None,001,35,2019_Oct_16_1502,ACPT_experiment_5_30_19,3.1.0,59.95386968007985,
,,,C,G,d,b,R,D,g,R,i,,,,,5,19,119,3,3,0,3,0,,,,,1,0,36,3,,,,,,up,0.6500743621545553,2264.0118792299436,None,001,35,2019_Oct_16_1502,ACPT_experiment_5_30_19,3.1.0,59.95386968007985,
,,,C,G,d,b,R,U,g,L,u,,,,,5,19,119,3,3,0,3,0,,,,,1,1,37,10,,,,,,up,0.600454111743602,2265.9462980565622,None,001,35,2019_Oct_16_1502,ACPT_experiment_5_30_19,3.1.0,59.95386968007985,
,,,C,G,d,b,L,U,d,L,u,,,,,5,19,119,3,3,0,3,0,,,,,1,2,38,20,,,,,,up,0.7172318260963948,2267.831046826577,None,001,35,2019_Oct_16_1502,ACPT_experiment_5_30_19,3.1.0,59.95386968007985,
,,,C,G,d,b,R,U,d,L,u,,,,,5,19,119,3,3,0,3,0,,,,,1,3,39,8,,,,,,down,0.7505569992645178,2269.8326074206416,None,001,35,2019_Oct_16_1502,ACPT_experiment_5_30_19,3.1.0,59.95386968007985,
,,,C,G,d,b,L,D,y,L,y,,,,,5,19,119,3,3,0,3,0,,,,,1,4,40,32,,,,,,down,0.5837669239190291,2271.8674847359107,None,001,35,2019_Oct_16_1502,ACPT_experiment_5_30_19,3.1.0,59.95386968007985,
,,,C,G,d,b,L,U,y,R,u,,,,,5,19,119,3,3,0,3,0,,,,,1,5,41,25,,,,,,down,0.6171026620359044,2273.735576201816,None,001,35,2019_Oct_16_1502,ACPT_experiment_5_30_19,3.1.0,59.95386968007985,
,,,C,G,d,b,L,G,d,L,i,,,,,5,19,119,3,3,0,3,0,,,,,1,6,42,16,,,,,,up,0.5837642072146991,2275.6370257431627,None,001,35,2019_Oct_16_1502,ACPT_experiment_5_30_19,3.1.0,59.95386968007985,
,,,C,G,d,b,L,G,g,L,c ,,,,,5,19,119,3,3,0,3,0,,,,,1,7,43,18,,,,,,up,0.6168596681818599,2277.505382238389,None,001,35,2019_Oct_16_1502,ACPT_experiment_5_30_19,3.1.0,59.95386968007985,
,,,C,G,d,b,L,U,d,R,u,,,,,5,19,119,3,3,0,3,0,,,,,1,8,44,21,,,,,,up,0.9674228253024921,2279.4065416963895,None,001,35,2019_Oct_16_1502,ACPT_experiment_5_30_19,3.1.0,59.95386968007985,
,,,C,G,d,b,L,D,g,L,i,,,,,5,19,119,3,3,0,3,0,,,,,1,9,45,14,,,,,,up,0.6838511114765424,2281.6582806117185,None,001,35,2019_Oct_16_1502,ACPT_experiment_5_30_19,3.1.0,59.95386968007985,
,,,C,G,d,b,R,G,d,L,i,,,,,5,19,119,3,3,0,3,0,,,,,1,10,46,4,,,,,,up,0.8506408849680156,2283.6264466057983,None,001,35,2019_Oct_16_1502,ACPT_experiment_5_30_19,3.1.0,59.95386968007985,
,,,C,G,d,b,R,G,y,R,y,,,,,5,19,119,3,3,0,3,0,,,,,1,11,47,29,,,,,,down,0.8506487332160759,2285.7447272597747,None,001,35,2019_Oct_16_1502,ACPT_experiment_5_30_19,3.1.0,59.95386968007985,
,,,C,G,d,b,L,D,d,R,c ,,,,,5,19,119,3,3,0,3,0,,,,,1,12,48,13,,,,,,down,0.8173253711865982,2287.8796631048717,None,001,35,2019_Oct_16_1502,ACPT_experiment_5_30_19,3.1.0,59.95386968007985,
,,,C,G,d,b,L,D,g,R,i,,,,,5,19,119,3,3,0,3,0,,,,,1,13,49,15,,,,,,up,0.6669782823846617,2289.9982084863113,None,001,35,2019_Oct_16_1502,ACPT_experiment_5_30_19,3.1.0,59.95386968007985,
,,,C,G,d,b,L,G,y,R,y,,,,,5,19,119,3,3,0,3,0,,,,,1,14,50,35,,,,,,down,0.783921715530596,2291.966134806953,None,001,35,2019_Oct_16_1502,ACPT_experiment_5_30_19,3.1.0,59.95386968007985,
,,,C,G,d,b,L,U,g,L,u,,,,,5,19,119,3,3,0,3,0,,,,,1,15,51,22,,,,,,up,0.5837533404082933,2294.051067346729,None,001,35,2019_Oct_16_1502,ACPT_experiment_5_30_19,3.1.0,59.95386968007985,
,,,C,G,d,b,R,U,y,L,u,,,,,5,19,119,3,3,0,3,0,,,,,1,16,52,30,,,,,,down,0.7672647132785642,2295.9191515680977,None,001,35,2019_Oct_16_1502,ACPT_experiment_5_30_19,3.1.0,59.95386968007985,
,,,C,G,d,b,L,G,d,R,i,,,,,5,19,119,3,3,0,3,0,,,,,1,17,53,17,,,,,,up,0.7339165990779293,2297.970684980053,None,001,35,2019_Oct_16_1502,ACPT_experiment_5_30_19,3.1.0,59.95386968007985,
,,,C,G,d,b,R,U,d,R,u,,,,,5,19,119,3,3,0,3,0,,,,,1,18,54,9,,,,,,up,0.6171307346157846,2299.9889203858584,None,001,35,2019_Oct_16_1502,ACPT_experiment_5_30_19,3.1.0,59.95386968007985,
,,,C,G,d,b,L,D,d,L,c ,,,,,5,19,119,3,3,0,3,0,,,,,1,19,55,12,,,,,,up,0.6171551849292882,2301.8736655336033,None,001,35,2019_Oct_16_1502,ACPT_experiment_5_30_19,3.1.0,59.95386968007985,
,,,C,G,d,b,R,D,y,L,y,,,,,5,19,119,3,3,0,3,0,,,,,1,20,56,26,,,,,,down,0.6671536605572328,2303.775142543818,None,001,35,2019_Oct_16_1502,ACPT_experiment_5_30_19,3.1.0,59.95386968007985,
,,,C,G,d,b,R,D,d,L,c,,,,,5,19,119,3,3,0,3,0,,,,,1,21,57,0,,,,,,up,0.733888526494411,2305.726621651931,None,001,35,2019_Oct_16_1502,ACPT_experiment_5_30_19,3.1.0,59.95386968007985,
,,,C,G,d,b,R,G,y,L,y,,,,,5,19,119,3,3,0,3,0,,,,,1,22,58,28,,,,,,down,0.6505093362466141,2307.7448078552516,None,001,35,2019_Oct_16_1502,ACPT_experiment_5_30_19,3.1.0,59.95386968007985,
,,,C,G,d,b,R,D,g,L,i,,,,,5,19,119,3,3,0,3,0,,,,,1,23,59,2,,,,,,up,1.2342705249066057,2309.679638413072,None,001,35,2019_Oct_16_1502,ACPT_experiment_5_30_19,3.1.0,59.95386968007985,
,,,C,G,d,b,L,U,y,L,u,,,,,5,19,119,3,3,0,3,0,,,,,1,24,60,24,,,,,,down,0.733876452268305,2312.214908291706,None,001,35,2019_Oct_16_1502,ACPT_experiment_5_30_19,3.1.0,59.95386968007985,
,,,C,G,d,b,R,G,g,L,c ,,,,,5,19,119,3,3,0,3,0,,,,,1,25,61,6,,,,,,up,0.6671587921082391,2314.2497958700733,None,001,35,2019_Oct_16_1502,ACPT_experiment_5_30_19,3.1.0,59.95386968007985,
,,,C,G,d,b,R,U,y,R,u,,,,,5,19,119,3,3,0,3,0,,,,,1,26,62,31,,,,,,down,0.6004719212323835,2316.201277694887,None,001,35,2019_Oct_16_1502,ACPT_experiment_5_30_19,3.1.0,59.95386968007985,
,,,C,G,d,b,R,D,d,R,c ,,,,,5,19,119,3,3,0,3,0,,,,,1,27,63,1,,,,,,up,0.9673959601459501,2318.0860488022226,None,001,35,2019_Oct_16_1502,ACPT_experiment_5_30_19,3.1.0,59.95386968007985,
,,,C,G,d,b,R,U,g,R,u,,,,,5,19,119,3,3,0,3,0,,,,,1,28,64,11,,,,,,up,0.8006016588151397,2320.337765078373,None,001,35,2019_Oct_16_1502,ACPT_experiment_5_30_19,3.1.0,59.95386968007985,
,,,C,G,d,b,R,G,d,R,i,,,,,5,19,119,3,3,0,3,0,,,,,1,29,65,5,,,,,,down,0.6338315059510933,2322.4226626028867,None,001,35,2019_Oct_16_1502,ACPT_experiment_5_30_19,3.1.0,59.95386968007985,
,,,C,G,d,b,R,G,g,R,c ,,,,,5,19,119,3,3,0,3,0,,,,,1,30,66,7,,,,,,up,0.5170495656129788,2324.3408165378314,None,001,35,2019_Oct_16_1502,ACPT_experiment_5_30_19,3.1.0,59.95386968007985,
,,,C,G,d,b,L,U,g,R,u,,,,,5,19,119,3,3,0,3,0,,,,,1,31,67,23,,,,,,up,0.6338393541955156,2326.142186117595,None,001,35,2019_Oct_16_1502,ACPT_experiment_5_30_19,3.1.0,59.95386968007985,
,,,C,G,d,b,R,D,y,R,y,,,,,5,19,119,3,3,0,3,0,,,,,1,32,68,27,,,,,,down,0.667169658911007,2328.06031560223,None,001,35,2019_Oct_16_1502,ACPT_experiment_5_30_19,3.1.0,59.95386968007985,
,,,C,G,d,b,L,G,g,R,c ,,,,,5,19,119,3,3,0,3,0,,,,,1,33,69,19,,,,,,up,0.5668418737877801,2330.0287345514043,None,001,35,2019_Oct_16_1502,ACPT_experiment_5_30_19,3.1.0,59.95386968007985,
,,,C,G,d,b,L,D,y,R,y,,,,,5,19,119,3,3,0,3,0,,,,,1,34,70,33,,,,,,down,0.5670942251672386,2331.87989432635,None,001,35,2019_Oct_16_1502,ACPT_experiment_5_30_19,3.1.0,59.95386968007985,
,,,C,G,d,b,L,G,y,L,y,,,,,5,19,119,3,3,0,3,0,,,,,1,35,71,34,,,,,,down,0.8172640944721934,2333.748004205456,None,001,35,2019_Oct_16_1502,ACPT_experiment_5_30_19,3.1.0,59.95386968007985,
,,,C,G,d,b,,,,,,,,,,5,19,119,3,4,0,4,0,0,0,0,0,,,,,,,,,,,,,,001,35,2019_Oct_16_1502,ACPT_experiment_5_30_19,3.1.0,59.95386968007985,
,,,C,G,d,b,R,G,d,L,i,,,,,5,19,119,3,4,0,4,0,,,,,0,0,0,4,,,,,,up,0.6169945976871531,2348.7761250841795,None,001,35,2019_Oct_16_1502,ACPT_experiment_5_30_19,3.1.0,59.95386968007985,
,,,C,G,d,b,L,U,y,R,u,,,,,5,19,119,3,4,0,4,0,,,,,0,1,1,25,,,,,,down,0.6004550173092866,2350.6775616457307,None,001,35,2019_Oct_16_1502,ACPT_experiment_5_30_19,3.1.0,59.95386968007985,
,,,C,G,d,b,R,G,d,R,i,,,,,5,19,119,3,4,0,4,0,,,,,0,2,2,5,,,,,,up,0.5004272767691873,2352.5623297345082,None,001,35,2019_Oct_16_1502,ACPT_experiment_5_30_19,3.1.0,59.95386968007985,
,,,C,G,d,b,L,D,y,L,y,,,,,5,19,119,3,4,0,4,0,,,,,0,3,3,32,,,,,,down,0.6838462817868276,2354.347021785834,None,001,35,2019_Oct_16_1502,ACPT_experiment_5_30_19,3.1.0,59.95386968007985,
,,,C,G,d,b,R,D,g,R,i,,,,,5,19,119,3,4,0,4,0,,,,,0,4,4,3,,,,,,up,0.40005059101895313,2356.332114339326,None,001,35,2019_Oct_16_1502,ACPT_experiment_5_30_19,3.1.0,59.95386968007985,
,,,C,G,d,b,R,D,y,L,y,,,,,5,19,119,3,4,0,4,0,,,,,0,5,5,26,,,,,,down,0.6338348263598164,2357.999783871306,None,001,35,2019_Oct_16_1502,ACPT_experiment_5_30_19,3.1.0,59.95386968007985,
,,,C,G,d,b,L,G,d,R,i,,,,,5,19,119,3,4,0,4,0,,,,,0,6,6,17,,,,,,up,0.6004568284442939,2359.917935391408,None,001,35,2019_Oct_16_1502,ACPT_experiment_5_30_19,3.1.0,59.95386968007985,
,,,C,G,d,b,R,D,g,L,i,,,,,5,19,119,3,4,0,4,0,,,,,0,7,7,2,,,,,,up,0.5671041864079598,2361.802709819156,None,001,35,2019_Oct_16_1502,ACPT_experiment_5_30_19,3.1.0,59.95386968007985,
,,,C,G,d,b,L,D,d,L,c ,,,,,5,19,119,3,4,0,4,0,,,,,0,8,8,12,,,,,,down,0.6504755284040584,2363.670817283415,None,001,35,2019_Oct_16_1502,ACPT_experiment_5_30_19,3.1.0,59.95386968007985,
,,,C,G,d,b,R,U,g,L,u,,,,,5,19,119,3,4,0,4,0,,,,,0,9,9,10,,,,,,up,0.7172100924835831,2365.6056034684443,None,001,35,2019_Oct_16_1502,ACPT_experiment_5_30_19,3.1.0,59.95386968007985,
,,,C,G,d,b,R,U,y,R,u,,,,,5,19,119,3,4,0,4,0,,,,,0,10,10,31,,,,,,down,0.9674439552036347,2367.590429785192,None,001,35,2019_Oct_16_1502,ACPT_experiment_5_30_19,3.1.0,59.95386968007985,
,,,C,G,d,b,L,U,y,L,u,,,,,5,19,119,3,4,0,4,0,,,,,0,11,11,24,,,,,,down,0.667193203658826,2369.8421445520653,None,001,35,2019_Oct_16_1502,ACPT_experiment_5_30_19,3.1.0,59.95386968007985,
,,,C,G,d,b,R,U,d,R,u,,,,,5,19,119,3,4,0,4,0,,,,,0,12,12,9,,,,,,up,0.6171228863677243,2371.7936562605937,None,001,35,2019_Oct_16_1502,ACPT_experiment_5_30_19,3.1.0,59.95386968007985,
,,,C,G,d,b,R,G,g,L,c ,,,,,5,19,119,3,4,0,4,0,,,,,0,13,13,6,,,,,,up,0.7005250176516711,2373.6951079149294,None,001,35,2019_Oct_16_1502,ACPT_experiment_5_30_19,3.1.0,59.95386968007985,
,,,C,G,d,b,L,U,g,L,u,,,,,5,19,119,3,4,0,4,0,,,,,0,14,14,22,,,,,,up,0.5504094521893421,2375.6799547578667,None,001,35,2019_Oct_16_1502,ACPT_experiment_5_30_19,3.1.0,59.95386968007985,
,,,C,G,d,b,R,D,d,R,c ,,,,,5,19,119,3,4,0,4,0,,,,,0,15,15,1,,,,,,down,0.6671633199439384,2377.5146881483306,None,001,35,2019_Oct_16_1502,ACPT_experiment_5_30_19,3.1.0,59.95386968007985,
,,,C,G,d,b,R,G,g,R,c ,,,,,5,19,119,3,4,0,4,0,,,,,0,16,16,7,,,,,,up,0.7005437327061372,2379.466152163659,None,001,35,2019_Oct_16_1502,ACPT_experiment_5_30_19,3.1.0,59.95386968007985,
,,,C,G,d,b,L,U,d,R,u,,,,,5,19,119,3,4,0,4,0,,,,,0,17,17,21,,,,,,up,0.767275580081332,2381.4509956861802,None,001,35,2019_Oct_16_1502,ACPT_experiment_5_30_19,3.1.0,59.95386968007985,
,,,C,G,d,b,R,U,g,R,u,,,,,5,19,119,3,4,0,4,0,,,,,0,18,18,11,,,,,,up,0.7338876209250884,2383.502584639591,None,001,35,2019_Oct_16_1502,ACPT_experiment_5_30_19,3.1.0,59.95386968007985,
,,,C,G,d,b,L,U,g,R,u,,,,,5,19,119,3,4,0,4,0,,,,,0,19,19,23,,,,,,up,0.5170326616935199,2385.520804952608,None,001,35,2019_Oct_16_1502,ACPT_experiment_5_30_19,3.1.0,59.95386968007985,
,,,C,G,d,b,L,D,g,R,i,,,,,5,19,119,3,4,0,4,0,,,,,0,20,20,15,,,,,,up,0.5170782419081661,2387.3054997206345,None,001,35,2019_Oct_16_1502,ACPT_experiment_5_30_19,3.1.0,59.95386968007985,
,,,C,G,d,b,R,G,y,L,y,,,,,5,19,119,3,4,0,4,0,,,,,0,21,21,28,,,,,,down,0.7336760200669232,2389.1403861519466,None,001,35,2019_Oct_16_1502,ACPT_experiment_5_30_19,3.1.0,59.95386968007985,
,,,C,G,d,b,L,G,d,L,i,,,,,5,19,119,3,4,0,4,0,,,,,0,22,22,16,,,,,,down,0.7005259232173557,2391.1917825214077,None,001,35,2019_Oct_16_1502,ACPT_experiment_5_30_19,3.1.0,59.95386968007985,
,,,C,G,d,b,R,D,d,L,c,,,,,5,19,119,3,4,0,4,0,,,,,0,23,23,0,,,,,,up,0.683851413330558,2393.176625440221,None,001,35,2019_Oct_16_1502,ACPT_experiment_5_30_19,3.1.0,59.95386968007985,
,,,C,G,d,b,L,D,g,L,i,,,,,5,19,119,3,4,0,4,0,,,,,0,24,24,14,,,,,,up,0.7172119036222284,2395.144790830589,None,001,35,2019_Oct_16_1502,ACPT_experiment_5_30_19,3.1.0,59.95386968007985,
,,,C,G,d,b,L,D,d,R,c ,,,,,5,19,119,3,4,0,4,0,,,,,0,25,25,13,,,,,,up,0.6001821397403546,2397.1465901925294,None,001,35,2019_Oct_16_1502,ACPT_experiment_5_30_19,3.1.0,59.95386968007985,
,,,C,G,d,b,L,G,y,R,y,,,,,5,19,119,3,4,0,4,0,,,,,0,26,26,35,,,,,,down,0.5837907705208636,2399.0477475375374,None,001,35,2019_Oct_16_1502,ACPT_experiment_5_30_19,3.1.0,59.95386968007985,
,,,C,G,d,b,L,D,y,R,y,,,,,5,19,119,3,4,0,4,0,,,,,0,27,27,33,,,,,,down,0.6671596976739238,2400.9158592277745,None,001,35,2019_Oct_16_1502,ACPT_experiment_5_30_19,3.1.0,59.95386968007985,
,,,C,G,d,b,L,U,d,L,u,,,,,5,19,119,3,4,0,4,0,,,,,0,28,28,20,,,,,,down,0.8172828095302975,2402.9007066744234,None,001,35,2019_Oct_16_1502,ACPT_experiment_5_30_19,3.1.0,59.95386968007985,
,,,C,G,d,b,L,G,g,L,c ,,,,,5,19,119,3,4,0,4,0,,,,,0,29,29,18,,,,,,up,0.8673184134095209,2405.0023094981043,None,001,35,2019_Oct_16_1502,ACPT_experiment_5_30_19,3.1.0,59.95386968007985,
,,,C,G,d,b,R,D,y,R,y,,,,,5,19,119,3,4,0,4,0,,,,,0,30,30,27,,,,,,down,0.6504854896447796,2407.153950340511,None,001,35,2019_Oct_16_1502,ACPT_experiment_5_30_19,3.1.0,59.95386968007985,
,,,C,G,d,b,R,U,d,L,u,,,,,5,19,119,3,4,0,4,0,,,,,0,31,31,8,,,,,,down,0.6838405465277901,2409.0887600702845,None,001,35,2019_Oct_16_1502,ACPT_experiment_5_30_19,3.1.0,59.95386968007985,
,,,C,G,d,b,L,G,y,L,y,,,,,5,19,119,3,4,0,4,0,,,,,0,32,32,34,,,,,,down,0.7839274507896334,2411.056922140244,None,001,35,2019_Oct_16_1502,ACPT_experiment_5_30_19,3.1.0,59.95386968007985,
,,,C,G,d,b,R,U,y,L,u,,,,,5,19,119,3,4,0,4,0,,,,,0,33,33,30,,,,,,down,0.600427246583422,2413.1418519633153,None,001,35,2019_Oct_16_1502,ACPT_experiment_5_30_19,3.1.0,59.95386968007985,
,,,C,G,d,b,L,G,g,R,c ,,,,,5,19,119,3,4,0,4,0,,,,,0,34,34,19,,,,,,up,0.5671099216633593,2415.0432734320784,None,001,35,2019_Oct_16_1502,ACPT_experiment_5_30_19,3.1.0,59.95386968007985,
,,,C,G,d,b,R,G,y,R,y,,,,,5,19,119,3,4,0,4,0,,,,,0,35,35,29,,,,,,down,0.600211419747211,2416.9116296254506,None,001,35,2019_Oct_16_1502,ACPT_experiment_5_30_19,3.1.0,59.95386968007985,
,,,C,G,d,b,R,U,y,R,u,,,,,5,19,119,3,4,0,4,0,,,,,1,0,36,31,,,,,,down,0.4836969235766446,2418.779479606779,None,001,35,2019_Oct_16_1502,ACPT_experiment_5_30_19,3.1.0,59.95386968007985,
,,,C,G,d,b,L,D,g,L,i,,,,,5,19,119,3,4,0,4,0,,,,,1,1,37,14,,,,,,up,0.6838716376660159,2420.547467264503,None,001,35,2019_Oct_16_1502,ACPT_experiment_5_30_19,3.1.0,59.95386968007985,
,,,C,G,d,b,L,D,d,L,c ,,,,,5,19,119,3,4,0,4,0,,,,,1,2,38,12,,,,,,up,0.5838170319693745,2422.498957843134,None,001,35,2019_Oct_16_1502,ACPT_experiment_5_30_19,3.1.0,59.95386968007985,
,,,C,G,d,b,L,U,d,L,u,,,,,5,19,119,3,4,0,4,0,,,,,1,3,39,20,,,,,,up,0.6166909308340109,2424.3841612078577,None,001,35,2019_Oct_16_1502,ACPT_experiment_5_30_19,3.1.0,59.95386968007985,
,,,C,G,d,b,R,D,d,L,c,,,,,5,19,119,3,4,0,4,0,,,,,1,4,40,0,,,,,,up,0.4670148672994401,2426.2852005272835,None,001,35,2019_Oct_16_1502,ACPT_experiment_5_30_19,3.1.0,59.95386968007985,
,,,C,G,d,b,R,G,y,L,y,,,,,5,19,119,3,4,0,4,0,,,,,1,5,41,28,,,,,,down,0.5337343385945132,2428.036532390175,None,001,35,2019_Oct_16_1502,ACPT_experiment_5_30_19,3.1.0,59.95386968007985,
,,,C,G,d,b,L,G,d,L,i,,,,,5,19,119,3,4,0,4,0,,,,,1,6,42,16,,,,,,up,0.7337711046166078,2429.854587346632,None,001,35,2019_Oct_16_1502,ACPT_experiment_5_30_19,3.1.0,59.95386968007985,
,,,C,G,d,b,L,G,y,R,y,,,,,5,19,119,3,4,0,4,0,,,,,1,7,43,35,,,,,,down,0.5671165624880814,2431.856088173263,None,001,35,2019_Oct_16_1502,ACPT_experiment_5_30_19,3.1.0,59.95386968007985,
,,,C,G,d,b,L,U,d,R,u,,,,,5,19,119,3,4,0,4,0,,,,,1,8,44,21,,,,,,down,0.633770531094342,2433.7075594633134,None,001,35,2019_Oct_16_1502,ACPT_experiment_5_30_19,3.1.0,59.95386968007985,
,,,C,G,d,b,R,G,d,L,i,,,,,5,19,119,3,4,0,4,0,,,,,1,9,45,4,,,,,,down,0.550390737134876,2435.6256693273244,None,001,35,2019_Oct_16_1502,ACPT_experiment_5_30_19,3.1.0,59.95386968007985,
,,,C,G,d,b,L,D,y,L,y,,,,,5,19,119,3,4,0,4,0,,,,,1,10,46,32,,,,,,down,0.7338492852504714,2437.4770883963356,None,001,35,2019_Oct_16_1502,ACPT_experiment_5_30_19,3.1.0,59.95386968007985,
,,,C,G,d,b,R,D,y,R,y,,,,,5,19,119,3,4,0,4,0,,,,,1,11,47,27,,,,,,down,0.7005204898159718,2439.5119503169662,None,001,35,2019_Oct_16_1502,ACPT_experiment_5_30_19,3.1.0,59.95386968007985,
,,,C,G,d,b,L,U,g,R,u,,,,,5,19,119,3,4,0,4,0,,,,,1,12,48,23,,,,,,up,0.6838411502394592,2441.5134801217464,None,001,35,2019_Oct_16_1502,ACPT_experiment_5_30_19,3.1.0,59.95386968007985,
,,,C,G,d,b,R,D,d,R,c ,,,,,5,19,119,3,4,0,4,0,,,,,1,13,49,1,,,,,,up,0.5837626979373454,2443.481646719538,None,001,35,2019_Oct_16_1502,ACPT_experiment_5_30_19,3.1.0,59.95386968007985,
,,,C,G,d,b,L,G,y,L,y,,,,,5,19,119,3,4,0,4,0,,,,,1,14,50,34,,,,,,down,0.8673470897047082,2445.3497083017282,None,001,35,2019_Oct_16_1502,ACPT_experiment_5_30_19,3.1.0,59.95386968007985,
,,,C,G,d,b,L,G,g,R,c ,,,,,5,19,119,3,4,0,4,0,,,,,1,15,51,19,,,,,,up,0.7172085832062294,2447.4846948585837,None,001,35,2019_Oct_16_1502,ACPT_experiment_5_30_19,3.1.0,59.95386968007985,
,,,C,G,d,b,R,G,y,R,y,,,,,5,19,119,3,4,0,4,0,,,,,1,16,52,29,,,,,,down,0.7171916792867705,2449.486232209758,None,001,35,2019_Oct_16_1502,ACPT_experiment_5_30_19,3.1.0,59.95386968007985,
,,,C,G,d,b,L,U,g,L,u,,,,,5,19,119,3,4,0,4,0,,,,,1,17,53,22,,,,,,up,0.6672049760309164,2451.4877212640167,None,001,35,2019_Oct_16_1502,ACPT_experiment_5_30_19,3.1.0,59.95386968007985,
,,,C,G,d,b,R,G,g,L,c ,,,,,5,19,119,3,4,0,4,0,,,,,1,18,54,6,,,,,,up,0.6671747904583754,2453.439230859556,None,001,35,2019_Oct_16_1502,ACPT_experiment_5_30_19,3.1.0,59.95386968007985,
,,,C,G,d,b,R,U,y,L,u,,,,,5,19,119,3,4,0,4,0,,,,,1,19,55,30,,,,,,down,0.7005352807427698,2455.3907199289097,None,001,35,2019_Oct_16_1502,ACPT_experiment_5_30_19,3.1.0,59.95386968007985,
,,,C,G,d,b,R,U,g,L,u,,,,,5,19,119,3,4,0,4,0,,,,,1,20,56,10,,,,,,up,0.7338897339177493,2457.358887432267,None,001,35,2019_Oct_16_1502,ACPT_experiment_5_30_19,3.1.0,59.95386968007985,
,,,C,G,d,b,R,U,g,R,u,,,,,5,19,119,3,4,0,4,0,,,,,1,21,57,11,,,,,,up,0.6338954993625521,2459.3603924848794,None,001,35,2019_Oct_16_1502,ACPT_experiment_5_30_19,3.1.0,59.95386968007985,
,,,C,G,d,b,R,U,d,L,u,,,,,5,19,119,3,4,0,4,0,,,,,1,22,58,8,,,,,,up,0.93405267563503,2461.2618447429268,None,001,35,2019_Oct_16_1502,ACPT_experiment_5_30_19,3.1.0,59.95386968007985,
,,,C,G,d,b,R,G,g,R,c ,,,,,5,19,119,3,4,0,4,0,,,,,1,23,59,7,,,,,,up,0.5671002622802916,2463.480219847559,None,001,35,2019_Oct_16_1502,ACPT_experiment_5_30_19,3.1.0,59.95386968007985,
,,,C,G,d,b,R,U,d,R,u,,,,,5,19,119,3,4,0,4,0,,,,,1,24,60,9,,,,,,up,0.4670293563758605,2465.3316135606874,None,001,35,2019_Oct_16_1502,ACPT_experiment_5_30_19,3.1.0,59.95386968007985,
,,,C,G,d,b,L,G,g,L,c ,,,,,5,19,119,3,4,0,4,0,,,,,1,25,61,18,,,,,,up,0.6004417356562044,2467.082968364615,None,001,35,2019_Oct_16_1502,ACPT_experiment_5_30_19,3.1.0,59.95386968007985,
,,,C,G,d,b,L,U,y,R,u,,,,,5,19,119,3,4,0,4,0,,,,,1,26,62,25,,,,,,down,0.6338106779039663,2468.9677358496847,None,001,35,2019_Oct_16_1502,ACPT_experiment_5_30_19,3.1.0,59.95386968007985,
,,,C,G,d,b,R,D,y,L,y,,,,,5,19,119,3,4,0,4,0,,,,,1,27,63,26,,,,,,down,0.7336349676879763,2470.9027976289835,None,001,35,2019_Oct_16_1502,ACPT_experiment_5_30_19,3.1.0,59.95386968007985,
,,,C,G,d,b,R,G,d,R,i,,,,,5,19,119,3,4,0,4,0,,,,,1,28,64,5,,,,,,down,0.7172233741403033,2472.920728160512,None,001,35,2019_Oct_16_1502,ACPT_experiment_5_30_19,3.1.0,59.95386968007985,
,,,C,G,d,b,L,D,d,R,c ,,,,,5,19,119,3,4,0,4,0,,,,,1,29,65,13,,,,,,up,0.567087886196532,2474.922274265504,None,001,35,2019_Oct_16_1502,ACPT_experiment_5_30_19,3.1.0,59.95386968007985,
,,,C,G,d,b,R,D,g,R,i,,,,,5,19,119,3,4,0,4,0,,,,,1,30,66,3,,,,,,up,0.6338127908929891,2476.7736866936866,None,001,35,2019_Oct_16_1502,ACPT_experiment_5_30_19,3.1.0,59.95386968007985,
,,,C,G,d,b,R,D,g,L,i,,,,,5,19,119,3,4,0,4,0,,,,,1,31,67,2,,,,,,up,0.6168617811708828,2478.692085735478,None,001,35,2019_Oct_16_1502,ACPT_experiment_5_30_19,3.1.0,59.95386968007985,
,,,C,G,d,b,L,U,y,L,u,,,,,5,19,119,3,4,0,4,0,,,,,1,32,68,24,,,,,,down,0.7339096563955536,2480.593248513891,None,001,35,2019_Oct_16_1502,ACPT_experiment_5_30_19,3.1.0,59.95386968007985,
,,,C,G,d,b,L,D,g,R,i,,,,,5,19,119,3,4,0,4,0,,,,,1,33,69,15,,,,,,up,0.6838544318889035,2482.611468525054,None,001,35,2019_Oct_16_1502,ACPT_experiment_5_30_19,3.1.0,59.95386968007985,
,,,C,G,d,b,L,D,y,R,y,,,,,5,19,119,3,4,0,4,0,,,,,1,34,70,33,,,,,,down,0.767269542971917,2484.5629367663605,None,001,35,2019_Oct_16_1502,ACPT_experiment_5_30_19,3.1.0,59.95386968007985,
,,,C,G,d,b,L,G,d,R,i,,,,,5,19,119,3,4,0,4,0,,,,,1,35,71,17,,,,,,up,0.6338312040934397,2486.614500062031,None,001,35,2019_Oct_16_1502,ACPT_experiment_5_30_19,3.1.0,59.95386968007985,
,,,C,G,d,b,,,,,,,,,,5,19,119,3,5,0,5,0,0,0,0,0,,,,,,,,,,,,,,001,35,2019_Oct_16_1502,ACPT_experiment_5_30_19,3.1.0,59.95386968007985,
,,,C,G,d,b,L,G,y,R,y,,,,,5,19,119,3,5,0,5,0,,,,,0,0,0,35,,,,,,down,0.6471623600409657,2518.108528601282,None,001,35,2019_Oct_16_1502,ACPT_experiment_5_30_19,3.1.0,59.95386968007985,
,,,C,G,d,b,R,U,g,L,u,,,,,5,19,119,3,5,0,5,0,,,,,0,1,1,10,,,,,,up,0.7172085832062294,2520.0400034290833,None,001,35,2019_Oct_16_1502,ACPT_experiment_5_30_19,3.1.0,59.95386968007985,
,,,C,G,d,b,L,U,y,R,u,,,,,5,19,119,3,5,0,5,0,,,,,0,2,2,25,,,,,,down,0.5337337348792062,2522.041529913451,None,001,35,2019_Oct_16_1502,ACPT_experiment_5_30_19,3.1.0,59.95386968007985,
,,,C,G,d,b,R,U,y,L,u,,,,,5,19,119,3,5,0,5,0,,,,,0,3,3,30,,,,,,down,0.7505569992645178,2523.8762599835027,None,001,35,2019_Oct_16_1502,ACPT_experiment_5_30_19,3.1.0,59.95386968007985,
,,,C,G,d,b,L,G,d,R,i,,,,,5,19,119,3,5,0,5,0,,,,,0,4,4,17,,,,,,up,0.533733131171175,2525.9278296181437,None,001,35,2019_Oct_16_1502,ACPT_experiment_5_30_19,3.1.0,59.95386968007985,
,,,C,G,d,b,L,D,g,L,i,,,,,5,19,119,3,5,0,5,0,,,,,0,5,5,14,,,,,,up,0.7171956034108007,2527.7458827634655,None,001,35,2019_Oct_16_1502,ACPT_experiment_5_30_19,3.1.0,59.95386968007985,
,,,C,G,d,b,L,G,g,L,c ,,,,,5,19,119,3,5,0,5,0,,,,,0,6,6,18,,,,,,up,0.650485187790764,2529.747403814432,None,001,35,2019_Oct_16_1502,ACPT_experiment_5_30_19,3.1.0,59.95386968007985,
,,,C,G,d,b,R,G,d,R,i,,,,,5,19,119,3,5,0,5,0,,,,,0,7,7,5,,,,,,up,0.5837500199995702,2531.682227731424,None,001,35,2019_Oct_16_1502,ACPT_experiment_5_30_19,3.1.0,59.95386968007985,
,,,C,G,d,b,R,U,d,L,u,,,,,5,19,119,3,5,0,5,0,,,,,0,8,8,8,,,,,,up,0.7672466019357671,2533.550304406399,None,001,35,2019_Oct_16_1502,ACPT_experiment_5_30_19,3.1.0,59.95386968007985,
,,,C,G,d,b,L,D,y,L,y,,,,,5,19,119,3,5,0,5,0,,,,,0,9,9,32,,,,,,down,0.6671735830386751,2535.601863777949,None,001,35,2019_Oct_16_1502,ACPT_experiment_5_30_19,3.1.0,59.95386968007985,
,,,C,G,d,b,R,D,g,R,i,,,,,5,19,119,3,5,0,5,0,,,,,0,10,10,3,,,,,,up,0.7839244322312879,2537.553359789981,None,001,35,2019_Oct_16_1502,ACPT_experiment_5_30_19,3.1.0,59.95386968007985,
,,,C,G,d,b,L,G,y,L,y,,,,,5,19,119,3,5,0,5,0,,,,,0,11,11,34,,,,,,down,0.6171446199805359,2539.6215991048193,None,001,35,2019_Oct_16_1502,ACPT_experiment_5_30_19,3.1.0,59.95386968007985,
,,,C,G,d,b,L,U,y,L,u,,,,,5,19,119,3,5,0,5,0,,,,,0,12,12,24,,,,,,down,0.717218242589297,2541.539730098728,None,001,35,2019_Oct_16_1502,ACPT_experiment_5_30_19,3.1.0,59.95386968007985,
,,,C,G,d,b,R,D,y,L,y,,,,,5,19,119,3,5,0,5,0,,,,,0,13,13,26,,,,,,down,0.5837675276270602,2543.5579353189605,None,001,35,2019_Oct_16_1502,ACPT_experiment_5_30_19,3.1.0,59.95386968007985,
,,,C,G,d,b,R,G,g,L,c ,,,,,5,19,119,3,5,0,5,0,,,,,0,14,14,6,,,,,,up,0.5837738665977668,2545.426021049607,None,001,35,2019_Oct_16_1502,ACPT_experiment_5_30_19,3.1.0,59.95386968007985,
,,,C,G,d,b,R,U,y,R,u,,,,,5,19,119,3,5,0,5,0,,,,,0,15,15,31,,,,,,down,0.6671551698382245,2547.2941197600485,None,001,35,2019_Oct_16_1502,ACPT_experiment_5_30_19,3.1.0,59.95386968007985,
,,,C,G,d,b,R,G,y,L,y,,,,,5,19,119,3,5,0,5,0,,,,,0,16,16,28,,,,,,down,0.9140287746995455,2549.2656106948707,None,001,35,2019_Oct_16_1502,ACPT_experiment_5_30_19,3.1.0,59.95386968007985,
,,,C,G,d,b,R,D,y,R,y,,,,,5,19,119,3,5,0,5,0,,,,,0,17,17,27,,,,,,down,0.5003801872771874,2551.463957672586,None,001,35,2019_Oct_16_1502,ACPT_experiment_5_30_19,3.1.0,59.95386968007985,
,,,C,G,d,b,L,U,g,L,u,,,,,5,19,119,3,5,0,5,0,,,,,0,18,18,22,,,,,,up,0.7338827912353736,2553.2486563647362,None,001,35,2019_Oct_16_1502,ACPT_experiment_5_30_19,3.1.0,59.95386968007985,
,,,C,G,d,b,R,G,d,L,i,,,,,5,19,119,3,5,0,5,0,,,,,0,19,19,4,,,,,,up,0.6838716376660159,2555.2668422662027,None,001,35,2019_Oct_16_1502,ACPT_experiment_5_30_19,3.1.0,59.95386968007985,
,,,C,G,d,b,R,D,d,R,c ,,,,,5,19,119,3,5,0,5,0,,,,,0,20,20,1,,,,,,down,0.717203451662499,2557.2350299938953,None,001,35,2019_Oct_16_1502,ACPT_experiment_5_30_19,3.1.0,59.95386968007985,
,,,C,G,d,b,L,D,d,L,c ,,,,,5,19,119,3,5,0,5,0,,,,,0,21,21,12,,,,,,up,0.73388248937772,2559.2365549689857,None,001,35,2019_Oct_16_1502,ACPT_experiment_5_30_19,3.1.0,59.95386968007985,
,,,C,G,d,b,L,U,d,L,u,,,,,5,19,119,3,5,0,5,0,,,,,0,22,22,20,,,,,,up,0.6838698265310086,2561.254735437047,None,001,35,2019_Oct_16_1502,ACPT_experiment_5_30_19,3.1.0,59.95386968007985,
,,,C,G,d,b,R,G,y,R,y,,,,,5,19,119,3,5,0,5,0,,,,,0,23,23,29,,,,,,down,0.750560923388548,2563.222927088864,None,001,35,2019_Oct_16_1502,ACPT_experiment_5_30_19,3.1.0,59.95386968007985,
,,,C,G,d,b,R,G,g,R,c ,,,,,5,19,119,3,5,0,5,0,,,,,0,24,24,7,,,,,,up,0.8006236942856049,2565.2411084624946,None,001,35,2019_Oct_16_1502,ACPT_experiment_5_30_19,3.1.0,59.95386968007985,
,,,C,G,d,b,L,D,y,R,y,,,,,5,19,119,3,5,0,5,0,,,,,0,25,25,33,,,,,,down,0.6338067537799361,2567.326058811759,None,001,35,2019_Oct_16_1502,ACPT_experiment_5_30_19,3.1.0,59.95386968007985,
,,,C,G,d,b,L,G,d,L,i,,,,,5,19,119,3,5,0,5,0,,,,,0,26,26,16,,,,,,down,0.7005189805349801,2569.2441882963903,None,001,35,2019_Oct_16_1502,ACPT_experiment_5_30_19,3.1.0,59.95386968007985,
,,,C,G,d,b,L,U,g,R,u,,,,,5,19,119,3,5,0,5,0,,,,,0,27,27,23,,,,,,up,0.5504097540433577,2571.24570693251,None,001,35,2019_Oct_16_1502,ACPT_experiment_5_30_19,3.1.0,59.95386968007985,
,,,C,G,d,b,R,D,g,L,i,,,,,5,19,119,3,5,0,5,0,,,,,0,28,28,2,,,,,,up,0.8006070922237996,2573.080438511839,None,001,35,2019_Oct_16_1502,ACPT_experiment_5_30_19,3.1.0,59.95386968007985,
,,,C,G,d,b,L,U,d,R,u,,,,,5,19,119,3,5,0,5,0,,,,,0,29,29,21,,,,,,up,0.6171557886409573,2575.165339658619,None,001,35,2019_Oct_16_1502,ACPT_experiment_5_30_19,3.1.0,59.95386968007985,
,,,C,G,d,b,R,U,g,R,u,,,,,5,19,119,3,5,0,5,0,,,,,0,30,30,11,,,,,,up,0.6671753941700445,2577.066809726155,None,001,35,2019_Oct_16_1502,ACPT_experiment_5_30_19,3.1.0,59.95386968007985,
,,,C,G,d,b,L,D,d,R,c ,,,,,5,19,119,3,5,0,5,0,,,,,0,31,31,13,,,,,,up,0.6505358995491406,2579.0182797785965,None,001,35,2019_Oct_16_1502,ACPT_experiment_5_30_19,3.1.0,59.95386968007985,
,,,C,G,d,b,R,D,d,L,c,,,,,5,19,119,3,5,0,5,0,,,,,0,32,32,0,,,,,,up,0.6004483764845645,2580.9531094308477,None,001,35,2019_Oct_16_1502,ACPT_experiment_5_30_19,3.1.0,59.95386968007985,
,,,C,G,d,b,R,U,d,R,u,,,,,5,19,119,3,5,0,5,0,,,,,0,33,33,9,,,,,,up,0.5003699241824506,2582.8378802363295,None,001,35,2019_Oct_16_1502,ACPT_experiment_5_30_19,3.1.0,59.95386968007985,
,,,C,G,d,b,L,D,g,R,i,,,,,5,19,119,3,5,0,5,0,,,,,0,34,34,15,,,,,,up,0.7339165990779293,2584.62254361136,None,001,35,2019_Oct_16_1502,ACPT_experiment_5_30_19,3.1.0,59.95386968007985,
,,,C,G,d,b,L,G,g,R,c ,,,,,5,19,119,3,5,0,5,0,,,,,0,35,35,19,,,,,,up,0.550124500394304,2586.6577408936937,None,001,35,2019_Oct_16_1502,ACPT_experiment_5_30_19,3.1.0,59.95386968007985,
,,,C,G,d,b,R,G,d,L,i,,,,,5,19,119,3,5,0,5,0,,,,,1,0,36,4,,,,,,up,0.700553995797236,2588.492161561633,None,001,35,2019_Oct_16_1502,ACPT_experiment_5_30_19,3.1.0,59.95386968007985,
,,,C,G,d,b,R,D,g,R,i,,,,,5,19,119,3,5,0,5,0,,,,,1,1,37,3,,,,,,up,0.5170592249960464,2590.477034062307,None,001,35,2019_Oct_16_1502,ACPT_experiment_5_30_19,3.1.0,59.95386968007985,
,,,C,G,d,b,L,U,d,R,u,,,,,5,19,119,3,5,0,5,0,,,,,1,2,38,21,,,,,,up,0.46707523844452226,2592.278379493615,None,001,35,2019_Oct_16_1502,ACPT_experiment_5_30_19,3.1.0,59.95386968007985,
,,,C,G,d,b,L,G,g,R,c ,,,,,5,19,119,3,5,0,5,0,,,,,1,3,39,19,,,,,,up,0.5167733676316857,2594.046698588918,None,001,35,2019_Oct_16_1502,ACPT_experiment_5_30_19,3.1.0,59.95386968007985,
,,,C,G,d,b,R,U,d,R,u,,,,,5,19,119,3,5,0,5,0,,,,,1,4,40,9,,,,,,up,0.46699856709165033,2595.8478088746197,None,001,35,2019_Oct_16_1502,ACPT_experiment_5_30_19,3.1.0,59.95386968007985,
,,,C,G,d,b,L,U,d,L,u,,,,,5,19,119,3,5,0,5,0,,,,,1,5,41,20,,,,,,up,0.6504936397504935,2597.599126550296,None,001,35,2019_Oct_16_1502,ACPT_experiment_5_30_19,3.1.0,59.95386968007985,
,,,C,G,d,b,R,D,y,R,y,,,,,5,19,119,3,5,0,5,0,,,,,1,6,42,27,,,,,,down,0.7338888283484266,2599.5339383930586,None,001,35,2019_Oct_16_1502,ACPT_experiment_5_30_19,3.1.0,59.95386968007985,
,,,C,G,d,b,R,G,d,R,i,,,,,5,19,119,3,5,0,5,0,,,,,1,7,43,5,,,,,,up,0.5837983169112704,2601.5521188611237,None,001,35,2019_Oct_16_1502,ACPT_experiment_5_30_19,3.1.0,59.95386968007985,
,,,C,G,d,b,R,U,y,L,u,,,,,5,19,119,3,5,0,5,0,,,,,1,8,44,30,,,,,,down,0.8673446748580318,2603.420230249507,None,001,35,2019_Oct_16_1502,ACPT_experiment_5_30_19,3.1.0,59.95386968007985,
,,,C,G,d,b,R,G,y,R,y,,,,,5,19,119,3,5,0,5,0,,,,,1,9,45,29,,,,,,down,0.6671732811773836,2605.5718729030486,None,001,35,2019_Oct_16_1502,ACPT_experiment_5_30_19,3.1.0,59.95386968007985,
,,,C,G,d,b,R,D,d,R,c ,,,,,5,19,119,3,5,0,5,0,,,,,1,10,46,1,,,,,,up,0.5837714517510904,2607.5233646890993,None,001,35,2019_Oct_16_1502,ACPT_experiment_5_30_19,3.1.0,59.95386968007985,
,,,C,G,d,b,R,D,d,L,c,,,,,5,19,119,3,5,0,5,0,,,,,1,11,47,0,,,,,,up,0.6505150715056516,2609.374746629859,None,001,35,2019_Oct_16_1502,ACPT_experiment_5_30_19,3.1.0,59.95386968007985,
,,,C,G,d,b,R,G,y,L,y,,,,,5,19,119,3,5,0,5,0,,,,,1,12,48,28,,,,,,down,0.700524413940002,2611.3095838285044,None,001,35,2019_Oct_16_1502,ACPT_experiment_5_30_19,3.1.0,59.95386968007985,
,,,C,G,d,b,L,G,y,L,y,,,,,5,19,119,3,5,0,5,0,,,,,1,13,49,34,,,,,,down,0.6304700406690245,2613.3144421962897,None,001,35,2019_Oct_16_1502,ACPT_experiment_5_30_19,3.1.0,59.95386968007985,
,,,C,G,d,b,L,U,y,L,u,,,,,5,19,119,3,5,0,5,0,,,,,1,14,50,24,,,,,,down,0.5503976798172516,2615.229247947609,None,001,35,2019_Oct_16_1502,ACPT_experiment_5_30_19,3.1.0,59.95386968007985,
,,,C,G,d,b,L,U,g,L,u,,,,,5,19,119,3,5,0,5,0,,,,,1,15,51,22,,,,,,up,0.6171533737942809,2617.06396805642,None,001,35,2019_Oct_16_1502,ACPT_experiment_5_30_19,3.1.0,59.95386968007985,
,,,C,G,d,b,L,G,d,L,i,,,,,5,19,119,3,5,0,5,0,,,,,1,16,52,16,,,,,,up,0.5170516786056396,2618.9654203144673,None,001,35,2019_Oct_16_1502,ACPT_experiment_5_30_19,3.1.0,59.95386968007985,
,,,C,G,d,b,R,U,g,R,u,,,,,5,19,119,3,5,0,5,0,,,,,1,17,53,11,,,,,,up,0.6504882063454716,2620.7667920072236,None,001,35,2019_Oct_16_1502,ACPT_experiment_5_30_19,3.1.0,59.95386968007985,
,,,C,G,d,b,L,G,y,R,y,,,,,5,19,119,3,5,0,5,0,,,,,1,18,54,35,,,,,,down,0.6671720737576834,2622.7015999258656,None,001,35,2019_Oct_16_1502,ACPT_experiment_5_30_19,3.1.0,59.95386968007985,
,,,C,G,d,b,R,D,y,L,y,,,,,5,19,119,3,5,0,5,0,,,,,1,19,55,26,,,,,,down,0.5004155043970968,2624.6530889952155,None,001,35,2019_Oct_16_1502,ACPT_experiment_5_30_19,3.1.0,59.95386968007985,
,,,C,G,d,b,L,U,y,R,u,,,,,5,19,119,3,5,0,5,0,,,,,1,20,56,25,,,,,,down,0.6337068395368988,2626.487910829408,None,001,35,2019_Oct_16_1502,ACPT_experiment_5_30_19,3.1.0,59.95386968007985,
,,,C,G,d,b,L,D,y,L,y,,,,,5,19,119,3,5,0,5,0,,,,,1,21,57,32,,,,,,down,0.6004670915390307,2628.422623663497,None,001,35,2019_Oct_16_1502,ACPT_experiment_5_30_19,3.1.0,59.95386968007985,
,,,C,G,d,b,R,U,g,L,u,,,,,5,19,119,3,5,0,5,0,,,,,1,22,58,10,,,,,,up,0.6838381316811137,2630.3074011098033,None,001,35,2019_Oct_16_1502,ACPT_experiment_5_30_19,3.1.0,59.95386968007985,
,,,C,G,d,b,L,G,g,L,c ,,,,,5,19,119,3,5,0,5,0,,,,,1,23,59,18,,,,,,up,0.7172378632130858,2632.275539635015,None,001,35,2019_Oct_16_1502,ACPT_experiment_5_30_19,3.1.0,59.95386968007985,
,,,C,G,d,b,L,D,d,L,c ,,,,,5,19,119,3,5,0,5,0,,,,,1,24,60,12,,,,,,up,0.6337952832618612,2634.27710294578,None,001,35,2019_Oct_16_1502,ACPT_experiment_5_30_19,3.1.0,59.95386968007985,
,,,C,G,d,b,R,U,y,R,u,,,,,5,19,119,3,5,0,5,0,,,,,1,25,61,31,,,,,,down,0.6337992073858913,2636.195226091444,None,001,35,2019_Oct_16_1502,ACPT_experiment_5_30_19,3.1.0,59.95386968007985,
,,,C,G,d,b,L,D,d,R,c ,,,,,5,19,119,3,5,0,5,0,,,,,1,26,62,13,,,,,,up,0.8173102783985087,2638.1133268997837,None,001,35,2019_Oct_16_1502,ACPT_experiment_5_30_19,3.1.0,59.95386968007985,
,,,C,G,d,b,R,D,g,L,i,,,,,5,19,119,3,5,0,5,0,,,,,1,27,63,2,,,,,,up,0.7672505260597973,2640.2149499477964,None,001,35,2019_Oct_16_1502,ACPT_experiment_5_30_19,3.1.0,59.95386968007985,
,,,C,G,d,b,R,U,d,L,u,,,,,5,19,119,3,5,0,5,0,,,,,1,28,64,8,,,,,,up,0.867307546603115,2642.266521997284,None,001,35,2019_Oct_16_1502,ACPT_experiment_5_30_19,3.1.0,59.95386968007985,
,,,C,G,d,b,L,D,y,R,y,,,,,5,19,119,3,5,0,5,0,,,,,1,29,65,33,,,,,,down,0.5504130744593567,2644.4181540858735,None,001,35,2019_Oct_16_1502,ACPT_experiment_5_30_19,3.1.0,59.95386968007985,
