facing_vig,person_vig,text_vig,facing_train,person_train,food_train,correct_key_train,facing_exp,person_exp,food_exp,showL_R,consistent,vig_random.thisRepN,vig_random.thisTrialN,vig_random.thisN,vig_random.thisIndex,trainTrials.thisRepN,trainTrials.thisTrialN,trainTrials.thisN,trainTrials.thisIndex,expBlock.thisRepN,expBlock.thisTrialN,expBlock.thisN,expBlock.thisIndex,breakLoop.thisRepN,breakLoop.thisTrialN,breakLoop.thisN,breakLoop.thisIndex,expTrials.thisRepN,expTrials.thisTrialN,expTrials.thisN,expTrials.thisIndex,train_resp.keys,train_resp.corr,train_resp.rt,train_resp.started,train_resp.stopped,exp_resp.keys,exp_resp.rt,exp_resp.started,exp_resp.stopped,session,participant,date,expName,psychopyVersion,frameRate,
C,D,"is allergic to gluten, meaning she can’t eat wheat products. She enjoys eating dairy products. She thinks eating insects, like crickets, is disgusting.",,,,,,,,,,0,0,0,1,,,,,,,,,,,,,,,,,,,,,,,,,,001,36,2019_Oct_16_1557,ACPT_experiment_5_30_19,3.1.0,59.952133714562706,
C,G,"cannot eat dairy products because she is lactose intolerant. She enjoys eating wheat products. She thinks eating insects, like crickets, is disgusting.",,,,,,,,,,0,1,1,0,,,,,,,,,,,,,,,,,,,,,,,,,,001,36,2019_Oct_16_1557,ACPT_experiment_5_30_19,3.1.0,59.952133714562706,
C,U,"did not report her food preferences, so her food preferences are unknown.",,,,,,,,,,0,2,2,2,,,,,,,,,,,,,,,,,,,,,,,,,,001,36,2019_Oct_16_1557,ACPT_experiment_5_30_19,3.1.0,59.952133714562706,
,,,C,D,y,b,,,,,,,,,,0,0,0,2,,,,,,,,,,,,,b,1,3.8362813065868977,1231.804367912613,None,,,,,001,36,2019_Oct_16_1557,ACPT_experiment_5_30_19,3.1.0,59.952133714562706,
,,,C,G,y,b,,,,,,,,,,0,1,1,14,,,,,,,,,,,,,b,1,1.3343797664892918,1238.9264576839014,None,,,,,001,36,2019_Oct_16_1557,ACPT_experiment_5_30_19,3.1.0,59.952133714562706,
,,,C,D,d,v,,,,,,,,,,0,2,2,18,,,,,,,,,,,,,v,1,3.6193913320930733,1243.563385323956,None,,,,,001,36,2019_Oct_16_1557,ACPT_experiment_5_30_19,3.1.0,59.952133714562706,
,,,C,G,g,v,,,,,,,,,,0,3,3,19,,,,,,,,,,,,,v,1,5.470867451833328,1250.46861440075,None,,,,,001,36,2019_Oct_16_1557,ACPT_experiment_5_30_19,3.1.0,59.952133714562706,
,,,C,U,y,n,,,,,,,,,,0,4,4,17,,,,,,,,,,,,,n,1,2.001542482721561,1259.2252978636752,None,,,,,001,36,2019_Oct_16_1557,ACPT_experiment_5_30_19,3.1.0,59.952133714562706,
,,,C,U,d,n,,,,,,,,,,0,5,5,6,,,,,,,,,,,,,n,1,1.9348293503971945,1264.495977017912,None,,,,,001,36,2019_Oct_16_1557,ACPT_experiment_5_30_19,3.1.0,59.952133714562706,
,,,C,G,y,b,,,,,,,,,,0,6,6,5,,,,,,,,,,,,,b,1,2.4352028968496597,1269.7166401888862,None,,,,,001,36,2019_Oct_16_1557,ACPT_experiment_5_30_19,3.1.0,59.952133714562706,
,,,C,D,d,v,,,,,,,,,,0,7,7,0,,,,,,,,,,,,,v,1,3.636117761161586,1275.4376711710574,None,,,,,001,36,2019_Oct_16_1557,ACPT_experiment_5_30_19,3.1.0,59.952133714562706,
,,,C,D,g,b,,,,,,,,,,0,8,8,1,,,,,,,,,,,,,b,1,2.034877013415098,1282.342965750544,None,,,,,001,36,2019_Oct_16_1557,ACPT_experiment_5_30_19,3.1.0,59.952133714562706,
,,,C,U,g,n,,,,,,,,,,0,9,9,16,,,,,,,,,,,,,n,1,1.8514293321059085,1287.6636639065982,None,,,,,001,36,2019_Oct_16_1557,ACPT_experiment_5_30_19,3.1.0,59.952133714562706,
,,,C,U,d,n,,,,,,,,,,0,10,10,15,,,,,,,,,,,,,n,1,1.434436485178594,1292.7842407770222,None,,,,,001,36,2019_Oct_16_1557,ACPT_experiment_5_30_19,3.1.0,59.952133714562706,
,,,C,G,d,b,,,,,,,,,,0,11,11,12,,,,,,,,,,,,,b,1,2.802151386073092,1297.5045083660807,None,,,,,001,36,2019_Oct_16_1557,ACPT_experiment_5_30_19,3.1.0,59.952133714562706,
,,,C,U,y,n,,,,,,,,,,0,12,12,8,,,,,,,,,,,,,n,1,1.7680652346462011,1303.5924914597454,None,,,,,001,36,2019_Oct_16_1557,ACPT_experiment_5_30_19,3.1.0,59.952133714562706,
,,,C,D,g,b,,,,,,,,,,0,13,13,10,,,,,,,,,,,,,b,1,2.6687254232856503,1308.6463455384655,None,,,,,001,36,2019_Oct_16_1557,ACPT_experiment_5_30_19,3.1.0,59.952133714562706,
,,,C,U,g,n,,,,,,,,,,0,14,14,7,,,,,,,,,,,,,n,1,3.569402817702212,1314.6008905951094,None,,,,,001,36,2019_Oct_16_1557,ACPT_experiment_5_30_19,3.1.0,59.952133714562706,
,,,C,D,d,v,,,,,,,,,,0,15,15,9,,,,,,,,,,,,,v,1,2.4518849531268643,1321.4561190832865,None,,,,,001,36,2019_Oct_16_1557,ACPT_experiment_5_30_19,3.1.0,59.952133714562706,
,,,C,G,d,b,,,,,,,,,,0,16,16,3,,,,,,,,,,,,,b,1,5.120612187547522,1327.1938269901875,None,,,,,001,36,2019_Oct_16_1557,ACPT_experiment_5_30_19,3.1.0,59.952133714562706,
,,,C,G,g,v,,,,,,,,,,0,17,17,13,,,,,,,,,,,,,v,1,5.370777227159124,1335.5835649824403,None,,,,,001,36,2019_Oct_16_1557,ACPT_experiment_5_30_19,3.1.0,59.952133714562706,
,,,C,D,y,b,,,,,,,,,,0,18,18,11,,,,,,,,,,,,,n,0,1.984857407886011,1344.240170596775,None,,,,,001,36,2019_Oct_16_1557,ACPT_experiment_5_30_19,3.1.0,59.952133714562706,
,,,C,G,g,v,,,,,,,,,,0,19,19,4,,,,,,,,,,,,,v,1,12.476185244024236,1349.510868767924,None,,,,,001,36,2019_Oct_16_1557,ACPT_experiment_5_30_19,3.1.0,59.952133714562706,
,,,C,D,d,v,,,,,,,,,,1,0,20,9,,,,,,,,,,,,,v,1,1.9181219382371637,1365.2729002086126,None,,,,,001,36,2019_Oct_16_1557,ACPT_experiment_5_30_19,3.1.0,59.952133714562706,
,,,C,U,d,n,,,,,,,,,,1,1,21,15,,,,,,,,,,,,,n,1,1.4511173340324603,1370.476854760007,None,,,,,001,36,2019_Oct_16_1557,ACPT_experiment_5_30_19,3.1.0,59.952133714562706,
,,,C,G,g,v,,,,,,,,,,1,2,22,19,,,,,,,,,,,,,v,1,3.7361971190293843,1375.213796557091,None,,,,,001,36,2019_Oct_16_1557,ACPT_experiment_5_30_19,3.1.0,59.952133714562706,
,,,C,G,d,b,,,,,,,,,,1,3,23,12,,,,,,,,,,,,,b,1,2.7354575725184986,1382.2358229688653,None,,,,,001,36,2019_Oct_16_1557,ACPT_experiment_5_30_19,3.1.0,59.952133714562706,
,,,C,D,y,b,,,,,,,,,,1,4,24,2,,,,,,,,,,,,,b,1,3.4693240635424445,1388.2570829689648,None,,,,,001,36,2019_Oct_16_1557,ACPT_experiment_5_30_19,3.1.0,59.952133714562706,
,,,C,G,g,v,,,,,,,,,,1,5,25,13,,,,,,,,,,,,,v,1,3.3025397234559932,1395.0122375326791,None,,,,,001,36,2019_Oct_16_1557,ACPT_experiment_5_30_19,3.1.0,59.952133714562706,
,,,C,U,y,n,,,,,,,,,,1,6,26,17,,,,,,,,,,,,,n,1,1.484488389269245,1401.6006005117633,None,,,,,001,36,2019_Oct_16_1557,ACPT_experiment_5_30_19,3.1.0,59.952133714562706,
,,,C,U,y,n,,,,,,,,,,1,7,27,8,,,,,,,,,,,,,n,1,1.301194956235122,1406.354069814999,None,,,,,001,36,2019_Oct_16_1557,ACPT_experiment_5_30_19,3.1.0,59.952133714562706,
,,,C,U,g,n,,,,,,,,,,1,8,28,7,,,,,,,,,,,,,n,1,2.8519119994016364,1410.9413283040121,None,,,,,001,36,2019_Oct_16_1557,ACPT_experiment_5_30_19,3.1.0,59.952133714562706,
,,,C,G,y,b,,,,,,,,,,1,9,29,5,,,,,,,,,,,,,b,1,3.7361889689236705,1417.0790726147134,None,,,,,001,36,2019_Oct_16_1557,ACPT_experiment_5_30_19,3.1.0,59.952133714562706,
,,,C,G,d,b,,,,,,,,,,1,10,30,3,,,,,,,,,,,,,b,1,3.1524154041799193,1424.101093291225,None,,,,,001,36,2019_Oct_16_1557,ACPT_experiment_5_30_19,3.1.0,59.952133714562706,
,,,C,D,d,v,,,,,,,,,,1,11,31,18,,,,,,,,,,,,,v,1,2.068274933812063,1430.5226465743435,None,,,,,001,36,2019_Oct_16_1557,ACPT_experiment_5_30_19,3.1.0,59.952133714562706,
,,,C,D,g,b,,,,,,,,,,1,12,32,1,,,,,,,,,,,,,b,1,1.718066457160603,1435.8600593870906,None,,,,,001,36,2019_Oct_16_1557,ACPT_experiment_5_30_19,3.1.0,59.952133714562706,
,,,C,D,d,v,,,,,,,,,,1,13,33,0,,,,,,,,,,,,,v,1,2.134996518096159,1440.8471825240013,None,,,,,001,36,2019_Oct_16_1557,ACPT_experiment_5_30_19,3.1.0,59.952133714562706,
,,,C,U,g,n,,,,,,,,,,1,14,34,16,,,,,,,,,,,,,n,1,1.6679807452273963,1446.268004108857,None,,,,,001,36,2019_Oct_16_1557,ACPT_experiment_5_30_19,3.1.0,59.952133714562706,
,,,C,G,g,v,,,,,,,,,,1,15,35,4,,,,,,,,,,,,,v,1,4.720297472773382,1451.2384451894904,None,,,,,001,36,2019_Oct_16_1557,ACPT_experiment_5_30_19,3.1.0,59.952133714562706,
,,,C,G,y,b,,,,,,,,,,1,16,36,14,,,,,,,,,,,,,b,1,2.151650803647499,1459.227901369246,None,,,,,001,36,2019_Oct_16_1557,ACPT_experiment_5_30_19,3.1.0,59.952133714562706,
,,,C,D,g,b,,,,,,,,,,1,17,37,10,,,,,,,,,,,,,b,1,6.171385526802624,1464.66537120254,None,,,,,001,36,2019_Oct_16_1557,ACPT_experiment_5_30_19,3.1.0,59.952133714562706,
,,,C,D,y,b,,,,,,,,,,1,18,38,11,,,,,,,,,,,,,b,1,8.189618215903465,1474.105906682511,None,,,,,001,36,2019_Oct_16_1557,ACPT_experiment_5_30_19,3.1.0,59.952133714562706,
,,,C,U,d,n,,,,,,,,,,1,19,39,6,,,,,,,,,,,,,n,1,1.2342880325377337,1485.5813221944518,None,,,,,001,36,2019_Oct_16_1557,ACPT_experiment_5_30_19,3.1.0,59.952133714562706,
,,,C,G,y,b,,,,,,,,,,2,0,40,5,,,,,,,,,,,,,b,1,2.2181481091283786,1490.1183844923435,None,,,,,001,36,2019_Oct_16_1557,ACPT_experiment_5_30_19,3.1.0,59.952133714562706,
,,,C,G,g,v,,,,,,,,,,2,1,41,13,,,,,,,,,,,,,v,1,2.735463911489205,1495.6056101092654,None,,,,,001,36,2019_Oct_16_1557,ACPT_experiment_5_30_19,3.1.0,59.952133714562706,
,,,C,D,d,v,,,,,,,,,,2,2,42,18,,,,,,,,,,,,,v,1,1.467824142480822,1501.6268682982336,None,,,,,001,36,2019_Oct_16_1557,ACPT_experiment_5_30_19,3.1.0,59.952133714562706,
,,,C,D,g,b,,,,,,,,,,2,3,43,1,,,,,,,,,,,,,b,1,1.1842494100965268,1506.3638408846055,None,,,,,001,36,2019_Oct_16_1557,ACPT_experiment_5_30_19,3.1.0,59.952133714562706,
,,,C,G,d,b,,,,,,,,,,2,4,44,12,,,,,,,,,,,,,b,1,4.053094609731488,1510.8506025492898,None,,,,,001,36,2019_Oct_16_1557,ACPT_experiment_5_30_19,3.1.0,59.952133714562706,
,,,C,D,y,b,,,,,,,,,,2,5,45,11,,,,,,,,,,,,,b,1,1.7013273501506774,1518.1895288666128,None,,,,,001,36,2019_Oct_16_1557,ACPT_experiment_5_30_19,3.1.0,59.952133714562706,
,,,C,D,y,b,,,,,,,,,,2,6,46,2,,,,,,,,,,,,,b,1,0.9007166356605012,1523.159961495283,None,,,,,001,36,2019_Oct_16_1557,ACPT_experiment_5_30_19,3.1.0,59.952133714562706,
,,,C,U,g,n,,,,,,,,,,2,7,47,16,,,,,,,,,,,,,n,1,1.550800657201762,1527.3635990981747,None,,,,,001,36,2019_Oct_16_1557,ACPT_experiment_5_30_19,3.1.0,59.952133714562706,
,,,C,D,g,b,,,,,,,,,,2,8,48,10,,,,,,,,,,,,,b,1,1.6512986889501917,1532.2002163701763,None,,,,,001,36,2019_Oct_16_1557,ACPT_experiment_5_30_19,3.1.0,59.952133714562706,
,,,C,D,d,v,,,,,,,,,,2,9,49,9,,,,,,,,,,,,,v,1,1.2009278441073548,1537.1206327137334,None,,,,,001,36,2019_Oct_16_1557,ACPT_experiment_5_30_19,3.1.0,59.952133714562706,
,,,C,G,g,v,,,,,,,,,,2,10,50,4,,,,,,,,,,,,,v,1,3.1688369589755894,1541.6243221452496,None,,,,,001,36,2019_Oct_16_1557,ACPT_experiment_5_30_19,3.1.0,59.952133714562706,
,,,C,G,y,b,,,,,,,,,,2,11,51,14,,,,,,,,,,,,,b,1,4.803673644462833,1548.0623057369776,None,,,,,001,36,2019_Oct_16_1557,ACPT_experiment_5_30_19,3.1.0,59.952133714562706,
,,,C,G,g,v,,,,,,,,,,2,12,52,19,,,,,,,,,,,,,v,1,3.8029422480576613,1556.1351100158427,None,,,,,001,36,2019_Oct_16_1557,ACPT_experiment_5_30_19,3.1.0,59.952133714562706,
,,,C,U,y,n,,,,,,,,,,2,13,53,8,,,,,,,,,,,,,n,1,1.2509631461325625,1563.2238728028278,None,,,,,001,36,2019_Oct_16_1557,ACPT_experiment_5_30_19,3.1.0,59.952133714562706,
,,,C,U,g,n,,,,,,,,,,2,14,54,7,,,,,,,,,,,,,n,1,0.516798723510874,1567.7776038753436,None,,,,,001,36,2019_Oct_16_1557,ACPT_experiment_5_30_19,3.1.0,59.952133714562706,
,,,C,G,d,b,,,,,,,,,,2,15,55,3,,,,,,,,,,,,,b,1,2.451830015386804,1571.5803010165582,None,,,,,001,36,2019_Oct_16_1557,ACPT_experiment_5_30_19,3.1.0,59.952133714562706,
,,,C,D,d,v,,,,,,,,,,2,16,56,0,,,,,,,,,,,,,v,1,1.1008451658235572,1577.3179542875732,None,,,,,001,36,2019_Oct_16_1557,ACPT_experiment_5_30_19,3.1.0,59.952133714562706,
,,,C,U,d,n,,,,,,,,,,2,17,57,6,,,,,,,,,,,,,n,1,2.998968860865716,1581.7413168938656,None,,,,,001,36,2019_Oct_16_1557,ACPT_experiment_5_30_19,3.1.0,59.952133714562706,
,,,C,U,y,n,,,,,,,,,,2,18,58,17,,,,,,,,,,,,,n,1,0.9841202762218018,1588.0094384246004,None,,,,,001,36,2019_Oct_16_1557,ACPT_experiment_5_30_19,3.1.0,59.952133714562706,
,,,C,U,d,n,,,,,,,,,,2,19,59,15,,,,,,,,,,,,,n,1,0.9838114778212912,1592.2796385338115,None,,,,,001,36,2019_Oct_16_1557,ACPT_experiment_5_30_19,3.1.0,59.952133714562706,
,,,C,U,y,n,,,,,,,,,,3,0,60,17,,,,,,,,,,,,,n,1,0.650499978717562,1596.5492874544834,None,,,,,001,36,2019_Oct_16_1557,ACPT_experiment_5_30_19,3.1.0,59.952133714562706,
,,,C,D,d,v,,,,,,,,,,3,1,61,0,,,,,,,,,,,,,v,1,1.2173524174577324,1600.5025484169018,None,,,,,001,36,2019_Oct_16_1557,ACPT_experiment_5_30_19,3.1.0,59.952133714562706,
,,,C,U,g,n,,,,,,,,,,3,2,62,7,,,,,,,,,,,,,n,1,1.634591276790161,1605.0057352586482,None,,,,,001,36,2019_Oct_16_1557,ACPT_experiment_5_30_19,3.1.0,59.952133714562706,
,,,C,G,y,b,,,,,,,,,,3,3,63,5,,,,,,,,,,,,,b,1,3.285841366970999,1609.9261645820006,None,,,,,001,36,2019_Oct_16_1557,ACPT_experiment_5_30_19,3.1.0,59.952133714562706,
,,,C,G,g,v,,,,,,,,,,3,4,64,4,,,,,,,,,,,,,v,1,2.134906565090205,1616.4811335648155,None,,,,,001,36,2019_Oct_16_1557,ACPT_experiment_5_30_19,3.1.0,59.952133714562706,
,,,C,G,g,v,,,,,,,,,,3,5,65,19,,,,,,,,,,,,,v,1,2.251727746668621,1621.88527279154,None,,,,,001,36,2019_Oct_16_1557,ACPT_experiment_5_30_19,3.1.0,59.952133714562706,
,,,C,D,g,b,,,,,,,,,,3,6,66,1,,,,,,,,,,,,,b,1,1.3677212398652046,1627.422831943939,None,,,,,001,36,2019_Oct_16_1557,ACPT_experiment_5_30_19,3.1.0,59.952133714562706,
,,,C,U,d,n,,,,,,,,,,3,7,67,15,,,,,,,,,,,,,n,1,1.4177665031311335,1632.0931203761356,None,,,,,001,36,2019_Oct_16_1557,ACPT_experiment_5_30_19,3.1.0,59.952133714562706,
,,,C,D,g,b,,,,,,,,,,3,8,68,10,,,,,,,,,,,,,b,1,1.4678232369151374,1636.7966479526149,None,,,,,001,36,2019_Oct_16_1557,ACPT_experiment_5_30_19,3.1.0,59.952133714562706,
,,,C,D,d,v,,,,,,,,,,3,9,69,9,,,,,,,,,,,,,v,1,2.2183720860739413,1641.5335867311442,None,,,,,001,36,2019_Oct_16_1557,ACPT_experiment_5_30_19,3.1.0,59.952133714562706,
,,,C,G,d,b,,,,,,,,,,3,10,70,12,,,,,,,,,,,,,b,1,1.6679484466658323,1647.0377887136747,None,,,,,001,36,2019_Oct_16_1557,ACPT_experiment_5_30_19,3.1.0,59.952133714562706,
,,,C,G,y,b,,,,,,,,,,3,11,71,14,,,,,,,,,,,,,b,1,1.5344992409845872,1651.974899187735,None,,,,,001,36,2019_Oct_16_1557,ACPT_experiment_5_30_19,3.1.0,59.952133714562706,
,,,C,D,y,b,,,,,,,,,,3,12,72,2,,,,,,,,,,,,,b,1,1.4678353111412434,1656.7952268158951,None,,,,,001,36,2019_Oct_16_1557,ACPT_experiment_5_30_19,3.1.0,59.952133714562706,
,,,C,G,d,b,,,,,,,,,,3,13,73,3,,,,,,,,,,,,,b,1,16.26237540528018,1661.5488766288508,None,,,,,001,36,2019_Oct_16_1557,ACPT_experiment_5_30_19,3.1.0,59.952133714562706,
,,,C,U,y,n,,,,,,,,,,3,14,74,8,,,,,,,,,,,,,n,1,1.0507857153424993,1681.0971063808975,None,,,,,001,36,2019_Oct_16_1557,ACPT_experiment_5_30_19,3.1.0,59.952133714562706,
,,,C,D,d,v,,,,,,,,,,3,15,75,18,,,,,,,,,,,,,v,1,1.6675264523692022,1685.4508130634676,None,,,,,001,36,2019_Oct_16_1557,ACPT_experiment_5_30_19,3.1.0,59.952133714562706,
,,,C,U,d,n,,,,,,,,,,3,16,76,6,,,,,,,,,,,,,n,1,1.134226182301063,1690.4041860143589,None,,,,,001,36,2019_Oct_16_1557,ACPT_experiment_5_30_19,3.1.0,59.952133714562706,
,,,C,U,g,n,,,,,,,,,,3,17,77,16,,,,,,,,,,,,,n,1,0.43343643718617386,1694.82449836862,None,,,,,001,36,2019_Oct_16_1557,ACPT_experiment_5_30_19,3.1.0,59.952133714562706,
,,,C,D,y,b,,,,,,,,,,3,18,78,11,,,,,,,,,,,,,b,1,1.3510449188470375,1698.5437275740042,None,,,,,001,36,2019_Oct_16_1557,ACPT_experiment_5_30_19,3.1.0,59.952133714562706,
,,,C,G,g,v,,,,,,,,,,3,19,79,13,,,,,,,,,,,,,v,1,3.5024246560569736,1703.1975386080994,None,,,,,001,36,2019_Oct_16_1557,ACPT_experiment_5_30_19,3.1.0,59.952133714562706,
,,,C,U,g,n,,,,,,,,,,4,0,80,7,,,,,,,,,,,,,n,1,0.6505008842832467,1709.9857919531896,None,,,,,001,36,2019_Oct_16_1557,ACPT_experiment_5_30_19,3.1.0,59.952133714562706,
,,,C,G,g,v,,,,,,,,,,4,1,81,4,,,,,,,,,,,,,v,1,1.3340920979899238,1713.9390695176735,None,,,,,001,36,2019_Oct_16_1557,ACPT_experiment_5_30_19,3.1.0,59.952133714562706,
,,,C,D,g,b,,,,,,,,,,4,2,82,10,,,,,,,,,,,,,b,1,1.6846298992313677,1718.558991813974,None,,,,,001,36,2019_Oct_16_1557,ACPT_experiment_5_30_19,3.1.0,59.952133714562706,
,,,C,G,y,b,,,,,,,,,,4,3,83,5,,,,,,,,,,,,,b,1,1.818064917697484,1723.529450402235,None,,,,,001,36,2019_Oct_16_1557,ACPT_experiment_5_30_19,3.1.0,59.952133714562706,
,,,C,D,y,b,,,,,,,,,,4,4,84,2,,,,,,,,,,,,,b,1,1.5344759980944218,1728.6333862687643,None,,,,,001,36,2019_Oct_16_1557,ACPT_experiment_5_30_19,3.1.0,59.952133714562706,
,,,C,D,d,v,,,,,,,,,,4,5,85,9,,,,,,,,,,,,,v,1,2.5686650823263335,1733.436981732597,None,,,,,001,36,2019_Oct_16_1557,ACPT_experiment_5_30_19,3.1.0,59.952133714562706,
,,,C,D,g,b,,,,,,,,,,4,6,86,1,,,,,,,,,,,,,b,1,1.234289843672741,1739.2747855994276,None,,,,,001,36,2019_Oct_16_1557,ACPT_experiment_5_30_19,3.1.0,59.952133714562706,
,,,C,U,g,n,,,,,,,,,,4,7,87,16,,,,,,,,,,,,,n,1,0.9338163226093457,1743.811844878761,None,,,,,001,36,2019_Oct_16_1557,ACPT_experiment_5_30_19,3.1.0,59.952133714562706,
,,,C,U,y,n,,,,,,,,,,4,8,88,17,,,,,,,,,,,,,n,1,0.5837989206265775,1748.014776139269,None,,,,,001,36,2019_Oct_16_1557,ACPT_experiment_5_30_19,3.1.0,59.952133714562706,
,,,C,D,d,v,,,,,,,,,,4,9,89,18,,,,,,,,,,,,,v,1,1.2005061516683782,1751.9014821417622,None,,,,,001,36,2019_Oct_16_1557,ACPT_experiment_5_30_19,3.1.0,59.952133714562706,
,,,C,U,y,n,,,,,,,,,,4,10,90,8,,,,,,,,,,,,,n,1,1.584548730228562,1756.3878402253504,None,,,,,001,36,2019_Oct_16_1557,ACPT_experiment_5_30_19,3.1.0,59.952133714562706,
,,,C,G,d,b,,,,,,,,,,4,11,91,3,,,,,,,,,,,,,b,1,1.5345113152143313,1761.2582426986373,None,,,,,001,36,2019_Oct_16_1557,ACPT_experiment_5_30_19,3.1.0,59.952133714562706,
,,,C,G,y,b,,,,,,,,,,4,12,92,14,,,,,,,,,,,,,b,1,1.71797982456701,1766.078585117728,None,,,,,001,36,2019_Oct_16_1557,ACPT_experiment_5_30_19,3.1.0,59.952133714562706,
,,,C,D,y,b,,,,,,,,,,4,13,93,11,,,,,,,,,,,,,b,1,1.1509037107425684,1771.0823752181277,None,,,,,001,36,2019_Oct_16_1557,ACPT_experiment_5_30_19,3.1.0,59.952133714562706,
,,,C,G,d,b,,,,,,,,,,4,14,94,12,,,,,,,,,,,,,b,1,2.8355278747148986,1775.5190925251154,None,,,,,001,36,2019_Oct_16_1557,ACPT_experiment_5_30_19,3.1.0,59.952133714562706,
,,,C,U,d,n,,,,,,,,,,4,15,95,15,,,,,,,,,,,,,n,1,1.6012872335268185,1781.6404225255574,None,,,,,001,36,2019_Oct_16_1557,ACPT_experiment_5_30_19,3.1.0,59.952133714562706,
,,,C,U,d,n,,,,,,,,,,4,16,96,6,,,,,,,,,,,,,n,1,0.5003859225362248,1786.5108074912132,None,,,,,001,36,2019_Oct_16_1557,ACPT_experiment_5_30_19,3.1.0,59.952133714562706,
,,,C,G,g,v,,,,,,,,,,4,17,97,19,,,,,,,,,,,,,v,1,1.5509274366049794,1790.3139731125011,None,,,,,001,36,2019_Oct_16_1557,ACPT_experiment_5_30_19,3.1.0,59.952133714562706,
,,,C,G,g,v,,,,,,,,,,4,18,98,13,,,,,,,,,,,,,v,1,1.717995219209115,1795.134030277939,None,,,,,001,36,2019_Oct_16_1557,ACPT_experiment_5_30_19,3.1.0,59.952133714562706,
,,,C,D,d,v,,,,,,,,,,4,19,99,0,,,,,,,,,,,,,v,1,1.2509625424208934,1800.1378623362834,None,,,,,001,36,2019_Oct_16_1557,ACPT_experiment_5_30_19,3.1.0,59.952133714562706,
,,,C,D,g,b,,,,,,,,,,5,0,100,1,,,,,,,,,,,,,b,1,1.5342438710431452,1804.691603973748,None,,,,,001,36,2019_Oct_16_1557,ACPT_experiment_5_30_19,3.1.0,59.952133714562706,
,,,C,G,d,b,,,,,,,,,,5,1,101,12,,,,,,,,,,,,,b,1,2.068259539169958,1809.511675326401,None,,,,,001,36,2019_Oct_16_1557,ACPT_experiment_5_30_19,3.1.0,59.952133714562706,
,,,C,G,y,b,,,,,,,,,,5,2,102,5,,,,,,,,,,,,,b,1,2.235052029358485,1814.8657611397575,None,,,,,001,36,2019_Oct_16_1557,ACPT_experiment_5_30_19,3.1.0,59.952133714562706,
,,,C,D,d,v,,,,,,,,,,5,3,103,0,,,,,,,,,,,,,v,1,4.4367342109107994,1820.3866337080435,None,,,,,001,36,2019_Oct_16_1557,ACPT_experiment_5_30_19,3.1.0,59.952133714562706,
,,,C,G,y,b,,,,,,,,,,5,4,104,14,,,,,,,,,,,,,b,1,6.421575620443036,1828.1091923820059,None,,,,,001,36,2019_Oct_16_1557,ACPT_experiment_5_30_19,3.1.0,59.952133714562706,
,,,C,D,g,b,,,,,,,,,,5,5,105,10,,,,,,,,,,,,,b,1,1.3343640699931711,1837.8165870320954,None,,,,,001,36,2019_Oct_16_1557,ACPT_experiment_5_30_19,3.1.0,59.952133714562706,
,,,C,U,d,n,,,,,,,,,,5,6,106,6,,,,,,,,,,,,,n,1,1.4675219849050336,1842.453737139811,None,,,,,001,36,2019_Oct_16_1557,ACPT_experiment_5_30_19,3.1.0,59.952133714562706,
,,,C,D,y,b,,,,,,,,,,5,7,107,11,,,,,,,,,,,,,b,1,2.0515530325792497,1847.2070992842673,None,,,,,001,36,2019_Oct_16_1557,ACPT_experiment_5_30_19,3.1.0,59.952133714562706,
,,,C,D,d,v,,,,,,,,,,5,8,108,9,,,,,,,,,,,,,v,1,1.534515541192377,1852.544491268971,None,,,,,001,36,2019_Oct_16_1557,ACPT_experiment_5_30_19,3.1.0,59.952133714562706,
,,,C,U,g,n,,,,,,,,,,5,9,109,7,,,,,,,,,,,,,n,1,1.5178446535755938,1857.3648231231127,None,,,,,001,36,2019_Oct_16_1557,ACPT_experiment_5_30_19,3.1.0,59.952133714562706,
,,,C,G,g,v,,,,,,,,,,5,10,110,4,,,,,,,,,,,,,v,1,3.969702741545916,1862.1684943527289,None,,,,,001,36,2019_Oct_16_1557,ACPT_experiment_5_30_19,3.1.0,59.952133714562706,
,,,C,G,d,b,,,,,,,,,,5,11,111,3,,,,,,,,,,,,,b,1,1.4177613715837651,1869.4073449344505,None,,,,,001,36,2019_Oct_16_1557,ACPT_experiment_5_30_19,3.1.0,59.952133714562706,
,,,C,U,g,n,,,,,,,,,,5,12,112,16,,,,,,,,,,,,,n,1,1.1842252616406768,1874.1109525026986,None,,,,,001,36,2019_Oct_16_1557,ACPT_experiment_5_30_19,3.1.0,59.952133714562706,
,,,C,U,y,n,,,,,,,,,,5,13,113,17,,,,,,,,,,,,,n,1,0.9507386560362647,1878.5643265100844,None,,,,,001,36,2019_Oct_16_1557,ACPT_experiment_5_30_19,3.1.0,59.952133714562706,
,,,C,D,y,b,,,,,,,,,,5,14,114,2,,,,,,,,,,,,,b,1,0.9507341282005655,1882.8175882875148,None,,,,,001,36,2019_Oct_16_1557,ACPT_experiment_5_30_19,3.1.0,59.952133714562706,
,,,C,G,g,v,,,,,,,,,,5,15,115,19,,,,,,,,,,,,,v,1,1.4511378602219338,1887.0541326915445,None,,,,,001,36,2019_Oct_16_1557,ACPT_experiment_5_30_19,3.1.0,59.952133714562706,
,,,C,G,g,v,,,,,,,,,,5,16,116,13,,,,,,,,,,,,,v,1,0.9340562979014067,1891.7743987713257,None,,,,,001,36,2019_Oct_16_1557,ACPT_experiment_5_30_19,3.1.0,59.952133714562706,
,,,C,U,d,n,,,,,,,,,,5,17,117,15,,,,,,,,,,,,,n,1,1.2005004164129787,1896.0114032034726,None,,,,,001,36,2019_Oct_16_1557,ACPT_experiment_5_30_19,3.1.0,59.952133714562706,
,,,C,U,y,n,,,,,,,,,,5,18,118,8,,,,,,,,,,,,,n,1,0.9841151446744334,1900.4810161429414,None,,,,,001,36,2019_Oct_16_1557,ACPT_experiment_5_30_19,3.1.0,59.952133714562706,
,,,C,D,d,v,,,,,,,,,,5,19,119,18,0,0,0,0,0,0,0,0,,,,,v,1,1.8012669488198298,1904.7677292692279,None,,,,,001,36,2019_Oct_16_1557,ACPT_experiment_5_30_19,3.1.0,59.952133714562706,
,,,C,D,d,v,L,D,d,R,c ,,,,,5,19,119,18,0,0,0,0,,,,,0,0,0,13,,,,,,up,2.068242635246861,1975.8385041720976,None,001,36,2019_Oct_16_1557,ACPT_experiment_5_30_19,3.1.0,59.952133714562706,
,,,C,D,d,v,R,U,y,L,u,,,,,5,19,119,18,0,0,0,0,,,,,0,1,1,30,,,,,,down,1.8681153125035053,1979.1910619918053,None,001,36,2019_Oct_16_1557,ACPT_experiment_5_30_19,3.1.0,59.952133714562706,
,,,C,D,d,v,R,G,d,L,i,,,,,5,19,119,18,0,0,0,0,,,,,0,2,2,4,,,,,,down,1.6179001648415579,1982.3434598883541,None,001,36,2019_Oct_16_1557,ACPT_experiment_5_30_19,3.1.0,59.952133714562706,
,,,C,D,d,v,L,D,y,R,y,,,,,5,19,119,18,0,0,0,0,,,,,0,3,3,33,,,,,,down,1.1175166571556474,1985.2456737283792,None,001,36,2019_Oct_16_1557,ACPT_experiment_5_30_19,3.1.0,59.952133714562706,
,,,C,D,d,v,L,U,g,R,u,,,,,5,19,119,18,0,0,0,0,,,,,0,4,4,23,,,,,,down,1.234262978516199,1987.6475134182401,None,001,36,2019_Oct_16_1557,ACPT_experiment_5_30_19,3.1.0,59.952133714562706,
,,,C,D,d,v,R,U,d,R,u,,,,,5,19,119,18,0,0,0,0,,,,,0,5,5,9,,,,,,down,1.1341999208525522,1990.166093090491,None,001,36,2019_Oct_16_1557,ACPT_experiment_5_30_19,3.1.0,59.952133714562706,
,,,C,D,d,v,L,G,g,R,c ,,,,,5,19,119,18,0,0,0,0,,,,,0,6,6,19,,,,,,up,1.6012184104220069,1992.584603366111,None,001,36,2019_Oct_16_1557,ACPT_experiment_5_30_19,3.1.0,59.952133714562706,
,,,C,D,d,v,R,D,y,R,y,,,,,5,19,119,18,0,0,0,0,,,,,0,7,7,27,,,,,,down,1.2342659970672685,1995.4701457148076,None,001,36,2019_Oct_16_1557,ACPT_experiment_5_30_19,3.1.0,59.952133714562706,
,,,C,D,d,v,L,U,g,L,u,,,,,5,19,119,18,0,0,0,0,,,,,0,8,8,22,,,,,,down,1.9181315976202313,1997.9887223685037,None,001,36,2019_Oct_16_1557,ACPT_experiment_5_30_19,3.1.0,59.952133714562706,
,,,C,D,d,v,R,D,g,L,i,,,,,5,19,119,18,0,0,0,0,,,,,0,9,9,2,,,,,,down,1.4677806752551987,2001.1911727728548,None,001,36,2019_Oct_16_1557,ACPT_experiment_5_30_19,3.1.0,59.952133714562706,
,,,C,D,d,v,L,G,d,R,i,,,,,5,19,119,18,0,0,0,0,,,,,0,10,10,17,,,,,,down,2.45186895477309,2003.9432656140125,None,001,36,2019_Oct_16_1557,ACPT_experiment_5_30_19,3.1.0,59.952133714562706,
,,,C,D,d,v,L,G,y,R,y,,,,,5,19,119,18,0,0,0,0,,,,,0,11,11,35,,,,,,down,1.034140485462558,2007.662746567068,None,001,36,2019_Oct_16_1557,ACPT_experiment_5_30_19,3.1.0,59.952133714562706,
,,,C,D,d,v,L,D,g,L,i,,,,,5,19,119,18,0,0,0,0,,,,,0,12,12,14,,,,,,down,1.1842545416438952,2009.9812025388455,None,001,36,2019_Oct_16_1557,ACPT_experiment_5_30_19,3.1.0,59.952133714562706,
,,,C,D,d,v,L,D,d,L,c ,,,,,5,19,119,18,0,0,0,0,,,,,0,13,13,12,,,,,,up,1.1008243377800682,2012.4330850771257,None,001,36,2019_Oct_16_1557,ACPT_experiment_5_30_19,3.1.0,59.952133714562706,
,,,C,D,d,v,R,U,g,L,u,,,,,5,19,119,18,0,0,0,0,,,,,0,14,14,10,,,,,,down,1.067477129148756,2014.8182252030783,None,001,36,2019_Oct_16_1557,ACPT_experiment_5_30_19,3.1.0,59.952133714562706,
,,,C,D,d,v,L,G,g,L,c ,,,,,5,19,119,18,0,0,0,0,,,,,0,15,15,18,,,,,,up,2.8021115411211213,2017.1700374391621,None,001,36,2019_Oct_16_1557,ACPT_experiment_5_30_19,3.1.0,59.952133714562706,
,,,C,D,d,v,R,D,g,R,i,,,,,5,19,119,18,0,0,0,0,,,,,0,16,16,3,,,,,,down,1.0341447114442417,2021.2564433367006,None,001,36,2019_Oct_16_1557,ACPT_experiment_5_30_19,3.1.0,59.952133714562706,
,,,C,D,d,v,R,U,g,R,u,,,,,5,19,119,18,0,0,0,0,,,,,0,17,17,11,,,,,,down,0.8339621491031721,2023.5749020251787,None,001,36,2019_Oct_16_1557,ACPT_experiment_5_30_19,3.1.0,59.952133714562706,
,,,C,D,d,v,L,G,y,L,y,,,,,5,19,119,18,0,0,0,0,,,,,0,18,18,34,,,,,,down,0.7839325823370018,2025.6931760383304,None,001,36,2019_Oct_16_1557,ACPT_experiment_5_30_19,3.1.0,59.952133714562706,
,,,C,D,d,v,L,G,d,L,i,,,,,5,19,119,18,0,0,0,0,,,,,0,19,19,16,,,,,,down,1.4511049579523387,2027.7614262199713,None,001,36,2019_Oct_16_1557,ACPT_experiment_5_30_19,3.1.0,59.952133714562706,
,,,C,D,d,v,L,U,y,R,u,,,,,5,19,119,18,0,0,0,0,,,,,0,20,20,25,,,,,,down,1.0174315640251734,2030.5135305316471,None,001,36,2019_Oct_16_1557,ACPT_experiment_5_30_19,3.1.0,59.952133714562706,
,,,C,D,d,v,L,D,g,R,i,,,,,5,19,119,18,0,0,0,0,,,,,0,21,21,15,,,,,,down,1.2676171298298868,2032.8319683920818,None,001,36,2019_Oct_16_1557,ACPT_experiment_5_30_19,3.1.0,59.952133714562706,
,,,C,D,d,v,R,G,d,R,i,,,,,5,19,119,18,0,0,0,0,,,,,0,22,22,5,,,,,,down,3.5193469894875307,2035.3839025175039,None,001,36,2019_Oct_16_1557,ACPT_experiment_5_30_19,3.1.0,59.952133714562706,
,,,C,D,d,v,R,U,y,R,u,,,,,5,19,119,18,0,0,0,0,,,,,0,23,23,31,,,,,,down,0.9840719793064636,2040.1875716341347,None,001,36,2019_Oct_16_1557,ACPT_experiment_5_30_19,3.1.0,59.952133714562706,
,,,C,D,d,v,L,U,d,R,u,,,,,5,19,119,18,0,0,0,0,,,,,0,24,24,21,,,,,,down,1.3843625456211157,2042.4559826445002,None,001,36,2019_Oct_16_1557,ACPT_experiment_5_30_19,3.1.0,59.952133714562706,
,,,C,D,d,v,R,U,d,L,u,,,,,5,19,119,18,0,0,0,0,,,,,0,25,25,8,,,,,,down,0.9840807331238466,2045.1246600727281,None,001,36,2019_Oct_16_1557,ACPT_experiment_5_30_19,3.1.0,59.952133714562706,
,,,C,D,d,v,R,D,y,L,y,,,,,5,19,119,18,0,0,0,0,,,,,0,26,26,26,,,,,,down,1.6012476904252253,2047.3930599144333,None,001,36,2019_Oct_16_1557,ACPT_experiment_5_30_19,3.1.0,59.952133714562706,
,,,C,D,d,v,R,D,d,R,c ,,,,,5,19,119,18,0,0,0,0,,,,,0,27,27,1,,,,,,down,1.551183108396799,2050.2785886796228,None,001,36,2019_Oct_16_1557,ACPT_experiment_5_30_19,3.1.0,59.952133714562706,
,,,C,D,d,v,R,G,g,R,c ,,,,,5,19,119,18,0,0,0,0,,,,,0,28,28,7,,,,,,up,4.55347057103063,2053.114086066911,None,001,36,2019_Oct_16_1557,ACPT_experiment_5_30_19,3.1.0,59.952133714562706,
,,,C,D,d,v,R,G,g,L,c ,,,,,5,19,119,18,0,0,0,0,,,,,0,29,29,6,,,,,,up,0.917379675025586,2058.9518461646658,None,001,36,2019_Oct_16_1557,ACPT_experiment_5_30_19,3.1.0,59.952133714562706,
,,,C,D,d,v,L,U,y,L,u,,,,,5,19,119,18,0,0,0,0,,,,,0,30,30,24,,,,,,down,0.8839971492743643,2061.153551589101,None,001,36,2019_Oct_16_1557,ACPT_experiment_5_30_19,3.1.0,59.952133714562706,
,,,C,D,d,v,L,U,d,L,u,,,,,5,19,119,18,0,0,0,0,,,,,0,31,31,20,,,,,,down,0.9173464708983374,2063.321887769438,None,001,36,2019_Oct_16_1557,ACPT_experiment_5_30_19,3.1.0,59.952133714562706,
,,,C,D,d,v,R,D,d,L,c,,,,,5,19,119,18,0,0,0,0,,,,,0,32,32,0,,,,,,up,1.1675552795932163,2065.523548217374,None,001,36,2019_Oct_16_1557,ACPT_experiment_5_30_19,3.1.0,59.952133714562706,
,,,C,D,d,v,L,D,y,L,y,,,,,5,19,119,18,0,0,0,0,,,,,0,33,33,32,,,,,,down,0.8673256579459121,2067.9754186814243,None,001,36,2019_Oct_16_1557,ACPT_experiment_5_30_19,3.1.0,59.952133714562706,
,,,C,D,d,v,R,G,y,R,y,,,,,5,19,119,18,0,0,0,0,,,,,0,34,34,29,,,,,,down,1.7179894839500776,2070.127053184864,None,001,36,2019_Oct_16_1557,ACPT_experiment_5_30_19,3.1.0,59.952133714562706,
,,,C,D,d,v,R,G,y,L,y,,,,,5,19,119,18,0,0,0,0,,,,,0,35,35,28,,,,,,down,0.70056607002698,2073.112518530168,None,001,36,2019_Oct_16_1557,ACPT_experiment_5_30_19,3.1.0,59.952133714562706,
,,,C,D,d,v,R,G,g,R,c ,,,,,5,19,119,18,0,0,0,0,,,,,1,0,36,7,,,,,,up,0.8840074123691011,2075.097515697249,None,001,36,2019_Oct_16_1557,ACPT_experiment_5_30_19,3.1.0,59.952133714562706,
,,,C,D,d,v,L,D,d,L,c ,,,,,5,19,119,18,0,0,0,0,,,,,1,1,37,12,,,,,,up,0.8673093577381223,2077.265848255316,None,001,36,2019_Oct_16_1557,ACPT_experiment_5_30_19,3.1.0,59.952133714562706,
,,,C,D,d,v,L,U,d,L,u,,,,,5,19,119,18,0,0,0,0,,,,,1,2,38,20,,,,,,down,0.8506475257927377,2079.417472797515,None,001,36,2019_Oct_16_1557,ACPT_experiment_5_30_19,3.1.0,59.952133714562706,
,,,C,D,d,v,R,U,d,L,u,,,,,5,19,119,18,0,0,0,0,,,,,1,3,39,8,,,,,,down,1.7846950698840374,2081.5524400356044,None,001,36,2019_Oct_16_1557,ACPT_experiment_5_30_19,3.1.0,59.952133714562706,
,,,C,D,d,v,R,G,d,R,i,,,,,5,19,119,18,0,0,0,0,,,,,1,4,40,5,,,,,,down,1.934829652254848,2084.604763102121,None,001,36,2019_Oct_16_1557,ACPT_experiment_5_30_19,3.1.0,59.952133714562706,
,,,C,D,d,v,L,D,g,R,i,,,,,5,19,119,18,0,0,0,0,,,,,1,5,41,15,,,,,,down,0.9840671496131108,2087.8238955627494,None,001,36,2019_Oct_16_1557,ACPT_experiment_5_30_19,3.1.0,59.952133714562706,
,,,C,D,d,v,L,D,g,L,i,,,,,5,19,119,18,0,0,0,0,,,,,1,6,42,14,,,,,,down,1.6345982194725366,2090.07558014405,None,001,36,2019_Oct_16_1557,ACPT_experiment_5_30_19,3.1.0,59.952133714562706,
,,,C,D,d,v,R,D,d,L,c,,,,,5,19,119,18,0,0,0,0,,,,,1,7,43,0,,,,,,up,0.8172855262309895,2092.99448871829,None,001,36,2019_Oct_16_1557,ACPT_experiment_5_30_19,3.1.0,59.952133714562706,
,,,C,D,d,v,L,U,y,L,u,,,,,5,19,119,18,0,0,0,0,,,,,1,8,44,24,,,,,,down,0.8506547703327669,2095.096089730836,None,001,36,2019_Oct_16_1557,ACPT_experiment_5_30_19,3.1.0,59.952133714562706,
,,,C,D,d,v,R,U,y,L,u,,,,,5,19,119,18,0,0,0,0,,,,,1,9,45,30,,,,,,down,0.7172568801215675,2097.2310307074804,None,001,36,2019_Oct_16_1557,ACPT_experiment_5_30_19,3.1.0,59.952133714562706,
,,,C,D,d,v,R,D,g,R,i,,,,,5,19,119,18,0,0,0,0,,,,,1,10,46,3,,,,,,down,1.1341923744585074,2099.232579529169,None,001,36,2019_Oct_16_1557,ACPT_experiment_5_30_19,3.1.0,59.952133714562706,
,,,C,D,d,v,L,G,d,L,i,,,,,5,19,119,18,0,0,0,0,,,,,1,11,47,16,,,,,,down,2.118299972742534,2101.651068373034,None,001,36,2019_Oct_16_1557,ACPT_experiment_5_30_19,3.1.0,59.952133714562706,
,,,C,D,d,v,R,G,g,L,c ,,,,,5,19,119,18,0,0,0,0,,,,,1,12,48,6,,,,,,up,1.3176645060848386,2105.053687756219,None,001,36,2019_Oct_16_1557,ACPT_experiment_5_30_19,3.1.0,59.952133714562706,
,,,C,D,d,v,R,D,d,R,c ,,,,,5,19,119,18,0,0,0,0,,,,,1,13,49,1,,,,,,up,1.034131731648813,2107.6556662393377,None,001,36,2019_Oct_16_1557,ACPT_experiment_5_30_19,3.1.0,59.952133714562706,
,,,C,D,d,v,R,D,y,L,y,,,,,5,19,119,18,0,0,0,0,,,,,1,14,50,26,,,,,,down,0.833937396932015,2109.9908042673924,None,001,36,2019_Oct_16_1557,ACPT_experiment_5_30_19,3.1.0,59.952133714562706,
,,,C,D,d,v,R,D,g,L,i,,,,,5,19,119,18,0,0,0,0,,,,,1,15,51,2,,,,,,down,1.2175700554325886,2112.125764864657,None,001,36,2019_Oct_16_1557,ACPT_experiment_5_30_19,3.1.0,59.952133714562706,
,,,C,D,d,v,R,U,g,L,u,,,,,5,19,119,18,0,0,0,0,,,,,1,16,52,10,,,,,,down,1.0675142574000347,2114.6276476897,None,001,36,2019_Oct_16_1557,ACPT_experiment_5_30_19,3.1.0,59.952133714562706,
,,,C,D,d,v,L,U,y,R,u,,,,,5,19,119,18,0,0,0,0,,,,,1,17,53,25,,,,,,down,0.8006079977894842,2116.9794424181528,None,001,36,2019_Oct_16_1557,ACPT_experiment_5_30_19,3.1.0,59.952133714562706,
,,,C,D,d,v,R,U,g,R,u,,,,,5,19,119,18,0,0,0,0,,,,,1,18,54,11,,,,,,down,0.8840052993764402,2119.0643674115345,None,001,36,2019_Oct_16_1557,ACPT_experiment_5_30_19,3.1.0,59.952133714562706,
,,,C,D,d,v,R,G,y,L,y,,,,,5,19,119,18,0,0,0,0,,,,,1,19,55,28,,,,,,down,0.8673141874278372,2121.232693630631,None,001,36,2019_Oct_16_1557,ACPT_experiment_5_30_19,3.1.0,59.952133714562706,
,,,C,D,d,v,R,U,d,R,u,,,,,5,19,119,18,0,0,0,0,,,,,1,20,56,9,,,,,,down,1.1008720309837372,2123.384329643348,None,001,36,2019_Oct_16_1557,ACPT_experiment_5_30_19,3.1.0,59.952133714562706,
,,,C,D,d,v,L,D,d,R,c ,,,,,5,19,119,18,0,0,0,0,,,,,1,21,57,13,,,,,,up,0.9507990271813469,2125.7694797305376,None,001,36,2019_Oct_16_1557,ACPT_experiment_5_30_19,3.1.0,59.952133714562706,
,,,C,D,d,v,L,G,d,R,i,,,,,5,19,119,18,0,0,0,0,,,,,1,22,58,17,,,,,,down,1.2509525811838103,2128.004513044845,None,001,36,2019_Oct_16_1557,ACPT_experiment_5_30_19,3.1.0,59.952133714562706,
,,,C,D,d,v,L,G,y,R,y,,,,,5,19,119,18,0,0,0,0,,,,,1,23,59,35,,,,,,down,1.7846820900849707,2130.5397862438913,None,001,36,2019_Oct_16_1557,ACPT_experiment_5_30_19,3.1.0,59.952133714562706,
,,,C,D,d,v,L,U,g,L,u,,,,,5,19,119,18,0,0,0,0,,,,,1,24,60,22,,,,,,down,1.1508659787759825,2133.6254737248164,None,001,36,2019_Oct_16_1557,ACPT_experiment_5_30_19,3.1.0,59.952133714562706,
,,,C,D,d,v,L,G,g,L,c ,,,,,5,19,119,18,0,0,0,0,,,,,1,25,61,18,,,,,,up,1.4844639389557415,2136.060657604754,None,001,36,2019_Oct_16_1557,ACPT_experiment_5_30_19,3.1.0,59.952133714562706,
,,,C,D,d,v,L,D,y,L,y,,,,,5,19,119,18,0,0,0,0,,,,,1,26,62,32,,,,,,down,0.8506357534206472,2138.8461208974404,None,001,36,2019_Oct_16_1557,ACPT_experiment_5_30_19,3.1.0,59.952133714562706,
,,,C,D,d,v,L,G,g,R,c ,,,,,5,19,119,18,0,0,0,0,,,,,1,27,63,19,,,,,,up,1.5011354302841937,2140.997758117577,None,001,36,2019_Oct_16_1557,ACPT_experiment_5_30_19,3.1.0,59.952133714562706,
,,,C,D,d,v,L,D,y,R,y,,,,,5,19,119,18,0,0,0,0,,,,,1,28,64,33,,,,,,down,0.9004787733538251,2143.8000616389363,None,001,36,2019_Oct_16_1557,ACPT_experiment_5_30_19,3.1.0,59.952133714562706,
,,,C,D,d,v,L,U,d,R,u,,,,,5,19,119,18,0,0,0,0,,,,,1,29,65,21,,,,,,down,1.3510557856534433,2146.0015409734406,None,001,36,2019_Oct_16_1557,ACPT_experiment_5_30_19,3.1.0,59.952133714562706,
,,,C,D,d,v,R,D,y,R,y,,,,,5,19,119,18,0,0,0,0,,,,,1,30,66,27,,,,,,down,0.9673932434452581,2148.6369149621096,None,001,36,2019_Oct_16_1557,ACPT_experiment_5_30_19,3.1.0,59.952133714562706,
,,,C,D,d,v,R,G,y,R,y,,,,,5,19,119,18,0,0,0,0,,,,,1,31,67,29,,,,,,down,0.9840571883760276,2150.888648745895,None,001,36,2019_Oct_16_1557,ACPT_experiment_5_30_19,3.1.0,59.952133714562706,
,,,C,D,d,v,R,U,y,R,u,,,,,5,19,119,18,0,0,0,0,,,,,1,32,68,31,,,,,,down,0.7505591122535407,2153.1570295706915,None,001,36,2019_Oct_16_1557,ACPT_experiment_5_30_19,3.1.0,59.952133714562706,
,,,C,D,d,v,L,U,g,R,u,,,,,5,19,119,18,0,0,0,0,,,,,1,33,69,23,,,,,,down,1.1008424491228652,2155.1919065841066,None,001,36,2019_Oct_16_1557,ACPT_experiment_5_30_19,3.1.0,59.952133714562706,
,,,C,D,d,v,L,G,y,L,y,,,,,5,19,119,18,0,0,0,0,,,,,1,34,70,34,,,,,,down,0.8506499406394141,2157.577059086143,None,001,36,2019_Oct_16_1557,ACPT_experiment_5_30_19,3.1.0,59.952133714562706,
,,,C,D,d,v,R,G,d,L,i,,,,,5,19,119,18,0,0,0,0,,,,,1,35,71,4,,,,,,down,3.519377778771741,2159.7120393040277,None,001,36,2019_Oct_16_1557,ACPT_experiment_5_30_19,3.1.0,59.952133714562706,
,,,C,D,d,v,,,,,,,,,,5,19,119,18,1,0,1,0,0,0,0,0,,,,,,,,,,,,,,001,36,2019_Oct_16_1557,ACPT_experiment_5_30_19,3.1.0,59.952133714562706,
,,,C,D,d,v,L,U,y,L,u,,,,,5,19,119,18,1,0,1,0,,,,,0,0,0,24,,,,,,down,0.9006665276101558,2186.148861053094,None,001,36,2019_Oct_16_1557,ACPT_experiment_5_30_19,3.1.0,59.952133714562706,
,,,C,D,d,v,L,D,y,L,y,,,,,5,19,119,18,1,0,1,0,,,,,0,1,1,32,,,,,,down,0.750596542366111,2188.317162520023,None,001,36,2019_Oct_16_1557,ACPT_experiment_5_30_19,3.1.0,59.952133714562706,
,,,C,D,d,v,L,G,d,R,i,,,,,5,19,119,18,1,0,1,0,,,,,0,2,2,17,,,,,,down,1.9014435042336117,2190.3520525132335,None,001,36,2019_Oct_16_1557,ACPT_experiment_5_30_19,3.1.0,59.952133714562706,
,,,C,D,d,v,L,U,d,L,u,,,,,5,19,119,18,1,0,1,0,,,,,0,3,3,20,,,,,,down,0.967449086751003,2193.5211122417277,None,001,36,2019_Oct_16_1557,ACPT_experiment_5_30_19,3.1.0,59.952133714562706,
,,,C,D,d,v,L,U,g,L,u,,,,,5,19,119,18,1,0,1,0,,,,,0,4,4,22,,,,,,down,0.8506599018801353,2195.7561567246958,None,001,36,2019_Oct_16_1557,ACPT_experiment_5_30_19,3.1.0,59.952133714562706,
,,,C,D,d,v,L,D,d,L,c ,,,,,5,19,119,18,1,0,1,0,,,,,0,5,5,12,,,,,,up,1.0341809341298358,2197.891128188763,None,001,36,2019_Oct_16_1557,ACPT_experiment_5_30_19,3.1.0,59.952133714562706,
,,,C,D,d,v,L,U,d,R,u,,,,,5,19,119,18,1,0,1,0,,,,,0,6,6,21,,,,,,down,0.8840134494821541,2200.2095600120847,None,001,36,2019_Oct_16_1557,ACPT_experiment_5_30_19,3.1.0,59.952133714562706,
,,,C,D,d,v,L,G,y,R,y,,,,,5,19,119,18,1,0,1,0,,,,,0,7,7,35,,,,,,down,0.7839443547127303,2202.3778847219037,None,001,36,2019_Oct_16_1557,ACPT_experiment_5_30_19,3.1.0,59.952133714562706,
,,,C,D,d,v,L,G,d,L,i,,,,,5,19,119,18,1,0,1,0,,,,,0,8,8,16,,,,,,down,1.167589691143803,2204.429424774684,None,001,36,2019_Oct_16_1557,ACPT_experiment_5_30_19,3.1.0,59.952133714562706,
,,,C,D,d,v,R,G,y,L,y,,,,,5,19,119,18,1,0,1,0,,,,,0,9,9,28,,,,,,down,0.7005564106475504,2206.88131908534,None,001,36,2019_Oct_16_1557,ACPT_experiment_5_30_19,3.1.0,59.952133714562706,
,,,C,D,d,v,R,D,g,R,i,,,,,5,19,119,18,1,0,1,0,,,,,0,10,10,3,,,,,,down,1.284335710650339,2208.8661638152844,None,001,36,2019_Oct_16_1557,ACPT_experiment_5_30_19,3.1.0,59.952133714562706,
,,,C,D,d,v,R,D,d,R,c ,,,,,5,19,119,18,1,0,1,0,,,,,0,11,11,1,,,,,,up,0.9006810166865762,2211.4348168233846,None,001,36,2019_Oct_16_1557,ACPT_experiment_5_30_19,3.1.0,59.952133714562706,
,,,C,D,d,v,R,G,d,R,i,,,,,5,19,119,18,1,0,1,0,,,,,0,12,12,5,,,,,,down,1.434412940434413,2213.6197976298863,None,001,36,2019_Oct_16_1557,ACPT_experiment_5_30_19,3.1.0,59.952133714562706,
,,,C,D,d,v,R,U,g,R,u,,,,,5,19,119,18,1,0,1,0,,,,,0,13,13,11,,,,,,down,0.9840846572478767,2216.33852515107,None,001,36,2019_Oct_16_1557,ACPT_experiment_5_30_19,3.1.0,59.952133714562706,
,,,C,D,d,v,L,U,y,R,u,,,,,5,19,119,18,1,0,1,0,,,,,0,14,14,25,,,,,,down,0.934046638518339,2218.606928615045,None,001,36,2019_Oct_16_1557,ACPT_experiment_5_30_19,3.1.0,59.952133714562706,
,,,C,D,d,v,R,D,g,L,i,,,,,5,19,119,18,1,0,1,0,,,,,0,15,15,2,,,,,,down,1.0674786384224717,2220.8252840990535,None,001,36,2019_Oct_16_1557,ACPT_experiment_5_30_19,3.1.0,59.952133714562706,
,,,C,D,d,v,L,D,g,L,i,,,,,5,19,119,18,1,0,1,0,,,,,0,16,16,14,,,,,,down,1.2009091290528886,2223.177077318229,None,001,36,2019_Oct_16_1557,ACPT_experiment_5_30_19,3.1.0,59.952133714562706,
,,,C,D,d,v,R,G,y,R,y,,,,,5,19,119,18,1,0,1,0,,,,,0,17,17,29,,,,,,down,1.1675767113483744,2225.6623022354506,None,001,36,2019_Oct_16_1557,ACPT_experiment_5_30_19,3.1.0,59.952133714562706,
,,,C,D,d,v,R,D,y,L,y,,,,,5,19,119,18,1,0,1,0,,,,,0,18,18,26,,,,,,down,0.8173139006685233,2228.097489435804,None,001,36,2019_Oct_16_1557,ACPT_experiment_5_30_19,3.1.0,59.952133714562706,
,,,C,D,d,v,L,D,y,R,y,,,,,5,19,119,18,1,0,1,0,,,,,0,19,19,33,,,,,,down,0.8172915633440425,2230.1990940706164,None,001,36,2019_Oct_16_1557,ACPT_experiment_5_30_19,3.1.0,59.952133714562706,
,,,C,D,d,v,L,D,g,R,i,,,,,5,19,119,18,1,0,1,0,,,,,0,20,20,15,,,,,,down,0.7839479769754689,2232.3006965924396,None,001,36,2019_Oct_16_1557,ACPT_experiment_5_30_19,3.1.0,59.952133714562706,
,,,C,D,d,v,L,G,g,R,c ,,,,,5,19,119,18,1,0,1,0,,,,,0,21,21,19,,,,,,up,0.8506559777524672,2234.368933492431,None,001,36,2019_Oct_16_1557,ACPT_experiment_5_30_19,3.1.0,59.952133714562706,
,,,C,D,d,v,R,U,d,R,u,,,,,5,19,119,18,1,0,1,0,,,,,0,22,22,9,,,,,,down,0.9006804129712691,2236.503907975057,None,001,36,2019_Oct_16_1557,ACPT_experiment_5_30_19,3.1.0,59.952133714562706,
,,,C,D,d,v,R,G,g,L,c ,,,,,5,19,119,18,1,0,1,0,,,,,0,23,23,6,,,,,,up,1.5678829741591471,2238.6889026669232,None,001,36,2019_Oct_16_1557,ACPT_experiment_5_30_19,3.1.0,59.952133714562706,
,,,C,D,d,v,L,U,g,R,u,,,,,5,19,119,18,1,0,1,0,,,,,0,24,24,23,,,,,,down,0.7673311215330614,2241.541046793369,None,001,36,2019_Oct_16_1557,ACPT_experiment_5_30_19,3.1.0,59.952133714562706,
,,,C,D,d,v,R,D,d,L,c,,,,,5,19,119,18,1,0,1,0,,,,,0,25,25,0,,,,,,up,0.9840786201348237,2243.592643896882,None,001,36,2019_Oct_16_1557,ACPT_experiment_5_30_19,3.1.0,59.952133714562706,
,,,C,D,d,v,L,G,g,L,c ,,,,,5,19,119,18,1,0,1,0,,,,,0,26,26,18,,,,,,up,1.3009927129023708,2245.861039512609,None,001,36,2019_Oct_16_1557,ACPT_experiment_5_30_19,3.1.0,59.952133714562706,
,,,C,D,d,v,R,G,g,R,c ,,,,,5,19,119,18,1,0,1,0,,,,,0,27,27,7,,,,,,up,0.7839506936797989,2248.446320544812,None,001,36,2019_Oct_16_1557,ACPT_experiment_5_30_19,3.1.0,59.952133714562706,
,,,C,D,d,v,R,D,y,R,y,,,,,5,19,119,18,1,0,1,0,,,,,0,28,28,27,,,,,,down,0.8005998476837703,2250.5145870266606,None,001,36,2019_Oct_16_1557,ACPT_experiment_5_30_19,3.1.0,59.952133714562706,
,,,C,D,d,v,R,U,d,L,u,,,,,5,19,119,18,1,0,1,0,,,,,0,29,29,8,,,,,,down,0.8503752519354748,2252.616459407498,None,001,36,2019_Oct_16_1557,ACPT_experiment_5_30_19,3.1.0,59.952133714562706,
,,,C,D,d,v,L,G,y,L,y,,,,,5,19,119,18,1,0,1,0,,,,,0,30,30,34,,,,,,down,1.43442712765318,2254.7511456179127,None,001,36,2019_Oct_16_1557,ACPT_experiment_5_30_19,3.1.0,59.952133714562706,
,,,C,D,d,v,R,U,y,L,u,,,,,5,19,119,18,1,0,1,0,,,,,0,31,31,30,,,,,,down,1.2509374883993587,2257.4699006079645,None,001,36,2019_Oct_16_1557,ACPT_experiment_5_30_19,3.1.0,59.952133714562706,
,,,C,D,d,v,R,U,y,R,u,,,,,5,19,119,18,1,0,1,0,,,,,0,32,32,31,,,,,,down,1.0508137879260175,2260.005157506803,None,001,36,2019_Oct_16_1557,ACPT_experiment_5_30_19,3.1.0,59.952133714562706,
,,,C,D,d,v,R,U,g,L,u,,,,,5,19,119,18,1,0,1,0,,,,,0,33,33,10,,,,,,down,1.0841573742909532,2262.3569464999964,None,001,36,2019_Oct_16_1557,ACPT_experiment_5_30_19,3.1.0,59.952133714562706,
,,,C,D,d,v,R,G,d,L,i,,,,,5,19,119,18,1,0,1,0,,,,,0,34,34,4,,,,,,down,1.8013780317269266,2264.725416342044,None,001,36,2019_Oct_16_1557,ACPT_experiment_5_30_19,3.1.0,59.952133714562706,
,,,C,D,d,v,L,D,d,R,c ,,,,,5,19,119,18,1,0,1,0,,,,,0,35,35,13,,,,,,up,1.7013062202495348,2267.811101408126,None,001,36,2019_Oct_16_1557,ACPT_experiment_5_30_19,3.1.0,59.952133714562706,
,,,C,D,d,v,L,U,g,R,u,,,,,5,19,119,18,1,0,1,0,,,,,1,0,36,23,,,,,,down,1.1842463915418193,2270.79669624953,None,001,36,2019_Oct_16_1557,ACPT_experiment_5_30_19,3.1.0,59.952133714562706,
,,,C,D,d,v,L,U,y,R,u,,,,,5,19,119,18,1,0,1,0,,,,,1,1,37,25,,,,,,down,0.6171349605974683,2273.2652629570803,None,001,36,2019_Oct_16_1557,ACPT_experiment_5_30_19,3.1.0,59.952133714562706,
,,,C,D,d,v,R,U,g,L,u,,,,,5,19,119,18,1,0,1,0,,,,,1,2,38,10,,,,,,down,0.8840065067997784,2275.1667097817226,None,001,36,2019_Oct_16_1557,ACPT_experiment_5_30_19,3.1.0,59.952133714562706,
,,,C,D,d,v,R,U,y,R,u,,,,,5,19,119,18,1,0,1,0,,,,,1,3,39,31,,,,,,down,0.6004667896850151,2277.3517056810124,None,001,36,2019_Oct_16_1557,ACPT_experiment_5_30_19,3.1.0,59.952133714562706,
,,,C,D,d,v,L,D,y,R,y,,,,,5,19,119,18,1,0,1,0,,,,,1,4,40,33,,,,,,down,1.0674584140942898,2279.2531757485485,None,001,36,2019_Oct_16_1557,ACPT_experiment_5_30_19,3.1.0,59.952133714562706,
,,,C,D,d,v,R,U,d,L,u,,,,,5,19,119,18,1,0,1,0,,,,,1,5,41,8,,,,,,down,1.3677130897594907,2281.604953271224,None,001,36,2019_Oct_16_1557,ACPT_experiment_5_30_19,3.1.0,59.952133714562706,
,,,C,D,d,v,R,D,d,R,c ,,,,,5,19,119,18,1,0,1,0,,,,,1,6,42,1,,,,,,up,0.8506457146577304,2284.2569733953424,None,001,36,2019_Oct_16_1557,ACPT_experiment_5_30_19,3.1.0,59.952133714562706,
,,,C,D,d,v,L,D,y,L,y,,,,,5,19,119,18,1,0,1,0,,,,,1,7,43,32,,,,,,down,1.0674753180137486,2286.3919379167273,None,001,36,2019_Oct_16_1557,ACPT_experiment_5_30_19,3.1.0,59.952133714562706,
,,,C,D,d,v,R,D,d,L,c,,,,,5,19,119,18,1,0,1,0,,,,,1,8,44,0,,,,,,up,1.0841465074845473,2288.7437392860083,None,001,36,2019_Oct_16_1557,ACPT_experiment_5_30_19,3.1.0,59.952133714562706,
,,,C,D,d,v,R,D,g,R,i,,,,,5,19,119,18,1,0,1,0,,,,,1,9,45,3,,,,,,down,2.368493990506977,2291.09550081033,None,001,36,2019_Oct_16_1557,ACPT_experiment_5_30_19,3.1.0,59.952133714562706,
,,,C,D,d,v,R,D,y,L,y,,,,,5,19,119,18,1,0,1,0,,,,,1,10,46,26,,,,,,down,0.8340306703539682,2294.748306664882,None,001,36,2019_Oct_16_1557,ACPT_experiment_5_30_19,3.1.0,59.952133714562706,
,,,C,D,d,v,L,G,g,R,c ,,,,,5,19,119,18,1,0,1,0,,,,,1,11,47,19,,,,,,up,1.71797982456701,2296.8665846021577,None,001,36,2019_Oct_16_1557,ACPT_experiment_5_30_19,3.1.0,59.952133714562706,
,,,C,D,d,v,R,U,y,L,u,,,,,5,19,119,18,1,0,1,0,,,,,1,12,48,30,,,,,,down,0.6838803914833989,2299.868877196339,None,001,36,2019_Oct_16_1557,ACPT_experiment_5_30_19,3.1.0,59.952133714562706,
,,,C,D,d,v,R,D,g,L,i,,,,,5,19,119,18,1,0,1,0,,,,,1,13,49,2,,,,,,down,1.3343492790627351,2301.8370410774296,None,001,36,2019_Oct_16_1557,ACPT_experiment_5_30_19,3.1.0,59.952133714562706,
,,,C,D,d,v,L,D,g,R,i,,,,,5,19,119,18,1,0,1,0,,,,,1,14,50,15,,,,,,down,0.6338185261520266,2304.455704031672,None,001,36,2019_Oct_16_1557,ACPT_experiment_5_30_19,3.1.0,59.952133714562706,
,,,C,D,d,v,R,D,y,R,y,,,,,5,19,119,18,1,0,1,0,,,,,1,15,51,27,,,,,,down,0.8339718084862398,2306.373833516307,None,001,36,2019_Oct_16_1557,ACPT_experiment_5_30_19,3.1.0,59.952133714562706,
,,,C,D,d,v,L,D,d,R,c ,,,,,5,19,119,18,1,0,1,0,,,,,1,16,52,13,,,,,,up,0.8506722779638949,2308.4921144721375,None,001,36,2019_Oct_16_1557,ACPT_experiment_5_30_19,3.1.0,59.952133714562706,
,,,C,D,d,v,L,G,y,R,y,,,,,5,19,119,18,1,0,1,0,,,,,1,17,53,35,,,,,,down,0.7338945636111021,2310.6270777861027,None,001,36,2019_Oct_16_1557,ACPT_experiment_5_30_19,3.1.0,59.952133714562706,
,,,C,D,d,v,L,D,d,L,c ,,,,,5,19,119,18,1,0,1,0,,,,,1,18,54,12,,,,,,up,0.9173630729637807,2312.6452830063354,None,001,36,2019_Oct_16_1557,ACPT_experiment_5_30_19,3.1.0,59.952133714562706,
,,,C,D,d,v,R,G,d,L,i,,,,,5,19,119,18,1,0,1,0,,,,,1,19,55,4,,,,,,down,0.8840059030917473,2314.8469603581907,None,001,36,2019_Oct_16_1557,ACPT_experiment_5_30_19,3.1.0,59.952133714562706,
,,,C,D,d,v,L,D,g,L,i,,,,,5,19,119,18,1,0,1,0,,,,,1,20,56,14,,,,,,down,1.1509465742565226,2317.0152847661557,None,001,36,2019_Oct_16_1557,ACPT_experiment_5_30_19,3.1.0,59.952133714562706,
,,,C,D,d,v,R,G,y,L,y,,,,,5,19,119,18,1,0,1,0,,,,,1,21,57,28,,,,,,down,0.7505648475125781,2319.4504764943413,None,001,36,2019_Oct_16_1557,ACPT_experiment_5_30_19,3.1.0,59.952133714562706,
,,,C,D,d,v,R,G,y,R,y,,,,,5,19,119,18,1,0,1,0,,,,,1,22,58,29,,,,,,down,0.7005594292022579,2321.4686566605487,None,001,36,2019_Oct_16_1557,ACPT_experiment_5_30_19,3.1.0,59.952133714562706,
,,,C,D,d,v,L,U,y,L,u,,,,,5,19,119,18,1,0,1,0,,,,,1,23,59,24,,,,,,down,0.8506722779638949,2323.4535219166864,None,001,36,2019_Oct_16_1557,ACPT_experiment_5_30_19,3.1.0,59.952133714562706,
,,,C,D,d,v,R,G,g,R,c ,,,,,5,19,119,18,1,0,1,0,,,,,1,24,60,7,,,,,,up,1.167562222275592,2325.58848462694,None,001,36,2019_Oct_16_1557,ACPT_experiment_5_30_19,3.1.0,59.952133714562706,
,,,C,D,d,v,R,G,d,R,i,,,,,5,19,119,18,1,0,1,0,,,,,1,25,61,5,,,,,,down,1.1008509010825946,2328.0236703180126,None,001,36,2019_Oct_16_1557,ACPT_experiment_5_30_19,3.1.0,59.952133714562706,
,,,C,D,d,v,L,G,g,L,c ,,,,,5,19,119,18,1,0,1,0,,,,,1,26,62,18,,,,,,up,0.9473956039546465,2330.428837665313,None,001,36,2019_Oct_16_1557,ACPT_experiment_5_30_19,3.1.0,59.952133714562706,
,,,C,D,d,v,L,U,d,R,u,,,,,5,19,119,18,1,0,1,0,,,,,1,27,63,21,,,,,,down,1.2342780713006505,2332.660541511046,None,001,36,2019_Oct_16_1557,ACPT_experiment_5_30_19,3.1.0,59.952133714562706,
,,,C,D,d,v,L,G,d,R,i,,,,,5,19,119,18,1,0,1,0,,,,,1,28,64,17,,,,,,down,1.4677867123718897,2335.1791254092786,None,001,36,2019_Oct_16_1557,ACPT_experiment_5_30_19,3.1.0,59.952133714562706,
,,,C,D,d,v,R,U,d,R,u,,,,,5,19,119,18,1,0,1,0,,,,,1,29,65,9,,,,,,down,1.9515065769846842,2337.931209194765,None,001,36,2019_Oct_16_1557,ACPT_experiment_5_30_19,3.1.0,59.952133714562706,
,,,C,D,d,v,R,U,g,R,u,,,,,5,19,119,18,1,0,1,0,,,,,1,30,66,11,,,,,,down,1.084188465429179,2341.150330486733,None,001,36,2019_Oct_16_1557,ACPT_experiment_5_30_19,3.1.0,59.952133714562706,
,,,C,D,d,v,L,G,d,L,i,,,,,5,19,119,18,1,0,1,0,,,,,1,31,67,16,,,,,,down,2.0515681253637013,2343.518816930846,None,001,36,2019_Oct_16_1557,ACPT_experiment_5_30_19,3.1.0,59.952133714562706,
,,,C,D,d,v,L,G,y,L,y,,,,,5,19,119,18,1,0,1,0,,,,,1,32,68,34,,,,,,down,0.8840523888684402,2346.8379967526344,None,001,36,2019_Oct_16_1557,ACPT_experiment_5_30_19,3.1.0,59.952133714562706,
,,,C,D,d,v,L,U,g,L,u,,,,,5,19,119,18,1,0,1,0,,,,,1,33,69,22,,,,,,down,1.5011411655432312,2349.00633987565,None,001,36,2019_Oct_16_1557,ACPT_experiment_5_30_19,3.1.0,59.952133714562706,
,,,C,D,d,v,L,U,d,L,u,,,,,5,19,119,18,1,0,1,0,,,,,1,34,70,20,,,,,,down,0.46710602772509446,2351.7917953200886,None,001,36,2019_Oct_16_1557,ACPT_experiment_5_30_19,3.1.0,59.952133714562706,
,,,C,D,d,v,R,G,g,L,c ,,,,,5,19,119,18,1,0,1,0,,,,,1,35,71,6,,,,,,up,1.2176099003845593,2353.543110580915,None,001,36,2019_Oct_16_1557,ACPT_experiment_5_30_19,3.1.0,59.952133714562706,
,,,C,D,d,v,,,,,,,,,,5,19,119,18,2,0,2,0,0,0,0,0,,,,,,,,,,,,,,001,36,2019_Oct_16_1557,ACPT_experiment_5_30_19,3.1.0,59.952133714562706,
,,,C,D,d,v,R,U,d,L,u,,,,,5,19,119,18,2,0,2,0,,,,,0,0,0,8,,,,,,down,1.1339182894662372,2409.352626340955,None,001,36,2019_Oct_16_1557,ACPT_experiment_5_30_19,3.1.0,59.952133714562706,
,,,C,D,d,v,R,D,y,R,y,,,,,5,19,119,18,2,0,2,0,,,,,0,1,1,27,,,,,,down,1.0007636949667358,2411.770859814882,None,001,36,2019_Oct_16_1557,ACPT_experiment_5_30_19,3.1.0,59.952133714562706,
,,,C,D,d,v,L,D,d,L,c ,,,,,5,19,119,18,2,0,2,0,,,,,0,2,2,12,,,,,,up,0.8673492026937311,2414.055913942142,None,001,36,2019_Oct_16_1557,ACPT_experiment_5_30_19,3.1.0,59.952133714562706,
,,,C,D,d,v,R,G,g,R,c ,,,,,5,19,119,18,2,0,2,0,,,,,0,3,3,7,,,,,,up,0.8172351163229905,2416.20755659568,None,001,36,2019_Oct_16_1557,ACPT_experiment_5_30_19,3.1.0,59.952133714562706,
,,,C,D,d,v,R,U,d,R,u,,,,,5,19,119,18,2,0,2,0,,,,,0,4,4,9,,,,,,down,0.7505914108151046,2418.309181454828,None,001,36,2019_Oct_16_1557,ACPT_experiment_5_30_19,3.1.0,59.952133714562706,
,,,C,D,d,v,L,G,g,L,c ,,,,,5,19,119,18,2,0,2,0,,,,,0,5,5,18,,,,,,up,3.1524006132494833,2420.3440657127794,None,001,36,2019_Oct_16_1557,ACPT_experiment_5_30_19,3.1.0,59.952133714562706,
,,,C,D,d,v,R,G,d,R,i,,,,,5,19,119,18,2,0,2,0,,,,,0,6,6,5,,,,,,down,0.9006773944165616,2424.7807899624495,None,001,36,2019_Oct_16_1557,ACPT_experiment_5_30_19,3.1.0,59.952133714562706,
,,,C,D,d,v,L,G,d,L,i,,,,,5,19,119,18,2,0,2,0,,,,,0,7,7,16,,,,,,down,1.3843782421208743,2426.9657858617393,None,001,36,2019_Oct_16_1557,ACPT_experiment_5_30_19,3.1.0,59.952133714562706,
,,,C,D,d,v,L,D,d,R,c ,,,,,5,19,119,18,2,0,2,0,,,,,0,8,8,13,,,,,,up,1.000785730437201,2429.6177764039967,None,001,36,2019_Oct_16_1557,ACPT_experiment_5_30_19,3.1.0,59.952133714562706,
,,,C,D,d,v,R,G,y,R,y,,,,,5,19,119,18,2,0,2,0,,,,,0,9,9,29,,,,,,down,0.800606790366146,2431.9028758096138,None,001,36,2019_Oct_16_1557,ACPT_experiment_5_30_19,3.1.0,59.952133714562706,
,,,C,D,d,v,L,U,y,L,u,,,,,5,19,119,18,2,0,2,0,,,,,0,10,10,24,,,,,,down,0.8007233066709887,2433.9711184448606,None,001,36,2019_Oct_16_1557,ACPT_experiment_5_30_19,3.1.0,59.952133714562706,
,,,C,D,d,v,L,D,g,R,i,,,,,5,19,119,18,2,0,2,0,,,,,0,11,11,15,,,,,,down,1.1842349210237444,2436.0560425326767,None,001,36,2019_Oct_16_1557,ACPT_experiment_5_30_19,3.1.0,59.952133714562706,
,,,C,D,d,v,R,U,y,R,u,,,,,5,19,119,18,2,0,2,0,,,,,0,12,12,31,,,,,,down,0.767233923994354,2438.541275901862,None,001,36,2019_Oct_16_1557,ACPT_experiment_5_30_19,3.1.0,59.952133714562706,
,,,C,D,d,v,L,U,d,L,u,,,,,5,19,119,18,2,0,2,0,,,,,0,13,13,20,,,,,,down,0.9840701681714563,2440.626200291532,None,001,36,2019_Oct_16_1557,ACPT_experiment_5_30_19,3.1.0,59.952133714562706,
,,,C,D,d,v,L,G,y,L,y,,,,,5,19,119,18,2,0,2,0,,,,,0,14,14,34,,,,,,down,1.0007576578536828,2442.9613075303023,None,001,36,2019_Oct_16_1557,ACPT_experiment_5_30_19,3.1.0,59.952133714562706,
,,,C,D,d,v,R,U,g,L,u,,,,,5,19,119,18,2,0,2,0,,,,,0,15,15,10,,,,,,down,0.8006245998549275,2445.2630678622954,None,001,36,2019_Oct_16_1557,ACPT_experiment_5_30_19,3.1.0,59.952133714562706,
,,,C,D,d,v,R,D,d,R,c ,,,,,5,19,119,18,2,0,2,0,,,,,0,16,16,1,,,,,,up,0.93402581047485,2447.348003420626,None,001,36,2019_Oct_16_1557,ACPT_experiment_5_30_19,3.1.0,59.952133714562706,
,,,C,D,d,v,R,G,y,L,y,,,,,5,19,119,18,2,0,2,0,,,,,0,17,17,28,,,,,,down,0.8006037718114385,2449.5663558860797,None,001,36,2019_Oct_16_1557,ACPT_experiment_5_30_19,3.1.0,59.952133714562706,
,,,C,D,d,v,R,U,g,R,u,,,,,5,19,119,18,2,0,2,0,,,,,0,18,18,11,,,,,,down,1.367712184193806,2451.6512675978083,None,001,36,2019_Oct_16_1557,ACPT_experiment_5_30_19,3.1.0,59.952133714562706,
,,,C,D,d,v,R,D,y,L,y,,,,,5,19,119,18,2,0,2,0,,,,,0,19,19,26,,,,,,down,0.9507754824335279,2454.303293155328,None,001,36,2019_Oct_16_1557,ACPT_experiment_5_30_19,3.1.0,59.952133714562706,
,,,C,D,d,v,L,G,y,R,y,,,,,5,19,119,18,2,0,2,0,,,,,0,20,20,35,,,,,,down,1.7313372419594089,2456.5583410130457,None,001,36,2019_Oct_16_1557,ACPT_experiment_5_30_19,3.1.0,59.952133714562706,
,,,C,D,d,v,R,D,g,R,i,,,,,5,19,119,18,2,0,2,0,,,,,0,21,21,3,,,,,,down,1.401079013452545,2459.573973516988,None,001,36,2019_Oct_16_1557,ACPT_experiment_5_30_19,3.1.0,59.952133714562706,
,,,C,D,d,v,L,U,y,R,u,,,,,5,19,119,18,2,0,2,0,,,,,0,22,22,25,,,,,,down,1.467787919795228,2462.259352320256,None,001,36,2019_Oct_16_1557,ACPT_experiment_5_30_19,3.1.0,59.952133714562706,
,,,C,D,d,v,L,U,g,L,u,,,,,5,19,119,18,2,0,2,0,,,,,0,23,23,22,,,,,,down,1.4177499010693282,2465.0114524059536,None,001,36,2019_Oct_16_1557,ACPT_experiment_5_30_19,3.1.0,59.952133714562706,
,,,C,D,d,v,L,G,g,R,c ,,,,,5,19,119,18,2,0,2,0,,,,,0,24,24,19,,,,,,up,1.1175154497323092,2467.7135208118925,None,001,36,2019_Oct_16_1557,ACPT_experiment_5_30_19,3.1.0,59.952133714562706,
,,,C,D,d,v,R,U,y,L,u,,,,,5,19,119,18,2,0,2,0,,,,,0,25,25,30,,,,,,down,0.8673132818621525,2470.115356879487,None,001,36,2019_Oct_16_1557,ACPT_experiment_5_30_19,3.1.0,59.952133714562706,
,,,C,D,d,v,L,D,y,R,y,,,,,5,19,119,18,2,0,2,0,,,,,0,26,26,33,,,,,,down,2.018196164561232,2472.2669886662225,None,001,36,2019_Oct_16_1557,ACPT_experiment_5_30_19,3.1.0,59.952133714562706,
,,,C,D,d,v,R,D,g,L,i,,,,,5,19,119,18,2,0,2,0,,,,,0,27,27,2,,,,,,down,1.4177948775686673,2475.5695027319452,None,001,36,2019_Oct_16_1557,ACPT_experiment_5_30_19,3.1.0,59.952133714562706,
,,,C,D,d,v,L,U,d,R,u,,,,,5,19,119,18,2,0,2,0,,,,,0,28,28,21,,,,,,down,1.5178174865613983,2478.2715632896325,None,001,36,2019_Oct_16_1557,ACPT_experiment_5_30_19,3.1.0,59.952133714562706,
,,,C,D,d,v,L,D,g,L,i,,,,,5,19,119,18,2,0,2,0,,,,,0,29,29,14,,,,,,down,1.484490502258268,2481.0736745288996,None,001,36,2019_Oct_16_1557,ACPT_experiment_5_30_19,3.1.0,59.952133714562706,
,,,C,D,d,v,L,G,d,R,i,,,,,5,19,119,18,2,0,2,0,,,,,0,30,30,17,,,,,,down,1.5511994086045888,2483.8424781026297,None,001,36,2019_Oct_16_1557,ACPT_experiment_5_30_19,3.1.0,59.952133714562706,
,,,C,D,d,v,L,U,g,R,u,,,,,5,19,119,18,2,0,2,0,,,,,0,31,31,23,,,,,,down,0.90070939112411,2486.677969452805,None,001,36,2019_Oct_16_1557,ACPT_experiment_5_30_19,3.1.0,59.952133714562706,
,,,C,D,d,v,R,G,g,L,c ,,,,,5,19,119,18,2,0,2,0,,,,,0,32,32,6,,,,,,up,1.4177369212738995,2488.862972898485,None,001,36,2019_Oct_16_1557,ACPT_experiment_5_30_19,3.1.0,59.952133714562706,
,,,C,D,d,v,L,D,y,L,y,,,,,5,19,119,18,2,0,2,0,,,,,0,33,33,32,,,,,,down,0.9508636243008368,2491.5650228912273,None,001,36,2019_Oct_16_1557,ACPT_experiment_5_30_19,3.1.0,59.952133714562706,
,,,C,D,d,v,R,D,d,L,c,,,,,5,19,119,18,2,0,2,0,,,,,0,34,34,0,,,,,,up,3.1857632165265386,2493.800068279761,None,001,36,2019_Oct_16_1557,ACPT_experiment_5_30_19,3.1.0,59.952133714562706,
,,,C,D,d,v,R,G,d,L,i,,,,,5,19,119,18,2,0,2,0,,,,,0,35,35,4,,,,,,down,1.9848320520068228,2498.253477000555,None,001,36,2019_Oct_16_1557,ACPT_experiment_5_30_19,3.1.0,59.952133714562706,
,,,C,D,d,v,L,D,d,R,c ,,,,,5,19,119,18,2,0,2,0,,,,,1,0,36,13,,,,,,up,6.021250944431813,2501.5226254444424,None,001,36,2019_Oct_16_1557,ACPT_experiment_5_30_19,3.1.0,59.952133714562706,
,,,C,D,d,v,R,G,y,R,y,,,,,5,19,119,18,2,0,2,0,,,,,1,1,37,29,,,,,,down,0.7338782633996743,2508.828205760554,None,001,36,2019_Oct_16_1557,ACPT_experiment_5_30_19,3.1.0,59.952133714562706,
,,,C,D,d,v,L,U,d,R,u,,,,,5,19,119,18,2,0,2,0,,,,,1,2,38,21,,,,,,down,3.5026706684657256,2510.8463952842867,None,001,36,2019_Oct_16_1557,ACPT_experiment_5_30_19,3.1.0,59.952133714562706,
,,,C,D,d,v,L,U,y,L,u,,,,,5,19,119,18,2,0,2,0,,,,,1,3,39,24,,,,,,down,1.000758865277021,2515.6333744963886,None,001,36,2019_Oct_16_1557,ACPT_experiment_5_30_19,3.1.0,59.952133714562706,
,,,C,D,d,v,R,D,y,L,y,,,,,5,19,119,18,2,0,2,0,,,,,1,4,40,26,,,,,,down,0.8672924538186635,2517.9184775242757,None,001,36,2019_Oct_16_1557,ACPT_experiment_5_30_19,3.1.0,59.952133714562706,
,,,C,D,d,v,L,U,g,R,u,,,,,5,19,119,18,2,0,2,0,,,,,1,5,41,23,,,,,,down,0.9173503950223676,2520.0701141407008,None,001,36,2019_Oct_16_1557,ACPT_experiment_5_30_19,3.1.0,59.952133714562706,
,,,C,D,d,v,L,G,d,L,i,,,,,5,19,119,18,2,0,2,0,,,,,1,6,42,16,,,,,,down,1.134077669288672,2522.2718572971025,None,001,36,2019_Oct_16_1557,ACPT_experiment_5_30_19,3.1.0,59.952133714562706,
,,,C,D,d,v,L,G,y,L,y,,,,,5,19,119,18,2,0,2,0,,,,,1,7,43,34,,,,,,down,0.7005280362100166,2524.690283656837,None,001,36,2019_Oct_16_1557,ACPT_experiment_5_30_19,3.1.0,59.952133714562706,
,,,C,D,d,v,R,U,d,L,u,,,,,5,19,119,18,2,0,2,0,,,,,1,8,44,8,,,,,,down,1.3676958839860163,2526.6751443851354,None,001,36,2019_Oct_16_1557,ACPT_experiment_5_30_19,3.1.0,59.952133714562706,
,,,C,D,d,v,L,G,g,R,c ,,,,,5,19,119,18,2,0,2,0,,,,,1,9,45,19,,,,,,up,1.1675546758815472,2529.3271530387356,None,001,36,2019_Oct_16_1557,ACPT_experiment_5_30_19,3.1.0,59.952133714562706,
,,,C,D,d,v,R,D,g,R,i,,,,,5,19,119,18,2,0,2,0,,,,,1,10,46,3,,,,,,down,0.9340569016167137,2531.779021389797,None,001,36,2019_Oct_16_1557,ACPT_experiment_5_30_19,3.1.0,59.952133714562706,
,,,C,D,d,v,R,D,d,L,c,,,,,5,19,119,18,2,0,2,0,,,,,1,11,47,0,,,,,,up,0.88400409195674,2533.997377477517,None,001,36,2019_Oct_16_1557,ACPT_experiment_5_30_19,3.1.0,59.952133714562706,
,,,C,D,d,v,R,U,g,L,u,,,,,5,19,119,18,2,0,2,0,,,,,1,12,48,10,,,,,,down,1.067542933695222,2536.165675322176,None,001,36,2019_Oct_16_1557,ACPT_experiment_5_30_19,3.1.0,59.952133714562706,
,,,C,D,d,v,R,D,g,L,i,,,,,5,19,119,18,2,0,2,0,,,,,1,13,49,2,,,,,,down,1.200914260600257,2538.517492689807,None,001,36,2019_Oct_16_1557,ACPT_experiment_5_30_19,3.1.0,59.952133714562706,
,,,C,D,d,v,L,G,d,R,i,,,,,5,19,119,18,2,0,2,0,,,,,1,14,50,17,,,,,,down,1.4511119006310764,2541.002718210744,None,001,36,2019_Oct_16_1557,ACPT_experiment_5_30_19,3.1.0,59.952133714562706,
,,,C,D,d,v,R,G,g,L,c ,,,,,5,19,119,18,2,0,2,0,,,,,1,15,51,6,,,,,,up,1.1008285637581139,2543.7381431828435,None,001,36,2019_Oct_16_1557,ACPT_experiment_5_30_19,3.1.0,59.952133714562706,
,,,C,D,d,v,L,G,y,R,y,,,,,5,19,119,18,2,0,2,0,,,,,1,16,52,35,,,,,,down,0.8339539989974583,2546.1399692891973,None,001,36,2019_Oct_16_1557,ACPT_experiment_5_30_19,3.1.0,59.952133714562706,
,,,C,D,d,v,L,D,g,L,i,,,,,5,19,119,18,2,0,2,0,,,,,1,17,53,14,,,,,,down,1.6846120897462242,2548.2749286790386,None,001,36,2019_Oct_16_1557,ACPT_experiment_5_30_19,3.1.0,59.952133714562706,
,,,C,D,d,v,L,U,y,R,u,,,,,5,19,119,18,2,0,2,0,,,,,1,18,54,25,,,,,,down,0.8671868043165887,2551.2606379237623,None,001,36,2019_Oct_16_1557,ACPT_experiment_5_30_19,3.1.0,59.952133714562706,
,,,C,D,d,v,L,U,d,L,u,,,,,5,19,119,18,2,0,2,0,,,,,1,19,55,20,,,,,,down,1.2509492607678112,2553.428859097068,None,001,36,2019_Oct_16_1557,ACPT_experiment_5_30_19,3.1.0,59.952133714562706,
,,,C,D,d,v,R,G,d,R,i,,,,,5,19,119,18,2,0,2,0,,,,,1,20,56,5,,,,,,down,2.3017657653945207,2555.964122938589,None,001,36,2019_Oct_16_1557,ACPT_experiment_5_30_19,3.1.0,59.952133714562706,
,,,C,D,d,v,R,D,d,R,c ,,,,,5,19,119,18,2,0,2,0,,,,,1,21,57,1,,,,,,up,1.6178385862767755,2559.550239809272,None,001,36,2019_Oct_16_1557,ACPT_experiment_5_30_19,3.1.0,59.952133714562706,
,,,C,D,d,v,L,D,d,L,c ,,,,,5,19,119,18,2,0,2,0,,,,,1,22,58,12,,,,,,up,3.6027744766506657,2562.4357235979624,None,001,36,2019_Oct_16_1557,ACPT_experiment_5_30_19,3.1.0,59.952133714562706,
,,,C,D,d,v,L,U,g,L,u,,,,,5,19,119,18,2,0,2,0,,,,,1,23,59,22,,,,,,down,2.05158110515913,2567.3227872994794,None,001,36,2019_Oct_16_1557,ACPT_experiment_5_30_19,3.1.0,59.952133714562706,
,,,C,D,d,v,R,U,y,L,u,,,,,5,19,119,18,2,0,2,0,,,,,1,24,60,30,,,,,,down,0.5170634509777301,2570.658653403527,None,001,36,2019_Oct_16_1557,ACPT_experiment_5_30_19,3.1.0,59.952133714562706,
,,,C,D,d,v,R,U,d,R,u,,,,,5,19,119,18,2,0,2,0,,,,,1,25,61,9,,,,,,down,0.4003165259055095,2572.460037472367,None,001,36,2019_Oct_16_1557,ACPT_experiment_5_30_19,3.1.0,59.952133714562706,
,,,C,D,d,v,R,G,d,L,i,,,,,5,19,119,18,2,0,2,0,,,,,1,26,62,4,,,,,,down,1.0507956765795825,2574.144653788091,None,001,36,2019_Oct_16_1557,ACPT_experiment_5_30_19,3.1.0,59.952133714562706,
,,,C,D,d,v,L,D,g,R,i,,,,,5,19,119,18,2,0,2,0,,,,,1,27,63,15,,,,,,down,1.1342119950822962,2576.47976766769,None,001,36,2019_Oct_16_1557,ACPT_experiment_5_30_19,3.1.0,59.952133714562706,
,,,C,D,d,v,R,U,g,R,u,,,,,5,19,119,18,2,0,2,0,,,,,1,28,64,11,,,,,,down,1.1007005769388343,2578.8982906212514,None,001,36,2019_Oct_16_1557,ACPT_experiment_5_30_19,3.1.0,59.952133714562706,
,,,C,D,d,v,L,D,y,L,y,,,,,5,19,119,18,2,0,2,0,,,,,1,29,65,32,,,,,,down,0.9340976521380071,2581.2834265212223,None,001,36,2019_Oct_16_1557,ACPT_experiment_5_30_19,3.1.0,59.952133714562706,
,,,C,D,d,v,R,G,y,L,y,,,,,5,19,119,18,2,0,2,0,,,,,1,30,66,28,,,,,,down,0.7172375613554323,2583.4851038730776,None,001,36,2019_Oct_16_1557,ACPT_experiment_5_30_19,3.1.0,59.952133714562706,
,,,C,D,d,v,L,D,y,R,y,,,,,5,19,119,18,2,0,2,0,,,,,1,31,67,33,,,,,,down,0.7338882246403955,2585.4866342815694,None,001,36,2019_Oct_16_1557,ACPT_experiment_5_30_19,3.1.0,59.952133714562706,
,,,C,D,d,v,R,G,g,R,c ,,,,,5,19,119,18,2,0,2,0,,,,,1,32,68,7,,,,,,up,1.934814257609105,2587.5048361813897,None,001,36,2019_Oct_16_1557,ACPT_experiment_5_30_19,3.1.0,59.952133714562706,
,,,C,D,d,v,R,D,y,R,y,,,,,5,19,119,18,2,0,2,0,,,,,1,33,69,27,,,,,,down,0.8006149404682219,2590.7239457009855,None,001,36,2019_Oct_16_1557,ACPT_experiment_5_30_19,3.1.0,59.952133714562706,
,,,C,D,d,v,L,G,g,L,c ,,,,,5,19,119,18,2,0,2,0,,,,,1,34,70,18,,,,,,up,1.4844633352477103,2592.8089096337535,None,001,36,2019_Oct_16_1557,ACPT_experiment_5_30_19,3.1.0,59.952133714562706,
,,,C,D,d,v,R,U,y,R,u,,,,,5,19,119,18,2,0,2,0,,,,,1,35,71,31,,,,,,down,0.7672915784387442,2595.5776606845902,None,001,36,2019_Oct_16_1557,ACPT_experiment_5_30_19,3.1.0,59.952133714562706,
,,,C,D,d,v,,,,,,,,,,5,19,119,18,3,0,3,0,0,0,0,0,,,,,,,,,,,,,,001,36,2019_Oct_16_1557,ACPT_experiment_5_30_19,3.1.0,59.952133714562706,
,,,C,D,d,v,R,U,d,R,u,,,,,5,19,119,18,3,0,3,0,,,,,0,0,0,9,,,,,,down,0.8835745512697031,2658.025673734417,None,001,36,2019_Oct_16_1557,ACPT_experiment_5_30_19,3.1.0,59.952133714562706,
,,,C,D,d,v,R,U,y,R,u,,,,,5,19,119,18,3,0,3,0,,,,,0,1,1,31,,,,,,down,0.48350252849559183,2660.21042814913,None,001,36,2019_Oct_16_1557,ACPT_experiment_5_30_19,3.1.0,59.952133714562706,
,,,C,D,d,v,R,G,y,R,y,,,,,5,19,119,18,3,0,3,0,,,,,0,2,2,29,,,,,,down,0.8172870355083433,2661.994965952181,None,001,36,2019_Oct_16_1557,ACPT_experiment_5_30_19,3.1.0,59.952133714562706,
,,,C,D,d,v,R,G,y,L,y,,,,,5,19,119,18,3,0,3,0,,,,,0,3,3,28,,,,,,down,1.050812882356695,2664.0965560979203,None,001,36,2019_Oct_16_1557,ACPT_experiment_5_30_19,3.1.0,59.952133714562706,
,,,C,D,d,v,L,U,g,R,u,,,,,5,19,119,18,3,0,3,0,,,,,0,4,4,23,,,,,,down,1.100821017367707,2666.4317010686573,None,001,36,2019_Oct_16_1557,ACPT_experiment_5_30_19,3.1.0,59.952133714562706,
,,,C,D,d,v,L,G,g,L,c ,,,,,5,19,119,18,3,0,3,0,,,,,0,5,5,18,,,,,,down,0.8339636583805259,2668.816836968632,None,001,36,2019_Oct_16_1557,ACPT_experiment_5_30_19,3.1.0,59.952133714562706,
,,,C,D,d,v,R,D,g,R,i,,,,,5,19,119,18,3,0,3,0,,,,,0,6,6,3,,,,,,down,0.9507468061383406,2670.9350937760064,None,001,36,2019_Oct_16_1557,ACPT_experiment_5_30_19,3.1.0,59.952133714562706,
,,,C,D,d,v,L,U,d,R,u,,,,,5,19,119,18,3,0,3,0,,,,,0,7,7,21,,,,,,down,0.7172010368158226,2673.1701578795946,None,001,36,2019_Oct_16_1557,ACPT_experiment_5_30_19,3.1.0,59.952133714562706,
,,,C,D,d,v,R,U,g,R,u,,,,,5,19,119,18,3,0,3,0,,,,,0,8,8,11,,,,,,down,0.733796460503072,2675.1716611210722,None,001,36,2019_Oct_16_1557,ACPT_experiment_5_30_19,3.1.0,59.952133714562706,
,,,C,D,d,v,R,D,d,L,c,,,,,5,19,119,18,3,0,3,0,,,,,0,9,9,0,,,,,,up,0.8006028662421159,2677.1898865656367,None,001,36,2019_Oct_16_1557,ACPT_experiment_5_30_19,3.1.0,59.952133714562706,
,,,C,D,d,v,R,D,d,R,c ,,,,,5,19,119,18,3,0,3,0,,,,,0,10,10,1,,,,,,up,0.6338130927506427,2679.2748109553067,None,001,36,2019_Oct_16_1557,ACPT_experiment_5_30_19,3.1.0,59.952133714562706,
,,,C,D,d,v,L,D,y,R,y,,,,,5,19,119,18,3,0,3,0,,,,,0,11,11,33,,,,,,down,0.7172411836254469,2681.1929153859164,None,001,36,2019_Oct_16_1557,ACPT_experiment_5_30_19,3.1.0,59.952133714562706,
,,,C,D,d,v,L,D,g,R,i,,,,,5,19,119,18,3,0,3,0,,,,,0,12,12,15,,,,,,down,1.2009166754469334,2683.1944611890503,None,001,36,2019_Oct_16_1557,ACPT_experiment_5_30_19,3.1.0,59.952133714562706,
,,,C,D,d,v,L,D,d,R,c ,,,,,5,19,119,18,3,0,3,0,,,,,0,13,13,13,,,,,,up,0.8506574870334589,2685.662995598035,None,001,36,2019_Oct_16_1557,ACPT_experiment_5_30_19,3.1.0,59.952133714562706,
,,,C,D,d,v,L,G,d,L,i,,,,,5,19,119,18,3,0,3,0,,,,,0,14,14,16,,,,,,down,1.4177450713759754,2687.7979743066426,None,001,36,2019_Oct_16_1557,ACPT_experiment_5_30_19,3.1.0,59.952133714562706,
,,,C,D,d,v,L,U,g,L,u,,,,,5,19,119,18,3,0,3,0,,,,,0,15,15,22,,,,,,down,0.8840997802217316,2690.500019771549,None,001,36,2019_Oct_16_1557,ACPT_experiment_5_30_19,3.1.0,59.952133714562706,
,,,C,D,d,v,R,G,d,L,i,,,,,5,19,119,18,3,0,3,0,,,,,0,16,16,4,,,,,,up,1.2676273929246236,2692.6683556500284,None,001,36,2019_Oct_16_1557,ACPT_experiment_5_30_19,3.1.0,59.952133714562706,
,,,C,D,d,v,L,U,y,L,u,,,,,5,19,119,18,3,0,3,0,,,,,0,17,17,24,,,,,,down,0.7672408666767296,2695.2369778688444,None,001,36,2019_Oct_16_1557,ACPT_experiment_5_30_19,3.1.0,59.952133714562706,
,,,C,D,d,v,R,G,g,R,c ,,,,,5,19,119,18,3,0,3,0,,,,,0,18,18,7,,,,,,up,2.752108839511493,2697.3052253337846,None,001,36,2019_Oct_16_1557,ACPT_experiment_5_30_19,3.1.0,59.952133714562706,
,,,C,D,d,v,L,D,y,L,y,,,,,5,19,119,18,3,0,3,0,,,,,0,19,19,32,,,,,,down,1.1174943198311666,2701.341655696724,None,001,36,2019_Oct_16_1557,ACPT_experiment_5_30_19,3.1.0,59.952133714562706,
,,,C,D,d,v,L,G,d,R,i,,,,,5,19,119,18,3,0,3,0,,,,,0,20,20,17,,,,,,down,1.184128969667654,2703.743459767611,None,001,36,2019_Oct_16_1557,ACPT_experiment_5_30_19,3.1.0,59.952133714562706,
,,,C,D,d,v,R,U,d,L,u,,,,,5,19,119,18,3,0,3,0,,,,,0,21,21,8,,,,,,down,0.6504897156264633,2706.212011382373,None,001,36,2019_Oct_16_1557,ACPT_experiment_5_30_19,3.1.0,59.952133714562706,
,,,C,D,d,v,R,U,g,L,u,,,,,5,19,119,18,3,0,3,0,,,,,0,22,22,10,,,,,,down,1.6846359363444208,2708.146818999161,None,001,36,2019_Oct_16_1557,ACPT_experiment_5_30_19,3.1.0,59.952133714562706,
,,,C,D,d,v,R,G,g,L,c ,,,,,5,19,119,18,3,0,3,0,,,,,0,23,23,6,,,,,,up,1.5011462970905995,2711.0990717634777,None,001,36,2019_Oct_16_1557,ACPT_experiment_5_30_19,3.1.0,59.952133714562706,
,,,C,D,d,v,L,D,d,L,c ,,,,,5,19,119,18,3,0,3,0,,,,,0,24,24,12,,,,,,up,0.8339757326102699,2713.884529320905,None,001,36,2019_Oct_16_1557,ACPT_experiment_5_30_19,3.1.0,59.952133714562706,
,,,C,D,d,v,L,D,g,L,i,,,,,5,19,119,18,3,0,3,0,,,,,0,25,25,14,,,,,,down,2.585332347673102,2715.986106788703,None,001,36,2019_Oct_16_1557,ACPT_experiment_5_30_19,3.1.0,59.952133714562706,
,,,C,D,d,v,R,G,d,R,i,,,,,5,19,119,18,3,0,3,0,,,,,0,26,26,5,,,,,,down,6.621739467726002,2719.8557211167063,None,001,36,2019_Oct_16_1557,ACPT_experiment_5_30_19,3.1.0,59.952133714562706,
,,,C,D,d,v,R,D,y,L,y,,,,,5,19,119,18,3,0,3,0,,,,,0,27,27,26,,,,,,down,1.050820126896724,2727.7617510167256,None,001,36,2019_Oct_16_1557,ACPT_experiment_5_30_19,3.1.0,59.952133714562706,
,,,C,D,d,v,L,G,g,R,c ,,,,,5,19,119,18,3,0,3,0,,,,,0,28,28,19,,,,,,up,3.102364405654953,2730.0968908559116,None,001,36,2019_Oct_16_1557,ACPT_experiment_5_30_19,3.1.0,59.952133714562706,
,,,C,D,d,v,R,D,g,L,i,,,,,5,19,119,18,3,0,3,0,,,,,0,29,29,2,,,,,,down,1.2009100346185733,2734.4835604847904,None,001,36,2019_Oct_16_1557,ACPT_experiment_5_30_19,3.1.0,59.952133714562706,
,,,C,D,d,v,R,D,y,R,y,,,,,5,19,119,18,3,0,3,0,,,,,0,30,30,27,,,,,,down,0.6004580358676321,2736.968791439129,None,001,36,2019_Oct_16_1557,ACPT_experiment_5_30_19,3.1.0,59.952133714562706,
,,,C,D,d,v,L,G,y,R,y,,,,,5,19,119,18,3,0,3,0,,,,,0,31,31,35,,,,,,down,0.7505566974105022,2738.8535691872894,None,001,36,2019_Oct_16_1557,ACPT_experiment_5_30_19,3.1.0,59.952133714562706,
,,,C,D,d,v,L,G,y,L,y,,,,,5,19,119,18,3,0,3,0,,,,,0,32,32,34,,,,,,down,0.5839281148728332,2740.87161744255,None,001,36,2019_Oct_16_1557,ACPT_experiment_5_30_19,3.1.0,59.952133714562706,
,,,C,D,d,v,R,U,y,L,u,,,,,5,19,119,18,3,0,3,0,,,,,0,33,33,30,,,,,,down,0.7338873190710729,2742.7565440055805,None,001,36,2019_Oct_16_1557,ACPT_experiment_5_30_19,3.1.0,59.952133714562706,
,,,C,D,d,v,L,U,d,L,u,,,,,5,19,119,18,3,0,3,0,,,,,0,34,34,20,,,,,,down,0.9174020123500668,2744.791404416934,None,001,36,2019_Oct_16_1557,ACPT_experiment_5_30_19,3.1.0,59.952133714562706,
,,,C,D,d,v,L,U,y,R,u,,,,,5,19,119,18,3,0,3,0,,,,,0,35,35,25,,,,,,down,0.650490621192148,2746.9931044079676,None,001,36,2019_Oct_16_1557,ACPT_experiment_5_30_19,3.1.0,59.952133714562706,
,,,C,D,d,v,R,U,y,R,u,,,,,5,19,119,18,3,0,3,0,,,,,1,0,36,31,,,,,,down,0.5337464128242573,2748.911231477756,None,001,36,2019_Oct_16_1557,ACPT_experiment_5_30_19,3.1.0,59.952133714562706,
,,,C,D,d,v,L,G,g,L,c ,,,,,5,19,119,18,3,0,3,0,,,,,1,1,37,18,,,,,,up,1.0675064091483364,2750.72927949153,None,001,36,2019_Oct_16_1557,ACPT_experiment_5_30_19,3.1.0,59.952133714562706,
,,,C,D,d,v,R,G,g,R,c ,,,,,5,19,119,18,3,0,3,0,,,,,1,2,38,7,,,,,,up,0.7172052627938683,2753.0810790496726,None,001,36,2019_Oct_16_1557,ACPT_experiment_5_30_19,3.1.0,59.952133714562706,
,,,C,D,d,v,L,D,d,R,c ,,,,,5,19,119,18,3,0,3,0,,,,,1,3,39,13,,,,,,up,1.2175936001731316,2755.0826034210513,None,001,36,2019_Oct_16_1557,ACPT_experiment_5_30_19,3.1.0,59.952133714562706,
,,,C,D,d,v,L,D,y,R,y,,,,,5,19,119,18,3,0,3,0,,,,,1,4,40,33,,,,,,down,0.7005455438411445,2757.5678135473427,None,001,36,2019_Oct_16_1557,ACPT_experiment_5_30_19,3.1.0,59.952133714562706,
,,,C,D,d,v,L,U,g,L,u,,,,,5,19,119,18,3,0,3,0,,,,,1,5,41,22,,,,,,down,1.3343477697817434,2759.552677897911,None,001,36,2019_Oct_16_1557,ACPT_experiment_5_30_19,3.1.0,59.952133714562706,
,,,C,D,d,v,R,G,d,R,i,,,,,5,19,119,18,3,0,3,0,,,,,1,6,42,5,,,,,,down,1.4011197639738384,2762.1713414558653,None,001,36,2019_Oct_16_1557,ACPT_experiment_5_30_19,3.1.0,59.952133714562706,
,,,C,D,d,v,L,G,y,L,y,,,,,5,19,119,18,3,0,3,0,,,,,1,7,43,34,,,,,,down,1.184172738743655,2764.873455442019,None,001,36,2019_Oct_16_1557,ACPT_experiment_5_30_19,3.1.0,59.952133714562706,
,,,C,D,d,v,R,U,d,R,u,,,,,5,19,119,18,3,0,3,0,,,,,1,8,44,9,,,,,,down,0.9172323694401712,2767.3586432309894,None,001,36,2019_Oct_16_1557,ACPT_experiment_5_30_19,3.1.0,59.952133714562706,
,,,C,D,d,v,R,D,g,L,i,,,,,5,19,119,18,3,0,3,0,,,,,1,9,45,2,,,,,,down,1.0674964479112532,2769.5603094141843,None,001,36,2019_Oct_16_1557,ACPT_experiment_5_30_19,3.1.0,59.952133714562706,
,,,C,D,d,v,R,U,g,R,u,,,,,5,19,119,18,3,0,3,0,,,,,1,10,46,11,,,,,,down,2.1850016345488257,2771.912094483254,None,001,36,2019_Oct_16_1557,ACPT_experiment_5_30_19,3.1.0,59.952133714562706,
,,,C,D,d,v,R,U,d,L,u,,,,,5,19,119,18,3,0,3,0,,,,,1,11,47,8,,,,,,down,1.2175996372898226,2775.381407378136,None,001,36,2019_Oct_16_1557,ACPT_experiment_5_30_19,3.1.0,59.952133714562706,
,,,C,D,d,v,R,D,g,R,i,,,,,5,19,119,18,3,0,3,0,,,,,1,12,48,3,,,,,,down,1.0841422815028636,2777.8833336704047,None,001,36,2019_Oct_16_1557,ACPT_experiment_5_30_19,3.1.0,59.952133714562706,
,,,C,D,d,v,L,U,g,R,u,,,,,5,19,119,18,3,0,3,0,,,,,1,13,49,23,,,,,,down,0.8173084672635014,2780.2350912706024,None,001,36,2019_Oct_16_1557,ACPT_experiment_5_30_19,3.1.0,59.952133714562706,
,,,C,D,d,v,L,U,d,R,u,,,,,5,19,119,18,3,0,3,0,,,,,1,14,50,21,,,,,,down,0.9674258438608376,2782.320013245426,None,001,36,2019_Oct_16_1557,ACPT_experiment_5_30_19,3.1.0,59.952133714562706,
,,,C,D,d,v,L,G,y,R,y,,,,,5,19,119,18,3,0,3,0,,,,,1,15,51,35,,,,,,down,0.8840342775292811,2784.5717506514775,None,001,36,2019_Oct_16_1557,ACPT_experiment_5_30_19,3.1.0,59.952133714562706,
,,,C,D,d,v,R,U,g,L,u,,,,,5,19,119,18,3,0,3,0,,,,,1,16,52,10,,,,,,down,0.9173636766754498,2786.740070229749,None,001,36,2019_Oct_16_1557,ACPT_experiment_5_30_19,3.1.0,59.952133714562706,
,,,C,D,d,v,L,G,d,L,i,,,,,5,19,119,18,3,0,3,0,,,,,1,17,53,16,,,,,,down,1.0674822606961243,2788.941744261192,None,001,36,2019_Oct_16_1557,ACPT_experiment_5_30_19,3.1.0,59.952133714562706,
,,,C,D,d,v,R,D,y,R,y,,,,,5,19,119,18,3,0,3,0,,,,,1,18,54,27,,,,,,down,0.7670600550991367,2791.310377407186,None,001,36,2019_Oct_16_1557,ACPT_experiment_5_30_19,3.1.0,59.952133714562706,
,,,C,D,d,v,L,U,d,L,u,,,,,5,19,119,18,3,0,3,0,,,,,1,19,55,20,,,,,,down,1.0841489223275858,2793.378466397873,None,001,36,2019_Oct_16_1557,ACPT_experiment_5_30_19,3.1.0,59.952133714562706,
,,,C,D,d,v,R,G,y,R,y,,,,,5,19,119,18,3,0,3,0,,,,,1,20,56,29,,,,,,down,0.6671738848926907,2795.7469368436323,None,001,36,2019_Oct_16_1557,ACPT_experiment_5_30_19,3.1.0,59.952133714562706,
,,,C,D,d,v,R,G,y,L,y,,,,,5,19,119,18,3,0,3,0,,,,,1,21,57,28,,,,,,down,0.7005316584763932,2797.698420479581,None,001,36,2019_Oct_16_1557,ACPT_experiment_5_30_19,3.1.0,59.952133714562706,
,,,C,D,d,v,R,D,d,R,c ,,,,,5,19,119,18,3,0,3,0,,,,,1,22,58,1,,,,,,up,1.8013647500738443,2799.6832963006673,None,001,36,2019_Oct_16_1557,ACPT_experiment_5_30_19,3.1.0,59.952133714562706,
,,,C,D,d,v,R,D,d,L,c,,,,,5,19,119,18,3,0,3,0,,,,,1,23,59,0,,,,,,up,1.0508098637983494,2802.7689560108665,None,001,36,2019_Oct_16_1557,ACPT_experiment_5_30_19,3.1.0,59.952133714562706,
,,,C,D,d,v,L,D,d,L,c ,,,,,5,19,119,18,3,0,3,0,,,,,1,24,60,12,,,,,,up,0.6004516968969256,2805.104070796031,None,001,36,2019_Oct_16_1557,ACPT_experiment_5_30_19,3.1.0,59.952133714562706,
,,,C,D,d,v,L,G,d,R,i,,,,,5,19,119,18,3,0,3,0,,,,,1,25,61,17,,,,,,down,0.9674318809738907,2806.9888403940895,None,001,36,2019_Oct_16_1557,ACPT_experiment_5_30_19,3.1.0,59.952133714562706,
,,,C,D,d,v,L,D,g,R,i,,,,,5,19,119,18,3,0,3,0,,,,,1,26,62,15,,,,,,down,0.8673473915587238,2809.240534634773,None,001,36,2019_Oct_16_1557,ACPT_experiment_5_30_19,3.1.0,59.952133714562706,
,,,C,D,d,v,L,U,y,L,u,,,,,5,19,119,18,3,0,3,0,,,,,1,27,63,24,,,,,,down,0.6671732811810216,2811.3921941922345,None,001,36,2019_Oct_16_1557,ACPT_experiment_5_30_19,3.1.0,59.952133714562706,
,,,C,D,d,v,L,D,y,L,y,,,,,5,19,119,18,3,0,3,0,,,,,1,28,64,32,,,,,,down,0.6838502059108578,2813.3436865819967,None,001,36,2019_Oct_16_1557,ACPT_experiment_5_30_19,3.1.0,59.952133714562706,
,,,C,D,d,v,R,D,y,L,y,,,,,5,19,119,18,3,0,3,0,,,,,1,29,65,26,,,,,,down,0.8172800928296056,2815.3285319156566,None,001,36,2019_Oct_16_1557,ACPT_experiment_5_30_19,3.1.0,59.952133714562706,
,,,C,D,d,v,L,D,g,L,i,,,,,5,19,119,18,3,0,3,0,,,,,1,30,66,14,,,,,,down,1.034113620302378,2817.4468134751987,None,001,36,2019_Oct_16_1557,ACPT_experiment_5_30_19,3.1.0,59.952133714562706,
,,,C,D,d,v,R,G,d,L,i,,,,,5,19,119,18,3,0,3,0,,,,,1,31,67,4,,,,,,down,1.3843622437671002,2819.765293293578,None,001,36,2019_Oct_16_1557,ACPT_experiment_5_30_19,3.1.0,59.952133714562706,
,,,C,D,d,v,L,U,y,R,u,,,,,5,19,119,18,3,0,3,0,,,,,1,32,68,25,,,,,,down,0.7839316767713171,2822.433949290047,None,001,36,2019_Oct_16_1557,ACPT_experiment_5_30_19,3.1.0,59.952133714562706,
,,,C,D,d,v,R,G,g,L,c ,,,,,5,19,119,18,3,0,3,0,,,,,1,33,69,6,,,,,,up,1.9514972194556321,2824.502208829217,None,001,36,2019_Oct_16_1557,ACPT_experiment_5_30_19,3.1.0,59.952133714562706,
,,,C,D,d,v,L,G,g,R,c ,,,,,5,19,119,18,3,0,3,0,,,,,1,34,70,19,,,,,,up,0.9007124096788175,2827.7379916512728,None,001,36,2019_Oct_16_1557,ACPT_experiment_5_30_19,3.1.0,59.952133714562706,
,,,C,D,d,v,R,U,y,L,u,,,,,5,19,119,18,3,0,3,0,,,,,1,35,71,30,,,,,,down,1.0007498096056224,2829.9396723235404,None,001,36,2019_Oct_16_1557,ACPT_experiment_5_30_19,3.1.0,59.952133714562706,
,,,C,D,d,v,,,,,,,,,,5,19,119,18,4,0,4,0,0,0,0,0,,,,,,,,,,,,,,001,36,2019_Oct_16_1557,ACPT_experiment_5_30_19,3.1.0,59.952133714562706,
,,,C,D,d,v,L,U,d,L,u,,,,,5,19,119,18,4,0,4,0,,,,,0,0,0,20,,,,,,down,1.0507890357548604,2863.76546957732,None,001,36,2019_Oct_16_1557,ACPT_experiment_5_30_19,3.1.0,59.952133714562706,
,,,C,D,d,v,L,U,y,R,u,,,,,5,19,119,18,4,0,4,0,,,,,0,1,1,25,,,,,,down,0.6672158428373223,2866.0838730262003,None,001,36,2019_Oct_16_1557,ACPT_experiment_5_30_19,3.1.0,59.952133714562706,
,,,C,D,d,v,L,G,d,L,i,,,,,5,19,119,18,4,0,4,0,,,,,0,2,2,16,,,,,,down,1.1842515230891877,2868.035359982565,None,001,36,2019_Oct_16_1557,ACPT_experiment_5_30_19,3.1.0,59.952133714562706,
,,,C,D,d,v,L,U,d,R,u,,,,,5,19,119,18,4,0,4,0,,,,,0,3,3,21,,,,,,down,0.800627618409635,2870.503907673199,None,001,36,2019_Oct_16_1557,ACPT_experiment_5_30_19,3.1.0,59.952133714562706,
,,,C,D,d,v,R,U,y,R,u,,,,,5,19,119,18,4,0,4,0,,,,,0,4,4,31,,,,,,down,0.6004532061742793,2872.588853796482,None,001,36,2019_Oct_16_1557,ACPT_experiment_5_30_19,3.1.0,59.952133714562706,
,,,C,D,d,v,L,D,g,L,i,,,,,5,19,119,18,4,0,4,0,,,,,0,5,5,14,,,,,,down,1.1842140929802554,2874.47364392073,None,001,36,2019_Oct_16_1557,ACPT_experiment_5_30_19,3.1.0,59.952133714562706,
,,,C,D,d,v,L,D,g,R,i,,,,,5,19,119,18,4,0,4,0,,,,,0,6,6,15,,,,,,down,0.900685846376291,2876.94217168889,None,001,36,2019_Oct_16_1557,ACPT_experiment_5_30_19,3.1.0,59.952133714562706,
,,,C,D,d,v,R,G,d,R,i,,,,,5,19,119,18,4,0,4,0,,,,,0,7,7,5,,,,,,down,1.3510289204932633,2879.1271709085922,None,001,36,2019_Oct_16_1557,ACPT_experiment_5_30_19,3.1.0,59.952133714562706,
,,,C,D,d,v,R,D,g,L,i,,,,,5,19,119,18,4,0,4,0,,,,,0,8,8,2,,,,,,down,1.014158542471705,2881.782516577161,None,001,36,2019_Oct_16_1557,ACPT_experiment_5_30_19,3.1.0,59.952133714562706,
,,,C,D,d,v,L,D,d,R,c ,,,,,5,19,119,18,4,0,4,0,,,,,0,9,9,13,,,,,,up,0.9840970333316363,2884.080960420375,None,001,36,2019_Oct_16_1557,ACPT_experiment_5_30_19,3.1.0,59.952133714562706,
,,,C,D,d,v,R,D,g,R,i,,,,,5,19,119,18,4,0,4,0,,,,,0,10,10,3,,,,,,down,0.9507706527438131,2886.349322831971,None,001,36,2019_Oct_16_1557,ACPT_experiment_5_30_19,3.1.0,59.952133714562706,
,,,C,D,d,v,L,G,y,R,y,,,,,5,19,119,18,4,0,4,0,,,,,0,11,11,35,,,,,,down,0.8506423942490073,2888.601061747304,None,001,36,2019_Oct_16_1557,ACPT_experiment_5_30_19,3.1.0,59.952133714562706,
,,,C,D,d,v,R,D,d,L,c,,,,,5,19,119,18,4,0,4,0,,,,,0,12,12,0,,,,,,up,1.0341121110250242,2890.7527047026997,None,001,36,2019_Oct_16_1557,ACPT_experiment_5_30_19,3.1.0,59.952133714562706,
,,,C,D,d,v,R,D,d,R,c ,,,,,5,19,119,18,4,0,4,0,,,,,0,13,13,1,,,,,,up,0.8006116200558608,2893.054457186445,None,001,36,2019_Oct_16_1557,ACPT_experiment_5_30_19,3.1.0,59.952133714562706,
,,,C,D,d,v,L,U,g,R,u,,,,,5,19,119,18,4,0,4,0,,,,,0,14,14,23,,,,,,down,0.8172906577783579,2895.1393785575565,None,001,36,2019_Oct_16_1557,ACPT_experiment_5_30_19,3.1.0,59.952133714562706,
,,,C,D,d,v,L,G,g,R,c ,,,,,5,19,119,18,4,0,4,0,,,,,0,15,15,19,,,,,,up,1.017440619696572,2897.240982286803,None,001,36,2019_Oct_16_1557,ACPT_experiment_5_30_19,3.1.0,59.952133714562706,
,,,C,D,d,v,R,G,y,L,y,,,,,5,19,119,18,4,0,4,0,,,,,0,16,16,28,,,,,,down,0.8173151080882235,2899.542736883537,None,001,36,2019_Oct_16_1557,ACPT_experiment_5_30_19,3.1.0,59.952133714562706,
,,,C,D,d,v,R,G,d,L,i,,,,,5,19,119,18,4,0,4,0,,,,,0,17,17,4,,,,,,down,1.050824956586439,2901.6276383321747,None,001,36,2019_Oct_16_1557,ACPT_experiment_5_30_19,3.1.0,59.952133714562706,
,,,C,D,d,v,L,U,y,L,u,,,,,5,19,119,18,4,0,4,0,,,,,0,18,18,24,,,,,,down,0.8505385558819398,2903.9795308618777,None,001,36,2019_Oct_16_1557,ACPT_experiment_5_30_19,3.1.0,59.952133714562706,
,,,C,D,d,v,R,G,g,L,c ,,,,,5,19,119,18,4,0,4,0,,,,,0,19,19,6,,,,,,up,1.7179740893079725,2906.1310929199426,None,001,36,2019_Oct_16_1557,ACPT_experiment_5_30_19,3.1.0,59.952133714562706,
,,,C,D,d,v,L,D,y,R,y,,,,,5,19,119,18,4,0,4,0,,,,,0,20,20,33,,,,,,down,0.7839238285196188,2909.133381891854,None,001,36,2019_Oct_16_1557,ACPT_experiment_5_30_19,3.1.0,59.952133714562706,
,,,C,D,d,v,L,D,d,L,c ,,,,,5,19,119,18,4,0,4,0,,,,,0,21,21,12,,,,,,up,0.9507449950069713,2911.2016009823565,None,001,36,2019_Oct_16_1557,ACPT_experiment_5_30_19,3.1.0,59.952133714562706,
,,,C,D,d,v,L,G,y,L,y,,,,,5,19,119,18,4,0,4,0,,,,,0,22,22,34,,,,,,down,0.6838698265346466,2913.436640635635,None,001,36,2019_Oct_16_1557,ACPT_experiment_5_30_19,3.1.0,59.952133714562706,
,,,C,D,d,v,R,D,y,L,y,,,,,5,19,119,18,4,0,4,0,,,,,0,23,23,26,,,,,,down,0.6504900174804789,2915.4048313818857,None,001,36,2019_Oct_16_1557,ACPT_experiment_5_30_19,3.1.0,59.952133714562706,
,,,C,D,d,v,L,G,g,L,c ,,,,,5,19,119,18,4,0,4,0,,,,,0,24,24,18,,,,,,up,1.4010639206644555,2917.3396380931044,None,001,36,2019_Oct_16_1557,ACPT_experiment_5_30_19,3.1.0,59.952133714562706,
,,,C,D,d,v,R,G,g,R,c ,,,,,5,19,119,18,4,0,4,0,,,,,0,25,25,7,,,,,,up,0.9507199409781606,2920.025017198226,None,001,36,2019_Oct_16_1557,ACPT_experiment_5_30_19,3.1.0,59.952133714562706,
,,,C,D,d,v,R,U,d,R,u,,,,,5,19,119,18,4,0,4,0,,,,,0,26,26,9,,,,,,down,0.8006107144865382,2922.260054436658,None,001,36,2019_Oct_16_1557,ACPT_experiment_5_30_19,3.1.0,59.952133714562706,
,,,C,D,d,v,L,D,y,L,y,,,,,5,19,119,18,4,0,4,0,,,,,0,27,27,32,,,,,,down,0.9674234290141612,2924.344954677872,None,001,36,2019_Oct_16_1557,ACPT_experiment_5_30_19,3.1.0,59.952133714562706,
,,,C,D,d,v,R,U,g,R,u,,,,,5,19,119,18,4,0,4,0,,,,,0,28,28,11,,,,,,down,0.9840840535362076,2926.596691782066,None,001,36,2019_Oct_16_1557,ACPT_experiment_5_30_19,3.1.0,59.952133714562706,
,,,C,D,d,v,L,U,g,L,u,,,,,5,19,119,18,4,0,4,0,,,,,0,29,29,22,,,,,,down,0.9674086380837252,2928.865085586658,None,001,36,2019_Oct_16_1557,ACPT_experiment_5_30_19,3.1.0,59.952133714562706,
,,,C,D,d,v,R,U,d,L,u,,,,,5,19,119,18,4,0,4,0,,,,,0,30,30,8,,,,,,down,0.8506692594055494,2931.116781336623,None,001,36,2019_Oct_16_1557,ACPT_experiment_5_30_19,3.1.0,59.952133714562706,
,,,C,D,d,v,R,D,y,R,y,,,,,5,19,119,18,4,0,4,0,,,,,0,31,31,27,,,,,,down,0.9674007898356649,2933.2517678934782,None,001,36,2019_Oct_16_1557,ACPT_experiment_5_30_19,3.1.0,59.952133714562706,
,,,C,D,d,v,L,G,d,R,i,,,,,5,19,119,18,4,0,4,0,,,,,0,32,32,17,,,,,,down,1.6512479771881772,2935.5034905085995,None,001,36,2019_Oct_16_1557,ACPT_experiment_5_30_19,3.1.0,59.952133714562706,
,,,C,D,d,v,R,U,g,L,u,,,,,5,19,119,18,4,0,4,0,,,,,0,33,33,10,,,,,,down,0.6338456931662222,2938.4390581980842,None,001,36,2019_Oct_16_1557,ACPT_experiment_5_30_19,3.1.0,59.952133714562706,
,,,C,D,d,v,R,G,y,R,y,,,,,5,19,119,18,4,0,4,0,,,,,0,34,34,29,,,,,,down,0.6838529226151877,2940.357184664157,None,001,36,2019_Oct_16_1557,ACPT_experiment_5_30_19,3.1.0,59.952133714562706,
,,,C,D,d,v,R,U,y,L,u,,,,,5,19,119,18,4,0,4,0,,,,,0,35,35,30,,,,,,down,0.5671129402217048,2942.325357299065,None,001,36,2019_Oct_16_1557,ACPT_experiment_5_30_19,3.1.0,59.952133714562706,
,,,C,D,d,v,L,D,y,L,y,,,,,5,19,119,18,4,0,4,0,,,,,1,0,36,32,,,,,,down,0.8840243162921979,2944.176773047664,None,001,36,2019_Oct_16_1557,ACPT_experiment_5_30_19,3.1.0,59.952133714562706,
,,,C,D,d,v,R,G,y,R,y,,,,,5,19,119,18,4,0,4,0,,,,,1,1,37,29,,,,,,down,0.7338909413410875,2946.3450814572716,None,001,36,2019_Oct_16_1557,ACPT_experiment_5_30_19,3.1.0,59.952133714562706,
,,,C,D,d,v,R,D,d,L,c,,,,,5,19,119,18,4,0,4,0,,,,,1,2,38,0,,,,,,up,0.8172837150959822,2948.363290903486,None,001,36,2019_Oct_16_1557,ACPT_experiment_5_30_19,3.1.0,59.952133714562706,
,,,C,D,d,v,L,D,g,L,i,,,,,5,19,119,18,4,0,4,0,,,,,1,3,39,14,,,,,,down,2.4685700279587763,2950.4648750121087,None,001,36,2019_Oct_16_1557,ACPT_experiment_5_30_19,3.1.0,59.952133714562706,
,,,C,D,d,v,L,U,y,R,u,,,,,5,19,119,18,4,0,4,0,,,,,1,4,40,25,,,,,,down,0.717200734961807,2954.2177590171086,None,001,36,2019_Oct_16_1557,ACPT_experiment_5_30_19,3.1.0,59.952133714562706,
,,,C,D,d,v,R,D,y,L,y,,,,,5,19,119,18,4,0,4,0,,,,,1,5,41,26,,,,,,down,0.8340068237484957,2956.21925139178,None,001,36,2019_Oct_16_1557,ACPT_experiment_5_30_19,3.1.0,59.952133714562706,
,,,C,D,d,v,R,D,g,R,i,,,,,5,19,119,18,4,0,4,0,,,,,1,6,42,3,,,,,,down,1.100862069746654,2958.3208608562854,None,001,36,2019_Oct_16_1557,ACPT_experiment_5_30_19,3.1.0,59.952133714562706,
,,,C,D,d,v,L,G,d,R,i,,,,,5,19,119,18,4,0,4,0,,,,,1,7,43,17,,,,,,down,1.2342786750086816,2960.7060302622413,None,001,36,2019_Oct_16_1557,ACPT_experiment_5_30_19,3.1.0,59.952133714562706,
,,,C,D,d,v,L,D,y,R,y,,,,,5,19,119,18,4,0,4,0,,,,,1,8,44,33,,,,,,down,0.8673434674346936,2963.2245990676856,None,001,36,2019_Oct_16_1557,ACPT_experiment_5_30_19,3.1.0,59.952133714562706,
,,,C,D,d,v,L,G,d,L,i,,,,,5,19,119,18,4,0,4,0,,,,,1,9,45,16,,,,,,down,1.1008397324221733,2965.3762607381395,None,001,36,2019_Oct_16_1557,ACPT_experiment_5_30_19,3.1.0,59.952133714562706,
,,,C,D,d,v,R,U,d,R,u,,,,,5,19,119,18,4,0,4,0,,,,,1,10,46,9,,,,,,down,0.7504492367734201,2967.7614162587306,None,001,36,2019_Oct_16_1557,ACPT_experiment_5_30_19,3.1.0,59.952133714562706,
,,,C,D,d,v,L,G,y,R,y,,,,,5,19,119,18,4,0,4,0,,,,,1,11,47,35,,,,,,down,0.6338118853273045,2969.796296290704,None,001,36,2019_Oct_16_1557,ACPT_experiment_5_30_19,3.1.0,59.952133714562706,
,,,C,D,d,v,R,U,g,L,u,,,,,5,19,119,18,4,0,4,0,,,,,1,12,48,10,,,,,,down,1.1842337136004062,2971.7144287938936,None,001,36,2019_Oct_16_1557,ACPT_experiment_5_30_19,3.1.0,59.952133714562706,
,,,C,D,d,v,R,G,g,L,c ,,,,,5,19,119,18,4,0,4,0,,,,,1,13,49,6,,,,,,up,1.4344201849708043,2974.1663040876374,None,001,36,2019_Oct_16_1557,ACPT_experiment_5_30_19,3.1.0,59.952133714562706,
,,,C,D,d,v,R,G,y,L,y,,,,,5,19,119,18,4,0,4,0,,,,,1,14,50,28,,,,,,down,1.2509785407783056,2976.8683383838797,None,001,36,2019_Oct_16_1557,ACPT_experiment_5_30_19,3.1.0,59.952133714562706,
,,,C,D,d,v,R,D,d,R,c ,,,,,5,19,119,18,4,0,4,0,,,,,1,15,51,1,,,,,,up,1.0674780347144406,2979.4036218460205,None,001,36,2019_Oct_16_1557,ACPT_experiment_5_30_19,3.1.0,59.952133714562706,
,,,C,D,d,v,R,G,g,R,c ,,,,,5,19,119,18,4,0,4,0,,,,,1,16,52,7,,,,,,up,1.0674828644041554,2981.7554141596265,None,001,36,2019_Oct_16_1557,ACPT_experiment_5_30_19,3.1.0,59.952133714562706,
,,,C,D,d,v,R,U,y,L,u,,,,,5,19,119,18,4,0,4,0,,,,,1,17,53,30,,,,,,down,1.6179025796918722,2984.10720677509,None,001,36,2019_Oct_16_1557,ACPT_experiment_5_30_19,3.1.0,59.952133714562706,
,,,C,D,d,v,L,U,y,L,u,,,,,5,19,119,18,4,0,4,0,,,,,1,18,54,24,,,,,,down,0.5170616398427228,2987.009416992845,None,001,36,2019_Oct_16_1557,ACPT_experiment_5_30_19,3.1.0,59.952133714562706,
,,,C,D,d,v,L,U,g,R,u,,,,,5,19,119,18,4,0,4,0,,,,,1,19,55,23,,,,,,down,0.5170685825250985,2988.8107871763204,None,001,36,2019_Oct_16_1557,ACPT_experiment_5_30_19,3.1.0,59.952133714562706,
,,,C,D,d,v,R,G,d,R,i,,,,,5,19,119,18,4,0,4,0,,,,,1,20,56,5,,,,,,down,1.1341978078635293,2990.6121633969124,None,001,36,2019_Oct_16_1557,ACPT_experiment_5_30_19,3.1.0,59.952133714562706,
,,,C,D,d,v,R,U,d,L,u,,,,,5,19,119,18,4,0,4,0,,,,,1,21,57,8,,,,,,down,1.200905506786512,2993.03068242635,None,001,36,2019_Oct_16_1557,ACPT_experiment_5_30_19,3.1.0,59.952133714562706,
,,,C,D,d,v,L,D,g,R,i,,,,,5,19,119,18,4,0,4,0,,,,,1,22,58,15,,,,,,down,1.6012178067103378,2995.515904325017,None,001,36,2019_Oct_16_1557,ACPT_experiment_5_30_19,3.1.0,59.952133714562706,
,,,C,D,d,v,L,U,g,L,u,,,,,5,19,119,18,4,0,4,0,,,,,1,23,59,22,,,,,,down,0.6004752416447445,2998.401412262163,None,001,36,2019_Oct_16_1557,ACPT_experiment_5_30_19,3.1.0,59.952133714562706,
,,,C,D,d,v,L,D,d,L,c ,,,,,5,19,119,18,4,0,4,0,,,,,1,24,60,12,,,,,,up,1.3677281825475802,3000.2861839732104,None,001,36,2019_Oct_16_1557,ACPT_experiment_5_30_19,3.1.0,59.952133714562706,
,,,C,D,d,v,R,G,d,L,i,,,,,5,19,119,18,4,0,4,0,,,,,1,25,61,4,,,,,,down,1.1675432053634722,3002.9382445459923,None,001,36,2019_Oct_16_1557,ACPT_experiment_5_30_19,3.1.0,59.952133714562706,
,,,C,D,d,v,L,G,g,R,c ,,,,,5,19,119,18,4,0,4,0,,,,,1,26,62,19,,,,,,up,3.4526401961338706,3005.3900959931343,None,001,36,2019_Oct_16_1557,ACPT_experiment_5_30_19,3.1.0,59.952133714562706,
,,,C,D,d,v,L,U,d,L,u,,,,,5,19,119,18,4,0,4,0,,,,,1,27,63,20,,,,,,down,1.7680184470082168,3010.1270426199117,None,001,36,2019_Oct_16_1557,ACPT_experiment_5_30_19,3.1.0,59.952133714562706,
,,,C,D,d,v,R,U,y,R,u,,,,,5,19,119,18,4,0,4,0,,,,,1,28,64,31,,,,,,down,0.7505726957642764,3013.1793690068407,None,001,36,2019_Oct_16_1557,ACPT_experiment_5_30_19,3.1.0,59.952133714562706,
,,,C,D,d,v,L,G,y,L,y,,,,,5,19,119,18,4,0,4,0,,,,,1,29,65,34,,,,,,down,1.000758865273383,3015.1975757363543,None,001,36,2019_Oct_16_1557,ACPT_experiment_5_30_19,3.1.0,59.952133714562706,
,,,C,D,d,v,R,D,g,L,i,,,,,5,19,119,18,4,0,4,0,,,,,1,30,66,2,,,,,,down,4.119830683088367,3017.4826262413408,None,001,36,2019_Oct_16_1557,ACPT_experiment_5_30_19,3.1.0,59.952133714562706,
,,,C,D,d,v,L,U,d,R,u,,,,,5,19,119,18,4,0,4,0,,,,,1,31,67,21,,,,,,down,2.618664161665947,3022.8867681847696,None,001,36,2019_Oct_16_1557,ACPT_experiment_5_30_19,3.1.0,59.952133714562706,
,,,C,D,d,v,R,D,y,R,y,,,,,5,19,119,18,4,0,4,0,,,,,1,32,68,27,,,,,,down,2.351788691339607,3026.7897478327504,None,001,36,2019_Oct_16_1557,ACPT_experiment_5_30_19,3.1.0,59.952133714562706,
,,,C,D,d,v,L,D,d,R,c ,,,,,5,19,119,18,4,0,4,0,,,,,1,33,69,13,,,,,,up,4.4033619482470385,3030.4258492937006,None,001,36,2019_Oct_16_1557,ACPT_experiment_5_30_19,3.1.0,59.952133714562706,
,,,C,D,d,v,R,U,g,R,u,,,,,5,19,119,18,4,0,4,0,,,,,1,34,70,11,,,,,,down,1.0174403178425564,3036.113517370737,None,001,36,2019_Oct_16_1557,ACPT_experiment_5_30_19,3.1.0,59.952133714562706,
,,,C,D,d,v,L,G,g,L,c ,,,,,5,19,119,18,4,0,4,0,,,,,1,35,71,18,,,,,,up,1.5345049762436247,3038.415271967471,None,001,36,2019_Oct_16_1557,ACPT_experiment_5_30_19,3.1.0,59.952133714562706,
,,,C,D,d,v,,,,,,,,,,5,19,119,18,5,0,5,0,0,0,0,0,,,,,,,,,,,,,,001,36,2019_Oct_16_1557,ACPT_experiment_5_30_19,3.1.0,59.952133714562706,
,,,C,D,d,v,L,U,d,L,u,,,,,5,19,119,18,5,0,5,0,,,,,0,0,0,20,,,,,,down,0.633551383842132,3140.259864267555,None,001,36,2019_Oct_16_1557,ACPT_experiment_5_30_19,3.1.0,59.952133714562706,
,,,C,D,d,v,L,D,y,L,y,,,,,5,19,119,18,5,0,5,0,,,,,0,1,1,32,,,,,,down,0.7839319786253327,3142.1777196671974,None,001,36,2019_Oct_16_1557,ACPT_experiment_5_30_19,3.1.0,59.952133714562706,
,,,C,D,d,v,L,G,y,L,y,,,,,5,19,119,18,5,0,5,0,,,,,0,2,2,34,,,,,,down,0.8506544684751134,3144.245958680178,None,001,36,2019_Oct_16_1557,ACPT_experiment_5_30_19,3.1.0,59.952133714562706,
,,,C,D,d,v,R,U,d,L,u,,,,,5,19,119,18,5,0,5,0,,,,,0,3,3,8,,,,,,down,0.833967582504556,3146.380930747957,None,001,36,2019_Oct_16_1557,ACPT_experiment_5_30_19,3.1.0,59.952133714562706,
,,,C,D,d,v,L,D,g,R,i,,,,,5,19,119,18,5,0,5,0,,,,,0,4,4,15,,,,,,down,0.8506396775446774,3148.49921743905,None,001,36,2019_Oct_16_1557,ACPT_experiment_5_30_19,3.1.0,59.952133714562706,
,,,C,D,d,v,R,U,g,R,u,,,,,5,19,119,18,5,0,5,0,,,,,0,5,5,11,,,,,,down,0.6504673783019825,3150.6341961476537,None,001,36,2019_Oct_16_1557,ACPT_experiment_5_30_19,3.1.0,59.952133714562706,
,,,C,D,d,v,L,U,d,R,u,,,,,5,19,119,18,5,0,5,0,,,,,0,6,6,21,,,,,,down,0.8173353324236814,3152.5689790122706,None,001,36,2019_Oct_16_1557,ACPT_experiment_5_30_19,3.1.0,59.952133714562706,
,,,C,D,d,v,R,D,y,L,y,,,,,5,19,119,18,5,0,5,0,,,,,0,7,7,26,,,,,,down,0.783963371621212,3154.6705579893496,None,001,36,2019_Oct_16_1557,ACPT_experiment_5_30_19,3.1.0,59.952133714562706,
,,,C,D,d,v,R,U,y,R,u,,,,,5,19,119,18,5,0,5,0,,,,,0,8,8,31,,,,,,down,0.6505410311001469,3156.738875484818,None,001,36,2019_Oct_16_1557,ACPT_experiment_5_30_19,3.1.0,59.952133714562706,
,,,C,D,d,v,L,D,d,L,c ,,,,,5,19,119,18,5,0,5,0,,,,,0,9,9,12,,,,,,up,1.0341447114442417,3158.6736085432385,None,001,36,2019_Oct_16_1557,ACPT_experiment_5_30_19,3.1.0,59.952133714562706,
,,,C,D,d,v,L,G,y,R,y,,,,,5,19,119,18,5,0,5,0,,,,,0,10,10,35,,,,,,down,0.7504498404850892,3161.008836826153,None,001,36,2019_Oct_16_1557,ACPT_experiment_5_30_19,3.1.0,59.952133714562706,
,,,C,D,d,v,R,G,y,L,y,,,,,5,19,119,18,5,0,5,0,,,,,0,11,11,28,,,,,,down,0.9006719610151777,3163.060315300372,None,001,36,2019_Oct_16_1557,ACPT_experiment_5_30_19,3.1.0,59.952133714562706,
,,,C,D,d,v,R,D,g,L,i,,,,,5,19,119,18,5,0,5,0,,,,,0,12,12,2,,,,,,down,0.8840046956684091,3165.2453124070817,None,001,36,2019_Oct_16_1557,ACPT_experiment_5_30_19,3.1.0,59.952133714562706,
,,,C,D,d,v,L,G,g,L,c ,,,,,5,19,119,18,5,0,5,0,,,,,0,13,13,18,,,,,,up,0.8173374454127043,3167.396924271343,None,001,36,2019_Oct_16_1557,ACPT_experiment_5_30_19,3.1.0,59.952133714562706,
,,,C,D,d,v,L,U,g,R,u,,,,,5,19,119,18,5,0,5,0,,,,,0,14,14,23,,,,,,down,0.6004535080282949,3169.4985518471876,None,001,36,2019_Oct_16_1557,ACPT_experiment_5_30_19,3.1.0,59.952133714562706,
,,,C,D,d,v,R,U,d,R,u,,,,,5,19,119,18,5,0,5,0,,,,,0,15,15,9,,,,,,down,0.5337521480832947,3171.383303635761,None,001,36,2019_Oct_16_1557,ACPT_experiment_5_30_19,3.1.0,59.952133714562706,
,,,C,D,d,v,L,G,d,L,i,,,,,5,19,119,18,5,0,5,0,,,,,0,16,16,16,,,,,,down,1.2142617167555727,3173.2213867191313,None,001,36,2019_Oct_16_1557,ACPT_experiment_5_30_19,3.1.0,59.952133714562706,
,,,C,D,d,v,R,D,d,R,c ,,,,,5,19,119,18,5,0,5,0,,,,,0,17,17,1,,,,,,up,0.7839274507896334,3175.719960903647,None,001,36,2019_Oct_16_1557,ACPT_experiment_5_30_19,3.1.0,59.952133714562706,
,,,C,D,d,v,L,D,g,L,i,,,,,5,19,119,18,5,0,5,0,,,,,0,18,18,14,,,,,,down,0.8506426961030229,3177.7882059537405,None,001,36,2019_Oct_16_1557,ACPT_experiment_5_30_19,3.1.0,59.952133714562706,
,,,C,D,d,v,L,U,g,L,u,,,,,5,19,119,18,5,0,5,0,,,,,0,19,19,22,,,,,,down,0.7672704485376016,3179.9231424025456,None,001,36,2019_Oct_16_1557,ACPT_experiment_5_30_19,3.1.0,59.952133714562706,
,,,C,D,d,v,R,U,g,L,u,,,,,5,19,119,18,5,0,5,0,,,,,0,20,20,10,,,,,,down,0.7505509621478268,3181.974751882146,None,001,36,2019_Oct_16_1557,ACPT_experiment_5_30_19,3.1.0,59.952133714562706,
,,,C,D,d,v,R,D,g,R,i,,,,,5,19,119,18,5,0,5,0,,,,,0,21,21,3,,,,,,down,0.9840967314776208,3184.0096104823606,None,001,36,2019_Oct_16_1557,ACPT_experiment_5_30_19,3.1.0,59.952133714562706,
,,,C,D,d,v,L,D,d,R,c ,,,,,5,19,119,18,5,0,5,0,,,,,0,22,22,13,,,,,,up,0.9841398968455906,3186.277984062621,None,001,36,2019_Oct_16_1557,ACPT_experiment_5_30_19,3.1.0,59.952133714562706,
,,,C,D,d,v,R,G,d,L,i,,,,,5,19,119,18,5,0,5,0,,,,,0,23,23,4,,,,,,down,0.583805259593646,3188.5464038268037,None,001,36,2019_Oct_16_1557,ACPT_experiment_5_30_19,3.1.0,59.952133714562706,
,,,C,D,d,v,L,U,y,R,u,,,,,5,19,119,18,5,0,5,0,,,,,0,24,24,25,,,,,,down,0.9174062383317505,3190.4145001224024,None,001,36,2019_Oct_16_1557,ACPT_experiment_5_30_19,3.1.0,59.952133714562706,
,,,C,D,d,v,L,G,d,R,i,,,,,5,19,119,18,5,0,5,0,,,,,0,25,25,17,,,,,,down,1.0507999025612662,3192.6161771724,None,001,36,2019_Oct_16_1557,ACPT_experiment_5_30_19,3.1.0,59.952133714562706,
,,,C,D,d,v,L,G,g,R,c ,,,,,5,19,119,18,5,0,5,0,,,,,0,26,26,19,,,,,,up,1.0841531483092695,3194.951292259422,None,001,36,2019_Oct_16_1557,ACPT_experiment_5_30_19,3.1.0,59.952133714562706,
,,,C,D,d,v,R,G,g,R,c ,,,,,5,19,119,18,5,0,5,0,,,,,0,27,27,7,,,,,,up,0.9340427143943089,3197.3030821581815,None,001,36,2019_Oct_16_1557,ACPT_experiment_5_30_19,3.1.0,59.952133714562706,
,,,C,D,d,v,L,D,y,R,y,,,,,5,19,119,18,5,0,5,0,,,,,0,28,28,33,,,,,,down,0.900748330510396,3199.5214409626024,None,001,36,2019_Oct_16_1557,ACPT_experiment_5_30_19,3.1.0,59.952133714562706,
,,,C,D,d,v,R,G,g,L,c ,,,,,5,19,119,18,5,0,5,0,,,,,0,29,29,6,,,,,,up,1.4678156905210926,3201.706442295297,None,001,36,2019_Oct_16_1557,ACPT_experiment_5_30_19,3.1.0,59.952133714562706,
,,,C,D,d,v,L,U,y,L,u,,,,,5,19,119,18,5,0,5,0,,,,,0,30,30,24,,,,,,down,0.8506837484783318,3204.458514912123,None,001,36,2019_Oct_16_1557,ACPT_experiment_5_30_19,3.1.0,59.952133714562706,
,,,C,D,d,v,R,D,y,R,y,,,,,5,19,119,18,5,0,5,0,,,,,0,31,31,27,,,,,,down,0.8006073940778151,3206.576817903424,None,001,36,2019_Oct_16_1557,ACPT_experiment_5_30_19,3.1.0,59.952133714562706,
,,,C,D,d,v,R,D,d,L,c,,,,,5,19,119,18,5,0,5,0,,,,,0,32,32,0,,,,,,up,0.9507289966531971,3208.645060538671,None,001,36,2019_Oct_16_1557,ACPT_experiment_5_30_19,3.1.0,59.952133714562706,
,,,C,D,d,v,R,U,y,L,u,,,,,5,19,119,18,5,0,5,0,,,,,0,33,33,30,,,,,,down,0.6004544135976175,3210.8801013993725,None,001,36,2019_Oct_16_1557,ACPT_experiment_5_30_19,3.1.0,59.952133714562706,
,,,C,D,d,v,R,G,y,R,y,,,,,5,19,119,18,5,0,5,0,,,,,0,34,34,29,,,,,,down,0.733918108355283,3212.764869186296,None,001,36,2019_Oct_16_1557,ACPT_experiment_5_30_19,3.1.0,59.952133714562706,
,,,C,D,d,v,R,G,d,R,i,,,,,5,19,119,18,5,0,5,0,,,,,0,35,35,5,,,,,,down,1.1341962985825376,3214.7830735009593,None,001,36,2019_Oct_16_1557,ACPT_experiment_5_30_19,3.1.0,59.952133714562706,
,,,C,D,d,v,R,U,g,L,u,,,,,5,19,119,18,5,0,5,0,,,,,1,0,36,10,,,,,,down,2.8355019151240413,3217.2016088306045,None,001,36,2019_Oct_16_1557,ACPT_experiment_5_30_19,3.1.0,59.952133714562706,
,,,C,D,d,v,L,G,g,L,c ,,,,,5,19,119,18,5,0,5,0,,,,,1,1,37,18,,,,,,up,0.9674026009706722,3221.321393933482,None,001,36,2019_Oct_16_1557,ACPT_experiment_5_30_19,3.1.0,59.952133714562706,
,,,C,D,d,v,L,D,y,R,y,,,,,5,19,119,18,5,0,5,0,,,,,1,2,38,33,,,,,,down,0.7172143184652668,3223.573110813344,None,001,36,2019_Oct_16_1557,ACPT_experiment_5_30_19,3.1.0,59.952133714562706,
,,,C,D,d,v,R,D,g,R,i,,,,,5,19,119,18,5,0,5,0,,,,,1,3,39,3,,,,,,down,1.0007667135214433,3225.574630958745,None,001,36,2019_Oct_16_1557,ACPT_experiment_5_30_19,3.1.0,59.952133714562706,
,,,C,D,d,v,L,U,g,L,u,,,,,5,19,119,18,5,0,5,0,,,,,1,4,40,22,,,,,,down,0.9173950696676911,3227.8597074233257,None,001,36,2019_Oct_16_1557,ACPT_experiment_5_30_19,3.1.0,59.952133714562706,
,,,C,D,d,v,L,U,g,R,u,,,,,5,19,119,18,5,0,5,0,,,,,1,5,41,23,,,,,,down,1.0341435040172655,3230.0613639471376,None,001,36,2019_Oct_16_1557,ACPT_experiment_5_30_19,3.1.0,59.952133714562706,
,,,C,D,d,v,R,D,d,R,c ,,,,,5,19,119,18,5,0,5,0,,,,,1,6,42,1,,,,,,up,1.0341610116520314,3232.3798208244807,None,001,36,2019_Oct_16_1557,ACPT_experiment_5_30_19,3.1.0,59.952133714562706,
,,,C,D,d,v,R,U,d,L,u,,,,,5,19,119,18,5,0,5,0,,,,,1,7,43,8,,,,,,down,1.2342913529500947,3234.6982547607913,None,001,36,2019_Oct_16_1557,ACPT_experiment_5_30_19,3.1.0,59.952133714562706,
,,,C,D,d,v,L,D,g,L,i,,,,,5,19,119,18,5,0,5,0,,,,,1,8,44,14,,,,,,down,1.3843918256279721,3237.216842885002,None,001,36,2019_Oct_16_1557,ACPT_experiment_5_30_19,3.1.0,59.952133714562706,
,,,C,D,d,v,L,D,d,R,c ,,,,,5,19,119,18,5,0,5,0,,,,,1,9,45,13,,,,,,up,3.352575025484839,3239.8688442940656,None,001,36,2019_Oct_16_1557,ACPT_experiment_5_30_19,3.1.0,59.952133714562706,
,,,C,D,d,v,L,D,g,R,i,,,,,5,19,119,18,5,0,5,0,,,,,1,10,46,15,,,,,,down,2.3851751412148587,3244.4890304122637,None,001,36,2019_Oct_16_1557,ACPT_experiment_5_30_19,3.1.0,59.952133714562706,
,,,C,D,d,v,R,D,d,L,c,,,,,5,19,119,18,5,0,5,0,,,,,1,11,47,0,,,,,,up,2.1182559018052416,3248.1585457919646,None,001,36,2019_Oct_16_1557,ACPT_experiment_5_30_19,3.1.0,59.952133714562706,
,,,C,D,d,v,R,U,y,R,u,,,,,5,19,119,18,5,0,5,0,,,,,1,12,48,31,,,,,,down,2.751997152896365,3251.577878926273,None,001,36,2019_Oct_16_1557,ACPT_experiment_5_30_19,3.1.0,59.952133714562706,
,,,C,D,d,v,R,G,g,L,c ,,,,,5,19,119,18,5,0,5,0,,,,,1,13,49,6,,,,,,up,1.3843894107812957,3255.6308817718673,None,001,36,2019_Oct_16_1557,ACPT_experiment_5_30_19,3.1.0,59.952133714562706,
,,,C,D,d,v,L,G,g,R,c ,,,,,5,19,119,18,5,0,5,0,,,,,1,14,50,19,,,,,,up,1.1175226942687004,3258.299581537416,None,001,36,2019_Oct_16_1557,ACPT_experiment_5_30_19,3.1.0,59.952133714562706,
,,,C,D,d,v,L,G,d,R,i,,,,,5,19,119,18,5,0,5,0,,,,,1,15,51,17,,,,,,down,0.817288544789335,3260.7014166994413,None,001,36,2019_Oct_16_1557,ACPT_experiment_5_30_19,3.1.0,59.952133714562706,
,,,C,D,d,v,L,U,d,L,u,,,,,5,19,119,18,5,0,5,0,,,,,1,16,52,20,,,,,,down,0.9173778638905787,3262.8029989969327,None,001,36,2019_Oct_16_1557,ACPT_experiment_5_30_19,3.1.0,59.952133714562706,
,,,C,D,d,v,L,G,y,R,y,,,,,5,19,119,18,5,0,5,0,,,,,1,17,53,35,,,,,,down,0.9674019972590031,3265.0046968749775,None,001,36,2019_Oct_16_1557,ACPT_experiment_5_30_19,3.1.0,59.952133714562706,
,,,C,D,d,v,R,U,g,R,u,,,,,5,19,119,18,5,0,5,0,,,,,1,18,54,11,,,,,,down,2.1516477850891533,3267.2564098307157,None,001,36,2019_Oct_16_1557,ACPT_experiment_5_30_19,3.1.0,59.952133714562706,
,,,C,D,d,v,L,G,d,L,i,,,,,5,19,119,18,5,0,5,0,,,,,1,19,55,16,,,,,,down,0.9840943166309444,3270.6923637445907,None,001,36,2019_Oct_16_1557,ACPT_experiment_5_30_19,3.1.0,59.952133714562706,
,,,C,D,d,v,R,D,y,R,y,,,,,5,19,119,18,5,0,5,0,,,,,1,20,56,27,,,,,,down,0.7172411836218089,3272.9607330988692,None,001,36,2019_Oct_16_1557,ACPT_experiment_5_30_19,3.1.0,59.952133714562706,
,,,C,D,d,v,L,U,y,L,u,,,,,5,19,119,18,5,0,5,0,,,,,1,21,57,24,,,,,,down,0.6838544318925415,3274.96228493912,None,001,36,2019_Oct_16_1557,ACPT_experiment_5_30_19,3.1.0,59.952133714562706,
,,,C,D,d,v,R,G,d,L,i,,,,,5,19,119,18,5,0,5,0,,,,,1,22,58,4,,,,,,down,4.520099515793845,3276.930467837119,None,001,36,2019_Oct_16_1557,ACPT_experiment_5_30_19,3.1.0,59.952133714562706,
,,,C,D,d,v,R,G,d,R,i,,,,,5,19,119,18,5,0,5,0,,,,,1,23,59,5,,,,,,down,2.468567009404069,3282.7181787474838,None,001,36,2019_Oct_16_1557,ACPT_experiment_5_30_19,3.1.0,59.952133714562706,
