facing_vig,person_vig,text_vig,facing_train,person_train,food_train,correct_key_train,facing_exp,person_exp,food_exp,showL_R,consistent,vig_random.thisRepN,vig_random.thisTrialN,vig_random.thisN,vig_random.thisIndex,trainTrials.thisRepN,trainTrials.thisTrialN,trainTrials.thisN,trainTrials.thisIndex,expBlock.thisRepN,expBlock.thisTrialN,expBlock.thisN,expBlock.thisIndex,breakLoop.thisRepN,breakLoop.thisTrialN,breakLoop.thisN,breakLoop.thisIndex,expTrials.thisRepN,expTrials.thisTrialN,expTrials.thisN,expTrials.thisIndex,train_resp.keys,train_resp.corr,train_resp.rt,train_resp.started,train_resp.stopped,exp_resp.keys,exp_resp.rt,exp_resp.started,exp_resp.stopped,session,participant,date,expName,psychopyVersion,frameRate,
C,D,"is allergic to gluten, meaning she can’t eat wheat products. She enjoys eating dairy products. She thinks eating insects, like crickets, is disgusting.",,,,,,,,,,0,0,0,1,,,,,,,,,,,,,,,,,,,,,,,,,,001,37,2019_Oct_16_1658,ACPT_experiment_5_30_19,3.1.0,59.9546291978328,
C,U,"did not report her food preferences, so her food preferences are unknown.",,,,,,,,,,0,1,1,2,,,,,,,,,,,,,,,,,,,,,,,,,,001,37,2019_Oct_16_1658,ACPT_experiment_5_30_19,3.1.0,59.9546291978328,
C,G,"cannot eat dairy products because she is lactose intolerant. She enjoys eating wheat products. She thinks eating insects, like crickets, is disgusting.",,,,,,,,,,0,2,2,0,,,,,,,,,,,,,,,,,,,,,,,,,,001,37,2019_Oct_16_1658,ACPT_experiment_5_30_19,3.1.0,59.9546291978328,
,,,C,D,d,v,,,,,,,,,,0,0,0,18,,,,,,,,,,,,,v,1,1.517837107181549,348.2656315229142,None,,,,,001,37,2019_Oct_16_1658,ACPT_experiment_5_30_19,3.1.0,59.9546291978328,
,,,C,U,g,n,,,,,,,,,,0,1,1,7,,,,,,,,,,,,,b,0,1.5511882399405295,353.06930426181134,None,,,,,001,37,2019_Oct_16_1658,ACPT_experiment_5_30_19,3.1.0,59.9546291978328,
,,,C,U,d,n,,,,,,,,,,0,2,2,6,,,,,,,,,,,,,b,0,1.0341241852547682,357.88965301987264,None,,,,,001,37,2019_Oct_16_1658,ACPT_experiment_5_30_19,3.1.0,59.9546291978328,
,,,C,G,g,v,,,,,,,,,,0,3,3,19,,,,,,,,,,,,,b,0,1.4508308729564305,362.22657199666355,None,,,,,001,37,2019_Oct_16_1658,ACPT_experiment_5_30_19,3.1.0,59.9546291978328,
,,,C,U,y,n,,,,,,,,,,0,4,4,8,,,,,,,,,,,,,b,0,1.9848818581995147,366.96323367164587,None,,,,,001,37,2019_Oct_16_1658,ACPT_experiment_5_30_19,3.1.0,59.9546291978328,
,,,C,U,d,n,,,,,,,,,,0,5,5,15,,,,,,,,,,,,,b,0,1.5512141995350248,372.2339264093898,None,,,,,001,37,2019_Oct_16_1658,ACPT_experiment_5_30_19,3.1.0,59.9546291978328,
,,,C,D,g,b,,,,,,,,,,0,6,6,10,,,,,,,,,,,,,b,1,2.568619803969341,377.0709677886771,None,,,,,001,37,2019_Oct_16_1658,ACPT_experiment_5_30_19,3.1.0,59.9546291978328,
,,,C,G,y,b,,,,,,,,,,0,7,7,14,,,,,,,,,,,,,b,1,2.785485026295646,382.925412357552,None,,,,,001,37,2019_Oct_16_1658,ACPT_experiment_5_30_19,3.1.0,59.9546291978328,
,,,C,D,d,v,,,,,,,,,,0,8,8,9,,,,,,,,,,,,,v,1,2.8021471600950463,388.9967176209211,None,,,,,001,37,2019_Oct_16_1658,ACPT_experiment_5_30_19,3.1.0,59.9546291978328,
,,,C,G,g,v,,,,,,,,,,0,9,9,13,,,,,,,,,,,,,v,1,2.368480406999879,395.0846943756151,None,,,,,001,37,2019_Oct_16_1658,ACPT_experiment_5_30_19,3.1.0,59.9546291978328,
,,,C,U,y,n,,,,,,,,,,0,10,10,17,,,,,,,,,,,,,b,0,1.6012374273304886,400.7390049809219,None,,,,,001,37,2019_Oct_16_1658,ACPT_experiment_5_30_19,3.1.0,59.9546291978328,
,,,C,G,y,b,,,,,,,,,,0,11,11,5,,,,,,,,,,,,,b,1,1.3843996738760325,405.6260720028549,None,,,,,001,37,2019_Oct_16_1658,ACPT_experiment_5_30_19,3.1.0,59.9546291978328,
,,,C,G,d,b,,,,,,,,,,0,12,12,3,,,,,,,,,,,,,b,1,2.098294485003862,410.31629649597016,None,,,,,001,37,2019_Oct_16_1658,ACPT_experiment_5_30_19,3.1.0,59.9546291978328,
,,,C,D,y,b,,,,,,,,,,0,13,13,2,,,,,,,,,,,,,v,0,2.75198568237829,415.7004217829963,None,,,,,001,37,2019_Oct_16_1658,ACPT_experiment_5_30_19,3.1.0,59.9546291978328,
,,,C,D,y,b,,,,,,,,,,0,14,14,11,,,,,,,,,,,,,v,0,1.5680384298539138,421.7215308552404,None,,,,,001,37,2019_Oct_16_1658,ACPT_experiment_5_30_19,3.1.0,59.9546291978328,
,,,C,G,g,v,,,,,,,,,,0,15,15,4,,,,,,,,,,,,,b,0,0.9674306735505525,426.57536356257333,None,,,,,001,37,2019_Oct_16_1658,ACPT_experiment_5_30_19,3.1.0,59.9546291978328,
,,,C,G,d,b,,,,,,,,,,0,16,16,12,,,,,,,,,,,,,b,1,1.217327061574906,430.8289000287077,None,,,,,001,37,2019_Oct_16_1658,ACPT_experiment_5_30_19,3.1.0,59.9546291978328,
,,,C,D,d,v,,,,,,,,,,0,17,17,0,,,,,,,,,,,,,v,1,0.8173021282927948,435.3320615145749,None,,,,,001,37,2019_Oct_16_1658,ACPT_experiment_5_30_19,3.1.0,59.9546291978328,
,,,C,D,g,b,,,,,,,,,,0,18,18,1,,,,,,,,,,,,,v,0,1.8847910298136412,439.4185111811894,None,,,,,001,37,2019_Oct_16_1658,ACPT_experiment_5_30_19,3.1.0,59.9546291978328,
,,,C,U,g,n,,,,,,,,,,0,19,19,16,,,,,,,,,,,,,b,0,3.419296609768935,444.58913542787195,None,,,,,001,37,2019_Oct_16_1658,ACPT_experiment_5_30_19,3.1.0,59.9546291978328,
,,,C,D,g,b,,,,,,,,,,1,0,20,1,,,,,,,,,,,,,b,1,1.3010029759971076,451.2942462375977,None,,,,,001,37,2019_Oct_16_1658,ACPT_experiment_5_30_19,3.1.0,59.9546291978328,
,,,C,U,g,n,,,,,,,,,,1,1,21,7,,,,,,,,,,,,,b,0,1.3839438717404846,455.8981831606179,None,,,,,001,37,2019_Oct_16_1658,ACPT_experiment_5_30_19,3.1.0,59.9546291978328,
,,,C,G,y,b,,,,,,,,,,1,2,22,14,,,,,,,,,,,,,b,1,1.6012265605240827,460.5679880199532,None,,,,,001,37,2019_Oct_16_1658,ACPT_experiment_5_30_19,3.1.0,59.9546291978328,
,,,C,D,d,v,,,,,,,,,,1,3,23,0,,,,,,,,,,,,,v,1,1.3010044852744613,465.45504296765284,None,,,,,001,37,2019_Oct_16_1658,ACPT_experiment_5_30_19,3.1.0,59.9546291978328,
,,,C,D,y,b,,,,,,,,,,1,4,24,2,,,,,,,,,,,,,v,0,2.3184282010515744,470.02522095083987,None,,,,,001,37,2019_Oct_16_1658,ACPT_experiment_5_30_19,3.1.0,59.9546291978328,
,,,C,D,d,v,,,,,,,,,,1,5,25,18,,,,,,,,,,,,,v,1,1.6012362199107883,475.61279397351245,None,,,,,001,37,2019_Oct_16_1658,ACPT_experiment_5_30_19,3.1.0,59.9546291978328,
,,,C,G,y,b,,,,,,,,,,1,6,26,5,,,,,,,,,,,,,b,1,2.2517268410992983,480.49986099544185,None,,,,,001,37,2019_Oct_16_1658,ACPT_experiment_5_30_19,3.1.0,59.9546291978328,
,,,C,G,d,b,,,,,,,,,,1,7,27,12,,,,,,,,,,,,,b,1,1.48447299462714,486.0374165255744,None,,,,,001,37,2019_Oct_16_1658,ACPT_experiment_5_30_19,3.1.0,59.9546291978328,
,,,C,D,y,b,,,,,,,,,,1,8,28,11,,,,,,,,,,,,,v,0,1.1675552795895783,490.824406000771,None,,,,,001,37,2019_Oct_16_1658,ACPT_experiment_5_30_19,3.1.0,59.9546291978328,
,,,C,G,d,b,,,,,,,,,,1,9,29,3,,,,,,,,,,,,,v,0,1.5345016558276257,495.29449225000644,None,,,,,001,37,2019_Oct_16_1658,ACPT_experiment_5_30_19,3.1.0,59.9546291978328,
,,,C,U,d,n,,,,,,,,,,1,10,30,6,,,,,,,,,,,,,n,1,1.2843520108581288,500.1147963334188,None,,,,,001,37,2019_Oct_16_1658,ACPT_experiment_5_30_19,3.1.0,59.9546291978328,
,,,C,G,g,v,,,,,,,,,,1,11,31,19,,,,,,,,,,,,,b,0,1.2174855358280183,504.70179613208165,None,,,,,001,37,2019_Oct_16_1658,ACPT_experiment_5_30_19,3.1.0,59.9546291978328,
,,,C,U,y,n,,,,,,,,,,1,12,32,8,,,,,,,,,,,,,n,1,1.5345405952139117,509.2050868121951,None,,,,,001,37,2019_Oct_16_1658,ACPT_experiment_5_30_19,3.1.0,59.9546291978328,
,,,C,U,d,n,,,,,,,,,,1,13,33,15,,,,,,,,,,,,,n,1,0.8840155624748149,514.0087565325375,None,,,,,001,37,2019_Oct_16_1658,ACPT_experiment_5_30_19,3.1.0,59.9546291978328,
,,,C,U,g,n,,,,,,,,,,1,14,34,16,,,,,,,,,,,,,n,1,0.7002639124548296,518.1788760764575,None,,,,,001,37,2019_Oct_16_1658,ACPT_experiment_5_30_19,3.1.0,59.9546291978328,
,,,C,U,y,n,,,,,,,,,,1,15,35,17,,,,,,,,,,,,,n,1,0.5004112784190511,522.1482968847595,None,,,,,001,37,2019_Oct_16_1658,ACPT_experiment_5_30_19,3.1.0,59.9546291978328,
,,,C,G,g,v,,,,,,,,,,1,16,36,13,,,,,,,,,,,,,v,1,1.6343214177795744,525.9514637134744,None,,,,,001,37,2019_Oct_16_1658,ACPT_experiment_5_30_19,3.1.0,59.9546291978328,
,,,C,G,g,v,,,,,,,,,,1,17,37,4,,,,,,,,,,,,,v,1,1.567870296217734,530.8549414233894,None,,,,,001,37,2019_Oct_16_1658,ACPT_experiment_5_30_19,3.1.0,59.9546291978328,
,,,C,D,g,b,,,,,,,,,,1,18,38,10,,,,,,,,,,,,,b,1,1.3176687320628844,535.7086476531804,None,,,,,001,37,2019_Oct_16_1658,ACPT_experiment_5_30_19,3.1.0,59.9546291978328,
,,,C,D,d,v,,,,,,,,,,1,19,39,9,,,,,,,,,,,,,v,1,2.2016755407203163,540.2954868645975,None,,,,,001,37,2019_Oct_16_1658,ACPT_experiment_5_30_19,3.1.0,59.9546291978328,
,,,C,U,d,n,,,,,,,,,,2,0,40,15,,,,,,,,,,,,,n,1,2.1182492609805195,545.7829935091977,None,,,,,001,37,2019_Oct_16_1658,ACPT_experiment_5_30_19,3.1.0,59.9546291978328,
,,,C,G,g,v,,,,,,,,,,2,1,41,4,,,,,,,,,,,,,v,1,2.1849702415529464,551.1871701660311,None,,,,,001,37,2019_Oct_16_1658,ACPT_experiment_5_30_19,3.1.0,59.9546291978328,
,,,C,U,g,n,,,,,,,,,,2,2,42,16,,,,,,,,,,,,,n,1,1.3343821813359682,556.6579352887748,None,,,,,001,37,2019_Oct_16_1658,ACPT_experiment_5_30_19,3.1.0,59.9546291978328,
,,,C,G,g,v,,,,,,,,,,2,3,43,19,,,,,,,,,,,,,v,1,0.8503834020411887,561.2951038096908,None,,,,,001,37,2019_Oct_16_1658,ACPT_experiment_5_30_19,3.1.0,59.9546291978328,
,,,C,D,d,v,,,,,,,,,,2,4,44,18,,,,,,,,,,,,,n,0,0.8506592981648282,565.4313140896302,None,,,,,001,37,2019_Oct_16_1658,ACPT_experiment_5_30_19,3.1.0,59.9546291978328,
,,,C,D,y,b,,,,,,,,,,2,5,45,11,,,,,,,,,,,,,b,1,1.934808824207721,569.5678126417806,None,,,,,001,37,2019_Oct_16_1658,ACPT_experiment_5_30_19,3.1.0,59.9546291978328,
,,,C,G,y,b,,,,,,,,,,2,6,46,14,,,,,,,,,,,,,v,0,1.584543296827178,574.7884567958463,None,,,,,001,37,2019_Oct_16_1658,ACPT_experiment_5_30_19,3.1.0,59.9546291978328,
,,,C,G,y,b,,,,,,,,,,2,7,47,5,,,,,,,,,,,,,b,1,1.5346559041026921,579.6586829853914,None,,,,,001,37,2019_Oct_16_1658,ACPT_experiment_5_30_19,3.1.0,59.9546291978328,
,,,C,D,g,b,,,,,,,,,,2,8,48,10,,,,,,,,,,,,,b,1,1.8180555601647939,584.4791811620307,None,,,,,001,37,2019_Oct_16_1658,ACPT_experiment_5_30_19,3.1.0,59.9546291978328,
,,,C,D,g,b,,,,,,,,,,2,9,49,1,,,,,,,,,,,,,b,1,0.6505141659363289,589.5664041829987,None,,,,,001,37,2019_Oct_16_1658,ACPT_experiment_5_30_19,3.1.0,59.9546291978328,
,,,C,U,d,n,,,,,,,,,,2,10,50,6,,,,,,,,,,,,,n,1,0.8670808529604983,593.5196745029425,None,,,,,001,37,2019_Oct_16_1658,ACPT_experiment_5_30_19,3.1.0,59.9546291978328,
,,,C,U,y,n,,,,,,,,,,2,11,51,8,,,,,,,,,,,,,n,1,0.43369724052536185,597.6558941404073,None,,,,,001,37,2019_Oct_16_1658,ACPT_experiment_5_30_19,3.1.0,59.9546291978328,
,,,C,D,d,v,,,,,,,,,,2,12,52,9,,,,,,,,,,,,,v,1,1.8514486508720438,601.3920656016999,None,,,,,001,37,2019_Oct_16_1658,ACPT_experiment_5_30_19,3.1.0,59.9546291978328,
,,,C,U,y,n,,,,,,,,,,2,13,53,17,,,,,,,,,,,,,n,1,0.8173169192268688,606.5293323766527,None,,,,,001,37,2019_Oct_16_1658,ACPT_experiment_5_30_19,3.1.0,59.9546291978328,
,,,C,D,y,b,,,,,,,,,,2,14,54,2,,,,,,,,,,,,,b,1,1.6343226252029126,610.6494000164821,None,,,,,001,37,2019_Oct_16_1658,ACPT_experiment_5_30_19,3.1.0,59.9546291978328,
,,,C,G,d,b,,,,,,,,,,2,15,55,12,,,,,,,,,,,,,v,0,2.9189025371269963,615.5695531418496,None,,,,,001,37,2019_Oct_16_1658,ACPT_experiment_5_30_19,3.1.0,59.9546291978328,
,,,C,U,g,n,,,,,,,,,,2,16,56,7,,,,,,,,,,,,,n,1,1.1175314480824454,621.7742867828565,None,,,,,001,37,2019_Oct_16_1658,ACPT_experiment_5_30_19,3.1.0,59.9546291978328,
,,,C,G,d,b,,,,,,,,,,2,17,57,3,,,,,,,,,,,,,b,1,2.201248414879956,626.1947461408527,None,,,,,001,37,2019_Oct_16_1658,ACPT_experiment_5_30_19,3.1.0,59.9546291978328,
,,,C,D,d,v,,,,,,,,,,2,18,58,0,,,,,,,,,,,,,b,0,1.8514353692189616,631.681842865386,None,,,,,001,37,2019_Oct_16_1658,ACPT_experiment_5_30_19,3.1.0,59.9546291978328,
,,,C,G,g,v,,,,,,,,,,2,19,59,13,,,,,,,,,,,,,b,0,2.168357310234569,636.8190966605398,None,,,,,001,37,2019_Oct_16_1658,ACPT_experiment_5_30_19,3.1.0,59.9546291978328,
,,,C,U,d,n,,,,,,,,,,3,0,60,15,,,,,,,,,,,,,n,1,1.050807448955311,642.2732542853701,None,,,,,001,37,2019_Oct_16_1658,ACPT_experiment_5_30_19,3.1.0,59.9546291978328,
,,,C,G,g,v,,,,,,,,,,3,1,61,4,,,,,,,,,,,,,v,1,0.8973720743015292,646.6465779673708,None,,,,,001,37,2019_Oct_16_1658,ACPT_experiment_5_30_19,3.1.0,59.9546291978328,
,,,C,G,g,v,,,,,,,,,,3,2,62,13,,,,,,,,,,,,,v,1,1.067503994305298,650.8131168987602,None,,,,,001,37,2019_Oct_16_1658,ACPT_experiment_5_30_19,3.1.0,59.9546291978328,
,,,C,U,g,n,,,,,,,,,,3,3,63,7,,,,,,,,,,,,,n,1,1.6343054194258002,655.1833842916094,None,,,,,001,37,2019_Oct_16_1658,ACPT_experiment_5_30_19,3.1.0,59.9546291978328,
,,,C,D,y,b,,,,,,,,,,3,4,64,11,,,,,,,,,,,,,b,1,1.2843188067272422,660.1035214186268,None,,,,,001,37,2019_Oct_16_1658,ACPT_experiment_5_30_19,3.1.0,59.9546291978328,
,,,C,G,y,b,,,,,,,,,,3,5,65,5,,,,,,,,,,,,,v,0,1.6346105955562962,664.6903482539637,None,,,,,001,37,2019_Oct_16_1658,ACPT_experiment_5_30_19,3.1.0,59.9546291978328,
,,,C,G,g,v,,,,,,,,,,3,6,66,19,,,,,,,,,,,,,v,1,2.40184451955065,669.6107679179295,None,,,,,001,37,2019_Oct_16_1658,ACPT_experiment_5_30_19,3.1.0,59.9546291978328,
,,,C,D,d,v,,,,,,,,,,3,7,67,18,,,,,,,,,,,,,v,1,4.253257551448769,675.2984408246593,None,,,,,001,37,2019_Oct_16_1658,ACPT_experiment_5_30_19,3.1.0,59.9546291978328,
,,,C,D,g,b,,,,,,,,,,3,8,68,1,,,,,,,,,,,,,b,1,2.7020786690336536,682.8208407828824,None,,,,,001,37,2019_Oct_16_1658,ACPT_experiment_5_30_19,3.1.0,59.9546291978328,
,,,C,D,d,v,,,,,,,,,,3,9,69,9,,,,,,,,,,,,,v,1,1.6346199530853482,688.8087460279567,None,,,,,001,37,2019_Oct_16_1658,ACPT_experiment_5_30_19,3.1.0,59.9546291978328,
,,,C,D,d,v,,,,,,,,,,3,10,70,0,,,,,,,,,,,,,v,1,1.2343296886247117,693.7291641826487,None,,,,,001,37,2019_Oct_16_1658,ACPT_experiment_5_30_19,3.1.0,59.9546291978328,
,,,C,U,y,n,,,,,,,,,,3,11,71,8,,,,,,,,,,,,,n,1,0.46675678066094406,698.2662454974452,None,,,,,001,37,2019_Oct_16_1658,ACPT_experiment_5_30_19,3.1.0,59.9546291978328,
,,,C,D,g,b,,,,,,,,,,3,12,72,10,,,,,,,,,,,,,b,1,2.5519543497539416,702.018818289198,None,,,,,001,37,2019_Oct_16_1658,ACPT_experiment_5_30_19,3.1.0,59.9546291978328,
,,,C,G,y,b,,,,,,,,,,3,13,73,14,,,,,,,,,,,,,b,1,1.3176832211393048,707.8566010261311,None,,,,,001,37,2019_Oct_16_1658,ACPT_experiment_5_30_19,3.1.0,59.9546291978328,
,,,C,G,d,b,,,,,,,,,,3,14,74,12,,,,,,,,,,,,,b,1,3.5826186647645955,712.4802207531247,None,,,,,001,37,2019_Oct_16_1658,ACPT_experiment_5_30_19,3.1.0,59.9546291978328,
,,,C,D,y,b,,,,,,,,,,3,15,75,2,,,,,,,,,,,,,b,1,1.267674784274277,719.3487028203308,None,,,,,001,37,2019_Oct_16_1658,ACPT_experiment_5_30_19,3.1.0,59.9546291978328,
,,,C,G,d,b,,,,,,,,,,3,16,76,3,,,,,,,,,,,,,v,0,3.119083590187074,723.9021755043505,None,,,,,001,37,2019_Oct_16_1658,ACPT_experiment_5_30_19,3.1.0,59.9546291978328,
,,,C,U,d,n,,,,,,,,,,3,17,77,6,,,,,,,,,,,,,n,1,0.867366710324859,730.3070316384037,None,,,,,001,37,2019_Oct_16_1658,ACPT_experiment_5_30_19,3.1.0,59.9546291978328,
,,,C,U,g,n,,,,,,,,,,3,18,78,16,,,,,,,,,,,,,n,1,1.6343168899438751,734.4604962930607,None,,,,,001,37,2019_Oct_16_1658,ACPT_experiment_5_30_19,3.1.0,59.9546291978328,
,,,C,U,y,n,,,,,,,,,,3,19,79,17,,,,,,,,,,,,,n,1,0.7172475225961534,739.3639634380306,None,,,,,001,37,2019_Oct_16_1658,ACPT_experiment_5_30_19,3.1.0,59.9546291978328,
,,,C,D,d,v,,,,,,,,,,4,0,80,0,,,,,,,,,,,,,v,1,3.452380600214383,743.3839674164883,None,,,,,001,37,2019_Oct_16_1658,ACPT_experiment_5_30_19,3.1.0,59.9546291978328,
,,,C,G,y,b,,,,,,,,,,4,1,81,5,,,,,,,,,,,,,b,1,0.9340671647078125,750.1221791205826,None,,,,,001,37,2019_Oct_16_1658,ACPT_experiment_5_30_19,3.1.0,59.9546291978328,
,,,C,D,d,v,,,,,,,,,,4,2,82,9,,,,,,,,,,,,,v,1,1.7680211637052707,754.3420544481305,None,,,,,001,37,2019_Oct_16_1658,ACPT_experiment_5_30_19,3.1.0,59.9546291978328,
,,,C,D,g,b,,,,,,,,,,4,3,83,1,,,,,,,,,,,,,v,0,1.2009538036982121,759.3792285835661,None,,,,,001,37,2019_Oct_16_1658,ACPT_experiment_5_30_19,3.1.0,59.9546291978328,
,,,C,U,d,n,,,,,,,,,,4,4,84,15,,,,,,,,,,,,,n,1,1.3507623818950378,763.8829394468376,None,,,,,001,37,2019_Oct_16_1658,ACPT_experiment_5_30_19,3.1.0,59.9546291978328,
,,,C,G,g,v,,,,,,,,,,4,5,85,4,,,,,,,,,,,,,v,1,1.684635030778736,768.5195284047768,None,,,,,001,37,2019_Oct_16_1658,ACPT_experiment_5_30_19,3.1.0,59.9546291978328,
,,,C,D,d,v,,,,,,,,,,4,6,86,18,,,,,,,,,,,,,v,1,1.3009655458845373,773.4900087266506,None,,,,,001,37,2019_Oct_16_1658,ACPT_experiment_5_30_19,3.1.0,59.9546291978328,
,,,C,U,y,n,,,,,,,,,,4,7,87,17,,,,,,,,,,,,,n,1,0.7503405687129998,778.0937400859293,None,,,,,001,37,2019_Oct_16_1658,ACPT_experiment_5_30_19,3.1.0,59.9546291978328,
,,,C,G,d,b,,,,,,,,,,4,8,88,3,,,,,,,,,,,,,b,1,2.8522259293458774,782.1298861007817,None,,,,,001,37,2019_Oct_16_1658,ACPT_experiment_5_30_19,3.1.0,59.9546291978328,
,,,C,U,g,n,,,,,,,,,,4,9,89,7,,,,,,,,,,,,,n,1,0.9507528432550316,788.2679232115297,None,,,,,001,37,2019_Oct_16_1658,ACPT_experiment_5_30_19,3.1.0,59.9546291978328,
,,,C,D,y,b,,,,,,,,,,4,10,90,11,,,,,,,,,,,,,b,1,1.1339693030822673,792.5214068529094,None,,,,,001,37,2019_Oct_16_1658,ACPT_experiment_5_30_19,3.1.0,59.9546291978328,
,,,C,D,y,b,,,,,,,,,,4,11,91,2,,,,,,,,,,,,,b,1,0.7672822209096921,796.9244992440035,None,,,,,001,37,2019_Oct_16_1658,ACPT_experiment_5_30_19,3.1.0,59.9546291978328,
,,,C,G,g,v,,,,,,,,,,4,12,92,19,,,,,,,,,,,,,v,1,2.518126284961909,800.9947419752425,None,,,,,001,37,2019_Oct_16_1658,ACPT_experiment_5_30_19,3.1.0,59.9546291978328,
,,,C,G,g,v,,,,,,,,,,4,13,93,13,,,,,,,,,,,,,v,1,1.050964715781447,806.7818893209806,None,,,,,001,37,2019_Oct_16_1658,ACPT_experiment_5_30_19,3.1.0,59.9546291978328,
,,,C,G,y,b,,,,,,,,,,4,14,94,14,,,,,,,,,,,,,b,1,0.8306516974407714,811.1386851949756,None,,,,,001,37,2019_Oct_16_1658,ACPT_experiment_5_30_19,3.1.0,59.9546291978328,
,,,C,G,d,b,,,,,,,,,,4,15,95,12,,,,,,,,,,,,,b,1,3.0356355768344656,815.2551918428944,None,,,,,001,37,2019_Oct_16_1658,ACPT_experiment_5_30_19,3.1.0,59.9546291978328,
,,,C,D,g,b,,,,,,,,,,4,16,96,10,,,,,,,,,,,,,b,1,1.150916690537997,821.5766576180395,None,,,,,001,37,2019_Oct_16_1658,ACPT_experiment_5_30_19,3.1.0,59.9546291978328,
,,,C,U,d,n,,,,,,,,,,4,17,97,6,,,,,,,,,,,,,n,1,1.7844297387055121,826.0303271421726,None,,,,,001,37,2019_Oct_16_1658,ACPT_experiment_5_30_19,3.1.0,59.9546291978328,
,,,C,U,y,n,,,,,,,,,,4,18,98,8,,,,,,,,,,,,,n,1,0.7338978840234631,831.0839077396122,None,,,,,001,37,2019_Oct_16_1658,ACPT_experiment_5_30_19,3.1.0,59.9546291978328,
,,,C,U,g,n,,,,,,,,,,4,19,99,16,,,,,,,,,,,,,n,1,0.4470075684293988,835.123655798754,None,,,,,001,37,2019_Oct_16_1658,ACPT_experiment_5_30_19,3.1.0,59.9546291978328,
,,,C,G,y,b,,,,,,,,,,5,0,100,14,,,,,,,,,,,,,b,1,0.7839700124459341,838.856485717246,None,,,,,001,37,2019_Oct_16_1658,ACPT_experiment_5_30_19,3.1.0,59.9546291978328,
,,,C,D,d,v,,,,,,,,,,5,1,101,9,,,,,,,,,,,,,v,1,1.4844720890650933,842.9262702315027,None,,,,,001,37,2019_Oct_16_1658,ACPT_experiment_5_30_19,3.1.0,59.9546291978328,
,,,C,G,d,b,,,,,,,,,,5,2,102,12,,,,,,,,,,,,,b,1,1.5845749916770728,847.6798916700209,None,,,,,001,37,2019_Oct_16_1658,ACPT_experiment_5_30_19,3.1.0,59.9546291978328,
,,,C,G,y,b,,,,,,,,,,5,3,103,5,,,,,,,,,,,,,b,1,0.9006891667886521,852.5335966923885,None,,,,,001,37,2019_Oct_16_1658,ACPT_experiment_5_30_19,3.1.0,59.9546291978328,
,,,C,U,y,n,,,,,,,,,,5,4,104,17,,,,,,,,,,,,,n,1,0.933649396392866,856.7371754334126,None,,,,,001,37,2019_Oct_16_1658,ACPT_experiment_5_30_19,3.1.0,59.9546291978328,
,,,C,U,g,n,,,,,,,,,,5,5,105,16,,,,,,,,,,,,,n,1,0.8173148062342079,860.9399820275103,None,,,,,001,37,2019_Oct_16_1658,ACPT_experiment_5_30_19,3.1.0,59.9546291978328,
,,,C,G,g,v,,,,,,,,,,5,6,106,4,,,,,,,,,,,,,v,1,1.8345048856863286,865.0600551007446,None,,,,,001,37,2019_Oct_16_1658,ACPT_experiment_5_30_19,3.1.0,59.9546291978328,
,,,C,D,y,b,,,,,,,,,,5,7,107,11,,,,,,,,,,,,,b,1,0.767254752037843,870.1803880717489,None,,,,,001,37,2019_Oct_16_1658,ACPT_experiment_5_30_19,3.1.0,59.9546291978328,
,,,C,D,d,v,,,,,,,,,,5,8,108,18,,,,,,,,,,,,,v,1,1.0674707901780494,874.2334887185971,None,,,,,001,37,2019_Oct_16_1658,ACPT_experiment_5_30_19,3.1.0,59.9546291978328,
,,,C,U,d,n,,,,,,,,,,5,9,109,6,,,,,,,,,,,,,n,1,1.0174545050576853,878.5867930274981,None,,,,,001,37,2019_Oct_16_1658,ACPT_experiment_5_30_19,3.1.0,59.9546291978328,
,,,C,U,y,n,,,,,,,,,,5,10,110,8,,,,,,,,,,,,,n,1,0.6838381316811137,882.9067739743623,None,,,,,001,37,2019_Oct_16_1658,ACPT_experiment_5_30_19,3.1.0,59.9546291978328,
,,,C,U,d,n,,,,,,,,,,5,11,111,15,,,,,,,,,,,,,n,1,0.6505084306772915,886.876451963737,None,,,,,001,37,2019_Oct_16_1658,ACPT_experiment_5_30_19,3.1.0,59.9546291978328,
,,,C,U,g,n,,,,,,,,,,5,12,112,7,,,,,,,,,,,,,n,1,0.4667712697337265,890.8297403950273,None,,,,,001,37,2019_Oct_16_1658,ACPT_experiment_5_30_19,3.1.0,59.9546291978328,
,,,C,G,g,v,,,,,,,,,,5,13,113,13,,,,,,,,,,,,,v,1,1.5845852547718096,894.582297792138,None,,,,,001,37,2019_Oct_16_1658,ACPT_experiment_5_30_19,3.1.0,59.9546291978328,
,,,C,D,g,b,,,,,,,,,,5,14,114,1,,,,,,,,,,,,,b,1,2.318438464146311,899.4527075099613,None,,,,,001,37,2019_Oct_16_1658,ACPT_experiment_5_30_19,3.1.0,59.9546291978328,
,,,C,G,g,v,,,,,,,,,,5,15,115,19,,,,,,,,,,,,,v,1,1.1342092783816042,905.0569773798379,None,,,,,001,37,2019_Oct_16_1658,ACPT_experiment_5_30_19,3.1.0,59.9546291978328,
,,,C,D,y,b,,,,,,,,,,5,16,116,2,,,,,,,,,,,,,b,1,0.9004555304636597,909.4939325491323,None,,,,,001,37,2019_Oct_16_1658,ACPT_experiment_5_30_19,3.1.0,59.9546291978328,
,,,C,D,g,b,,,,,,,,,,5,17,117,10,,,,,,,,,,,,,b,1,1.0007854285795474,913.6635244492572,None,,,,,001,37,2019_Oct_16_1658,ACPT_experiment_5_30_19,3.1.0,59.9546291978328,
,,,C,D,d,v,,,,,,,,,,5,18,118,0,,,,,,,,,,,,,v,1,1.3176675246395462,917.933474320078,None,,,,,001,37,2019_Oct_16_1658,ACPT_experiment_5_30_19,3.1.0,59.9546291978328,
,,,C,G,d,b,,,,,,,,,,5,19,119,3,,,,,,,,,,,,,b,1,1.4677963717549574,922.5369723448857,None,,,,,001,37,2019_Oct_16_1658,ACPT_experiment_5_30_19,3.1.0,59.9546291978328,
,,,C,D,g,b,,,,,,,,,,6,0,120,10,,,,,,,,,,,,,b,1,0.5837922797982174,927.2905980093819,None,,,,,001,37,2019_Oct_16_1658,ACPT_experiment_5_30_19,3.1.0,59.9546291978328,
,,,C,U,g,n,,,,,,,,,,6,1,121,16,,,,,,,,,,,,,n,1,0.40034550405471236,931.1602005650166,None,,,,,001,37,2019_Oct_16_1658,ACPT_experiment_5_30_19,3.1.0,59.9546291978328,
,,,C,G,g,v,,,,,,,,,,6,2,122,19,,,,,,,,,,,,,v,1,2.118293935629481,934.8463557411924,None,,,,,001,37,2019_Oct_16_1658,ACPT_experiment_5_30_19,3.1.0,59.9546291978328,
,,,C,D,g,b,,,,,,,,,,6,3,123,1,,,,,,,,,,,,,b,1,1.2342801842860354,940.2504783658514,None,,,,,001,37,2019_Oct_16_1658,ACPT_experiment_5_30_19,3.1.0,59.9546291978328,
,,,C,G,g,v,,,,,,,,,,6,4,124,13,,,,,,,,,,,,,v,1,1.150596119765396,944.7875578695166,None,,,,,001,37,2019_Oct_16_1658,ACPT_experiment_5_30_19,3.1.0,59.9546291978328,
,,,C,U,y,n,,,,,,,,,,6,5,125,17,,,,,,,,,,,,,n,1,0.8172785835486138,949.2240071286251,None,,,,,001,37,2019_Oct_16_1658,ACPT_experiment_5_30_19,3.1.0,59.9546291978328,
,,,C,G,y,b,,,,,,,,,,6,6,126,14,,,,,,,,,,,,,b,1,1.5843156976116006,953.3440313012325,None,,,,,001,37,2019_Oct_16_1658,ACPT_experiment_5_30_19,3.1.0,59.9546291978328,
,,,C,D,d,v,,,,,,,,,,6,7,127,18,,,,,,,,,,,,,v,1,1.734659466001176,958.2141759897349,None,,,,,001,37,2019_Oct_16_1658,ACPT_experiment_5_30_19,3.1.0,59.9546291978328,
,,,C,G,y,b,,,,,,,,,,6,8,128,5,,,,,,,,,,,,,b,1,0.6671808275750664,963.2346698800211,None,,,,,001,37,2019_Oct_16_1658,ACPT_experiment_5_30_19,3.1.0,59.9546291978328,
,,,C,U,g,n,,,,,,,,,,6,9,129,7,,,,,,,,,,,,,n,1,0.7169827951292973,967.2046026356256,None,,,,,001,37,2019_Oct_16_1658,ACPT_experiment_5_30_19,3.1.0,59.9546291978328,
,,,C,D,d,v,,,,,,,,,,6,10,130,0,,,,,,,,,,,,,v,1,3.8696273078021477,971.2074183457662,None,,,,,001,37,2019_Oct_16_1658,ACPT_experiment_5_30_19,3.1.0,59.9546291978328,
,,,C,U,y,n,,,,,,,,,,6,11,131,8,,,,,,,,,,,,,n,1,0.7839422417200694,978.3628710221856,None,,,,,001,37,2019_Oct_16_1658,ACPT_experiment_5_30_19,3.1.0,59.9546291978328,
,,,C,G,d,b,,,,,,,,,,6,12,132,12,,,,,,,,,,,,,b,1,1.5011484100796224,982.4326419529352,None,,,,,001,37,2019_Oct_16_1658,ACPT_experiment_5_30_19,3.1.0,59.9546291978328,
,,,C,U,d,n,,,,,,,,,,6,13,133,6,,,,,,,,,,,,,n,1,0.8172979023147491,987.2196272021501,None,,,,,001,37,2019_Oct_16_1658,ACPT_experiment_5_30_19,3.1.0,59.9546291978328,
,,,C,D,y,b,,,,,,,,,,6,14,134,2,,,,,,,,,,,,,b,1,1.4010983322186803,991.3227462471041,None,,,,,001,37,2019_Oct_16_1658,ACPT_experiment_5_30_19,3.1.0,59.9546291978328,
,,,C,G,d,b,,,,,,,,,,6,15,135,3,,,,,,,,,,,,,v,0,1.8014030857520993,996.0096373475244,None,,,,,001,37,2019_Oct_16_1658,ACPT_experiment_5_30_19,3.1.0,59.9546291978328,
,,,C,G,g,v,,,,,,,,,,6,16,136,4,,,,,,,,,,,,,v,1,1.6512691070893197,1001.080193404996,None,,,,,001,37,2019_Oct_16_1658,ACPT_experiment_5_30_19,3.1.0,59.9546291978328,
,,,C,D,d,v,,,,,,,,,,6,17,137,9,0,0,0,0,0,0,0,0,,,,,v,1,1.768060706806864,1006.0173056901913,None,,,,,001,37,2019_Oct_16_1658,ACPT_experiment_5_30_19,3.1.0,59.9546291978328,
,,,C,D,d,v,R,U,y,L,u,,,,,6,17,137,9,0,0,0,0,,,,,0,0,0,30,,,,,,down,1.28404200503428,1047.4324750267224,None,001,37,2019_Oct_16_1658,ACPT_experiment_5_30_19,3.1.0,59.9546291978328,
,,,C,D,d,v,L,U,y,R,u,,,,,6,17,137,9,0,0,0,0,,,,,0,1,1,25,,,,,,down,0.9173688082228182,1050.0008249716811,None,001,37,2019_Oct_16_1658,ACPT_experiment_5_30_19,3.1.0,59.9546291978328,
,,,C,D,d,v,R,D,d,R,c ,,,,,6,17,137,9,0,0,0,0,,,,,0,2,2,1,,,,,,up,1.8180555601647939,1052.2025150014742,None,001,37,2019_Oct_16_1658,ACPT_experiment_5_30_19,3.1.0,59.9546291978328,
,,,C,D,d,v,R,G,y,L,y,,,,,6,17,137,9,0,0,0,0,,,,,0,3,3,28,,,,,,down,1.100640205793752,1055.3217166172508,None,001,37,2019_Oct_16_1658,ACPT_experiment_5_30_19,3.1.0,59.9546291978328,
,,,C,D,d,v,L,G,y,L,y,,,,,6,17,137,9,0,0,0,0,,,,,0,4,4,34,,,,,,down,0.6671865628304658,1057.723391493888,None,001,37,2019_Oct_16_1658,ACPT_experiment_5_30_19,3.1.0,59.9546291978328,
,,,C,D,d,v,L,U,y,L,u,,,,,6,17,137,9,0,0,0,0,,,,,0,5,5,24,,,,,,down,0.5170525841749622,1059.6748760354058,None,001,37,2019_Oct_16_1658,ACPT_experiment_5_30_19,3.1.0,59.9546291978328,
,,,C,D,d,v,R,U,g,L,u,,,,,6,17,137,9,0,0,0,0,,,,,0,6,6,10,,,,,,down,1.4341826245217817,1061.493171872724,None,001,37,2019_Oct_16_1658,ACPT_experiment_5_30_19,3.1.0,59.9546291978328,
,,,C,D,d,v,L,G,d,R,i,,,,,6,17,137,9,0,0,0,0,,,,,0,7,7,17,,,,,,up,1.8013732020335738,1064.2116642483015,None,001,37,2019_Oct_16_1658,ACPT_experiment_5_30_19,3.1.0,59.9546291978328,
,,,C,D,d,v,L,D,d,R,c ,,,,,6,17,137,9,0,0,0,0,,,,,0,8,8,13,,,,,,down,1.601243162593164,1067.29735293665,None,001,37,2019_Oct_16_1658,ACPT_experiment_5_30_19,3.1.0,59.9546291978328,
,,,C,D,d,v,R,G,g,R,c ,,,,,6,17,137,9,0,0,0,0,,,,,0,9,9,7,,,,,,up,1.1675579962939082,1070.1828829092628,None,001,37,2019_Oct_16_1658,ACPT_experiment_5_30_19,3.1.0,59.9546291978328,
,,,C,D,d,v,L,U,d,R,u,,,,,6,17,137,9,0,0,0,0,,,,,0,10,10,21,,,,,,down,1.7346437695014174,1072.6347621271307,None,001,37,2019_Oct_16_1658,ACPT_experiment_5_30_19,3.1.0,59.9546291978328,
,,,C,D,d,v,L,D,y,L,y,,,,,6,17,137,9,0,0,0,0,,,,,0,11,11,32,,,,,,down,0.7339009025781706,1075.6537074975859,None,001,37,2019_Oct_16_1658,ACPT_experiment_5_30_19,3.1.0,59.9546291978328,
,,,C,D,d,v,L,D,d,L,c ,,,,,6,17,137,9,0,0,0,0,,,,,0,12,12,12,,,,,,up,1.367705543369084,1077.671929923592,None,001,37,2019_Oct_16_1658,ACPT_experiment_5_30_19,3.1.0,59.9546291978328,
,,,C,D,d,v,L,U,d,L,u,,,,,6,17,137,9,0,0,0,0,,,,,0,13,13,20,,,,,,up,1.0507944691562443,1080.3239521606993,None,001,37,2019_Oct_16_1658,ACPT_experiment_5_30_19,3.1.0,59.9546291978328,
,,,C,D,d,v,R,G,g,L,c ,,,,,6,17,137,9,0,0,0,0,,,,,0,14,14,6,,,,,,down,3.769537384981959,1082.6590811330825,None,001,37,2019_Oct_16_1658,ACPT_experiment_5_30_19,3.1.0,59.9546291978328,
,,,C,D,d,v,R,U,d,R,u,,,,,6,17,137,9,0,0,0,0,,,,,0,15,15,9,,,,,,down,1.2509531848954794,1087.7129186097372,None,001,37,2019_Oct_16_1658,ACPT_experiment_5_30_19,3.1.0,59.9546291978328,
,,,C,D,d,v,L,G,y,R,y,,,,,6,17,137,9,0,0,0,0,,,,,0,16,16,35,,,,,,down,1.0507884320431913,1090.2648684316591,None,001,37,2019_Oct_16_1658,ACPT_experiment_5_30_19,3.1.0,59.9546291978328,
,,,C,D,d,v,R,U,g,R,u,,,,,6,17,137,9,0,0,0,0,,,,,0,17,17,11,,,,,,down,1.8680860325039248,1092.6166610471191,None,001,37,2019_Oct_16_1658,ACPT_experiment_5_30_19,3.1.0,59.9546291978328,
,,,C,D,d,v,R,D,y,R,y,,,,,6,17,137,9,0,0,0,0,,,,,0,18,18,27,,,,,,down,0.8006116200558608,1095.7690571325365,None,001,37,2019_Oct_16_1658,ACPT_experiment_5_30_19,3.1.0,59.9546291978328,
,,,C,D,d,v,L,G,g,R,c ,,,,,6,17,137,9,0,0,0,0,,,,,0,19,19,19,,,,,,up,1.1675250940206752,1097.8540089910748,None,001,37,2019_Oct_16_1658,ACPT_experiment_5_30_19,3.1.0,59.9546291978328,
,,,C,D,d,v,R,D,g,L,i,,,,,6,17,137,9,0,0,0,0,,,,,0,20,20,2,,,,,,down,0.9340409032593016,1100.3058562122387,None,001,37,2019_Oct_16_1658,ACPT_experiment_5_30_19,3.1.0,59.9546291978328,
,,,C,D,d,v,L,G,d,L,i,,,,,6,17,137,9,0,0,0,0,,,,,0,21,21,16,,,,,,down,1.2176062781145447,1102.5241935849044,None,001,37,2019_Oct_16_1658,ACPT_experiment_5_30_19,3.1.0,59.9546291978328,
,,,C,D,d,v,R,G,d,R,i,,,,,6,17,137,9,0,0,0,0,,,,,0,22,22,5,,,,,,down,0.6504903193381324,1105.0094432542974,None,001,37,2019_Oct_16_1658,ACPT_experiment_5_30_19,3.1.0,59.9546291978328,
,,,C,D,d,v,R,D,y,L,y,,,,,6,17,137,9,0,0,0,0,,,,,0,23,23,26,,,,,,down,0.8170389101069304,1106.9778477143955,None,001,37,2019_Oct_16_1658,ACPT_experiment_5_30_19,3.1.0,59.9546291978328,
,,,C,D,d,v,R,G,y,R,y,,,,,6,17,137,9,0,0,0,0,,,,,0,24,24,29,,,,,,down,0.6338302985241171,1109.079210562777,None,001,37,2019_Oct_16_1658,ACPT_experiment_5_30_19,3.1.0,59.9546291978328,
,,,C,D,d,v,L,U,g,R,u,,,,,6,17,137,9,0,0,0,0,,,,,0,25,25,23,,,,,,down,1.4677722232991073,1111.0140257259554,None,001,37,2019_Oct_16_1658,ACPT_experiment_5_30_19,3.1.0,59.9546291978328,
,,,C,D,d,v,L,D,y,R,y,,,,,6,17,137,9,0,0,0,0,,,,,0,26,26,33,,,,,,down,0.6838767692133843,1113.7661173596935,None,001,37,2019_Oct_16_1658,ACPT_experiment_5_30_19,3.1.0,59.9546291978328,
,,,C,D,d,v,R,D,d,L,c,,,,,6,17,137,9,0,0,0,0,,,,,0,27,27,0,,,,,,up,1.2009094309105421,1115.7342851649082,None,001,37,2019_Oct_16_1658,ACPT_experiment_5_30_19,3.1.0,59.9546291978328,
,,,C,D,d,v,L,G,g,L,c ,,,,,6,17,137,9,0,0,0,0,,,,,0,28,28,18,,,,,,up,1.0841597891376296,1118.219511289557,None,001,37,2019_Oct_16_1658,ACPT_experiment_5_30_19,3.1.0,59.9546291978328,
,,,C,D,d,v,L,D,g,L,i,,,,,6,17,137,9,0,0,0,0,,,,,0,29,29,14,,,,,,down,0.9170932139495562,1120.6049363673083,None,001,37,2019_Oct_16_1658,ACPT_experiment_5_30_19,3.1.0,59.9546291978328,
,,,C,D,d,v,L,U,g,L,u,,,,,6,17,137,9,0,0,0,0,,,,,0,30,30,22,,,,,,down,1.2841980644407158,1122.8063438601494,None,001,37,2019_Oct_16_1658,ACPT_experiment_5_30_19,3.1.0,59.9546291978328,
,,,C,D,d,v,R,U,y,R,u,,,,,6,17,137,9,0,0,0,0,,,,,0,31,31,31,,,,,,down,0.7505615271002171,1125.391649342666,None,001,37,2019_Oct_16_1658,ACPT_experiment_5_30_19,3.1.0,59.9546291978328,
,,,C,D,d,v,L,D,g,R,i,,,,,6,17,137,9,0,0,0,0,,,,,0,32,32,15,,,,,,down,1.467781882678537,1127.4432087142122,None,001,37,2019_Oct_16_1658,ACPT_experiment_5_30_19,3.1.0,59.9546291978328,
,,,C,D,d,v,R,G,d,L,i,,,,,6,17,137,9,0,0,0,0,,,,,0,33,33,4,,,,,,down,1.1842340154580597,1130.19531242218,None,001,37,2019_Oct_16_1658,ACPT_experiment_5_30_19,3.1.0,59.9546291978328,
,,,C,D,d,v,R,D,g,R,i,,,,,6,17,137,9,0,0,0,0,,,,,0,34,34,3,,,,,,down,0.9840236823947635,1132.6639361804591,None,001,37,2019_Oct_16_1658,ACPT_experiment_5_30_19,3.1.0,59.9546291978328,
,,,C,D,d,v,R,U,d,L,u,,,,,6,17,137,9,0,0,0,0,,,,,0,35,35,8,,,,,,down,1.1842071502978797,1134.9322780658658,None,001,37,2019_Oct_16_1658,ACPT_experiment_5_30_19,3.1.0,59.9546291978328,
,,,C,D,d,v,L,G,y,L,y,,,,,6,17,137,9,0,0,0,0,,,,,1,0,36,34,,,,,,down,0.7172046590821992,1137.400809456296,None,001,37,2019_Oct_16_1658,ACPT_experiment_5_30_19,3.1.0,59.9546291978328,
,,,C,D,d,v,L,D,g,L,i,,,,,6,17,137,9,0,0,0,0,,,,,1,1,37,14,,,,,,down,1.2342726378956286,1139.402333223963,None,001,37,2019_Oct_16_1658,ACPT_experiment_5_30_19,3.1.0,59.9546291978328,
,,,C,D,d,v,L,G,g,L,c ,,,,,6,17,137,9,0,0,0,0,,,,,1,2,38,18,,,,,,up,1.0341462207215955,1141.9042571013852,None,001,37,2019_Oct_16_1658,ACPT_experiment_5_30_19,3.1.0,59.9546291978328,
,,,C,D,d,v,R,D,y,R,y,,,,,6,17,137,9,0,0,0,0,,,,,1,3,39,27,,,,,,down,0.6171346587434527,1144.2226729263493,None,001,37,2019_Oct_16_1658,ACPT_experiment_5_30_19,3.1.0,59.9546291978328,
,,,C,D,d,v,L,U,g,L,u,,,,,6,17,137,9,0,0,0,0,,,,,1,4,40,22,,,,,,down,0.9840991463242972,1146.1241200528493,None,001,37,2019_Oct_16_1658,ACPT_experiment_5_30_19,3.1.0,59.9546291978328,
,,,C,D,d,v,R,D,g,R,i,,,,,6,17,137,9,0,0,0,0,,,,,1,5,41,3,,,,,,down,0.9340481477993308,1148.3925195927004,None,001,37,2019_Oct_16_1658,ACPT_experiment_5_30_19,3.1.0,59.9546291978328,
,,,C,D,d,v,R,G,d,R,i,,,,,6,17,137,9,0,0,0,0,,,,,1,6,42,5,,,,,,down,1.2342530172754778,1150.6108953010444,None,001,37,2019_Oct_16_1658,ACPT_experiment_5_30_19,3.1.0,59.9546291978328,
,,,C,D,d,v,R,U,d,R,u,,,,,6,17,137,9,0,0,0,0,,,,,1,7,43,9,,,,,,down,2.36847316245985,1153.129461691642,None,001,37,2019_Oct_16_1658,ACPT_experiment_5_30_19,3.1.0,59.9546291978328,
,,,C,D,d,v,R,U,g,L,u,,,,,6,17,137,9,0,0,0,0,,,,,1,8,44,10,,,,,,down,1.0841800134694495,1156.7655465505304,None,001,37,2019_Oct_16_1658,ACPT_experiment_5_30_19,3.1.0,59.9546291978328,
,,,C,D,d,v,L,D,y,R,y,,,,,6,17,137,9,0,0,0,0,,,,,1,9,45,33,,,,,,down,0.5837786962911196,1159.1340411447454,None,001,37,2019_Oct_16_1658,ACPT_experiment_5_30_19,3.1.0,59.9546291978328,
,,,C,D,d,v,R,D,d,L,c,,,,,6,17,137,9,0,0,0,0,,,,,1,10,46,0,,,,,,up,1.100834600874805,1161.0021307995157,None,001,37,2019_Oct_16_1658,ACPT_experiment_5_30_19,3.1.0,59.9546291978328,
,,,C,D,d,v,R,U,g,R,u,,,,,6,17,137,9,0,0,0,0,,,,,1,11,47,11,,,,,,down,0.9006846389529528,1163.3872814904207,None,001,37,2019_Oct_16_1658,ACPT_experiment_5_30_19,3.1.0,59.9546291978328,
,,,C,D,d,v,R,G,d,L,i,,,,,6,17,137,9,0,0,0,0,,,,,1,12,48,4,,,,,,down,1.3176693357781915,1165.5722831249695,None,001,37,2019_Oct_16_1658,ACPT_experiment_5_30_19,3.1.0,59.9546291978328,
,,,C,D,d,v,L,G,y,R,y,,,,,6,17,137,9,0,0,0,0,,,,,1,13,49,35,,,,,,down,0.9337924760038732,1168.1911923934786,None,001,37,2019_Oct_16_1658,ACPT_experiment_5_30_19,3.1.0,59.9546291978328,
,,,C,D,d,v,R,G,g,L,c ,,,,,6,17,137,9,0,0,0,0,,,,,1,14,50,6,,,,,,up,1.7846917494680383,1170.4093054873447,None,001,37,2019_Oct_16_1658,ACPT_experiment_5_30_19,3.1.0,59.9546291978328,
,,,C,D,d,v,L,U,y,R,u,,,,,6,17,137,9,0,0,0,0,,,,,1,15,51,25,,,,,,down,1.0507938654445752,1173.4783145342626,None,001,37,2019_Oct_16_1658,ACPT_experiment_5_30_19,3.1.0,59.9546291978328,
,,,C,D,d,v,L,G,g,R,c ,,,,,6,17,137,9,0,0,0,0,,,,,1,16,52,19,,,,,,up,0.767216416363226,1175.8134462233502,None,001,37,2019_Oct_16_1658,ACPT_experiment_5_30_19,3.1.0,59.9546291978328,
,,,C,D,d,v,L,D,d,R,c ,,,,,6,17,137,9,0,0,0,0,,,,,1,17,53,13,,,,,,up,1.3343876147373521,1177.864988992831,None,001,37,2019_Oct_16_1658,ACPT_experiment_5_30_19,3.1.0,59.9546291978328,
,,,C,D,d,v,R,D,d,R,c ,,,,,6,17,137,9,0,0,0,0,,,,,1,18,54,1,,,,,,up,0.7005307529070706,1180.4836540600663,None,001,37,2019_Oct_16_1658,ACPT_experiment_5_30_19,3.1.0,59.9546291978328,
,,,C,D,d,v,L,G,d,R,i,,,,,6,17,137,9,0,0,0,0,,,,,1,19,55,17,,,,,,down,1.0174403178425564,1182.4684978844452,None,001,37,2019_Oct_16_1658,ACPT_experiment_5_30_19,3.1.0,59.9546291978328,
,,,C,D,d,v,L,U,d,R,u,,,,,6,17,137,9,0,0,0,0,,,,,1,20,56,21,,,,,,down,1.2009399183370988,1184.7535498987127,None,001,37,2019_Oct_16_1658,ACPT_experiment_5_30_19,3.1.0,59.9546291978328,
,,,C,D,d,v,L,D,y,L,y,,,,,6,17,137,9,0,0,0,0,,,,,1,21,57,32,,,,,,down,0.8837970189342741,1187.255651871008,None,001,37,2019_Oct_16_1658,ACPT_experiment_5_30_19,3.1.0,59.9546291978328,
,,,C,D,d,v,L,U,g,R,u,,,,,6,17,137,9,0,0,0,0,,,,,1,22,58,23,,,,,,down,1.18421499854594,1189.4404929183147,None,001,37,2019_Oct_16_1658,ACPT_experiment_5_30_19,3.1.0,59.9546291978328,
,,,C,D,d,v,L,D,g,R,i,,,,,6,17,137,9,0,0,0,0,,,,,1,23,59,15,,,,,,down,0.9507465042843251,1191.9090255161682,None,001,37,2019_Oct_16_1658,ACPT_experiment_5_30_19,3.1.0,59.9546291978328,
,,,C,D,d,v,L,G,d,L,i,,,,,6,17,137,9,0,0,0,0,,,,,1,24,60,16,,,,,,down,1.1841917556557746,1194.144092336457,None,001,37,2019_Oct_16_1658,ACPT_experiment_5_30_19,3.1.0,59.9546291978328,
,,,C,D,d,v,L,D,d,L,c ,,,,,6,17,137,9,0,0,0,0,,,,,1,25,61,12,,,,,,up,2.1516335978703864,1196.6126167842049,None,001,37,2019_Oct_16_1658,ACPT_experiment_5_30_19,3.1.0,59.9546291978328,
,,,C,D,d,v,R,U,d,L,u,,,,,6,17,137,9,0,0,0,0,,,,,1,26,62,8,,,,,,down,1.0842080860493297,1200.0485667739558,None,001,37,2019_Oct_16_1658,ACPT_experiment_5_30_19,3.1.0,59.9546291978328,
,,,C,D,d,v,R,G,y,L,y,,,,,6,17,137,9,0,0,0,0,,,,,1,27,63,28,,,,,,down,0.7672118885275268,1202.4170852147763,None,001,37,2019_Oct_16_1658,ACPT_experiment_5_30_19,3.1.0,59.9546291978328,
,,,C,D,d,v,L,U,d,L,u,,,,,6,17,137,9,0,0,0,0,,,,,1,28,64,20,,,,,,down,1.3343516939094116,1204.4686053450823,None,001,37,2019_Oct_16_1658,ACPT_experiment_5_30_19,3.1.0,59.9546291978328,
,,,C,D,d,v,R,U,y,L,u,,,,,6,17,137,9,0,0,0,0,,,,,1,29,65,30,,,,,,down,0.6838701283886621,1207.0872698086023,None,001,37,2019_Oct_16_1658,ACPT_experiment_5_30_19,3.1.0,59.9546291978328,
,,,C,D,d,v,R,U,y,R,u,,,,,6,17,137,9,0,0,0,0,,,,,1,30,66,31,,,,,,down,0.5837853371158417,1209.0554345952623,None,001,37,2019_Oct_16_1658,ACPT_experiment_5_30_19,3.1.0,59.9546291978328,
,,,C,D,d,v,R,D,y,L,y,,,,,6,17,137,9,0,0,0,0,,,,,1,31,67,26,,,,,,down,0.5671014697072678,1210.923523646321,None,001,37,2019_Oct_16_1658,ACPT_experiment_5_30_19,3.1.0,59.9546291978328,
,,,C,D,d,v,R,D,g,L,i,,,,,6,17,137,9,0,0,0,0,,,,,1,32,68,2,,,,,,down,1.0507935635905596,1212.7749390930621,None,001,37,2019_Oct_16_1658,ACPT_experiment_5_30_19,3.1.0,59.9546291978328,
,,,C,D,d,v,R,G,g,R,c ,,,,,6,17,137,9,0,0,0,0,,,,,1,33,69,7,,,,,,up,0.6838483947758505,1215.110052670807,None,001,37,2019_Oct_16_1658,ACPT_experiment_5_30_19,3.1.0,59.9546291978328,
,,,C,D,d,v,L,U,y,L,u,,,,,6,17,137,9,0,0,0,0,,,,,1,34,70,24,,,,,,down,0.5671032808422751,1217.0782144389086,None,001,37,2019_Oct_16_1658,ACPT_experiment_5_30_19,3.1.0,59.9546291978328,
,,,C,D,d,v,R,G,y,R,y,,,,,6,17,137,9,0,0,0,0,,,,,1,35,71,29,,,,,,down,0.7505651493702317,1218.9463095270803,None,001,37,2019_Oct_16_1658,ACPT_experiment_5_30_19,3.1.0,59.9546291978328,
,,,C,D,d,v,,,,,,,,,,6,17,137,9,1,0,1,0,0,0,0,0,,,,,,,,,,,,,,001,37,2019_Oct_16_1658,ACPT_experiment_5_30_19,3.1.0,59.9546291978328,
,,,C,D,d,v,R,G,y,R,y,,,,,6,17,137,9,1,0,1,0,,,,,0,0,0,29,,,,,,down,0.7304093374841614,1224.3539059073482,None,001,37,2019_Oct_16_1658,ACPT_experiment_5_30_19,3.1.0,59.9546291978328,
,,,C,D,d,v,L,D,g,R,i,,,,,6,17,137,9,1,0,1,0,,,,,0,1,1,15,,,,,,down,1.0007241518687806,1226.3686645389862,None,001,37,2019_Oct_16_1658,ACPT_experiment_5_30_19,3.1.0,59.9546291978328,
,,,C,D,d,v,R,G,g,R,c ,,,,,6,17,137,9,1,0,1,0,,,,,0,2,2,7,,,,,,up,0.5170504711823014,1228.6537108179982,None,001,37,2019_Oct_16_1658,ACPT_experiment_5_30_19,3.1.0,59.9546291978328,
,,,C,D,d,v,L,D,g,L,i,,,,,6,17,137,9,1,0,1,0,,,,,0,3,3,14,,,,,,down,0.8506746928105713,1230.4550849255975,None,001,37,2019_Oct_16_1658,ACPT_experiment_5_30_19,3.1.0,59.9546291978328,
,,,C,D,d,v,R,G,g,L,c ,,,,,6,17,137,9,1,0,1,0,,,,,0,4,4,6,,,,,,up,0.7339187120633142,1232.5733353940013,None,001,37,2019_Oct_16_1658,ACPT_experiment_5_30_19,3.1.0,59.9546291978328,
,,,C,D,d,v,R,G,d,R,i,,,,,6,17,137,9,1,0,1,0,,,,,0,5,5,5,,,,,,down,0.7505947312274657,1234.5748703303325,None,001,37,2019_Oct_16_1658,ACPT_experiment_5_30_19,3.1.0,59.9546291978328,
,,,C,D,d,v,R,D,d,L,c,,,,,6,17,137,9,1,0,1,0,,,,,0,6,6,0,,,,,,up,1.3677052415114304,1236.6097781330282,None,001,37,2019_Oct_16_1658,ACPT_experiment_5_30_19,3.1.0,59.9546291978328,
,,,C,D,d,v,L,G,g,L,c ,,,,,6,17,137,9,1,0,1,0,,,,,0,7,7,18,,,,,,up,1.0674807514151325,1239.2617958422998,None,001,37,2019_Oct_16_1658,ACPT_experiment_5_30_19,3.1.0,59.9546291978328,
,,,C,D,d,v,R,D,g,R,i,,,,,6,17,137,9,1,0,1,0,,,,,0,8,8,3,,,,,,down,0.8339497730194125,1241.6136138136426,None,001,37,2019_Oct_16_1658,ACPT_experiment_5_30_19,3.1.0,59.9546291978328,
,,,C,D,d,v,R,U,g,L,u,,,,,6,17,137,9,1,0,1,0,,,,,0,9,9,10,,,,,,down,0.9173663933761418,1243.715190677729,None,001,37,2019_Oct_16_1658,ACPT_experiment_5_30_19,3.1.0,59.9546291978328,
,,,C,D,d,v,R,G,d,L,i,,,,,6,17,137,9,1,0,1,0,,,,,0,10,10,4,,,,,,down,1.5345227857287682,1245.9168499182451,None,001,37,2019_Oct_16_1658,ACPT_experiment_5_30_19,3.1.0,59.9546291978328,
,,,C,D,d,v,R,D,g,L,i,,,,,6,17,137,9,1,0,1,0,,,,,0,11,11,2,,,,,,down,0.817320843347261,1248.7356903032778,None,001,37,2019_Oct_16_1658,ACPT_experiment_5_30_19,3.1.0,59.9546291978328,
,,,C,D,d,v,L,D,d,R,c ,,,,,6,17,137,9,1,0,1,0,,,,,0,12,12,13,,,,,,up,1.2009091290528886,1250.8372895046887,None,001,37,2019_Oct_16_1658,ACPT_experiment_5_30_19,3.1.0,59.9546291978328,
,,,C,D,d,v,R,U,g,R,u,,,,,6,17,137,9,1,0,1,0,,,,,0,13,13,11,,,,,,down,0.9507175261351222,1253.3225252887205,None,001,37,2019_Oct_16_1658,ACPT_experiment_5_30_19,3.1.0,59.9546291978328,
,,,C,D,d,v,R,D,d,R,c ,,,,,6,17,137,9,1,0,1,0,,,,,0,14,14,1,,,,,,up,1.2342596581001999,1255.557565847561,None,001,37,2019_Oct_16_1658,ACPT_experiment_5_30_19,3.1.0,59.9546291978328,
,,,C,D,d,v,L,U,y,L,u,,,,,6,17,137,9,1,0,1,0,,,,,0,15,15,24,,,,,,down,0.71720677207486,1258.0761461235234,None,001,37,2019_Oct_16_1658,ACPT_experiment_5_30_19,3.1.0,59.9546291978328,
,,,C,D,d,v,L,U,y,R,u,,,,,6,17,137,9,1,0,1,0,,,,,0,16,16,25,,,,,,down,0.5170468489122868,1260.0776750227378,None,001,37,2019_Oct_16_1658,ACPT_experiment_5_30_19,3.1.0,59.9546291978328,
,,,C,D,d,v,R,D,y,R,y,,,,,6,17,137,9,1,0,1,0,,,,,0,17,17,27,,,,,,down,0.600460148856655,1261.8790436969357,None,001,37,2019_Oct_16_1658,ACPT_experiment_5_30_19,3.1.0,59.9546291978328,
,,,C,D,d,v,R,U,d,R,u,,,,,6,17,137,9,1,0,1,0,,,,,0,18,18,9,,,,,,down,1.3009863739316643,1263.7638135968518,None,001,37,2019_Oct_16_1658,ACPT_experiment_5_30_19,3.1.0,59.9546291978328,
,,,C,D,d,v,L,D,d,L,c ,,,,,6,17,137,9,1,0,1,0,,,,,0,19,19,12,,,,,,up,0.9173645822411345,1266.349116362664,None,001,37,2019_Oct_16_1658,ACPT_experiment_5_30_19,3.1.0,59.9546291978328,
,,,C,D,d,v,L,G,d,R,i,,,,,6,17,137,9,1,0,1,0,,,,,0,20,20,17,,,,,,down,0.7338942617534485,1268.5507955256544,None,001,37,2019_Oct_16_1658,ACPT_experiment_5_30_19,3.1.0,59.9546291978328,
,,,C,D,d,v,R,U,y,R,u,,,,,6,17,137,9,1,0,1,0,,,,,0,21,21,31,,,,,,down,0.9840813368318777,1270.5690037644454,None,001,37,2019_Oct_16_1658,ACPT_experiment_5_30_19,3.1.0,59.9546291978328,
,,,C,D,d,v,L,G,d,L,i,,,,,6,17,137,9,1,0,1,0,,,,,0,22,22,16,,,,,,down,1.0507996007036127,1272.8373960597564,None,001,37,2019_Oct_16_1658,ACPT_experiment_5_30_19,3.1.0,59.9546291978328,
,,,C,D,d,v,L,D,y,R,y,,,,,6,17,137,9,1,0,1,0,,,,,0,23,23,33,,,,,,down,0.73388520608205,1275.1725078263662,None,001,37,2019_Oct_16_1658,ACPT_experiment_5_30_19,3.1.0,59.9546291978328,
,,,C,D,d,v,L,G,y,L,y,,,,,6,17,137,9,1,0,1,0,,,,,0,24,24,34,,,,,,down,0.7839180932642194,1277.190720894847,None,001,37,2019_Oct_16_1658,ACPT_experiment_5_30_19,3.1.0,59.9546291978328,
,,,C,D,d,v,R,D,y,L,y,,,,,6,17,137,9,1,0,1,0,,,,,0,25,25,26,,,,,,down,0.5837977131996013,1279.2589363630796,None,001,37,2019_Oct_16_1658,ACPT_experiment_5_30_19,3.1.0,59.9546291978328,
,,,C,D,d,v,R,G,y,L,y,,,,,6,17,137,9,1,0,1,0,,,,,0,26,26,28,,,,,,down,0.5837952983565629,1281.127054694145,None,001,37,2019_Oct_16_1658,ACPT_experiment_5_30_19,3.1.0,59.9546291978328,
,,,C,D,d,v,R,U,y,L,u,,,,,6,17,137,9,1,0,1,0,,,,,0,27,27,30,,,,,,down,0.48371412935011904,1283.0118004456017,None,001,37,2019_Oct_16_1658,ACPT_experiment_5_30_19,3.1.0,59.9546291978328,
,,,C,D,d,v,L,D,y,L,y,,,,,6,17,137,9,1,0,1,0,,,,,0,28,28,32,,,,,,down,0.46699524667928927,1284.8132128888792,None,001,37,2019_Oct_16_1658,ACPT_experiment_5_30_19,3.1.0,59.9546291978328,
,,,C,D,d,v,L,U,d,L,u,,,,,6,17,137,9,1,0,1,0,,,,,0,29,29,20,,,,,,down,1.2009254292606784,1286.5645332812528,None,001,37,2019_Oct_16_1658,ACPT_experiment_5_30_19,3.1.0,59.9546291978328,
,,,C,D,d,v,L,G,y,R,y,,,,,6,17,137,9,1,0,1,0,,,,,0,30,30,35,,,,,,down,0.9340686739851662,1289.0497585003322,None,001,37,2019_Oct_16_1658,ACPT_experiment_5_30_19,3.1.0,59.9546291978328,
,,,C,D,d,v,L,U,g,L,u,,,,,6,17,137,9,1,0,1,0,,,,,0,31,31,22,,,,,,down,1.200902790082182,1291.2681245492931,None,001,37,2019_Oct_16_1658,ACPT_experiment_5_30_19,3.1.0,59.9546291978328,
,,,C,D,d,v,L,G,g,R,c ,,,,,6,17,137,9,1,0,1,0,,,,,0,32,32,19,,,,,,up,1.0174662774334138,1293.753349466515,None,001,37,2019_Oct_16_1658,ACPT_experiment_5_30_19,3.1.0,59.9546291978328,
,,,C,D,d,v,L,U,d,R,u,,,,,6,17,137,9,1,0,1,0,,,,,0,33,33,21,,,,,,down,1.0674822606924863,1296.0550992335593,None,001,37,2019_Oct_16_1658,ACPT_experiment_5_30_19,3.1.0,59.9546291978328,
,,,C,D,d,v,R,U,d,L,u,,,,,6,17,137,9,1,0,1,0,,,,,0,34,34,8,,,,,,down,0.7839564289388363,1298.4068948675776,None,001,37,2019_Oct_16_1658,ACPT_experiment_5_30_19,3.1.0,59.9546291978328,
,,,C,D,d,v,L,U,g,R,u,,,,,6,17,137,9,1,0,1,0,,,,,0,35,35,23,,,,,,down,0.4670381101896055,1300.4751154673613,None,001,37,2019_Oct_16_1658,ACPT_experiment_5_30_19,3.1.0,59.9546291978328,
,,,C,D,d,v,R,U,g,R,u,,,,,6,17,137,9,1,0,1,0,,,,,1,0,36,11,,,,,,down,0.45036058174810023,1302.2264732898439,None,001,37,2019_Oct_16_1658,ACPT_experiment_5_30_19,3.1.0,59.9546291978328,
,,,C,D,d,v,R,U,g,L,u,,,,,6,17,137,9,1,0,1,0,,,,,1,1,37,10,,,,,,down,0.4504903797060251,1303.9442964512964,None,001,37,2019_Oct_16_1658,ACPT_experiment_5_30_19,3.1.0,59.9546291978328,
,,,C,D,d,v,R,U,y,R,u,,,,,6,17,137,9,1,0,1,0,,,,,1,2,38,31,,,,,,down,0.44700424801703775,1305.699117766293,None,001,37,2019_Oct_16_1658,ACPT_experiment_5_30_19,3.1.0,59.9546291978328,
,,,C,D,d,v,R,D,y,R,y,,,,,6,17,137,9,1,0,1,0,,,,,1,3,39,27,,,,,,down,1.067477732860425,1307.4304411228914,None,001,37,2019_Oct_16_1658,ACPT_experiment_5_30_19,3.1.0,59.9546291978328,
,,,C,D,d,v,L,U,y,L,u,,,,,6,17,137,9,1,0,1,0,,,,,1,4,40,24,,,,,,down,0.5502044921558991,1309.799082720845,None,001,37,2019_Oct_16_1658,ACPT_experiment_5_30_19,3.1.0,59.9546291978328,
,,,C,D,d,v,R,G,d,R,i,,,,,6,17,137,9,1,0,1,0,,,,,1,5,41,5,,,,,,down,1.0174321677368425,1311.6503224875596,None,001,37,2019_Oct_16_1658,ACPT_experiment_5_30_19,3.1.0,59.9546291978328,
,,,C,D,d,v,L,U,g,R,u,,,,,6,17,137,9,1,0,1,0,,,,,1,6,42,23,,,,,,down,0.7839389213077084,1313.9520794991367,None,001,37,2019_Oct_16_1658,ACPT_experiment_5_30_19,3.1.0,59.9546291978328,
,,,C,D,d,v,L,U,d,R,u,,,,,6,17,137,9,1,0,1,0,,,,,1,7,43,21,,,,,,down,0.650487904487818,1316.020321228818,None,001,37,2019_Oct_16_1658,ACPT_experiment_5_30_19,3.1.0,59.9546291978328,
,,,C,D,d,v,R,D,g,R,i,,,,,6,17,137,9,1,0,1,0,,,,,1,8,44,3,,,,,,down,0.9840807331238466,1317.9551324678723,None,001,37,2019_Oct_16_1658,ACPT_experiment_5_30_19,3.1.0,59.9546291978328,
,,,C,D,d,v,L,U,g,L,u,,,,,6,17,137,9,1,0,1,0,,,,,1,9,45,22,,,,,,down,1.0007839193021937,1320.2068218788663,None,001,37,2019_Oct_16_1658,ACPT_experiment_5_30_19,3.1.0,59.9546291978328,
,,,C,D,d,v,R,D,y,L,y,,,,,6,17,137,9,1,0,1,0,,,,,1,10,46,26,,,,,,down,0.717233033523371,1322.4919227937608,None,001,37,2019_Oct_16_1658,ACPT_experiment_5_30_19,3.1.0,59.9546291978328,
,,,C,D,d,v,R,D,g,L,i,,,,,6,17,137,9,1,0,1,0,,,,,1,11,47,2,,,,,,down,2.2517159742965305,1324.4934471651395,None,001,37,2019_Oct_16_1658,ACPT_experiment_5_30_19,3.1.0,59.9546291978328,
,,,C,D,d,v,R,U,d,L,u,,,,,6,17,137,9,1,0,1,0,,,,,1,12,48,8,,,,,,down,0.7172170351659588,1328.0294777201816,None,001,37,2019_Oct_16_1658,ACPT_experiment_5_30_19,3.1.0,59.9546291978328,
,,,C,D,d,v,L,D,d,L,c ,,,,,6,17,137,9,1,0,1,0,,,,,1,13,49,12,,,,,,up,1.66798497120908,1330.0310063175384,None,001,37,2019_Oct_16_1658,ACPT_experiment_5_30_19,3.1.0,59.9546291978328,
,,,C,D,d,v,L,D,y,L,y,,,,,6,17,137,9,1,0,1,0,,,,,1,14,50,32,,,,,,down,0.8339573194134573,1332.983256365158,None,001,37,2019_Oct_16_1658,ACPT_experiment_5_30_19,3.1.0,59.9546291978328,
,,,C,D,d,v,R,G,y,L,y,,,,,6,17,137,9,1,0,1,0,,,,,1,15,51,28,,,,,,down,0.6505036009875766,1335.10154154697,None,001,37,2019_Oct_16_1658,ACPT_experiment_5_30_19,3.1.0,59.9546291978328,
,,,C,D,d,v,L,G,d,R,i,,,,,6,17,137,9,1,0,1,0,,,,,1,16,52,17,,,,,,down,1.0841875598598563,1337.0363138466346,None,001,37,2019_Oct_16_1658,ACPT_experiment_5_30_19,3.1.0,59.9546291978328,
,,,C,D,d,v,L,U,d,L,u,,,,,6,17,137,9,1,0,1,0,,,,,1,17,53,20,,,,,,down,0.717233033519733,1339.4047915369338,None,001,37,2019_Oct_16_1658,ACPT_experiment_5_30_19,3.1.0,59.9546291978328,
,,,C,D,d,v,L,G,y,L,y,,,,,6,17,137,9,1,0,1,0,,,,,1,18,54,34,,,,,,down,0.7672417722460523,1341.4230242260346,None,001,37,2019_Oct_16_1658,ACPT_experiment_5_30_19,3.1.0,59.9546291978328,
,,,C,D,d,v,L,D,y,R,y,,,,,6,17,137,9,1,0,1,0,,,,,1,19,55,33,,,,,,down,0.633847806158883,1343.4912653520041,None,001,37,2019_Oct_16_1658,ACPT_experiment_5_30_19,3.1.0,59.9546291978328,
,,,C,D,d,v,R,D,d,R,c ,,,,,6,17,137,9,1,0,1,0,,,,,1,20,56,1,,,,,,up,1.3343302621542534,1345.4094129479818,None,001,37,2019_Oct_16_1658,ACPT_experiment_5_30_19,3.1.0,59.9546291978328,
,,,C,D,d,v,L,G,d,L,i,,,,,6,17,137,9,1,0,1,0,,,,,1,21,57,16,,,,,,down,0.6671672440643306,1348.02806080944,None,001,37,2019_Oct_16_1658,ACPT_experiment_5_30_19,3.1.0,59.9546291978328,
,,,C,D,d,v,R,G,d,L,i,,,,,6,17,137,9,1,0,1,0,,,,,1,22,58,4,,,,,,down,1.2509266215929529,1349.979574932815,None,001,37,2019_Oct_16_1658,ACPT_experiment_5_30_19,3.1.0,59.9546291978328,
,,,C,D,d,v,L,G,g,R,c ,,,,,6,17,137,9,1,0,1,0,,,,,1,23,59,19,,,,,,up,0.8506475257927377,1352.5148107017521,None,001,37,2019_Oct_16_1658,ACPT_experiment_5_30_19,3.1.0,59.9546291978328,
,,,C,D,d,v,R,G,g,R,c ,,,,,6,17,137,9,1,0,1,0,,,,,1,24,60,7,,,,,,up,0.817303335716133,1354.64977250644,None,001,37,2019_Oct_16_1658,ACPT_experiment_5_30_19,3.1.0,59.9546291978328,
,,,C,D,d,v,L,D,g,L,i,,,,,6,17,137,9,1,0,1,0,,,,,1,25,61,14,,,,,,down,1.1342445955015137,1356.734669729096,None,001,37,2019_Oct_16_1658,ACPT_experiment_5_30_19,3.1.0,59.9546291978328,
,,,C,D,d,v,R,G,g,L,c ,,,,,6,17,137,9,1,0,1,0,,,,,1,26,62,6,,,,,,down,0.8673295820699423,1359.1532038513178,None,001,37,2019_Oct_16_1658,ACPT_experiment_5_30_19,3.1.0,59.9546291978328,
,,,C,D,d,v,R,D,d,L,c,,,,,6,17,137,9,1,0,1,0,,,,,1,27,63,0,,,,,,down,2.2517060130558093,1361.3048531456843,None,001,37,2019_Oct_16_1658,ACPT_experiment_5_30_19,3.1.0,59.9546291978328,
,,,C,D,d,v,L,G,g,L,c ,,,,,6,17,137,9,1,0,1,0,,,,,1,28,64,18,,,,,,up,1.2509323568483524,1364.8408812858834,None,001,37,2019_Oct_16_1658,ACPT_experiment_5_30_19,3.1.0,59.9546291978328,
,,,C,D,d,v,L,U,y,R,u,,,,,6,17,137,9,1,0,1,0,,,,,1,29,65,25,,,,,,down,0.617135866163153,1367.376142108842,None,001,37,2019_Oct_16_1658,ACPT_experiment_5_30_19,3.1.0,59.9546291978328,
,,,C,D,d,v,L,D,d,R,c ,,,,,6,17,137,9,1,0,1,0,,,,,1,30,66,13,,,,,,up,1.5345076929443167,1369.2775922539004,None,001,37,2019_Oct_16_1658,ACPT_experiment_5_30_19,3.1.0,59.9546291978328,
,,,C,D,d,v,L,G,y,R,y,,,,,6,17,137,9,1,0,1,0,,,,,1,31,67,35,,,,,,down,1.050798091426259,1372.0964069811998,None,001,37,2019_Oct_16_1658,ACPT_experiment_5_30_19,3.1.0,59.9546291978328,
,,,C,D,d,v,R,U,d,R,u,,,,,6,17,137,9,1,0,1,0,,,,,1,32,68,9,,,,,,down,1.184229789476376,1374.4315235774993,None,001,37,2019_Oct_16_1658,ACPT_experiment_5_30_19,3.1.0,59.9546291978328,
,,,C,D,d,v,R,U,y,L,u,,,,,6,17,137,9,1,0,1,0,,,,,1,33,69,30,,,,,,down,0.6505334847024642,1376.8833689875246,None,001,37,2019_Oct_16_1658,ACPT_experiment_5_30_19,3.1.0,59.9546291978328,
,,,C,D,d,v,L,D,g,R,i,,,,,6,17,137,9,1,0,1,0,,,,,1,34,70,15,,,,,,down,1.1008336953054823,1378.8181983379218,None,001,37,2019_Oct_16_1658,ACPT_experiment_5_30_19,3.1.0,59.9546291978328,
,,,C,D,d,v,R,G,y,R,y,,,,,6,17,137,9,1,0,1,0,,,,,1,35,71,29,,,,,,down,0.6004664878273616,1381.2033517455275,None,001,37,2019_Oct_16_1658,ACPT_experiment_5_30_19,3.1.0,59.9546291978328,
,,,C,D,d,v,,,,,,,,,,6,17,137,9,2,0,2,0,0,0,0,0,,,,,,,,,,,,,,001,37,2019_Oct_16_1658,ACPT_experiment_5_30_19,3.1.0,59.9546291978328,
,,,C,D,d,v,R,U,d,R,u,,,,,6,17,137,9,2,0,2,0,,,,,0,0,0,9,,,,,,down,1.0174659755793982,1384.7393804894346,None,001,37,2019_Oct_16_1658,ACPT_experiment_5_30_19,3.1.0,59.9546291978328,
,,,C,D,d,v,L,G,y,R,y,,,,,6,17,137,9,2,0,2,0,,,,,0,1,1,35,,,,,,down,0.8005841511876497,1387.0578385742047,None,001,37,2019_Oct_16_1658,ACPT_experiment_5_30_19,3.1.0,59.9546291978328,
,,,C,D,d,v,R,G,d,R,i,,,,,6,17,137,9,2,0,2,0,,,,,0,2,2,5,,,,,,down,1.117502771790896,1389.1761029279733,None,001,37,2019_Oct_16_1658,ACPT_experiment_5_30_19,3.1.0,59.9546291978328,
,,,C,D,d,v,L,G,d,L,i,,,,,6,17,137,9,2,0,2,0,,,,,0,3,3,16,,,,,,down,0.9507066593287163,1391.5946210518414,None,001,37,2019_Oct_16_1658,ACPT_experiment_5_30_19,3.1.0,59.9546291978328,
,,,C,D,d,v,L,G,g,L,c ,,,,,6,17,137,9,2,0,2,0,,,,,0,4,4,18,,,,,,up,1.0007866359992477,1393.8129415205876,None,001,37,2019_Oct_16_1658,ACPT_experiment_5_30_19,3.1.0,59.9546291978328,
,,,C,D,d,v,R,D,y,R,y,,,,,6,17,137,9,2,0,2,0,,,,,0,5,5,27,,,,,,down,0.6671684514913068,1396.0980457558944,None,001,37,2019_Oct_16_1658,ACPT_experiment_5_30_19,3.1.0,59.9546291978328,
,,,C,D,d,v,R,D,d,L,c,,,,,6,17,137,9,2,0,2,0,,,,,0,6,6,0,,,,,,up,1.4978147155270563,1398.0695412185523,None,001,37,2019_Oct_16_1658,ACPT_experiment_5_30_19,3.1.0,59.9546291978328,
,,,C,D,d,v,L,G,g,R,c ,,,,,6,17,137,9,2,0,2,0,,,,,0,7,7,19,,,,,,down,0.6671711681919987,1400.8516659869892,None,001,37,2019_Oct_16_1658,ACPT_experiment_5_30_19,3.1.0,59.9546291978328,
,,,C,D,d,v,L,U,y,L,u,,,,,6,17,137,9,2,0,2,0,,,,,0,8,8,24,,,,,,down,0.8504434713286173,1402.8200004165628,None,001,37,2019_Oct_16_1658,ACPT_experiment_5_30_19,3.1.0,59.9546291978328,
,,,C,D,d,v,L,U,d,R,u,,,,,6,17,137,9,2,0,2,0,,,,,0,9,9,21,,,,,,down,0.517042019222572,1404.97147554018,None,001,37,2019_Oct_16_1658,ACPT_experiment_5_30_19,3.1.0,59.9546291978328,
,,,C,D,d,v,L,D,y,R,y,,,,,6,17,137,9,2,0,2,0,,,,,0,10,10,33,,,,,,down,0.9173787694635394,1406.7895223465312,None,001,37,2019_Oct_16_1658,ACPT_experiment_5_30_19,3.1.0,59.9546291978328,
,,,C,D,d,v,L,U,g,R,u,,,,,6,17,137,9,2,0,2,0,,,,,0,11,11,23,,,,,,down,0.78396065492052,1409.0078835657987,None,001,37,2019_Oct_16_1658,ACPT_experiment_5_30_19,3.1.0,59.9546291978328,
,,,C,D,d,v,R,U,d,L,u,,,,,6,17,137,9,2,0,2,0,,,,,0,12,12,8,,,,,,down,0.9173624692521116,1411.0761295214616,None,001,37,2019_Oct_16_1658,ACPT_experiment_5_30_19,3.1.0,59.9546291978328,
,,,C,D,d,v,R,G,y,L,y,,,,,6,17,137,9,2,0,2,0,,,,,0,13,13,28,,,,,,down,0.8339627528148412,1413.2778074770285,None,001,37,2019_Oct_16_1658,ACPT_experiment_5_30_19,3.1.0,59.9546291978328,
,,,C,D,d,v,L,G,d,R,i,,,,,6,17,137,9,2,0,2,0,,,,,0,14,14,17,,,,,,down,1.1341975060058758,1415.3960857161583,None,001,37,2019_Oct_16_1658,ACPT_experiment_5_30_19,3.1.0,59.9546291978328,
,,,C,D,d,v,L,D,g,R,i,,,,,6,17,137,9,2,0,2,0,,,,,0,15,15,15,,,,,,down,0.9840976370433054,1417.8145790878589,None,001,37,2019_Oct_16_1658,ACPT_experiment_5_30_19,3.1.0,59.9546291978328,
,,,C,D,d,v,L,D,y,L,y,,,,,6,17,137,9,2,0,2,0,,,,,0,16,16,32,,,,,,down,0.7839431472857541,1420.0829934186404,None,001,37,2019_Oct_16_1658,ACPT_experiment_5_30_19,3.1.0,59.9546291978328,
,,,C,D,d,v,L,U,y,R,u,,,,,6,17,137,9,2,0,2,0,,,,,0,17,17,25,,,,,,down,0.6504981675861927,1422.1512288093509,None,001,37,2019_Oct_16_1658,ACPT_experiment_5_30_19,3.1.0,59.9546291978328,
,,,C,D,d,v,R,G,d,L,i,,,,,6,17,137,9,2,0,2,0,,,,,0,18,18,4,,,,,,down,0.9507178279891377,1424.086047896657,None,001,37,2019_Oct_16_1658,ACPT_experiment_5_30_19,3.1.0,59.9546291978328,
,,,C,D,d,v,L,U,g,L,u,,,,,6,17,137,9,2,0,2,0,,,,,0,19,19,22,,,,,,down,0.7672680336909252,1426.3210600810598,None,001,37,2019_Oct_16_1658,ACPT_experiment_5_30_19,3.1.0,59.9546291978328,
,,,C,D,d,v,R,U,g,R,u,,,,,6,17,137,9,2,0,2,0,,,,,0,20,20,11,,,,,,down,0.7839413361507468,1428.372648732613,None,001,37,2019_Oct_16_1658,ACPT_experiment_5_30_19,3.1.0,59.9546291978328,
,,,C,D,d,v,R,D,d,R,c ,,,,,6,17,137,9,2,0,2,0,,,,,0,21,21,1,,,,,,up,1.1341745649733639,1430.4409115921953,None,001,37,2019_Oct_16_1658,ACPT_experiment_5_30_19,3.1.0,59.9546291978328,
,,,C,D,d,v,L,D,g,L,i,,,,,6,17,137,9,2,0,2,0,,,,,0,22,22,14,,,,,,down,0.900564198520442,1432.8593992286405,None,001,37,2019_Oct_16_1658,ACPT_experiment_5_30_19,3.1.0,59.9546291978328,
,,,C,D,d,v,R,G,g,L,c ,,,,,6,17,137,9,2,0,2,0,,,,,0,23,23,6,,,,,,up,0.8640170174185187,1435.0644000119537,None,001,37,2019_Oct_16_1658,ACPT_experiment_5_30_19,3.1.0,59.9546291978328,
,,,C,D,d,v,L,U,d,L,u,,,,,6,17,137,9,2,0,2,0,,,,,0,24,24,20,,,,,,down,0.617151260808896,1437.2127138006326,None,001,37,2019_Oct_16_1658,ACPT_experiment_5_30_19,3.1.0,59.9546291978328,
,,,C,D,d,v,L,G,y,L,y,,,,,6,17,137,9,2,0,2,0,,,,,0,25,25,34,,,,,,down,0.7839005856330914,1439.13086984857,None,001,37,2019_Oct_16_1658,ACPT_experiment_5_30_19,3.1.0,59.9546291978328,
,,,C,D,d,v,R,U,g,L,u,,,,,6,17,137,9,2,0,2,0,,,,,0,26,26,10,,,,,,down,1.0507923561672214,1441.2157682786492,None,001,37,2019_Oct_16_1658,ACPT_experiment_5_30_19,3.1.0,59.9546291978328,
,,,C,D,d,v,R,G,g,R,c ,,,,,6,17,137,9,2,0,2,0,,,,,0,27,27,7,,,,,,up,0.9339968323256471,1443.5509262291816,None,001,37,2019_Oct_16_1658,ACPT_experiment_5_30_19,3.1.0,59.9546291978328,
,,,C,D,d,v,R,G,y,R,y,,,,,6,17,137,9,2,0,2,0,,,,,0,28,28,29,,,,,,down,0.7338900357754028,1445.769230699574,None,001,37,2019_Oct_16_1658,ACPT_experiment_5_30_19,3.1.0,59.9546291978328,
,,,C,D,d,v,R,U,y,L,u,,,,,6,17,137,9,2,0,2,0,,,,,0,29,29,30,,,,,,down,1.017438506707549,1447.7874501070255,None,001,37,2019_Oct_16_1658,ACPT_experiment_5_30_19,3.1.0,59.9546291978328,
,,,C,D,d,v,R,D,y,L,y,,,,,6,17,137,9,2,0,2,0,,,,,0,30,30,26,,,,,,down,0.6671693570569914,1450.089200477778,None,001,37,2019_Oct_16_1658,ACPT_experiment_5_30_19,3.1.0,59.9546291978328,
,,,C,D,d,v,L,D,d,R,c ,,,,,6,17,137,9,2,0,2,0,,,,,0,31,31,13,,,,,,up,1.3677375400766323,1452.0406889434198,None,001,37,2019_Oct_16_1658,ACPT_experiment_5_30_19,3.1.0,59.9546291978328,
,,,C,D,d,v,R,D,g,R,i,,,,,6,17,137,9,2,0,2,0,,,,,0,32,32,3,,,,,,down,1.851404881788767,1454.6927138972278,None,001,37,2019_Oct_16_1658,ACPT_experiment_5_30_19,3.1.0,59.9546291978328,
,,,C,D,d,v,R,U,y,R,u,,,,,6,17,137,9,2,0,2,0,,,,,0,33,33,31,,,,,,down,0.6004728267980681,1457.8284119280106,None,001,37,2019_Oct_16_1658,ACPT_experiment_5_30_19,3.1.0,59.9546291978328,
,,,C,D,d,v,R,D,g,L,i,,,,,6,17,137,9,2,0,2,0,,,,,0,34,34,2,,,,,,down,0.8673253560918965,1459.7132011466892,None,001,37,2019_Oct_16_1658,ACPT_experiment_5_30_19,3.1.0,59.9546291978328,
,,,C,D,d,v,L,D,d,L,c ,,,,,6,17,137,9,2,0,2,0,,,,,0,35,35,12,,,,,,up,1.2175942038884386,1461.864847724355,None,001,37,2019_Oct_16_1658,ACPT_experiment_5_30_19,3.1.0,59.9546291978328,
,,,C,D,d,v,R,G,y,L,y,,,,,6,17,137,9,2,0,2,0,,,,,1,0,36,28,,,,,,down,0.7672598835852114,1464.3834117001097,None,001,37,2019_Oct_16_1658,ACPT_experiment_5_30_19,3.1.0,59.9546291978328,
,,,C,D,d,v,L,D,y,R,y,,,,,6,17,137,9,2,0,2,0,,,,,1,1,37,33,,,,,,down,0.717235750220425,1466.4516531279369,None,001,37,2019_Oct_16_1658,ACPT_experiment_5_30_19,3.1.0,59.9546291978328,
,,,C,D,d,v,L,U,g,R,u,,,,,6,17,137,9,2,0,2,0,,,,,1,2,38,23,,,,,,down,1.0674789402801252,1468.4532025533372,None,001,37,2019_Oct_16_1658,ACPT_experiment_5_30_19,3.1.0,59.9546291978328,
,,,C,D,d,v,R,D,d,R,c ,,,,,6,17,137,9,2,0,2,0,,,,,1,3,39,1,,,,,,up,0.9674267494265223,1470.8049701147756,None,001,37,2019_Oct_16_1658,ACPT_experiment_5_30_19,3.1.0,59.9546291978328,
,,,C,D,d,v,R,G,d,R,i,,,,,6,17,137,9,2,0,2,0,,,,,1,4,40,5,,,,,,down,1.300984562796657,1473.056715972787,None,001,37,2019_Oct_16_1658,ACPT_experiment_5_30_19,3.1.0,59.9546291978328,
,,,C,D,d,v,L,U,y,L,u,,,,,6,17,137,9,2,0,2,0,,,,,1,5,41,24,,,,,,down,0.6338112816156354,1475.6420163237563,None,001,37,2019_Oct_16_1658,ACPT_experiment_5_30_19,3.1.0,59.9546291978328,
,,,C,D,d,v,L,U,d,L,u,,,,,6,17,137,9,2,0,2,0,,,,,1,6,42,20,,,,,,down,0.5504360154918686,1477.5601503362232,None,001,37,2019_Oct_16_1658,ACPT_experiment_5_30_19,3.1.0,59.9546291978328,
,,,C,D,d,v,R,U,d,R,u,,,,,6,17,137,9,2,0,2,0,,,,,1,7,43,9,,,,,,down,0.35030416491645155,1479.3948559559612,None,001,37,2019_Oct_16_1658,ACPT_experiment_5_30_19,3.1.0,59.9546291978328,
,,,C,D,d,v,R,G,y,R,y,,,,,6,17,137,9,2,0,2,0,,,,,1,8,44,29,,,,,,down,0.9173600544090732,1481.0294593069812,None,001,37,2019_Oct_16_1658,ACPT_experiment_5_30_19,3.1.0,59.9546291978328,
,,,C,D,d,v,L,D,y,L,y,,,,,6,17,137,9,2,0,2,0,,,,,1,9,45,32,,,,,,down,0.8173051468511403,1483.247819620683,None,001,37,2019_Oct_16_1658,ACPT_experiment_5_30_19,3.1.0,59.9546291978328,
,,,C,D,d,v,L,U,y,R,u,,,,,6,17,137,9,2,0,2,0,,,,,1,10,46,25,,,,,,down,0.6002183624259487,1485.3830274377797,None,001,37,2019_Oct_16_1658,ACPT_experiment_5_30_19,3.1.0,59.9546291978328,
,,,C,D,d,v,L,D,d,R,c ,,,,,6,17,137,9,2,0,2,0,,,,,1,11,47,13,,,,,,up,1.3677127879054751,1487.2675449863127,None,001,37,2019_Oct_16_1658,ACPT_experiment_5_30_19,3.1.0,59.9546291978328,
,,,C,D,d,v,R,U,d,L,u,,,,,6,17,137,9,2,0,2,0,,,,,1,12,48,8,,,,,,down,0.7839443547090923,1489.9028758096174,None,001,37,2019_Oct_16_1658,ACPT_experiment_5_30_19,3.1.0,59.9546291978328,
,,,C,D,d,v,L,G,y,R,y,,,,,6,17,137,9,2,0,2,0,,,,,1,13,49,35,,,,,,down,0.8173078635554702,1491.9711108984702,None,001,37,2019_Oct_16_1658,ACPT_experiment_5_30_19,3.1.0,59.9546291978328,
,,,C,D,d,v,R,G,g,L,c ,,,,,6,17,137,9,2,0,2,0,,,,,1,14,50,6,,,,,,up,0.950722355824837,1494.072735455764,None,001,37,2019_Oct_16_1658,ACPT_experiment_5_30_19,3.1.0,59.9546291978328,
,,,C,D,d,v,L,U,g,L,u,,,,,6,17,137,9,2,0,2,0,,,,,1,15,51,22,,,,,,down,3.285822350062517,1496.307785975845,None,001,37,2019_Oct_16_1658,ACPT_experiment_5_30_19,3.1.0,59.9546291978328,
,,,C,D,d,v,R,U,y,R,u,,,,,6,17,137,9,2,0,2,0,,,,,1,16,52,31,,,,,,down,0.5338076895313861,1500.8779232085108,None,001,37,2019_Oct_16_1658,ACPT_experiment_5_30_19,3.1.0,59.9546291978328,
,,,C,D,d,v,L,G,d,R,i,,,,,6,17,137,9,2,0,2,0,,,,,1,17,53,17,,,,,,down,1.4177429583833145,1502.6959790705332,None,001,37,2019_Oct_16_1658,ACPT_experiment_5_30_19,3.1.0,59.9546291978328,
,,,C,D,d,v,R,U,y,L,u,,,,,6,17,137,9,2,0,2,0,,,,,1,18,54,30,,,,,,down,1.2841168652521446,1505.4148726123603,None,001,37,2019_Oct_16_1658,ACPT_experiment_5_30_19,3.1.0,59.9546291978328,
,,,C,D,d,v,R,D,d,L,c,,,,,6,17,137,9,2,0,2,0,,,,,1,19,55,0,,,,,,up,1.684612995311909,1508.00003893939,None,001,37,2019_Oct_16_1658,ACPT_experiment_5_30_19,3.1.0,59.9546291978328,
,,,C,D,d,v,R,U,g,L,u,,,,,6,17,137,9,2,0,2,0,,,,,1,20,56,10,,,,,,down,0.9340445255293162,1510.968951724517,None,001,37,2019_Oct_16_1658,ACPT_experiment_5_30_19,3.1.0,59.9546291978328,
,,,C,D,d,v,L,G,g,L,c ,,,,,6,17,137,9,2,0,2,0,,,,,1,21,57,18,,,,,,up,0.7338888283484266,1513.1873063029598,None,001,37,2019_Oct_16_1658,ACPT_experiment_5_30_19,3.1.0,59.9546291978328,
,,,C,D,d,v,R,D,g,R,i,,,,,6,17,137,9,2,0,2,0,,,,,1,22,58,3,,,,,,down,1.5178295607911423,1515.2055127306157,None,001,37,2019_Oct_16_1658,ACPT_experiment_5_30_19,3.1.0,59.9546291978328,
,,,C,D,d,v,L,D,g,L,i,,,,,6,17,137,9,2,0,2,0,,,,,1,23,59,14,,,,,,down,1.0841637132580217,1518.0076444960687,None,001,37,2019_Oct_16_1658,ACPT_experiment_5_30_19,3.1.0,59.9546291978328,
,,,C,D,d,v,R,G,d,L,i,,,,,6,17,137,9,2,0,2,0,,,,,1,24,60,4,,,,,,down,1.0841612984149833,1520.3761230919336,None,001,37,2019_Oct_16_1658,ACPT_experiment_5_30_19,3.1.0,59.9546291978328,
,,,C,D,d,v,R,U,g,R,u,,,,,6,17,137,9,2,0,2,0,,,,,1,25,61,11,,,,,,down,0.8172680185998615,1522.7446158750172,None,001,37,2019_Oct_16_1658,ACPT_experiment_5_30_19,3.1.0,59.9546291978328,
,,,C,D,d,v,L,D,g,R,i,,,,,6,17,137,9,2,0,2,0,,,,,1,26,62,15,,,,,,down,2.101620331308368,1524.8295158143737,None,001,37,2019_Oct_16_1658,ACPT_experiment_5_30_19,3.1.0,59.9546291978328,
,,,C,D,d,v,L,G,d,L,i,,,,,6,17,137,9,2,0,2,0,,,,,1,27,63,16,,,,,,down,1.050789337608876,1528.2154386522052,None,001,37,2019_Oct_16_1658,ACPT_experiment_5_30_19,3.1.0,59.9546291978328,
,,,C,D,d,v,L,G,y,L,y,,,,,6,17,137,9,2,0,2,0,,,,,1,28,64,34,,,,,,down,0.6004507913312409,1530.550545287264,None,001,37,2019_Oct_16_1658,ACPT_experiment_5_30_19,3.1.0,59.9546291978328,
,,,C,D,d,v,R,D,g,L,i,,,,,6,17,137,9,2,0,2,0,,,,,1,29,65,2,,,,,,down,1.0174427326855948,1532.4353151871765,None,001,37,2019_Oct_16_1658,ACPT_experiment_5_30_19,3.1.0,59.9546291978328,
,,,C,D,d,v,R,G,g,R,c ,,,,,6,17,137,9,2,0,2,0,,,,,1,30,66,7,,,,,,up,0.8840231088652217,1534.737072802469,None,001,37,2019_Oct_16_1658,ACPT_experiment_5_30_19,3.1.0,59.9546291978328,
,,,C,D,d,v,R,D,y,L,y,,,,,6,17,137,9,2,0,2,0,,,,,1,31,67,26,,,,,,down,0.617127112349408,1536.9053920788829,None,001,37,2019_Oct_16_1658,ACPT_experiment_5_30_19,3.1.0,59.9546291978328,
,,,C,D,d,v,L,G,g,R,c ,,,,,6,17,137,9,2,0,2,0,,,,,1,32,68,19,,,,,,up,0.6171262067837233,1538.8068413183755,None,001,37,2019_Oct_16_1658,ACPT_experiment_5_30_19,3.1.0,59.9546291978328,
,,,C,D,d,v,L,D,d,L,c ,,,,,6,17,137,9,2,0,2,0,,,,,1,33,69,12,,,,,,up,1.1008288656157674,1540.7082908597185,None,001,37,2019_Oct_16_1658,ACPT_experiment_5_30_19,3.1.0,59.9546291978328,
,,,C,D,d,v,L,U,d,R,u,,,,,6,17,137,9,2,0,2,0,,,,,1,34,70,21,,,,,,down,0.8506502424970677,1543.0934427580432,None,001,37,2019_Oct_16_1658,ACPT_experiment_5_30_19,3.1.0,59.9546291978328,
,,,C,D,d,v,R,D,y,R,y,,,,,6,17,137,9,2,0,2,0,,,,,1,35,71,27,,,,,,down,0.900677092562546,1545.245085411585,None,001,37,2019_Oct_16_1658,ACPT_experiment_5_30_19,3.1.0,59.9546291978328,
,,,C,D,d,v,,,,,,,,,,6,17,137,9,3,0,3,0,0,0,0,0,,,,,,,,,,,,,,001,37,2019_Oct_16_1658,ACPT_experiment_5_30_19,3.1.0,59.9546291978328,
,,,C,D,d,v,R,D,y,L,y,,,,,6,17,137,9,3,0,3,0,,,,,0,0,0,26,,,,,,down,1.0006248413374124,1553.0511702795302,None,001,37,2019_Oct_16_1658,ACPT_experiment_5_30_19,3.1.0,59.9546291978328,
,,,C,D,d,v,L,U,y,R,u,,,,,6,17,137,9,3,0,3,0,,,,,0,1,1,25,,,,,,down,0.783915678417543,1555.352790248613,None,001,37,2019_Oct_16_1658,ACPT_experiment_5_30_19,3.1.0,59.9546291978328,
,,,C,D,d,v,R,G,d,R,i,,,,,6,17,137,9,3,0,3,0,,,,,0,2,2,5,,,,,,down,0.900673772146547,1557.4543930722903,None,001,37,2019_Oct_16_1658,ACPT_experiment_5_30_19,3.1.0,59.9546291978328,
,,,C,D,d,v,L,G,g,L,c ,,,,,6,17,137,9,3,0,3,0,,,,,0,3,3,18,,,,,,up,0.8673492026937311,1559.6393663324016,None,001,37,2019_Oct_16_1658,ACPT_experiment_5_30_19,3.1.0,59.9546291978328,
,,,C,D,d,v,R,G,g,L,c ,,,,,6,17,137,9,3,0,3,0,,,,,0,4,4,6,,,,,,up,0.7172100924872211,1561.7910325306912,None,001,37,2019_Oct_16_1658,ACPT_experiment_5_30_19,3.1.0,59.9546291978328,
,,,C,D,d,v,R,U,g,L,u,,,,,6,17,137,9,3,0,3,0,,,,,0,5,5,10,,,,,,down,0.9840695644634252,1563.7925662595953,None,001,37,2019_Oct_16_1658,ACPT_experiment_5_30_19,3.1.0,59.9546291978328,
,,,C,D,d,v,L,D,d,L,c ,,,,,6,17,137,9,3,0,3,0,,,,,0,6,6,12,,,,,,up,1.1508711103269889,1566.060954630786,None,001,37,2019_Oct_16_1658,ACPT_experiment_5_30_19,3.1.0,59.9546291978328,
,,,C,D,d,v,R,G,g,R,c ,,,,,6,17,137,9,3,0,3,0,,,,,0,7,7,7,,,,,,up,0.7672544501838274,1568.4961409255702,None,001,37,2019_Oct_16_1658,ACPT_experiment_5_30_19,3.1.0,59.9546291978328,
,,,C,D,d,v,R,G,y,L,y,,,,,6,17,137,9,3,0,3,0,,,,,0,8,8,28,,,,,,down,0.7007049236563034,1570.531006770325,None,001,37,2019_Oct_16_1658,ACPT_experiment_5_30_19,3.1.0,59.9546291978328,
,,,C,D,d,v,L,G,d,R,i,,,,,6,17,137,9,3,0,3,0,,,,,0,9,9,17,,,,,,down,1.067477732856787,1572.5158756487253,None,001,37,2019_Oct_16_1658,ACPT_experiment_5_30_19,3.1.0,59.9546291978328,
,,,C,D,d,v,L,U,g,L,u,,,,,6,17,137,9,3,0,3,0,,,,,0,10,10,22,,,,,,down,0.8506484313620604,1574.867664641919,None,001,37,2019_Oct_16_1658,ACPT_experiment_5_30_19,3.1.0,59.9546291978328,
,,,C,D,d,v,L,D,y,L,y,,,,,6,17,137,9,3,0,3,0,,,,,0,11,11,32,,,,,,down,0.8506466202270531,1577.0026291633076,None,001,37,2019_Oct_16_1658,ACPT_experiment_5_30_19,3.1.0,59.9546291978328,
,,,C,D,d,v,L,D,g,R,i,,,,,6,17,137,9,3,0,3,0,,,,,0,12,12,15,,,,,,down,1.2176159375012503,1579.1208832539814,None,001,37,2019_Oct_16_1658,ACPT_experiment_5_30_19,3.1.0,59.9546291978328,
,,,C,D,d,v,L,G,y,R,y,,,,,6,17,137,9,3,0,3,0,,,,,0,13,13,35,,,,,,down,0.8006164497492136,1581.6228167907866,None,001,37,2019_Oct_16_1658,ACPT_experiment_5_30_19,3.1.0,59.9546291978328,
,,,C,D,d,v,R,D,g,R,i,,,,,6,17,137,9,3,0,3,0,,,,,0,14,14,3,,,,,,down,1.4011010489193723,1583.707740274891,None,001,37,2019_Oct_16_1658,ACPT_experiment_5_30_19,3.1.0,59.9546291978328,
,,,C,D,d,v,R,G,d,L,i,,,,,6,17,137,9,3,0,3,0,,,,,0,15,15,4,,,,,,down,1.0174312621711579,1586.393126322695,None,001,37,2019_Oct_16_1658,ACPT_experiment_5_30_19,3.1.0,59.9546291978328,
,,,C,D,d,v,R,U,y,L,u,,,,,6,17,137,9,3,0,3,0,,,,,0,16,16,30,,,,,,down,0.6171280179187306,1588.6948779008708,None,001,37,2019_Oct_16_1658,ACPT_experiment_5_30_19,3.1.0,59.9546291978328,
,,,C,D,d,v,R,D,d,L,c,,,,,6,17,137,9,3,0,3,0,,,,,0,17,17,0,,,,,,up,1.53450407067794,1590.596324423659,None,001,37,2019_Oct_16_1658,ACPT_experiment_5_30_19,3.1.0,59.9546291978328,
,,,C,D,d,v,R,D,y,R,y,,,,,6,17,137,9,3,0,3,0,,,,,0,18,18,27,,,,,,down,0.7005443364178063,1593.39844803901,None,001,37,2019_Oct_16_1658,ACPT_experiment_5_30_19,3.1.0,59.9546291978328,
,,,C,D,d,v,L,G,d,L,i,,,,,6,17,137,9,3,0,3,0,,,,,0,19,19,16,,,,,,down,0.8840043938143936,1595.3833099747317,None,001,37,2019_Oct_16_1658,ACPT_experiment_5_30_19,3.1.0,59.9546291978328,
,,,C,D,d,v,L,G,y,L,y,,,,,6,17,137,9,3,0,3,0,,,,,0,20,20,34,,,,,,down,0.9507280910838745,1597.5516268363026,None,001,37,2019_Oct_16_1658,ACPT_experiment_5_30_19,3.1.0,59.9546291978328,
,,,C,D,d,v,R,D,d,R,c ,,,,,6,17,137,9,3,0,3,0,,,,,0,21,21,1,,,,,,down,0.6504924323271553,1599.786664678446,None,001,37,2019_Oct_16_1658,ACPT_experiment_5_30_19,3.1.0,59.9546291978328,
,,,C,D,d,v,L,U,g,R,u,,,,,6,17,137,9,3,0,3,0,,,,,0,22,22,23,,,,,,down,0.9340436199599935,1601.721474710077,None,001,37,2019_Oct_16_1658,ACPT_experiment_5_30_19,3.1.0,59.9546291978328,
,,,C,D,d,v,L,U,y,L,u,,,,,6,17,137,9,3,0,3,0,,,,,0,23,23,24,,,,,,down,0.5504034150762891,1603.9565140614977,None,001,37,2019_Oct_16_1658,ACPT_experiment_5_30_19,3.1.0,59.9546291978328,
,,,C,D,d,v,L,G,g,R,c ,,,,,6,17,137,9,3,0,3,0,,,,,0,24,24,19,,,,,,up,0.817282507672644,1605.8079240748375,None,001,37,2019_Oct_16_1658,ACPT_experiment_5_30_19,3.1.0,59.9546291978328,
,,,C,D,d,v,R,D,g,L,i,,,,,6,17,137,9,3,0,3,0,,,,,0,25,25,2,,,,,,down,1.3009833553733188,1607.909526294803,None,001,37,2019_Oct_16_1658,ACPT_experiment_5_30_19,3.1.0,59.9546291978328,
,,,C,D,d,v,L,D,y,R,y,,,,,6,17,137,9,3,0,3,0,,,,,0,26,26,33,,,,,,down,1.4344225998174807,1610.4948299661846,None,001,37,2019_Oct_16_1658,ACPT_experiment_5_30_19,3.1.0,59.9546291978328,
,,,C,D,d,v,L,D,d,R,c ,,,,,6,17,137,9,3,0,3,0,,,,,0,27,27,13,,,,,,down,0.5504124707440496,1613.2135671467477,None,001,37,2019_Oct_16_1658,ACPT_experiment_5_30_19,3.1.0,59.9546291978328,
,,,C,D,d,v,L,U,d,L,u,,,,,6,17,137,9,3,0,3,0,,,,,0,28,28,20,,,,,,down,1.117558615096641,1615.0482788036024,None,001,37,2019_Oct_16_1658,ACPT_experiment_5_30_19,3.1.0,59.9546291978328,
,,,C,D,d,v,L,U,d,R,u,,,,,6,17,137,9,3,0,3,0,,,,,0,29,29,21,,,,,,down,0.4504879648629867,1617.4499790361224,None,001,37,2019_Oct_16_1658,ACPT_experiment_5_30_19,3.1.0,59.9546291978328,
,,,C,D,d,v,L,D,g,L,i,,,,,6,17,137,9,3,0,3,0,,,,,0,30,30,14,,,,,,down,1.4677845993828669,1619.1847864114243,None,001,37,2019_Oct_16_1658,ACPT_experiment_5_30_19,3.1.0,59.9546291978328,
,,,C,D,d,v,R,U,y,R,u,,,,,6,17,137,9,3,0,3,0,,,,,0,31,31,31,,,,,,down,0.7172254871256882,1621.953565836695,None,001,37,2019_Oct_16_1658,ACPT_experiment_5_30_19,3.1.0,59.9546291978328,
,,,C,D,d,v,R,G,y,R,y,,,,,6,17,137,9,3,0,3,0,,,,,0,32,32,29,,,,,,down,0.7339084489722154,1623.9717716606392,None,001,37,2019_Oct_16_1658,ACPT_experiment_5_30_19,3.1.0,59.9546291978328,
,,,C,D,d,v,R,U,g,R,u,,,,,6,17,137,9,3,0,3,0,,,,,0,33,33,11,,,,,,down,0.8339536971434427,1625.9899802012842,None,001,37,2019_Oct_16_1658,ACPT_experiment_5_30_19,3.1.0,59.9546291978328,
,,,C,D,d,v,R,U,d,R,u,,,,,6,17,137,9,3,0,3,0,,,,,0,34,34,9,,,,,,down,0.6505117510896525,1628.0915555560932,None,001,37,2019_Oct_16_1658,ACPT_experiment_5_30_19,3.1.0,59.9546291978328,
,,,C,D,d,v,R,U,d,L,u,,,,,6,17,137,9,3,0,3,0,,,,,0,35,35,8,,,,,,down,0.5670927158898849,1630.0097079817606,None,001,37,2019_Oct_16_1658,ACPT_experiment_5_30_19,3.1.0,59.9546291978328,
,,,C,D,d,v,L,U,g,L,u,,,,,6,17,137,9,3,0,3,0,,,,,1,0,36,22,,,,,,down,0.5337364515835361,1631.861120711801,None,001,37,2019_Oct_16_1658,ACPT_experiment_5_30_19,3.1.0,59.9546291978328,
,,,C,D,d,v,R,G,y,R,y,,,,,6,17,137,9,3,0,3,0,,,,,1,1,37,29,,,,,,down,0.8006357685153489,1633.6791723478455,None,001,37,2019_Oct_16_1658,ACPT_experiment_5_30_19,3.1.0,59.9546291978328,
,,,C,D,d,v,R,U,g,R,u,,,,,6,17,137,9,3,0,3,0,,,,,1,2,38,11,,,,,,down,0.7839229229539342,1635.7641030764862,None,001,37,2019_Oct_16_1658,ACPT_experiment_5_30_19,3.1.0,59.9546291978328,
,,,C,D,d,v,R,D,d,L,c,,,,,6,17,137,9,3,0,3,0,,,,,1,3,39,0,,,,,,up,1.0841471111962164,1637.832347824722,None,001,37,2019_Oct_16_1658,ACPT_experiment_5_30_19,3.1.0,59.9546291978328,
,,,C,D,d,v,R,U,d,L,u,,,,,6,17,137,9,3,0,3,0,,,,,1,4,40,8,,,,,,down,0.9840478308506135,1640.2008348725467,None,001,37,2019_Oct_16_1658,ACPT_experiment_5_30_19,3.1.0,59.9546291978328,
,,,C,D,d,v,L,U,d,R,u,,,,,6,17,137,9,3,0,3,0,,,,,1,5,41,21,,,,,,down,0.4836969235766446,1642.469206641672,None,001,37,2019_Oct_16_1658,ACPT_experiment_5_30_19,3.1.0,59.9546291978328,
,,,C,D,d,v,R,G,g,L,c ,,,,,6,17,137,9,3,0,3,0,,,,,1,6,42,6,,,,,,up,0.8339832790043147,1644.2372187497094,None,001,37,2019_Oct_16_1658,ACPT_experiment_5_30_19,3.1.0,59.9546291978328,
,,,C,D,d,v,R,D,y,L,y,,,,,6,17,137,9,3,0,3,0,,,,,1,7,43,26,,,,,,down,1.0007673172367504,1646.3555054407989,None,001,37,2019_Oct_16_1658,ACPT_experiment_5_30_19,3.1.0,59.9546291978328,
,,,C,D,d,v,R,G,d,R,i,,,,,6,17,137,9,3,0,3,0,,,,,1,8,44,5,,,,,,down,1.300993920322071,1648.64057707569,None,001,37,2019_Oct_16_1658,ACPT_experiment_5_30_19,3.1.0,59.9546291978328,
,,,C,D,d,v,L,G,d,L,i,,,,,6,17,137,9,3,0,3,0,,,,,1,9,45,16,,,,,,down,1.034126298243791,1651.225884067484,None,001,37,2019_Oct_16_1658,ACPT_experiment_5_30_19,3.1.0,59.9546291978328,
,,,C,D,d,v,R,G,g,R,c ,,,,,6,17,137,9,3,0,3,0,,,,,1,10,46,7,,,,,,up,0.8172906577747199,1653.544315890802,None,001,37,2019_Oct_16_1658,ACPT_experiment_5_30_19,3.1.0,59.9546291978328,
,,,C,D,d,v,R,D,g,R,i,,,,,6,17,137,9,3,0,3,0,,,,,1,11,47,3,,,,,,down,1.30099059990971,1655.629240280472,None,001,37,2019_Oct_16_1658,ACPT_experiment_5_30_19,3.1.0,59.9546291978328,
,,,C,D,d,v,L,D,d,L,c ,,,,,6,17,137,9,3,0,3,0,,,,,1,12,48,12,,,,,,up,1.2509546941728331,1658.214545159277,None,001,37,2019_Oct_16_1658,ACPT_experiment_5_30_19,3.1.0,59.9546291978328,
,,,C,D,d,v,R,G,y,L,y,,,,,6,17,137,9,3,0,3,0,,,,,1,13,49,28,,,,,,down,0.8840010733983945,1660.7664955849068,None,001,37,2019_Oct_16_1658,ACPT_experiment_5_30_19,3.1.0,59.9546291978328,
,,,C,D,d,v,L,U,y,L,u,,,,,6,17,137,9,3,0,3,0,,,,,1,14,50,24,,,,,,down,0.6338052445025824,1662.9514908804886,None,001,37,2019_Oct_16_1658,ACPT_experiment_5_30_19,3.1.0,59.9546291978328,
,,,C,D,d,v,R,U,y,R,u,,,,,6,17,137,9,3,0,3,0,,,,,1,15,51,31,,,,,,down,0.9005690282137948,1664.869619459554,None,001,37,2019_Oct_16_1658,ACPT_experiment_5_30_19,3.1.0,59.9546291978328,
,,,C,D,d,v,L,U,g,R,u,,,,,6,17,137,9,3,0,3,0,,,,,1,16,52,23,,,,,,down,0.48369782914596726,1667.0546132458512,None,001,37,2019_Oct_16_1658,ACPT_experiment_5_30_19,3.1.0,59.9546291978328,
,,,C,D,d,v,L,G,y,L,y,,,,,6,17,137,9,3,0,3,0,,,,,1,17,53,34,,,,,,down,0.8006342592343572,1668.8226042239876,None,001,37,2019_Oct_16_1658,ACPT_experiment_5_30_19,3.1.0,59.9546291978328,
,,,C,D,d,v,L,D,g,L,i,,,,,6,17,137,9,3,0,3,0,,,,,1,18,54,14,,,,,,down,1.0341266001014446,1670.9075554788178,None,001,37,2019_Oct_16_1658,ACPT_experiment_5_30_19,3.1.0,59.9546291978328,
,,,C,D,d,v,R,U,y,L,u,,,,,6,17,137,9,3,0,3,0,,,,,1,19,55,30,,,,,,down,0.884000771540741,1673.2259894151284,None,001,37,2019_Oct_16_1658,ACPT_experiment_5_30_19,3.1.0,59.9546291978328,
,,,C,D,d,v,L,D,g,R,i,,,,,6,17,137,9,3,0,3,0,,,,,1,20,56,15,,,,,,down,0.950760691503092,1675.3943047674184,None,001,37,2019_Oct_16_1658,ACPT_experiment_5_30_19,3.1.0,59.9546291978328,
,,,C,D,d,v,L,G,g,R,c ,,,,,6,17,137,9,3,0,3,0,,,,,1,21,57,19,,,,,,up,0.8506677501281956,1677.629347439255,None,001,37,2019_Oct_16_1658,ACPT_experiment_5_30_19,3.1.0,59.9546291978328,
,,,C,D,d,v,R,D,d,R,c ,,,,,6,17,137,9,3,0,3,0,,,,,1,22,58,1,,,,,,up,1.2342620729468763,1679.7643107532203,None,001,37,2019_Oct_16_1658,ACPT_experiment_5_30_19,3.1.0,59.9546291978328,
,,,C,D,d,v,R,U,g,L,u,,,,,6,17,137,9,3,0,3,0,,,,,1,23,59,10,,,,,,down,0.9840903925032762,1682.2828952551608,None,001,37,2019_Oct_16_1658,ACPT_experiment_5_30_19,3.1.0,59.9546291978328,
,,,C,D,d,v,L,G,y,R,y,,,,,6,17,137,9,3,0,3,0,,,,,1,24,60,35,,,,,,down,0.6671753941700445,1684.5512875504755,None,001,37,2019_Oct_16_1658,ACPT_experiment_5_30_19,3.1.0,59.9546291978328,
,,,C,D,d,v,R,G,d,L,i,,,,,6,17,137,9,3,0,3,0,,,,,1,25,61,4,,,,,,down,0.8673618806315062,1686.5027778272488,None,001,37,2019_Oct_16_1658,ACPT_experiment_5_30_19,3.1.0,59.9546291978328,
,,,C,D,d,v,L,U,d,L,u,,,,,6,17,137,9,3,0,3,0,,,,,1,26,62,20,,,,,,down,0.4337056924850913,1688.654419575225,None,001,37,2019_Oct_16_1658,ACPT_experiment_5_30_19,3.1.0,59.9546291978328,
,,,C,D,d,v,R,U,d,R,u,,,,,6,17,137,9,3,0,3,0,,,,,1,27,63,9,,,,,,down,0.3135948872877634,1690.3924042838153,None,001,37,2019_Oct_16_1658,ACPT_experiment_5_30_19,3.1.0,59.9546291978328,
,,,C,D,d,v,L,U,y,R,u,,,,,6,17,137,9,3,0,3,0,,,,,1,28,64,25,,,,,,down,0.2835472635124461,1691.9902935275204,None,001,37,2019_Oct_16_1658,ACPT_experiment_5_30_19,3.1.0,59.9546291978328,
,,,C,D,d,v,R,D,g,L,i,,,,,6,17,137,9,3,0,3,0,,,,,1,29,65,2,,,,,,down,1.050824956586439,1693.5581529569354,None,001,37,2019_Oct_16_1658,ACPT_experiment_5_30_19,3.1.0,59.9546291978328,
,,,C,D,d,v,L,G,d,R,i,,,,,6,17,137,9,3,0,3,0,,,,,1,30,66,17,,,,,,down,1.2009172791586025,1695.8932653272532,None,001,37,2019_Oct_16_1658,ACPT_experiment_5_30_19,3.1.0,59.9546291978328,
,,,C,D,d,v,R,D,y,R,y,,,,,6,17,137,9,3,0,3,0,,,,,1,31,67,27,,,,,,down,0.817303335716133,1698.378497790869,None,001,37,2019_Oct_16_1658,ACPT_experiment_5_30_19,3.1.0,59.9546291978328,
,,,C,D,d,v,L,D,y,L,y,,,,,6,17,137,9,3,0,3,0,,,,,1,32,68,32,,,,,,down,0.6671639236519695,1700.480104538674,None,001,37,2019_Oct_16_1658,ACPT_experiment_5_30_19,3.1.0,59.9546291978328,
,,,C,D,d,v,L,D,d,R,c ,,,,,6,17,137,9,3,0,3,0,,,,,1,33,69,13,,,,,,up,0.8505702507318347,1702.4316524698916,None,001,37,2019_Oct_16_1658,ACPT_experiment_5_30_19,3.1.0,59.9546291978328,
,,,C,D,d,v,L,D,y,R,y,,,,,6,17,137,9,3,0,3,0,,,,,1,34,70,33,,,,,,down,0.6337961888275458,1704.5665623553941,None,001,37,2019_Oct_16_1658,ACPT_experiment_5_30_19,3.1.0,59.9546291978328,
,,,C,D,d,v,L,G,g,L,c ,,,,,6,17,137,9,3,0,3,0,,,,,1,35,71,18,,,,,,up,0.6504960545935319,1706.48467523796,None,001,37,2019_Oct_16_1658,ACPT_experiment_5_30_19,3.1.0,59.9546291978328,
,,,C,D,d,v,,,,,,,,,,6,17,137,9,4,0,4,0,0,0,0,0,,,,,,,,,,,,,,001,37,2019_Oct_16_1658,ACPT_experiment_5_30_19,3.1.0,59.9546291978328,
,,,C,D,d,v,L,D,y,R,y,,,,,6,17,137,9,4,0,4,0,,,,,0,0,0,33,,,,,,down,0.6002050807765045,1711.4887632699574,None,001,37,2019_Oct_16_1658,ACPT_experiment_5_30_19,3.1.0,59.9546291978328,
,,,C,D,d,v,R,U,y,L,u,,,,,6,17,137,9,4,0,4,0,,,,,0,1,1,30,,,,,,down,0.7839262433662952,1713.373264216425,None,001,37,2019_Oct_16_1658,ACPT_experiment_5_30_19,3.1.0,59.9546291978328,
,,,C,D,d,v,L,G,g,R,c ,,,,,6,17,137,9,4,0,4,0,,,,,0,2,2,19,,,,,,up,0.7337714064742613,1715.4415095683762,None,001,37,2019_Oct_16_1658,ACPT_experiment_5_30_19,3.1.0,59.9546291978328,
,,,C,D,d,v,L,U,d,R,u,,,,,6,17,137,9,4,0,4,0,,,,,0,3,3,21,,,,,,down,0.3836223954021989,1717.4597102607731,None,001,37,2019_Oct_16_1658,ACPT_experiment_5_30_19,3.1.0,59.9546291978328,
,,,C,D,d,v,R,D,g,L,i,,,,,6,17,137,9,4,0,4,0,,,,,0,4,4,2,,,,,,down,0.98407711085747,1719.1276505573333,None,001,37,2019_Oct_16_1658,ACPT_experiment_5_30_19,3.1.0,59.9546291978328,
,,,C,D,d,v,L,G,d,L,i,,,,,6,17,137,9,4,0,4,0,,,,,0,5,5,16,,,,,,down,1.0174478642329632,1721.3960482860493,None,001,37,2019_Oct_16_1658,ACPT_experiment_5_30_19,3.1.0,59.9546291978328,
,,,C,D,d,v,L,G,y,R,y,,,,,6,17,137,9,4,0,4,0,,,,,0,6,6,35,,,,,,down,0.6838471873525123,1723.6978007697944,None,001,37,2019_Oct_16_1658,ACPT_experiment_5_30_19,3.1.0,59.9546291978328,
,,,C,D,d,v,R,U,y,R,u,,,,,6,17,137,9,4,0,4,0,,,,,0,7,7,31,,,,,,down,0.46702996008389164,1725.6659682731552,None,001,37,2019_Oct_16_1658,ACPT_experiment_5_30_19,3.1.0,59.9546291978328,
,,,C,D,d,v,R,D,y,R,y,,,,,6,17,137,9,4,0,4,0,,,,,0,8,8,27,,,,,,down,0.45036842999616056,1727.4006283428644,None,001,37,2019_Oct_16_1658,ACPT_experiment_5_30_19,3.1.0,59.9546291978328,
,,,C,D,d,v,L,D,g,R,i,,,,,6,17,137,9,4,0,4,0,,,,,0,9,9,15,,,,,,down,0.4336881848539633,1729.1352790550482,None,001,37,2019_Oct_16_1658,ACPT_experiment_5_30_19,3.1.0,59.9546291978328,
,,,C,D,d,v,R,D,d,L,c,,,,,6,17,137,9,4,0,4,0,,,,,0,10,10,0,,,,,,up,1.0505043858138379,1730.8702289062494,None,001,37,2019_Oct_16_1658,ACPT_experiment_5_30_19,3.1.0,59.9546291978328,
,,,C,D,d,v,L,U,d,L,u,,,,,6,17,137,9,4,0,4,0,,,,,0,11,11,20,,,,,,down,0.6506602641056816,1733.2050448542504,None,001,37,2019_Oct_16_1658,ACPT_experiment_5_30_19,3.1.0,59.9546291978328,
,,,C,D,d,v,R,D,g,R,i,,,,,6,17,137,9,4,0,4,0,,,,,0,12,12,3,,,,,,up,0.7172064702172065,1735.1398615267099,None,001,37,2019_Oct_16_1658,ACPT_experiment_5_30_19,3.1.0,59.9546291978328,
,,,C,D,d,v,R,G,g,R,c ,,,,,6,17,137,9,4,0,4,0,,,,,0,13,13,7,,,,,,up,0.8840182791755069,1737.1246878434577,None,001,37,2019_Oct_16_1658,ACPT_experiment_5_30_19,3.1.0,59.9546291978328,
,,,C,D,d,v,L,U,g,L,u,,,,,6,17,137,9,4,0,4,0,,,,,0,14,14,22,,,,,,down,0.4336625271171215,1739.2930252312144,None,001,37,2019_Oct_16_1658,ACPT_experiment_5_30_19,3.1.0,59.9546291978328,
,,,C,D,d,v,R,D,d,R,c ,,,,,6,17,137,9,4,0,4,0,,,,,0,15,15,1,,,,,,down,0.5171286518125271,1741.0110023390807,None,001,37,2019_Oct_16_1658,ACPT_experiment_5_30_19,3.1.0,59.9546291978328,
,,,C,D,d,v,L,D,y,L,y,,,,,6,17,137,9,4,0,4,0,,,,,0,16,16,32,,,,,,down,0.6338526358522358,1742.829034656359,None,001,37,2019_Oct_16_1658,ACPT_experiment_5_30_19,3.1.0,59.9546291978328,
,,,C,D,d,v,R,U,d,L,u,,,,,6,17,137,9,4,0,4,0,,,,,0,17,17,8,,,,,,down,0.8506342441432935,1744.7638661197452,None,001,37,2019_Oct_16_1658,ACPT_experiment_5_30_19,3.1.0,59.9546291978328,
,,,C,D,d,v,R,U,d,R,u,,,,,6,17,137,9,4,0,4,0,,,,,0,18,18,9,,,,,,down,0.6505075251116068,1746.8821256438205,None,001,37,2019_Oct_16_1658,ACPT_experiment_5_30_19,3.1.0,59.9546291978328,
,,,C,D,d,v,L,D,d,L,c ,,,,,6,17,137,9,4,0,4,0,,,,,0,19,19,12,,,,,,up,0.7339093545379001,1748.816954088652,None,001,37,2019_Oct_16_1658,ACPT_experiment_5_30_19,3.1.0,59.9546291978328,
,,,C,D,d,v,L,G,d,R,i,,,,,6,17,137,9,4,0,4,0,,,,,0,20,20,17,,,,,,down,0.8173018264387792,1750.835158705173,None,001,37,2019_Oct_16_1658,ACPT_experiment_5_30_19,3.1.0,59.9546291978328,
,,,C,D,d,v,R,G,g,L,c ,,,,,6,17,137,9,4,0,4,0,,,,,0,21,21,6,,,,,,up,0.8173202396392298,1752.9367355692593,None,001,37,2019_Oct_16_1658,ACPT_experiment_5_30_19,3.1.0,59.9546291978328,
,,,C,D,d,v,L,G,y,L,y,,,,,6,17,137,9,4,0,4,0,,,,,0,22,22,34,,,,,,down,0.6671627162286313,1755.05504339025,None,001,37,2019_Oct_16_1658,ACPT_experiment_5_30_19,3.1.0,59.9546291978328,
,,,C,D,d,v,L,U,y,R,u,,,,,6,17,137,9,4,0,4,0,,,,,0,23,23,25,,,,,,down,0.7505663567935699,1757.02320817691,None,001,37,2019_Oct_16_1658,ACPT_experiment_5_30_19,3.1.0,59.9546291978328,
,,,C,D,d,v,L,D,g,L,i,,,,,6,17,137,9,4,0,4,0,,,,,0,24,24,14,,,,,,down,0.9507184317008068,1759.0580948497081,None,001,37,2019_Oct_16_1658,ACPT_experiment_5_30_19,3.1.0,59.9546291978328,
,,,C,D,d,v,L,U,g,R,u,,,,,6,17,137,9,4,0,4,0,,,,,0,25,25,23,,,,,,down,0.7672565631728503,1761.2931332955632,None,001,37,2019_Oct_16_1658,ACPT_experiment_5_30_19,3.1.0,59.9546291978328,
,,,C,D,d,v,L,D,d,R,c ,,,,,6,17,137,9,4,0,4,0,,,,,0,26,26,13,,,,,,up,0.7672453945087909,1763.3447011190692,None,001,37,2019_Oct_16_1658,ACPT_experiment_5_30_19,3.1.0,59.9546291978328,
,,,C,D,d,v,R,G,y,L,y,,,,,6,17,137,9,4,0,4,0,,,,,0,27,27,28,,,,,,down,0.7172194500126352,1765.3962435866997,None,001,37,2019_Oct_16_1658,ACPT_experiment_5_30_19,3.1.0,59.9546291978328,
,,,C,D,d,v,R,G,d,L,i,,,,,6,17,137,9,4,0,4,0,,,,,0,28,28,4,,,,,,down,1.0008355366298929,1767.3810840906663,None,001,37,2019_Oct_16_1658,ACPT_experiment_5_30_19,3.1.0,59.9546291978328,
,,,C,D,d,v,R,D,y,L,y,,,,,6,17,137,9,4,0,4,0,,,,,0,29,29,26,,,,,,down,0.7501431550772395,1769.699922211781,None,001,37,2019_Oct_16_1658,ACPT_experiment_5_30_19,3.1.0,59.9546291978328,
,,,C,D,d,v,R,G,d,R,i,,,,,6,17,137,9,4,0,4,0,,,,,0,30,30,5,,,,,,down,0.8840095253617619,1771.751102754406,None,001,37,2019_Oct_16_1658,ACPT_experiment_5_30_19,3.1.0,59.9546291978328,
,,,C,D,d,v,L,U,y,L,u,,,,,6,17,137,9,4,0,4,0,,,,,0,31,31,24,,,,,,down,0.6004824861774978,1773.9194214271083,None,001,37,2019_Oct_16_1658,ACPT_experiment_5_30_19,3.1.0,59.9546291978328,
,,,C,D,d,v,R,G,y,R,y,,,,,6,17,137,9,4,0,4,0,,,,,0,32,32,29,,,,,,down,0.6671627162322693,1775.820877005568,None,001,37,2019_Oct_16_1658,ACPT_experiment_5_30_19,3.1.0,59.9546291978328,
,,,C,D,d,v,R,U,g,L,u,,,,,6,17,137,9,4,0,4,0,,,,,0,33,33,10,,,,,,down,1.0174626551670372,1777.7890218697503,None,001,37,2019_Oct_16_1658,ACPT_experiment_5_30_19,3.1.0,59.9546291978328,
,,,C,D,d,v,L,G,g,L,c ,,,,,6,17,137,9,4,0,4,0,,,,,0,34,34,18,,,,,,up,0.6838529226115497,1780.0907982000972,None,001,37,2019_Oct_16_1658,ACPT_experiment_5_30_19,3.1.0,59.9546291978328,
,,,C,D,d,v,R,U,g,R,u,,,,,6,17,137,9,4,0,4,0,,,,,0,35,35,11,,,,,,down,1.2509565053078404,1782.058962081188,None,001,37,2019_Oct_16_1658,ACPT_experiment_5_30_19,3.1.0,59.9546291978328,
,,,C,D,d,v,R,U,y,R,u,,,,,6,17,137,9,4,0,4,0,,,,,1,0,36,31,,,,,,down,0.7505926182384428,1784.5942325635333,None,001,37,2019_Oct_16_1658,ACPT_experiment_5_30_19,3.1.0,59.9546291978328,
,,,C,D,d,v,R,G,y,L,y,,,,,6,17,137,9,4,0,4,0,,,,,1,1,37,28,,,,,,down,0.6838758636476996,1786.629090861894,None,001,37,2019_Oct_16_1658,ACPT_experiment_5_30_19,3.1.0,59.9546291978328,
,,,C,D,d,v,R,U,d,L,u,,,,,6,17,137,9,4,0,4,0,,,,,1,2,38,8,,,,,,down,0.6671738848890527,1788.5972773821632,None,001,37,2019_Oct_16_1658,ACPT_experiment_5_30_19,3.1.0,59.9546291978328,
,,,C,D,d,v,R,G,g,L,c ,,,,,6,17,137,9,4,0,4,0,,,,,1,3,39,6,,,,,,up,0.7338927524760948,1790.5487649422357,None,001,37,2019_Oct_16_1658,ACPT_experiment_5_30_19,3.1.0,59.9546291978328,
,,,C,D,d,v,R,U,g,L,u,,,,,6,17,137,9,4,0,4,0,,,,,1,4,40,10,,,,,,down,0.6504894137688098,1792.5669752940157,None,001,37,2019_Oct_16_1658,ACPT_experiment_5_30_19,3.1.0,59.9546291978328,
,,,C,D,d,v,R,G,d,R,i,,,,,6,17,137,9,4,0,4,0,,,,,1,5,41,5,,,,,,down,1.184232506177068,1794.501780495957,None,001,37,2019_Oct_16_1658,ACPT_experiment_5_30_19,3.1.0,59.9546291978328,
,,,C,D,d,v,R,D,g,R,i,,,,,6,17,137,9,4,0,4,0,,,,,1,6,42,3,,,,,,down,0.9006478125556896,1796.9703683334046,None,001,37,2019_Oct_16_1658,ACPT_experiment_5_30_19,3.1.0,59.9546291978328,
,,,C,D,d,v,L,D,y,L,y,,,,,6,17,137,9,4,0,4,0,,,,,1,7,43,32,,,,,,down,0.6504658690246288,1799.155366647541,None,001,37,2019_Oct_16_1658,ACPT_experiment_5_30_19,3.1.0,59.9546291978328,
,,,C,D,d,v,L,U,g,L,u,,,,,6,17,137,9,4,0,4,0,,,,,1,8,44,22,,,,,,down,1.0174357900068571,1801.0901422676216,None,001,37,2019_Oct_16_1658,ACPT_experiment_5_30_19,3.1.0,59.9546291978328,
,,,C,D,d,v,L,U,d,L,u,,,,,6,17,137,9,4,0,4,0,,,,,1,9,45,20,,,,,,down,0.45036722257282236,1803.3751876410606,None,001,37,2019_Oct_16_1658,ACPT_experiment_5_30_19,3.1.0,59.9546291978328,
,,,C,D,d,v,L,G,d,R,i,,,,,6,17,137,9,4,0,4,0,,,,,1,10,46,17,,,,,,down,1.0841806171811186,1805.1098462014925,None,001,37,2019_Oct_16_1658,ACPT_experiment_5_30_19,3.1.0,59.9546291978328,
,,,C,D,d,v,L,U,y,L,u,,,,,6,17,137,9,4,0,4,0,,,,,1,11,47,24,,,,,,down,0.5670851694958401,1807.4783498513825,None,001,37,2019_Oct_16_1658,ACPT_experiment_5_30_19,3.1.0,59.9546291978328,
,,,C,D,d,v,R,G,d,L,i,,,,,6,17,137,9,4,0,4,0,,,,,1,12,48,4,,,,,,down,0.7502798957139021,1809.3467166097034,None,001,37,2019_Oct_16_1658,ACPT_experiment_5_30_19,3.1.0,59.9546291978328,
,,,C,D,d,v,L,U,d,R,u,,,,,6,17,137,9,4,0,4,0,,,,,1,13,49,21,,,,,,down,0.550408848477673,1811.3646504616445,None,001,37,2019_Oct_16_1658,ACPT_experiment_5_30_19,3.1.0,59.9546291978328,
,,,C,D,d,v,L,G,y,L,y,,,,,6,17,137,9,4,0,4,0,,,,,1,14,50,34,,,,,,down,0.6671642255096231,1813.1993738908714,None,001,37,2019_Oct_16_1658,ACPT_experiment_5_30_19,3.1.0,59.9546291978328,
,,,C,D,d,v,L,G,d,L,i,,,,,6,17,137,9,4,0,4,0,,,,,1,15,51,16,,,,,,down,0.4503436778286414,1815.1508590360972,None,001,37,2019_Oct_16_1658,ACPT_experiment_5_30_19,3.1.0,59.9546291978328,
,,,C,D,d,v,R,D,d,L,c,,,,,6,17,137,9,4,0,4,0,,,,,1,16,52,0,,,,,,down,0.5671150532107276,1816.8854928443616,None,001,37,2019_Oct_16_1658,ACPT_experiment_5_30_19,3.1.0,59.9546291978328,
,,,C,D,d,v,R,U,d,R,u,,,,,6,17,137,9,4,0,4,0,,,,,1,17,53,9,,,,,,down,0.8673383358873252,1818.7369257987339,None,001,37,2019_Oct_16_1658,ACPT_experiment_5_30_19,3.1.0,59.9546291978328,
,,,C,D,d,v,L,D,g,L,i,,,,,6,17,137,9,4,0,4,0,,,,,1,18,54,14,,,,,,down,0.8506260940375796,1820.8885865636184,None,001,37,2019_Oct_16_1658,ACPT_experiment_5_30_19,3.1.0,59.9546291978328,
,,,C,D,d,v,L,D,d,R,c ,,,,,6,17,137,9,4,0,4,0,,,,,1,19,55,13,,,,,,up,0.6338290911044169,1823.0068267689276,None,001,37,2019_Oct_16_1658,ACPT_experiment_5_30_19,3.1.0,59.9546291978328,
,,,C,D,d,v,R,D,g,L,i,,,,,6,17,137,9,4,0,4,0,,,,,1,20,56,2,,,,,,down,0.7839274507896334,1824.9249749686169,None,001,37,2019_Oct_16_1658,ACPT_experiment_5_30_19,3.1.0,59.9546291978328,
,,,C,D,d,v,L,G,y,R,y,,,,,6,17,137,9,4,0,4,0,,,,,1,21,57,35,,,,,,down,0.7171877551627404,1826.9932396393306,None,001,37,2019_Oct_16_1658,ACPT_experiment_5_30_19,3.1.0,59.9546291978328,
,,,C,D,d,v,L,D,y,R,y,,,,,6,17,137,9,4,0,4,0,,,,,1,22,58,33,,,,,,down,0.700539204870438,1828.9947428808082,None,001,37,2019_Oct_16_1658,ACPT_experiment_5_30_19,3.1.0,59.9546291978328,
,,,C,D,d,v,R,U,g,R,u,,,,,6,17,137,9,4,0,4,0,,,,,1,23,59,11,,,,,,down,1.0674753180137486,1830.9795951571505,None,001,37,2019_Oct_16_1658,ACPT_experiment_5_30_19,3.1.0,59.9546291978328,
,,,C,D,d,v,L,U,y,R,u,,,,,6,17,137,9,4,0,4,0,,,,,1,24,60,25,,,,,,down,0.38363809189831954,1833.3480683196103,None,001,37,2019_Oct_16_1658,ACPT_experiment_5_30_19,3.1.0,59.9546291978328,
,,,C,D,d,v,L,U,g,R,u,,,,,6,17,137,9,4,0,4,0,,,,,1,25,61,23,,,,,,down,0.48368937718623783,1835.0326873520353,None,001,37,2019_Oct_16_1658,ACPT_experiment_5_30_19,3.1.0,59.9546291978328,
,,,C,D,d,v,R,D,y,L,y,,,,,6,17,137,9,4,0,4,0,,,,,1,26,62,26,,,,,,down,0.9006849408106063,1836.8006982526495,None,001,37,2019_Oct_16_1658,ACPT_experiment_5_30_19,3.1.0,59.9546291978328,
,,,C,D,d,v,R,D,y,R,y,,,,,6,17,137,9,4,0,4,0,,,,,1,27,63,27,,,,,,down,0.5504200171380944,1838.98569686864,None,001,37,2019_Oct_16_1658,ACPT_experiment_5_30_19,3.1.0,59.9546291978328,
,,,C,D,d,v,L,G,g,L,c ,,,,,6,17,137,9,4,0,4,0,,,,,1,28,64,18,,,,,,up,1.217352719311748,1840.8373516869688,None,001,37,2019_Oct_16_1658,ACPT_experiment_5_30_19,3.1.0,59.9546291978328,
,,,C,D,d,v,R,U,y,L,u,,,,,6,17,137,9,4,0,4,0,,,,,1,29,65,30,,,,,,down,0.6004444523568964,1843.339022307442,None,001,37,2019_Oct_16_1658,ACPT_experiment_5_30_19,3.1.0,59.9546291978328,
,,,C,D,d,v,L,G,g,R,c ,,,,,6,17,137,9,4,0,4,0,,,,,1,30,66,19,,,,,,up,0.583801939181285,1845.2237858683839,None,001,37,2019_Oct_16_1658,ACPT_experiment_5_30_19,3.1.0,59.9546291978328,
,,,C,D,d,v,R,G,y,R,y,,,,,6,17,137,9,4,0,4,0,,,,,1,31,67,29,,,,,,down,0.7505690734942618,1847.1085554664423,None,001,37,2019_Oct_16_1658,ACPT_experiment_5_30_19,3.1.0,59.9546291978328,
,,,C,D,d,v,L,D,g,R,i,,,,,6,17,137,9,4,0,4,0,,,,,1,32,68,15,,,,,,down,1.05077454667844,1849.1601414012948,None,001,37,2019_Oct_16_1658,ACPT_experiment_5_30_19,3.1.0,59.9546291978328,
,,,C,D,d,v,R,D,d,R,c ,,,,,6,17,137,9,4,0,4,0,,,,,1,33,69,1,,,,,,up,0.633838448629831,1851.4952166433613,None,001,37,2019_Oct_16_1658,ACPT_experiment_5_30_19,3.1.0,59.9546291978328,
,,,C,D,d,v,R,G,g,R,c ,,,,,6,17,137,9,4,0,4,0,,,,,1,34,70,7,,,,,,down,0.6671880721078196,1853.413366654182,None,001,37,2019_Oct_16_1658,ACPT_experiment_5_30_19,3.1.0,59.9546291978328,
,,,C,D,d,v,L,D,d,L,c ,,,,,6,17,137,9,4,0,4,0,,,,,1,35,71,12,,,,,,up,1.184226469064015,1855.364857534667,None,001,37,2019_Oct_16_1658,ACPT_experiment_5_30_19,3.1.0,59.9546291978328,
,,,C,D,d,v,,,,,,,,,,6,17,137,9,5,0,5,0,0,0,0,0,,,,,,,,,,,,,,001,37,2019_Oct_16_1658,ACPT_experiment_5_30_19,3.1.0,59.9546291978328,
,,,C,D,d,v,L,G,d,R,i,,,,,6,17,137,9,5,0,5,0,,,,,0,0,0,17,,,,,,down,1.200421632067446,1859.568518380449,None,001,37,2019_Oct_16_1658,ACPT_experiment_5_30_19,3.1.0,59.9546291978328,
,,,C,D,d,v,L,D,d,L,c ,,,,,6,17,137,9,5,0,5,0,,,,,0,1,1,12,,,,,,up,0.8006043755194696,1862.0532820621338,None,001,37,2019_Oct_16_1658,ACPT_experiment_5_30_19,3.1.0,59.9546291978328,
,,,C,D,d,v,R,G,d,R,i,,,,,6,17,137,9,5,0,5,0,,,,,0,2,2,5,,,,,,down,0.9674134677734401,1864.1382061499498,None,001,37,2019_Oct_16_1658,ACPT_experiment_5_30_19,3.1.0,59.9546291978328,
,,,C,D,d,v,R,G,y,L,y,,,,,6,17,137,9,5,0,5,0,,,,,0,3,3,28,,,,,,down,0.6338094704842661,1866.3732424828122,None,001,37,2019_Oct_16_1658,ACPT_experiment_5_30_19,3.1.0,59.9546291978328,
,,,C,D,d,v,R,U,g,L,u,,,,,6,17,137,9,5,0,5,0,,,,,0,4,4,10,,,,,,down,0.8673199226868746,1868.291376193425,None,001,37,2019_Oct_16_1658,ACPT_experiment_5_30_19,3.1.0,59.9546291978328,
,,,C,D,d,v,L,G,y,R,y,,,,,6,17,137,9,5,0,5,0,,,,,0,5,5,35,,,,,,down,0.7005473549725139,1870.4430182432552,None,001,37,2019_Oct_16_1658,ACPT_experiment_5_30_19,3.1.0,59.9546291978328,
,,,C,D,d,v,R,G,g,L,c ,,,,,6,17,137,9,5,0,5,0,,,,,0,6,6,6,,,,,,down,0.4169711133145029,1872.4278629731998,None,001,37,2019_Oct_16_1658,ACPT_experiment_5_30_19,3.1.0,59.9546291978328,
,,,C,D,d,v,R,D,g,R,i,,,,,6,17,137,9,5,0,5,0,,,,,0,7,7,3,,,,,,down,0.8006137330448837,1874.1124726480994,None,001,37,2019_Oct_16_1658,ACPT_experiment_5_30_19,3.1.0,59.9546291978328,
,,,C,D,d,v,L,U,g,R,u,,,,,6,17,137,9,5,0,5,0,,,,,0,8,8,23,,,,,,down,0.7839675976028957,1876.197421186229,None,001,37,2019_Oct_16_1658,ACPT_experiment_5_30_19,3.1.0,59.9546291978328,
,,,C,D,d,v,L,G,g,L,c ,,,,,6,17,137,9,5,0,5,0,,,,,0,9,9,18,,,,,,up,1.2509549960304867,1878.265643898998,None,001,37,2019_Oct_16_1658,ACPT_experiment_5_30_19,3.1.0,59.9546291978328,
,,,C,D,d,v,R,G,y,R,y,,,,,6,17,137,9,5,0,5,0,,,,,0,10,10,29,,,,,,down,0.5670887917658547,1880.80091317392,None,001,37,2019_Oct_16_1658,ACPT_experiment_5_30_19,3.1.0,59.9546291978328,
,,,C,D,d,v,L,U,y,L,u,,,,,6,17,137,9,5,0,5,0,,,,,0,11,11,24,,,,,,down,0.7338843005127273,1882.6523253002488,None,001,37,2019_Oct_16_1658,ACPT_experiment_5_30_19,3.1.0,59.9546291978328,
,,,C,D,d,v,R,D,d,L,c,,,,,6,17,137,9,5,0,5,0,,,,,0,12,12,0,,,,,,up,0.7672438852350751,1884.6705299167697,None,001,37,2019_Oct_16_1658,ACPT_experiment_5_30_19,3.1.0,59.9546291978328,
,,,C,D,d,v,R,D,g,L,i,,,,,6,17,137,9,5,0,5,0,,,,,0,13,13,2,,,,,,down,0.80061886459589,1886.7054075338965,None,001,37,2019_Oct_16_1658,ACPT_experiment_5_30_19,3.1.0,59.9546291978328,
,,,C,D,d,v,R,U,d,R,u,,,,,6,17,137,9,5,0,5,0,,,,,0,14,14,9,,,,,,down,0.9506194230270921,1888.7903355458366,None,001,37,2019_Oct_16_1658,ACPT_experiment_5_30_19,3.1.0,59.9546291978328,
,,,C,D,d,v,R,U,d,L,u,,,,,6,17,137,9,5,0,5,0,,,,,0,15,15,8,,,,,,down,0.6004595451486239,1891.008694652115,None,001,37,2019_Oct_16_1658,ACPT_experiment_5_30_19,3.1.0,59.9546291978328,
,,,C,D,d,v,L,U,y,R,u,,,,,6,17,137,9,5,0,5,0,,,,,0,16,16,25,,,,,,down,0.3836139434388315,1892.893469683575,None,001,37,2019_Oct_16_1658,ACPT_experiment_5_30_19,3.1.0,59.9546291978328,
,,,C,D,d,v,L,U,d,L,u,,,,,6,17,137,9,5,0,5,0,,,,,0,17,17,20,,,,,,down,0.31692677070896025,1894.5447043791137,None,001,37,2019_Oct_16_1658,ACPT_experiment_5_30_19,3.1.0,59.9546291978328,
,,,C,D,d,v,L,G,d,L,i,,,,,6,17,137,9,5,0,5,0,,,,,0,18,18,16,,,,,,down,1.1475437547378533,1896.1659539350076,None,001,37,2019_Oct_16_1658,ACPT_experiment_5_30_19,3.1.0,59.9546291978328,
,,,C,D,d,v,R,D,y,L,y,,,,,6,17,137,9,5,0,5,0,,,,,0,19,19,26,,,,,,down,0.5337343385945132,1898.5978128742063,None,001,37,2019_Oct_16_1658,ACPT_experiment_5_30_19,3.1.0,59.9546291978328,
,,,C,D,d,v,L,D,g,L,i,,,,,6,17,137,9,5,0,5,0,,,,,0,20,20,14,,,,,,down,0.8840801595943049,1900.415869339944,None,001,37,2019_Oct_16_1658,ACPT_experiment_5_30_19,3.1.0,59.9546291978328,
,,,C,D,d,v,L,U,g,L,u,,,,,6,17,137,9,5,0,5,0,,,,,0,21,21,22,,,,,,down,0.6835812524659559,1902.5844548531022,None,001,37,2019_Oct_16_1658,ACPT_experiment_5_30_19,3.1.0,59.9546291978328,
,,,C,D,d,v,L,G,y,L,y,,,,,6,17,137,9,5,0,5,0,,,,,0,22,22,34,,,,,,down,0.7505723939066229,1904.5523521955947,None,001,37,2019_Oct_16_1658,ACPT_experiment_5_30_19,3.1.0,59.9546291978328,
,,,C,D,d,v,R,D,y,R,y,,,,,6,17,137,9,5,0,5,0,,,,,0,23,23,27,,,,,,down,0.6838465836444811,1906.5872382646812,None,001,37,2019_Oct_16_1658,ACPT_experiment_5_30_19,3.1.0,59.9546291978328,
,,,C,D,d,v,L,D,g,R,i,,,,,6,17,137,9,5,0,5,0,,,,,0,24,24,15,,,,,,down,1.250959523866186,1908.5554066736076,None,001,37,2019_Oct_16_1658,ACPT_experiment_5_30_19,3.1.0,59.9546291978328,
,,,C,D,d,v,R,G,d,L,i,,,,,6,17,137,9,5,0,5,0,,,,,0,25,25,4,,,,,,down,1.0007516207369918,1911.090673533683,None,001,37,2019_Oct_16_1658,ACPT_experiment_5_30_19,3.1.0,59.9546291978328,
,,,C,D,d,v,R,G,g,R,c ,,,,,6,17,137,9,5,0,5,0,,,,,0,26,26,7,,,,,,up,0.683845979932812,1913.37574969641,None,001,37,2019_Oct_16_1658,ACPT_experiment_5_30_19,3.1.0,59.9546291978328,
,,,C,D,d,v,L,G,g,R,c ,,,,,6,17,137,9,5,0,5,0,,,,,0,27,27,19,,,,,,up,0.750596542362473,1915.343912671935,None,001,37,2019_Oct_16_1658,ACPT_experiment_5_30_19,3.1.0,59.9546291978328,
,,,C,D,d,v,L,D,y,R,y,,,,,6,17,137,9,5,0,5,0,,,,,0,28,28,33,,,,,,down,0.6338369393524772,1917.3787978354558,None,001,37,2019_Oct_16_1658,ACPT_experiment_5_30_19,3.1.0,59.9546291978328,
,,,C,D,d,v,L,U,d,R,u,,,,,6,17,137,9,5,0,5,0,,,,,0,29,29,21,,,,,,down,0.8172800928259676,1919.2969288293643,None,001,37,2019_Oct_16_1658,ACPT_experiment_5_30_19,3.1.0,59.9546291978328,
,,,C,D,d,v,R,U,g,R,u,,,,,6,17,137,9,5,0,5,0,,,,,0,30,30,11,,,,,,down,0.7839971794601297,1921.3985075045857,None,001,37,2019_Oct_16_1658,ACPT_experiment_5_30_19,3.1.0,59.9546291978328,
,,,C,D,d,v,R,U,y,R,u,,,,,6,17,137,9,5,0,5,0,,,,,0,31,31,31,,,,,,down,0.5003816965545411,1923.4667748920037,None,001,37,2019_Oct_16_1658,ACPT_experiment_5_30_19,3.1.0,59.9546291978328,
,,,C,D,d,v,L,D,d,R,c ,,,,,6,17,137,9,5,0,5,0,,,,,0,32,32,13,,,,,,up,1.1674227649309614,1925.2514720748768,None,001,37,2019_Oct_16_1658,ACPT_experiment_5_30_19,3.1.0,59.9546291978328,
,,,C,D,d,v,L,D,y,L,y,,,,,6,17,137,9,5,0,5,0,,,,,0,33,33,32,,,,,,down,0.6671998444835481,1927.7033343888252,None,001,37,2019_Oct_16_1658,ACPT_experiment_5_30_19,3.1.0,59.9546291978328,
,,,C,D,d,v,R,D,d,R,c ,,,,,6,17,137,9,5,0,5,0,,,,,0,34,34,1,,,,,,up,0.90068252596393,1929.6548228544634,None,001,37,2019_Oct_16_1658,ACPT_experiment_5_30_19,3.1.0,59.9546291978328,
,,,C,D,d,v,R,U,y,L,u,,,,,6,17,137,9,5,0,5,0,,,,,0,35,35,30,,,,,,down,0.7505874866910744,1931.8398066795235,None,001,37,2019_Oct_16_1658,ACPT_experiment_5_30_19,3.1.0,59.9546291978328,
,,,C,D,d,v,R,G,d,L,i,,,,,6,17,137,9,5,0,5,0,,,,,1,0,36,4,,,,,,down,1.4010621095294482,1933.8747075395404,None,001,37,2019_Oct_16_1658,ACPT_experiment_5_30_19,3.1.0,59.9546291978328,
,,,C,D,d,v,R,G,g,L,c ,,,,,6,17,137,9,5,0,5,0,,,,,1,1,37,6,,,,,,up,0.7005458456951601,1936.5433904011697,None,001,37,2019_Oct_16_1658,ACPT_experiment_5_30_19,3.1.0,59.9546291978328,
,,,C,D,d,v,R,D,d,L,c,,,,,6,17,137,9,5,0,5,0,,,,,1,2,38,0,,,,,,up,0.8673347136209486,1938.5282577702965,None,001,37,2019_Oct_16_1658,ACPT_experiment_5_30_19,3.1.0,59.9546291978328,
,,,C,D,d,v,R,G,g,R,c ,,,,,6,17,137,9,5,0,5,0,,,,,1,3,39,7,,,,,,up,0.7672571668881574,1940.6798922737325,None,001,37,2019_Oct_16_1658,ACPT_experiment_5_30_19,3.1.0,59.9546291978328,
,,,C,D,d,v,R,D,y,L,y,,,,,6,17,137,9,5,0,5,0,,,,,1,4,40,26,,,,,,down,0.5671096198093437,1942.7314622102313,None,001,37,2019_Oct_16_1658,ACPT_experiment_5_30_19,3.1.0,59.9546291978328,
,,,C,D,d,v,R,U,y,L,u,,,,,6,17,137,9,5,0,5,0,,,,,1,5,41,30,,,,,,down,0.6171319420391228,1944.5828728272827,None,001,37,2019_Oct_16_1658,ACPT_experiment_5_30_19,3.1.0,59.9546291978328,
,,,C,D,d,v,L,U,y,R,u,,,,,6,17,137,9,5,0,5,0,,,,,1,6,42,25,,,,,,down,0.3836426197340188,1946.4842997294472,None,001,37,2019_Oct_16_1658,ACPT_experiment_5_30_19,3.1.0,59.9546291978328,
,,,C,D,d,v,L,D,y,L,y,,,,,6,17,137,9,5,0,5,0,,,,,1,7,43,32,,,,,,down,0.7836763068298751,1948.2025412629228,None,001,37,2019_Oct_16_1658,ACPT_experiment_5_30_19,3.1.0,59.9546291978328,
,,,C,D,d,v,L,U,y,L,u,,,,,6,17,137,9,5,0,5,0,,,,,1,8,44,24,,,,,,down,0.6171292253384308,1950.2872247717314,None,001,37,2019_Oct_16_1658,ACPT_experiment_5_30_19,3.1.0,59.9546291978328,
,,,C,D,d,v,L,G,d,L,i,,,,,6,17,137,9,5,0,5,0,,,,,1,9,45,16,,,,,,down,1.1842373358704208,1952.1886712945197,None,001,37,2019_Oct_16_1658,ACPT_experiment_5_30_19,3.1.0,59.9546291978328,
,,,C,D,d,v,L,U,d,L,u,,,,,6,17,137,9,5,0,5,0,,,,,1,10,46,20,,,,,,down,0.7171962071224698,1954.673907078548,None,001,37,2019_Oct_16_1658,ACPT_experiment_5_30_19,3.1.0,59.9546291978328,
,,,C,D,d,v,L,G,g,R,c ,,,,,6,17,137,9,5,0,5,0,,,,,1,11,47,19,,,,,,up,0.70054856239949,1956.6754024717775,None,001,37,2019_Oct_16_1658,ACPT_experiment_5_30_19,3.1.0,59.9546291978328,
,,,C,D,d,v,R,U,d,R,u,,,,,6,17,137,9,5,0,5,0,,,,,1,12,48,9,,,,,,down,0.5671132420757203,1958.6602740668823,None,001,37,2019_Oct_16_1658,ACPT_experiment_5_30_19,3.1.0,59.9546291978328,
,,,C,D,d,v,R,D,y,R,y,,,,,6,17,137,9,5,0,5,0,,,,,1,13,49,27,,,,,,down,0.8506426961030229,1960.5116874006344,None,001,37,2019_Oct_16_1658,ACPT_experiment_5_30_19,3.1.0,59.9546291978328,
,,,C,D,d,v,R,D,g,R,i,,,,,6,17,137,9,5,0,5,0,,,,,1,14,50,3,,,,,,down,0.8673208282561973,1962.646646186764,None,001,37,2019_Oct_16_1658,ACPT_experiment_5_30_19,3.1.0,59.9546291978328,
,,,C,D,d,v,R,U,d,L,u,,,,,6,17,137,9,5,0,5,0,,,,,1,15,51,8,,,,,,down,0.6004495839042647,1964.7982873310248,None,001,37,2019_Oct_16_1658,ACPT_experiment_5_30_19,3.1.0,59.9546291978328,
