facing_vig,person_vig,text_vig,facing_train,person_train,food_train,correct_key_train,facing_exp,person_exp,food_exp,showL_R,consistent,vig_random.thisRepN,vig_random.thisTrialN,vig_random.thisN,vig_random.thisIndex,trainTrials.thisRepN,trainTrials.thisTrialN,trainTrials.thisN,trainTrials.thisIndex,expBlock.thisRepN,expBlock.thisTrialN,expBlock.thisN,expBlock.thisIndex,breakLoop.thisRepN,breakLoop.thisTrialN,breakLoop.thisN,breakLoop.thisIndex,expTrials.thisRepN,expTrials.thisTrialN,expTrials.thisN,expTrials.thisIndex,train_resp.keys,train_resp.corr,train_resp.rt,train_resp.started,train_resp.stopped,exp_resp.keys,exp_resp.rt,exp_resp.started,exp_resp.stopped,session,participant,date,expName,psychopyVersion,frameRate,
C,G,"cannot eat dairy products because she is lactose intolerant. She enjoys eating wheat products. She thinks eating insects, like crickets, is disgusting.",,,,,,,,,,0,0,0,0,,,,,,,,,,,,,,,,,,,,,,,,,,001,38,2019_Oct_17_1105,ACPT_experiment_5_30_19,3.1.0,59.942189001384925,
C,U,"did not report her food preferences, so her food preferences are unknown.",,,,,,,,,,0,1,1,2,,,,,,,,,,,,,,,,,,,,,,,,,,001,38,2019_Oct_17_1105,ACPT_experiment_5_30_19,3.1.0,59.942189001384925,
C,D,"is allergic to gluten, meaning she can’t eat wheat products. She enjoys eating dairy products. She thinks eating insects, like crickets, is disgusting.",,,,,,,,,,0,2,2,1,,,,,,,,,,,,,,,,,,,,,,,,,,001,38,2019_Oct_17_1105,ACPT_experiment_5_30_19,3.1.0,59.942189001384925,
,,,C,U,y,n,,,,,,,,,,0,0,0,17,,,,,,,,,,,,,b,0,3.035723740432104,1114.9551721317093,None,,,,,001,38,2019_Oct_17_1105,ACPT_experiment_5_30_19,3.1.0,59.942189001384925,
,,,C,U,g,n,,,,,,,,,,0,1,1,7,,,,,,,,,,,,,n,1,2.185057397360424,1121.2601021558007,None,,,,,001,38,2019_Oct_17_1105,ACPT_experiment_5_30_19,3.1.0,59.942189001384925,
,,,C,G,g,v,,,,,,,,,,0,2,2,19,,,,,,,,,,,,,v,1,2.0849790040579137,1126.7310502981932,None,,,,,001,38,2019_Oct_17_1105,ACPT_experiment_5_30_19,3.1.0,59.942189001384925,
,,,C,D,g,b,,,,,,,,,,0,3,3,10,,,,,,,,,,,,,b,1,2.5353314720584876,1132.1018965021253,None,,,,,001,38,2019_Oct_17_1105,ACPT_experiment_5_30_19,3.1.0,59.942189001384925,
,,,C,G,y,b,,,,,,,,,,0,4,4,14,,,,,,,,,,,,,b,1,2.084978702197077,1137.9231030224437,None,,,,,001,38,2019_Oct_17_1105,ACPT_experiment_5_30_19,3.1.0,59.942189001384925,
,,,C,G,d,b,,,,,,,,,,0,5,5,3,,,,,,,,,,,,,b,1,1.551246489733785,1143.2772629538367,None,,,,,001,38,2019_Oct_17_1105,ACPT_experiment_5_30_19,3.1.0,59.942189001384925,
,,,C,G,y,b,,,,,,,,,,0,6,6,5,,,,,,,,,,,,,b,1,1.7013498922206054,1148.0977121048977,None,,,,,001,38,2019_Oct_17_1105,ACPT_experiment_5_30_19,3.1.0,59.942189001384925,
,,,C,D,g,b,,,,,,,,,,0,7,7,1,,,,,,,,,,,,,b,1,1.7680657018584043,1153.0849415732937,None,,,,,001,38,2019_Oct_17_1105,ACPT_experiment_5_30_19,3.1.0,59.942189001384925,
,,,C,D,d,v,,,,,,,,,,0,8,8,18,,,,,,,,,,,,,b,0,2.068300579905099,1158.1222063141472,None,,,,,001,38,2019_Oct_17_1105,ACPT_experiment_5_30_19,3.1.0,59.942189001384925,
,,,C,G,d,b,,,,,,,,,,0,9,9,12,,,,,,,,,,,,,b,1,1.401109278814829,1163.4763882813936,None,,,,,001,38,2019_Oct_17_1105,ACPT_experiment_5_30_19,3.1.0,59.942189001384925,
,,,C,U,y,n,,,,,,,,,,0,10,10,8,,,,,,,,,,,,,n,1,1.1006311007995464,1168.180303690281,None,,,,,001,38,2019_Oct_17_1105,ACPT_experiment_5_30_19,3.1.0,59.942189001384925,
,,,C,D,y,b,,,,,,,,,,0,11,11,2,,,,,,,,,,,,,n,0,0.8006434469145916,1172.5668176877266,None,,,,,001,38,2019_Oct_17_1105,ACPT_experiment_5_30_19,3.1.0,59.942189001384925,
,,,C,G,g,v,,,,,,,,,,0,12,12,13,,,,,,,,,,,,,v,1,2.7018820731693722,1176.6702654535475,None,,,,,001,38,2019_Oct_17_1105,ACPT_experiment_5_30_19,3.1.0,59.942189001384925,
,,,C,U,g,n,,,,,,,,,,0,13,13,16,,,,,,,,,,,,,n,1,1.117559164001932,1182.658027102892,None,,,,,001,38,2019_Oct_17_1105,ACPT_experiment_5_30_19,3.1.0,59.942189001384925,
,,,C,D,y,b,,,,,,,,,,0,14,14,11,,,,,,,,,,,,,b,1,2.2348611424292812,1187.0783978304644,None,,,,,001,38,2019_Oct_17_1105,ACPT_experiment_5_30_19,3.1.0,59.942189001384925,
,,,C,U,d,n,,,,,,,,,,0,15,15,15,,,,,,,,,,,,,n,1,1.451137004748034,1192.5991276820728,None,,,,,001,38,2019_Oct_17_1105,ACPT_experiment_5_30_19,3.1.0,59.942189001384925,
,,,C,U,d,n,,,,,,,,,,0,16,16,6,,,,,,,,,,,,,n,1,1.1677453669617535,1197.3193248697544,None,,,,,001,38,2019_Oct_17_1105,ACPT_experiment_5_30_19,3.1.0,59.942189001384925,
,,,C,D,d,v,,,,,,,,,,0,17,17,9,,,,,,,,,,,,,b,0,3.0323914968171266,1201.7929601787982,None,,,,,001,38,2019_Oct_17_1105,ACPT_experiment_5_30_19,3.1.0,59.942189001384925,
,,,C,D,d,v,,,,,,,,,,0,18,18,0,,,,,,,,,,,,,v,1,1.0509861346185971,1208.094399784109,None,,,,,001,38,2019_Oct_17_1105,ACPT_experiment_5_30_19,3.1.0,59.942189001384925,
,,,C,G,g,v,,,,,,,,,,0,19,19,4,,,,,,,,,,,,,v,1,2.4516519796195553,1212.4482312907303,None,,,,,001,38,2019_Oct_17_1105,ACPT_experiment_5_30_19,3.1.0,59.942189001384925,
,,,C,D,y,b,,,,,,,,,,1,0,20,2,,,,,,,,,,,,,n,0,1.117377443677924,1218.1859119658607,None,,,,,001,38,2019_Oct_17_1105,ACPT_experiment_5_30_19,3.1.0,59.942189001384925,
,,,C,U,d,n,,,,,,,,,,1,1,21,15,,,,,,,,,,,,,b,0,0.23877144986568055,None,None,,,,,001,38,2019_Oct_17_1105,ACPT_experiment_5_30_19,3.1.0,59.942189001384925,
,,,C,G,y,b,,,,,,,,,,1,2,22,5,,,,,,,,,,,,,b,1,2.0846049982749264,1225.8586614336045,None,,,,,001,38,2019_Oct_17_1105,ACPT_experiment_5_30_19,3.1.0,59.942189001384925,
,,,C,U,g,n,,,,,,,,,,1,3,23,7,,,,,,,,,,,,,n,1,1.968205282386407,1231.2292824492279,None,,,,,001,38,2019_Oct_17_1105,ACPT_experiment_5_30_19,3.1.0,59.942189001384925,
,,,C,U,y,n,,,,,,,,,,1,4,24,8,,,,,,,,,,,,,n,1,1.1175470895618673,1236.4833820989784,None,,,,,001,38,2019_Oct_17_1105,ACPT_experiment_5_30_19,3.1.0,59.942189001384925,
,,,C,D,d,v,,,,,,,,,,1,5,25,18,,,,,,,,,,,,,v,1,4.753474948404573,1240.9371060525245,None,,,,,001,38,2019_Oct_17_1105,ACPT_experiment_5_30_19,3.1.0,59.942189001384925,
,,,C,U,y,n,,,,,,,,,,1,6,26,17,,,,,,,,,,,,,n,1,0.8840400955932637,1248.9764681236288,None,,,,,001,38,2019_Oct_17_1105,ACPT_experiment_5_30_19,3.1.0,59.942189001384925,
,,,C,U,d,n,,,,,,,,,,1,7,27,6,,,,,,,,,,,,,n,1,0.6838751587411025,1253.1463887009804,None,,,,,001,38,2019_Oct_17_1105,ACPT_experiment_5_30_19,3.1.0,59.942189001384925,
,,,C,G,g,v,,,,,,,,,,1,8,28,4,,,,,,,,,,,,,v,1,3.636193496525266,1257.1161530954487,None,,,,,001,38,2019_Oct_17_1105,ACPT_experiment_5_30_19,3.1.0,59.942189001384925,
,,,C,G,g,v,,,,,,,,,,1,9,29,13,,,,,,,,,,,,,v,1,1.5011849553682168,1264.0215408011936,None,,,,,001,38,2019_Oct_17_1105,ACPT_experiment_5_30_19,3.1.0,59.942189001384925,
,,,C,G,g,v,,,,,,,,,,1,10,30,19,,,,,,,,,,,,,v,1,0.7340637765892097,1268.7917874488007,None,,,,,001,38,2019_Oct_17_1105,ACPT_experiment_5_30_19,3.1.0,59.942189001384925,
,,,C,G,y,b,,,,,,,,,,1,11,31,14,,,,,,,,,,,,,n,0,1.2509711623126805,1272.811746498337,None,,,,,001,38,2019_Oct_17_1105,ACPT_experiment_5_30_19,3.1.0,59.942189001384925,
,,,C,D,g,b,,,,,,,,,,1,12,32,10,,,,,,,,,,,,,b,1,2.602057846831485,1277.3486141410408,None,,,,,001,38,2019_Oct_17_1105,ACPT_experiment_5_30_19,3.1.0,59.942189001384925,
,,,C,D,y,b,,,,,,,,,,1,13,33,11,,,,,,,,,,,,,b,1,3.152474218806219,1283.2365397914682,None,,,,,001,38,2019_Oct_17_1105,ACPT_experiment_5_30_19,3.1.0,59.942189001384925,
,,,C,G,d,b,,,,,,,,,,1,14,34,12,,,,,,,,,,,,,b,1,8.03959963571424,1289.674930111631,None,,,,,001,38,2019_Oct_17_1105,ACPT_experiment_5_30_19,3.1.0,59.942189001384925,
,,,C,U,g,n,,,,,,,,,,1,15,35,16,,,,,,,,,,,,,n,1,2.5687130729661476,1301.0003848727793,None,,,,,001,38,2019_Oct_17_1105,ACPT_experiment_5_30_19,3.1.0,59.942189001384925,
,,,C,D,d,v,,,,,,,,,,1,16,36,0,,,,,,,,,,,,,v,1,4.536877302256016,1306.8549905019436,None,,,,,001,38,2019_Oct_17_1105,ACPT_experiment_5_30_19,3.1.0,59.942189001384925,
,,,C,D,d,v,,,,,,,,,,1,17,37,9,,,,,,,,,,,,,v,1,2.00157843118609,1314.66107438972,None,,,,,001,38,2019_Oct_17_1105,ACPT_experiment_5_30_19,3.1.0,59.942189001384925,
,,,C,G,d,b,,,,,,,,,,1,18,38,3,,,,,,,,,,,,,b,1,1.4678262958968844,1319.9485299821931,None,,,,,001,38,2019_Oct_17_1105,ACPT_experiment_5_30_19,3.1.0,59.942189001384925,
,,,C,D,g,b,,,,,,,,,,1,19,39,1,,,,,,,,,,,,,b,1,3.8363406235782804,1324.7022461175393,None,,,,,001,38,2019_Oct_17_1105,ACPT_experiment_5_30_19,3.1.0,59.942189001384925,
,,,C,D,d,v,,,,,,,,,,2,0,40,9,,,,,,,,,,,,,v,1,3.235846718604762,1331.8077933266381,None,,,,,001,38,2019_Oct_17_1105,ACPT_experiment_5_30_19,3.1.0,59.942189001384925,
,,,C,D,g,b,,,,,,,,,,2,1,41,1,,,,,,,,,,,,,b,1,2.401887174620242,1338.3128659498675,None,,,,,001,38,2019_Oct_17_1105,ACPT_experiment_5_30_19,3.1.0,59.942189001384925,
,,,C,G,d,b,,,,,,,,,,2,2,42,12,,,,,,,,,,,,,b,1,4.536888471113116,1344.0006384360217,None,,,,,001,38,2019_Oct_17_1105,ACPT_experiment_5_30_19,3.1.0,59.942189001384925,
,,,C,G,g,v,,,,,,,,,,2,3,43,13,,,,,,,,,,,,,v,1,1.2509889721120544,1351.8067334926554,None,,,,,001,38,2019_Oct_17_1105,ACPT_experiment_5_30_19,3.1.0,59.942189001384925,
,,,C,D,d,v,,,,,,,,,,2,4,44,18,,,,,,,,,,,,,v,1,1.8845704653761004,1356.3605515362765,None,,,,,001,38,2019_Oct_17_1105,ACPT_experiment_5_30_19,3.1.0,59.942189001384925,
,,,C,U,y,n,,,,,,,,,,2,5,45,17,,,,,,,,,,,,,n,1,1.0341588929911723,1361.5309870884994,None,,,,,001,38,2019_Oct_17_1105,ACPT_experiment_5_30_19,3.1.0,59.942189001384925,
,,,C,U,g,n,,,,,,,,,,2,6,46,7,,,,,,,,,,,,,n,1,1.3841546518440282,1365.8513044772326,None,,,,,001,38,2019_Oct_17_1105,ACPT_experiment_5_30_19,3.1.0,59.942189001384925,
,,,C,D,d,v,,,,,,,,,,2,7,47,0,,,,,,,,,,,,,v,1,7.3057396153024,1370.5213381015296,None,,,,,001,38,2019_Oct_17_1105,ACPT_experiment_5_30_19,3.1.0,59.942189001384925,
,,,C,G,g,v,,,,,,,,,,2,8,48,4,,,,,,,,,,,,,v,1,2.1349973723001767,1381.1129578967293,None,,,,,001,38,2019_Oct_17_1105,ACPT_experiment_5_30_19,3.1.0,59.942189001384925,
,,,C,G,y,b,,,,,,,,,,2,9,49,14,,,,,,,,,,,,,n,0,0.9007176141631135,1386.5171636657155,None,,,,,001,38,2019_Oct_17_1105,ACPT_experiment_5_30_19,3.1.0,59.942189001384925,
,,,C,U,y,n,,,,,,,,,,2,10,50,8,,,,,,,,,,,,,n,1,1.33440826036599,1390.7037448574206,None,,,,,001,38,2019_Oct_17_1105,ACPT_experiment_5_30_19,3.1.0,59.942189001384925,
,,,C,U,d,n,,,,,,,,,,2,11,51,15,,,,,,,,,,,,,n,1,1.2843458204174567,1395.3240378255987,None,,,,,001,38,2019_Oct_17_1105,ACPT_experiment_5_30_19,3.1.0,59.942189001384925,
,,,C,U,g,n,,,,,,,,,,2,12,52,16,,,,,,,,,,,,,n,1,0.8506545704926793,1399.8942906915422,None,,,,,001,38,2019_Oct_17_1105,ACPT_experiment_5_30_19,3.1.0,59.942189001384925,
,,,C,U,d,n,,,,,,,,,,2,13,53,6,,,,,,,,,,,,,n,1,1.267687922812911,1404.014134641478,None,,,,,001,38,2019_Oct_17_1105,ACPT_experiment_5_30_19,3.1.0,59.942189001384925,
,,,C,D,y,b,,,,,,,,,,2,14,54,11,,,,,,,,,,,,,b,1,4.686733480581097,1408.584656767437,None,,,,,001,38,2019_Oct_17_1105,ACPT_experiment_5_30_19,3.1.0,59.942189001384925,
,,,C,G,y,b,,,,,,,,,,2,15,55,5,,,,,,,,,,,,,b,1,1.1509057490331998,1416.5572797856062,None,,,,,001,38,2019_Oct_17_1105,ACPT_experiment_5_30_19,3.1.0,59.942189001384925,
,,,C,D,g,b,,,,,,,,,,2,16,56,10,,,,,,,,,,,,,b,1,6.554884518545123,1421.010994985183,None,,,,,001,38,2019_Oct_17_1105,ACPT_experiment_5_30_19,3.1.0,59.942189001384925,
,,,C,G,d,b,,,,,,,,,,2,17,57,3,,,,,,,,,,,,,b,1,1.8514599356492454,1430.8517642115407,None,,,,,001,38,2019_Oct_17_1105,ACPT_experiment_5_30_19,3.1.0,59.942189001384925,
,,,C,D,y,b,,,,,,,,,,2,18,58,2,,,,,,,,,,,,,b,1,1.7513733920995946,1435.9891070438362,None,,,,,001,38,2019_Oct_17_1105,ACPT_experiment_5_30_19,3.1.0,59.942189001384925,
,,,C,G,g,v,,,,,,,,,,2,19,59,19,,,,,,,,,,,,,v,1,2.168380180651866,1441.0263684642186,None,,,,,001,38,2019_Oct_17_1105,ACPT_experiment_5_30_19,3.1.0,59.942189001384925,
,,,C,U,g,n,,,,,,,,,,3,0,60,7,,,,,,,,,,,,,n,1,1.267674640928817,1446.4806255042963,None,,,,,001,38,2019_Oct_17_1105,ACPT_experiment_5_30_19,3.1.0,59.942189001384925,
,,,C,D,g,b,,,,,,,,,,3,1,61,1,,,,,,,,,,,,,b,1,7.038438678295506,1451.0512351699463,None,,,,,001,38,2019_Oct_17_1105,ACPT_experiment_5_30_19,3.1.0,59.942189001384925,
,,,C,D,d,v,,,,,,,,,,3,2,62,9,,,,,,,,,,,,,v,1,2.5520104999332034,1461.3589054882254,None,,,,,001,38,2019_Oct_17_1105,ACPT_experiment_5_30_19,3.1.0,59.942189001384925,
,,,C,U,y,n,,,,,,,,,,3,3,63,17,,,,,,,,,,,,,n,1,1.2676562274075422,1467.1968003941097,None,,,,,001,38,2019_Oct_17_1105,ACPT_experiment_5_30_19,3.1.0,59.942189001384925,
,,,C,D,d,v,,,,,,,,,,3,4,64,0,,,,,,,,,,,,,v,1,2.6851840280512533,1471.7672841837211,None,,,,,001,38,2019_Oct_17_1105,ACPT_experiment_5_30_19,3.1.0,59.942189001384925,
,,,C,D,y,b,,,,,,,,,,3,5,65,11,,,,,,,,,,,,,b,1,1.1342363807107176,1477.721674797293,None,,,,,001,38,2019_Oct_17_1105,ACPT_experiment_5_30_19,3.1.0,59.942189001384925,
,,,C,D,y,b,,,,,,,,,,3,6,66,2,,,,,,,,,,,,,b,1,0.7472505745167837,1482.1618116852205,None,,,,,001,38,2019_Oct_17_1105,ACPT_experiment_5_30_19,3.1.0,59.942189001384925,
,,,C,U,d,n,,,,,,,,,,3,7,67,6,,,,,,,,,,,,,n,1,1.3176899905608934,1486.194959947573,None,,,,,001,38,2019_Oct_17_1105,ACPT_experiment_5_30_19,3.1.0,59.942189001384925,
,,,C,G,d,b,,,,,,,,,,3,8,68,3,,,,,,,,,,,,,b,1,1.5676541445666317,1490.815470255673,None,,,,,001,38,2019_Oct_17_1105,ACPT_experiment_5_30_19,3.1.0,59.942189001384925,
,,,C,G,g,v,,,,,,,,,,3,9,69,13,,,,,,,,,,,,,v,1,0.9841154702858148,1495.669011221079,None,,,,,001,38,2019_Oct_17_1105,ACPT_experiment_5_30_19,3.1.0,59.942189001384925,
,,,C,G,y,b,,,,,,,,,,3,10,70,14,,,,,,,,,,,,,b,1,6.585179288833615,1499.9590193501958,None,,,,,001,38,2019_Oct_17_1105,ACPT_experiment_5_30_19,3.1.0,59.942189001384925,
,,,C,G,g,v,,,,,,,,,,3,11,71,19,,,,,,,,,,,,,v,1,4.636966864415854,1509.813391942666,None,,,,,001,38,2019_Oct_17_1105,ACPT_experiment_5_30_19,3.1.0,59.942189001384925,
,,,C,G,g,v,,,,,,,,,,3,12,72,4,,,,,,,,,,,,,v,1,1.200945549406697,1517.719558449799,None,,,,,001,38,2019_Oct_17_1105,ACPT_experiment_5_30_19,3.1.0,59.942189001384925,
,,,C,U,y,n,,,,,,,,,,3,13,73,8,,,,,,,,,,,,,n,1,1.0005318790877027,1522.2233240148844,None,,,,,001,38,2019_Oct_17_1105,ACPT_experiment_5_30_19,3.1.0,59.942189001384925,
,,,C,G,d,b,,,,,,,,,,3,14,74,12,,,,,,,,,,,,,b,1,1.7013432512785585,1526.5097436203941,None,,,,,001,38,2019_Oct_17_1105,ACPT_experiment_5_30_19,3.1.0,59.942189001384925,
,,,C,D,d,v,,,,,,,,,,3,15,75,18,,,,,,,,,,,,,b,0,3.7029029670823093,1531.4969706739016,None,,,,,001,38,2019_Oct_17_1105,ACPT_experiment_5_30_19,3.1.0,59.942189001384925,
,,,C,G,y,b,,,,,,,,,,3,16,76,5,,,,,,,,,,,,,v,0,0.23343937710387763,None,None,,,,,001,38,2019_Oct_17_1105,ACPT_experiment_5_30_19,3.1.0,59.942189001384925,
,,,C,U,d,n,,,,,,,,,,3,17,77,15,,,,,,,,,,,,,n,1,1.100863533772099,1541.738304923685,None,,,,,001,38,2019_Oct_17_1105,ACPT_experiment_5_30_19,3.1.0,59.942189001384925,
,,,C,U,g,n,,,,,,,,,,3,18,78,16,,,,,,,,,,,,,n,1,1.2176354442774482,1546.1083705150622,None,,,,,001,38,2019_Oct_17_1105,ACPT_experiment_5_30_19,3.1.0,59.942189001384925,
,,,C,D,g,b,,,,,,,,,,3,19,79,10,,,,,,,,,,,,,v,0,1.701112327610872,1550.6288105801073,None,,,,,001,38,2019_Oct_17_1105,ACPT_experiment_5_30_19,3.1.0,59.942189001384925,
,,,C,U,g,n,,,,,,,,,,4,0,80,7,,,,,,,,,,,,,b,0,0.23615944660423338,None,None,,,,,001,38,2019_Oct_17_1105,ACPT_experiment_5_30_19,3.1.0,59.942189001384925,
,,,C,G,d,b,,,,,,,,,,4,1,81,3,,,,,,,,,,,,,b,1,2.7688481255790975,1558.8850012210278,None,,,,,001,38,2019_Oct_17_1105,ACPT_experiment_5_30_19,3.1.0,59.942189001384925,
,,,C,U,y,n,,,,,,,,,,4,2,82,17,,,,,,,,,,,,,n,1,0.9674165195847308,1564.9564257604557,None,,,,,001,38,2019_Oct_17_1105,ACPT_experiment_5_30_19,3.1.0,59.942189001384925,
,,,C,U,g,n,,,,,,,,,,4,3,83,16,,,,,,,,,,,,,n,1,2.084973268698832,1569.2097275915748,None,,,,,001,38,2019_Oct_17_1105,ACPT_experiment_5_30_19,3.1.0,59.942189001384925,
,,,C,G,y,b,,,,,,,,,,4,4,84,14,,,,,,,,,,,,,b,1,1.1008744007681344,1574.5805825494758,None,,,,,001,38,2019_Oct_17_1105,ACPT_experiment_5_30_19,3.1.0,59.942189001384925,
,,,C,D,g,b,,,,,,,,,,4,5,85,1,,,,,,,,,,,,,v,0,3.7360418717435095,1578.9842413463243,None,,,,,001,38,2019_Oct_17_1105,ACPT_experiment_5_30_19,3.1.0,59.942189001384925,
,,,C,U,y,n,,,,,,,,,,4,6,86,8,,,,,,,,,,,,,n,1,0.8506672486546449,1586.0061787928757,None,,,,,001,38,2019_Oct_17_1105,ACPT_experiment_5_30_19,3.1.0,59.942189001384925,
,,,C,D,d,v,,,,,,,,,,4,7,87,0,,,,,,,,,,,,,v,1,1.4675790717351447,1590.159649454854,None,,,,,001,38,2019_Oct_17_1105,ACPT_experiment_5_30_19,3.1.0,59.942189001384925,
,,,C,D,y,b,,,,,,,,,,4,8,88,2,,,,,,,,,,,,,b,1,1.1342720003090108,1594.9131189697605,None,,,,,001,38,2019_Oct_17_1105,ACPT_experiment_5_30_19,3.1.0,59.942189001384925,
,,,C,G,g,v,,,,,,,,,,4,9,89,13,,,,,,,,,,,,,v,1,2.2517481525351286,1599.3666044531137,None,,,,,001,38,2019_Oct_17_1105,ACPT_experiment_5_30_19,3.1.0,59.942189001384925,
,,,C,U,d,n,,,,,,,,,,4,10,90,6,,,,,,,,,,,,,n,1,1.2176300107796578,1604.9042427469594,None,,,,,001,38,2019_Oct_17_1105,ACPT_experiment_5_30_19,3.1.0,59.942189001384925,
,,,C,D,d,v,,,,,,,,,,4,11,91,9,,,,,,,,,,,,,v,1,3.8027024408179386,1609.4247093757726,None,,,,,001,38,2019_Oct_17_1105,ACPT_experiment_5_30_19,3.1.0,59.942189001384925,
,,,C,D,d,v,,,,,,,,,,4,12,92,18,,,,,,,,,,,,,b,0,4.37008762723076,1616.5132989392905,None,,,,,001,38,2019_Oct_17_1105,ACPT_experiment_5_30_19,3.1.0,59.942189001384925,
,,,C,G,y,b,,,,,,,,,,4,13,93,5,,,,,,,,,,,,,b,1,1.134232154656729,1624.1692848580788,None,,,,,001,38,2019_Oct_17_1105,ACPT_experiment_5_30_19,3.1.0,59.942189001384925,
,,,C,G,g,v,,,,,,,,,,4,14,94,4,,,,,,,,,,,,,v,1,2.8822678696433286,1628.6094000120142,None,,,,,001,38,2019_Oct_17_1105,ACPT_experiment_5_30_19,3.1.0,59.942189001384925,
,,,C,D,g,b,,,,,,,,,,4,15,95,10,,,,,,,,,,,,,b,1,2.235096292150729,1634.7775447410831,None,,,,,001,38,2019_Oct_17_1105,ACPT_experiment_5_30_19,3.1.0,59.942189001384925,
,,,C,D,y,b,,,,,,,,,,4,16,96,11,,,,,,,,,,,,,n,0,1.5679348752998976,1640.281816527071,None,,,,,001,38,2019_Oct_17_1105,ACPT_experiment_5_30_19,3.1.0,59.942189001384925,
,,,C,U,d,n,,,,,,,,,,4,17,97,15,,,,,,,,,,,,,n,1,2.7187956470436347,1645.135632789712,None,,,,,001,38,2019_Oct_17_1105,ACPT_experiment_5_30_19,3.1.0,59.942189001384925,
,,,C,G,g,v,,,,,,,,,,4,18,98,19,,,,,,,,,,,,,v,1,5.137351284403394,1651.1403101259575,None,,,,,001,38,2019_Oct_17_1105,ACPT_experiment_5_30_19,3.1.0,59.942189001384925,
,,,C,G,d,b,,,,,,,,,,4,19,99,12,,,,,,,,,,,,,b,1,2.285134885080197,1659.5468661847153,None,,,,,001,38,2019_Oct_17_1105,ACPT_experiment_5_30_19,3.1.0,59.942189001384925,
,,,C,D,y,b,,,,,,,,,,5,0,100,2,,,,,,,,,,,,,b,1,1.768078078159533,1665.117861628727,None,,,,,001,38,2019_Oct_17_1105,ACPT_experiment_5_30_19,3.1.0,59.942189001384925,
,,,C,G,y,b,,,,,,,,,,5,1,101,5,,,,,,,,,,,,,b,1,1.2176532540768221,1670.1718017751236,None,,,,,001,38,2019_Oct_17_1105,ACPT_experiment_5_30_19,3.1.0,59.942189001384925,
,,,C,U,g,n,,,,,,,,,,5,2,102,7,,,,,,,,,,,,,n,1,0.6667862036240422,1674.6924042413884,None,,,,,001,38,2019_Oct_17_1105,ACPT_experiment_5_30_19,3.1.0,59.942189001384925,
,,,C,D,d,v,,,,,,,,,,5,3,103,0,,,,,,,,,,,,,v,1,2.602042150059333,1678.6450974905388,None,,,,,001,38,2019_Oct_17_1105,ACPT_experiment_5_30_19,3.1.0,59.942189001384925,
,,,C,G,g,v,,,,,,,,,,5,4,104,13,,,,,,,,,,,,,v,1,1.5011589953221574,1684.5330258577155,None,,,,,001,38,2019_Oct_17_1105,ACPT_experiment_5_30_19,3.1.0,59.942189001384925,
,,,C,U,y,n,,,,,,,,,,5,5,105,8,,,,,,,,,,,,,n,1,1.7011938300818201,1689.320209624355,None,,,,,001,38,2019_Oct_17_1105,ACPT_experiment_5_30_19,3.1.0,59.942189001384925,
,,,C,U,y,n,,,,,,,,,,5,6,106,17,,,,,,,,,,,,,n,1,0.8006522008836328,1694.2906181902044,None,,,,,001,38,2019_Oct_17_1105,ACPT_experiment_5_30_19,3.1.0,59.942189001384925,
,,,C,U,d,n,,,,,,,,,,5,7,107,15,,,,,,,,,,,,,n,1,0.7338769246280208,1698.3605098794578,None,,,,,001,38,2019_Oct_17_1105,ACPT_experiment_5_30_19,3.1.0,59.942189001384925,
,,,C,G,d,b,,,,,,,,,,5,8,108,12,,,,,,,,,,,,,b,1,2.385186714614292,1702.3803029054425,None,,,,,001,38,2019_Oct_17_1105,ACPT_experiment_5_30_19,3.1.0,59.942189001384925,
,,,C,U,d,n,,,,,,,,,,5,9,109,6,,,,,,,,,,,,,n,1,0.8506627207395923,1708.051381572533,None,,,,,001,38,2019_Oct_17_1105,ACPT_experiment_5_30_19,3.1.0,59.942189001384925,
,,,C,D,d,v,,,,,,,,,,5,10,110,9,,,,,,,,,,,,,v,1,1.4342155824876954,1712.204855856843,None,,,,,001,38,2019_Oct_17_1105,ACPT_experiment_5_30_19,3.1.0,59.942189001384925,
,,,C,D,g,b,,,,,,,,,,5,11,111,10,,,,,,,,,,,,,b,1,4.486846557712852,1716.924959467614,None,,,,,001,38,2019_Oct_17_1105,ACPT_experiment_5_30_19,3.1.0,59.942189001384925,
,,,C,G,g,v,,,,,,,,,,5,12,112,4,,,,,,,,,,,,,v,1,3.0857735022186716,1724.6976647730926,None,,,,,001,38,2019_Oct_17_1105,ACPT_experiment_5_30_19,3.1.0,59.942189001384925,
,,,C,U,g,n,,,,,,,,,,5,13,113,16,,,,,,,,,,,,,n,1,4.9038243676086495,1731.0693353594243,None,,,,,001,38,2019_Oct_17_1105,ACPT_experiment_5_30_19,3.1.0,59.942189001384925,
,,,C,G,y,b,,,,,,,,,,5,14,114,14,,,,,,,,,,,,,b,1,1.6846482247706263,1739.2590574148685,None,,,,,001,38,2019_Oct_17_1105,ACPT_experiment_5_30_19,3.1.0,59.942189001384925,
,,,C,G,g,v,,,,,,,,,,5,15,115,19,,,,,,,,,,,,,v,1,2.0516453990494483,1744.212905584217,None,,,,,001,38,2019_Oct_17_1105,ACPT_experiment_5_30_19,3.1.0,59.942189001384925,
,,,C,G,d,b,,,,,,,,,,5,16,116,3,,,,,,,,,,,,,v,0,1.5678980482571205,1749.533725873382,None,,,,,001,38,2019_Oct_17_1105,ACPT_experiment_5_30_19,3.1.0,59.942189001384925,
,,,C,D,g,b,,,,,,,,,,5,17,117,1,,,,,,,,,,,,,b,1,0.2337421436900513,None,None,,,,,001,38,2019_Oct_17_1105,ACPT_experiment_5_30_19,3.1.0,59.942189001384925,
,,,C,D,d,v,,,,,,,,,,5,18,118,18,,,,,,,,,,,,,b,0,1.9679502098388184,1757.6570007754808,None,,,,,001,38,2019_Oct_17_1105,ACPT_experiment_5_30_19,3.1.0,59.942189001384925,
,,,C,D,y,b,,,,,,,,,,5,19,119,11,,,,,,,,,,,,,b,1,1.2010521063407396,1762.8941427796508,None,,,,,001,38,2019_Oct_17_1105,ACPT_experiment_5_30_19,3.1.0,59.942189001384925,
,,,C,G,y,b,,,,,,,,,,6,0,120,5,,,,,,,,,,,,,b,1,1.0339213283814388,1767.3979285694231,None,,,,,001,38,2019_Oct_17_1105,ACPT_experiment_5_30_19,3.1.0,59.942189001384925,
,,,C,D,d,v,,,,,,,,,,6,1,121,9,,,,,,,,,,,,,v,1,14.144376193671178,1771.7176956655476,None,,,,,001,38,2019_Oct_17_1105,ACPT_experiment_5_30_19,3.1.0,59.942189001384925,
,,,C,D,y,b,,,,,,,,,,6,2,122,11,,,,,,,,,,,,,b,1,0.9675125113835747,1789.1312690870486,None,,,,,001,38,2019_Oct_17_1105,ACPT_experiment_5_30_19,3.1.0,59.942189001384925,
,,,C,D,d,v,,,,,,,,,,6,3,123,0,,,,,,,,,,,,,v,1,6.371410080286296,1793.3848628177575,None,,,,,001,38,2019_Oct_17_1105,ACPT_experiment_5_30_19,3.1.0,59.942189001384925,
,,,C,G,d,b,,,,,,,,,,6,4,124,12,,,,,,,,,,,,,b,1,2.66878241043878,1803.042101459709,None,,,,,001,38,2019_Oct_17_1105,ACPT_experiment_5_30_19,3.1.0,59.942189001384925,
,,,C,D,g,b,,,,,,,,,,6,5,125,10,,,,,,,,,,,,,v,0,1.517851305080967,1808.9967806524,None,,,,,001,38,2019_Oct_17_1105,ACPT_experiment_5_30_19,3.1.0,59.942189001384925,
,,,C,U,y,n,,,,,,,,,,6,6,126,17,,,,,,,,,,,,,b,0,0.23819851768121225,None,None,,,,,001,38,2019_Oct_17_1105,ACPT_experiment_5_30_19,3.1.0,59.942189001384925,
,,,C,G,g,v,,,,,,,,,,6,7,127,13,,,,,,,,,,,,,v,1,1.5508739932556637,1817.0700782393533,None,,,,,001,38,2019_Oct_17_1105,ACPT_experiment_5_30_19,3.1.0,59.942189001384925,
,,,C,D,y,b,,,,,,,,,,6,8,128,2,,,,,,,,,,,,,b,1,1.5178706241854343,1821.9068363366991,None,,,,,001,38,2019_Oct_17_1105,ACPT_experiment_5_30_19,3.1.0,59.942189001384925,
,,,C,U,d,n,,,,,,,,,,6,9,129,6,,,,,,,,,,,,,n,1,3.052381939897714,1826.7105961966117,None,,,,,001,38,2019_Oct_17_1105,ACPT_experiment_5_30_19,3.1.0,59.942189001384925,
,,,C,U,g,n,,,,,,,,,,6,10,130,7,,,,,,,,,,,,,n,1,1.8846863800013125,1833.032320559481,None,,,,,001,38,2019_Oct_17_1105,ACPT_experiment_5_30_19,3.1.0,59.942189001384925,
,,,C,G,y,b,,,,,,,,,,6,11,131,14,,,,,,,,,,,,,b,1,0.8006473711079707,1838.2028822896036,None,,,,,001,38,2019_Oct_17_1105,ACPT_experiment_5_30_19,3.1.0,59.942189001384925,
,,,C,G,g,v,,,,,,,,,,6,12,132,4,,,,,,,,,,,,,v,1,4.867099354228685,1842.3094443553955,None,,,,,001,38,2019_Oct_17_1105,ACPT_experiment_5_30_19,3.1.0,59.942189001384925,
,,,C,G,g,v,,,,,,,,,,6,13,133,19,,,,,,,,,,,,,v,1,1.901484341111427,1850.4457678030826,None,,,,,001,38,2019_Oct_17_1105,ACPT_experiment_5_30_19,3.1.0,59.942189001384925,
,,,C,U,y,n,,,,,,,,,,6,14,134,8,,,,,,,,,,,,,n,1,1.3176887831168642,1855.6331603971644,None,,,,,001,38,2019_Oct_17_1105,ACPT_experiment_5_30_19,3.1.0,59.942189001384925,
,,,C,G,d,b,,,,,,,,,,6,15,135,3,,,,,,,,,,,,,b,1,2.017996047432007,1860.253666479211,None,,,,,001,38,2019_Oct_17_1105,ACPT_experiment_5_30_19,3.1.0,59.942189001384925,
,,,C,U,g,n,,,,,,,,,,6,16,136,16,,,,,,,,,,,,,n,1,0.9674243679710344,1865.5575514605089,None,,,,,001,38,2019_Oct_17_1105,ACPT_experiment_5_30_19,3.1.0,59.942189001384925,
,,,C,U,d,n,,,,,,,,,,6,17,137,15,,,,,,,,,,,,,n,1,3.6192506421339203,1869.811135531666,None,,,,,001,38,2019_Oct_17_1105,ACPT_experiment_5_30_19,3.1.0,59.942189001384925,
,,,C,D,g,b,,,,,,,,,,6,18,138,1,,,,,,,,,,,,,b,1,2.335171364982216,1876.716263033226,None,,,,,001,38,2019_Oct_17_1105,ACPT_experiment_5_30_19,3.1.0,59.942189001384925,
,,,C,D,d,v,,,,,,,,,,6,19,139,18,,,,,,,,,,,,,v,1,1.200950077321977,1882.3206210609023,None,,,,,001,38,2019_Oct_17_1105,ACPT_experiment_5_30_19,3.1.0,59.942189001384925,
,,,C,U,d,n,,,,,,,,,,7,0,140,15,,,,,,,,,,,,,n,1,0.9841224130886985,1886.824143326019,None,,,,,001,38,2019_Oct_17_1105,ACPT_experiment_5_30_19,3.1.0,59.942189001384925,
,,,C,G,y,b,,,,,,,,,,7,1,141,14,,,,,,,,,,,,,b,1,0.884034058373345,1891.09413233526,None,,,,,001,38,2019_Oct_17_1105,ACPT_experiment_5_30_19,3.1.0,59.942189001384925,
,,,C,U,g,n,,,,,,,,,,7,2,142,16,,,,,,,,,,,,,n,1,1.2176215586714534,1895.2640565349434,None,,,,,001,38,2019_Oct_17_1105,ACPT_experiment_5_30_19,3.1.0,59.942189001384925,
,,,C,D,d,v,,,,,,,,,,7,3,143,0,,,,,,,,,,,,,b,0,3.7696444349057856,1899.7675353320756,None,,,,,001,38,2019_Oct_17_1105,ACPT_experiment_5_30_19,3.1.0,59.942189001384925,
,,,C,D,y,b,,,,,,,,,,7,4,144,11,,,,,,,,,,,,,b,1,0.8339999933591571,1906.8063800134205,None,,,,,001,38,2019_Oct_17_1105,ACPT_experiment_5_30_19,3.1.0,59.942189001384925,
,,,C,G,g,v,,,,,,,,,,7,5,145,19,,,,,,,,,,,,,v,1,1.3007727943545433,1910.9431948908214,None,,,,,001,38,2019_Oct_17_1105,ACPT_experiment_5_30_19,3.1.0,59.942189001384925,
,,,C,G,g,v,,,,,,,,,,7,6,146,4,,,,,,,,,,,,,v,1,2.9690200052341424,1915.5131498199548,None,,,,,001,38,2019_Oct_17_1105,ACPT_experiment_5_30_19,3.1.0,59.942189001384925,
,,,C,U,y,n,,,,,,,,,,7,7,147,17,,,,,,,,,,,,,n,1,1.1509102769487072,1921.7680497032252,None,,,,,001,38,2019_Oct_17_1105,ACPT_experiment_5_30_19,3.1.0,59.942189001384925,
,,,C,G,d,b,,,,,,,,,,7,8,148,3,,,,,,,,,,,,,b,1,1.8848185951205778,1926.2048413675147,None,,,,,001,38,2019_Oct_17_1105,ACPT_experiment_5_30_19,3.1.0,59.942189001384925,
,,,C,D,g,b,,,,,,,,,,7,9,149,1,,,,,,,,,,,,,b,1,4.570114009882218,1931.3755470853357,None,,,,,001,38,2019_Oct_17_1105,ACPT_experiment_5_30_19,3.1.0,59.942189001384925,
,,,C,U,g,n,,,,,,,,,,7,10,150,7,,,,,,,,,,,,,n,1,0.8840286248755547,1939.2316707734853,None,,,,,001,38,2019_Oct_17_1105,ACPT_experiment_5_30_19,3.1.0,59.942189001384925,
,,,C,D,d,v,,,,,,,,,,7,11,151,18,,,,,,,,,,,,,b,0,1.7342986244498206,1943.4186407621628,None,,,,,001,38,2019_Oct_17_1105,ACPT_experiment_5_30_19,3.1.0,59.942189001384925,
,,,C,U,d,n,,,,,,,,,,7,12,152,6,,,,,,,,,,,,,n,1,1.2843446129732001,1948.4388464321387,None,,,,,001,38,2019_Oct_17_1105,ACPT_experiment_5_30_19,3.1.0,59.942189001384925,
,,,C,G,g,v,,,,,,,,,,7,13,153,13,,,,,,,,,,,,,v,1,1.6176963598277325,1953.0426789198086,None,,,,,001,38,2019_Oct_17_1105,ACPT_experiment_5_30_19,3.1.0,59.942189001384925,
,,,C,U,y,n,,,,,,,,,,7,14,154,8,,,,,,,,,,,,,n,1,1.0007848386085243,1957.9462633079197,None,,,,,001,38,2019_Oct_17_1105,ACPT_experiment_5_30_19,3.1.0,59.942189001384925,
,,,C,G,y,b,,,,,,,,,,7,15,155,5,,,,,,,,,,,,,b,1,2.6518353299929913,1962.2498645398746,None,,,,,001,38,2019_Oct_17_1105,ACPT_experiment_5_30_19,3.1.0,59.942189001384925,
,,,C,D,y,b,,,,,,,,,,7,16,156,2,,,,,,,,,,,,,b,1,1.4845077386594312,1968.1875767292936,None,,,,,001,38,2019_Oct_17_1105,ACPT_experiment_5_30_19,3.1.0,59.942189001384925,
,,,C,G,d,b,,,,,,,,,,7,17,157,12,,,,,,,,,,,,,b,1,6.838693328238151,1972.9579564976034,None,,,,,001,38,2019_Oct_17_1105,ACPT_experiment_5_30_19,3.1.0,59.942189001384925,
,,,C,D,d,v,,,,,,,,,,7,18,158,9,,,,,,,,,,,,,v,1,6.154804887612499,1983.0825405708733,None,,,,,001,38,2019_Oct_17_1105,ACPT_experiment_5_30_19,3.1.0,59.942189001384925,
,,,C,D,g,b,,,,,,,,,,7,19,159,10,,,,,,,,,,,,,b,1,1.351061630055483,1992.5065444974812,None,,,,,001,38,2019_Oct_17_1105,ACPT_experiment_5_30_19,3.1.0,59.942189001384925,
,,,C,U,y,n,,,,,,,,,,8,0,160,17,,,,,,,,,,,,,n,1,0.9671720121723411,1997.1604315767136,None,,,,,001,38,2019_Oct_17_1105,ACPT_experiment_5_30_19,3.1.0,59.942189001384925,
,,,C,U,d,n,,,,,,,,,,8,1,161,15,,,,,,,,,,,,,n,1,0.9841136591198847,2001.3968128911552,None,,,,,001,38,2019_Oct_17_1105,ACPT_experiment_5_30_19,3.1.0,59.942189001384925,
,,,C,U,g,n,,,,,,,,,,8,2,162,16,,,,,,,,,,,,,n,1,5.087057015204664,2005.6670726697162,None,,,,,001,38,2019_Oct_17_1105,ACPT_experiment_5_30_19,3.1.0,59.942189001384925,
,,,C,U,d,n,,,,,,,,,,8,3,163,6,,,,,,,,,,,,,n,1,2.6521079104786622,2014.0400017145703,None,,,,,001,38,2019_Oct_17_1105,ACPT_experiment_5_30_19,3.1.0,59.942189001384925,
,,,C,D,d,v,,,,,,,,,,8,4,164,18,,,,,,,,,,,,,v,1,11.792552062721825,2019.9779641467612,None,,,,,001,38,2019_Oct_17_1105,ACPT_experiment_5_30_19,3.1.0,59.942189001384925,
,,,C,D,y,b,,,,,,,,,,8,5,165,2,,,,,,,,,,,,,b,1,1.3677512230656248,2035.056388239133,None,,,,,001,38,2019_Oct_17_1105,ACPT_experiment_5_30_19,3.1.0,59.942189001384925,
,,,C,G,d,b,,,,,,,,,,8,6,166,12,,,,,,,,,,,,,b,1,11.992575124902942,2039.7268731456302,None,,,,,001,38,2019_Oct_17_1105,ACPT_experiment_5_30_19,3.1.0,59.942189001384925,
,,,C,D,g,b,,,,,,,,,,8,7,167,10,,,,,,,,,,,,,b,1,2.718788402379687,2055.005291019665,None,,,,,001,38,2019_Oct_17_1105,ACPT_experiment_5_30_19,3.1.0,59.942189001384925,
,,,C,G,y,b,,,,,,,,,,8,8,168,14,,,,,,,,,,,,,b,1,1.4011270886139755,2061.009959300081,None,,,,,001,38,2019_Oct_17_1105,ACPT_experiment_5_30_19,3.1.0,59.942189001384925,
,,,C,G,g,v,,,,,,,,,,8,9,169,13,,,,,,,,,,,,,v,1,2.318479960806144,2065.696960833233,None,,,,,001,38,2019_Oct_17_1105,ACPT_experiment_5_30_19,3.1.0,59.942189001384925,
,,,C,U,y,n,,,,,,,,,,8,10,170,8,,,,,,,,,,,,,n,1,1.117544674673809,2071.301323388824,None,,,,,001,38,2019_Oct_17_1105,ACPT_experiment_5_30_19,3.1.0,59.942189001384925,
,,,C,G,g,v,,,,,,,,,,8,11,171,4,,,,,,,,,,,,,v,1,2.3318358008959876,2075.741442165092,None,,,,,001,38,2019_Oct_17_1105,ACPT_experiment_5_30_19,3.1.0,59.942189001384925,
,,,C,G,d,b,,,,,,,,,,8,12,172,3,,,,,,,,,,,,,b,1,7.672667361550793,2081.3424845515083,None,,,,,001,38,2019_Oct_17_1105,ACPT_experiment_5_30_19,3.1.0,59.942189001384925,
,,,C,D,y,b,,,,,,,,,,8,13,173,11,,,,,,,,,,,,,b,1,1.484493853053209,2092.3010426580913,None,,,,,001,38,2019_Oct_17_1105,ACPT_experiment_5_30_19,3.1.0,59.942189001384925,
,,,C,U,g,n,,,,,,,,,,8,14,174,7,,,,,,,,,,,,,n,1,3.269241299535679,2097.071415181737,None,,,,,001,38,2019_Oct_17_1105,ACPT_experiment_5_30_19,3.1.0,59.942189001384925,
,,,C,D,d,v,,,,,,,,,,8,15,175,0,,,,,,,,,,,,,v,1,3.602824271918962,2103.6265273034787,None,,,,,001,38,2019_Oct_17_1105,ACPT_experiment_5_30_19,3.1.0,59.942189001384925,
,,,C,D,d,v,,,,,,,,,,8,16,176,9,,,,,,,,,,,,,v,1,1.6012615375047972,2110.4985521236977,None,,,,,001,38,2019_Oct_17_1105,ACPT_experiment_5_30_19,3.1.0,59.942189001384925,
,,,C,G,y,b,,,,,,,,,,8,17,177,5,,,,,,,,,,,,,b,1,1.734695571668908,2115.3856968597097,None,,,,,001,38,2019_Oct_17_1105,ACPT_experiment_5_30_19,3.1.0,59.942189001384925,
,,,C,G,g,v,,,,,,,,,,8,18,178,19,,,,,,,,,,,,,v,1,2.485287445631002,2120.389595394567,None,,,,,001,38,2019_Oct_17_1105,ACPT_experiment_5_30_19,3.1.0,59.942189001384925,
,,,C,D,g,b,,,,,,,,,,8,19,179,1,,,,,,,,,,,,,b,1,13.243706575408396,2126.1607418898247,None,,,,,001,38,2019_Oct_17_1105,ACPT_experiment_5_30_19,3.1.0,59.942189001384925,
,,,C,G,y,b,,,,,,,,,,9,0,180,5,,,,,,,,,,,,,b,1,1.301017301766933,2142.690339210265,None,,,,,001,38,2019_Oct_17_1105,ACPT_experiment_5_30_19,3.1.0,59.942189001384925,
,,,C,D,y,b,,,,,,,,,,9,1,181,11,,,,,,,,,,,,,b,1,0.9671113381104988,2147.2942251273325,None,,,,,001,38,2019_Oct_17_1105,ACPT_experiment_5_30_19,3.1.0,59.942189001384925,
,,,C,G,d,b,,,,,,,,,,9,2,182,12,,,,,,,,,,,,,b,1,3.8363514905745433,2151.547221475116,None,,,,,001,38,2019_Oct_17_1105,ACPT_experiment_5_30_19,3.1.0,59.942189001384925,
,,,C,U,d,n,,,,,,,,,,9,3,183,15,,,,,,,,,,,,,n,1,1.7013338935871616,2158.669452240005,None,,,,,001,38,2019_Oct_17_1105,ACPT_experiment_5_30_19,3.1.0,59.942189001384925,
,,,C,G,y,b,,,,,,,,,,9,4,184,14,,,,,,,,,,,,,b,1,1.551221133409399,2163.6566723507094,None,,,,,001,38,2019_Oct_17_1105,ACPT_experiment_5_30_19,3.1.0,59.942189001384925,
,,,C,U,g,n,,,,,,,,,,9,5,185,16,,,,,,,,,,,,,n,1,1.3510703840242968,2168.493770947267,None,,,,,001,38,2019_Oct_17_1105,ACPT_experiment_5_30_19,3.1.0,59.942189001384925,
,,,C,G,g,v,,,,,,,,,,9,6,186,19,,,,,,,,,,,,,v,1,2.8684673882958123,2173.1478014104755,None,,,,,001,38,2019_Oct_17_1105,ACPT_experiment_5_30_19,3.1.0,59.942189001384925,
,,,C,D,d,v,,,,,,,,,,9,7,187,9,0,0,0,0,0,0,0,0,,,,,v,1,1.7513776181535832,2179.302209954591,None,,,,,001,38,2019_Oct_17_1105,ACPT_experiment_5_30_19,3.1.0,59.942189001384925,
,,,C,D,d,v,R,D,g,R,i,,,,,9,7,187,9,0,0,0,0,,,,,0,0,0,3,,,,,,up,2.2350543334709982,2345.8487413754538,None,001,38,2019_Oct_17_1105,ACPT_experiment_5_30_19,3.1.0,59.942189001384925,
,,,C,D,d,v,L,G,g,L,c ,,,,,9,7,187,9,0,0,0,0,,,,,0,1,1,18,,,,,,up,1.651293791353055,2349.3681478684234,None,001,38,2019_Oct_17_1105,ACPT_experiment_5_30_19,3.1.0,59.942189001384925,
,,,C,D,d,v,L,G,y,L,y,,,,,9,7,187,9,0,0,0,0,,,,,0,2,2,34,,,,,,down,1.250981425586815,2352.3037645387576,None,001,38,2019_Oct_17_1105,ACPT_experiment_5_30_19,3.1.0,59.942189001384925,
,,,C,D,d,v,R,D,g,L,i,,,,,9,7,187,9,0,0,0,0,,,,,0,3,3,2,,,,,,up,2.3851791680895076,2354.839089973596,None,001,38,2019_Oct_17_1105,ACPT_experiment_5_30_19,3.1.0,59.942189001384925,
,,,C,D,d,v,L,G,y,R,y,,,,,9,7,187,9,0,0,0,0,,,,,0,4,4,35,,,,,,down,0.9340478987001006,2358.5086185844348,None,001,38,2019_Oct_17_1105,ACPT_experiment_5_30_19,3.1.0,59.942189001384925,
,,,C,D,d,v,R,U,y,R,u,,,,,9,7,187,9,0,0,0,0,,,,,0,5,5,31,,,,,,down,1.6846349428865324,2360.7436852942074,None,001,38,2019_Oct_17_1105,ACPT_experiment_5_30_19,3.1.0,59.942189001384925,
,,,C,D,d,v,L,U,d,R,u,,,,,9,7,187,9,0,0,0,0,,,,,0,6,6,21,,,,,,up,1.651286244828043,2363.729344179803,None,001,38,2019_Oct_17_1105,ACPT_experiment_5_30_19,3.1.0,59.942189001384925,
,,,C,D,d,v,R,D,d,R,c ,,,,,9,7,187,9,0,0,0,0,,,,,0,7,7,1,,,,,,down,1.0508170924567821,2366.6649671892183,None,001,38,2019_Oct_17_1105,ACPT_experiment_5_30_19,3.1.0,59.942189001384925,
,,,C,D,d,v,L,D,g,L,i,,,,,9,7,187,9,0,0,0,0,,,,,0,8,8,14,,,,,,up,2.6687591671416158,2369.000107764378,None,001,38,2019_Oct_17_1105,ACPT_experiment_5_30_19,3.1.0,59.942189001384925,
,,,C,D,d,v,R,G,y,L,y,,,,,9,7,187,9,0,0,0,0,,,,,0,9,9,28,,,,,,down,0.9674156140017658,2372.953206110995,None,001,38,2019_Oct_17_1105,ACPT_experiment_5_30_19,3.1.0,59.942189001384925,
,,,C,D,d,v,L,U,y,L,u,,,,,9,7,187,9,0,0,0,0,,,,,0,10,10,24,,,,,,down,0.8173097966273417,2375.204954867252,None,001,38,2019_Oct_17_1105,ACPT_experiment_5_30_19,3.1.0,59.942189001384925,
,,,C,D,d,v,L,D,y,L,y,,,,,9,7,187,9,0,0,0,0,,,,,0,11,11,32,,,,,,down,0.7005424140365903,2377.3065978061345,None,001,38,2019_Oct_17_1105,ACPT_experiment_5_30_19,3.1.0,59.942189001384925,
,,,C,D,d,v,L,U,d,L,u,,,,,9,7,187,9,0,0,0,0,,,,,0,12,12,20,,,,,,up,1.3177168561901453,2379.2914558544885,None,001,38,2019_Oct_17_1105,ACPT_experiment_5_30_19,3.1.0,59.942189001384925,
,,,C,D,d,v,R,G,g,L,c ,,,,,9,7,187,9,0,0,0,0,,,,,0,13,13,6,,,,,,up,3.2024947000754764,2381.893505551073,None,001,38,2019_Oct_17_1105,ACPT_experiment_5_30_19,3.1.0,59.942189001384925,
,,,C,D,d,v,L,U,g,L,u,,,,,9,7,187,9,0,0,0,0,,,,,0,14,14,22,,,,,,up,1.4344830313366401,2386.3803149798823,None,001,38,2019_Oct_17_1105,ACPT_experiment_5_30_19,3.1.0,59.942189001384925,
,,,C,D,d,v,R,U,y,L,u,,,,,9,7,187,9,0,0,0,0,,,,,0,15,15,30,,,,,,down,0.7672488659836745,2389.099141718609,None,001,38,2019_Oct_17_1105,ACPT_experiment_5_30_19,3.1.0,59.942189001384925,
,,,C,D,d,v,L,D,g,R,i,,,,,9,7,187,9,0,0,0,0,,,,,0,16,16,15,,,,,,up,0.9173830582926712,2391.1507204063773,None,001,38,2019_Oct_17_1105,ACPT_experiment_5_30_19,3.1.0,59.942189001384925,
,,,C,D,d,v,L,D,y,R,y,,,,,9,7,187,9,0,0,0,0,,,,,0,17,17,33,,,,,,down,0.8840240969602746,2393.3524341920374,None,001,38,2019_Oct_17_1105,ACPT_experiment_5_30_19,3.1.0,59.942189001384925,
,,,C,D,d,v,R,G,y,R,y,,,,,9,7,187,9,0,0,0,0,,,,,0,18,18,29,,,,,,down,0.7172187251626383,2395.5374774019306,None,001,38,2019_Oct_17_1105,ACPT_experiment_5_30_19,3.1.0,59.942189001384925,
,,,C,D,d,v,R,G,g,R,c ,,,,,9,7,187,9,0,0,0,0,,,,,0,19,19,7,,,,,,up,1.1342055908880866,2397.5557288237715,None,001,38,2019_Oct_17_1105,ACPT_experiment_5_30_19,3.1.0,59.942189001384925,
,,,C,D,d,v,R,U,g,L,u,,,,,9,7,187,9,0,0,0,0,,,,,0,20,20,10,,,,,,up,0.7839538539046771,2399.974266953193,None,001,38,2019_Oct_17_1105,ACPT_experiment_5_30_19,3.1.0,59.942189001384925,
,,,C,D,d,v,R,D,d,L,c,,,,,9,7,187,9,0,0,0,0,,,,,0,21,21,0,,,,,,up,0.7506120986490714,2402.0425204427816,None,001,38,2019_Oct_17_1105,ACPT_experiment_5_30_19,3.1.0,59.942189001384925,
,,,C,D,d,v,L,G,d,L,i,,,,,9,7,187,9,0,0,0,0,,,,,0,22,22,16,,,,,,down,0.7339016772302784,2404.0774705134622,None,001,38,2019_Oct_17_1105,ACPT_experiment_5_30_19,3.1.0,59.942189001384925,
,,,C,D,d,v,L,G,d,R,i,,,,,9,7,187,9,0,0,0,0,,,,,0,23,23,17,,,,,,up,1.2509705585907795,2406.095709559002,None,001,38,2019_Oct_17_1105,ACPT_experiment_5_30_19,3.1.0,59.942189001384925,
,,,C,D,d,v,R,U,d,R,u,,,,,9,7,187,9,0,0,0,0,,,,,0,24,24,9,,,,,,up,1.1507825897438124,2408.6310174859022,None,001,38,2019_Oct_17_1105,ACPT_experiment_5_30_19,3.1.0,59.942189001384925,
,,,C,D,d,v,L,D,d,L,c ,,,,,9,7,187,9,0,0,0,0,,,,,0,25,25,12,,,,,,up,0.6838543303319966,2411.066256980913,None,001,38,2019_Oct_17_1105,ACPT_experiment_5_30_19,3.1.0,59.942189001384925,
,,,C,D,d,v,R,D,y,L,y,,,,,9,7,187,9,0,0,0,0,,,,,0,26,26,26,,,,,,down,0.833969203536526,2413.0344601502725,None,001,38,2019_Oct_17_1105,ACPT_experiment_5_30_19,3.1.0,59.942189001384925,
,,,C,D,d,v,L,U,g,R,u,,,,,9,7,187,9,0,0,0,0,,,,,0,27,27,23,,,,,,up,0.6838848182933361,2415.152747101153,None,001,38,2019_Oct_17_1105,ACPT_experiment_5_30_19,3.1.0,59.942189001384925,
,,,C,D,d,v,R,G,d,R,i,,,,,9,7,187,9,0,0,0,0,,,,,0,28,28,5,,,,,,up,0.7005345656507416,2417.120982267779,None,001,38,2019_Oct_17_1105,ACPT_experiment_5_30_19,3.1.0,59.942189001384925,
,,,C,D,d,v,L,G,g,R,c ,,,,,9,7,187,9,0,0,0,0,,,,,0,29,29,19,,,,,,up,0.7839607967075608,2419.105834278913,None,001,38,2019_Oct_17_1105,ACPT_experiment_5_30_19,3.1.0,59.942189001384925,
,,,C,D,d,v,R,D,y,R,y,,,,,9,7,187,9,0,0,0,0,,,,,0,30,30,27,,,,,,down,1.2509584841504875,2421.1908202257737,None,001,38,2019_Oct_17_1105,ACPT_experiment_5_30_19,3.1.0,59.942189001384925,
,,,C,D,d,v,R,G,d,L,i,,,,,9,7,187,9,0,0,0,0,,,,,0,31,31,4,,,,,,down,0.967440668465315,2423.742777296309,None,001,38,2019_Oct_17_1105,ACPT_experiment_5_30_19,3.1.0,59.942189001384925,
,,,C,D,d,v,R,U,g,R,u,,,,,9,7,187,9,0,0,0,0,,,,,0,32,32,11,,,,,,up,2.0182417622886533,2425.994550503308,None,001,38,2019_Oct_17_1105,ACPT_experiment_5_30_19,3.1.0,59.942189001384925,
,,,C,D,d,v,L,D,d,R,c ,,,,,9,7,187,9,0,0,0,0,,,,,0,33,33,13,,,,,,up,1.434467032703651,2429.297110616663,None,001,38,2019_Oct_17_1105,ACPT_experiment_5_30_19,3.1.0,59.942189001384925,
,,,C,D,d,v,R,U,d,L,u,,,,,9,7,187,9,0,0,0,0,,,,,0,34,34,8,,,,,,up,1.234326546592456,2431.9992067092835,None,001,38,2019_Oct_17_1105,ACPT_experiment_5_30_19,3.1.0,59.942189001384925,
,,,C,D,d,v,L,U,y,R,u,,,,,9,7,187,9,0,0,0,0,,,,,0,35,35,25,,,,,,down,0.9340629917505794,2434.534546331589,None,001,38,2019_Oct_17_1105,ACPT_experiment_5_30_19,3.1.0,59.942189001384925,
,,,C,D,d,v,L,U,y,R,u,,,,,9,7,187,9,0,0,0,0,,,,,1,0,36,25,,,,,,down,1.8180680714672235,2436.7696347753536,None,001,38,2019_Oct_17_1105,ACPT_experiment_5_30_19,3.1.0,59.942189001384925,
,,,C,D,d,v,R,U,g,R,u,,,,,9,7,187,9,0,0,0,0,,,,,1,1,37,11,,,,,,up,1.5011867665343743,2439.872024518358,None,001,38,2019_Oct_17_1105,ACPT_experiment_5_30_19,3.1.0,59.942189001384925,
,,,C,D,d,v,L,G,g,R,c ,,,,,9,7,187,9,0,0,0,0,,,,,1,2,38,19,,,,,,up,0.9006985969199377,2442.6575444271475,None,001,38,2019_Oct_17_1105,ACPT_experiment_5_30_19,3.1.0,59.942189001384925,
,,,C,D,d,v,L,D,g,R,i,,,,,9,7,187,9,0,0,0,0,,,,,1,3,39,15,,,,,,up,0.9007013136688329,2444.84258129796,None,001,38,2019_Oct_17_1105,ACPT_experiment_5_30_19,3.1.0,59.942189001384925,
,,,C,D,d,v,R,D,y,R,y,,,,,9,7,187,9,0,0,0,0,,,,,1,4,40,27,,,,,,down,1.1675757210778102,2447.027616961328,None,001,38,2019_Oct_17_1105,ACPT_experiment_5_30_19,3.1.0,59.942189001384925,
,,,C,D,d,v,R,U,y,L,u,,,,,9,7,187,9,0,0,0,0,,,,,1,5,41,30,,,,,,down,0.9674174251676959,2449.4795309562987,None,001,38,2019_Oct_17_1105,ACPT_experiment_5_30_19,3.1.0,59.942189001384925,
,,,C,D,d,v,R,D,g,L,i,,,,,9,7,187,9,0,0,0,0,,,,,1,6,42,2,,,,,,up,0.7672648646166635,2451.7312854479146,None,001,38,2019_Oct_17_1105,ACPT_experiment_5_30_19,3.1.0,59.942189001384925,
,,,C,D,d,v,R,U,y,R,u,,,,,9,7,187,9,0,0,0,0,,,,,1,7,43,31,,,,,,down,0.817295609159828,2453.799566406855,None,001,38,2019_Oct_17_1105,ACPT_experiment_5_30_19,3.1.0,59.942189001384925,
,,,C,D,d,v,L,D,d,R,c ,,,,,9,7,187,9,0,0,0,0,,,,,1,8,44,13,,,,,,down,1.7013188005371376,2455.917882940114,None,001,38,2019_Oct_17_1105,ACPT_experiment_5_30_19,3.1.0,59.942189001384925,
,,,C,D,d,v,L,G,g,L,c ,,,,,9,7,187,9,0,0,0,0,,,,,1,9,45,18,,,,,,up,2.235090858652711,2458.9035294494083,None,001,38,2019_Oct_17_1105,ACPT_experiment_5_30_19,3.1.0,59.942189001384925,
,,,C,D,d,v,L,G,d,L,i,,,,,9,7,187,9,0,0,0,0,,,,,1,10,46,16,,,,,,up,0.7672675813655587,2462.4229525447336,None,001,38,2019_Oct_17_1105,ACPT_experiment_5_30_19,3.1.0,59.942189001384925,
,,,C,D,d,v,L,D,y,R,y,,,,,9,7,187,9,0,0,0,0,,,,,1,11,47,33,,,,,,down,0.8006244296711884,2464.4745505516057,None,001,38,2019_Oct_17_1105,ACPT_experiment_5_30_19,3.1.0,59.942189001384925,
,,,C,D,d,v,R,U,g,L,u,,,,,9,7,187,9,0,0,0,0,,,,,1,12,48,10,,,,,,up,3.4526870609997786,2466.5595129533085,None,001,38,2019_Oct_17_1105,ACPT_experiment_5_30_19,3.1.0,59.942189001384925,
,,,C,D,d,v,R,G,y,R,y,,,,,9,7,187,9,0,0,0,0,,,,,1,13,49,29,,,,,,down,0.7839460055188283,2471.2965376844786,None,001,38,2019_Oct_17_1105,ACPT_experiment_5_30_19,3.1.0,59.942189001384925,
,,,C,D,d,v,R,G,y,L,y,,,,,9,7,187,9,0,0,0,0,,,,,1,14,50,28,,,,,,down,0.8007804918097463,2473.347985968293,None,001,38,2019_Oct_17_1105,ACPT_experiment_5_30_19,3.1.0,59.942189001384925,
,,,C,D,d,v,R,G,g,L,c ,,,,,9,7,187,9,0,0,0,0,,,,,1,15,51,6,,,,,,up,1.2176390666095358,2475.4163928032713,None,001,38,2019_Oct_17_1105,ACPT_experiment_5_30_19,3.1.0,59.942189001384925,
,,,C,D,d,v,R,G,g,R,c ,,,,,9,7,187,9,0,0,0,0,,,,,1,16,52,7,,,,,,up,0.684014618524543,2477.9015377705086,None,001,38,2019_Oct_17_1105,ACPT_experiment_5_30_19,3.1.0,59.942189001384925,
,,,C,D,d,v,L,G,d,R,i,,,,,9,7,187,9,0,0,0,0,,,,,1,17,53,17,,,,,,up,1.81806746774555,2479.869905755976,None,001,38,2019_Oct_17_1105,ACPT_experiment_5_30_19,3.1.0,59.942189001384925,
,,,C,D,d,v,L,U,y,L,u,,,,,9,7,187,9,0,0,0,0,,,,,1,18,54,24,,,,,,down,1.5512141906065153,2482.972302743645,None,001,38,2019_Oct_17_1105,ACPT_experiment_5_30_19,3.1.0,59.942189001384925,
,,,C,D,d,v,L,U,d,R,u,,,,,9,7,187,9,0,0,0,0,,,,,1,19,55,21,,,,,,down,1.200933474966405,2485.8078524913944,None,001,38,2019_Oct_17_1105,ACPT_experiment_5_30_19,3.1.0,59.942189001384925,
,,,C,D,d,v,L,U,d,L,u,,,,,9,7,187,9,0,0,0,0,,,,,1,20,56,20,,,,,,down,0.7839432887694784,2488.2931203160606,None,001,38,2019_Oct_17_1105,ACPT_experiment_5_30_19,3.1.0,59.942189001384925,
,,,C,D,d,v,L,D,g,L,i,,,,,9,7,187,9,0,0,0,0,,,,,1,21,57,14,,,,,,up,0.6671967345887424,2490.361388294977,None,001,38,2019_Oct_17_1105,ACPT_experiment_5_30_19,3.1.0,59.942189001384925,
,,,C,D,d,v,R,G,d,L,i,,,,,9,7,187,9,0,0,0,0,,,,,1,22,58,4,,,,,,up,1.5345264087627584,2492.312924812763,None,001,38,2019_Oct_17_1105,ACPT_experiment_5_30_19,3.1.0,59.942189001384925,
,,,C,D,d,v,L,G,y,L,y,,,,,9,7,187,9,0,0,0,0,,,,,1,23,59,34,,,,,,down,5.220734953059036,2495.1317867786693,None,001,38,2019_Oct_17_1105,ACPT_experiment_5_30_19,3.1.0,59.942189001384925,
,,,C,D,d,v,R,U,d,R,u,,,,,9,7,187,9,0,0,0,0,,,,,1,24,60,9,,,,,,up,2.0682933352409236,2501.6368373660453,None,001,38,2019_Oct_17_1105,ACPT_experiment_5_30_19,3.1.0,59.942189001384925,
,,,C,D,d,v,L,G,y,R,y,,,,,9,7,187,9,0,0,0,0,,,,,1,25,61,35,,,,,,down,1.1842327130993908,2505.006167624019,None,001,38,2019_Oct_17_1105,ACPT_experiment_5_30_19,3.1.0,59.942189001384925,
,,,C,D,d,v,L,D,y,L,y,,,,,9,7,187,9,0,0,0,0,,,,,1,26,62,32,,,,,,down,1.317686971950934,2507.4914272984374,None,001,38,2019_Oct_17_1105,ACPT_experiment_5_30_19,3.1.0,59.942189001384925,
,,,C,D,d,v,R,U,d,L,u,,,,,9,7,187,9,0,0,0,0,,,,,1,27,63,8,,,,,,up,3.0023433469687006,2510.0934522424195,None,001,38,2019_Oct_17_1105,ACPT_experiment_5_30_19,3.1.0,59.942189001384925,
,,,C,D,d,v,R,G,d,R,i,,,,,9,7,187,9,0,0,0,0,,,,,1,28,64,5,,,,,,up,0.8840123243808193,2514.3801380893347,None,001,38,2019_Oct_17_1105,ACPT_experiment_5_30_19,3.1.0,59.942189001384925,
,,,C,D,d,v,L,U,g,R,u,,,,,9,7,187,9,0,0,0,0,,,,,1,29,65,23,,,,,,up,1.0174617534562458,2516.5484865745807,None,001,38,2019_Oct_17_1105,ACPT_experiment_5_30_19,3.1.0,59.942189001384925,
,,,C,D,d,v,L,U,g,L,u,,,,,9,7,187,9,0,0,0,0,,,,,1,30,66,22,,,,,,up,0.8173276064262609,2518.8502763386555,None,001,38,2019_Oct_17_1105,ACPT_experiment_5_30_19,3.1.0,59.942189001384925,
,,,C,D,d,v,R,D,g,R,i,,,,,9,7,187,9,0,0,0,0,,,,,1,31,67,3,,,,,,up,0.6671840564263221,2520.935236929192,None,001,38,2019_Oct_17_1105,ACPT_experiment_5_30_19,3.1.0,59.942189001384925,
,,,C,D,d,v,R,D,d,R,c ,,,,,9,7,187,9,0,0,0,0,,,,,1,32,68,1,,,,,,up,1.0341444036630492,2522.8867725413947,None,001,38,2019_Oct_17_1105,ACPT_experiment_5_30_19,3.1.0,59.942189001384925,
,,,C,D,d,v,L,D,d,L,c ,,,,,9,7,187,9,0,0,0,0,,,,,1,33,69,12,,,,,,up,0.8840503588676256,2525.20521295841,None,001,38,2019_Oct_17_1105,ACPT_experiment_5_30_19,3.1.0,59.942189001384925,
,,,C,D,d,v,R,D,y,L,y,,,,,9,7,187,9,0,0,0,0,,,,,1,34,70,26,,,,,,down,1.0841724314568637,2527.3735997800036,None,001,38,2019_Oct_17_1105,ACPT_experiment_5_30_19,3.1.0,59.942189001384925,
,,,C,D,d,v,R,D,d,L,c,,,,,9,7,187,9,0,0,0,0,,,,,1,35,71,0,,,,,,up,1.1675711931629849,2529.7421132021022,None,001,38,2019_Oct_17_1105,ACPT_experiment_5_30_19,3.1.0,59.942189001384925,
,,,C,D,d,v,,,,,,,,,,9,7,187,9,1,0,1,0,0,0,0,0,,,,,,,,,,,,,,001,38,2019_Oct_17_1105,ACPT_experiment_5_30_19,3.1.0,59.942189001384925,
,,,C,D,d,v,R,U,d,L,u,,,,,9,7,187,9,1,0,1,0,,,,,0,0,0,8,,,,,,down,1.034165232072155,2641.312444551907,None,001,38,2019_Oct_17_1105,ACPT_experiment_5_30_19,3.1.0,59.942189001384925,
,,,C,D,d,v,L,U,y,L,u,,,,,9,7,187,9,1,0,1,0,,,,,0,1,1,24,,,,,,down,0.8339746370347711,2643.630919381076,None,001,38,2019_Oct_17_1105,ACPT_experiment_5_30_19,3.1.0,59.942189001384925,
,,,C,D,d,v,R,G,g,R,c ,,,,,9,7,187,9,1,0,1,0,,,,,0,2,2,7,,,,,,up,3.1524615406442535,2645.749222934312,None,001,38,2019_Oct_17_1105,ACPT_experiment_5_30_19,3.1.0,59.942189001384925,
,,,C,D,d,v,L,D,d,L,c ,,,,,9,7,187,9,1,0,1,0,,,,,0,3,3,12,,,,,,up,0.8840467365353106,2650.1859952794975,None,001,38,2019_Oct_17_1105,ACPT_experiment_5_30_19,3.1.0,59.942189001384925,
,,,C,D,d,v,R,D,y,L,y,,,,,9,7,187,9,1,0,1,0,,,,,0,4,4,26,,,,,,down,1.7013338935876163,2652.3543727434003,None,001,38,2019_Oct_17_1105,ACPT_experiment_5_30_19,3.1.0,59.942189001384925,
,,,C,D,d,v,R,D,d,R,c ,,,,,9,7,187,9,1,0,1,0,,,,,0,5,5,1,,,,,,up,0.9507489624284062,2655.3400301196907,None,001,38,2019_Oct_17_1105,ACPT_experiment_5_30_19,3.1.0,59.942189001384925,
,,,C,D,d,v,R,D,d,L,c,,,,,9,7,187,9,1,0,1,0,,,,,0,6,6,0,,,,,,down,0.733906808867232,2657.5584313853337,None,001,38,2019_Oct_17_1105,ACPT_experiment_5_30_19,3.1.0,59.942189001384925,
,,,C,D,d,v,R,G,g,L,c ,,,,,9,7,187,9,1,0,1,0,,,,,0,7,7,6,,,,,,up,1.651288961577393,2659.576668619707,None,001,38,2019_Oct_17_1105,ACPT_experiment_5_30_19,3.1.0,59.942189001384925,
,,,C,D,d,v,R,D,g,R,i,,,,,9,7,187,9,1,0,1,0,,,,,0,8,8,3,,,,,,up,0.8506708709865052,2662.4956098844987,None,001,38,2019_Oct_17_1105,ACPT_experiment_5_30_19,3.1.0,59.942189001384925,
,,,C,D,d,v,L,D,d,R,c ,,,,,9,7,187,9,1,0,1,0,,,,,0,9,9,13,,,,,,up,0.8673284667302141,2664.630621746127,None,001,38,2019_Oct_17_1105,ACPT_experiment_5_30_19,3.1.0,59.942189001384925,
,,,C,D,d,v,L,U,g,R,u,,,,,9,7,187,9,1,0,1,0,,,,,0,10,10,23,,,,,,up,1.017460546012444,2666.7822845625565,None,001,38,2019_Oct_17_1105,ACPT_experiment_5_30_19,3.1.0,59.942189001384925,
,,,C,D,d,v,R,U,y,L,u,,,,,9,7,187,9,1,0,1,0,,,,,0,11,11,30,,,,,,down,0.8840358695392752,2669.084062855913,None,001,38,2019_Oct_17_1105,ACPT_experiment_5_30_19,3.1.0,59.942189001384925,
,,,C,D,d,v,L,G,y,L,y,,,,,9,7,187,9,1,0,1,0,,,,,0,12,12,34,,,,,,down,0.817291684967131,2671.2691256867715,None,001,38,2019_Oct_17_1105,ACPT_experiment_5_30_19,3.1.0,59.942189001384925,
,,,C,D,d,v,R,D,y,R,y,,,,,9,7,187,9,1,0,1,0,,,,,0,13,13,27,,,,,,down,0.9340587656961361,2673.3874398051425,None,001,38,2019_Oct_17_1105,ACPT_experiment_5_30_19,3.1.0,59.942189001384925,
,,,C,D,d,v,L,U,y,R,u,,,,,9,7,187,9,1,0,1,0,,,,,0,14,14,25,,,,,,down,1.0675057798835041,2675.6058299019282,None,001,38,2019_Oct_17_1105,ACPT_experiment_5_30_19,3.1.0,59.942189001384925,
,,,C,D,d,v,L,U,d,R,u,,,,,9,7,187,9,1,0,1,0,,,,,0,15,15,21,,,,,,up,3.8696672857836347,2677.9576787854803,None,001,38,2019_Oct_17_1105,ACPT_experiment_5_30_19,3.1.0,59.942189001384925,
,,,C,D,d,v,R,D,g,L,i,,,,,9,7,187,9,1,0,1,0,,,,,0,16,16,2,,,,,,up,2.13501638954358,2683.111671365133,None,001,38,2019_Oct_17_1105,ACPT_experiment_5_30_19,3.1.0,59.942189001384925,
,,,C,D,d,v,R,U,g,L,u,,,,,9,7,187,9,1,0,1,0,,,,,0,17,17,10,,,,,,up,11.792526102675765,2686.5310208969318,None,001,38,2019_Oct_17_1105,ACPT_experiment_5_30_19,3.1.0,59.942189001384925,
,,,C,D,d,v,L,U,g,L,u,,,,,9,7,187,9,1,0,1,0,,,,,0,18,18,22,,,,,,up,0.6004507388502134,2699.607896442357,None,001,38,2019_Oct_17_1105,ACPT_experiment_5_30_19,3.1.0,59.942189001384925,
,,,C,D,d,v,R,U,d,R,u,,,,,9,7,187,9,1,0,1,0,,,,,0,19,19,9,,,,,,up,3.853002747237042,2701.492682134628,None,001,38,2019_Oct_17_1105,ACPT_experiment_5_30_19,3.1.0,59.942189001384925,
,,,C,D,d,v,L,G,g,L,c ,,,,,9,7,187,9,1,0,1,0,,,,,0,20,20,18,,,,,,up,3.4193163270883815,2706.6300310041433,None,001,38,2019_Oct_17_1105,ACPT_experiment_5_30_19,3.1.0,59.942189001384925,
,,,C,D,d,v,R,G,y,L,y,,,,,9,7,187,9,1,0,1,0,,,,,0,21,21,28,,,,,,down,3.2191740298112563,2711.3336937553713,None,001,38,2019_Oct_17_1105,ACPT_experiment_5_30_19,3.1.0,59.942189001384925,
,,,C,D,d,v,R,U,g,R,u,,,,,9,7,187,9,1,0,1,0,,,,,0,22,22,11,,,,,,up,1.4177695913072057,2715.8371979088274,None,001,38,2019_Oct_17_1105,ACPT_experiment_5_30_19,3.1.0,59.942189001384925,
,,,C,D,d,v,L,U,d,L,u,,,,,9,7,187,9,1,0,1,0,,,,,0,23,23,20,,,,,,up,0.6838697252433121,2718.539302151695,None,001,38,2019_Oct_17_1105,ACPT_experiment_5_30_19,3.1.0,59.942189001384925,
,,,C,D,d,v,L,G,d,R,i,,,,,9,7,187,9,1,0,1,0,,,,,0,24,24,17,,,,,,up,0.5337454943473858,2720.490825387597,None,001,38,2019_Oct_17_1105,ACPT_experiment_5_30_19,3.1.0,59.942189001384925,
,,,C,D,d,v,L,D,g,L,i,,,,,9,7,187,9,1,0,1,0,,,,,0,25,25,14,,,,,,up,1.2009310600783465,2722.3089151930567,None,001,38,2019_Oct_17_1105,ACPT_experiment_5_30_19,3.1.0,59.942189001384925,
,,,C,D,d,v,L,G,g,R,c ,,,,,9,7,187,9,1,0,1,0,,,,,0,26,26,19,,,,,,up,2.3185702172463607,2724.794176678641,None,001,38,2019_Oct_17_1105,ACPT_experiment_5_30_19,3.1.0,59.942189001384925,
,,,C,D,d,v,L,G,y,R,y,,,,,9,7,187,9,1,0,1,0,,,,,0,27,27,35,,,,,,down,3.6194664727513555,2728.397004572892,None,001,38,2019_Oct_17_1105,ACPT_experiment_5_30_19,3.1.0,59.942189001384925,
,,,C,D,d,v,R,G,y,R,y,,,,,9,7,187,9,1,0,1,0,,,,,0,28,28,29,,,,,,down,0.8506732858750183,2733.3007957357904,None,001,38,2019_Oct_17_1105,ACPT_experiment_5_30_19,3.1.0,59.942189001384925,
,,,C,D,d,v,R,G,d,L,i,,,,,9,7,187,9,1,0,1,0,,,,,0,29,29,4,,,,,,up,1.0673847336215658,2735.4524875308766,None,001,38,2019_Oct_17_1105,ACPT_experiment_5_30_19,3.1.0,59.942189001384925,
,,,C,D,d,v,L,D,g,R,i,,,,,9,7,187,9,1,0,1,0,,,,,0,30,30,15,,,,,,up,1.3010112645470144,2737.8043267548765,None,001,38,2019_Oct_17_1105,ACPT_experiment_5_30_19,3.1.0,59.942189001384925,
,,,C,D,d,v,L,G,d,L,i,,,,,9,7,187,9,1,0,1,0,,,,,0,31,31,16,,,,,,down,1.184279501555011,2740.3896488239643,None,001,38,2019_Oct_17_1105,ACPT_experiment_5_30_19,3.1.0,59.942189001384925,
,,,C,D,d,v,R,G,d,R,i,,,,,9,7,187,9,1,0,1,0,,,,,0,32,32,5,,,,,,up,2.5853558775202146,2742.8582542231106,None,001,38,2019_Oct_17_1105,ACPT_experiment_5_30_19,3.1.0,59.942189001384925,
,,,C,D,d,v,L,D,y,R,y,,,,,9,7,187,9,1,0,1,0,,,,,0,33,33,33,,,,,,down,0.9007194253290436,2746.7279293572806,None,001,38,2019_Oct_17_1105,ACPT_experiment_5_30_19,3.1.0,59.942189001384925,
,,,C,D,d,v,L,D,y,L,y,,,,,9,7,187,9,1,0,1,0,,,,,0,34,34,32,,,,,,down,5.671235031089964,2748.9128318999465,None,001,38,2019_Oct_17_1105,ACPT_experiment_5_30_19,3.1.0,59.942189001384925,
,,,C,D,d,v,R,U,y,R,u,,,,,9,7,187,9,1,0,1,0,,,,,0,35,35,31,,,,,,down,1.050693027584657,2755.868419090535,None,001,38,2019_Oct_17_1105,ACPT_experiment_5_30_19,3.1.0,59.942189001384925,
,,,C,D,d,v,R,D,y,L,y,,,,,9,7,187,9,1,0,1,0,,,,,1,0,36,26,,,,,,down,0.8339827872819114,2758.2035596656947,None,001,38,2019_Oct_17_1105,ACPT_experiment_5_30_19,3.1.0,59.942189001384925,
,,,C,D,d,v,R,G,y,L,y,,,,,9,7,187,9,1,0,1,0,,,,,1,1,37,28,,,,,,down,1.1008484407216201,2760.3218843492014,None,001,38,2019_Oct_17_1105,ACPT_experiment_5_30_19,3.1.0,59.942189001384925,
,,,C,D,d,v,L,U,y,R,u,,,,,9,7,187,9,1,0,1,0,,,,,1,2,38,25,,,,,,down,0.7172292902973822,2762.7070686489274,None,001,38,2019_Oct_17_1105,ACPT_experiment_5_30_19,3.1.0,59.942189001384925,
,,,C,D,d,v,L,D,d,L,c ,,,,,9,7,187,9,1,0,1,0,,,,,1,3,39,12,,,,,,down,0.8173001370751081,2764.7086350056734,None,001,38,2019_Oct_17_1105,ACPT_experiment_5_30_19,3.1.0,59.942189001384925,
,,,C,D,d,v,L,U,y,L,u,,,,,9,7,187,9,1,0,1,0,,,,,1,4,40,24,,,,,,down,0.8172950054376997,2766.810273416641,None,001,38,2019_Oct_17_1105,ACPT_experiment_5_30_19,3.1.0,59.942189001384925,
,,,C,D,d,v,L,U,g,R,u,,,,,9,7,187,9,1,0,1,0,,,,,1,5,41,23,,,,,,up,1.0675178543233415,2768.911907601554,None,001,38,2019_Oct_17_1105,ACPT_experiment_5_30_19,3.1.0,59.942189001384925,
,,,C,D,d,v,L,D,g,L,i,,,,,9,7,187,9,1,0,1,0,,,,,1,6,42,14,,,,,,up,0.9841184888960015,2771.2470427432163,None,001,38,2019_Oct_17_1105,ACPT_experiment_5_30_19,3.1.0,59.942189001384925,
,,,C,D,d,v,L,U,g,L,u,,,,,9,7,187,9,1,0,1,0,,,,,1,7,43,22,,,,,,up,0.7339451452144203,2773.5154940725065,None,001,38,2019_Oct_17_1105,ACPT_experiment_5_30_19,3.1.0,59.942189001384925,
,,,C,D,d,v,L,G,g,R,c ,,,,,9,7,187,9,1,0,1,0,,,,,1,8,44,19,,,,,,up,1.0174813744215498,2775.533713497081,None,001,38,2019_Oct_17_1105,ACPT_experiment_5_30_19,3.1.0,59.942189001384925,
,,,C,D,d,v,L,U,d,L,u,,,,,9,7,187,9,1,0,1,0,,,,,1,9,45,20,,,,,,up,0.9507468494011846,2777.8355307305064,None,001,38,2019_Oct_17_1105,ACPT_experiment_5_30_19,3.1.0,59.942189001384925,
,,,C,D,d,v,R,U,d,R,u,,,,,9,7,187,9,1,0,1,0,,,,,1,10,46,9,,,,,,up,0.7672539976210828,2780.0706212872983,None,001,38,2019_Oct_17_1105,ACPT_experiment_5_30_19,3.1.0,59.942189001384925,
,,,C,D,d,v,L,G,y,R,y,,,,,9,7,187,9,1,0,1,0,,,,,1,11,47,35,,,,,,down,0.8673453709461683,2782.138885342022,None,001,38,2019_Oct_17_1105,ACPT_experiment_5_30_19,3.1.0,59.942189001384925,
,,,C,D,d,v,R,D,d,R,c ,,,,,9,7,187,9,1,0,1,0,,,,,1,12,48,1,,,,,,up,0.750568932526221,2784.3239261370272,None,001,38,2019_Oct_17_1105,ACPT_experiment_5_30_19,3.1.0,59.942189001384925,
,,,C,D,d,v,R,G,d,R,i,,,,,9,7,187,9,1,0,1,0,,,,,1,13,49,5,,,,,,up,1.1674927093022234,2786.358894319368,None,001,38,2019_Oct_17_1105,ACPT_experiment_5_30_19,3.1.0,59.942189001384925,
,,,C,D,d,v,L,G,g,L,c ,,,,,9,7,187,9,1,0,1,0,,,,,1,14,50,18,,,,,,up,1.0341299143351534,2788.827447798422,None,001,38,2019_Oct_17_1105,ACPT_experiment_5_30_19,3.1.0,59.942189001384925,
,,,C,D,d,v,L,D,d,R,c ,,,,,9,7,187,9,1,0,1,0,,,,,1,15,51,13,,,,,,up,0.5504320687468862,2791.145905119653,None,001,38,2019_Oct_17_1105,ACPT_experiment_5_30_19,3.1.0,59.942189001384925,
,,,C,D,d,v,R,G,g,L,c ,,,,,9,7,187,9,1,0,1,0,,,,,1,16,52,6,,,,,,up,1.2509938018879438,2792.98065070969,None,001,38,2019_Oct_17_1105,ACPT_experiment_5_30_19,3.1.0,59.942189001384925,
,,,C,D,d,v,R,U,g,L,u,,,,,9,7,187,9,1,0,1,0,,,,,1,17,53,10,,,,,,up,0.4670157991031374,2795.515993048745,None,001,38,2019_Oct_17_1105,ACPT_experiment_5_30_19,3.1.0,59.942189001384925,
,,,C,D,d,v,L,U,d,R,u,,,,,9,7,187,9,1,0,1,0,,,,,1,18,54,21,,,,,,down,1.4177843824968477,2797.267331424968,None,001,38,2019_Oct_17_1105,ACPT_experiment_5_30_19,3.1.0,59.942189001384925,
,,,C,D,d,v,R,D,g,R,i,,,,,9,7,187,9,1,0,1,0,,,,,1,19,55,3,,,,,,up,1.6179324151321453,2799.969449251581,None,001,38,2019_Oct_17_1105,ACPT_experiment_5_30_19,3.1.0,59.942189001384925,
,,,C,D,d,v,R,U,y,R,u,,,,,9,7,187,9,1,0,1,0,,,,,1,20,56,31,,,,,,down,0.7672648646171183,2802.87171511083,None,001,38,2019_Oct_17_1105,ACPT_experiment_5_30_19,3.1.0,59.942189001384925,
,,,C,D,d,v,L,D,y,R,y,,,,,9,7,187,9,1,0,1,0,,,,,1,21,57,33,,,,,,down,1.2343186982061525,2804.9232919874316,None,001,38,2019_Oct_17_1105,ACPT_experiment_5_30_19,3.1.0,59.942189001384925,
,,,C,D,d,v,L,G,d,R,i,,,,,9,7,187,9,1,0,1,0,,,,,1,22,58,17,,,,,,up,1.3177334585452627,2807.44192179204,None,001,38,2019_Oct_17_1105,ACPT_experiment_5_30_19,3.1.0,59.942189001384925,
,,,C,D,d,v,L,G,d,L,i,,,,,9,7,187,9,1,0,1,0,,,,,1,23,59,16,,,,,,up,2.7688677465444016,2810.0272707267573,None,001,38,2019_Oct_17_1105,ACPT_experiment_5_30_19,3.1.0,59.942189001384925,
,,,C,D,d,v,R,G,g,R,c ,,,,,9,7,187,9,1,0,1,0,,,,,1,24,60,7,,,,,,up,2.20173642523514,2814.0804655783368,None,001,38,2019_Oct_17_1105,ACPT_experiment_5_30_19,3.1.0,59.942189001384925,
,,,C,D,d,v,L,D,y,L,y,,,,,9,7,187,9,1,0,1,0,,,,,1,25,61,32,,,,,,down,3.152466974142044,2817.566501035534,None,001,38,2019_Oct_17_1105,ACPT_experiment_5_30_19,3.1.0,59.942189001384925,
,,,C,D,d,v,R,U,y,L,u,,,,,9,7,187,9,1,0,1,0,,,,,1,26,62,30,,,,,,down,0.6337933996883294,2822.003322584063,None,001,38,2019_Oct_17_1105,ACPT_experiment_5_30_19,3.1.0,59.942189001384925,
,,,C,D,d,v,R,G,y,R,y,,,,,9,7,187,9,1,0,1,0,,,,,1,27,63,29,,,,,,down,0.6672036773916261,2823.904780059545,None,001,38,2019_Oct_17_1105,ACPT_experiment_5_30_19,3.1.0,59.942189001384925,
,,,C,D,d,v,R,U,g,R,u,,,,,9,7,187,9,1,0,1,0,,,,,1,28,64,11,,,,,,up,0.6671725857081583,2825.856306314057,None,001,38,2019_Oct_17_1105,ACPT_experiment_5_30_19,3.1.0,59.942189001384925,
,,,C,D,d,v,L,G,y,L,y,,,,,9,7,187,9,1,0,1,0,,,,,1,29,65,34,,,,,,down,0.7839620041518174,2827.807800269441,None,001,38,2019_Oct_17_1105,ACPT_experiment_5_30_19,3.1.0,59.942189001384925,
,,,C,D,d,v,R,D,d,L,c,,,,,9,7,187,9,1,0,1,0,,,,,1,30,66,0,,,,,,down,0.8006712181268085,2829.876097528875,None,001,38,2019_Oct_17_1105,ACPT_experiment_5_30_19,3.1.0,59.942189001384925,
,,,C,D,d,v,R,U,d,L,u,,,,,9,7,187,9,1,0,1,0,,,,,1,31,67,8,,,,,,up,0.7338889990678581,2831.9610744199063,None,001,38,2019_Oct_17_1105,ACPT_experiment_5_30_19,3.1.0,59.942189001384925,
,,,C,D,d,v,L,D,g,R,i,,,,,9,7,187,9,1,0,1,0,,,,,1,32,68,15,,,,,,up,0.9507399065983009,2833.9792983723955,None,001,38,2019_Oct_17_1105,ACPT_experiment_5_30_19,3.1.0,59.942189001384925,
,,,C,D,d,v,R,D,y,R,y,,,,,9,7,187,9,1,0,1,0,,,,,1,33,69,27,,,,,,down,0.9674409703261517,2836.2143548188938,None,001,38,2019_Oct_17_1105,ACPT_experiment_5_30_19,3.1.0,59.942189001384925,
,,,C,D,d,v,R,G,d,L,i,,,,,9,7,187,9,1,0,1,0,,,,,1,34,70,4,,,,,,down,0.8173079854609568,2838.4661325538073,None,001,38,2019_Oct_17_1105,ACPT_experiment_5_30_19,3.1.0,59.942189001384925,
,,,C,D,d,v,R,D,g,L,i,,,,,9,7,187,9,1,0,1,0,,,,,1,35,71,2,,,,,,up,2.5186331250793046,2840.5677727759407,None,001,38,2019_Oct_17_1105,ACPT_experiment_5_30_19,3.1.0,59.942189001384925,
,,,C,D,d,v,,,,,,,,,,9,7,187,9,2,0,2,0,0,0,0,0,,,,,,,,,,,,,,001,38,2019_Oct_17_1105,ACPT_experiment_5_30_19,3.1.0,59.942189001384925,
,,,C,D,d,v,R,U,g,L,u,,,,,9,7,187,9,2,0,2,0,,,,,0,0,0,10,,,,,,up,1.0005068246246083,2905.2851714102612,None,001,38,2019_Oct_17_1105,ACPT_experiment_5_30_19,3.1.0,59.942189001384925,
,,,C,D,d,v,L,D,g,R,i,,,,,9,7,187,9,2,0,2,0,,,,,0,1,1,15,,,,,,up,0.6505074434394373,2907.570009565975,None,001,38,2019_Oct_17_1105,ACPT_experiment_5_30_19,3.1.0,59.942189001384925,
,,,C,D,d,v,L,U,g,R,u,,,,,9,7,187,9,2,0,2,0,,,,,0,2,2,23,,,,,,up,0.6338362639507977,2909.504850453531,None,001,38,2019_Oct_17_1105,ACPT_experiment_5_30_19,3.1.0,59.942189001384925,
,,,C,D,d,v,L,U,d,L,u,,,,,9,7,187,9,2,0,2,0,,,,,0,3,3,20,,,,,,up,0.8339942579996205,2911.423021369042,None,001,38,2019_Oct_17_1105,ACPT_experiment_5_30_19,3.1.0,59.942189001384925,
,,,C,D,d,v,R,U,y,R,u,,,,,9,7,187,9,2,0,2,0,,,,,0,4,4,31,,,,,,down,0.7839505334336536,2913.5413333743863,None,001,38,2019_Oct_17_1105,ACPT_experiment_5_30_19,3.1.0,59.942189001384925,
,,,C,D,d,v,L,D,d,R,c ,,,,,9,7,187,9,2,0,2,0,,,,,0,5,5,13,,,,,,up,0.7505713474142794,2915.6096273133494,None,001,38,2019_Oct_17_1105,ACPT_experiment_5_30_19,3.1.0,59.942189001384925,
,,,C,D,d,v,R,U,g,R,u,,,,,9,7,187,9,2,0,2,0,,,,,0,6,6,11,,,,,,up,0.6338314341746809,2917.6445327086017,None,001,38,2019_Oct_17_1105,ACPT_experiment_5_30_19,3.1.0,59.942189001384925,
,,,C,D,d,v,R,D,d,R,c ,,,,,9,7,187,9,2,0,2,0,,,,,0,7,7,1,,,,,,down,0.9507534903432315,2919.562696077588,None,001,38,2019_Oct_17_1105,ACPT_experiment_5_30_19,3.1.0,59.942189001384925,
,,,C,D,d,v,L,G,y,L,y,,,,,9,7,187,9,2,0,2,0,,,,,0,8,8,34,,,,,,down,1.0841721295964817,2921.814449663621,None,001,38,2019_Oct_17_1105,ACPT_experiment_5_30_19,3.1.0,59.942189001384925,
,,,C,D,d,v,L,G,y,R,y,,,,,9,7,187,9,2,0,2,0,,,,,0,9,9,35,,,,,,down,0.6671768117621468,2924.1996463396486,None,001,38,2019_Oct_17_1105,ACPT_experiment_5_30_19,3.1.0,59.942189001384925,
,,,C,D,d,v,R,G,d,R,i,,,,,9,7,187,9,2,0,2,0,,,,,0,10,10,5,,,,,,up,1.0674849514743983,2926.1511786313804,None,001,38,2019_Oct_17_1105,ACPT_experiment_5_30_19,3.1.0,59.942189001384925,
,,,C,D,d,v,L,U,g,L,u,,,,,9,7,187,9,2,0,2,0,,,,,0,11,11,22,,,,,,up,0.9674207456391741,2928.502994612083,None,001,38,2019_Oct_17_1105,ACPT_experiment_5_30_19,3.1.0,59.942189001384925,
,,,C,D,d,v,R,U,d,L,u,,,,,9,7,187,9,2,0,2,0,,,,,0,12,12,8,,,,,,down,0.8340027101080523,2930.754735218093,None,001,38,2019_Oct_17_1105,ACPT_experiment_5_30_19,3.1.0,59.942189001384925,
,,,C,D,d,v,L,U,y,R,u,,,,,9,7,187,9,2,0,2,0,,,,,0,13,13,25,,,,,,down,0.9507323600732889,2932.889756437412,None,001,38,2019_Oct_17_1105,ACPT_experiment_5_30_19,3.1.0,59.942189001384925,
,,,C,D,d,v,R,U,d,R,u,,,,,9,7,187,9,2,0,2,0,,,,,0,14,14,9,,,,,,up,0.5837777481951889,2935.1415106271675,None,001,38,2019_Oct_17_1105,ACPT_experiment_5_30_19,3.1.0,59.942189001384925,
,,,C,D,d,v,R,D,y,R,y,,,,,9,7,187,9,2,0,2,0,,,,,0,15,15,27,,,,,,down,1.301015490601003,2937.009630875309,None,001,38,2019_Oct_17_1105,ACPT_experiment_5_30_19,3.1.0,59.942189001384925,
,,,C,D,d,v,L,G,d,R,i,,,,,9,7,187,9,2,0,2,0,,,,,0,16,16,17,,,,,,down,0.7505873460468138,2939.5949761876946,None,001,38,2019_Oct_17_1105,ACPT_experiment_5_30_19,3.1.0,59.942189001384925,
,,,C,D,d,v,R,G,g,L,c ,,,,,9,7,187,9,2,0,2,0,,,,,0,17,17,6,,,,,,up,0.8173493404187866,2941.6298809792247,None,001,38,2019_Oct_17_1105,ACPT_experiment_5_30_19,3.1.0,59.942189001384925,
,,,C,D,d,v,R,G,d,L,i,,,,,9,7,187,9,2,0,2,0,,,,,0,18,18,4,,,,,,up,1.000540934917808,2943.731778085072,None,001,38,2019_Oct_17_1105,ACPT_experiment_5_30_19,3.1.0,59.942189001384925,
,,,C,D,d,v,R,G,y,R,y,,,,,9,7,187,9,2,0,2,0,,,,,0,19,19,29,,,,,,down,0.8339779575057946,2946.0166536715506,None,001,38,2019_Oct_17_1105,ACPT_experiment_5_30_19,3.1.0,59.942189001384925,
,,,C,D,d,v,L,G,g,R,c ,,,,,9,7,187,9,2,0,2,0,,,,,0,20,20,19,,,,,,up,0.9340626898892879,2948.1516480252403,None,001,38,2019_Oct_17_1105,ACPT_experiment_5_30_19,3.1.0,59.942189001384925,
,,,C,D,d,v,L,D,g,L,i,,,,,9,7,187,9,2,0,2,0,,,,,0,21,21,14,,,,,,up,1.0341555725203762,2950.3700245382806,None,001,38,2019_Oct_17_1105,ACPT_experiment_5_30_19,3.1.0,59.942189001384925,
,,,C,D,d,v,L,D,y,R,y,,,,,9,7,187,9,2,0,2,0,,,,,0,22,22,33,,,,,,down,1.134217061606705,2952.6718417717066,None,001,38,2019_Oct_17_1105,ACPT_experiment_5_30_19,3.1.0,59.942189001384925,
,,,C,D,d,v,R,D,d,L,c,,,,,9,7,187,9,2,0,2,0,,,,,0,23,23,0,,,,,,down,1.417761742921357,2955.0904052574524,None,001,38,2019_Oct_17_1105,ACPT_experiment_5_30_19,3.1.0,59.942189001384925,
,,,C,D,d,v,R,G,g,R,c ,,,,,9,7,187,9,2,0,2,0,,,,,0,24,24,7,,,,,,up,0.9007013136688329,2957.7924992370463,None,001,38,2019_Oct_17_1105,ACPT_experiment_5_30_19,3.1.0,59.942189001384925,
,,,C,D,d,v,L,U,y,L,u,,,,,9,7,187,9,2,0,2,0,,,,,0,25,25,24,,,,,,down,1.6679667820076247,2959.9775370134416,None,001,38,2019_Oct_17_1105,ACPT_experiment_5_30_19,3.1.0,59.942189001384925,
,,,C,D,d,v,L,D,d,L,c ,,,,,9,7,187,9,2,0,2,0,,,,,0,26,26,12,,,,,,down,1.3510489518935174,2962.9298462953957,None,001,38,2019_Oct_17_1105,ACPT_experiment_5_30_19,3.1.0,59.942189001384925,
,,,C,D,d,v,R,D,g,R,i,,,,,9,7,187,9,2,0,2,0,,,,,0,27,27,3,,,,,,up,4.470137343737861,2965.5652380490965,None,001,38,2019_Oct_17_1105,ACPT_experiment_5_30_19,3.1.0,59.942189001384925,
,,,C,D,d,v,L,G,g,L,c ,,,,,9,7,187,9,2,0,2,0,,,,,0,28,28,18,,,,,,up,0.6672142425268248,2971.303008678806,None,001,38,2019_Oct_17_1105,ACPT_experiment_5_30_19,3.1.0,59.942189001384925,
,,,C,D,d,v,R,D,y,L,y,,,,,9,7,187,9,2,0,2,0,,,,,0,29,29,26,,,,,,down,1.4677973172401835,2973.254567534306,None,001,38,2019_Oct_17_1105,ACPT_experiment_5_30_19,3.1.0,59.942189001384925,
,,,C,D,d,v,R,D,g,L,i,,,,,9,7,187,9,2,0,2,0,,,,,0,30,30,2,,,,,,up,1.1175775775232069,2975.9899984393787,None,001,38,2019_Oct_17_1105,ACPT_experiment_5_30_19,3.1.0,59.942189001384925,
,,,C,D,d,v,L,G,d,L,i,,,,,9,7,187,9,2,0,2,0,,,,,0,31,31,16,,,,,,up,0.6504995950535886,2978.3919037256587,None,001,38,2019_Oct_17_1105,ACPT_experiment_5_30_19,3.1.0,59.942189001384925,
,,,C,D,d,v,R,U,y,L,u,,,,,9,7,187,9,2,0,2,0,,,,,0,32,32,30,,,,,,down,0.9172825385785472,2980.343481900263,None,001,38,2019_Oct_17_1105,ACPT_experiment_5_30_19,3.1.0,59.942189001384925,
,,,C,D,d,v,L,U,d,R,u,,,,,9,7,187,9,2,0,2,0,,,,,0,33,33,21,,,,,,up,0.9340445782290772,2982.578496991804,None,001,38,2019_Oct_17_1105,ACPT_experiment_5_30_19,3.1.0,59.942189001384925,
,,,C,D,d,v,L,D,y,L,y,,,,,9,7,187,9,2,0,2,0,,,,,0,34,34,32,,,,,,down,1.100858703995982,2984.7968822588136,None,001,38,2019_Oct_17_1105,ACPT_experiment_5_30_19,3.1.0,59.942189001384925,
,,,C,D,d,v,R,G,y,L,y,,,,,9,7,187,9,2,0,2,0,,,,,0,35,35,28,,,,,,down,1.1508016069869882,2987.1987371343066,None,001,38,2019_Oct_17_1105,ACPT_experiment_5_30_19,3.1.0,59.942189001384925,
,,,C,D,d,v,L,G,d,R,i,,,,,9,7,187,9,2,0,2,0,,,,,1,0,36,17,,,,,,down,1.3844006685617387,2989.6506810135165,None,001,38,2019_Oct_17_1105,ACPT_experiment_5_30_19,3.1.0,59.942189001384925,
,,,C,D,d,v,R,G,g,L,c ,,,,,9,7,187,9,2,0,2,0,,,,,1,1,37,6,,,,,,up,1.58460786595424,2992.319420861553,None,001,38,2019_Oct_17_1105,ACPT_experiment_5_30_19,3.1.0,59.942189001384925,
,,,C,D,d,v,R,G,y,R,y,,,,,9,7,187,9,2,0,2,0,,,,,1,2,38,29,,,,,,down,1.1508900522612748,2995.1883229296936,None,001,38,2019_Oct_17_1105,ACPT_experiment_5_30_19,3.1.0,59.942189001384925,
,,,C,D,d,v,R,G,y,L,y,,,,,9,7,187,9,2,0,2,0,,,,,1,3,39,28,,,,,,down,1.0007694436972088,2997.640238132108,None,001,38,2019_Oct_17_1105,ACPT_experiment_5_30_19,3.1.0,59.942189001384925,
,,,C,D,d,v,L,U,g,R,u,,,,,9,7,187,9,2,0,2,0,,,,,1,4,40,23,,,,,,up,1.5512030217491883,2999.9420281980438,None,001,38,2019_Oct_17_1105,ACPT_experiment_5_30_19,3.1.0,59.942189001384925,
,,,C,D,d,v,L,G,g,R,c ,,,,,9,7,187,9,2,0,2,0,,,,,1,5,41,19,,,,,,up,0.8673498988614483,3002.777558324828,None,001,38,2019_Oct_17_1105,ACPT_experiment_5_30_19,3.1.0,59.942189001384925,
,,,C,D,d,v,R,U,g,L,u,,,,,9,7,187,9,2,0,2,0,,,,,1,6,42,10,,,,,,up,1.2509753883668964,3004.929244384555,None,001,38,2019_Oct_17_1105,ACPT_experiment_5_30_19,3.1.0,59.942189001384925,
,,,C,D,d,v,L,U,y,L,u,,,,,9,7,187,9,2,0,2,0,,,,,1,7,43,24,,,,,,down,1.1508982025084151,3007.464552915177,None,001,38,2019_Oct_17_1105,ACPT_experiment_5_30_19,3.1.0,59.942189001384925,
,,,C,D,d,v,L,D,g,R,i,,,,,9,7,187,9,2,0,2,0,,,,,1,8,44,15,,,,,,up,1.6179336225764018,3009.8997839580798,None,001,38,2019_Oct_17_1105,ACPT_experiment_5_30_19,3.1.0,59.942189001384925,
,,,C,D,d,v,R,G,d,L,i,,,,,9,7,187,9,2,0,2,0,,,,,1,9,45,4,,,,,,up,0.7839767953410046,3012.8020522322167,None,001,38,2019_Oct_17_1105,ACPT_experiment_5_30_19,3.1.0,59.942189001384925,
,,,C,D,d,v,R,D,g,R,i,,,,,9,7,187,9,2,0,2,0,,,,,1,10,46,3,,,,,,up,1.6846515452416497,3014.8703289651025,None,001,38,2019_Oct_17_1105,ACPT_experiment_5_30_19,3.1.0,59.942189001384925,
,,,C,D,d,v,R,D,y,L,y,,,,,9,7,187,9,2,0,2,0,,,,,1,11,47,26,,,,,,down,1.6679661782859512,3017.822628587505,None,001,38,2019_Oct_17_1105,ACPT_experiment_5_30_19,3.1.0,59.942189001384925,
,,,C,D,d,v,L,G,y,R,y,,,,,9,7,187,9,2,0,2,0,,,,,1,12,48,35,,,,,,down,3.636150934124089,3020.774947830872,None,001,38,2019_Oct_17_1105,ACPT_experiment_5_30_19,3.1.0,59.942189001384925,
,,,C,D,d,v,L,U,g,L,u,,,,,9,7,187,9,2,0,2,0,,,,,1,13,49,22,,,,,,up,0.9173797378216477,3025.69543764261,None,001,38,2019_Oct_17_1105,ACPT_experiment_5_30_19,3.1.0,59.942189001384925,
,,,C,D,d,v,L,U,d,R,u,,,,,9,7,187,9,2,0,2,0,,,,,1,14,50,21,,,,,,down,1.5512090589695617,3027.8971523338532,None,001,38,2019_Oct_17_1105,ACPT_experiment_5_30_19,3.1.0,59.942189001384925,
,,,C,D,d,v,L,U,d,L,u,,,,,9,7,187,9,2,0,2,0,,,,,1,15,51,20,,,,,,down,1.134241512348126,3030.715997697404,None,001,38,2019_Oct_17_1105,ACPT_experiment_5_30_19,3.1.0,59.942189001384925,
,,,C,D,d,v,R,U,d,R,u,,,,,9,7,187,9,2,0,2,0,,,,,1,16,52,9,,,,,,up,1.0340589769989492,3033.134716943428,None,001,38,2019_Oct_17_1105,ACPT_experiment_5_30_19,3.1.0,59.942189001384925,
,,,C,D,d,v,R,U,d,L,u,,,,,9,7,187,9,2,0,2,0,,,,,1,17,53,8,,,,,,down,2.768836353000097,3035.4530402383734,None,001,38,2019_Oct_17_1105,ACPT_experiment_5_30_19,3.1.0,59.942189001384925,
,,,C,D,d,v,R,U,y,L,u,,,,,9,7,187,9,2,0,2,0,,,,,1,18,54,30,,,,,,down,4.536849832904863,3039.5062239210956,None,001,38,2019_Oct_17_1105,ACPT_experiment_5_30_19,3.1.0,59.942189001384925,
,,,C,D,d,v,L,G,g,L,c ,,,,,9,7,187,9,2,0,2,0,,,,,1,19,55,18,,,,,,up,3.1191065035050087,3045.3440862259918,None,001,38,2019_Oct_17_1105,ACPT_experiment_5_30_19,3.1.0,59.942189001384925,
,,,C,D,d,v,R,U,g,R,u,,,,,9,7,187,9,2,0,2,0,,,,,1,20,56,11,,,,,,down,1.9181838955341846,3049.7308220912746,None,001,38,2019_Oct_17_1105,ACPT_experiment_5_30_19,3.1.0,59.942189001384925,
,,,C,D,d,v,R,G,g,R,c ,,,,,9,7,187,9,2,0,2,0,,,,,1,21,57,7,,,,,,up,2.018226971099466,3052.9333466755897,None,001,38,2019_Oct_17_1105,ACPT_experiment_5_30_19,3.1.0,59.942189001384925,
,,,C,D,d,v,R,D,d,R,c ,,,,,9,7,187,9,2,0,2,0,,,,,1,22,58,1,,,,,,up,0.7672491678445112,3056.2359261080487,None,001,38,2019_Oct_17_1105,ACPT_experiment_5_30_19,3.1.0,59.942189001384925,
,,,C,D,d,v,R,G,d,R,i,,,,,9,7,187,9,2,0,2,0,,,,,1,23,59,5,,,,,,down,1.51784466413892,3058.287513247925,None,001,38,2019_Oct_17_1105,ACPT_experiment_5_30_19,3.1.0,59.942189001384925,
,,,C,D,d,v,L,U,y,R,u,,,,,9,7,187,9,2,0,2,0,,,,,1,24,60,25,,,,,,down,1.7680213282906152,3061.089714901338,None,001,38,2019_Oct_17_1105,ACPT_experiment_5_30_19,3.1.0,59.942189001384925,
,,,C,D,d,v,L,D,y,R,y,,,,,9,7,187,9,2,0,2,0,,,,,1,25,61,33,,,,,,down,2.2350718414095354,3064.1420732960773,None,001,38,2019_Oct_17_1105,ACPT_experiment_5_30_19,3.1.0,59.942189001384925,
,,,C,D,d,v,L,G,d,L,i,,,,,9,7,187,9,2,0,2,0,,,,,1,26,62,16,,,,,,up,1.9848655948785563,3067.6614969951247,None,001,38,2019_Oct_17_1105,ACPT_experiment_5_30_19,3.1.0,59.942189001384925,
,,,C,D,d,v,R,D,y,R,y,,,,,9,7,187,9,2,0,2,0,,,,,1,27,63,27,,,,,,down,0.9674424796312451,3070.9306773187377,None,001,38,2019_Oct_17_1105,ACPT_experiment_5_30_19,3.1.0,59.942189001384925,
,,,C,D,d,v,L,G,y,L,y,,,,,9,7,187,9,2,0,2,0,,,,,1,28,64,34,,,,,,down,2.284916639574476,3073.1993013125216,None,001,38,2019_Oct_17_1105,ACPT_experiment_5_30_19,3.1.0,59.942189001384925,
,,,C,D,d,v,L,D,d,R,c ,,,,,9,7,187,9,2,0,2,0,,,,,1,29,65,13,,,,,,down,4.453460730750976,3076.785276910682,None,001,38,2019_Oct_17_1105,ACPT_experiment_5_30_19,3.1.0,59.942189001384925,
,,,C,D,d,v,L,D,y,L,y,,,,,9,7,187,9,2,0,2,0,,,,,1,30,66,32,,,,,,down,5.154023973197127,3082.5230677650784,None,001,38,2019_Oct_17_1105,ACPT_experiment_5_30_19,3.1.0,59.942189001384925,
,,,C,D,d,v,L,D,g,L,i,,,,,9,7,187,9,2,0,2,0,,,,,1,31,67,14,,,,,,up,0.8506702672648316,3088.9614194470328,None,001,38,2019_Oct_17_1105,ACPT_experiment_5_30_19,3.1.0,59.942189001384925,
,,,C,D,d,v,R,D,d,L,c,,,,,9,7,187,9,2,0,2,0,,,,,1,32,68,0,,,,,,up,1.1342339658226592,3091.0963996132555,None,001,38,2019_Oct_17_1105,ACPT_experiment_5_30_19,3.1.0,59.942189001384925,
,,,C,D,d,v,L,D,d,L,c ,,,,,9,7,187,9,2,0,2,0,,,,,1,33,69,12,,,,,,up,0.8506548723535161,3093.514978192052,None,001,38,2019_Oct_17_1105,ACPT_experiment_5_30_19,3.1.0,59.942189001384925,
,,,C,D,d,v,R,U,y,R,u,,,,,9,7,187,9,2,0,2,0,,,,,1,34,70,31,,,,,,down,1.2342794562755444,3095.6499849220427,None,001,38,2019_Oct_17_1105,ACPT_experiment_5_30_19,3.1.0,59.942189001384925,
,,,C,D,d,v,R,D,g,L,i,,,,,9,7,187,9,2,0,2,0,,,,,1,35,71,2,,,,,,up,1.651288055993973,3098.168599935462,None,001,38,2019_Oct_17_1105,ACPT_experiment_5_30_19,3.1.0,59.942189001384925,
,,,C,D,d,v,,,,,,,,,,9,7,187,9,3,0,3,0,0,0,0,0,,,,,,,,,,,,,,001,38,2019_Oct_17_1105,ACPT_experiment_5_30_19,3.1.0,59.942189001384925,
,,,C,D,d,v,R,D,g,R,i,,,,,9,7,187,9,3,0,3,0,,,,,0,0,0,3,,,,,,up,0.5804539566884159,3130.246934978838,None,001,38,2019_Oct_17_1105,ACPT_experiment_5_30_19,3.1.0,59.942189001384925,
,,,C,D,d,v,L,D,g,R,i,,,,,9,7,187,9,3,0,3,0,,,,,0,1,1,15,,,,,,up,0.6004640207343073,3132.1117299261678,None,001,38,2019_Oct_17_1105,ACPT_experiment_5_30_19,3.1.0,59.942189001384925,
,,,C,D,d,v,L,U,y,R,u,,,,,9,7,187,9,3,0,3,0,,,,,0,2,2,25,,,,,,down,0.7505849311592101,3133.996530409628,None,001,38,2019_Oct_17_1105,ACPT_experiment_5_30_19,3.1.0,59.942189001384925,
,,,C,D,d,v,R,U,d,R,u,,,,,9,7,187,9,3,0,3,0,,,,,0,3,3,9,,,,,,up,0.717225667965522,3136.0314505960696,None,001,38,2019_Oct_17_1105,ACPT_experiment_5_30_19,3.1.0,59.942189001384925,
,,,C,D,d,v,R,U,g,L,u,,,,,9,7,187,9,3,0,3,0,,,,,0,4,4,10,,,,,,up,0.8506630226006564,3138.0163294728327,None,001,38,2019_Oct_17_1105,ACPT_experiment_5_30_19,3.1.0,59.942189001384925,
,,,C,D,d,v,R,D,g,L,i,,,,,9,7,187,9,3,0,3,0,,,,,0,5,5,2,,,,,,up,0.6505005006365536,3140.151341334461,None,001,38,2019_Oct_17_1105,ACPT_experiment_5_30_19,3.1.0,59.942189001384925,
,,,C,D,d,v,L,D,y,L,y,,,,,9,7,187,9,3,0,3,0,,,,,0,6,6,32,,,,,,down,1.0674952147483054,3142.0861713550207,None,001,38,2019_Oct_17_1105,ACPT_experiment_5_30_19,3.1.0,59.942189001384925,
,,,C,D,d,v,L,U,g,R,u,,,,,9,7,187,9,3,0,3,0,,,,,0,7,7,23,,,,,,up,0.8173417938933198,3144.4380042399393,None,001,38,2019_Oct_17_1105,ACPT_experiment_5_30_19,3.1.0,59.942189001384925,
,,,C,D,d,v,L,G,d,L,i,,,,,9,7,187,9,3,0,3,0,,,,,0,8,8,16,,,,,,up,1.0674964221921073,3146.539644462073,None,001,38,2019_Oct_17_1105,ACPT_experiment_5_30_19,3.1.0,59.942189001384925,
,,,C,D,d,v,L,U,d,R,u,,,,,9,7,187,9,3,0,3,0,,,,,0,9,9,21,,,,,,up,0.8506633244619479,3148.8914761395476,None,001,38,2019_Oct_17_1105,ACPT_experiment_5_30_19,3.1.0,59.942189001384925,
,,,C,D,d,v,L,G,y,L,y,,,,,9,7,187,9,3,0,3,0,,,,,0,10,10,34,,,,,,down,0.8006147701194095,3151.026484378844,None,001,38,2019_Oct_17_1105,ACPT_experiment_5_30_19,3.1.0,59.942189001384925,
,,,C,D,d,v,L,D,d,R,c ,,,,,9,7,187,9,3,0,3,0,,,,,0,11,11,13,,,,,,down,0.8673272592859576,3153.111448591713,None,001,38,2019_Oct_17_1105,ACPT_experiment_5_30_19,3.1.0,59.942189001384925,
,,,C,D,d,v,R,U,g,R,u,,,,,9,7,187,9,3,0,3,0,,,,,0,12,12,11,,,,,,up,0.7005922211023972,3155.2631105025594,None,001,38,2019_Oct_17_1105,ACPT_experiment_5_30_19,3.1.0,59.942189001384925,
,,,C,D,d,v,R,U,y,L,u,,,,,9,7,187,9,3,0,3,0,,,,,0,13,13,30,,,,,,down,1.2142905225005052,3157.267998839646,None,001,38,2019_Oct_17_1105,ACPT_experiment_5_30_19,3.1.0,59.942189001384925,
,,,C,D,d,v,L,U,g,L,u,,,,,9,7,187,9,3,0,3,0,,,,,0,14,14,22,,,,,,up,1.1675929271555106,3159.76661888207,None,001,38,2019_Oct_17_1105,ACPT_experiment_5_30_19,3.1.0,59.942189001384925,
,,,C,D,d,v,L,U,y,L,u,,,,,9,7,187,9,3,0,3,0,,,,,0,15,15,24,,,,,,down,1.250997122359422,3162.218510539326,None,001,38,2019_Oct_17_1105,ACPT_experiment_5_30_19,3.1.0,59.942189001384925,
,,,C,D,d,v,L,U,d,L,u,,,,,9,7,187,9,3,0,3,0,,,,,0,16,16,20,,,,,,up,2.168365691323288,3164.7538444262723,None,001,38,2019_Oct_17_1105,ACPT_experiment_5_30_19,3.1.0,59.942189001384925,
,,,C,D,d,v,R,D,y,L,y,,,,,9,7,187,9,3,0,3,0,,,,,0,17,17,26,,,,,,down,1.367731602099866,3168.223220174699,None,001,38,2019_Oct_17_1105,ACPT_experiment_5_30_19,3.1.0,59.942189001384925,
,,,C,D,d,v,R,U,d,L,u,,,,,9,7,187,9,3,0,3,0,,,,,0,18,18,8,,,,,,up,1.100845723972725,3170.8919678711222,None,001,38,2019_Oct_17_1105,ACPT_experiment_5_30_19,3.1.0,59.942189001384925,
,,,C,D,d,v,R,D,y,R,y,,,,,9,7,187,9,3,0,3,0,,,,,0,19,19,27,,,,,,down,0.7505918739620938,3173.2771566987635,None,001,38,2019_Oct_17_1105,ACPT_experiment_5_30_19,3.1.0,59.942189001384925,
,,,C,D,d,v,R,G,y,L,y,,,,,9,7,187,9,3,0,3,0,,,,,0,20,20,28,,,,,,down,1.267662566488525,3175.3120741684556,None,001,38,2019_Oct_17_1105,ACPT_experiment_5_30_19,3.1.0,59.942189001384925,
,,,C,D,d,v,R,G,g,R,c ,,,,,9,7,187,9,3,0,3,0,,,,,0,21,21,7,,,,,,up,1.6346262341962756,3177.8473639836957,None,001,38,2019_Oct_17_1105,ACPT_experiment_5_30_19,3.1.0,59.942189001384925,
,,,C,D,d,v,L,D,g,L,i,,,,,9,7,187,9,3,0,3,0,,,,,0,22,22,14,,,,,,up,1.434451335931044,3180.7663272843406,None,001,38,2019_Oct_17_1105,ACPT_experiment_5_30_19,3.1.0,59.942189001384925,
,,,C,D,d,v,L,G,y,R,y,,,,,9,7,187,9,3,0,3,0,,,,,0,23,23,35,,,,,,down,1.1842559563965551,3183.485114479276,None,001,38,2019_Oct_17_1105,ACPT_experiment_5_30_19,3.1.0,59.942189001384925,
,,,C,D,d,v,L,D,y,R,y,,,,,9,7,187,9,3,0,3,0,,,,,0,24,24,33,,,,,,down,0.9674467056852336,3185.953704483511,None,001,38,2019_Oct_17_1105,ACPT_experiment_5_30_19,3.1.0,59.942189001384925,
,,,C,D,d,v,L,G,d,R,i,,,,,9,7,187,9,3,0,3,0,,,,,0,25,25,17,,,,,,down,3.035957078987394,3188.2054490137143,None,001,38,2019_Oct_17_1105,ACPT_experiment_5_30_19,3.1.0,59.942189001384925,
,,,C,D,d,v,R,G,y,R,y,,,,,9,7,187,9,3,0,3,0,,,,,0,26,26,29,,,,,,down,0.9673090570677232,3192.5254944256835,None,001,38,2019_Oct_17_1105,ACPT_experiment_5_30_19,3.1.0,59.942189001384925,
,,,C,D,d,v,R,D,d,R,c ,,,,,9,7,187,9,3,0,3,0,,,,,0,27,27,1,,,,,,up,0.7339258261108625,3194.7772250702806,None,001,38,2019_Oct_17_1105,ACPT_experiment_5_30_19,3.1.0,59.942189001384925,
,,,C,D,d,v,R,U,y,R,u,,,,,9,7,187,9,3,0,3,0,,,,,0,28,28,31,,,,,,down,0.7172126879422649,3196.828855074419,None,001,38,2019_Oct_17_1105,ACPT_experiment_5_30_19,3.1.0,59.942189001384925,
,,,C,D,d,v,L,G,g,R,c ,,,,,9,7,187,9,3,0,3,0,,,,,0,29,29,19,,,,,,up,2.7521419302138384,3198.8470938180976,None,001,38,2019_Oct_17_1105,ACPT_experiment_5_30_19,3.1.0,59.942189001384925,
,,,C,D,d,v,R,G,d,R,i,,,,,9,7,187,9,3,0,3,0,,,,,0,30,30,5,,,,,,up,0.9841000753744993,3202.883570098011,None,001,38,2019_Oct_17_1105,ACPT_experiment_5_30_19,3.1.0,59.942189001384925,
,,,C,D,d,v,R,G,d,L,i,,,,,9,7,187,9,3,0,3,0,,,,,0,31,31,4,,,,,,up,0.8339918431120168,3205.1520024100582,None,001,38,2019_Oct_17_1105,ACPT_experiment_5_30_19,3.1.0,59.942189001384925,
,,,C,D,d,v,L,D,d,L,c ,,,,,9,7,187,9,3,0,3,0,,,,,0,32,32,12,,,,,,down,1.4010887522663324,3207.2703222637883,None,001,38,2019_Oct_17_1105,ACPT_experiment_5_30_19,3.1.0,59.942189001384925,
,,,C,D,d,v,R,D,d,L,c,,,,,9,7,187,9,3,0,3,0,,,,,0,33,33,0,,,,,,up,2.1516776076186943,3209.955748384364,None,001,38,2019_Oct_17_1105,ACPT_experiment_5_30_19,3.1.0,59.942189001384925,
,,,C,D,d,v,L,G,g,L,c ,,,,,9,7,187,9,3,0,3,0,,,,,0,34,34,18,,,,,,up,2.2517587176703273,3213.3917588323775,None,001,38,2019_Oct_17_1105,ACPT_experiment_5_30_19,3.1.0,59.942189001384925,
,,,C,D,d,v,R,G,g,L,c ,,,,,9,7,187,9,3,0,3,0,,,,,0,35,35,6,,,,,,up,0.8340005970808306,3216.92783771228,None,001,38,2019_Oct_17_1105,ACPT_experiment_5_30_19,3.1.0,59.942189001384925,
,,,C,D,d,v,R,U,y,L,u,,,,,9,7,187,9,3,0,3,0,,,,,1,0,36,30,,,,,,down,0.5837771444730606,3219.0461808093073,None,001,38,2019_Oct_17_1105,ACPT_experiment_5_30_19,3.1.0,59.942189001384925,
,,,C,D,d,v,L,U,g,R,u,,,,,9,7,187,9,3,0,3,0,,,,,1,1,37,23,,,,,,up,0.7672844855824223,3220.914269362044,None,001,38,2019_Oct_17_1105,ACPT_experiment_5_30_19,3.1.0,59.942189001384925,
,,,C,D,d,v,L,D,g,R,i,,,,,9,7,187,9,3,0,3,0,,,,,1,2,38,15,,,,,,up,0.9173800396829392,3222.9658927252403,None,001,38,2019_Oct_17_1105,ACPT_experiment_5_30_19,3.1.0,59.942189001384925,
,,,C,D,d,v,R,D,d,R,c ,,,,,9,7,187,9,3,0,3,0,,,,,1,3,39,1,,,,,,up,1.1175226388204464,3225.1676234151164,None,001,38,2019_Oct_17_1105,ACPT_experiment_5_30_19,3.1.0,59.942189001384925,
,,,C,D,d,v,L,D,y,R,y,,,,,9,7,187,9,3,0,3,0,,,,,1,4,40,33,,,,,,down,1.067492799860247,3227.5861648650093,None,001,38,2019_Oct_17_1105,ACPT_experiment_5_30_19,3.1.0,59.942189001384925,
,,,C,D,d,v,L,U,d,R,u,,,,,9,7,187,9,3,0,3,0,,,,,1,5,41,21,,,,,,up,2.418540544309508,3229.988037550301,None,001,38,2019_Oct_17_1105,ACPT_experiment_5_30_19,3.1.0,59.942189001384925,
,,,C,D,d,v,L,G,g,L,c ,,,,,9,7,187,9,3,0,3,0,,,,,1,6,42,18,,,,,,up,1.3677325076832858,3233.6909193871134,None,001,38,2019_Oct_17_1105,ACPT_experiment_5_30_19,3.1.0,59.942189001384925,
,,,C,D,d,v,R,G,d,R,i,,,,,9,7,187,9,3,0,3,0,,,,,1,7,43,5,,,,,,up,5.454254021467477,3236.342989866828,None,001,38,2019_Oct_17_1105,ACPT_experiment_5_30_19,3.1.0,59.942189001384925,
,,,C,D,d,v,L,G,y,L,y,,,,,9,7,187,9,3,0,3,0,,,,,1,8,44,34,,,,,,down,0.8006090347603276,3243.081586388242,None,001,38,2019_Oct_17_1105,ACPT_experiment_5_30_19,3.1.0,59.942189001384925,
,,,C,D,d,v,L,U,g,L,u,,,,,9,7,187,9,3,0,3,0,,,,,1,9,45,22,,,,,,up,1.484474835810488,3245.166548186223,None,001,38,2019_Oct_17_1105,ACPT_experiment_5_30_19,3.1.0,59.942189001384925,
,,,C,D,d,v,L,D,d,R,c ,,,,,9,7,187,9,3,0,3,0,,,,,1,10,46,13,,,,,,up,2.318491733385599,3247.935354051261,None,001,38,2019_Oct_17_1105,ACPT_experiment_5_30_19,3.1.0,59.942189001384925,
,,,C,D,d,v,L,U,y,R,u,,,,,9,7,187,9,3,0,3,0,,,,,1,11,47,25,,,,,,down,1.0007721604465587,3251.5548470877807,None,001,38,2019_Oct_17_1105,ACPT_experiment_5_30_19,3.1.0,59.942189001384925,
,,,C,D,d,v,R,D,g,R,i,,,,,9,7,187,9,3,0,3,0,,,,,1,12,48,3,,,,,,up,2.5686690012598774,3253.8399605407294,None,001,38,2019_Oct_17_1105,ACPT_experiment_5_30_19,3.1.0,59.942189001384925,
,,,C,D,d,v,L,D,d,L,c ,,,,,9,7,187,9,3,0,3,0,,,,,1,13,49,12,,,,,,up,4.386782653738464,3257.6929605712176,None,001,38,2019_Oct_17_1105,ACPT_experiment_5_30_19,3.1.0,59.942189001384925,
,,,C,D,d,v,R,U,d,L,u,,,,,9,7,187,9,3,0,3,0,,,,,1,14,50,8,,,,,,up,1.4011298053628707,3263.3640482941382,None,001,38,2019_Oct_17_1105,ACPT_experiment_5_30_19,3.1.0,59.942189001384925,
,,,C,D,d,v,R,G,g,L,c ,,,,,9,7,187,9,3,0,3,0,,,,,1,15,51,6,,,,,,up,1.4677906762985913,3266.0494949412623,None,001,38,2019_Oct_17_1105,ACPT_experiment_5_30_19,3.1.0,59.942189001384925,
,,,C,D,d,v,R,U,g,R,u,,,,,9,7,187,9,3,0,3,0,,,,,1,16,52,11,,,,,,up,0.9173676633818104,3268.801632645422,None,001,38,2019_Oct_17_1105,ACPT_experiment_5_30_19,3.1.0,59.942189001384925,
,,,C,D,d,v,R,G,d,L,i,,,,,9,7,187,9,3,0,3,0,,,,,1,17,53,4,,,,,,up,6.5217425952741905,3271.0200239496517,None,001,38,2019_Oct_17_1105,ACPT_experiment_5_30_19,3.1.0,59.942189001384925,
,,,C,D,d,v,L,U,y,L,u,,,,,9,7,187,9,3,0,3,0,,,,,1,18,54,24,,,,,,down,0.9174026792579753,3278.826088216463,None,001,38,2019_Oct_17_1105,ACPT_experiment_5_30_19,3.1.0,59.942189001384925,
,,,C,D,d,v,L,G,y,R,y,,,,,9,7,187,9,3,0,3,0,,,,,1,19,55,35,,,,,,down,1.3844054983378555,3281.0278222268103,None,001,38,2019_Oct_17_1105,ACPT_experiment_5_30_19,3.1.0,59.942189001384925,
,,,C,D,d,v,R,D,d,L,c,,,,,9,7,187,9,3,0,3,0,,,,,1,20,56,0,,,,,,up,2.5353009840969207,3283.696578979064,None,001,38,2019_Oct_17_1105,ACPT_experiment_5_30_19,3.1.0,59.942189001384925,
,,,C,D,d,v,R,D,y,R,y,,,,,9,7,187,9,3,0,3,0,,,,,1,21,57,27,,,,,,down,0.8006543139108544,3287.499507513773,None,001,38,2019_Oct_17_1105,ACPT_experiment_5_30_19,3.1.0,59.942189001384925,
,,,C,D,d,v,L,G,d,R,i,,,,,9,7,187,9,3,0,3,0,,,,,1,22,58,17,,,,,,down,1.5678908035934,3289.584491045746,None,001,38,2019_Oct_17_1105,ACPT_experiment_5_30_19,3.1.0,59.942189001384925,
,,,C,D,d,v,L,D,g,L,i,,,,,9,7,187,9,3,0,3,0,,,,,1,23,59,14,,,,,,up,1.5678998594235054,3292.4367125767067,None,001,38,2019_Oct_17_1105,ACPT_experiment_5_30_19,3.1.0,59.942189001384925,
,,,C,D,d,v,R,G,g,R,c ,,,,,9,7,187,9,3,0,3,0,,,,,1,24,60,7,,,,,,up,1.4344531470969741,3295.288942257914,None,001,38,2019_Oct_17_1105,ACPT_experiment_5_30_19,3.1.0,59.942189001384925,
,,,C,D,d,v,R,D,g,L,i,,,,,9,7,187,9,3,0,3,0,,,,,1,25,61,2,,,,,,up,1.4010969025139275,3298.007724924935,None,001,38,2019_Oct_17_1105,ACPT_experiment_5_30_19,3.1.0,59.942189001384925,
,,,C,D,d,v,L,G,d,L,i,,,,,9,7,187,9,3,0,3,0,,,,,1,26,62,16,,,,,,up,6.755276153010982,3300.6931519510936,None,001,38,2019_Oct_17_1105,ACPT_experiment_5_30_19,3.1.0,59.942189001384925,
,,,C,D,d,v,L,D,y,L,y,,,,,9,7,187,9,3,0,3,0,,,,,1,27,63,32,,,,,,down,3.0190558814147153,3308.7327316639817,None,001,38,2019_Oct_17_1105,ACPT_experiment_5_30_19,3.1.0,59.942189001384925,
,,,C,D,d,v,L,G,g,R,c ,,,,,9,7,187,9,3,0,3,0,,,,,1,28,64,19,,,,,,up,1.1508885429561815,3313.036117065319,None,001,38,2019_Oct_17_1105,ACPT_experiment_5_30_19,3.1.0,59.942189001384925,
,,,C,D,d,v,R,G,y,R,y,,,,,9,7,187,9,3,0,3,0,,,,,1,29,65,29,,,,,,down,1.0007818199987923,3315.471336939365,None,001,38,2019_Oct_17_1105,ACPT_experiment_5_30_19,3.1.0,59.942189001384925,
,,,C,D,d,v,R,U,d,R,u,,,,,9,7,187,9,3,0,3,0,,,,,1,30,66,9,,,,,,up,0.7839330254955712,3317.7564570332556,None,001,38,2019_Oct_17_1105,ACPT_experiment_5_30_19,3.1.0,59.942189001384925,
,,,C,D,d,v,R,U,y,R,u,,,,,9,7,187,9,3,0,3,0,,,,,1,31,67,31,,,,,,down,1.0007745753346171,3319.8247358791687,None,001,38,2019_Oct_17_1105,ACPT_experiment_5_30_19,3.1.0,59.942189001384925,
,,,C,D,d,v,R,G,y,L,y,,,,,9,7,187,9,3,0,3,0,,,,,1,32,68,28,,,,,,down,0.8006271464205383,3322.0931633614396,None,001,38,2019_Oct_17_1105,ACPT_experiment_5_30_19,3.1.0,59.942189001384925,
,,,C,D,d,v,L,U,d,L,u,,,,,9,7,187,9,3,0,3,0,,,,,1,33,69,20,,,,,,down,1.3009988882463404,3324.1781390450265,None,001,38,2019_Oct_17_1105,ACPT_experiment_5_30_19,3.1.0,59.942189001384925,
,,,C,D,d,v,R,U,g,L,u,,,,,9,7,187,9,3,0,3,0,,,,,1,34,70,10,,,,,,up,1.217342035382444,3326.7804305322743,None,001,38,2019_Oct_17_1105,ACPT_experiment_5_30_19,3.1.0,59.942189001384925,
,,,C,D,d,v,R,D,y,L,y,,,,,9,7,187,9,3,0,3,0,,,,,1,35,71,26,,,,,,down,1.7347109665797689,3329.2820857870856,None,001,38,2019_Oct_17_1105,ACPT_experiment_5_30_19,3.1.0,59.942189001384925,
,,,C,D,d,v,,,,,,,,,,9,7,187,9,4,0,4,0,0,0,0,0,,,,,,,,,,,,,,001,38,2019_Oct_17_1105,ACPT_experiment_5_30_19,3.1.0,59.942189001384925,
,,,C,D,d,v,L,U,y,R,u,,,,,9,7,187,9,4,0,4,0,,,,,0,0,0,25,,,,,,down,0.8335456925492508,3418.9357488854534,None,001,38,2019_Oct_17_1105,ACPT_experiment_5_30_19,3.1.0,59.942189001384925,
,,,C,D,d,v,R,U,d,L,u,,,,,9,7,187,9,4,0,4,0,,,,,0,1,1,8,,,,,,down,1.034120254782465,3421.0536838664048,None,001,38,2019_Oct_17_1105,ACPT_experiment_5_30_19,3.1.0,59.942189001384925,
,,,C,D,d,v,L,U,g,L,u,,,,,9,7,187,9,4,0,4,0,,,,,0,2,2,22,,,,,,up,1.000783329303431,3423.3721339429717,None,001,38,2019_Oct_17_1105,ACPT_experiment_5_30_19,3.1.0,59.942189001384925,
,,,C,D,d,v,R,U,d,R,u,,,,,9,7,187,9,4,0,4,0,,,,,0,3,3,9,,,,,,down,2.3518679007947867,3425.6572486033647,None,001,38,2019_Oct_17_1105,ACPT_experiment_5_30_19,3.1.0,59.942189001384925,
,,,C,D,d,v,R,G,d,L,i,,,,,9,7,187,9,4,0,4,0,,,,,0,4,4,4,,,,,,up,1.6012407090956913,3429.2934224789246,None,001,38,2019_Oct_17_1105,ACPT_experiment_5_30_19,3.1.0,59.942189001384925,
,,,C,D,d,v,R,G,g,R,c ,,,,,9,7,187,9,4,0,4,0,,,,,0,5,5,7,,,,,,up,1.3176960277810394,3432.1789975377196,None,001,38,2019_Oct_17_1105,ACPT_experiment_5_30_19,3.1.0,59.942189001384925,
,,,C,D,d,v,L,D,y,R,y,,,,,9,7,187,9,4,0,4,0,,,,,0,6,6,33,,,,,,down,0.8506503444386908,3434.781045724999,None,001,38,2019_Oct_17_1105,ACPT_experiment_5_30_19,3.1.0,59.942189001384925,
,,,C,D,d,v,L,U,g,R,u,,,,,9,7,187,9,4,0,4,0,,,,,0,7,7,23,,,,,,up,0.7172298940195105,3436.916022872612,None,001,38,2019_Oct_17_1105,ACPT_experiment_5_30_19,3.1.0,59.942189001384925,
,,,C,D,d,v,L,U,y,L,u,,,,,9,7,187,9,4,0,4,0,,,,,0,8,8,24,,,,,,down,0.7672702981149087,3438.9175856070256,None,001,38,2019_Oct_17_1105,ACPT_experiment_5_30_19,3.1.0,59.942189001384925,
,,,C,D,d,v,R,D,d,L,c,,,,,9,7,187,9,4,0,4,0,,,,,0,9,9,0,,,,,,up,1.0508152812903973,3440.969188141813,None,001,38,2019_Oct_17_1105,ACPT_experiment_5_30_19,3.1.0,59.942189001384925,
,,,C,D,d,v,L,G,y,R,y,,,,,9,7,187,9,4,0,4,0,,,,,0,10,10,35,,,,,,down,1.267572310048763,3443.3377734068304,None,001,38,2019_Oct_17_1105,ACPT_experiment_5_30_19,3.1.0,59.942189001384925,
,,,C,D,d,v,L,U,d,R,u,,,,,9,7,187,9,4,0,4,0,,,,,0,11,11,21,,,,,,down,2.068266771472736,3445.923053215378,None,001,38,2019_Oct_17_1105,ACPT_experiment_5_30_19,3.1.0,59.942189001384925,
,,,C,D,d,v,L,D,g,R,i,,,,,9,7,187,9,4,0,4,0,,,,,0,12,12,15,,,,,,up,0.8506627207398196,3449.2756652035464,None,001,38,2019_Oct_17_1105,ACPT_experiment_5_30_19,3.1.0,59.942189001384925,
,,,C,D,d,v,L,D,g,L,i,,,,,9,7,187,9,4,0,4,0,,,,,0,13,13,14,,,,,,up,1.1509172197511361,3451.3939575879253,None,001,38,2019_Oct_17_1105,ACPT_experiment_5_30_19,3.1.0,59.942189001384925,
,,,C,D,d,v,R,U,y,L,u,,,,,9,7,187,9,4,0,4,0,,,,,0,14,14,30,,,,,,down,1.117538939314727,3453.829211874125,None,001,38,2019_Oct_17_1105,ACPT_experiment_5_30_19,3.1.0,59.942189001384925,
,,,C,D,d,v,R,U,g,L,u,,,,,9,7,187,9,4,0,4,0,,,,,0,15,15,10,,,,,,up,1.2509708604516163,3456.231088785471,None,001,38,2019_Oct_17_1105,ACPT_experiment_5_30_19,3.1.0,59.942189001384925,
,,,C,D,d,v,R,D,g,L,i,,,,,9,7,187,9,4,0,4,0,,,,,0,16,16,2,,,,,,up,1.784729636683096,3458.766388562124,None,001,38,2019_Oct_17_1105,ACPT_experiment_5_30_19,3.1.0,59.942189001384925,
,,,C,D,d,v,L,G,y,L,y,,,,,9,7,187,9,4,0,4,0,,,,,0,17,17,34,,,,,,down,1.0007694436976635,3461.8521370098797,None,001,38,2019_Oct_17_1105,ACPT_experiment_5_30_19,3.1.0,59.942189001384925,
,,,C,D,d,v,L,G,g,L,c ,,,,,9,7,187,9,4,0,4,0,,,,,0,18,18,18,,,,,,up,1.3510480463100976,3464.153929490703,None,001,38,2019_Oct_17_1105,ACPT_experiment_5_30_19,3.1.0,59.942189001384925,
,,,C,D,d,v,L,D,y,L,y,,,,,9,7,187,9,4,0,4,0,,,,,0,19,19,32,,,,,,down,3.1190989569799967,3466.789315810906,None,001,38,2019_Oct_17_1105,ACPT_experiment_5_30_19,3.1.0,59.942189001384925,
,,,C,D,d,v,R,G,d,R,i,,,,,9,7,187,9,4,0,4,0,,,,,0,20,20,5,,,,,,up,2.1349792606397386,3471.1927651162177,None,001,38,2019_Oct_17_1105,ACPT_experiment_5_30_19,3.1.0,59.942189001384925,
,,,C,D,d,v,L,D,d,R,c ,,,,,9,7,187,9,4,0,4,0,,,,,0,21,21,13,,,,,,up,2.451927880576477,3474.6120603130357,None,001,38,2019_Oct_17_1105,ACPT_experiment_5_30_19,3.1.0,59.942189001384925,
,,,C,D,d,v,L,D,d,L,c ,,,,,9,7,187,9,4,0,4,0,,,,,0,22,22,12,,,,,,down,1.0174508864602103,3478.331652269406,None,001,38,2019_Oct_17_1105,ACPT_experiment_5_30_19,3.1.0,59.942189001384925,
,,,C,D,d,v,L,G,d,L,i,,,,,9,7,187,9,4,0,4,0,,,,,0,23,23,16,,,,,,up,4.3700918532849755,3480.6334221106545,None,001,38,2019_Oct_17_1105,ACPT_experiment_5_30_19,3.1.0,59.942189001384925,
,,,C,D,d,v,R,U,y,R,u,,,,,9,7,187,9,4,0,4,0,,,,,0,24,24,31,,,,,,down,5.570994538428749,3486.3045424345632,None,001,38,2019_Oct_17_1105,ACPT_experiment_5_30_19,3.1.0,59.942189001384925,
,,,C,D,d,v,R,D,y,R,y,,,,,9,7,187,9,4,0,4,0,,,,,0,25,25,27,,,,,,down,0.7672657701996286,3493.1765533691764,None,001,38,2019_Oct_17_1105,ACPT_experiment_5_30_19,3.1.0,59.942189001384925,
,,,C,D,d,v,R,G,g,L,c ,,,,,9,7,187,9,4,0,4,0,,,,,0,26,26,6,,,,,,up,1.3010151887401662,3495.2281492630214,None,001,38,2019_Oct_17_1105,ACPT_experiment_5_30_19,3.1.0,59.942189001384925,
,,,C,D,d,v,R,D,d,R,c ,,,,,9,7,187,9,4,0,4,0,,,,,0,27,27,1,,,,,,up,0.7839315161904779,3497.8135132907887,None,001,38,2019_Oct_17_1105,ACPT_experiment_5_30_19,3.1.0,59.942189001384925,
,,,C,D,d,v,R,U,g,R,u,,,,,9,7,187,9,4,0,4,0,,,,,0,28,28,11,,,,,,up,2.7021069596166853,3499.881778552957,None,001,38,2019_Oct_17_1105,ACPT_experiment_5_30_19,3.1.0,59.942189001384925,
,,,C,D,d,v,L,G,d,R,i,,,,,9,7,187,9,4,0,4,0,,,,,0,29,29,17,,,,,,up,1.6345957462353908,3503.868232842296,None,001,38,2019_Oct_17_1105,ACPT_experiment_5_30_19,3.1.0,59.942189001384925,
,,,C,D,d,v,R,D,y,L,y,,,,,9,7,187,9,4,0,4,0,,,,,0,30,30,26,,,,,,down,9.407324898732895,3506.8038452865762,None,001,38,2019_Oct_17_1105,ACPT_experiment_5_30_19,3.1.0,59.942189001384925,
,,,C,D,d,v,R,G,y,R,y,,,,,9,7,187,9,4,0,4,0,,,,,0,31,31,29,,,,,,down,1.9681947172512082,3517.5288725521714,None,001,38,2019_Oct_17_1105,ACPT_experiment_5_30_19,3.1.0,59.942189001384925,
,,,C,D,d,v,R,G,y,L,y,,,,,9,7,187,9,4,0,4,0,,,,,0,32,32,28,,,,,,down,1.1010247275476104,3520.7645613974714,None,001,38,2019_Oct_17_1105,ACPT_experiment_5_30_19,3.1.0,59.942189001384925,
,,,C,D,d,v,L,U,d,L,u,,,,,9,7,187,9,4,0,4,0,,,,,0,33,33,20,,,,,,up,1.4678184475105809,3523.1499102114444,None,001,38,2019_Oct_17_1105,ACPT_experiment_5_30_19,3.1.0,59.942189001384925,
,,,C,D,d,v,L,G,g,R,c ,,,,,9,7,187,9,4,0,4,0,,,,,0,34,34,19,,,,,,up,0.7839363459665947,3525.9020711589014,None,001,38,2019_Oct_17_1105,ACPT_experiment_5_30_19,3.1.0,59.942189001384925,
,,,C,D,d,v,R,D,g,R,i,,,,,9,7,187,9,4,0,4,0,,,,,0,35,35,3,,,,,,up,0.5504879130326117,3527.9703207242974,None,001,38,2019_Oct_17_1105,ACPT_experiment_5_30_19,3.1.0,59.942189001384925,
,,,C,D,d,v,R,U,d,L,u,,,,,9,7,187,9,4,0,4,0,,,,,1,0,36,8,,,,,,down,1.400975554390243,3529.80519732201,None,001,38,2019_Oct_17_1105,ACPT_experiment_5_30_19,3.1.0,59.942189001384925,
,,,C,D,d,v,R,G,y,L,y,,,,,9,7,187,9,4,0,4,0,,,,,1,1,37,28,,,,,,down,1.0007658213653485,3532.5072194586846,None,001,38,2019_Oct_17_1105,ACPT_experiment_5_30_19,3.1.0,59.942189001384925,
,,,C,D,d,v,R,D,g,L,i,,,,,9,7,187,9,4,0,4,0,,,,,1,2,38,2,,,,,,up,2.4685972488991865,3534.8090219009214,None,001,38,2019_Oct_17_1105,ACPT_experiment_5_30_19,3.1.0,59.942189001384925,
,,,C,D,d,v,L,U,y,R,u,,,,,9,7,187,9,4,0,4,0,,,,,1,3,39,25,,,,,,down,2.7354710525860355,3538.5619326711108,None,001,38,2019_Oct_17_1105,ACPT_experiment_5_30_19,3.1.0,59.942189001384925,
,,,C,D,d,v,R,D,d,L,c,,,,,9,7,187,9,4,0,4,0,,,,,1,4,40,0,,,,,,up,4.203296442899955,3542.5817350547863,None,001,38,2019_Oct_17_1105,ACPT_experiment_5_30_19,3.1.0,59.942189001384925,
,,,C,D,d,v,L,G,y,L,y,,,,,9,7,187,9,4,0,4,0,,,,,1,5,41,34,,,,,,down,1.484493853053209,3548.0693450189765,None,001,38,2019_Oct_17_1105,ACPT_experiment_5_30_19,3.1.0,59.942189001384925,
,,,C,D,d,v,L,U,y,L,u,,,,,9,7,187,9,4,0,4,0,,,,,1,6,42,24,,,,,,down,4.503515926035561,3550.8381810701153,None,001,38,2019_Oct_17_1105,ACPT_experiment_5_30_19,3.1.0,59.942189001384925,
,,,C,D,d,v,R,D,g,R,i,,,,,9,7,187,9,4,0,4,0,,,,,1,7,43,3,,,,,,up,0.7839466092405019,3556.626009913719,None,001,38,2019_Oct_17_1105,ACPT_experiment_5_30_19,3.1.0,59.942189001384925,
,,,C,D,d,v,L,U,g,L,u,,,,,9,7,187,9,4,0,4,0,,,,,1,8,44,22,,,,,,up,2.3518594486868096,3558.69427306286,None,001,38,2019_Oct_17_1105,ACPT_experiment_5_30_19,3.1.0,59.942189001384925,
,,,C,D,d,v,R,G,d,L,i,,,,,9,7,187,9,4,0,4,0,,,,,1,9,45,4,,,,,,down,2.468588193069081,3562.330459616582,None,001,38,2019_Oct_17_1105,ACPT_experiment_5_30_19,3.1.0,59.942189001384925,
,,,C,D,d,v,L,D,y,L,y,,,,,9,7,187,9,4,0,4,0,,,,,1,10,46,32,,,,,,down,0.8006232222273866,3566.0833851779607,None,001,38,2019_Oct_17_1105,ACPT_experiment_5_30_19,3.1.0,59.942189001384925,
,,,C,D,d,v,R,G,g,L,c ,,,,,9,7,187,9,4,0,4,0,,,,,1,11,47,6,,,,,,up,0.6671840564263221,3568.1683512019954,None,001,38,2019_Oct_17_1105,ACPT_experiment_5_30_19,3.1.0,59.942189001384925,
,,,C,D,d,v,L,D,d,R,c ,,,,,9,7,187,9,4,0,4,0,,,,,1,12,48,13,,,,,,down,1.3510507630589927,3570.119867193233,None,001,38,2019_Oct_17_1105,ACPT_experiment_5_30_19,3.1.0,59.942189001384925,
,,,C,D,d,v,R,U,d,R,u,,,,,9,7,187,9,4,0,4,0,,,,,1,13,49,9,,,,,,up,1.034143498080084,3572.755253815297,None,001,38,2019_Oct_17_1105,ACPT_experiment_5_30_19,3.1.0,59.942189001384925,
,,,C,D,d,v,L,D,g,L,i,,,,,9,7,187,9,4,0,4,0,,,,,1,14,50,14,,,,,,up,1.6012500667870881,3575.073728644466,None,001,38,2019_Oct_17_1105,ACPT_experiment_5_30_19,3.1.0,59.942189001384925,
,,,C,D,d,v,L,D,d,L,c ,,,,,9,7,187,9,4,0,4,0,,,,,1,15,51,12,,,,,,down,1.0174662813715258,3577.959307627454,None,001,38,2019_Oct_17_1105,ACPT_experiment_5_30_19,3.1.0,59.942189001384925,
,,,C,D,d,v,R,G,y,R,y,,,,,9,7,187,9,4,0,4,0,,,,,1,16,52,29,,,,,,down,0.8173140226808755,3580.277789399426,None,001,38,2019_Oct_17_1105,ACPT_experiment_5_30_19,3.1.0,59.942189001384925,
,,,C,D,d,v,L,U,d,R,u,,,,,9,7,187,9,4,0,4,0,,,,,1,17,53,21,,,,,,down,1.2176158233123715,3582.3961062345466,None,001,38,2019_Oct_17_1105,ACPT_experiment_5_30_19,3.1.0,59.942189001384925,
,,,C,D,d,v,L,D,g,R,i,,,,,9,7,187,9,4,0,4,0,,,,,1,18,54,15,,,,,,up,0.8339661849267941,3584.8980597280292,None,001,38,2019_Oct_17_1105,ACPT_experiment_5_30_19,3.1.0,59.942189001384925,
,,,C,D,d,v,R,U,g,L,u,,,,,9,7,187,9,4,0,4,0,,,,,1,19,55,10,,,,,,up,1.1508903541225664,3587.016378978037,None,001,38,2019_Oct_17_1105,ACPT_experiment_5_30_19,3.1.0,59.942189001384925,
,,,C,D,d,v,R,G,g,R,c ,,,,,9,7,187,9,4,0,4,0,,,,,1,20,56,7,,,,,,up,0.7669928878531209,3589.4685561958026,None,001,38,2019_Oct_17_1105,ACPT_experiment_5_30_19,3.1.0,59.942189001384925,
,,,C,D,d,v,L,G,d,L,i,,,,,9,7,187,9,4,0,4,0,,,,,1,21,57,16,,,,,,up,1.3176767086765722,3591.519895809656,None,001,38,2019_Oct_17_1105,ACPT_experiment_5_30_19,3.1.0,59.942189001384925,
,,,C,D,d,v,R,D,y,L,y,,,,,9,7,187,9,4,0,4,0,,,,,1,22,58,26,,,,,,down,0.8673393337262496,3594.155272772168,None,001,38,2019_Oct_17_1105,ACPT_experiment_5_30_19,3.1.0,59.942189001384925,
,,,C,D,d,v,R,G,d,R,i,,,,,9,7,187,9,4,0,4,0,,,,,1,23,59,5,,,,,,up,1.96820135819371,3596.3069497760644,None,001,38,2019_Oct_17_1105,ACPT_experiment_5_30_19,3.1.0,59.942189001384925,
,,,C,D,d,v,L,G,d,R,i,,,,,9,7,187,9,4,0,4,0,,,,,1,24,60,17,,,,,,up,0.5504465580752367,3599.5594622406597,None,001,38,2019_Oct_17_1105,ACPT_experiment_5_30_19,3.1.0,59.942189001384925,
,,,C,D,d,v,R,D,y,R,y,,,,,9,7,187,9,4,0,4,0,,,,,1,25,61,27,,,,,,down,3.903038623417615,3601.4109312321393,None,001,38,2019_Oct_17_1105,ACPT_experiment_5_30_19,3.1.0,59.942189001384925,
,,,C,D,d,v,L,U,d,L,u,,,,,9,7,187,9,4,0,4,0,,,,,1,26,62,20,,,,,,down,1.317678519842957,3606.598316581557,None,001,38,2019_Oct_17_1105,ACPT_experiment_5_30_19,3.1.0,59.942189001384925,
,,,C,D,d,v,R,U,y,L,u,,,,,9,7,187,9,4,0,4,0,,,,,1,27,63,30,,,,,,down,0.7670662400764741,3609.2171738988036,None,001,38,2019_Oct_17_1105,ACPT_experiment_5_30_19,3.1.0,59.942189001384925,
,,,C,D,d,v,L,G,g,L,c ,,,,,9,7,187,9,4,0,4,0,,,,,1,28,64,18,,,,,,up,1.2843237845640942,3611.3019751067304,None,001,38,2019_Oct_17_1105,ACPT_experiment_5_30_19,3.1.0,59.942189001384925,
,,,C,D,d,v,R,D,d,R,c ,,,,,9,7,187,9,4,0,4,0,,,,,1,29,65,1,,,,,,down,1.234286097218046,3613.870654673125,None,001,38,2019_Oct_17_1105,ACPT_experiment_5_30_19,3.1.0,59.942189001384925,
,,,C,D,d,v,L,U,g,R,u,,,,,9,7,187,9,4,0,4,0,,,,,1,30,66,23,,,,,,up,3.6361759885871834,3616.389267875378,None,001,38,2019_Oct_17_1105,ACPT_experiment_5_30_19,3.1.0,59.942189001384925,
,,,C,D,d,v,L,G,g,R,c ,,,,,9,7,187,9,4,0,4,0,,,,,1,31,67,19,,,,,,up,1.718009902851918,3621.309771572723,None,001,38,2019_Oct_17_1105,ACPT_experiment_5_30_19,3.1.0,59.942189001384925,
,,,C,D,d,v,L,G,y,R,y,,,,,9,7,187,9,4,0,4,0,,,,,1,32,68,35,,,,,,down,1.7346883270047329,3624.312113712247,None,001,38,2019_Oct_17_1105,ACPT_experiment_5_30_19,3.1.0,59.942189001384925,
,,,C,D,d,v,R,U,y,R,u,,,,,9,7,187,9,4,0,4,0,,,,,1,33,69,31,,,,,,down,2.2851179808640154,3627.3311333703414,None,001,38,2019_Oct_17_1105,ACPT_experiment_5_30_19,3.1.0,59.942189001384925,
,,,C,D,d,v,R,U,g,R,u,,,,,9,7,187,9,4,0,4,0,,,,,1,34,70,11,,,,,,up,3.3526406649634737,3630.8838816185666,None,001,38,2019_Oct_17_1105,ACPT_experiment_5_30_19,3.1.0,59.942189001384925,
,,,C,D,d,v,L,D,y,R,y,,,,,9,7,187,9,4,0,4,0,,,,,1,35,71,33,,,,,,down,0.8840237950994378,3635.520846973677,None,001,38,2019_Oct_17_1105,ACPT_experiment_5_30_19,3.1.0,59.942189001384925,
,,,C,D,d,v,,,,,,,,,,9,7,187,9,5,0,5,0,0,0,0,0,,,,,,,,,,,,,,001,38,2019_Oct_17_1105,ACPT_experiment_5_30_19,3.1.0,59.942189001384925,
,,,C,D,d,v,R,D,g,R,i,,,,,9,7,187,9,5,0,5,0,,,,,0,0,0,3,,,,,,up,0.8336990379384588,3685.460073297889,None,001,38,2019_Oct_17_1105,ACPT_experiment_5_30_19,3.1.0,59.942189001384925,
,,,C,D,d,v,R,G,g,R,c ,,,,,9,7,187,9,5,0,5,0,,,,,0,1,1,7,,,,,,up,0.6838639898842303,3687.578120269272,None,001,38,2019_Oct_17_1105,ACPT_experiment_5_30_19,3.1.0,59.942189001384925,
,,,C,D,d,v,R,U,d,L,u,,,,,9,7,187,9,5,0,5,0,,,,,0,2,2,8,,,,,,up,0.8506533630488775,3689.5463195144384,None,001,38,2019_Oct_17_1105,ACPT_experiment_5_30_19,3.1.0,59.942189001384925,
,,,C,D,d,v,L,U,g,L,u,,,,,9,7,187,9,5,0,5,0,,,,,0,3,3,22,,,,,,up,0.6338661481904637,3691.6813045104373,None,001,38,2019_Oct_17_1105,ACPT_experiment_5_30_19,3.1.0,59.942189001384925,
