facing_vig,person_vig,text_vig,facing_train,person_train,food_train,correct_key_train,facing_exp,person_exp,food_exp,showL_R,consistent,vig_random.thisRepN,vig_random.thisTrialN,vig_random.thisN,vig_random.thisIndex,trainTrials.thisRepN,trainTrials.thisTrialN,trainTrials.thisN,trainTrials.thisIndex,expBlock.thisRepN,expBlock.thisTrialN,expBlock.thisN,expBlock.thisIndex,breakLoop.thisRepN,breakLoop.thisTrialN,breakLoop.thisN,breakLoop.thisIndex,expTrials.thisRepN,expTrials.thisTrialN,expTrials.thisN,expTrials.thisIndex,train_resp.keys,train_resp.corr,train_resp.rt,train_resp.started,train_resp.stopped,exp_resp.keys,exp_resp.rt,exp_resp.started,exp_resp.stopped,session,participant,date,expName,psychopyVersion,frameRate,
C,D,"is allergic to gluten, meaning she can’t eat wheat products. She enjoys eating dairy products. She thinks eating insects, like crickets, is disgusting.",,,,,,,,,,0,0,0,1,,,,,,,,,,,,,,,,,,,,,,,,,,001,39,2019_Oct_17_1220,ACPT_experiment_5_30_19,3.1.0,59.951952049586346,
C,U,"did not report her food preferences, so her food preferences are unknown.",,,,,,,,,,0,1,1,2,,,,,,,,,,,,,,,,,,,,,,,,,,001,39,2019_Oct_17_1220,ACPT_experiment_5_30_19,3.1.0,59.951952049586346,
C,G,"cannot eat dairy products because she is lactose intolerant. She enjoys eating wheat products. She thinks eating insects, like crickets, is disgusting.",,,,,,,,,,0,2,2,0,,,,,,,,,,,,,,,,,,,,,,,,,,001,39,2019_Oct_17_1220,ACPT_experiment_5_30_19,3.1.0,59.951952049586346,
,,,C,G,g,v,,,,,,,,,,0,0,0,13,,,,,,,,,,,,,v,1,2.435013099257958,203.4520957152945,None,,,,,001,39,2019_Oct_17_1220,ACPT_experiment_5_30_19,3.1.0,59.951952049586346,
,,,C,U,g,n,,,,,,,,,,0,1,1,16,,,,,,,,,,,,,b,0,1.200942832657347,209.17299955958515,None,,,,,001,39,2019_Oct_17_1220,ACPT_experiment_5_30_19,3.1.0,59.951952049586346,
,,,C,D,y,b,,,,,,,,,,0,2,2,11,,,,,,,,,,,,,n,0,1.6675640994299101,213.67689854723358,None,,,,,001,39,2019_Oct_17_1220,ACPT_experiment_5_30_19,3.1.0,59.951952049586346,
,,,C,G,g,v,,,,,,,,,,0,3,3,19,,,,,,,,,,,,,v,1,3.3359528831197167,218.630373918244,None,,,,,001,39,2019_Oct_17_1220,ACPT_experiment_5_30_19,3.1.0,59.951952049586346,
,,,C,G,y,b,,,,,,,,,,0,4,4,14,,,,,,,,,,,,,b,1,1.0508234315375375,225.25221392406365,None,,,,,001,39,2019_Oct_17_1220,ACPT_experiment_5_30_19,3.1.0,59.951952049586346,
,,,C,U,d,n,,,,,,,,,,0,5,5,6,,,,,,,,,,,,,b,0,2.4019164551382346,229.5889018387261,None,,,,,001,39,2019_Oct_17_1220,ACPT_experiment_5_30_19,3.1.0,59.951952049586346,
,,,C,D,g,b,,,,,,,,,,0,6,6,10,,,,,,,,,,,,,b,1,4.270014063704366,235.27669696445628,None,,,,,001,39,2019_Oct_17_1220,ACPT_experiment_5_30_19,3.1.0,59.951952049586346,
,,,C,U,y,n,,,,,,,,,,0,7,7,17,,,,,,,,,,,,,b,0,1.7847320515711544,242.8325869820028,None,,,,,001,39,2019_Oct_17_1220,ACPT_experiment_5_30_19,3.1.0,59.951952049586346,
,,,C,G,d,b,,,,,,,,,,0,8,8,12,,,,,,,,,,,,,b,1,2.4352367782621513,247.90320525069183,None,,,,,001,39,2019_Oct_17_1220,ACPT_experiment_5_30_19,3.1.0,59.951952049586346,
,,,C,U,y,n,,,,,,,,,,0,9,9,8,,,,,,,,,,,,,n,1,3.6028191402820084,253.6243345851517,None,,,,,001,39,2019_Oct_17_1220,ACPT_experiment_5_30_19,3.1.0,59.951952049586346,
,,,C,G,y,b,,,,,,,,,,0,10,10,5,,,,,,,,,,,,,b,1,1.517861870215711,260.51304024441106,None,,,,,001,39,2019_Oct_17_1220,ACPT_experiment_5_30_19,3.1.0,59.951952049586346,
,,,C,D,d,v,,,,,,,,,,0,11,11,18,,,,,,,,,,,,,v,1,3.052389486422726,265.31679135035483,None,,,,,001,39,2019_Oct_17_1220,ACPT_experiment_5_30_19,3.1.0,59.951952049586346,
,,,C,D,d,v,,,,,,,,,,0,12,12,9,,,,,,,,,,,,,v,1,2.968995554493631,271.6550652427286,None,,,,,001,39,2019_Oct_17_1220,ACPT_experiment_5_30_19,3.1.0,59.951952049586346,
,,,C,G,g,v,,,,,,,,,,0,13,13,4,,,,,,,,,,,,,b,0,1.7847214864359557,277.9099539571416,None,,,,,001,39,2019_Oct_17_1220,ACPT_experiment_5_30_19,3.1.0,59.951952049586346,
,,,C,D,y,b,,,,,,,,,,0,14,14,2,,,,,,,,,,,,,b,1,1.0341694581265983,282.9805447564786,None,,,,,001,39,2019_Oct_17_1220,ACPT_experiment_5_30_19,3.1.0,59.951952049586346,
,,,C,G,d,b,,,,,,,,,,0,15,15,3,,,,,,,,,,,,,v,0,3.7028993447502216,287.30060043172216,None,,,,,001,39,2019_Oct_17_1220,ACPT_experiment_5_30_19,3.1.0,59.951952049586346,
,,,C,U,d,n,,,,,,,,,,0,16,16,15,,,,,,,,,,,,,n,1,3.9864742121653762,294.28938599358935,None,,,,,001,39,2019_Oct_17_1220,ACPT_experiment_5_30_19,3.1.0,59.951952049586346,
,,,C,U,g,n,,,,,,,,,,0,17,17,7,,,,,,,,,,,,,n,1,0.7339010735076954,301.5617328391272,None,,,,,001,39,2019_Oct_17_1220,ACPT_experiment_5_30_19,3.1.0,59.951952049586346,
,,,C,D,d,v,,,,,,,,,,0,18,18,0,,,,,,,,,,,,,v,1,2.751908591658321,305.5984472873715,None,,,,,001,39,2019_Oct_17_1220,ACPT_experiment_5_30_19,3.1.0,59.951952049586346,
,,,C,D,g,b,,,,,,,,,,0,19,19,1,,,,,,,,,,,,,b,1,1.5345354645933185,311.6195739352688,None,,,,,001,39,2019_Oct_17_1220,ACPT_experiment_5_30_19,3.1.0,59.951952049586346,
,,,C,D,y,b,,,,,,,,,,1,0,20,2,,,,,,,,,,,,,b,1,1.3844447402689184,316.4232924402231,None,,,,,001,39,2019_Oct_17_1220,ACPT_experiment_5_30_19,3.1.0,59.951952049586346,
,,,C,D,d,v,,,,,,,,,,1,1,21,9,,,,,,,,,,,,,v,1,2.201480145243295,321.11055327197755,None,,,,,001,39,2019_Oct_17_1220,ACPT_experiment_5_30_19,3.1.0,59.951952049586346,
,,,C,G,y,b,,,,,,,,,,1,2,22,14,,,,,,,,,,,,,b,1,2.451913693109418,326.6145992659349,None,,,,,001,39,2019_Oct_17_1220,ACPT_experiment_5_30_19,3.1.0,59.951952049586346,
,,,C,D,g,b,,,,,,,,,,1,3,23,1,,,,,,,,,,,,,b,1,2.635403224418951,332.3524034022157,None,,,,,001,39,2019_Oct_17_1220,ACPT_experiment_5_30_19,3.1.0,59.951952049586346,
,,,C,G,g,v,,,,,,,,,,1,4,24,13,,,,,,,,,,,,,v,1,1.3677337151266329,338.27370039027664,None,,,,,001,39,2019_Oct_17_1220,ACPT_experiment_5_30_19,3.1.0,59.951952049586346,
,,,C,D,d,v,,,,,,,,,,1,5,25,18,,,,,,,,,,,,,v,1,1.600967524887892,342.94426921413196,None,,,,,001,39,2019_Oct_17_1220,ACPT_experiment_5_30_19,3.1.0,59.951952049586346,
,,,C,U,g,n,,,,,,,,,,1,6,26,7,,,,,,,,,,,,,n,1,1.100999371224134,347.8311446901298,None,,,,,001,39,2019_Oct_17_1220,ACPT_experiment_5_30_19,3.1.0,59.951952049586346,
,,,C,D,g,b,,,,,,,,,,1,7,27,10,,,,,,,,,,,,,v,0,3.152208279262595,352.2348481624067,None,,,,,001,39,2019_Oct_17_1220,ACPT_experiment_5_30_19,3.1.0,59.951952049586346,
,,,C,G,g,v,,,,,,,,,,1,8,28,4,,,,,,,,,,,,,v,1,1.0174723185909897,358.67293511226126,None,,,,,001,39,2019_Oct_17_1220,ACPT_experiment_5_30_19,3.1.0,59.951952049586346,
,,,C,D,d,v,,,,,,,,,,1,9,29,0,,,,,,,,,,,,,v,1,1.5342894478753806,362.99324012469333,None,,,,,001,39,2019_Oct_17_1220,ACPT_experiment_5_30_19,3.1.0,59.951952049586346,
,,,C,G,g,v,,,,,,,,,,1,10,30,19,,,,,,,,,,,,,v,1,1.0341703637095634,367.8133735291449,None,,,,,001,39,2019_Oct_17_1220,ACPT_experiment_5_30_19,3.1.0,59.951952049586346,
,,,C,U,d,n,,,,,,,,,,1,11,31,6,,,,,,,,,,,,,n,1,0.9173727950183093,372.1334467123261,None,,,,,001,39,2019_Oct_17_1220,ACPT_experiment_5_30_19,3.1.0,59.951952049586346,
,,,C,D,y,b,,,,,,,,,,1,12,32,11,,,,,,,,,,,,,b,1,1.2509696530078145,376.33672443984415,None,,,,,001,39,2019_Oct_17_1220,ACPT_experiment_5_30_19,3.1.0,59.951952049586346,
,,,C,U,y,n,,,,,,,,,,1,13,33,8,,,,,,,,,,,,,n,1,1.3010227352651782,380.8735836304404,None,,,,,001,39,2019_Oct_17_1220,ACPT_experiment_5_30_19,3.1.0,59.951952049586346,
,,,C,G,d,b,,,,,,,,,,1,14,34,12,,,,,,,,,,,,,b,1,3.8863761978973344,385.4604910735179,None,,,,,001,39,2019_Oct_17_1220,ACPT_experiment_5_30_19,3.1.0,59.951952049586346,
,,,C,U,g,n,,,,,,,,,,1,15,35,16,,,,,,,,,,,,,n,1,0.8673577472482066,392.63274745131275,None,,,,,001,39,2019_Oct_17_1220,ACPT_experiment_5_30_19,3.1.0,59.951952049586346,
,,,C,G,y,b,,,,,,,,,,1,16,36,5,,,,,,,,,,,,,n,0,0.8503997998059276,396.80293759053984,None,,,,,001,39,2019_Oct_17_1220,ACPT_experiment_5_30_19,3.1.0,59.951952049586346,
,,,C,G,d,b,,,,,,,,,,1,17,37,3,,,,,,,,,,,,,b,1,5.821214972426787,400.9392344744592,None,,,,,001,39,2019_Oct_17_1220,ACPT_experiment_5_30_19,3.1.0,59.951952049586346,
,,,C,U,y,n,,,,,,,,,,1,18,38,17,,,,,,,,,,,,,n,1,1.0007869516348364,410.0630116732673,None,,,,,001,39,2019_Oct_17_1220,ACPT_experiment_5_30_19,3.1.0,59.951952049586346,
,,,C,U,d,n,,,,,,,,,,1,19,39,15,,,,,,,,,,,,,n,1,1.3343762631002392,414.34970174623595,None,,,,,001,39,2019_Oct_17_1220,ACPT_experiment_5_30_19,3.1.0,59.951952049586346,
,,,C,D,d,v,,,,,,,,,,2,0,40,9,,,,,,,,,,,,,v,1,1.0508258464251412,418.96996211342594,None,,,,,001,39,2019_Oct_17_1220,ACPT_experiment_5_30_19,3.1.0,59.951952049586346,
,,,C,U,d,n,,,,,,,,,,2,1,41,15,,,,,,,,,,,,,n,1,0.817314626402549,423.3066762899962,None,,,,,001,39,2019_Oct_17_1220,ACPT_experiment_5_30_19,3.1.0,59.951952049586346,
,,,C,G,y,b,,,,,,,,,,2,2,42,14,,,,,,,,,,,,,b,1,1.634614461617275,427.4098852837633,None,,,,,001,39,2019_Oct_17_1220,ACPT_experiment_5_30_19,3.1.0,59.951952049586346,
,,,C,G,d,b,,,,,,,,,,2,3,43,3,,,,,,,,,,,,,b,1,3.4360225224536407,432.31369606762655,None,,,,,001,39,2019_Oct_17_1220,ACPT_experiment_5_30_19,3.1.0,59.951952049586346,
,,,C,D,g,b,,,,,,,,,,2,4,44,1,,,,,,,,,,,,,b,1,3.1691378517698467,439.0356202021085,None,,,,,001,39,2019_Oct_17_1220,ACPT_experiment_5_30_19,3.1.0,59.951952049586346,
,,,C,G,g,v,,,,,,,,,,2,5,45,4,,,,,,,,,,,,,v,1,1.2509717660341266,445.4906518175203,None,,,,,001,39,2019_Oct_17_1220,ACPT_experiment_5_30_19,3.1.0,59.951952049586346,
,,,C,D,g,b,,,,,,,,,,2,6,46,10,,,,,,,,,,,,,b,1,4.736630500699903,450.04457370132604,None,,,,,001,39,2019_Oct_17_1220,ACPT_experiment_5_30_19,3.1.0,59.951952049586346,
,,,C,U,y,n,,,,,,,,,,2,7,47,8,,,,,,,,,,,,,n,1,1.200972716897013,458.0670961545029,None,,,,,001,39,2019_Oct_17_1220,ACPT_experiment_5_30_19,3.1.0,59.951952049586346,
,,,C,D,d,v,,,,,,,,,,2,8,48,0,,,,,,,,,,,,,v,1,2.6184510123366636,462.5708982447695,None,,,,,001,39,2019_Oct_17_1220,ACPT_experiment_5_30_19,3.1.0,59.951952049586346,
,,,C,G,d,b,,,,,,,,,,2,9,49,12,,,,,,,,,,,,,b,1,2.485306161012886,468.47520891045406,None,,,,,001,39,2019_Oct_17_1220,ACPT_experiment_5_30_19,3.1.0,59.951952049586346,
,,,C,U,y,n,,,,,,,,,,2,10,50,17,,,,,,,,,,,,,n,1,1.4010733573559264,474.2464097406928,None,,,,,001,39,2019_Oct_17_1220,ACPT_experiment_5_30_19,3.1.0,59.951952049586346,
,,,C,D,y,b,,,,,,,,,,2,11,51,2,,,,,,,,,,,,,b,1,1.3507944830680572,478.9503363184367,None,,,,,001,39,2019_Oct_17_1220,ACPT_experiment_5_30_19,3.1.0,59.951952049586346,
,,,C,U,d,n,,,,,,,,,,2,12,52,6,,,,,,,,,,,,,n,1,1.067503364994991,483.58702456514675,None,,,,,001,39,2019_Oct_17_1220,ACPT_experiment_5_30_19,3.1.0,59.951952049586346,
,,,C,D,y,b,,,,,,,,,,2,13,53,11,,,,,,,,,,,,,b,1,1.1339870435213015,487.9740091638969,None,,,,,001,39,2019_Oct_17_1220,ACPT_experiment_5_30_19,3.1.0,59.951952049586346,
,,,C,U,g,n,,,,,,,,,,2,14,54,7,,,,,,,,,,,,,n,1,1.2342912288549996,492.39389842316905,None,,,,,001,39,2019_Oct_17_1220,ACPT_experiment_5_30_19,3.1.0,59.951952049586346,
,,,C,G,g,v,,,,,,,,,,2,15,55,13,,,,,,,,,,,,,v,1,3.00194579602703,496.93113222326974,None,,,,,001,39,2019_Oct_17_1220,ACPT_experiment_5_30_19,3.1.0,59.951952049586346,
,,,C,D,d,v,,,,,,,,,,2,16,56,18,,,,,,,,,,,,,v,1,0.8339987859153553,503.21899291320915,None,,,,,001,39,2019_Oct_17_1220,ACPT_experiment_5_30_19,3.1.0,59.951952049586346,
,,,C,U,g,n,,,,,,,,,,2,17,57,16,,,,,,,,,,,,,n,1,0.9007109732210665,507.338871879022,None,,,,,001,39,2019_Oct_17_1220,ACPT_experiment_5_30_19,3.1.0,59.951952049586346,
,,,C,G,y,b,,,,,,,,,,2,18,58,5,,,,,,,,,,,,,b,1,1.7180252977632335,511.52545518375337,None,,,,,001,39,2019_Oct_17_1220,ACPT_experiment_5_30_19,3.1.0,59.951952049586346,
,,,C,G,g,v,,,,,,,,,,2,19,59,19,,,,,,,,,,,,,v,1,2.1850395875617323,516.5293799805186,None,,,,,001,39,2019_Oct_17_1220,ACPT_experiment_5_30_19,3.1.0,59.951952049586346,
,,,C,G,g,v,,,,,,,,,,3,0,60,13,,,,,,,,,,,,,v,1,1.4012520590695203,521.9834752230981,None,,,,,001,39,2019_Oct_17_1220,ACPT_experiment_5_30_19,3.1.0,59.951952049586346,
,,,C,G,d,b,,,,,,,,,,3,1,61,3,,,,,,,,,,,,,b,1,2.151425251820001,526.6708782313844,None,,,,,001,39,2019_Oct_17_1220,ACPT_experiment_5_30_19,3.1.0,59.951952049586346,
,,,C,D,g,b,,,,,,,,,,3,2,62,1,,,,,,,,,,,,,b,1,2.8188580417127014,532.1082023784838,None,,,,,001,39,2019_Oct_17_1220,ACPT_experiment_5_30_19,3.1.0,59.951952049586346,
,,,C,U,g,n,,,,,,,,,,3,3,63,16,,,,,,,,,,,,,n,1,1.4678235791479892,538.2129430149816,None,,,,,001,39,2019_Oct_17_1220,ACPT_experiment_5_30_19,3.1.0,59.951952049586346,
,,,C,D,g,b,,,,,,,,,,3,4,64,10,,,,,,,,,,,,,b,1,2.2684736670044003,542.9666633763818,None,,,,,001,39,2019_Oct_17_1220,ACPT_experiment_5_30_19,3.1.0,59.951952049586346,
,,,C,D,y,b,,,,,,,,,,3,5,65,11,,,,,,,,,,,,,b,1,0.8673547286380199,548.5043028776718,None,,,,,001,39,2019_Oct_17_1220,ACPT_experiment_5_30_19,3.1.0,59.951952049586346,
,,,C,U,d,n,,,,,,,,,,3,6,66,15,,,,,,,,,,,,,n,1,1.0172238869863577,552.6744715847672,None,,,,,001,39,2019_Oct_17_1220,ACPT_experiment_5_30_19,3.1.0,59.951952049586346,
,,,C,U,y,n,,,,,,,,,,3,7,67,8,,,,,,,,,,,,,n,1,1.2342951530481514,556.9609086982155,None,,,,,001,39,2019_Oct_17_1220,ACPT_experiment_5_30_19,3.1.0,59.951952049586346,
,,,C,D,d,v,,,,,,,,,,3,8,68,0,,,,,,,,,,,,,v,1,2.1013739807285674,561.4980440916297,None,,,,,001,39,2019_Oct_17_1220,ACPT_experiment_5_30_19,3.1.0,59.951952049586346,
,,,C,U,y,n,,,,,,,,,,3,9,69,17,,,,,,,,,,,,,n,1,1.0007881590800025,566.8853064025025,None,,,,,001,39,2019_Oct_17_1220,ACPT_experiment_5_30_19,3.1.0,59.951952049586346,
,,,C,G,g,v,,,,,,,,,,3,10,70,4,,,,,,,,,,,,,v,1,4.01956572464951,571.1889088419011,None,,,,,001,39,2019_Oct_17_1220,ACPT_experiment_5_30_19,3.1.0,59.951952049586346,
,,,C,G,g,v,,,,,,,,,,3,11,71,19,,,,,,,,,,,,,b,0,1.501174692094537,578.4776808502102,None,,,,,001,39,2019_Oct_17_1220,ACPT_experiment_5_30_19,3.1.0,59.951952049586346,
,,,C,D,d,v,,,,,,,,,,3,12,72,18,,,,,,,,,,,,,v,1,1.6179312076883434,583.2647471929195,None,,,,,001,39,2019_Oct_17_1220,ACPT_experiment_5_30_19,3.1.0,59.951952049586346,
,,,C,U,g,n,,,,,,,,,,3,13,73,7,,,,,,,,,,,,,n,1,1.0841938635885526,588.1685631084201,None,,,,,001,39,2019_Oct_17_1220,ACPT_experiment_5_30_19,3.1.0,59.951952049586346,
,,,C,G,d,b,,,,,,,,,,3,14,74,12,,,,,,,,,,,,,b,1,2.2680386852989614,592.5557007506986,None,,,,,001,39,2019_Oct_17_1220,ACPT_experiment_5_30_19,3.1.0,59.951952049586346,
,,,C,D,d,v,,,,,,,,,,3,15,75,9,,,,,,,,,,,,,v,1,1.2342987753800116,598.1096573485192,None,,,,,001,39,2019_Oct_17_1220,ACPT_experiment_5_30_19,3.1.0,59.951952049586346,
,,,C,D,y,b,,,,,,,,,,3,16,76,2,,,,,,,,,,,,,b,1,1.0505792259864393,602.646765876304,None,,,,,001,39,2019_Oct_17_1220,ACPT_experiment_5_30_19,3.1.0,59.951952049586346,
,,,C,G,y,b,,,,,,,,,,3,17,77,5,,,,,,,,,,,,,b,1,0.8340033138301806,606.9832286026585,None,,,,,001,39,2019_Oct_17_1220,ACPT_experiment_5_30_19,3.1.0,59.951952049586346,
,,,C,U,d,n,,,,,,,,,,3,18,78,6,,,,,,,,,,,,,n,1,1.4675908443141452,611.1200368391173,None,,,,,001,39,2019_Oct_17_1220,ACPT_experiment_5_30_19,3.1.0,59.951952049586346,
,,,C,G,y,b,,,,,,,,,,3,19,79,14,,,,,,,,,,,,,b,1,1.034149233439166,615.8735075614677,None,,,,,001,39,2019_Oct_17_1220,ACPT_experiment_5_30_19,3.1.0,59.951952049586346,
,,,C,G,y,b,,,,,,,,,,4,0,80,14,,,,,,,,,,,,,b,1,1.0808646385830798,620.2135410016299,None,,,,,001,39,2019_Oct_17_1220,ACPT_experiment_5_30_19,3.1.0,59.951952049586346,
,,,C,D,y,b,,,,,,,,,,4,1,81,11,,,,,,,,,,,,,b,1,0.8006349948063871,624.5802912536083,None,,,,,001,39,2019_Oct_17_1220,ACPT_experiment_5_30_19,3.1.0,59.951952049586346,
,,,C,G,g,v,,,,,,,,,,4,2,82,19,,,,,,,,,,,,,v,1,1.7843296708533671,628.6838736494365,None,,,,,001,39,2019_Oct_17_1220,ACPT_experiment_5_30_19,3.1.0,59.951952049586346,
,,,C,G,g,v,,,,,,,,,,4,3,83,4,,,,,,,,,,,,,v,1,1.0009399951641171,633.7372843316334,None,,,,,001,39,2019_Oct_17_1220,ACPT_experiment_5_30_19,3.1.0,59.951952049586346,
,,,C,G,d,b,,,,,,,,,,4,4,84,3,,,,,,,,,,,,,b,1,1.0141421880034613,638.0441094391035,None,,,,,001,39,2019_Oct_17_1220,ACPT_experiment_5_30_19,3.1.0,59.951952049586346,
,,,C,U,d,n,,,,,,,,,,4,5,85,6,,,,,,,,,,,,,n,1,1.68465697873944,642.344144485166,None,,,,,001,39,2019_Oct_17_1220,ACPT_experiment_5_30_19,3.1.0,59.951952049586346,
,,,C,U,d,n,,,,,,,,,,4,6,86,15,,,,,,,,,,,,,n,1,0.8674978107528659,647.2978619487003,None,,,,,001,39,2019_Oct_17_1220,ACPT_experiment_5_30_19,3.1.0,59.951952049586346,
,,,C,G,g,v,,,,,,,,,,4,7,87,13,,,,,,,,,,,,,v,1,2.4348147765795147,651.4683304037726,None,,,,,001,39,2019_Oct_17_1220,ACPT_experiment_5_30_19,3.1.0,59.951952049586346,
,,,C,G,y,b,,,,,,,,,,4,8,88,5,,,,,,,,,,,,,b,1,0.717236233100266,657.172368670088,None,,,,,001,39,2019_Oct_17_1220,ACPT_experiment_5_30_19,3.1.0,59.951952049586346,
,,,C,D,d,v,,,,,,,,,,4,9,89,18,,,,,,,,,,,,,v,1,0.800235632699696,661.1925417390758,None,,,,,001,39,2019_Oct_17_1220,ACPT_experiment_5_30_19,3.1.0,59.951952049586346,
,,,C,U,g,n,,,,,,,,,,4,10,90,7,,,,,,,,,,,,,n,1,1.1175582584191943,665.2786907563823,None,,,,,001,39,2019_Oct_17_1220,ACPT_experiment_5_30_19,3.1.0,59.951952049586346,
,,,C,D,g,b,,,,,,,,,,4,11,91,10,,,,,,,,,,,,,b,1,2.4516465461219923,669.699079293754,None,,,,,001,39,2019_Oct_17_1220,ACPT_experiment_5_30_19,3.1.0,59.951952049586346,
,,,C,D,d,v,,,,,,,,,,4,12,92,0,,,,,,,,,,,,,v,1,0.9839841607490598,675.4366132644373,None,,,,,001,39,2019_Oct_17_1220,ACPT_experiment_5_30_19,3.1.0,59.951952049586346,
,,,C,U,y,n,,,,,,,,,,4,13,93,17,,,,,,,,,,,,,b,0,0.7505731585797548,679.7399820634191,None,,,,,001,39,2019_Oct_17_1220,ACPT_experiment_5_30_19,3.1.0,59.951952049586346,
,,,C,G,d,b,,,,,,,,,,4,14,94,12,,,,,,,,,,,,,b,1,2.201723747073629,683.7764544191396,None,,,,,001,39,2019_Oct_17_1220,ACPT_experiment_5_30_19,3.1.0,59.951952049586346,
,,,C,D,d,v,,,,,,,,,,4,15,95,9,,,,,,,,,,,,,v,1,2.3018111962055627,689.2640405363109,None,,,,,001,39,2019_Oct_17_1220,ACPT_experiment_5_30_19,3.1.0,59.951952049586346,
,,,C,D,g,b,,,,,,,,,,4,16,96,1,,,,,,,,,,,,,b,1,1.4845050219109908,694.8350697887554,None,,,,,001,39,2019_Oct_17_1220,ACPT_experiment_5_30_19,3.1.0,59.951952049586346,
,,,C,D,y,b,,,,,,,,,,4,17,97,2,,,,,,,,,,,,,b,1,0.8673655956336006,699.5887620770818,None,,,,,001,39,2019_Oct_17_1220,ACPT_experiment_5_30_19,3.1.0,59.951952049586346,
,,,C,U,y,n,,,,,,,,,,4,18,98,8,,,,,,,,,,,,,n,1,1.167228279063238,703.7590282852816,None,,,,,001,39,2019_Oct_17_1220,ACPT_experiment_5_30_19,3.1.0,59.951952049586346,
,,,C,U,g,n,,,,,,,,,,4,19,99,16,,,,,,,,,,,,,n,1,1.3677322058219943,708.1954975620201,None,,,,,001,39,2019_Oct_17_1220,ACPT_experiment_5_30_19,3.1.0,59.951952049586346,
,,,C,G,g,v,,,,,,,,,,5,0,100,19,,,,,,,,,,,,,v,1,1.384154349982964,712.866066989598,None,,,,,001,39,2019_Oct_17_1220,ACPT_experiment_5_30_19,3.1.0,59.951952049586346,
,,,C,G,d,b,,,,,,,,,,5,1,101,3,,,,,,,,,,,,,b,1,1.267665283237875,717.5194233971861,None,,,,,001,39,2019_Oct_17_1220,ACPT_experiment_5_30_19,3.1.0,59.951952049586346,
,,,C,D,d,v,,,,,,,,,,5,2,102,0,,,,,,,,,,,,,v,1,1.3341121347220906,722.0899246947356,None,,,,,001,39,2019_Oct_17_1220,ACPT_experiment_5_30_19,3.1.0,59.951952049586346,
,,,C,D,y,b,,,,,,,,,,5,3,103,11,,,,,,,,,,,,,b,1,1.117547089562322,726.6932437168389,None,,,,,001,39,2019_Oct_17_1220,ACPT_experiment_5_30_19,3.1.0,59.951952049586346,
,,,C,G,g,v,,,,,,,,,,5,4,104,13,,,,,,,,,,,,,v,1,2.5851210296596037,731.1136059923037,None,,,,,001,39,2019_Oct_17_1220,ACPT_experiment_5_30_19,3.1.0,59.951952049586346,
,,,C,U,y,n,,,,,,,,,,5,5,105,8,,,,,,,,,,,,,n,1,1.4010866392400203,736.9846180688564,None,,,,,001,39,2019_Oct_17_1220,ACPT_experiment_5_30_19,3.1.0,59.951952049586346,
,,,C,G,g,v,,,,,,,,,,5,6,106,4,,,,,,,,,,,,,v,1,1.9844810239610524,741.688665994724,None,,,,,001,39,2019_Oct_17_1220,ACPT_experiment_5_30_19,3.1.0,59.951952049586346,
,,,C,D,g,b,,,,,,,,,,5,7,107,1,,,,,,,,,,,,,b,1,2.8021983329426803,746.9590498381576,None,,,,,001,39,2019_Oct_17_1220,ACPT_experiment_5_30_19,3.1.0,59.951952049586346,
,,,C,U,g,n,,,,,,,,,,5,8,108,7,,,,,,,,,,,,,n,1,1.1842493154545082,753.0471452552129,None,,,,,001,39,2019_Oct_17_1220,ACPT_experiment_5_30_19,3.1.0,59.951952049586346,
,,,C,U,d,n,,,,,,,,,,5,9,109,15,,,,,,,,,,,,,n,1,1.3010474878674358,757.5006080989915,None,,,,,001,39,2019_Oct_17_1220,ACPT_experiment_5_30_19,3.1.0,59.951952049586346,
,,,C,U,g,n,,,,,,,,,,5,10,110,16,,,,,,,,,,,,,n,1,1.3844290434963114,762.0708295713912,None,,,,,001,39,2019_Oct_17_1220,ACPT_experiment_5_30_19,3.1.0,59.951952049586346,
,,,C,D,d,v,,,,,,,,,,5,11,111,18,,,,,,,,,,,,,v,1,3.3025688673242257,766.7411550952784,None,,,,,001,39,2019_Oct_17_1220,ACPT_experiment_5_30_19,3.1.0,59.951952049586346,
,,,C,G,y,b,,,,,,,,,,5,12,112,14,,,,,,,,,,,,,b,1,1.3677469970116363,773.329607764831,None,,,,,001,39,2019_Oct_17_1220,ACPT_experiment_5_30_19,3.1.0,59.951952049586346,
,,,C,G,d,b,,,,,,,,,,5,13,113,12,,,,,,,,,,,,,b,1,1.4811812304042178,778.0032347425113,None,,,,,001,39,2019_Oct_17_1220,ACPT_experiment_5_30_19,3.1.0,59.951952049586346,
,,,C,D,y,b,,,,,,,,,,5,14,114,2,,,,,,,,,,,,,b,1,1.2009413233527084,782.7703097365575,None,,,,,001,39,2019_Oct_17_1220,ACPT_experiment_5_30_19,3.1.0,59.951952049586346,
,,,C,D,g,b,,,,,,,,,,5,15,115,10,,,,,,,,,,,,,b,1,3.2325455666732523,787.2771379833821,None,,,,,001,39,2019_Oct_17_1220,ACPT_experiment_5_30_19,3.1.0,59.951952049586346,
,,,C,D,d,v,,,,,,,,,,5,16,116,9,,,,,,,,,,,,,v,1,1.2510167433247261,793.7788907392969,None,,,,,001,39,2019_Oct_17_1220,ACPT_experiment_5_30_19,3.1.0,59.951952049586346,
,,,C,U,d,n,,,,,,,,,,5,17,117,6,,,,,,,,,,,,,n,1,1.0341667413777031,798.3157369498704,None,,,,,001,39,2019_Oct_17_1220,ACPT_experiment_5_30_19,3.1.0,59.951952049586346,
,,,C,U,y,n,,,,,,,,,,5,18,118,17,,,,,,,,,,,,,n,1,1.0007957056050145,802.6191151065441,None,,,,,001,39,2019_Oct_17_1220,ACPT_experiment_5_30_19,3.1.0,59.951952049586346,
,,,C,G,y,b,,,,,,,,,,5,19,119,5,0,0,0,0,0,0,0,0,,,,,b,1,1.4008617527924798,806.9227060752246,None,,,,,001,39,2019_Oct_17_1220,ACPT_experiment_5_30_19,3.1.0,59.951952049586346,
,,,C,G,y,b,L,U,y,L,u,,,,,5,19,119,5,0,0,0,0,,,,,0,0,0,24,,,,,,down,0.9674316126347549,849.2721548619393,None,001,39,2019_Oct_17_1220,ACPT_experiment_5_30_19,3.1.0,59.951952049586346,
,,,C,G,y,b,L,G,g,L,c ,,,,,5,19,119,5,0,0,0,0,,,,,0,1,1,18,,,,,,up,1.0174647720659777,851.5239120703054,None,001,39,2019_Oct_17_1220,ACPT_experiment_5_30_19,3.1.0,59.951952049586346,
,,,C,G,y,b,R,G,g,L,c ,,,,,5,19,119,5,0,0,0,0,,,,,0,2,2,6,,,,,,up,0.8840204746275049,853.8257105883486,None,001,39,2019_Oct_17_1220,ACPT_experiment_5_30_19,3.1.0,59.951952049586346,
,,,C,G,y,b,R,G,y,L,y,,,,,5,19,119,5,0,0,0,0,,,,,0,3,3,28,,,,,,down,0.700540904731497,855.9940705443132,None,001,39,2019_Oct_17_1220,ACPT_experiment_5_30_19,3.1.0,59.951952049586346,
,,,C,G,y,b,R,D,g,L,i,,,,,5,19,119,5,0,0,0,0,,,,,0,4,4,2,,,,,,up,0.9840828692977084,857.9789497229376,None,001,39,2019_Oct_17_1220,ACPT_experiment_5_30_19,3.1.0,59.951952049586346,
,,,C,G,y,b,L,U,y,R,u,,,,,5,19,119,5,0,0,0,0,,,,,0,5,5,25,,,,,,down,0.9007073508892063,860.2473829405671,None,001,39,2019_Oct_17_1220,ACPT_experiment_5_30_19,3.1.0,59.951952049586346,
,,,C,G,y,b,L,D,d,R,c ,,,,,5,19,119,5,0,0,0,0,,,,,0,6,6,13,,,,,,up,0.8840479439795672,862.4323962662211,None,001,39,2019_Oct_17_1220,ACPT_experiment_5_30_19,3.1.0,59.951952049586346,
,,,C,G,y,b,L,U,g,R,u,,,,,5,19,119,5,0,0,0,0,,,,,0,7,7,23,,,,,,up,0.7338998660643483,864.6007858045641,None,001,39,2019_Oct_17_1220,ACPT_experiment_5_30_19,3.1.0,59.951952049586346,
,,,C,G,y,b,R,G,d,L,i,,,,,5,19,119,5,0,0,0,0,,,,,0,8,8,4,,,,,,up,0.8173028538240033,866.6190218314941,None,001,39,2019_Oct_17_1220,ACPT_experiment_5_30_19,3.1.0,59.951952049586346,
,,,C,G,y,b,L,D,g,R,i,,,,,5,19,119,5,0,0,0,0,,,,,0,9,9,15,,,,,,up,0.6838836108490796,868.720643036384,None,001,39,2019_Oct_17_1220,ACPT_experiment_5_30_19,3.1.0,59.951952049586346,
,,,C,G,y,b,R,D,g,R,i,,,,,5,19,119,5,0,0,0,0,,,,,0,10,10,3,,,,,,up,0.6338447160587748,870.6888606950715,None,001,39,2019_Oct_17_1220,ACPT_experiment_5_30_19,3.1.0,59.951952049586346,
,,,C,G,y,b,L,G,d,R,i,,,,,5,19,119,5,0,0,0,0,,,,,0,11,11,17,,,,,,up,1.20092894705067,872.6070234603358,None,001,39,2019_Oct_17_1220,ACPT_experiment_5_30_19,3.1.0,59.951952049586346,
,,,C,G,y,b,R,U,d,L,u,,,,,5,19,119,5,0,0,0,0,,,,,0,12,12,8,,,,,,up,0.6504452600729564,875.1090309869378,None,001,39,2019_Oct_17_1220,ACPT_experiment_5_30_19,3.1.0,59.951952049586346,
,,,C,G,y,b,R,U,y,L,u,,,,,5,19,119,5,0,0,0,0,,,,,0,13,13,30,,,,,,down,0.850698944060241,877.0437973148264,None,001,39,2019_Oct_17_1220,ACPT_experiment_5_30_19,3.1.0,59.951952049586346,
,,,C,G,y,b,R,D,y,R,y,,,,,5,19,119,5,0,0,0,0,,,,,0,14,14,27,,,,,,down,0.7839327236351892,879.1954975620201,None,001,39,2019_Oct_17_1220,ACPT_experiment_5_30_19,3.1.0,59.951952049586346,
,,,C,G,y,b,L,G,d,L,i,,,,,5,19,119,5,0,0,0,0,,,,,0,15,15,16,,,,,,down,1.1342297397686707,881.2637595037168,None,001,39,2019_Oct_17_1220,ACPT_experiment_5_30_19,3.1.0,59.951952049586346,
,,,C,G,y,b,R,U,d,R,u,,,,,5,19,119,5,0,0,0,0,,,,,0,16,16,9,,,,,,up,1.1342499644551935,883.682345025316,None,001,39,2019_Oct_17_1220,ACPT_experiment_5_30_19,3.1.0,59.951952049586346,
,,,C,G,y,b,L,U,d,R,u,,,,,5,19,119,5,0,0,0,0,,,,,0,17,17,21,,,,,,up,1.0841633756263036,886.100894625456,None,001,39,2019_Oct_17_1220,ACPT_experiment_5_30_19,3.1.0,59.951952049586346,
,,,C,G,y,b,L,G,y,L,y,,,,,5,19,119,5,0,0,0,0,,,,,0,18,18,34,,,,,,down,0.7005412065927885,888.4693923507821,None,001,39,2019_Oct_17_1220,ACPT_experiment_5_30_19,3.1.0,59.951952049586346,
,,,C,G,y,b,R,D,d,L,c,,,,,5,19,119,5,0,0,0,0,,,,,0,19,19,0,,,,,,up,0.9006847113141703,890.4542884336224,None,001,39,2019_Oct_17_1220,ACPT_experiment_5_30_19,3.1.0,59.951952049586346,
,,,C,G,y,b,R,G,g,R,c ,,,,,5,19,119,5,0,0,0,0,,,,,0,20,20,7,,,,,,up,0.7172220456341165,892.6393123244115,None,001,39,2019_Oct_17_1220,ACPT_experiment_5_30_19,3.1.0,59.951952049586346,
,,,C,G,y,b,L,G,y,R,y,,,,,5,19,119,5,0,0,0,0,,,,,0,21,21,35,,,,,,down,0.8339707128416194,894.6408823034899,None,001,39,2019_Oct_17_1220,ACPT_experiment_5_30_19,3.1.0,59.951952049586346,
,,,C,G,y,b,R,D,d,R,c ,,,,,5,19,119,5,0,0,0,0,,,,,0,22,22,1,,,,,,up,0.967418934473244,896.759192799529,None,001,39,2019_Oct_17_1220,ACPT_experiment_5_30_19,3.1.0,59.951952049586346,
,,,C,G,y,b,R,G,y,R,y,,,,,5,19,119,5,0,0,0,0,,,,,0,23,23,29,,,,,,down,0.633824793232634,899.0109475930058,None,001,39,2019_Oct_17_1220,ACPT_experiment_5_30_19,3.1.0,59.951952049586346,
,,,C,G,y,b,R,G,d,R,i,,,,,5,19,119,5,0,0,0,0,,,,,0,24,24,5,,,,,,up,0.984092528849942,900.9291145843245,None,001,39,2019_Oct_17_1220,ACPT_experiment_5_30_19,3.1.0,59.951952049586346,
,,,C,G,y,b,L,D,y,R,y,,,,,5,19,119,5,0,0,0,0,,,,,0,25,25,33,,,,,,down,0.8840041741341338,903.2142407154352,None,001,39,2019_Oct_17_1220,ACPT_experiment_5_30_19,3.1.0,59.951952049586346,
,,,C,G,y,b,R,U,g,L,u,,,,,5,19,119,5,0,0,0,0,,,,,0,26,26,10,,,,,,up,0.800609940342838,905.3992736620539,None,001,39,2019_Oct_17_1220,ACPT_experiment_5_30_19,3.1.0,59.951952049586346,
,,,C,G,y,b,L,U,g,L,u,,,,,5,19,119,5,0,0,0,0,,,,,0,27,27,22,,,,,,up,0.70054150845408,907.484220366985,None,001,39,2019_Oct_17_1220,ACPT_experiment_5_30_19,3.1.0,59.951952049586346,
,,,C,G,y,b,L,G,g,R,c ,,,,,5,19,119,5,0,0,0,0,,,,,0,28,28,19,,,,,,up,0.8840174560182277,909.4691040735242,None,001,39,2019_Oct_17_1220,ACPT_experiment_5_30_19,3.1.0,59.951952049586346,
,,,C,G,y,b,L,D,y,L,y,,,,,5,19,119,5,0,0,0,0,,,,,0,29,29,32,,,,,,down,0.6338163411246569,911.6374649350719,None,001,39,2019_Oct_17_1220,ACPT_experiment_5_30_19,3.1.0,59.951952049586346,
,,,C,G,y,b,L,D,g,L,i,,,,,5,19,119,5,0,0,0,0,,,,,0,30,30,14,,,,,,up,0.6838576508025653,913.5556198519498,None,001,39,2019_Oct_17_1220,ACPT_experiment_5_30_19,3.1.0,59.951952049586346,
,,,C,G,y,b,R,U,y,R,u,,,,,5,19,119,5,0,0,0,0,,,,,0,31,31,31,,,,,,down,0.7005240005155429,915.5238414348305,None,001,39,2019_Oct_17_1220,ACPT_experiment_5_30_19,3.1.0,59.951952049586346,
,,,C,G,y,b,R,U,g,R,u,,,,,5,19,119,5,0,0,0,0,,,,,0,32,32,11,,,,,,up,0.6505014062195187,917.5087040110993,None,001,39,2019_Oct_17_1220,ACPT_experiment_5_30_19,3.1.0,59.951952049586346,
,,,C,G,y,b,L,D,d,L,c ,,,,,5,19,119,5,0,0,0,0,,,,,0,33,33,12,,,,,,up,0.5671237747837949,919.4435455023768,None,001,39,2019_Oct_17_1220,ACPT_experiment_5_30_19,3.1.0,59.951952049586346,
,,,C,G,y,b,L,U,d,L,u,,,,,5,19,119,5,0,0,0,0,,,,,0,34,34,20,,,,,,up,0.6505035192458308,921.2949867226444,None,001,39,2019_Oct_17_1220,ACPT_experiment_5_30_19,3.1.0,59.951952049586346,
,,,C,G,y,b,R,D,y,L,y,,,,,5,19,119,5,0,0,0,0,,,,,0,35,35,26,,,,,,down,0.7339285428588482,923.2298079892344,None,001,39,2019_Oct_17_1220,ACPT_experiment_5_30_19,3.1.0,59.951952049586346,
,,,C,G,y,b,R,D,d,R,c ,,,,,5,19,119,5,0,0,0,0,,,,,1,0,36,1,,,,,,up,0.8673420504755995,925.2480690706279,None,001,39,2019_Oct_17_1220,ACPT_experiment_5_30_19,3.1.0,59.951952049586346,
,,,C,G,y,b,L,G,y,R,y,,,,,5,19,119,5,0,0,0,0,,,,,1,1,37,35,,,,,,down,1.2176242754203486,927.4164353656734,None,001,39,2019_Oct_17_1220,ACPT_experiment_5_30_19,3.1.0,59.951952049586346,
,,,C,G,y,b,L,G,d,R,i,,,,,5,19,119,5,0,0,0,0,,,,,1,2,38,17,,,,,,up,0.7005617331406029,929.9350383046522,None,001,39,2019_Oct_17_1220,ACPT_experiment_5_30_19,3.1.0,59.951952049586346,
,,,C,G,y,b,L,D,d,L,c ,,,,,5,19,119,5,0,0,0,0,,,,,1,3,39,12,,,,,,up,0.6334036971329624,931.9370052309496,None,001,39,2019_Oct_17_1220,ACPT_experiment_5_30_19,3.1.0,59.951952049586346,
,,,C,G,y,b,R,G,g,R,c ,,,,,5,19,119,5,0,0,0,0,,,,,1,4,40,7,,,,,,up,0.8006177887291415,933.8547831234346,None,001,39,2019_Oct_17_1220,ACPT_experiment_5_30_19,3.1.0,59.951952049586346,
,,,C,G,y,b,L,G,g,L,c ,,,,,5,19,119,5,0,0,0,0,,,,,1,5,41,18,,,,,,up,0.6838799885172193,935.9230444614095,None,001,39,2019_Oct_17_1220,ACPT_experiment_5_30_19,3.1.0,59.951952049586346,
,,,C,G,y,b,R,U,y,L,u,,,,,5,19,119,5,0,0,0,0,,,,,1,6,42,30,,,,,,down,0.9840418162002607,937.8913206811312,None,001,39,2019_Oct_17_1220,ACPT_experiment_5_30_19,3.1.0,59.951952049586346,
,,,C,G,y,b,R,U,d,L,u,,,,,5,19,119,5,0,0,0,0,,,,,1,7,43,8,,,,,,up,0.7339013753698964,940.143018121018,None,001,39,2019_Oct_17_1220,ACPT_experiment_5_30_19,3.1.0,59.951952049586346,
,,,C,G,y,b,R,G,d,L,i,,,,,5,19,119,5,0,0,0,0,,,,,1,8,44,4,,,,,,up,0.7504198131910016,942.1613887779549,None,001,39,2019_Oct_17_1220,ACPT_experiment_5_30_19,3.1.0,59.951952049586346,
,,,C,G,y,b,R,G,y,L,y,,,,,5,19,119,5,0,0,0,0,,,,,1,9,45,28,,,,,,down,0.6338435086145182,944.1961571283118,None,001,39,2019_Oct_17_1220,ACPT_experiment_5_30_19,3.1.0,59.951952049586346,
,,,C,G,y,b,L,D,d,R,c ,,,,,5,19,119,5,0,0,0,0,,,,,1,10,46,13,,,,,,up,0.7005572052257776,946.1143198935761,None,001,39,2019_Oct_17_1220,ACPT_experiment_5_30_19,3.1.0,59.951952049586346,
,,,C,G,y,b,L,D,y,R,y,,,,,5,19,119,5,0,0,0,0,,,,,1,11,47,33,,,,,,down,0.7672844855824223,948.0825185350204,None,001,39,2019_Oct_17_1220,ACPT_experiment_5_30_19,3.1.0,59.951952049586346,
,,,C,G,y,b,L,G,d,L,i,,,,,5,19,119,5,0,0,0,0,,,,,1,12,48,16,,,,,,up,0.5670947961280035,950.1341464261322,None,001,39,2019_Oct_17_1220,ACPT_experiment_5_30_19,3.1.0,59.951952049586346,
,,,C,G,y,b,R,D,g,R,i,,,,,5,19,119,5,0,0,0,0,,,,,1,13,49,3,,,,,,up,0.6505041229693234,951.9855873445385,None,001,39,2019_Oct_17_1220,ACPT_experiment_5_30_19,3.1.0,59.951952049586346,
,,,C,G,y,b,L,D,y,L,y,,,,,5,19,119,5,0,0,0,0,,,,,1,14,50,32,,,,,,down,0.6838498024171713,953.9371123916062,None,001,39,2019_Oct_17_1220,ACPT_experiment_5_30_19,3.1.0,59.951952049586346,
,,,C,G,y,b,L,U,g,R,u,,,,,5,19,119,5,0,0,0,0,,,,,1,15,51,23,,,,,,up,0.8673520118882152,955.9219888534808,None,001,39,2019_Oct_17_1220,ACPT_experiment_5_30_19,3.1.0,59.951952049586346,
,,,C,G,y,b,R,G,d,R,i,,,,,5,19,119,5,0,0,0,0,,,,,1,16,52,5,,,,,,up,0.633817548568004,958.073677328096,None,001,39,2019_Oct_17_1220,ACPT_experiment_5_30_19,3.1.0,59.951952049586346,
,,,C,G,y,b,R,G,y,R,y,,,,,5,19,119,5,0,0,0,0,,,,,1,17,53,29,,,,,,down,1.1008550816641218,959.9751486891837,None,001,39,2019_Oct_17_1220,ACPT_experiment_5_30_19,3.1.0,59.951952049586346,
,,,C,G,y,b,L,G,g,R,c ,,,,,5,19,119,5,0,0,0,0,,,,,1,18,54,19,,,,,,up,0.6505337053467883,962.3603411391578,None,001,39,2019_Oct_17_1220,ACPT_experiment_5_30_19,3.1.0,59.951952049586346,
,,,C,G,y,b,R,U,d,R,u,,,,,5,19,119,5,0,0,0,0,,,,,1,19,55,9,,,,,,up,0.6338178504292955,964.2951971197635,None,001,39,2019_Oct_17_1220,ACPT_experiment_5_30_19,3.1.0,59.951952049586346,
,,,C,G,y,b,R,U,g,L,u,,,,,5,19,119,5,0,0,0,0,,,,,1,20,56,10,,,,,,up,0.867363482606379,966.1966458412762,None,001,39,2019_Oct_17_1220,ACPT_experiment_5_30_19,3.1.0,59.951952049586346,
,,,C,G,y,b,L,U,g,L,u,,,,,5,19,119,5,0,0,0,0,,,,,1,21,57,22,,,,,,up,0.8006147701189548,968.3483448810266,None,001,39,2019_Oct_17_1220,ACPT_experiment_5_30_19,3.1.0,59.951952049586346,
,,,C,G,y,b,L,D,g,L,i,,,,,5,19,119,5,0,0,0,0,,,,,1,22,58,14,,,,,,up,0.7839414776035483,970.4332997362044,None,001,39,2019_Oct_17_1220,ACPT_experiment_5_30_19,3.1.0,59.951952049586346,
,,,C,G,y,b,R,G,g,L,c ,,,,,5,19,119,5,0,0,0,0,,,,,1,23,59,6,,,,,,up,0.8507007552261712,972.5015825063101,None,001,39,2019_Oct_17_1220,ACPT_experiment_5_30_19,3.1.0,59.951952049586346,
,,,C,G,y,b,L,U,y,L,u,,,,,5,19,119,5,0,0,0,0,,,,,1,24,60,24,,,,,,down,0.6671777173451119,974.6365835009419,None,001,39,2019_Oct_17_1220,ACPT_experiment_5_30_19,3.1.0,59.951952049586346,
,,,C,G,y,b,R,U,g,R,u,,,,,5,19,119,5,0,0,0,0,,,,,1,25,61,11,,,,,,up,0.5170770316071867,976.5881157926733,None,001,39,2019_Oct_17_1220,ACPT_experiment_5_30_19,3.1.0,59.951952049586346,
,,,C,G,y,b,L,G,y,L,y,,,,,5,19,119,5,0,0,0,0,,,,,1,26,62,34,,,,,,down,0.5670987203202458,978.3895093641813,None,001,39,2019_Oct_17_1220,ACPT_experiment_5_30_19,3.1.0,59.951952049586346,
,,,C,G,y,b,R,D,y,R,y,,,,,5,19,119,5,0,0,0,0,,,,,1,27,63,27,,,,,,down,0.7005451307859403,980.2409475658387,None,001,39,2019_Oct_17_1220,ACPT_experiment_5_30_19,3.1.0,59.951952049586346,
,,,C,G,y,b,L,D,g,R,i,,,,,5,19,119,5,0,0,0,0,,,,,1,28,64,15,,,,,,up,0.6501144204139564,982.2428680055409,None,001,39,2019_Oct_17_1220,ACPT_experiment_5_30_19,3.1.0,59.951952049586346,
,,,C,G,y,b,L,U,y,R,u,,,,,5,19,119,5,0,0,0,0,,,,,1,29,65,25,,,,,,down,0.6004622095679224,984.1773529989741,None,001,39,2019_Oct_17_1220,ACPT_experiment_5_30_19,3.1.0,59.951952049586346,
,,,C,G,y,b,R,D,d,L,c,,,,,5,19,119,5,0,0,0,0,,,,,1,30,66,0,,,,,,up,0.7005381879826018,986.062160123377,None,001,39,2019_Oct_17_1220,ACPT_experiment_5_30_19,3.1.0,59.951952049586346,
,,,C,G,y,b,R,D,g,L,i,,,,,5,19,119,5,0,0,0,0,,,,,1,31,67,2,,,,,,up,0.5837810686671219,988.0303578592384,None,001,39,2019_Oct_17_1220,ACPT_experiment_5_30_19,3.1.0,59.951952049586346,
,,,C,G,y,b,R,U,y,R,u,,,,,5,19,119,5,0,0,0,0,,,,,1,32,68,31,,,,,,down,0.6004661337610742,989.8984775036579,None,001,39,2019_Oct_17_1220,ACPT_experiment_5_30_19,3.1.0,59.951952049586346,
,,,C,G,y,b,R,D,y,L,y,,,,,5,19,119,5,0,0,0,0,,,,,1,33,69,26,,,,,,down,0.617144256053507,991.7832888541152,None,001,39,2019_Oct_17_1220,ACPT_experiment_5_30_19,3.1.0,59.951952049586346,
,,,C,G,y,b,L,U,d,R,u,,,,,5,19,119,5,0,0,0,0,,,,,1,34,70,21,,,,,,up,0.6338133225144702,993.6847768175585,None,001,39,2019_Oct_17_1220,ACPT_experiment_5_30_19,3.1.0,59.951952049586346,
,,,C,G,y,b,L,U,d,L,u,,,,,5,19,119,5,0,0,0,0,,,,,1,35,71,20,,,,,,up,0.9842597598453722,995.5860966444225,None,001,39,2019_Oct_17_1220,ACPT_experiment_5_30_19,3.1.0,59.951952049586346,
,,,C,G,y,b,,,,,,,,,,5,19,119,5,1,0,1,0,0,0,0,0,,,,,,,,,,,,,,001,39,2019_Oct_17_1220,ACPT_experiment_5_30_19,3.1.0,59.951952049586346,
,,,C,G,y,b,R,D,g,L,i,,,,,5,19,119,5,1,0,1,0,,,,,0,0,0,2,,,,,,up,0.6471939152061168,1011.0015763181591,None,001,39,2019_Oct_17_1220,ACPT_experiment_5_30_19,3.1.0,59.951952049586346,
,,,C,G,y,b,L,U,d,R,u,,,,,5,19,119,5,1,0,1,0,,,,,0,1,1,21,,,,,,up,0.5170555994764072,1012.9331124314513,None,001,39,2019_Oct_17_1220,ACPT_experiment_5_30_19,3.1.0,59.951952049586346,
,,,C,G,y,b,R,D,y,L,y,,,,,5,19,119,5,1,0,1,0,,,,,0,2,2,26,,,,,,down,0.5838236310673892,1014.7345144550673,None,001,39,2019_Oct_17_1220,ACPT_experiment_5_30_19,3.1.0,59.951952049586346,
,,,C,G,y,b,R,U,g,L,u,,,,,5,19,119,5,1,0,1,0,,,,,0,3,3,10,,,,,,up,0.6338208690403917,1016.6026392311242,None,001,39,2019_Oct_17_1220,ACPT_experiment_5_30_19,3.1.0,59.951952049586346,
,,,C,G,y,b,L,D,y,R,y,,,,,5,19,119,5,1,0,1,0,,,,,0,4,4,33,,,,,,down,0.6671903955066227,1018.520795959168,None,001,39,2019_Oct_17_1220,ACPT_experiment_5_30_19,3.1.0,59.951952049586346,
,,,C,G,y,b,R,U,y,R,u,,,,,5,19,119,5,1,0,1,0,,,,,0,5,5,31,,,,,,down,0.6338284155644942,1020.4723167801822,None,001,39,2019_Oct_17_1220,ACPT_experiment_5_30_19,3.1.0,59.951952049586346,
,,,C,G,y,b,R,G,y,R,y,,,,,5,19,119,5,1,0,1,0,,,,,0,6,6,29,,,,,,down,0.9171723593126444,1022.407333048981,None,001,39,2019_Oct_17_1220,ACPT_experiment_5_30_19,3.1.0,59.951952049586346,
,,,C,G,y,b,R,U,d,R,u,,,,,5,19,119,5,1,0,1,0,,,,,0,7,7,9,,,,,,up,0.6838588582468219,1024.6422382631163,None,001,39,2019_Oct_17_1220,ACPT_experiment_5_30_19,3.1.0,59.951952049586346,
,,,C,G,y,b,L,U,g,L,u,,,,,5,19,119,5,1,0,1,0,,,,,0,8,8,22,,,,,,up,0.6004585872360622,1026.6104417343367,None,001,39,2019_Oct_17_1220,ACPT_experiment_5_30_19,3.1.0,59.951952049586346,
,,,C,G,y,b,R,U,d,L,u,,,,,5,19,119,5,1,0,1,0,,,,,0,9,9,8,,,,,,up,0.7005336600677765,1028.4952542922374,None,001,39,2019_Oct_17_1220,ACPT_experiment_5_30_19,3.1.0,59.951952049586346,
,,,C,G,y,b,L,U,y,L,u,,,,,5,19,119,5,1,0,1,0,,,,,0,10,10,24,,,,,,down,0.6500736691778002,1030.5138724751969,None,001,39,2019_Oct_17_1220,ACPT_experiment_5_30_19,3.1.0,59.951952049586346,
,,,C,G,y,b,L,U,y,R,u,,,,,5,19,119,5,1,0,1,0,,,,,0,11,11,25,,,,,,down,0.7672829762768743,1032.4649848782738,None,001,39,2019_Oct_17_1220,ACPT_experiment_5_30_19,3.1.0,59.951952049586346,
,,,C,G,y,b,L,D,d,L,c ,,,,,5,19,119,5,1,0,1,0,,,,,0,12,12,12,,,,,,up,0.6838591601081134,1034.516627258713,None,001,39,2019_Oct_17_1220,ACPT_experiment_5_30_19,3.1.0,59.951952049586346,
,,,C,G,y,b,L,G,y,L,y,,,,,5,19,119,5,1,0,1,0,,,,,0,13,13,34,,,,,,down,0.717221140050242,1036.5014889293989,None,001,39,2019_Oct_17_1220,ACPT_experiment_5_30_19,3.1.0,59.951952049586346,
,,,C,G,y,b,R,G,d,L,i,,,,,5,19,119,5,1,0,1,0,,,,,0,14,14,4,,,,,,up,0.717206952583183,1038.5197370307687,None,001,39,2019_Oct_17_1220,ACPT_experiment_5_30_19,3.1.0,59.951952049586346,
,,,C,G,y,b,L,G,g,R,c ,,,,,5,19,119,5,1,0,1,0,,,,,0,15,15,19,,,,,,up,0.8006072235948523,1040.5212997651824,None,001,39,2019_Oct_17_1220,ACPT_experiment_5_30_19,3.1.0,59.951952049586346,
,,,C,G,y,b,L,G,d,L,i,,,,,5,19,119,5,1,0,1,0,,,,,0,16,16,16,,,,,,up,0.6838763661853591,1042.5895478212733,None,001,39,2019_Oct_17_1220,ACPT_experiment_5_30_19,3.1.0,59.951952049586346,
,,,C,G,y,b,R,D,y,R,y,,,,,5,19,119,5,1,0,1,0,,,,,0,17,17,27,,,,,,down,0.6338833542677094,1044.5744493376114,None,001,39,2019_Oct_17_1220,ACPT_experiment_5_30_19,3.1.0,59.951952049586346,
,,,C,G,y,b,R,D,d,R,c ,,,,,5,19,119,5,1,0,1,0,,,,,0,18,18,1,,,,,,up,0.6338308304530074,1046.5092763395614,None,001,39,2019_Oct_17_1220,ACPT_experiment_5_30_19,3.1.0,59.951952049586346,
,,,C,G,y,b,R,D,d,L,c,,,,,5,19,119,5,1,0,1,0,,,,,0,19,19,0,,,,,,up,0.633817548568004,1048.427457216486,None,001,39,2019_Oct_17_1220,ACPT_experiment_5_30_19,3.1.0,59.951952049586346,
,,,C,G,y,b,R,U,g,R,u,,,,,5,19,119,5,1,0,1,0,,,,,0,20,20,11,,,,,,up,0.6338377732554363,1050.3455967384525,None,001,39,2019_Oct_17_1220,ACPT_experiment_5_30_19,3.1.0,59.951952049586346,
,,,C,G,y,b,R,G,g,L,c ,,,,,5,19,119,5,1,0,1,0,,,,,0,21,21,6,,,,,,up,0.7505858367421752,1052.2637727856008,None,001,39,2019_Oct_17_1220,ACPT_experiment_5_30_19,3.1.0,59.951952049586346,
,,,C,G,y,b,R,G,y,L,y,,,,,5,19,119,5,1,0,1,0,,,,,0,22,22,28,,,,,,down,0.7005816559667437,1054.2986981036793,None,001,39,2019_Oct_17_1220,ACPT_experiment_5_30_19,3.1.0,59.951952049586346,
,,,C,G,y,b,R,G,g,R,c ,,,,,5,19,119,5,1,0,1,0,,,,,0,23,23,7,,,,,,up,0.7305984122713198,1056.3035728570212,None,001,39,2019_Oct_17_1220,ACPT_experiment_5_30_19,3.1.0,59.951952049586346,
,,,C,G,y,b,L,D,y,L,y,,,,,5,19,119,5,1,0,1,0,,,,,0,24,24,32,,,,,,down,0.8339963710268421,1058.335156573793,None,001,39,2019_Oct_17_1220,ACPT_experiment_5_30_19,3.1.0,59.951952049586346,
,,,C,G,y,b,R,G,d,R,i,,,,,5,19,119,5,1,0,1,0,,,,,0,25,25,5,,,,,,up,0.8339713165632929,1060.4701790005565,None,001,39,2019_Oct_17_1220,ACPT_experiment_5_30_19,3.1.0,59.951952049586346,
,,,C,G,y,b,L,G,y,R,y,,,,,5,19,119,5,1,0,1,0,,,,,0,26,26,35,,,,,,down,0.7172365349615575,1062.5884734979627,None,001,39,2019_Oct_17_1220,ACPT_experiment_5_30_19,3.1.0,59.951952049586346,
,,,C,G,y,b,L,G,d,R,i,,,,,5,19,119,5,1,0,1,0,,,,,0,27,27,17,,,,,,up,0.7005499605611476,1064.5900549477592,None,001,39,2019_Oct_17_1220,ACPT_experiment_5_30_19,3.1.0,59.951952049586346,
,,,C,G,y,b,L,U,d,L,u,,,,,5,19,119,5,1,0,1,0,,,,,0,28,28,20,,,,,,up,0.7672530920381178,1066.5749389561588,None,001,39,2019_Oct_17_1220,ACPT_experiment_5_30_19,3.1.0,59.951952049586346,
,,,C,G,y,b,R,D,g,R,i,,,,,5,19,119,5,1,0,1,0,,,,,0,29,29,3,,,,,,up,0.6671740950132516,1068.6265396797799,None,001,39,2019_Oct_17_1220,ACPT_experiment_5_30_19,3.1.0,59.951952049586346,
,,,C,G,y,b,L,G,g,L,c ,,,,,5,19,119,5,1,0,1,0,,,,,0,30,30,18,,,,,,up,0.7839408738818747,1070.5780562747395,None,001,39,2019_Oct_17_1220,ACPT_experiment_5_30_19,3.1.0,59.951952049586346,
,,,C,G,y,b,L,U,g,R,u,,,,,5,19,119,5,1,0,1,0,,,,,0,31,31,23,,,,,,up,0.8506630226002017,1072.64633421507,None,001,39,2019_Oct_17_1220,ACPT_experiment_5_30_19,3.1.0,59.951952049586346,
,,,C,G,y,b,L,D,g,L,i,,,,,5,19,119,5,1,0,1,0,,,,,0,32,32,14,,,,,,up,0.7340266476858233,1074.7646335422514,None,001,39,2019_Oct_17_1220,ACPT_experiment_5_30_19,3.1.0,59.951952049586346,
,,,C,G,y,b,R,U,y,L,u,,,,,5,19,119,5,1,0,1,0,,,,,0,33,33,30,,,,,,down,0.8006431450539822,1076.7828716822087,None,001,39,2019_Oct_17_1220,ACPT_experiment_5_30_19,3.1.0,59.951952049586346,
,,,C,G,y,b,L,D,d,R,c ,,,,,5,19,119,5,1,0,1,0,,,,,0,34,34,13,,,,,,up,0.8506515518820379,1078.8678603458184,None,001,39,2019_Oct_17_1220,ACPT_experiment_5_30_19,3.1.0,59.951952049586346,
,,,C,G,y,b,L,D,g,R,i,,,,,5,19,119,5,1,0,1,0,,,,,0,35,35,15,,,,,,up,0.7172184233013468,1081.0028513790376,None,001,39,2019_Oct_17_1220,ACPT_experiment_5_30_19,3.1.0,59.951952049586346,
,,,C,G,y,b,R,G,d,L,i,,,,,5,19,119,5,1,0,1,0,,,,,1,0,36,4,,,,,,up,0.8339815798381096,1083.004412000424,None,001,39,2019_Oct_17_1220,ACPT_experiment_5_30_19,3.1.0,59.951952049586346,
,,,C,G,y,b,R,G,d,R,i,,,,,5,19,119,5,1,0,1,0,,,,,1,1,37,5,,,,,,up,0.8840355676784384,1085.1060425630058,None,001,39,2019_Oct_17_1220,ACPT_experiment_5_30_19,3.1.0,59.951952049586346,
,,,C,G,y,b,L,U,g,L,u,,,,,5,19,119,5,1,0,1,0,,,,,1,2,38,22,,,,,,up,0.9340466912562988,1087.2744215362136,None,001,39,2019_Oct_17_1220,ACPT_experiment_5_30_19,3.1.0,59.951952049586346,
,,,C,G,y,b,L,U,g,R,u,,,,,5,19,119,5,1,0,1,0,,,,,1,3,39,23,,,,,,up,0.7172332144909888,1089.476113889742,None,001,39,2019_Oct_17_1220,ACPT_experiment_5_30_19,3.1.0,59.951952049586346,
,,,C,G,y,b,L,G,d,L,i,,,,,5,19,119,5,1,0,1,0,,,,,1,4,40,16,,,,,,up,0.717244987070444,1091.4776624366887,None,001,39,2019_Oct_17_1220,ACPT_experiment_5_30_19,3.1.0,59.951952049586346,
,,,C,G,y,b,R,D,d,R,c ,,,,,5,19,119,5,1,0,1,0,,,,,1,5,41,1,,,,,,up,0.9674122935311971,1093.4792553572033,None,001,39,2019_Oct_17_1220,ACPT_experiment_5_30_19,3.1.0,59.951952049586346,
,,,C,G,y,b,L,G,d,R,i,,,,,5,19,119,5,1,0,1,0,,,,,1,6,42,17,,,,,,up,0.5837843891367811,1095.7309998874061,None,001,39,2019_Oct_17_1220,ACPT_experiment_5_30_19,3.1.0,59.951952049586346,
,,,C,G,y,b,L,G,g,L,c ,,,,,5,19,119,5,1,0,1,0,,,,,1,7,43,18,,,,,,up,0.500408568867897,1097.5824239015965,None,001,39,2019_Oct_17_1220,ACPT_experiment_5_30_19,3.1.0,59.951952049586346,
,,,C,G,y,b,R,D,y,L,y,,,,,5,19,119,5,1,0,1,0,,,,,1,8,44,26,,,,,,down,0.7839161212787076,1099.36719579882,None,001,39,2019_Oct_17_1220,ACPT_experiment_5_30_19,3.1.0,59.951952049586346,
,,,C,G,y,b,R,U,d,L,u,,,,,5,19,119,5,1,0,1,0,,,,,1,9,45,8,,,,,,up,0.5504230129172356,1101.4354526088791,None,001,39,2019_Oct_17_1220,ACPT_experiment_5_30_19,3.1.0,59.951952049586346,
,,,C,G,y,b,R,D,y,R,y,,,,,5,19,119,5,1,0,1,0,,,,,1,10,46,27,,,,,,down,0.7672467529564528,1103.2868989607832,None,001,39,2019_Oct_17_1220,ACPT_experiment_5_30_19,3.1.0,59.951952049586346,
,,,C,G,y,b,L,U,y,L,u,,,,,5,19,119,5,1,0,1,0,,,,,1,11,47,24,,,,,,down,0.7505698381091861,1105.3551793160013,None,001,39,2019_Oct_17_1220,ACPT_experiment_5_30_19,3.1.0,59.951952049586346,
,,,C,G,y,b,L,G,y,L,y,,,,,5,19,119,5,1,0,1,0,,,,,1,12,48,34,,,,,,down,0.6172028170876729,1107.3900656940104,None,001,39,2019_Oct_17_1220,ACPT_experiment_5_30_19,3.1.0,59.951952049586346,
,,,C,G,y,b,R,G,y,L,y,,,,,5,19,119,5,1,0,1,0,,,,,1,13,49,28,,,,,,down,0.5670969091543157,1109.2915829379708,None,001,39,2019_Oct_17_1220,ACPT_experiment_5_30_19,3.1.0,59.951952049586346,
,,,C,G,y,b,L,D,y,R,y,,,,,5,19,119,5,1,0,1,0,,,,,1,14,50,33,,,,,,down,0.7339086200336169,1111.1430196303236,None,001,39,2019_Oct_17_1220,ACPT_experiment_5_30_19,3.1.0,59.951952049586346,
,,,C,G,y,b,L,U,d,L,u,,,,,5,19,119,5,1,0,1,0,,,,,1,15,51,20,,,,,,up,1.0508336948123542,1113.1612405642027,None,001,39,2019_Oct_17_1220,ACPT_experiment_5_30_19,3.1.0,59.951952049586346,
,,,C,G,y,b,L,G,g,R,c ,,,,,5,19,119,5,1,0,1,0,,,,,1,16,52,19,,,,,,up,0.6338250950939255,1115.496405891965,None,001,39,2019_Oct_17_1220,ACPT_experiment_5_30_19,3.1.0,59.951952049586346,
,,,C,G,y,b,L,D,y,L,y,,,,,5,19,119,5,1,0,1,0,,,,,1,17,53,32,,,,,,down,0.8339818816984916,1117.4145728832827,None,001,39,2019_Oct_17_1220,ACPT_experiment_5_30_19,3.1.0,59.951952049586346,
,,,C,G,y,b,R,G,g,L,c ,,,,,5,19,119,5,1,0,1,0,,,,,1,18,54,6,,,,,,up,0.8840452272297625,1119.5328897184036,None,001,39,2019_Oct_17_1220,ACPT_experiment_5_30_19,3.1.0,59.951952049586346,
,,,C,G,y,b,R,D,g,R,i,,,,,5,19,119,5,1,0,1,0,,,,,1,19,55,3,,,,,,up,0.7669992269338763,1121.7181997734233,None,001,39,2019_Oct_17_1220,ACPT_experiment_5_30_19,3.1.0,59.951952049586346,
,,,C,G,y,b,R,U,y,L,u,,,,,5,19,119,5,1,0,1,0,,,,,1,20,56,30,,,,,,down,0.8840364732614034,1123.7695270109762,None,001,39,2019_Oct_17_1220,ACPT_experiment_5_30_19,3.1.0,59.951952049586346,
,,,C,G,y,b,R,D,d,L,c,,,,,5,19,119,5,1,0,1,0,,,,,1,21,57,0,,,,,,up,0.7339037902575001,1125.9378857594966,None,001,39,2019_Oct_17_1220,ACPT_experiment_5_30_19,3.1.0,59.951952049586346,
,,,C,G,y,b,L,U,y,R,u,,,,,5,19,119,5,1,0,1,0,,,,,1,22,58,25,,,,,,down,0.850660607712598,1127.956127823646,None,001,39,2019_Oct_17_1220,ACPT_experiment_5_30_19,3.1.0,59.951952049586346,
,,,C,G,y,b,R,G,y,R,y,,,,,5,19,119,5,1,0,1,0,,,,,1,23,59,29,,,,,,down,0.9007040304177281,1130.0911236866405,None,001,39,2019_Oct_17_1220,ACPT_experiment_5_30_19,3.1.0,59.951952049586346,
,,,C,G,y,b,R,G,g,R,c ,,,,,5,19,119,5,1,0,1,0,,,,,1,24,60,7,,,,,,up,0.5504184850015008,1132.2761690095613,None,001,39,2019_Oct_17_1220,ACPT_experiment_5_30_19,3.1.0,59.951952049586346,
,,,C,G,y,b,R,U,g,R,u,,,,,5,19,119,5,1,0,1,0,,,,,1,25,61,11,,,,,,up,0.9340971020437792,1134.1109266740386,None,001,39,2019_Oct_17_1220,ACPT_experiment_5_30_19,3.1.0,59.951952049586346,
,,,C,G,y,b,L,D,d,L,c ,,,,,5,19,119,5,1,0,1,0,,,,,1,26,62,12,,,,,,up,0.9840083096296439,1136.329301375913,None,001,39,2019_Oct_17_1220,ACPT_experiment_5_30_19,3.1.0,59.951952049586346,
,,,C,G,y,b,L,G,y,R,y,,,,,5,19,119,5,1,0,1,0,,,,,1,27,63,35,,,,,,down,0.8506331383605357,1138.6144546745145,None,001,39,2019_Oct_17_1220,ACPT_experiment_5_30_19,3.1.0,59.951952049586346,
,,,C,G,y,b,L,D,d,R,c ,,,,,5,19,119,5,1,0,1,0,,,,,1,28,64,13,,,,,,up,1.4511321749714625,1140.7661117555845,None,001,39,2019_Oct_17_1220,ACPT_experiment_5_30_19,3.1.0,59.951952049586346,
,,,C,G,y,b,R,D,g,L,i,,,,,5,19,119,5,1,0,1,0,,,,,1,29,65,2,,,,,,up,0.9007007099462498,1143.5015858267807,None,001,39,2019_Oct_17_1220,ACPT_experiment_5_30_19,3.1.0,59.951952049586346,
,,,C,G,y,b,R,U,y,R,u,,,,,5,19,119,5,1,0,1,0,,,,,1,30,66,31,,,,,,down,0.9674171233073139,1145.6866217920106,None,001,39,2019_Oct_17_1220,ACPT_experiment_5_30_19,3.1.0,59.951952049586346,
,,,C,G,y,b,L,U,d,R,u,,,,,5,19,119,5,1,0,1,0,,,,,1,31,67,21,,,,,,up,0.68385312288774,1147.9383777929315,None,001,39,2019_Oct_17_1220,ACPT_experiment_5_30_19,3.1.0,59.951952049586346,
,,,C,G,y,b,R,U,d,R,u,,,,,5,19,119,5,1,0,1,0,,,,,1,32,68,9,,,,,,up,0.6338184541518785,1149.9065785474031,None,001,39,2019_Oct_17_1220,ACPT_experiment_5_30_19,3.1.0,59.951952049586346,
,,,C,G,y,b,R,U,g,L,u,,,,,5,19,119,5,1,0,1,0,,,,,1,33,69,10,,,,,,up,0.984114564702395,1151.8080390414952,None,001,39,2019_Oct_17_1220,ACPT_experiment_5_30_19,3.1.0,59.951952049586346,
,,,C,G,y,b,L,D,g,L,i,,,,,5,19,119,5,1,0,1,0,,,,,1,34,70,14,,,,,,up,0.6171460672194371,1154.0764906726463,None,001,39,2019_Oct_17_1220,ACPT_experiment_5_30_19,3.1.0,59.951952049586346,
,,,C,G,y,b,L,D,g,R,i,,,,,5,19,119,5,1,0,1,0,,,,,1,35,71,15,,,,,,up,0.46702696796000964,1155.9779747118964,None,001,39,2019_Oct_17_1220,ACPT_experiment_5_30_19,3.1.0,59.951952049586346,
,,,C,G,y,b,,,,,,,,,,5,19,119,5,2,0,2,0,0,0,0,0,,,,,,,,,,,,,,001,39,2019_Oct_17_1220,ACPT_experiment_5_30_19,3.1.0,59.951952049586346,
,,,C,G,y,b,L,U,g,R,u,,,,,5,19,119,5,2,0,2,0,,,,,0,0,0,23,,,,,,up,0.6668012966738388,1199.9959028406029,None,001,39,2019_Oct_17_1220,ACPT_experiment_5_30_19,3.1.0,59.951952049586346,
,,,C,G,y,b,R,D,y,L,y,,,,,5,19,119,5,2,0,2,0,,,,,0,1,1,26,,,,,,down,0.6335956807315597,1201.9807023279218,None,001,39,2019_Oct_17_1220,ACPT_experiment_5_30_19,3.1.0,59.951952049586346,
,,,C,G,y,b,R,D,d,L,c,,,,,5,19,119,5,2,0,2,0,,,,,0,2,2,0,,,,,,up,0.5504362948013295,1203.9153451946595,None,001,39,2019_Oct_17_1220,ACPT_experiment_5_30_19,3.1.0,59.951952049586346,
,,,C,G,y,b,L,U,d,L,u,,,,,5,19,119,5,2,0,2,0,,,,,0,3,3,20,,,,,,up,0.6838425577525413,1205.7501351582641,None,001,39,2019_Oct_17_1220,ACPT_experiment_5_30_19,3.1.0,59.951952049586346,
,,,C,G,y,b,R,D,g,R,i,,,,,5,19,119,5,2,0,2,0,,,,,0,4,4,3,,,,,,up,0.5337602855361183,1207.7183271587664,None,001,39,2019_Oct_17_1220,ACPT_experiment_5_30_19,3.1.0,59.951952049586346,
,,,C,G,y,b,L,D,g,R,i,,,,,5,19,119,5,2,0,2,0,,,,,0,5,5,15,,,,,,up,0.5671286045599118,1209.5363858725432,None,001,39,2019_Oct_17_1220,ACPT_experiment_5_30_19,3.1.0,59.951952049586346,
,,,C,G,y,b,R,D,y,R,y,,,,,5,19,119,5,2,0,2,0,,,,,0,6,6,27,,,,,,down,0.6171460672194371,1211.3878485249415,None,001,39,2019_Oct_17_1220,ACPT_experiment_5_30_19,3.1.0,59.951952049586346,
,,,C,G,y,b,L,U,g,L,u,,,,,5,19,119,5,2,0,2,0,,,,,0,7,7,22,,,,,,up,0.5167812078243514,1213.306283870692,None,001,39,2019_Oct_17_1220,ACPT_experiment_5_30_19,3.1.0,59.951952049586346,
,,,C,G,y,b,L,D,d,L,c ,,,,,5,19,119,5,2,0,2,0,,,,,0,8,8,12,,,,,,up,0.48370056233670766,1215.1074305198981,None,001,39,2019_Oct_17_1220,ACPT_experiment_5_30_19,3.1.0,59.951952049586346,
,,,C,G,y,b,R,U,y,L,u,,,,,5,19,119,5,2,0,2,0,,,,,0,9,9,30,,,,,,down,0.5837883133308424,1216.875467846823,None,001,39,2019_Oct_17_1220,ACPT_experiment_5_30_19,3.1.0,59.951952049586346,
,,,C,G,y,b,R,G,y,L,y,,,,,5,19,119,5,2,0,2,0,,,,,0,10,10,28,,,,,,down,0.6838495005558798,1218.743600169405,None,001,39,2019_Oct_17_1220,ACPT_experiment_5_30_19,3.1.0,59.951952049586346,
,,,C,G,y,b,R,G,d,R,i,,,,,5,19,119,5,2,0,2,0,,,,,0,11,11,5,,,,,,up,0.5337672283394568,1220.7117876419916,None,001,39,2019_Oct_17_1220,ACPT_experiment_5_30_19,3.1.0,59.951952049586346,
,,,C,G,y,b,L,D,d,R,c ,,,,,5,19,119,5,2,0,2,0,,,,,0,12,12,13,,,,,,up,0.5337479092349895,1222.5298726176752,None,001,39,2019_Oct_17_1220,ACPT_experiment_5_30_19,3.1.0,59.951952049586346,
,,,C,G,y,b,R,U,y,R,u,,,,,5,19,119,5,2,0,2,0,,,,,0,13,13,31,,,,,,down,0.6336198296121438,1224.3648038522297,None,001,39,2019_Oct_17_1220,ACPT_experiment_5_30_19,3.1.0,59.951952049586346,
,,,C,G,y,b,L,G,d,R,i,,,,,5,19,119,5,2,0,2,0,,,,,0,14,14,17,,,,,,up,0.6338045685452016,1226.3161746483247,None,001,39,2019_Oct_17_1220,ACPT_experiment_5_30_19,3.1.0,59.951952049586346,
,,,C,G,y,b,R,U,g,L,u,,,,,5,19,119,5,2,0,2,0,,,,,0,15,15,10,,,,,,up,0.6338115113485401,1228.2343359042834,None,001,39,2019_Oct_17_1220,ACPT_experiment_5_30_19,3.1.0,59.951952049586346,
,,,C,G,y,b,R,G,g,L,c ,,,,,5,19,119,5,2,0,2,0,,,,,0,16,16,6,,,,,,up,0.5170712962481048,1230.152482972776,None,001,39,2019_Oct_17_1220,ACPT_experiment_5_30_19,3.1.0,59.951952049586346,
,,,C,G,y,b,R,G,y,R,y,,,,,5,19,119,5,2,0,2,0,,,,,0,17,17,29,,,,,,down,0.5837771444730606,1231.9538892224455,None,001,39,2019_Oct_17_1220,ACPT_experiment_5_30_19,3.1.0,59.951952049586346,
,,,C,G,y,b,R,D,d,R,c ,,,,,5,19,119,5,2,0,2,0,,,,,0,18,18,1,,,,,,up,0.5837889170525159,1233.8220158096683,None,001,39,2019_Oct_17_1220,ACPT_experiment_5_30_19,3.1.0,59.951952049586346,
,,,C,G,y,b,L,D,g,L,i,,,,,5,19,119,5,2,0,2,0,,,,,0,19,19,14,,,,,,up,0.5337361366555342,1235.6901445099184,None,001,39,2019_Oct_17_1220,ACPT_experiment_5_30_19,3.1.0,59.951952049586346,
,,,C,G,y,b,L,G,y,R,y,,,,,5,19,119,5,2,0,2,0,,,,,0,20,20,35,,,,,,down,0.617152708161484,1237.5082110720805,None,001,39,2019_Oct_17_1220,ACPT_experiment_5_30_19,3.1.0,59.951952049586346,
,,,C,G,y,b,L,G,g,L,c ,,,,,5,19,119,5,2,0,2,0,,,,,0,21,21,18,,,,,,up,0.5137396563550283,1239.4297048735161,None,001,39,2019_Oct_17_1220,ACPT_experiment_5_30_19,3.1.0,59.951952049586346,
,,,C,G,y,b,L,U,y,R,u,,,,,5,19,119,5,2,0,2,0,,,,,0,22,22,25,,,,,,down,0.5837840872763991,1241.2277873316789,None,001,39,2019_Oct_17_1220,ACPT_experiment_5_30_19,3.1.0,59.951952049586346,
,,,C,G,y,b,L,U,y,L,u,,,,,5,19,119,5,2,0,2,0,,,,,0,23,23,24,,,,,,down,0.6671750005962167,1243.1125887207227,None,001,39,2019_Oct_17_1220,ACPT_experiment_5_30_19,3.1.0,59.951952049586346,
,,,C,G,y,b,R,G,g,R,c ,,,,,5,19,119,5,2,0,2,0,,,,,0,24,24,7,,,,,,up,0.5003795902121055,1245.080798531024,None,001,39,2019_Oct_17_1220,ACPT_experiment_5_30_19,3.1.0,59.951952049586346,
,,,C,G,y,b,R,D,g,L,i,,,,,5,19,119,5,2,0,2,0,,,,,0,25,25,2,,,,,,up,0.7172277809922889,1246.8655160932667,None,001,39,2019_Oct_17_1220,ACPT_experiment_5_30_19,3.1.0,59.951952049586346,
,,,C,G,y,b,L,G,y,L,y,,,,,5,19,119,5,2,0,2,0,,,,,0,26,26,34,,,,,,up,0.5003901553473042,1248.8670906002599,None,001,39,2019_Oct_17_1220,ACPT_experiment_5_30_19,3.1.0,59.951952049586346,
,,,C,G,y,b,R,U,d,R,u,,,,,5,19,119,5,2,0,2,0,,,,,0,27,27,9,,,,,,up,1.117539844897692,1250.6518024271436,None,001,39,2019_Oct_17_1220,ACPT_experiment_5_30_19,3.1.0,59.951952049586346,
,,,C,G,y,b,R,U,g,R,u,,,,,5,19,119,5,2,0,2,0,,,,,0,28,28,11,,,,,,up,0.6004866603088885,1253.0369779729008,None,001,39,2019_Oct_17_1220,ACPT_experiment_5_30_19,3.1.0,59.951952049586346,
,,,C,G,y,b,R,G,d,L,i,,,,,5,19,119,5,2,0,2,0,,,,,0,29,29,4,,,,,,up,0.6171569342150178,1254.9218020015196,None,001,39,2019_Oct_17_1220,ACPT_experiment_5_30_19,3.1.0,59.951952049586346,
,,,C,G,y,b,L,U,d,R,u,,,,,5,19,119,5,2,0,2,0,,,,,0,30,30,21,,,,,,up,0.6505023118024837,1256.8232800035503,None,001,39,2019_Oct_17_1220,ACPT_experiment_5_30_19,3.1.0,59.951952049586346,
,,,C,G,y,b,L,G,g,R,c ,,,,,5,19,119,5,2,0,2,0,,,,,0,31,31,19,,,,,,up,0.5833448795165168,1258.7752152797211,None,001,39,2019_Oct_17_1220,ACPT_experiment_5_30_19,3.1.0,59.951952049586346,
,,,C,G,y,b,L,D,y,R,y,,,,,5,19,119,5,2,0,2,0,,,,,0,32,32,33,,,,,,down,0.7172280828535804,1260.64292529876,None,001,39,2019_Oct_17_1220,ACPT_experiment_5_30_19,3.1.0,59.951952049586346,
,,,C,G,y,b,L,D,y,L,y,,,,,5,19,119,5,2,0,2,0,,,,,0,33,33,32,,,,,,down,0.717162579016076,1262.6445559518997,None,001,39,2019_Oct_17_1220,ACPT_experiment_5_30_19,3.1.0,59.951952049586346,
,,,C,G,y,b,R,U,d,L,u,,,,,5,19,119,5,2,0,2,0,,,,,0,34,34,8,,,,,,up,0.9006979931982642,1264.6460507675874,None,001,39,2019_Oct_17_1220,ACPT_experiment_5_30_19,3.1.0,59.951952049586346,
,,,C,G,y,b,L,G,d,L,i,,,,,5,19,119,5,2,0,2,0,,,,,0,35,35,16,,,,,,up,0.8506584946853764,1266.814405893776,None,001,39,2019_Oct_17_1220,ACPT_experiment_5_30_19,3.1.0,59.951952049586346,
,,,C,G,y,b,L,D,g,R,i,,,,,5,19,119,5,2,0,2,0,,,,,1,0,36,15,,,,,,up,0.7672497715666395,1268.9494153405158,None,001,39,2019_Oct_17_1220,ACPT_experiment_5_30_19,3.1.0,59.951952049586346,
,,,C,G,y,b,L,U,d,R,u,,,,,5,19,119,5,2,0,2,0,,,,,1,1,37,21,,,,,,up,0.6338495458348916,1271.0009885947857,None,001,39,2019_Oct_17_1220,ACPT_experiment_5_30_19,3.1.0,59.951952049586346,
,,,C,G,y,b,L,U,g,L,u,,,,,5,19,119,5,2,0,2,0,,,,,1,2,38,22,,,,,,up,0.7505924776842221,1272.9024774638128,None,001,39,2019_Oct_17_1220,ACPT_experiment_5_30_19,3.1.0,59.951952049586346,
,,,C,G,y,b,L,G,y,R,y,,,,,5,19,119,5,2,0,2,0,,,,,1,3,39,35,,,,,,down,0.8172853458854661,1274.9374217991344,None,001,39,2019_Oct_17_1220,ACPT_experiment_5_30_19,3.1.0,59.951952049586346,
,,,C,G,y,b,R,D,y,R,y,,,,,5,19,119,5,2,0,2,0,,,,,1,4,40,27,,,,,,down,0.7172187251617288,1277.0390535691595,None,001,39,2019_Oct_17_1220,ACPT_experiment_5_30_19,3.1.0,59.951952049586346,
,,,C,G,y,b,R,G,g,R,c ,,,,,5,19,119,5,2,0,2,0,,,,,1,5,41,7,,,,,,up,0.817291684967131,1279.0406135868243,None,001,39,2019_Oct_17_1220,ACPT_experiment_5_30_19,3.1.0,59.951952049586346,
,,,C,G,y,b,L,U,y,L,u,,,,,5,19,119,5,2,0,2,0,,,,,1,6,42,24,,,,,,down,0.7338959418711966,1281.158927403335,None,001,39,2019_Oct_17_1220,ACPT_experiment_5_30_19,3.1.0,59.951952049586346,
,,,C,G,y,b,R,D,d,L,c,,,,,5,19,119,5,2,0,2,0,,,,,1,7,43,0,,,,,,up,0.633810605765575,1283.2105323530095,None,001,39,2019_Oct_17_1220,ACPT_experiment_5_30_19,3.1.0,59.951952049586346,
,,,C,G,y,b,L,U,g,R,u,,,,,5,19,119,5,2,0,2,0,,,,,1,8,44,23,,,,,,up,0.700540301008914,1285.128689684776,None,001,39,2019_Oct_17_1220,ACPT_experiment_5_30_19,3.1.0,59.951952049586346,
,,,C,G,y,b,L,G,y,L,y,,,,,5,19,119,5,2,0,2,0,,,,,1,9,45,34,,,,,,down,0.6172031189489644,1287.1135739950369,None,001,39,2019_Oct_17_1220,ACPT_experiment_5_30_19,3.1.0,59.951952049586346,
,,,C,G,y,b,R,G,g,L,c ,,,,,5,19,119,5,2,0,2,0,,,,,1,10,46,6,,,,,,up,0.8173556794999968,1289.0150233202721,None,001,39,2019_Oct_17_1220,ACPT_experiment_5_30_19,3.1.0,59.951952049586346,
,,,C,G,y,b,R,G,d,L,i,,,,,5,19,119,5,2,0,2,0,,,,,1,11,47,4,,,,,,up,0.5671231710621214,1291.0999911554727,None,001,39,2019_Oct_17_1220,ACPT_experiment_5_30_19,3.1.0,59.951952049586346,
,,,C,G,y,b,R,D,g,L,i,,,,,5,19,119,5,2,0,2,0,,,,,1,12,48,2,,,,,,up,0.4837023735026378,1292.9514550153153,None,001,39,2019_Oct_17_1220,ACPT_experiment_5_30_19,3.1.0,59.951952049586346,
,,,C,G,y,b,R,U,d,L,u,,,,,5,19,119,5,2,0,2,0,,,,,1,13,49,8,,,,,,up,0.6338302267304243,1294.7195116613439,None,001,39,2019_Oct_17_1220,ACPT_experiment_5_30_19,3.1.0,59.951952049586346,
,,,C,G,y,b,R,G,d,R,i,,,,,5,19,119,5,2,0,2,0,,,,,1,14,50,5,,,,,,up,0.550428144554644,1296.6209818149882,None,001,39,2019_Oct_17_1220,ACPT_experiment_5_30_19,3.1.0,59.951952049586346,
,,,C,G,y,b,L,G,d,R,i,,,,,5,19,119,5,2,0,2,0,,,,,1,15,51,17,,,,,,up,0.6338395844213665,1298.4557427999362,None,001,39,2019_Oct_17_1220,ACPT_experiment_5_30_19,3.1.0,59.951952049586346,
,,,C,G,y,b,L,U,d,L,u,,,,,5,19,119,5,2,0,2,0,,,,,1,16,52,20,,,,,,up,0.550421805472979,1300.3739028484515,None,001,39,2019_Oct_17_1220,ACPT_experiment_5_30_19,3.1.0,59.951952049586346,
,,,C,G,y,b,L,G,d,L,i,,,,,5,19,119,5,2,0,2,0,,,,,1,17,53,16,,,,,,up,0.5337310050190354,1302.2253639915443,None,001,39,2019_Oct_17_1220,ACPT_experiment_5_30_19,3.1.0,59.951952049586346,
,,,C,G,y,b,L,G,g,L,c ,,,,,5,19,119,5,2,0,2,0,,,,,1,18,54,18,,,,,,up,0.8840180597399012,1304.0434335723166,None,001,39,2019_Oct_17_1220,ACPT_experiment_5_30_19,3.1.0,59.951952049586346,
,,,C,G,y,b,L,D,y,L,y,,,,,5,19,119,5,2,0,2,0,,,,,1,19,55,32,,,,,,down,0.8339818816994011,1306.2117944338643,None,001,39,2019_Oct_17_1220,ACPT_experiment_5_30_19,3.1.0,59.951952049586346,
,,,C,G,y,b,R,U,y,L,u,,,,,5,19,119,5,2,0,2,0,,,,,1,20,56,30,,,,,,down,0.7672530920372083,1308.3467915043038,None,001,39,2019_Oct_17_1220,ACPT_experiment_5_30_19,3.1.0,59.951952049586346,
,,,C,G,y,b,R,U,g,R,u,,,,,5,19,119,5,2,0,2,0,,,,,1,21,57,11,,,,,,up,0.6004779063405294,1310.415072765105,None,001,39,2019_Oct_17_1220,ACPT_experiment_5_30_19,3.1.0,59.951952049586346,
,,,C,G,y,b,R,G,y,L,y,,,,,5,19,119,5,2,0,2,0,,,,,1,22,58,28,,,,,,down,0.7839432887694784,1312.299871437399,None,001,39,2019_Oct_17_1220,ACPT_experiment_5_30_19,3.1.0,59.951952049586346,
,,,C,G,y,b,L,D,d,R,c ,,,,,5,19,119,5,2,0,2,0,,,,,1,23,59,13,,,,,,up,0.7839291013024194,1314.3681656782228,None,001,39,2019_Oct_17_1220,ACPT_experiment_5_30_19,3.1.0,59.951952049586346,
,,,C,G,y,b,R,G,y,R,y,,,,,5,19,119,5,2,0,2,0,,,,,1,24,60,29,,,,,,down,0.7172253661046852,1316.4364303366692,None,001,39,2019_Oct_17_1220,ACPT_experiment_5_30_19,3.1.0,59.951952049586346,
,,,C,G,y,b,R,U,g,L,u,,,,,5,19,119,5,2,0,2,0,,,,,1,25,61,10,,,,,,up,0.6338498476961831,1318.4379945803876,None,001,39,2019_Oct_17_1220,ACPT_experiment_5_30_19,3.1.0,59.951952049586346,
,,,C,G,y,b,L,G,g,R,c ,,,,,5,19,119,5,2,0,2,0,,,,,1,26,62,19,,,,,,up,0.7339010735086049,1320.3561567419301,None,001,39,2019_Oct_17_1220,ACPT_experiment_5_30_19,3.1.0,59.951952049586346,
,,,C,G,y,b,L,D,d,L,c ,,,,,5,19,119,5,2,0,2,0,,,,,1,27,63,12,,,,,,up,0.667073575298673,1322.374395485609,None,001,39,2019_Oct_17_1220,ACPT_experiment_5_30_19,3.1.0,59.951952049586346,
,,,C,G,y,b,L,D,y,R,y,,,,,5,19,119,5,2,0,2,0,,,,,1,28,64,33,,,,,,down,1.1675754192174281,1324.3259184196495,None,001,39,2019_Oct_17_1220,ACPT_experiment_5_30_19,3.1.0,59.951952049586346,
,,,C,G,y,b,R,D,d,R,c ,,,,,5,19,119,5,2,0,2,0,,,,,1,29,65,1,,,,,,up,1.3674792463016274,1326.8114361852258,None,001,39,2019_Oct_17_1220,ACPT_experiment_5_30_19,3.1.0,59.951952049586346,
,,,C,G,y,b,R,U,d,R,u,,,,,5,19,119,5,2,0,2,0,,,,,1,30,66,9,,,,,,up,1.0174563199580007,1329.4632521961148,None,001,39,2019_Oct_17_1220,ACPT_experiment_5_30_19,3.1.0,59.951952049586346,
,,,C,G,y,b,R,D,y,L,y,,,,,5,19,119,5,2,0,2,0,,,,,1,31,67,26,,,,,,down,0.9841058107340359,1331.7650486011307,None,001,39,2019_Oct_17_1220,ACPT_experiment_5_30_19,3.1.0,59.951952049586346,
,,,C,G,y,b,L,U,y,R,u,,,,,5,19,119,5,2,0,2,0,,,,,1,32,68,25,,,,,,down,0.767264562755372,1334.0334884597032,None,001,39,2019_Oct_17_1220,ACPT_experiment_5_30_19,3.1.0,59.951952049586346,
,,,C,G,y,b,R,D,g,R,i,,,,,5,19,119,5,2,0,2,0,,,,,1,33,69,3,,,,,,up,0.7005466400905789,1336.0850843535482,None,001,39,2019_Oct_17_1220,ACPT_experiment_5_30_19,3.1.0,59.951952049586346,
,,,C,G,y,b,R,U,y,R,u,,,,,5,19,119,5,2,0,2,0,,,,,1,34,70,31,,,,,,down,0.8173010426580731,1338.069967758227,None,001,39,2019_Oct_17_1220,ACPT_experiment_5_30_19,3.1.0,59.951952049586346,
,,,C,G,y,b,L,D,g,L,i,,,,,5,19,119,5,2,0,2,0,,,,,1,35,71,14,,,,,,up,0.7672591292575817,1340.17160798036,None,001,39,2019_Oct_17_1220,ACPT_experiment_5_30_19,3.1.0,59.951952049586346,
,,,C,G,y,b,,,,,,,,,,5,19,119,5,3,0,3,0,0,0,0,0,,,,,,,,,,,,,,001,39,2019_Oct_17_1220,ACPT_experiment_5_30_19,3.1.0,59.951952049586346,
,,,C,G,y,b,R,G,g,R,c ,,,,,5,19,119,5,3,0,3,0,,,,,0,0,0,7,,,,,,up,0.6835868814832793,1392.0623478809212,None,001,39,2019_Oct_17_1220,ACPT_experiment_5_30_19,3.1.0,59.951952049586346,
,,,C,G,y,b,R,U,g,L,u,,,,,5,19,119,5,3,0,3,0,,,,,0,1,1,10,,,,,,up,0.5504486711024583,1394.0302506985818,None,001,39,2019_Oct_17_1220,ACPT_experiment_5_30_19,3.1.0,59.951952049586346,
,,,C,G,y,b,R,U,g,R,u,,,,,5,19,119,5,3,0,3,0,,,,,0,2,2,11,,,,,,up,0.8506856621761472,1395.8483320519335,None,001,39,2019_Oct_17_1220,ACPT_experiment_5_30_19,3.1.0,59.951952049586346,
,,,C,G,y,b,L,D,g,L,i,,,,,5,19,119,5,3,0,3,0,,,,,0,3,3,14,,,,,,up,0.4670731526939562,1397.9833565917243,None,001,39,2019_Oct_17_1220,ACPT_experiment_5_30_19,3.1.0,59.951952049586346,
,,,C,G,y,b,R,G,d,L,i,,,,,5,19,119,5,3,0,3,0,,,,,0,4,4,4,,,,,,up,0.5504172775572442,1399.7347305875455,None,001,39,2019_Oct_17_1220,ACPT_experiment_5_30_19,3.1.0,59.951952049586346,
,,,C,G,y,b,L,G,y,R,y,,,,,5,19,119,5,3,0,3,0,,,,,0,5,5,35,,,,,,down,0.6671746987349252,1401.56948734644,None,001,39,2019_Oct_17_1220,ACPT_experiment_5_30_19,3.1.0,59.951952049586346,
,,,C,G,y,b,L,D,y,R,y,,,,,5,19,119,5,3,0,3,0,,,,,0,6,6,33,,,,,,down,0.6004655300394006,1403.5210036395383,None,001,39,2019_Oct_17_1220,ACPT_experiment_5_30_19,3.1.0,59.951952049586346,
,,,C,G,y,b,R,D,d,L,c,,,,,5,19,119,5,3,0,3,0,,,,,0,7,7,0,,,,,,up,0.666909061052138,1405.4227647871894,None,001,39,2019_Oct_17_1220,ACPT_experiment_5_30_19,3.1.0,59.951952049586346,
,,,C,G,y,b,R,D,y,L,y,,,,,5,19,119,5,3,0,3,0,,,,,0,8,8,26,,,,,,down,0.6505264606821584,1407.3573101528236,None,001,39,2019_Oct_17_1220,ACPT_experiment_5_30_19,3.1.0,59.951952049586346,
,,,C,G,y,b,R,G,g,L,c ,,,,,5,19,119,5,3,0,3,0,,,,,0,9,9,6,,,,,,up,0.5671310194475154,1409.292146814325,None,001,39,2019_Oct_17_1220,ACPT_experiment_5_30_19,3.1.0,59.951952049586346,
,,,C,G,y,b,R,U,y,R,u,,,,,5,19,119,5,3,0,3,0,,,,,0,10,10,31,,,,,,down,0.6171481802466587,1411.143613994639,None,001,39,2019_Oct_17_1220,ACPT_experiment_5_30_19,3.1.0,59.951952049586346,
,,,C,G,y,b,L,D,d,L,c ,,,,,5,19,119,5,3,0,3,0,,,,,0,11,11,12,,,,,,up,0.5170851818547817,1413.045084752005,None,001,39,2019_Oct_17_1220,ACPT_experiment_5_30_19,3.1.0,59.951952049586346,
,,,C,G,y,b,L,G,g,R,c ,,,,,5,19,119,5,3,0,3,0,,,,,0,12,12,19,,,,,,up,0.6171364076672035,1414.863188744932,None,001,39,2019_Oct_17_1220,ACPT_experiment_5_30_19,3.1.0,59.951952049586346,
,,,C,G,y,b,L,G,y,L,y,,,,,5,19,119,5,3,0,3,0,,,,,0,13,13,34,,,,,,down,0.6004066671430337,1416.7646872735104,None,001,39,2019_Oct_17_1220,ACPT_experiment_5_30_19,3.1.0,59.951952049586346,
,,,C,G,y,b,R,G,y,R,y,,,,,5,19,119,5,3,0,3,0,,,,,0,14,14,29,,,,,,down,3.81963110774268,1418.6661625587913,None,001,39,2019_Oct_17_1220,ACPT_experiment_5_30_19,3.1.0,59.951952049586346,
,,,C,G,y,b,R,D,d,R,c ,,,,,5,19,119,5,3,0,3,0,,,,,0,15,15,1,,,,,,up,0.5003856274315694,1423.7868091571354,None,001,39,2019_Oct_17_1220,ACPT_experiment_5_30_19,3.1.0,59.951952049586346,
,,,C,G,y,b,L,D,g,R,i,,,,,5,19,119,5,3,0,3,0,,,,,0,16,16,15,,,,,,up,0.5003810995158346,1425.5715372845134,None,001,39,2019_Oct_17_1220,ACPT_experiment_5_30_19,3.1.0,59.951952049586346,
,,,C,G,y,b,L,D,y,L,y,,,,,5,19,119,5,3,0,3,0,,,,,0,17,17,32,,,,,,down,1.0674535579300937,1427.3729779463374,None,001,39,2019_Oct_17_1220,ACPT_experiment_5_30_19,3.1.0,59.951952049586346,
,,,C,G,y,b,R,G,d,R,i,,,,,5,19,119,5,3,0,3,0,,,,,0,18,18,5,,,,,,up,0.8339610532893857,1429.741467823278,None,001,39,2019_Oct_17_1220,ACPT_experiment_5_30_19,3.1.0,59.951952049586346,
,,,C,G,y,b,R,D,y,R,y,,,,,5,19,119,5,3,0,3,0,,,,,0,19,19,27,,,,,,down,0.6671780192064034,1431.859773489541,None,001,39,2019_Oct_17_1220,ACPT_experiment_5_30_19,3.1.0,59.951952049586346,
,,,C,G,y,b,L,U,g,R,u,,,,,5,19,119,5,3,0,3,0,,,,,0,20,20,23,,,,,,up,0.6838654991897783,1433.8112900845,None,001,39,2019_Oct_17_1220,ACPT_experiment_5_30_19,3.1.0,59.951952049586346,
,,,C,G,y,b,R,D,g,L,i,,,,,5,19,119,5,3,0,3,0,,,,,0,21,21,2,,,,,,up,0.6171433504696324,1435.7794947631646,None,001,39,2019_Oct_17_1220,ACPT_experiment_5_30_19,3.1.0,59.951952049586346,
,,,C,G,y,b,R,U,d,L,u,,,,,5,19,119,5,3,0,3,0,,,,,0,22,22,8,,,,,,up,0.6004588890973537,1437.6809775949714,None,001,39,2019_Oct_17_1220,ACPT_experiment_5_30_19,3.1.0,59.951952049586346,
,,,C,G,y,b,R,D,g,R,i,,,,,5,19,119,5,3,0,3,0,,,,,0,23,23,3,,,,,,up,0.6171484821070408,1439.565775059822,None,001,39,2019_Oct_17_1220,ACPT_experiment_5_30_19,3.1.0,59.951952049586346,
,,,C,G,y,b,L,U,y,R,u,,,,,5,19,119,5,3,0,3,0,,,,,0,24,24,25,,,,,,down,0.7172259698263588,1441.467262721404,None,001,39,2019_Oct_17_1220,ACPT_experiment_5_30_19,3.1.0,59.951952049586346,
,,,C,G,y,b,L,G,g,L,c ,,,,,5,19,119,5,3,0,3,0,,,,,0,25,25,18,,,,,,up,1.184261389895255,1443.468819116737,None,001,39,2019_Oct_17_1220,ACPT_experiment_5_30_19,3.1.0,59.951952049586346,
,,,C,G,y,b,R,U,y,L,u,,,,,5,19,119,5,3,0,3,0,,,,,0,26,26,30,,,,,,down,0.6671813396769721,1445.9374130451652,None,001,39,2019_Oct_17_1220,ACPT_experiment_5_30_19,3.1.0,59.951952049586346,
,,,C,G,y,b,L,G,d,R,i,,,,,5,19,119,5,3,0,3,0,,,,,0,27,27,17,,,,,,up,0.7172081600274396,1447.888943827592,None,001,39,2019_Oct_17_1220,ACPT_experiment_5_30_19,3.1.0,59.951952049586346,
,,,C,G,y,b,L,U,d,R,u,,,,,5,19,119,5,3,0,3,0,,,,,0,28,28,21,,,,,,up,1.034140781331189,1449.890497506176,None,001,39,2019_Oct_17_1220,ACPT_experiment_5_30_19,3.1.0,59.951952049586346,
,,,C,G,y,b,L,G,d,L,i,,,,,5,19,119,5,3,0,3,0,,,,,0,29,29,16,,,,,,up,1.3343590570229935,1452.2089862209514,None,001,39,2019_Oct_17_1220,ACPT_experiment_5_30_19,3.1.0,59.951952049586346,
,,,C,G,y,b,R,G,y,L,y,,,,,5,19,119,5,3,0,3,0,,,,,0,30,30,28,,,,,,down,0.8173001370751081,1454.8276829481438,None,001,39,2019_Oct_17_1220,ACPT_experiment_5_30_19,3.1.0,59.951952049586346,
,,,C,G,y,b,L,U,y,L,u,,,,,5,19,119,5,3,0,3,0,,,,,0,31,31,24,,,,,,down,0.8339722221471675,1456.9293270944709,None,001,39,2019_Oct_17_1220,ACPT_experiment_5_30_19,3.1.0,59.951952049586346,
,,,C,G,y,b,L,D,d,R,c ,,,,,5,19,119,5,3,0,3,0,,,,,0,32,32,13,,,,,,up,0.9670050830372929,1459.0813781041506,None,001,39,2019_Oct_17_1220,ACPT_experiment_5_30_19,3.1.0,59.951952049586346,
,,,C,G,y,b,R,U,d,R,u,,,,,5,19,119,5,3,0,3,0,,,,,0,33,33,9,,,,,,up,0.800610544065421,1461.3327652309254,None,001,39,2019_Oct_17_1220,ACPT_experiment_5_30_19,3.1.0,59.951952049586346,
,,,C,G,y,b,L,U,g,L,u,,,,,5,19,119,5,3,0,3,0,,,,,0,34,34,22,,,,,,up,0.8339821835597832,1463.4177149544657,None,001,39,2019_Oct_17_1220,ACPT_experiment_5_30_19,3.1.0,59.951952049586346,
,,,C,G,y,b,L,U,d,L,u,,,,,5,19,119,5,3,0,3,0,,,,,0,35,35,20,,,,,,up,0.5501975227471121,1465.5529329871597,None,001,39,2019_Oct_17_1220,ACPT_experiment_5_30_19,3.1.0,59.951952049586346,
,,,C,G,y,b,R,D,d,L,c,,,,,5,19,119,5,3,0,3,0,,,,,1,0,36,0,,,,,,up,0.6838636880229387,1467.3874721042703,None,001,39,2019_Oct_17_1220,ACPT_experiment_5_30_19,3.1.0,59.951952049586346,
,,,C,G,y,b,L,U,g,L,u,,,,,5,19,119,5,3,0,3,0,,,,,1,1,37,22,,,,,,up,0.6505472890921737,1469.355671953159,None,001,39,2019_Oct_17_1220,ACPT_experiment_5_30_19,3.1.0,59.951952049586346,
,,,C,G,y,b,L,D,d,L,c ,,,,,5,19,119,5,3,0,3,0,,,,,1,2,38,12,,,,,,up,0.7005759206076618,1471.290533065402,None,001,39,2019_Oct_17_1220,ACPT_experiment_5_30_19,3.1.0,59.951952049586346,
,,,C,G,y,b,L,D,g,L,i,,,,,5,19,119,5,3,0,3,0,,,,,1,3,39,14,,,,,,up,0.7505568580854742,1473.2587398570931,None,001,39,2019_Oct_17_1220,ACPT_experiment_5_30_19,3.1.0,59.951952049586346,
,,,C,G,y,b,L,D,y,R,y,,,,,5,19,119,5,3,0,3,0,,,,,1,4,40,33,,,,,,down,0.733925524249571,1475.2936368002374,None,001,39,2019_Oct_17_1220,ACPT_experiment_5_30_19,3.1.0,59.951952049586346,
,,,C,G,y,b,R,G,g,L,c ,,,,,5,19,119,5,3,0,3,0,,,,,1,5,41,6,,,,,,up,0.6671746987349252,1477.3118891276617,None,001,39,2019_Oct_17_1220,ACPT_experiment_5_30_19,3.1.0,59.951952049586346,
,,,C,G,y,b,R,D,y,R,y,,,,,5,19,119,5,3,0,3,0,,,,,1,6,42,27,,,,,,down,0.6001844974452979,1479.2803709147265,None,001,39,2019_Oct_17_1220,ACPT_experiment_5_30_19,3.1.0,59.951952049586346,
,,,C,G,y,b,R,D,g,R,i,,,,,5,19,119,5,3,0,3,0,,,,,1,7,43,3,,,,,,up,0.6171490858296238,1481.164879800458,None,001,39,2019_Oct_17_1220,ACPT_experiment_5_30_19,3.1.0,59.951952049586346,
,,,C,G,y,b,R,D,d,R,c ,,,,,5,19,119,5,3,0,3,0,,,,,1,8,44,1,,,,,,up,0.6171385206944251,1483.0663650471524,None,001,39,2019_Oct_17_1220,ACPT_experiment_5_30_19,3.1.0,59.951952049586346,
,,,C,G,y,b,R,G,y,L,y,,,,,5,19,119,5,3,0,3,0,,,,,1,9,45,28,,,,,,down,0.5838106510445868,1484.967846671515,None,001,39,2019_Oct_17_1220,ACPT_experiment_5_30_19,3.1.0,59.951952049586346,
,,,C,G,y,b,L,G,g,R,c ,,,,,5,19,119,5,3,0,3,0,,,,,1,10,46,19,,,,,,up,0.5670911737961433,1486.8359832201513,None,001,39,2019_Oct_17_1220,ACPT_experiment_5_30_19,3.1.0,59.951952049586346,
,,,C,G,y,b,R,G,g,R,c ,,,,,5,19,119,5,3,0,3,0,,,,,1,11,47,7,,,,,,up,0.6004836416987018,1488.6873936505954,None,001,39,2019_Oct_17_1220,ACPT_experiment_5_30_19,3.1.0,59.951952049586346,
,,,C,G,y,b,L,G,y,R,y,,,,,5,19,119,5,3,0,3,0,,,,,1,12,48,35,,,,,,down,0.6171352002229469,1490.5722285462107,None,001,39,2019_Oct_17_1220,ACPT_experiment_5_30_19,3.1.0,59.951952049586346,
,,,C,G,y,b,L,G,g,L,c ,,,,,5,19,119,5,3,0,3,0,,,,,1,13,49,18,,,,,,up,0.49997388902284,1492.4740835726343,None,001,39,2019_Oct_17_1220,ACPT_experiment_5_30_19,3.1.0,59.951952049586346,
,,,C,G,y,b,R,D,g,L,i,,,,,5,19,119,5,3,0,3,0,,,,,1,14,50,2,,,,,,up,0.5337379478223738,1494.2584292421207,None,001,39,2019_Oct_17_1220,ACPT_experiment_5_30_19,3.1.0,59.951952049586346,
,,,C,G,y,b,R,D,y,L,y,,,,,5,19,119,5,3,0,3,0,,,,,1,15,51,26,,,,,,down,0.6671810378165901,1496.0765136140826,None,001,39,2019_Oct_17_1220,ACPT_experiment_5_30_19,3.1.0,59.951952049586346,
,,,C,G,y,b,R,G,d,R,i,,,,,5,19,119,5,3,0,3,0,,,,,1,16,52,5,,,,,,up,0.633817246707622,1498.0280341332355,None,001,39,2019_Oct_17_1220,ACPT_experiment_5_30_19,3.1.0,59.951952049586346,
,,,C,G,y,b,R,U,g,L,u,,,,,5,19,119,5,3,0,3,0,,,,,1,17,53,10,,,,,,up,0.617143954191306,1499.9461959929158,None,001,39,2019_Oct_17_1220,ACPT_experiment_5_30_19,3.1.0,59.951952049586346,
,,,C,G,y,b,R,U,d,L,u,,,,,5,19,119,5,3,0,3,0,,,,,1,18,54,8,,,,,,up,0.5837813705275039,1501.8476785228613,None,001,39,2019_Oct_17_1220,ACPT_experiment_5_30_19,3.1.0,59.951952049586346,
,,,C,G,y,b,R,U,y,L,u,,,,,5,19,119,5,3,0,3,0,,,,,1,19,55,30,,,,,,down,0.5671144170928528,1503.715782470509,None,001,39,2019_Oct_17_1220,ACPT_experiment_5_30_19,3.1.0,59.951952049586346,
,,,C,G,y,b,L,G,d,R,i,,,,,5,19,119,5,3,0,3,0,,,,,1,20,56,17,,,,,,up,0.6002020053838351,1505.5841906940486,None,001,39,2019_Oct_17_1220,ACPT_experiment_5_30_19,3.1.0,59.951952049586346,
,,,C,G,y,b,L,U,d,R,u,,,,,5,19,119,5,3,0,3,0,,,,,1,21,57,21,,,,,,up,0.5671738837108933,1507.4687252379654,None,001,39,2019_Oct_17_1220,ACPT_experiment_5_30_19,3.1.0,59.951952049586346,
,,,C,G,y,b,L,G,d,L,i,,,,,5,19,119,5,3,0,3,0,,,,,1,22,58,16,,,,,,up,0.767264562755372,1509.320168269398,None,001,39,2019_Oct_17_1220,ACPT_experiment_5_30_19,3.1.0,59.951952049586346,
,,,C,G,y,b,L,U,y,R,u,,,,,5,19,119,5,3,0,3,0,,,,,1,23,59,25,,,,,,down,0.7839617022909806,1511.3717702004633,None,001,39,2019_Oct_17_1220,ACPT_experiment_5_30_19,3.1.0,59.951952049586346,
,,,C,G,y,b,L,D,g,R,i,,,,,5,19,119,5,3,0,3,0,,,,,1,24,60,15,,,,,,up,0.6171720272650418,1513.4400484426542,None,001,39,2019_Oct_17_1220,ACPT_experiment_5_30_19,3.1.0,59.951952049586346,
,,,C,G,y,b,L,D,d,R,c ,,,,,5,19,119,5,3,0,3,0,,,,,1,25,61,13,,,,,,up,0.850683247287634,1515.3248320218981,None,001,39,2019_Oct_17_1220,ACPT_experiment_5_30_19,3.1.0,59.951952049586346,
,,,C,G,y,b,R,G,y,R,y,,,,,5,19,119,5,3,0,3,0,,,,,1,26,62,29,,,,,,down,0.650505934134344,1517.459852033774,None,001,39,2019_Oct_17_1220,ACPT_experiment_5_30_19,3.1.0,59.951952049586346,
,,,C,G,y,b,L,U,d,L,u,,,,,5,19,119,5,3,0,3,0,,,,,1,27,63,20,,,,,,up,0.917368267103484,1519.3946974492446,None,001,39,2019_Oct_17_1220,ACPT_experiment_5_30_19,3.1.0,59.951952049586346,
,,,C,G,y,b,R,G,d,L,i,,,,,5,19,119,5,3,0,3,0,,,,,1,28,64,4,,,,,,up,0.6338413955882061,1521.5963891990514,None,001,39,2019_Oct_17_1220,ACPT_experiment_5_30_19,3.1.0,59.951952049586346,
,,,C,G,y,b,L,U,y,L,u,,,,,5,19,119,5,3,0,3,0,,,,,1,29,65,24,,,,,,down,0.6671834527041938,1523.514566453644,None,001,39,2019_Oct_17_1220,ACPT_experiment_5_30_19,3.1.0,59.951952049586346,
,,,C,G,y,b,R,U,y,R,u,,,,,5,19,119,5,3,0,3,0,,,,,1,30,66,31,,,,,,down,0.5671123040656312,1525.4660884821014,None,001,39,2019_Oct_17_1220,ACPT_experiment_5_30_19,3.1.0,59.951952049586346,
,,,C,G,y,b,R,U,d,R,u,,,,,5,19,119,5,3,0,3,0,,,,,1,31,67,9,,,,,,up,0.5003675157713587,1527.3175529456657,None,001,39,2019_Oct_17_1220,ACPT_experiment_5_30_19,3.1.0,59.951952049586346,
,,,C,G,y,b,R,U,g,R,u,,,,,5,19,119,5,3,0,3,0,,,,,1,32,68,11,,,,,,up,0.5838040101025399,1529.0855603883501,None,001,39,2019_Oct_17_1220,ACPT_experiment_5_30_19,3.1.0,59.951952049586346,
,,,C,G,y,b,L,U,g,R,u,,,,,5,19,119,5,3,0,3,0,,,,,1,33,69,23,,,,,,up,0.5334883087725757,1530.970651262096,None,001,39,2019_Oct_17_1220,ACPT_experiment_5_30_19,3.1.0,59.951952049586346,
,,,C,G,y,b,L,G,y,L,y,,,,,5,19,119,5,3,0,3,0,,,,,1,34,70,34,,,,,,down,0.5837846909989821,1532.7884675814867,None,001,39,2019_Oct_17_1220,ACPT_experiment_5_30_19,3.1.0,59.951952049586346,
,,,C,G,y,b,L,D,y,L,y,,,,,5,19,119,5,3,0,3,0,,,,,1,35,71,32,,,,,,down,0.6838579526638568,1534.6565923575436,None,001,39,2019_Oct_17_1220,ACPT_experiment_5_30_19,3.1.0,59.951952049586346,
,,,C,G,y,b,,,,,,,,,,5,19,119,5,4,0,4,0,0,0,0,0,,,,,,,,,,,,,,001,39,2019_Oct_17_1220,ACPT_experiment_5_30_19,3.1.0,59.951952049586346,
,,,C,G,y,b,R,G,d,L,i,,,,,5,19,119,5,4,0,4,0,,,,,0,0,0,4,,,,,,up,0.950497512212678,1558.9591591118406,None,001,39,2019_Oct_17_1220,ACPT_experiment_5_30_19,3.1.0,59.951952049586346,
,,,C,G,y,b,R,G,y,L,y,,,,,5,19,119,5,4,0,4,0,,,,,0,1,1,28,,,,,,down,0.7005442252029752,1561.1939487132122,None,001,39,2019_Oct_17_1220,ACPT_experiment_5_30_19,3.1.0,59.951952049586346,
,,,C,G,y,b,L,G,g,R,c ,,,,,5,19,119,5,4,0,4,0,,,,,0,2,2,19,,,,,,up,0.5671101910384095,1563.1788278918366,None,001,39,2019_Oct_17_1220,ACPT_experiment_5_30_19,3.1.0,59.951952049586346,
,,,C,G,y,b,R,U,d,R,u,,,,,5,19,119,5,4,0,4,0,,,,,0,3,3,9,,,,,,up,0.617032567482056,1565.0302769604896,None,001,39,2019_Oct_17_1220,ACPT_experiment_5_30_19,3.1.0,59.951952049586346,
,,,C,G,y,b,L,D,g,L,i,,,,,5,19,119,5,4,0,4,0,,,,,0,4,4,14,,,,,,up,0.550429351997991,1566.931755566242,None,001,39,2019_Oct_17_1220,ACPT_experiment_5_30_19,3.1.0,59.951952049586346,
,,,C,G,y,b,R,U,y,R,u,,,,,5,19,119,5,4,0,4,0,,,,,0,5,5,31,,,,,,down,0.4670215344622193,1568.7665286256306,None,001,39,2019_Oct_17_1220,ACPT_experiment_5_30_19,3.1.0,59.951952049586346,
,,,C,G,y,b,L,G,d,R,i,,,,,5,19,119,5,4,0,4,0,,,,,0,6,6,17,,,,,,up,0.5003835144052573,1570.5178884339848,None,001,39,2019_Oct_17_1220,ACPT_experiment_5_30_19,3.1.0,59.951952049586346,
,,,C,G,y,b,R,U,y,L,u,,,,,5,19,119,5,4,0,4,0,,,,,0,7,7,30,,,,,,down,0.6166824087176792,1572.3363643196672,None,001,39,2019_Oct_17_1220,ACPT_experiment_5_30_19,3.1.0,59.951952049586346,
,,,C,G,y,b,R,D,g,R,i,,,,,5,19,119,5,4,0,4,0,,,,,0,8,8,3,,,,,,up,0.5337608892577919,1574.2374384316754,None,001,39,2019_Oct_17_1220,ACPT_experiment_5_30_19,3.1.0,59.951952049586346,
,,,C,G,y,b,L,U,g,R,u,,,,,5,19,119,5,4,0,4,0,,,,,0,9,9,23,,,,,,up,0.6838642917446123,1576.055541217158,None,001,39,2019_Oct_17_1220,ACPT_experiment_5_30_19,3.1.0,59.951952049586346,
,,,C,G,y,b,L,D,d,R,c ,,,,,5,19,119,5,4,0,4,0,,,,,0,10,10,13,,,,,,up,0.5669936726917513,1578.0237440846568,None,001,39,2019_Oct_17_1220,ACPT_experiment_5_30_19,3.1.0,59.951952049586346,
,,,C,G,y,b,L,U,d,R,u,,,,,5,19,119,5,4,0,4,0,,,,,0,11,11,21,,,,,,up,0.647189689152583,1579.8951829926682,None,001,39,2019_Oct_17_1220,ACPT_experiment_5_30_19,3.1.0,59.951952049586346,
,,,C,G,y,b,R,G,y,R,y,,,,,5,19,119,5,4,0,4,0,,,,,0,12,12,29,,,,,,down,0.550429351997991,1581.8267043147716,None,001,39,2019_Oct_17_1220,ACPT_experiment_5_30_19,3.1.0,59.951952049586346,
,,,C,G,y,b,L,G,g,L,c ,,,,,5,19,119,5,4,0,4,0,,,,,0,13,13,18,,,,,,up,0.5670664211929761,1583.6614960895422,None,001,39,2019_Oct_17_1220,ACPT_experiment_5_30_19,3.1.0,59.951952049586346,
,,,C,G,y,b,L,D,y,L,y,,,,,5,19,119,5,4,0,4,0,,,,,0,14,14,32,,,,,,down,0.8006811795403337,1585.5129152739555,None,001,39,2019_Oct_17_1220,ACPT_experiment_5_30_19,3.1.0,59.951952049586346,
,,,C,G,y,b,L,U,d,L,u,,,,,5,19,119,5,4,0,4,0,,,,,0,15,15,20,,,,,,up,0.7005279247086946,1587.5978828072957,None,001,39,2019_Oct_17_1220,ACPT_experiment_5_30_19,3.1.0,59.951952049586346,
,,,C,G,y,b,R,U,d,L,u,,,,,5,19,119,5,4,0,4,0,,,,,0,16,16,8,,,,,,up,0.600464020734762,1589.5827592691703,None,001,39,2019_Oct_17_1220,ACPT_experiment_5_30_19,3.1.0,59.951952049586346,
,,,C,G,y,b,L,D,g,R,i,,,,,5,19,119,5,4,0,4,0,,,,,0,17,17,15,,,,,,up,0.6004649263177271,1591.4675561302993,None,001,39,2019_Oct_17_1220,ACPT_experiment_5_30_19,3.1.0,59.951952049586346,
,,,C,G,y,b,R,U,g,L,u,,,,,5,19,119,5,4,0,4,0,,,,,0,18,18,10,,,,,,up,0.6671822452599372,1593.3356772840243,None,001,39,2019_Oct_17_1220,ACPT_experiment_5_30_19,3.1.0,59.951952049586346,
,,,C,G,y,b,L,D,y,R,y,,,,,5,19,119,5,4,0,4,0,,,,,0,19,19,33,,,,,,down,0.6338272081202376,1595.2872065571455,None,001,39,2019_Oct_17_1220,ACPT_experiment_5_30_19,3.1.0,59.951952049586346,
,,,C,G,y,b,L,U,y,R,u,,,,,5,19,119,5,4,0,4,0,,,,,0,20,20,25,,,,,,down,0.6672060922792298,1597.205362983329,None,001,39,2019_Oct_17_1220,ACPT_experiment_5_30_19,3.1.0,59.951952049586346,
,,,C,G,y,b,R,D,d,R,c ,,,,,5,19,119,5,4,0,4,0,,,,,0,21,21,1,,,,,,up,0.7169548986457812,1599.1738360164254,None,001,39,2019_Oct_17_1220,ACPT_experiment_5_30_19,3.1.0,59.951952049586346,
,,,C,G,y,b,L,G,y,R,y,,,,,5,19,119,5,4,0,4,0,,,,,0,22,22,35,,,,,,down,0.6171463690807286,1601.175123453604,None,001,39,2019_Oct_17_1220,ACPT_experiment_5_30_19,3.1.0,59.951952049586346,
,,,C,G,y,b,R,G,g,L,c ,,,,,5,19,119,5,4,0,4,0,,,,,0,23,23,6,,,,,,up,0.6004628132895959,1603.0766117189087,None,001,39,2019_Oct_17_1220,ACPT_experiment_5_30_19,3.1.0,59.951952049586346,
,,,C,G,y,b,L,G,d,L,i,,,,,5,19,119,5,4,0,4,0,,,,,0,24,24,16,,,,,,up,0.5837834835547255,1604.9614131079525,None,001,39,2019_Oct_17_1220,ACPT_experiment_5_30_19,3.1.0,59.951952049586346,
,,,C,G,y,b,L,G,y,L,y,,,,,5,19,119,5,4,0,4,0,,,,,0,25,25,34,,,,,,down,0.650499293192297,1606.8295436193685,None,001,39,2019_Oct_17_1220,ACPT_experiment_5_30_19,3.1.0,59.951952049586346,
,,,C,G,y,b,R,D,d,L,c,,,,,5,19,119,5,4,0,4,0,,,,,0,26,26,0,,,,,,up,0.6838510098614279,1608.7643905441437,None,001,39,2019_Oct_17_1220,ACPT_experiment_5_30_19,3.1.0,59.951952049586346,
,,,C,G,y,b,R,D,g,L,i,,,,,5,19,119,5,4,0,4,0,,,,,0,27,27,2,,,,,,up,0.8673701235493354,1610.732558999488,None,001,39,2019_Oct_17_1220,ACPT_experiment_5_30_19,3.1.0,59.951952049586346,
,,,C,G,y,b,L,U,y,L,u,,,,,5,19,119,5,4,0,4,0,,,,,0,28,28,24,,,,,,down,0.6338154355416918,1612.9009434061936,None,001,39,2019_Oct_17_1220,ACPT_experiment_5_30_19,3.1.0,59.951952049586346,
,,,C,G,y,b,R,U,g,R,u,,,,,5,19,119,5,4,0,4,0,,,,,0,29,29,11,,,,,,up,0.6505056322730525,1614.835786708638,None,001,39,2019_Oct_17_1220,ACPT_experiment_5_30_19,3.1.0,59.951952049586346,
,,,C,G,y,b,R,D,y,R,y,,,,,5,19,119,5,4,0,4,0,,,,,0,30,30,27,,,,,,down,0.8673317872016924,1616.7873120575669,None,001,39,2019_Oct_17_1220,ACPT_experiment_5_30_19,3.1.0,59.951952049586346,
,,,C,G,y,b,R,D,y,L,y,,,,,5,19,119,5,4,0,4,0,,,,,0,31,31,26,,,,,,down,0.6172888474739011,1618.9388305844368,None,001,39,2019_Oct_17_1220,ACPT_experiment_5_30_19,3.1.0,59.951952049586346,
,,,C,G,y,b,R,G,d,R,i,,,,,5,19,119,5,4,0,4,0,,,,,0,32,32,5,,,,,,up,0.7172283847148719,1620.8571433746192,None,001,39,2019_Oct_17_1220,ACPT_experiment_5_30_19,3.1.0,59.951952049586346,
,,,C,G,y,b,R,G,g,R,c ,,,,,5,19,119,5,4,0,4,0,,,,,0,33,33,7,,,,,,up,0.7672651664779551,1622.8420192327721,None,001,39,2019_Oct_17_1220,ACPT_experiment_5_30_19,3.1.0,59.951952049586346,
,,,C,G,y,b,L,D,d,L,c ,,,,,5,19,119,5,4,0,4,0,,,,,0,34,34,12,,,,,,up,0.5833412571846566,1624.9107203822286,None,001,39,2019_Oct_17_1220,ACPT_experiment_5_30_19,3.1.0,59.951952049586346,
,,,C,G,y,b,L,U,g,L,u,,,,,5,19,119,5,4,0,4,0,,,,,0,35,35,22,,,,,,up,0.5504278426933524,1626.7784234584642,None,001,39,2019_Oct_17_1220,ACPT_experiment_5_30_19,3.1.0,59.951952049586346,
,,,C,G,y,b,R,U,d,L,u,,,,,5,19,119,5,4,0,4,0,,,,,1,0,36,8,,,,,,up,0.4670559466158011,1628.613193801103,None,001,39,2019_Oct_17_1220,ACPT_experiment_5_30_19,3.1.0,59.951952049586346,
,,,C,G,y,b,R,G,y,L,y,,,,,5,19,119,5,4,0,4,0,,,,,1,1,37,28,,,,,,up,0.6505056322730525,1630.3645557224854,None,001,39,2019_Oct_17_1220,ACPT_experiment_5_30_19,3.1.0,59.951952049586346,
,,,C,G,y,b,R,U,y,L,u,,,,,5,19,119,5,4,0,4,0,,,,,1,2,38,30,,,,,,down,0.7172181214400553,1632.2994041565662,None,001,39,2019_Oct_17_1220,ACPT_experiment_5_30_19,3.1.0,59.951952049586346,
,,,C,G,y,b,L,D,y,R,y,,,,,5,19,119,5,4,0,4,0,,,,,1,3,39,33,,,,,,down,0.7339071107280688,1634.3176374667464,None,001,39,2019_Oct_17_1220,ACPT_experiment_5_30_19,3.1.0,59.951952049586346,
,,,C,G,y,b,L,U,d,R,u,,,,,5,19,119,5,4,0,4,0,,,,,1,4,40,21,,,,,,up,0.7839263845526148,1636.3525651997134,None,001,39,2019_Oct_17_1220,ACPT_experiment_5_30_19,3.1.0,59.951952049586346,
,,,C,G,y,b,R,D,d,L,c,,,,,5,19,119,5,4,0,4,0,,,,,1,5,41,0,,,,,,up,0.5671086817337709,1638.4208349897963,None,001,39,2019_Oct_17_1220,ACPT_experiment_5_30_19,3.1.0,59.951952049586346,
,,,C,G,y,b,L,G,g,R,c ,,,,,5,19,119,5,4,0,4,0,,,,,1,6,42,19,,,,,,up,0.6338235857883774,1640.2722834547267,None,001,39,2019_Oct_17_1220,ACPT_experiment_5_30_19,3.1.0,59.951952049586346,
,,,C,G,y,b,L,U,d,L,u,,,,,5,19,119,5,4,0,4,0,,,,,1,7,43,20,,,,,,up,0.8006153738415378,1642.1904570869874,None,001,39,2019_Oct_17_1220,ACPT_experiment_5_30_19,3.1.0,59.951952049586346,
,,,C,G,y,b,R,D,g,R,i,,,,,5,19,119,5,4,0,4,0,,,,,1,8,44,3,,,,,,up,0.447027469049317,1644.2954041964113,None,001,39,2019_Oct_17_1220,ACPT_experiment_5_30_19,3.1.0,59.951952049586346,
,,,C,G,y,b,R,D,d,R,c ,,,,,5,19,119,5,4,0,4,0,,,,,1,9,45,1,,,,,,up,0.7005366786770537,1646.0267711467977,None,001,39,2019_Oct_17_1220,ACPT_experiment_5_30_19,3.1.0,59.951952049586346,
,,,C,G,y,b,L,U,y,R,u,,,,,5,19,119,5,4,0,4,0,,,,,1,10,46,25,,,,,,down,0.6504835964205995,1648.0450189463063,None,001,39,2019_Oct_17_1220,ACPT_experiment_5_30_19,3.1.0,59.951952049586346,
,,,C,G,y,b,R,U,g,L,u,,,,,5,19,119,5,4,0,4,0,,,,,1,11,47,10,,,,,,up,0.8506500425773993,1649.9965376542932,None,001,39,2019_Oct_17_1220,ACPT_experiment_5_30_19,3.1.0,59.951952049586346,
,,,C,G,y,b,R,G,g,R,c ,,,,,5,19,119,5,4,0,4,0,,,,,1,12,48,7,,,,,,up,0.6171400299990637,1652.1315304986774,None,001,39,2019_Oct_17_1220,ACPT_experiment_5_30_19,3.1.0,59.951952049586346,
,,,C,G,y,b,R,U,g,R,u,,,,,5,19,119,5,4,0,4,0,,,,,1,13,49,11,,,,,,up,0.5670920793791083,1654.0163433584394,None,001,39,2019_Oct_17_1220,ACPT_experiment_5_30_19,3.1.0,59.951952049586346,
,,,C,G,y,b,R,U,y,R,u,,,,,5,19,119,5,4,0,4,0,,,,,1,14,50,31,,,,,,down,0.58377533330804,1655.88446028611,None,001,39,2019_Oct_17_1220,ACPT_experiment_5_30_19,3.1.0,59.951952049586346,
,,,C,G,y,b,R,G,g,L,c ,,,,,5,19,119,5,4,0,4,0,,,,,1,15,51,6,,,,,,up,0.58376808864341,1657.7692659012082,None,001,39,2019_Oct_17_1220,ACPT_experiment_5_30_19,3.1.0,59.951952049586346,
,,,C,G,y,b,R,D,y,R,y,,,,,5,19,119,5,4,0,4,0,,,,,1,16,52,27,,,,,,down,0.6838814978218579,1659.6373598874425,None,001,39,2019_Oct_17_1220,ACPT_experiment_5_30_19,3.1.0,59.951952049586346,
,,,C,G,y,b,R,G,d,L,i,,,,,5,19,119,5,4,0,4,0,,,,,1,17,53,4,,,,,,up,0.700541206591879,1661.6055838852108,None,001,39,2019_Oct_17_1220,ACPT_experiment_5_30_19,3.1.0,59.951952049586346,
,,,C,G,y,b,L,D,g,L,i,,,,,5,19,119,5,4,0,4,0,,,,,1,18,54,14,,,,,,up,0.6333547956510301,1663.607577073416,None,001,39,2019_Oct_17_1220,ACPT_experiment_5_30_19,3.1.0,59.951952049586346,
,,,C,G,y,b,R,U,d,R,u,,,,,5,19,119,5,4,0,4,0,,,,,1,19,55,9,,,,,,up,0.7005369805392547,1665.5253117997772,None,001,39,2019_Oct_17_1220,ACPT_experiment_5_30_19,3.1.0,59.951952049586346,
,,,C,G,y,b,R,G,d,R,i,,,,,5,19,119,5,4,0,4,0,,,,,1,20,56,5,,,,,,up,0.9173737006021838,1667.510190374679,None,001,39,2019_Oct_17_1220,ACPT_experiment_5_30_19,3.1.0,59.951952049586346,
,,,C,G,y,b,L,D,y,L,y,,,,,5,19,119,5,4,0,4,0,,,,,1,21,57,32,,,,,,down,0.9007333109357205,1669.7119017454515,None,001,39,2019_Oct_17_1220,ACPT_experiment_5_30_19,3.1.0,59.951952049586346,
,,,C,G,y,b,L,G,d,L,i,,,,,5,19,119,5,4,0,4,0,,,,,1,22,58,16,,,,,,up,0.6002901487963754,1671.89708803746,None,001,39,2019_Oct_17_1220,ACPT_experiment_5_30_19,3.1.0,59.951952049586346,
,,,C,G,y,b,R,D,y,L,y,,,,,5,19,119,5,4,0,4,0,,,,,1,23,59,26,,,,,,down,0.7172123860818829,1673.781755702079,None,001,39,2019_Oct_17_1220,ACPT_experiment_5_30_19,3.1.0,59.951952049586346,
,,,C,G,y,b,L,G,y,L,y,,,,,5,19,119,5,4,0,4,0,,,,,1,24,60,34,,,,,,down,0.717221743772825,1675.783300928555,None,001,39,2019_Oct_17_1220,ACPT_experiment_5_30_19,3.1.0,59.951952049586346,
,,,C,G,y,b,L,D,g,R,i,,,,,5,19,119,5,4,0,4,0,,,,,1,25,61,15,,,,,,up,0.633832037897264,1677.7848615499415,None,001,39,2019_Oct_17_1220,ACPT_experiment_5_30_19,3.1.0,59.951952049586346,
,,,C,G,y,b,L,D,d,L,c ,,,,,5,19,119,5,4,0,4,0,,,,,1,26,62,12,,,,,,up,0.6671991494758913,1679.6863286849757,None,001,39,2019_Oct_17_1220,ACPT_experiment_5_30_19,3.1.0,59.951952049586346,
,,,C,G,y,b,L,G,y,R,y,,,,,5,19,119,5,4,0,4,0,,,,,1,27,63,35,,,,,,down,0.6505047266909969,1681.6378682213717,None,001,39,2019_Oct_17_1220,ACPT_experiment_5_30_19,3.1.0,59.951952049586346,
,,,C,G,y,b,L,G,d,R,i,,,,,5,19,119,5,4,0,4,0,,,,,1,28,64,17,,,,,,up,0.7171915576718675,1683.5727169573138,None,001,39,2019_Oct_17_1220,ACPT_experiment_5_30_19,3.1.0,59.951952049586346,
,,,C,G,y,b,L,D,d,R,c ,,,,,5,19,119,5,4,0,4,0,,,,,1,29,65,13,,,,,,up,0.6505044248297054,1685.5742682210093,None,001,39,2019_Oct_17_1220,ACPT_experiment_5_30_19,3.1.0,59.951952049586346,
,,,C,G,y,b,L,U,g,L,u,,,,,5,19,119,5,4,0,4,0,,,,,1,30,66,22,,,,,,up,0.6338103039042835,1687.5091202774229,None,001,39,2019_Oct_17_1220,ACPT_experiment_5_30_19,3.1.0,59.951952049586346,
,,,C,G,y,b,L,U,g,R,u,,,,,5,19,119,5,4,0,4,0,,,,,1,31,67,23,,,,,,up,0.5170631460014192,1689.4272776091884,None,001,39,2019_Oct_17_1220,ACPT_experiment_5_30_19,3.1.0,59.951952049586346,
,,,C,G,y,b,L,G,g,L,c ,,,,,5,19,119,5,4,0,4,0,,,,,1,32,68,18,,,,,,up,0.517067372054953,1691.2286766141942,None,001,39,2019_Oct_17_1220,ACPT_experiment_5_30_19,3.1.0,59.951952049586346,
,,,C,G,y,b,L,U,y,L,u,,,,,5,19,119,5,4,0,4,0,,,,,1,33,69,24,,,,,,down,0.6838642917446123,1693.030084071308,None,001,39,2019_Oct_17_1220,ACPT_experiment_5_30_19,3.1.0,59.951952049586346,
,,,C,G,y,b,R,D,g,L,i,,,,,5,19,119,5,4,0,4,0,,,,,1,34,70,2,,,,,,up,0.6836303494674212,1695.0152159075924,None,001,39,2019_Oct_17_1220,ACPT_experiment_5_30_19,3.1.0,59.951952049586346,
,,,C,G,y,b,R,G,y,R,y,,,,,5,19,119,5,4,0,4,0,,,,,1,35,71,29,,,,,,down,0.783741645619557,1696.9833357633152,None,001,39,2019_Oct_17_1220,ACPT_experiment_5_30_19,3.1.0,59.951952049586346,
,,,C,G,y,b,,,,,,,,,,5,19,119,5,5,0,5,0,0,0,0,0,,,,,,,,,,,,,,001,39,2019_Oct_17_1220,ACPT_experiment_5_30_19,3.1.0,59.951952049586346,
,,,C,G,y,b,R,U,g,L,u,,,,,5,19,119,5,5,0,5,0,,,,,0,0,0,10,,,,,,up,0.6669443787895943,1722.4365848895022,None,001,39,2019_Oct_17_1220,ACPT_experiment_5_30_19,3.1.0,59.951952049586346,
,,,C,G,y,b,L,U,g,R,u,,,,,5,19,119,5,5,0,5,0,,,,,0,1,1,23,,,,,,up,0.583768692365993,1724.3878853519836,None,001,39,2019_Oct_17_1220,ACPT_experiment_5_30_19,3.1.0,59.951952049586346,
,,,C,G,y,b,L,G,d,L,i,,,,,5,19,119,5,5,0,5,0,,,,,0,2,2,16,,,,,,up,0.48370810886262916,1726.2559935256859,None,001,39,2019_Oct_17_1220,ACPT_experiment_5_30_19,3.1.0,59.951952049586346,
,,,C,G,y,b,L,G,d,R,i,,,,,5,19,119,5,5,0,5,0,,,,,0,3,3,17,,,,,,up,0.5671189450085876,1728.0073415614606,None,001,39,2019_Oct_17_1220,ACPT_experiment_5_30_19,3.1.0,59.951952049586346,
,,,C,G,y,b,R,G,g,R,c ,,,,,5,19,119,5,5,0,5,0,,,,,0,4,4,7,,,,,,up,0.4837102218889413,1729.8587969691953,None,001,39,2019_Oct_17_1220,ACPT_experiment_5_30_19,3.1.0,59.951952049586346,
,,,C,G,y,b,R,G,g,L,c ,,,,,5,19,119,5,5,0,5,0,,,,,0,5,5,6,,,,,,up,0.6504968783046934,1731.6268530115012,None,001,39,2019_Oct_17_1220,ACPT_experiment_5_30_19,3.1.0,59.951952049586346,
,,,C,G,y,b,R,G,y,L,y,,,,,5,19,119,5,5,0,5,0,,,,,0,6,6,28,,,,,,down,0.66720971461109,1733.5449892129973,None,001,39,2019_Oct_17_1220,ACPT_experiment_5_30_19,3.1.0,59.951952049586346,
,,,C,G,y,b,R,D,d,L,c,,,,,5,19,119,5,5,0,5,0,,,,,0,7,7,0,,,,,,up,0.663862377946316,1735.5165309650529,None,001,39,2019_Oct_17_1220,ACPT_experiment_5_30_19,3.1.0,59.951952049586346,
,,,C,G,y,b,R,U,d,L,u,,,,,5,19,119,5,5,0,5,0,,,,,0,8,8,8,,,,,,up,0.4336764587360449,1737.4480504759895,None,001,39,2019_Oct_17_1220,ACPT_experiment_5_30_19,3.1.0,59.951952049586346,
,,,C,G,y,b,R,U,g,R,u,,,,,5,19,119,5,5,0,5,0,,,,,0,9,9,11,,,,,,up,0.5838459687820432,1739.1493590132532,None,001,39,2019_Oct_17_1220,ACPT_experiment_5_30_19,3.1.0,59.951952049586346,
,,,C,G,y,b,L,G,g,L,c ,,,,,5,19,119,5,5,0,5,0,,,,,0,10,10,18,,,,,,up,0.45036454244018387,1741.0174862041977,None,001,39,2019_Oct_17_1220,ACPT_experiment_5_30_19,3.1.0,59.951952049586346,
,,,C,G,y,b,L,U,d,R,u,,,,,5,19,119,5,5,0,5,0,,,,,0,11,11,21,,,,,,up,0.4334114247749312,1742.7691282525902,None,001,39,2019_Oct_17_1220,ACPT_experiment_5_30_19,3.1.0,59.951952049586346,
,,,C,G,y,b,R,G,y,R,y,,,,,5,19,119,5,5,0,5,0,,,,,0,12,12,29,,,,,,down,0.6671765099008553,1744.4868800642844,None,001,39,2019_Oct_17_1220,ACPT_experiment_5_30_19,3.1.0,59.951952049586346,
,,,C,G,y,b,L,G,g,R,c ,,,,,5,19,119,5,5,0,5,0,,,,,0,13,13,19,,,,,,up,0.5671301138645504,1746.438395753661,None,001,39,2019_Oct_17_1220,ACPT_experiment_5_30_19,3.1.0,59.951952049586346,
,,,C,G,y,b,L,U,d,L,u,,,,,5,19,119,5,5,0,5,0,,,,,0,14,14,20,,,,,,up,0.5671433957495537,1748.2898143343527,None,001,39,2019_Oct_17_1220,ACPT_experiment_5_30_19,3.1.0,59.951952049586346,
,,,C,G,y,b,L,D,d,L,c ,,,,,5,19,119,5,5,0,5,0,,,,,0,15,15,12,,,,,,up,0.6169057858605811,1750.1582258783628,None,001,39,2019_Oct_17_1220,ACPT_experiment_5_30_19,3.1.0,59.951952049586346,
,,,C,G,y,b,L,U,y,R,u,,,,,5,19,119,5,5,0,5,0,,,,,0,16,16,25,,,,,,down,0.6504911429456115,1752.0594506190118,None,001,39,2019_Oct_17_1220,ACPT_experiment_5_30_19,3.1.0,59.951952049586346,
,,,C,G,y,b,L,U,y,L,u,,,,,5,19,119,5,5,0,5,0,,,,,0,17,17,24,,,,,,down,0.5839437717477267,1753.9774479644457,None,001,39,2019_Oct_17_1220,ACPT_experiment_5_30_19,3.1.0,59.951952049586346,
,,,C,G,y,b,R,G,d,L,i,,,,,5,19,119,5,5,0,5,0,,,,,0,18,18,4,,,,,,up,0.7339068088667773,1755.8457333305569,None,001,39,2019_Oct_17_1220,ACPT_experiment_5_30_19,3.1.0,59.951952049586346,
,,,C,G,y,b,L,G,y,R,y,,,,,5,19,119,5,5,0,5,0,,,,,0,19,19,35,,,,,,down,0.6338133225144702,1757.8806568374694,None,001,39,2019_Oct_17_1220,ACPT_experiment_5_30_19,3.1.0,59.951952049586346,
,,,C,G,y,b,R,U,d,R,u,,,,,5,19,119,5,5,0,5,0,,,,,0,20,20,9,,,,,,up,0.5337587762314797,1759.8154998380523,None,001,39,2019_Oct_17_1220,ACPT_experiment_5_30_19,3.1.0,59.951952049586346,
,,,C,G,y,b,R,D,g,R,i,,,,,5,19,119,5,5,0,5,0,,,,,0,21,21,3,,,,,,up,0.6505083490219477,1761.6335827007088,None,001,39,2019_Oct_17_1220,ACPT_experiment_5_30_19,3.1.0,59.951952049586346,
,,,C,G,y,b,R,D,g,L,i,,,,,5,19,119,5,5,0,5,0,,,,,0,22,22,2,,,,,,up,0.4670535317281974,1763.5517198077878,None,001,39,2019_Oct_17_1220,ACPT_experiment_5_30_19,3.1.0,59.951952049586346,
,,,C,G,y,b,L,G,y,L,y,,,,,5,19,119,5,5,0,5,0,,,,,0,23,23,34,,,,,,down,0.583789822635481,1765.3031085947978,None,001,39,2019_Oct_17_1220,ACPT_experiment_5_30_19,3.1.0,59.951952049586346,
,,,C,G,y,b,L,D,g,L,i,,,,,5,19,119,5,5,0,5,0,,,,,0,24,24,14,,,,,,up,0.5504230129172356,1767.1712288429399,None,001,39,2019_Oct_17_1220,ACPT_experiment_5_30_19,3.1.0,59.951952049586346,
,,,C,G,y,b,L,D,y,L,y,,,,,5,19,119,5,5,0,5,0,,,,,0,25,25,32,,,,,,down,0.5971903381541779,1769.025999288212,None,001,39,2019_Oct_17_1220,ACPT_experiment_5_30_19,3.1.0,59.951952049586346,
,,,C,G,y,b,L,D,y,R,y,,,,,5,19,119,5,5,0,5,0,,,,,0,26,26,33,,,,,,down,0.6171904407865441,1770.9074762820264,None,001,39,2019_Oct_17_1220,ACPT_experiment_5_30_19,3.1.0,59.951952049586346,
,,,C,G,y,b,R,U,y,L,u,,,,,5,19,119,5,5,0,5,0,,,,,0,27,27,30,,,,,,down,0.5170715981093963,1772.8089573026673,None,001,39,2019_Oct_17_1220,ACPT_experiment_5_30_19,3.1.0,59.951952049586346,
,,,C,G,y,b,L,D,d,R,c ,,,,,5,19,119,5,5,0,5,0,,,,,0,28,28,13,,,,,,up,0.5504272389707694,1774.6103635523368,None,001,39,2019_Oct_17_1220,ACPT_experiment_5_30_19,3.1.0,59.951952049586346,
,,,C,G,y,b,R,D,y,R,y,,,,,5,19,119,5,5,0,5,0,,,,,0,29,29,27,,,,,,down,0.8673658974948921,1776.4451100479573,None,001,39,2019_Oct_17_1220,ACPT_experiment_5_30_19,3.1.0,59.951952049586346,
,,,C,G,y,b,R,G,d,R,i,,,,,5,19,119,5,5,0,5,0,,,,,0,30,30,5,,,,,,up,0.8006147701198643,1778.5968105970123,None,001,39,2019_Oct_17_1220,ACPT_experiment_5_30_19,3.1.0,59.951952049586346,
,,,C,G,y,b,L,D,g,R,i,,,,,5,19,119,5,5,0,5,0,,,,,0,31,31,15,,,,,,up,0.5837804649445388,1780.6817684707994,None,001,39,2019_Oct_17_1220,ACPT_experiment_5_30_19,3.1.0,59.951952049586346,
,,,C,G,y,b,R,D,y,L,y,,,,,5,19,119,5,5,0,5,0,,,,,0,32,32,26,,,,,,down,0.6004296085793612,1782.5665982347773,None,001,39,2019_Oct_17_1220,ACPT_experiment_5_30_19,3.1.0,59.951952049586346,
,,,C,G,y,b,R,D,d,R,c ,,,,,5,19,119,5,5,0,5,0,,,,,0,33,33,1,,,,,,up,0.750576479051233,1784.4680554083989,None,001,39,2019_Oct_17_1220,ACPT_experiment_5_30_19,3.1.0,59.951952049586346,
,,,C,G,y,b,L,U,g,L,u,,,,,5,19,119,5,5,0,5,0,,,,,0,34,34,22,,,,,,up,0.4837041846694774,1786.5029698594808,None,001,39,2019_Oct_17_1220,ACPT_experiment_5_30_19,3.1.0,59.951952049586346,
,,,C,G,y,b,R,U,y,R,u,,,,,5,19,119,5,5,0,5,0,,,,,0,35,35,31,,,,,,down,0.5334653673362482,1788.2879775101483,None,001,39,2019_Oct_17_1220,ACPT_experiment_5_30_19,3.1.0,59.951952049586346,
,,,C,G,y,b,R,G,g,L,c ,,,,,5,19,119,5,5,0,5,0,,,,,1,0,36,6,,,,,,up,0.6004631151508875,1790.1057811513765,None,001,39,2019_Oct_17_1220,ACPT_experiment_5_30_19,3.1.0,59.951952049586346,
,,,C,G,y,b,L,U,y,R,u,,,,,5,19,119,5,5,0,5,0,,,,,1,1,37,25,,,,,,down,0.5170616366967806,1791.9905843515862,None,001,39,2019_Oct_17_1220,ACPT_experiment_5_30_19,3.1.0,59.951952049586346,
,,,C,G,y,b,L,D,g,R,i,,,,,5,19,119,5,5,0,5,0,,,,,1,2,38,15,,,,,,up,0.5504296538592826,1793.7919848658967,None,001,39,2019_Oct_17_1220,ACPT_experiment_5_30_19,3.1.0,59.951952049586346,
,,,C,G,y,b,R,D,d,R,c ,,,,,5,19,119,5,5,0,5,0,,,,,1,3,39,1,,,,,,up,0.48344216931764095,1795.6436980629278,None,001,39,2019_Oct_17_1220,ACPT_experiment_5_30_19,3.1.0,59.951952049586346,
,,,C,G,y,b,R,U,y,R,u,,,,,5,19,119,5,5,0,5,0,,,,,1,4,40,31,,,,,,down,0.6504835964205995,1797.4281659861217,None,001,39,2019_Oct_17_1220,ACPT_experiment_5_30_19,3.1.0,59.951952049586346,
,,,C,G,y,b,L,U,d,R,u,,,,,5,19,119,5,5,0,5,0,,,,,1,5,41,21,,,,,,up,0.5337545501770364,1799.3796686954747,None,001,39,2019_Oct_17_1220,ACPT_experiment_5_30_19,3.1.0,59.951952049586346,
,,,C,G,y,b,L,G,y,L,y,,,,,5,19,119,5,5,0,5,0,,,,,1,6,42,34,,,,,,down,0.6171406337207372,1801.1977666511812,None,001,39,2019_Oct_17_1220,ACPT_experiment_5_30_19,3.1.0,59.951952049586346,
,,,C,G,y,b,L,G,y,R,y,,,,,5,19,119,5,5,0,5,0,,,,,1,7,43,35,,,,,,down,0.6839062504250251,1803.1159315294726,None,001,39,2019_Oct_17_1220,ACPT_experiment_5_30_19,3.1.0,59.951952049586346,
,,,C,G,y,b,R,D,g,L,i,,,,,5,19,119,5,5,0,5,0,,,,,1,8,44,2,,,,,,up,0.5170507697002904,1805.1008197639267,None,001,39,2019_Oct_17_1220,ACPT_experiment_5_30_19,3.1.0,59.951952049586346,
,,,C,G,y,b,R,G,y,L,y,,,,,5,19,119,5,5,0,5,0,,,,,1,9,45,28,,,,,,down,0.6171291630025735,1806.9022172596278,None,001,39,2019_Oct_17_1220,ACPT_experiment_5_30_19,3.1.0,59.951952049586346,
,,,C,G,y,b,R,D,y,R,y,,,,,5,19,119,5,5,0,5,0,,,,,1,10,46,27,,,,,,down,0.6502765197719782,1808.8539693061703,None,001,39,2019_Oct_17_1220,ACPT_experiment_5_30_19,3.1.0,59.951952049586346,
,,,C,G,y,b,L,D,d,R,c ,,,,,5,19,119,5,5,0,5,0,,,,,1,11,47,13,,,,,,up,0.5504166738355707,1810.8052582979326,None,001,39,2019_Oct_17_1220,ACPT_experiment_5_30_19,3.1.0,59.951952049586346,
,,,C,G,y,b,L,G,d,L,i,,,,,5,19,119,5,5,0,5,0,,,,,1,12,48,16,,,,,,up,0.5837720128365618,1812.640029244294,None,001,39,2019_Oct_17_1220,ACPT_experiment_5_30_19,3.1.0,59.951952049586346,
,,,C,G,y,b,R,U,y,L,u,,,,,5,19,119,5,5,0,5,0,,,,,1,13,49,30,,,,,,down,0.7505773846341981,1814.5248221812299,None,001,39,2019_Oct_17_1220,ACPT_experiment_5_30_19,3.1.0,59.951952049586346,
,,,C,G,y,b,L,U,g,L,u,,,,,5,19,119,5,5,0,5,0,,,,,1,14,50,22,,,,,,up,0.6338145299587268,1816.5931046494752,None,001,39,2019_Oct_17_1220,ACPT_experiment_5_30_19,3.1.0,59.951952049586346,
,,,C,G,y,b,R,U,g,R,u,,,,,5,19,119,5,5,0,5,0,,,,,1,15,51,11,,,,,,up,0.517089709769607,1818.4945618230959,None,001,39,2019_Oct_17_1220,ACPT_experiment_5_30_19,3.1.0,59.951952049586346,
,,,C,G,y,b,L,D,d,L,c ,,,,,5,19,119,5,5,0,5,0,,,,,1,16,52,12,,,,,,up,0.3836254895059028,1820.2959910142017,None,001,39,2019_Oct_17_1220,ACPT_experiment_5_30_19,3.1.0,59.951952049586346,
,,,C,G,y,b,L,G,d,R,i,,,,,5,19,119,5,5,0,5,0,,,,,1,17,53,17,,,,,,up,0.35003318961753394,1821.9975494923756,None,001,39,2019_Oct_17_1220,ACPT_experiment_5_30_19,3.1.0,59.951952049586346,
,,,C,G,y,b,R,G,y,R,y,,,,,5,19,119,5,5,0,5,0,,,,,1,18,54,29,,,,,,down,0.8172953072989912,1823.6652768986078,None,001,39,2019_Oct_17_1220,ACPT_experiment_5_30_19,3.1.0,59.951952049586346,
,,,C,G,y,b,L,U,d,L,u,,,,,5,19,119,5,5,0,5,0,,,,,1,19,55,20,,,,,,up,0.5170543920321506,1825.7836079211957,None,001,39,2019_Oct_17_1220,ACPT_experiment_5_30_19,3.1.0,59.951952049586346,
,,,C,G,y,b,R,D,d,L,c,,,,,5,19,119,5,5,0,5,0,,,,,1,20,56,0,,,,,,up,0.5003974000110247,1827.5683076736395,None,001,39,2019_Oct_17_1220,ACPT_experiment_5_30_19,3.1.0,59.951952049586346,
,,,C,G,y,b,L,D,y,L,y,,,,,5,19,119,5,5,0,5,0,,,,,1,21,57,32,,,,,,down,0.7338911120950797,1829.3530620629244,None,001,39,2019_Oct_17_1220,ACPT_experiment_5_30_19,3.1.0,59.951952049586346,
,,,C,G,y,b,L,D,y,R,y,,,,,5,19,119,5,5,0,5,0,,,,,1,22,58,33,,,,,,down,0.6004570779314236,1831.371292052634,None,001,39,2019_Oct_17_1220,ACPT_experiment_5_30_19,3.1.0,59.951952049586346,
,,,C,G,y,b,L,D,g,L,i,,,,,5,19,119,5,5,0,5,0,,,,,1,23,59,14,,,,,,up,0.5837843891376906,1833.256091630512,None,001,39,2019_Oct_17_1220,ACPT_experiment_5_30_19,3.1.0,59.951952049586346,
,,,C,G,y,b,R,G,d,L,i,,,,,5,19,119,5,5,0,5,0,,,,,1,24,60,4,,,,,,up,0.5168002250675272,1835.141164694458,None,001,39,2019_Oct_17_1220,ACPT_experiment_5_30_19,3.1.0,59.951952049586346,
,,,C,G,y,b,R,D,g,R,i,,,,,5,19,119,5,5,0,5,0,,,,,1,25,61,3,,,,,,up,0.833980372393853,1836.9423028915571,None,001,39,2019_Oct_17_1220,ACPT_experiment_5_30_19,3.1.0,59.951952049586346,
,,,C,G,y,b,R,D,y,L,y,,,,,5,19,119,5,5,0,5,0,,,,,1,26,62,26,,,,,,down,0.5505135712173796,1839.0439186629492,None,001,39,2019_Oct_17_1220,ACPT_experiment_5_30_19,3.1.0,59.951952049586346,
,,,C,G,y,b,L,G,g,R,c ,,,,,5,19,119,5,5,0,5,0,,,,,1,27,63,19,,,,,,up,0.5337467017916424,1840.878705909805,None,001,39,2019_Oct_17_1220,ACPT_experiment_5_30_19,3.1.0,59.951952049586346,
