facing_vig,person_vig,text_vig,facing_train,person_train,food_train,correct_key_train,facing_exp,person_exp,food_exp,showL_R,consistent,vig_random.thisRepN,vig_random.thisTrialN,vig_random.thisN,vig_random.thisIndex,trainTrials.thisRepN,trainTrials.thisTrialN,trainTrials.thisN,trainTrials.thisIndex,expBlock.thisRepN,expBlock.thisTrialN,expBlock.thisN,expBlock.thisIndex,breakLoop.thisRepN,breakLoop.thisTrialN,breakLoop.thisN,breakLoop.thisIndex,expTrials.thisRepN,expTrials.thisTrialN,expTrials.thisN,expTrials.thisIndex,train_resp.keys,train_resp.corr,train_resp.rt,train_resp.started,train_resp.stopped,exp_resp.keys,exp_resp.rt,exp_resp.started,exp_resp.stopped,session,participant,date,expName,psychopyVersion,frameRate,
C,D,"is allergic to gluten, meaning she can’t eat wheat products. She enjoys eating dairy products. She thinks eating insects, like crickets, is disgusting.",,,,,,,,,,0,0,0,1,,,,,,,,,,,,,,,,,,,,,,,,,,001,40,2019_Oct_18_1105,ACPT_experiment_5_30_19,3.1.0,59.9420786543708,
C,G,"cannot eat dairy products because she is lactose intolerant. She enjoys eating wheat products. She thinks eating insects, like crickets, is disgusting.",,,,,,,,,,0,1,1,0,,,,,,,,,,,,,,,,,,,,,,,,,,001,40,2019_Oct_18_1105,ACPT_experiment_5_30_19,3.1.0,59.9420786543708,
C,U,"did not report her food preferences, so her food preferences are unknown.",,,,,,,,,,0,2,2,2,,,,,,,,,,,,,,,,,,,,,,,,,,001,40,2019_Oct_18_1105,ACPT_experiment_5_30_19,3.1.0,59.9420786543708,
,,,C,U,y,n,,,,,,,,,,0,0,0,8,,,,,,,,,,,,,n,1,1.6347226938953554,1482.8633077497793,None,,,,,001,40,2019_Oct_18_1105,ACPT_experiment_5_30_19,3.1.0,59.9420786543708,
,,,C,G,g,v,,,,,,,,,,0,1,1,19,,,,,,,,,,,,,v,1,3.4861886541843887,1487.783980318021,None,,,,,001,40,2019_Oct_18_1105,ACPT_experiment_5_30_19,3.1.0,59.9420786543708,
,,,C,D,d,v,,,,,,,,,,0,2,2,0,,,,,,,,,,,,,v,1,2.218497437871065,1494.5561532598276,None,,,,,001,40,2019_Oct_18_1105,ACPT_experiment_5_30_19,3.1.0,59.9420786543708,
,,,C,G,d,b,,,,,,,,,,0,3,3,12,,,,,,,,,,,,,b,1,2.435316171975728,1500.0606361928048,None,,,,,001,40,2019_Oct_18_1105,ACPT_experiment_5_30_19,3.1.0,59.9420786543708,
,,,C,U,g,n,,,,,,,,,,0,4,4,7,,,,,,,,,,,,,n,1,1.2677108379180027,1505.7819426898202,None,,,,,001,40,2019_Oct_18_1105,ACPT_experiment_5_30_19,3.1.0,59.9420786543708,
,,,C,D,d,v,,,,,,,,,,0,5,5,18,,,,,,,,,,,,,b,0,7.272311953330927,1510.3526117110794,None,,,,,001,40,2019_Oct_18_1105,ACPT_experiment_5_30_19,3.1.0,59.9420786543708,
,,,C,D,g,b,,,,,,,,,,0,6,6,10,,,,,,,,,,,,,b,1,2.468667164753697,1520.894250416959,None,,,,,001,40,2019_Oct_18_1105,ACPT_experiment_5_30_19,3.1.0,59.9420786543708,
,,,C,D,y,b,,,,,,,,,,0,7,7,2,,,,,,,,,,,,,b,1,1.8014815821049979,1526.6322244107857,None,,,,,001,40,2019_Oct_18_1105,ACPT_experiment_5_30_19,3.1.0,59.9420786543708,
,,,C,D,g,b,,,,,,,,,,0,8,8,1,,,,,,,,,,,,,b,1,1.6013469477084072,1531.703012821964,None,,,,,001,40,2019_Oct_18_1105,ACPT_experiment_5_30_19,3.1.0,59.9420786543708,
,,,C,G,g,v,,,,,,,,,,0,9,9,13,,,,,,,,,,,,,v,1,2.4019911400905585,1536.5902987766683,None,,,,,001,40,2019_Oct_18_1105,ACPT_experiment_5_30_19,3.1.0,59.9420786543708,
,,,C,G,g,v,,,,,,,,,,0,10,10,4,,,,,,,,,,,,,v,1,1.2510366999479174,1542.2615970477032,None,,,,,001,40,2019_Oct_18_1105,ACPT_experiment_5_30_19,3.1.0,59.9420786543708,
,,,C,D,d,v,,,,,,,,,,0,11,11,9,,,,,,,,,,,,,v,1,2.101551767076444,1546.8154775219423,None,,,,,001,40,2019_Oct_18_1105,ACPT_experiment_5_30_19,3.1.0,59.9420786543708,
,,,C,G,y,b,,,,,,,,,,0,12,12,5,,,,,,,,,,,,,b,1,1.8014728278506027,1552.2030187084456,None,,,,,001,40,2019_Oct_18_1105,ACPT_experiment_5_30_19,3.1.0,59.9420786543708,
,,,C,U,d,n,,,,,,,,,,0,13,13,15,,,,,,,,,,,,,n,1,0.8173361407323227,1557.2904821632064,None,,,,,001,40,2019_Oct_18_1105,ACPT_experiment_5_30_19,3.1.0,59.9420786543708,
,,,C,D,y,b,,,,,,,,,,0,14,14,11,,,,,,,,,,,,,n,0,1.3509224418332906,1561.410748715162,None,,,,,001,40,2019_Oct_18_1105,ACPT_experiment_5_30_19,3.1.0,59.9420786543708,
,,,C,U,d,n,,,,,,,,,,0,15,15,6,,,,,,,,,,,,,n,1,1.0842473227828577,1566.0476017116077,None,,,,,001,40,2019_Oct_18_1105,ACPT_experiment_5_30_19,3.1.0,59.9420786543708,
,,,C,G,y,b,,,,,,,,,,0,16,16,14,,,,,,,,,,,,,b,1,1.4509446293402561,1570.4347728044556,None,,,,,001,40,2019_Oct_18_1105,ACPT_experiment_5_30_19,3.1.0,59.9420786543708,
,,,C,G,d,b,,,,,,,,,,0,17,17,3,,,,,,,,,,,,,b,1,4.2368158663316535,1575.1549832084343,None,,,,,001,40,2019_Oct_18_1105,ACPT_experiment_5_30_19,3.1.0,59.9420786543708,
,,,C,U,y,n,,,,,,,,,,0,18,18,17,,,,,,,,,,,,,n,1,1.2510542084569352,1582.6777637407833,None,,,,,001,40,2019_Oct_18_1105,ACPT_experiment_5_30_19,3.1.0,59.9420786543708,
,,,C,U,g,n,,,,,,,,,,0,19,19,16,,,,,,,,,,,,,n,1,1.464545722112689,1587.234818386953,None,,,,,001,40,2019_Oct_18_1105,ACPT_experiment_5_30_19,3.1.0,59.9420786543708,
,,,C,D,g,b,,,,,,,,,,1,0,20,10,,,,,,,,,,,,,b,1,2.7355738187416136,1591.9853535284929,None,,,,,001,40,2019_Oct_18_1105,ACPT_experiment_5_30_19,3.1.0,59.9420786543708,
,,,C,D,g,b,,,,,,,,,,1,1,21,1,,,,,,,,,,,,,b,1,1.0009804765029457,1597.990082033402,None,,,,,001,40,2019_Oct_18_1105,ACPT_experiment_5_30_19,3.1.0,59.9420786543708,
,,,C,U,d,n,,,,,,,,,,1,2,22,15,,,,,,,,,,,,,n,1,0.8673676107678148,1602.277071249066,None,,,,,001,40,2019_Oct_18_1105,ACPT_experiment_5_30_19,3.1.0,59.9420786543708,
,,,C,D,y,b,,,,,,,,,,1,3,23,2,,,,,,,,,,,,,n,0,1.6680250854672067,1606.4304623906662,None,,,,,001,40,2019_Oct_18_1105,ACPT_experiment_5_30_19,3.1.0,59.9420786543708,
,,,C,G,y,b,,,,,,,,,,1,4,24,5,,,,,,,,,,,,,b,1,1.6846952991163562,1611.3844796123979,None,,,,,001,40,2019_Oct_18_1105,ACPT_experiment_5_30_19,3.1.0,59.9420786543708,
,,,C,D,d,v,,,,,,,,,,1,5,25,0,,,,,,,,,,,,,v,1,3.869830876859396,1616.355166444037,None,,,,,001,40,2019_Oct_18_1105,ACPT_experiment_5_30_19,3.1.0,59.9420786543708,
,,,C,G,g,v,,,,,,,,,,1,6,26,4,,,,,,,,,,,,,v,1,2.4186507882602655,1623.510984929098,None,,,,,001,40,2019_Oct_18_1105,ACPT_experiment_5_30_19,3.1.0,59.9420786543708,
,,,C,D,d,v,,,,,,,,,,1,7,27,9,,,,,,,,,,,,,v,1,2.4687139547345396,1629.2155973646675,None,,,,,001,40,2019_Oct_18_1105,ACPT_experiment_5_30_19,3.1.0,59.9420786543708,
,,,C,G,d,b,,,,,,,,,,1,8,28,12,,,,,,,,,,,,,b,1,3.736395813051331,1634.970296512637,None,,,,,001,40,2019_Oct_18_1105,ACPT_experiment_5_30_19,3.1.0,59.9420786543708,
,,,C,U,y,n,,,,,,,,,,1,9,29,17,,,,,,,,,,,,,n,1,1.134267925468066,1641.9926751039568,None,,,,,001,40,2019_Oct_18_1105,ACPT_experiment_5_30_19,3.1.0,59.9420786543708,
,,,C,G,d,b,,,,,,,,,,1,10,30,3,,,,,,,,,,,,,b,1,3.8529143366010885,1646.4298719312942,None,,,,,001,40,2019_Oct_18_1105,ACPT_experiment_5_30_19,3.1.0,59.9420786543708,
,,,C,G,g,v,,,,,,,,,,1,11,31,19,,,,,,,,,,,,,v,1,1.5179370146481688,1653.5520743809761,None,,,,,001,40,2019_Oct_18_1105,ACPT_experiment_5_30_19,3.1.0,59.9420786543708,
,,,C,G,y,b,,,,,,,,,,1,12,32,14,,,,,,,,,,,,,b,1,1.5012495943610702,1658.3392750571668,None,,,,,001,40,2019_Oct_18_1105,ACPT_experiment_5_30_19,3.1.0,59.9420786543708,
,,,C,U,y,n,,,,,,,,,,1,13,33,8,,,,,,,,,,,,,n,1,1.4178333220131663,1663.126530975722,None,,,,,001,40,2019_Oct_18_1105,ACPT_experiment_5_30_19,3.1.0,59.9420786543708,
,,,C,G,g,v,,,,,,,,,,1,14,34,13,,,,,,,,,,,,,v,1,2.1348173304052125,1667.8472938033462,None,,,,,001,40,2019_Oct_18_1105,ACPT_experiment_5_30_19,3.1.0,59.9420786543708,
,,,C,D,d,v,,,,,,,,,,1,15,35,18,,,,,,,,,,,,,v,1,3.2525523934584726,1673.2680712717063,None,,,,,001,40,2019_Oct_18_1105,ACPT_experiment_5_30_19,3.1.0,59.9420786543708,
,,,C,D,y,b,,,,,,,,,,1,16,36,11,,,,,,,,,,,,,b,1,2.285150218478975,1679.8068008482571,None,,,,,001,40,2019_Oct_18_1105,ACPT_experiment_5_30_19,3.1.0,59.9420786543708,
,,,C,U,g,n,,,,,,,,,,1,17,37,7,,,,,,,,,,,,,n,1,1.017529639943632,1685.3779130159162,None,,,,,001,40,2019_Oct_18_1105,ACPT_experiment_5_30_19,3.1.0,59.9420786543708,
,,,C,U,g,n,,,,,,,,,,1,18,38,16,,,,,,,,,,,,,n,1,1.7180731583991928,1689.6814375089618,None,,,,,001,40,2019_Oct_18_1105,ACPT_experiment_5_30_19,3.1.0,59.9420786543708,
,,,C,U,d,n,,,,,,,,,,1,19,39,6,,,,,,,,,,,,,n,1,0.9174295697584967,1694.6688211188844,None,,,,,001,40,2019_Oct_18_1105,ACPT_experiment_5_30_19,3.1.0,59.9420786543708,
,,,C,U,d,n,,,,,,,,,,2,0,40,6,,,,,,,,,,,,,n,1,0.9007349045709816,1698.8555686869372,None,,,,,001,40,2019_Oct_18_1105,ACPT_experiment_5_30_19,3.1.0,59.9420786543708,
,,,C,D,g,b,,,,,,,,,,2,1,41,10,,,,,,,,,,,,,b,1,1.8682025855237043,1703.042293614677,None,,,,,001,40,2019_Oct_18_1105,ACPT_experiment_5_30_19,3.1.0,59.9420786543708,
,,,C,D,y,b,,,,,,,,,,2,2,42,2,,,,,,,,,,,,,b,1,1.834862460096474,1708.179804538628,None,,,,,001,40,2019_Oct_18_1105,ACPT_experiment_5_30_19,3.1.0,59.9420786543708,
,,,C,G,g,v,,,,,,,,,,2,3,43,13,,,,,,,,,,,,,v,1,2.618819534062368,1713.300634079709,None,,,,,001,40,2019_Oct_18_1105,ACPT_experiment_5_30_19,3.1.0,59.9420786543708,
,,,C,G,d,b,,,,,,,,,,2,4,44,3,,,,,,,,,,,,,b,1,1.6847768042441658,1719.2054321658477,None,,,,,001,40,2019_Oct_18_1105,ACPT_experiment_5_30_19,3.1.0,59.9420786543708,
,,,C,U,y,n,,,,,,,,,,2,5,45,8,,,,,,,,,,,,,n,1,1.2843264129442105,1724.1761998988732,None,,,,,001,40,2019_Oct_18_1105,ACPT_experiment_5_30_19,3.1.0,59.9420786543708,
,,,C,D,d,v,,,,,,,,,,2,6,46,18,,,,,,,,,,,,,v,1,3.1023456873974737,1728.7633613318542,None,,,,,001,40,2019_Oct_18_1105,ACPT_experiment_5_30_19,3.1.0,59.9420786543708,
,,,C,U,g,n,,,,,,,,,,2,7,47,16,,,,,,,,,,,,,n,1,1.8515151652366058,1735.1517257201506,None,,,,,001,40,2019_Oct_18_1105,ACPT_experiment_5_30_19,3.1.0,59.9420786543708,
,,,C,U,g,n,,,,,,,,,,2,8,48,7,,,,,,,,,,,,,n,1,1.117769778200227,1740.2723997977464,None,,,,,001,40,2019_Oct_18_1105,ACPT_experiment_5_30_19,3.1.0,59.9420786543708,
,,,C,G,y,b,,,,,,,,,,2,9,49,5,,,,,,,,,,,,,b,1,4.269737296897347,1744.6931965858407,None,,,,,001,40,2019_Oct_18_1105,ACPT_experiment_5_30_19,3.1.0,59.9420786543708,
,,,C,D,g,b,,,,,,,,,,2,10,50,1,,,,,,,,,,,,,b,1,1.4679022240334234,1752.248925415261,None,,,,,001,40,2019_Oct_18_1105,ACPT_experiment_5_30_19,3.1.0,59.9420786543708,
,,,C,G,d,b,,,,,,,,,,2,11,51,12,,,,,,,,,,,,,b,1,2.7189205098597995,1757.0027895884746,None,,,,,001,40,2019_Oct_18_1105,ACPT_experiment_5_30_19,3.1.0,59.9420786543708,
,,,C,G,g,v,,,,,,,,,,2,12,52,19,,,,,,,,,,,,,v,1,1.5512689895629137,1762.9910133049575,None,,,,,001,40,2019_Oct_18_1105,ACPT_experiment_5_30_19,3.1.0,59.9420786543708,
,,,C,D,d,v,,,,,,,,,,2,13,53,9,,,,,,,,,,,,,v,1,1.9682769966871092,1767.82828348691,None,,,,,001,40,2019_Oct_18_1105,ACPT_experiment_5_30_19,3.1.0,59.9420786543708,
,,,C,U,d,n,,,,,,,,,,2,14,54,15,,,,,,,,,,,,,n,1,1.0341953255299359,1773.0825471861863,None,,,,,001,40,2019_Oct_18_1105,ACPT_experiment_5_30_19,3.1.0,59.9420786543708,
,,,C,G,y,b,,,,,,,,,,2,15,55,14,,,,,,,,,,,,,b,1,1.6343842966787179,1777.419694053899,None,,,,,001,40,2019_Oct_18_1105,ACPT_experiment_5_30_19,3.1.0,59.9420786543708,
,,,C,D,d,v,,,,,,,,,,2,16,56,0,,,,,,,,,,,,,b,0,1.284411540522342,1782.3400457334328,None,,,,,001,40,2019_Oct_18_1105,ACPT_experiment_5_30_19,3.1.0,59.9420786543708,
,,,C,U,y,n,,,,,,,,,,2,17,57,17,,,,,,,,,,,,,n,1,1.334426105790726,1786.9104463915114,None,,,,,001,40,2019_Oct_18_1105,ACPT_experiment_5_30_19,3.1.0,59.9420786543708,
,,,C,D,y,b,,,,,,,,,,2,18,58,11,,,,,,,,,,,,,b,1,1.7013969073332191,1791.5308736896918,None,,,,,001,40,2019_Oct_18_1105,ACPT_experiment_5_30_19,3.1.0,59.9420786543708,
,,,C,G,g,v,,,,,,,,,,2,19,59,4,,,,,,,,,,,,,v,1,1.9515654267320315,1796.5183034858535,None,,,,,001,40,2019_Oct_18_1105,ACPT_experiment_5_30_19,3.1.0,59.9420786543708,
,,,C,D,d,v,,,,,,,,,,3,0,60,0,,,,,,,,,,,,,v,1,1.85151305214049,1801.755847464662,None,,,,,001,40,2019_Oct_18_1105,ACPT_experiment_5_30_19,3.1.0,59.9420786543708,
,,,C,G,y,b,,,,,,,,,,3,1,61,5,,,,,,,,,,,,,b,1,1.0842210600194448,1806.8933541624215,None,,,,,001,40,2019_Oct_18_1105,ACPT_experiment_5_30_19,3.1.0,59.9420786543708,
,,,C,G,d,b,,,,,,,,,,3,2,62,12,,,,,,,,,,,,,b,1,1.814842687555938,1811.2835819994414,None,,,,,001,40,2019_Oct_18_1105,ACPT_experiment_5_30_19,3.1.0,59.9420786543708,
,,,C,D,d,v,,,,,,,,,,3,3,63,9,,,,,,,,,,,,,v,1,3.1192368705051194,1816.3843712407645,None,,,,,001,40,2019_Oct_18_1105,ACPT_experiment_5_30_19,3.1.0,59.9420786543708,
,,,C,U,d,n,,,,,,,,,,3,4,64,15,,,,,,,,,,,,,n,1,1.5846341702699647,1822.7895990400505,None,,,,,001,40,2019_Oct_18_1105,ACPT_experiment_5_30_19,3.1.0,59.9420786543708,
,,,C,D,g,b,,,,,,,,,,3,5,65,1,,,,,,,,,,,,,b,1,1.7681139864307625,1827.6602256484564,None,,,,,001,40,2019_Oct_18_1105,ACPT_experiment_5_30_19,3.1.0,59.9420786543708,
,,,C,D,y,b,,,,,,,,,,3,6,66,2,,,,,,,,,,,,,b,1,1.0508667466624502,1832.6976506901522,None,,,,,001,40,2019_Oct_18_1105,ACPT_experiment_5_30_19,3.1.0,59.9420786543708,
,,,C,U,g,n,,,,,,,,,,3,7,67,16,,,,,,,,,,,,,n,1,1.0508812364628284,1837.0344962907618,None,,,,,001,40,2019_Oct_18_1105,ACPT_experiment_5_30_19,3.1.0,59.9420786543708,
,,,C,G,g,v,,,,,,,,,,3,8,68,19,,,,,,,,,,,,,v,1,3.9031791527995665,1841.3713983412197,None,,,,,001,40,2019_Oct_18_1105,ACPT_experiment_5_30_19,3.1.0,59.9420786543708,
,,,C,U,g,n,,,,,,,,,,3,9,69,7,,,,,,,,,,,,,n,1,1.4178339257546213,1848.5605379338451,None,,,,,001,40,2019_Oct_18_1105,ACPT_experiment_5_30_19,3.1.0,59.9420786543708,
,,,C,G,g,v,,,,,,,,,,3,10,70,4,,,,,,,,,,,,,v,1,1.74814070200091,1853.2843605243495,None,,,,,001,40,2019_Oct_18_1105,ACPT_experiment_5_30_19,3.1.0,59.9420786543708,
,,,C,G,y,b,,,,,,,,,,3,11,71,14,,,,,,,,,,,,,b,1,1.6179845593064783,1858.3184701185598,None,,,,,001,40,2019_Oct_18_1105,ACPT_experiment_5_30_19,3.1.0,59.9420786543708,
,,,C,D,d,v,,,,,,,,,,3,12,72,18,,,,,,,,,,,,,v,1,1.8682182828074474,1863.2224274943967,None,,,,,001,40,2019_Oct_18_1105,ACPT_experiment_5_30_19,3.1.0,59.9420786543708,
,,,C,D,g,b,,,,,,,,,,3,13,73,10,,,,,,,,,,,,,b,1,2.485353377557203,1868.3599698129153,None,,,,,001,40,2019_Oct_18_1105,ACPT_experiment_5_30_19,3.1.0,59.9420786543708,
,,,C,G,d,b,,,,,,,,,,3,14,74,3,,,,,,,,,,,,,b,1,4.70383391066116,1874.1313114024163,None,,,,,001,40,2019_Oct_18_1105,ACPT_experiment_5_30_19,3.1.0,59.9420786543708,
,,,C,U,y,n,,,,,,,,,,3,15,75,8,,,,,,,,,,,,,n,1,1.000829842951589,1882.1211380530838,None,,,,,001,40,2019_Oct_18_1105,ACPT_experiment_5_30_19,3.1.0,59.9420786543708,
,,,C,G,g,v,,,,,,,,,,3,16,76,13,,,,,,,,,,,,,v,1,1.7511838619848277,1886.4248977035174,None,,,,,001,40,2019_Oct_18_1105,ACPT_experiment_5_30_19,3.1.0,59.9420786543708,
,,,C,D,y,b,,,,,,,,,,3,17,77,11,,,,,,,,,,,,,b,1,1.851513655882627,1891.4620655512538,None,,,,,001,40,2019_Oct_18_1105,ACPT_experiment_5_30_19,3.1.0,59.9420786543708,
,,,C,U,y,n,,,,,,,,,,3,18,78,17,,,,,,,,,,,,,n,1,0.9508053159456722,1896.599564702242,None,,,,,001,40,2019_Oct_18_1105,ACPT_experiment_5_30_19,3.1.0,59.9420786543708,
,,,C,U,d,n,,,,,,,,,,3,19,79,6,,,,,,,,,,,,,n,1,1.2810559442141312,1900.8563568717125,None,,,,,001,40,2019_Oct_18_1105,ACPT_experiment_5_30_19,3.1.0,59.9420786543708,
,,,C,D,g,b,,,,,,,,,,4,0,80,10,,,,,,,,,,,,,b,1,1.701411397134052,1905.423383821232,None,,,,,001,40,2019_Oct_18_1105,ACPT_experiment_5_30_19,3.1.0,59.9420786543708,
,,,C,G,g,v,,,,,,,,,,4,1,81,4,,,,,,,,,,,,,v,1,1.4511997102040368,1910.4107852415343,None,,,,,001,40,2019_Oct_18_1105,ACPT_experiment_5_30_19,3.1.0,59.9420786543708,
,,,C,G,g,v,,,,,,,,,,4,2,82,13,,,,,,,,,,,,,v,1,1.5012169923097645,1915.1313002331951,None,,,,,001,40,2019_Oct_18_1105,ACPT_experiment_5_30_19,3.1.0,59.9420786543708,
,,,C,G,d,b,,,,,,,,,,4,3,83,3,,,,,,,,,,,,,b,1,1.6179942191729424,1919.9018316013492,None,,,,,001,40,2019_Oct_18_1105,ACPT_experiment_5_30_19,3.1.0,59.9420786543708,
,,,C,U,y,n,,,,,,,,,,4,4,84,8,,,,,,,,,,,,,n,1,1.1509502139510914,1924.8058131268538,None,,,,,001,40,2019_Oct_18_1105,ACPT_experiment_5_30_19,3.1.0,59.9420786543708,
,,,C,G,y,b,,,,,,,,,,4,5,85,14,,,,,,,,,,,,,b,1,1.7677155169162688,1929.2598045386283,None,,,,,001,40,2019_Oct_18_1105,ACPT_experiment_5_30_19,3.1.0,59.9420786543708,
,,,C,U,d,n,,,,,,,,,,4,6,86,15,,,,,,,,,,,,,n,1,2.0683520115917418,1934.3135354358635,None,,,,,001,40,2019_Oct_18_1105,ACPT_experiment_5_30_19,3.1.0,59.9420786543708,
,,,C,D,g,b,,,,,,,,,,4,7,87,1,,,,,,,,,,,,,b,1,1.2010194178419624,1939.6678578490194,None,,,,,001,40,2019_Oct_18_1105,ACPT_experiment_5_30_19,3.1.0,59.9420786543708,
,,,C,G,y,b,,,,,,,,,,4,8,88,5,,,,,,,,,,,,,b,1,1.3010576045035123,1944.1715477672876,None,,,,,001,40,2019_Oct_18_1105,ACPT_experiment_5_30_19,3.1.0,59.9420786543708,
,,,C,U,g,n,,,,,,,,,,4,9,89,16,,,,,,,,,,,,,n,1,1.7514371316233337,1948.7586059604398,None,,,,,001,40,2019_Oct_18_1105,ACPT_experiment_5_30_19,3.1.0,59.9420786543708,
,,,C,U,y,n,,,,,,,,,,4,10,90,17,,,,,,,,,,,,,n,1,0.9174395314967114,1953.7793330163688,None,,,,,001,40,2019_Oct_18_1105,ACPT_experiment_5_30_19,3.1.0,59.9420786543708,
,,,C,D,y,b,,,,,,,,,,4,11,91,2,,,,,,,,,,,,,b,1,1.2007205657059785,1957.999720467598,None,,,,,001,40,2019_Oct_18_1105,ACPT_experiment_5_30_19,3.1.0,59.9420786543708,
,,,C,D,d,v,,,,,,,,,,4,12,92,0,,,,,,,,,,,,,v,1,1.7514335091732391,1962.4864210947346,None,,,,,001,40,2019_Oct_18_1105,ACPT_experiment_5_30_19,3.1.0,59.9420786543708,
,,,C,G,g,v,,,,,,,,,,4,13,93,19,,,,,,,,,,,,,v,1,1.4179256944917142,1967.5238186661838,None,,,,,001,40,2019_Oct_18_1105,ACPT_experiment_5_30_19,3.1.0,59.9420786543708,
,,,C,U,d,n,,,,,,,,,,4,14,94,6,,,,,,,,,,,,,n,1,1.5012251428224772,1972.2276779339961,None,,,,,001,40,2019_Oct_18_1105,ACPT_experiment_5_30_19,3.1.0,59.9420786543708,
,,,C,D,y,b,,,,,,,,,,4,15,95,11,,,,,,,,,,,,,b,1,1.4845754563907576,1977.014866233482,None,,,,,001,40,2019_Oct_18_1105,ACPT_experiment_5_30_19,3.1.0,59.9420786543708,
,,,C,D,d,v,,,,,,,,,,4,16,96,9,,,,,,,,,,,,,v,1,2.1684620435148645,1981.7687527451378,None,,,,,001,40,2019_Oct_18_1105,ACPT_experiment_5_30_19,3.1.0,59.9420786543708,
,,,C,U,g,n,,,,,,,,,,4,17,97,7,,,,,,,,,,,,,n,1,1.0008479552025165,1987.2231842846038,None,,,,,001,40,2019_Oct_18_1105,ACPT_experiment_5_30_19,3.1.0,59.9420786543708,
,,,C,D,d,v,,,,,,,,,,4,18,98,18,,,,,,,,,,,,,v,1,2.068000332058091,1991.5270079316563,None,,,,,001,40,2019_Oct_18_1105,ACPT_experiment_5_30_19,3.1.0,59.9420786543708,
,,,C,G,d,b,,,,,,,,,,4,19,99,12,,,,,,,,,,,,,b,1,4.053302542507481,1996.881027266484,None,,,,,001,40,2019_Oct_18_1105,ACPT_experiment_5_30_19,3.1.0,59.9420786543708,
,,,C,G,g,v,,,,,,,,,,5,0,100,13,,,,,,,,,,,,,v,1,1.200987117661498,2004.2036405623855,None,,,,,001,40,2019_Oct_18_1105,ACPT_experiment_5_30_19,3.1.0,59.9420786543708,
,,,C,U,y,n,,,,,,,,,,5,1,101,17,,,,,,,,,,,,,n,1,0.9838840212214564,2008.707571071717,None,,,,,001,40,2019_Oct_18_1105,ACPT_experiment_5_30_19,3.1.0,59.9420786543708,
,,,C,D,y,b,,,,,,,,,,5,2,102,11,,,,,,,,,,,,,b,1,1.0842334367239346,2012.9774360599815,None,,,,,001,40,2019_Oct_18_1105,ACPT_experiment_5_30_19,3.1.0,59.9420786543708,
,,,C,G,g,v,,,,,,,,,,5,3,103,4,,,,,,,,,,,,,v,1,1.150597326933621,2017.3646765831238,None,,,,,001,40,2019_Oct_18_1105,ACPT_experiment_5_30_19,3.1.0,59.9420786543708,
,,,C,D,d,v,,,,,,,,,,5,4,104,18,,,,,,,,,,,,,v,1,2.2852329310908317,2021.8012421985252,None,,,,,001,40,2019_Oct_18_1105,ACPT_experiment_5_30_19,3.1.0,59.9420786543708,
,,,C,U,g,n,,,,,,,,,,5,5,105,7,,,,,,,,,,,,,n,1,1.2176854052995623,2027.3724615303342,None,,,,,001,40,2019_Oct_18_1105,ACPT_experiment_5_30_19,3.1.0,59.9420786543708,
,,,C,U,d,n,,,,,,,,,,5,6,106,15,,,,,,,,,,,,,n,1,2.4186215067879857,2031.859458896511,None,,,,,001,40,2019_Oct_18_1105,ACPT_experiment_5_30_19,3.1.0,59.9420786543708,
,,,C,U,d,n,,,,,,,,,,5,7,107,6,,,,,,,,,,,,,n,1,0.7506012512544658,2037.5474144007487,None,,,,,001,40,2019_Oct_18_1105,ACPT_experiment_5_30_19,3.1.0,59.9420786543708,
,,,C,D,g,b,,,,,,,,,,5,8,108,1,,,,,,,,,,,,,b,1,1.284139856762522,2041.6009662885733,None,,,,,001,40,2019_Oct_18_1105,ACPT_experiment_5_30_19,3.1.0,59.9420786543708,
,,,C,U,y,n,,,,,,,,,,5,9,109,8,,,,,,,,,,,,,n,1,0.7339452255350807,2046.171063264582,None,,,,,001,40,2019_Oct_18_1105,ACPT_experiment_5_30_19,3.1.0,59.9420786543708,
,,,C,U,g,n,,,,,,,,,,5,10,110,16,,,,,,,,,,,,,n,1,1.0508525587324584,2050.191007569412,None,,,,,001,40,2019_Oct_18_1105,ACPT_experiment_5_30_19,3.1.0,59.9420786543708,
,,,C,G,y,b,,,,,,,,,,5,11,111,14,,,,,,,,,,,,,b,1,1.4845573441402848,2054.5278528681506,None,,,,,001,40,2019_Oct_18_1105,ACPT_experiment_5_30_19,3.1.0,59.9420786543708,
,,,C,D,d,v,,,,,,,,,,5,12,112,9,,,,,,,,,,,,,v,1,1.9515802184037057,2059.298426196352,None,,,,,001,40,2019_Oct_18_1105,ACPT_experiment_5_30_19,3.1.0,59.9420786543708,
,,,C,D,y,b,,,,,,,,,,5,13,113,2,,,,,,,,,,,,,b,1,1.267706611725771,2064.5193014708657,None,,,,,001,40,2019_Oct_18_1105,ACPT_experiment_5_30_19,3.1.0,59.9420786543708,
,,,C,D,d,v,,,,,,,,,,5,14,114,0,,,,,,,,,,,,,v,1,2.865679549005108,2069.093008520305,None,,,,,001,40,2019_Oct_18_1105,ACPT_experiment_5_30_19,3.1.0,59.9420786543708,
,,,C,G,d,b,,,,,,,,,,5,15,115,3,,,,,,,,,,,,,b,1,1.3010714905626628,2075.2446756775116,None,,,,,001,40,2019_Oct_18_1105,ACPT_experiment_5_30_19,3.1.0,59.9420786543708,
,,,C,D,g,b,,,,,,,,,,5,16,116,10,,,,,,,,,,,,,b,1,1.400871501128222,2079.8486953896777,None,,,,,001,40,2019_Oct_18_1105,ACPT_experiment_5_30_19,3.1.0,59.9420786543708,
,,,C,G,d,b,,,,,,,,,,5,17,117,12,,,,,,,,,,,,,b,1,1.9682688461743965,2084.535565668229,None,,,,,001,40,2019_Oct_18_1105,ACPT_experiment_5_30_19,3.1.0,59.9420786543708,
,,,C,G,y,b,,,,,,,,,,5,18,118,5,,,,,,,,,,,,,b,1,0.7506235896971702,2089.7731485883764,None,,,,,001,40,2019_Oct_18_1105,ACPT_experiment_5_30_19,3.1.0,59.9420786543708,
,,,C,G,g,v,,,,,,,,,,5,19,119,19,0,0,0,0,0,0,0,0,,,,,v,1,0.9474439840914783,2093.829772012045,None,,,,,001,40,2019_Oct_18_1105,ACPT_experiment_5_30_19,3.1.0,59.9420786543708,
,,,C,G,g,v,R,D,g,R,i,,,,,5,19,119,19,0,0,0,0,,,,,0,0,0,3,,,,,,up,0.8840598609886001,2138.7128978846404,None,001,40,2019_Oct_18_1105,ACPT_experiment_5_30_19,3.1.0,59.9420786543708,
,,,C,G,g,v,L,D,g,R,i,,,,,5,19,119,19,0,0,0,0,,,,,0,1,1,15,,,,,,up,0.7839721675081819,2140.881324307395,None,001,40,2019_Oct_18_1105,ACPT_experiment_5_30_19,3.1.0,59.9420786543708,
,,,C,G,g,v,R,D,d,R,c ,,,,,5,19,119,19,0,0,0,0,,,,,0,2,2,1,,,,,,up,0.8673944772731375,2142.9496482449986,None,001,40,2019_Oct_18_1105,ACPT_experiment_5_30_19,3.1.0,59.9420786543708,
,,,C,G,g,v,R,G,g,R,c ,,,,,5,19,119,19,0,0,0,0,,,,,0,3,3,7,,,,,,up,0.6138308164850059,2145.1214299621906,None,001,40,2019_Oct_18_1105,ACPT_experiment_5_30_19,3.1.0,59.9420786543708,
,,,C,G,g,v,R,U,d,L,u,,,,,5,19,119,19,0,0,0,0,,,,,0,4,4,8,,,,,,up,1.0842267955658826,2147.019640019018,None,001,40,2019_Oct_18_1105,ACPT_experiment_5_30_19,3.1.0,59.9420786543708,
,,,C,G,g,v,R,U,g,L,u,,,,,5,19,119,19,0,0,0,0,,,,,0,5,5,10,,,,,,up,0.6505500841467438,2149.3715314662622,None,001,40,2019_Oct_18_1105,ACPT_experiment_5_30_19,3.1.0,59.9420786543708,
,,,C,G,g,v,L,U,d,L,u,,,,,5,19,119,19,0,0,0,0,,,,,0,6,6,20,,,,,,up,0.550448504607175,2151.3064580739133,None,001,40,2019_Oct_18_1105,ACPT_experiment_5_30_19,3.1.0,59.9420786543708,
,,,C,G,g,v,R,D,y,L,y,,,,,5,19,119,19,0,0,0,0,,,,,0,7,7,26,,,,,,down,0.9340871048325425,2153.157961466187,None,001,40,2019_Oct_18_1105,ACPT_experiment_5_30_19,3.1.0,59.9420786543708,
,,,C,G,g,v,L,G,g,R,c ,,,,,5,19,119,19,0,0,0,0,,,,,0,8,8,19,,,,,,up,0.5838085535101527,2155.393109797973,None,001,40,2019_Oct_18_1105,ACPT_experiment_5_30_19,3.1.0,59.9420786543708,
,,,C,G,g,v,L,G,d,L,i,,,,,5,19,119,19,0,0,0,0,,,,,0,9,9,16,,,,,,up,0.6505298587999278,2157.2612954787296,None,001,40,2019_Oct_18_1105,ACPT_experiment_5_30_19,3.1.0,59.9420786543708,
,,,C,G,g,v,R,G,y,R,y,,,,,5,19,119,19,0,0,0,0,,,,,0,10,10,29,,,,,,down,0.8006478148327005,2159.1962045778714,None,001,40,2019_Oct_18_1105,ACPT_experiment_5_30_19,3.1.0,59.9420786543708,
,,,C,G,g,v,R,U,y,R,u,,,,,5,19,119,19,0,0,0,0,,,,,0,11,11,31,,,,,,down,0.9341043114700369,2161.281214426408,None,001,40,2019_Oct_18_1105,ACPT_experiment_5_30_19,3.1.0,59.9420786543708,
,,,C,G,g,v,L,U,d,R,u,,,,,5,19,119,19,0,0,0,0,,,,,0,12,12,21,,,,,,up,0.6004742390969113,2163.4997070343456,None,001,40,2019_Oct_18_1105,ACPT_experiment_5_30_19,3.1.0,59.9420786543708,
,,,C,G,g,v,L,D,d,L,c ,,,,,5,19,119,19,0,0,0,0,,,,,0,13,13,12,,,,,,up,0.533980242553298,2165.384537873471,None,001,40,2019_Oct_18_1105,ACPT_experiment_5_30_19,3.1.0,59.9420786543708,
,,,C,G,g,v,L,U,g,L,u,,,,,5,19,119,19,0,0,0,0,,,,,0,14,14,22,,,,,,up,0.6505289531874041,2167.2027032534133,None,001,40,2019_Oct_18_1105,ACPT_experiment_5_30_19,3.1.0,59.9420786543708,
,,,C,G,g,v,L,D,d,R,c ,,,,,5,19,119,19,0,0,0,0,,,,,0,15,15,13,,,,,,up,0.6504987661028281,2169.1376374078354,None,001,40,2019_Oct_18_1105,ACPT_experiment_5_30_19,3.1.0,59.9420786543708,
,,,C,G,g,v,R,D,y,R,y,,,,,5,19,119,19,0,0,0,0,,,,,0,16,16,27,,,,,,down,0.8673911566934294,2171.072492773967,None,001,40,2019_Oct_18_1105,ACPT_experiment_5_30_19,3.1.0,59.9420786543708,
,,,C,G,g,v,R,G,g,L,c ,,,,,5,19,119,19,0,0,0,0,,,,,0,17,17,6,,,,,,up,0.5671217369645092,2173.2242649822274,None,001,40,2019_Oct_18_1105,ACPT_experiment_5_30_19,3.1.0,59.9420786543708,
,,,C,G,g,v,R,U,g,R,u,,,,,5,19,119,19,0,0,0,0,,,,,0,18,18,11,,,,,,up,0.9007333952167755,2175.075766261405,None,001,40,2019_Oct_18_1105,ACPT_experiment_5_30_19,3.1.0,59.9420786543708,
,,,C,G,g,v,L,G,y,L,y,,,,,5,19,119,19,0,0,0,0,,,,,0,19,19,34,,,,,,down,1.0008147494095283,2177.260878896964,None,001,40,2019_Oct_18_1105,ACPT_experiment_5_30_19,3.1.0,59.9420786543708,
,,,C,G,g,v,R,G,d,R,i,,,,,5,19,119,19,0,0,0,0,,,,,0,20,20,5,,,,,,up,0.583786215067903,2179.546081339099,None,001,40,2019_Oct_18_1105,ACPT_experiment_5_30_19,3.1.0,59.9420786543708,
,,,C,G,g,v,L,D,g,L,i,,,,,5,19,119,19,0,0,0,0,,,,,0,21,21,14,,,,,,up,0.7005637438019221,2181.4142501150886,None,001,40,2019_Oct_18_1105,ACPT_experiment_5_30_19,3.1.0,59.9420786543708,
,,,C,G,g,v,R,U,d,R,u,,,,,5,19,119,19,0,0,0,0,,,,,0,22,22,9,,,,,,up,0.600475144709435,2183.3992033628415,None,001,40,2019_Oct_18_1105,ACPT_experiment_5_30_19,3.1.0,59.9420786543708,
,,,C,G,g,v,R,G,d,L,i,,,,,5,19,119,19,0,0,0,0,,,,,0,23,23,4,,,,,,up,0.7005649512857417,2185.2840565404094,None,001,40,2019_Oct_18_1105,ACPT_experiment_5_30_19,3.1.0,59.9420786543708,
,,,C,G,g,v,R,G,y,L,y,,,,,5,19,119,19,0,0,0,0,,,,,0,24,24,28,,,,,,down,0.9174051182203584,2187.2690055619705,None,001,40,2019_Oct_18_1105,ACPT_experiment_5_30_19,3.1.0,59.9420786543708,
,,,C,G,g,v,L,G,y,R,y,,,,,5,19,119,19,0,0,0,0,,,,,0,25,25,35,,,,,,down,0.7839727712498643,2189.470791731758,None,001,40,2019_Oct_18_1105,ACPT_experiment_5_30_19,3.1.0,59.9420786543708,
,,,C,G,g,v,L,D,y,R,y,,,,,5,19,119,19,0,0,0,0,,,,,0,26,26,33,,,,,,down,0.8173545548538641,2191.522433682749,None,001,40,2019_Oct_18_1105,ACPT_experiment_5_30_19,3.1.0,59.9420786543708,
,,,C,G,g,v,L,U,y,L,u,,,,,5,19,119,19,0,0,0,0,,,,,0,27,27,24,,,,,,down,0.8006426830279452,2193.624170798524,None,001,40,2019_Oct_18_1105,ACPT_experiment_5_30_19,3.1.0,59.9420786543708,
,,,C,G,g,v,L,G,g,L,c ,,,,,5,19,119,19,0,0,0,0,,,,,0,28,28,18,,,,,,up,0.7172487491229731,2195.7091875900896,None,001,40,2019_Oct_18_1105,ACPT_experiment_5_30_19,3.1.0,59.9420786543708,
,,,C,G,g,v,L,D,y,L,y,,,,,5,19,119,19,0,0,0,0,,,,,0,29,29,32,,,,,,down,0.7007922600319034,2197.710820711359,None,001,40,2019_Oct_18_1105,ACPT_experiment_5_30_19,3.1.0,59.9420786543708,
,,,C,G,g,v,L,G,d,R,i,,,,,5,19,119,19,0,0,0,0,,,,,0,30,30,17,,,,,,up,0.6005023130851441,2199.6957395458353,None,001,40,2019_Oct_18_1105,ACPT_experiment_5_30_19,3.1.0,59.9420786543708,
,,,C,G,g,v,L,U,g,R,u,,,,,5,19,119,19,0,0,0,0,,,,,0,31,31,23,,,,,,up,0.7839576777073489,2201.597318481288,None,001,40,2019_Oct_18_1105,ACPT_experiment_5_30_19,3.1.0,59.9420786543708,
,,,C,G,g,v,R,D,d,L,c,,,,,5,19,119,19,0,0,0,0,,,,,0,32,32,0,,,,,,up,0.6338478721881984,2203.6656535881125,None,001,40,2019_Oct_18_1105,ACPT_experiment_5_30_19,3.1.0,59.9420786543708,
,,,C,G,g,v,R,D,g,L,i,,,,,5,19,119,19,0,0,0,0,,,,,0,33,33,2,,,,,,up,0.7006171749417263,2205.5671730550084,None,001,40,2019_Oct_18_1105,ACPT_experiment_5_30_19,3.1.0,59.9420786543708,
,,,C,G,g,v,L,U,y,R,u,,,,,5,19,119,19,0,0,0,0,,,,,0,34,34,25,,,,,,down,0.7005670643816302,2207.552144415012,None,001,40,2019_Oct_18_1105,ACPT_experiment_5_30_19,3.1.0,59.9420786543708,
,,,C,G,g,v,R,U,y,L,u,,,,,5,19,119,19,0,0,0,0,,,,,0,35,35,30,,,,,,down,0.7672877659292681,2209.53708860664,None,001,40,2019_Oct_18_1105,ACPT_experiment_5_30_19,3.1.0,59.9420786543708,
,,,C,G,g,v,R,G,g,L,c ,,,,,5,19,119,19,0,0,0,0,,,,,1,0,36,6,,,,,,up,1.0675342434738013,2211.5887531979442,None,001,40,2019_Oct_18_1105,ACPT_experiment_5_30_19,3.1.0,59.9420786543708,
,,,C,G,g,v,R,D,g,L,i,,,,,5,19,119,19,0,0,0,0,,,,,1,1,37,2,,,,,,up,1.0172132792986304,2213.957618842778,None,001,40,2019_Oct_18_1105,ACPT_experiment_5_30_19,3.1.0,59.9420786543708,
,,,C,G,g,v,R,D,g,R,i,,,,,5,19,119,19,0,0,0,0,,,,,1,2,38,3,,,,,,up,0.5504617869246431,2216.2425127729102,None,001,40,2019_Oct_18_1105,ACPT_experiment_5_30_19,3.1.0,59.9420786543708,
,,,C,G,g,v,L,U,d,R,u,,,,,5,19,119,19,0,0,0,0,,,,,1,3,39,21,,,,,,up,0.5504412597069859,2218.0773604413353,None,001,40,2019_Oct_18_1105,ACPT_experiment_5_30_19,3.1.0,59.9420786543708,
,,,C,G,g,v,R,U,y,R,u,,,,,5,19,119,19,0,0,0,0,,,,,1,4,40,31,,,,,,down,0.7172372780305523,2219.912185469447,None,001,40,2019_Oct_18_1105,ACPT_experiment_5_30_19,3.1.0,59.9420786543708,
,,,C,G,g,v,L,G,y,L,y,,,,,5,19,119,19,0,0,0,0,,,,,1,5,41,34,,,,,,down,0.6838844740277636,2221.913808930849,None,001,40,2019_Oct_18_1105,ACPT_experiment_5_30_19,3.1.0,59.9420786543708,
,,,C,G,g,v,R,U,g,R,u,,,,,5,19,119,19,0,0,0,0,,,,,1,6,42,11,,,,,,up,0.6672091285740862,2223.8820702302523,None,001,40,2019_Oct_18_1105,ACPT_experiment_5_30_19,3.1.0,59.9420786543708,
,,,C,G,g,v,L,U,d,L,u,,,,,5,19,119,19,0,0,0,0,,,,,1,7,43,20,,,,,,up,0.6004784652886883,2225.8336613160063,None,001,40,2019_Oct_18_1105,ACPT_experiment_5_30_19,3.1.0,59.9420786543708,
,,,C,G,g,v,R,G,d,L,i,,,,,5,19,119,19,0,0,0,0,,,,,1,8,44,4,,,,,,up,0.7506051755758563,2227.718522342216,None,001,40,2019_Oct_18_1105,ACPT_experiment_5_30_19,3.1.0,59.9420786543708,
,,,C,G,g,v,L,G,y,R,y,,,,,5,19,119,19,0,0,0,0,,,,,1,9,45,35,,,,,,down,0.934113367595728,2229.753484721562,None,001,40,2019_Oct_18_1105,ACPT_experiment_5_30_19,3.1.0,59.9420786543708,
,,,C,G,g,v,L,U,g,R,u,,,,,5,19,119,19,0,0,0,0,,,,,1,10,46,23,,,,,,up,1.1008915755396629,2231.9719734051787,None,001,40,2019_Oct_18_1105,ACPT_experiment_5_30_19,3.1.0,59.9420786543708,
,,,C,G,g,v,L,D,g,L,i,,,,,5,19,119,19,0,0,0,0,,,,,1,11,47,14,,,,,,up,0.567127472510947,2234.3572436173185,None,001,40,2019_Oct_18_1105,ACPT_experiment_5_30_19,3.1.0,59.9420786543708,
,,,C,G,g,v,L,U,y,R,u,,,,,5,19,119,19,0,0,0,0,,,,,1,12,48,25,,,,,,down,0.6504885024942269,2236.20878202661,None,001,40,2019_Oct_18_1105,ACPT_experiment_5_30_19,3.1.0,59.9420786543708,
,,,C,G,g,v,R,D,y,R,y,,,,,5,19,119,19,0,0,0,0,,,,,1,13,49,27,,,,,,down,0.7505481219859576,2238.1437134641947,None,001,40,2019_Oct_18_1105,ACPT_experiment_5_30_19,3.1.0,59.9420786543708,
,,,C,G,g,v,R,U,d,L,u,,,,,5,19,119,19,0,0,0,0,,,,,1,14,50,8,,,,,,up,0.600485106447195,2240.178635996589,None,001,40,2019_Oct_18_1105,ACPT_experiment_5_30_19,3.1.0,59.9420786543708,
,,,C,G,g,v,R,U,y,L,u,,,,,5,19,119,19,0,0,0,0,,,,,1,15,51,30,,,,,,down,0.667208826703245,2242.063502154603,None,001,40,2019_Oct_18_1105,ACPT_experiment_5_30_19,3.1.0,59.9420786543708,
,,,C,G,g,v,L,G,g,L,c ,,,,,5,19,119,19,0,0,0,0,,,,,1,16,52,18,,,,,,up,0.633824326262129,2244.0151119563498,None,001,40,2019_Oct_18_1105,ACPT_experiment_5_30_19,3.1.0,59.9420786543708,
,,,C,G,g,v,L,D,d,L,c ,,,,,5,19,119,19,0,0,0,0,,,,,1,17,53,12,,,,,,up,1.034171779604094,2245.9333122023745,None,001,40,2019_Oct_18_1105,ACPT_experiment_5_30_19,3.1.0,59.9420786543708,
,,,C,G,g,v,R,G,y,R,y,,,,,5,19,119,19,0,0,0,0,,,,,1,18,54,29,,,,,,down,0.7672901808959978,2248.251862618579,None,001,40,2019_Oct_18_1105,ACPT_experiment_5_30_19,3.1.0,59.9420786543708,
,,,C,G,g,v,L,G,d,R,i,,,,,5,19,119,19,0,0,0,0,,,,,1,19,55,17,,,,,,down,0.8006487204447694,2250.303528115496,None,001,40,2019_Oct_18_1105,ACPT_experiment_5_30_19,3.1.0,59.9420786543708,
,,,C,G,g,v,R,G,d,R,i,,,,,5,19,119,19,0,0,0,0,,,,,1,20,56,5,,,,,,up,0.7339177552880756,2252.388556076283,None,001,40,2019_Oct_18_1105,ACPT_experiment_5_30_19,3.1.0,59.9420786543708,
,,,C,G,g,v,R,D,y,L,y,,,,,5,19,119,19,0,0,0,0,,,,,1,21,57,26,,,,,,down,0.700562234447716,2254.4068630336515,None,001,40,2019_Oct_18_1105,ACPT_experiment_5_30_19,3.1.0,59.9420786543708,
,,,C,G,g,v,R,U,d,R,u,,,,,5,19,119,19,0,0,0,0,,,,,1,22,58,9,,,,,,up,0.6672070154781977,2256.3918057159244,None,001,40,2019_Oct_18_1105,ACPT_experiment_5_30_19,3.1.0,59.9420786543708,
,,,C,G,g,v,L,D,y,R,y,,,,,5,19,119,19,0,0,0,0,,,,,1,23,59,33,,,,,,down,0.7005652531561282,2258.3433943867117,None,001,40,2019_Oct_18_1105,ACPT_experiment_5_30_19,3.1.0,59.9420786543708,
,,,C,G,g,v,L,U,y,L,u,,,,,5,19,119,19,0,0,0,0,,,,,1,24,60,24,,,,,,down,0.7506121186052042,2260.3283346540184,None,001,40,2019_Oct_18_1105,ACPT_experiment_5_30_19,3.1.0,59.9420786543708,
,,,C,G,g,v,R,D,d,L,c,,,,,5,19,119,19,0,0,0,0,,,,,1,25,61,0,,,,,,up,0.7672723705163662,2262.3633435214747,None,001,40,2019_Oct_18_1105,ACPT_experiment_5_30_19,3.1.0,59.9420786543708,
,,,C,G,g,v,R,D,d,R,c ,,,,,5,19,119,19,0,0,0,0,,,,,1,26,62,1,,,,,,up,0.7340967646991885,2264.3981597953316,None,001,40,2019_Oct_18_1105,ACPT_experiment_5_30_19,3.1.0,59.9420786543708,
,,,C,G,g,v,R,U,g,L,u,,,,,5,19,119,19,0,0,0,0,,,,,1,27,63,10,,,,,,up,1.0675324322492088,2266.4166173862513,None,001,40,2019_Oct_18_1105,ACPT_experiment_5_30_19,3.1.0,59.9420786543708,
,,,C,G,g,v,L,G,g,R,c ,,,,,5,19,119,19,0,0,0,0,,,,,1,28,64,19,,,,,,up,0.683898058216073,2268.751841638555,None,001,40,2019_Oct_18_1105,ACPT_experiment_5_30_19,3.1.0,59.9420786543708,
,,,C,G,g,v,L,G,d,L,i,,,,,5,19,119,19,0,0,0,0,,,,,1,29,65,16,,,,,,up,0.4837601032400016,2270.720093579962,None,001,40,2019_Oct_18_1105,ACPT_experiment_5_30_19,3.1.0,59.9420786543708,
,,,C,G,g,v,R,G,g,R,c ,,,,,5,19,119,19,0,0,0,0,,,,,1,30,66,7,,,,,,up,0.40032149244962056,2272.488215716906,None,001,40,2019_Oct_18_1105,ACPT_experiment_5_30_19,3.1.0,59.9420786543708,
,,,C,G,g,v,L,D,g,R,i,,,,,5,19,119,19,0,0,0,0,,,,,1,31,67,15,,,,,,up,0.4170197800867754,2274.156216652705,None,001,40,2019_Oct_18_1105,ACPT_experiment_5_30_19,3.1.0,59.9420786543708,
,,,C,G,g,v,L,D,d,R,c ,,,,,5,19,119,19,0,0,0,0,,,,,1,32,68,13,,,,,,up,0.48331303251916324,2275.8747018648073,None,001,40,2019_Oct_18_1105,ACPT_experiment_5_30_19,3.1.0,59.9420786543708,
,,,C,G,g,v,L,D,y,L,y,,,,,5,19,119,19,0,0,0,0,,,,,1,33,69,32,,,,,,down,0.6672317688876319,2277.642374214193,None,001,40,2019_Oct_18_1105,ACPT_experiment_5_30_19,3.1.0,59.9420786543708,
,,,C,G,g,v,R,G,y,L,y,,,,,5,19,119,19,0,0,0,0,,,,,1,34,70,28,,,,,,down,0.6338397216754856,2279.593995487031,None,001,40,2019_Oct_18_1105,ACPT_experiment_5_30_19,3.1.0,59.9420786543708,
,,,C,G,g,v,L,U,g,L,u,,,,,5,19,119,19,0,0,0,0,,,,,1,35,71,22,,,,,,up,0.7506042699628779,2281.5122195808526,None,001,40,2019_Oct_18_1105,ACPT_experiment_5_30_19,3.1.0,59.9420786543708,
,,,C,G,g,v,,,,,,,,,,5,19,119,19,1,0,1,0,0,0,0,0,,,,,,,,,,,,,,001,40,2019_Oct_18_1105,ACPT_experiment_5_30_19,3.1.0,59.9420786543708,
,,,C,G,g,v,L,D,d,L,c ,,,,,5,19,119,19,1,0,1,0,,,,,0,0,0,12,,,,,,up,0.5168056027227976,2308.3509514214347,None,001,40,2019_Oct_18_1105,ACPT_experiment_5_30_19,3.1.0,59.9420786543708,
,,,C,G,g,v,R,D,d,R,c ,,,,,5,19,119,19,1,0,1,0,,,,,0,1,1,1,,,,,,up,0.5004251850846231,2310.152113322315,None,001,40,2019_Oct_18_1105,ACPT_experiment_5_30_19,3.1.0,59.9420786543708,
,,,C,G,g,v,L,U,y,L,u,,,,,5,19,119,19,1,0,1,0,,,,,0,2,2,24,,,,,,down,0.6004817858679417,2311.936921068321,None,001,40,2019_Oct_18_1105,ACPT_experiment_5_30_19,3.1.0,59.9420786543708,
,,,C,G,g,v,L,G,y,R,y,,,,,5,19,119,19,1,0,1,0,,,,,0,3,3,35,,,,,,down,0.8006565690870957,2313.8217814907894,None,001,40,2019_Oct_18_1105,ACPT_experiment_5_30_19,3.1.0,59.9420786543708,
,,,C,G,g,v,L,U,g,L,u,,,,,5,19,119,19,1,0,1,0,,,,,0,4,4,22,,,,,,up,0.5838308919528572,2315.9067822832003,None,001,40,2019_Oct_18_1105,ACPT_experiment_5_30_19,3.1.0,59.9420786543708,
,,,C,G,g,v,R,G,g,L,c ,,,,,5,19,119,19,1,0,1,0,,,,,0,5,5,6,,,,,,up,0.5004058653503307,2317.7749951323326,None,001,40,2019_Oct_18_1105,ACPT_experiment_5_30_19,3.1.0,59.9420786543708,
,,,C,G,g,v,L,D,y,L,y,,,,,5,19,119,19,1,0,1,0,,,,,0,6,6,32,,,,,,down,0.6338333823869107,2319.5597835586045,None,001,40,2019_Oct_18_1105,ACPT_experiment_5_30_19,3.1.0,59.9420786543708,
,,,C,G,g,v,R,G,g,R,c ,,,,,5,19,119,19,1,0,1,0,,,,,0,7,7,7,,,,,,up,0.43343702596848743,2321.4949238908134,None,001,40,2019_Oct_18_1105,ACPT_experiment_5_30_19,3.1.0,59.9420786543708,
,,,C,G,g,v,L,U,y,R,u,,,,,5,19,119,19,1,0,1,0,,,,,0,8,8,25,,,,,,down,0.7172478435099947,2323.2127425720905,None,001,40,2019_Oct_18_1105,ACPT_experiment_5_30_19,3.1.0,59.9420786543708,
,,,C,G,g,v,L,G,d,L,i,,,,,5,19,119,19,1,0,1,0,,,,,0,9,9,16,,,,,,up,0.5171041529883951,2325.214371165297,None,001,40,2019_Oct_18_1105,ACPT_experiment_5_30_19,3.1.0,59.9420786543708,
,,,C,G,g,v,R,G,d,L,i,,,,,5,19,119,19,1,0,1,0,,,,,0,10,10,4,,,,,,up,0.5004022429002362,2327.0158340314097,None,001,40,2019_Oct_18_1105,ACPT_experiment_5_30_19,3.1.0,59.9420786543708,
,,,C,G,g,v,L,U,d,L,u,,,,,5,19,119,19,1,0,1,0,,,,,0,11,11,20,,,,,,up,0.5168125457521455,2328.8008890096376,None,001,40,2019_Oct_18_1105,ACPT_experiment_5_30_19,3.1.0,59.9420786543708,
,,,C,G,g,v,R,U,y,L,u,,,,,5,19,119,19,1,0,1,0,,,,,0,12,12,30,,,,,,down,0.6338702106304481,2330.602055438581,None,001,40,2019_Oct_18_1105,ACPT_experiment_5_30_19,3.1.0,59.9420786543708,
,,,C,G,g,v,R,D,d,L,c,,,,,5,19,119,19,1,0,1,0,,,,,0,13,13,0,,,,,,up,0.5170715509370893,2332.5203060970366,None,001,40,2019_Oct_18_1105,ACPT_experiment_5_30_19,3.1.0,59.9420786543708,
,,,C,G,g,v,L,D,g,R,i,,,,,5,19,119,19,1,0,1,0,,,,,0,14,14,15,,,,,,up,0.633872927468019,2334.3217460209653,None,001,40,2019_Oct_18_1105,ACPT_experiment_5_30_19,3.1.0,59.9420786543708,
,,,C,G,g,v,L,G,g,L,c ,,,,,5,19,119,19,1,0,1,0,,,,,0,15,15,18,,,,,,up,0.567127472510947,2336.239991245746,None,001,40,2019_Oct_18_1105,ACPT_experiment_5_30_19,3.1.0,59.9420786543708,
,,,C,G,g,v,L,D,d,R,c ,,,,,5,19,119,19,1,0,1,0,,,,,0,16,16,13,,,,,,up,0.5004037522544422,2338.0914940342777,None,001,40,2019_Oct_18_1105,ACPT_experiment_5_30_19,3.1.0,59.9420786543708,
,,,C,G,g,v,L,G,d,R,i,,,,,5,19,119,19,1,0,1,0,,,,,0,17,17,17,,,,,,up,0.5337704423159266,2339.876276725003,None,001,40,2019_Oct_18_1105,ACPT_experiment_5_30_19,3.1.0,59.9420786543708,
,,,C,G,g,v,L,G,y,L,y,,,,,5,19,119,19,1,0,1,0,,,,,0,18,18,34,,,,,,down,0.6667970748712833,2341.7281541352536,None,001,40,2019_Oct_18_1105,ACPT_experiment_5_30_19,3.1.0,59.9420786543708,
,,,C,G,g,v,R,D,y,L,y,,,,,5,19,119,19,1,0,1,0,,,,,0,19,19,26,,,,,,down,0.6338481740585848,2343.696041718551,None,001,40,2019_Oct_18_1105,ACPT_experiment_5_30_19,3.1.0,59.9420786543708,
,,,C,G,g,v,R,G,y,L,y,,,,,5,19,119,19,1,0,1,0,,,,,0,20,20,28,,,,,,down,0.6672079210907214,2345.6142709441765,None,001,40,2019_Oct_18_1105,ACPT_experiment_5_30_19,3.1.0,59.9420786543708,
,,,C,G,g,v,R,G,y,R,y,,,,,5,19,119,19,1,0,1,0,,,,,0,21,21,29,,,,,,down,0.6171607537717136,2347.582539790351,None,001,40,2019_Oct_18_1105,ACPT_experiment_5_30_19,3.1.0,59.9420786543708,
,,,C,G,g,v,R,G,d,R,i,,,,,5,19,119,19,1,0,1,0,,,,,0,22,22,5,,,,,,up,0.767286256575062,2349.5007626766887,None,001,40,2019_Oct_18_1105,ACPT_experiment_5_30_19,3.1.0,59.9420786543708,
,,,C,G,g,v,R,U,y,R,u,,,,,5,19,119,19,1,0,1,0,,,,,0,23,23,31,,,,,,down,0.7506112129926805,2351.552428777348,None,001,40,2019_Oct_18_1105,ACPT_experiment_5_30_19,3.1.0,59.9420786543708,
,,,C,G,g,v,R,U,d,L,u,,,,,5,19,119,19,1,0,1,0,,,,,0,24,24,8,,,,,,up,1.2343646750737207,2353.5707100756945,None,001,40,2019_Oct_18_1105,ACPT_experiment_5_30_19,3.1.0,59.9420786543708,
,,,C,G,g,v,R,U,g,R,u,,,,,5,19,119,19,1,0,1,0,,,,,0,25,25,11,,,,,,up,0.6838920207992487,2356.072746949218,None,001,40,2019_Oct_18_1105,ACPT_experiment_5_30_19,3.1.0,59.9420786543708,
,,,C,G,g,v,L,D,y,R,y,,,,,5,19,119,19,1,0,1,0,,,,,0,26,26,33,,,,,,down,0.7672874640584268,2358.0410333039013,None,001,40,2019_Oct_18_1105,ACPT_experiment_5_30_19,3.1.0,59.9420786543708,
,,,C,G,g,v,L,U,d,R,u,,,,,5,19,119,19,1,0,1,0,,,,,0,27,27,21,,,,,,up,0.600479370901212,2360.0926978952057,None,001,40,2019_Oct_18_1105,ACPT_experiment_5_30_19,3.1.0,59.9420786543708,
,,,C,G,g,v,L,D,g,L,i,,,,,5,19,119,19,1,0,1,0,,,,,0,28,28,14,,,,,,up,0.7005604232226688,2361.977561940124,None,001,40,2019_Oct_18_1105,ACPT_experiment_5_30_19,3.1.0,59.9420786543708,
,,,C,G,g,v,L,G,g,R,c ,,,,,5,19,119,19,1,0,1,0,,,,,0,29,29,19,,,,,,up,0.6505253307373096,2363.962507339235,None,001,40,2019_Oct_18_1105,ACPT_experiment_5_30_19,3.1.0,59.9420786543708,
,,,C,G,g,v,R,D,y,R,y,,,,,5,19,119,19,1,0,1,0,,,,,0,30,30,27,,,,,,down,0.7005960439828414,2365.8973862512926,None,001,40,2019_Oct_18_1105,ACPT_experiment_5_30_19,3.1.0,59.9420786543708,
,,,C,G,g,v,R,D,g,R,i,,,,,5,19,119,19,1,0,1,0,,,,,0,31,31,3,,,,,,up,0.613838061385195,2367.90236440339,None,001,40,2019_Oct_18_1105,ACPT_experiment_5_30_19,3.1.0,59.9420786543708,
,,,C,G,g,v,R,U,g,L,u,,,,,5,19,119,19,1,0,1,0,,,,,0,32,32,10,,,,,,up,1.0341772132792357,2369.8005795920217,None,001,40,2019_Oct_18_1105,ACPT_experiment_5_30_19,3.1.0,59.9420786543708,
,,,C,G,g,v,R,D,g,L,i,,,,,5,19,119,19,1,0,1,0,,,,,0,33,33,2,,,,,,up,0.6171815828597573,2372.1024534552894,None,001,40,2019_Oct_18_1105,ACPT_experiment_5_30_19,3.1.0,59.9420786543708,
,,,C,G,g,v,L,U,g,R,u,,,,,5,19,119,19,1,0,1,0,,,,,0,34,34,23,,,,,,up,0.5337716497997462,2374.0039958643697,None,001,40,2019_Oct_18_1105,ACPT_experiment_5_30_19,3.1.0,59.9420786543708,
,,,C,G,g,v,R,U,d,R,u,,,,,5,19,119,19,1,0,1,0,,,,,0,35,35,9,,,,,,up,0.5004064690920131,2375.8221364909027,None,001,40,2019_Oct_18_1105,ACPT_experiment_5_30_19,3.1.0,59.9420786543708,
,,,C,G,g,v,R,U,d,R,u,,,,,5,19,119,19,1,0,1,0,,,,,1,0,36,9,,,,,,up,0.4336863712860577,2377.5902371950165,None,001,40,2019_Oct_18_1105,ACPT_experiment_5_30_19,3.1.0,59.9420786543708,
,,,C,G,g,v,L,U,y,R,u,,,,,5,19,119,19,1,0,1,0,,,,,1,1,37,25,,,,,,down,0.7172481453808359,2379.3083025047736,None,001,40,2019_Oct_18_1105,ACPT_experiment_5_30_19,3.1.0,59.9420786543708,
,,,C,G,g,v,L,U,g,L,u,,,,,5,19,119,19,1,0,1,0,,,,,1,2,38,22,,,,,,up,0.6004757484511174,2381.309935022301,None,001,40,2019_Oct_18_1105,ACPT_experiment_5_30_19,3.1.0,59.9420786543708,
,,,C,G,g,v,R,U,y,L,u,,,,,5,19,119,19,1,0,1,0,,,,,1,3,39,30,,,,,,down,0.683694899137663,2383.2116259518366,None,001,40,2019_Oct_18_1105,ACPT_experiment_5_30_19,3.1.0,59.9420786543708,
,,,C,G,g,v,R,U,g,L,u,,,,,5,19,119,19,1,0,1,0,,,,,1,4,40,10,,,,,,up,0.4670385715471639,2385.1964161893334,None,001,40,2019_Oct_18_1105,ACPT_experiment_5_30_19,3.1.0,59.9420786543708,
,,,C,G,g,v,L,G,y,R,y,,,,,5,19,119,19,1,0,1,0,,,,,1,5,41,35,,,,,,down,0.7172221844884916,2386.981214879214,None,001,40,2019_Oct_18_1105,ACPT_experiment_5_30_19,3.1.0,59.9420786543708,
,,,C,G,g,v,R,U,d,L,u,,,,,5,19,119,19,1,0,1,0,,,,,1,6,42,8,,,,,,up,0.8173288958319063,2388.9995061392983,None,001,40,2019_Oct_18_1105,ACPT_experiment_5_30_19,3.1.0,59.9420786543708,
,,,C,G,g,v,R,D,y,R,y,,,,,5,19,119,19,1,0,1,0,,,,,1,7,43,27,,,,,,down,0.6838944357655237,2391.101211558635,None,001,40,2019_Oct_18_1105,ACPT_experiment_5_30_19,3.1.0,59.9420786543708,
,,,C,G,g,v,R,D,d,R,c ,,,,,5,19,119,19,1,0,1,0,,,,,1,8,44,1,,,,,,up,0.5004417879808898,2393.0694535383036,None,001,40,2019_Oct_18_1105,ACPT_experiment_5_30_19,3.1.0,59.9420786543708,
,,,C,G,g,v,R,G,d,R,i,,,,,5,19,119,19,1,0,1,0,,,,,1,9,45,5,,,,,,up,0.5337686310913341,2394.8542558506347,None,001,40,2019_Oct_18_1105,ACPT_experiment_5_30_19,3.1.0,59.9420786543708,
,,,C,G,g,v,L,G,g,L,c ,,,,,5,19,119,19,1,0,1,0,,,,,1,10,46,18,,,,,,up,0.5671138883226376,2396.6724061370346,None,001,40,2019_Oct_18_1105,ACPT_experiment_5_30_19,3.1.0,59.9420786543708,
,,,C,G,g,v,L,U,y,L,u,,,,,5,19,119,19,1,0,1,0,,,,,1,11,47,24,,,,,,down,0.7339240945761958,2398.5239068124706,None,001,40,2019_Oct_18_1105,ACPT_experiment_5_30_19,3.1.0,59.9420786543708,
,,,C,G,g,v,R,U,y,R,u,,,,,5,19,119,19,1,0,1,0,,,,,1,12,48,31,,,,,,down,0.8837945165159908,2400.5591466111227,None,001,40,2019_Oct_18_1105,ACPT_experiment_5_30_19,3.1.0,59.9420786543708,
,,,C,G,g,v,L,G,d,L,i,,,,,5,19,119,19,1,0,1,0,,,,,1,13,49,16,,,,,,up,0.5671323024439516,2402.727321273593,None,001,40,2019_Oct_18_1105,ACPT_experiment_5_30_19,3.1.0,59.9420786543708,
,,,C,G,g,v,R,D,g,L,i,,,,,5,19,119,19,1,0,1,0,,,,,1,14,50,2,,,,,,up,0.7506284196306297,2404.578803233037,None,001,40,2019_Oct_18_1105,ACPT_experiment_5_30_19,3.1.0,59.9420786543708,
,,,C,G,g,v,L,D,y,R,y,,,,,5,19,119,19,1,0,1,0,,,,,1,15,51,33,,,,,,down,0.8840671058887892,2406.613810289268,None,001,40,2019_Oct_18_1105,ACPT_experiment_5_30_19,3.1.0,59.9420786543708,
,,,C,G,g,v,R,D,d,L,c,,,,,5,19,119,19,1,0,1,0,,,,,1,16,52,0,,,,,,up,0.617164074350967,2408.782237013894,None,001,40,2019_Oct_18_1105,ACPT_experiment_5_30_19,3.1.0,59.9420786543708,
,,,C,G,g,v,R,G,g,R,c ,,,,,5,19,119,19,1,0,1,0,,,,,1,17,53,7,,,,,,up,0.7339458292767631,2410.683761310723,None,001,40,2019_Oct_18_1105,ACPT_experiment_5_30_19,3.1.0,59.9420786543708,
,,,C,G,g,v,R,G,y,L,y,,,,,5,19,119,19,1,0,1,0,,,,,1,18,54,28,,,,,,down,0.7005688756066775,2412.7020893990507,None,001,40,2019_Oct_18_1105,ACPT_experiment_5_30_19,3.1.0,59.9420786543708,
,,,C,G,g,v,L,G,y,L,y,,,,,5,19,119,19,1,0,1,0,,,,,1,19,55,34,,,,,,down,0.7172451266728785,2414.687030270099,None,001,40,2019_Oct_18_1105,ACPT_experiment_5_30_19,3.1.0,59.9420786543708,
,,,C,G,g,v,L,U,g,R,u,,,,,5,19,119,19,1,0,1,0,,,,,1,20,56,23,,,,,,up,0.5337650086412395,2416.6886606745306,None,001,40,2019_Oct_18_1105,ACPT_experiment_5_30_19,3.1.0,59.9420786543708,
,,,C,G,g,v,R,D,y,L,y,,,,,5,19,119,19,1,0,1,0,,,,,1,21,57,26,,,,,,down,0.63384696657522,2418.5068040179012,None,001,40,2019_Oct_18_1105,ACPT_experiment_5_30_19,3.1.0,59.9420786543708,
,,,C,G,g,v,L,G,d,R,i,,,,,5,19,119,19,1,0,1,0,,,,,1,22,58,17,,,,,,up,0.600479069029916,2420.42502720611,None,001,40,2019_Oct_18_1105,ACPT_experiment_5_30_19,3.1.0,59.9420786543708,
,,,C,G,g,v,R,D,g,R,i,,,,,5,19,119,19,1,0,1,0,,,,,1,23,59,3,,,,,,up,0.6171758473137743,2422.30987404439,None,001,40,2019_Oct_18_1105,ACPT_experiment_5_30_19,3.1.0,59.9420786543708,
,,,C,G,g,v,L,D,g,L,i,,,,,5,19,119,19,1,0,1,0,,,,,1,24,60,14,,,,,,up,0.6505428392460999,2424.211448753651,None,001,40,2019_Oct_18_1105,ACPT_experiment_5_30_19,3.1.0,59.9420786543708,
,,,C,G,g,v,R,G,d,L,i,,,,,5,19,119,19,1,0,1,0,,,,,1,25,61,4,,,,,,up,0.533483665014046,2426.1632949202685,None,001,40,2019_Oct_18_1105,ACPT_experiment_5_30_19,3.1.0,59.9420786543708,
,,,C,G,g,v,R,G,y,R,y,,,,,5,19,119,19,1,0,1,0,,,,,1,26,62,29,,,,,,down,0.6839046993745796,2427.98114544892,None,001,40,2019_Oct_18_1105,ACPT_experiment_5_30_19,3.1.0,59.9420786543708,
,,,C,G,g,v,L,U,d,R,u,,,,,5,19,119,19,1,0,1,0,,,,,1,27,63,21,,,,,,down,0.6505208026746914,2429.949431803603,None,001,40,2019_Oct_18_1105,ACPT_experiment_5_30_19,3.1.0,59.9420786543708,
,,,C,G,g,v,L,D,d,R,c ,,,,,5,19,119,19,1,0,1,0,,,,,1,28,64,13,,,,,,up,0.8840320888712085,2431.884343015841,None,001,40,2019_Oct_18_1105,ACPT_experiment_5_30_19,3.1.0,59.9420786543708,
,,,C,G,g,v,L,U,d,L,u,,,,,5,19,119,19,1,0,1,0,,,,,1,29,65,20,,,,,,up,0.5504448821570804,2434.036081112696,None,001,40,2019_Oct_18_1105,ACPT_experiment_5_30_19,3.1.0,59.9420786543708,
,,,C,G,g,v,R,G,g,L,c ,,,,,5,19,119,19,1,0,1,0,,,,,1,30,66,6,,,,,,up,0.5504491083488574,2435.870905537066,None,001,40,2019_Oct_18_1105,ACPT_experiment_5_30_19,3.1.0,59.9420786543708,
,,,C,G,g,v,L,D,y,L,y,,,,,5,19,119,19,1,0,1,0,,,,,1,31,67,32,,,,,,down,0.8340066562523134,2437.722410438694,None,001,40,2019_Oct_18_1105,ACPT_experiment_5_30_19,3.1.0,59.9420786543708,
,,,C,G,g,v,L,D,d,L,c ,,,,,5,19,119,19,1,0,1,0,,,,,1,32,68,12,,,,,,up,0.6672042986410816,2439.857476812546,None,001,40,2019_Oct_18_1105,ACPT_experiment_5_30_19,3.1.0,59.9420786543708,
,,,C,G,g,v,L,G,g,R,c ,,,,,5,19,119,19,1,0,1,0,,,,,1,33,69,19,,,,,,up,1.0675363565696898,2441.809055823466,None,001,40,2019_Oct_18_1105,ACPT_experiment_5_30_19,3.1.0,59.9420786543708,
,,,C,G,g,v,L,D,g,R,i,,,,,5,19,119,19,1,0,1,0,,,,,1,34,70,15,,,,,,up,0.6171610556421001,2444.1609738353445,None,001,40,2019_Oct_18_1105,ACPT_experiment_5_30_19,3.1.0,59.9420786543708,
,,,C,G,g,v,R,U,g,R,u,,,,,5,19,119,19,1,0,1,0,,,,,1,35,71,11,,,,,,up,0.7005688756066775,2446.045832144717,None,001,40,2019_Oct_18_1105,ACPT_experiment_5_30_19,3.1.0,59.9420786543708,
,,,C,G,g,v,,,,,,,,,,5,19,119,19,2,0,2,0,0,0,0,0,,,,,,,,,,,,,,001,40,2019_Oct_18_1105,ACPT_experiment_5_30_19,3.1.0,59.9420786543708,
,,,C,G,g,v,L,U,d,R,u,,,,,5,19,119,19,2,0,2,0,,,,,0,0,0,21,,,,,,up,0.5669457462627179,2458.889778502268,None,001,40,2019_Oct_18_1105,ACPT_experiment_5_30_19,3.1.0,59.9420786543708,
,,,C,G,g,v,L,U,g,R,u,,,,,5,19,119,19,2,0,2,0,,,,,0,1,1,23,,,,,,up,0.46704279773894086,2460.7411034888723,None,001,40,2019_Oct_18_1105,ACPT_experiment_5_30_19,3.1.0,59.9420786543708,
,,,C,G,g,v,R,G,d,L,i,,,,,5,19,119,19,2,0,2,0,,,,,0,2,2,4,,,,,,up,0.5004614095860234,2462.492493830515,None,001,40,2019_Oct_18_1105,ACPT_experiment_5_30_19,3.1.0,59.9420786543708,
,,,C,G,g,v,R,U,y,L,u,,,,,5,19,119,19,2,0,2,0,,,,,0,3,3,30,,,,,,down,0.6837205581591661,2464.294142649068,None,001,40,2019_Oct_18_1105,ACPT_experiment_5_30_19,3.1.0,59.9420786543708,
,,,C,G,g,v,R,D,g,L,i,,,,,5,19,119,19,2,0,2,0,,,,,0,4,4,2,,,,,,up,0.43370810598707976,2466.2789353015314,None,001,40,2019_Oct_18_1105,ACPT_experiment_5_30_19,3.1.0,59.9420786543708,
,,,C,G,g,v,L,G,g,R,c ,,,,,5,19,119,19,2,0,2,0,,,,,0,5,5,19,,,,,,up,0.6338403254167133,2467.996995479484,None,001,40,2019_Oct_18_1105,ACPT_experiment_5_30_19,3.1.0,59.9420786543708,
,,,C,G,g,v,R,D,d,L,c,,,,,5,19,119,19,2,0,2,0,,,,,0,6,6,0,,,,,,up,0.433708407857921,2469.915192103059,None,001,40,2019_Oct_18_1105,ACPT_experiment_5_30_19,3.1.0,59.9420786543708,
,,,C,G,g,v,R,U,d,R,u,,,,,5,19,119,19,2,0,2,0,,,,,0,7,7,9,,,,,,up,0.5001311628816438,2471.6335541518565,None,001,40,2019_Oct_18_1105,ACPT_experiment_5_30_19,3.1.0,59.9420786543708,
,,,C,G,g,v,L,D,d,L,c ,,,,,5,19,119,19,2,0,2,0,,,,,0,8,8,12,,,,,,up,0.3669569154835699,2473.418065762564,None,001,40,2019_Oct_18_1105,ACPT_experiment_5_30_19,3.1.0,59.9420786543708,
,,,C,G,g,v,R,G,y,R,y,,,,,5,19,119,19,2,0,2,0,,,,,0,9,9,29,,,,,,down,0.5004276000513528,2475.069404031485,None,001,40,2019_Oct_18_1105,ACPT_experiment_5_30_19,3.1.0,59.9420786543708,
,,,C,G,g,v,L,G,y,L,y,,,,,5,19,119,19,2,0,2,0,,,,,0,10,10,34,,,,,,down,0.6503134174045044,2476.871045605138,None,001,40,2019_Oct_18_1105,ACPT_experiment_5_30_19,3.1.0,59.9420786543708,
,,,C,G,g,v,R,U,y,R,u,,,,,5,19,119,19,2,0,2,0,,,,,0,11,11,31,,,,,,down,0.6171541126127522,2478.8391444980266,None,001,40,2019_Oct_18_1105,ACPT_experiment_5_30_19,3.1.0,59.9420786543708,
,,,C,G,g,v,L,D,g,L,i,,,,,5,19,119,19,2,0,2,0,,,,,0,12,12,14,,,,,,up,0.6171728286053622,2480.740671511694,None,001,40,2019_Oct_18_1105,ACPT_experiment_5_30_19,3.1.0,59.9420786543708,
,,,C,G,g,v,L,G,d,R,i,,,,,5,19,119,19,2,0,2,0,,,,,0,13,13,17,,,,,,up,0.5004004316751889,2482.6422235806413,None,001,40,2019_Oct_18_1105,ACPT_experiment_5_30_19,3.1.0,59.9420786543708,
,,,C,G,g,v,R,U,d,L,u,,,,,5,19,119,19,2,0,2,0,,,,,0,14,14,8,,,,,,up,0.4670437033514645,2484.4270038564,None,001,40,2019_Oct_18_1105,ACPT_experiment_5_30_19,3.1.0,59.9420786543708,
,,,C,G,g,v,R,U,g,R,u,,,,,5,19,119,19,2,0,2,0,,,,,0,15,15,11,,,,,,up,0.483452798720009,2486.1786975782416,None,001,40,2019_Oct_18_1105,ACPT_experiment_5_30_19,3.1.0,59.9420786543708,
,,,C,G,g,v,R,D,d,R,c ,,,,,5,19,119,19,2,0,2,0,,,,,0,16,16,1,,,,,,up,0.4336860694152165,2487.9465293154326,None,001,40,2019_Oct_18_1105,ACPT_experiment_5_30_19,3.1.0,59.9420786543708,
,,,C,G,g,v,R,G,g,R,c ,,,,,5,19,119,19,2,0,2,0,,,,,0,17,17,7,,,,,,up,0.5671567539825446,2489.66456594746,None,001,40,2019_Oct_18_1105,ACPT_experiment_5_30_19,3.1.0,59.9420786543708,
,,,C,G,g,v,L,D,y,L,y,,,,,5,19,119,19,2,0,2,0,,,,,0,18,18,32,,,,,,down,0.8840209196496289,2491.532802644389,None,001,40,2019_Oct_18_1105,ACPT_experiment_5_30_19,3.1.0,59.9420786543708,
,,,C,G,g,v,R,U,g,L,u,,,,,5,19,119,19,2,0,2,0,,,,,0,19,19,10,,,,,,down,0.5838010067391224,2493.7178838853797,None,001,40,2019_Oct_18_1105,ACPT_experiment_5_30_19,3.1.0,59.9420786543708,
,,,C,G,g,v,R,G,d,R,i,,,,,5,19,119,19,2,0,2,0,,,,,0,20,20,5,,,,,,up,0.5004324299848122,2495.586068358653,None,001,40,2019_Oct_18_1105,ACPT_experiment_5_30_19,3.1.0,59.9420786543708,
,,,C,G,g,v,L,D,g,R,i,,,,,5,19,119,19,2,0,2,0,,,,,0,21,21,15,,,,,,up,0.5837997992557575,2497.370856784925,None,001,40,2019_Oct_18_1105,ACPT_experiment_5_30_19,3.1.0,59.9420786543708,
,,,C,G,g,v,L,U,y,R,u,,,,,5,19,119,19,2,0,2,0,,,,,0,22,22,25,,,,,,down,0.7170178179267168,2499.255969269548,None,001,40,2019_Oct_18_1105,ACPT_experiment_5_30_19,3.1.0,59.9420786543708,
,,,C,G,g,v,L,D,d,R,c ,,,,,5,19,119,19,2,0,2,0,,,,,0,23,23,13,,,,,,up,0.7172526734434541,2501.2573424800203,None,001,40,2019_Oct_18_1105,ACPT_experiment_5_30_19,3.1.0,59.9420786543708,
,,,C,G,g,v,R,D,g,R,i,,,,,5,19,119,19,2,0,2,0,,,,,0,24,24,3,,,,,,up,0.5170830220290554,2503.2589650358095,None,001,40,2019_Oct_18_1105,ACPT_experiment_5_30_19,3.1.0,59.9420786543708,
,,,C,G,g,v,L,U,g,L,u,,,,,5,19,119,19,2,0,2,0,,,,,0,25,25,22,,,,,,up,0.5337462926486296,2505.06045205159,None,001,40,2019_Oct_18_1105,ACPT_experiment_5_30_19,3.1.0,59.9420786543708,
,,,C,G,g,v,L,U,d,L,u,,,,,5,19,119,19,2,0,2,0,,,,,0,26,26,20,,,,,,up,0.48374742466421594,2506.878548001238,None,001,40,2019_Oct_18_1105,ACPT_experiment_5_30_19,3.1.0,59.9420786543708,
,,,C,G,g,v,R,G,y,L,y,,,,,5,19,119,19,2,0,2,0,,,,,0,27,27,28,,,,,,up,0.5170766827409352,2508.64667677934,None,001,40,2019_Oct_18_1105,ACPT_experiment_5_30_19,3.1.0,59.9420786543708,
,,,C,G,g,v,L,U,y,L,u,,,,,5,19,119,19,2,0,2,0,,,,,0,28,28,24,,,,,,down,0.8173307070569535,2510.43145373452,None,001,40,2019_Oct_18_1105,ACPT_experiment_5_30_19,3.1.0,59.9420786543708,
,,,C,G,g,v,L,G,d,L,i,,,,,5,19,119,19,2,0,2,0,,,,,0,29,29,16,,,,,,up,0.5804762012576248,2512.553171983367,None,001,40,2019_Oct_18_1105,ACPT_experiment_5_30_19,3.1.0,59.9420786543708,
,,,C,G,g,v,R,D,y,R,y,,,,,5,19,119,19,2,0,2,0,,,,,0,30,30,27,,,,,,down,0.7672841434791735,2514.434711826545,None,001,40,2019_Oct_18_1105,ACPT_experiment_5_30_19,3.1.0,59.9420786543708,
,,,C,G,g,v,L,D,y,R,y,,,,,5,19,119,19,2,0,2,0,,,,,0,31,31,33,,,,,,down,0.7172421079640117,2516.5030568951074,None,001,40,2019_Oct_18_1105,ACPT_experiment_5_30_19,3.1.0,59.9420786543708,
,,,C,G,g,v,L,G,g,L,c ,,,,,5,19,119,19,2,0,2,0,,,,,0,32,32,18,,,,,,up,0.5838293825986511,2518.504683677089,None,001,40,2019_Oct_18_1105,ACPT_experiment_5_30_19,3.1.0,59.9420786543708,
,,,C,G,g,v,L,G,y,R,y,,,,,5,19,119,19,2,0,2,0,,,,,0,33,33,35,,,,,,up,0.617190035243766,2520.3728415857277,None,001,40,2019_Oct_18_1105,ACPT_experiment_5_30_19,3.1.0,59.9420786543708,
,,,C,G,g,v,R,G,g,L,c ,,,,,5,19,119,19,2,0,2,0,,,,,0,34,34,6,,,,,,up,0.7172710875652228,2522.2744120687967,None,001,40,2019_Oct_18_1105,ACPT_experiment_5_30_19,3.1.0,59.9420786543708,
,,,C,G,g,v,R,D,y,L,y,,,,,5,19,119,19,2,0,2,0,,,,,0,35,35,26,,,,,,down,0.6505189914496441,2524.292720233648,None,001,40,2019_Oct_18_1105,ACPT_experiment_5_30_19,3.1.0,59.9420786543708,
,,,C,G,g,v,L,D,d,L,c ,,,,,5,19,119,19,2,0,2,0,,,,,1,0,36,12,,,,,,up,0.6171981857564788,2526.2443049801145,None,001,40,2019_Oct_18_1105,ACPT_experiment_5_30_19,3.1.0,59.9420786543708,
,,,C,G,g,v,L,U,g,R,u,,,,,5,19,119,19,2,0,2,0,,,,,1,1,37,23,,,,,,up,0.6171800735055513,2528.1458594640285,None,001,40,2019_Oct_18_1105,ACPT_experiment_5_30_19,3.1.0,59.9420786543708,
,,,C,G,g,v,L,U,g,L,u,,,,,5,19,119,19,2,0,2,0,,,,,1,2,38,22,,,,,,up,0.6505250288664683,2530.0473876851793,None,001,40,2019_Oct_18_1105,ACPT_experiment_5_30_19,3.1.0,59.9420786543708,
,,,C,G,g,v,L,G,d,L,i,,,,,5,19,119,19,2,0,2,0,,,,,1,3,39,16,,,,,,up,0.7003666221403364,2531.9991447998977,None,001,40,2019_Oct_18_1105,ACPT_experiment_5_30_19,3.1.0,59.9420786543708,
,,,C,G,g,v,R,U,y,L,u,,,,,5,19,119,19,2,0,2,0,,,,,1,4,40,30,,,,,,down,0.667233278241838,2533.9838906623804,None,001,40,2019_Oct_18_1105,ACPT_experiment_5_30_19,3.1.0,59.9420786543708,
,,,C,G,g,v,L,G,d,R,i,,,,,5,19,119,19,2,0,2,0,,,,,1,5,41,17,,,,,,up,0.8673552340628703,2535.935509218381,None,001,40,2019_Oct_18_1105,ACPT_experiment_5_30_19,3.1.0,59.9420786543708,
,,,C,G,g,v,L,G,g,L,c ,,,,,5,19,119,19,2,0,2,0,,,,,1,6,42,18,,,,,,up,0.6004917476057017,2538.070561404303,None,001,40,2019_Oct_18_1105,ACPT_experiment_5_30_19,3.1.0,59.9420786543708,
,,,C,G,g,v,R,D,y,R,y,,,,,5,19,119,19,2,0,2,0,,,,,1,7,43,27,,,,,,down,0.6671925256778195,2539.955444467085,None,001,40,2019_Oct_18_1105,ACPT_experiment_5_30_19,3.1.0,59.9420786543708,
,,,C,G,g,v,R,G,g,L,c ,,,,,5,19,119,19,2,0,2,0,,,,,1,8,44,6,,,,,,up,0.5838209302150972,2541.907017742459,None,001,40,2019_Oct_18_1105,ACPT_experiment_5_30_19,3.1.0,59.9420786543708,
,,,C,G,g,v,R,G,d,R,i,,,,,5,19,119,19,2,0,2,0,,,,,1,9,45,5,,,,,,up,0.617159546287894,2543.7752079512784,None,001,40,2019_Oct_18_1105,ACPT_experiment_5_30_19,3.1.0,59.9420786543708,
,,,C,G,g,v,R,D,d,R,c ,,,,,5,19,119,19,2,0,2,0,,,,,1,10,46,1,,,,,,up,0.5337957994670433,2545.6767180601782,None,001,40,2019_Oct_18_1105,ACPT_experiment_5_30_19,3.1.0,59.9420786543708,
,,,C,G,g,v,L,G,y,R,y,,,,,5,19,119,19,2,0,2,0,,,,,1,11,47,35,,,,,,down,1.0007984483841028,2547.511575690341,None,001,40,2019_Oct_18_1105,ACPT_experiment_5_30_19,3.1.0,59.9420786543708,
,,,C,G,g,v,L,D,d,R,c ,,,,,5,19,119,19,2,0,2,0,,,,,1,12,48,13,,,,,,up,0.5504322035817495,2549.8134459311586,None,001,40,2019_Oct_18_1105,ACPT_experiment_5_30_19,3.1.0,59.9420786543708,
,,,C,G,g,v,L,D,y,L,y,,,,,5,19,119,19,2,0,2,0,,,,,1,13,49,32,,,,,,down,0.633861456376053,2551.6315654267323,None,001,40,2019_Oct_18_1105,ACPT_experiment_5_30_19,3.1.0,59.9420786543708,
,,,C,G,g,v,R,U,d,L,u,,,,,5,19,119,19,2,0,2,0,,,,,1,14,50,8,,,,,,up,0.6004751447089802,2553.549804915967,None,001,40,2019_Oct_18_1105,ACPT_experiment_5_30_19,3.1.0,59.9420786543708,
,,,C,G,g,v,R,G,y,L,y,,,,,5,19,119,19,2,0,2,0,,,,,1,15,51,28,,,,,,down,1.1176085791694277,2555.4346756020436,None,001,40,2019_Oct_18_1105,ACPT_experiment_5_30_19,3.1.0,59.9420786543708,
,,,C,G,g,v,R,D,g,L,i,,,,,5,19,119,19,2,0,2,0,,,,,1,16,52,2,,,,,,up,0.8506898503474076,2557.836623272733,None,001,40,2019_Oct_18_1105,ACPT_experiment_5_30_19,3.1.0,59.9420786543708,
,,,C,G,g,v,L,U,y,R,u,,,,,5,19,119,19,2,0,2,0,,,,,1,17,53,25,,,,,,down,0.8673657995423127,2559.971694476518,None,001,40,2019_Oct_18_1105,ACPT_experiment_5_30_19,3.1.0,59.9420786543708,
,,,C,G,g,v,R,G,y,R,y,,,,,5,19,119,19,2,0,2,0,,,,,1,18,54,29,,,,,,down,0.8840474842836556,2562.1234383089195,None,001,40,2019_Oct_18_1105,ACPT_experiment_5_30_19,3.1.0,59.9420786543708,
,,,C,G,g,v,R,U,d,R,u,,,,,5,19,119,19,2,0,2,0,,,,,1,19,55,9,,,,,,up,1.3177474397580227,2564.291856279291,None,001,40,2019_Oct_18_1105,ACPT_experiment_5_30_19,3.1.0,59.9420786543708,
,,,C,G,g,v,L,D,g,R,i,,,,,5,19,119,19,2,0,2,0,,,,,1,20,56,15,,,,,,up,0.8340051468981073,2566.893979336941,None,001,40,2019_Oct_18_1105,ACPT_experiment_5_30_19,3.1.0,59.9420786543708,
,,,C,G,g,v,R,G,d,L,i,,,,,5,19,119,19,2,0,2,0,,,,,1,21,57,4,,,,,,up,0.5838218358276208,2569.012363724181,None,001,40,2019_Oct_18_1105,ACPT_experiment_5_30_19,3.1.0,59.9420786543708,
,,,C,G,g,v,L,U,d,R,u,,,,,5,19,119,19,2,0,2,0,,,,,1,22,58,21,,,,,,up,0.5837056155523896,2570.880548801196,None,001,40,2019_Oct_18_1105,ACPT_experiment_5_30_19,3.1.0,59.9420786543708,
,,,C,G,g,v,L,U,y,L,u,,,,,5,19,119,19,2,0,2,0,,,,,1,23,59,24,,,,,,down,0.7172197695213072,2572.7654382032647,None,001,40,2019_Oct_18_1105,ACPT_experiment_5_30_19,3.1.0,59.9420786543708,
,,,C,G,g,v,L,U,d,L,u,,,,,5,19,119,19,2,0,2,0,,,,,1,24,60,20,,,,,,up,0.7005568007725742,2574.783725539028,None,001,40,2019_Oct_18_1105,ACPT_experiment_5_30_19,3.1.0,59.9420786543708,
,,,C,G,g,v,R,U,y,R,u,,,,,5,19,119,19,2,0,2,0,,,,,1,25,61,31,,,,,,down,0.8507146037568418,2576.768640751055,None,001,40,2019_Oct_18_1105,ACPT_experiment_5_30_19,3.1.0,59.9420786543708,
,,,C,G,g,v,R,U,g,R,u,,,,,5,19,119,19,2,0,2,0,,,,,1,26,62,11,,,,,,up,0.783970960024817,2578.903728859608,None,001,40,2019_Oct_18_1105,ACPT_experiment_5_30_19,3.1.0,59.9420786543708,
,,,C,G,g,v,R,G,g,R,c ,,,,,5,19,119,19,2,0,2,0,,,,,1,27,63,7,,,,,,up,0.7339198683844188,2580.972078154362,None,001,40,2019_Oct_18_1105,ACPT_experiment_5_30_19,3.1.0,59.9420786543708,
,,,C,G,g,v,L,G,y,L,y,,,,,5,19,119,19,2,0,2,0,,,,,1,28,64,34,,,,,,down,0.933888473816296,2583.007227391761,None,001,40,2019_Oct_18_1105,ACPT_experiment_5_30_19,3.1.0,59.9420786543708,
,,,C,G,g,v,R,U,g,L,u,,,,,5,19,119,19,2,0,2,0,,,,,1,29,65,10,,,,,,up,0.73393013199302,2585.242214524516,None,001,40,2019_Oct_18_1105,ACPT_experiment_5_30_19,3.1.0,59.9420786543708,
,,,C,G,g,v,R,D,y,L,y,,,,,5,19,119,19,2,0,2,0,,,,,1,30,66,26,,,,,,down,1.3345664757334816,2587.277200147917,None,001,40,2019_Oct_18_1105,ACPT_experiment_5_30_19,3.1.0,59.9420786543708,
,,,C,G,g,v,R,D,d,L,c,,,,,5,19,119,19,2,0,2,0,,,,,1,31,67,0,,,,,,up,0.5837994973849163,2589.912672990861,None,001,40,2019_Oct_18_1105,ACPT_experiment_5_30_19,3.1.0,59.9420786543708,
,,,C,G,g,v,L,D,g,L,i,,,,,5,19,119,19,2,0,2,0,,,,,1,32,68,14,,,,,,up,0.9340970665698478,2591.78085595478,None,001,40,2019_Oct_18_1105,ACPT_experiment_5_30_19,3.1.0,59.9420786543708,
,,,C,G,g,v,L,D,y,R,y,,,,,5,19,119,19,2,0,2,0,,,,,1,33,69,33,,,,,,down,0.6505256326081508,2593.9993292429835,None,001,40,2019_Oct_18_1105,ACPT_experiment_5_30_19,3.1.0,59.9420786543708,
,,,C,G,g,v,L,G,g,R,c ,,,,,5,19,119,19,2,0,2,0,,,,,1,34,70,19,,,,,,up,0.7672992370216889,2595.9342286822584,None,001,40,2019_Oct_18_1105,ACPT_experiment_5_30_19,3.1.0,59.9420786543708,
,,,C,G,g,v,R,D,g,R,i,,,,,5,19,119,19,2,0,2,0,,,,,1,35,71,3,,,,,,up,0.7005963458536826,2597.9858676145413,None,001,40,2019_Oct_18_1105,ACPT_experiment_5_30_19,3.1.0,59.9420786543708,
,,,C,G,g,v,,,,,,,,,,5,19,119,19,3,0,3,0,0,0,0,0,,,,,,,,,,,,,,001,40,2019_Oct_18_1105,ACPT_experiment_5_30_19,3.1.0,59.9420786543708,
,,,C,G,g,v,L,D,g,R,i,,,,,5,19,119,19,3,0,3,0,,,,,0,0,0,15,,,,,,up,1.301054887666396,2627.4598356313254,None,001,40,2019_Oct_18_1105,ACPT_experiment_5_30_19,3.1.0,59.9420786543708,
,,,C,G,g,v,L,U,d,R,u,,,,,5,19,119,19,3,0,3,0,,,,,0,1,1,21,,,,,,up,0.4837211619010304,2630.0452658350127,None,001,40,2019_Oct_18_1105,ACPT_experiment_5_30_19,3.1.0,59.9420786543708,
,,,C,G,g,v,R,G,d,R,i,,,,,5,19,119,19,3,0,3,0,,,,,0,2,2,5,,,,,,up,0.4503819420860964,2631.8133463137797,None,001,40,2019_Oct_18_1105,ACPT_experiment_5_30_19,3.1.0,59.9420786543708,
,,,C,G,g,v,L,U,g,L,u,,,,,5,19,119,19,3,0,3,0,,,,,0,3,3,22,,,,,,up,0.7005930252739745,2633.548109307433,None,001,40,2019_Oct_18_1105,ACPT_experiment_5_30_19,3.1.0,59.9420786543708,
,,,C,G,g,v,L,G,y,L,y,,,,,5,19,119,19,3,0,3,0,,,,,0,4,4,34,,,,,,up,0.500379300716304,2635.5497587297277,None,001,40,2019_Oct_18_1105,ACPT_experiment_5_30_19,3.1.0,59.9420786543708,
,,,C,G,g,v,L,G,g,L,c ,,,,,5,19,119,19,3,0,3,0,,,,,0,5,5,18,,,,,,up,0.4503602073850743,2637.3512025779773,None,001,40,2019_Oct_18_1105,ACPT_experiment_5_30_19,3.1.0,59.9420786543708,
,,,C,G,g,v,R,D,d,R,c ,,,,,5,19,119,19,3,0,3,0,,,,,0,6,6,1,,,,,,up,0.46706694740669263,2639.085951383701,None,001,40,2019_Oct_18_1105,ACPT_experiment_5_30_19,3.1.0,59.9420786543708,
,,,C,G,g,v,R,U,y,R,u,,,,,5,19,119,19,3,0,3,0,,,,,0,7,7,31,,,,,,down,0.6004627680044905,2640.8707398099723,None,001,40,2019_Oct_18_1105,ACPT_experiment_5_30_19,3.1.0,59.9420786543708,
,,,C,G,g,v,L,U,y,R,u,,,,,5,19,119,19,3,0,3,0,,,,,0,8,8,25,,,,,,down,0.6171571313216191,2642.772272257315,None,001,40,2019_Oct_18_1105,ACPT_experiment_5_30_19,3.1.0,59.9420786543708,
,,,C,G,g,v,R,U,d,R,u,,,,,5,19,119,19,3,0,3,0,,,,,0,9,9,9,,,,,,up,0.5003762820078919,2644.6738448534797,None,001,40,2019_Oct_18_1105,ACPT_experiment_5_30_19,3.1.0,59.9420786543708,
,,,C,G,g,v,L,D,y,R,y,,,,,5,19,119,19,3,0,3,0,,,,,0,10,10,33,,,,,,down,0.6005134823067237,2646.4585732074534,None,001,40,2019_Oct_18_1105,ACPT_experiment_5_30_19,3.1.0,59.9420786543708,
,,,C,G,g,v,L,D,y,L,y,,,,,5,19,119,19,3,0,3,0,,,,,0,11,11,32,,,,,,down,0.7670332888073972,2648.3604220154407,None,001,40,2019_Oct_18_1105,ACPT_experiment_5_30_19,3.1.0,59.9420786543708,
,,,C,G,g,v,R,U,g,L,u,,,,,5,19,119,19,3,0,3,0,,,,,0,12,12,10,,,,,,up,0.7839664319621988,2650.4118070743434,None,001,40,2019_Oct_18_1105,ACPT_experiment_5_30_19,3.1.0,59.9420786543708,
,,,C,G,g,v,L,D,d,R,c ,,,,,5,19,119,19,3,0,3,0,,,,,0,13,13,13,,,,,,up,0.6005071430190583,2652.4801823299904,None,001,40,2019_Oct_18_1105,ACPT_experiment_5_30_19,3.1.0,59.9420786543708,
,,,C,G,g,v,L,U,d,L,u,,,,,5,19,119,19,3,0,3,0,,,,,0,14,14,20,,,,,,up,0.5170857388666263,2654.3650192065325,None,001,40,2019_Oct_18_1105,ACPT_experiment_5_30_19,3.1.0,59.9420786543708,
,,,C,G,g,v,L,G,d,R,i,,,,,5,19,119,19,3,0,3,0,,,,,0,15,15,17,,,,,,up,0.5337631974161923,2656.166482978258,None,001,40,2019_Oct_18_1105,ACPT_experiment_5_30_19,3.1.0,59.9420786543708,
,,,C,G,g,v,R,G,y,L,y,,,,,5,19,119,19,3,0,3,0,,,,,0,16,16,28,,,,,,down,0.6338840966891439,2657.984621793566,None,001,40,2019_Oct_18_1105,ACPT_experiment_5_30_19,3.1.0,59.9420786543708,
,,,C,G,g,v,R,D,g,R,i,,,,,5,19,119,19,3,0,3,0,,,,,0,17,17,3,,,,,,up,0.700552272709956,2659.9028570566084,None,001,40,2019_Oct_18_1105,ACPT_experiment_5_30_19,3.1.0,59.9420786543708,
,,,C,G,g,v,L,D,g,L,i,,,,,5,19,119,19,3,0,3,0,,,,,0,18,18,14,,,,,,up,0.48374802840589837,2661.8877701555393,None,001,40,2019_Oct_18_1105,ACPT_experiment_5_30_19,3.1.0,59.9420786543708,
,,,C,G,g,v,L,D,d,L,c ,,,,,5,19,119,19,3,0,3,0,,,,,0,19,19,12,,,,,,up,0.45036262235225877,2663.655899839254,None,001,40,2019_Oct_18_1105,ACPT_experiment_5_30_19,3.1.0,59.9420786543708,
,,,C,G,g,v,L,G,g,R,c ,,,,,5,19,119,19,3,0,3,0,,,,,0,20,20,19,,,,,,up,0.6505585365302977,2665.390637475756,None,001,40,2019_Oct_18_1105,ACPT_experiment_5_30_19,3.1.0,59.9420786543708,
,,,C,G,g,v,R,U,g,R,u,,,,,5,19,119,19,3,0,3,0,,,,,0,21,21,11,,,,,,up,0.5334866837224581,2667.342502962108,None,001,40,2019_Oct_18_1105,ACPT_experiment_5_30_19,3.1.0,59.9420786543708,
,,,C,G,g,v,R,G,g,L,c ,,,,,5,19,119,19,3,0,3,0,,,,,0,22,22,6,,,,,,up,0.5003946961292058,2669.1436899182686,None,001,40,2019_Oct_18_1105,ACPT_experiment_5_30_19,3.1.0,59.9420786543708,
,,,C,G,g,v,R,U,y,L,u,,,,,5,19,119,19,3,0,3,0,,,,,0,23,23,30,,,,,,down,0.6338536077337267,2670.928469590286,None,001,40,2019_Oct_18_1105,ACPT_experiment_5_30_19,3.1.0,59.9420786543708,
,,,C,G,g,v,L,G,y,R,y,,,,,5,19,119,19,3,0,3,0,,,,,0,24,24,35,,,,,,down,0.8506801904804888,2672.8633771800737,None,001,40,2019_Oct_18_1105,ACPT_experiment_5_30_19,3.1.0,59.9420786543708,
,,,C,G,g,v,R,G,y,R,y,,,,,5,19,119,19,3,0,3,0,,,,,0,25,25,29,,,,,,down,0.7839649226079928,2675.015120710604,None,001,40,2019_Oct_18_1105,ACPT_experiment_5_30_19,3.1.0,59.9420786543708,
,,,C,G,g,v,R,D,y,R,y,,,,,5,19,119,19,3,0,3,0,,,,,0,26,26,27,,,,,,down,0.9007303765083634,2677.0834697034875,None,001,40,2019_Oct_18_1105,ACPT_experiment_5_30_19,3.1.0,59.9420786543708,
,,,C,G,g,v,L,U,g,R,u,,,,,5,19,119,19,3,0,3,0,,,,,0,27,27,23,,,,,,up,0.6171821866014398,2679.2685545669287,None,001,40,2019_Oct_18_1105,ACPT_experiment_5_30_19,3.1.0,59.9420786543708,
,,,C,G,g,v,L,U,y,L,u,,,,,5,19,119,19,3,0,3,0,,,,,0,28,28,24,,,,,,down,0.5838031198350109,2681.1701223331597,None,001,40,2019_Oct_18_1105,ACPT_experiment_5_30_19,3.1.0,59.9420786543708,
,,,C,G,g,v,R,D,d,L,c,,,,,5,19,119,19,3,0,3,0,,,,,0,29,29,0,,,,,,up,0.617168300542744,2683.038306806433,None,001,40,2019_Oct_18_1105,ACPT_experiment_5_30_19,3.1.0,59.9420786543708,
,,,C,G,g,v,L,G,d,L,i,,,,,5,19,119,19,3,0,3,0,,,,,0,30,30,16,,,,,,up,0.5004067709628544,2684.923165719547,None,001,40,2019_Oct_18_1105,ACPT_experiment_5_30_19,3.1.0,59.9420786543708,
,,,C,G,g,v,R,U,d,L,u,,,,,5,19,119,19,3,0,3,0,,,,,0,31,31,8,,,,,,up,0.8670989457159521,2686.724905401224,None,001,40,2019_Oct_18_1105,ACPT_experiment_5_30_19,3.1.0,59.9420786543708,
,,,C,G,g,v,R,D,g,L,i,,,,,5,19,119,19,3,0,3,0,,,,,0,32,32,2,,,,,,up,0.5504397503527798,2688.876383889153,None,001,40,2019_Oct_18_1105,ACPT_experiment_5_30_19,3.1.0,59.9420786543708,
,,,C,G,g,v,R,D,y,L,y,,,,,5,19,119,19,3,0,3,0,,,,,0,33,33,26,,,,,,down,0.7172744081444762,2690.6945000641476,None,001,40,2019_Oct_18_1105,ACPT_experiment_5_30_19,3.1.0,59.9420786543708,
,,,C,G,g,v,R,G,d,L,i,,,,,5,19,119,19,3,0,3,0,,,,,0,34,34,4,,,,,,up,0.5504515233160419,2692.696142241542,None,001,40,2019_Oct_18_1105,ACPT_experiment_5_30_19,3.1.0,59.9420786543708,
,,,C,G,g,v,R,G,g,R,c ,,,,,5,19,119,19,3,0,3,0,,,,,0,35,35,7,,,,,,up,0.5837985917723927,2694.5309699864915,None,001,40,2019_Oct_18_1105,ACPT_experiment_5_30_19,3.1.0,59.9420786543708,
,,,C,G,g,v,R,U,y,R,u,,,,,5,19,119,19,3,0,3,0,,,,,1,0,36,31,,,,,,down,0.6171830922139634,2696.3991547616356,None,001,40,2019_Oct_18_1105,ACPT_experiment_5_30_19,3.1.0,59.9420786543708,
,,,C,G,g,v,L,D,g,R,i,,,,,5,19,119,19,3,0,3,0,,,,,1,1,37,15,,,,,,up,0.6505286513165629,2698.3007001894243,None,001,40,2019_Oct_18_1105,ACPT_experiment_5_30_19,3.1.0,59.9420786543708,
,,,C,G,g,v,R,D,g,R,i,,,,,5,19,119,19,3,0,3,0,,,,,1,2,38,3,,,,,,up,0.6171692061552676,2700.2356062698577,None,001,40,2019_Oct_18_1105,ACPT_experiment_5_30_19,3.1.0,59.9420786543708,
,,,C,G,g,v,R,D,d,L,c,,,,,5,19,119,19,3,0,3,0,,,,,1,3,39,0,,,,,,up,0.5505007282631595,2702.1204485800754,None,001,40,2019_Oct_18_1105,ACPT_experiment_5_30_19,3.1.0,59.9420786543708,
,,,C,G,g,v,R,G,d,R,i,,,,,5,19,119,19,3,0,3,0,,,,,1,4,40,5,,,,,,up,0.5503362086533343,2703.955373225566,None,001,40,2019_Oct_18_1105,ACPT_experiment_5_30_19,3.1.0,59.9420786543708,
,,,C,G,g,v,L,D,d,L,c ,,,,,5,19,119,19,3,0,3,0,,,,,1,5,41,12,,,,,,up,0.467027402326039,2705.80680899877,None,001,40,2019_Oct_18_1105,ACPT_experiment_5_30_19,3.1.0,59.9420786543708,
,,,C,G,g,v,L,D,y,R,y,,,,,5,19,119,19,3,0,3,0,,,,,1,6,42,33,,,,,,down,0.5838013086104183,2707.5582183582756,None,001,40,2019_Oct_18_1105,ACPT_experiment_5_30_19,3.1.0,59.9420786543708,
,,,C,G,g,v,L,U,d,R,u,,,,,5,19,119,19,3,0,3,0,,,,,1,7,43,21,,,,,,up,0.5004067709628544,2709.4430793844854,None,001,40,2019_Oct_18_1105,ACPT_experiment_5_30_19,3.1.0,59.9420786543708,
,,,C,G,g,v,L,G,y,R,y,,,,,5,19,119,19,3,0,3,0,,,,,1,8,44,35,,,,,,down,0.7672756910956195,2711.244548891757,None,001,40,2019_Oct_18_1105,ACPT_experiment_5_30_19,3.1.0,59.9420786543708,
,,,C,G,g,v,R,D,g,L,i,,,,,5,19,119,19,3,0,3,0,,,,,1,9,45,2,,,,,,up,0.5337662161246044,2713.3128903378692,None,001,40,2019_Oct_18_1105,ACPT_experiment_5_30_19,3.1.0,59.9420786543708,
,,,C,G,g,v,R,G,d,L,i,,,,,5,19,119,19,3,0,3,0,,,,,1,10,46,4,,,,,,up,0.7172457304141062,2715.131035190594,None,001,40,2019_Oct_18_1105,ACPT_experiment_5_30_19,3.1.0,59.9420786543708,
,,,C,G,g,v,L,U,d,L,u,,,,,5,19,119,19,3,0,3,0,,,,,1,11,47,20,,,,,,up,0.5004182420552752,2717.132658350125,None,001,40,2019_Oct_18_1105,ACPT_experiment_5_30_19,3.1.0,59.9420786543708,
,,,C,G,g,v,L,G,y,L,y,,,,,5,19,119,19,3,0,3,0,,,,,1,12,48,34,,,,,,down,0.6667632653370674,2718.9345586270915,None,001,40,2019_Oct_18_1105,ACPT_experiment_5_30_19,3.1.0,59.9420786543708,
,,,C,G,g,v,L,G,d,R,i,,,,,5,19,119,19,3,0,3,0,,,,,1,13,49,17,,,,,,up,0.58380040299744,2720.8857147169583,None,001,40,2019_Oct_18_1105,ACPT_experiment_5_30_19,3.1.0,59.9420786543708,
,,,C,G,g,v,R,G,g,R,c ,,,,,5,19,119,19,3,0,3,0,,,,,1,14,50,7,,,,,,up,0.5504445802862392,2722.753892549073,None,001,40,2019_Oct_18_1105,ACPT_experiment_5_30_19,3.1.0,59.9420786543708,
,,,C,G,g,v,R,D,y,R,y,,,,,5,19,119,19,3,0,3,0,,,,,1,15,51,27,,,,,,down,0.8006737757250448,2724.60539714883,None,001,40,2019_Oct_18_1105,ACPT_experiment_5_30_19,3.1.0,59.9420786543708,
,,,C,G,g,v,R,U,d,R,u,,,,,5,19,119,19,3,0,3,0,,,,,1,16,52,9,,,,,,up,0.517082418287373,2726.707105586875,None,001,40,2019_Oct_18_1105,ACPT_experiment_5_30_19,3.1.0,59.9420786543708,
,,,C,G,g,v,R,D,y,L,y,,,,,5,19,119,19,3,0,3,0,,,,,1,17,53,26,,,,,,down,0.633889832235127,2728.5085723773086,None,001,40,2019_Oct_18_1105,ACPT_experiment_5_30_19,3.1.0,59.9420786543708,
,,,C,G,g,v,L,D,d,R,c ,,,,,5,19,119,19,3,0,3,0,,,,,1,18,54,13,,,,,,up,0.5337544431613424,2730.426802508547,None,001,40,2019_Oct_18_1105,ACPT_experiment_5_30_19,3.1.0,59.9420786543708,
,,,C,G,g,v,L,G,g,R,c ,,,,,5,19,119,19,3,0,3,0,,,,,1,19,55,19,,,,,,up,0.5501735002676469,2732.261886541843,None,001,40,2019_Oct_18_1105,ACPT_experiment_5_30_19,3.1.0,59.9420786543708,
,,,C,G,g,v,R,U,g,R,u,,,,,5,19,119,19,3,0,3,0,,,,,1,20,56,11,,,,,,up,0.6004884270269031,2734.0964365656155,None,001,40,2019_Oct_18_1105,ACPT_experiment_5_30_19,3.1.0,59.9420786543708,
,,,C,G,g,v,L,D,y,L,y,,,,,5,19,119,19,3,0,3,0,,,,,1,21,57,32,,,,,,down,0.6505319718958162,2735.9813003086633,None,001,40,2019_Oct_18_1105,ACPT_experiment_5_30_19,3.1.0,59.9420786543708,
,,,C,G,g,v,L,G,g,L,c ,,,,,5,19,119,19,3,0,3,0,,,,,1,22,58,18,,,,,,up,0.5837991955145299,2737.916220878897,None,001,40,2019_Oct_18_1105,ACPT_experiment_5_30_19,3.1.0,59.9420786543708,
,,,C,G,g,v,L,U,y,L,u,,,,,5,19,119,19,3,0,3,0,,,,,1,23,59,24,,,,,,down,1.0675330359904365,2739.7843914661116,None,001,40,2019_Oct_18_1105,ACPT_experiment_5_30_19,3.1.0,59.9420786543708,
,,,C,G,g,v,R,G,y,R,y,,,,,5,19,119,19,3,0,3,0,,,,,1,24,60,29,,,,,,down,0.6838805497068279,2742.1363028368314,None,001,40,2019_Oct_18_1105,ACPT_experiment_5_30_19,3.1.0,59.9420786543708,
,,,C,G,g,v,L,G,d,L,i,,,,,5,19,119,19,3,0,3,0,,,,,1,25,61,16,,,,,,up,0.6338306655497945,2744.1045822484853,None,001,40,2019_Oct_18_1105,ACPT_experiment_5_30_19,3.1.0,59.9420786543708,
,,,C,G,g,v,R,G,y,L,y,,,,,5,19,119,19,3,0,3,0,,,,,1,26,62,28,,,,,,down,0.7339120197425473,2746.0227963805687,None,001,40,2019_Oct_18_1105,ACPT_experiment_5_30_19,3.1.0,59.9420786543708,
,,,C,G,g,v,R,U,d,L,u,,,,,5,19,119,19,3,0,3,0,,,,,1,27,63,8,,,,,,up,0.5171038511175539,2748.04109730052,None,001,40,2019_Oct_18_1105,ACPT_experiment_5_30_19,3.1.0,59.9420786543708,
,,,C,G,g,v,L,U,g,L,u,,,,,5,19,119,19,3,0,3,0,,,,,1,28,64,22,,,,,,up,0.5504587682157762,2749.8425586572785,None,001,40,2019_Oct_18_1105,ACPT_experiment_5_30_19,3.1.0,59.9420786543708,
,,,C,G,g,v,R,G,g,L,c ,,,,,5,19,119,19,3,0,3,0,,,,,1,29,65,6,,,,,,up,1.5676599726803033,2751.6943409782125,None,001,40,2019_Oct_18_1105,ACPT_experiment_5_30_19,3.1.0,59.9420786543708,
,,,C,G,g,v,R,D,d,R,c ,,,,,5,19,119,19,3,0,3,0,,,,,1,30,66,1,,,,,,up,0.6338487778002673,2754.5463789837518,None,001,40,2019_Oct_18_1105,ACPT_experiment_5_30_19,3.1.0,59.9420786543708,
,,,C,G,g,v,L,D,g,L,i,,,,,5,19,119,19,3,0,3,0,,,,,1,31,67,14,,,,,,up,0.6338690031470833,2756.4646012663484,None,001,40,2019_Oct_18_1105,ACPT_experiment_5_30_19,3.1.0,59.9420786543708,
,,,C,G,g,v,L,U,y,R,u,,,,,5,19,119,19,3,0,3,0,,,,,1,32,68,25,,,,,,down,0.9340877085737702,2758.3828280770076,None,001,40,2019_Oct_18_1105,ACPT_experiment_5_30_19,3.1.0,59.9420786543708,
,,,C,G,g,v,L,U,g,R,u,,,,,5,19,119,19,3,0,3,0,,,,,1,33,69,23,,,,,,up,0.6338632676011002,2760.5845916064814,None,001,40,2019_Oct_18_1105,ACPT_experiment_5_30_19,3.1.0,59.9420786543708,
,,,C,G,g,v,R,U,g,L,u,,,,,5,19,119,19,3,0,3,0,,,,,1,34,70,10,,,,,,up,0.5337647067703983,2762.5028398499703,None,001,40,2019_Oct_18_1105,ACPT_experiment_5_30_19,3.1.0,59.9420786543708,
,,,C,G,g,v,R,U,y,L,u,,,,,5,19,119,19,3,0,3,0,,,,,1,35,71,30,,,,,,down,0.6839176798207518,2764.320984702695,None,001,40,2019_Oct_18_1105,ACPT_experiment_5_30_19,3.1.0,59.9420786543708,
,,,C,G,g,v,,,,,,,,,,5,19,119,19,4,0,4,0,0,0,0,0,,,,,,,,,,,,,,001,40,2019_Oct_18_1105,ACPT_experiment_5_30_19,3.1.0,59.9420786543708,
,,,C,G,g,v,R,G,g,L,c ,,,,,5,19,119,19,4,0,4,0,,,,,0,0,0,6,,,,,,up,0.6669057483754841,2784.070657097361,None,001,40,2019_Oct_18_1105,ACPT_experiment_5_30_19,3.1.0,59.9420786543708,
,,,C,G,g,v,R,U,y,L,u,,,,,5,19,119,19,4,0,4,0,,,,,0,1,1,30,,,,,,down,0.6004875214143794,2786.0219384636284,None,001,40,2019_Oct_18_1105,ACPT_experiment_5_30_19,3.1.0,59.9420786543708,
,,,C,G,g,v,R,U,d,L,u,,,,,5,19,119,19,4,0,4,0,,,,,0,2,2,8,,,,,,up,0.4336915030903583,2787.9068034141596,None,001,40,2019_Oct_18_1105,ACPT_experiment_5_30_19,3.1.0,59.9420786543708,
,,,C,G,g,v,L,U,y,R,u,,,,,5,19,119,19,4,0,4,0,,,,,0,3,3,25,,,,,,down,0.7005721961859308,2789.6248687239167,None,001,40,2019_Oct_18_1105,ACPT_experiment_5_30_19,3.1.0,59.9420786543708,
,,,C,G,g,v,R,U,d,R,u,,,,,5,19,119,19,4,0,4,0,,,,,0,4,4,9,,,,,,up,0.750607590542586,2791.609813217415,None,001,40,2019_Oct_18_1105,ACPT_experiment_5_30_19,3.1.0,59.9420786543708,
,,,C,G,g,v,R,U,g,R,u,,,,,5,19,119,19,4,0,4,0,,,,,0,5,5,11,,,,,,up,0.5504693336952187,2793.628093610149,None,001,40,2019_Oct_18_1105,ACPT_experiment_5_30_19,3.1.0,59.9420786543708,
,,,C,G,g,v,L,D,g,R,i,,,,,5,19,119,19,4,0,4,0,,,,,0,6,6,15,,,,,,up,0.48372719931739994,2795.462939165478,None,001,40,2019_Oct_18_1105,ACPT_experiment_5_30_19,3.1.0,59.9420786543708,
,,,C,G,g,v,R,U,g,L,u,,,,,5,19,119,19,4,0,4,0,,,,,0,7,7,10,,,,,,up,0.5335117390027335,2797.2480001811227,None,001,40,2019_Oct_18_1105,ACPT_experiment_5_30_19,3.1.0,59.9420786543708,
,,,C,G,g,v,R,G,g,R,c ,,,,,5,19,119,19,4,0,4,0,,,,,0,8,8,7,,,,,,down,0.884048389896634,2799.065869727637,None,001,40,2019_Oct_18_1105,ACPT_experiment_5_30_19,3.1.0,59.9420786543708,
,,,C,G,g,v,R,G,y,R,y,,,,,5,19,119,19,4,0,4,0,,,,,0,9,9,29,,,,,,up,0.6005017093434617,2801.2342735100788,None,001,40,2019_Oct_18_1105,ACPT_experiment_5_30_19,3.1.0,59.9420786543708,
,,,C,G,g,v,L,D,d,R,c ,,,,,5,19,119,19,4,0,4,0,,,,,0,10,10,13,,,,,,up,0.5671093602604742,2803.135845200631,None,001,40,2019_Oct_18_1105,ACPT_experiment_5_30_19,3.1.0,59.9420786543708,
,,,C,G,g,v,L,D,y,L,y,,,,,5,19,119,19,4,0,4,0,,,,,0,11,11,32,,,,,,down,0.7172206751338308,2804.9873682145094,None,001,40,2019_Oct_18_1105,ACPT_experiment_5_30_19,3.1.0,59.9420786543708,
,,,C,G,g,v,L,G,g,R,c ,,,,,5,19,119,19,4,0,4,0,,,,,0,12,12,19,,,,,,up,0.8840480880253381,2806.9889729599195,None,001,40,2019_Oct_18_1105,ACPT_experiment_5_30_19,3.1.0,59.9420786543708,
,,,C,G,g,v,L,G,d,R,i,,,,,5,19,119,19,4,0,4,0,,,,,0,13,13,17,,,,,,up,0.4837275011886959,2809.1407134717415,None,001,40,2019_Oct_18_1105,ACPT_experiment_5_30_19,3.1.0,59.9420786543708,
,,,C,G,g,v,R,D,g,L,i,,,,,5,19,119,19,4,0,4,0,,,,,0,14,14,2,,,,,,up,0.5671280762526294,2810.908816590822,None,001,40,2019_Oct_18_1105,ACPT_experiment_5_30_19,3.1.0,59.9420786543708,
,,,C,G,g,v,R,D,y,L,y,,,,,5,19,119,19,4,0,4,0,,,,,0,15,15,26,,,,,,down,0.7506589085855921,2812.7603036820697,None,001,40,2019_Oct_18_1105,ACPT_experiment_5_30_19,3.1.0,59.9420786543708,
,,,C,G,g,v,R,G,y,L,y,,,,,5,19,119,19,4,0,4,0,,,,,0,16,16,28,,,,,,down,0.7172466360266299,2814.811990309946,None,001,40,2019_Oct_18_1105,ACPT_experiment_5_30_19,3.1.0,59.9420786543708,
,,,C,G,g,v,R,U,y,R,u,,,,,5,19,119,19,4,0,4,0,,,,,0,17,17,31,,,,,,down,0.7672708611621601,2816.8303087384065,None,001,40,2019_Oct_18_1105,ACPT_experiment_5_30_19,3.1.0,59.9420786543708,
,,,C,G,g,v,R,D,g,R,i,,,,,5,19,119,19,4,0,4,0,,,,,0,18,18,3,,,,,,up,0.5004016391585537,2818.8986532032272,None,001,40,2019_Oct_18_1105,ACPT_experiment_5_30_19,3.1.0,59.9420786543708,
,,,C,G,g,v,L,D,y,R,y,,,,,5,19,119,19,4,0,4,0,,,,,0,19,19,33,,,,,,down,0.7172276181636335,2820.68344917627,None,001,40,2019_Oct_18_1105,ACPT_experiment_5_30_19,3.1.0,59.9420786543708,
,,,C,G,g,v,L,U,g,R,u,,,,,5,19,119,19,4,0,4,0,,,,,0,20,20,23,,,,,,up,0.7836980687816322,2822.702007290181,None,001,40,2019_Oct_18_1105,ACPT_experiment_5_30_19,3.1.0,59.9420786543708,
,,,C,G,g,v,R,G,d,R,i,,,,,5,19,119,19,4,0,4,0,,,,,0,21,21,5,,,,,,up,0.5004043559961247,2824.770078260017,None,001,40,2019_Oct_18_1105,ACPT_experiment_5_30_19,3.1.0,59.9420786543708,
,,,C,G,g,v,R,D,y,R,y,,,,,5,19,119,19,4,0,4,0,,,,,0,22,22,27,,,,,,down,0.7005752148938882,2826.554861856355,None,001,40,2019_Oct_18_1105,ACPT_experiment_5_30_19,3.1.0,59.9420786543708,
,,,C,G,g,v,L,G,y,L,y,,,,,5,19,119,19,4,0,4,0,,,,,0,23,23,34,,,,,,down,0.6672070154781977,2828.5398075573366,None,001,40,2019_Oct_18_1105,ACPT_experiment_5_30_19,3.1.0,59.9420786543708,
,,,C,G,g,v,L,U,g,L,u,,,,,5,19,119,19,4,0,4,0,,,,,0,24,24,22,,,,,,up,0.5671202276107579,2830.4913907944488,None,001,40,2019_Oct_18_1105,ACPT_experiment_5_30_19,3.1.0,59.9420786543708,
,,,C,G,g,v,L,G,d,L,i,,,,,5,19,119,19,4,0,4,0,,,,,0,25,25,16,,,,,,up,0.5004055634799442,2832.3428920736264,None,001,40,2019_Oct_18_1105,ACPT_experiment_5_30_19,3.1.0,59.9420786543708,
,,,C,G,g,v,L,G,g,L,c ,,,,,5,19,119,19,4,0,4,0,,,,,0,26,26,18,,,,,,up,0.4837253880928074,2834.1276762737066,None,001,40,2019_Oct_18_1105,ACPT_experiment_5_30_19,3.1.0,59.9420786543708,
,,,C,G,g,v,R,D,d,L,c,,,,,5,19,119,19,4,0,4,0,,,,,0,27,27,0,,,,,,up,0.5003844325206046,2835.912473152362,None,001,40,2019_Oct_18_1105,ACPT_experiment_5_30_19,3.1.0,59.9420786543708,
,,,C,G,g,v,L,D,g,L,i,,,,,5,19,119,19,4,0,4,0,,,,,0,28,28,14,,,,,,up,0.5170763808705487,2837.697247088833,None,001,40,2019_Oct_18_1105,ACPT_experiment_5_30_19,3.1.0,59.9420786543708,
,,,C,G,g,v,L,U,y,L,u,,,,,5,19,119,19,4,0,4,0,,,,,0,29,29,24,,,,,,down,0.6672015818030559,2839.4987087474624,None,001,40,2019_Oct_18_1105,ACPT_experiment_5_30_19,3.1.0,59.9420786543708,
,,,C,G,g,v,R,G,d,L,i,,,,,5,19,119,19,4,0,4,0,,,,,0,30,30,4,,,,,,up,0.6338333823873654,2841.4502974182496,None,001,40,2019_Oct_18_1105,ACPT_experiment_5_30_19,3.1.0,59.9420786543708,
,,,C,G,g,v,L,U,d,L,u,,,,,5,19,119,19,4,0,4,0,,,,,0,31,31,20,,,,,,up,0.5171038511170991,2843.368512455946,None,001,40,2019_Oct_18_1105,ACPT_experiment_5_30_19,3.1.0,59.9420786543708,
,,,C,G,g,v,L,G,y,R,y,,,,,5,19,119,19,4,0,4,0,,,,,0,32,32,35,,,,,,down,0.6672245239874428,2845.1699563041952,None,001,40,2019_Oct_18_1105,ACPT_experiment_5_30_19,3.1.0,59.9420786543708,
,,,C,G,g,v,L,D,d,L,c ,,,,,5,19,119,19,4,0,4,0,,,,,0,33,33,12,,,,,,up,0.6171486789380651,2847.121576973292,None,001,40,2019_Oct_18_1105,ACPT_experiment_5_30_19,3.1.0,59.9420786543708,
,,,C,G,g,v,R,D,d,R,c ,,,,,5,19,119,19,4,0,4,0,,,,,0,34,34,1,,,,,,up,0.8337476510678243,2849.0233699351734,None,001,40,2019_Oct_18_1105,ACPT_experiment_5_30_19,3.1.0,59.9420786543708,
,,,C,G,g,v,L,U,d,R,u,,,,,5,19,119,19,4,0,4,0,,,,,0,35,35,21,,,,,,up,0.7172484472516771,2851.141491091037,None,001,40,2019_Oct_18_1105,ACPT_experiment_5_30_19,3.1.0,59.9420786543708,
,,,C,G,g,v,L,U,d,R,u,,,,,5,19,119,19,4,0,4,0,,,,,1,0,36,21,,,,,,up,0.6505295569290865,2853.1264376976314,None,001,40,2019_Oct_18_1105,ACPT_experiment_5_30_19,3.1.0,59.9420786543708,
,,,C,G,g,v,R,D,y,L,y,,,,,5,19,119,19,4,0,4,0,,,,,1,1,37,26,,,,,,down,0.7005534801937756,2855.061358871607,None,001,40,2019_Oct_18_1105,ACPT_experiment_5_30_19,3.1.0,59.9420786543708,
,,,C,G,g,v,R,U,d,R,u,,,,,5,19,119,19,4,0,4,0,,,,,1,2,38,9,,,,,,up,0.6505310662832926,2857.0462900827883,None,001,40,2019_Oct_18_1105,ACPT_experiment_5_30_19,3.1.0,59.9420786543708,
,,,C,G,g,v,L,U,g,L,u,,,,,5,19,119,19,4,0,4,0,,,,,1,3,39,22,,,,,,up,0.5671286799943118,2858.981193748255,None,001,40,2019_Oct_18_1105,ACPT_experiment_5_30_19,3.1.0,59.9420786543708,
,,,C,G,g,v,R,D,g,L,i,,,,,5,19,119,19,4,0,4,0,,,,,1,4,40,2,,,,,,up,0.5170911725417682,2860.832692612466,None,001,40,2019_Oct_18_1105,ACPT_experiment_5_30_19,3.1.0,59.9420786543708,
,,,C,G,g,v,R,D,d,L,c,,,,,5,19,119,19,4,0,4,0,,,,,1,5,41,0,,,,,,up,0.4003507739212182,2862.634162421608,None,001,40,2019_Oct_18_1105,ACPT_experiment_5_30_19,3.1.0,59.9420786543708,
,,,C,G,g,v,L,U,y,L,u,,,,,5,19,119,19,4,0,4,0,,,,,1,6,42,24,,,,,,down,0.6171652818338771,2864.3188628525286,None,001,40,2019_Oct_18_1105,ACPT_experiment_5_30_19,3.1.0,59.9420786543708,
,,,C,G,g,v,R,U,d,L,u,,,,,5,19,119,19,4,0,4,0,,,,,1,7,43,8,,,,,,up,0.4837202562885068,2866.2204064690923,None,001,40,2019_Oct_18_1105,ACPT_experiment_5_30_19,3.1.0,59.9420786543708,
,,,C,G,g,v,L,G,y,R,y,,,,,5,19,119,19,4,0,4,0,,,,,1,8,44,35,,,,,,up,0.43320790599727843,2868.005628985639,None,001,40,2019_Oct_18_1105,ACPT_experiment_5_30_19,3.1.0,59.9420786543708,
,,,C,G,g,v,L,D,g,R,i,,,,,5,19,119,19,4,0,4,0,,,,,1,9,45,15,,,,,,up,0.6004875214139247,2869.7232487340293,None,001,40,2019_Oct_18_1105,ACPT_experiment_5_30_19,3.1.0,59.9420786543708,
,,,C,G,g,v,L,D,g,L,i,,,,,5,19,119,19,4,0,4,0,,,,,1,10,46,14,,,,,,up,0.4837268974465587,2871.608113986431,None,001,40,2019_Oct_18_1105,ACPT_experiment_5_30_19,3.1.0,59.9420786543708,
,,,C,G,g,v,R,D,y,R,y,,,,,5,19,119,19,4,0,4,0,,,,,1,11,47,27,,,,,,down,0.7005682718645403,2873.3762192186073,None,001,40,2019_Oct_18_1105,ACPT_experiment_5_30_19,3.1.0,59.9420786543708,
,,,C,G,g,v,R,D,g,R,i,,,,,5,19,119,19,4,0,4,0,,,,,1,12,48,3,,,,,,up,0.43034647226158995,2875.381179560325,None,001,40,2019_Oct_18_1105,ACPT_experiment_5_30_19,3.1.0,59.9420786543708,
,,,C,G,g,v,R,G,g,L,c ,,,,,5,19,119,19,4,0,4,0,,,,,1,13,49,6,,,,,,up,0.43368818251110497,2877.0959043673165,None,001,40,2019_Oct_18_1105,ACPT_experiment_5_30_19,3.1.0,59.9420786543708,
,,,C,G,g,v,L,U,g,R,u,,,,,5,19,119,19,4,0,4,0,,,,,1,14,50,23,,,,,,up,0.5504466933821277,2878.8139678658486,None,001,40,2019_Oct_18_1105,ACPT_experiment_5_30_19,3.1.0,59.9420786543708,
,,,C,G,g,v,R,U,g,R,u,,,,,5,19,119,19,4,0,4,0,,,,,1,15,51,11,,,,,,up,0.46704762767240027,2880.648788365898,None,001,40,2019_Oct_18_1105,ACPT_experiment_5_30_19,3.1.0,59.9420786543708,
,,,C,G,g,v,L,D,y,R,y,,,,,5,19,119,19,4,0,4,0,,,,,1,16,52,33,,,,,,down,0.7001957632428457,2882.417175545443,None,001,40,2019_Oct_18_1105,ACPT_experiment_5_30_19,3.1.0,59.9420786543708,
,,,C,G,g,v,L,D,d,L,c ,,,,,5,19,119,19,4,0,4,0,,,,,1,17,53,12,,,,,,up,0.7005700830900423,2884.401835978477,None,001,40,2019_Oct_18_1105,ACPT_experiment_5_30_19,3.1.0,59.9420786543708,
,,,C,G,g,v,L,D,d,R,c ,,,,,5,19,119,19,4,0,4,0,,,,,1,18,54,13,,,,,,up,0.5838496079450124,2886.3867563223075,None,001,40,2019_Oct_18_1105,ACPT_experiment_5_30_19,3.1.0,59.9420786543708,
,,,C,G,g,v,R,G,g,R,c ,,,,,5,19,119,19,4,0,4,0,,,,,1,19,55,7,,,,,,up,0.45038013086059436,2888.254948342352,None,001,40,2019_Oct_18_1105,ACPT_experiment_5_30_19,3.1.0,59.9420786543708,
,,,C,G,g,v,L,G,d,L,i,,,,,5,19,119,19,4,0,4,0,,,,,1,20,56,16,,,,,,up,0.4837271993178547,2889.989709826651,None,001,40,2019_Oct_18_1105,ACPT_experiment_5_30_19,3.1.0,59.9420786543708,
,,,C,G,g,v,R,G,y,R,y,,,,,5,19,119,19,4,0,4,0,,,,,1,21,57,29,,,,,,down,0.85068049235133,2891.774495234214,None,001,40,2019_Oct_18_1105,ACPT_experiment_5_30_19,3.1.0,59.9420786543708,
,,,C,G,g,v,R,G,d,R,i,,,,,5,19,119,19,4,0,4,0,,,,,1,22,58,5,,,,,,up,0.5004094878004253,2893.926239368486,None,001,40,2019_Oct_18_1105,ACPT_experiment_5_30_19,3.1.0,59.9420786543708,
,,,C,G,g,v,R,D,d,R,c ,,,,,5,19,119,19,4,0,4,0,,,,,1,23,59,1,,,,,,up,0.3832057174340662,2895.728112778948,None,001,40,2019_Oct_18_1105,ACPT_experiment_5_30_19,3.1.0,59.9420786543708,
,,,C,G,g,v,L,G,d,R,i,,,,,5,19,119,19,4,0,4,0,,,,,1,24,60,17,,,,,,up,0.4003097194863585,2897.3790528802256,None,001,40,2019_Oct_18_1105,ACPT_experiment_5_30_19,3.1.0,59.9420786543708,
,,,C,G,g,v,L,U,d,L,u,,,,,5,19,119,19,4,0,4,0,,,,,1,25,61,20,,,,,,up,0.5170842295124203,2899.047067702084,None,001,40,2019_Oct_18_1105,ACPT_experiment_5_30_19,3.1.0,59.9420786543708,
,,,C,G,g,v,R,G,y,L,y,,,,,5,19,119,19,4,0,4,0,,,,,1,26,62,28,,,,,,down,0.7839748843457528,2900.848527851359,None,001,40,2019_Oct_18_1105,ACPT_experiment_5_30_19,3.1.0,59.9420786543708,
,,,C,G,g,v,L,G,y,L,y,,,,,5,19,119,19,4,0,4,0,,,,,1,27,63,34,,,,,,down,0.8170925309605082,2902.9337957994676,None,001,40,2019_Oct_18_1105,ACPT_experiment_5_30_19,3.1.0,59.9420786543708,
,,,C,G,g,v,R,U,y,R,u,,,,,5,19,119,19,4,0,4,0,,,,,1,28,64,31,,,,,,down,0.7672871621875856,2905.03526032587,None,001,40,2019_Oct_18_1105,ACPT_experiment_5_30_19,3.1.0,59.9420786543708,
,,,C,G,g,v,L,G,g,L,c ,,,,,5,19,119,19,4,0,4,0,,,,,1,29,65,18,,,,,,up,0.6338496834127909,2907.0869285396243,None,001,40,2019_Oct_18_1105,ACPT_experiment_5_30_19,3.1.0,59.9420786543708,
,,,C,G,g,v,R,U,g,L,u,,,,,5,19,119,19,4,0,4,0,,,,,1,30,66,10,,,,,,up,1.0008328616604558,2908.988468533738,None,001,40,2019_Oct_18_1105,ACPT_experiment_5_30_19,3.1.0,59.9420786543708,
,,,C,G,g,v,R,U,y,L,u,,,,,5,19,119,19,4,0,4,0,,,,,1,31,67,30,,,,,,down,0.7005903084364036,2911.2569603115307,None,001,40,2019_Oct_18_1105,ACPT_experiment_5_30_19,3.1.0,59.9420786543708,
,,,C,G,g,v,L,D,y,L,y,,,,,5,19,119,19,4,0,4,0,,,,,1,32,68,32,,,,,,down,1.050853766216278,2913.2419238228927,None,001,40,2019_Oct_18_1105,ACPT_experiment_5_30_19,3.1.0,59.9420786543708,
,,,C,G,g,v,L,G,g,R,c ,,,,,5,19,119,19,4,0,4,0,,,,,1,33,69,19,,,,,,up,1.1009190457862132,2915.57715290513,None,001,40,2019_Oct_18_1105,ACPT_experiment_5_30_19,3.1.0,59.9420786543708,
,,,C,G,g,v,R,G,d,L,i,,,,,5,19,119,19,4,0,4,0,,,,,1,34,70,4,,,,,,up,1.017492811700322,2917.962425834107,None,001,40,2019_Oct_18_1105,ACPT_experiment_5_30_19,3.1.0,59.9420786543708,
,,,C,G,g,v,L,U,y,R,u,,,,,5,19,119,19,4,0,4,0,,,,,1,35,71,25,,,,,,down,1.1009190457862132,2920.264291244991,None,001,40,2019_Oct_18_1105,ACPT_experiment_5_30_19,3.1.0,59.9420786543708,
,,,C,G,g,v,,,,,,,,,,5,19,119,19,5,0,5,0,0,0,0,0,,,,,,,,,,,,,,001,40,2019_Oct_18_1105,ACPT_experiment_5_30_19,3.1.0,59.9420786543708,
,,,C,G,g,v,R,U,g,R,u,,,,,5,19,119,19,5,0,5,0,,,,,0,0,0,11,,,,,,up,1.6677503829982925,2945.4016500260364,None,001,40,2019_Oct_18_1105,ACPT_experiment_5_30_19,3.1.0,59.9420786543708,
,,,C,G,g,v,L,G,y,R,y,,,,,5,19,119,19,5,0,5,0,,,,,0,1,1,35,,,,,,down,0.6672121472829531,2948.353770291381,None,001,40,2019_Oct_18_1105,ACPT_experiment_5_30_19,3.1.0,59.9420786543708,
,,,C,G,g,v,L,U,y,L,u,,,,,5,19,119,19,5,0,5,0,,,,,0,2,2,24,,,,,,down,0.650527443833198,2950.305357452814,None,001,40,2019_Oct_18_1105,ACPT_experiment_5_30_19,3.1.0,59.9420786543708,
,,,C,G,g,v,L,D,d,L,c ,,,,,5,19,119,19,5,0,5,0,,,,,0,3,3,12,,,,,,up,0.5004028466423733,2952.240262325764,None,001,40,2019_Oct_18_1105,ACPT_experiment_5_30_19,3.1.0,59.9420786543708,
,,,C,G,g,v,L,U,y,R,u,,,,,5,19,119,19,5,0,5,0,,,,,0,4,4,25,,,,,,down,0.7005679699941538,2954.0250459221024,None,001,40,2019_Oct_18_1105,ACPT_experiment_5_30_19,3.1.0,59.9420786543708,
,,,C,G,g,v,R,G,y,R,y,,,,,5,19,119,19,5,0,5,0,,,,,0,5,5,29,,,,,,down,0.5504777860792274,2956.009962341612,None,001,40,2019_Oct_18_1105,ACPT_experiment_5_30_19,3.1.0,59.9420786543708,
,,,C,G,g,v,R,G,g,R,c ,,,,,5,19,119,19,5,0,5,0,,,,,0,6,6,7,,,,,,up,0.4837320292513141,2957.844816953067,None,001,40,2019_Oct_18_1105,ACPT_experiment_5_30_19,3.1.0,59.9420786543708,
,,,C,G,g,v,L,D,y,L,y,,,,,5,19,119,19,5,0,5,0,,,,,0,7,7,32,,,,,,down,0.5835305304626672,2959.629863478911,None,001,40,2019_Oct_18_1105,ACPT_experiment_5_30_19,3.1.0,59.9420786543708,
,,,C,G,g,v,L,G,g,L,c ,,,,,5,19,119,19,5,0,5,0,,,,,0,8,8,18,,,,,,up,0.6838887002195406,2961.4977826077115,None,001,40,2019_Oct_18_1105,ACPT_experiment_5_30_19,3.1.0,59.9420786543708,
,,,C,G,g,v,R,U,y,L,u,,,,,5,19,119,19,5,0,5,0,,,,,0,9,9,30,,,,,,down,0.7339210758677837,2963.482728610564,None,001,40,2019_Oct_18_1105,ACPT_experiment_5_30_19,3.1.0,59.9420786543708,
,,,C,G,g,v,R,D,d,L,c,,,,,5,19,119,19,5,0,5,0,,,,,0,10,10,0,,,,,,up,0.4503596036433919,2965.517716347061,None,001,40,2019_Oct_18_1105,ACPT_experiment_5_30_19,3.1.0,59.9420786543708,
,,,C,G,g,v,R,D,y,R,y,,,,,5,19,119,19,5,0,5,0,,,,,0,11,11,27,,,,,,down,0.7006120431374256,2967.2524283245416,None,001,40,2019_Oct_18_1105,ACPT_experiment_5_30_19,3.1.0,59.9420786543708,
,,,C,G,g,v,L,G,d,L,i,,,,,5,19,119,19,5,0,5,0,,,,,0,12,12,16,,,,,,up,0.40033054857485695,2969.2373984770616,None,001,40,2019_Oct_18_1105,ACPT_experiment_5_30_19,3.1.0,59.9420786543708,
,,,C,G,g,v,R,U,y,R,u,,,,,5,19,119,19,5,0,5,0,,,,,0,13,13,31,,,,,,down,0.6504072992370311,2970.9221064547537,None,001,40,2019_Oct_18_1105,ACPT_experiment_5_30_19,3.1.0,59.9420786543708,
,,,C,G,g,v,R,U,d,R,u,,,,,5,19,119,19,5,0,5,0,,,,,0,14,14,9,,,,,,up,0.4303651882541999,2972.8770102711555,None,001,40,2019_Oct_18_1105,ACPT_experiment_5_30_19,3.1.0,59.9420786543708,
,,,C,G,g,v,R,D,y,L,y,,,,,5,19,119,19,5,0,5,0,,,,,0,15,15,26,,,,,,down,0.5838076478976291,2974.5917468511097,None,001,40,2019_Oct_18_1105,ACPT_experiment_5_30_19,3.1.0,59.9420786543708,
,,,C,G,g,v,L,D,d,R,c ,,,,,5,19,119,19,5,0,5,0,,,,,0,16,16,13,,,,,,up,0.6004950681854098,2976.4599337393497,None,001,40,2019_Oct_18_1105,ACPT_experiment_5_30_19,3.1.0,59.9420786543708,
,,,C,G,g,v,R,U,g,L,u,,,,,5,19,119,19,5,0,5,0,,,,,0,17,17,10,,,,,,up,0.6838862852528109,2978.3447989917518,None,001,40,2019_Oct_18_1105,ACPT_experiment_5_30_19,3.1.0,59.9420786543708,
,,,C,G,g,v,L,G,g,R,c ,,,,,5,19,119,19,5,0,5,0,,,,,0,18,18,19,,,,,,up,0.800644192382606,2980.3130696491507,None,001,40,2019_Oct_18_1105,ACPT_experiment_5_30_19,3.1.0,59.9420786543708,
,,,C,G,g,v,L,G,y,L,y,,,,,5,19,119,19,5,0,5,0,,,,,0,19,19,34,,,,,,down,0.633853003992499,2982.414757559978,None,001,40,2019_Oct_18_1105,ACPT_experiment_5_30_19,3.1.0,59.9420786543708,
,,,C,G,g,v,L,D,g,L,i,,,,,5,19,119,19,5,0,5,0,,,,,0,20,20,14,,,,,,up,0.567131698702724,2984.3496748096327,None,001,40,2019_Oct_18_1105,ACPT_experiment_5_30_19,3.1.0,59.9420786543708,
,,,C,G,g,v,R,D,g,L,i,,,,,5,19,119,19,5,0,5,0,,,,,0,21,21,2,,,,,,up,0.4970726074848244,2986.2211928426423,None,001,40,2019_Oct_18_1105,ACPT_experiment_5_30_19,3.1.0,59.9420786543708,
,,,C,G,g,v,L,U,d,R,u,,,,,5,19,119,19,5,0,5,0,,,,,0,22,22,21,,,,,,up,0.7005598194814411,2988.0026504260154,None,001,40,2019_Oct_18_1105,ACPT_experiment_5_30_19,3.1.0,59.9420786543708,
,,,C,G,g,v,R,D,d,R,c ,,,,,5,19,119,19,5,0,5,0,,,,,0,23,23,1,,,,,,up,0.6004878232847659,2989.987596730739,None,001,40,2019_Oct_18_1105,ACPT_experiment_5_30_19,3.1.0,59.9420786543708,
,,,C,G,g,v,L,U,g,R,u,,,,,5,19,119,19,5,0,5,0,,,,,0,24,24,23,,,,,,up,0.5671467922447846,2991.8724275698646,None,001,40,2019_Oct_18_1105,ACPT_experiment_5_30_19,3.1.0,59.9420786543708,
,,,C,G,g,v,L,U,g,L,u,,,,,5,19,119,19,5,0,5,0,,,,,0,25,25,22,,,,,,up,0.4837453115687822,2993.707255012943,None,001,40,2019_Oct_18_1105,ACPT_experiment_5_30_19,3.1.0,59.9420786543708,
,,,C,G,g,v,R,U,d,L,u,,,,,5,19,119,19,5,0,5,0,,,,,0,26,26,8,,,,,,up,0.5337613861906902,2995.4753798667243,None,001,40,2019_Oct_18_1105,ACPT_experiment_5_30_19,3.1.0,59.9420786543708,
,,,C,G,g,v,L,D,g,R,i,,,,,5,19,119,19,5,0,5,0,,,,,0,27,27,15,,,,,,up,0.6505232176414211,2997.2935198895157,None,001,40,2019_Oct_18_1105,ACPT_experiment_5_30_19,3.1.0,59.9420786543708,
,,,C,G,g,v,R,G,g,L,c ,,,,,5,19,119,19,5,0,5,0,,,,,0,28,28,6,,,,,,up,0.6168887681405977,2999.245381451546,None,001,40,2019_Oct_18_1105,ACPT_experiment_5_30_19,3.1.0,59.9420786543708,
,,,C,G,g,v,R,G,d,R,i,,,,,5,19,119,19,5,0,5,0,,,,,0,29,29,5,,,,,,up,0.5172620314397136,3001.1466228953946,None,001,40,2019_Oct_18_1105,ACPT_experiment_5_30_19,3.1.0,59.9420786543708,
,,,C,G,g,v,L,D,y,R,y,,,,,5,19,119,19,5,0,5,0,,,,,0,30,30,33,,,,,,down,0.784008090138741,3002.9481144392375,None,001,40,2019_Oct_18_1105,ACPT_experiment_5_30_19,3.1.0,59.9420786543708,
,,,C,G,g,v,R,D,g,R,i,,,,,5,19,119,19,5,0,5,0,,,,,0,31,31,3,,,,,,up,0.6505271419623568,3005.0164595078,None,001,40,2019_Oct_18_1105,ACPT_experiment_5_30_19,3.1.0,59.9420786543708,
,,,C,G,g,v,L,G,d,R,i,,,,,5,19,119,19,5,0,5,0,,,,,0,32,32,17,,,,,,up,0.5002962862336062,3006.951438339107,None,001,40,2019_Oct_18_1105,ACPT_experiment_5_30_19,3.1.0,59.9420786543708,
,,,C,G,g,v,R,G,y,L,y,,,,,5,19,119,19,5,0,5,0,,,,,0,33,33,28,,,,,,down,0.8673667051552911,3008.752826643121,None,001,40,2019_Oct_18_1105,ACPT_experiment_5_30_19,3.1.0,59.9420786543708,
,,,C,G,g,v,R,G,d,L,i,,,,,5,19,119,19,5,0,5,0,,,,,0,34,34,4,,,,,,up,0.5004001298043477,3010.9212518583927,None,001,40,2019_Oct_18_1105,ACPT_experiment_5_30_19,3.1.0,59.9420786543708,
,,,C,G,g,v,L,U,d,L,u,,,,,5,19,119,19,5,0,5,0,,,,,0,35,35,20,,,,,,up,0.46704038277221116,3012.7060381715683,None,001,40,2019_Oct_18_1105,ACPT_experiment_5_30_19,3.1.0,59.9420786543708,
,,,C,G,g,v,L,U,y,R,u,,,,,5,19,119,19,5,0,5,0,,,,,1,0,36,25,,,,,,down,0.5838384387238875,3014.4407573939493,None,001,40,2019_Oct_18_1105,ACPT_experiment_5_30_19,3.1.0,59.9420786543708,
,,,C,G,g,v,R,G,g,L,c ,,,,,5,19,119,19,5,0,5,0,,,,,1,1,37,6,,,,,,up,0.5004046578674206,3016.3089633000523,None,001,40,2019_Oct_18_1105,ACPT_experiment_5_30_19,3.1.0,59.9420786543708,
,,,C,G,g,v,L,D,y,R,y,,,,,5,19,119,19,5,0,5,0,,,,,1,2,38,33,,,,,,down,0.6669377466851074,3018.1106954349584,None,001,40,2019_Oct_18_1105,ACPT_experiment_5_30_19,3.1.0,59.9420786543708,
,,,C,G,g,v,R,G,y,L,y,,,,,5,19,119,19,5,0,5,0,,,,,1,3,39,28,,,,,,down,0.7172587108607331,3020.062002158377,None,001,40,2019_Oct_18_1105,ACPT_experiment_5_30_19,3.1.0,59.9420786543708,
,,,C,G,g,v,R,G,d,R,i,,,,,5,19,119,19,5,0,5,0,,,,,1,4,40,5,,,,,,up,0.6505253307373096,3022.063637090871,None,001,40,2019_Oct_18_1105,ACPT_experiment_5_30_19,3.1.0,59.9420786543708,
,,,C,G,g,v,L,G,g,L,c ,,,,,5,19,119,19,5,0,5,0,,,,,1,5,41,18,,,,,,up,0.6838868889944933,3023.9985410582085,None,001,40,2019_Oct_18_1105,ACPT_experiment_5_30_19,3.1.0,59.9420786543708,
,,,C,G,g,v,L,D,d,R,c ,,,,,5,19,119,19,5,0,5,0,,,,,1,6,42,13,,,,,,up,0.6338376085791424,3025.966814734316,None,001,40,2019_Oct_18_1105,ACPT_experiment_5_30_19,3.1.0,59.9420786543708,
,,,C,G,g,v,L,D,y,L,y,,,,,5,19,119,19,5,0,5,0,,,,,1,7,43,32,,,,,,down,0.8340673322918519,3027.868329371279,None,001,40,2019_Oct_18_1105,ACPT_experiment_5_30_19,3.1.0,59.9420786543708,
,,,C,G,g,v,L,G,d,L,i,,,,,5,19,119,19,5,0,5,0,,,,,1,8,44,16,,,,,,up,0.5838067422855602,3029.9867376063153,None,001,40,2019_Oct_18_1105,ACPT_experiment_5_30_19,3.1.0,59.9420786543708,
,,,C,G,g,v,R,U,d,R,u,,,,,5,19,119,19,5,0,5,0,,,,,1,9,45,9,,,,,,up,0.817331310798636,3031.854919362751,None,001,40,2019_Oct_18_1105,ACPT_experiment_5_30_19,3.1.0,59.9420786543708,
,,,C,G,g,v,R,G,d,L,i,,,,,5,19,119,19,5,0,5,0,,,,,1,10,46,4,,,,,,up,0.5504457877700588,3033.9566262914414,None,001,40,2019_Oct_18_1105,ACPT_experiment_5_30_19,3.1.0,59.9420786543708,
,,,C,G,g,v,L,G,g,R,c ,,,,,5,19,119,19,5,0,5,0,,,,,1,11,47,19,,,,,,up,0.5004131102505198,3035.7914486027157,None,001,40,2019_Oct_18_1105,ACPT_experiment_5_30_19,3.1.0,59.9420786543708,
,,,C,G,g,v,R,U,g,L,u,,,,,5,19,119,19,5,0,5,0,,,,,1,12,48,10,,,,,,up,0.4003217943204618,3037.576231897183,None,001,40,2019_Oct_18_1105,ACPT_experiment_5_30_19,3.1.0,59.9420786543708,
,,,C,G,g,v,R,U,d,L,u,,,,,5,19,119,19,5,0,5,0,,,,,1,13,49,8,,,,,,up,0.5004070728336956,3039.2442527564585,None,001,40,2019_Oct_18_1105,ACPT_experiment_5_30_19,3.1.0,59.9420786543708,
,,,C,G,g,v,L,D,g,L,i,,,,,5,19,119,19,5,0,5,0,,,,,1,14,50,14,,,,,,up,0.5171337363312887,3041.029036956538,None,001,40,2019_Oct_18_1105,ACPT_experiment_5_30_19,3.1.0,59.9420786543708,
,,,C,G,g,v,L,U,d,L,u,,,,,5,19,119,19,5,0,5,0,,,,,1,15,51,20,,,,,,up,0.43345664757316626,3042.8474142498135,None,001,40,2019_Oct_18_1105,ACPT_experiment_5_30_19,3.1.0,59.9420786543708,
,,,C,G,g,v,L,U,d,R,u,,,,,5,19,119,19,5,0,5,0,,,,,1,16,52,21,,,,,,up,0.6673582527714643,3044.5484129895026,None,001,40,2019_Oct_18_1105,ACPT_experiment_5_30_19,3.1.0,59.9420786543708,
,,,C,G,g,v,R,D,y,R,y,,,,,5,19,119,19,5,0,5,0,,,,,1,17,53,27,,,,,,up,0.5337604805781666,3046.5001471620367,None,001,40,2019_Oct_18_1105,ACPT_experiment_5_30_19,3.1.0,59.9420786543708,
,,,C,G,g,v,L,U,g,L,u,,,,,5,19,119,19,5,0,5,0,,,,,1,18,54,22,,,,,,up,0.5004058653503307,3048.3182923166323,None,001,40,2019_Oct_18_1105,ACPT_experiment_5_30_19,3.1.0,59.9420786543708,
,,,C,G,g,v,R,G,g,R,c ,,,,,5,19,119,19,5,0,5,0,,,,,1,19,55,7,,,,,,up,0.5835362660086503,3050.120023244055,None,001,40,2019_Oct_18_1105,ACPT_experiment_5_30_19,3.1.0,59.9420786543708,
,,,C,G,g,v,R,G,y,R,y,,,,,5,19,119,19,5,0,5,0,,,,,1,20,56,29,,,,,,down,0.7672959164419808,3051.9712540469563,None,001,40,2019_Oct_18_1105,ACPT_experiment_5_30_19,3.1.0,59.9420786543708,
,,,C,G,g,v,L,D,g,R,i,,,,,5,19,119,19,5,0,5,0,,,,,1,21,57,15,,,,,,up,0.5504482027367885,3054.022922260711,None,001,40,2019_Oct_18_1105,ACPT_experiment_5_30_19,3.1.0,59.9420786543708,
,,,C,G,g,v,R,D,g,L,i,,,,,5,19,119,19,5,0,5,0,,,,,1,22,58,2,,,,,,up,0.5504548438948405,3055.8577481944353,None,001,40,2019_Oct_18_1105,ACPT_experiment_5_30_19,3.1.0,59.9420786543708,
,,,C,G,g,v,R,U,y,R,u,,,,,5,19,119,19,5,0,5,0,,,,,1,23,59,31,,,,,,down,0.6838554944265525,3057.7092748307637,None,001,40,2019_Oct_18_1105,ACPT_experiment_5_30_19,3.1.0,59.9420786543708,
,,,C,G,g,v,R,D,d,R,c ,,,,,5,19,119,19,5,0,5,0,,,,,1,24,60,1,,,,,,up,0.5170745696455015,3059.6941954764657,None,001,40,2019_Oct_18_1105,ACPT_experiment_5_30_19,3.1.0,59.9420786543708,
,,,C,G,g,v,L,U,g,R,u,,,,,5,19,119,19,5,0,5,0,,,,,1,25,61,23,,,,,,up,0.8840523142175698,3061.4956541163865,None,001,40,2019_Oct_18_1105,ACPT_experiment_5_30_19,3.1.0,59.9420786543708,
,,,C,G,g,v,L,D,d,L,c ,,,,,5,19,119,19,5,0,5,0,,,,,1,26,62,12,,,,,,up,0.5170863426083088,3063.664082048496,None,001,40,2019_Oct_18_1105,ACPT_experiment_5_30_19,3.1.0,59.9420786543708,
,,,C,G,g,v,R,D,d,L,c,,,,,5,19,119,19,5,0,5,0,,,,,1,27,63,0,,,,,,up,0.48372870867206075,3065.4655467258335,None,001,40,2019_Oct_18_1105,ACPT_experiment_5_30_19,3.1.0,59.9420786543708,
,,,C,G,g,v,R,D,g,R,i,,,,,5,19,119,19,5,0,5,0,,,,,1,28,64,3,,,,,,up,0.5504542401536128,3067.233648033689,None,001,40,2019_Oct_18_1105,ACPT_experiment_5_30_19,3.1.0,59.9420786543708,
,,,C,G,g,v,L,G,y,L,y,,,,,5,19,119,19,5,0,5,0,,,,,1,29,65,34,,,,,,down,0.616940689925741,3069.085416770435,None,001,40,2019_Oct_18_1105,ACPT_experiment_5_30_19,3.1.0,59.9420786543708,
,,,C,G,g,v,R,U,y,L,u,,,,,5,19,119,19,5,0,5,0,,,,,1,30,66,30,,,,,,down,0.8840764638848668,3070.98667481718,None,001,40,2019_Oct_18_1105,ACPT_experiment_5_30_19,3.1.0,59.9420786543708,
