facing_vig,person_vig,text_vig,facing_train,person_train,food_train,correct_key_train,facing_exp,person_exp,food_exp,showL_R,consistent,vig_random.thisRepN,vig_random.thisTrialN,vig_random.thisN,vig_random.thisIndex,trainTrials.thisRepN,trainTrials.thisTrialN,trainTrials.thisN,trainTrials.thisIndex,expBlock.thisRepN,expBlock.thisTrialN,expBlock.thisN,expBlock.thisIndex,breakLoop.thisRepN,breakLoop.thisTrialN,breakLoop.thisN,breakLoop.thisIndex,expTrials.thisRepN,expTrials.thisTrialN,expTrials.thisN,expTrials.thisIndex,train_resp.keys,train_resp.corr,train_resp.rt,train_resp.started,train_resp.stopped,exp_resp.keys,exp_resp.rt,exp_resp.started,exp_resp.stopped,session,participant,date,expName,psychopyVersion,frameRate,
C,G,"cannot eat dairy products because she is lactose intolerant. She enjoys eating wheat products. She thinks eating insects, like crickets, is disgusting.",,,,,,,,,,0,0,0,0,,,,,,,,,,,,,,,,,,,,,,,,,,001,41,2019_Oct_18_1208,ACPT_experiment_5_30_19,3.1.0,59.95260148858072,
C,U,"did not report her food preferences, so her food preferences are unknown.",,,,,,,,,,0,1,1,2,,,,,,,,,,,,,,,,,,,,,,,,,,001,41,2019_Oct_18_1208,ACPT_experiment_5_30_19,3.1.0,59.95260148858072,
C,D,"is allergic to gluten, meaning she can’t eat wheat products. She enjoys eating dairy products. She thinks eating insects, like crickets, is disgusting.",,,,,,,,,,0,2,2,1,,,,,,,,,,,,,,,,,,,,,,,,,,001,41,2019_Oct_18_1208,ACPT_experiment_5_30_19,3.1.0,59.95260148858072,
,,,C,U,g,n,,,,,,,,,,0,0,0,7,,,,,,,,,,,,,v,0,1.0341904955967038,1433.3234962681217,None,,,,,001,41,2019_Oct_18_1208,ACPT_experiment_5_30_19,3.1.0,59.95260148858072,
,,,C,U,y,n,,,,,,,,,,0,1,1,17,,,,,,,,,,,,,n,1,1.0675635249463085,1437.6269824235706,None,,,,,001,41,2019_Oct_18_1208,ACPT_experiment_5_30_19,3.1.0,59.95260148858072,
,,,C,U,g,n,,,,,,,,,,0,2,2,16,,,,,,,,,,,,,n,1,0.8974270038561372,1442.0005421600372,None,,,,,001,41,2019_Oct_18_1208,ACPT_experiment_5_30_19,3.1.0,59.95260148858072,
,,,C,G,y,b,,,,,,,,,,0,3,3,14,,,,,,,,,,,,,b,1,1.7013890586913476,1446.1839606964159,None,,,,,001,41,2019_Oct_18_1208,ACPT_experiment_5_30_19,3.1.0,59.95260148858072,
,,,C,U,d,n,,,,,,,,,,0,4,4,6,,,,,,,,,,,,,n,1,0.8340151086358674,1451.1713467213058,None,,,,,001,41,2019_Oct_18_1208,ACPT_experiment_5_30_19,3.1.0,59.95260148858072,
,,,C,G,d,b,,,,,,,,,,0,5,5,12,,,,,,,,,,,,,b,1,2.685528160776812,1455.2913669466516,None,,,,,001,41,2019_Oct_18_1208,ACPT_experiment_5_30_19,3.1.0,59.95260148858072,
,,,C,D,y,b,,,,,,,,,,0,6,6,2,,,,,,,,,,,,,n,0,0.9674876044282428,1461.2628579622206,None,,,,,001,41,2019_Oct_18_1208,ACPT_experiment_5_30_19,3.1.0,59.95260148858072,
,,,C,D,d,v,,,,,,,,,,0,7,7,9,,,,,,,,,,,,,v,1,1.931609952681356,1465.5363336276578,None,,,,,001,41,2019_Oct_18_1208,ACPT_experiment_5_30_19,3.1.0,59.95260148858072,
,,,C,G,g,v,,,,,,,,,,0,8,8,13,,,,,,,,,,,,,v,1,2.335243572037143,1470.7539342072496,None,,,,,001,41,2019_Oct_18_1208,ACPT_experiment_5_30_19,3.1.0,59.95260148858072,
,,,C,U,d,n,,,,,,,,,,0,9,9,15,,,,,,,,,,,,,n,1,1.2176766510447123,1476.3751690099389,None,,,,,001,41,2019_Oct_18_1208,ACPT_experiment_5_30_19,3.1.0,59.95260148858072,
,,,C,G,d,b,,,,,,,,,,0,10,10,3,,,,,,,,,,,,,b,1,2.068115042979116,1480.8957552431193,None,,,,,001,41,2019_Oct_18_1208,ACPT_experiment_5_30_19,3.1.0,59.95260148858072,
,,,C,D,d,v,,,,,,,,,,0,11,11,0,,,,,,,,,,,,,v,1,1.3844750843345537,1486.2498675541674,None,,,,,001,41,2019_Oct_18_1208,ACPT_experiment_5_30_19,3.1.0,59.95260148858072,
,,,C,D,d,v,,,,,,,,,,0,12,12,18,,,,,,,,,,,,,v,1,0.7507144528217395,1490.9203260205122,None,,,,,001,41,2019_Oct_18_1208,ACPT_experiment_5_30_19,3.1.0,59.95260148858072,
,,,C,D,g,b,,,,,,,,,,0,13,13,1,,,,,,,,,,,,,b,1,1.067551751982137,1494.9402609673452,None,,,,,001,41,2019_Oct_18_1208,ACPT_experiment_5_30_19,3.1.0,59.95260148858072,
,,,C,G,y,b,,,,,,,,,,0,14,14,5,,,,,,,,,,,,,b,1,1.5508868210736182,1499.3108548227638,None,,,,,001,41,2019_Oct_18_1208,ACPT_experiment_5_30_19,3.1.0,59.95260148858072,
,,,C,G,g,v,,,,,,,,,,0,15,15,4,,,,,,,,,,,,,v,1,1.5512925354878462,1504.1310505860065,None,,,,,001,41,2019_Oct_18_1208,ACPT_experiment_5_30_19,3.1.0,59.95260148858072,
,,,C,D,g,b,,,,,,,,,,0,16,16,10,,,,,,,,,,,,,b,1,1.7848207264523808,1508.9683141268006,None,,,,,001,41,2019_Oct_18_1208,ACPT_experiment_5_30_19,3.1.0,59.95260148858072,
,,,C,U,y,n,,,,,,,,,,0,17,17,8,,,,,,,,,,,,,n,1,0.9340997834078735,1514.0391288007431,None,,,,,001,41,2019_Oct_18_1208,ACPT_experiment_5_30_19,3.1.0,59.95260148858072,
,,,C,D,y,b,,,,,,,,,,0,18,18,11,,,,,,,,,,,,,b,1,2.018092930939929,1518.2761318269977,None,,,,,001,41,2019_Oct_18_1208,ACPT_experiment_5_30_19,3.1.0,59.95260148858072,
,,,C,G,g,v,,,,,,,,,,0,19,19,19,,,,,,,,,,,,,v,1,1.818031047416298,1523.5802190072982,None,,,,,001,41,2019_Oct_18_1208,ACPT_experiment_5_30_19,3.1.0,59.95260148858072,
,,,C,G,g,v,,,,,,,,,,1,0,20,19,,,,,,,,,,,,,v,1,1.217670915499184,1528.6676878957342,None,,,,,001,41,2019_Oct_18_1208,ACPT_experiment_5_30_19,3.1.0,59.95260148858072,
,,,C,D,y,b,,,,,,,,,,1,1,21,2,,,,,,,,,,,,,b,1,1.7511624291546468,1533.1882970710985,None,,,,,001,41,2019_Oct_18_1208,ACPT_experiment_5_30_19,3.1.0,59.95260148858072,
,,,C,D,g,b,,,,,,,,,,1,2,22,10,,,,,,,,,,,,,b,1,2.2852262899314155,1538.2087569713303,None,,,,,001,41,2019_Oct_18_1208,ACPT_experiment_5_30_19,3.1.0,59.95260148858072,
,,,C,D,y,b,,,,,,,,,,1,3,23,11,,,,,,,,,,,,,b,1,1.2677229127511964,1543.7632955240106,None,,,,,001,41,2019_Oct_18_1208,ACPT_experiment_5_30_19,3.1.0,59.95260148858072,
,,,C,G,g,v,,,,,,,,,,1,4,24,4,,,,,,,,,,,,,v,1,1.5508774630770858,1548.3673022557296,None,,,,,001,41,2019_Oct_18_1208,ACPT_experiment_5_30_19,3.1.0,59.95260148858072,
,,,C,U,d,n,,,,,,,,,,1,5,25,15,,,,,,,,,,,,,n,1,1.2510342849809604,1553.204303168889,None,,,,,001,41,2019_Oct_18_1208,ACPT_experiment_5_30_19,3.1.0,59.95260148858072,
,,,C,U,g,n,,,,,,,,,,1,6,26,16,,,,,,,,,,,,,n,1,0.7639774502476939,1557.7613288354578,None,,,,,001,41,2019_Oct_18_1208,ACPT_experiment_5_30_19,3.1.0,59.95260148858072,
,,,C,G,y,b,,,,,,,,,,1,7,27,14,,,,,,,,,,,,,n,0,0.8673766668935059,1561.8113017425494,None,,,,,001,41,2019_Oct_18_1208,ACPT_experiment_5_30_19,3.1.0,59.95260148858072,
,,,C,G,d,b,,,,,,,,,,1,8,28,3,,,,,,,,,,,,,b,1,2.735601892730301,1565.9479906721908,None,,,,,001,41,2019_Oct_18_1208,ACPT_experiment_5_30_19,3.1.0,59.95260148858072,
,,,C,G,y,b,,,,,,,,,,1,9,29,5,,,,,,,,,,,,,b,1,1.0175091127257474,1571.9528779611646,None,,,,,001,41,2019_Oct_18_1208,ACPT_experiment_5_30_19,3.1.0,59.95260148858072,
,,,C,D,d,v,,,,,,,,,,1,10,30,0,,,,,,,,,,,,,v,1,1.5677351385211296,1576.2733020897012,None,,,,,001,41,2019_Oct_18_1208,ACPT_experiment_5_30_19,3.1.0,59.95260148858072,
,,,C,U,d,n,,,,,,,,,,1,11,31,6,,,,,,,,,,,,,n,1,1.1009030466311742,1581.1436911257515,None,,,,,001,41,2019_Oct_18_1208,ACPT_experiment_5_30_19,3.1.0,59.95260148858072,
,,,C,U,y,n,,,,,,,,,,1,12,32,17,,,,,,,,,,,,,n,1,1.03086780321064,1585.550583440875,None,,,,,001,41,2019_Oct_18_1208,ACPT_experiment_5_30_19,3.1.0,59.95260148858072,
,,,C,D,d,v,,,,,,,,,,1,13,33,18,,,,,,,,,,,,,v,1,1.6179869742727533,1589.867447908412,None,,,,,001,41,2019_Oct_18_1208,ACPT_experiment_5_30_19,3.1.0,59.95260148858072,
,,,C,U,y,n,,,,,,,,,,1,14,34,8,,,,,,,,,,,,,n,1,0.884061068471965,1594.771428830175,None,,,,,001,41,2019_Oct_18_1208,ACPT_experiment_5_30_19,3.1.0,59.95260148858072,
,,,C,D,g,b,,,,,,,,,,1,15,35,1,,,,,,,,,,,,,b,1,1.9512264257737115,1598.9584100462616,None,,,,,001,41,2019_Oct_18_1208,ACPT_experiment_5_30_19,3.1.0,59.95260148858072,
,,,C,D,d,v,,,,,,,,,,1,16,36,9,,,,,,,,,,,,,v,1,1.1843570528353666,1604.1790492577748,None,,,,,001,41,2019_Oct_18_1208,ACPT_experiment_5_30_19,3.1.0,59.95260148858072,
,,,C,G,g,v,,,,,,,,,,1,17,37,13,,,,,,,,,,,,,v,1,2.2518288090441274,1608.6493824477202,None,,,,,001,41,2019_Oct_18_1208,ACPT_experiment_5_30_19,3.1.0,59.95260148858072,
,,,C,U,g,n,,,,,,,,,,1,18,38,7,,,,,,,,,,,,,n,1,1.0675541669497761,1614.1872305614042,None,,,,,001,41,2019_Oct_18_1208,ACPT_experiment_5_30_19,3.1.0,59.95260148858072,
,,,C,G,d,b,,,,,,,,,,1,19,39,12,,,,,,,,,,,,,b,1,2.334963737765065,1618.557718460157,None,,,,,001,41,2019_Oct_18_1208,ACPT_experiment_5_30_19,3.1.0,59.95260148858072,
,,,C,U,d,n,,,,,,,,,,2,0,40,6,,,,,,,,,,,,,n,1,1.6180192744532178,1624.1786381096845,None,,,,,001,41,2019_Oct_18_1208,ACPT_experiment_5_30_19,3.1.0,59.95260148858072,
,,,C,D,g,b,,,,,,,,,,2,1,41,1,,,,,,,,,,,,,b,1,1.6179996528480842,1629.0826492185315,None,,,,,001,41,2019_Oct_18_1208,ACPT_experiment_5_30_19,3.1.0,59.95260148858072,
,,,C,U,y,n,,,,,,,,,,2,2,42,17,,,,,,,,,,,,,n,1,0.7839926947253844,1633.9866434226115,None,,,,,001,41,2019_Oct_18_1208,ACPT_experiment_5_30_19,3.1.0,59.95260148858072,
,,,C,G,g,v,,,,,,,,,,2,3,43,13,,,,,,,,,,,,,v,1,1.5012254446937732,1638.073291826092,None,,,,,001,41,2019_Oct_18_1208,ACPT_experiment_5_30_19,3.1.0,59.95260148858072,
,,,C,G,g,v,,,,,,,,,,2,4,44,4,,,,,,,,,,,,,b,0,1.3344333506911426,1642.8438340615967,None,,,,,001,41,2019_Oct_18_1208,ACPT_experiment_5_30_19,3.1.0,59.95260148858072,
,,,C,D,d,v,,,,,,,,,,2,5,45,9,,,,,,,,,,,,,v,1,1.9847084304983582,1647.4812053702826,None,,,,,001,41,2019_Oct_18_1208,ACPT_experiment_5_30_19,3.1.0,59.95260148858072,
,,,C,U,g,n,,,,,,,,,,2,6,46,7,,,,,,,,,,,,,n,1,0.9841783452948221,1652.7518618639015,None,,,,,001,41,2019_Oct_18_1208,ACPT_experiment_5_30_19,3.1.0,59.95260148858072,
,,,C,U,g,n,,,,,,,,,,2,7,47,16,,,,,,,,,,,,,n,1,0.8838005539337246,1657.022294067483,None,,,,,001,41,2019_Oct_18_1208,ACPT_experiment_5_30_19,3.1.0,59.95260148858072,
,,,C,U,d,n,,,,,,,,,,2,8,48,15,,,,,,,,,,,,,n,1,0.9174446633005573,1661.1753791120473,None,,,,,001,41,2019_Oct_18_1208,ACPT_experiment_5_30_19,3.1.0,59.95260148858072,
,,,C,D,y,b,,,,,,,,,,2,9,49,2,,,,,,,,,,,,,b,1,1.7845475333379,1665.395762940826,None,,,,,001,41,2019_Oct_18_1208,ACPT_experiment_5_30_19,3.1.0,59.95260148858072,
,,,C,D,y,b,,,,,,,,,,2,10,50,11,,,,,,,,,,,,,b,1,1.6179954266563072,1670.4662872150147,None,,,,,001,41,2019_Oct_18_1208,ACPT_experiment_5_30_19,3.1.0,59.95260148858072,
,,,C,D,d,v,,,,,,,,,,2,11,51,18,,,,,,,,,,,,,v,1,1.284423011614308,1675.370271155486,None,,,,,001,41,2019_Oct_18_1208,ACPT_experiment_5_30_19,3.1.0,59.95260148858072,
,,,C,G,y,b,,,,,,,,,,2,12,52,14,,,,,,,,,,,,,b,1,1.2340483144289465,1679.9576333325786,None,,,,,001,41,2019_Oct_18_1208,ACPT_experiment_5_30_19,3.1.0,59.95260148858072,
,,,C,G,g,v,,,,,,,,,,2,13,53,19,,,,,,,,,,,,,v,1,1.834854309583534,1684.4609736844095,None,,,,,001,41,2019_Oct_18_1208,ACPT_experiment_5_30_19,3.1.0,59.95260148858072,
,,,C,D,d,v,,,,,,,,,,2,14,54,0,,,,,,,,,,,,,v,1,1.150964703751015,1689.5818086591653,None,,,,,001,41,2019_Oct_18_1208,ACPT_experiment_5_30_19,3.1.0,59.95260148858072,
,,,C,D,g,b,,,,,,,,,,2,15,55,10,,,,,,,,,,,,,b,1,2.9023731576444334,1694.0187742534354,None,,,,,001,41,2019_Oct_18_1208,ACPT_experiment_5_30_19,3.1.0,59.95260148858072,
,,,C,G,d,b,,,,,,,,,,2,16,56,12,,,,,,,,,,,,,b,1,0.9174256454380156,1700.2071347174115,None,,,,,001,41,2019_Oct_18_1208,ACPT_experiment_5_30_19,3.1.0,59.95260148858072,
,,,C,U,y,n,,,,,,,,,,2,17,57,8,,,,,,,,,,,,,n,1,0.9338344389352642,1704.4274913778145,None,,,,,001,41,2019_Oct_18_1208,ACPT_experiment_5_30_19,3.1.0,59.95260148858072,
,,,C,G,y,b,,,,,,,,,,2,18,58,5,,,,,,,,,,,,,b,1,1.2510517934897507,1708.6472892752836,None,,,,,001,41,2019_Oct_18_1208,ACPT_experiment_5_30_19,3.1.0,59.95260148858072,
,,,C,G,d,b,,,,,,,,,,2,19,59,3,,,,,,,,,,,,,b,1,1.9346721305291794,1713.2012618201306,None,,,,,001,41,2019_Oct_18_1208,ACPT_experiment_5_30_19,3.1.0,59.95260148858072,
,,,C,G,y,b,,,,,,,,,,3,0,60,5,,,,,,,,,,,,,b,1,0.7506432113023038,1718.4219291056324,None,,,,,001,41,2019_Oct_18_1208,ACPT_experiment_5_30_19,3.1.0,59.95260148858072,
,,,C,U,d,n,,,,,,,,,,3,1,61,6,,,,,,,,,,,,,n,1,1.05089029258761,1722.458549359657,None,,,,,001,41,2019_Oct_18_1208,ACPT_experiment_5_30_19,3.1.0,59.95260148858072,
,,,C,D,g,b,,,,,,,,,,3,2,62,1,,,,,,,,,,,,,v,0,1.4678720369493021,1726.7953973752328,None,,,,,001,41,2019_Oct_18_1208,ACPT_experiment_5_30_19,3.1.0,59.95260148858072,
,,,C,U,y,n,,,,,,,,,,3,3,63,17,,,,,,,,,,,,,n,1,0.7671745643629038,1731.549263057801,None,,,,,001,41,2019_Oct_18_1208,ACPT_experiment_5_30_19,3.1.0,59.95260148858072,
,,,C,D,y,b,,,,,,,,,,3,4,64,2,,,,,,,,,,,,,b,1,1.8844767446244077,1735.6196179824465,None,,,,,001,41,2019_Oct_18_1208,ACPT_experiment_5_30_19,3.1.0,59.95260148858072,
,,,C,G,g,v,,,,,,,,,,3,5,65,19,,,,,,,,,,,,,v,1,2.2685231723608013,1740.790108899907,None,,,,,001,41,2019_Oct_18_1208,ACPT_experiment_5_30_19,3.1.0,59.95260148858072,
,,,C,U,y,n,,,,,,,,,,3,6,66,8,,,,,,,,,,,,,n,1,1.3344442180405167,1746.3446187748568,None,,,,,001,41,2019_Oct_18_1208,ACPT_experiment_5_30_19,3.1.0,59.95260148858072,
,,,C,D,d,v,,,,,,,,,,3,7,67,9,,,,,,,,,,,,,v,1,1.1173094251626026,1750.982000950893,None,,,,,001,41,2019_Oct_18_1208,ACPT_experiment_5_30_19,3.1.0,59.95260148858072,
,,,C,G,y,b,,,,,,,,,,3,8,68,14,,,,,,,,,,,,,b,1,0.9007533186922956,1755.3852856075528,None,,,,,001,41,2019_Oct_18_1208,ACPT_experiment_5_30_19,3.1.0,59.95260148858072,
,,,C,G,g,v,,,,,,,,,,3,9,69,13,,,,,,,,,,,,,v,1,2.2652016874581022,1759.5920333265412,None,,,,,001,41,2019_Oct_18_1208,ACPT_experiment_5_30_19,3.1.0,59.95260148858072,
,,,C,D,d,v,,,,,,,,,,3,10,70,18,,,,,,,,,,,,,v,1,1.0675505444996816,1765.1432229240718,None,,,,,001,41,2019_Oct_18_1208,ACPT_experiment_5_30_19,3.1.0,59.95260148858072,
,,,C,D,d,v,,,,,,,,,,3,11,71,0,,,,,,,,,,,,,v,1,2.5518162814041716,1769.4970321567916,None,,,,,001,41,2019_Oct_18_1208,ACPT_experiment_5_30_19,3.1.0,59.95260148858072,
,,,C,U,g,n,,,,,,,,,,3,12,72,7,,,,,,,,,,,,,n,1,1.284394635755234,1775.3348354426562,None,,,,,001,41,2019_Oct_18_1208,ACPT_experiment_5_30_19,3.1.0,59.95260148858072,
,,,C,G,g,v,,,,,,,,,,3,13,73,4,,,,,,,,,,,,,v,1,1.450745998324237,1779.922318368086,None,,,,,001,41,2019_Oct_18_1208,ACPT_experiment_5_30_19,3.1.0,59.95260148858072,
,,,C,G,d,b,,,,,,,,,,3,14,74,12,,,,,,,,,,,,,b,1,1.0175069996303137,1784.6424010806977,None,,,,,001,41,2019_Oct_18_1208,ACPT_experiment_5_30_19,3.1.0,59.95260148858072,
,,,C,D,g,b,,,,,,,,,,3,15,75,10,,,,,,,,,,,,,b,1,1.3174588512301852,1788.962868376765,None,,,,,001,41,2019_Oct_18_1208,ACPT_experiment_5_30_19,3.1.0,59.95260148858072,
,,,C,G,d,b,,,,,,,,,,3,16,76,3,,,,,,,,,,,,,b,1,1.267718686560329,1793.5663112137472,None,,,,,001,41,2019_Oct_18_1208,ACPT_experiment_5_30_19,3.1.0,59.95260148858072,
,,,C,U,g,n,,,,,,,,,,3,17,77,16,,,,,,,,,,,,,n,1,0.900332208864711,1798.1370780411598,None,,,,,001,41,2019_Oct_18_1208,ACPT_experiment_5_30_19,3.1.0,59.95260148858072,
,,,C,U,d,n,,,,,,,,,,3,18,78,15,,,,,,,,,,,,,n,1,1.0008277298557005,1802.3067569260493,None,,,,,001,41,2019_Oct_18_1208,ACPT_experiment_5_30_19,3.1.0,59.95260148858072,
,,,C,D,y,b,,,,,,,,,,3,19,79,11,,,,,,,,,,,,,b,1,0.7503552265161488,1806.6105232176415,None,,,,,001,41,2019_Oct_18_1208,ACPT_experiment_5_30_19,3.1.0,59.95260148858072,
,,,C,U,d,n,,,,,,,,,,4,0,80,6,,,,,,,,,,,,,n,1,0.7672892752834741,1810.6468772215812,None,,,,,001,41,2019_Oct_18_1208,ACPT_experiment_5_30_19,3.1.0,59.95260148858072,
,,,C,U,d,n,,,,,,,,,,4,1,81,15,,,,,,,,,,,,,n,1,0.7506546823942699,1814.700148067649,None,,,,,001,41,2019_Oct_18_1208,ACPT_experiment_5_30_19,3.1.0,59.95260148858072,
,,,C,G,d,b,,,,,,,,,,4,2,82,12,,,,,,,,,,,,,b,1,1.000824107405606,1818.7367728497366,None,,,,,001,41,2019_Oct_18_1208,ACPT_experiment_5_30_19,3.1.0,59.95260148858072,
,,,C,G,d,b,,,,,,,,,,4,3,83,3,,,,,,,,,,,,,b,1,0.5803581697564368,1823.0436994272004,None,,,,,001,41,2019_Oct_18_1208,ACPT_experiment_5_30_19,3.1.0,59.95260148858072,
,,,C,D,d,v,,,,,,,,,,4,4,84,18,,,,,,,,,,,,,v,1,1.0842400778819865,1826.9100784109523,None,,,,,001,41,2019_Oct_18_1208,ACPT_experiment_5_30_19,3.1.0,59.95260148858072,
,,,C,U,g,n,,,,,,,,,,4,5,85,16,,,,,,,,,,,,,n,1,0.75034556664923,1831.2972504094123,None,,,,,001,41,2019_Oct_18_1208,ACPT_experiment_5_30_19,3.1.0,59.95260148858072,
,,,C,U,y,n,,,,,,,,,,4,6,86,8,,,,,,,,,,,,,n,1,1.0342049853961726,1835.3168865041089,None,,,,,001,41,2019_Oct_18_1208,ACPT_experiment_5_30_19,3.1.0,59.95260148858072,
,,,C,D,d,v,,,,,,,,,,4,7,87,0,,,,,,,,,,,,,v,1,0.983931113073595,1839.6539847706163,None,,,,,001,41,2019_Oct_18_1208,ACPT_experiment_5_30_19,3.1.0,59.95260148858072,
,,,C,D,d,v,,,,,,,,,,4,8,88,9,,,,,,,,,,,,,v,1,0.7506226840841919,1843.9072227127626,None,,,,,001,41,2019_Oct_18_1208,ACPT_experiment_5_30_19,3.1.0,59.95260148858072,
,,,C,D,y,b,,,,,,,,,,4,9,89,11,,,,,,,,,,,,,b,1,1.1671923747426263,1847.960920102334,None,,,,,001,41,2019_Oct_18_1208,ACPT_experiment_5_30_19,3.1.0,59.95260148858072,
,,,C,U,g,n,,,,,,,,,,4,10,90,7,,,,,,,,,,,,,n,1,1.000850973910019,1852.4141088395327,None,,,,,001,41,2019_Oct_18_1208,ACPT_experiment_5_30_19,3.1.0,59.95260148858072,
,,,C,G,y,b,,,,,,,,,,4,11,91,5,,,,,,,,,,,,,b,1,0.9505466126320243,1856.7178693955793,None,,,,,001,41,2019_Oct_18_1208,ACPT_experiment_5_30_19,3.1.0,59.95260148858072,
,,,C,U,y,n,,,,,,,,,,4,12,92,17,,,,,,,,,,,,,n,1,1.1176046548480372,1860.9544099557006,None,,,,,001,41,2019_Oct_18_1208,ACPT_experiment_5_30_19,3.1.0,59.95260148858072,
,,,C,G,g,v,,,,,,,,,,4,13,93,19,,,,,,,,,,,,,v,1,2.552087663293605,1865.3746712249167,None,,,,,001,41,2019_Oct_18_1208,ACPT_experiment_5_30_19,3.1.0,59.95260148858072,
,,,C,D,g,b,,,,,,,,,,4,14,94,10,,,,,,,,,,,,,b,1,0.9841698929112681,1871.212742572091,None,,,,,001,41,2019_Oct_18_1208,ACPT_experiment_5_30_19,3.1.0,59.95260148858072,
,,,C,G,g,v,,,,,,,,,,4,15,95,4,,,,,,,,,,,,,v,1,1.9349257020385267,1875.4828765272778,None,,,,,001,41,2019_Oct_18_1208,ACPT_experiment_5_30_19,3.1.0,59.95260148858072,
,,,C,D,g,b,,,,,,,,,,4,16,96,1,,,,,,,,,,,,,b,1,0.9341109526285436,1880.7038064404142,None,,,,,001,41,2019_Oct_18_1208,ACPT_experiment_5_30_19,3.1.0,59.95260148858072,
,,,C,G,y,b,,,,,,,,,,4,17,97,14,,,,,,,,,,,,,b,1,0.8003839797138426,1884.9408299938868,None,,,,,001,41,2019_Oct_18_1208,ACPT_experiment_5_30_19,3.1.0,59.95260148858072,
,,,C,D,y,b,,,,,,,,,,4,18,98,2,,,,,,,,,,,,,b,1,0.7506211747304405,1889.0272079210908,None,,,,,001,41,2019_Oct_18_1208,ACPT_experiment_5_30_19,3.1.0,59.95260148858072,
,,,C,G,g,v,,,,,,,,,,4,19,99,13,,,,,,,,,,,,,v,1,1.3844545571173512,1893.0805189159819,None,,,,,001,41,2019_Oct_18_1208,ACPT_experiment_5_30_19,3.1.0,59.95260148858072,
,,,C,G,g,v,,,,,,,,,,5,0,100,19,,,,,,,,,,,,,v,1,1.0842267955649731,1897.7342878489435,None,,,,,001,41,2019_Oct_18_1208,ACPT_experiment_5_30_19,3.1.0,59.95260148858072,
,,,C,D,g,b,,,,,,,,,,5,1,101,1,,,,,,,,,,,,,b,1,1.2843879945967274,1902.1045064789032,None,,,,,001,41,2019_Oct_18_1208,ACPT_experiment_5_30_19,3.1.0,59.95260148858072,
,,,C,U,g,n,,,,,,,,,,5,2,102,16,,,,,,,,,,,,,n,1,0.9675395262138409,1906.6748826854428,None,,,,,001,41,2019_Oct_18_1208,ACPT_experiment_5_30_19,3.1.0,59.95260148858072,
,,,C,G,y,b,,,,,,,,,,5,3,103,14,,,,,,,,,,,,,b,1,0.8507079625978804,1910.9283364652438,None,,,,,001,41,2019_Oct_18_1208,ACPT_experiment_5_30_19,3.1.0,59.95260148858072,
,,,C,U,d,n,,,,,,,,,,5,4,104,15,,,,,,,,,,,,,n,1,1.1009326299745226,1915.0650329416558,None,,,,,001,41,2019_Oct_18_1208,ACPT_experiment_5_30_19,3.1.0,59.95260148858072,
,,,C,G,d,b,,,,,,,,,,5,5,105,3,,,,,,,,,,,,,b,1,1.3010666606296581,1919.4519350675819,None,,,,,001,41,2019_Oct_18_1208,ACPT_experiment_5_30_19,3.1.0,59.95260148858072,
,,,C,G,g,v,,,,,,,,,,5,6,106,4,,,,,,,,,,,,,v,1,1.0675611099795788,1924.022311877863,None,,,,,001,41,2019_Oct_18_1208,ACPT_experiment_5_30_19,3.1.0,59.95260148858072,
,,,C,U,y,n,,,,,,,,,,5,7,107,17,,,,,,,,,,,,,n,1,1.0675460164366086,1928.392521753568,None,,,,,001,41,2019_Oct_18_1208,ACPT_experiment_5_30_19,3.1.0,59.95260148858072,
,,,C,D,d,v,,,,,,,,,,5,8,108,0,,,,,,,,,,,,,v,1,1.217703819421331,1932.7460605100105,None,,,,,001,41,2019_Oct_18_1208,ACPT_experiment_5_30_19,3.1.0,59.95260148858072,
,,,C,U,y,n,,,,,,,,,,5,9,109,8,,,,,,,,,,,,,n,1,0.8504691827602073,1937.2666385926786,None,,,,,001,41,2019_Oct_18_1208,ACPT_experiment_5_30_19,3.1.0,59.95260148858072,
,,,C,D,y,b,,,,,,,,,,5,10,110,11,,,,,,,,,,,,,b,1,1.7681330042942136,1941.4030974967363,None,,,,,001,41,2019_Oct_18_1208,ACPT_experiment_5_30_19,3.1.0,59.95260148858072,
,,,C,G,y,b,,,,,,,,,,5,11,111,5,,,,,,,,,,,,,b,1,0.8173373482150055,1946.4572009025942,None,,,,,001,41,2019_Oct_18_1208,ACPT_experiment_5_30_19,3.1.0,59.95260148858072,
,,,C,D,y,b,,,,,,,,,,5,12,112,2,,,,,,,,,,,,,b,1,0.7336913521548922,1950.5774852649292,None,,,,,001,41,2019_Oct_18_1208,ACPT_experiment_5_30_19,3.1.0,59.95260148858072,
,,,C,D,d,v,,,,,,,,,,5,13,113,9,,,,,,,,,,,,,v,1,0.8507055476311507,1954.5804620133276,None,,,,,001,41,2019_Oct_18_1208,ACPT_experiment_5_30_19,3.1.0,59.95260148858072,
,,,C,G,g,v,,,,,,,,,,5,14,114,13,,,,,,,,,,,,,v,1,1.0839336789749723,1958.7341408378425,None,,,,,001,41,2019_Oct_18_1208,ACPT_experiment_5_30_19,3.1.0,59.95260148858072,
,,,C,G,d,b,,,,,,,,,,5,15,115,12,,,,,,,,,,,,,b,1,0.8840613703423514,1963.0873807421494,None,,,,,001,41,2019_Oct_18_1208,ACPT_experiment_5_30_19,3.1.0,59.95260148858072,
,,,C,D,g,b,,,,,,,,,,5,16,116,10,,,,,,,,,,,,,b,1,1.2672507867509921,1967.2745397601639,None,,,,,001,41,2019_Oct_18_1208,ACPT_experiment_5_30_19,3.1.0,59.95260148858072,
,,,C,D,d,v,,,,,,,,,,5,17,117,18,,,,,,,,,,,,,v,1,2.468679843328573,1971.8111360154562,None,,,,,001,41,2019_Oct_18_1208,ACPT_experiment_5_30_19,3.1.0,59.95260148858072,
,,,C,U,d,n,,,,,,,,,,5,18,118,6,,,,,,,,,,,,,n,1,1.017508508984065,1977.5658031651155,None,,,,,001,41,2019_Oct_18_1208,ACPT_experiment_5_30_19,3.1.0,59.95260148858072,
,,,C,U,g,n,,,,,,,,,,5,19,119,7,0,0,0,0,0,0,0,0,,,,,n,1,0.7339346600556382,1981.8693122627483,None,,,,,001,41,2019_Oct_18_1208,ACPT_experiment_5_30_19,3.1.0,59.95260148858072,
,,,C,U,g,n,L,U,y,R,u,,,,,5,19,119,7,0,0,0,0,,,,,0,0,0,25,,,,,,down,1.1676427660431727,2029.5080000301868,None,001,41,2019_Oct_18_1208,ACPT_experiment_5_30_19,3.1.0,59.95260148858072,
,,,C,U,g,n,R,D,g,R,i,,,,,5,19,119,7,0,0,0,0,,,,,0,1,1,3,,,,,,up,0.6505265382211292,2031.95999637755,None,001,41,2019_Oct_18_1208,ACPT_experiment_5_30_19,3.1.0,59.95260148858072,
,,,C,U,g,n,L,U,g,R,u,,,,,5,19,119,7,0,0,0,0,,,,,0,2,2,23,,,,,,up,0.7673079912765388,2033.8948816288948,None,001,41,2019_Oct_18_1208,ACPT_experiment_5_30_19,3.1.0,59.95260148858072,
,,,C,U,g,n,R,D,g,L,i,,,,,5,19,119,7,0,0,0,0,,,,,0,3,3,2,,,,,,up,0.663895190443327,2035.9665635777737,None,001,41,2019_Oct_18_1208,ACPT_experiment_5_30_19,3.1.0,59.95260148858072,
,,,C,U,g,n,L,U,g,L,u,,,,,5,19,119,7,0,0,0,0,,,,,0,4,4,22,,,,,,up,0.5671492072115143,2037.9148374048164,None,001,41,2019_Oct_18_1208,ACPT_experiment_5_30_19,3.1.0,59.95260148858072,
,,,C,U,g,n,R,U,y,L,u,,,,,5,19,119,7,0,0,0,0,,,,,0,5,5,30,,,,,,down,0.5337680273496517,2039.7663407970904,None,001,41,2019_Oct_18_1208,ACPT_experiment_5_30_19,3.1.0,59.95260148858072,
,,,C,U,g,n,L,G,y,R,y,,,,,5,19,119,7,0,0,0,0,,,,,0,6,6,35,,,,,,down,0.6838802478359867,2041.5844865554272,None,001,41,2019_Oct_18_1208,ACPT_experiment_5_30_19,3.1.0,59.95260148858072,
,,,C,U,g,n,L,U,d,L,u,,,,,5,19,119,7,0,0,0,0,,,,,0,7,7,20,,,,,,up,0.483726595576627,2043.5527463454764,None,001,41,2019_Oct_18_1208,ACPT_experiment_5_30_19,3.1.0,59.95260148858072,
,,,C,U,g,n,R,U,g,L,u,,,,,5,19,119,7,0,0,0,0,,,,,0,8,8,10,,,,,,up,0.3836274310033332,2045.3208651618406,None,001,41,2019_Oct_18_1208,ACPT_experiment_5_30_19,3.1.0,59.95260148858072,
,,,C,U,g,n,R,D,y,L,y,,,,,5,19,119,7,0,0,0,0,,,,,0,9,9,26,,,,,,down,0.5504433728028744,2046.9888745500239,None,001,41,2019_Oct_18_1208,ACPT_experiment_5_30_19,3.1.0,59.95260148858072,
,,,C,U,g,n,L,D,d,L,c ,,,,,5,19,119,7,0,0,0,0,,,,,0,10,10,12,,,,,,up,0.5137675745436354,2048.8436994272006,None,001,41,2019_Oct_18_1208,ACPT_experiment_5_30_19,3.1.0,59.95260148858072,
,,,C,U,g,n,R,G,y,R,y,,,,,5,19,119,7,0,0,0,0,,,,,0,11,11,29,,,,,,down,0.5671498109531967,2050.6418190737095,None,001,41,2019_Oct_18_1208,ACPT_experiment_5_30_19,3.1.0,59.95260148858072,
,,,C,U,g,n,L,D,g,L,i,,,,,5,19,119,7,0,0,0,0,,,,,0,12,12,14,,,,,,up,0.3669611416762564,2052.4933445025545,None,001,41,2019_Oct_18_1208,ACPT_experiment_5_30_19,3.1.0,59.95260148858072,
,,,C,U,g,n,L,D,d,R,c ,,,,,5,19,119,7,0,0,0,0,,,,,0,13,13,13,,,,,,up,0.5004263925684427,2054.1279823707428,None,001,41,2019_Oct_18_1208,ACPT_experiment_5_30_19,3.1.0,59.95260148858072,
,,,C,U,g,n,R,D,y,R,y,,,,,5,19,119,7,0,0,0,0,,,,,0,14,14,27,,,,,,down,0.5502214977323092,2055.929724165516,None,001,41,2019_Oct_18_1208,ACPT_experiment_5_30_19,3.1.0,59.95260148858072,
,,,C,U,g,n,L,G,d,R,i,,,,,5,19,119,7,0,0,0,0,,,,,0,15,15,17,,,,,,up,0.517084229512875,2057.7642953202476,None,001,41,2019_Oct_18_1208,ACPT_experiment_5_30_19,3.1.0,59.95260148858072,
,,,C,U,g,n,R,U,g,R,u,,,,,5,19,119,7,0,0,0,0,,,,,0,16,16,11,,,,,,up,0.5004031485132145,2059.565759997585,None,001,41,2019_Oct_18_1208,ACPT_experiment_5_30_19,3.1.0,59.95260148858072,
,,,C,U,g,n,R,U,d,L,u,,,,,5,19,119,7,0,0,0,0,,,,,0,17,17,8,,,,,,up,0.8506838129305834,2061.350544499536,None,001,41,2019_Oct_18_1208,ACPT_experiment_5_30_19,3.1.0,59.95260148858072,
,,,C,U,g,n,R,U,d,R,u,,,,,5,19,119,7,0,0,0,0,,,,,0,18,18,9,,,,,,up,0.4835986023372243,2063.485613892097,None,001,41,2019_Oct_18_1208,ACPT_experiment_5_30_19,3.1.0,59.95260148858072,
,,,C,U,g,n,L,G,y,L,y,,,,,5,19,119,7,0,0,0,0,,,,,0,19,19,34,,,,,,down,0.5838179115071398,2065.270375149992,None,001,41,2019_Oct_18_1208,ACPT_experiment_5_30_19,3.1.0,59.95260148858072,
,,,C,U,g,n,L,D,g,R,i,,,,,5,19,119,7,0,0,0,0,,,,,0,20,20,15,,,,,,up,0.45035145313067915,2067.155259722128,None,001,41,2019_Oct_18_1208,ACPT_experiment_5_30_19,3.1.0,59.95260148858072,
,,,C,U,g,n,R,G,y,L,y,,,,,5,19,119,7,0,0,0,0,,,,,0,21,21,28,,,,,,down,0.41675926554762555,2068.906919332564,None,001,41,2019_Oct_18_1208,ACPT_experiment_5_30_19,3.1.0,59.95260148858072,
,,,C,U,g,n,R,G,g,R,c ,,,,,5,19,119,7,0,0,0,0,,,,,0,22,22,7,,,,,,up,0.5170540424278443,2070.608088327409,None,001,41,2019_Oct_18_1208,ACPT_experiment_5_30_19,3.1.0,59.95260148858072,
,,,C,U,g,n,L,U,y,L,u,,,,,5,19,119,7,0,0,0,0,,,,,0,23,23,24,,,,,,down,0.45032790720506455,2072.4095575328092,None,001,41,2019_Oct_18_1208,ACPT_experiment_5_30_19,3.1.0,59.95260148858072,
,,,C,U,g,n,L,G,d,L,i,,,,,5,19,119,7,0,0,0,0,,,,,0,24,24,16,,,,,,up,0.8006384568361682,2074.1442846038326,None,001,41,2019_Oct_18_1208,ACPT_experiment_5_30_19,3.1.0,59.95260148858072,
,,,C,U,g,n,R,G,d,L,i,,,,,5,19,119,7,0,0,0,0,,,,,0,25,25,4,,,,,,up,0.4804081293814306,2076.2492894714997,None,001,41,2019_Oct_18_1208,ACPT_experiment_5_30_19,3.1.0,59.95260148858072,
,,,C,U,g,n,L,G,g,R,c ,,,,,5,19,119,7,0,0,0,0,,,,,0,26,26,19,,,,,,up,0.5838278732444451,2078.0140774449656,None,001,41,2019_Oct_18_1208,ACPT_experiment_5_30_19,3.1.0,59.95260148858072,
,,,C,U,g,n,L,G,g,L,c ,,,,,5,19,119,7,0,0,0,0,,,,,0,27,27,18,,,,,,up,0.4338312692916588,2079.865428694333,None,001,41,2019_Oct_18_1208,ACPT_experiment_5_30_19,3.1.0,59.95260148858072,
,,,C,U,g,n,L,U,d,R,u,,,,,5,19,119,7,0,0,0,0,,,,,0,28,28,21,,,,,,up,0.5504569569902742,2081.5836440339,None,001,41,2019_Oct_18_1208,ACPT_experiment_5_30_19,3.1.0,59.95260148858072,
,,,C,U,g,n,R,D,d,R,c ,,,,,5,19,119,7,0,0,0,0,,,,,0,29,29,1,,,,,,up,0.41673964394340146,2083.4354136762586,None,001,41,2019_Oct_18_1208,ACPT_experiment_5_30_19,3.1.0,59.95260148858072,
,,,C,U,g,n,R,G,g,L,c ,,,,,5,19,119,7,0,0,0,0,,,,,0,30,30,6,,,,,,up,0.43370870972830744,2085.1365289380938,None,001,41,2019_Oct_18_1208,ACPT_experiment_5_30_19,3.1.0,59.95260148858072,
,,,C,U,g,n,R,D,d,L,c,,,,,5,19,119,7,0,0,0,0,,,,,0,31,31,0,,,,,,down,0.5170824182878277,2086.85459394598,None,001,41,2019_Oct_18_1208,ACPT_experiment_5_30_19,3.1.0,59.95260148858072,
,,,C,U,g,n,L,D,y,R,y,,,,,5,19,119,7,0,0,0,0,,,,,0,32,32,33,,,,,,down,0.767285954703766,2088.6727369874798,None,001,41,2019_Oct_18_1208,ACPT_experiment_5_30_19,3.1.0,59.95260148858072,
,,,C,U,g,n,R,G,d,R,i,,,,,5,19,119,7,0,0,0,0,,,,,0,33,33,5,,,,,,up,0.8173391594409622,2090.757773400651,None,001,41,2019_Oct_18_1208,ACPT_experiment_5_30_19,3.1.0,59.95260148858072,
,,,C,U,g,n,R,U,y,R,u,,,,,5,19,119,7,0,0,0,0,,,,,0,34,34,31,,,,,,down,0.6505343868620912,2092.859467047024,None,001,41,2019_Oct_18_1208,ACPT_experiment_5_30_19,3.1.0,59.95260148858072,
,,,C,U,g,n,L,D,y,L,y,,,,,5,19,119,7,0,0,0,0,,,,,0,35,35,32,,,,,,down,0.733932245089818,2094.794375542424,None,001,41,2019_Oct_18_1208,ACPT_experiment_5_30_19,3.1.0,59.95260148858072,
,,,C,U,g,n,L,G,y,R,y,,,,,5,19,119,7,0,0,0,0,,,,,1,0,36,35,,,,,,down,0.583788026293405,2096.8127003101727,None,001,41,2019_Oct_18_1208,ACPT_experiment_5_30_19,3.1.0,59.95260148858072,
,,,C,U,g,n,R,G,d,R,i,,,,,5,19,119,7,0,0,0,0,,,,,1,1,37,5,,,,,,up,0.5838028179641697,2098.6808660674533,None,001,41,2019_Oct_18_1208,ACPT_experiment_5_30_19,3.1.0,59.95260148858072,
,,,C,U,g,n,L,G,d,L,i,,,,,5,19,119,7,0,0,0,0,,,,,1,2,38,16,,,,,,up,0.5004070728336956,2100.549047823889,None,001,41,2019_Oct_18_1208,ACPT_experiment_5_30_19,3.1.0,59.95260148858072,
,,,C,U,g,n,R,G,y,R,y,,,,,5,19,119,7,0,0,0,0,,,,,1,3,39,29,,,,,,down,0.6838847758990596,2102.333834740806,None,001,41,2019_Oct_18_1208,ACPT_experiment_5_30_19,3.1.0,59.95260148858072,
,,,C,U,g,n,L,D,g,L,i,,,,,5,19,119,7,0,0,0,0,,,,,1,4,40,14,,,,,,up,1.00082380553431,2104.3020830597634,None,001,41,2019_Oct_18_1208,ACPT_experiment_5_30_19,3.1.0,59.95260148858072,
,,,C,U,g,n,L,U,y,R,u,,,,,5,19,119,7,0,0,0,0,,,,,1,5,41,25,,,,,,down,0.5504433728028744,2106.5872885206063,None,001,41,2019_Oct_18_1208,ACPT_experiment_5_30_19,3.1.0,59.95260148858072,
,,,C,U,g,n,R,D,d,R,c ,,,,,5,19,119,7,0,0,0,0,,,,,1,6,42,1,,,,,,up,0.5337707441876773,2108.4221114356224,None,001,41,2019_Oct_18_1208,ACPT_experiment_5_30_19,3.1.0,59.95260148858072,
,,,C,U,g,n,L,D,d,L,c ,,,,,5,19,119,7,0,0,0,0,,,,,1,7,43,12,,,,,,up,0.650540122408529,2110.2402360630003,None,001,41,2019_Oct_18_1208,ACPT_experiment_5_30_19,3.1.0,59.95260148858072,
,,,C,U,g,n,L,D,d,R,c ,,,,,5,19,119,7,0,0,0,0,,,,,1,8,44,13,,,,,,up,0.5004122046375414,2112.158463779272,None,001,41,2019_Oct_18_1208,ACPT_experiment_5_30_19,3.1.0,59.95260148858072,
,,,C,U,g,n,L,U,y,L,u,,,,,5,19,119,7,0,0,0,0,,,,,1,9,45,24,,,,,,down,0.4670497407687435,2113.943260356057,None,001,41,2019_Oct_18_1208,ACPT_experiment_5_30_19,3.1.0,59.95260148858072,
,,,C,U,g,n,R,D,g,R,i,,,,,5,19,119,7,0,0,0,0,,,,,1,10,46,3,,,,,,up,0.5833488042144381,2115.71179696167,None,001,41,2019_Oct_18_1208,ACPT_experiment_5_30_19,3.1.0,59.95260148858072,
,,,C,U,g,n,R,D,g,L,i,,,,,5,19,119,7,0,0,0,0,,,,,1,11,47,2,,,,,,up,0.50041944953864,2117.562850264514,None,001,41,2019_Oct_18_1208,ACPT_experiment_5_30_19,3.1.0,59.95260148858072,
,,,C,U,g,n,L,D,y,R,y,,,,,5,19,119,7,0,0,0,0,,,,,1,12,48,33,,,,,,down,0.46706543805248657,2119.3476287290487,None,001,41,2019_Oct_18_1208,ACPT_experiment_5_30_19,3.1.0,59.95260148858072,
,,,C,U,g,n,R,U,g,R,u,,,,,5,19,119,7,0,0,0,0,,,,,1,13,49,11,,,,,,up,0.5838112703477236,2121.0990800486015,None,001,41,2019_Oct_18_1208,ACPT_experiment_5_30_19,3.1.0,59.95260148858072,
,,,C,U,g,n,L,D,y,L,y,,,,,5,19,119,7,0,0,0,0,,,,,1,14,50,32,,,,,,down,0.5669080124071115,2123.0007966371586,None,001,41,2019_Oct_18_1208,ACPT_experiment_5_30_19,3.1.0,59.95260148858072,
,,,C,U,g,n,R,U,g,L,u,,,,,5,19,119,7,0,0,0,0,,,,,1,15,51,10,,,,,,down,0.41700015848164185,2124.868803610376,None,001,41,2019_Oct_18_1208,ACPT_experiment_5_30_19,3.1.0,59.95260148858072,
,,,C,U,g,n,R,U,y,R,u,,,,,5,19,119,7,0,0,0,0,,,,,1,16,52,31,,,,,,down,0.6838802478359867,2126.570184518554,None,001,41,2019_Oct_18_1208,ACPT_experiment_5_30_19,3.1.0,59.95260148858072,
,,,C,U,g,n,R,G,y,L,y,,,,,5,19,119,7,0,0,0,0,,,,,1,17,53,28,,,,,,down,0.7172728987907249,2128.555109692318,None,001,41,2019_Oct_18_1208,ACPT_experiment_5_30_19,3.1.0,59.95260148858072,
,,,C,U,g,n,L,D,g,R,i,,,,,5,19,119,7,0,0,0,0,,,,,1,18,54,15,,,,,,up,0.4834841932879499,2130.5736774660963,None,001,41,2019_Oct_18_1208,ACPT_experiment_5_30_19,3.1.0,59.95260148858072,
,,,C,U,g,n,L,G,g,R,c ,,,,,5,19,119,7,0,0,0,0,,,,,1,19,55,19,,,,,,up,0.600480880255418,2132.3415421072095,None,001,41,2019_Oct_18_1208,ACPT_experiment_5_30_19,3.1.0,59.95260148858072,
,,,C,U,g,n,L,G,d,R,i,,,,,5,19,119,7,0,0,0,0,,,,,1,20,56,17,,,,,,up,0.46703494909706933,2134.226409472707,None,001,41,2019_Oct_18_1208,ACPT_experiment_5_30_19,3.1.0,59.95260148858072,
,,,C,U,g,n,L,G,g,L,c ,,,,,5,19,119,7,0,0,0,0,,,,,1,21,57,18,,,,,,up,0.5671715456546735,2135.961124770767,None,001,41,2019_Oct_18_1208,ACPT_experiment_5_30_19,3.1.0,59.95260148858072,
,,,C,U,g,n,R,G,d,L,i,,,,,5,19,119,7,0,0,0,0,,,,,1,22,58,4,,,,,,up,0.9841110280967769,2137.829348185379,None,001,41,2019_Oct_18_1208,ACPT_experiment_5_30_19,3.1.0,59.95260148858072,
,,,C,U,g,n,R,D,d,L,c,,,,,5,19,119,7,0,0,0,0,,,,,1,23,59,0,,,,,,up,0.6004802765137356,2140.0978444912344,None,001,41,2019_Oct_18_1208,ACPT_experiment_5_30_19,3.1.0,59.95260148858072,
,,,C,U,g,n,L,U,d,R,u,,,,,5,19,119,7,0,0,0,0,,,,,1,24,60,21,,,,,,up,0.5337791965703218,2141.9827034043483,None,001,41,2019_Oct_18_1208,ACPT_experiment_5_30_19,3.1.0,59.95260148858072,
,,,C,U,g,n,L,U,g,R,u,,,,,5,19,119,7,0,0,0,0,,,,,1,25,61,23,,,,,,up,0.4337132377913804,2143.8008222961807,None,001,41,2019_Oct_18_1208,ACPT_experiment_5_30_19,3.1.0,59.95260148858072,
,,,C,U,g,n,L,G,y,L,y,,,,,5,19,119,7,0,0,0,0,,,,,1,26,62,34,,,,,,down,0.8173276883489962,2145.518909340639,None,001,41,2019_Oct_18_1208,ACPT_experiment_5_30_19,3.1.0,59.95260148858072,
,,,C,U,g,n,R,U,d,R,u,,,,,5,19,119,7,0,0,0,0,,,,,1,27,63,9,,,,,,up,0.6505247269960819,2147.62061989178,None,001,41,2019_Oct_18_1208,ACPT_experiment_5_30_19,3.1.0,59.95260148858072,
,,,C,U,g,n,R,D,y,L,y,,,,,5,19,119,7,0,0,0,0,,,,,1,28,64,26,,,,,,down,0.5504403540944622,2149.555523859117,None,001,41,2019_Oct_18_1208,ACPT_experiment_5_30_19,3.1.0,59.95260148858072,
,,,C,U,g,n,R,U,d,L,u,,,,,5,19,119,7,0,0,0,0,,,,,1,29,65,8,,,,,,down,0.4003205868366422,2151.3903500947117,None,001,41,2019_Oct_18_1208,ACPT_experiment_5_30_19,3.1.0,59.95260148858072,
,,,C,U,g,n,R,G,g,R,c ,,,,,5,19,119,7,0,0,0,0,,,,,1,30,66,7,,,,,,up,0.6004860120592639,2153.075049921891,None,001,41,2019_Oct_18_1208,ACPT_experiment_5_30_19,3.1.0,59.95260148858072,
,,,C,U,g,n,R,D,y,R,y,,,,,5,19,119,7,0,0,0,0,,,,,1,31,67,27,,,,,,down,0.7005697812182916,2154.9599127593265,None,001,41,2019_Oct_18_1208,ACPT_experiment_5_30_19,3.1.0,59.95260148858072,
,,,C,U,g,n,L,U,g,L,u,,,,,5,19,119,7,0,0,0,0,,,,,1,32,68,22,,,,,,up,0.5972040722372185,2156.964860120597,None,001,41,2019_Oct_18_1208,ACPT_experiment_5_30_19,3.1.0,59.95260148858072,
,,,C,U,g,n,R,G,g,L,c ,,,,,5,19,119,7,0,0,0,0,,,,,1,33,69,6,,,,,,up,0.7005667625098795,2158.846404189968,None,001,41,2019_Oct_18_1208,ACPT_experiment_5_30_19,3.1.0,59.95260148858072,
,,,C,U,g,n,R,U,y,L,u,,,,,5,19,119,7,0,0,0,0,,,,,1,34,70,30,,,,,,down,0.7839528477743443,2160.8313640788792,None,001,41,2019_Oct_18_1208,ACPT_experiment_5_30_19,3.1.0,59.95260148858072,
,,,C,U,g,n,L,U,d,L,u,,,,,5,19,119,7,0,0,0,0,,,,,1,35,71,20,,,,,,up,0.6338379104499836,2162.899700091316,None,001,41,2019_Oct_18_1208,ACPT_experiment_5_30_19,3.1.0,59.95260148858072,
,,,C,U,g,n,,,,,,,,,,5,19,119,7,1,0,1,0,0,0,0,0,,,,,,,,,,,,,,001,41,2019_Oct_18_1208,ACPT_experiment_5_30_19,3.1.0,59.95260148858072,
,,,C,U,g,n,L,G,y,R,y,,,,,5,19,119,7,1,0,1,0,,,,,0,0,0,35,,,,,,down,0.7003364350557604,2170.923069120877,None,001,41,2019_Oct_18_1208,ACPT_experiment_5_30_19,3.1.0,59.95260148858072,
,,,C,U,g,n,R,D,g,R,i,,,,,5,19,119,7,1,0,1,0,,,,,0,1,1,3,,,,,,up,0.51707668274139,2172.9245081391928,None,001,41,2019_Oct_18_1208,ACPT_experiment_5_30_19,3.1.0,59.95260148858072,
,,,C,U,g,n,R,G,y,L,y,,,,,5,19,119,7,1,0,1,0,,,,,0,2,2,28,,,,,,down,0.5004131102505198,2174.725982778268,None,001,41,2019_Oct_18_1208,ACPT_experiment_5_30_19,3.1.0,59.95260148858072,
,,,C,U,g,n,L,G,d,R,i,,,,,5,19,119,7,1,0,1,0,,,,,0,3,3,17,,,,,,up,0.5504590700866174,2176.510750677323,None,001,41,2019_Oct_18_1208,ACPT_experiment_5_30_19,3.1.0,59.95260148858072,
,,,C,U,g,n,L,D,y,L,y,,,,,5,19,119,7,1,0,1,0,,,,,0,4,4,32,,,,,,down,0.51684484593261,2178.3624970756264,None,001,41,2019_Oct_18_1208,ACPT_experiment_5_30_19,3.1.0,59.95260148858072,
,,,C,U,g,n,L,D,d,L,c ,,,,,5,19,119,7,1,0,1,0,,,,,0,5,5,12,,,,,,up,0.834025975986151,2180.1637172375804,None,001,41,2019_Oct_18_1208,ACPT_experiment_5_30_19,3.1.0,59.95260148858072,
,,,C,U,g,n,L,G,d,L,i,,,,,5,19,119,7,1,0,1,0,,,,,0,6,6,16,,,,,,up,0.5838091572513804,2182.282107058495,None,001,41,2019_Oct_18_1208,ACPT_experiment_5_30_19,3.1.0,59.95260148858072,
,,,C,U,g,n,R,D,d,R,c ,,,,,5,19,119,7,1,0,1,0,,,,,0,7,7,1,,,,,,up,0.5004019410298497,2184.150290022414,None,001,41,2019_Oct_18_1208,ACPT_experiment_5_30_19,3.1.0,59.95260148858072,
,,,C,U,g,n,L,G,g,R,c ,,,,,5,19,119,7,1,0,1,0,,,,,0,8,8,19,,,,,,up,0.43368757876942254,2185.9350693925608,None,001,41,2019_Oct_18_1208,ACPT_experiment_5_30_19,3.1.0,59.95260148858072,
,,,C,U,g,n,L,U,y,R,u,,,,,5,19,119,7,1,0,1,0,,,,,0,9,9,25,,,,,,down,0.5838167040228655,2187.6531340985757,None,001,41,2019_Oct_18_1208,ACPT_experiment_5_30_19,3.1.0,59.95260148858072,
,,,C,U,g,n,L,U,d,R,u,,,,,5,19,119,7,1,0,1,0,,,,,0,10,10,21,,,,,,up,0.517124982075984,2189.5046184729863,None,001,41,2019_Oct_18_1208,ACPT_experiment_5_30_19,3.1.0,59.95260148858072,
,,,C,U,g,n,R,G,g,L,c ,,,,,5,19,119,7,1,0,1,0,,,,,0,11,11,6,,,,,,up,0.6836281856803907,2191.323039537534,None,001,41,2019_Oct_18_1208,ACPT_experiment_5_30_19,3.1.0,59.95260148858072,
,,,C,U,g,n,L,U,y,L,u,,,,,5,19,119,7,1,0,1,0,,,,,0,12,12,24,,,,,,down,0.5671283781239254,2193.2910490766526,None,001,41,2019_Oct_18_1208,ACPT_experiment_5_30_19,3.1.0,59.95260148858072,
,,,C,U,g,n,L,D,d,R,c ,,,,,5,19,119,7,1,0,1,0,,,,,0,13,13,13,,,,,,up,0.6171966764022727,2195.1425515633136,None,001,41,2019_Oct_18_1208,ACPT_experiment_5_30_19,3.1.0,59.95260148858072,
,,,C,U,g,n,R,D,y,L,y,,,,,5,19,119,7,1,0,1,0,,,,,0,14,14,26,,,,,,down,0.7505921951296841,2197.0441120846444,None,001,41,2019_Oct_18_1208,ACPT_experiment_5_30_19,3.1.0,59.95260148858072,
,,,C,U,g,n,R,U,y,R,u,,,,,5,19,119,7,1,0,1,0,,,,,0,15,15,31,,,,,,down,0.6505253307368548,2199.0790856332123,None,001,41,2019_Oct_18_1208,ACPT_experiment_5_30_19,3.1.0,59.95260148858072,
,,,C,U,g,n,R,U,g,R,u,,,,,5,19,119,7,1,0,1,0,,,,,0,16,16,11,,,,,,up,0.6171625649967609,2201.013992015516,None,001,41,2019_Oct_18_1208,ACPT_experiment_5_30_19,3.1.0,59.95260148858072,
,,,C,U,g,n,L,U,d,L,u,,,,,5,19,119,7,1,0,1,0,,,,,0,17,17,20,,,,,,up,0.550450315832677,2202.9155265759546,None,001,41,2019_Oct_18_1208,ACPT_experiment_5_30_19,3.1.0,59.95260148858072,
,,,C,U,g,n,L,U,g,R,u,,,,,5,19,119,7,1,0,1,0,,,,,0,18,18,23,,,,,,up,0.6672097323153139,2204.7336723342914,None,001,41,2019_Oct_18_1208,ACPT_experiment_5_30_19,3.1.0,59.95260148858072,
,,,C,U,g,n,L,D,g,R,i,,,,,5,19,119,7,1,0,1,0,,,,,0,19,19,15,,,,,,up,0.5672092795102799,2206.6852594957245,None,001,41,2019_Oct_18_1208,ACPT_experiment_5_30_19,3.1.0,59.95260148858072,
,,,C,U,g,n,R,D,d,L,c,,,,,5,19,119,7,1,0,1,0,,,,,0,20,20,0,,,,,,up,0.7672919921205903,2208.5367656048356,None,001,41,2019_Oct_18_1208,ACPT_experiment_5_30_19,3.1.0,59.95260148858072,
,,,C,U,g,n,R,U,g,L,u,,,,,5,19,119,7,1,0,1,0,,,,,0,21,21,10,,,,,,up,0.5001257292069567,2210.6053850739963,None,001,41,2019_Oct_18_1208,ACPT_experiment_5_30_19,3.1.0,59.95260148858072,
,,,C,U,g,n,R,U,y,L,u,,,,,5,19,119,7,1,0,1,0,,,,,0,22,22,30,,,,,,down,0.4335761884276508,2212.40666228954,None,001,41,2019_Oct_18_1208,ACPT_experiment_5_30_19,3.1.0,59.95260148858072,
,,,C,U,g,n,R,G,d,L,i,,,,,5,19,119,7,1,0,1,0,,,,,0,23,23,4,,,,,,up,0.5004001298048024,2214.141319930268,None,001,41,2019_Oct_18_1208,ACPT_experiment_5_30_19,3.1.0,59.95260148858072,
,,,C,U,g,n,L,G,y,L,y,,,,,5,19,119,7,1,0,1,0,,,,,0,24,24,34,,,,,,down,0.45035960364384664,2215.9261029228646,None,001,41,2019_Oct_18_1208,ACPT_experiment_5_30_19,3.1.0,59.95260148858072,
,,,C,U,g,n,L,D,g,L,i,,,,,5,19,119,7,1,0,1,0,,,,,0,25,25,14,,,,,,up,0.7503377180073585,2217.6777887960634,None,001,41,2019_Oct_18_1208,ACPT_experiment_5_30_19,3.1.0,59.95260148858072,
,,,C,U,g,n,R,G,d,R,i,,,,,5,19,119,7,1,0,1,0,,,,,0,26,26,5,,,,,,up,0.5504572588615702,2219.7124915664835,None,001,41,2019_Oct_18_1208,ACPT_experiment_5_30_19,3.1.0,59.95260148858072,
,,,C,U,g,n,L,D,y,R,y,,,,,5,19,119,7,1,0,1,0,,,,,0,27,27,33,,,,,,down,0.7839848460835128,2221.5473135758866,None,001,41,2019_Oct_18_1208,ACPT_experiment_5_30_19,3.1.0,59.95260148858072,
,,,C,U,g,n,R,U,d,R,u,,,,,5,19,119,7,1,0,1,0,,,,,0,28,28,9,,,,,,up,0.6505226138997386,2223.615683699729,None,001,41,2019_Oct_18_1208,ACPT_experiment_5_30_19,3.1.0,59.95260148858072,
,,,C,U,g,n,R,D,g,L,i,,,,,5,19,119,7,1,0,1,0,,,,,0,29,29,2,,,,,,up,0.6338569283134348,2225.550594006355,None,001,41,2019_Oct_18_1208,ACPT_experiment_5_30_19,3.1.0,59.95260148858072,
,,,C,U,g,n,R,G,g,R,c ,,,,,5,19,119,7,1,0,1,0,,,,,0,30,30,7,,,,,,up,0.5170869463499912,2227.452128264922,None,001,41,2019_Oct_18_1208,ACPT_experiment_5_30_19,3.1.0,59.95260148858072,
,,,C,U,g,n,L,G,g,L,c ,,,,,5,19,119,7,1,0,1,0,,,,,0,31,31,18,,,,,,up,0.41699683790284325,2229.253639732241,None,001,41,2019_Oct_18_1208,ACPT_experiment_5_30_19,3.1.0,59.95260148858072,
,,,C,U,g,n,L,U,g,L,u,,,,,5,19,119,7,1,0,1,0,,,,,0,32,32,22,,,,,,up,0.4833033726517897,2230.9720678907534,None,001,41,2019_Oct_18_1208,ACPT_experiment_5_30_19,3.1.0,59.95260148858072,
,,,C,U,g,n,R,U,d,L,u,,,,,5,19,119,7,1,0,1,0,,,,,0,33,33,8,,,,,,up,0.36694423690823896,2232.739781294573,None,001,41,2019_Oct_18_1208,ACPT_experiment_5_30_19,3.1.0,59.95260148858072,
,,,C,U,g,n,R,D,y,R,y,,,,,5,19,119,7,1,0,1,0,,,,,0,34,34,27,,,,,,down,0.5671507165652656,2234.3910963194394,None,001,41,2019_Oct_18_1208,ACPT_experiment_5_30_19,3.1.0,59.95260148858072,
,,,C,U,g,n,R,G,y,R,y,,,,,5,19,119,7,1,0,1,0,,,,,0,35,35,29,,,,,,down,0.6338696068887657,2236.2425785807545,None,001,41,2019_Oct_18_1208,ACPT_experiment_5_30_19,3.1.0,59.95260148858072,
,,,C,U,g,n,R,D,g,L,i,,,,,5,19,119,7,1,0,1,0,,,,,1,0,36,2,,,,,,up,0.48041024247777386,2238.180816409699,None,001,41,2019_Oct_18_1208,ACPT_experiment_5_30_19,3.1.0,59.95260148858072,
,,,C,U,g,n,L,G,d,R,i,,,,,5,19,119,7,1,0,1,0,,,,,1,1,37,17,,,,,,up,0.4503593017725507,2239.9456101187106,None,001,41,2019_Oct_18_1208,ACPT_experiment_5_30_19,3.1.0,59.95260148858072,
,,,C,U,g,n,R,G,y,R,y,,,,,5,19,119,7,1,0,1,0,,,,,1,2,38,29,,,,,,down,0.5337701404459949,2241.6803528870178,None,001,41,2019_Oct_18_1208,ACPT_experiment_5_30_19,3.1.0,59.95260148858072,
,,,C,U,g,n,R,D,g,R,i,,,,,5,19,119,7,1,0,1,0,,,,,1,3,39,3,,,,,,up,0.6338530039920443,2243.498498041613,None,001,41,2019_Oct_18_1208,ACPT_experiment_5_30_19,3.1.0,59.95260148858072,
,,,C,U,g,n,L,G,y,R,y,,,,,5,19,119,7,1,0,1,0,,,,,1,4,40,35,,,,,,down,0.5166597991055824,2245.433797761628,None,001,41,2019_Oct_18_1208,ACPT_experiment_5_30_19,3.1.0,59.95260148858072,
,,,C,U,g,n,L,D,d,R,c ,,,,,5,19,119,7,1,0,1,0,,,,,1,5,41,13,,,,,,up,0.500375074524527,2247.2348899303433,None,001,41,2019_Oct_18_1208,ACPT_experiment_5_30_19,3.1.0,59.95260148858072,
,,,C,U,g,n,L,U,g,R,u,,,,,5,19,119,7,1,0,1,0,,,,,1,6,42,23,,,,,,up,0.4170061958993756,2249.0196475657895,None,001,41,2019_Oct_18_1208,ACPT_experiment_5_30_19,3.1.0,59.95260148858072,
,,,C,U,g,n,L,D,g,R,i,,,,,5,19,119,7,1,0,1,0,,,,,1,7,43,15,,,,,,up,0.3836766359509056,2250.721028775838,None,001,41,2019_Oct_18_1208,ACPT_experiment_5_30_19,3.1.0,59.95260148858072,
,,,C,U,g,n,R,U,g,R,u,,,,,5,19,119,7,1,0,1,0,,,,,1,8,44,11,,,,,,up,0.40006761906897736,2252.4060193046407,None,001,41,2019_Oct_18_1208,ACPT_experiment_5_30_19,3.1.0,59.95260148858072,
,,,C,U,g,n,R,D,y,R,y,,,,,5,19,119,7,1,0,1,0,,,,,1,9,45,27,,,,,,down,0.5170875500925831,2254.090435373226,None,001,41,2019_Oct_18_1208,ACPT_experiment_5_30_19,3.1.0,59.95260148858072,
,,,C,U,g,n,R,U,d,R,u,,,,,5,19,119,7,1,0,1,0,,,,,1,10,46,9,,,,,,up,0.48372236938394053,2255.891897635597,None,001,41,2019_Oct_18_1208,ACPT_experiment_5_30_19,3.1.0,59.95260148858072,
,,,C,U,g,n,L,U,y,L,u,,,,,5,19,119,7,1,0,1,0,,,,,1,11,47,24,,,,,,down,0.6505177839662792,2257.6766818356764,None,001,41,2019_Oct_18_1208,ACPT_experiment_5_30_19,3.1.0,59.95260148858072,
,,,C,U,g,n,R,D,y,L,y,,,,,5,19,119,7,1,0,1,0,,,,,1,12,48,26,,,,,,down,0.5504334110655691,2259.6449576248806,None,001,41,2019_Oct_18_1208,ACPT_experiment_5_30_19,3.1.0,59.95260148858072,
,,,C,U,g,n,R,U,y,R,u,,,,,5,19,119,7,1,0,1,0,,,,,1,13,49,31,,,,,,down,0.6505352924750696,2261.4964703751502,None,001,41,2019_Oct_18_1208,ACPT_experiment_5_30_19,3.1.0,59.95260148858072,
,,,C,U,g,n,L,U,d,L,u,,,,,5,19,119,7,1,0,1,0,,,,,1,14,50,20,,,,,,up,0.5837994973853711,2263.4480391224615,None,001,41,2019_Oct_18_1208,ACPT_experiment_5_30_19,3.1.0,59.95260148858072,
,,,C,U,g,n,L,U,y,R,u,,,,,5,19,119,7,1,0,1,0,,,,,1,15,51,25,,,,,,down,0.5004251850841683,2265.299519874422,None,001,41,2019_Oct_18_1208,ACPT_experiment_5_30_19,3.1.0,59.95260148858072,
,,,C,U,g,n,R,G,d,L,i,,,,,5,19,119,7,1,0,1,0,,,,,1,16,52,4,,,,,,up,0.6501585576606885,2267.1012547261653,None,001,41,2019_Oct_18_1208,ACPT_experiment_5_30_19,3.1.0,59.95260148858072,
,,,C,U,g,n,R,G,g,R,c ,,,,,5,19,119,7,1,0,1,0,,,,,1,17,53,7,,,,,,up,0.45039130008262873,2269.019203513777,None,001,41,2019_Oct_18_1208,ACPT_experiment_5_30_19,3.1.0,59.95260148858072,
,,,C,U,g,n,L,D,y,R,y,,,,,5,19,119,7,1,0,1,0,,,,,1,18,54,33,,,,,,down,0.7172460322854022,2270.7706445697213,None,001,41,2019_Oct_18_1208,ACPT_experiment_5_30_19,3.1.0,59.95260148858072,
,,,C,U,g,n,L,G,d,L,i,,,,,5,19,119,7,1,0,1,0,,,,,1,19,55,16,,,,,,up,0.6336996536028892,2272.805665813881,None,001,41,2019_Oct_18_1208,ACPT_experiment_5_30_19,3.1.0,59.95260148858072,
,,,C,U,g,n,R,G,y,L,y,,,,,5,19,119,7,1,0,1,0,,,,,1,20,56,28,,,,,,down,0.6338373067083012,2274.757218260167,None,001,41,2019_Oct_18_1208,ACPT_experiment_5_30_19,3.1.0,59.95260148858072,
,,,C,U,g,n,R,U,d,L,u,,,,,5,19,119,7,1,0,1,0,,,,,1,21,57,8,,,,,,down,0.38364373202966817,2276.692122227505,None,001,41,2019_Oct_18_1208,ACPT_experiment_5_30_19,3.1.0,59.95260148858072,
,,,C,U,g,n,L,U,d,R,u,,,,,5,19,119,7,1,0,1,0,,,,,1,22,58,21,,,,,,up,0.5838058366725818,2278.360141275555,None,001,41,2019_Oct_18_1208,ACPT_experiment_5_30_19,3.1.0,59.95260148858072,
,,,C,U,g,n,L,G,g,L,c ,,,,,5,19,119,7,1,0,1,0,,,,,1,23,59,18,,,,,,up,0.5471025681654282,2280.2483754065825,None,001,41,2019_Oct_18_1208,ACPT_experiment_5_30_19,3.1.0,59.95260148858072,
,,,C,U,g,n,L,G,y,L,y,,,,,5,19,119,7,1,0,1,0,,,,,1,24,60,34,,,,,,down,0.5504605794403687,2282.063132060948,None,001,41,2019_Oct_18_1208,ACPT_experiment_5_30_19,3.1.0,59.95260148858072,
,,,C,U,g,n,L,D,d,L,c ,,,,,5,19,119,7,1,0,1,0,,,,,1,25,61,12,,,,,,up,0.5504485046067202,2283.8979736919564,None,001,41,2019_Oct_18_1208,ACPT_experiment_5_30_19,3.1.0,59.95260148858072,
,,,C,U,g,n,R,G,d,R,i,,,,,5,19,119,7,1,0,1,0,,,,,1,26,62,5,,,,,,up,0.6171640743514217,2285.7328038518717,None,001,41,2019_Oct_18_1208,ACPT_experiment_5_30_19,3.1.0,59.95260148858072,
,,,C,U,g,n,L,U,g,L,u,,,,,5,19,119,7,1,0,1,0,,,,,1,27,63,22,,,,,,up,0.516986725229799,2287.6343483740484,None,001,41,2019_Oct_18_1208,ACPT_experiment_5_30_19,3.1.0,59.95260148858072,
,,,C,U,g,n,R,D,d,L,c,,,,,5,19,119,7,1,0,1,0,,,,,1,28,64,0,,,,,,up,0.500399224191824,2289.435810032677,None,001,41,2019_Oct_18_1208,ACPT_experiment_5_30_19,3.1.0,59.95260148858072,
,,,C,U,g,n,R,D,d,R,c ,,,,,5,19,119,7,1,0,1,0,,,,,1,29,65,1,,,,,,up,0.6004977850225259,2291.2038971526035,None,001,41,2019_Oct_18_1208,ACPT_experiment_5_30_19,3.1.0,59.95260148858072,
,,,C,U,g,n,L,D,g,L,i,,,,,5,19,119,7,1,0,1,0,,,,,1,30,66,14,,,,,,up,0.4970934365728681,2293.108770102712,None,001,41,2019_Oct_18_1208,ACPT_experiment_5_30_19,3.1.0,59.95260148858072,
,,,C,U,g,n,L,D,y,L,y,,,,,5,19,119,7,1,0,1,0,,,,,1,31,67,32,,,,,,down,0.5337951957253608,2294.890209573834,None,001,41,2019_Oct_18_1208,ACPT_experiment_5_30_19,3.1.0,59.95260148858072,
,,,C,U,g,n,R,U,y,L,u,,,,,5,19,119,7,1,0,1,0,,,,,1,32,68,30,,,,,,down,0.4504411087718836,2296.7083568415255,None,001,41,2019_Oct_18_1208,ACPT_experiment_5_30_19,3.1.0,59.95260148858072,
,,,C,U,g,n,L,G,g,R,c ,,,,,5,19,119,7,1,0,1,0,,,,,1,33,69,19,,,,,,up,0.6171858090510796,2298.4431261744667,None,001,41,2019_Oct_18_1208,ACPT_experiment_5_30_19,3.1.0,59.95260148858072,
,,,C,U,g,n,R,U,g,L,u,,,,,5,19,119,7,1,0,1,0,,,,,1,34,70,10,,,,,,up,0.6500948629127379,2300.361749341544,None,001,41,2019_Oct_18_1208,ACPT_experiment_5_30_19,3.1.0,59.95260148858072,
,,,C,U,g,n,R,G,g,L,c ,,,,,5,19,119,7,1,0,1,0,,,,,1,35,71,6,,,,,,up,0.5504367316443677,2302.29625936743,None,001,41,2019_Oct_18_1208,ACPT_experiment_5_30_19,3.1.0,59.95260148858072,
,,,C,U,g,n,,,,,,,,,,5,19,119,7,2,0,2,0,0,0,0,0,,,,,,,,,,,,,,001,41,2019_Oct_18_1208,ACPT_experiment_5_30_19,3.1.0,59.95260148858072,
,,,C,U,g,n,L,G,y,R,y,,,,,5,19,119,7,2,0,2,0,,,,,0,0,0,35,,,,,,down,0.6004899363806544,2308.284445651928,None,001,41,2019_Oct_18_1208,ACPT_experiment_5_30_19,3.1.0,59.95260148858072,
,,,C,U,g,n,R,D,y,R,y,,,,,5,19,119,7,2,0,2,0,,,,,0,1,1,27,,,,,,down,0.5337671217366733,2310.169317847359,None,001,41,2019_Oct_18_1208,ACPT_experiment_5_30_19,3.1.0,59.95260148858072,
,,,C,U,g,n,L,D,g,R,i,,,,,5,19,119,7,2,0,2,0,,,,,0,2,2,15,,,,,,up,0.717247239768767,2311.9874590776335,None,001,41,2019_Oct_18_1208,ACPT_experiment_5_30_19,3.1.0,59.95260148858072,
,,,C,U,g,n,L,U,y,R,u,,,,,5,19,119,7,2,0,2,0,,,,,0,3,3,25,,,,,,down,0.6171583388049839,2313.989087067099,None,001,41,2019_Oct_18_1208,ACPT_experiment_5_30_19,3.1.0,59.95260148858072,
,,,C,U,g,n,R,G,d,R,i,,,,,5,19,119,7,2,0,2,0,,,,,0,4,4,5,,,,,,up,0.5170721546792265,2315.8906457772046,None,001,41,2019_Oct_18_1208,ACPT_experiment_5_30_19,3.1.0,59.95260148858072,
,,,C,U,g,n,L,G,g,L,c ,,,,,5,19,119,7,2,0,2,0,,,,,0,5,5,18,,,,,,up,0.6671668666567712,2317.6921219256346,None,001,41,2019_Oct_18_1208,ACPT_experiment_5_30_19,3.1.0,59.95260148858072,
,,,C,U,g,n,R,U,y,L,u,,,,,5,19,119,7,2,0,2,0,,,,,0,6,6,30,,,,,,down,0.5504391466110974,2319.6436849373995,None,001,41,2019_Oct_18_1208,ACPT_experiment_5_30_19,3.1.0,59.95260148858072,
,,,C,U,g,n,L,U,d,R,u,,,,,5,19,119,7,2,0,2,0,,,,,0,7,7,21,,,,,,up,0.9507739213777313,2321.4951964801858,None,001,41,2019_Oct_18_1208,ACPT_experiment_5_30_19,3.1.0,59.95260148858072,
,,,C,U,g,n,R,G,d,L,i,,,,,5,19,119,7,2,0,2,0,,,,,0,8,8,4,,,,,,up,0.5838272695027626,2323.7303110024377,None,001,41,2019_Oct_18_1208,ACPT_experiment_5_30_19,3.1.0,59.95260148858072,
,,,C,U,g,n,R,D,d,R,c ,,,,,5,19,119,7,2,0,2,0,,,,,0,9,9,1,,,,,,up,0.46704702393071784,2325.5985123804785,None,001,41,2019_Oct_18_1208,ACPT_experiment_5_30_19,3.1.0,59.95260148858072,
,,,C,U,g,n,L,G,d,L,i,,,,,5,19,119,7,2,0,2,0,,,,,0,10,10,16,,,,,,up,0.5504355241610028,2327.349940455976,None,001,41,2019_Oct_18_1208,ACPT_experiment_5_30_19,3.1.0,59.95260148858072,
,,,C,U,g,n,L,D,y,L,y,,,,,5,19,119,7,2,0,2,0,,,,,0,11,11,32,,,,,,down,0.5337625936736003,2329.1847627672505,None,001,41,2019_Oct_18_1208,ACPT_experiment_5_30_19,3.1.0,59.95260148858072,
,,,C,U,g,n,R,U,g,L,u,,,,,5,19,119,7,2,0,2,0,,,,,0,12,12,10,,,,,,up,0.617165583705173,2331.002903997525,None,001,41,2019_Oct_18_1208,ACPT_experiment_5_30_19,3.1.0,59.95260148858072,
,,,C,U,g,n,L,D,d,R,c ,,,,,5,19,119,7,2,0,2,0,,,,,0,13,13,13,,,,,,up,0.5671244538025348,2332.9044470103463,None,001,41,2019_Oct_18_1208,ACPT_experiment_5_30_19,3.1.0,59.95260148858072,
,,,C,U,g,n,R,U,y,R,u,,,,,5,19,119,7,2,0,2,0,,,,,0,14,14,31,,,,,,down,0.683532794493658,2334.772959919099,None,001,41,2019_Oct_18_1208,ACPT_experiment_5_30_19,3.1.0,59.95260148858072,
,,,C,U,g,n,R,U,d,L,u,,,,,5,19,119,7,2,0,2,0,,,,,0,15,15,8,,,,,,up,0.5170914744121546,2336.7408970092147,None,001,41,2019_Oct_18_1208,ACPT_experiment_5_30_19,3.1.0,59.95260148858072,
,,,C,U,g,n,R,D,y,L,y,,,,,5,19,119,7,2,0,2,0,,,,,0,16,16,26,,,,,,down,0.5671226425774876,2338.542364705261,None,001,41,2019_Oct_18_1208,ACPT_experiment_5_30_19,3.1.0,59.95260148858072,
,,,C,U,g,n,R,D,d,L,c,,,,,5,19,119,7,2,0,2,0,,,,,0,17,17,0,,,,,,up,0.6338430422538295,2340.393864173214,None,001,41,2019_Oct_18_1208,ACPT_experiment_5_30_19,3.1.0,59.95260148858072,
,,,C,U,g,n,R,D,g,L,i,,,,,5,19,119,7,2,0,2,0,,,,,0,18,18,2,,,,,,up,0.5003980167084592,2342.3120933988394,None,001,41,2019_Oct_18_1208,ACPT_experiment_5_30_19,3.1.0,59.95260148858072,
,,,C,U,g,n,R,G,y,L,y,,,,,5,19,119,7,2,0,2,0,,,,,0,19,19,28,,,,,,down,0.5004303168889237,2344.096848015577,None,001,41,2019_Oct_18_1208,ACPT_experiment_5_30_19,3.1.0,59.95260148858072,
,,,C,U,g,n,L,U,g,R,u,,,,,5,19,119,7,2,0,2,0,,,,,0,20,20,23,,,,,,up,1.1842933580865065,2345.8816590821616,None,001,41,2019_Oct_18_1208,ACPT_experiment_5_30_19,3.1.0,59.95260148858072,
,,,C,U,g,n,L,G,g,R,c ,,,,,5,19,119,7,2,0,2,0,,,,,0,21,21,19,,,,,,up,0.5170772864830724,2348.350329265624,None,001,41,2019_Oct_18_1208,ACPT_experiment_5_30_19,3.1.0,59.95260148858072,
,,,C,U,g,n,R,U,g,R,u,,,,,5,19,119,7,2,0,2,0,,,,,0,22,22,11,,,,,,up,0.550600043770828,2350.151779453161,None,001,41,2019_Oct_18_1208,ACPT_experiment_5_30_19,3.1.0,59.95260148858072,
,,,C,U,g,n,L,D,g,L,i,,,,,5,19,119,7,2,0,2,0,,,,,0,23,23,14,,,,,,up,0.4503641317060101,2351.9866132355273,None,001,41,2019_Oct_18_1208,ACPT_experiment_5_30_19,3.1.0,59.95260148858072,
,,,C,U,g,n,L,D,d,L,c ,,,,,5,19,119,7,2,0,2,0,,,,,0,24,24,12,,,,,,up,0.5170627966817847,2353.738051876505,None,001,41,2019_Oct_18_1208,ACPT_experiment_5_30_19,3.1.0,59.95260148858072,
,,,C,U,g,n,L,D,y,R,y,,,,,5,19,119,7,2,0,2,0,,,,,0,25,25,33,,,,,,down,0.5837813851339888,2355.539521987518,None,001,41,2019_Oct_18_1208,ACPT_experiment_5_30_19,3.1.0,59.95260148858072,
,,,C,U,g,n,L,U,y,L,u,,,,,5,19,119,7,2,0,2,0,,,,,0,26,26,24,,,,,,down,0.6671988649659397,2357.407690461636,None,001,41,2019_Oct_18_1208,ACPT_experiment_5_30_19,3.1.0,59.95260148858072,
,,,C,U,g,n,L,U,g,L,u,,,,,5,19,119,7,2,0,2,0,,,,,0,27,27,22,,,,,,up,0.5504578626032526,2359.359273396877,None,001,41,2019_Oct_18_1208,ACPT_experiment_5_30_19,3.1.0,59.95260148858072,
,,,C,U,g,n,R,U,d,R,u,,,,,5,19,119,7,2,0,2,0,,,,,0,28,28,9,,,,,,up,0.7005558951605053,2361.19409872686,None,001,41,2019_Oct_18_1208,ACPT_experiment_5_30_19,3.1.0,59.95260148858072,
,,,C,U,g,n,R,D,g,R,i,,,,,5,19,119,7,2,0,2,0,,,,,0,29,29,3,,,,,,up,0.5170751733867291,2363.1790489559044,None,001,41,2019_Oct_18_1208,ACPT_experiment_5_30_19,3.1.0,59.95260148858072,
,,,C,U,g,n,L,G,d,R,i,,,,,5,19,119,7,2,0,2,0,,,,,0,30,30,17,,,,,,up,0.5504635981496904,2364.9804792199657,None,001,41,2019_Oct_18_1208,ACPT_experiment_5_30_19,3.1.0,59.95260148858072,
,,,C,U,g,n,L,G,y,L,y,,,,,5,19,119,7,2,0,2,0,,,,,0,31,31,34,,,,,,down,0.5504288830024961,2366.7986621084174,None,001,41,2019_Oct_18_1208,ACPT_experiment_5_30_19,3.1.0,59.95260148858072,
,,,C,U,g,n,L,U,d,L,u,,,,,5,19,119,7,2,0,2,0,,,,,0,32,32,20,,,,,,up,0.7005755167647294,2368.6334735523405,None,001,41,2019_Oct_18_1208,ACPT_experiment_5_30_19,3.1.0,59.95260148858072,
,,,C,U,g,n,R,G,g,L,c ,,,,,5,19,119,7,2,0,2,0,,,,,0,33,33,6,,,,,,up,0.4837175394513906,2370.618421064548,None,001,41,2019_Oct_18_1208,ACPT_experiment_5_30_19,3.1.0,59.95260148858072,
,,,C,U,g,n,R,G,g,R,c ,,,,,5,19,119,7,2,0,2,0,,,,,0,34,34,7,,,,,,up,0.583816402152479,2372.386520259307,None,001,41,2019_Oct_18_1208,ACPT_experiment_5_30_19,3.1.0,59.95260148858072,
,,,C,U,g,n,R,G,y,R,y,,,,,5,19,119,7,2,0,2,0,,,,,0,35,35,29,,,,,,down,0.6505298587999278,2374.254700506389,None,001,41,2019_Oct_18_1208,ACPT_experiment_5_30_19,3.1.0,59.95260148858072,
,,,C,U,g,n,L,G,y,R,y,,,,,5,19,119,7,2,0,2,0,,,,,1,0,36,35,,,,,,down,0.7672883696714052,2376.1896096055307,None,001,41,2019_Oct_18_1208,ACPT_experiment_5_30_19,3.1.0,59.95260148858072,
,,,C,U,g,n,R,G,g,L,c ,,,,,5,19,119,7,2,0,2,0,,,,,1,1,37,6,,,,,,up,0.7506226840851014,2378.2412705743845,None,001,41,2019_Oct_18_1208,ACPT_experiment_5_30_19,3.1.0,59.95260148858072,
,,,C,U,g,n,R,U,y,L,u,,,,,5,19,119,7,2,0,2,0,,,,,1,2,38,30,,,,,,down,0.6505322737666575,2380.2762528772064,None,001,41,2019_Oct_18_1208,ACPT_experiment_5_30_19,3.1.0,59.95260148858072,
,,,C,U,g,n,L,G,d,L,i,,,,,5,19,119,7,2,0,2,0,,,,,1,3,39,16,,,,,,up,0.7506103073792474,2382.21116620254,None,001,41,2019_Oct_18_1208,ACPT_experiment_5_30_19,3.1.0,59.95260148858072,
,,,C,U,g,n,L,U,d,L,u,,,,,5,19,119,7,2,0,2,0,,,,,1,4,40,20,,,,,,up,0.5337426701980803,2384.246195597214,None,001,41,2019_Oct_18_1208,ACPT_experiment_5_30_19,3.1.0,59.95260148858072,
,,,C,U,g,n,R,U,y,R,u,,,,,5,19,119,7,2,0,2,0,,,,,1,5,41,31,,,,,,down,0.7005148407261004,2386.0810314926757,None,001,41,2019_Oct_18_1208,ACPT_experiment_5_30_19,3.1.0,59.95260148858072,
,,,C,U,g,n,L,U,g,R,u,,,,,5,19,119,7,2,0,2,0,,,,,1,6,42,23,,,,,,up,0.633843042254739,2388.0659201400686,None,001,41,2019_Oct_18_1208,ACPT_experiment_5_30_19,3.1.0,59.95260148858072,
,,,C,U,g,n,R,U,g,R,u,,,,,5,19,119,7,2,0,2,0,,,,,1,7,43,11,,,,,,up,0.48374802840680786,2389.9674417200604,None,001,41,2019_Oct_18_1208,ACPT_experiment_5_30_19,3.1.0,59.95260148858072,
,,,C,U,g,n,L,D,y,R,y,,,,,5,19,119,7,2,0,2,0,,,,,1,8,44,33,,,,,,down,0.8673582527717372,2391.735581969255,None,001,41,2019_Oct_18_1208,ACPT_experiment_5_30_19,3.1.0,59.95260148858072,
,,,C,U,g,n,L,D,y,L,y,,,,,5,19,119,7,2,0,2,0,,,,,1,9,45,32,,,,,,down,0.6838714935811367,2393.8873312353307,None,001,41,2019_Oct_18_1208,ACPT_experiment_5_30_19,3.1.0,59.95260148858072,
,,,C,U,g,n,L,U,y,R,u,,,,,5,19,119,7,2,0,2,0,,,,,1,10,46,25,,,,,,down,0.6671873938730641,2395.855613967564,None,001,41,2019_Oct_18_1208,ACPT_experiment_5_30_19,3.1.0,59.95260148858072,
,,,C,U,g,n,L,G,g,L,c ,,,,,5,19,119,7,2,0,2,0,,,,,1,11,47,18,,,,,,up,0.5504445802862392,2397.8071691306877,None,001,41,2019_Oct_18_1208,ACPT_experiment_5_30_19,3.1.0,59.95260148858072,
,,,C,U,g,n,R,G,d,R,i,,,,,5,19,119,7,2,0,2,0,,,,,1,12,48,5,,,,,,up,0.6171571313207096,2399.6419980831206,None,001,41,2019_Oct_18_1208,ACPT_experiment_5_30_19,3.1.0,59.95260148858072,
,,,C,U,g,n,R,G,d,L,i,,,,,5,19,119,7,2,0,2,0,,,,,1,13,49,4,,,,,,up,0.5504400522231663,2401.5435398884592,None,001,41,2019_Oct_18_1208,ACPT_experiment_5_30_19,3.1.0,59.95260148858072,
,,,C,U,g,n,R,D,y,L,y,,,,,5,19,119,7,2,0,2,0,,,,,1,14,50,26,,,,,,down,0.5504847291085753,2403.378336842582,None,001,41,2019_Oct_18_1208,ACPT_experiment_5_30_19,3.1.0,59.95260148858072,
,,,C,U,g,n,R,D,d,L,c,,,,,5,19,119,7,2,0,2,0,,,,,1,15,51,0,,,,,,up,0.6972425607709738,2405.2331825488463,None,001,41,2019_Oct_18_1208,ACPT_experiment_5_30_19,3.1.0,59.95260148858072,
,,,C,U,g,n,L,G,g,R,c ,,,,,5,19,119,7,2,0,2,0,,,,,1,16,52,19,,,,,,up,0.7339307357351572,2407.2148046518296,None,001,41,2019_Oct_18_1208,ACPT_experiment_5_30_19,3.1.0,59.95260148858072,
,,,C,U,g,n,R,U,g,L,u,,,,,5,19,119,7,2,0,2,0,,,,,1,17,53,10,,,,,,up,0.5504660131155106,2409.2331110054565,None,001,41,2019_Oct_18_1208,ACPT_experiment_5_30_19,3.1.0,59.95260148858072,
,,,C,U,g,n,R,D,d,R,c ,,,,,5,19,119,7,2,0,2,0,,,,,1,18,54,1,,,,,,up,0.5170573630066428,2411.0679619944603,None,001,41,2019_Oct_18_1208,ACPT_experiment_5_30_19,3.1.0,59.95260148858072,
,,,C,U,g,n,L,G,y,L,y,,,,,5,19,119,7,2,0,2,0,,,,,1,19,55,34,,,,,,down,0.5671271706405605,2412.8860787731974,None,001,41,2019_Oct_18_1208,ACPT_experiment_5_30_19,3.1.0,59.95260148858072,
,,,C,U,g,n,L,D,d,L,c ,,,,,5,19,119,7,2,0,2,0,,,,,1,20,56,12,,,,,,up,0.5671271706405605,2414.7542644539535,None,001,41,2019_Oct_18_1208,ACPT_experiment_5_30_19,3.1.0,59.95260148858072,
,,,C,U,g,n,R,G,y,L,y,,,,,5,19,119,7,2,0,2,0,,,,,1,21,57,28,,,,,,down,0.6338412310296917,2416.6057720724193,None,001,41,2019_Oct_18_1208,ACPT_experiment_5_30_19,3.1.0,59.95260148858072,
,,,C,U,g,n,R,U,d,R,u,,,,,5,19,119,7,2,0,2,0,,,,,1,22,58,9,,,,,,up,0.8170952477985338,2418.540939573004,None,001,41,2019_Oct_18_1208,ACPT_experiment_5_30_19,3.1.0,59.95260148858072,
,,,C,U,g,n,L,U,y,L,u,,,,,5,19,119,7,2,0,2,0,,,,,1,23,59,24,,,,,,down,0.50039952606312,2420.642385383414,None,001,41,2019_Oct_18_1208,ACPT_experiment_5_30_19,3.1.0,59.95260148858072,
,,,C,U,g,n,R,D,y,R,y,,,,,5,19,119,7,2,0,2,0,,,,,1,24,60,27,,,,,,down,0.7005592157393039,2422.4271680741394,None,001,41,2019_Oct_18_1208,ACPT_experiment_5_30_19,3.1.0,59.95260148858072,
,,,C,U,g,n,L,D,g,L,i,,,,,5,19,119,7,2,0,2,0,,,,,1,25,61,14,,,,,,up,0.5837895356471563,2424.4121234349886,None,001,41,2019_Oct_18_1208,ACPT_experiment_5_30_19,3.1.0,59.95260148858072,
,,,C,U,g,n,L,U,g,L,u,,,,,5,19,119,7,2,0,2,0,,,,,1,26,62,22,,,,,,up,0.5336466752696651,2426.280294324073,None,001,41,2019_Oct_18_1208,ACPT_experiment_5_30_19,3.1.0,59.95260148858072,
,,,C,U,g,n,R,G,y,R,y,,,,,5,19,119,7,2,0,2,0,,,,,1,27,63,29,,,,,,down,0.7006011757866872,2428.09841110281,None,001,41,2019_Oct_18_1208,ACPT_experiment_5_30_19,3.1.0,59.95260148858072,
,,,C,U,g,n,R,D,g,L,i,,,,,5,19,119,7,2,0,2,0,,,,,1,28,64,2,,,,,,up,0.5671709419129911,2430.083390915197,None,001,41,2019_Oct_18_1208,ACPT_experiment_5_30_19,3.1.0,59.95260148858072,
,,,C,U,g,n,L,G,d,R,i,,,,,5,19,119,7,2,0,2,0,,,,,1,29,65,17,,,,,,up,0.550178330201561,2431.9518352992673,None,001,41,2019_Oct_18_1208,ACPT_experiment_5_30_19,3.1.0,59.95260148858072,
,,,C,U,g,n,R,D,g,R,i,,,,,5,19,119,7,2,0,2,0,,,,,1,30,66,3,,,,,,up,0.5838046291892169,2433.7863919641986,None,001,41,2019_Oct_18_1208,ACPT_experiment_5_30_19,3.1.0,59.95260148858072,
,,,C,U,g,n,L,D,g,R,i,,,,,5,19,119,7,2,0,2,0,,,,,1,31,67,15,,,,,,up,0.6338711162434265,2435.6545462503873,None,001,41,2019_Oct_18_1208,ACPT_experiment_5_30_19,3.1.0,59.95260148858072,
,,,C,U,g,n,L,D,d,R,c ,,,,,5,19,119,7,2,0,2,0,,,,,1,32,68,13,,,,,,up,0.4503810364740275,2437.572778494721,None,001,41,2019_Oct_18_1208,ACPT_experiment_5_30_19,3.1.0,59.95260148858072,
,,,C,U,g,n,R,U,d,L,u,,,,,5,19,119,7,2,0,2,0,,,,,1,33,69,8,,,,,,up,0.5671054359390837,2439.3242379647872,None,001,41,2019_Oct_18_1208,ACPT_experiment_5_30_19,3.1.0,59.95260148858072,
,,,C,U,g,n,R,G,g,R,c ,,,,,5,19,119,7,2,0,2,0,,,,,1,34,70,7,,,,,,up,0.5671126808392728,2441.175736828998,None,001,41,2019_Oct_18_1208,ACPT_experiment_5_30_19,3.1.0,59.95260148858072,
,,,C,U,g,n,L,U,d,R,u,,,,,5,19,119,7,2,0,2,0,,,,,1,35,71,21,,,,,,up,0.5504379391277325,2443.027230259534,None,001,41,2019_Oct_18_1208,ACPT_experiment_5_30_19,3.1.0,59.95260148858072,
,,,C,U,g,n,,,,,,,,,,5,19,119,7,3,0,3,0,0,0,0,0,,,,,,,,,,,,,,001,41,2019_Oct_18_1208,ACPT_experiment_5_30_19,3.1.0,59.95260148858072,
,,,C,U,g,n,L,U,g,L,u,,,,,5,19,119,7,3,0,3,0,,,,,0,0,0,22,,,,,,up,0.5502012723854932,2447.5311556370607,None,001,41,2019_Oct_18_1208,ACPT_experiment_5_30_19,3.1.0,59.95260148858072,
,,,C,U,g,n,R,U,g,R,u,,,,,5,19,119,7,3,0,3,0,,,,,0,1,1,11,,,,,,up,0.4003634524970039,2449.3490257873173,None,001,41,2019_Oct_18_1208,ACPT_experiment_5_30_19,3.1.0,59.95260148858072,
,,,C,U,g,n,R,D,g,L,i,,,,,5,19,119,7,3,0,3,0,,,,,0,2,2,2,,,,,,up,0.4503614148688939,2451.0337334631377,None,001,41,2019_Oct_18_1208,ACPT_experiment_5_30_19,3.1.0,59.95260148858072,
,,,C,U,g,n,R,G,y,L,y,,,,,5,19,119,7,3,0,3,0,,,,,0,3,3,28,,,,,,down,0.5337707441867678,2452.7684593266767,None,001,41,2019_Oct_18_1208,ACPT_experiment_5_30_19,3.1.0,59.95260148858072,
,,,C,U,g,n,L,U,y,L,u,,,,,5,19,119,7,3,0,3,0,,,,,0,4,4,24,,,,,,down,0.5502178752822147,2454.603547284294,None,001,41,2019_Oct_18_1208,ACPT_experiment_5_30_19,3.1.0,59.95260148858072,
,,,C,U,g,n,R,U,y,L,u,,,,,5,19,119,7,3,0,3,0,,,,,0,5,5,30,,,,,,down,0.3834707600353795,2456.454961322798,None,001,41,2019_Oct_18_1208,ACPT_experiment_5_30_19,3.1.0,59.95260148858072,
,,,C,U,g,n,L,G,g,R,c ,,,,,5,19,119,7,3,0,3,0,,,,,0,6,6,19,,,,,,up,0.633838816062962,2458.1395041771375,None,001,41,2019_Oct_18_1208,ACPT_experiment_5_30_19,3.1.0,59.95260148858072,
,,,C,U,g,n,L,D,g,L,i,,,,,5,19,119,7,3,0,3,0,,,,,0,7,7,14,,,,,,up,0.5170818145452358,2460.057728874701,None,001,41,2019_Oct_18_1208,ACPT_experiment_5_30_19,3.1.0,59.95260148858072,
,,,C,U,g,n,L,U,y,R,u,,,,,5,19,119,7,3,0,3,0,,,,,0,8,8,25,,,,,,down,0.6669812160871516,2461.876140581252,None,001,41,2019_Oct_18_1208,ACPT_experiment_5_30_19,3.1.0,59.95260148858072,
,,,C,U,g,n,R,D,g,R,i,,,,,5,19,119,7,3,0,3,0,,,,,0,9,9,3,,,,,,up,0.4837284068007648,2463.8274590776336,None,001,41,2019_Oct_18_1208,ACPT_experiment_5_30_19,3.1.0,59.95260148858072,
,,,C,U,g,n,L,D,y,R,y,,,,,5,19,119,7,3,0,3,0,,,,,0,10,10,33,,,,,,down,0.6338478721881984,2465.595561291102,None,001,41,2019_Oct_18_1208,ACPT_experiment_5_30_19,3.1.0,59.95260148858072,
,,,C,U,g,n,R,G,g,L,c ,,,,,5,19,119,7,3,0,3,0,,,,,0,11,11,6,,,,,,up,0.5837729327513443,2467.513813760783,None,001,41,2019_Oct_18_1208,ACPT_experiment_5_30_19,3.1.0,59.95260148858072,
,,,C,U,g,n,R,D,y,R,y,,,,,5,19,119,7,3,0,3,0,,,,,0,12,12,27,,,,,,down,0.5671247556729213,2469.381970160067,None,001,41,2019_Oct_18_1208,ACPT_experiment_5_30_19,3.1.0,59.95260148858072,
,,,C,U,g,n,R,G,g,R,c ,,,,,5,19,119,7,3,0,3,0,,,,,0,13,13,7,,,,,,up,0.6171673949302203,2471.233474457953,None,001,41,2019_Oct_18_1208,ACPT_experiment_5_30_19,3.1.0,59.95260148858072,
,,,C,U,g,n,R,U,d,R,u,,,,,5,19,119,7,3,0,3,0,,,,,0,14,14,9,,,,,,up,0.8173228584146273,2473.1350198857417,None,001,41,2019_Oct_18_1208,ACPT_experiment_5_30_19,3.1.0,59.95260148858072,
,,,C,U,g,n,L,G,d,L,i,,,,,5,19,119,7,3,0,3,0,,,,,0,15,15,16,,,,,,up,0.5471179635796943,2475.2567254560136,None,001,41,2019_Oct_18_1208,ACPT_experiment_5_30_19,3.1.0,59.95260148858072,
,,,C,U,g,n,R,G,d,L,i,,,,,5,19,119,7,3,0,3,0,,,,,0,16,16,4,,,,,,up,0.6671913181944547,2477.0882449983774,None,001,41,2019_Oct_18_1208,ACPT_experiment_5_30_19,3.1.0,59.95260148858072,
,,,C,U,g,n,L,D,d,R,c ,,,,,5,19,119,7,3,0,3,0,,,,,0,17,17,13,,,,,,up,0.6004763521923451,2479.039818575622,None,001,41,2019_Oct_18_1208,ACPT_experiment_5_30_19,3.1.0,59.95260148858072,
,,,C,U,g,n,L,D,g,R,i,,,,,5,19,119,7,3,0,3,0,,,,,0,18,18,15,,,,,,up,0.5337665179959004,2480.9079967096077,None,001,41,2019_Oct_18_1208,ACPT_experiment_5_30_19,3.1.0,59.95260148858072,
,,,C,U,g,n,L,U,d,L,u,,,,,5,19,119,7,3,0,3,0,,,,,0,19,19,20,,,,,,up,0.5337580656123464,2482.7261424679455,None,001,41,2019_Oct_18_1208,ACPT_experiment_5_30_19,3.1.0,59.95260148858072,
,,,C,U,g,n,R,D,y,L,y,,,,,5,19,119,7,3,0,3,0,,,,,0,20,20,26,,,,,,down,0.7172412023519428,2484.544283396349,None,001,41,2019_Oct_18_1208,ACPT_experiment_5_30_19,3.1.0,59.95260148858072,
,,,C,U,g,n,R,D,d,R,c ,,,,,5,19,119,7,3,0,3,0,,,,,0,21,21,1,,,,,,up,0.6171885258891052,2486.529205853276,None,001,41,2019_Oct_18_1208,ACPT_experiment_5_30_19,3.1.0,59.95260148858072,
,,,C,U,g,n,R,U,y,R,u,,,,,5,19,119,7,3,0,3,0,,,,,0,22,22,31,,,,,,down,0.7504092613980902,2488.464299395504,None,001,41,2019_Oct_18_1208,ACPT_experiment_5_30_19,3.1.0,59.95260148858072,
,,,C,U,g,n,L,G,d,R,i,,,,,5,19,119,7,3,0,3,0,,,,,0,23,23,17,,,,,,up,0.5504352222906164,2490.5158033915186,None,001,41,2019_Oct_18_1208,ACPT_experiment_5_30_19,3.1.0,59.95260148858072,
,,,C,U,g,n,R,U,d,L,u,,,,,5,19,119,7,3,0,3,0,,,,,0,24,24,8,,,,,,up,0.5337432739406722,2492.3339606209483,None,001,41,2019_Oct_18_1208,ACPT_experiment_5_30_19,3.1.0,59.95260148858072,
,,,C,U,g,n,R,D,d,L,c,,,,,5,19,119,7,3,0,3,0,,,,,0,25,25,0,,,,,,up,0.4503354539756401,2494.1521377738536,None,001,41,2019_Oct_18_1208,ACPT_experiment_5_30_19,3.1.0,59.95260148858072,
,,,C,U,g,n,L,G,y,L,y,,,,,5,19,119,7,3,0,3,0,,,,,0,26,26,34,,,,,,down,0.5671066434224485,2495.9202094983666,None,001,41,2019_Oct_18_1208,ACPT_experiment_5_30_19,3.1.0,59.95260148858072,
,,,C,U,g,n,R,G,y,R,y,,,,,5,19,119,7,3,0,3,0,,,,,0,27,27,29,,,,,,down,0.6838856815111285,2497.788374953776,None,001,41,2019_Oct_18_1208,ACPT_experiment_5_30_19,3.1.0,59.95260148858072,
,,,C,U,g,n,L,U,g,R,u,,,,,5,19,119,7,3,0,3,0,,,,,0,28,28,23,,,,,,up,0.6505464616957397,2499.7566184427997,None,001,41,2019_Oct_18_1208,ACPT_experiment_5_30_19,3.1.0,59.95260148858072,
,,,C,U,g,n,L,U,d,R,u,,,,,5,19,119,7,3,0,3,0,,,,,0,29,29,21,,,,,,up,0.5171074735681032,2501.6748407253954,None,001,41,2019_Oct_18_1208,ACPT_experiment_5_30_19,3.1.0,59.95260148858072,
,,,C,U,g,n,L,D,d,L,c ,,,,,5,19,119,7,3,0,3,0,,,,,0,30,30,12,,,,,,up,0.6472427871740365,2503.4963254771446,None,001,41,2019_Oct_18_1208,ACPT_experiment_5_30_19,3.1.0,59.95260148858072,
,,,C,U,g,n,L,D,y,L,y,,,,,5,19,119,7,3,0,3,0,,,,,0,31,31,32,,,,,,down,0.7840032602052815,2505.4112069551047,None,001,41,2019_Oct_18_1208,ACPT_experiment_5_30_19,3.1.0,59.95260148858072,
,,,C,U,g,n,R,U,g,L,u,,,,,5,19,119,7,3,0,3,0,,,,,0,32,32,10,,,,,,up,0.5337671217366733,2507.4795803995257,None,001,41,2019_Oct_18_1208,ACPT_experiment_5_30_19,3.1.0,59.95260148858072,
,,,C,U,g,n,R,G,d,R,i,,,,,5,19,119,7,3,0,3,0,,,,,0,33,33,5,,,,,,up,0.5671268687692645,2509.2977219316717,None,001,41,2019_Oct_18_1208,ACPT_experiment_5_30_19,3.1.0,59.95260148858072,
,,,C,U,g,n,L,G,y,R,y,,,,,5,19,119,7,3,0,3,0,,,,,0,34,34,35,,,,,,down,0.6505189914496441,2511.14922713517,None,001,41,2019_Oct_18_1208,ACPT_experiment_5_30_19,3.1.0,59.95260148858072,
,,,C,U,g,n,L,G,g,L,c ,,,,,5,19,119,7,3,0,3,0,,,,,0,35,35,18,,,,,,up,0.4670545707022029,2513.0841274800578,None,001,41,2019_Oct_18_1208,ACPT_experiment_5_30_19,3.1.0,59.95260148858072,
,,,C,U,g,n,R,U,d,R,u,,,,,5,19,119,7,3,0,3,0,,,,,1,0,36,9,,,,,,up,0.5337505188408613,2514.8355522349766,None,001,41,2019_Oct_18_1208,ACPT_experiment_5_30_19,3.1.0,59.95260148858072,
,,,C,U,g,n,L,D,g,R,i,,,,,5,19,119,7,3,0,3,0,,,,,1,1,37,15,,,,,,up,0.6502551563316956,2516.6706513618146,None,001,41,2019_Oct_18_1208,ACPT_experiment_5_30_19,3.1.0,59.95260148858072,
,,,C,U,g,n,L,U,y,L,u,,,,,5,19,119,7,3,0,3,0,,,,,1,2,38,24,,,,,,down,0.683885983381515,2518.6052833435215,None,001,41,2019_Oct_18_1208,ACPT_experiment_5_30_19,3.1.0,59.95260148858072,
,,,C,U,g,n,R,D,g,R,i,,,,,5,19,119,7,3,0,3,0,,,,,1,3,39,3,,,,,,up,1.1009181401732349,2520.573520493257,None,001,41,2019_Oct_18_1208,ACPT_experiment_5_30_19,3.1.0,59.95260148858072,
,,,C,U,g,n,R,D,d,L,c,,,,,5,19,119,7,3,0,3,0,,,,,1,4,40,0,,,,,,up,0.5170932856381114,2522.9421262272936,None,001,41,2019_Oct_18_1208,ACPT_experiment_5_30_19,3.1.0,59.95260148858072,
,,,C,U,g,n,L,D,d,L,c ,,,,,5,19,119,7,3,0,3,0,,,,,1,5,41,12,,,,,,up,0.5004224682470522,2524.7436129412035,None,001,41,2019_Oct_18_1208,ACPT_experiment_5_30_19,3.1.0,59.95260148858072,
,,,C,U,g,n,R,G,d,L,i,,,,,5,19,119,7,3,0,3,0,,,,,1,6,42,4,,,,,,up,0.5671250575442173,2526.5283811421286,None,001,41,2019_Oct_18_1208,ACPT_experiment_5_30_19,3.1.0,59.95260148858072,
,,,C,U,g,n,L,G,g,R,c ,,,,,5,19,119,7,3,0,3,0,,,,,1,7,43,19,,,,,,up,0.6338481740594943,2528.3798869493685,None,001,41,2019_Oct_18_1208,ACPT_experiment_5_30_19,3.1.0,59.95260148858072,
,,,C,U,g,n,L,D,y,L,y,,,,,5,19,119,7,3,0,3,0,,,,,1,8,44,32,,,,,,down,0.6004845027055126,2530.298112552545,None,001,41,2019_Oct_18_1208,ACPT_experiment_5_30_19,3.1.0,59.95260148858072,
,,,C,U,g,n,L,G,g,L,c ,,,,,5,19,119,7,3,0,3,0,,,,,1,9,45,18,,,,,,up,0.5504560513791148,2532.182973578754,None,001,41,2019_Oct_18_1208,ACPT_experiment_5_30_19,3.1.0,59.95260148858072,
,,,C,U,g,n,R,U,g,R,u,,,,,5,19,119,7,3,0,3,0,,,,,1,10,46,11,,,,,,up,0.5504131857187531,2534.001136241859,None,001,41,2019_Oct_18_1208,ACPT_experiment_5_30_19,3.1.0,59.95260148858072,
,,,C,U,g,n,L,G,d,R,i,,,,,5,19,119,7,3,0,3,0,,,,,1,11,47,17,,,,,,up,0.45009908910469676,2535.8528926019007,None,001,41,2019_Oct_18_1208,ACPT_experiment_5_30_19,3.1.0,59.95260148858072,
,,,C,U,g,n,L,U,d,R,u,,,,,5,19,119,7,3,0,3,0,,,,,1,12,48,21,,,,,,up,0.5838133834440669,2537.5873796856013,None,001,41,2019_Oct_18_1208,ACPT_experiment_5_30_19,3.1.0,59.95260148858072,
,,,C,U,g,n,R,D,g,L,i,,,,,5,19,119,7,3,0,3,0,,,,,1,13,49,2,,,,,,up,0.5504430709315784,2539.472232259428,None,001,41,2019_Oct_18_1208,ACPT_experiment_5_30_19,3.1.0,59.95260148858072,
,,,C,U,g,n,L,U,g,L,u,,,,,5,19,119,7,3,0,3,0,,,,,1,14,50,22,,,,,,up,0.4670440052223057,2541.3070521557356,None,001,41,2019_Oct_18_1208,ACPT_experiment_5_30_19,3.1.0,59.95260148858072,
,,,C,U,g,n,L,D,y,R,y,,,,,5,19,119,7,3,0,3,0,,,,,1,15,51,33,,,,,,down,1.0673132740157598,2543.075396771492,None,001,41,2019_Oct_18_1208,ACPT_experiment_5_30_19,3.1.0,59.95260148858072,
,,,C,U,g,n,R,G,g,L,c ,,,,,5,19,119,7,3,0,3,0,,,,,1,16,52,6,,,,,,up,0.46707781475743104,2545.4270572875394,None,001,41,2019_Oct_18_1208,ACPT_experiment_5_30_19,3.1.0,59.95260148858072,
,,,C,U,g,n,R,D,y,L,y,,,,,5,19,119,7,3,0,3,0,,,,,1,17,53,26,,,,,,down,0.5504219399726935,2547.1785152482507,None,001,41,2019_Oct_18_1208,ACPT_experiment_5_30_19,3.1.0,59.95260148858072,
,,,C,U,g,n,L,D,d,R,c ,,,,,5,19,119,7,3,0,3,0,,,,,1,18,54,13,,,,,,up,0.6338436459964214,2549.0133112967615,None,001,41,2019_Oct_18_1208,ACPT_experiment_5_30_19,3.1.0,59.95260148858072,
,,,C,U,g,n,R,D,y,R,y,,,,,5,19,119,7,3,0,3,0,,,,,1,19,55,27,,,,,,down,0.8006463054780397,2550.931536899938,None,001,41,2019_Oct_18_1208,ACPT_experiment_5_30_19,3.1.0,59.95260148858072,
,,,C,U,g,n,R,U,d,L,u,,,,,5,19,119,7,3,0,3,0,,,,,1,20,56,8,,,,,,up,0.5838049310596034,2553.016562747628,None,001,41,2019_Oct_18_1208,ACPT_experiment_5_30_19,3.1.0,59.95260148858072,
,,,C,U,g,n,R,U,y,L,u,,,,,5,19,119,7,3,0,3,0,,,,,1,21,57,30,,,,,,down,0.6505543103385207,2554.8680453108136,None,001,41,2019_Oct_18_1208,ACPT_experiment_5_30_19,3.1.0,59.95260148858072,
,,,C,U,g,n,L,U,y,R,u,,,,,5,19,119,7,3,0,3,0,,,,,1,22,58,25,,,,,,down,0.667001743304354,2556.8365004112993,None,001,41,2019_Oct_18_1208,ACPT_experiment_5_30_19,3.1.0,59.95260148858072,
,,,C,U,g,n,L,G,y,R,y,,,,,5,19,119,7,3,0,3,0,,,,,1,23,59,35,,,,,,down,0.550441863449123,2558.804599606058,None,001,41,2019_Oct_18_1208,ACPT_experiment_5_30_19,3.1.0,59.95260148858072,
,,,C,U,g,n,L,G,d,L,i,,,,,5,19,119,7,3,0,3,0,,,,,1,24,60,16,,,,,,up,0.45038707388994226,2560.639420407979,None,001,41,2019_Oct_18_1208,ACPT_experiment_5_30_19,3.1.0,59.95260148858072,
,,,C,U,g,n,R,U,y,R,u,,,,,5,19,119,7,3,0,3,0,,,,,1,25,61,31,,,,,,down,0.58380040299744,2562.374165893123,None,001,41,2019_Oct_18_1208,ACPT_experiment_5_30_19,3.1.0,59.95260148858072,
,,,C,U,g,n,R,G,g,R,c ,,,,,5,19,119,7,3,0,3,0,,,,,1,26,62,7,,,,,,up,0.6335789052654945,2564.259295886255,None,001,41,2019_Oct_18_1208,ACPT_experiment_5_30_19,3.1.0,59.95260148858072,
,,,C,U,g,n,R,G,y,R,y,,,,,5,19,119,7,3,0,3,0,,,,,1,27,63,29,,,,,,down,0.6838826628027164,2566.1939308866704,None,001,41,2019_Oct_18_1208,ACPT_experiment_5_30_19,3.1.0,59.95260148858072,
,,,C,U,g,n,R,G,y,L,y,,,,,5,19,119,7,3,0,3,0,,,,,1,28,64,28,,,,,,down,0.6840302776463432,2568.162052118001,None,001,41,2019_Oct_18_1208,ACPT_experiment_5_30_19,3.1.0,59.95260148858072,
,,,C,U,g,n,L,U,d,L,u,,,,,5,19,119,7,3,0,3,0,,,,,1,29,65,20,,,,,,up,0.6338360992249363,2570.147149660018,None,001,41,2019_Oct_18_1208,ACPT_experiment_5_30_19,3.1.0,59.95260148858072,
,,,C,U,g,n,R,U,g,L,u,,,,,5,19,119,7,3,0,3,0,,,,,1,30,66,10,,,,,,up,0.6672052042540599,2572.065366207068,None,001,41,2019_Oct_18_1208,ACPT_experiment_5_30_19,3.1.0,59.95260148858072,
,,,C,U,g,n,R,G,d,R,i,,,,,5,19,119,7,3,0,3,0,,,,,1,31,67,5,,,,,,up,0.6004977850225259,2574.0169503497928,None,001,41,2019_Oct_18_1208,ACPT_experiment_5_30_19,3.1.0,59.95260148858072,
,,,C,U,g,n,L,D,g,L,i,,,,,5,19,119,7,3,0,3,0,,,,,1,32,68,14,,,,,,up,0.6004678998097006,2575.901820130257,None,001,41,2019_Oct_18_1208,ACPT_experiment_5_30_19,3.1.0,59.95260148858072,
,,,C,U,g,n,L,U,g,R,u,,,,,5,19,119,7,3,0,3,0,,,,,1,33,69,23,,,,,,up,0.7339524704357245,2577.786679948984,None,001,41,2019_Oct_18_1208,ACPT_experiment_5_30_19,3.1.0,59.95260148858072,
,,,C,U,g,n,R,D,d,R,c ,,,,,5,19,119,7,3,0,3,0,,,,,1,34,70,1,,,,,,up,0.4837275011886959,2579.804986302611,None,001,41,2019_Oct_18_1208,ACPT_experiment_5_30_19,3.1.0,59.95260148858072,
,,,C,U,g,n,L,G,y,L,y,,,,,5,19,119,7,3,0,3,0,,,,,1,35,71,34,,,,,,down,0.7839489234529537,2581.5731075339418,None,001,41,2019_Oct_18_1208,ACPT_experiment_5_30_19,3.1.0,59.95260148858072,
,,,C,U,g,n,,,,,,,,,,5,19,119,7,4,0,4,0,0,0,0,0,,,,,,,,,,,,,,001,41,2019_Oct_18_1208,ACPT_experiment_5_30_19,3.1.0,59.95260148858072,
,,,C,U,g,n,R,D,g,L,i,,,,,5,19,119,7,4,0,4,0,,,,,0,0,0,2,,,,,,up,0.5835386809758347,2586.277179016958,None,001,41,2019_Oct_18_1208,ACPT_experiment_5_30_19,3.1.0,59.95260148858072,
,,,C,U,g,n,R,U,y,R,u,,,,,5,19,119,7,4,0,4,0,,,,,0,1,1,31,,,,,,down,0.6671828658109007,2588.145112031817,None,001,41,2019_Oct_18_1208,ACPT_experiment_5_30_19,3.1.0,59.95260148858072,
,,,C,U,g,n,R,U,g,R,u,,,,,5,19,119,7,4,0,4,0,,,,,0,2,2,11,,,,,,up,0.6672239202462151,2590.079981585878,None,001,41,2019_Oct_18_1208,ACPT_experiment_5_30_19,3.1.0,59.95260148858072,
,,,C,U,g,n,R,U,g,L,u,,,,,5,19,119,7,4,0,4,0,,,,,0,3,3,10,,,,,,down,0.5004393730141601,2592.0148789120576,None,001,41,2019_Oct_18_1208,ACPT_experiment_5_30_19,3.1.0,59.95260148858072,
,,,C,U,g,n,R,U,y,L,u,,,,,5,19,119,7,4,0,4,0,,,,,0,4,4,30,,,,,,down,0.633838514191666,2593.799691789868,None,001,41,2019_Oct_18_1208,ACPT_experiment_5_30_19,3.1.0,59.95260148858072,
,,,C,U,g,n,R,U,d,R,u,,,,,5,19,119,7,4,0,4,0,,,,,0,5,5,9,,,,,,up,0.5671117752262944,2595.717915883689,None,001,41,2019_Oct_18_1208,ACPT_experiment_5_30_19,3.1.0,59.95260148858072,
,,,C,U,g,n,R,G,d,R,i,,,,,5,19,119,7,4,0,4,0,,,,,0,6,6,5,,,,,,up,0.4837356517018634,2597.569394522554,None,001,41,2019_Oct_18_1208,ACPT_experiment_5_30_19,3.1.0,59.95260148858072,
,,,C,U,g,n,R,D,d,R,c ,,,,,5,19,119,7,4,0,4,0,,,,,0,7,7,1,,,,,,up,0.4169841593275123,2599.3542179658434,None,001,41,2019_Oct_18_1208,ACPT_experiment_5_30_19,3.1.0,59.95260148858072,
,,,C,U,g,n,R,G,g,R,c ,,,,,5,19,119,7,4,0,4,0,,,,,0,8,8,7,,,,,,up,0.433683956319328,2601.055578044934,None,001,41,2019_Oct_18_1208,ACPT_experiment_5_30_19,3.1.0,59.95260148858072,
,,,C,U,g,n,L,D,g,R,i,,,,,5,19,119,7,4,0,4,0,,,,,0,9,9,15,,,,,,up,0.4336776170312078,2602.7736478827537,None,001,41,2019_Oct_18_1208,ACPT_experiment_5_30_19,3.1.0,59.95260148858072,
,,,C,U,g,n,L,U,y,L,u,,,,,5,19,119,7,4,0,4,0,,,,,0,10,10,24,,,,,,down,0.6506134770233984,2604.4916805904595,None,001,41,2019_Oct_18_1208,ACPT_experiment_5_30_19,3.1.0,59.95260148858072,
,,,C,U,g,n,L,G,d,R,i,,,,,5,19,119,7,4,0,4,0,,,,,0,11,11,17,,,,,,up,0.7503727350258487,2606.443526757077,None,001,41,2019_Oct_18_1208,ACPT_experiment_5_30_19,3.1.0,59.95260148858072,
,,,C,U,g,n,L,D,y,L,y,,,,,5,19,119,7,4,0,4,0,,,,,0,12,12,32,,,,,,down,0.50039952606312,2608.478278732445,None,001,41,2019_Oct_18_1208,ACPT_experiment_5_30_19,3.1.0,59.95260148858072,
,,,C,U,g,n,L,U,d,R,u,,,,,5,19,119,7,4,0,4,0,,,,,0,13,13,21,,,,,,up,0.6171604519004177,2610.263063838137,None,001,41,2019_Oct_18_1208,ACPT_experiment_5_30_19,3.1.0,59.95260148858072,
,,,C,U,g,n,L,G,g,L,c ,,,,,5,19,119,7,4,0,4,0,,,,,0,14,14,18,,,,,,down,0.4170022715788946,2612.164604134121,None,001,41,2019_Oct_18_1208,ACPT_experiment_5_30_19,3.1.0,59.95260148858072,
,,,C,U,g,n,L,D,g,L,i,,,,,5,19,119,7,4,0,4,0,,,,,0,15,15,14,,,,,,down,0.5837997992557575,2613.8659889666205,None,001,41,2019_Oct_18_1208,ACPT_experiment_5_30_19,3.1.0,59.95260148858072,
,,,C,U,g,n,R,D,d,L,c,,,,,5,19,119,7,4,0,4,0,,,,,0,16,16,0,,,,,,up,0.7339216796099208,2615.734169515573,None,001,41,2019_Oct_18_1208,ACPT_experiment_5_30_19,3.1.0,59.95260148858072,
,,,C,U,g,n,L,G,y,R,y,,,,,5,19,119,7,4,0,4,0,,,,,0,17,17,35,,,,,,down,0.6171725267340662,2617.7524683224283,None,001,41,2019_Oct_18_1208,ACPT_experiment_5_30_19,3.1.0,59.95260148858072,
,,,C,U,g,n,R,G,g,L,c ,,,,,5,19,119,7,4,0,4,0,,,,,0,18,18,6,,,,,,up,0.5001631611912671,2619.670953836401,None,001,41,2019_Oct_18_1208,ACPT_experiment_5_30_19,3.1.0,59.95260148858072,
,,,C,U,g,n,R,U,d,L,u,,,,,5,19,119,7,4,0,4,0,,,,,0,19,19,8,,,,,,up,0.7339295282508829,2621.455483559359,None,001,41,2019_Oct_18_1208,ACPT_experiment_5_30_19,3.1.0,59.95260148858072,
,,,C,U,g,n,L,G,d,L,i,,,,,5,19,119,7,4,0,4,0,,,,,0,20,20,16,,,,,,up,0.6005149916609298,2623.4737618389972,None,001,41,2019_Oct_18_1208,ACPT_experiment_5_30_19,3.1.0,59.95260148858072,
,,,C,U,g,n,R,G,d,L,i,,,,,5,19,119,7,4,0,4,0,,,,,0,21,21,4,,,,,,up,0.6171776585388216,2625.3586521466796,None,001,41,2019_Oct_18_1208,ACPT_experiment_5_30_19,3.1.0,59.95260148858072,
,,,C,U,g,n,L,D,d,R,c ,,,,,5,19,119,7,4,0,4,0,,,,,0,22,22,13,,,,,,up,0.9841578180776196,2627.260199083822,None,001,41,2019_Oct_18_1208,ACPT_experiment_5_30_19,3.1.0,59.95260148858072,
,,,C,U,g,n,R,D,y,L,y,,,,,5,19,119,7,4,0,4,0,,,,,0,23,23,26,,,,,,down,0.6338931528143803,2629.528708973866,None,001,41,2019_Oct_18_1208,ACPT_experiment_5_30_19,3.1.0,59.95260148858072,
,,,C,U,g,n,L,U,d,L,u,,,,,5,19,119,7,4,0,4,0,,,,,0,24,24,20,,,,,,up,0.6505455560836708,2631.4469098236323,None,001,41,2019_Oct_18_1208,ACPT_experiment_5_30_19,3.1.0,59.95260148858072,
,,,C,U,g,n,L,U,g,R,u,,,,,5,19,119,7,4,0,4,0,,,,,0,25,25,23,,,,,,up,0.5838070441559466,2633.381835827541,None,001,41,2019_Oct_18_1208,ACPT_experiment_5_30_19,3.1.0,59.95260148858072,
,,,C,U,g,n,L,G,g,R,c ,,,,,5,19,119,7,4,0,4,0,,,,,0,26,26,19,,,,,,up,0.500407978446674,2635.2500233195233,None,001,41,2019_Oct_18_1208,ACPT_experiment_5_30_19,3.1.0,59.95260148858072,
,,,C,U,g,n,R,D,y,R,y,,,,,5,19,119,7,4,0,4,0,,,,,0,27,27,27,,,,,,down,0.8506916615724549,2637.0348029915403,None,001,41,2019_Oct_18_1208,ACPT_experiment_5_30_19,3.1.0,59.95260148858072,
,,,C,U,g,n,R,G,y,R,y,,,,,5,19,119,7,4,0,4,0,,,,,0,28,28,29,,,,,,down,0.9506078924132453,2639.203415668606,None,001,41,2019_Oct_18_1208,ACPT_experiment_5_30_19,3.1.0,59.95260148858072,
,,,C,U,g,n,R,G,y,L,y,,,,,5,19,119,7,4,0,4,0,,,,,0,29,29,28,,,,,,down,0.7672856528333796,2641.4550615439184,None,001,41,2019_Oct_18_1208,ACPT_experiment_5_30_19,3.1.0,59.95260148858072,
,,,C,U,g,n,L,U,g,L,u,,,,,5,19,119,7,4,0,4,0,,,,,0,30,30,22,,,,,,up,0.9174232304703764,2643.5067367007023,None,001,41,2019_Oct_18_1208,ACPT_experiment_5_30_19,3.1.0,59.95260148858072,
,,,C,U,g,n,R,D,g,R,i,,,,,5,19,119,7,4,0,4,0,,,,,0,31,31,3,,,,,,up,0.717263842664579,2645.7085135124935,None,001,41,2019_Oct_18_1208,ACPT_experiment_5_30_19,3.1.0,59.95260148858072,
,,,C,U,g,n,L,D,d,L,c ,,,,,5,19,119,7,4,0,4,0,,,,,0,32,32,12,,,,,,up,0.5334903061720979,2647.7270933611053,None,001,41,2019_Oct_18_1208,ACPT_experiment_5_30_19,3.1.0,59.95260148858072,
,,,C,U,g,n,L,D,y,R,y,,,,,5,19,119,7,4,0,4,0,,,,,0,33,33,33,,,,,,down,0.7172484472512224,2649.5449638132322,None,001,41,2019_Oct_18_1208,ACPT_experiment_5_30_19,3.1.0,59.95260148858072,
,,,C,U,g,n,L,U,y,R,u,,,,,5,19,119,7,4,0,4,0,,,,,0,34,34,25,,,,,,down,0.7839875629215385,2651.546590293343,None,001,41,2019_Oct_18_1208,ACPT_experiment_5_30_19,3.1.0,59.95260148858072,
,,,C,U,g,n,L,G,y,L,y,,,,,5,19,119,7,4,0,4,0,,,,,0,35,35,34,,,,,,down,0.6505292550582453,2653.614933852551,None,001,41,2019_Oct_18_1208,ACPT_experiment_5_30_19,3.1.0,59.95260148858072,
,,,C,U,g,n,R,D,g,R,i,,,,,5,19,119,7,4,0,4,0,,,,,1,0,36,3,,,,,,up,0.667200978062283,2655.5498417442095,None,001,41,2019_Oct_18_1208,ACPT_experiment_5_30_19,3.1.0,59.95260148858072,
,,,C,U,g,n,R,G,d,L,i,,,,,5,19,119,7,4,0,4,0,,,,,1,1,37,4,,,,,,up,0.6338445516084903,2657.5014289056426,None,001,41,2019_Oct_18_1208,ACPT_experiment_5_30_19,3.1.0,59.95260148858072,
,,,C,U,g,n,R,U,d,R,u,,,,,5,19,119,7,4,0,4,0,,,,,1,2,38,9,,,,,,up,0.5504672205997849,2659.41962643483,None,001,41,2019_Oct_18_1208,ACPT_experiment_5_30_19,3.1.0,59.95260148858072,
,,,C,U,g,n,L,U,g,L,u,,,,,5,19,119,7,4,0,4,0,,,,,1,3,39,22,,,,,,up,0.5837928562268644,2661.254488894926,None,001,41,2019_Oct_18_1208,ACPT_experiment_5_30_19,3.1.0,59.95260148858072,
,,,C,U,g,n,R,G,y,R,y,,,,,5,19,119,7,4,0,4,0,,,,,1,4,40,29,,,,,,down,0.7506356645317283,2663.122632917506,None,001,41,2019_Oct_18_1208,ACPT_experiment_5_30_19,3.1.0,59.95260148858072,
,,,C,U,g,n,R,G,y,L,y,,,,,5,19,119,7,4,0,4,0,,,,,1,5,41,28,,,,,,down,0.6338635694719414,2665.174326790283,None,001,41,2019_Oct_18_1208,ACPT_experiment_5_30_19,3.1.0,59.95260148858072,
,,,C,U,g,n,L,G,g,L,c ,,,,,5,19,119,7,4,0,4,0,,,,,1,6,42,18,,,,,,up,1.1509601756888515,2667.125923611583,None,001,41,2019_Oct_18_1208,ACPT_experiment_5_30_19,3.1.0,59.95260148858072,
,,,C,U,g,n,R,D,d,R,c ,,,,,5,19,119,7,4,0,4,0,,,,,1,7,43,1,,,,,,up,0.8173276883480867,2669.561227104983,None,001,41,2019_Oct_18_1208,ACPT_experiment_5_30_19,3.1.0,59.95260148858072,
,,,C,U,g,n,R,D,d,L,c,,,,,5,19,119,7,4,0,4,0,,,,,1,8,44,0,,,,,,up,0.700594836498567,2671.6462266899107,None,001,41,2019_Oct_18_1208,ACPT_experiment_5_30_19,3.1.0,59.95260148858072,
,,,C,U,g,n,L,U,g,R,u,,,,,5,19,119,7,4,0,4,0,,,,,1,9,45,23,,,,,,up,0.5004285056638764,2673.6311938237222,None,001,41,2019_Oct_18_1208,ACPT_experiment_5_30_19,3.1.0,59.95260148858072,
,,,C,U,g,n,R,U,g,L,u,,,,,5,19,119,7,4,0,4,0,,,,,1,10,46,10,,,,,,up,0.6002245919080451,2675.4162421607916,None,001,41,2019_Oct_18_1208,ACPT_experiment_5_30_19,3.1.0,59.95260148858072,
,,,C,U,g,n,L,U,y,L,u,,,,,5,19,119,7,4,0,4,0,,,,,1,11,47,24,,,,,,down,0.6505238213831035,2677.300842068721,None,001,41,2019_Oct_18_1208,ACPT_experiment_5_30_19,3.1.0,59.95260148858072,
,,,C,U,g,n,L,D,y,R,y,,,,,5,19,119,7,4,0,4,0,,,,,1,12,48,33,,,,,,down,0.6505144633865712,2679.252430135766,None,001,41,2019_Oct_18_1208,ACPT_experiment_5_30_19,3.1.0,59.95260148858072,
,,,C,U,g,n,R,U,y,R,u,,,,,5,19,119,7,4,0,4,0,,,,,1,13,49,31,,,,,,down,0.5337550469030248,2681.187333801233,None,001,41,2019_Oct_18_1208,ACPT_experiment_5_30_19,3.1.0,59.95260148858072,
,,,C,U,g,n,L,G,g,R,c ,,,,,5,19,119,7,4,0,4,0,,,,,1,14,50,19,,,,,,up,0.7506075905421312,2683.022156716249,None,001,41,2019_Oct_18_1208,ACPT_experiment_5_30_19,3.1.0,59.95260148858072,
,,,C,U,g,n,L,D,d,R,c ,,,,,5,19,119,7,4,0,4,0,,,,,1,15,51,13,,,,,,up,0.6505331793796358,2685.0571390190707,None,001,41,2019_Oct_18_1208,ACPT_experiment_5_30_19,3.1.0,59.95260148858072,
,,,C,U,g,n,L,G,y,L,y,,,,,5,19,119,7,4,0,4,0,,,,,1,16,52,34,,,,,,down,0.66722512772958,2686.992048420084,None,001,41,2019_Oct_18_1208,ACPT_experiment_5_30_19,3.1.0,59.95260148858072,
,,,C,U,g,n,L,U,d,L,u,,,,,5,19,119,7,4,0,4,0,,,,,1,17,53,20,,,,,,up,0.6171966764022727,2688.9436283366167,None,001,41,2019_Oct_18_1208,ACPT_experiment_5_30_19,3.1.0,59.95260148858072,
,,,C,U,g,n,L,D,g,L,i,,,,,5,19,119,7,4,0,4,0,,,,,1,18,54,14,,,,,,up,0.5504642018913728,2690.8451544446707,None,001,41,2019_Oct_18_1208,ACPT_experiment_5_30_19,3.1.0,59.95260148858072,
,,,C,U,g,n,R,D,g,L,i,,,,,5,19,119,7,4,0,4,0,,,,,1,19,55,2,,,,,,up,0.4670877764947363,2692.6799855102,None,001,41,2019_Oct_18_1208,ACPT_experiment_5_30_19,3.1.0,59.95260148858072,
,,,C,U,g,n,L,D,y,L,y,,,,,5,19,119,7,4,0,4,0,,,,,1,20,56,32,,,,,,down,0.6002783249186905,2694.4649550589784,None,001,41,2019_Oct_18_1208,ACPT_experiment_5_30_19,3.1.0,59.95260148858072,
,,,C,U,g,n,R,G,g,L,c ,,,,,5,19,119,7,4,0,4,0,,,,,1,21,57,6,,,,,,up,0.6505208026746914,2696.366331137223,None,001,41,2019_Oct_18_1208,ACPT_experiment_5_30_19,3.1.0,59.95260148858072,
,,,C,U,g,n,L,D,d,L,c ,,,,,5,19,119,7,4,0,4,0,,,,,1,22,58,12,,,,,,up,0.5337456889074019,2698.30124929249,None,001,41,2019_Oct_18_1208,ACPT_experiment_5_30_19,3.1.0,59.95260148858072,
,,,C,U,g,n,L,U,d,R,u,,,,,5,19,119,7,4,0,4,0,,,,,1,23,59,21,,,,,,up,0.5504765785963173,2700.1193702974188,None,001,41,2019_Oct_18_1208,ACPT_experiment_5_30_19,3.1.0,59.95260148858072,
,,,C,U,g,n,L,G,y,R,y,,,,,5,19,119,7,4,0,4,0,,,,,1,24,60,35,,,,,,down,0.6836484110272067,2701.971114884497,None,001,41,2019_Oct_18_1208,ACPT_experiment_5_30_19,3.1.0,59.95260148858072,
,,,C,U,g,n,R,D,y,R,y,,,,,5,19,119,7,4,0,4,0,,,,,1,25,61,27,,,,,,down,0.5504382409990285,2703.955830559895,None,001,41,2019_Oct_18_1208,ACPT_experiment_5_30_19,3.1.0,59.95260148858072,
,,,C,U,g,n,R,U,y,L,u,,,,,5,19,119,7,4,0,4,0,,,,,1,26,62,30,,,,,,down,0.7005601213522823,2705.8073282166224,None,001,41,2019_Oct_18_1208,ACPT_experiment_5_30_19,3.1.0,59.95260148858072,
,,,C,U,g,n,L,G,d,R,i,,,,,5,19,119,7,4,0,4,0,,,,,1,27,63,17,,,,,,up,0.7340049959620956,2707.792246749228,None,001,41,2019_Oct_18_1208,ACPT_experiment_5_30_19,3.1.0,59.95260148858072,
,,,C,U,g,n,R,G,g,R,c ,,,,,5,19,119,7,4,0,4,0,,,,,1,28,64,7,,,,,,up,0.5170836257711926,2709.8105811768437,None,001,41,2019_Oct_18_1208,ACPT_experiment_5_30_19,3.1.0,59.95260148858072,
,,,C,U,g,n,R,G,d,R,i,,,,,5,19,119,7,4,0,4,0,,,,,1,29,65,5,,,,,,up,0.5504642018904633,2711.5953430384807,None,001,41,2019_Oct_18_1208,ACPT_experiment_5_30_19,3.1.0,59.95260148858072,
,,,C,U,g,n,L,G,d,L,i,,,,,5,19,119,7,4,0,4,0,,,,,1,30,66,16,,,,,,up,0.6505534047255424,2713.413502682877,None,001,41,2019_Oct_18_1208,ACPT_experiment_5_30_19,3.1.0,59.95260148858072,
,,,C,U,g,n,R,D,y,L,y,,,,,5,19,119,7,4,0,4,0,,,,,1,31,67,26,,,,,,down,0.5836681835671698,2715.3819399729828,None,001,41,2019_Oct_18_1208,ACPT_experiment_5_30_19,3.1.0,59.95260148858072,
,,,C,U,g,n,R,U,g,R,u,,,,,5,19,119,7,4,0,4,0,,,,,1,32,68,11,,,,,,up,0.7005758186360254,2717.2666376870657,None,001,41,2019_Oct_18_1208,ACPT_experiment_5_30_19,3.1.0,59.95260148858072,
,,,C,U,g,n,L,U,y,R,u,,,,,5,19,119,7,4,0,4,0,,,,,1,33,69,25,,,,,,down,0.6338300618081121,2719.251596670365,None,001,41,2019_Oct_18_1208,ACPT_experiment_5_30_19,3.1.0,59.95260148858072,
,,,C,U,g,n,R,U,d,L,u,,,,,5,19,119,7,4,0,4,0,,,,,1,34,70,8,,,,,,up,0.9507696951859543,2721.1698065762566,None,001,41,2019_Oct_18_1208,ACPT_experiment_5_30_19,3.1.0,59.95260148858072,
,,,C,U,g,n,L,D,g,R,i,,,,,5,19,119,7,4,0,4,0,,,,,1,35,71,15,,,,,,up,0.5671476978568535,2723.404929249021,None,001,41,2019_Oct_18_1208,ACPT_experiment_5_30_19,3.1.0,59.95260148858072,
,,,C,U,g,n,,,,,,,,,,5,19,119,7,5,0,5,0,0,0,0,0,,,,,,,,,,,,,,001,41,2019_Oct_18_1208,ACPT_experiment_5_30_19,3.1.0,59.95260148858072,
,,,C,U,g,n,R,D,g,L,i,,,,,5,19,119,7,5,0,5,0,,,,,0,0,0,2,,,,,,up,0.8335704528817587,2731.51194699148,None,001,41,2019_Oct_18_1208,ACPT_experiment_5_30_19,3.1.0,59.95260148858072,
,,,C,U,g,n,L,G,y,L,y,,,,,5,19,119,7,5,0,5,0,,,,,0,1,1,34,,,,,,down,0.6671816583275358,2733.629951021456,None,001,41,2019_Oct_18_1208,ACPT_experiment_5_30_19,3.1.0,59.95260148858072,
,,,C,U,g,n,R,D,g,R,i,,,,,5,19,119,7,5,0,5,0,,,,,0,2,2,3,,,,,,up,0.7839679413164049,2735.5815104107705,None,001,41,2019_Oct_18_1208,ACPT_experiment_5_30_19,3.1.0,59.95260148858072,
,,,C,U,g,n,L,U,g,L,u,,,,,5,19,119,7,5,0,5,0,,,,,0,3,3,22,,,,,,up,0.5003925830333174,2737.6498654410707,None,001,41,2019_Oct_18_1208,ACPT_experiment_5_30_19,3.1.0,59.95260148858072,
,,,C,U,g,n,R,G,d,L,i,,,,,5,19,119,7,5,0,5,0,,,,,0,4,4,4,,,,,,up,0.5004004316751889,2739.434642698122,None,001,41,2019_Oct_18_1208,ACPT_experiment_5_30_19,3.1.0,59.95260148858072,
,,,C,U,g,n,R,D,y,L,y,,,,,5,19,119,7,5,0,5,0,,,,,0,5,5,26,,,,,,down,0.5502332706946618,2741.2362761212617,None,001,41,2019_Oct_18_1208,ACPT_experiment_5_30_19,3.1.0,59.95260148858072,
,,,C,U,g,n,L,D,d,R,c ,,,,,5,19,119,7,5,0,5,0,,,,,0,6,6,13,,,,,,up,0.5003962054834119,2743.070929082992,None,001,41,2019_Oct_18_1208,ACPT_experiment_5_30_19,3.1.0,59.95260148858072,
,,,C,U,g,n,R,U,d,R,u,,,,,5,19,119,7,5,0,5,0,,,,,0,7,7,9,,,,,,up,0.5003913755499525,2744.8723985902634,None,001,41,2019_Oct_18_1208,ACPT_experiment_5_30_19,3.1.0,59.95260148858072,
,,,C,U,g,n,L,U,d,L,u,,,,,5,19,119,7,5,0,5,0,,,,,0,8,8,20,,,,,,up,0.5504460896409,2746.640486615802,None,001,41,2019_Oct_18_1208,ACPT_experiment_5_30_19,3.1.0,59.95260148858072,
,,,C,U,g,n,R,U,g,R,u,,,,,5,19,119,7,5,0,5,0,,,,,0,9,9,11,,,,,,up,0.6004878232843112,2748.475313153267,None,001,41,2019_Oct_18_1208,ACPT_experiment_5_30_19,3.1.0,59.95260148858072,
,,,C,U,g,n,L,D,d,L,c ,,,,,5,19,119,7,5,0,5,0,,,,,0,10,10,12,,,,,,up,0.5504657112460336,2750.3601539541305,None,001,41,2019_Oct_18_1208,ACPT_experiment_5_30_19,3.1.0,59.95260148858072,
,,,C,U,g,n,L,D,y,R,y,,,,,5,19,119,7,5,0,5,0,,,,,0,11,11,33,,,,,,down,0.6505325756370439,2752.1949934720433,None,001,41,2019_Oct_18_1208,ACPT_experiment_5_30_19,3.1.0,59.95260148858072,
,,,C,U,g,n,L,G,d,R,i,,,,,5,19,119,7,5,0,5,0,,,,,0,12,12,17,,,,,,up,0.7172031666250405,2754.1299517761327,None,001,41,2019_Oct_18_1208,ACPT_experiment_5_30_19,3.1.0,59.95260148858072,
,,,C,U,g,n,L,G,y,R,y,,,,,5,19,119,7,5,0,5,0,,,,,0,13,13,35,,,,,,down,0.650556423434864,2756.1148289524326,None,001,41,2019_Oct_18_1208,ACPT_experiment_5_30_19,3.1.0,59.95260148858072,
,,,C,U,g,n,L,U,g,R,u,,,,,5,19,119,7,5,0,5,0,,,,,0,14,14,23,,,,,,up,0.5833539360191935,2758.06686076962,None,001,41,2019_Oct_18_1208,ACPT_experiment_5_30_19,3.1.0,59.95260148858072,
,,,C,U,g,n,L,G,d,L,i,,,,,5,19,119,7,5,0,5,0,,,,,0,15,15,16,,,,,,up,0.5337634992865787,2759.9346226237103,None,001,41,2019_Oct_18_1208,ACPT_experiment_5_30_19,3.1.0,59.95260148858072,
,,,C,U,g,n,L,D,y,L,y,,,,,5,19,119,7,5,0,5,0,,,,,0,16,16,32,,,,,,down,0.7172255050672902,2761.752783173719,None,001,41,2019_Oct_18_1208,ACPT_experiment_5_30_19,3.1.0,59.95260148858072,
,,,C,U,g,n,R,G,y,L,y,,,,,5,19,119,7,5,0,5,0,,,,,0,17,17,28,,,,,,up,0.683828929792071,2763.7544555381983,None,001,41,2019_Oct_18_1208,ACPT_experiment_5_30_19,3.1.0,59.95260148858072,
,,,C,U,g,n,R,U,d,L,u,,,,,5,19,119,7,5,0,5,0,,,,,0,18,18,8,,,,,,down,0.5838052329318089,2765.7226552559487,None,001,41,2019_Oct_18_1208,ACPT_experiment_5_30_19,3.1.0,59.95260148858072,
,,,C,U,g,n,L,G,g,L,c ,,,,,5,19,119,7,5,0,5,0,,,,,0,19,19,18,,,,,,up,0.7672962183123673,2767.590841842318,None,001,41,2019_Oct_18_1208,ACPT_experiment_5_30_19,3.1.0,59.95260148858072,
,,,C,U,g,n,R,D,y,R,y,,,,,5,19,119,7,5,0,5,0,,,,,0,20,20,27,,,,,,down,0.9841357815066658,2769.64251277291,None,001,41,2019_Oct_18_1208,ACPT_experiment_5_30_19,3.1.0,59.95260148858072,
,,,C,U,g,n,L,D,g,L,i,,,,,5,19,119,7,5,0,5,0,,,,,0,21,21,14,,,,,,up,0.5504485046067202,2771.9110136068284,None,001,41,2019_Oct_18_1208,ACPT_experiment_5_30_19,3.1.0,59.95260148858072,
,,,C,U,g,n,L,D,g,R,i,,,,,5,19,119,7,5,0,5,0,,,,,0,22,22,15,,,,,,up,0.583836627499295,2773.7291321967896,None,001,41,2019_Oct_18_1208,ACPT_experiment_5_30_19,3.1.0,59.95260148858072,
,,,C,U,g,n,R,G,g,L,c ,,,,,5,19,119,7,5,0,5,0,,,,,0,23,23,6,,,,,,up,0.6838962469910257,2775.597338404764,None,001,41,2019_Oct_18_1208,ACPT_experiment_5_30_19,3.1.0,59.95260148858072,
,,,C,U,g,n,R,D,d,R,c ,,,,,5,19,119,7,5,0,5,0,,,,,0,24,24,1,,,,,,up,0.6005083505024231,2777.5655888368165,None,001,41,2019_Oct_18_1208,ACPT_experiment_5_30_19,3.1.0,59.95260148858072,
,,,C,U,g,n,R,G,d,R,i,,,,,5,19,119,7,5,0,5,0,,,,,0,25,25,5,,,,,,up,0.5504237511986503,2779.4504848800443,None,001,41,2019_Oct_18_1208,ACPT_experiment_5_30_19,3.1.0,59.95260148858072,
,,,C,U,g,n,L,U,y,L,u,,,,,5,19,119,7,5,0,5,0,,,,,0,26,26,24,,,,,,down,0.6504604285055393,2781.2853548869116,None,001,41,2019_Oct_18_1208,ACPT_experiment_5_30_19,3.1.0,59.95260148858072,
,,,C,U,g,n,R,U,y,L,u,,,,,5,19,119,7,5,0,5,0,,,,,0,27,27,30,,,,,,down,0.46703494909706933,2783.220202706272,None,001,41,2019_Oct_18_1208,ACPT_experiment_5_30_19,3.1.0,59.95260148858072,
,,,C,U,g,n,R,U,y,R,u,,,,,5,19,119,7,5,0,5,0,,,,,0,28,28,31,,,,,,down,0.7005649512857417,2784.9716277630614,None,001,41,2019_Oct_18_1208,ACPT_experiment_5_30_19,3.1.0,59.95260148858072,
,,,C,U,g,n,R,D,d,L,c,,,,,5,19,119,7,5,0,5,0,,,,,0,29,29,0,,,,,,up,0.5671295856072902,2786.95656863411,None,001,41,2019_Oct_18_1208,ACPT_experiment_5_30_19,3.1.0,59.95260148858072,
,,,C,U,g,n,L,U,y,R,u,,,,,5,19,119,7,5,0,5,0,,,,,0,30,30,25,,,,,,down,0.7506275140176513,2788.8080747432214,None,001,41,2019_Oct_18_1208,ACPT_experiment_5_30_19,3.1.0,59.95260148858072,
,,,C,U,g,n,R,U,g,L,u,,,,,5,19,119,7,5,0,5,0,,,,,0,31,31,10,,,,,,up,0.5334918155267587,2790.860001056548,None,001,41,2019_Oct_18_1208,ACPT_experiment_5_30_19,3.1.0,59.95260148858072,
,,,C,U,g,n,R,G,y,R,y,,,,,5,19,119,7,5,0,5,0,,,,,0,32,32,29,,,,,,down,0.7339289245101099,2792.6778838853797,None,001,41,2019_Oct_18_1208,ACPT_experiment_5_30_19,3.1.0,59.95260148858072,
,,,C,U,g,n,R,G,g,R,c ,,,,,5,19,119,7,5,0,5,0,,,,,0,33,33,7,,,,,,up,0.5837967805473454,2794.696194767069,None,001,41,2019_Oct_18_1208,ACPT_experiment_5_30_19,3.1.0,59.95260148858072,
,,,C,U,g,n,L,U,d,R,u,,,,,5,19,119,7,5,0,5,0,,,,,0,34,34,21,,,,,,up,0.6005001999892556,2796.5643765235045,None,001,41,2019_Oct_18_1208,ACPT_experiment_5_30_19,3.1.0,59.95260148858072,
,,,C,U,g,n,L,G,g,R,c ,,,,,5,19,119,7,5,0,5,0,,,,,0,35,35,19,,,,,,up,0.5837991955140751,2798.449240266552,None,001,41,2019_Oct_18_1208,ACPT_experiment_5_30_19,3.1.0,59.95260148858072,
,,,C,U,g,n,R,U,y,L,u,,,,,5,19,119,7,5,0,5,0,,,,,1,0,36,30,,,,,,down,0.7171207558849346,2800.317434097821,None,001,41,2019_Oct_18_1208,ACPT_experiment_5_30_19,3.1.0,59.95260148858072,
,,,C,U,g,n,L,D,y,L,y,,,,,5,19,119,7,5,0,5,0,,,,,1,1,37,32,,,,,,down,0.5504479008659473,2802.3190460881315,None,001,41,2019_Oct_18_1208,ACPT_experiment_5_30_19,3.1.0,59.95260148858072,
,,,C,U,g,n,L,U,d,R,u,,,,,5,19,119,7,5,0,5,0,,,,,1,2,38,21,,,,,,up,0.6836043378834802,2804.170827805324,None,001,41,2019_Oct_18_1208,ACPT_experiment_5_30_19,3.1.0,59.95260148858072,
,,,C,U,g,n,L,D,g,R,i,,,,,5,19,119,7,5,0,5,0,,,,,1,3,39,15,,,,,,up,1.0842334367243893,2806.1387941769117,None,001,41,2019_Oct_18_1208,ACPT_experiment_5_30_19,3.1.0,59.95260148858072,
,,,C,U,g,n,L,G,g,R,c ,,,,,5,19,119,7,5,0,5,0,,,,,1,4,40,19,,,,,,up,0.5838100628643588,2808.5074002128194,None,001,41,2019_Oct_18_1208,ACPT_experiment_5_30_19,3.1.0,59.95260148858072,
,,,C,U,g,n,R,D,y,L,y,,,,,5,19,119,7,5,0,5,0,,,,,1,5,41,26,,,,,,down,0.5671446791493508,2810.375567781325,None,001,41,2019_Oct_18_1208,ACPT_experiment_5_30_19,3.1.0,59.95260148858072,
,,,C,U,g,n,L,U,g,R,u,,,,,5,19,119,7,5,0,5,0,,,,,1,6,42,23,,,,,,up,0.6171713192507013,2812.2270917008163,None,001,41,2019_Oct_18_1208,ACPT_experiment_5_30_19,3.1.0,59.95260148858072,
,,,C,U,g,n,R,D,d,L,c,,,,,5,19,119,7,5,0,5,0,,,,,1,7,43,0,,,,,,up,0.7339340563139558,2814.128634411767,None,001,41,2019_Oct_18_1208,ACPT_experiment_5_30_19,3.1.0,59.95260148858072,
,,,C,U,g,n,R,G,y,R,y,,,,,5,19,119,7,5,0,5,0,,,,,1,8,44,29,,,,,,down,0.7339222833506938,2816.146947104681,None,001,41,2019_Oct_18_1208,ACPT_experiment_5_30_19,3.1.0,59.95260148858072,
,,,C,U,g,n,L,D,d,L,c ,,,,,5,19,119,7,5,0,5,0,,,,,1,9,45,12,,,,,,up,0.717218863909693,2818.165270966817,None,001,41,2019_Oct_18_1208,ACPT_experiment_5_30_19,3.1.0,59.95260148858072,
,,,C,U,g,n,L,D,g,L,i,,,,,5,19,119,7,5,0,5,0,,,,,1,10,46,14,,,,,,up,0.46705758941061504,2820.150176518977,None,001,41,2019_Oct_18_1208,ACPT_experiment_5_30_19,3.1.0,59.95260148858072,
,,,C,U,g,n,L,G,d,R,i,,,,,5,19,119,7,5,0,5,0,,,,,1,11,47,17,,,,,,up,0.6338638713423279,2821.9016230085963,None,001,41,2019_Oct_18_1208,ACPT_experiment_5_30_19,3.1.0,59.95260148858072,
,,,C,U,g,n,R,G,g,L,c ,,,,,5,19,119,7,5,0,5,0,,,,,1,12,48,6,,,,,,up,0.48346276045776904,2823.836784471764,None,001,41,2019_Oct_18_1208,ACPT_experiment_5_30_19,3.1.0,59.95260148858072,
,,,C,U,g,n,L,U,y,L,u,,,,,5,19,119,7,5,0,5,0,,,,,1,13,49,24,,,,,,down,0.6838781347396434,2825.6213075535634,None,001,41,2019_Oct_18_1208,ACPT_experiment_5_30_19,3.1.0,59.95260148858072,
,,,C,U,g,n,L,U,g,L,u,,,,,5,19,119,7,5,0,5,0,,,,,1,14,50,22,,,,,,up,0.6004754465802762,2827.6062635181543,None,001,41,2019_Oct_18_1208,ACPT_experiment_5_30_19,3.1.0,59.95260148858072,
,,,C,U,g,n,L,D,y,R,y,,,,,5,19,119,7,5,0,5,0,,,,,1,15,51,33,,,,,,down,0.9507618465440828,2829.5078013991715,None,001,41,2019_Oct_18_1208,ACPT_experiment_5_30_19,3.1.0,59.95260148858072,
,,,C,U,g,n,R,G,d,L,i,,,,,5,19,119,7,5,0,5,0,,,,,1,16,52,4,,,,,,up,0.5170455900442903,2831.7596576784626,None,001,41,2019_Oct_18_1208,ACPT_experiment_5_30_19,3.1.0,59.95260148858072,
,,,C,U,g,n,R,U,g,L,u,,,,,5,19,119,7,5,0,5,0,,,,,1,17,53,10,,,,,,up,0.8007374704729955,2833.561092470586,None,001,41,2019_Oct_18_1208,ACPT_experiment_5_30_19,3.1.0,59.95260148858072,
,,,C,U,g,n,R,U,g,R,u,,,,,5,19,119,7,5,0,5,0,,,,,1,18,54,11,,,,,,up,0.6839167742082282,2835.629413691352,None,001,41,2019_Oct_18_1208,ACPT_experiment_5_30_19,3.1.0,59.95260148858072,
,,,C,U,g,n,L,G,g,L,c ,,,,,5,19,119,7,5,0,5,0,,,,,1,19,55,18,,,,,,up,0.5337921770178582,2837.581021983744,None,001,41,2019_Oct_18_1208,ACPT_experiment_5_30_19,3.1.0,59.95260148858072,
,,,C,U,g,n,L,D,d,R,c ,,,,,5,19,119,7,5,0,5,0,,,,,1,20,56,13,,,,,,up,0.6005119729525177,2839.3991366493847,None,001,41,2019_Oct_18_1208,ACPT_experiment_5_30_19,3.1.0,59.95260148858072,
,,,C,U,g,n,L,U,y,R,u,,,,,5,19,119,7,5,0,5,0,,,,,1,21,57,25,,,,,,up,0.4837030496501029,2841.284044465576,None,001,41,2019_Oct_18_1208,ACPT_experiment_5_30_19,3.1.0,59.95260148858072,
,,,C,U,g,n,R,D,g,R,i,,,,,5,19,119,7,5,0,5,0,,,,,1,22,58,3,,,,,,up,0.9004807293194972,2843.069078614715,None,001,41,2019_Oct_18_1208,ACPT_experiment_5_30_19,3.1.0,59.95260148858072,
,,,C,U,g,n,R,U,y,R,u,,,,,5,19,119,7,5,0,5,0,,,,,1,23,59,31,,,,,,down,0.7172683707276519,2845.2538945112337,None,001,41,2019_Oct_18_1208,ACPT_experiment_5_30_19,3.1.0,59.95260148858072,
,,,C,U,g,n,R,G,y,L,y,,,,,5,19,119,7,5,0,5,0,,,,,1,24,60,28,,,,,,down,0.5838330050482909,2847.2388625506574,None,001,41,2019_Oct_18_1208,ACPT_experiment_5_30_19,3.1.0,59.95260148858072,
,,,C,U,g,n,R,G,d,R,i,,,,,5,19,119,7,5,0,5,0,,,,,1,25,61,5,,,,,,up,0.5504491083484027,2849.0903680560277,None,001,41,2019_Oct_18_1208,ACPT_experiment_5_30_19,3.1.0,59.95260148858072,
,,,C,U,g,n,R,D,d,R,c ,,,,,5,19,119,7,5,0,5,0,,,,,1,26,62,1,,,,,,up,0.7506398907225957,2850.925161085829,None,001,41,2019_Oct_18_1208,ACPT_experiment_5_30_19,3.1.0,59.95260148858072,
,,,C,U,g,n,L,G,y,L,y,,,,,5,19,119,7,5,0,5,0,,,,,1,27,63,34,,,,,,down,0.7005586119976215,2852.976856769831,None,001,41,2019_Oct_18_1208,ACPT_experiment_5_30_19,3.1.0,59.95260148858072,
,,,C,U,g,n,R,D,g,L,i,,,,,5,19,119,7,5,0,5,0,,,,,1,28,64,2,,,,,,up,0.6838850777694461,2854.978484155554,None,001,41,2019_Oct_18_1208,ACPT_experiment_5_30_19,3.1.0,59.95260148858072,
,,,C,U,g,n,R,D,y,R,y,,,,,5,19,119,7,5,0,5,0,,,,,1,29,65,27,,,,,,down,0.5837596504334215,2856.946791641197,None,001,41,2019_Oct_18_1208,ACPT_experiment_5_30_19,3.1.0,59.95260148858072,
,,,C,U,g,n,L,G,y,R,y,,,,,5,19,119,7,5,0,5,0,,,,,1,30,66,35,,,,,,down,0.5838031198345561,2858.814931135714,None,001,41,2019_Oct_18_1208,ACPT_experiment_5_30_19,3.1.0,59.95260148858072,
