facing_vig,person_vig,text_vig,facing_train,person_train,food_train,correct_key_train,facing_exp,person_exp,food_exp,showL_R,consistent,vig_random.thisRepN,vig_random.thisTrialN,vig_random.thisN,vig_random.thisIndex,trainTrials.thisRepN,trainTrials.thisTrialN,trainTrials.thisN,trainTrials.thisIndex,expBlock.thisRepN,expBlock.thisTrialN,expBlock.thisN,expBlock.thisIndex,breakLoop.thisRepN,breakLoop.thisTrialN,breakLoop.thisN,breakLoop.thisIndex,expTrials.thisRepN,expTrials.thisTrialN,expTrials.thisN,expTrials.thisIndex,train_resp.keys,train_resp.corr,train_resp.rt,train_resp.started,train_resp.stopped,exp_resp.keys,exp_resp.rt,exp_resp.started,exp_resp.stopped,session,participant,date,expName,psychopyVersion,frameRate,
C,U,"did not report her food preferences, so her food preferences are unknown.",,,,,,,,,,0,0,0,2,,,,,,,,,,,,,,,,,,,,,,,,,,001,42,2019_Oct_18_1359,ACPT_experiment_5_30_19,3.1.0,59.940777117270585,
C,D,"is allergic to gluten, meaning she can’t eat wheat products. She enjoys eating dairy products. She thinks eating insects, like crickets, is disgusting.",,,,,,,,,,0,1,1,1,,,,,,,,,,,,,,,,,,,,,,,,,,001,42,2019_Oct_18_1359,ACPT_experiment_5_30_19,3.1.0,59.940777117270585,
C,G,"cannot eat dairy products because she is lactose intolerant. She enjoys eating wheat products. She thinks eating insects, like crickets, is disgusting.",,,,,,,,,,0,2,2,0,,,,,,,,,,,,,,,,,,,,,,,,,,001,42,2019_Oct_18_1359,ACPT_experiment_5_30_19,3.1.0,59.940777117270585,
,,,C,D,g,b,,,,,,,,,,0,0,0,1,,,,,,,,,,,,,b,1,6.738611243179548,162.2494011637118,None,,,,,001,42,2019_Oct_18_1359,ACPT_experiment_5_30_19,3.1.0,59.940777117270585,
,,,C,G,d,b,,,,,,,,,,0,1,1,3,,,,,,,,,,,,,b,1,5.6713006860009045,172.2739864309042,None,,,,,001,42,2019_Oct_18_1359,ACPT_experiment_5_30_19,3.1.0,59.940777117270585,
,,,C,G,y,b,,,,,,,,,,0,2,2,14,,,,,,,,,,,,,b,1,2.602141471770665,181.2312759325905,None,,,,,001,42,2019_Oct_18_1359,ACPT_experiment_5_30_19,3.1.0,59.940777117270585,
,,,C,G,y,b,,,,,,,,,,0,3,3,5,,,,,,,,,,,,,b,1,1.7015412015971378,187.1025684680808,None,,,,,001,42,2019_Oct_18_1359,ACPT_experiment_5_30_19,3.1.0,59.940777117270585,
,,,C,G,g,v,,,,,,,,,,0,4,4,4,,,,,,,,,,,,,v,1,4.487024534551892,192.07340110333644,None,,,,,001,42,2019_Oct_18_1359,ACPT_experiment_5_30_19,3.1.0,59.940777117270585,
,,,C,U,y,n,,,,,,,,,,0,5,5,17,,,,,,,,,,,,,n,1,1.9349097028825781,199.84642532092585,None,,,,,001,42,2019_Oct_18_1359,ACPT_experiment_5_30_19,3.1.0,59.940777117270585,
,,,C,U,g,n,,,,,,,,,,0,6,6,7,,,,,,,,,,,,,n,1,1.167628879984477,205.05064426784884,None,,,,,001,42,2019_Oct_18_1359,ACPT_experiment_5_30_19,3.1.0,59.940777117270585,
,,,C,G,g,v,,,,,,,,,,0,7,7,19,,,,,,,,,,,,,v,1,5.337416740247136,209.5212252937581,None,,,,,001,42,2019_Oct_18_1359,ACPT_experiment_5_30_19,3.1.0,59.940777117270585,
,,,C,D,d,v,,,,,,,,,,0,8,8,18,,,,,,,,,,,,,v,1,4.170067694538375,218.14463054781845,None,,,,,001,42,2019_Oct_18_1359,ACPT_experiment_5_30_19,3.1.0,59.940777117270585,
,,,C,D,d,v,,,,,,,,,,0,9,9,9,,,,,,,,,,,,,v,1,2.552092493226155,225.6006982272629,None,,,,,001,42,2019_Oct_18_1359,ACPT_experiment_5_30_19,3.1.0,59.940777117270585,
,,,C,G,d,b,,,,,,,,,,0,10,10,12,,,,,,,,,,,,,b,1,3.2526329929751228,231.43880187461764,None,,,,,001,42,2019_Oct_18_1359,ACPT_experiment_5_30_19,3.1.0,59.940777117270585,
,,,C,U,y,n,,,,,,,,,,0,11,11,8,,,,,,,,,,,,,n,1,1.6013052895323199,237.97743364501366,None,,,,,001,42,2019_Oct_18_1359,ACPT_experiment_5_30_19,3.1.0,59.940777117270585,
,,,C,U,d,n,,,,,,,,,,0,12,12,15,,,,,,,,,,,,,n,1,1.8014821858469077,242.84805270664947,None,,,,,001,42,2019_Oct_18_1359,ACPT_experiment_5_30_19,3.1.0,59.940777117270585,
,,,C,D,y,b,,,,,,,,,,0,13,13,11,,,,,,,,,,,,,b,1,2.185124106650619,247.93550167160902,None,,,,,001,42,2019_Oct_18_1359,ACPT_experiment_5_30_19,3.1.0,59.940777117270585,
,,,C,D,d,v,,,,,,,,,,0,14,14,0,,,,,,,,,,,,,b,0,6.271774925098725,253.4066474978663,None,,,,,001,42,2019_Oct_18_1359,ACPT_experiment_5_30_19,3.1.0,59.940777117270585,
,,,C,D,y,b,,,,,,,,,,0,15,15,2,,,,,,,,,,,,,n,0,1.2176500864097761,262.9644260303212,None,,,,,001,42,2019_Oct_18_1359,ACPT_experiment_5_30_19,3.1.0,59.940777117270585,
,,,C,D,g,b,,,,,,,,,,0,16,16,10,,,,,,,,,,,,,b,1,3.0355522349764215,267.4850101504071,None,,,,,001,42,2019_Oct_18_1359,ACPT_experiment_5_30_19,3.1.0,59.940777117270585,
,,,C,U,g,n,,,,,,,,,,0,17,17,16,,,,,,,,,,,,,n,1,1.6680501407481643,273.8065723320269,None,,,,,001,42,2019_Oct_18_1359,ACPT_experiment_5_30_19,3.1.0,59.940777117270585,
,,,C,G,g,v,,,,,,,,,,0,18,18,13,,,,,,,,,,,,,b,0,5.988200472427707,278.7606004211084,None,,,,,001,42,2019_Oct_18_1359,ACPT_experiment_5_30_19,3.1.0,59.940777117270585,
,,,C,U,d,n,,,,,,,,,,0,19,19,6,,,,,,,,,,,,,n,1,1.601328835458844,288.03479967096064,None,,,,,001,42,2019_Oct_18_1359,ACPT_experiment_5_30_19,3.1.0,59.940777117270585,
,,,C,D,d,v,,,,,,,,,,1,0,20,9,,,,,,,,,,,,,v,1,2.5187357649028854,292.92209800236924,None,,,,,001,42,2019_Oct_18_1359,ACPT_experiment_5_30_19,3.1.0,59.940777117270585,
,,,C,G,y,b,,,,,,,,,,1,1,21,14,,,,,,,,,,,,,b,1,1.4678973941008735,298.7268159417981,None,,,,,001,42,2019_Oct_18_1359,ACPT_experiment_5_30_19,3.1.0,59.940777117270585,
,,,C,D,y,b,,,,,,,,,,1,2,22,2,,,,,,,,,,,,,b,1,2.301874165137633,303.48071724512556,None,,,,,001,42,2019_Oct_18_1359,ACPT_experiment_5_30_19,3.1.0,59.940777117270585,
,,,C,U,y,n,,,,,,,,,,1,3,23,17,,,,,,,,,,,,,n,1,1.718074969623558,309.0685805278208,None,,,,,001,42,2019_Oct_18_1359,ACPT_experiment_5_30_19,3.1.0,59.940777117270585,
,,,C,G,g,v,,,,,,,,,,1,4,24,4,,,,,,,,,,,,,v,1,4.3702334216304735,314.0726542748671,None,,,,,001,42,2019_Oct_18_1359,ACPT_experiment_5_30_19,3.1.0,59.940777117270585,
,,,C,G,d,b,,,,,,,,,,1,5,25,3,,,,,,,,,,,,,b,1,2.3519255586506915,321.71219814802134,None,,,,,001,42,2019_Oct_18_1359,ACPT_experiment_5_30_19,3.1.0,59.940777117270585,
,,,C,G,g,v,,,,,,,,,,1,6,26,19,,,,,,,,,,,,,v,1,3.235974250417712,327.3334411012238,None,,,,,001,42,2019_Oct_18_1359,ACPT_experiment_5_30_19,3.1.0,59.940777117270585,
,,,C,U,g,n,,,,,,,,,,1,7,27,7,,,,,,,,,,,,,n,1,1.1342682273389073,333.8554074879048,None,,,,,001,42,2019_Oct_18_1359,ACPT_experiment_5_30_19,3.1.0,59.940777117270585,
,,,C,U,d,n,,,,,,,,,,1,8,28,15,,,,,,,,,,,,,n,1,1.2009750428278494,338.25900246779383,None,,,,,001,42,2019_Oct_18_1359,ACPT_experiment_5_30_19,3.1.0,59.940777117270585,
,,,C,U,d,n,,,,,,,,,,1,9,29,6,,,,,,,,,,,,,n,1,3.302700687510878,342.7459702506276,None,,,,,001,42,2019_Oct_18_1359,ACPT_experiment_5_30_19,3.1.0,59.940777117270585,
,,,C,G,g,v,,,,,,,,,,1,10,30,13,,,,,,,,,,,,,v,1,4.186746964311169,349.3346654893703,None,,,,,001,42,2019_Oct_18_1359,ACPT_experiment_5_30_19,3.1.0,59.940777117270585,
,,,C,D,g,b,,,,,,,,,,1,11,31,1,,,,,,,,,,,,,b,1,4.32021976197575,356.8073792327941,None,,,,,001,42,2019_Oct_18_1359,ACPT_experiment_5_30_19,3.1.0,59.940777117270585,
,,,C,D,d,v,,,,,,,,,,1,12,32,18,,,,,,,,,,,,,v,1,1.0340573705543648,364.41359233851654,None,,,,,001,42,2019_Oct_18_1359,ACPT_experiment_5_30_19,3.1.0,59.940777117270585,
,,,C,U,g,n,,,,,,,,,,1,13,33,16,,,,,,,,,,,,,n,1,1.5344852724756493,368.75056200804465,None,,,,,001,42,2019_Oct_18_1359,ACPT_experiment_5_30_19,3.1.0,59.940777117270585,
,,,C,D,y,b,,,,,,,,,,1,14,34,11,,,,,,,,,,,,,b,1,2.085032186978424,373.57104575607264,None,,,,,001,42,2019_Oct_18_1359,ACPT_experiment_5_30_19,3.1.0,59.940777117270585,
,,,C,D,g,b,,,,,,,,,,1,15,35,10,,,,,,,,,,,,,b,1,2.2018033764252323,378.94207521112,None,,,,,001,42,2019_Oct_18_1359,ACPT_experiment_5_30_19,3.1.0,59.940777117270585,
,,,C,G,d,b,,,,,,,,,,1,16,36,12,,,,,,,,,,,,,b,1,3.6196128506417153,384.4298743462605,None,,,,,001,42,2019_Oct_18_1359,ACPT_experiment_5_30_19,3.1.0,59.940777117270585,
,,,C,U,y,n,,,,,,,,,,1,17,37,8,,,,,,,,,,,,,n,1,1.3511083942721598,391.3354923136121,None,,,,,001,42,2019_Oct_18_1359,ACPT_experiment_5_30_19,3.1.0,59.940777117270585,
,,,C,G,y,b,,,,,,,,,,1,18,38,5,,,,,,,,,,,,,b,1,1.6347806530975504,396.00596225105073,None,,,,,001,42,2019_Oct_18_1359,ACPT_experiment_5_30_19,3.1.0,59.940777117270585,
,,,C,D,d,v,,,,,,,,,,1,19,39,0,,,,,,,,,,,,,v,1,5.9548687993847125,400.9266004060155,None,,,,,001,42,2019_Oct_18_1359,ACPT_experiment_5_30_19,3.1.0,59.940777117270585,
,,,C,G,y,b,,,,,,,,,,2,0,40,14,,,,,,,,,,,,,b,1,1.7514289811115304,410.1674722090138,None,,,,,001,42,2019_Oct_18_1359,ACPT_experiment_5_30_19,3.1.0,59.940777117270585,
,,,C,G,y,b,,,,,,,,,,2,1,41,5,,,,,,,,,,,,,b,1,1.2678629808233381,415.20475054147937,None,,,,,001,42,2019_Oct_18_1359,ACPT_experiment_5_30_19,3.1.0,59.940777117270585,
,,,C,G,g,v,,,,,,,,,,2,2,42,4,,,,,,,,,,,,,v,1,2.36818220924215,419.7756891334029,None,,,,,001,42,2019_Oct_18_1359,ACPT_experiment_5_30_19,3.1.0,59.940777117270585,
,,,C,D,d,v,,,,,,,,,,2,3,43,18,,,,,,,,,,,,,v,1,3.1525920894746378,425.4298831005144,None,,,,,001,42,2019_Oct_18_1359,ACPT_experiment_5_30_19,3.1.0,59.940777117270585,
,,,C,U,y,n,,,,,,,,,,2,4,44,17,,,,,,,,,,,,,n,1,0.984142724535559,431.8684549495483,None,,,,,001,42,2019_Oct_18_1359,ACPT_experiment_5_30_19,3.1.0,59.940777117270585,
,,,C,G,d,b,,,,,,,,,,2,5,45,3,,,,,,,,,,,,,b,1,2.118138060630372,436.15549578512764,None,,,,,001,42,2019_Oct_18_1359,ACPT_experiment_5_30_19,3.1.0,59.940777117270585,
,,,C,D,g,b,,,,,,,,,,2,6,46,10,,,,,,,,,,,,,b,1,1.9515922932368994,441.5596658289742,None,,,,,001,42,2019_Oct_18_1359,ACPT_experiment_5_30_19,3.1.0,59.940777117270585,
,,,C,U,d,n,,,,,,,,,,2,7,47,15,,,,,,,,,,,,,n,1,2.035005245006687,446.79725206970033,None,,,,,001,42,2019_Oct_18_1359,ACPT_experiment_5_30_19,3.1.0,59.940777117270585,
,,,C,D,d,v,,,,,,,,,,2,8,48,0,,,,,,,,,,,,,v,1,4.236787792342511,452.1015677662308,None,,,,,001,42,2019_Oct_18_1359,ACPT_experiment_5_30_19,3.1.0,59.940777117270585,
,,,C,D,y,b,,,,,,,,,,2,9,49,2,,,,,,,,,,,,,b,1,1.3511083942739788,459.60767476435103,None,,,,,001,42,2019_Oct_18_1359,ACPT_experiment_5_30_19,3.1.0,59.940777117270585,
,,,C,U,y,n,,,,,,,,,,2,10,50,8,,,,,,,,,,,,,n,1,1.3006494751207356,464.261846091149,None,,,,,001,42,2019_Oct_18_1359,ACPT_experiment_5_30_19,3.1.0,59.940777117270585,
,,,C,G,g,v,,,,,,,,,,2,11,51,13,,,,,,,,,,,,,v,1,5.137544733484901,468.84849464556464,None,,,,,001,42,2019_Oct_18_1359,ACPT_experiment_5_30_19,3.1.0,59.940777117270585,
,,,C,U,g,n,,,,,,,,,,2,12,52,16,,,,,,,,,,,,,n,1,1.3677903808857081,477.27203664712033,None,,,,,001,42,2019_Oct_18_1359,ACPT_experiment_5_30_19,3.1.0,59.940777117270585,
,,,C,U,g,n,,,,,,,,,,2,13,53,7,,,,,,,,,,,,,n,1,1.1177217807362467,481.9089989208114,None,,,,,001,42,2019_Oct_18_1359,ACPT_experiment_5_30_19,3.1.0,59.940777117270585,
,,,C,G,g,v,,,,,,,,,,2,14,54,19,,,,,,,,,,,,,v,1,1.884883968394206,486.3127194789704,None,,,,,001,42,2019_Oct_18_1359,ACPT_experiment_5_30_19,3.1.0,59.940777117270585,
,,,C,D,y,b,,,,,,,,,,2,15,55,11,,,,,,,,,,,,,b,1,1.2508966318764578,491.48359014995367,None,,,,,001,42,2019_Oct_18_1359,ACPT_experiment_5_30_19,3.1.0,59.940777117270585,
,,,C,U,d,n,,,,,,,,,,2,16,56,6,,,,,,,,,,,,,n,1,0.9474548514408525,496.05729055823394,None,,,,,001,42,2019_Oct_18_1359,ACPT_experiment_5_30_19,3.1.0,59.940777117270585,
,,,C,D,d,v,,,,,,,,,,2,17,57,9,,,,,,,,,,,,,v,1,2.0183501248993707,500.2907242636229,None,,,,,001,42,2019_Oct_18_1359,ACPT_experiment_5_30_19,3.1.0,59.940777117270585,
,,,C,G,d,b,,,,,,,,,,2,18,58,12,,,,,,,,,,,,,b,1,2.0016648177079333,505.5950360358311,None,,,,,001,42,2019_Oct_18_1359,ACPT_experiment_5_30_19,3.1.0,59.940777117270585,
,,,C,D,g,b,,,,,,,,,,2,19,59,1,,,,,,,,,,,,,b,1,1.8515136558835366,510.8826941972875,None,,,,,001,42,2019_Oct_18_1359,ACPT_experiment_5_30_19,3.1.0,59.940777117270585,
,,,C,G,g,v,,,,,,,,,,3,0,60,4,,,,,,,,,,,,,v,1,3.419463726444519,516.0201939520175,None,,,,,001,42,2019_Oct_18_1359,ACPT_experiment_5_30_19,3.1.0,59.940777117270585,
,,,C,D,y,b,,,,,,,,,,3,1,61,11,,,,,,,,,,,,,b,1,1.3677924939802324,522.7256516259513,None,,,,,001,42,2019_Oct_18_1359,ACPT_experiment_5_30_19,3.1.0,59.940777117270585,
,,,C,D,d,v,,,,,,,,,,3,2,62,18,,,,,,,,,,,,,v,1,3.115893650901853,527.3994327846831,None,,,,,001,42,2019_Oct_18_1359,ACPT_experiment_5_30_19,3.1.0,59.940777117270585,
,,,C,U,y,n,,,,,,,,,,3,3,63,8,,,,,,,,,,,,,n,1,1.1342896601690882,533.8013309485523,None,,,,,001,42,2019_Oct_18_1359,ACPT_experiment_5_30_19,3.1.0,59.940777117270585,
,,,C,D,d,v,,,,,,,,,,3,4,64,0,,,,,,,,,,,,,v,1,5.854793784479625,538.2215704830687,None,,,,,001,42,2019_Oct_18_1359,ACPT_experiment_5_30_19,3.1.0,59.940777117270585,
,,,C,U,d,n,,,,,,,,,,3,5,65,6,,,,,,,,,,,,,n,1,1.1509333091835288,547.362356705682,None,,,,,001,42,2019_Oct_18_1359,ACPT_experiment_5_30_19,3.1.0,59.940777117270585,
,,,C,G,y,b,,,,,,,,,,3,6,66,14,,,,,,,,,,,,,b,1,1.917974144762411,551.8162391420828,None,,,,,001,42,2019_Oct_18_1359,ACPT_experiment_5_30_19,3.1.0,59.940777117270585,
,,,C,D,d,v,,,,,,,,,,3,7,67,9,,,,,,,,,,,,,v,1,2.4520322699936514,557.0201779528616,None,,,,,001,42,2019_Oct_18_1359,ACPT_experiment_5_30_19,3.1.0,59.940777117270585,
,,,C,U,y,n,,,,,,,,,,3,8,68,17,,,,,,,,,,,,,n,1,1.1676162014082365,562.7582035666037,None,,,,,001,42,2019_Oct_18_1359,ACPT_experiment_5_30_19,3.1.0,59.940777117270585,
,,,C,D,y,b,,,,,,,,,,3,9,69,2,,,,,,,,,,,,,b,1,2.7021066056895506,567.2452625144324,None,,,,,001,42,2019_Oct_18_1359,ACPT_experiment_5_30_19,3.1.0,59.940777117270585,
,,,C,U,g,n,,,,,,,,,,3,10,70,16,,,,,,,,,,,,,n,1,1.6513446082080918,573.2333851041822,None,,,,,001,42,2019_Oct_18_1359,ACPT_experiment_5_30_19,3.1.0,59.940777117270585,
,,,C,U,d,n,,,,,,,,,,3,11,71,15,,,,,,,,,,,,,n,1,1.0842470209117891,578.1706976989881,None,,,,,001,42,2019_Oct_18_1359,ACPT_experiment_5_30_19,3.1.0,59.940777117270585,
,,,C,D,g,b,,,,,,,,,,3,12,72,1,,,,,,,,,,,,,b,1,7.122223580639911,582.5578699993202,None,,,,,001,42,2019_Oct_18_1359,ACPT_experiment_5_30_19,3.1.0,59.940777117270585,
,,,C,G,d,b,,,,,,,,,,3,13,73,3,,,,,,,,,,,,,b,1,1.5846568105844199,592.9660600572042,None,,,,,001,42,2019_Oct_18_1359,ACPT_experiment_5_30_19,3.1.0,59.940777117270585,
,,,C,U,g,n,,,,,,,,,,3,14,74,7,,,,,,,,,,,,,n,1,1.2510457560729265,597.8366893824477,None,,,,,001,42,2019_Oct_18_1359,ACPT_experiment_5_30_19,3.1.0,59.940777117270585,
,,,C,D,g,b,,,,,,,,,,3,15,75,10,,,,,,,,,,,,,b,1,3.6663349106074747,602.3937355762337,None,,,,,001,42,2019_Oct_18_1359,ACPT_experiment_5_30_19,3.1.0,59.940777117270585,
,,,C,G,g,v,,,,,,,,,,3,16,76,13,,,,,,,,,,,,,v,1,2.718878549812871,609.3460746979399,None,,,,,001,42,2019_Oct_18_1359,ACPT_experiment_5_30_19,3.1.0,59.940777117270585,
,,,C,G,d,b,,,,,,,,,,3,17,77,12,,,,,,,,,,,,,b,1,2.1517628502642765,615.3342715479175,None,,,,,001,42,2019_Oct_18_1359,ACPT_experiment_5_30_19,3.1.0,59.940777117270585,
,,,C,G,y,b,,,,,,,,,,3,18,78,5,,,,,,,,,,,,,b,1,0.917426852920471,620.7553394160295,None,,,,,001,42,2019_Oct_18_1359,ACPT_experiment_5_30_19,3.1.0,59.940777117270585,
,,,C,G,g,v,,,,,,,,,,3,19,79,19,,,,,,,,,,,,,v,1,1.6313625695238443,624.9787476888014,None,,,,,001,42,2019_Oct_18_1359,ACPT_experiment_5_30_19,3.1.0,59.940777117270585,
,,,C,U,y,n,,,,,,,,,,4,0,80,17,,,,,,,,,,,,,n,1,1.100900631665354,629.8961033002015,None,,,,,001,42,2019_Oct_18_1359,ACPT_experiment_5_30_19,3.1.0,59.940777117270585,
,,,C,G,y,b,,,,,,,,,,4,1,81,14,,,,,,,,,,,,,b,1,1.2809406295527879,634.3031000626379,None,,,,,001,42,2019_Oct_18_1359,ACPT_experiment_5_30_19,3.1.0,59.940777117270585,
,,,C,G,g,v,,,,,,,,,,4,2,82,13,,,,,,,,,,,,,v,1,1.2176648780823598,638.8533837457635,None,,,,,001,42,2019_Oct_18_1359,ACPT_experiment_5_30_19,3.1.0,59.940777117270585,
,,,C,D,d,v,,,,,,,,,,4,3,83,9,,,,,,,,,,,,,v,1,3.135651399548806,643.3739675639772,None,,,,,001,42,2019_Oct_18_1359,ACPT_experiment_5_30_19,3.1.0,59.940777117270585,
,,,C,U,d,n,,,,,,,,,,4,4,84,6,,,,,,,,,,,,,n,1,1.1009048578562215,649.7956071754688,None,,,,,001,42,2019_Oct_18_1359,ACPT_experiment_5_30_19,3.1.0,59.940777117270585,
,,,C,D,g,b,,,,,,,,,,4,5,85,1,,,,,,,,,,,,,b,1,2.4350290928032337,654.2161531088914,None,,,,,001,42,2019_Oct_18_1359,ACPT_experiment_5_30_19,3.1.0,59.940777117270585,
,,,C,G,d,b,,,,,,,,,,4,6,86,12,,,,,,,,,,,,,b,1,2.468703389255097,659.9371649799632,None,,,,,001,42,2019_Oct_18_1359,ACPT_experiment_5_30_19,3.1.0,59.940777117270585,
,,,C,D,d,v,,,,,,,,,,4,7,87,0,,,,,,,,,,,,,v,1,2.1851621423775214,665.6918653354151,None,,,,,001,42,2019_Oct_18_1359,ACPT_experiment_5_30_19,3.1.0,59.940777117270585,
,,,C,D,y,b,,,,,,,,,,4,8,88,2,,,,,,,,,,,,,b,1,1.467897092228668,671.1462760457925,None,,,,,001,42,2019_Oct_18_1359,ACPT_experiment_5_30_19,3.1.0,59.940777117270585,
,,,C,U,y,n,,,,,,,,,,4,9,89,8,,,,,,,,,,,,,n,1,1.184334110650525,675.9001402190061,None,,,,,001,42,2019_Oct_18_1359,ACPT_experiment_5_30_19,3.1.0,59.940777117270585,
,,,C,U,d,n,,,,,,,,,,4,10,90,15,,,,,,,,,,,,,n,1,1.0005614797701128,680.3874035333974,None,,,,,001,42,2019_Oct_18_1359,ACPT_experiment_5_30_19,3.1.0,59.940777117270585,
,,,C,D,y,b,,,,,,,,,,4,11,91,11,,,,,,,,,,,,,b,1,1.0341820432131499,684.6739604700124,None,,,,,001,42,2019_Oct_18_1359,ACPT_experiment_5_30_19,3.1.0,59.940777117270585,
,,,C,G,g,v,,,,,,,,,,4,12,92,4,,,,,,,,,,,,,v,1,1.6844797633330018,689.0110520953604,None,,,,,001,42,2019_Oct_18_1359,ACPT_experiment_5_30_19,3.1.0,59.940777117270585,
,,,C,D,d,v,,,,,,,,,,4,13,93,18,,,,,,,,,,,,,b,0,2.1517655671032117,693.9815209762492,None,,,,,001,42,2019_Oct_18_1359,ACPT_experiment_5_30_19,3.1.0,59.940777117270585,
,,,C,G,g,v,,,,,,,,,,4,14,94,19,,,,,,,,,,,,,v,1,1.5679787482931715,699.419252416852,None,,,,,001,42,2019_Oct_18_1359,ACPT_experiment_5_30_19,3.1.0,59.940777117270585,
,,,C,G,d,b,,,,,,,,,,4,15,95,3,,,,,,,,,,,,,b,1,1.2843885983384098,704.256540711056,None,,,,,001,42,2019_Oct_18_1359,ACPT_experiment_5_30_19,3.1.0,59.940777117270585,
,,,C,U,g,n,,,,,,,,,,4,16,96,7,,,,,,,,,,,,,n,1,1.3839954115628643,708.8440432580919,None,,,,,001,42,2019_Oct_18_1359,ACPT_experiment_5_30_19,3.1.0,59.940777117270585,
,,,C,G,y,b,,,,,,,,,,4,17,97,5,,,,,,,,,,,,,b,1,1.7514150950501062,713.5140827277046,None,,,,,001,42,2019_Oct_18_1359,ACPT_experiment_5_30_19,3.1.0,59.940777117270585,
,,,C,D,g,b,,,,,,,,,,4,18,98,10,,,,,,,,,,,,,v,0,6.15501550861336,718.5514935814699,None,,,,,001,42,2019_Oct_18_1359,ACPT_experiment_5_30_19,3.1.0,59.940777117270585,
,,,C,U,g,n,,,,,,,,,,4,19,99,16,,,,,,,,,,,,,n,1,1.3177616276880144,727.992493075837,None,,,,,001,42,2019_Oct_18_1359,ACPT_experiment_5_30_19,3.1.0,59.940777117270585,
,,,C,G,d,b,,,,,,,,,,5,0,100,12,,,,,,,,,,,,,b,1,3.1692405684225378,732.596246537918,None,,,,,001,42,2019_Oct_18_1359,ACPT_experiment_5_30_19,3.1.0,59.940777117270585,
,,,C,G,d,b,,,,,,,,,,5,1,101,3,,,,,,,,,,,,,b,1,2.168442421909276,739.0348048027645,None,,,,,001,42,2019_Oct_18_1359,ACPT_experiment_5_30_19,3.1.0,59.940777117270585,
,,,C,D,g,b,,,,,,,,,,5,2,102,10,,,,,,,,,,,,,b,1,2.5520837389722146,744.4892345310054,None,,,,,001,42,2019_Oct_18_1359,ACPT_experiment_5_30_19,3.1.0,59.940777117270585,
,,,C,D,y,b,,,,,,,,,,5,3,103,11,,,,,,,,,,,,,b,1,1.1175826182770834,750.3106374757554,None,,,,,001,42,2019_Oct_18_1359,ACPT_experiment_5_30_19,3.1.0,59.940777117270585,
,,,C,U,y,n,,,,,,,,,,5,4,104,17,,,,,,,,,,,,,n,1,1.2843973525923502,754.7308827458164,None,,,,,001,42,2019_Oct_18_1359,ACPT_experiment_5_30_19,3.1.0,59.940777117270585,
,,,C,U,y,n,,,,,,,,,,5,5,105,8,,,,,,,,,,,,,n,1,1.1342857358486071,759.3012520093271,None,,,,,001,42,2019_Oct_18_1359,ACPT_experiment_5_30_19,3.1.0,59.940777117270585,
,,,C,U,d,n,,,,,,,,,,5,6,106,15,,,,,,,,,,,,,n,1,1.9682712611411262,763.7048421592808,None,,,,,001,42,2019_Oct_18_1359,ACPT_experiment_5_30_19,3.1.0,59.940777117270585,
,,,C,G,g,v,,,,,,,,,,5,7,107,13,,,,,,,,,,,,,v,1,2.4186492789067415,767.9249452481745,None,,,,,001,42,2019_Oct_18_1359,ACPT_experiment_5_30_19,3.1.0,59.940777117270585,
,,,C,G,g,v,,,,,,,,,,5,8,108,19,,,,,,,,,,,,,v,1,2.201799150234365,773.612903167379,None,,,,,001,42,2019_Oct_18_1359,ACPT_experiment_5_30_19,3.1.0,59.940777117270585,
,,,C,D,y,b,,,,,,,,,,5,9,109,2,,,,,,,,,,,,,b,1,1.1509444784060179,779.1006956613601,None,,,,,001,42,2019_Oct_18_1359,ACPT_experiment_5_30_19,3.1.0,59.940777117270585,
,,,C,U,d,n,,,,,,,,,,5,10,110,6,,,,,,,,,,,,,n,1,1.117361950688064,783.554580814598,None,,,,,001,42,2019_Oct_18_1359,ACPT_experiment_5_30_19,3.1.0,59.940777117270585,
,,,C,G,y,b,,,,,,,,,,5,11,111,14,,,,,,,,,,,,,b,1,1.2176609537618788,787.9578920358908,None,,,,,001,42,2019_Oct_18_1359,ACPT_experiment_5_30_19,3.1.0,59.940777117270585,
,,,C,D,g,b,,,,,,,,,,5,12,112,1,,,,,,,,,,,,,b,1,1.9680333869146125,792.4784767597175,None,,,,,001,42,2019_Oct_18_1359,ACPT_experiment_5_30_19,3.1.0,59.940777117270585,
,,,C,D,d,v,,,,,,,,,,5,13,113,9,,,,,,,,,,,,,v,1,1.4511942765275307,797.7325068109603,None,,,,,001,42,2019_Oct_18_1359,ACPT_experiment_5_30_19,3.1.0,59.940777117270585,
,,,C,U,g,n,,,,,,,,,,5,14,114,16,,,,,,,,,,,,,n,1,1.0508700672435225,802.4696926200122,None,,,,,001,42,2019_Oct_18_1359,ACPT_experiment_5_30_19,3.1.0,59.940777117270585,
,,,C,D,d,v,,,,,,,,,,5,15,115,0,,,,,,,,,,,,,v,1,2.1184148761949473,806.8065297682369,None,,,,,001,42,2019_Oct_18_1359,ACPT_experiment_5_30_19,3.1.0,59.940777117270585,
,,,C,U,g,n,,,,,,,,,,5,16,116,7,,,,,,,,,,,,,n,1,1.1842945655698713,812.2109382900526,None,,,,,001,42,2019_Oct_18_1359,ACPT_experiment_5_30_19,3.1.0,59.940777117270585,
,,,C,G,y,b,,,,,,,,,,5,17,117,5,,,,,,,,,,,,,b,1,1.7010102107815328,816.6982656010623,None,,,,,001,42,2019_Oct_18_1359,ACPT_experiment_5_30_19,3.1.0,59.940777117270585,
,,,C,D,d,v,,,,,,,,,,5,18,118,18,,,,,,,,,,,,,v,1,4.08666410076512,821.685301455771,None,,,,,001,42,2019_Oct_18_1359,ACPT_experiment_5_30_19,3.1.0,59.940777117270585,
,,,C,G,g,v,,,,,,,,,,5,19,119,4,0,0,0,0,0,0,0,0,,,,,v,1,2.0016651195783197,829.0579332412617,None,,,,,001,42,2019_Oct_18_1359,ACPT_experiment_5_30_19,3.1.0,59.940777117270585,
,,,C,G,g,v,R,D,d,L,c,,,,,5,19,119,4,0,0,0,0,,,,,0,0,0,0,,,,,,down,1.767850755055406,888.6066215369738,None,001,42,2019_Oct_18_1359,ACPT_experiment_5_30_19,3.1.0,59.940777117270585,
,,,C,G,g,v,L,G,g,R,c ,,,,,5,19,119,4,0,0,0,0,,,,,0,1,1,19,,,,,,up,1.1342754722390964,891.6588044405198,None,001,42,2019_Oct_18_1359,ACPT_experiment_5_30_19,3.1.0,59.940777117270585,
,,,C,G,g,v,L,D,y,R,y,,,,,5,19,119,4,0,0,0,0,,,,,0,2,2,33,,,,,,down,1.0341980423672794,894.077439833367,None,001,42,2019_Oct_18_1359,ACPT_experiment_5_30_19,3.1.0,59.940777117270585,
,,,C,G,g,v,R,U,y,L,u,,,,,5,19,119,4,0,0,0,0,,,,,0,3,3,30,,,,,,down,0.8507167168536398,896.3959881364754,None,001,42,2019_Oct_18_1359,ACPT_experiment_5_30_19,3.1.0,59.940777117270585,
,,,C,G,g,v,R,D,y,R,y,,,,,5,19,119,4,0,0,0,0,,,,,0,4,4,27,,,,,,down,0.6338536077328172,898.531085904895,None,001,42,2019_Oct_18_1359,ACPT_experiment_5_30_19,3.1.0,59.940777117270585,
,,,C,G,g,v,L,U,y,R,u,,,,,5,19,119,4,0,0,0,0,,,,,0,5,5,25,,,,,,down,0.8506901522177941,900.4493048669119,None,001,42,2019_Oct_18_1359,ACPT_experiment_5_30_19,3.1.0,59.940777117270585,
,,,C,G,g,v,L,D,d,R,c ,,,,,5,19,119,4,0,0,0,0,,,,,0,6,6,13,,,,,,up,1.1175636004136322,902.5843802968884,None,001,42,2019_Oct_18_1359,ACPT_experiment_5_30_19,3.1.0,59.940777117270585,
,,,C,G,g,v,R,U,g,R,u,,,,,5,19,119,4,0,0,0,0,,,,,0,7,7,11,,,,,,up,0.8840520123467286,904.986329476933,None,001,42,2019_Oct_18_1359,ACPT_experiment_5_30_19,3.1.0,59.940777117270585,
,,,C,G,g,v,R,G,y,L,y,,,,,5,19,119,4,0,0,0,0,,,,,0,8,8,28,,,,,,down,0.7839902797586547,907.1547353724709,None,001,42,2019_Oct_18_1359,ACPT_experiment_5_30_19,3.1.0,59.940777117270585,
,,,C,G,g,v,L,D,d,L,c ,,,,,5,19,119,4,0,0,0,0,,,,,0,9,9,12,,,,,,up,0.7839676394451089,909.2231051944418,None,001,42,2019_Oct_18_1359,ACPT_experiment_5_30_19,3.1.0,59.940777117270585,
,,,C,G,g,v,L,D,g,L,i,,,,,5,19,119,4,0,0,0,0,,,,,0,10,10,14,,,,,,up,1.1008939905059378,911.2914424143619,None,001,42,2019_Oct_18_1359,ACPT_experiment_5_30_19,3.1.0,59.940777117270585,
,,,C,G,g,v,L,U,d,R,u,,,,,5,19,119,4,0,0,0,0,,,,,0,11,11,21,,,,,,up,0.917406627575474,913.6767259088192,None,001,42,2019_Oct_18_1359,ACPT_experiment_5_30_19,3.1.0,59.940777117270585,
,,,C,G,g,v,R,G,g,L,c ,,,,,5,19,119,4,0,0,0,0,,,,,0,12,12,6,,,,,,up,0.8673911566947936,915.878487325197,None,001,42,2019_Oct_18_1359,ACPT_experiment_5_30_19,3.1.0,59.940777117270585,
,,,C,G,g,v,L,U,y,L,u,,,,,5,19,119,4,0,0,0,0,,,,,0,13,13,24,,,,,,down,0.817325273381357,918.0302619484246,None,001,42,2019_Oct_18_1359,ACPT_experiment_5_30_19,3.1.0,59.940777117270585,
,,,C,G,g,v,R,U,y,R,u,,,,,5,19,119,4,0,0,0,0,,,,,0,14,14,31,,,,,,down,0.5837626691427431,920.1486813526826,None,001,42,2019_Oct_18_1359,ACPT_experiment_5_30_19,3.1.0,59.940777117270585,
,,,C,G,g,v,R,U,g,L,u,,,,,5,19,119,4,0,0,0,0,,,,,0,15,15,10,,,,,,up,0.7839576777059847,922.0335173236126,None,001,42,2019_Oct_18_1359,ACPT_experiment_5_30_19,3.1.0,59.940777117270585,
,,,C,G,g,v,R,U,d,R,u,,,,,5,19,119,4,0,0,0,0,,,,,0,16,16,9,,,,,,down,0.8840438618335611,924.1018639015292,None,001,42,2019_Oct_18_1359,ACPT_experiment_5_30_19,3.1.0,59.940777117270585,
,,,C,G,g,v,L,G,d,L,i,,,,,5,19,119,4,0,0,0,0,,,,,0,17,17,16,,,,,,up,0.7839658282209712,926.2702942486048,None,001,42,2019_Oct_18_1359,ACPT_experiment_5_30_19,3.1.0,59.940777117270585,
,,,C,G,g,v,R,G,g,R,c ,,,,,5,19,119,4,0,0,0,0,,,,,0,18,18,7,,,,,,up,0.6171788660230959,928.3386402227807,None,001,42,2019_Oct_18_1359,ACPT_experiment_5_30_19,3.1.0,59.940777117270585,
,,,C,G,g,v,L,U,d,L,u,,,,,5,19,119,4,0,0,0,0,,,,,0,19,19,20,,,,,,up,0.7005767242499132,930.2401817262471,None,001,42,2019_Oct_18_1359,ACPT_experiment_5_30_19,3.1.0,59.940777117270585,
,,,C,G,g,v,R,D,g,R,i,,,,,5,19,119,4,0,0,0,0,,,,,0,20,20,3,,,,,,up,0.7839582814503956,932.2251316534221,None,001,42,2019_Oct_18_1359,ACPT_experiment_5_30_19,3.1.0,59.940777117270585,
,,,C,G,g,v,R,D,d,R,c ,,,,,5,19,119,4,0,0,0,0,,,,,0,21,21,1,,,,,,up,0.8173524417579756,934.2767681707373,None,001,42,2019_Oct_18_1359,ACPT_experiment_5_30_19,3.1.0,59.940777117270585,
,,,C,G,g,v,R,D,g,L,i,,,,,5,19,119,4,0,0,0,0,,,,,0,22,22,2,,,,,,up,1.0174852649306558,936.3618251111257,None,001,42,2019_Oct_18_1359,ACPT_experiment_5_30_19,3.1.0,59.940777117270585,
,,,C,G,g,v,L,G,y,R,y,,,,,5,19,119,4,0,0,0,0,,,,,0,23,23,35,,,,,,down,0.6338490796715632,938.6636896163964,None,001,42,2019_Oct_18_1359,ACPT_experiment_5_30_19,3.1.0,59.940777117270585,
,,,C,G,g,v,L,U,g,L,u,,,,,5,19,119,4,0,0,0,0,,,,,0,24,24,22,,,,,,up,0.7672947089595255,940.5819176345394,None,001,42,2019_Oct_18_1359,ACPT_experiment_5_30_19,3.1.0,59.940777117270585,
,,,C,G,g,v,R,U,d,L,u,,,,,5,19,119,4,0,0,0,0,,,,,0,25,25,8,,,,,,up,0.9174271547926764,942.6335828295851,None,001,42,2019_Oct_18_1359,ACPT_experiment_5_30_19,3.1.0,59.940777117270585,
,,,C,G,g,v,L,G,d,R,i,,,,,5,19,119,4,0,0,0,0,,,,,0,26,26,17,,,,,,up,0.7506350607891363,944.818668296768,None,001,42,2019_Oct_18_1359,ACPT_experiment_5_30_19,3.1.0,59.940777117270585,
,,,C,G,g,v,L,D,g,R,i,,,,,5,19,119,4,0,0,0,0,,,,,0,27,27,15,,,,,,up,1.0008081082505669,946.853684409125,None,001,42,2019_Oct_18_1359,ACPT_experiment_5_30_19,3.1.0,59.940777117270585,
,,,C,G,g,v,R,D,y,L,y,,,,,5,19,119,4,0,0,0,0,,,,,0,28,28,26,,,,,,down,0.6672064117374248,949.1388729652008,None,001,42,2019_Oct_18_1359,ACPT_experiment_5_30_19,3.1.0,59.940777117270585,
,,,C,G,g,v,L,G,y,L,y,,,,,5,19,119,4,0,0,0,0,,,,,0,29,29,34,,,,,,down,0.6171839978269418,951.1071128317744,None,001,42,2019_Oct_18_1359,ACPT_experiment_5_30_19,3.1.0,59.940777117270585,
,,,C,G,g,v,R,G,d,R,i,,,,,5,19,119,4,0,0,0,0,,,,,0,30,30,5,,,,,,up,0.6338394198028254,953.0253646977126,None,001,42,2019_Oct_18_1359,ACPT_experiment_5_30_19,3.1.0,59.940777117270585,
,,,C,G,g,v,R,G,y,R,y,,,,,5,19,119,4,0,0,0,0,,,,,0,31,31,29,,,,,,down,0.8340006188354891,954.9435899990185,None,001,42,2019_Oct_18_1359,ACPT_experiment_5_30_19,3.1.0,59.940777117270585,
,,,C,G,g,v,L,D,y,L,y,,,,,5,19,119,4,0,0,0,0,,,,,0,32,32,32,,,,,,down,0.7672735779997311,957.0786590897078,None,001,42,2019_Oct_18_1359,ACPT_experiment_5_30_19,3.1.0,59.940777117270585,
,,,C,G,g,v,R,G,d,L,i,,,,,5,19,119,4,0,0,0,0,,,,,0,33,33,4,,,,,,down,1.017503679051515,959.1303242847534,None,001,42,2019_Oct_18_1359,ACPT_experiment_5_30_19,3.1.0,59.940777117270585,
,,,C,G,g,v,L,U,g,R,u,,,,,5,19,119,4,0,0,0,0,,,,,0,34,34,23,,,,,,up,0.750584648358199,961.4321945255706,None,001,42,2019_Oct_18_1359,ACPT_experiment_5_30_19,3.1.0,59.940777117270585,
,,,C,G,g,v,L,G,g,L,c ,,,,,5,19,119,4,0,0,0,0,,,,,0,35,35,18,,,,,,up,0.7672847472204012,963.4671795452305,None,001,42,2019_Oct_18_1359,ACPT_experiment_5_30_19,3.1.0,59.940777117270585,
,,,C,G,g,v,R,G,g,L,c ,,,,,5,19,119,4,0,0,0,0,,,,,1,0,36,6,,,,,,up,0.7672874640593363,965.5188480608558,None,001,42,2019_Oct_18_1359,ACPT_experiment_5_30_19,3.1.0,59.940777117270585,
,,,C,G,g,v,L,D,y,L,y,,,,,5,19,119,4,0,0,0,0,,,,,1,1,37,32,,,,,,down,0.6672058079948329,967.5705120484199,None,001,42,2019_Oct_18_1359,ACPT_experiment_5_30_19,3.1.0,59.940777117270585,
,,,C,G,g,v,R,D,g,R,i,,,,,5,19,119,4,0,0,0,0,,,,,1,2,38,3,,,,,,up,0.8340341264993185,969.5221004173363,None,001,42,2019_Oct_18_1359,ACPT_experiment_5_30_19,3.1.0,59.940777117270585,
,,,C,G,g,v,L,U,y,R,u,,,,,5,19,119,4,0,0,0,0,,,,,1,3,39,25,,,,,,down,0.8006411736751033,971.6571667911867,None,001,42,2019_Oct_18_1359,ACPT_experiment_5_30_19,3.1.0,59.940777117270585,
,,,C,G,g,v,R,G,y,L,y,,,,,5,19,119,4,0,0,0,0,,,,,1,4,40,28,,,,,,down,0.717234863064732,973.758882172262,None,001,42,2019_Oct_18_1359,ACPT_experiment_5_30_19,3.1.0,59.940777117270585,
,,,C,G,g,v,L,U,g,L,u,,,,,5,19,119,4,0,0,0,0,,,,,1,5,41,22,,,,,,up,0.9507739213786408,975.7604974831502,None,001,42,2019_Oct_18_1359,ACPT_experiment_5_30_19,3.1.0,59.940777117270585,
,,,C,G,g,v,L,D,g,R,i,,,,,5,19,119,4,0,0,0,0,,,,,1,6,42,15,,,,,,up,0.8340054487671296,977.9956512486133,None,001,42,2019_Oct_18_1359,ACPT_experiment_5_30_19,3.1.0,59.940777117270585,
,,,C,G,g,v,R,U,y,R,u,,,,,5,19,119,4,0,0,0,0,,,,,1,7,43,31,,,,,,down,0.7005682718645403,980.1140356358519,None,001,42,2019_Oct_18_1359,ACPT_experiment_5_30_19,3.1.0,59.940777117270585,
,,,C,G,g,v,R,D,y,R,y,,,,,5,19,119,4,0,0,0,0,,,,,1,8,44,27,,,,,,down,0.6004878232852207,982.0989858648973,None,001,42,2019_Oct_18_1359,ACPT_experiment_5_30_19,3.1.0,59.940777117270585,
,,,C,G,g,v,L,D,d,R,c ,,,,,5,19,119,4,0,0,0,0,,,,,1,9,45,13,,,,,,up,0.8173276883499057,983.9838459854946,None,001,42,2019_Oct_18_1359,ACPT_experiment_5_30_19,3.1.0,59.940777117270585,
,,,C,G,g,v,L,G,y,R,y,,,,,5,19,119,4,0,0,0,0,,,,,1,10,46,35,,,,,,down,0.6505256326090603,986.0855553291512,None,001,42,2019_Oct_18_1359,ACPT_experiment_5_30_19,3.1.0,59.940777117270585,
,,,C,G,g,v,L,D,y,R,y,,,,,5,19,119,4,0,0,0,0,,,,,1,11,47,33,,,,,,down,0.5171116997589706,988.0204360524349,None,001,42,2019_Oct_18_1359,ACPT_experiment_5_30_19,3.1.0,59.940777117270585,
,,,C,G,g,v,L,G,g,R,c ,,,,,5,19,119,4,0,0,0,0,,,,,1,12,48,19,,,,,,up,0.7672892752834741,989.8219260869228,None,001,42,2019_Oct_18_1359,ACPT_experiment_5_30_19,3.1.0,59.940777117270585,
,,,C,G,g,v,L,U,g,R,u,,,,,5,19,119,4,0,0,0,0,,,,,1,13,49,23,,,,,,up,0.7672886715408822,991.8735933950647,None,001,42,2019_Oct_18_1359,ACPT_experiment_5_30_19,3.1.0,59.940777117270585,
,,,C,G,g,v,R,U,d,L,u,,,,,5,19,119,4,0,0,0,0,,,,,1,14,50,8,,,,,,up,0.6505220101589657,993.9252588919826,None,001,42,2019_Oct_18_1359,ACPT_experiment_5_30_19,3.1.0,59.940777117270585,
,,,C,G,g,v,R,G,y,R,y,,,,,5,19,119,4,0,0,0,0,,,,,1,15,51,29,,,,,,down,0.8340033356726053,995.876848166512,None,001,42,2019_Oct_18_1359,ACPT_experiment_5_30_19,3.1.0,59.940777117270585,
,,,C,G,g,v,L,D,d,L,c ,,,,,5,19,119,4,0,0,0,0,,,,,1,16,52,12,,,,,,up,1.0174810387379694,998.0119148422345,None,001,42,2019_Oct_18_1359,ACPT_experiment_5_30_19,3.1.0,59.940777117270585,
,,,C,G,g,v,R,D,y,L,y,,,,,5,19,119,4,0,0,0,0,,,,,1,17,53,26,,,,,,down,0.7506332495649986,1000.3137579146751,None,001,42,2019_Oct_18_1359,ACPT_experiment_5_30_19,3.1.0,59.940777117270585,
,,,C,G,g,v,L,U,d,L,u,,,,,5,19,119,4,0,0,0,0,,,,,1,18,54,20,,,,,,up,0.7839655263487657,1002.348769498969,None,001,42,2019_Oct_18_1359,ACPT_experiment_5_30_19,3.1.0,59.940777117270585,
,,,C,G,g,v,L,G,g,L,c ,,,,,5,19,119,4,0,0,0,0,,,,,1,19,55,18,,,,,,up,0.984126423509224,1004.4171203030783,None,001,42,2019_Oct_18_1359,ACPT_experiment_5_30_19,3.1.0,59.940777117270585,
,,,C,G,g,v,R,U,y,L,u,,,,,5,19,119,4,0,0,0,0,,,,,1,20,56,30,,,,,,down,0.6672012799335789,1006.6856292875091,None,001,42,2019_Oct_18_1359,ACPT_experiment_5_30_19,3.1.0,59.940777117270585,
,,,C,G,g,v,L,G,y,L,y,,,,,5,19,119,4,0,0,0,0,,,,,1,21,57,34,,,,,,down,0.5671199257394619,1008.6372176564255,None,001,42,2019_Oct_18_1359,ACPT_experiment_5_30_19,3.1.0,59.940777117270585,
,,,C,G,g,v,L,D,g,L,i,,,,,5,19,119,4,0,0,0,0,,,,,1,22,58,14,,,,,,up,1.0341711758628662,1010.4887174262476,None,001,42,2019_Oct_18_1359,ACPT_experiment_5_30_19,3.1.0,59.940777117270585,
,,,C,G,g,v,R,D,d,L,c,,,,,5,19,119,4,0,0,0,0,,,,,1,23,59,0,,,,,,down,0.7339216796099208,1012.807271163032,None,001,42,2019_Oct_18_1359,ACPT_experiment_5_30_19,3.1.0,59.940777117270585,
,,,C,G,g,v,L,G,d,R,i,,,,,5,19,119,4,0,0,0,0,,,,,1,24,60,17,,,,,,down,0.9507902224031568,1014.8255467258332,None,001,42,2019_Oct_18_1359,ACPT_experiment_5_30_19,3.1.0,59.940777117270585,
,,,C,G,g,v,R,G,d,L,i,,,,,5,19,119,4,0,0,0,0,,,,,1,25,61,4,,,,,,up,0.9007240372193337,1017.0607276596693,None,001,42,2019_Oct_18_1359,ACPT_experiment_5_30_19,3.1.0,59.940777117270585,
,,,C,G,g,v,R,D,d,R,c ,,,,,5,19,119,4,0,0,0,0,,,,,1,26,62,1,,,,,,up,0.8173264808665408,1019.2458300316193,None,001,42,2019_Oct_18_1359,ACPT_experiment_5_30_19,3.1.0,59.940777117270585,
,,,C,G,g,v,L,U,y,L,u,,,,,5,19,119,4,0,0,0,0,,,,,1,27,63,24,,,,,,down,0.7839516402909794,1021.3642168338265,None,001,42,2019_Oct_18_1359,ACPT_experiment_5_30_19,3.1.0,59.940777117270585,
,,,C,G,g,v,R,G,g,R,c ,,,,,5,19,119,4,0,0,0,0,,,,,1,28,64,7,,,,,,up,0.800644192380787,1023.449245700227,None,001,42,2019_Oct_18_1359,ACPT_experiment_5_30_19,3.1.0,59.940777117270585,
,,,C,G,g,v,R,G,d,R,i,,,,,5,19,119,4,0,0,0,0,,,,,1,29,65,5,,,,,,up,0.8340308059196104,1025.5175708453135,None,001,42,2019_Oct_18_1359,ACPT_experiment_5_30_19,3.1.0,59.940777117270585,
,,,C,G,g,v,L,G,d,L,i,,,,,5,19,119,4,0,0,0,0,,,,,1,30,66,16,,,,,,down,0.7839643188672198,1027.635981797188,None,001,42,2019_Oct_18_1359,ACPT_experiment_5_30_19,3.1.0,59.940777117270585,
,,,C,G,g,v,R,U,d,R,u,,,,,5,19,119,4,0,0,0,0,,,,,1,31,67,9,,,,,,down,0.7172439191890589,1029.704327771362,None,001,42,2019_Oct_18_1359,ACPT_experiment_5_30_19,3.1.0,59.940777117270585,
,,,C,G,g,v,R,U,g,R,u,,,,,5,19,119,4,0,0,0,0,,,,,1,32,68,11,,,,,,up,0.7839625076412631,1031.7059578739227,None,001,42,2019_Oct_18_1359,ACPT_experiment_5_30_19,3.1.0,59.940777117270585,
,,,C,G,g,v,R,D,g,L,i,,,,,5,19,119,4,0,0,0,0,,,,,1,33,69,2,,,,,,up,0.700562838190308,1033.7576269932906,None,001,42,2019_Oct_18_1359,ACPT_experiment_5_30_19,3.1.0,59.940777117270585,
,,,C,G,g,v,L,U,d,R,u,,,,,5,19,119,4,0,0,0,0,,,,,1,34,70,21,,,,,,up,0.9174084387996118,1035.7425702793043,None,001,42,2019_Oct_18_1359,ACPT_experiment_5_30_19,3.1.0,59.940777117270585,
,,,C,G,g,v,R,U,g,L,u,,,,,5,19,119,4,0,0,0,0,,,,,1,35,71,10,,,,,,up,0.8006469092197221,1037.9443588640588,None,001,42,2019_Oct_18_1359,ACPT_experiment_5_30_19,3.1.0,59.940777117270585,
,,,C,G,g,v,,,,,,,,,,5,19,119,4,1,0,1,0,0,0,0,0,,,,,,,,,,,,,,001,42,2019_Oct_18_1359,ACPT_experiment_5_30_19,3.1.0,59.940777117270585,
,,,C,G,g,v,L,D,d,L,c ,,,,,5,19,119,4,1,0,1,0,,,,,0,0,0,12,,,,,,up,0.7973396122470149,1050.4578348313662,None,001,42,2019_Oct_18_1359,ACPT_experiment_5_30_19,3.1.0,59.940777117270585,
,,,C,G,g,v,R,U,d,R,u,,,,,5,19,119,4,1,0,1,0,,,,,0,1,1,9,,,,,,up,0.8506717380969349,1052.5395733055611,None,001,42,2019_Oct_18_1359,ACPT_experiment_5_30_19,3.1.0,59.940777117270585,
,,,C,G,g,v,L,G,y,L,y,,,,,5,19,119,4,1,0,1,0,,,,,0,2,2,34,,,,,,down,0.750625702794423,1054.6745934931732,None,001,42,2019_Oct_18_1359,ACPT_experiment_5_30_19,3.1.0,59.940777117270585,
,,,C,G,g,v,L,G,d,R,i,,,,,5,19,119,4,1,0,1,0,,,,,0,3,3,17,,,,,,up,1.5345788524373347,1056.7096047755967,None,001,42,2019_Oct_18_1359,ACPT_experiment_5_30_19,3.1.0,59.940777117270585,
,,,C,G,g,v,L,U,y,R,u,,,,,5,19,119,4,1,0,1,0,,,,,0,4,4,25,,,,,,down,0.617190035243766,1059.5285483785756,None,001,42,2019_Oct_18_1359,ACPT_experiment_5_30_19,3.1.0,59.940777117270585,
,,,C,G,g,v,L,U,g,R,u,,,,,5,19,119,4,1,0,1,0,,,,,0,5,5,23,,,,,,up,0.5838308919519477,1061.4134021598857,None,001,42,2019_Oct_18_1359,ACPT_experiment_5_30_19,3.1.0,59.940777117270585,
,,,C,G,g,v,L,U,y,L,u,,,,,5,19,119,4,1,0,1,0,,,,,0,6,6,24,,,,,,down,0.7003732632983883,1063.2984470254396,None,001,42,2019_Oct_18_1359,ACPT_experiment_5_30_19,3.1.0,59.940777117270585,
,,,C,G,g,v,L,G,g,R,c ,,,,,5,19,119,4,1,0,1,0,,,,,0,7,7,19,,,,,,up,0.5838031198345561,1065.2999180420647,None,001,42,2019_Oct_18_1359,ACPT_experiment_5_30_19,3.1.0,59.940777117270585,
,,,C,G,g,v,L,D,y,R,y,,,,,5,19,119,4,1,0,1,0,,,,,0,8,8,33,,,,,,down,0.5837910450009076,1067.1681016097245,None,001,42,2019_Oct_18_1359,ACPT_experiment_5_30_19,3.1.0,59.940777117270585,
,,,C,G,g,v,L,U,g,L,u,,,,,5,19,119,4,1,0,1,0,,,,,0,9,9,22,,,,,,up,0.8673585546421236,1069.0362906110604,None,001,42,2019_Oct_18_1359,ACPT_experiment_5_30_19,3.1.0,59.940777117270585,
,,,C,G,g,v,L,D,g,L,i,,,,,5,19,119,4,1,0,1,0,,,,,0,10,10,14,,,,,,up,0.6502895696066844,1071.2049811708057,None,001,42,2019_Oct_18_1359,ACPT_experiment_5_30_19,3.1.0,59.940777117270585,
,,,C,G,g,v,L,G,d,L,i,,,,,5,19,119,4,1,0,1,0,,,,,0,11,11,16,,,,,,up,0.7005420091009,1073.1396397171466,None,001,42,2019_Oct_18_1359,ACPT_experiment_5_30_19,3.1.0,59.940777117270585,
,,,C,G,g,v,L,U,d,R,u,,,,,5,19,119,4,1,0,1,0,,,,,0,12,12,21,,,,,,up,0.8173282920906786,1075.1245676077488,None,001,42,2019_Oct_18_1359,ACPT_experiment_5_30_19,3.1.0,59.940777117270585,
,,,C,G,g,v,L,U,d,L,u,,,,,5,19,119,4,1,0,1,0,,,,,0,13,13,20,,,,,,up,0.7172445229316509,1077.2095919460844,None,001,42,2019_Oct_18_1359,ACPT_experiment_5_30_19,3.1.0,59.940777117270585,
,,,C,G,g,v,R,D,y,R,y,,,,,5,19,119,4,1,0,1,0,,,,,0,14,14,27,,,,,,down,0.700562234447716,1079.2112169168413,None,001,42,2019_Oct_18_1359,ACPT_experiment_5_30_19,3.1.0,59.940777117270585,
,,,C,G,g,v,R,D,y,L,y,,,,,5,19,119,4,1,0,1,0,,,,,0,15,15,26,,,,,,down,0.700558913868008,1081.2128440006927,None,001,42,2019_Oct_18_1359,ACPT_experiment_5_30_19,3.1.0,59.940777117270585,
,,,C,G,g,v,R,U,g,L,u,,,,,5,19,119,4,1,0,1,0,,,,,0,16,16,10,,,,,,up,0.6171740360896365,1083.2144544816492,None,001,42,2019_Oct_18_1359,ACPT_experiment_5_30_19,3.1.0,59.940777117270585,
,,,C,G,g,v,L,G,y,R,y,,,,,5,19,119,4,1,0,1,0,,,,,0,17,17,35,,,,,,down,0.6838859833824245,1085.116015002981,None,001,42,2019_Oct_18_1359,ACPT_experiment_5_30_19,3.1.0,59.940777117270585,
,,,C,G,g,v,R,G,y,R,y,,,,,5,19,119,4,1,0,1,0,,,,,0,18,18,29,,,,,,down,0.8006508335402032,1087.0675991457047,None,001,42,2019_Oct_18_1359,ACPT_experiment_5_30_19,3.1.0,59.940777117270585,
,,,C,G,g,v,R,D,d,L,c,,,,,5,19,119,4,1,0,1,0,,,,,0,19,19,0,,,,,,down,0.8340003169651027,1089.1526298233293,None,001,42,2019_Oct_18_1359,ACPT_experiment_5_30_19,3.1.0,59.940777117270585,
,,,C,G,g,v,R,U,y,L,u,,,,,5,19,119,4,1,0,1,0,,,,,0,20,20,30,,,,,,down,0.6338282505821553,1091.271028398498,None,001,42,2019_Oct_18_1359,ACPT_experiment_5_30_19,3.1.0,59.940777117270585,
,,,C,G,g,v,R,D,g,R,i,,,,,5,19,119,4,1,0,1,0,,,,,0,21,21,3,,,,,,up,0.7672756910942553,1093.1892500773538,None,001,42,2019_Oct_18_1359,ACPT_experiment_5_30_19,3.1.0,59.940777117270585,
,,,C,G,g,v,R,G,g,L,c ,,,,,5,19,119,4,1,0,1,0,,,,,0,22,22,6,,,,,,up,0.6672317688880867,1095.2242082305074,None,001,42,2019_Oct_18_1359,ACPT_experiment_5_30_19,3.1.0,59.940777117270585,
,,,C,G,g,v,R,D,g,L,i,,,,,5,19,119,4,1,0,1,0,,,,,0,23,23,2,,,,,,up,0.6171676968006068,1097.175813504191,None,001,42,2019_Oct_18_1359,ACPT_experiment_5_30_19,3.1.0,59.940777117270585,
,,,C,G,g,v,R,G,y,L,y,,,,,5,19,119,4,1,0,1,0,,,,,0,24,24,28,,,,,,down,0.5669499724535854,1099.0941960802065,None,001,42,2019_Oct_18_1359,ACPT_experiment_5_30_19,3.1.0,59.940777117270585,
,,,C,G,g,v,R,U,d,L,u,,,,,5,19,119,4,1,0,1,0,,,,,0,25,25,8,,,,,,up,0.7005872897279914,1100.962221769416,None,001,42,2019_Oct_18_1359,ACPT_experiment_5_30_19,3.1.0,59.940777117270585,
,,,C,G,g,v,L,G,g,L,c ,,,,,5,19,119,4,1,0,1,0,,,,,0,26,26,18,,,,,,up,0.7806374002884695,1102.9671727531368,None,001,42,2019_Oct_18_1359,ACPT_experiment_5_30_19,3.1.0,59.940777117270585,
,,,C,G,g,v,R,D,d,R,c ,,,,,5,19,119,4,1,0,1,0,,,,,0,27,27,1,,,,,,up,0.8006496260568383,1105.0321930162172,None,001,42,2019_Oct_18_1359,ACPT_experiment_5_30_19,3.1.0,59.940777117270585,
,,,C,G,g,v,L,D,g,R,i,,,,,5,19,119,4,1,0,1,0,,,,,0,28,28,15,,,,,,up,0.6672042986410816,1107.1172221844881,None,001,42,2019_Oct_18_1359,ACPT_experiment_5_30_19,3.1.0,59.940777117270585,
,,,C,G,g,v,R,G,d,L,i,,,,,5,19,119,4,1,0,1,0,,,,,0,29,29,4,,,,,,up,0.9007321877325012,1109.0688066290822,None,001,42,2019_Oct_18_1359,ACPT_experiment_5_30_19,3.1.0,59.940777117270585,
,,,C,G,g,v,L,D,y,L,y,,,,,5,19,119,4,1,0,1,0,,,,,0,30,30,32,,,,,,down,0.717113510983836,1111.2540191838907,None,001,42,2019_Oct_18_1359,ACPT_experiment_5_30_19,3.1.0,59.940777117270585,
,,,C,G,g,v,L,D,d,R,c ,,,,,5,19,119,4,1,0,1,0,,,,,0,31,31,13,,,,,,up,0.8172190148434311,1113.255540009206,None,001,42,2019_Oct_18_1359,ACPT_experiment_5_30_19,3.1.0,59.940777117270585,
,,,C,G,g,v,R,G,d,R,i,,,,,5,19,119,4,1,0,1,0,,,,,0,32,32,5,,,,,,down,0.7172427117056941,1115.357250560346,None,001,42,2019_Oct_18_1359,ACPT_experiment_5_30_19,3.1.0,59.940777117270585,
,,,C,G,g,v,R,G,g,R,c ,,,,,5,19,119,4,1,0,1,0,,,,,0,33,33,7,,,,,,up,0.7339237927044451,1117.3588797572957,None,001,42,2019_Oct_18_1359,ACPT_experiment_5_30_19,3.1.0,59.940777117270585,
,,,C,G,g,v,R,U,g,R,u,,,,,5,19,119,4,1,0,1,0,,,,,0,34,34,11,,,,,,up,0.7005691774775187,1119.3771861109217,None,001,42,2019_Oct_18_1359,ACPT_experiment_5_30_19,3.1.0,59.940777117270585,
,,,C,G,g,v,R,U,y,R,u,,,,,5,19,119,4,1,0,1,0,,,,,0,35,35,31,,,,,,down,0.5671202276116674,1121.345452240259,None,001,42,2019_Oct_18_1359,ACPT_experiment_5_30_19,3.1.0,59.940777117270585,
,,,C,G,g,v,L,G,y,L,y,,,,,5,19,119,4,1,0,1,0,,,,,1,0,36,34,,,,,,down,0.6502799097397656,1123.213878512077,None,001,42,2019_Oct_18_1359,ACPT_experiment_5_30_19,3.1.0,59.940777117270585,
,,,C,G,g,v,L,D,y,R,y,,,,,5,19,119,4,1,0,1,0,,,,,1,1,37,33,,,,,,down,0.6004718241292721,1125.1485482276403,None,001,42,2019_Oct_18_1359,ACPT_experiment_5_30_19,3.1.0,59.940777117270585,
,,,C,G,g,v,L,U,y,L,u,,,,,5,19,119,4,1,0,1,0,,,,,1,2,38,24,,,,,,down,0.6671994687076221,1127.0500885236252,None,001,42,2019_Oct_18_1359,ACPT_experiment_5_30_19,3.1.0,59.940777117270585,
,,,C,G,g,v,L,D,g,L,i,,,,,5,19,119,4,1,0,1,0,,,,,1,3,39,14,,,,,,up,0.733915944063483,1129.018356766057,None,001,42,2019_Oct_18_1359,ACPT_experiment_5_30_19,3.1.0,59.940777117270585,
,,,C,G,g,v,R,U,y,R,u,,,,,5,19,119,4,1,0,1,0,,,,,1,4,40,31,,,,,,down,0.7172421079649212,1131.0366588934921,None,001,42,2019_Oct_18_1359,ACPT_experiment_5_30_19,3.1.0,59.940777117270585,
,,,C,G,g,v,L,U,d,L,u,,,,,5,19,119,4,1,0,1,0,,,,,1,5,41,20,,,,,,up,0.9841276309925888,1133.0382835623768,None,001,42,2019_Oct_18_1359,ACPT_experiment_5_30_19,3.1.0,59.940777117270585,
,,,C,G,g,v,R,D,g,R,i,,,,,5,19,119,4,1,0,1,0,,,,,1,6,42,3,,,,,,up,0.6671161523536284,1135.3068831080618,None,001,42,2019_Oct_18_1359,ACPT_experiment_5_30_19,3.1.0,59.940777117270585,
,,,C,G,g,v,R,D,y,R,y,,,,,5,19,119,4,1,0,1,0,,,,,1,7,43,27,,,,,,down,0.7506214766017365,1137.2583576716697,None,001,42,2019_Oct_18_1359,ACPT_experiment_5_30_19,3.1.0,59.940777117270585,
,,,C,G,g,v,L,U,g,R,u,,,,,5,19,119,4,1,0,1,0,,,,,1,8,44,23,,,,,,up,0.6672030911558977,1139.3100461107715,None,001,42,2019_Oct_18_1359,ACPT_experiment_5_30_19,3.1.0,59.940777117270585,
,,,C,G,g,v,L,D,d,L,c ,,,,,5,19,119,4,1,0,1,0,,,,,1,9,45,12,,,,,,up,0.7172466360261751,1141.261631762849,None,001,42,2019_Oct_18_1359,ACPT_experiment_5_30_19,3.1.0,59.940777117270585,
,,,C,G,g,v,R,U,g,L,u,,,,,5,19,119,4,1,0,1,0,,,,,1,10,46,10,,,,,,up,0.8340184292155755,1143.2632591485726,None,001,42,2019_Oct_18_1359,ACPT_experiment_5_30_19,3.1.0,59.940777117270585,
,,,C,G,g,v,R,G,y,L,y,,,,,5,19,119,4,1,0,1,0,,,,,1,11,47,28,,,,,,down,0.6338421366417606,1145.3816444414242,None,001,42,2019_Oct_18_1359,ACPT_experiment_5_30_19,3.1.0,59.940777117270585,
,,,C,G,g,v,L,U,y,R,u,,,,,5,19,119,4,1,0,1,0,,,,,1,12,48,25,,,,,,down,0.6171824884731905,1147.299871252084,None,001,42,2019_Oct_18_1359,ACPT_experiment_5_30_19,3.1.0,59.940777117270585,
,,,C,G,g,v,R,U,g,R,u,,,,,5,19,119,4,1,0,1,0,,,,,1,13,49,11,,,,,,up,0.7839594889319415,1149.2014166798726,None,001,42,2019_Oct_18_1359,ACPT_experiment_5_30_19,3.1.0,59.940777117270585,
,,,C,G,g,v,L,U,d,R,u,,,,,5,19,119,4,1,0,1,0,,,,,1,14,50,21,,,,,,up,0.6505211045459873,1151.2697617484355,None,001,42,2019_Oct_18_1359,ACPT_experiment_5_30_19,3.1.0,59.940777117270585,
,,,C,G,g,v,R,G,d,R,i,,,,,5,19,119,4,1,0,1,0,,,,,1,15,51,5,,,,,,up,0.5337583674827329,1153.204671451318,None,001,42,2019_Oct_18_1359,ACPT_experiment_5_30_19,3.1.0,59.940777117270585,
,,,C,G,g,v,R,G,y,R,y,,,,,5,19,119,4,1,0,1,0,,,,,1,16,52,29,,,,,,down,0.7973242168336583,1155.0428070969829,None,001,42,2019_Oct_18_1359,ACPT_experiment_5_30_19,3.1.0,59.940777117270585,
,,,C,G,g,v,R,D,g,L,i,,,,,5,19,119,4,1,0,1,0,,,,,1,17,53,2,,,,,,up,0.8006447961233789,1157.1245202140253,None,001,42,2019_Oct_18_1359,ACPT_experiment_5_30_19,3.1.0,59.940777117270585,
,,,C,G,g,v,R,D,d,L,c,,,,,5,19,119,4,1,0,1,0,,,,,1,18,54,0,,,,,,up,0.5671407548288698,1159.1928462647247,None,001,42,2019_Oct_18_1359,ACPT_experiment_5_30_19,3.1.0,59.940777117270585,
,,,C,G,g,v,L,U,g,L,u,,,,,5,19,119,4,1,0,1,0,,,,,1,19,55,22,,,,,,up,0.6338496834141552,1161.0443698823456,None,001,42,2019_Oct_18_1359,ACPT_experiment_5_30_19,3.1.0,59.940777117270585,
,,,C,G,g,v,R,U,d,R,u,,,,,5,19,119,4,1,0,1,0,,,,,1,20,56,9,,,,,,up,0.7004885779624601,1162.962663708331,None,001,42,2019_Oct_18_1359,ACPT_experiment_5_30_19,3.1.0,59.940777117270585,
,,,C,G,g,v,L,G,g,R,c ,,,,,5,19,119,4,1,0,1,0,,,,,1,21,57,19,,,,,,up,0.6004947663150233,1164.947544507082,None,001,42,2019_Oct_18_1359,ACPT_experiment_5_30_19,3.1.0,59.940777117270585,
,,,C,G,g,v,L,D,y,L,y,,,,,5,19,119,4,1,0,1,0,,,,,1,22,58,32,,,,,,down,0.7339588097238448,1166.832376855562,None,001,42,2019_Oct_18_1359,ACPT_experiment_5_30_19,3.1.0,59.940777117270585,
,,,C,G,g,v,L,G,d,L,i,,,,,5,19,119,4,1,0,1,0,,,,,1,23,59,16,,,,,,up,0.7672829359962634,1168.8507170187222,None,001,42,2019_Oct_18_1359,ACPT_experiment_5_30_19,3.1.0,59.940777117270585,
,,,C,G,g,v,R,D,d,R,c ,,,,,5,19,119,4,1,0,1,0,,,,,1,24,60,1,,,,,,up,0.633729538816624,1170.902379798803,None,001,42,2019_Oct_18_1359,ACPT_experiment_5_30_19,3.1.0,59.940777117270585,
,,,C,G,g,v,R,G,g,R,c ,,,,,5,19,119,4,1,0,1,0,,,,,1,25,61,7,,,,,,up,0.5671531315329048,1172.8205803466972,None,001,42,2019_Oct_18_1359,ACPT_experiment_5_30_19,3.1.0,59.940777117270585,
,,,C,G,g,v,R,G,d,L,i,,,,,5,19,119,4,1,0,1,0,,,,,1,26,62,4,,,,,,up,0.6838787384822353,1174.655433146927,None,001,42,2019_Oct_18_1359,ACPT_experiment_5_30_19,3.1.0,59.940777117270585,
,,,C,G,g,v,R,U,y,L,u,,,,,5,19,119,4,1,0,1,0,,,,,1,27,63,30,,,,,,down,0.6672224108915543,1176.6403709992665,None,001,42,2019_Oct_18_1359,ACPT_experiment_5_30_19,3.1.0,59.940777117270585,
,,,C,G,g,v,L,G,y,R,y,,,,,5,19,119,4,1,0,1,0,,,,,1,28,64,35,,,,,,down,0.46701442187804787,1178.5919835178502,None,001,42,2019_Oct_18_1359,ACPT_experiment_5_30_19,3.1.0,59.940777117270585,
,,,C,G,g,v,L,G,d,R,i,,,,,5,19,119,4,1,0,1,0,,,,,1,29,65,17,,,,,,up,0.7971228689802956,1180.396946878278,None,001,42,2019_Oct_18_1359,ACPT_experiment_5_30_19,3.1.0,59.940777117270585,
,,,C,G,g,v,L,D,g,R,i,,,,,5,19,119,4,1,0,1,0,,,,,1,30,66,15,,,,,,up,1.801475846559697,1182.4784680054636,None,001,42,2019_Oct_18_1359,ACPT_experiment_5_30_19,3.1.0,59.940777117270585,
,,,C,G,g,v,L,D,d,R,c ,,,,,5,19,119,4,1,0,1,0,,,,,1,31,67,13,,,,,,up,0.5171005305383005,1185.5475906933207,None,001,42,2019_Oct_18_1359,ACPT_experiment_5_30_19,3.1.0,59.940777117270585,
,,,C,G,g,v,R,G,g,L,c ,,,,,5,19,119,4,1,0,1,0,,,,,1,32,68,6,,,,,,up,0.6338499852827226,1187.3490798221974,None,001,42,2019_Oct_18_1359,ACPT_experiment_5_30_19,3.1.0,59.940777117270585,
,,,C,G,g,v,L,G,g,L,c ,,,,,5,19,119,4,1,0,1,0,,,,,1,33,69,18,,,,,,up,0.6171933558234741,1189.2672719177099,None,001,42,2019_Oct_18_1359,ACPT_experiment_5_30_19,3.1.0,59.940777117270585,
,,,C,G,g,v,R,D,y,L,y,,,,,5,19,119,4,1,0,1,0,,,,,1,34,70,26,,,,,,down,0.6839119442756783,1191.168818552982,None,001,42,2019_Oct_18_1359,ACPT_experiment_5_30_19,3.1.0,59.940777117270585,
,,,C,G,g,v,R,U,d,L,u,,,,,5,19,119,4,1,0,1,0,,,,,1,35,71,8,,,,,,down,1.017516659498142,1193.1370889085101,None,001,42,2019_Oct_18_1359,ACPT_experiment_5_30_19,3.1.0,59.940777117270585,
,,,C,G,g,v,,,,,,,,,,5,19,119,4,2,0,2,0,0,0,0,0,,,,,,,,,,,,,,001,42,2019_Oct_18_1359,ACPT_experiment_5_30_19,3.1.0,59.940777117270585,
,,,C,G,g,v,L,D,d,L,c ,,,,,5,19,119,4,2,0,2,0,,,,,0,0,0,12,,,,,,up,0.6001355400094326,1207.632567034194,None,001,42,2019_Oct_18_1359,ACPT_experiment_5_30_19,3.1.0,59.940777117270585,
,,,C,G,g,v,R,D,g,L,i,,,,,5,19,119,4,2,0,2,0,,,,,0,1,1,2,,,,,,up,0.6005080486320367,1209.5170597779725,None,001,42,2019_Oct_18_1359,ACPT_experiment_5_30_19,3.1.0,59.940777117270585,
,,,C,G,g,v,R,G,g,R,c ,,,,,5,19,119,4,2,0,2,0,,,,,0,2,2,7,,,,,,up,0.7338154210719949,1211.4019497837835,None,001,42,2019_Oct_18_1359,ACPT_experiment_5_30_19,3.1.0,59.940777117270585,
,,,C,G,g,v,L,D,g,R,i,,,,,5,19,119,4,2,0,2,0,,,,,0,3,3,15,,,,,,up,0.5838281751148315,1213.4035521142268,None,001,42,2019_Oct_18_1359,ACPT_experiment_5_30_19,3.1.0,59.940777117270585,
,,,C,G,g,v,L,U,g,R,u,,,,,5,19,119,4,2,0,2,0,,,,,0,4,4,23,,,,,,up,0.5337613861902355,1215.2717622465225,None,001,42,2019_Oct_18_1359,ACPT_experiment_5_30_19,3.1.0,59.940777117270585,
,,,C,G,g,v,R,G,d,L,i,,,,,5,19,119,4,2,0,2,0,,,,,0,5,5,4,,,,,,up,0.6838880964787677,1217.089899854347,None,001,42,2019_Oct_18_1359,ACPT_experiment_5_30_19,3.1.0,59.940777117270585,
,,,C,G,g,v,L,U,y,L,u,,,,,5,19,119,4,2,0,2,0,,,,,0,6,6,24,,,,,,down,0.7005881953409698,1219.0581436452412,None,001,42,2019_Oct_18_1359,ACPT_experiment_5_30_19,3.1.0,59.940777117270585,
,,,C,G,g,v,L,G,y,L,y,,,,,5,19,119,4,2,0,2,0,,,,,0,7,7,34,,,,,,down,0.6839149629831809,1221.043088742481,None,001,42,2019_Oct_18_1359,ACPT_experiment_5_30_19,3.1.0,59.940777117270585,
,,,C,G,g,v,R,G,y,L,y,,,,,5,19,119,4,2,0,2,0,,,,,0,8,8,28,,,,,,down,0.5004182420543657,1222.9946810357178,None,001,42,2019_Oct_18_1359,ACPT_experiment_5_30_19,3.1.0,59.940777117270585,
,,,C,G,g,v,L,G,g,L,c ,,,,,5,19,119,4,2,0,2,0,,,,,0,9,9,18,,,,,,up,0.5838013086104183,1224.7794854611438,None,001,42,2019_Oct_18_1359,ACPT_experiment_5_30_19,3.1.0,59.940777117270585,
,,,C,G,g,v,R,D,d,L,c,,,,,5,19,119,4,2,0,2,0,,,,,0,10,10,0,,,,,,up,0.647210486993572,1226.6676649535493,None,001,42,2019_Oct_18_1359,ACPT_experiment_5_30_19,3.1.0,59.940777117270585,
,,,C,G,g,v,L,G,d,L,i,,,,,5,19,119,4,2,0,2,0,,,,,0,11,11,16,,,,,,up,0.46705185386417725,1228.5992561902385,None,001,42,2019_Oct_18_1359,ACPT_experiment_5_30_19,3.1.0,59.940777117270585,
,,,C,G,g,v,L,U,d,R,u,,,,,5,19,119,4,2,0,2,0,,,,,0,12,12,21,,,,,,up,0.5171014361512789,1230.350654984264,None,001,42,2019_Oct_18_1359,ACPT_experiment_5_30_19,3.1.0,59.940777117270585,
,,,C,G,g,v,R,U,g,R,u,,,,,5,19,119,4,2,0,2,0,,,,,0,13,13,11,,,,,,up,0.5504267699070624,1232.1521543767485,None,001,42,2019_Oct_18_1359,ACPT_experiment_5_30_19,3.1.0,59.940777117270585,
,,,C,G,g,v,R,D,y,L,y,,,,,5,19,119,4,2,0,2,0,,,,,0,14,14,26,,,,,,down,0.6838887002195406,1233.9869646131901,None,001,42,2019_Oct_18_1359,ACPT_experiment_5_30_19,3.1.0,59.940777117270585,
,,,C,G,g,v,R,U,d,L,u,,,,,5,19,119,4,2,0,2,0,,,,,0,15,15,8,,,,,,down,0.6838841721564677,1235.9552307425256,None,001,42,2019_Oct_18_1359,ACPT_experiment_5_30_19,3.1.0,59.940777117270585,
,,,C,G,g,v,L,U,g,L,u,,,,,5,19,119,4,2,0,2,0,,,,,0,16,16,22,,,,,,up,0.5837828944877401,1237.9235134747596,None,001,42,2019_Oct_18_1359,ACPT_experiment_5_30_19,3.1.0,59.940777117270585,
,,,C,G,g,v,L,G,g,R,c ,,,,,5,19,119,4,2,0,2,0,,,,,0,17,17,19,,,,,,up,0.7005697812201106,1239.791680741393,None,001,42,2019_Oct_18_1359,ACPT_experiment_5_30_19,3.1.0,59.940777117270585,
,,,C,G,g,v,R,U,g,L,u,,,,,5,19,119,4,2,0,2,0,,,,,0,18,18,10,,,,,,up,0.6838835684156948,1241.7766264423753,None,001,42,2019_Oct_18_1359,ACPT_experiment_5_30_19,3.1.0,59.940777117270585,
,,,C,G,g,v,L,D,y,L,y,,,,,5,19,119,4,2,0,2,0,,,,,0,19,19,32,,,,,,down,0.5838031198345561,1243.7448925717126,None,001,42,2019_Oct_18_1359,ACPT_experiment_5_30_19,3.1.0,59.940777117270585,
,,,C,G,g,v,L,D,g,L,i,,,,,5,19,119,4,2,0,2,0,,,,,0,20,20,14,,,,,,up,0.6338373067083012,1245.6130839880152,None,001,42,2019_Oct_18_1359,ACPT_experiment_5_30_19,3.1.0,59.940777117270585,
,,,C,G,g,v,L,D,y,R,y,,,,,5,19,119,4,2,0,2,0,,,,,0,21,21,33,,,,,,down,0.46704038277312065,1247.531300233195,None,001,42,2019_Oct_18_1359,ACPT_experiment_5_30_19,3.1.0,59.940777117270585,
,,,C,G,g,v,R,D,g,R,i,,,,,5,19,119,4,2,0,2,0,,,,,0,22,22,3,,,,,,up,0.6171604519004177,1249.2827298180473,None,001,42,2019_Oct_18_1359,ACPT_experiment_5_30_19,3.1.0,59.940777117270585,
,,,C,G,g,v,L,D,d,R,c ,,,,,5,19,119,4,2,0,2,0,,,,,0,23,23,13,,,,,,up,0.6171565275799367,1251.1842779626731,None,001,42,2019_Oct_18_1359,ACPT_experiment_5_30_19,3.1.0,59.940777117270585,
,,,C,G,g,v,R,U,y,L,u,,,,,5,19,119,4,2,0,2,0,,,,,0,24,24,30,,,,,,down,0.7504071483017469,1253.1193316579502,None,001,42,2019_Oct_18_1359,ACPT_experiment_5_30_19,3.1.0,59.940777117270585,
,,,C,G,g,v,L,G,y,R,y,,,,,5,19,119,4,2,0,2,0,,,,,0,25,25,35,,,,,,down,0.567119321998689,1255.1708450119604,None,001,42,2019_Oct_18_1359,ACPT_experiment_5_30_19,3.1.0,59.940777117270585,
,,,C,G,g,v,L,U,d,L,u,,,,,5,19,119,4,2,0,2,0,,,,,0,26,26,20,,,,,,up,0.7339464330198098,1257.022320632117,None,001,42,2019_Oct_18_1359,ACPT_experiment_5_30_19,3.1.0,59.940777117270585,
,,,C,G,g,v,R,D,y,R,y,,,,,5,19,119,4,2,0,2,0,,,,,0,27,27,27,,,,,,down,0.6171601500300312,1259.040656267216,None,001,42,2019_Oct_18_1359,ACPT_experiment_5_30_19,3.1.0,59.940777117270585,
,,,C,G,g,v,R,D,d,R,c ,,,,,5,19,119,4,2,0,2,0,,,,,0,28,28,1,,,,,,up,0.7506329476946121,1260.9254937474998,None,001,42,2019_Oct_18_1359,ACPT_experiment_5_30_19,3.1.0,59.940777117270585,
,,,C,G,g,v,R,G,y,R,y,,,,,5,19,119,4,2,0,2,0,,,,,0,29,29,29,,,,,,down,0.5337592730957113,1262.9605062374048,None,001,42,2019_Oct_18_1359,ACPT_experiment_5_30_19,3.1.0,59.940777117270585,
,,,C,G,g,v,R,G,g,L,c ,,,,,5,19,119,4,2,0,2,0,,,,,0,30,30,6,,,,,,up,0.8173092742272274,1264.778667391156,None,001,42,2019_Oct_18_1359,ACPT_experiment_5_30_19,3.1.0,59.940777117270585,
,,,C,G,g,v,R,U,y,R,u,,,,,5,19,119,4,2,0,2,0,,,,,0,31,31,31,,,,,,down,0.533566679496289,1266.897193959563,None,001,42,2019_Oct_18_1359,ACPT_experiment_5_30_19,3.1.0,59.940777117270585,
,,,C,G,g,v,R,U,d,R,u,,,,,5,19,119,4,2,0,2,0,,,,,0,32,32,9,,,,,,up,0.5671452828901238,1268.7318354502022,None,001,42,2019_Oct_18_1359,ACPT_experiment_5_30_19,3.1.0,59.940777117270585,
,,,C,G,g,v,R,G,d,R,i,,,,,5,19,119,4,2,0,2,0,,,,,0,33,33,5,,,,,,up,0.5337641030291707,1270.5666825148855,None,001,42,2019_Oct_18_1359,ACPT_experiment_5_30_19,3.1.0,59.940777117270585,
,,,C,G,g,v,L,U,y,R,u,,,,,5,19,119,4,2,0,2,0,,,,,0,34,34,25,,,,,,down,0.6502587787799712,1272.4017743968234,None,001,42,2019_Oct_18_1359,ACPT_experiment_5_30_19,3.1.0,59.940777117270585,
,,,C,G,g,v,L,G,d,R,i,,,,,5,19,119,4,2,0,2,0,,,,,0,35,35,17,,,,,,up,0.6672042986410816,1274.3364109065933,None,001,42,2019_Oct_18_1359,ACPT_experiment_5_30_19,3.1.0,59.940777117270585,
,,,C,G,g,v,R,U,y,R,u,,,,,5,19,119,4,2,0,2,0,,,,,1,0,36,31,,,,,,down,0.6171607537726231,1276.3046785452843,None,001,42,2019_Oct_18_1359,ACPT_experiment_5_30_19,3.1.0,59.940777117270585,
,,,C,G,g,v,L,D,y,R,y,,,,,5,19,119,4,2,0,2,0,,,,,1,1,37,33,,,,,,down,0.5837955730639806,1278.206222161847,None,001,42,2019_Oct_18_1359,ACPT_experiment_5_30_19,3.1.0,59.940777117270585,
,,,C,G,g,v,L,D,d,R,c ,,,,,5,19,119,4,2,0,2,0,,,,,1,2,38,13,,,,,,down,0.6838742104191624,1280.0910862067649,None,001,42,2019_Oct_18_1359,ACPT_experiment_5_30_19,3.1.0,59.940777117270585,
,,,C,G,g,v,R,G,g,L,c ,,,,,5,19,119,4,2,0,2,0,,,,,1,3,39,6,,,,,,up,0.7839637151246279,1282.0593556566819,None,001,42,2019_Oct_18_1359,ACPT_experiment_5_30_19,3.1.0,59.940777117270585,
,,,C,G,g,v,L,U,d,R,u,,,,,5,19,119,4,2,0,2,0,,,,,1,4,40,21,,,,,,up,0.683917679822116,1284.127673556868,None,001,42,2019_Oct_18_1359,ACPT_experiment_5_30_19,3.1.0,59.940777117270585,
,,,C,G,g,v,R,D,y,R,y,,,,,5,19,119,4,2,0,2,0,,,,,1,5,41,27,,,,,,down,0.8006517391531816,1286.0959608171634,None,001,42,2019_Oct_18_1359,ACPT_experiment_5_30_19,3.1.0,59.940777117270585,
,,,C,G,g,v,L,D,g,R,i,,,,,5,19,119,4,2,0,2,0,,,,,1,6,42,15,,,,,,up,0.9007213203840365,1288.1809948153677,None,001,42,2019_Oct_18_1359,ACPT_experiment_5_30_19,3.1.0,59.940777117270585,
,,,C,G,g,v,L,U,g,R,u,,,,,5,19,119,4,2,0,2,0,,,,,1,7,43,23,,,,,,up,0.5171352456854947,1290.3660706226838,None,001,42,2019_Oct_18_1359,ACPT_experiment_5_30_19,3.1.0,59.940777117270585,
,,,C,G,g,v,R,G,g,R,c ,,,,,5,19,119,4,2,0,2,0,,,,,1,8,44,7,,,,,,up,0.517080607061871,1292.167567298331,None,001,42,2019_Oct_18_1359,ACPT_experiment_5_30_19,3.1.0,59.940777117270585,
,,,C,G,g,v,R,U,g,R,u,,,,,5,19,119,4,2,0,2,0,,,,,1,9,45,11,,,,,,up,0.533765008642149,1293.9690259382514,None,001,42,2019_Oct_18_1359,ACPT_experiment_5_30_19,3.1.0,59.940777117270585,
,,,C,G,g,v,L,U,d,L,u,,,,,5,19,119,4,2,0,2,0,,,,,1,10,46,20,,,,,,up,0.7005673662515619,1295.7871665647835,None,001,42,2019_Oct_18_1359,ACPT_experiment_5_30_19,3.1.0,59.940777117270585,
,,,C,G,g,v,R,U,d,R,u,,,,,5,19,119,4,2,0,2,0,,,,,1,11,47,9,,,,,,up,0.663874663227034,1297.79212268031,None,001,42,2019_Oct_18_1359,ACPT_experiment_5_30_19,3.1.0,59.940777117270585,
,,,C,G,g,v,L,D,y,L,y,,,,,5,19,119,4,2,0,2,0,,,,,1,12,48,32,,,,,,down,0.6505208026756009,1299.7403886587108,None,001,42,2019_Oct_18_1359,ACPT_experiment_5_30_19,3.1.0,59.940777117270585,
,,,C,G,g,v,R,D,y,L,y,,,,,5,19,119,4,2,0,2,0,,,,,1,13,49,26,,,,,,down,0.5170754752580251,1301.691971593953,None,001,42,2019_Oct_18_1359,ACPT_experiment_5_30_19,3.1.0,59.940777117270585,
,,,C,G,g,v,R,D,g,R,i,,,,,5,19,119,4,2,0,2,0,,,,,1,14,50,3,,,,,,up,0.8340489181700832,1303.510111314874,None,001,42,2019_Oct_18_1359,ACPT_experiment_5_30_19,3.1.0,59.940777117270585,
,,,C,G,g,v,R,G,d,R,i,,,,,5,19,119,4,2,0,2,0,,,,,1,15,51,5,,,,,,up,0.5338136098453106,1305.6284975133385,None,001,42,2019_Oct_18_1359,ACPT_experiment_5_30_19,3.1.0,59.940777117270585,
,,,C,G,g,v,L,D,g,L,i,,,,,5,19,119,4,2,0,2,0,,,,,1,16,52,14,,,,,,up,0.7005903084354941,1307.4466179145238,None,001,42,2019_Oct_18_1359,ACPT_experiment_5_30_19,3.1.0,59.940777117270585,
,,,C,G,g,v,L,U,y,R,u,,,,,5,19,119,4,2,0,2,0,,,,,1,17,53,25,,,,,,down,0.6171553200965718,1309.4482727704944,None,001,42,2019_Oct_18_1359,ACPT_experiment_5_30_19,3.1.0,59.940777117270585,
,,,C,G,g,v,L,G,g,L,c ,,,,,5,19,119,4,2,0,2,0,,,,,1,18,54,18,,,,,,up,0.6838799459656002,1311.3664986755412,None,001,42,2019_Oct_18_1359,ACPT_experiment_5_30_19,3.1.0,59.940777117270585,
,,,C,G,g,v,L,G,d,L,i,,,,,5,19,119,4,2,0,2,0,,,,,1,19,55,16,,,,,,down,0.6505413298928033,1313.3347400514685,None,001,42,2019_Oct_18_1359,ACPT_experiment_5_30_19,3.1.0,59.940777117270585,
,,,C,G,g,v,L,G,d,R,i,,,,,5,19,119,4,2,0,2,0,,,,,1,20,56,17,,,,,,up,0.7005776298610726,1315.2696542824142,None,001,42,2019_Oct_18_1359,ACPT_experiment_5_30_19,3.1.0,59.940777117270585,
,,,C,G,g,v,R,U,g,L,u,,,,,5,19,119,4,2,0,2,0,,,,,1,21,57,10,,,,,,up,0.5835296248496888,1317.2715621061525,None,001,42,2019_Oct_18_1359,ACPT_experiment_5_30_19,3.1.0,59.940777117270585,
,,,C,G,g,v,L,G,y,R,y,,,,,5,19,119,4,2,0,2,0,,,,,1,22,58,35,,,,,,down,0.667213052895022,1319.1394758012775,None,001,42,2019_Oct_18_1359,ACPT_experiment_5_30_19,3.1.0,59.940777117270585,
,,,C,G,g,v,L,D,d,L,c ,,,,,5,19,119,4,2,0,2,0,,,,,1,23,59,12,,,,,,up,0.8507339234893152,1321.091036699947,None,001,42,2019_Oct_18_1359,ACPT_experiment_5_30_19,3.1.0,59.940777117270585,
,,,C,G,g,v,L,U,g,L,u,,,,,5,19,119,4,2,0,2,0,,,,,1,24,60,22,,,,,,up,0.6338493815419497,1323.2261317515295,None,001,42,2019_Oct_18_1359,ACPT_experiment_5_30_19,3.1.0,59.940777117270585,
,,,C,G,g,v,R,G,y,L,y,,,,,5,19,119,4,2,0,2,0,,,,,1,25,61,28,,,,,,down,0.700558913868008,1325.1443603734133,None,001,42,2019_Oct_18_1359,ACPT_experiment_5_30_19,3.1.0,59.940777117270585,
,,,C,G,g,v,R,G,d,L,i,,,,,5,19,119,4,2,0,2,0,,,,,1,26,62,4,,,,,,down,0.6671964500001195,1327.1293057725252,None,001,42,2019_Oct_18_1359,ACPT_experiment_5_30_19,3.1.0,59.940777117270585,
,,,C,G,g,v,R,D,d,R,c ,,,,,5,19,119,4,2,0,2,0,,,,,1,27,63,1,,,,,,up,0.6004724278718641,1329.097570392507,None,001,42,2019_Oct_18_1359,ACPT_experiment_5_30_19,3.1.0,59.940777117270585,
,,,C,G,g,v,L,U,y,L,u,,,,,5,19,119,4,2,0,2,0,,,,,1,28,64,24,,,,,,down,0.6171852053103066,1330.9824078727906,None,001,42,2019_Oct_18_1359,ACPT_experiment_5_30_19,3.1.0,59.940777117270585,
,,,C,G,g,v,L,G,y,L,y,,,,,5,19,119,4,2,0,2,0,,,,,1,29,65,34,,,,,,down,0.45016338759523933,1332.9008142966031,None,001,42,2019_Oct_18_1359,ACPT_experiment_5_30_19,3.1.0,59.940777117270585,
,,,C,G,g,v,R,G,y,R,y,,,,,5,19,119,4,2,0,2,0,,,,,1,30,66,29,,,,,,down,0.6505334812500223,1334.6520603439803,None,001,42,2019_Oct_18_1359,ACPT_experiment_5_30_19,3.1.0,59.940777117270585,
,,,C,G,g,v,R,U,y,L,u,,,,,5,19,119,4,2,0,2,0,,,,,1,31,67,30,,,,,,down,0.6671946387741627,1336.6203442836977,None,001,42,2019_Oct_18_1359,ACPT_experiment_5_30_19,3.1.0,59.940777117270585,
,,,C,G,g,v,R,U,d,L,u,,,,,5,19,119,4,2,0,2,0,,,,,1,32,68,8,,,,,,up,0.5337568581289815,1338.5886079980664,None,001,42,2019_Oct_18_1359,ACPT_experiment_5_30_19,3.1.0,59.940777117270585,
,,,C,G,g,v,R,D,d,L,c,,,,,5,19,119,4,2,0,2,0,,,,,1,33,69,0,,,,,,up,0.5838016104808048,1340.4067546620172,None,001,42,2019_Oct_18_1359,ACPT_experiment_5_30_19,3.1.0,59.940777117270585,
,,,C,G,g,v,R,D,g,L,i,,,,,5,19,119,4,2,0,2,0,,,,,1,34,70,2,,,,,,up,0.5002893432047131,1342.2582659029322,None,001,42,2019_Oct_18_1359,ACPT_experiment_5_30_19,3.1.0,59.940777117270585,
,,,C,G,g,v,L,G,g,R,c ,,,,,5,19,119,4,2,0,2,0,,,,,1,35,71,19,,,,,,up,0.6005107654691528,1344.0263367218322,None,001,42,2019_Oct_18_1359,ACPT_experiment_5_30_19,3.1.0,59.940777117270585,
,,,C,G,g,v,,,,,,,,,,5,19,119,4,3,0,3,0,0,0,0,0,,,,,,,,,,,,,,001,42,2019_Oct_18_1359,ACPT_experiment_5_30_19,3.1.0,59.940777117270585,
,,,C,G,g,v,R,D,d,R,c ,,,,,5,19,119,4,3,0,3,0,,,,,0,0,0,1,,,,,,down,0.700367829624156,1356.486647497868,None,001,42,2019_Oct_18_1359,ACPT_experiment_5_30_19,3.1.0,59.940777117270585,
,,,C,G,g,v,R,G,g,R,c ,,,,,5,19,119,4,3,0,3,0,,,,,0,1,1,7,,,,,,up,0.5003962054834119,1358.4714313960758,None,001,42,2019_Oct_18_1359,ACPT_experiment_5_30_19,3.1.0,59.940777117270585,
,,,C,G,g,v,L,G,g,L,c ,,,,,5,19,119,4,3,0,3,0,,,,,0,2,2,18,,,,,,up,0.6338831910761655,1360.2395109692316,None,001,42,2019_Oct_18_1359,ACPT_experiment_5_30_19,3.1.0,59.940777117270585,
,,,C,G,g,v,L,G,y,R,y,,,,,5,19,119,4,3,0,3,0,,,,,0,3,3,35,,,,,,down,0.7339259058007883,1362.1577570996233,None,001,42,2019_Oct_18_1359,ACPT_experiment_5_30_19,3.1.0,59.940777117270585,
,,,C,G,g,v,R,D,g,L,i,,,,,5,19,119,4,3,0,3,0,,,,,0,4,4,2,,,,,,up,0.5838028179641697,1364.1760613401548,None,001,42,2019_Oct_18_1359,ACPT_experiment_5_30_19,3.1.0,59.940777117270585,
,,,C,G,g,v,R,G,y,L,y,,,,,5,19,119,4,3,0,3,0,,,,,0,5,5,28,,,,,,down,0.7672778041924175,1366.0609314224894,None,001,42,2019_Oct_18_1359,ACPT_experiment_5_30_19,3.1.0,59.940777117270585,
,,,C,G,g,v,L,D,y,L,y,,,,,5,19,119,4,3,0,3,0,,,,,0,6,6,32,,,,,,down,0.533757159999368,1368.1292764910522,None,001,42,2019_Oct_18_1359,ACPT_experiment_5_30_19,3.1.0,59.940777117270585,
,,,C,G,g,v,R,U,y,R,u,,,,,5,19,119,4,3,0,3,0,,,,,0,7,7,31,,,,,,down,0.6672362969511596,1369.9473923641763,None,001,42,2019_Oct_18_1359,ACPT_experiment_5_30_19,3.1.0,59.940777117270585,
,,,C,G,g,v,R,D,g,R,i,,,,,5,19,119,4,3,0,3,0,,,,,0,8,8,3,,,,,,up,0.5337668198662868,1371.8990045808896,None,001,42,2019_Oct_18_1359,ACPT_experiment_5_30_19,3.1.0,59.940777117270585,
,,,C,G,g,v,L,D,d,R,c ,,,,,5,19,119,4,3,0,3,0,,,,,0,9,9,13,,,,,,up,0.46704279773803137,1373.7171449055513,None,001,42,2019_Oct_18_1359,ACPT_experiment_5_30_19,3.1.0,59.940777117270585,
,,,C,G,g,v,R,U,d,R,u,,,,,5,19,119,4,3,0,3,0,,,,,0,10,10,9,,,,,,up,0.8473765159560571,1375.4885634721177,None,001,42,2019_Oct_18_1359,ACPT_experiment_5_30_19,3.1.0,59.940777117270585,
,,,C,G,g,v,L,D,g,R,i,,,,,5,19,119,4,3,0,3,0,,,,,0,11,11,15,,,,,,up,0.5170797014488926,1377.620318926547,None,001,42,2019_Oct_18_1359,ACPT_experiment_5_30_19,3.1.0,59.940777117270585,
,,,C,G,g,v,R,G,g,L,c ,,,,,5,19,119,4,3,0,3,0,,,,,0,12,12,6,,,,,,up,0.7339240945766505,1379.4217854151084,None,001,42,2019_Oct_18_1359,ACPT_experiment_5_30_19,3.1.0,59.940777117270585,
,,,C,G,g,v,R,G,y,R,y,,,,,5,19,119,4,3,0,3,0,,,,,0,13,13,29,,,,,,down,0.5671498109531967,1381.423384424972,None,001,42,2019_Oct_18_1359,ACPT_experiment_5_30_19,3.1.0,59.940777117270585,
,,,C,G,g,v,R,U,g,L,u,,,,,5,19,119,4,3,0,3,0,,,,,0,14,14,10,,,,,,up,0.7005652531570377,1383.274912570656,None,001,42,2019_Oct_18_1359,ACPT_experiment_5_30_19,3.1.0,59.940777117270585,
,,,C,G,g,v,L,G,g,R,c ,,,,,5,19,119,4,3,0,3,0,,,,,0,15,15,19,,,,,,up,0.46704611831773946,1385.2431759831543,None,001,42,2019_Oct_18_1359,ACPT_experiment_5_30_19,3.1.0,59.940777117270585,
,,,C,G,g,v,L,G,y,L,y,,,,,5,19,119,4,3,0,3,0,,,,,0,16,16,34,,,,,,down,0.6505205008052144,1386.9946064736196,None,001,42,2019_Oct_18_1359,ACPT_experiment_5_30_19,3.1.0,59.940777117270585,
,,,C,G,g,v,L,D,g,L,i,,,,,5,19,119,4,3,0,3,0,,,,,0,17,17,14,,,,,,up,0.5838010067382129,1388.929508931602,None,001,42,2019_Oct_18_1359,ACPT_experiment_5_30_19,3.1.0,59.940777117270585,
,,,C,G,g,v,R,G,d,L,i,,,,,5,19,119,4,3,0,3,0,,,,,0,18,18,4,,,,,,down,0.683898058214254,1390.7976695570796,None,001,42,2019_Oct_18_1359,ACPT_experiment_5_30_19,3.1.0,59.940777117270585,
,,,C,G,g,v,R,D,y,R,y,,,,,5,19,119,4,3,0,3,0,,,,,0,19,19,27,,,,,,down,0.7839628095116495,1392.765961345438,None,001,42,2019_Oct_18_1359,ACPT_experiment_5_30_19,3.1.0,59.940777117270585,
,,,C,G,g,v,R,D,y,L,y,,,,,5,19,119,4,3,0,3,0,,,,,0,20,20,26,,,,,,down,0.6505144633865712,1394.8509862875162,None,001,42,2019_Oct_18_1359,ACPT_experiment_5_30_19,3.1.0,59.940777117270585,
,,,C,G,g,v,L,G,d,R,i,,,,,5,19,119,4,3,0,3,0,,,,,0,21,21,17,,,,,,up,0.58380432731974,1396.8025680152732,None,001,42,2019_Oct_18_1359,ACPT_experiment_5_30_19,3.1.0,59.940777117270585,
,,,C,G,g,v,R,D,d,L,c,,,,,5,19,119,4,3,0,3,0,,,,,0,22,22,0,,,,,,down,0.6338439478658984,1398.6707530922886,None,001,42,2019_Oct_18_1359,ACPT_experiment_5_30_19,3.1.0,59.940777117270585,
,,,C,G,g,v,L,U,y,L,u,,,,,5,19,119,4,3,0,3,0,,,,,0,23,23,24,,,,,,down,0.6505467635670357,1400.588951225218,None,001,42,2019_Oct_18_1359,ACPT_experiment_5_30_19,3.1.0,59.940777117270585,
,,,C,G,g,v,L,D,y,R,y,,,,,5,19,119,4,3,0,3,0,,,,,0,24,24,33,,,,,,down,0.6338427403843525,1402.5572402967373,None,001,42,2019_Oct_18_1359,ACPT_experiment_5_30_19,3.1.0,59.940777117270585,
,,,C,G,g,v,R,G,d,R,i,,,,,5,19,119,4,3,0,3,0,,,,,0,25,25,5,,,,,,up,0.6672359950789541,1404.4921315855008,None,001,42,2019_Oct_18_1359,ACPT_experiment_5_30_19,3.1.0,59.940777117270585,
,,,C,G,g,v,L,U,g,L,u,,,,,5,19,119,4,3,0,3,0,,,,,0,26,26,22,,,,,,up,0.7339286226397235,1406.443733840475,None,001,42,2019_Oct_18_1359,ACPT_experiment_5_30_19,3.1.0,59.940777117270585,
,,,C,G,g,v,L,U,d,R,u,,,,,5,19,119,4,3,0,3,0,,,,,0,27,27,21,,,,,,up,0.6505464616966492,1408.4453410008518,None,001,42,2019_Oct_18_1359,ACPT_experiment_5_30_19,3.1.0,59.940777117270585,
,,,C,G,g,v,R,U,y,L,u,,,,,5,19,119,4,3,0,3,0,,,,,0,28,28,30,,,,,,down,0.6671925256796385,1410.3969520100818,None,001,42,2019_Oct_18_1359,ACPT_experiment_5_30_19,3.1.0,59.940777117270585,
,,,C,G,g,v,L,U,g,R,u,,,,,5,19,119,4,3,0,3,0,,,,,0,29,29,23,,,,,,up,0.7339416030845314,1412.3651894616887,None,001,42,2019_Oct_18_1359,ACPT_experiment_5_30_19,3.1.0,59.940777117270585,
,,,C,G,g,v,L,U,d,L,u,,,,,5,19,119,4,3,0,3,0,,,,,0,30,30,20,,,,,,up,0.6171870165344444,1414.3668165455401,None,001,42,2019_Oct_18_1359,ACPT_experiment_5_30_19,3.1.0,59.940777117270585,
,,,C,G,g,v,R,U,g,R,u,,,,,5,19,119,4,3,0,3,0,,,,,0,31,31,11,,,,,,up,0.5837982899010967,1416.2683831042887,None,001,42,2019_Oct_18_1359,ACPT_experiment_5_30_19,3.1.0,59.940777117270585,
,,,C,G,g,v,R,U,d,L,u,,,,,5,19,119,4,3,0,3,0,,,,,0,32,32,8,,,,,,up,0.6505383111834817,1418.1198744217272,None,001,42,2019_Oct_18_1359,ACPT_experiment_5_30_19,3.1.0,59.940777117270585,
,,,C,G,g,v,L,G,d,L,i,,,,,5,19,119,4,3,0,3,0,,,,,0,33,33,16,,,,,,up,0.5804891817042517,1420.074793029802,None,001,42,2019_Oct_18_1359,ACPT_experiment_5_30_19,3.1.0,59.940777117270585,
,,,C,G,g,v,L,D,d,L,c ,,,,,5,19,119,4,3,0,3,0,,,,,0,34,34,12,,,,,,down,0.5838031198363751,1421.939653301335,None,001,42,2019_Oct_18_1359,ACPT_experiment_5_30_19,3.1.0,59.940777117270585,
,,,C,G,g,v,L,U,y,R,u,,,,,5,19,119,4,3,0,3,0,,,,,0,35,35,25,,,,,,down,0.8006381549657817,1423.8245212705733,None,001,42,2019_Oct_18_1359,ACPT_experiment_5_30_19,3.1.0,59.940777117270585,
,,,C,G,g,v,R,D,y,R,y,,,,,5,19,119,4,3,0,3,0,,,,,1,0,36,27,,,,,,down,0.6838802478359867,1425.92623061423,None,001,42,2019_Oct_18_1359,ACPT_experiment_5_30_19,3.1.0,59.940777117270585,
,,,C,G,g,v,L,U,y,R,u,,,,,5,19,119,4,3,0,3,0,,,,,1,1,37,25,,,,,,down,0.4837625182062766,1427.89446897145,None,001,42,2019_Oct_18_1359,ACPT_experiment_5_30_19,3.1.0,59.940777117270585,
,,,C,G,g,v,R,U,y,R,u,,,,,5,19,119,4,3,0,3,0,,,,,1,2,38,31,,,,,,down,0.450360811126302,1429.662598353294,None,001,42,2019_Oct_18_1359,ACPT_experiment_5_30_19,3.1.0,59.940777117270585,
,,,C,G,g,v,L,D,g,R,i,,,,,5,19,119,4,3,0,3,0,,,,,1,3,39,15,,,,,,up,0.5504409578370542,1431.3973396122456,None,001,42,2019_Oct_18_1359,ACPT_experiment_5_30_19,3.1.0,59.940777117270585,
,,,C,G,g,v,L,D,y,L,y,,,,,5,19,119,4,3,0,3,0,,,,,1,4,40,32,,,,,,down,0.6472008271248342,1433.2521663006482,None,001,42,2019_Oct_18_1359,ACPT_experiment_5_30_19,3.1.0,59.940777117270585,
,,,C,G,g,v,L,G,y,L,y,,,,,5,19,119,4,3,0,3,0,,,,,1,5,41,34,,,,,,down,0.5170618910688063,1435.2004522025236,None,001,42,2019_Oct_18_1359,ACPT_experiment_5_30_19,3.1.0,59.940777117270585,
,,,C,G,g,v,R,U,d,R,u,,,,,5,19,119,4,3,0,3,0,,,,,1,6,42,9,,,,,,up,0.7005721961868403,1437.018570188744,None,001,42,2019_Oct_18_1359,ACPT_experiment_5_30_19,3.1.0,59.940777117270585,
,,,C,G,g,v,L,U,y,L,u,,,,,5,19,119,4,3,0,3,0,,,,,1,7,43,24,,,,,,down,0.5838019123511913,1439.0035161915966,None,001,42,2019_Oct_18_1359,ACPT_experiment_5_30_19,3.1.0,59.940777117270585,
,,,C,G,g,v,R,G,g,R,c ,,,,,5,19,119,4,3,0,3,0,,,,,1,8,44,7,,,,,,up,0.6005140860488609,1440.871677118943,None,001,42,2019_Oct_18_1359,ACPT_experiment_5_30_19,3.1.0,59.940777117270585,
,,,C,G,g,v,L,G,y,R,y,,,,,5,19,119,4,3,0,3,0,,,,,1,9,45,35,,,,,,down,0.7339262076729938,1442.7732494132379,None,001,42,2019_Oct_18_1359,ACPT_experiment_5_30_19,3.1.0,59.940777117270585,
,,,C,G,g,v,R,D,g,L,i,,,,,5,19,119,4,3,0,3,0,,,,,1,10,46,2,,,,,,up,0.6004380145950563,1444.8082785060396,None,001,42,2019_Oct_18_1359,ACPT_experiment_5_30_19,3.1.0,59.940777117270585,
,,,C,G,g,v,R,U,g,R,u,,,,,5,19,119,4,3,0,3,0,,,,,1,11,47,11,,,,,,up,0.6004860120592639,1446.6930960628488,None,001,42,2019_Oct_18_1359,ACPT_experiment_5_30_19,3.1.0,59.940777117270585,
,,,C,G,g,v,L,U,d,L,u,,,,,5,19,119,4,3,0,3,0,,,,,1,12,48,20,,,,,,up,0.5337529338066815,1448.5779673526667,None,001,42,2019_Oct_18_1359,ACPT_experiment_5_30_19,3.1.0,59.940777117270585,
,,,C,G,g,v,R,G,d,L,i,,,,,5,19,119,4,3,0,3,0,,,,,1,13,49,4,,,,,,up,0.5170863426083088,1450.3794265963297,None,001,42,2019_Oct_18_1359,ACPT_experiment_5_30_19,3.1.0,59.940777117270585,
,,,C,G,g,v,L,D,d,L,c ,,,,,5,19,119,4,3,0,3,0,,,,,1,14,50,12,,,,,,up,0.6169144271607365,1452.1978111345052,None,001,42,2019_Oct_18_1359,ACPT_experiment_5_30_19,3.1.0,59.940777117270585,
,,,C,G,g,v,R,D,d,L,c,,,,,5,19,119,4,3,0,3,0,,,,,1,15,51,0,,,,,,up,0.5170851351249439,1454.0991195936804,None,001,42,2019_Oct_18_1359,ACPT_experiment_5_30_19,3.1.0,59.940777117270585,
,,,C,G,g,v,L,U,g,L,u,,,,,5,19,119,4,3,0,3,0,,,,,1,16,52,22,,,,,,up,0.4837284067998553,1455.90057762986,None,001,42,2019_Oct_18_1359,ACPT_experiment_5_30_19,3.1.0,59.940777117270585,
,,,C,G,g,v,R,G,d,R,i,,,,,5,19,119,4,3,0,3,0,,,,,1,17,53,5,,,,,,down,0.7172402967389644,1457.668685578874,None,001,42,2019_Oct_18_1359,ACPT_experiment_5_30_19,3.1.0,59.940777117270585,
,,,C,G,g,v,R,G,y,R,y,,,,,5,19,119,4,3,0,3,0,,,,,1,18,54,29,,,,,,down,0.5837979880307103,1459.670312360855,None,001,42,2019_Oct_18_1359,ACPT_experiment_5_30_19,3.1.0,59.940777117270585,
,,,C,G,g,v,R,G,y,L,y,,,,,5,19,119,4,3,0,3,0,,,,,1,19,55,28,,,,,,down,0.6338620601181901,1461.5384898910997,None,001,42,2019_Oct_18_1359,ACPT_experiment_5_30_19,3.1.0,59.940777117270585,
,,,C,G,g,v,R,U,g,L,u,,,,,5,19,119,4,3,0,3,0,,,,,1,20,56,10,,,,,,up,0.6505208026737819,1463.456717909241,None,001,42,2019_Oct_18_1359,ACPT_experiment_5_30_19,3.1.0,59.940777117270585,
,,,C,G,g,v,L,U,d,R,u,,,,,5,19,119,4,3,0,3,0,,,,,1,21,57,21,,,,,,up,0.5971853562441538,1465.411616291969,None,001,42,2019_Oct_18_1359,ACPT_experiment_5_30_19,3.1.0,59.940777117270585,
,,,C,G,g,v,R,U,d,L,u,,,,,5,19,119,4,3,0,3,0,,,,,1,22,58,8,,,,,,down,0.616983253714352,1467.2933176360493,None,001,42,2019_Oct_18_1359,ACPT_experiment_5_30_19,3.1.0,59.940777117270585,
,,,C,G,g,v,L,D,d,R,c ,,,,,5,19,119,4,3,0,3,0,,,,,1,23,59,13,,,,,,up,0.550438240998119,1469.211392907544,None,001,42,2019_Oct_18_1359,ACPT_experiment_5_30_19,3.1.0,59.940777117270585,
,,,C,G,g,v,R,D,g,R,i,,,,,5,19,119,4,3,0,3,0,,,,,1,24,60,3,,,,,,up,0.5838656071009609,1471.0461913710205,None,001,42,2019_Oct_18_1359,ACPT_experiment_5_30_19,3.1.0,59.940777117270585,
,,,C,G,g,v,R,D,d,R,c ,,,,,5,19,119,4,3,0,3,0,,,,,1,25,61,1,,,,,,down,0.6671994687076221,1472.9144027107995,None,001,42,2019_Oct_18_1359,ACPT_experiment_5_30_19,3.1.0,59.940777117270585,
,,,C,G,g,v,L,D,y,R,y,,,,,5,19,119,4,3,0,3,0,,,,,1,26,62,33,,,,,,down,0.8173400650539406,1474.865968137532,None,001,42,2019_Oct_18_1359,ACPT_experiment_5_30_19,3.1.0,59.940777117270585,
,,,C,G,g,v,R,D,y,L,y,,,,,5,19,119,4,3,0,3,0,,,,,1,27,63,26,,,,,,down,0.6338445516103093,1476.9676952915688,None,001,42,2019_Oct_18_1359,ACPT_experiment_5_30_19,3.1.0,59.940777117270585,
,,,C,G,g,v,R,G,g,L,c ,,,,,5,19,119,4,3,0,3,0,,,,,1,28,64,6,,,,,,up,0.6505500841467438,1478.8858922170148,None,001,42,2019_Oct_18_1359,ACPT_experiment_5_30_19,3.1.0,59.940777117270585,
,,,C,G,g,v,L,G,g,L,c ,,,,,5,19,119,4,3,0,3,0,,,,,1,29,65,18,,,,,,up,0.5837964786769589,1480.8208254658239,None,001,42,2019_Oct_18_1359,ACPT_experiment_5_30_19,3.1.0,59.940777117270585,
,,,C,G,g,v,R,U,y,L,u,,,,,5,19,119,4,3,0,3,0,,,,,1,30,66,30,,,,,,down,0.6671831676812872,1482.6890099390966,None,001,42,2019_Oct_18_1359,ACPT_experiment_5_30_19,3.1.0,59.940777117270585,
,,,C,G,g,v,L,G,g,R,c ,,,,,5,19,119,4,3,0,3,0,,,,,1,31,67,19,,,,,,up,0.8170526840076491,1484.6575450353557,None,001,42,2019_Oct_18_1359,ACPT_experiment_5_30_19,3.1.0,59.940777117270585,
,,,C,G,g,v,L,D,g,L,i,,,,,5,19,119,4,3,0,3,0,,,,,1,32,68,14,,,,,,up,0.5838085535106075,1486.75897786532,None,001,42,2019_Oct_18_1359,ACPT_experiment_5_30_19,3.1.0,59.940777117270585,
,,,C,G,g,v,L,G,d,L,i,,,,,5,19,119,4,3,0,3,0,,,,,1,33,69,16,,,,,,up,0.6004989925058908,1488.6271396982793,None,001,42,2019_Oct_18_1359,ACPT_experiment_5_30_19,3.1.0,59.940777117270585,
,,,C,G,g,v,L,G,d,R,i,,,,,5,19,119,4,3,0,3,0,,,,,1,34,70,17,,,,,,up,0.6840366169326444,1490.4951946689598,None,001,42,2019_Oct_18_1359,ACPT_experiment_5_30_19,3.1.0,59.940777117270585,
,,,C,G,g,v,L,U,g,R,u,,,,,5,19,119,4,3,0,3,0,,,,,1,35,71,23,,,,,,up,0.5504494102206081,1492.4636126393307,None,001,42,2019_Oct_18_1359,ACPT_experiment_5_30_19,3.1.0,59.940777117270585,
,,,C,G,g,v,,,,,,,,,,5,19,119,4,4,0,4,0,0,0,0,0,,,,,,,,,,,,,,001,42,2019_Oct_18_1359,ACPT_experiment_5_30_19,3.1.0,59.940777117270585,
,,,C,G,g,v,R,G,d,L,i,,,,,5,19,119,4,4,0,4,0,,,,,0,0,0,4,,,,,,up,0.650268438648709,1502.3719248039724,None,001,42,2019_Oct_18_1359,ACPT_experiment_5_30_19,3.1.0,59.940777117270585,
,,,C,G,g,v,L,G,d,L,i,,,,,5,19,119,4,4,0,4,0,,,,,0,1,1,16,,,,,,up,0.46703796780457196,1504.289889288866,None,001,42,2019_Oct_18_1359,ACPT_experiment_5_30_19,3.1.0,59.940777117270585,
,,,C,G,g,v,R,D,g,L,i,,,,,5,19,119,4,4,0,4,0,,,,,0,2,2,2,,,,,,up,0.4670434014806233,1506.0413113269478,None,001,42,2019_Oct_18_1359,ACPT_experiment_5_30_19,3.1.0,59.940777117270585,
,,,C,G,g,v,L,U,d,L,u,,,,,5,19,119,4,4,0,4,0,,,,,0,3,3,20,,,,,,up,0.4837178413217771,1507.7927400061872,None,001,42,2019_Oct_18_1359,ACPT_experiment_5_30_19,3.1.0,59.940777117270585,
,,,C,G,g,v,R,U,y,R,u,,,,,5,19,119,4,4,0,4,0,,,,,0,4,4,31,,,,,,down,0.6669597832569707,1509.5777678160393,None,001,42,2019_Oct_18_1359,ACPT_experiment_5_30_19,3.1.0,59.940777117270585,
,,,C,G,g,v,R,D,g,R,i,,,,,5,19,119,4,4,0,4,0,,,,,0,5,5,3,,,,,,up,0.483718445064369,1511.5291062358956,None,001,42,2019_Oct_18_1359,ACPT_experiment_5_30_19,3.1.0,59.940777117270585,
,,,C,G,g,v,L,G,d,R,i,,,,,5,19,119,4,4,0,4,0,,,,,0,6,6,17,,,,,,down,0.7506287215019256,1513.2971830922124,None,001,42,2019_Oct_18_1359,ACPT_experiment_5_30_19,3.1.0,59.940777117270585,
,,,C,G,g,v,R,G,g,L,c ,,,,,5,19,119,4,4,0,4,0,,,,,0,7,7,6,,,,,,up,0.6672015818039654,1515.332194374636,None,001,42,2019_Oct_18_1359,ACPT_experiment_5_30_19,3.1.0,59.940777117270585,
,,,C,G,g,v,L,G,g,R,c ,,,,,5,19,119,4,4,0,4,0,,,,,0,8,8,19,,,,,,up,0.5835290211089159,1517.300731282121,None,001,42,2019_Oct_18_1359,ACPT_experiment_5_30_19,3.1.0,59.940777117270585,
,,,C,G,g,v,L,D,d,R,c ,,,,,5,19,119,4,4,0,4,0,,,,,0,9,9,13,,,,,,up,0.5337607824476436,1519.1686443735034,None,001,42,2019_Oct_18_1359,ACPT_experiment_5_30_19,3.1.0,59.940777117270585,
,,,C,G,g,v,L,D,g,R,i,,,,,5,19,119,4,4,0,4,0,,,,,0,10,10,15,,,,,,up,0.48374500969839573,1520.9700852030455,None,001,42,2019_Oct_18_1359,ACPT_experiment_5_30_19,3.1.0,59.940777117270585,
,,,C,G,g,v,R,U,y,L,u,,,,,5,19,119,4,4,0,4,0,,,,,0,11,11,30,,,,,,down,0.6672157697339571,1522.7382106605673,None,001,42,2019_Oct_18_1359,ACPT_experiment_5_30_19,3.1.0,59.940777117270585,
,,,C,G,g,v,L,D,y,L,y,,,,,5,19,119,4,4,0,4,0,,,,,0,12,12,32,,,,,,down,0.43370538914859935,1524.673095006301,None,001,42,2019_Oct_18_1359,ACPT_experiment_5_30_19,3.1.0,59.940777117270585,
,,,C,G,g,v,R,D,y,R,y,,,,,5,19,119,4,4,0,4,0,,,,,0,13,13,27,,,,,,down,0.6338656825682847,1526.3911521655446,None,001,42,2019_Oct_18_1359,ACPT_experiment_5_30_19,3.1.0,59.940777117270585,
,,,C,G,g,v,L,U,y,R,u,,,,,5,19,119,4,4,0,4,0,,,,,0,14,14,25,,,,,,down,0.45035809428918583,1528.3094076539346,None,001,42,2019_Oct_18_1359,ACPT_experiment_5_30_19,3.1.0,59.940777117270585,
,,,C,G,g,v,L,G,g,L,c ,,,,,5,19,119,4,4,0,4,0,,,,,0,15,15,18,,,,,,up,0.5835691699321615,1530.061062132565,None,001,42,2019_Oct_18_1359,ACPT_experiment_5_30_19,3.1.0,59.940777117270585,
,,,C,G,g,v,L,G,y,L,y,,,,,5,19,119,4,4,0,4,0,,,,,0,16,16,34,,,,,,down,0.6004884270259936,1531.9290084297427,None,001,42,2019_Oct_18_1359,ACPT_experiment_5_30_19,3.1.0,59.940777117270585,
,,,C,G,g,v,R,G,g,R,c ,,,,,5,19,119,4,4,0,4,0,,,,,0,17,17,7,,,,,,up,0.5671329061860888,1533.8138628147935,None,001,42,2019_Oct_18_1359,ACPT_experiment_5_30_19,3.1.0,59.940777117270585,
,,,C,G,g,v,R,G,d,R,i,,,,,5,19,119,4,4,0,4,0,,,,,0,18,18,5,,,,,,up,0.5838215339572344,1535.6486769755556,None,001,42,2019_Oct_18_1359,ACPT_experiment_5_30_19,3.1.0,59.940777117270585,
,,,C,G,g,v,L,D,g,L,i,,,,,5,19,119,4,4,0,4,0,,,,,0,19,19,14,,,,,,up,0.5504376372573461,1537.5168855984957,None,001,42,2019_Oct_18_1359,ACPT_experiment_5_30_19,3.1.0,59.940777117270585,
,,,C,G,g,v,L,U,y,L,u,,,,,5,19,119,4,4,0,4,0,,,,,0,20,20,24,,,,,,down,0.617153508870615,1539.368384764577,None,001,42,2019_Oct_18_1359,ACPT_experiment_5_30_19,3.1.0,59.940777117270585,
,,,C,G,g,v,L,U,g,R,u,,,,,5,19,119,4,4,0,4,0,,,,,0,21,21,23,,,,,,up,0.6171604519004177,1541.2866088583996,None,001,42,2019_Oct_18_1359,ACPT_experiment_5_30_19,3.1.0,59.940777117270585,
,,,C,G,g,v,R,G,y,L,y,,,,,5,19,119,4,4,0,4,0,,,,,0,22,22,28,,,,,,down,0.6336033568040875,1543.205077165734,None,001,42,2019_Oct_18_1359,ACPT_experiment_5_30_19,3.1.0,59.940777117270585,
,,,C,G,g,v,R,U,g,R,u,,,,,5,19,119,4,4,0,4,0,,,,,0,23,23,11,,,,,,up,0.6839128498868376,1545.1230341038572,None,001,42,2019_Oct_18_1359,ACPT_experiment_5_30_19,3.1.0,59.940777117270585,
,,,C,G,g,v,R,D,y,L,y,,,,,5,19,119,4,4,0,4,0,,,,,0,24,24,26,,,,,,down,0.7839679413173144,1547.091327099699,None,001,42,2019_Oct_18_1359,ACPT_experiment_5_30_19,3.1.0,59.940777117270585,
,,,C,G,g,v,R,U,d,R,u,,,,,5,19,119,4,4,0,4,0,,,,,0,25,25,9,,,,,,up,0.6171601500300312,1549.1596760925822,None,001,42,2019_Oct_18_1359,ACPT_experiment_5_30_19,3.1.0,59.940777117270585,
,,,C,G,g,v,R,D,d,L,c,,,,,5,19,119,4,4,0,4,0,,,,,0,26,26,0,,,,,,up,0.7339262076729938,1551.044541948726,None,001,42,2019_Oct_18_1359,ACPT_experiment_5_30_19,3.1.0,59.940777117270585,
,,,C,G,g,v,L,U,d,R,u,,,,,5,19,119,4,4,0,4,0,,,,,0,27,27,21,,,,,,up,0.41696423585199227,1553.046199823404,None,001,42,2019_Oct_18_1359,ACPT_experiment_5_30_19,3.1.0,59.940777117270585,
,,,C,G,g,v,L,D,y,R,y,,,,,5,19,119,4,4,0,4,0,,,,,0,28,28,33,,,,,,down,0.7005601213513728,1554.747546016437,None,001,42,2019_Oct_18_1359,ACPT_experiment_5_30_19,3.1.0,59.940777117270585,
,,,C,G,g,v,L,G,y,R,y,,,,,5,19,119,4,4,0,4,0,,,,,0,29,29,35,,,,,,down,0.5668832589981321,1556.749415502576,None,001,42,2019_Oct_18_1359,ACPT_experiment_5_30_19,3.1.0,59.940777117270585,
,,,C,G,g,v,L,D,d,L,c ,,,,,5,19,119,4,4,0,4,0,,,,,0,30,30,12,,,,,,up,0.6338252318728337,1558.6006783037865,None,001,42,2019_Oct_18_1359,ACPT_experiment_5_30_19,3.1.0,59.940777117270585,
,,,C,G,g,v,R,U,d,L,u,,,,,5,19,119,4,4,0,4,0,,,,,0,31,31,8,,,,,,down,0.700562838190308,1560.518896963933,None,001,42,2019_Oct_18_1359,ACPT_experiment_5_30_19,3.1.0,59.940777117270585,
,,,C,G,g,v,L,U,g,L,u,,,,,5,19,119,4,4,0,4,0,,,,,0,32,32,22,,,,,,up,0.6171643762208987,1562.503849607945,None,001,42,2019_Oct_18_1359,ACPT_experiment_5_30_19,3.1.0,59.940777117270585,
,,,C,G,g,v,R,G,y,R,y,,,,,5,19,119,4,4,0,4,0,,,,,0,33,33,29,,,,,,down,0.7005930252726102,1564.4053687729702,None,001,42,2019_Oct_18_1359,ACPT_experiment_5_30_19,3.1.0,59.940777117270585,
,,,C,G,g,v,R,D,d,R,c ,,,,,5,19,119,4,4,0,4,0,,,,,0,34,34,1,,,,,,up,0.5170664191318792,1566.3903516040646,None,001,42,2019_Oct_18_1359,ACPT_experiment_5_30_19,3.1.0,59.940777117270585,
,,,C,G,g,v,R,U,g,L,u,,,,,5,19,119,4,4,0,4,0,,,,,0,35,35,10,,,,,,up,0.6338418347695551,1568.1918017916032,None,001,42,2019_Oct_18_1359,ACPT_experiment_5_30_19,3.1.0,59.940777117270585,
,,,C,G,g,v,L,G,y,L,y,,,,,5,19,119,4,4,0,4,0,,,,,1,0,36,34,,,,,,down,0.647206562671272,1570.1300260363587,None,001,42,2019_Oct_18_1359,ACPT_experiment_5_30_19,3.1.0,59.940777117270585,
,,,C,G,g,v,L,D,y,R,y,,,,,5,19,119,4,4,0,4,0,,,,,1,1,37,33,,,,,,down,0.8840713320805662,1572.044909627415,None,001,42,2019_Oct_18_1359,ACPT_experiment_5_30_19,3.1.0,59.940777117270585,
,,,C,G,g,v,R,U,y,L,u,,,,,5,19,119,4,4,0,4,0,,,,,1,2,38,30,,,,,,down,0.5504406559648487,1574.2133583886134,None,001,42,2019_Oct_18_1359,ACPT_experiment_5_30_19,3.1.0,59.940777117270585,
,,,C,G,g,v,R,D,d,R,c ,,,,,5,19,119,4,4,0,4,0,,,,,1,3,39,1,,,,,,up,0.7506356645317283,1576.048155040864,None,001,42,2019_Oct_18_1359,ACPT_experiment_5_30_19,3.1.0,59.940777117270585,
,,,C,G,g,v,L,D,g,L,i,,,,,5,19,119,4,4,0,4,0,,,,,1,4,40,14,,,,,,up,0.6004832952221477,1578.0831723607043,None,001,42,2019_Oct_18_1359,ACPT_experiment_5_30_19,3.1.0,59.940777117270585,
,,,C,G,g,v,R,G,y,L,y,,,,,5,19,119,4,4,0,4,0,,,,,1,5,41,28,,,,,,down,0.600488728898199,1579.9680351981388,None,001,42,2019_Oct_18_1359,ACPT_experiment_5_30_19,3.1.0,59.940777117270585,
,,,C,G,g,v,R,D,g,R,i,,,,,5,19,119,4,4,0,4,0,,,,,1,6,42,3,,,,,,up,0.6338786630130926,1581.852871470941,None,001,42,2019_Oct_18_1359,ACPT_experiment_5_30_19,3.1.0,59.940777117270585,
,,,C,G,g,v,R,G,y,R,y,,,,,5,19,119,4,4,0,4,0,,,,,1,7,43,29,,,,,,down,0.5504409578370542,1583.771123336879,None,001,42,2019_Oct_18_1359,ACPT_experiment_5_30_19,3.1.0,59.940777117270585,
,,,C,G,g,v,R,G,g,L,c ,,,,,5,19,119,4,4,0,4,0,,,,,1,8,44,6,,,,,,up,0.7839706581544306,1585.6059483649915,None,001,42,2019_Oct_18_1359,ACPT_experiment_5_30_19,3.1.0,59.940777117270585,
,,,C,G,g,v,R,D,y,R,y,,,,,5,19,119,4,4,0,4,0,,,,,1,9,45,27,,,,,,down,0.5004161289598414,1587.6742943391655,None,001,42,2019_Oct_18_1359,ACPT_experiment_5_30_19,3.1.0,59.940777117270585,
,,,C,G,g,v,L,U,y,R,u,,,,,5,19,119,4,4,0,4,0,,,,,1,10,46,25,,,,,,down,0.4167345121386461,1589.4593441855886,None,001,42,2019_Oct_18_1359,ACPT_experiment_5_30_19,3.1.0,59.940777117270585,
,,,C,G,g,v,R,D,d,L,c,,,,,5,19,119,4,4,0,4,0,,,,,1,11,47,0,,,,,,up,0.9007264521878824,1591.1604594474247,None,001,42,2019_Oct_18_1359,ACPT_experiment_5_30_19,3.1.0,59.940777117270585,
,,,C,G,g,v,R,U,g,L,u,,,,,5,19,119,4,4,0,4,0,,,,,1,12,48,10,,,,,,up,0.6004845027055126,1593.3455675549212,None,001,42,2019_Oct_18_1359,ACPT_experiment_5_30_19,3.1.0,59.940777117270585,
,,,C,G,g,v,L,U,d,L,u,,,,,5,19,119,4,4,0,4,0,,,,,1,13,49,20,,,,,,up,0.5504406559666677,1595.230434316676,None,001,42,2019_Oct_18_1359,ACPT_experiment_5_30_19,3.1.0,59.940777117270585,
,,,C,G,g,v,L,G,y,R,y,,,,,5,19,119,4,4,0,4,0,,,,,1,14,50,35,,,,,,down,0.7672901808946335,1597.0652578354347,None,001,42,2019_Oct_18_1359,ACPT_experiment_5_30_19,3.1.0,59.940777117270585,
,,,C,G,g,v,L,D,y,L,y,,,,,5,19,119,4,4,0,4,0,,,,,1,15,51,32,,,,,,down,0.5838010067382129,1599.1169257473175,None,001,42,2019_Oct_18_1359,ACPT_experiment_5_30_19,3.1.0,59.940777117270585,
,,,C,G,g,v,R,U,g,R,u,,,,,5,19,119,4,4,0,4,0,,,,,1,16,52,11,,,,,,up,0.7339277170267451,1600.9851044850457,None,001,42,2019_Oct_18_1359,ACPT_experiment_5_30_19,3.1.0,59.940777117270585,
,,,C,G,g,v,L,D,d,R,c ,,,,,5,19,119,4,4,0,4,0,,,,,1,17,53,13,,,,,,up,0.6171692061561771,1603.0034214041516,None,001,42,2019_Oct_18_1359,ACPT_experiment_5_30_19,3.1.0,59.940777117270585,
,,,C,G,g,v,L,G,g,L,c ,,,,,5,19,119,4,4,0,4,0,,,,,1,18,54,18,,,,,,up,0.7339434143104882,1604.9049598889105,None,001,42,2019_Oct_18_1359,ACPT_experiment_5_30_19,3.1.0,59.940777117270585,
,,,C,G,g,v,L,G,d,L,i,,,,,5,19,119,4,4,0,4,0,,,,,1,19,55,16,,,,,,up,0.5004312225028116,1606.9065637287076,None,001,42,2019_Oct_18_1359,ACPT_experiment_5_30_19,3.1.0,59.940777117270585,
,,,C,G,g,v,L,U,y,L,u,,,,,5,19,119,4,4,0,4,0,,,,,1,20,56,24,,,,,,down,0.5335198895136273,1608.7082913355516,None,001,42,2019_Oct_18_1359,ACPT_experiment_5_30_19,3.1.0,59.940777117270585,
,,,C,G,g,v,L,D,d,L,c ,,,,,5,19,119,4,4,0,4,0,,,,,1,21,57,12,,,,,,up,0.5337586693531193,1610.526194087859,None,001,42,2019_Oct_18_1359,ACPT_experiment_5_30_19,3.1.0,59.940777117270585,
,,,C,G,g,v,L,U,d,R,u,,,,,5,19,119,4,4,0,4,0,,,,,1,22,58,21,,,,,,down,0.8004389202069433,1612.3445097994809,None,001,42,2019_Oct_18_1359,ACPT_experiment_5_30_19,3.1.0,59.940777117270585,
,,,C,G,g,v,L,U,g,L,u,,,,,5,19,119,4,4,0,4,0,,,,,1,23,59,22,,,,,,up,0.6171601500300312,1614.4293635807917,None,001,42,2019_Oct_18_1359,ACPT_experiment_5_30_19,3.1.0,59.940777117270585,
,,,C,G,g,v,R,D,g,L,i,,,,,5,19,119,4,4,0,4,0,,,,,1,24,60,2,,,,,,up,0.6005101617265609,1616.3142016648162,None,001,42,2019_Oct_18_1359,ACPT_experiment_5_30_19,3.1.0,59.940777117270585,
,,,C,G,g,v,L,D,g,R,i,,,,,5,19,119,4,4,0,4,0,,,,,1,25,61,15,,,,,,up,0.56715192404954,1618.1823825156407,None,001,42,2019_Oct_18_1359,ACPT_experiment_5_30_19,3.1.0,59.940777117270585,
,,,C,G,g,v,L,G,g,R,c ,,,,,5,19,119,4,4,0,4,0,,,,,1,26,62,19,,,,,,up,0.550470843050789,1620.0338925490723,None,001,42,2019_Oct_18_1359,ACPT_experiment_5_30_19,3.1.0,59.940777117270585,
,,,C,G,g,v,L,G,d,R,i,,,,,5,19,119,4,4,0,4,0,,,,,1,27,63,17,,,,,,up,0.5835423034259293,1621.868999222681,None,001,42,2019_Oct_18_1359,ACPT_experiment_5_30_19,3.1.0,59.940777117270585,
,,,C,G,g,v,R,U,d,L,u,,,,,5,19,119,4,4,0,4,0,,,,,1,28,64,8,,,,,,up,0.5671229444487835,1623.736923785158,None,001,42,2019_Oct_18_1359,ACPT_experiment_5_30_19,3.1.0,59.940777117270585,
,,,C,G,g,v,R,U,d,R,u,,,,,5,19,119,4,4,0,4,0,,,,,1,29,65,9,,,,,,up,0.5504632962783944,1625.5717246636013,None,001,42,2019_Oct_18_1359,ACPT_experiment_5_30_19,3.1.0,59.940777117270585,
,,,C,G,g,v,L,U,g,R,u,,,,,5,19,119,4,4,0,4,0,,,,,1,30,66,23,,,,,,up,0.550438240998119,1627.4065762563478,None,001,42,2019_Oct_18_1359,ACPT_experiment_5_30_19,3.1.0,59.940777117270585,
,,,C,G,g,v,R,G,d,R,i,,,,,5,19,119,4,4,0,4,0,,,,,1,31,67,5,,,,,,up,0.45036594293196686,1629.2413937376878,None,001,42,2019_Oct_18_1359,ACPT_experiment_5_30_19,3.1.0,59.940777117270585,
,,,C,G,g,v,R,D,y,L,y,,,,,5,19,119,4,4,0,4,0,,,,,1,32,68,26,,,,,,down,0.6505211045459873,1630.9761404303154,None,001,42,2019_Oct_18_1359,ACPT_experiment_5_30_19,3.1.0,59.940777117270585,
,,,C,G,g,v,R,G,d,L,i,,,,,5,19,119,4,4,0,4,0,,,,,1,33,69,4,,,,,,up,0.5838058366734913,1632.9110416808162,None,001,42,2019_Oct_18_1359,ACPT_experiment_5_30_19,3.1.0,59.940777117270585,
,,,C,G,g,v,R,G,g,R,c ,,,,,5,19,119,4,4,0,4,0,,,,,1,34,70,7,,,,,,up,0.416735115881238,1634.7794905929495,None,001,42,2019_Oct_18_1359,ACPT_experiment_5_30_19,3.1.0,59.940777117270585,
,,,C,G,g,v,R,U,y,R,u,,,,,5,19,119,4,4,0,4,0,,,,,1,35,71,31,,,,,,down,0.5337659142533084,1636.4806079678801,None,001,42,2019_Oct_18_1359,ACPT_experiment_5_30_19,3.1.0,59.940777117270585,
,,,C,G,g,v,,,,,,,,,,5,19,119,4,5,0,5,0,0,0,0,0,,,,,,,,,,,,,,001,42,2019_Oct_18_1359,ACPT_experiment_5_30_19,3.1.0,59.940777117270585,
,,,C,G,g,v,R,G,g,L,c ,,,,,5,19,119,4,5,0,5,0,,,,,0,0,0,6,,,,,,up,0.7336662968755263,1656.463774140233,None,001,42,2019_Oct_18_1359,ACPT_experiment_5_30_19,3.1.0,59.940777117270585,
,,,C,G,g,v,L,D,g,L,i,,,,,5,19,119,4,5,0,5,0,,,,,0,1,1,14,,,,,,up,0.48374168911868765,1658.4818196774504,None,001,42,2019_Oct_18_1359,ACPT_experiment_5_30_19,3.1.0,59.940777117270585,
,,,C,G,g,v,R,D,y,R,y,,,,,5,19,119,4,5,0,5,0,,,,,0,2,2,27,,,,,,down,0.7172756156287505,1660.2498904963504,None,001,42,2019_Oct_18_1359,ACPT_experiment_5_30_19,3.1.0,59.940777117270585,
,,,C,G,g,v,R,G,d,R,i,,,,,5,19,119,4,5,0,5,0,,,,,0,3,3,5,,,,,,down,0.6338662863090576,1662.2515227120075,None,001,42,2019_Oct_18_1359,ACPT_experiment_5_30_19,3.1.0,59.940777117270585,
,,,C,G,g,v,L,D,y,L,y,,,,,5,19,119,4,5,0,5,0,,,,,0,4,4,32,,,,,,down,0.6171513957760908,1664.1864571683,None,001,42,2019_Oct_18_1359,ACPT_experiment_5_30_19,3.1.0,59.940777117270585,
,,,C,G,g,v,L,U,y,R,u,,,,,5,19,119,4,5,0,5,0,,,,,0,5,5,25,,,,,,down,0.4503589999003452,1666.087994747446,None,001,42,2019_Oct_18_1359,ACPT_experiment_5_30_19,3.1.0,59.940777117270585,
,,,C,G,g,v,R,U,y,R,u,,,,,5,19,119,4,5,0,5,0,,,,,0,6,6,31,,,,,,down,0.6836795037233969,1667.8395876444247,None,001,42,2019_Oct_18_1359,ACPT_experiment_5_30_19,3.1.0,59.940777117270585,
,,,C,G,g,v,L,G,g,L,c ,,,,,5,19,119,4,5,0,5,0,,,,,0,7,7,18,,,,,,up,0.6338412310306012,1669.8243664108304,None,001,42,2019_Oct_18_1359,ACPT_experiment_5_30_19,3.1.0,59.940777117270585,
,,,C,G,g,v,L,G,d,L,i,,,,,5,19,119,4,5,0,5,0,,,,,0,8,8,16,,,,,,up,0.5671235481895565,1671.7425908065234,None,001,42,2019_Oct_18_1359,ACPT_experiment_5_30_19,3.1.0,59.940777117270585,
,,,C,G,g,v,L,G,y,R,y,,,,,5,19,119,4,5,0,5,0,,,,,0,9,9,35,,,,,,down,0.7003844325208775,1673.6109244039926,None,001,42,2019_Oct_18_1359,ACPT_experiment_5_30_19,3.1.0,59.940777117270585,
,,,C,G,g,v,L,D,d,L,c ,,,,,5,19,119,4,5,0,5,0,,,,,0,10,10,12,,,,,,up,0.6004660885846533,1675.6290888783224,None,001,42,2019_Oct_18_1359,ACPT_experiment_5_30_19,3.1.0,59.940777117270585,
,,,C,G,g,v,R,D,d,R,c ,,,,,5,19,119,4,5,0,5,0,,,,,0,11,11,1,,,,,,up,0.6005029168263718,1677.4972455794777,None,001,42,2019_Oct_18_1359,ACPT_experiment_5_30_19,3.1.0,59.940777117270585,
,,,C,G,g,v,L,U,y,L,u,,,,,5,19,119,4,5,0,5,0,,,,,0,12,12,24,,,,,,down,0.5170821164174413,1679.382130453485,None,001,42,2019_Oct_18_1359,ACPT_experiment_5_30_19,3.1.0,59.940777117270585,
,,,C,G,g,v,L,G,y,L,y,,,,,5,19,119,4,5,0,5,0,,,,,0,13,13,34,,,,,,down,0.6171628668671474,1681.1835960364351,None,001,42,2019_Oct_18_1359,ACPT_experiment_5_30_19,3.1.0,59.940777117270585,
,,,C,G,g,v,L,G,g,R,c ,,,,,5,19,119,4,5,0,5,0,,,,,0,14,14,19,,,,,,up,0.6502624012318847,1683.0854034881158,None,001,42,2019_Oct_18_1359,ACPT_experiment_5_30_19,3.1.0,59.940777117270585,
,,,C,G,g,v,R,D,g,L,i,,,,,5,19,119,4,5,0,5,0,,,,,0,15,15,2,,,,,,up,0.5171225671092543,1685.0033386915402,None,001,42,2019_Oct_18_1359,ACPT_experiment_5_30_19,3.1.0,59.940777117270585,
,,,C,G,g,v,R,G,y,L,y,,,,,5,19,119,4,5,0,5,0,,,,,0,16,16,28,,,,,,down,0.5337701404459949,1686.8048238960946,None,001,42,2019_Oct_18_1359,ACPT_experiment_5_30_19,3.1.0,59.940777117270585,
,,,C,G,g,v,L,U,g,R,u,,,,,5,19,119,4,5,0,5,0,,,,,0,17,17,23,,,,,,up,1.0341751001833472,1688.622967541336,None,001,42,2019_Oct_18_1359,ACPT_experiment_5_30_19,3.1.0,59.940777117270585,
,,,C,G,g,v,L,U,d,L,u,,,,,5,19,119,4,5,0,5,0,,,,,0,18,18,20,,,,,,down,0.6672278445657867,1690.9414992415495,None,001,42,2019_Oct_18_1359,ACPT_experiment_5_30_19,3.1.0,59.940777117270585,
,,,C,G,g,v,R,D,y,L,y,,,,,5,19,119,4,5,0,5,0,,,,,0,19,19,26,,,,,,down,0.550466918730308,1692.8930788562102,None,001,42,2019_Oct_18_1359,ACPT_experiment_5_30_19,3.1.0,59.940777117270585,
,,,C,G,g,v,R,U,d,L,u,,,,,5,19,119,4,5,0,5,0,,,,,0,20,20,8,,,,,,up,0.5170833238989871,1694.7279286377307,None,001,42,2019_Oct_18_1359,ACPT_experiment_5_30_19,3.1.0,59.940777117270585,
,,,C,G,g,v,L,G,d,R,i,,,,,5,19,119,4,5,0,5,0,,,,,0,21,21,17,,,,,,down,0.7506021568678989,1696.5293975412606,None,001,42,2019_Oct_18_1359,ACPT_experiment_5_30_19,3.1.0,59.940777117270585,
,,,C,G,g,v,R,U,g,R,u,,,,,5,19,119,4,5,0,5,0,,,,,0,22,22,11,,,,,,up,0.6505675926546246,1698.5643780328573,None,001,42,2019_Oct_18_1359,ACPT_experiment_5_30_19,3.1.0,59.940777117270585,
,,,C,G,g,v,R,D,g,R,i,,,,,5,19,119,4,5,0,5,0,,,,,0,23,23,3,,,,,,up,0.517080003321098,1700.4992856226454,None,001,42,2019_Oct_18_1359,ACPT_experiment_5_30_19,3.1.0,59.940777117270585,
,,,C,G,g,v,R,U,g,L,u,,,,,5,19,119,4,5,0,5,0,,,,,0,24,24,10,,,,,,up,0.516816470073536,1702.317696121714,None,001,42,2019_Oct_18_1359,ACPT_experiment_5_30_19,3.1.0,59.940777117270585,
,,,C,G,g,v,L,U,g,L,u,,,,,5,19,119,4,5,0,5,0,,,,,0,25,25,22,,,,,,up,0.6672055061226274,1704.118891228387,None,001,42,2019_Oct_18_1359,ACPT_experiment_5_30_19,3.1.0,59.940777117270585,
,,,C,G,g,v,L,D,y,R,y,,,,,5,19,119,4,5,0,5,0,,,,,0,26,26,33,,,,,,down,0.7006011757875967,1706.0704503158322,None,001,42,2019_Oct_18_1359,ACPT_experiment_5_30_19,3.1.0,59.940777117270585,
,,,C,G,g,v,R,U,y,L,u,,,,,5,19,119,4,5,0,5,0,,,,,0,27,27,30,,,,,,down,0.4837217656422581,1708.0554213739651,None,001,42,2019_Oct_18_1359,ACPT_experiment_5_30_19,3.1.0,59.940777117270585,
,,,C,G,g,v,R,G,y,R,y,,,,,5,19,119,4,5,0,5,0,,,,,0,28,28,29,,,,,,down,0.3669554061289091,1709.8235308323328,None,001,42,2019_Oct_18_1359,ACPT_experiment_5_30_19,3.1.0,59.940777117270585,
,,,C,G,g,v,R,G,d,L,i,,,,,5,19,119,4,5,0,5,0,,,,,0,29,29,4,,,,,,up,0.5671289818637888,1711.4748639694499,None,001,42,2019_Oct_18_1359,ACPT_experiment_5_30_19,3.1.0,59.940777117270585,
,,,C,G,g,v,R,D,d,L,c,,,,,5,19,119,4,5,0,5,0,,,,,0,30,30,0,,,,,,up,0.5837937618398428,1713.3263827571373,None,001,42,2019_Oct_18_1359,ACPT_experiment_5_30_19,3.1.0,59.940777117270585,
,,,C,G,g,v,L,U,d,R,u,,,,,5,19,119,4,5,0,5,0,,,,,0,31,31,21,,,,,,up,0.5471466413091548,1715.214551684061,None,001,42,2019_Oct_18_1359,ACPT_experiment_5_30_19,3.1.0,59.940777117270585,
,,,C,G,g,v,R,U,d,R,u,,,,,5,19,119,4,5,0,5,0,,,,,0,32,32,9,,,,,,up,0.8173319145389542,1717.0460585478486,None,001,42,2019_Oct_18_1359,ACPT_experiment_5_30_19,3.1.0,59.940777117270585,
,,,C,G,g,v,R,G,g,R,c ,,,,,5,19,119,4,5,0,5,0,,,,,0,33,33,7,,,,,,up,0.6338394198046444,1719.1477700046034,None,001,42,2019_Oct_18_1359,ACPT_experiment_5_30_19,3.1.0,59.940777117270585,
,,,C,G,g,v,L,D,g,R,i,,,,,5,19,119,4,5,0,5,0,,,,,0,34,34,15,,,,,,up,1.0008204849564208,1721.0659944002946,None,001,42,2019_Oct_18_1359,ACPT_experiment_5_30_19,3.1.0,59.940777117270585,
,,,C,G,g,v,L,D,d,R,c ,,,,,5,19,119,4,5,0,5,0,,,,,0,35,35,13,,,,,,down,0.6004989925058908,1723.3511624291532,None,001,42,2019_Oct_18_1359,ACPT_experiment_5_30_19,3.1.0,59.940777117270585,
,,,C,G,g,v,L,D,y,R,y,,,,,5,19,119,4,5,0,5,0,,,,,1,0,36,33,,,,,,down,0.5671199257394619,1725.2360482087734,None,001,42,2019_Oct_18_1359,ACPT_experiment_5_30_19,3.1.0,59.940777117270585,
,,,C,G,g,v,R,U,g,R,u,,,,,5,19,119,4,5,0,5,0,,,,,1,1,37,11,,,,,,up,0.5337583674827329,1727.0875567328512,None,001,42,2019_Oct_18_1359,ACPT_experiment_5_30_19,3.1.0,59.940777117270585,
,,,C,G,g,v,R,U,d,R,u,,,,,5,19,119,4,5,0,5,0,,,,,1,2,38,9,,,,,,up,0.48372206751446356,1728.9056955481592,None,001,42,2019_Oct_18_1359,ACPT_experiment_5_30_19,3.1.0,59.940777117270585,
,,,C,G,g,v,L,U,g,R,u,,,,,5,19,119,4,5,0,5,0,,,,,1,3,39,23,,,,,,up,0.48372206751264457,1730.6737968560137,None,001,42,2019_Oct_18_1359,ACPT_experiment_5_30_19,3.1.0,59.940777117270585,
,,,C,G,g,v,L,D,d,L,c ,,,,,5,19,119,4,5,0,5,0,,,,,1,4,40,12,,,,,,up,0.6338460609622416,1732.4419008807072,None,001,42,2019_Oct_18_1359,ACPT_experiment_5_30_19,3.1.0,59.940777117270585,
,,,C,G,g,v,L,D,g,L,i,,,,,5,19,119,4,5,0,5,0,,,,,1,5,41,14,,,,,,up,0.616898428006607,1734.3603909227422,None,001,42,2019_Oct_18_1359,ACPT_experiment_5_30_19,3.1.0,59.940777117270585,
,,,C,G,g,v,R,U,g,L,u,,,,,5,19,119,4,5,0,5,0,,,,,1,6,42,10,,,,,,up,0.5504678243414673,1736.2449657753914,None,001,42,2019_Oct_18_1359,ACPT_experiment_5_30_19,3.1.0,59.940777117270585,
,,,C,G,g,v,L,G,y,L,y,,,,,5,19,119,4,5,0,5,0,,,,,1,7,43,34,,,,,,down,0.7172427117056941,1738.0798191793638,None,001,42,2019_Oct_18_1359,ACPT_experiment_5_30_19,3.1.0,59.940777117270585,
,,,C,G,g,v,L,D,g,R,i,,,,,5,19,119,4,5,0,5,0,,,,,1,8,44,15,,,,,,up,0.683873304808003,1740.081447772569,None,001,42,2019_Oct_18_1359,ACPT_experiment_5_30_19,3.1.0,59.940777117270585,
,,,C,G,g,v,L,G,g,L,c ,,,,,5,19,119,4,5,0,5,0,,,,,1,9,45,18,,,,,,up,0.5671220388358051,1742.049707562619,None,001,42,2019_Oct_18_1359,ACPT_experiment_5_30_19,3.1.0,59.940777117270585,
,,,C,G,g,v,R,U,d,L,u,,,,,5,19,119,4,5,0,5,0,,,,,1,10,46,8,,,,,,up,0.5004010354168713,1743.9012121623746,None,001,42,2019_Oct_18_1359,ACPT_experiment_5_30_19,3.1.0,59.940777117270585,
,,,C,G,g,v,R,D,g,R,i,,,,,5,19,119,4,5,0,5,0,,,,,1,11,47,3,,,,,,up,0.5838061385438778,1745.6859891175554,None,001,42,2019_Oct_18_1359,ACPT_experiment_5_30_19,3.1.0,59.940777117270585,
,,,C,G,g,v,L,G,d,L,i,,,,,5,19,119,4,5,0,5,0,,,,,1,12,48,16,,,,,,up,0.48344012014422333,1747.5711366191972,None,001,42,2019_Oct_18_1359,ACPT_experiment_5_30_19,3.1.0,59.940777117270585,
,,,C,G,g,v,R,U,y,L,u,,,,,5,19,119,4,5,0,5,0,,,,,1,13,49,30,,,,,,down,0.6337962522738962,1749.3390036752771,None,001,42,2019_Oct_18_1359,ACPT_experiment_5_30_19,3.1.0,59.940777117270585,
,,,C,G,g,v,R,G,g,L,c ,,,,,5,19,119,4,5,0,5,0,,,,,1,14,50,6,,,,,,up,0.5504391466110974,1751.2571852053097,None,001,42,2019_Oct_18_1359,ACPT_experiment_5_30_19,3.1.0,59.940777117270585,
,,,C,G,g,v,R,D,d,L,c,,,,,5,19,119,4,5,0,5,0,,,,,1,15,51,0,,,,,,up,0.6004881251556071,1753.0920102334203,None,001,42,2019_Oct_18_1359,ACPT_experiment_5_30_19,3.1.0,59.940777117270585,
,,,C,G,g,v,L,D,y,L,y,,,,,5,19,119,4,5,0,5,0,,,,,1,16,52,32,,,,,,down,0.5170778902247548,1754.9768757876936,None,001,42,2019_Oct_18_1359,ACPT_experiment_5_30_19,3.1.0,59.940777117270585,
,,,C,G,g,v,L,G,y,R,y,,,,,5,19,119,4,5,0,5,0,,,,,1,17,53,35,,,,,,down,0.8004497875590459,1756.7951776132577,None,001,42,2019_Oct_18_1359,ACPT_experiment_5_30_19,3.1.0,59.940777117270585,
,,,C,G,g,v,L,U,d,R,u,,,,,5,19,119,4,5,0,5,0,,,,,1,18,54,21,,,,,,down,0.6004793709016667,1758.913403216433,None,001,42,2019_Oct_18_1359,ACPT_experiment_5_30_19,3.1.0,59.940777117270585,
,,,C,G,g,v,L,D,d,R,c ,,,,,5,19,119,4,5,0,5,0,,,,,1,19,55,13,,,,,,down,0.4667843962961342,1760.815200404506,None,001,42,2019_Oct_18_1359,ACPT_experiment_5_30_19,3.1.0,59.940777117270585,
,,,C,G,g,v,R,D,y,R,y,,,,,5,19,119,4,5,0,5,0,,,,,1,20,56,27,,,,,,down,0.4336658440679457,1762.5997358630102,None,001,42,2019_Oct_18_1359,ACPT_experiment_5_30_19,3.1.0,59.940777117270585,
,,,C,G,g,v,L,G,d,R,i,,,,,5,19,119,4,5,0,5,0,,,,,1,21,57,17,,,,,,up,0.7506063830605854,1764.3344722920283,None,001,42,2019_Oct_18_1359,ACPT_experiment_5_30_19,3.1.0,59.940777117270585,
,,,C,G,g,v,R,G,y,R,y,,,,,5,19,119,4,5,0,5,0,,,,,1,22,58,29,,,,,,down,0.6338466647048335,1766.3694594247845,None,001,42,2019_Oct_18_1359,ACPT_experiment_5_30_19,3.1.0,59.940777117270585,
,,,C,G,g,v,L,U,g,L,u,,,,,5,19,119,4,5,0,5,0,,,,,1,23,59,22,,,,,,up,0.6002424022881314,1768.3046042850565,None,001,42,2019_Oct_18_1359,ACPT_experiment_5_30_19,3.1.0,59.940777117270585,
,,,C,G,g,v,R,G,d,R,i,,,,,5,19,119,4,5,0,5,0,,,,,1,24,60,5,,,,,,up,0.6505205008033954,1770.189233474457,None,001,42,2019_Oct_18_1359,ACPT_experiment_5_30_19,3.1.0,59.940777117270585,
,,,C,G,g,v,L,G,g,R,c ,,,,,5,19,119,4,5,0,5,0,,,,,1,25,61,19,,,,,,up,0.5838260620203073,1772.124109971548,None,001,42,2019_Oct_18_1359,ACPT_experiment_5_30_19,3.1.0,59.940777117270585,
,,,C,G,g,v,R,D,y,L,y,,,,,5,19,119,4,5,0,5,0,,,,,1,26,62,26,,,,,,down,0.6838790403526218,1773.9923252356475,None,001,42,2019_Oct_18_1359,ACPT_experiment_5_30_19,3.1.0,59.940777117270585,
,,,C,G,g,v,R,G,y,L,y,,,,,5,19,119,4,5,0,5,0,,,,,1,27,63,28,,,,,,down,0.5170827201582142,1775.9605868369217,None,001,42,2019_Oct_18_1359,ACPT_experiment_5_30_19,3.1.0,59.940777117270585,
