facing_vig,person_vig,text_vig,facing_train,person_train,food_train,correct_key_train,facing_exp,person_exp,food_exp,showL_R,consistent,vig_random.thisRepN,vig_random.thisTrialN,vig_random.thisN,vig_random.thisIndex,trainTrials.thisRepN,trainTrials.thisTrialN,trainTrials.thisN,trainTrials.thisIndex,expBlock.thisRepN,expBlock.thisTrialN,expBlock.thisN,expBlock.thisIndex,breakLoop.thisRepN,breakLoop.thisTrialN,breakLoop.thisN,breakLoop.thisIndex,expTrials.thisRepN,expTrials.thisTrialN,expTrials.thisN,expTrials.thisIndex,train_resp.keys,train_resp.corr,train_resp.rt,train_resp.started,train_resp.stopped,exp_resp.keys,exp_resp.rt,exp_resp.started,exp_resp.stopped,session,participant,date,expName,psychopyVersion,frameRate,
C,D,"is allergic to gluten, meaning she can’t eat wheat products. She enjoys eating dairy products. She thinks eating insects, like crickets, is disgusting.",,,,,,,,,,0,0,0,1,,,,,,,,,,,,,,,,,,,,,,,,,,001,43,2019_Oct_18_1457,ACPT_experiment_5_30_19,3.1.0,59.96540744392451,
C,G,"cannot eat dairy products because she is lactose intolerant. She enjoys eating wheat products. She thinks eating insects, like crickets, is disgusting.",,,,,,,,,,0,1,1,0,,,,,,,,,,,,,,,,,,,,,,,,,,001,43,2019_Oct_18_1457,ACPT_experiment_5_30_19,3.1.0,59.96540744392451,
C,U,"did not report her food preferences, so her food preferences are unknown.",,,,,,,,,,0,2,2,2,,,,,,,,,,,,,,,,,,,,,,,,,,001,43,2019_Oct_18_1457,ACPT_experiment_5_30_19,3.1.0,59.96540744392451,
,,,C,U,g,n,,,,,,,,,,0,0,0,16,,,,,,,,,,,,,v,0,7.555973042934056,585.2563287977246,None,,,,,001,43,2019_Oct_18_1457,ACPT_experiment_5_30_19,3.1.0,59.96540744392451,
,,,C,D,y,b,,,,,,,,,,0,1,1,2,,,,,,,,,,,,,b,1,2.735575931837957,596.0982634879674,None,,,,,001,43,2019_Oct_18_1457,ACPT_experiment_5_30_19,3.1.0,59.96540744392451,
,,,C,U,d,n,,,,,,,,,,0,2,2,15,,,,,,,,,,,,,b,0,9.574496743569398,602.1198128400756,None,,,,,001,43,2019_Oct_18_1457,ACPT_experiment_5_30_19,3.1.0,59.96540744392451,
,,,C,G,g,v,,,,,,,,,,0,3,3,19,,,,,,,,,,,,,b,0,4.036578595847459,614.9803261714478,None,,,,,001,43,2019_Oct_18_1457,ACPT_experiment_5_30_19,3.1.0,59.96540744392451,
,,,C,D,g,b,,,,,,,,,,0,4,4,1,,,,,,,,,,,,,b,1,6.65540628042254,622.3029113933608,None,,,,,001,43,2019_Oct_18_1457,ACPT_experiment_5_30_19,3.1.0,59.96540744392451,
,,,C,U,y,n,,,,,,,,,,0,5,5,17,,,,,,,,,,,,,n,1,2.568790478993833,632.2442968296018,None,,,,,001,43,2019_Oct_18_1457,ACPT_experiment_5_30_19,3.1.0,59.96540744392451,
,,,C,G,d,b,,,,,,,,,,0,6,6,3,,,,,,,,,,,,,b,1,6.271804206569868,638.099079444859,None,,,,,001,43,2019_Oct_18_1457,ACPT_experiment_5_30_19,3.1.0,59.96540744392451,
,,,C,G,d,b,,,,,,,,,,0,7,7,12,,,,,,,,,,,,,b,1,2.602152640993154,647.6568256771334,None,,,,,001,43,2019_Oct_18_1457,ACPT_experiment_5_30_19,3.1.0,59.96540744392451,
,,,C,D,d,v,,,,,,,,,,0,8,8,18,,,,,,,,,,,,,v,1,1.4511788811159931,653.5449864535458,None,,,,,001,43,2019_Oct_18_1457,ACPT_experiment_5_30_19,3.1.0,59.96540744392451,
,,,C,D,y,b,,,,,,,,,,0,9,9,11,,,,,,,,,,,,,n,0,1.2343900322248373,658.2654576739351,None,,,,,001,43,2019_Oct_18_1457,ACPT_experiment_5_30_19,3.1.0,59.96540744392451,
,,,C,D,d,v,,,,,,,,,,0,10,10,0,,,,,,,,,,,,,v,1,2.468713049122016,662.7691231406643,None,,,,,001,43,2019_Oct_18_1457,ACPT_experiment_5_30_19,3.1.0,59.96540744392451,
,,,C,U,d,n,,,,,,,,,,0,11,11,6,,,,,,,,,,,,,n,1,1.2343679956520646,668.5238259110847,None,,,,,001,43,2019_Oct_18_1457,ACPT_experiment_5_30_19,3.1.0,59.96540744392451,
,,,C,U,g,n,,,,,,,,,,0,12,12,7,,,,,,,,,,,,,n,1,0.7670311757101445,673.0611158655774,None,,,,,001,43,2019_Oct_18_1457,ACPT_experiment_5_30_19,3.1.0,59.96540744392451,
,,,C,G,y,b,,,,,,,,,,0,13,13,5,,,,,,,,,,,,,b,1,2.0183048442722793,677.1141627234792,None,,,,,001,43,2019_Oct_18_1457,ACPT_experiment_5_30_19,3.1.0,59.96540744392451,
,,,C,G,y,b,,,,,,,,,,0,14,14,14,,,,,,,,,,,,,b,1,1.0174955285383476,682.4184597040166,None,,,,,001,43,2019_Oct_18_1457,ACPT_experiment_5_30_19,3.1.0,59.96540744392451,
,,,C,D,g,b,,,,,,,,,,0,15,15,10,,,,,,,,,,,,,b,1,1.0974514553945482,686.7754500516949,None,,,,,001,43,2019_Oct_18_1457,ACPT_experiment_5_30_19,3.1.0,59.96540744392451,
,,,C,G,g,v,,,,,,,,,,0,16,16,4,,,,,,,,,,,,,v,1,3.1359230833077163,691.1588734180077,None,,,,,001,43,2019_Oct_18_1457,ACPT_experiment_5_30_19,3.1.0,59.96540744392451,
,,,C,U,y,n,,,,,,,,,,0,17,17,8,,,,,,,,,,,,,n,1,1.4011664289428154,697.5807708272023,None,,,,,001,43,2019_Oct_18_1457,ACPT_experiment_5_30_19,3.1.0,59.96540744392451,
,,,C,D,d,v,,,,,,,,,,0,18,18,9,,,,,,,,,,,,,v,1,2.6855402356104605,702.2679399578883,None,,,,,001,43,2019_Oct_18_1457,ACPT_experiment_5_30_19,3.1.0,59.96540744392451,
,,,C,G,g,v,,,,,,,,,,0,19,19,13,,,,,,,,,,,,,v,1,4.487033288807652,708.2394318790703,None,,,,,001,43,2019_Oct_18_1457,ACPT_experiment_5_30_19,3.1.0,59.96540744392451,
,,,C,G,d,b,,,,,,,,,,1,0,20,12,,,,,,,,,,,,,b,1,3.969919475952338,715.9957695819849,None,,,,,001,43,2019_Oct_18_1457,ACPT_experiment_5_30_19,3.1.0,59.96540744392451,
,,,C,D,y,b,,,,,,,,,,1,1,21,2,,,,,,,,,,,,,b,1,1.6346653384352976,723.2516799867171,None,,,,,001,43,2019_Oct_18_1457,ACPT_experiment_5_30_19,3.1.0,59.96540744392451,
,,,C,G,g,v,,,,,,,,,,1,2,22,4,,,,,,,,,,,,,v,1,3.8865228252088855,728.1723175379411,None,,,,,001,43,2019_Oct_18_1457,ACPT_experiment_5_30_19,3.1.0,59.96540744392451,
,,,C,U,y,n,,,,,,,,,,1,3,23,8,,,,,,,,,,,,,n,1,0.6838956432493433,735.3448448761192,None,,,,,001,43,2019_Oct_18_1457,ACPT_experiment_5_30_19,3.1.0,59.96540744392451,
,,,C,U,d,n,,,,,,,,,,1,4,24,15,,,,,,,,,,,,,n,1,0.9507941467236378,739.2980419147661,None,,,,,001,43,2019_Oct_18_1457,ACPT_experiment_5_30_19,3.1.0,59.96540744392451,
,,,C,D,d,v,,,,,,,,,,1,5,25,9,,,,,,,,,,,,,v,1,1.7681034209508653,743.5348348389143,None,,,,,001,43,2019_Oct_18_1457,ACPT_experiment_5_30_19,3.1.0,59.96540744392451,
,,,C,G,y,b,,,,,,,,,,1,6,26,14,,,,,,,,,,,,,b,1,1.851526938198731,748.588932811097,None,,,,,001,43,2019_Oct_18_1457,ACPT_experiment_5_30_19,3.1.0,59.96540744392451,
,,,C,G,y,b,,,,,,,,,,1,7,27,5,,,,,,,,,,,,,b,1,0.9674700959185429,753.7264506780775,None,,,,,001,43,2019_Oct_18_1457,ACPT_experiment_5_30_19,3.1.0,59.96540744392451,
,,,C,G,g,v,,,,,,,,,,1,8,28,13,,,,,,,,,,,,,v,1,3.799781747378802,757.9999103443588,None,,,,,001,43,2019_Oct_18_1457,ACPT_experiment_5_30_19,3.1.0,59.96540744392451,
,,,C,U,g,n,,,,,,,,,,1,9,29,7,,,,,,,,,,,,,n,1,0.8340105805727944,765.0856987178031,None,,,,,001,43,2019_Oct_18_1457,ACPT_experiment_5_30_19,3.1.0,59.96540744392451,
,,,C,U,y,n,,,,,,,,,,1,10,30,17,,,,,,,,,,,,,n,1,0.8974230795356561,769.2256988687386,None,,,,,001,43,2019_Oct_18_1457,ACPT_experiment_5_30_19,3.1.0,59.96540744392451,
,,,C,D,d,v,,,,,,,,,,1,11,31,0,,,,,,,,,,,,,v,1,3.4361620140825835,773.4090971797723,None,,,,,001,43,2019_Oct_18_1457,ACPT_experiment_5_30_19,3.1.0,59.96540744392451,
,,,C,D,g,b,,,,,,,,,,1,12,32,10,,,,,,,,,,,,,b,1,0.9841517806617048,780.1145690416361,None,,,,,001,43,2019_Oct_18_1457,ACPT_experiment_5_30_19,3.1.0,59.96540744392451,
,,,C,U,d,n,,,,,,,,,,1,13,33,6,,,,,,,,,,,,,n,1,0.8338059121397237,784.4016056510227,None,,,,,001,43,2019_Oct_18_1457,ACPT_experiment_5_30_19,3.1.0,59.96540744392451,
,,,C,D,y,b,,,,,,,,,,1,14,34,11,,,,,,,,,,,,,b,1,1.2844314639969525,788.5213867946604,None,,,,,001,43,2019_Oct_18_1457,ACPT_experiment_5_30_19,3.1.0,59.96540744392451,
,,,C,G,g,v,,,,,,,,,,1,15,35,19,,,,,,,,,,,,,v,1,2.4153193416186696,793.128471401511,None,,,,,001,43,2019_Oct_18_1457,ACPT_experiment_5_30_19,3.1.0,59.96540744392451,
,,,C,D,d,v,,,,,,,,,,1,16,36,18,,,,,,,,,,,,,v,1,1.668057083776148,798.829767182111,None,,,,,001,43,2019_Oct_18_1457,ACPT_experiment_5_30_19,3.1.0,59.96540744392451,
,,,C,G,d,b,,,,,,,,,,1,17,37,3,,,,,,,,,,,,,b,1,3.152570052903684,803.783819722732,None,,,,,001,43,2019_Oct_18_1457,ACPT_experiment_5_30_19,3.1.0,59.96540744392451,
,,,C,U,g,n,,,,,,,,,,1,18,38,16,,,,,,,,,,,,,n,1,1.7514250567892304,810.22240757092,None,,,,,001,43,2019_Oct_18_1457,ACPT_experiment_5_30_19,3.1.0,59.96540744392451,
,,,C,D,g,b,,,,,,,,,,1,19,39,1,,,,,,,,,,,,,b,1,1.9182328480746946,815.2598193303002,None,,,,,001,43,2019_Oct_18_1457,ACPT_experiment_5_30_19,3.1.0,59.96540744392451,
,,,C,D,d,v,,,,,,,,,,2,0,40,0,,,,,,,,,,,,,v,1,1.5179128649797349,820.4473704785414,None,,,,,001,43,2019_Oct_18_1457,ACPT_experiment_5_30_19,3.1.0,59.96540744392451,
,,,C,D,y,b,,,,,,,,,,2,1,41,2,,,,,,,,,,,,,b,1,1.0508670485342009,825.2512754797863,None,,,,,001,43,2019_Oct_18_1457,ACPT_experiment_5_30_19,3.1.0,59.96540744392451,
,,,C,U,d,n,,,,,,,,,,2,2,42,6,,,,,,,,,,,,,n,1,0.7505303116067807,829.604890609553,None,,,,,001,43,2019_Oct_18_1457,ACPT_experiment_5_30_19,3.1.0,59.96540744392451,
,,,C,D,y,b,,,,,,,,,,2,3,43,11,,,,,,,,,,,,,b,1,0.9674586248274863,833.6414278490956,None,,,,,001,43,2019_Oct_18_1457,ACPT_experiment_5_30_19,3.1.0,59.96540744392451,
,,,C,D,g,b,,,,,,,,,,2,4,44,10,,,,,,,,,,,,,b,1,1.1176402756082098,837.878194208608,None,,,,,001,43,2019_Oct_18_1457,ACPT_experiment_5_30_19,3.1.0,59.96540744392451,
,,,C,G,g,v,,,,,,,,,,2,5,45,13,,,,,,,,,,,,,v,1,2.685515784070958,842.2817843585617,None,,,,,001,43,2019_Oct_18_1457,ACPT_experiment_5_30_19,3.1.0,59.96540744392451,
,,,C,D,d,v,,,,,,,,,,2,6,46,18,,,,,,,,,,,,,v,1,1.6513587961380836,848.253304051861,None,,,,,001,43,2019_Oct_18_1457,ACPT_experiment_5_30_19,3.1.0,59.96540744392451,
,,,C,D,g,b,,,,,,,,,,2,7,47,1,,,,,,,,,,,,,b,1,1.6011854468069942,853.1739742051359,None,,,,,001,43,2019_Oct_18_1457,ACPT_experiment_5_30_19,3.1.0,59.96540744392451,
,,,C,G,d,b,,,,,,,,,,2,8,48,12,,,,,,,,,,,,,b,1,3.51956319288729,858.0612668009999,None,,,,,001,43,2019_Oct_18_1457,ACPT_experiment_5_30_19,3.1.0,59.96540744392451,
,,,C,G,d,b,,,,,,,,,,2,9,49,3,,,,,,,,,,,,,b,1,1.0009759484401002,864.8499798501216,None,,,,,001,43,2019_Oct_18_1457,ACPT_experiment_5_30_19,3.1.0,59.96540744392451,
,,,C,U,y,n,,,,,,,,,,2,10,50,8,,,,,,,,,,,,,n,1,0.8170804561268596,869.1538865116563,None,,,,,001,43,2019_Oct_18_1457,ACPT_experiment_5_30_19,3.1.0,59.96540744392451,
,,,C,G,y,b,,,,,,,,,,2,11,51,14,,,,,,,,,,,,,b,1,1.6680591968724912,873.2569412936682,None,,,,,001,43,2019_Oct_18_1457,ACPT_experiment_5_30_19,3.1.0,59.96540744392451,
,,,C,G,g,v,,,,,,,,,,2,12,52,19,,,,,,,,,,,,,v,1,2.6355727621939877,878.1943070177422,None,,,,,001,43,2019_Oct_18_1457,ACPT_experiment_5_30_19,3.1.0,59.96540744392451,
,,,C,G,g,v,,,,,,,,,,2,13,53,4,,,,,,,,,,,,,b,0,1.1509481008542934,884.0991120469116,None,,,,,001,43,2019_Oct_18_1457,ACPT_experiment_5_30_19,3.1.0,59.96540744392451,
,,,C,D,d,v,,,,,,,,,,2,14,54,9,,,,,,,,,,,,,v,1,2.535187725930882,888.552946183976,None,,,,,001,43,2019_Oct_18_1457,ACPT_experiment_5_30_19,3.1.0,59.96540744392451,
,,,C,U,g,n,,,,,,,,,,2,15,55,7,,,,,,,,,,,,,n,1,0.7839782049250061,894.3741287630091,None,,,,,001,43,2019_Oct_18_1457,ACPT_experiment_5_30_19,3.1.0,59.96540744392451,
,,,C,U,d,n,,,,,,,,,,2,16,56,15,,,,,,,,,,,,,n,1,0.900465937649642,898.4610551895366,None,,,,,001,43,2019_Oct_18_1457,ACPT_experiment_5_30_19,3.1.0,59.96540744392451,
,,,C,U,g,n,,,,,,,,,,2,17,57,16,,,,,,,,,,,,,n,1,1.0842192487943976,902.6475244326721,None,,,,,001,43,2019_Oct_18_1457,ACPT_experiment_5_30_19,3.1.0,59.96540744392451,
,,,C,G,y,b,,,,,,,,,,2,18,58,5,,,,,,,,,,,,,b,1,0.917191393660687,907.034654772955,None,,,,,001,43,2019_Oct_18_1457,ACPT_experiment_5_30_19,3.1.0,59.96540744392451,
,,,C,U,y,n,,,,,,,,,,2,19,59,17,,,,,,,,,,,,,n,1,0.9340865010890411,911.2378579244869,None,,,,,001,43,2019_Oct_18_1457,ACPT_experiment_5_30_19,3.1.0,59.96540744392451,
,,,C,G,d,b,,,,,,,,,,3,0,60,3,,,,,,,,,,,,,b,1,4.353338616072506,915.4747918223184,None,,,,,001,43,2019_Oct_18_1457,ACPT_experiment_5_30_19,3.1.0,59.96540744392451,
,,,C,D,d,v,,,,,,,,,,3,1,61,9,,,,,,,,,,,,,v,1,0.9841436301485373,923.1141545729661,None,,,,,001,43,2019_Oct_18_1457,ACPT_experiment_5_30_19,3.1.0,59.96540744392451,
,,,C,G,g,v,,,,,,,,,,3,2,62,19,,,,,,,,,,,,,v,1,1.7511702777974278,927.4012636313546,None,,,,,001,43,2019_Oct_18_1457,ACPT_experiment_5_30_19,3.1.0,59.96540744392451,
,,,C,G,y,b,,,,,,,,,,3,3,63,5,,,,,,,,,,,,,b,1,1.1843307900708169,932.4216933445023,None,,,,,001,43,2019_Oct_18_1457,ACPT_experiment_5_30_19,3.1.0,59.96540744392451,
,,,C,D,d,v,,,,,,,,,,3,4,64,0,,,,,,,,,,,,,v,1,1.884864346788163,936.8920325718645,None,,,,,001,43,2019_Oct_18_1457,ACPT_experiment_5_30_19,3.1.0,59.96540744392451,
,,,C,D,d,v,,,,,,,,,,3,5,65,18,,,,,,,,,,,,,v,1,1.8348364992052666,942.0462094832728,None,,,,,001,43,2019_Oct_18_1457,ACPT_experiment_5_30_19,3.1.0,59.96540744392451,
,,,C,G,y,b,,,,,,,,,,3,6,66,14,,,,,,,,,,,,,b,1,0.9174211173758522,947.1670387224822,None,,,,,001,43,2019_Oct_18_1457,ACPT_experiment_5_30_19,3.1.0,59.96540744392451,
,,,C,D,g,b,,,,,,,,,,3,7,67,10,,,,,,,,,,,,,b,1,1.2173868550344196,951.3874186269404,None,,,,,001,43,2019_Oct_18_1457,ACPT_experiment_5_30_19,3.1.0,59.96540744392451,
,,,C,U,y,n,,,,,,,,,,3,8,68,8,,,,,,,,,,,,,n,1,0.8840785769807553,955.8907746760542,None,,,,,001,43,2019_Oct_18_1457,ACPT_experiment_5_30_19,3.1.0,59.96540744392451,
,,,C,U,d,n,,,,,,,,,,3,9,69,6,,,,,,,,,,,,,n,1,0.8140517859428655,960.0808594262944,None,,,,,001,43,2019_Oct_18_1457,ACPT_experiment_5_30_19,3.1.0,59.96540744392451,
,,,C,U,g,n,,,,,,,,,,3,10,70,16,,,,,,,,,,,,,n,1,0.8173439893744217,964.1641872504842,None,,,,,001,43,2019_Oct_18_1457,ACPT_experiment_5_30_19,3.1.0,59.96540744392451,
,,,C,D,y,b,,,,,,,,,,3,11,71,2,,,,,,,,,,,,,b,1,1.3673801384065882,968.2845905499325,None,,,,,001,43,2019_Oct_18_1457,ACPT_experiment_5_30_19,3.1.0,59.96540744392451,
,,,C,G,d,b,,,,,,,,,,3,12,72,12,,,,,,,,,,,,,b,1,2.6688805874418904,972.9379643339598,None,,,,,001,43,2019_Oct_18_1457,ACPT_experiment_5_30_19,3.1.0,59.96540744392451,
,,,C,U,y,n,,,,,,,,,,3,13,73,17,,,,,,,,,,,,,n,1,0.9007626766888279,978.8928062668383,None,,,,,001,43,2019_Oct_18_1457,ACPT_experiment_5_30_19,3.1.0,59.96540744392451,
,,,C,D,y,b,,,,,,,,,,3,14,74,11,,,,,,,,,,,,,b,1,0.8170587214244733,983.0965232025483,None,,,,,001,43,2019_Oct_18_1457,ACPT_experiment_5_30_19,3.1.0,59.96540744392451,
,,,C,D,g,b,,,,,,,,,,3,15,75,1,,,,,,,,,,,,,b,1,1.4512157093595306,987.1828959979466,None,,,,,001,43,2019_Oct_18_1457,ACPT_experiment_5_30_19,3.1.0,59.96540744392451,
,,,C,U,d,n,,,,,,,,,,3,16,76,15,,,,,,,,,,,,,n,1,0.7172487491225183,991.9200926743488,None,,,,,001,43,2019_Oct_18_1457,ACPT_experiment_5_30_19,3.1.0,59.96540744392451,
,,,C,U,g,n,,,,,,,,,,3,17,77,7,,,,,,,,,,,,,n,1,1.1340013735116372,995.923597998597,None,,,,,001,43,2019_Oct_18_1457,ACPT_experiment_5_30_19,3.1.0,59.96540744392451,
,,,C,G,g,v,,,,,,,,,,3,18,78,4,,,,,,,,,,,,,v,1,2.5020474390039453,1000.3435884896644,None,,,,,001,43,2019_Oct_18_1457,ACPT_experiment_5_30_19,3.1.0,59.96540744392451,
,,,C,G,g,v,,,,,,,,,,3,19,79,13,,,,,,,,,,,,,v,1,1.7014038503621123,1006.1149376259364,None,,,,,001,43,2019_Oct_18_1457,ACPT_experiment_5_30_19,3.1.0,59.96540744392451,
,,,C,U,d,n,,,,,,,,,,4,0,80,15,,,,,,,,,,,,,n,1,0.7673267072696035,1011.1023311975969,None,,,,,001,43,2019_Oct_18_1457,ACPT_experiment_5_30_19,3.1.0,59.96540744392451,
,,,C,U,y,n,,,,,,,,,,4,1,81,17,,,,,,,,,,,,,n,1,0.7139384334404895,1015.1756275517528,None,,,,,001,43,2019_Oct_18_1457,ACPT_experiment_5_30_19,3.1.0,59.96540744392451,
,,,C,D,d,v,,,,,,,,,,4,2,82,18,,,,,,,,,,,,,v,1,1.751435924139514,1019.1755635551326,None,,,,,001,43,2019_Oct_18_1457,ACPT_experiment_5_30_19,3.1.0,59.96540744392451,
,,,C,D,g,b,,,,,,,,,,4,3,83,1,,,,,,,,,,,,,b,1,1.0008222961805586,1024.1963072139588,None,,,,,001,43,2019_Oct_18_1457,ACPT_experiment_5_30_19,3.1.0,59.96540744392451,
,,,C,D,d,v,,,,,,,,,,4,4,84,9,,,,,,,,,,,,,v,1,1.9182292256246,1028.466454753334,None,,,,,001,43,2019_Oct_18_1457,ACPT_experiment_5_30_19,3.1.0,59.96540744392451,
,,,C,U,y,n,,,,,,,,,,4,5,85,8,,,,,,,,,,,,,n,1,0.7339428105697152,1033.6706733983865,None,,,,,001,43,2019_Oct_18_1457,ACPT_experiment_5_30_19,3.1.0,59.96540744392451,
,,,C,G,g,v,,,,,,,,,,4,6,86,19,,,,,,,,,,,,,v,1,1.7844243700328661,1037.7076667647743,None,,,,,001,43,2019_Oct_18_1457,ACPT_experiment_5_30_19,3.1.0,59.96540744392451,
,,,C,G,g,v,,,,,,,,,,4,7,87,4,,,,,,,,,,,,,v,1,1.734823971562946,1042.7613765310507,None,,,,,001,43,2019_Oct_18_1457,ACPT_experiment_5_30_19,3.1.0,59.96540744392451,
,,,C,G,d,b,,,,,,,,,,4,8,88,3,,,,,,,,,,,,,b,1,1.1509737598771608,1047.7654638622862,None,,,,,001,43,2019_Oct_18_1457,ACPT_experiment_5_30_19,3.1.0,59.96540744392451,
,,,C,G,y,b,,,,,,,,,,4,9,89,5,,,,,,,,,,,,,b,1,1.801211709569543,1052.20266310459,None,,,,,001,43,2019_Oct_18_1457,ACPT_experiment_5_30_19,3.1.0,59.96540744392451,
,,,C,D,d,v,,,,,,,,,,4,10,90,0,,,,,,,,,,,,,v,1,1.934935663777651,1057.2898696672637,None,,,,,001,43,2019_Oct_18_1457,ACPT_experiment_5_30_19,3.1.0,59.96540744392451,
,,,C,U,g,n,,,,,,,,,,4,11,91,16,,,,,,,,,,,,,n,1,0.9007681103648792,1062.5107512810646,None,,,,,001,43,2019_Oct_18_1457,ACPT_experiment_5_30_19,3.1.0,59.96540744392451,
,,,C,G,g,v,,,,,,,,,,4,12,92,13,,,,,,,,,,,,,v,1,1.5675506954339653,1066.714564211703,None,,,,,001,43,2019_Oct_18_1457,ACPT_experiment_5_30_19,3.1.0,59.96540744392451,
,,,C,G,y,b,,,,,,,,,,4,13,93,14,,,,,,,,,,,,,b,1,0.7840059770423977,1071.551437131624,None,,,,,001,43,2019_Oct_18_1457,ACPT_experiment_5_30_19,3.1.0,59.96540744392451,
,,,C,G,d,b,,,,,,,,,,4,14,94,12,,,,,,,,,,,,,b,1,2.234892647180459,1075.6217005894032,None,,,,,001,43,2019_Oct_18_1457,ACPT_experiment_5_30_19,3.1.0,59.96540744392451,
,,,C,U,d,n,,,,,,,,,,4,15,95,6,,,,,,,,,,,,,n,1,0.8674071558489231,1081.1425835616228,None,,,,,001,43,2019_Oct_18_1457,ACPT_experiment_5_30_19,3.1.0,59.96540744392451,
,,,C,U,g,n,,,,,,,,,,4,16,96,7,,,,,,,,,,,,,n,1,0.9174063257032685,1085.2959753069645,None,,,,,001,43,2019_Oct_18_1457,ACPT_experiment_5_30_19,3.1.0,59.96540744392451,
,,,C,D,g,b,,,,,,,,,,4,17,97,10,,,,,,,,,,,,,b,1,1.2175414129069395,1089.4993755801588,None,,,,,001,43,2019_Oct_18_1457,ACPT_experiment_5_30_19,3.1.0,59.96540744392451,
,,,C,D,y,b,,,,,,,,,,4,18,98,11,,,,,,,,,,,,,b,1,0.914124989623815,1094.023027311765,None,,,,,001,43,2019_Oct_18_1457,ACPT_experiment_5_30_19,3.1.0,59.96540744392451,
,,,C,D,y,b,,,,,,,,,,4,19,99,2,,,,,,,,,,,,,b,1,2.2852311198657844,1098.2064271321524,None,,,,,001,43,2019_Oct_18_1457,ACPT_experiment_5_30_19,3.1.0,59.96540744392451,
,,,C,G,y,b,,,,,,,,,,5,0,100,14,,,,,,,,,,,,,b,1,0.9674664734702674,1103.7776467658314,None,,,,,001,43,2019_Oct_18_1457,ACPT_experiment_5_30_19,3.1.0,59.96540744392451,
,,,C,D,d,v,,,,,,,,,,5,1,101,0,,,,,,,,,,,,,v,1,1.484550099239641,1108.0311038662112,None,,,,,001,43,2019_Oct_18_1457,ACPT_experiment_5_30_19,3.1.0,59.96540744392451,
,,,C,G,d,b,,,,,,,,,,5,2,102,12,,,,,,,,,,,,,b,1,1.8849102311578463,1112.801639762427,None,,,,,001,43,2019_Oct_18_1457,ACPT_experiment_5_30_19,3.1.0,59.96540744392451,
,,,C,D,y,b,,,,,,,,,,5,3,103,2,,,,,,,,,,,,,b,1,0.6672175809580949,1117.9725071128323,None,,,,,001,43,2019_Oct_18_1457,ACPT_experiment_5_30_19,3.1.0,59.96540744392451,
,,,C,G,g,v,,,,,,,,,,5,4,104,19,,,,,,,,,,,,,v,1,2.3515225610717607,1121.9427788720604,None,,,,,001,43,2019_Oct_18_1457,ACPT_experiment_5_30_19,3.1.0,59.96540744392451,
,,,C,G,g,v,,,,,,,,,,5,5,105,13,,,,,,,,,,,,,v,1,2.0183024293055496,1127.5636592783776,None,,,,,001,43,2019_Oct_18_1457,ACPT_experiment_5_30_19,3.1.0,59.96540744392451,
,,,C,D,y,b,,,,,,,,,,5,6,106,11,,,,,,,,,,,,,b,1,0.7171874693412974,1132.8680163312129,None,,,,,001,43,2019_Oct_18_1457,ACPT_experiment_5_30_19,3.1.0,59.96540744392451,
,,,C,G,d,b,,,,,,,,,,5,7,107,3,,,,,,,,,,,,,b,1,2.2849038918702718,1136.8881731531164,None,,,,,001,43,2019_Oct_18_1457,ACPT_experiment_5_30_19,3.1.0,59.96540744392451,
,,,C,D,g,b,,,,,,,,,,5,8,108,10,,,,,,,,,,,,,b,1,1.034201664819193,1142.4590758224094,None,,,,,001,43,2019_Oct_18_1457,ACPT_experiment_5_30_19,3.1.0,59.96540744392451,
,,,C,U,d,n,,,,,,,,,,5,9,109,6,,,,,,,,,,,,,n,1,0.6836472035447514,1146.796184956267,None,,,,,001,43,2019_Oct_18_1457,ACPT_experiment_5_30_19,3.1.0,59.96540744392451,
,,,C,U,y,n,,,,,,,,,,5,10,110,17,,,,,,,,,,,,,n,1,0.7005866859872185,1150.749140196367,None,,,,,001,43,2019_Oct_18_1457,ACPT_experiment_5_30_19,3.1.0,59.96540744392451,
,,,C,D,g,b,,,,,,,,,,5,11,111,1,,,,,,,,,,,,,b,1,1.1342709441760235,1154.7357169055213,None,,,,,001,43,2019_Oct_18_1457,ACPT_experiment_5_30_19,3.1.0,59.96540744392451,
,,,C,U,d,n,,,,,,,,,,5,12,112,15,,,,,,,,,,,,,n,1,1.150951723306207,1159.155975156029,None,,,,,001,43,2019_Oct_18_1457,ACPT_experiment_5_30_19,3.1.0,59.96540744392451,
,,,C,D,d,v,,,,,,,,,,5,13,113,18,,,,,,,,,,,,,v,1,1.150586459583792,1163.6099258152408,None,,,,,001,43,2019_Oct_18_1457,ACPT_experiment_5_30_19,3.1.0,59.96540744392451,
,,,C,D,d,v,,,,,,,,,,5,14,114,9,,,,,,,,,,,,,v,1,1.3177278181537986,1168.046551502939,None,,,,,001,43,2019_Oct_18_1457,ACPT_experiment_5_30_19,3.1.0,59.96540744392451,
,,,C,G,y,b,,,,,,,,,,5,15,115,5,,,,,,,,,,,,,b,1,0.8836502222511626,1172.6840085429449,None,,,,,001,43,2019_Oct_18_1457,ACPT_experiment_5_30_19,3.1.0,59.96540744392451,
,,,C,U,g,n,,,,,,,,,,5,16,116,16,,,,,,,,,,,,,n,1,1.801467997918735,1176.8536928615085,None,,,,,001,43,2019_Oct_18_1457,ACPT_experiment_5_30_19,3.1.0,59.96540744392451,
,,,C,U,g,n,,,,,,,,,,5,17,117,7,,,,,,,,,,,,,n,1,0.5838317975649261,1181.9244707072085,None,,,,,001,43,2019_Oct_18_1457,ACPT_experiment_5_30_19,3.1.0,59.96540744392451,
,,,C,G,g,v,,,,,,,,,,5,18,118,4,,,,,,,,,,,,,v,1,2.5850341491386644,1185.8113497400136,None,,,,,001,43,2019_Oct_18_1457,ACPT_experiment_5_30_19,3.1.0,59.96540744392451,
,,,C,U,y,n,,,,,,,,,,5,19,119,8,0,0,0,0,0,0,0,0,,,,,n,1,0.8673760631500045,1191.6824062125015,None,,,,,001,43,2019_Oct_18_1457,ACPT_experiment_5_30_19,3.1.0,59.96540744392451,
,,,C,U,y,n,L,G,d,L,i,,,,,5,19,119,8,0,0,0,0,,,,,0,0,0,16,,,,,,up,2.068358954620635,1230.9809996453023,None,001,43,2019_Oct_18_1457,ACPT_experiment_5_30_19,3.1.0,59.96540744392451,
,,,C,U,y,n,R,U,g,R,u,,,,,5,19,119,8,0,0,0,0,,,,,0,1,1,11,,,,,,up,1.317740496730039,1234.3337284822683,None,001,43,2019_Oct_18_1457,ACPT_experiment_5_30_19,3.1.0,59.96540744392451,
,,,C,U,y,n,L,G,g,L,c ,,,,,5,19,119,8,0,0,0,0,,,,,0,2,2,18,,,,,,up,1.2009925513375492,1236.9358436912771,None,001,43,2019_Oct_18_1457,ACPT_experiment_5_30_19,3.1.0,59.96540744392451,
,,,C,U,y,n,L,G,y,R,y,,,,,5,19,119,8,0,0,0,0,,,,,0,3,3,35,,,,,,down,0.9508364086414076,1239.421179560326,None,001,43,2019_Oct_18_1457,ACPT_experiment_5_30_19,3.1.0,59.96540744392451,
,,,C,U,y,n,L,D,d,R,c ,,,,,5,19,119,8,0,0,0,0,,,,,0,4,4,13,,,,,,up,1.0508700672417035,1241.6563242696611,None,001,43,2019_Oct_18_1457,ACPT_experiment_5_30_19,3.1.0,59.96540744392451,
,,,C,U,y,n,R,U,d,R,u,,,,,5,19,119,8,0,0,0,0,,,,,0,5,5,9,,,,,,down,1.2676884994762077,1243.9915790109208,None,001,43,2019_Oct_18_1457,ACPT_experiment_5_30_19,3.1.0,59.96540744392451,
,,,C,U,y,n,L,D,d,L,c ,,,,,5,19,119,8,0,0,0,0,,,,,0,6,6,12,,,,,,up,0.9341194050120976,1246.5436497694463,None,001,43,2019_Oct_18_1457,ACPT_experiment_5_30_19,3.1.0,59.96540744392451,
,,,C,U,y,n,R,D,d,L,c,,,,,5,19,119,8,0,0,0,0,,,,,0,7,7,0,,,,,,up,0.7172484472521319,1248.7621312081628,None,001,43,2019_Oct_18_1457,ACPT_experiment_5_30_19,3.1.0,59.96540744392451,
,,,C,U,y,n,L,D,g,R,i,,,,,5,19,119,8,0,0,0,0,,,,,0,8,8,15,,,,,,up,1.267690008829959,1250.763751047114,None,001,43,2019_Oct_18_1457,ACPT_experiment_5_30_19,3.1.0,59.96540744392451,
,,,C,U,y,n,R,D,g,R,i,,,,,5,19,119,8,0,0,0,0,,,,,0,9,9,3,,,,,,up,0.9007324896047066,1253.315819390673,None,001,43,2019_Oct_18_1457,ACPT_experiment_5_30_19,3.1.0,59.96540744392451,
,,,C,U,y,n,R,U,y,R,u,,,,,5,19,119,8,0,0,0,0,,,,,0,10,10,31,,,,,,down,0.767351158807287,1255.5009302150083,None,001,43,2019_Oct_18_1457,ACPT_experiment_5_30_19,3.1.0,59.96540744392451,
,,,C,U,y,n,L,U,y,L,u,,,,,5,19,119,8,0,0,0,0,,,,,0,11,11,24,,,,,,down,0.834033824628932,1257.5525691472903,None,001,43,2019_Oct_18_1457,ACPT_experiment_5_30_19,3.1.0,59.96540744392451,
,,,C,U,y,n,R,G,y,L,y,,,,,5,19,119,8,0,0,0,0,,,,,0,12,12,28,,,,,,down,0.8674153063602716,1259.6709794954222,None,001,43,2019_Oct_18_1457,ACPT_experiment_5_30_19,3.1.0,59.96540744392451,
,,,C,U,y,n,L,D,g,L,i,,,,,5,19,119,8,0,0,0,0,,,,,0,13,13,14,,,,,,up,0.9007527149515226,1261.8227363082715,None,001,43,2019_Oct_18_1457,ACPT_experiment_5_30_19,3.1.0,59.96540744392451,
,,,C,U,y,n,R,G,g,R,c ,,,,,5,19,119,8,0,0,0,0,,,,,0,14,14,7,,,,,,up,0.8974094953482563,1264.02784396296,None,001,43,2019_Oct_18_1457,ACPT_experiment_5_30_19,3.1.0,59.96540744392451,
,,,C,U,y,n,R,U,d,L,u,,,,,5,19,119,8,0,0,0,0,,,,,0,15,15,8,,,,,,up,0.8340311077899969,1266.2096314911669,None,001,43,2019_Oct_18_1457,ACPT_experiment_5_30_19,3.1.0,59.96540744392451,
,,,C,U,y,n,L,G,y,L,y,,,,,5,19,119,8,0,0,0,0,,,,,0,16,16,34,,,,,,down,0.7172629370506911,1268.3279998792514,None,001,43,2019_Oct_18_1457,ACPT_experiment_5_30_19,3.1.0,59.96540744392451,
,,,C,U,y,n,L,D,y,L,y,,,,,5,19,119,8,0,0,0,0,,,,,0,17,17,32,,,,,,down,0.5838076478976291,1270.329644169742,None,001,43,2019_Oct_18_1457,ACPT_experiment_5_30_19,3.1.0,59.96540744392451,
,,,C,U,y,n,R,D,y,L,y,,,,,5,19,119,8,0,0,0,0,,,,,0,18,18,26,,,,,,down,0.6338460609640606,1272.197828039274,None,001,43,2019_Oct_18_1457,ACPT_experiment_5_30_19,3.1.0,59.96540744392451,
,,,C,U,y,n,R,G,y,R,y,,,,,5,19,119,8,0,0,0,0,,,,,0,19,19,29,,,,,,down,0.7003651127852208,1274.1329013561553,None,001,43,2019_Oct_18_1457,ACPT_experiment_5_30_19,3.1.0,59.96540744392451,
,,,C,U,y,n,L,G,g,R,c ,,,,,5,19,119,8,0,0,0,0,,,,,0,20,20,19,,,,,,up,0.6338445516084903,1276.1343581848505,None,001,43,2019_Oct_18_1457,ACPT_experiment_5_30_19,3.1.0,59.96540744392451,
,,,C,U,y,n,L,U,g,R,u,,,,,5,19,119,8,0,0,0,0,,,,,0,21,21,23,,,,,,up,0.5504491083484027,1278.0525780524804,None,001,43,2019_Oct_18_1457,ACPT_experiment_5_30_19,3.1.0,59.96540744392451,
,,,C,U,y,n,R,D,y,R,y,,,,,5,19,119,8,0,0,0,0,,,,,0,22,22,27,,,,,,down,0.7005679699941538,1279.8874091180096,None,001,43,2019_Oct_18_1457,ACPT_experiment_5_30_19,3.1.0,59.96540744392451,
,,,C,U,y,n,R,U,g,L,u,,,,,5,19,119,8,0,0,0,0,,,,,0,23,23,10,,,,,,up,0.8006502297994302,1281.87235481899,None,001,43,2019_Oct_18_1457,ACPT_experiment_5_30_19,3.1.0,59.96540744392451,
,,,C,U,y,n,R,G,d,L,i,,,,,5,19,119,8,0,0,0,0,,,,,0,24,24,4,,,,,,up,0.7003231527396565,1283.9743101873864,None,001,43,2019_Oct_18_1457,ACPT_experiment_5_30_19,3.1.0,59.96540744392451,
,,,C,U,y,n,L,U,d,R,u,,,,,5,19,119,8,0,0,0,0,,,,,0,25,25,21,,,,,,up,0.9507989766589162,1285.9589817896413,None,001,43,2019_Oct_18_1457,ACPT_experiment_5_30_19,3.1.0,59.96540744392451,
,,,C,U,y,n,L,U,g,L,u,,,,,5,19,119,8,0,0,0,0,,,,,0,26,26,22,,,,,,up,0.8840788788511418,1288.1774547759742,None,001,43,2019_Oct_18_1457,ACPT_experiment_5_30_19,3.1.0,59.96540744392451,
,,,C,U,y,n,R,G,g,L,c ,,,,,5,19,119,8,0,0,0,0,,,,,0,27,27,6,,,,,,up,0.800648116703087,1290.34590655588,None,001,43,2019_Oct_18_1457,ACPT_experiment_5_30_19,3.1.0,59.96540744392451,
,,,C,U,y,n,L,U,d,L,u,,,,,5,19,119,8,0,0,0,0,,,,,0,28,28,20,,,,,,down,0.6838908133140649,1292.4309293848619,None,001,43,2019_Oct_18_1457,ACPT_experiment_5_30_19,3.1.0,59.96540744392451,
,,,C,U,y,n,R,D,d,R,c ,,,,,5,19,119,8,0,0,0,0,,,,,0,29,29,1,,,,,,up,0.6505205008033954,1294.399204268453,None,001,43,2019_Oct_18_1457,ACPT_experiment_5_30_19,3.1.0,59.96540744392451,
,,,C,U,y,n,L,G,d,R,i,,,,,5,19,119,8,0,0,0,0,,,,,0,30,30,17,,,,,,up,0.6338653806978982,1296.3340819730274,None,001,43,2019_Oct_18_1457,ACPT_experiment_5_30_19,3.1.0,59.96540744392451,
,,,C,U,y,n,R,D,g,L,i,,,,,5,19,119,8,0,0,0,0,,,,,0,31,31,2,,,,,,up,0.7839356411350309,1298.2690402771168,None,001,43,2019_Oct_18_1457,ACPT_experiment_5_30_19,3.1.0,59.96540744392451,
,,,C,U,y,n,R,G,d,R,i,,,,,5,19,119,8,0,0,0,0,,,,,0,32,32,5,,,,,,up,0.5170902669306088,1300.3373551585955,None,001,43,2019_Oct_18_1457,ACPT_experiment_5_30_19,3.1.0,59.96540744392451,
,,,C,U,y,n,L,D,y,R,y,,,,,5,19,119,8,0,0,0,0,,,,,0,33,33,33,,,,,,down,0.7005836672778969,1302.1388177228382,None,001,43,2019_Oct_18_1457,ACPT_experiment_5_30_19,3.1.0,59.96540744392451,
,,,C,U,y,n,L,U,y,R,u,,,,,5,19,119,8,0,0,0,0,,,,,0,34,34,25,,,,,,down,0.6171713192525203,1304.1237604051112,None,001,43,2019_Oct_18_1457,ACPT_experiment_5_30_19,3.1.0,59.96540744392451,
,,,C,U,y,n,R,U,y,L,u,,,,,5,19,119,8,0,0,0,0,,,,,0,35,35,30,,,,,,down,0.6839161704665457,1306.0253118703167,None,001,43,2019_Oct_18_1457,ACPT_experiment_5_30_19,3.1.0,59.96540744392451,
,,,C,U,y,n,R,D,g,L,i,,,,,5,19,119,8,0,0,0,0,,,,,1,0,36,2,,,,,,up,0.6838757197729137,1307.993584942682,None,001,43,2019_Oct_18_1457,ACPT_experiment_5_30_19,3.1.0,59.96540744392451,
,,,C,U,y,n,R,D,y,R,y,,,,,5,19,119,8,0,0,0,0,,,,,1,1,37,27,,,,,,down,0.7339355656677071,1309.9618329597688,None,001,43,2019_Oct_18_1457,ACPT_experiment_5_30_19,3.1.0,59.96540744392451,
,,,C,U,y,n,R,U,d,L,u,,,,,5,19,119,8,0,0,0,0,,,,,1,2,38,8,,,,,,up,0.6839050012458756,1311.9801251254648,None,001,43,2019_Oct_18_1457,ACPT_experiment_5_30_19,3.1.0,59.96540744392451,
,,,C,U,y,n,L,D,y,R,y,,,,,5,19,119,8,0,0,0,0,,,,,1,3,39,33,,,,,,down,0.6505543103376112,1313.948396386606,None,001,43,2019_Oct_18_1457,ACPT_experiment_5_30_19,3.1.0,59.96540744392451,
,,,C,U,y,n,L,D,g,R,i,,,,,5,19,119,8,0,0,0,0,,,,,1,4,40,15,,,,,,up,0.8507136981424992,1315.866620782299,None,001,43,2019_Oct_18_1457,ACPT_experiment_5_30_19,3.1.0,59.96540744392451,
,,,C,U,y,n,L,G,d,L,i,,,,,5,19,119,8,0,0,0,0,,,,,1,5,41,16,,,,,,up,0.5337879508242622,1318.0016841374418,None,001,43,2019_Oct_18_1457,ACPT_experiment_5_30_19,3.1.0,59.96540744392451,
,,,C,U,y,n,R,U,d,R,u,,,,,5,19,119,8,0,0,0,0,,,,,1,6,42,9,,,,,,up,0.70056676250897,1319.819846196804,None,001,43,2019_Oct_18_1457,ACPT_experiment_5_30_19,3.1.0,59.96540744392451,
,,,C,U,y,n,L,G,g,L,c ,,,,,5,19,119,8,0,0,0,0,,,,,1,7,43,18,,,,,,up,0.6171676968006068,1321.8047958221068,None,001,43,2019_Oct_18_1457,ACPT_experiment_5_30_19,3.1.0,59.96540744392451,
,,,C,U,y,n,R,G,g,R,c ,,,,,5,19,119,8,0,0,0,0,,,,,1,8,44,7,,,,,,up,0.7172264106811781,1323.7063608714998,None,001,43,2019_Oct_18_1457,ACPT_experiment_5_30_19,3.1.0,59.96540744392451,
,,,C,U,y,n,R,G,g,L,c ,,,,,5,19,119,8,0,0,0,0,,,,,1,9,45,6,,,,,,up,0.6840305795194581,1325.6911405435203,None,001,43,2019_Oct_18_1457,ACPT_experiment_5_30_19,3.1.0,59.96540744392451,
,,,C,U,y,n,R,U,g,L,u,,,,,5,19,119,8,0,0,0,0,,,,,1,10,46,10,,,,,,up,0.6505796674900921,1327.659568777497,None,001,43,2019_Oct_18_1457,ACPT_experiment_5_30_19,3.1.0,59.96540744392451,
,,,C,U,y,n,R,G,d,L,i,,,,,5,19,119,8,0,0,0,0,,,,,1,11,47,4,,,,,,up,0.5168167719421035,1329.61140920857,None,001,43,2019_Oct_18_1457,ACPT_experiment_5_30_19,3.1.0,59.96540744392451,
,,,C,U,y,n,L,U,g,R,u,,,,,5,19,119,8,0,0,0,0,,,,,1,12,48,23,,,,,,up,0.5504690318230132,1331.4125819768014,None,001,43,2019_Oct_18_1457,ACPT_experiment_5_30_19,3.1.0,59.96540744392451,
,,,C,U,y,n,L,U,g,L,u,,,,,5,19,119,8,0,0,0,0,,,,,1,13,49,22,,,,,,up,0.6173180284786213,1333.2305955157099,None,001,43,2019_Oct_18_1457,ACPT_experiment_5_30_19,3.1.0,59.96540744392451,
,,,C,U,y,n,R,G,d,R,i,,,,,5,19,119,8,0,0,0,0,,,,,1,14,50,5,,,,,,up,0.7339189627746237,1335.1323009350454,None,001,43,2019_Oct_18_1457,ACPT_experiment_5_30_19,3.1.0,59.96540744392451,
,,,C,U,y,n,L,D,d,R,c ,,,,,5,19,119,8,0,0,0,0,,,,,1,15,51,13,,,,,,down,0.9674393050954677,1337.1506048737065,None,001,43,2019_Oct_18_1457,ACPT_experiment_5_30_19,3.1.0,59.96540744392451,
,,,C,U,y,n,L,U,d,L,u,,,,,5,19,119,8,0,0,0,0,,,,,1,16,52,20,,,,,,up,0.8340193348267348,1339.4024095330824,None,001,43,2019_Oct_18_1457,ACPT_experiment_5_30_19,3.1.0,59.96540744392451,
,,,C,U,y,n,L,D,d,L,c ,,,,,5,19,119,8,0,0,0,0,,,,,1,17,53,12,,,,,,up,0.7172451266742428,1341.5208201830865,None,001,43,2019_Oct_18_1457,ACPT_experiment_5_30_19,3.1.0,59.96540744392451,
,,,C,U,y,n,R,D,y,L,y,,,,,5,19,119,8,0,0,0,0,,,,,1,18,54,26,,,,,,down,0.6505244251238764,1343.522442135134,None,001,43,2019_Oct_18_1457,ACPT_experiment_5_30_19,3.1.0,59.96540744392451,
,,,C,U,y,n,R,U,y,R,u,,,,,5,19,119,8,0,0,0,0,,,,,1,19,55,31,,,,,,down,0.6505537065968383,1345.4573454987294,None,001,43,2019_Oct_18_1457,ACPT_experiment_5_30_19,3.1.0,59.96540744392451,
,,,C,U,y,n,R,D,g,R,i,,,,,5,19,119,8,0,0,0,0,,,,,1,20,56,3,,,,,,up,0.8340087693468377,1347.3922527866453,None,001,43,2019_Oct_18_1457,ACPT_experiment_5_30_19,3.1.0,59.96540744392451,
,,,C,U,y,n,L,D,g,L,i,,,,,5,19,119,8,0,0,0,0,,,,,1,21,57,14,,,,,,up,0.7506154391849122,1349.5106432113025,None,001,43,2019_Oct_18_1457,ACPT_experiment_5_30_19,3.1.0,59.96540744392451,
,,,C,U,y,n,R,U,g,R,u,,,,,5,19,119,8,0,0,0,0,,,,,1,22,58,11,,,,,,up,0.7339265095433802,1351.545628834705,None,001,43,2019_Oct_18_1457,ACPT_experiment_5_30_19,3.1.0,59.96540744392451,
,,,C,U,y,n,R,G,y,R,y,,,,,5,19,119,8,0,0,0,0,,,,,1,23,59,29,,,,,,down,0.7172722950490424,1353.5639369995552,None,001,43,2019_Oct_18_1457,ACPT_experiment_5_30_19,3.1.0,59.96540744392451,
,,,C,U,y,n,L,G,g,R,c ,,,,,5,19,119,8,0,0,0,0,,,,,1,24,60,19,,,,,,up,0.8673748556684586,1355.5655631777954,None,001,43,2019_Oct_18_1457,ACPT_experiment_5_30_19,3.1.0,59.96540744392451,
,,,C,U,y,n,L,G,y,R,y,,,,,5,19,119,8,0,0,0,0,,,,,1,25,61,35,,,,,,down,0.7339600172090286,1357.7006090244286,None,001,43,2019_Oct_18_1457,ACPT_experiment_5_30_19,3.1.0,59.96540744392451,
,,,C,U,y,n,L,U,d,R,u,,,,,5,19,119,8,0,0,0,0,,,,,1,26,62,21,,,,,,down,0.8673636864477885,1359.7189374146255,None,001,43,2019_Oct_18_1457,ACPT_experiment_5_30_19,3.1.0,59.96540744392451,
,,,C,U,y,n,R,U,y,L,u,,,,,5,19,119,8,0,0,0,0,,,,,1,27,63,30,,,,,,down,0.7506087980254961,1361.8706818507708,None,001,43,2019_Oct_18_1457,ACPT_experiment_5_30_19,3.1.0,59.96540744392451,
,,,C,U,y,n,R,G,y,L,y,,,,,5,19,119,8,0,0,0,0,,,,,1,28,64,28,,,,,,down,0.6672055061244464,1363.9056713984937,None,001,43,2019_Oct_18_1457,ACPT_experiment_5_30_19,3.1.0,59.96540744392451,
,,,C,U,y,n,R,D,d,R,c ,,,,,5,19,119,8,0,0,0,0,,,,,1,29,65,1,,,,,,up,0.8506835110601969,1365.8572679179197,None,001,43,2019_Oct_18_1457,ACPT_experiment_5_30_19,3.1.0,59.96540744392451,
,,,C,U,y,n,L,D,y,L,y,,,,,5,19,119,8,0,0,0,0,,,,,1,30,66,32,,,,,,down,0.6838868889935839,1367.992325537518,None,001,43,2019_Oct_18_1457,ACPT_experiment_5_30_19,3.1.0,59.96540744392451,
,,,C,U,y,n,L,U,y,L,u,,,,,5,19,119,8,0,0,0,0,,,,,1,31,67,24,,,,,,down,0.7839724693803873,1369.9605877425347,None,001,43,2019_Oct_18_1457,ACPT_experiment_5_30_19,3.1.0,59.96540744392451,
,,,C,U,y,n,L,G,d,R,i,,,,,5,19,119,8,0,0,0,0,,,,,1,32,68,17,,,,,,up,0.6338472684474254,1372.0289285849067,None,001,43,2019_Oct_18_1457,ACPT_experiment_5_30_19,3.1.0,59.96540744392451,
,,,C,U,y,n,L,G,y,L,y,,,,,5,19,119,8,0,0,0,0,,,,,1,33,69,34,,,,,,down,0.733944621792034,1373.930462843473,None,001,43,2019_Oct_18_1457,ACPT_experiment_5_30_19,3.1.0,59.96540744392451,
,,,C,U,y,n,L,U,y,R,u,,,,,5,19,119,8,0,0,0,0,,,,,1,34,70,25,,,,,,down,0.7339434143104882,1375.9654475612624,None,001,43,2019_Oct_18_1457,ACPT_experiment_5_30_19,3.1.0,59.96540744392451,
,,,C,U,y,n,R,D,d,L,c,,,,,5,19,119,8,0,0,0,0,,,,,1,35,71,0,,,,,,up,0.8006342306434817,1378.0004624661342,None,001,43,2019_Oct_18_1457,ACPT_experiment_5_30_19,3.1.0,59.96540744392451,
,,,C,U,y,n,,,,,,,,,,5,19,119,8,1,0,1,0,0,0,0,0,,,,,,,,,,,,,,001,43,2019_Oct_18_1457,ACPT_experiment_5_30_19,3.1.0,59.96540744392451,
,,,C,U,y,n,L,D,d,L,c ,,,,,5,19,119,8,1,0,1,0,,,,,0,0,0,12,,,,,,down,0.7472945580229862,1389.4297264295456,None,001,43,2019_Oct_18_1457,ACPT_experiment_5_30_19,3.1.0,59.96540744392451,
,,,C,U,y,n,R,U,y,R,u,,,,,5,19,119,8,1,0,1,0,,,,,0,1,1,31,,,,,,down,0.5838064404124452,1391.461393888625,None,001,43,2019_Oct_18_1457,ACPT_experiment_5_30_19,3.1.0,59.96540744392451,
,,,C,U,y,n,R,G,g,R,c ,,,,,5,19,119,8,1,0,1,0,,,,,0,2,2,7,,,,,,up,0.6338475703159929,1393.329575946933,None,001,43,2019_Oct_18_1457,ACPT_experiment_5_30_19,3.1.0,59.96540744392451,
,,,C,U,y,n,L,U,y,L,u,,,,,5,19,119,8,1,0,1,0,,,,,0,3,3,24,,,,,,down,0.6335224554204615,1395.264655301231,None,001,43,2019_Oct_18_1457,ACPT_experiment_5_30_19,3.1.0,59.96540744392451,
,,,C,U,y,n,L,U,g,L,u,,,,,5,19,119,8,1,0,1,0,,,,,0,4,4,22,,,,,,up,0.6505515935023141,1397.1993621469046,None,001,43,2019_Oct_18_1457,ACPT_experiment_5_30_19,3.1.0,59.96540744392451,
,,,C,U,y,n,L,G,y,L,y,,,,,5,19,119,8,1,0,1,0,,,,,0,5,5,34,,,,,,down,0.6171800735064608,1399.1343020368731,None,001,43,2019_Oct_18_1457,ACPT_experiment_5_30_19,3.1.0,59.96540744392451,
,,,C,U,y,n,L,U,d,L,u,,,,,5,19,119,8,1,0,1,0,,,,,0,6,6,20,,,,,,up,0.6171683005450177,1401.03583538983,None,001,43,2019_Oct_18_1457,ACPT_experiment_5_30_19,3.1.0,59.96540744392451,
,,,C,U,y,n,R,G,d,R,i,,,,,5,19,119,8,1,0,1,0,,,,,0,7,7,5,,,,,,up,0.5336499958466447,1402.9375145464,None,001,43,2019_Oct_18_1457,ACPT_experiment_5_30_19,3.1.0,59.96540744392451,
,,,C,U,y,n,R,G,y,L,y,,,,,5,19,119,8,1,0,1,0,,,,,0,8,8,28,,,,,,down,0.6004866158000368,1404.7555253684695,None,001,43,2019_Oct_18_1457,ACPT_experiment_5_30_19,3.1.0,59.96540744392451,
,,,C,U,y,n,R,D,y,L,y,,,,,5,19,119,8,1,0,1,0,,,,,0,9,9,26,,,,,,down,0.5837907431305212,1406.6570771355473,None,001,43,2019_Oct_18_1457,ACPT_experiment_5_30_19,3.1.0,59.96540744392451,
,,,C,U,y,n,R,D,g,L,i,,,,,5,19,119,8,1,0,1,0,,,,,0,10,10,2,,,,,,up,0.5136465243340353,1408.5620512123896,None,001,43,2019_Oct_18_1457,ACPT_experiment_5_30_19,3.1.0,59.96540744392451,
,,,C,U,y,n,L,D,g,R,i,,,,,5,19,119,8,1,0,1,0,,,,,0,11,11,15,,,,,,up,0.46704521270658006,1410.3600784864211,None,001,43,2019_Oct_18_1457,ACPT_experiment_5_30_19,3.1.0,59.96540744392451,
,,,C,U,y,n,L,U,y,R,u,,,,,5,19,119,8,1,0,1,0,,,,,0,12,12,25,,,,,,down,0.6338644750831008,1412.1114830159931,None,001,43,2019_Oct_18_1457,ACPT_experiment_5_30_19,3.1.0,59.96540744392451,
,,,C,U,y,n,L,G,y,R,y,,,,,5,19,119,8,1,0,1,0,,,,,0,13,13,35,,,,,,down,0.7506081942847231,1414.0297285426423,None,001,43,2019_Oct_18_1457,ACPT_experiment_5_30_19,3.1.0,59.96540744392451,
,,,C,U,y,n,L,D,y,R,y,,,,,5,19,119,8,1,0,1,0,,,,,0,14,14,33,,,,,,down,0.6170415147898893,1416.064729561458,None,001,43,2019_Oct_18_1457,ACPT_experiment_5_30_19,3.1.0,59.96540744392451,
,,,C,U,y,n,L,D,g,L,i,,,,,5,19,119,8,1,0,1,0,,,,,0,15,15,14,,,,,,up,0.6338545133439766,1417.9662526508037,None,001,43,2019_Oct_18_1457,ACPT_experiment_5_30_19,3.1.0,59.96540744392451,
,,,C,U,y,n,R,G,d,L,i,,,,,5,19,119,8,1,0,1,0,,,,,0,16,16,4,,,,,,up,0.6005563479666307,1419.8844824801708,None,001,43,2019_Oct_18_1457,ACPT_experiment_5_30_19,3.1.0,59.96540744392451,
,,,C,U,y,n,R,D,d,R,c ,,,,,5,19,119,8,1,0,1,0,,,,,0,17,17,1,,,,,,down,0.6638716445158934,1421.7893566377643,None,001,43,2019_Oct_18_1457,ACPT_experiment_5_30_19,3.1.0,59.96540744392451,
,,,C,U,y,n,L,G,g,L,c ,,,,,5,19,119,8,1,0,1,0,,,,,0,18,18,18,,,,,,up,0.5004094877986063,1423.7376141637797,None,001,43,2019_Oct_18_1457,ACPT_experiment_5_30_19,3.1.0,59.96540744392451,
,,,C,U,y,n,L,U,d,R,u,,,,,5,19,119,8,1,0,1,0,,,,,0,19,19,21,,,,,,up,0.8173645165916241,1425.5223947414088,None,001,43,2019_Oct_18_1457,ACPT_experiment_5_30_19,3.1.0,59.96540744392451,
,,,C,U,y,n,L,D,d,R,c ,,,,,5,19,119,8,1,0,1,0,,,,,0,20,20,13,,,,,,up,0.7005655550274241,1427.6074266265168,None,001,43,2019_Oct_18_1457,ACPT_experiment_5_30_19,3.1.0,59.96540744392451,
,,,C,U,y,n,R,U,g,L,u,,,,,5,19,119,8,1,0,1,0,,,,,0,21,21,10,,,,,,up,0.6505416317631898,1429.592386515429,None,001,43,2019_Oct_18_1457,ACPT_experiment_5_30_19,3.1.0,59.96540744392451,
,,,C,U,y,n,R,G,y,R,y,,,,,5,19,119,8,1,0,1,0,,,,,0,22,22,29,,,,,,down,0.6838799459656002,1431.527276294837,None,001,43,2019_Oct_18_1457,ACPT_experiment_5_30_19,3.1.0,59.96540744392451,
,,,C,U,y,n,R,U,g,R,u,,,,,5,19,119,8,1,0,1,0,,,,,0,23,23,11,,,,,,up,0.5671353211509995,1433.4955318586944,None,001,43,2019_Oct_18_1457,ACPT_experiment_5_30_19,3.1.0,59.96540744392451,
,,,C,U,y,n,L,G,g,R,c ,,,,,5,19,119,8,1,0,1,0,,,,,0,24,24,19,,,,,,up,0.6672012799317599,1435.3470488351559,None,001,43,2019_Oct_18_1457,ACPT_experiment_5_30_19,3.1.0,59.96540744392451,
,,,C,U,y,n,L,G,d,R,i,,,,,5,19,119,8,1,0,1,0,,,,,0,25,25,17,,,,,,up,0.6839034918884863,1437.2819334827582,None,001,43,2019_Oct_18_1457,ACPT_experiment_5_30_19,3.1.0,59.96540744392451,
,,,C,U,y,n,R,D,y,R,y,,,,,5,19,119,8,1,0,1,0,,,,,0,26,26,27,,,,,,down,0.8673914585633611,1439.250194782162,None,001,43,2019_Oct_18_1457,ACPT_experiment_5_30_19,3.1.0,59.96540744392451,
,,,C,U,y,n,R,D,d,L,c,,,,,5,19,119,8,1,0,1,0,,,,,0,27,27,0,,,,,,up,0.5671054359409027,1441.401978763388,None,001,43,2019_Oct_18_1457,ACPT_experiment_5_30_19,3.1.0,59.96540744392451,
,,,C,U,y,n,L,G,d,L,i,,,,,5,19,119,8,1,0,1,0,,,,,0,28,28,16,,,,,,up,0.5504524289281107,1443.25346072283,None,001,43,2019_Oct_18_1457,ACPT_experiment_5_30_19,3.1.0,59.96540744392451,
,,,C,U,y,n,R,U,d,L,u,,,,,5,19,119,8,1,0,1,0,,,,,0,29,29,8,,,,,,down,0.6672713139705593,1445.088272166755,None,001,43,2019_Oct_18_1457,ACPT_experiment_5_30_19,3.1.0,59.96540744392451,
,,,C,U,y,n,R,G,g,L,c ,,,,,5,19,119,8,1,0,1,0,,,,,0,30,30,6,,,,,,up,0.713925754866068,1447.0598797044695,None,001,43,2019_Oct_18_1457,ACPT_experiment_5_30_19,3.1.0,59.96540744392451,
,,,C,U,y,n,L,D,y,L,y,,,,,5,19,119,8,1,0,1,0,,,,,0,31,31,32,,,,,,down,0.6004820877387829,1449.0581859071608,None,001,43,2019_Oct_18_1457,ACPT_experiment_5_30_19,3.1.0,59.96540744392451,
,,,C,U,y,n,R,U,d,R,u,,,,,5,19,119,8,1,0,1,0,,,,,0,32,32,9,,,,,,up,0.6004829933517613,1450.9430493483378,None,001,43,2019_Oct_18_1457,ACPT_experiment_5_30_19,3.1.0,59.96540744392451,
,,,C,U,y,n,R,U,y,L,u,,,,,5,19,119,8,1,0,1,0,,,,,0,33,33,30,,,,,,down,0.4837256899627391,1452.82791550635,None,001,43,2019_Oct_18_1457,ACPT_experiment_5_30_19,3.1.0,59.96540744392451,
,,,C,U,y,n,R,D,g,R,i,,,,,5,19,119,8,1,0,1,0,,,,,0,34,34,3,,,,,,up,0.7172448248020373,1454.5960210403973,None,001,43,2019_Oct_18_1457,ACPT_experiment_5_30_19,3.1.0,59.96540744392451,
,,,C,U,y,n,L,U,g,R,u,,,,,5,19,119,8,1,0,1,0,,,,,0,35,35,23,,,,,,up,0.7672690499384771,1456.597658991599,None,001,43,2019_Oct_18_1457,ACPT_experiment_5_30_19,3.1.0,59.96540744392451,
,,,C,U,y,n,L,D,g,L,i,,,,,5,19,119,8,1,0,1,0,,,,,1,0,36,14,,,,,,up,0.6171667911876284,1458.6493106024573,None,001,43,2019_Oct_18_1457,ACPT_experiment_5_30_19,3.1.0,59.96540744392451,
,,,C,U,y,n,L,G,y,L,y,,,,,5,19,119,8,1,0,1,0,,,,,1,1,37,34,,,,,,down,0.5671006060074433,1460.5508575396016,None,001,43,2019_Oct_18_1457,ACPT_experiment_5_30_19,3.1.0,59.96540744392451,
,,,C,U,y,n,L,G,d,R,i,,,,,5,19,119,8,1,0,1,0,,,,,1,2,38,17,,,,,,down,1.567942523790407,1462.4023585169089,None,001,43,2019_Oct_18_1457,ACPT_experiment_5_30_19,3.1.0,59.96540744392451,
,,,C,U,y,n,L,D,d,L,c ,,,,,5,19,119,8,1,0,1,0,,,,,1,3,39,12,,,,,,up,0.7339506592106773,1465.2546516033108,None,001,43,2019_Oct_18_1457,ACPT_experiment_5_30_19,3.1.0,59.96540744392451,
,,,C,U,y,n,L,U,d,R,u,,,,,5,19,119,8,1,0,1,0,,,,,1,4,40,21,,,,,,up,0.7172360705480969,1467.2729896533783,None,001,43,2019_Oct_18_1457,ACPT_experiment_5_30_19,3.1.0,59.96540744392451,
,,,C,U,y,n,R,U,d,L,u,,,,,5,19,119,8,1,0,1,0,,,,,1,5,41,8,,,,,,up,0.5671567539829994,1469.2745977193663,None,001,43,2019_Oct_18_1457,ACPT_experiment_5_30_19,3.1.0,59.96540744392451,
,,,C,U,y,n,L,D,y,L,y,,,,,5,19,119,8,1,0,1,0,,,,,1,6,42,32,,,,,,down,0.7839936003401817,1471.1260905461604,None,001,43,2019_Oct_18_1457,ACPT_experiment_5_30_19,3.1.0,59.96540744392451,
,,,C,U,y,n,L,U,g,R,u,,,,,5,19,119,8,1,0,1,0,,,,,1,7,43,23,,,,,,up,0.6805856294377008,1473.2144571984863,None,001,43,2019_Oct_18_1457,ACPT_experiment_5_30_19,3.1.0,59.96540744392451,
,,,C,U,y,n,L,G,g,R,c ,,,,,5,19,119,8,1,0,1,0,,,,,1,8,44,19,,,,,,up,0.7339277170285641,1475.1794087859525,None,001,43,2019_Oct_18_1457,ACPT_experiment_5_30_19,3.1.0,59.96540744392451,
,,,C,U,y,n,R,D,g,L,i,,,,,5,19,119,8,1,0,1,0,,,,,1,9,45,2,,,,,,up,0.4837208600292797,1477.1977202713824,None,001,43,2019_Oct_18_1457,ACPT_experiment_5_30_19,3.1.0,59.96540744392451,
,,,C,U,y,n,R,D,y,R,y,,,,,5,19,119,8,1,0,1,0,,,,,1,10,46,27,,,,,,down,1.0342001554636227,1478.9491127261208,None,001,43,2019_Oct_18_1457,ACPT_experiment_5_30_19,3.1.0,59.96540744392451,
,,,C,U,y,n,L,G,d,L,i,,,,,5,19,119,8,1,0,1,0,,,,,1,11,47,16,,,,,,up,0.6838914170584758,1481.2676851788965,None,001,43,2019_Oct_18_1457,ACPT_experiment_5_30_19,3.1.0,59.96540744392451,
,,,C,U,y,n,R,U,y,L,u,,,,,5,19,119,8,1,0,1,0,,,,,1,12,48,30,,,,,,down,0.650544348602125,1483.235937120302,None,001,43,2019_Oct_18_1457,ACPT_experiment_5_30_19,3.1.0,59.96540744392451,
,,,C,U,y,n,L,G,y,R,y,,,,,5,19,119,8,1,0,1,0,,,,,1,13,49,35,,,,,,down,0.7005978552078886,1485.170856483055,None,001,43,2019_Oct_18_1457,ACPT_experiment_5_30_19,3.1.0,59.96540744392451,
,,,C,U,y,n,L,U,y,R,u,,,,,5,19,119,8,1,0,1,0,,,,,1,14,50,25,,,,,,down,0.38368116401397856,1487.1558055046153,None,001,43,2019_Oct_18_1457,ACPT_experiment_5_30_19,3.1.0,59.96540744392451,
,,,C,U,y,n,R,D,d,R,c ,,,,,5,19,119,8,1,0,1,0,,,,,1,15,51,1,,,,,,up,0.8171254348853836,1488.823998732143,None,001,43,2019_Oct_18_1457,ACPT_experiment_5_30_19,3.1.0,59.96540744392451,
,,,C,U,y,n,L,U,y,L,u,,,,,5,19,119,8,1,0,1,0,,,,,1,16,52,24,,,,,,down,0.6505174820958928,1490.9255369150305,None,001,43,2019_Oct_18_1457,ACPT_experiment_5_30_19,3.1.0,59.96540744392451,
,,,C,U,y,n,R,D,d,L,c,,,,,5,19,119,8,1,0,1,0,,,,,1,17,53,0,,,,,,down,0.633875040562998,1492.8604137139919,None,001,43,2019_Oct_18_1457,ACPT_experiment_5_30_19,3.1.0,59.96540744392451,
,,,C,U,y,n,R,U,y,R,u,,,,,5,19,119,8,1,0,1,0,,,,,1,18,54,31,,,,,,down,0.6338726255962683,1494.778638411557,None,001,43,2019_Oct_18_1457,ACPT_experiment_5_30_19,3.1.0,59.96540744392451,
,,,C,U,y,n,R,G,g,R,c ,,,,,5,19,119,8,1,0,1,0,,,,,1,19,55,7,,,,,,up,0.6171513957742718,1496.696906880392,None,001,43,2019_Oct_18_1457,ACPT_experiment_5_30_19,3.1.0,59.96540744392451,
,,,C,U,y,n,L,D,d,R,c ,,,,,5,19,119,8,1,0,1,0,,,,,1,20,56,13,,,,,,up,0.8504220909089781,1498.6153791120487,None,001,43,2019_Oct_18_1457,ACPT_experiment_5_30_19,3.1.0,59.96540744392451,
,,,C,U,y,n,R,G,d,R,i,,,,,5,19,119,8,1,0,1,0,,,,,1,21,57,5,,,,,,up,0.6338382123176416,1500.7335087202955,None,001,43,2019_Oct_18_1457,ACPT_experiment_5_30_19,3.1.0,59.96540744392451,
,,,C,U,y,n,R,G,y,L,y,,,,,5,19,119,8,1,0,1,0,,,,,1,22,58,28,,,,,,down,0.717287690462399,1502.6350284890614,None,001,43,2019_Oct_18_1457,ACPT_experiment_5_30_19,3.1.0,59.96540744392451,
,,,C,U,y,n,R,G,g,L,c ,,,,,5,19,119,8,1,0,1,0,,,,,1,23,59,6,,,,,,up,0.867367912640475,1504.6366757982614,None,001,43,2019_Oct_18_1457,ACPT_experiment_5_30_19,3.1.0,59.96540744392451,
,,,C,U,y,n,L,U,g,L,u,,,,,5,19,119,8,1,0,1,0,,,,,1,24,60,22,,,,,,up,0.8173243677701976,1506.788426271818,None,001,43,2019_Oct_18_1457,ACPT_experiment_5_30_19,3.1.0,59.96540744392451,
,,,C,U,y,n,R,U,d,R,u,,,,,5,19,119,8,1,0,1,0,,,,,1,25,61,9,,,,,,up,0.8840665021452878,1508.890118408839,None,001,43,2019_Oct_18_1457,ACPT_experiment_5_30_19,3.1.0,59.96540744392451,
,,,C,U,y,n,L,D,y,R,y,,,,,5,19,119,8,1,0,1,0,,,,,1,26,62,33,,,,,,down,0.5502061023180431,1511.0754972944815,None,001,43,2019_Oct_18_1457,ACPT_experiment_5_30_19,3.1.0,59.96540744392451,
,,,C,U,y,n,L,U,d,L,u,,,,,5,19,119,8,1,0,1,0,,,,,1,27,63,20,,,,,,up,0.8006511354142276,1512.9100606005704,None,001,43,2019_Oct_18_1457,ACPT_experiment_5_30_19,3.1.0,59.96540744392451,
,,,C,U,y,n,R,D,y,L,y,,,,,5,19,119,8,1,0,1,0,,,,,1,28,64,26,,,,,,down,0.7506078924125177,1514.9950873538764,None,001,43,2019_Oct_18_1457,ACPT_experiment_5_30_19,3.1.0,59.96540744392451,
,,,C,U,y,n,R,U,g,R,u,,,,,5,19,119,8,1,0,1,0,,,,,1,29,65,11,,,,,,up,0.5337613861920545,1517.0300738828882,None,001,43,2019_Oct_18_1457,ACPT_experiment_5_30_19,3.1.0,59.96540744392451,
,,,C,U,y,n,R,U,g,L,u,,,,,5,19,119,8,1,0,1,0,,,,,1,30,66,10,,,,,,up,0.5671510184365616,1518.8315141086896,None,001,43,2019_Oct_18_1457,ACPT_experiment_5_30_19,3.1.0,59.96540744392451,
,,,C,U,y,n,R,D,g,R,i,,,,,5,19,119,8,1,0,1,0,,,,,1,31,67,3,,,,,,up,0.7506293252408796,1520.6663427592503,None,001,43,2019_Oct_18_1457,ACPT_experiment_5_30_19,3.1.0,59.96540744392451,
,,,C,U,y,n,L,G,g,L,c ,,,,,5,19,119,8,1,0,1,0,,,,,1,32,68,18,,,,,,up,0.6839083218255837,1522.7013483061273,None,001,43,2019_Oct_18_1457,ACPT_experiment_5_30_19,3.1.0,59.96540744392451,
,,,C,U,y,n,R,G,y,R,y,,,,,5,19,119,8,1,0,1,0,,,,,1,33,69,29,,,,,,down,1.0342040797877416,1524.6695872670862,None,001,43,2019_Oct_18_1457,ACPT_experiment_5_30_19,3.1.0,59.96540744392451,
,,,C,U,y,n,L,D,g,R,i,,,,,5,19,119,8,1,0,1,0,,,,,1,34,70,15,,,,,,up,0.633891945330106,1526.988162738573,None,001,43,2019_Oct_18_1457,ACPT_experiment_5_30_19,3.1.0,59.96540744392451,
,,,C,U,y,n,R,G,d,L,i,,,,,5,19,119,8,1,0,1,0,,,,,1,35,71,4,,,,,,up,0.7005383866526245,1528.9064106801889,None,001,43,2019_Oct_18_1457,ACPT_experiment_5_30_19,3.1.0,59.96540744392451,
,,,C,U,y,n,,,,,,,,,,5,19,119,8,2,0,2,0,0,0,0,0,,,,,,,,,,,,,,001,43,2019_Oct_18_1457,ACPT_experiment_5_30_19,3.1.0,59.96540744392451,
,,,C,U,y,n,L,G,g,R,c ,,,,,5,19,119,8,2,0,2,0,,,,,0,0,0,19,,,,,,up,0.6171652818338771,1535.445036715042,None,001,43,2019_Oct_18_1457,ACPT_experiment_5_30_19,3.1.0,59.96540744392451,
,,,C,U,y,n,L,U,d,R,u,,,,,5,19,119,8,2,0,2,0,,,,,0,1,1,21,,,,,,down,0.8173282920906786,1537.3465809353474,None,001,43,2019_Oct_18_1457,ACPT_experiment_5_30_19,3.1.0,59.96540744392451,
,,,C,U,y,n,L,D,g,L,i,,,,,5,19,119,8,2,0,2,0,,,,,0,2,2,14,,,,,,up,0.4169914042286109,1539.448298127645,None,001,43,2019_Oct_18_1457,ACPT_experiment_5_30_19,3.1.0,59.96540744392451,
,,,C,U,y,n,L,U,d,L,u,,,,,5,19,119,8,2,0,2,0,,,,,0,3,3,20,,,,,,up,0.6171673949284013,1541.1496684703452,None,001,43,2019_Oct_18_1457,ACPT_experiment_5_30_19,3.1.0,59.96540744392451,
,,,C,U,y,n,L,U,g,R,u,,,,,5,19,119,8,2,0,2,0,,,,,0,4,4,23,,,,,,up,0.7173070101962367,1543.0345083655957,None,001,43,2019_Oct_18_1457,ACPT_experiment_5_30_19,3.1.0,59.96540744392451,
,,,C,U,y,n,R,D,g,R,i,,,,,5,19,119,8,2,0,2,0,,,,,0,5,5,3,,,,,,up,0.7839652244765603,1545.0361644290497,None,001,43,2019_Oct_18_1457,ACPT_experiment_5_30_19,3.1.0,59.96540744392451,
,,,C,U,y,n,L,G,y,L,y,,,,,5,19,119,8,2,0,2,0,,,,,0,6,6,34,,,,,,down,0.6672236183731002,1547.104492290975,None,001,43,2019_Oct_18_1457,ACPT_experiment_5_30_19,3.1.0,59.96540744392451,
,,,C,U,y,n,R,G,d,R,i,,,,,5,19,119,8,2,0,2,0,,,,,0,7,7,5,,,,,,up,0.617190035241947,1549.0560694906671,None,001,43,2019_Oct_18_1457,ACPT_experiment_5_30_19,3.1.0,59.96540744392451,
,,,C,U,y,n,L,U,g,L,u,,,,,5,19,119,8,2,0,2,0,,,,,0,8,8,22,,,,,,up,0.7172620314377127,1550.9576242764524,None,001,43,2019_Oct_18_1457,ACPT_experiment_5_30_19,3.1.0,59.96540744392451,
,,,C,U,y,n,L,G,d,R,i,,,,,5,19,119,8,2,0,2,0,,,,,0,9,9,17,,,,,,up,0.6338530039902253,1552.9592552846261,None,001,43,2019_Oct_18_1457,ACPT_experiment_5_30_19,3.1.0,59.96540744392451,
,,,C,U,y,n,R,U,d,L,u,,,,,5,19,119,8,2,0,2,0,,,,,0,10,10,8,,,,,,up,0.45039673375868006,1554.8774709260651,None,001,43,2019_Oct_18_1457,ACPT_experiment_5_30_19,3.1.0,59.96540744392451,
,,,C,U,y,n,R,G,g,L,c ,,,,,5,19,119,8,2,0,2,0,,,,,0,11,11,6,,,,,,up,0.4837256899627391,1556.6122309010098,None,001,43,2019_Oct_18_1457,ACPT_experiment_5_30_19,3.1.0,59.96540744392451,
,,,C,U,y,n,L,G,d,L,i,,,,,5,19,119,8,2,0,2,0,,,,,0,12,12,16,,,,,,down,0.6338545133439766,1558.3803291901568,None,001,43,2019_Oct_18_1457,ACPT_experiment_5_30_19,3.1.0,59.96540744392451,
,,,C,U,y,n,R,D,d,L,c,,,,,5,19,119,8,2,0,2,0,,,,,0,13,13,0,,,,,,up,0.5669215965936019,1560.3154082425826,None,001,43,2019_Oct_18_1457,ACPT_experiment_5_30_19,3.1.0,59.96540744392451,
,,,C,U,y,n,L,D,y,R,y,,,,,5,19,119,8,2,0,2,0,,,,,0,14,14,33,,,,,,down,0.8340320134047943,1562.1667471152468,None,001,43,2019_Oct_18_1457,ACPT_experiment_5_30_19,3.1.0,59.96540744392451,
,,,C,U,y,n,R,U,y,L,u,,,,,5,19,119,8,2,0,2,0,,,,,0,15,15,30,,,,,,down,0.6338421366417606,1564.2851381436449,None,001,43,2019_Oct_18_1457,ACPT_experiment_5_30_19,3.1.0,59.96540744392451,
,,,C,U,y,n,L,D,y,L,y,,,,,5,19,119,8,2,0,2,0,,,,,0,16,16,32,,,,,,down,0.5671048321964918,1566.220053582074,None,001,43,2019_Oct_18_1457,ACPT_experiment_5_30_19,3.1.0,59.96540744392451,
,,,C,U,y,n,R,D,y,L,y,,,,,5,19,119,8,2,0,2,0,,,,,0,17,17,26,,,,,,down,0.6004784652868693,1568.0882262823834,None,001,43,2019_Oct_18_1457,ACPT_experiment_5_30_19,3.1.0,59.96540744392451,
,,,C,U,y,n,R,U,y,R,u,,,,,5,19,119,8,2,0,2,0,,,,,0,18,18,31,,,,,,down,0.7506290233723121,1569.9564044163708,None,001,43,2019_Oct_18_1457,ACPT_experiment_5_30_19,3.1.0,59.96540744392451,
,,,C,U,y,n,L,U,y,L,u,,,,,5,19,119,8,2,0,2,0,,,,,0,19,19,24,,,,,,down,0.5838378349835693,1571.974698695165,None,001,43,2019_Oct_18_1457,ACPT_experiment_5_30_19,3.1.0,59.96540744392451,
,,,C,U,y,n,R,G,y,R,y,,,,,5,19,119,8,2,0,2,0,,,,,0,20,20,29,,,,,,down,0.5671196238690754,1573.8428994694623,None,001,43,2019_Oct_18_1457,ACPT_experiment_5_30_19,3.1.0,59.96540744392451,
,,,C,U,y,n,R,D,y,R,y,,,,,5,19,119,8,2,0,2,0,,,,,0,21,21,27,,,,,,down,0.4336812394831213,1575.677723893834,None,001,43,2019_Oct_18_1457,ACPT_experiment_5_30_19,3.1.0,59.96540744392451,
,,,C,U,y,n,R,G,d,L,i,,,,,5,19,119,8,2,0,2,0,,,,,0,22,22,4,,,,,,up,0.6171818847287796,1577.3957626389565,None,001,43,2019_Oct_18_1457,ACPT_experiment_5_30_19,3.1.0,59.96540744392451,
,,,C,U,y,n,L,U,y,R,u,,,,,5,19,119,8,2,0,2,0,,,,,0,23,23,25,,,,,,down,0.6505011810695578,1579.31403140966,None,001,43,2019_Oct_18_1457,ACPT_experiment_5_30_19,3.1.0,59.96540744392451,
,,,C,U,y,n,R,U,d,R,u,,,,,5,19,119,8,2,0,2,0,,,,,0,24,24,9,,,,,,up,0.6338677956628089,1581.2488888888874,None,001,43,2019_Oct_18_1457,ACPT_experiment_5_30_19,3.1.0,59.96540744392451,
,,,C,U,y,n,R,U,g,L,u,,,,,5,19,119,8,2,0,2,0,,,,,0,25,25,10,,,,,,up,0.6839050012458756,1583.1671416604404,None,001,43,2019_Oct_18_1457,ACPT_experiment_5_30_19,3.1.0,59.96540744392451,
,,,C,U,y,n,R,G,y,L,y,,,,,5,19,119,8,2,0,2,0,,,,,0,26,26,28,,,,,,down,0.700558310127235,1585.1520882670338,None,001,43,2019_Oct_18_1457,ACPT_experiment_5_30_19,3.1.0,59.96540744392451,
,,,C,U,y,n,L,G,y,R,y,,,,,5,19,119,8,2,0,2,0,,,,,0,27,27,35,,,,,,down,0.6171794697620498,1587.1370333642735,None,001,43,2019_Oct_18_1457,ACPT_experiment_5_30_19,3.1.0,59.96540744392451,
,,,C,U,y,n,L,D,d,R,c ,,,,,5,19,119,8,2,0,2,0,,,,,0,28,28,13,,,,,,up,0.7005607250939647,1589.0552604768054,None,001,43,2019_Oct_18_1457,ACPT_experiment_5_30_19,3.1.0,59.96540744392451,
,,,C,U,y,n,R,U,g,R,u,,,,,5,19,119,8,2,0,2,0,,,,,0,29,29,11,,,,,,up,0.5170754752580251,1591.040209196497,None,001,43,2019_Oct_18_1457,ACPT_experiment_5_30_19,3.1.0,59.96540744392451,
,,,C,U,y,n,L,G,g,L,c ,,,,,5,19,119,8,2,0,2,0,,,,,0,30,30,18,,,,,,up,0.6171676968006068,1592.841666628934,None,001,43,2019_Oct_18_1457,ACPT_experiment_5_30_19,3.1.0,59.96540744392451,
,,,C,U,y,n,R,G,g,R,c ,,,,,5,19,119,8,2,0,2,0,,,,,0,31,31,7,,,,,,up,0.5170763808710035,1594.7432132642061,None,001,43,2019_Oct_18_1457,ACPT_experiment_5_30_19,3.1.0,59.96540744392451,
,,,C,U,y,n,L,D,g,R,i,,,,,5,19,119,8,2,0,2,0,,,,,0,32,32,15,,,,,,up,0.6672003743224195,1596.5446770359304,None,001,43,2019_Oct_18_1457,ACPT_experiment_5_30_19,3.1.0,59.96540744392451,
,,,C,U,y,n,L,D,d,L,c ,,,,,5,19,119,8,2,0,2,0,,,,,0,33,33,12,,,,,,up,0.7336545239122643,1598.4965271268702,None,001,43,2019_Oct_18_1457,ACPT_experiment_5_30_19,3.1.0,59.96540744392451,
,,,C,U,y,n,R,D,g,L,i,,,,,5,19,119,8,2,0,2,0,,,,,0,34,34,2,,,,,,up,0.5337604805790761,1600.5145696453765,None,001,43,2019_Oct_18_1457,ACPT_experiment_5_30_19,3.1.0,59.96540744392451,
,,,C,U,y,n,R,D,d,R,c ,,,,,5,19,119,8,2,0,2,0,,,,,0,35,35,1,,,,,,up,0.6672263352120353,1602.3160098711778,None,001,43,2019_Oct_18_1457,ACPT_experiment_5_30_19,3.1.0,59.96540744392451,
,,,C,U,y,n,R,U,g,L,u,,,,,5,19,119,8,2,0,2,0,,,,,1,0,36,10,,,,,,up,0.5504605794412782,1604.267632351497,None,001,43,2019_Oct_18_1457,ACPT_experiment_5_30_19,3.1.0,59.96540744392451,
,,,C,U,y,n,R,G,d,R,i,,,,,5,19,119,8,2,0,2,0,,,,,1,1,37,5,,,,,,up,0.5004004316760984,1606.1024416823275,None,001,43,2019_Oct_18_1457,ACPT_experiment_5_30_19,3.1.0,59.96540744392451,
,,,C,U,y,n,L,D,y,R,y,,,,,5,19,119,8,2,0,2,0,,,,,1,2,38,33,,,,,,down,0.7339491498569259,1607.8871984121579,None,001,43,2019_Oct_18_1457,ACPT_experiment_5_30_19,3.1.0,59.96540744392451,
,,,C,U,y,n,R,G,y,R,y,,,,,5,19,119,8,2,0,2,0,,,,,1,3,39,29,,,,,,down,0.517092380025133,1609.905521972425,None,001,43,2019_Oct_18_1457,ACPT_experiment_5_30_19,3.1.0,59.96540744392451,
,,,C,U,y,n,L,U,d,R,u,,,,,5,19,119,8,2,0,2,0,,,,,1,4,40,21,,,,,,up,0.6505247269960819,1611.72367407005,None,001,43,2019_Oct_18_1457,ACPT_experiment_5_30_19,3.1.0,59.96540744392451,
,,,C,U,y,n,L,G,y,L,y,,,,,5,19,119,8,2,0,2,0,,,,,1,5,41,34,,,,,,down,0.7004432973371877,1613.7087589334915,None,001,43,2019_Oct_18_1457,ACPT_experiment_5_30_19,3.1.0,59.96540744392451,
,,,C,U,y,n,L,G,y,R,y,,,,,5,19,119,8,2,0,2,0,,,,,1,6,42,35,,,,,,down,0.6338421366417606,1615.7102432324318,None,001,43,2019_Oct_18_1457,ACPT_experiment_5_30_19,3.1.0,59.96540744392451,
,,,C,U,y,n,R,D,d,L,c,,,,,5,19,119,8,2,0,2,0,,,,,1,7,43,0,,,,,,down,0.767338782101433,1617.6284709487045,None,001,43,2019_Oct_18_1457,ACPT_experiment_5_30_19,3.1.0,59.96540744392451,
,,,C,U,y,n,R,G,d,L,i,,,,,5,19,119,8,2,0,2,0,,,,,1,8,44,4,,,,,,down,0.5504569569893647,1619.6634475159808,None,001,43,2019_Oct_18_1457,ACPT_experiment_5_30_19,3.1.0,59.96540744392451,
,,,C,U,y,n,R,D,y,R,y,,,,,5,19,119,8,2,0,2,0,,,,,1,9,45,27,,,,,,down,0.5337625936736003,1621.4982794871212,None,001,43,2019_Oct_18_1457,ACPT_experiment_5_30_19,3.1.0,59.96540744392451,
,,,C,U,y,n,R,U,g,R,u,,,,,5,19,119,8,2,0,2,0,,,,,1,10,46,11,,,,,,up,0.667204600511468,1623.3164246417182,None,001,43,2019_Oct_18_1457,ACPT_experiment_5_30_19,3.1.0,59.96540744392451,
,,,C,U,y,n,R,G,g,R,c ,,,,,5,19,119,8,2,0,2,0,,,,,1,11,47,7,,,,,,up,0.5504472971224459,1625.2513274015728,None,001,43,2019_Oct_18_1457,ACPT_experiment_5_30_19,3.1.0,59.96540744392451,
,,,C,U,y,n,L,D,d,R,c ,,,,,5,19,119,8,2,0,2,0,,,,,1,12,48,13,,,,,,up,0.7506018549975124,1627.0861563540057,None,001,43,2019_Oct_18_1457,ACPT_experiment_5_30_19,3.1.0,59.96540744392451,
,,,C,U,y,n,R,U,d,L,u,,,,,5,19,119,8,2,0,2,0,,,,,1,13,49,8,,,,,,up,0.8507330178799748,1629.1211525428844,None,001,43,2019_Oct_18_1457,ACPT_experiment_5_30_19,3.1.0,59.96540744392451,
,,,C,U,y,n,R,G,g,L,c ,,,,,5,19,119,8,2,0,2,0,,,,,1,14,50,6,,,,,,up,0.8507028307940345,1631.2562074456437,None,001,43,2019_Oct_18_1457,ACPT_experiment_5_30_19,3.1.0,59.96540744392451,
,,,C,U,y,n,L,D,g,L,i,,,,,5,19,119,8,2,0,2,0,,,,,1,15,51,14,,,,,,up,0.5170857388657168,1633.3912747251088,None,001,43,2019_Oct_18_1457,ACPT_experiment_5_30_19,3.1.0,59.96540744392451,
,,,C,U,y,n,L,U,g,R,u,,,,,5,19,119,8,2,0,2,0,,,,,1,16,52,23,,,,,,up,0.6505316700240655,1635.1927354781255,None,001,43,2019_Oct_18_1457,ACPT_experiment_5_30_19,3.1.0,59.96540744392451,
,,,C,U,y,n,L,U,y,R,u,,,,,5,19,119,8,2,0,2,0,,,,,1,17,53,25,,,,,,down,0.9507542997707787,1637.1443298844606,None,001,43,2019_Oct_18_1457,ACPT_experiment_5_30_19,3.1.0,59.96540744392451,
,,,C,U,y,n,L,U,y,L,u,,,,,5,19,119,8,2,0,2,0,,,,,1,18,54,24,,,,,,down,0.6838754179007083,1639.3961577878908,None,001,43,2019_Oct_18_1457,ACPT_experiment_5_30_19,3.1.0,59.96540744392451,
,,,C,U,y,n,L,D,g,R,i,,,,,5,19,119,8,2,0,2,0,,,,,1,19,55,15,,,,,,up,0.6171661874468555,1641.3644199929076,None,001,43,2019_Oct_18_1457,ACPT_experiment_5_30_19,3.1.0,59.96540744392451,
,,,C,U,y,n,L,U,d,L,u,,,,,5,19,119,8,2,0,2,0,,,,,1,20,56,20,,,,,,up,0.7338190435220895,1643.2659581757944,None,001,43,2019_Oct_18_1457,ACPT_experiment_5_30_19,3.1.0,59.96540744392451,
,,,C,U,y,n,R,U,y,R,u,,,,,5,19,119,8,2,0,2,0,,,,,1,21,57,31,,,,,,down,0.6505307644147251,1645.2842645294222,None,001,43,2019_Oct_18_1457,ACPT_experiment_5_30_19,3.1.0,59.96540744392451,
,,,C,U,y,n,L,G,g,L,c ,,,,,5,19,119,8,2,0,2,0,,,,,1,22,58,18,,,,,,up,0.7339237927044451,1647.219179665979,None,001,43,2019_Oct_18_1457,ACPT_experiment_5_30_19,3.1.0,59.96540744392451,
,,,C,U,y,n,L,G,d,L,i,,,,,5,19,119,8,2,0,2,0,,,,,1,23,59,16,,,,,,up,0.5838357218854071,1649.2207856188725,None,001,43,2019_Oct_18_1457,ACPT_experiment_5_30_19,3.1.0,59.96540744392451,
,,,C,U,y,n,R,D,d,R,c ,,,,,5,19,119,8,2,0,2,0,,,,,1,24,60,1,,,,,,up,0.5838375331113639,1651.088987600655,None,001,43,2019_Oct_18_1457,ACPT_experiment_5_30_19,3.1.0,59.96540744392451,
,,,C,U,y,n,L,U,g,L,u,,,,,5,19,119,8,2,0,2,0,,,,,1,25,61,22,,,,,,up,0.5671486034698319,1652.957146716777,None,001,43,2019_Oct_18_1457,ACPT_experiment_5_30_19,3.1.0,59.96540744392451,
,,,C,U,y,n,R,D,g,L,i,,,,,5,19,119,8,2,0,2,0,,,,,1,26,62,2,,,,,,up,0.6502699480042793,1654.825634268378,None,001,43,2019_Oct_18_1457,ACPT_experiment_5_30_19,3.1.0,59.96540744392451,
,,,C,U,y,n,L,D,y,L,y,,,,,5,19,119,8,2,0,2,0,,,,,1,27,63,32,,,,,,down,0.7339132272281859,1656.7602677594405,None,001,43,2019_Oct_18_1457,ACPT_experiment_5_30_19,3.1.0,59.96540744392451,
,,,C,U,y,n,L,G,g,R,c ,,,,,5,19,119,8,2,0,2,0,,,,,1,28,64,19,,,,,,up,0.6839043975014647,1658.778557812042,None,001,43,2019_Oct_18_1457,ACPT_experiment_5_30_19,3.1.0,59.96540744392451,
,,,C,U,y,n,R,G,y,L,y,,,,,5,19,119,8,2,0,2,0,,,,,1,29,65,28,,,,,,down,0.6672070154818357,1660.7468317900202,None,001,43,2019_Oct_18_1457,ACPT_experiment_5_30_19,3.1.0,59.96540744392451,
,,,C,U,y,n,R,U,y,L,u,,,,,5,19,119,8,2,0,2,0,,,,,1,30,66,30,,,,,,down,0.5170881538324466,1662.698414121518,None,001,43,2019_Oct_18_1457,ACPT_experiment_5_30_19,3.1.0,59.96540744392451,
,,,C,U,y,n,L,G,d,R,i,,,,,5,19,119,8,2,0,2,0,,,,,1,31,67,17,,,,,,up,0.7005839691519213,1664.4998851381424,None,001,43,2019_Oct_18_1457,ACPT_experiment_5_30_19,3.1.0,59.96540744392451,
,,,C,U,y,n,R,D,y,L,y,,,,,5,19,119,8,2,0,2,0,,,,,1,32,68,26,,,,,,down,0.6838754179007083,1666.4848305372543,None,001,43,2019_Oct_18_1457,ACPT_experiment_5_30_19,3.1.0,59.96540744392451,
,,,C,U,y,n,R,D,g,R,i,,,,,5,19,119,8,2,0,2,0,,,,,1,33,69,3,,,,,,up,0.7672654274865636,1668.4531144769717,None,001,43,2019_Oct_18_1457,ACPT_experiment_5_30_19,3.1.0,59.96540744392451,
,,,C,U,y,n,L,D,d,L,c ,,,,,5,19,119,8,2,0,2,0,,,,,1,34,70,12,,,,,,up,0.7005661587681971,1670.5047594466705,None,001,43,2019_Oct_18_1457,ACPT_experiment_5_30_19,3.1.0,59.96540744392451,
,,,C,U,y,n,R,U,d,R,u,,,,,5,19,119,8,2,0,2,0,,,,,1,35,71,9,,,,,,up,0.8840619740840339,1672.489716920616,None,001,43,2019_Oct_18_1457,ACPT_experiment_5_30_19,3.1.0,59.96540744392451,
,,,C,U,y,n,,,,,,,,,,5,19,119,8,3,0,3,0,0,0,0,0,,,,,,,,,,,,,,001,43,2019_Oct_18_1457,ACPT_experiment_5_30_19,3.1.0,59.96540744392451,
,,,C,U,y,n,R,U,d,L,u,,,,,5,19,119,8,3,0,3,0,,,,,0,0,0,8,,,,,,up,0.5001408227471984,1680.0961534107628,None,001,43,2019_Oct_18_1457,ACPT_experiment_5_30_19,3.1.0,59.96540744392451,
,,,C,U,y,n,R,D,y,R,y,,,,,5,19,119,8,3,0,3,0,,,,,0,1,1,27,,,,,,down,0.6171710173803149,1681.8806674364387,None,001,43,2019_Oct_18_1457,ACPT_experiment_5_30_19,3.1.0,59.96540744392451,
,,,C,U,y,n,R,U,d,R,u,,,,,5,19,119,8,3,0,3,0,,,,,0,2,2,9,,,,,,up,0.7505997418993502,1683.782215882933,None,001,43,2019_Oct_18_1457,ACPT_experiment_5_30_19,3.1.0,59.96540744392451,
,,,C,U,y,n,L,G,g,R,c ,,,,,5,19,119,8,3,0,3,0,,,,,0,3,3,19,,,,,,up,0.7005727999276132,1685.8171981857558,None,001,43,2019_Oct_18_1457,ACPT_experiment_5_30_19,3.1.0,59.96540744392451,
,,,C,U,y,n,L,U,y,R,u,,,,,5,19,119,8,3,0,3,0,,,,,0,4,4,25,,,,,,down,0.7172460322872212,1687.8021466035752,None,001,43,2019_Oct_18_1457,ACPT_experiment_5_30_19,3.1.0,59.96540744392451,
,,,C,U,y,n,R,G,g,R,c ,,,,,5,19,119,8,3,0,3,0,,,,,0,5,5,7,,,,,,up,0.5004064690947416,1689.8037676500098,None,001,43,2019_Oct_18_1457,ACPT_experiment_5_30_19,3.1.0,59.96540744392451,
,,,C,U,y,n,R,G,d,R,i,,,,,5,19,119,8,3,0,3,0,,,,,0,6,6,5,,,,,,up,0.5004662395185733,1691.5718487325212,None,001,43,2019_Oct_18_1457,ACPT_experiment_5_30_19,3.1.0,59.96540744392451,
,,,C,U,y,n,R,D,d,R,c ,,,,,5,19,119,8,3,0,3,0,,,,,0,7,7,1,,,,,,down,0.6972283728391631,1693.3766747417103,None,001,43,2019_Oct_18_1457,ACPT_experiment_5_30_19,3.1.0,59.96540744392451,
,,,C,U,y,n,L,G,g,L,c ,,,,,5,19,119,8,3,0,3,0,,,,,0,8,8,18,,,,,,up,0.5671476978568535,1695.3582591108388,None,001,43,2019_Oct_18_1457,ACPT_experiment_5_30_19,3.1.0,59.96540744392451,
,,,C,U,y,n,L,G,y,R,y,,,,,5,19,119,8,3,0,3,0,,,,,0,9,9,35,,,,,,down,0.6505247269960819,1697.2097857471672,None,001,43,2019_Oct_18_1457,ACPT_experiment_5_30_19,3.1.0,59.96540744392451,
,,,C,U,y,n,R,U,g,R,u,,,,,5,19,119,8,3,0,3,0,,,,,0,10,10,11,,,,,,up,0.6004823896109883,1699.144697563148,None,001,43,2019_Oct_18_1457,ACPT_experiment_5_30_19,3.1.0,59.96540744392451,
,,,C,U,y,n,L,U,d,R,u,,,,,5,19,119,8,3,0,3,0,,,,,0,11,11,21,,,,,,up,1.0174894911215233,1701.029562815551,None,001,43,2019_Oct_18_1457,ACPT_experiment_5_30_19,3.1.0,59.96540744392451,
,,,C,U,y,n,R,G,y,L,y,,,,,5,19,119,8,3,0,3,0,,,,,0,12,12,28,,,,,,down,0.7506033643512637,1703.3314315470125,None,001,43,2019_Oct_18_1457,ACPT_experiment_5_30_19,3.1.0,59.96540744392451,
,,,C,U,y,n,R,U,g,L,u,,,,,5,19,119,8,3,0,3,0,,,,,0,13,13,10,,,,,,up,0.6838877946065622,1705.3664141517038,None,001,43,2019_Oct_18_1457,ACPT_experiment_5_30_19,3.1.0,59.96540744392451,
,,,C,U,y,n,L,D,y,L,y,,,,,5,19,119,8,3,0,3,0,,,,,0,14,14,32,,,,,,down,0.800664417729422,1707.3346609613072,None,001,43,2019_Oct_18_1457,ACPT_experiment_5_30_19,3.1.0,59.96540744392451,
,,,C,U,y,n,L,G,y,L,y,,,,,5,19,119,8,3,0,3,0,,,,,0,15,15,34,,,,,,down,0.6338865116558736,1709.419696166995,None,001,43,2019_Oct_18_1457,ACPT_experiment_5_30_19,3.1.0,59.96540744392451,
,,,C,U,y,n,R,U,y,R,u,,,,,5,19,119,8,3,0,3,0,,,,,0,16,16,31,,,,,,down,0.8673676107682695,1711.3379317319086,None,001,43,2019_Oct_18_1457,ACPT_experiment_5_30_19,3.1.0,59.96540744392451,
,,,C,U,y,n,L,D,d,R,c ,,,,,5,19,119,8,3,0,3,0,,,,,0,17,17,13,,,,,,up,0.71723999486494,1713.4896843185634,None,001,43,2019_Oct_18_1457,ACPT_experiment_5_30_19,3.1.0,59.96540744392451,
,,,C,U,y,n,R,D,d,L,c,,,,,5,19,119,8,3,0,3,0,,,,,0,18,18,0,,,,,,up,0.6505654795619193,1715.4912860452641,None,001,43,2019_Oct_18_1457,ACPT_experiment_5_30_19,3.1.0,59.96540744392451,
,,,C,U,y,n,L,U,g,R,u,,,,,5,19,119,8,3,0,3,0,,,,,0,19,19,23,,,,,,up,0.7506087980254961,1717.4262111435637,None,001,43,2019_Oct_18_1457,ACPT_experiment_5_30_19,3.1.0,59.96540744392451,
,,,C,U,y,n,R,D,g,R,i,,,,,5,19,119,8,3,0,3,0,,,,,0,20,20,3,,,,,,up,0.7005595176087809,1719.4612037099942,None,001,43,2019_Oct_18_1457,ACPT_experiment_5_30_19,3.1.0,59.96540744392451,
,,,C,U,y,n,L,D,y,R,y,,,,,5,19,119,8,3,0,3,0,,,,,0,21,21,33,,,,,,down,0.6838736066783895,1721.4461494109746,None,001,43,2019_Oct_18_1457,ACPT_experiment_5_30_19,3.1.0,59.96540744392451,
,,,C,U,y,n,R,U,y,L,u,,,,,5,19,119,8,3,0,3,0,,,,,0,22,22,30,,,,,,down,0.6838905114454974,1723.414404974832,None,001,43,2019_Oct_18_1457,ACPT_experiment_5_30_19,3.1.0,59.96540744392451,
,,,C,U,y,n,R,G,g,L,c ,,,,,5,19,119,8,3,0,3,0,,,,,0,23,23,6,,,,,,up,0.600505633665307,1725.382672613523,None,001,43,2019_Oct_18_1457,ACPT_experiment_5_30_19,3.1.0,59.96540744392451,
,,,C,U,y,n,R,D,g,L,i,,,,,5,19,119,8,3,0,3,0,,,,,0,24,24,2,,,,,,up,0.6672027892855112,1727.2675442052132,None,001,43,2019_Oct_18_1457,ACPT_experiment_5_30_19,3.1.0,59.96540744392451,
,,,C,U,y,n,L,U,d,L,u,,,,,5,19,119,8,3,0,3,0,,,,,0,25,25,20,,,,,,up,0.5504445802871487,1729.2191280460647,None,001,43,2019_Oct_18_1457,ACPT_experiment_5_30_19,3.1.0,59.96540744392451,
,,,C,U,y,n,L,D,g,R,i,,,,,5,19,119,8,3,0,3,0,,,,,0,26,26,15,,,,,,up,0.6502687405190954,1731.0708922547492,None,001,43,2019_Oct_18_1457,ACPT_experiment_5_30_19,3.1.0,59.96540744392451,
,,,C,U,y,n,L,G,d,R,i,,,,,5,19,119,8,3,0,3,0,,,,,0,27,27,17,,,,,,up,0.6338370048360957,1733.005545367414,None,001,43,2019_Oct_18_1457,ACPT_experiment_5_30_19,3.1.0,59.96540744392451,
,,,C,U,y,n,R,D,y,L,y,,,,,5,19,119,8,3,0,3,0,,,,,0,28,28,26,,,,,,down,0.6505340849907952,1734.9237567826603,None,001,43,2019_Oct_18_1457,ACPT_experiment_5_30_19,3.1.0,59.96540744392451,
,,,C,U,y,n,L,G,d,L,i,,,,,5,19,119,8,3,0,3,0,,,,,0,29,29,16,,,,,,up,0.6004793708998477,1736.8586710136078,None,001,43,2019_Oct_18_1457,ACPT_experiment_5_30_19,3.1.0,59.96540744392451,
,,,C,U,y,n,L,D,g,L,i,,,,,5,19,119,8,3,0,3,0,,,,,0,30,30,14,,,,,,up,0.6505316700277035,1738.743530832333,None,001,43,2019_Oct_18_1457,ACPT_experiment_5_30_19,3.1.0,59.96540744392451,
,,,C,U,y,n,R,G,d,L,i,,,,,5,19,119,8,3,0,3,0,,,,,0,31,31,4,,,,,,down,0.7172481453817454,1740.6784347996727,None,001,43,2019_Oct_18_1457,ACPT_experiment_5_30_19,3.1.0,59.96540744392451,
,,,C,U,y,n,L,D,d,L,c ,,,,,5,19,119,8,3,0,3,0,,,,,0,32,32,12,,,,,,up,0.583784101974743,1742.6800796939024,None,001,43,2019_Oct_18_1457,ACPT_experiment_5_30_19,3.1.0,59.96540744392451,
,,,C,U,y,n,L,U,y,L,u,,,,,5,19,119,8,3,0,3,0,,,,,0,33,33,24,,,,,,down,0.6004953700539772,1744.54822613145,None,001,43,2019_Oct_18_1457,ACPT_experiment_5_30_19,3.1.0,59.96540744392451,
,,,C,U,y,n,R,G,y,R,y,,,,,5,19,119,8,3,0,3,0,,,,,0,34,34,29,,,,,,down,0.7839751862156845,1746.433105269909,None,001,43,2019_Oct_18_1457,ACPT_experiment_5_30_19,3.1.0,59.96540744392451,
,,,C,U,y,n,L,U,g,L,u,,,,,5,19,119,8,3,0,3,0,,,,,0,35,35,22,,,,,,up,0.5504472971224459,1748.5014566777609,None,001,43,2019_Oct_18_1457,ACPT_experiment_5_30_19,3.1.0,59.96540744392451,
,,,C,U,y,n,R,G,d,R,i,,,,,5,19,119,8,3,0,3,0,,,,,1,0,36,5,,,,,,up,0.6001934992127644,1750.3532580165593,None,001,43,2019_Oct_18_1457,ACPT_experiment_5_30_19,3.1.0,59.96540744392451,
,,,C,U,y,n,R,U,g,L,u,,,,,5,19,119,8,3,0,3,0,,,,,1,1,37,10,,,,,,up,0.6171891296326066,1752.2377996634132,None,001,43,2019_Oct_18_1457,ACPT_experiment_5_30_19,3.1.0,59.96540744392451,
,,,C,U,y,n,R,U,d,L,u,,,,,5,19,119,8,3,0,3,0,,,,,1,2,38,8,,,,,,up,0.5171095866644464,1754.1226679345236,None,001,43,2019_Oct_18_1457,ACPT_experiment_5_30_19,3.1.0,59.96540744392451,
,,,C,U,y,n,R,G,y,R,y,,,,,5,19,119,8,3,0,3,0,,,,,1,3,39,29,,,,,,down,0.717247239768767,1755.9241555540466,None,001,43,2019_Oct_18_1457,ACPT_experiment_5_30_19,3.1.0,59.96540744392451,
,,,C,U,y,n,L,U,d,R,u,,,,,5,19,119,8,3,0,3,0,,,,,1,4,40,21,,,,,,up,0.7005592157402134,1757.9257856566073,None,001,43,2019_Oct_18_1457,ACPT_experiment_5_30_19,3.1.0,59.96540744392451,
,,,C,U,y,n,R,D,g,L,i,,,,,5,19,119,8,3,0,3,0,,,,,1,5,41,2,,,,,,up,0.5504454858964891,1759.9107247164284,None,001,43,2019_Oct_18_1457,ACPT_experiment_5_30_19,3.1.0,59.96540744392451,
,,,C,U,y,n,R,G,d,L,i,,,,,5,19,119,8,3,0,3,0,,,,,1,6,42,4,,,,,,up,0.5004372599178168,1761.7455376697071,None,001,43,2019_Oct_18_1457,ACPT_experiment_5_30_19,3.1.0,59.96540744392451,
,,,C,U,y,n,L,D,d,L,c ,,,,,5,19,119,8,3,0,3,0,,,,,1,7,43,12,,,,,,up,0.5000333567259077,1763.5305917423248,None,001,43,2019_Oct_18_1457,ACPT_experiment_5_30_19,3.1.0,59.96540744392451,
,,,C,U,y,n,L,U,y,R,u,,,,,5,19,119,8,3,0,3,0,,,,,1,8,44,25,,,,,,down,0.7005688756071322,1765.3151121072842,None,001,43,2019_Oct_18_1457,ACPT_experiment_5_30_19,3.1.0,59.96540744392451,
,,,C,U,y,n,R,D,y,R,y,,,,,5,19,119,8,3,0,3,0,,,,,1,9,45,27,,,,,,down,1.0842322292410245,1767.3000659587779,None,001,43,2019_Oct_18_1457,ACPT_experiment_5_30_19,3.1.0,59.96540744392451,
,,,C,U,y,n,L,G,y,R,y,,,,,5,19,119,8,3,0,3,0,,,,,1,10,46,35,,,,,,down,0.7172692763379018,1769.6686324496077,None,001,43,2019_Oct_18_1457,ACPT_experiment_5_30_19,3.1.0,59.96540744392451,
,,,C,U,y,n,L,U,d,L,u,,,,,5,19,119,8,3,0,3,0,,,,,1,11,47,20,,,,,,up,0.9173927415140497,1771.670300889764,None,001,43,2019_Oct_18_1457,ACPT_experiment_5_30_19,3.1.0,59.96540744392451,
,,,C,U,y,n,R,U,d,R,u,,,,,5,19,119,8,3,0,3,0,,,,,1,12,48,9,,,,,,down,0.8006716626259731,1773.8720469107284,None,001,43,2019_Oct_18_1457,ACPT_experiment_5_30_19,3.1.0,59.96540744392451,
,,,C,U,y,n,L,D,y,L,y,,,,,5,19,119,8,3,0,3,0,,,,,1,13,49,32,,,,,,down,0.7503431516815908,1775.9740394092405,None,001,43,2019_Oct_18_1457,ACPT_experiment_5_30_19,3.1.0,59.96540744392451,
,,,C,U,y,n,R,D,d,R,c ,,,,,5,19,119,8,3,0,3,0,,,,,1,14,50,1,,,,,,up,0.6838880964787677,1778.0087605937806,None,001,43,2019_Oct_18_1457,ACPT_experiment_5_30_19,3.1.0,59.96540744392451,
,,,C,U,y,n,L,D,y,R,y,,,,,5,19,119,8,3,0,3,0,,,,,1,15,51,33,,,,,,down,0.7506121186052042,1779.9770264212457,None,001,43,2019_Oct_18_1457,ACPT_experiment_5_30_19,3.1.0,59.96540744392451,
,,,C,U,y,n,R,D,y,L,y,,,,,5,19,119,8,3,0,3,0,,,,,1,16,52,26,,,,,,down,0.7839936003401817,1782.0120096296814,None,001,43,2019_Oct_18_1457,ACPT_experiment_5_30_19,3.1.0,59.96540744392451,
,,,C,U,y,n,R,U,g,R,u,,,,,5,19,119,8,3,0,3,0,,,,,1,17,53,11,,,,,,up,0.7005546876753215,1784.0803719048818,None,001,43,2019_Oct_18_1457,ACPT_experiment_5_30_19,3.1.0,59.96540744392451,
,,,C,U,y,n,L,G,y,L,y,,,,,5,19,119,8,3,0,3,0,,,,,1,18,54,34,,,,,,down,0.6171640743486932,1786.0653061347693,None,001,43,2019_Oct_18_1457,ACPT_experiment_5_30_19,3.1.0,59.96540744392451,
,,,C,U,y,n,L,G,g,R,c ,,,,,5,19,119,8,3,0,3,0,,,,,1,19,55,19,,,,,,up,0.6505627627229842,1787.9668521663007,None,001,43,2019_Oct_18_1457,ACPT_experiment_5_30_19,3.1.0,59.96540744392451,
,,,C,U,y,n,R,D,d,L,c,,,,,5,19,119,8,3,0,3,0,,,,,1,20,56,0,,,,,,down,0.7839712618952035,1789.901757341122,None,001,43,2019_Oct_18_1457,ACPT_experiment_5_30_19,3.1.0,59.96540744392451,
,,,C,U,y,n,R,G,g,R,c ,,,,,5,19,119,8,3,0,3,0,,,,,1,21,57,7,,,,,,up,0.6338360992267553,1791.9701241443836,None,001,43,2019_Oct_18_1457,ACPT_experiment_5_30_19,3.1.0,59.96540744392451,
,,,C,U,y,n,L,G,g,L,c ,,,,,5,19,119,8,3,0,3,0,,,,,1,22,58,18,,,,,,up,0.6172002988532768,1793.888324088537,None,001,43,2019_Oct_18_1457,ACPT_experiment_5_30_19,3.1.0,59.96540744392451,
,,,C,U,y,n,L,U,g,L,u,,,,,5,19,119,8,3,0,3,0,,,,,1,23,59,22,,,,,,up,0.4503695653802424,1795.7898667994887,None,001,43,2019_Oct_18_1457,ACPT_experiment_5_30_19,3.1.0,59.96540744392451,
,,,C,U,y,n,R,U,y,R,u,,,,,5,19,119,8,3,0,3,0,,,,,1,24,60,31,,,,,,down,0.8673821005686477,1797.5412997049207,None,001,43,2019_Oct_18_1457,ACPT_experiment_5_30_19,3.1.0,59.96540744392451,
,,,C,U,y,n,L,D,g,R,i,,,,,5,19,119,8,3,0,3,0,,,,,1,25,61,15,,,,,,up,0.7506223822165339,1799.7097291463833,None,001,43,2019_Oct_18_1457,ACPT_experiment_5_30_19,3.1.0,59.96540744392451,
,,,C,U,y,n,L,D,d,R,c ,,,,,5,19,119,8,3,0,3,0,,,,,1,26,62,13,,,,,,down,0.7339711864296987,1801.7280041054437,None,001,43,2019_Oct_18_1457,ACPT_experiment_5_30_19,3.1.0,59.96540744392451,
,,,C,U,y,n,R,D,g,R,i,,,,,5,19,119,8,3,0,3,0,,,,,1,27,63,3,,,,,,up,0.6505452542151033,1803.7463315900277,None,001,43,2019_Oct_18_1457,ACPT_experiment_5_30_19,3.1.0,59.96540744392451,
,,,C,U,y,n,L,D,g,L,i,,,,,5,19,119,8,3,0,3,0,,,,,1,28,64,14,,,,,,up,0.6838983600864594,1805.681239481688,None,001,43,2019_Oct_18_1457,ACPT_experiment_5_30_19,3.1.0,59.96540744392451,
,,,C,U,y,n,L,G,d,L,i,,,,,5,19,119,8,3,0,3,0,,,,,1,29,65,16,,,,,,up,0.6838947376345459,1807.6494980642528,None,001,43,2019_Oct_18_1457,ACPT_experiment_5_30_19,3.1.0,59.96540744392451,
,,,C,U,y,n,L,U,y,L,u,,,,,5,19,119,8,3,0,3,0,,,,,1,30,66,24,,,,,,down,0.8006635121164436,1809.6177545337232,None,001,43,2019_Oct_18_1457,ACPT_experiment_5_30_19,3.1.0,59.96540744392451,
,,,C,U,y,n,L,U,g,R,u,,,,,5,19,119,8,3,0,3,0,,,,,1,31,67,23,,,,,,up,0.767286558446358,1811.7028024179854,None,001,43,2019_Oct_18_1457,ACPT_experiment_5_30_19,3.1.0,59.96540744392451,
,,,C,U,y,n,R,U,y,L,u,,,,,5,19,119,8,3,0,3,0,,,,,1,32,68,30,,,,,,down,0.6837733855572878,1813.754465801805,None,001,43,2019_Oct_18_1457,ACPT_experiment_5_30_19,3.1.0,59.96540744392451,
,,,C,U,y,n,L,G,d,R,i,,,,,5,19,119,8,3,0,3,0,,,,,1,33,69,17,,,,,,up,0.7506474374931713,1815.722733440496,None,001,43,2019_Oct_18_1457,ACPT_experiment_5_30_19,3.1.0,59.96540744392451,
,,,C,U,y,n,R,G,g,L,c ,,,,,5,19,119,8,3,0,3,0,,,,,1,34,70,6,,,,,,up,0.5504503158335865,1817.757716950804,None,001,43,2019_Oct_18_1457,ACPT_experiment_5_30_19,3.1.0,59.96540744392451,
,,,C,U,y,n,R,G,y,L,y,,,,,5,19,119,8,3,0,3,0,,,,,1,35,71,28,,,,,,down,0.7005881953409698,1819.575841578182,None,001,43,2019_Oct_18_1457,ACPT_experiment_5_30_19,3.1.0,59.96540744392451,
,,,C,U,y,n,,,,,,,,,,5,19,119,8,4,0,4,0,0,0,0,0,,,,,,,,,,,,,,001,43,2019_Oct_18_1457,ACPT_experiment_5_30_19,3.1.0,59.96540744392451,
,,,C,U,y,n,R,U,g,R,u,,,,,5,19,119,8,4,0,4,0,,,,,0,0,0,11,,,,,,up,0.7172913129143126,1824.279663715879,None,001,43,2019_Oct_18_1457,ACPT_experiment_5_30_19,3.1.0,59.96540744392451,
,,,C,U,y,n,R,G,y,R,y,,,,,5,19,119,8,4,0,4,0,,,,,0,1,1,29,,,,,,down,0.6171695080265636,1826.2813052895326,None,001,43,2019_Oct_18_1457,ACPT_experiment_5_30_19,3.1.0,59.96540744392451,
,,,C,U,y,n,R,D,d,L,c,,,,,5,19,119,8,4,0,4,0,,,,,0,2,2,0,,,,,,up,0.6338720218554954,1828.1828676220866,None,001,43,2019_Oct_18_1457,ACPT_experiment_5_30_19,3.1.0,59.96540744392451,
,,,C,U,y,n,L,U,g,L,u,,,,,5,19,119,8,4,0,4,0,,,,,0,3,3,22,,,,,,up,0.517055853651982,1830.1011019795187,None,001,43,2019_Oct_18_1457,ACPT_experiment_5_30_19,3.1.0,59.96540744392451,
,,,C,U,y,n,R,D,g,R,i,,,,,5,19,119,8,4,0,4,0,,,,,0,4,4,3,,,,,,up,0.8507016233088507,1831.9025289230012,None,001,43,2019_Oct_18_1457,ACPT_experiment_5_30_19,3.1.0,59.96540744392451,
,,,C,U,y,n,R,U,g,L,u,,,,,5,19,119,8,4,0,4,0,,,,,0,5,5,10,,,,,,up,0.6672000724502141,1834.0209422898406,None,001,43,2019_Oct_18_1457,ACPT_experiment_5_30_19,3.1.0,59.96540744392451,
,,,C,U,y,n,L,D,d,L,c ,,,,,5,19,119,8,4,0,4,0,,,,,0,6,6,12,,,,,,up,0.7672931996057741,1835.9725116408954,None,001,43,2019_Oct_18_1457,ACPT_experiment_5_30_19,3.1.0,59.96540744392451,
,,,C,U,y,n,L,G,g,R,c ,,,,,5,19,119,8,4,0,4,0,,,,,0,7,7,19,,,,,,up,0.5170803051914845,1838.0241877032895,None,001,43,2019_Oct_18_1457,ACPT_experiment_5_30_19,3.1.0,59.96540744392451,
,,,C,U,y,n,R,G,d,L,i,,,,,5,19,119,8,4,0,4,0,,,,,0,8,8,4,,,,,,up,0.4334901552356314,1839.8258084478548,None,001,43,2019_Oct_18_1457,ACPT_experiment_5_30_19,3.1.0,59.96540744392451,
,,,C,U,y,n,L,G,y,R,y,,,,,5,19,119,8,4,0,4,0,,,,,0,9,9,35,,,,,,down,0.7672919921205903,1841.5436995781347,None,001,43,2019_Oct_18_1457,ACPT_experiment_5_30_19,3.1.0,59.96540744392451,
,,,C,U,y,n,L,U,d,L,u,,,,,5,19,119,8,4,0,4,0,,,,,0,10,10,20,,,,,,up,0.5835872821808152,1843.6122936901447,None,001,43,2019_Oct_18_1457,ACPT_experiment_5_30_19,3.1.0,59.96540744392451,
,,,C,U,y,n,R,D,y,L,y,,,,,5,19,119,8,4,0,4,0,,,,,0,11,11,26,,,,,,down,0.8006345325120492,1845.4969255963842,None,001,43,2019_Oct_18_1457,ACPT_experiment_5_30_19,3.1.0,59.96540744392451,
,,,C,U,y,n,L,U,g,R,u,,,,,5,19,119,8,4,0,4,0,,,,,0,12,12,23,,,,,,up,0.6338360992231173,1847.5986328269464,None,001,43,2019_Oct_18_1457,ACPT_experiment_5_30_19,3.1.0,59.96540744392451,
,,,C,U,y,n,L,D,d,R,c ,,,,,5,19,119,8,4,0,4,0,,,,,0,13,13,13,,,,,,down,0.7506060811901989,1849.516856618895,None,001,43,2019_Oct_18_1457,ACPT_experiment_5_30_19,3.1.0,59.96540744392451,
,,,C,U,y,n,R,D,g,L,i,,,,,5,19,119,8,4,0,4,0,,,,,0,14,14,2,,,,,,up,0.683873908546957,1851.5518449591327,None,001,43,2019_Oct_18_1457,ACPT_experiment_5_30_19,3.1.0,59.96540744392451,
,,,C,U,y,n,R,U,d,R,u,,,,,5,19,119,8,4,0,4,0,,,,,0,15,15,9,,,,,,up,0.7839622057726956,1853.5201098809885,None,001,43,2019_Oct_18_1457,ACPT_experiment_5_30_19,3.1.0,59.96540744392451,
,,,C,U,y,n,R,D,y,R,y,,,,,5,19,119,8,4,0,4,0,,,,,0,16,16,27,,,,,,down,0.7172469378965616,1855.5884576663884,None,001,43,2019_Oct_18_1457,ACPT_experiment_5_30_19,3.1.0,59.96540744392451,
,,,C,U,y,n,R,G,y,L,y,,,,,5,19,119,8,4,0,4,0,,,,,0,17,17,28,,,,,,down,0.7336554295252427,1857.5903482834874,None,001,43,2019_Oct_18_1457,ACPT_experiment_5_30_19,3.1.0,59.96540744392451,
,,,C,U,y,n,L,G,d,R,i,,,,,5,19,119,8,4,0,4,0,,,,,0,18,18,17,,,,,,down,0.8840538235708664,1859.6083877832862,None,001,43,2019_Oct_18_1457,ACPT_experiment_5_30_19,3.1.0,59.96540744392451,
,,,C,U,y,n,R,D,d,R,c ,,,,,5,19,119,8,4,0,4,0,,,,,0,19,19,1,,,,,,up,0.7339479423717421,1861.7768163191395,None,001,43,2019_Oct_18_1457,ACPT_experiment_5_30_19,3.1.0,59.96540744392451,
,,,C,U,y,n,R,G,d,R,i,,,,,5,19,119,8,4,0,4,0,,,,,0,20,20,5,,,,,,up,0.5004224682488712,1863.7950988249686,None,001,43,2019_Oct_18_1457,ACPT_experiment_5_30_19,3.1.0,59.96540744392451,
,,,C,U,y,n,R,U,d,L,u,,,,,5,19,119,8,4,0,4,0,,,,,0,21,21,8,,,,,,up,0.7339533760496124,1865.5799041560058,None,001,43,2019_Oct_18_1457,ACPT_experiment_5_30_19,3.1.0,59.96540744392451,
,,,C,U,y,n,L,U,y,R,u,,,,,5,19,119,8,4,0,4,0,,,,,0,22,22,25,,,,,,down,0.6838950395067513,1867.5982105096336,None,001,43,2019_Oct_18_1457,ACPT_experiment_5_30_19,3.1.0,59.96540744392451,
,,,C,U,y,n,R,G,g,R,c ,,,,,5,19,119,8,4,0,4,0,,,,,0,23,23,7,,,,,,up,0.8340129955395241,1869.566475733358,None,001,43,2019_Oct_18_1457,ACPT_experiment_5_30_19,3.1.0,59.96540744392451,
,,,C,U,y,n,L,D,g,L,i,,,,,5,19,119,8,4,0,4,0,,,,,0,24,24,14,,,,,,up,0.7339379806326178,1871.6848528756964,None,001,43,2019_Oct_18_1457,ACPT_experiment_5_30_19,3.1.0,59.96540744392451,
,,,C,U,y,n,L,G,g,L,c ,,,,,5,19,119,8,4,0,4,0,,,,,0,25,25,18,,,,,,up,0.9507636577691301,1873.7031737191246,None,001,43,2019_Oct_18_1457,ACPT_experiment_5_30_19,3.1.0,59.96540744392451,
,,,C,U,y,n,L,U,d,R,u,,,,,5,19,119,8,4,0,4,0,,,,,0,26,26,21,,,,,,down,1.0508519549912307,1875.9383202396857,None,001,43,2019_Oct_18_1457,ACPT_experiment_5_30_19,3.1.0,59.96540744392451,
,,,C,U,y,n,R,U,y,R,u,,,,,5,19,119,8,4,0,4,0,,,,,0,27,27,31,,,,,,up,0.6838787384840543,1878.2902325160176,None,001,43,2019_Oct_18_1457,ACPT_experiment_5_30_19,3.1.0,59.96540744392451,
,,,C,U,y,n,L,G,d,L,i,,,,,5,19,119,8,4,0,4,0,,,,,0,28,28,16,,,,,,up,0.7172629370543291,1880.2751540673307,None,001,43,2019_Oct_18_1457,ACPT_experiment_5_30_19,3.1.0,59.96540744392451,
,,,C,U,y,n,L,D,g,R,i,,,,,5,19,119,8,4,0,4,0,,,,,0,29,29,15,,,,,,up,0.83372652010803,1882.2937650086424,None,001,43,2019_Oct_18_1457,ACPT_experiment_5_30_19,3.1.0,59.96540744392451,
,,,C,U,y,n,L,U,y,L,u,,,,,5,19,119,8,4,0,4,0,,,,,0,30,30,24,,,,,,down,0.6672015818039654,1884.4118737878016,None,001,43,2019_Oct_18_1457,ACPT_experiment_5_30_19,3.1.0,59.96540744392451,
,,,C,U,y,n,L,D,y,L,y,,,,,5,19,119,8,4,0,4,0,,,,,0,31,31,32,,,,,,down,0.5337628955421678,1886.3634564211716,None,001,43,2019_Oct_18_1457,ACPT_experiment_5_30_19,3.1.0,59.96540744392451,
,,,C,U,y,n,R,U,y,L,u,,,,,5,19,119,8,4,0,4,0,,,,,0,32,32,30,,,,,,down,0.5170827201582142,1888.1815985570574,None,001,43,2019_Oct_18_1457,ACPT_experiment_5_30_19,3.1.0,59.96540744392451,
,,,C,U,y,n,L,G,y,L,y,,,,,5,19,119,8,4,0,4,0,,,,,0,33,33,34,,,,,,down,0.5004028466428281,1889.9830638381354,None,001,43,2019_Oct_18_1457,ACPT_experiment_5_30_19,3.1.0,59.96540744392451,
,,,C,U,y,n,R,G,g,L,c ,,,,,5,19,119,8,4,0,4,0,,,,,0,34,34,6,,,,,,up,0.7005673662533809,1891.7678465288627,None,001,43,2019_Oct_18_1457,ACPT_experiment_5_30_19,3.1.0,59.96540744392451,
,,,C,U,y,n,L,D,y,R,y,,,,,5,19,119,8,4,0,4,0,,,,,0,35,35,33,,,,,,down,0.8507173205944127,1893.7527644577276,None,001,43,2019_Oct_18_1457,ACPT_experiment_5_30_19,3.1.0,59.96540744392451,
,,,C,U,y,n,L,U,g,L,u,,,,,5,19,119,8,4,0,4,0,,,,,1,0,36,22,,,,,,up,0.6505268400906061,1895.8878791309144,None,001,43,2019_Oct_18_1457,ACPT_experiment_5_30_19,3.1.0,59.96540744392451,
,,,C,U,y,n,R,G,y,R,y,,,,,5,19,119,8,4,0,4,0,,,,,1,1,37,29,,,,,,down,0.9506456262679421,1897.8227737402558,None,001,43,2019_Oct_18_1457,ACPT_experiment_5_30_19,3.1.0,59.96540744392451,
,,,C,U,y,n,R,D,y,L,y,,,,,5,19,119,8,4,0,4,0,,,,,1,2,38,26,,,,,,down,0.7003796025855991,1900.0747483529158,None,001,43,2019_Oct_18_1457,ACPT_experiment_5_30_19,3.1.0,59.96540744392451,
,,,C,U,y,n,L,U,y,R,u,,,,,5,19,119,8,4,0,4,0,,,,,1,3,39,25,,,,,,down,0.6171550182261853,1902.0595419109923,None,001,43,2019_Oct_18_1457,ACPT_experiment_5_30_19,3.1.0,59.96540744392451,
,,,C,U,y,n,R,D,g,R,i,,,,,5,19,119,8,4,0,4,0,,,,,1,4,40,3,,,,,,up,0.7172415042223292,1903.9777654010722,None,001,43,2019_Oct_18_1457,ACPT_experiment_5_30_19,3.1.0,59.96540744392451,
,,,C,U,y,n,L,D,y,R,y,,,,,5,19,119,8,4,0,4,0,,,,,1,5,41,33,,,,,,down,0.717263540795102,1905.996054849933,None,001,43,2019_Oct_18_1457,ACPT_experiment_5_30_19,3.1.0,59.96540744392451,
,,,C,U,y,n,L,G,y,L,y,,,,,5,19,119,8,4,0,4,0,,,,,1,6,42,34,,,,,,down,0.600464579230902,1908.0310736791253,None,001,43,2019_Oct_18_1457,ACPT_experiment_5_30_19,3.1.0,59.96540744392451,
,,,C,U,y,n,L,U,d,R,u,,,,,5,19,119,8,4,0,4,0,,,,,1,7,43,21,,,,,,down,0.8506940765364561,1909.9159168949554,None,001,43,2019_Oct_18_1457,ACPT_experiment_5_30_19,3.1.0,59.96540744392451,
,,,C,U,y,n,L,U,d,L,u,,,,,5,19,119,8,4,0,4,0,,,,,1,8,44,20,,,,,,up,0.8507067551145155,1912.0342879998789,None,001,43,2019_Oct_18_1457,ACPT_experiment_5_30_19,3.1.0,59.96540744392451,
,,,C,U,y,n,L,G,g,L,c ,,,,,5,19,119,8,4,0,4,0,,,,,1,9,45,18,,,,,,up,0.6839040956292592,1914.1693724859833,None,001,43,2019_Oct_18_1457,ACPT_experiment_5_30_19,3.1.0,59.96540744392451,
,,,C,U,y,n,L,U,y,L,u,,,,,5,19,119,8,4,0,4,0,,,,,1,10,46,24,,,,,,down,0.7006192880362505,1916.137620804937,None,001,43,2019_Oct_18_1457,ACPT_experiment_5_30_19,3.1.0,59.96540744392451,
,,,C,U,y,n,L,D,d,L,c ,,,,,5,19,119,8,4,0,4,0,,,,,1,11,47,12,,,,,,down,1.5012185016639705,1918.122589448103,None,001,43,2019_Oct_18_1457,ACPT_experiment_5_30_19,3.1.0,59.96540744392451,
,,,C,U,y,n,L,G,y,R,y,,,,,5,19,119,8,4,0,4,0,,,,,1,12,48,35,,,,,,down,1.334426105790044,1920.90816877599,None,001,43,2019_Oct_18_1457,ACPT_experiment_5_30_19,3.1.0,59.96540744392451,
,,,C,U,y,n,R,G,d,R,i,,,,,5,19,119,8,4,0,4,0,,,,,1,13,49,5,,,,,,down,1.0007999577355804,1923.5269934418575,None,001,43,2019_Oct_18_1457,ACPT_experiment_5_30_19,3.1.0,59.96540744392451,
,,,C,U,y,n,R,U,y,L,u,,,,,5,19,119,8,4,0,4,0,,,,,1,14,50,30,,,,,,down,0.7006041944950994,1925.8121629800698,None,001,43,2019_Oct_18_1457,ACPT_experiment_5_30_19,3.1.0,59.96540744392451,
,,,C,U,y,n,R,G,g,R,c ,,,,,5,19,119,8,4,0,4,0,,,,,1,15,51,7,,,,,,up,0.6338454572214687,1927.7971113978892,None,001,43,2019_Oct_18_1457,ACPT_experiment_5_30_19,3.1.0,59.96540744392451,
,,,C,U,y,n,R,U,d,L,u,,,,,5,19,119,8,4,0,4,0,,,,,1,16,52,8,,,,,,up,0.700298701201973,1929.7322882564695,None,001,43,2019_Oct_18_1457,ACPT_experiment_5_30_19,3.1.0,59.96540744392451,
,,,C,U,y,n,R,U,y,R,u,,,,,5,19,119,8,4,0,4,0,,,,,1,17,53,31,,,,,,down,0.6171637724801258,1931.7169610662095,None,001,43,2019_Oct_18_1457,ACPT_experiment_5_30_19,3.1.0,59.96540744392451,
,,,C,U,y,n,R,U,d,R,u,,,,,5,19,119,8,4,0,4,0,,,,,1,18,54,9,,,,,,up,0.6838727010654111,1933.6185152482503,None,001,43,2019_Oct_18_1457,ACPT_experiment_5_30_19,3.1.0,59.96540744392451,
,,,C,U,y,n,L,U,g,R,u,,,,,5,19,119,8,4,0,4,0,,,,,1,19,55,23,,,,,,up,0.5837970824213699,1935.5867798682339,None,001,43,2019_Oct_18_1457,ACPT_experiment_5_30_19,3.1.0,59.96540744392451,
,,,C,U,y,n,L,G,d,L,i,,,,,5,19,119,8,4,0,4,0,,,,,1,20,56,16,,,,,,up,0.5671268687692645,1937.4549543797693,None,001,43,2019_Oct_18_1457,ACPT_experiment_5_30_19,3.1.0,59.96540744392451,
,,,C,U,y,n,R,G,d,L,i,,,,,5,19,119,8,4,0,4,0,,,,,1,21,57,4,,,,,,up,0.6338696068887657,1939.3064644131991,None,001,43,2019_Oct_18_1457,ACPT_experiment_5_30_19,3.1.0,59.96540744392451,
,,,C,U,y,n,L,D,y,L,y,,,,,5,19,119,8,4,0,4,0,,,,,1,22,58,32,,,,,,down,0.7506112129922258,1941.2246909219903,None,001,43,2019_Oct_18_1457,ACPT_experiment_5_30_19,3.1.0,59.96540744392451,
,,,C,U,y,n,R,D,g,L,i,,,,,5,19,119,8,4,0,4,0,,,,,1,23,59,2,,,,,,up,0.6171595462874393,1943.2596771491335,None,001,43,2019_Oct_18_1457,ACPT_experiment_5_30_19,3.1.0,59.96540744392451,
,,,C,U,y,n,L,D,d,R,c ,,,,,5,19,119,8,4,0,4,0,,,,,1,24,60,13,,,,,,up,0.8841809111945622,1945.1612340480133,None,001,43,2019_Oct_18_1457,ACPT_experiment_5_30_19,3.1.0,59.96540744392451,
,,,C,U,y,n,R,U,g,L,u,,,,,5,19,119,8,4,0,4,0,,,,,1,25,61,10,,,,,,up,0.6171791678934824,1947.3296502071607,None,001,43,2019_Oct_18_1457,ACPT_experiment_5_30_19,3.1.0,59.96540744392451,
,,,C,U,y,n,R,U,g,R,u,,,,,5,19,119,8,4,0,4,0,,,,,1,26,62,11,,,,,,up,0.6672079210911761,1949.2311938237217,None,001,43,2019_Oct_18_1457,ACPT_experiment_5_30_19,3.1.0,59.96540744392451,
,,,C,U,y,n,R,D,y,R,y,,,,,5,19,119,8,4,0,4,0,,,,,1,27,63,27,,,,,,down,0.6004878232852207,1951.1827776645769,None,001,43,2019_Oct_18_1457,ACPT_experiment_5_30_19,3.1.0,59.96540744392451,
,,,C,U,y,n,L,G,d,R,i,,,,,5,19,119,8,4,0,4,0,,,,,1,28,64,17,,,,,,up,0.5838224395702127,1953.0676214841478,None,001,43,2019_Oct_18_1457,ACPT_experiment_5_30_19,3.1.0,59.96540744392451,
,,,C,U,y,n,L,G,g,R,c ,,,,,5,19,119,8,4,0,4,0,,,,,1,29,65,19,,,,,,up,0.6505205008033954,1954.9358237678025,None,001,43,2019_Oct_18_1457,ACPT_experiment_5_30_19,3.1.0,59.96540744392451,
,,,C,U,y,n,R,G,y,L,y,,,,,5,19,119,8,4,0,4,0,,,,,1,30,66,28,,,,,,down,0.783946810355701,1956.8707497717114,None,001,43,2019_Oct_18_1457,ACPT_experiment_5_30_19,3.1.0,59.96540744392451,
,,,C,U,y,n,L,D,g,L,i,,,,,5,19,119,8,4,0,4,0,,,,,1,31,67,14,,,,,,up,0.6337316519129672,1958.9390800485999,None,001,43,2019_Oct_18_1457,ACPT_experiment_5_30_19,3.1.0,59.96540744392451,
,,,C,U,y,n,R,G,g,L,c ,,,,,5,19,119,8,4,0,4,0,,,,,1,32,68,6,,,,,,up,1.2176823865920596,1960.8572984068778,None,001,43,2019_Oct_18_1457,ACPT_experiment_5_30_19,3.1.0,59.96540744392451,
,,,C,U,y,n,R,D,d,L,c,,,,,5,19,119,8,4,0,4,0,,,,,1,33,69,0,,,,,,up,0.46705909876254736,1963.3593310542092,None,001,43,2019_Oct_18_1457,ACPT_experiment_5_30_19,3.1.0,59.96540744392451,
,,,C,U,y,n,L,D,g,R,i,,,,,5,19,119,8,4,0,4,0,,,,,1,34,70,15,,,,,,up,0.9841318571852753,1965.1107597334485,None,001,43,2019_Oct_18_1457,ACPT_experiment_5_30_19,3.1.0,59.96540744392451,
,,,C,U,y,n,R,D,d,R,c ,,,,,5,19,119,8,4,0,4,0,,,,,1,35,71,1,,,,,,up,0.6004872195444477,1967.3792699253609,None,001,43,2019_Oct_18_1457,ACPT_experiment_5_30_19,3.1.0,59.96540744392451,
,,,C,U,y,n,,,,,,,,,,5,19,119,8,5,0,5,0,0,0,0,0,,,,,,,,,,,,,,001,43,2019_Oct_18_1457,ACPT_experiment_5_30_19,3.1.0,59.96540744392451,
,,,C,U,y,n,L,D,d,L,c ,,,,,5,19,119,8,5,0,5,0,,,,,0,0,0,12,,,,,,down,0.7839688469284738,1971.3992057778087,None,001,43,2019_Oct_18_1457,ACPT_experiment_5_30_19,3.1.0,59.96540744392451,
,,,C,U,y,n,L,D,y,L,y,,,,,5,19,119,8,5,0,5,0,,,,,0,1,1,32,,,,,,down,0.6005222365602094,1973.450849540026,None,001,43,2019_Oct_18_1457,ACPT_experiment_5_30_19,3.1.0,59.96540744392451,
,,,C,U,y,n,R,U,g,L,u,,,,,5,19,119,8,5,0,5,0,,,,,0,2,2,10,,,,,,up,0.6338569283143443,1975.3357461869928,None,001,43,2019_Oct_18_1457,ACPT_experiment_5_30_19,3.1.0,59.96540744392451,
,,,C,U,y,n,L,D,g,R,i,,,,,5,19,119,8,5,0,5,0,,,,,0,3,3,15,,,,,,up,0.8673926660485449,1977.2539379806367,None,001,43,2019_Oct_18_1457,ACPT_experiment_5_30_19,3.1.0,59.96540744392451,
,,,C,U,y,n,L,U,g,L,u,,,,,5,19,119,8,5,0,5,0,,,,,0,4,4,22,,,,,,up,0.5170996249253221,1979.4057080757993,None,001,43,2019_Oct_18_1457,ACPT_experiment_5_30_19,3.1.0,59.96540744392451,
,,,C,U,y,n,R,G,y,R,y,,,,,5,19,119,8,5,0,5,0,,,,,0,5,5,29,,,,,,down,0.6672118454116571,1981.2071691306883,None,001,43,2019_Oct_18_1457,ACPT_experiment_5_30_19,3.1.0,59.96540744392451,
,,,C,U,y,n,L,G,d,R,i,,,,,5,19,119,8,5,0,5,0,,,,,0,6,6,17,,,,,,up,0.6338496834141552,1983.158752367799,None,001,43,2019_Oct_18_1457,ACPT_experiment_5_30_19,3.1.0,59.96540744392451,
,,,C,U,y,n,R,U,d,L,u,,,,,5,19,119,8,5,0,5,0,,,,,0,7,7,8,,,,,,up,0.5836850883351872,1985.0769824990384,None,001,43,2019_Oct_18_1457,ACPT_experiment_5_30_19,3.1.0,59.96540744392451,
,,,C,U,y,n,R,G,y,L,y,,,,,5,19,119,8,5,0,5,0,,,,,0,8,8,28,,,,,,down,0.6502642124578415,1986.9621088697204,None,001,43,2019_Oct_18_1457,ACPT_experiment_5_30_19,3.1.0,59.96540744392451,
,,,C,U,y,n,L,G,g,R,c ,,,,,5,19,119,8,5,0,5,0,,,,,0,9,9,19,,,,,,up,0.7839576777078037,1988.8967776796708,None,001,43,2019_Oct_18_1457,ACPT_experiment_5_30_19,3.1.0,59.96540744392451,
,,,C,U,y,n,R,U,d,R,u,,,,,5,19,119,8,5,0,5,0,,,,,0,10,10,9,,,,,,up,0.6338533058624307,1990.9650949761162,None,001,43,2019_Oct_18_1457,ACPT_experiment_5_30_19,3.1.0,59.96540744392451,
,,,C,U,y,n,R,D,g,L,i,,,,,5,19,119,8,5,0,5,0,,,,,0,11,11,2,,,,,,up,0.7172559940227075,1992.8833184661926,None,001,43,2019_Oct_18_1457,ACPT_experiment_5_30_19,3.1.0,59.96540744392451,
,,,C,U,y,n,R,D,g,R,i,,,,,5,19,119,8,5,0,5,0,,,,,0,12,12,3,,,,,,up,0.6505524991152924,1994.8682517904708,None,001,43,2019_Oct_18_1457,ACPT_experiment_5_30_19,3.1.0,59.96540744392451,
,,,C,U,y,n,R,G,d,R,i,,,,,5,19,119,8,5,0,5,0,,,,,0,13,13,5,,,,,,up,0.5671543390162697,1996.8031433811047,None,001,43,2019_Oct_18_1457,ACPT_experiment_5_30_19,3.1.0,59.96540744392451,
,,,C,U,y,n,L,D,g,L,i,,,,,5,19,119,8,5,0,5,0,,,,,0,14,14,14,,,,,,up,0.5838025160919642,1998.654678771687,None,001,43,2019_Oct_18_1457,ACPT_experiment_5_30_19,3.1.0,59.96540744392451,
,,,C,U,y,n,L,G,y,L,y,,,,,5,19,119,8,5,0,5,0,,,,,0,15,15,34,,,,,,down,0.6505672907842381,2000.5228647543154,None,001,43,2019_Oct_18_1457,ACPT_experiment_5_30_19,3.1.0,59.96540744392451,
,,,C,U,y,n,R,G,g,L,c ,,,,,5,19,119,8,5,0,5,0,,,,,0,16,16,6,,,,,,up,0.6004835970925342,2002.4577678160385,None,001,43,2019_Oct_18_1457,ACPT_experiment_5_30_19,3.1.0,59.96540744392451,
,,,C,U,y,n,L,G,d,L,i,,,,,5,19,119,8,5,0,5,0,,,,,0,17,17,16,,,,,,down,0.6005080486320367,2004.342607711289,None,001,43,2019_Oct_18_1457,ACPT_experiment_5_30_19,3.1.0,59.96540744392451,
,,,C,U,y,n,L,G,g,L,c ,,,,,5,19,119,8,5,0,5,0,,,,,0,18,18,18,,,,,,up,0.5835386809740157,2006.2277636653162,None,001,43,2019_Oct_18_1457,ACPT_experiment_5_30_19,3.1.0,59.96540744392451,
,,,C,U,y,n,R,U,y,R,u,,,,,5,19,119,8,5,0,5,0,,,,,0,19,19,31,,,,,,down,1.0675191499321954,2008.112365686342,None,001,43,2019_Oct_18_1457,ACPT_experiment_5_30_19,3.1.0,59.96540744392451,
,,,C,U,y,n,R,D,y,R,y,,,,,5,19,119,8,5,0,5,0,,,,,0,20,20,27,,,,,,down,0.7673037650856713,2010.4809566287076,None,001,43,2019_Oct_18_1457,ACPT_experiment_5_30_19,3.1.0,59.96540744392451,
,,,C,U,y,n,L,U,d,R,u,,,,,5,19,119,8,5,0,5,0,,,,,0,21,21,21,,,,,,up,0.7672738798719365,2012.5326308798794,None,001,43,2019_Oct_18_1457,ACPT_experiment_5_30_19,3.1.0,59.96540744392451,
,,,C,U,y,n,L,U,g,R,u,,,,,5,19,119,8,5,0,5,0,,,,,0,22,22,23,,,,,,up,0.5671483016012644,2014.5675832974848,None,001,43,2019_Oct_18_1457,ACPT_experiment_5_30_19,3.1.0,59.96540744392451,
,,,C,U,y,n,L,U,y,R,u,,,,,5,19,119,8,5,0,5,0,,,,,0,23,23,25,,,,,,down,0.9340910291502951,2016.4191105375576,None,001,43,2019_Oct_18_1457,ACPT_experiment_5_30_19,3.1.0,59.96540744392451,
,,,C,U,y,n,L,U,d,L,u,,,,,5,19,119,8,5,0,5,0,,,,,0,24,24,20,,,,,,up,0.6171670930561959,2018.637575977118,None,001,43,2019_Oct_18_1457,ACPT_experiment_5_30_19,3.1.0,59.96540744392451,
,,,C,U,y,n,R,U,y,L,u,,,,,5,19,119,8,5,0,5,0,,,,,0,25,25,30,,,,,,down,0.6672030911577167,2020.539125027357,None,001,43,2019_Oct_18_1457,ACPT_experiment_5_30_19,3.1.0,59.96540744392451,
,,,C,U,y,n,R,D,d,L,c,,,,,5,19,119,8,5,0,5,0,,,,,0,26,26,0,,,,,,up,0.6171625649985799,2022.4907082644677,None,001,43,2019_Oct_18_1457,ACPT_experiment_5_30_19,3.1.0,59.96540744392451,
,,,C,U,y,n,R,D,y,L,y,,,,,5,19,119,8,5,0,5,0,,,,,0,27,27,26,,,,,,down,0.7005625363199215,2024.3922564090972,None,001,43,2019_Oct_18_1457,ACPT_experiment_5_30_19,3.1.0,59.96540744392451,
,,,C,U,y,n,L,D,y,R,y,,,,,5,19,119,8,5,0,5,0,,,,,0,28,28,33,,,,,,down,0.6338451553492632,2026.360520123464,None,001,43,2019_Oct_18_1457,ACPT_experiment_5_30_19,3.1.0,59.96540744392451,
,,,C,U,y,n,R,G,d,L,i,,,,,5,19,119,8,5,0,5,0,,,,,0,29,29,4,,,,,,down,0.7839694506692467,2028.2787457266422,None,001,43,2019_Oct_18_1457,ACPT_experiment_5_30_19,3.1.0,59.96540744392451,
,,,C,U,y,n,R,U,g,R,u,,,,,5,19,119,8,5,0,5,0,,,,,0,30,30,11,,,,,,down,0.7005697812201106,2030.3470920026884,None,001,43,2019_Oct_18_1457,ACPT_experiment_5_30_19,3.1.0,59.96540744392451,
,,,C,U,y,n,R,G,g,R,c ,,,,,5,19,119,8,5,0,5,0,,,,,0,31,31,7,,,,,,up,0.6672133547690464,2032.3320292512835,None,001,43,2019_Oct_18_1457,ACPT_experiment_5_30_19,3.1.0,59.96540744392451,
,,,C,U,y,n,L,U,y,L,u,,,,,5,19,119,8,5,0,5,0,,,,,0,32,32,24,,,,,,down,0.8004464669793379,2034.3004686544846,None,001,43,2019_Oct_18_1457,ACPT_experiment_5_30_19,3.1.0,59.96540744392451,
,,,C,U,y,n,R,D,d,R,c ,,,,,5,19,119,8,5,0,5,0,,,,,0,33,33,1,,,,,,up,0.6004675979384047,2036.4186933520505,None,001,43,2019_Oct_18_1457,ACPT_experiment_5_30_19,3.1.0,59.96540744392451,
,,,C,U,y,n,L,G,y,R,y,,,,,5,19,119,8,5,0,5,0,,,,,0,34,34,35,,,,,,down,0.6839333771058591,2038.3035299267212,None,001,43,2019_Oct_18_1457,ACPT_experiment_5_30_19,3.1.0,59.96540744392451,
,,,C,U,y,n,L,D,d,R,c ,,,,,5,19,119,8,5,0,5,0,,,,,0,35,35,13,,,,,,up,0.6171664893190609,2040.2718304693335,None,001,43,2019_Oct_18_1457,ACPT_experiment_5_30_19,3.1.0,59.96540744392451,
,,,C,U,y,n,L,U,d,L,u,,,,,5,19,119,8,5,0,5,0,,,,,1,0,36,20,,,,,,down,0.7839637151228089,2042.1733674447387,None,001,43,2019_Oct_18_1457,ACPT_experiment_5_30_19,3.1.0,59.96540744392451,
,,,C,U,y,n,R,G,g,R,c ,,,,,5,19,119,8,5,0,5,0,,,,,1,1,37,7,,,,,,up,0.6836459960577486,2044.2586456564568,None,001,43,2019_Oct_18_1457,ACPT_experiment_5_30_19,3.1.0,59.96540744392451,
,,,C,U,y,n,L,U,d,R,u,,,,,5,19,119,8,5,0,5,0,,,,,1,2,38,21,,,,,,down,0.9007279615434527,2046.226655799317,None,001,43,2019_Oct_18_1457,ACPT_experiment_5_30_19,3.1.0,59.96540744392451,
,,,C,U,y,n,L,D,y,L,y,,,,,5,19,119,8,5,0,5,0,,,,,1,3,39,32,,,,,,down,1.0005980061432638,2048.4286215822576,None,001,43,2019_Oct_18_1457,ACPT_experiment_5_30_19,3.1.0,59.96540744392451,
,,,C,U,y,n,L,D,g,L,i,,,,,5,19,119,8,5,0,5,0,,,,,1,4,40,14,,,,,,up,0.7972402967388916,2050.750411676363,None,001,43,2019_Oct_18_1457,ACPT_experiment_5_30_19,3.1.0,59.96540744392451,
,,,C,U,y,n,L,D,d,R,c ,,,,,5,19,119,8,5,0,5,0,,,,,1,5,41,13,,,,,,up,0.6171927520808822,2052.8319949889446,None,001,43,2019_Oct_18_1457,ACPT_experiment_5_30_19,3.1.0,59.96540744392451,
,,,C,U,y,n,R,G,y,L,y,,,,,5,19,119,8,5,0,5,0,,,,,1,6,42,28,,,,,,down,0.7005881953409698,2054.733546152278,None,001,43,2019_Oct_18_1457,ACPT_experiment_5_30_19,3.1.0,59.96540744392451,
,,,C,U,y,n,L,D,d,L,c ,,,,,5,19,119,8,5,0,5,0,,,,,1,7,43,12,,,,,,down,0.984130347831524,2056.7185126823497,None,001,43,2019_Oct_18_1457,ACPT_experiment_5_30_19,3.1.0,59.96540744392451,
,,,C,U,y,n,R,G,d,R,i,,,,,5,19,119,8,5,0,5,0,,,,,1,8,44,5,,,,,,up,0.8006315138045466,2058.987037967807,None,001,43,2019_Oct_18_1457,ACPT_experiment_5_30_19,3.1.0,59.96540744392451,
,,,C,U,y,n,L,G,y,R,y,,,,,5,19,119,8,5,0,5,0,,,,,1,9,45,35,,,,,,down,0.9007584504979604,2061.072023062934,None,001,43,2019_Oct_18_1457,ACPT_experiment_5_30_19,3.1.0,59.96540744392451,
,,,C,U,y,n,L,G,d,R,i,,,,,5,19,119,8,5,0,5,0,,,,,1,10,46,17,,,,,,up,0.8504223927811836,2063.2574291169512,None,001,43,2019_Oct_18_1457,ACPT_experiment_5_30_19,3.1.0,59.96540744392451,
,,,C,U,y,n,L,U,g,R,u,,,,,5,19,119,8,5,0,5,0,,,,,1,11,47,23,,,,,,up,0.8340042412855837,2065.3922316556855,None,001,43,2019_Oct_18_1457,ACPT_experiment_5_30_19,3.1.0,59.96540744392451,
,,,C,U,y,n,R,D,g,R,i,,,,,5,19,119,8,5,0,5,0,,,,,1,12,48,3,,,,,,up,0.6672012799317599,2067.5106148354425,None,001,43,2019_Oct_18_1457,ACPT_experiment_5_30_19,3.1.0,59.96540744392451,
,,,C,U,y,n,L,D,g,R,i,,,,,5,19,119,8,5,0,5,0,,,,,1,13,49,15,,,,,,up,0.63387171998329,2069.4621998837792,None,001,43,2019_Oct_18_1457,ACPT_experiment_5_30_19,3.1.0,59.96540744392451,
,,,C,U,y,n,L,D,y,R,y,,,,,5,19,119,8,5,0,5,0,,,,,1,14,50,33,,,,,,down,1.0174867742862261,2071.3971077754395,None,001,43,2019_Oct_18_1457,ACPT_experiment_5_30_19,3.1.0,59.96540744392451,
,,,C,U,y,n,R,D,d,R,c ,,,,,5,19,119,8,5,0,5,0,,,,,1,15,51,1,,,,,,up,0.6005092561172205,2073.715656984161,None,001,43,2019_Oct_18_1457,ACPT_experiment_5_30_19,3.1.0,59.96540744392451,
,,,C,U,y,n,R,D,y,L,y,,,,,5,19,119,8,5,0,5,0,,,,,1,16,52,26,,,,,,down,1.184284603830747,2075.617201506335,None,001,43,2019_Oct_18_1457,ACPT_experiment_5_30_19,3.1.0,59.96540744392451,
,,,C,U,y,n,R,U,g,R,u,,,,,5,19,119,8,5,0,5,0,,,,,1,17,53,11,,,,,,up,0.7672714649052068,2078.1025672605974,None,001,43,2019_Oct_18_1457,ACPT_experiment_5_30_19,3.1.0,59.96540744392451,
,,,C,U,y,n,R,G,g,L,c ,,,,,5,19,119,8,5,0,5,0,,,,,1,18,54,6,,,,,,up,0.6670793241137289,2080.154333582377,None,001,43,2019_Oct_18_1457,ACPT_experiment_5_30_19,3.1.0,59.96540744392451,
,,,C,U,y,n,R,U,g,L,u,,,,,5,19,119,8,5,0,5,0,,,,,1,19,55,10,,,,,,up,0.600488728898199,2082.1058005992127,None,001,43,2019_Oct_18_1457,ACPT_experiment_5_30_19,3.1.0,59.96540744392451,
,,,C,U,y,n,L,G,d,L,i,,,,,5,19,119,8,5,0,5,0,,,,,1,20,56,16,,,,,,up,1.450762601223687,2084.0077348366503,None,001,43,2019_Oct_18_1457,ACPT_experiment_5_30_19,3.1.0,59.96540744392451,
,,,C,U,y,n,R,D,y,R,y,,,,,5,19,119,8,5,0,5,0,,,,,1,21,57,27,,,,,,down,0.9340931422484573,2086.7429026391073,None,001,43,2019_Oct_18_1457,ACPT_experiment_5_30_19,3.1.0,59.96540744392451,
,,,C,U,y,n,L,G,g,R,c ,,,,,5,19,119,8,5,0,5,0,,,,,1,22,58,19,,,,,,up,1.4011323175363941,2088.961374417955,None,001,43,2019_Oct_18_1457,ACPT_experiment_5_30_19,3.1.0,59.96540744392451,
,,,C,U,y,n,L,G,g,L,c ,,,,,5,19,119,8,5,0,5,0,,,,,1,23,59,18,,,,,,up,0.9342461907654069,2091.6300551668974,None,001,43,2019_Oct_18_1457,ACPT_experiment_5_30_19,3.1.0,59.96540744392451,
,,,C,U,y,n,L,U,y,R,u,,,,,5,19,119,8,5,0,5,0,,,,,1,24,60,25,,,,,,down,1.4177940788031265,2093.8486962952884,None,001,43,2019_Oct_18_1457,ACPT_experiment_5_30_19,3.1.0,59.96540744392451,
,,,C,U,y,n,R,G,d,L,i,,,,,5,19,119,8,5,0,5,0,,,,,1,25,61,4,,,,,,up,0.8506880391250888,2096.550872331274,None,001,43,2019_Oct_18_1457,ACPT_experiment_5_30_19,3.1.0,59.96540744392451,
,,,C,U,y,n,R,D,g,L,i,,,,,5,19,119,8,5,0,5,0,,,,,1,26,62,2,,,,,,up,1.0842355498207326,2098.685914253587,None,001,43,2019_Oct_18_1457,ACPT_experiment_5_30_19,3.1.0,59.96540744392451,
,,,C,U,y,n,R,U,y,R,u,,,,,5,19,119,8,5,0,5,0,,,,,1,27,63,31,,,,,,down,1.8849905288043374,2101.0712173696484,None,001,43,2019_Oct_18_1457,ACPT_experiment_5_30_19,3.1.0,59.96540744392451,
,,,C,U,y,n,L,G,y,L,y,,,,,5,19,119,8,5,0,5,0,,,,,1,28,64,34,,,,,,down,0.8006230614228116,2104.257155320098,None,001,43,2019_Oct_18_1457,ACPT_experiment_5_30_19,3.1.0,59.96540744392451,
,,,C,U,y,n,L,U,g,L,u,,,,,5,19,119,8,5,0,5,0,,,,,1,29,65,22,,,,,,up,1.0508525587356417,2106.3421618480534,None,001,43,2019_Oct_18_1457,ACPT_experiment_5_30_19,3.1.0,59.96540744392451,
