facing_vig,person_vig,text_vig,facing_train,person_train,food_train,correct_key_train,facing_exp,person_exp,food_exp,showL_R,consistent,vig_random.thisRepN,vig_random.thisTrialN,vig_random.thisN,vig_random.thisIndex,trainTrials.thisRepN,trainTrials.thisTrialN,trainTrials.thisN,trainTrials.thisIndex,expBlock.thisRepN,expBlock.thisTrialN,expBlock.thisN,expBlock.thisIndex,breakLoop.thisRepN,breakLoop.thisTrialN,breakLoop.thisN,breakLoop.thisIndex,expTrials.thisRepN,expTrials.thisTrialN,expTrials.thisN,expTrials.thisIndex,train_resp.keys,train_resp.corr,train_resp.rt,train_resp.started,train_resp.stopped,exp_resp.keys,exp_resp.rt,exp_resp.started,exp_resp.stopped,session,participant,date,expName,psychopyVersion,frameRate,
C,U,"did not report her food preferences, so her food preferences are unknown.",,,,,,,,,,0,0,0,2,,,,,,,,,,,,,,,,,,,,,,,,,,001,44,2019_Oct_21_1007,ACPT_experiment_5_30_19,3.1.0,59.94593176328441,
C,G,"cannot eat dairy products because she is lactose intolerant. She enjoys eating wheat products. She thinks eating insects, like crickets, is disgusting.",,,,,,,,,,0,1,1,0,,,,,,,,,,,,,,,,,,,,,,,,,,001,44,2019_Oct_21_1007,ACPT_experiment_5_30_19,3.1.0,59.94593176328441,
C,D,"is allergic to gluten, meaning she can’t eat wheat products. She enjoys eating dairy products. She thinks eating insects, like crickets, is disgusting.",,,,,,,,,,0,2,2,1,,,,,,,,,,,,,,,,,,,,,,,,,,001,44,2019_Oct_21_1007,ACPT_experiment_5_30_19,3.1.0,59.94593176328441,
,,,C,U,y,n,,,,,,,,,,0,0,0,8,,,,,,,,,,,,,n,1,6.788585683142628,518.5928751982449,None,,,,,001,44,2019_Oct_21_1007,ACPT_experiment_5_30_19,3.1.0,59.94593176328441,
,,,C,D,g,b,,,,,,,,,,0,1,1,1,,,,,,,,,,,,,v,0,7.138703196247775,528.6672963413066,None,,,,,001,44,2019_Oct_21_1007,ACPT_experiment_5_30_19,3.1.0,59.94593176328441,
,,,C,D,d,v,,,,,,,,,,0,2,2,9,,,,,,,,,,,,,b,0,2.602017856679254,539.0919732481855,None,,,,,001,44,2019_Oct_21_1007,ACPT_experiment_5_30_19,3.1.0,59.94593176328441,
,,,C,G,g,v,,,,,,,,,,0,3,3,4,,,,,,,,,,,,,v,1,4.55352596668331,544.9798319982178,None,,,,,001,44,2019_Oct_21_1007,ACPT_experiment_5_30_19,3.1.0,59.94593176328441,
,,,C,U,d,n,,,,,,,,,,0,4,4,6,,,,,,,,,,,,,n,1,2.001547019429381,552.8191919155331,None,,,,,001,44,2019_Oct_21_1007,ACPT_experiment_5_30_19,3.1.0,59.94593176328441,
,,,C,U,y,n,,,,,,,,,,0,5,5,17,,,,,,,,,,,,,n,1,1.0174630571760872,558.1065858654645,None,,,,,001,44,2019_Oct_21_1007,ACPT_experiment_5_30_19,3.1.0,59.94593176328441,
,,,C,D,d,v,,,,,,,,,,0,6,6,0,,,,,,,,,,,,,v,1,5.854531574591078,562.4098877029917,None,,,,,001,44,2019_Oct_21_1007,ACPT_experiment_5_30_19,3.1.0,59.94593176328441,
,,,C,U,g,n,,,,,,,,,,0,7,7,7,,,,,,,,,,,,,n,1,2.8355474577264204,571.5502465873506,None,,,,,001,44,2019_Oct_21_1007,ACPT_experiment_5_30_19,3.1.0,59.94593176328441,
,,,C,G,d,b,,,,,,,,,,0,8,8,12,,,,,,,,,,,,,v,0,4.570198459198878,577.6716292031385,None,,,,,001,44,2019_Oct_21_1007,ACPT_experiment_5_30_19,3.1.0,59.94593176328441,
,,,C,G,y,b,,,,,,,,,,0,9,9,14,,,,,,,,,,,,,b,1,2.1516715959987778,585.5109858000219,None,,,,,001,44,2019_Oct_21_1007,ACPT_experiment_5_30_19,3.1.0,59.94593176328441,
,,,C,G,y,b,,,,,,,,,,0,10,10,5,,,,,,,,,,,,,b,1,1.184260428118364,590.9484955726568,None,,,,,001,44,2019_Oct_21_1007,ACPT_experiment_5_30_19,3.1.0,59.94593176328441,
,,,C,D,y,b,,,,,,,,,,0,11,11,2,,,,,,,,,,,,,b,1,1.3007520476500076,595.4522135508639,None,,,,,001,44,2019_Oct_21_1007,ACPT_experiment_5_30_19,3.1.0,59.94593176328441,
,,,C,G,g,v,,,,,,,,,,0,12,12,19,,,,,,,,,,,,,v,1,4.119863669101505,600.0388194717375,None,,,,,001,44,2019_Oct_21_1007,ACPT_experiment_5_30_19,3.1.0,59.94593176328441,
,,,C,U,d,n,,,,,,,,,,0,13,13,15,,,,,,,,,,,,,n,1,1.2676419077149603,607.4445234304771,None,,,,,001,44,2019_Oct_21_1007,ACPT_experiment_5_30_19,3.1.0,59.94593176328441,
,,,C,D,d,v,,,,,,,,,,0,14,14,18,,,,,,,,,,,,,v,1,5.437338015746036,612.0148634608199,None,,,,,001,44,2019_Oct_21_1007,ACPT_experiment_5_30_19,3.1.0,59.94593176328441,
,,,C,D,y,b,,,,,,,,,,0,15,15,11,,,,,,,,,,,,,b,1,1.1842501649650785,620.7380653110852,None,,,,,001,44,2019_Oct_21_1007,ACPT_experiment_5_30_19,3.1.0,59.94593176328441,
,,,C,G,g,v,,,,,,,,,,0,16,16,13,,,,,,,,,,,,,v,1,4.453182815134596,625.2417736298539,None,,,,,001,44,2019_Oct_21_1007,ACPT_experiment_5_30_19,3.1.0,59.94593176328441,
,,,C,D,g,b,,,,,,,,,,0,17,17,10,,,,,,,,,,,,,b,1,5.33745308380594,632.9808094126397,None,,,,,001,44,2019_Oct_21_1007,ACPT_experiment_5_30_19,3.1.0,59.94593176328441,
,,,C,G,d,b,,,,,,,,,,0,18,18,3,,,,,,,,,,,,,b,1,3.402635275906846,641.6041021823689,None,,,,,001,44,2019_Oct_21_1007,ACPT_experiment_5_30_19,3.1.0,59.94593176328441,
,,,C,U,g,n,,,,,,,,,,0,19,19,16,,,,,,,,,,,,,n,1,2.0015974296234162,648.3259091493596,None,,,,,001,44,2019_Oct_21_1007,ACPT_experiment_5_30_19,3.1.0,59.94593176328441,
,,,C,U,y,n,,,,,,,,,,1,0,20,8,,,,,,,,,,,,,n,1,1.6012505350422543,653.5966529442271,None,,,,,001,44,2019_Oct_21_1007,ACPT_experiment_5_30_19,3.1.0,59.94593176328441,
,,,C,U,d,n,,,,,,,,,,1,1,21,15,,,,,,,,,,,,,n,1,1.0508481892477448,658.4670407887897,None,,,,,001,44,2019_Oct_21_1007,ACPT_experiment_5_30_19,3.1.0,59.94593176328441,
,,,C,D,d,v,,,,,,,,,,1,2,22,0,,,,,,,,,,,,,v,1,3.252243555494374,662.8206785634725,None,,,,,001,44,2019_Oct_21_1007,ACPT_experiment_5_30_19,3.1.0,59.94593176328441,
,,,C,G,g,v,,,,,,,,,,1,3,23,19,,,,,,,,,,,,,v,1,2.535281098712858,669.3587820293394,None,,,,,001,44,2019_Oct_21_1007,ACPT_experiment_5_30_19,3.1.0,59.94593176328441,
,,,C,D,y,b,,,,,,,,,,1,4,24,2,,,,,,,,,,,,,b,1,3.736224886214927,675.1799076436948,None,,,,,001,44,2019_Oct_21_1007,ACPT_experiment_5_30_19,3.1.0,59.94593176328441,
,,,C,D,g,b,,,,,,,,,,1,5,25,10,,,,,,,,,,,,,b,1,2.7021201259832424,682.1852722542897,None,,,,,001,44,2019_Oct_21_1007,ACPT_experiment_5_30_19,3.1.0,59.94593176328441,
,,,C,G,y,b,,,,,,,,,,1,6,26,14,,,,,,,,,,,,,b,1,2.451903241405603,688.1732281420493,None,,,,,001,44,2019_Oct_21_1007,ACPT_experiment_5_30_19,3.1.0,59.94593176328441,
,,,C,G,d,b,,,,,,,,,,1,7,27,12,,,,,,,,,,,,,b,1,2.618685217618008,693.894310047446,None,,,,,001,44,2019_Oct_21_1007,ACPT_experiment_5_30_19,3.1.0,59.94593176328441,
,,,C,U,g,n,,,,,,,,,,1,8,28,16,,,,,,,,,,,,,n,1,1.601240875603935,699.7988322342703,None,,,,,001,44,2019_Oct_21_1007,ACPT_experiment_5_30_19,3.1.0,59.94593176328441,
,,,C,G,g,v,,,,,,,,,,1,9,29,13,,,,,,,,,,,,,v,1,4.520165285065104,704.6859079660785,None,,,,,001,44,2019_Oct_21_1007,ACPT_experiment_5_30_19,3.1.0,59.94593176328441,
,,,C,U,g,n,,,,,,,,,,1,10,30,7,,,,,,,,,,,,,n,1,1.1509069910789549,712.491918370501,None,,,,,001,44,2019_Oct_21_1007,ACPT_experiment_5_30_19,3.1.0,59.94593176328441,
,,,C,G,d,b,,,,,,,,,,1,11,31,3,,,,,,,,,,,,,b,1,4.970133620218689,716.9457218045522,None,,,,,001,44,2019_Oct_21_1007,ACPT_experiment_5_30_19,3.1.0,59.94593176328441,
,,,C,D,d,v,,,,,,,,,,1,12,32,18,,,,,,,,,,,,,v,1,2.3685027447897937,725.2016902809751,None,,,,,001,44,2019_Oct_21_1007,ACPT_experiment_5_30_19,3.1.0,59.94593176328441,
,,,C,U,d,n,,,,,,,,,,1,13,33,6,,,,,,,,,,,,,n,1,1.267655491300161,730.8560402581243,None,,,,,001,44,2019_Oct_21_1007,ACPT_experiment_5_30_19,3.1.0,59.94593176328441,
,,,C,D,d,v,,,,,,,,,,1,14,34,9,,,,,,,,,,,,,v,1,2.618374606302382,735.4265342357664,None,,,,,001,44,2019_Oct_21_1007,ACPT_experiment_5_30_19,3.1.0,59.94593176328441,
,,,C,G,g,v,,,,,,,,,,1,15,35,4,,,,,,,,,,,,,v,1,2.0516275851827004,741.3307539614264,None,,,,,001,44,2019_Oct_21_1007,ACPT_experiment_5_30_19,3.1.0,59.94593176328441,
,,,C,G,y,b,,,,,,,,,,1,16,36,5,,,,,,,,,,,,,b,1,1.3009884020331128,746.6515248932783,None,,,,,001,44,2019_Oct_21_1007,ACPT_experiment_5_30_19,3.1.0,59.94593176328441,
,,,C,D,g,b,,,,,,,,,,1,17,37,1,,,,,,,,,,,,,b,1,3.869403185562078,751.255299258457,None,,,,,001,44,2019_Oct_21_1007,ACPT_experiment_5_30_19,3.1.0,59.94593176328441,
,,,C,D,y,b,,,,,,,,,,1,18,38,11,,,,,,,,,,,,,b,1,1.9014737284405783,758.3938681281397,None,,,,,001,44,2019_Oct_21_1007,ACPT_experiment_5_30_19,3.1.0,59.94593176328441,
,,,C,U,y,n,,,,,,,,,,1,19,39,17,,,,,,,,,,,,,b,0,2.3184801356669595,763.5811749016398,None,,,,,001,44,2019_Oct_21_1007,ACPT_experiment_5_30_19,3.1.0,59.94593176328441,
,,,C,D,y,b,,,,,,,,,,2,0,40,2,,,,,,,,,,,,,b,1,0.8840453848713423,769.1687926486845,None,,,,,001,44,2019_Oct_21_1007,ACPT_experiment_5_30_19,3.1.0,59.94593176328441,
,,,C,D,d,v,,,,,,,,,,2,1,41,0,,,,,,,,,,,,,v,1,1.7844656308125195,773.3389566357625,None,,,,,001,44,2019_Oct_21_1007,ACPT_experiment_5_30_19,3.1.0,59.94593176328441,
,,,C,D,g,b,,,,,,,,,,2,2,42,10,,,,,,,,,,,,,b,1,1.1675882374604498,778.3925671225318,None,,,,,001,44,2019_Oct_21_1007,ACPT_experiment_5_30_19,3.1.0,59.94593176328441,
,,,C,U,d,n,,,,,,,,,,2,3,43,15,,,,,,,,,,,,,n,1,1.1175520447523013,782.8459850846198,None,,,,,001,44,2019_Oct_21_1007,ACPT_experiment_5_30_19,3.1.0,59.94593176328441,
,,,C,G,g,v,,,,,,,,,,2,4,44,13,,,,,,,,,,,,,v,1,1.8514327060131563,787.2493834561592,None,,,,,001,44,2019_Oct_21_1007,ACPT_experiment_5_30_19,3.1.0,59.94593176328441,
,,,C,G,y,b,,,,,,,,,,2,5,45,14,,,,,,,,,,,,,b,1,0.7339087340037622,792.3699839592953,None,,,,,001,44,2019_Oct_21_1007,ACPT_experiment_5_30_19,3.1.0,59.94593176328441,
,,,C,G,g,v,,,,,,,,,,2,6,46,19,,,,,,,,,,,,,v,1,1.4341932648358124,796.3900061639292,None,,,,,001,44,2019_Oct_21_1007,ACPT_experiment_5_30_19,3.1.0,59.94593176328441,
,,,C,D,d,v,,,,,,,,,,2,7,47,18,,,,,,,,,,,,,v,1,0.984099356983279,801.1100330775394,None,,,,,001,44,2019_Oct_21_1007,ACPT_experiment_5_30_19,3.1.0,59.94593176328441,
,,,C,D,y,b,,,,,,,,,,2,8,48,11,,,,,,,,,,,,,b,1,0.8337393316030557,805.3969020973659,None,,,,,001,44,2019_Oct_21_1007,ACPT_experiment_5_30_19,3.1.0,59.94593176328441,
,,,C,U,g,n,,,,,,,,,,2,9,49,16,,,,,,,,,,,,,n,1,0.9174118017810997,809.5164925854756,None,,,,,001,44,2019_Oct_21_1007,ACPT_experiment_5_30_19,3.1.0,59.94593176328441,
,,,C,U,y,n,,,,,,,,,,2,10,50,17,,,,,,,,,,,,,n,1,0.9307333747483426,813.7397327716371,None,,,,,001,44,2019_Oct_21_1007,ACPT_experiment_5_30_19,3.1.0,59.94593176328441,
,,,C,U,y,n,,,,,,,,,,2,11,51,8,,,,,,,,,,,,,n,1,1.3510457247627983,817.956316095462,None,,,,,001,44,2019_Oct_21_1007,ACPT_experiment_5_30_19,3.1.0,59.94593176328441,
,,,C,G,g,v,,,,,,,,,,2,12,52,4,,,,,,,,,,,,,v,1,1.7513612261691378,822.6099002602616,None,,,,,001,44,2019_Oct_21_1007,ACPT_experiment_5_30_19,3.1.0,59.94593176328441,
,,,C,G,d,b,,,,,,,,,,2,13,53,3,,,,,,,,,,,,,b,1,1.4344429009465784,827.6470900036284,None,,,,,001,44,2019_Oct_21_1007,ACPT_experiment_5_30_19,3.1.0,59.94593176328441,
,,,C,U,d,n,,,,,,,,,,2,14,54,6,,,,,,,,,,,,,n,1,1.7346796779302167,832.3673849666538,None,,,,,001,44,2019_Oct_21_1007,ACPT_experiment_5_30_19,3.1.0,59.94593176328441,
,,,C,D,d,v,,,,,,,,,,2,15,55,9,,,,,,,,,,,,,v,1,2.235068470325359,837.3879091602266,None,,,,,001,44,2019_Oct_21_1007,ACPT_experiment_5_30_19,3.1.0,59.94593176328441,
,,,C,U,g,n,,,,,,,,,,2,16,56,7,,,,,,,,,,,,,n,1,0.9007495724190449,842.9087946771665,None,,,,,001,44,2019_Oct_21_1007,ACPT_experiment_5_30_19,3.1.0,59.94593176328441,
,,,C,G,y,b,,,,,,,,,,2,17,57,5,,,,,,,,,,,,,b,1,0.8837706945921582,847.1123021399883,None,,,,,001,44,2019_Oct_21_1007,ACPT_experiment_5_30_19,3.1.0,59.94593176328441,
,,,C,G,d,b,,,,,,,,,,2,18,58,12,,,,,,,,,,,,,b,1,1.8514650047602572,851.265243952135,None,,,,,001,44,2019_Oct_21_1007,ACPT_experiment_5_30_19,3.1.0,59.94593176328441,
,,,C,D,g,b,,,,,,,,,,2,19,59,1,,,,,,,,,,,,,b,1,1.2341677276956489,856.4025199663611,None,,,,,001,44,2019_Oct_21_1007,ACPT_experiment_5_30_19,3.1.0,59.94593176328441,
,,,C,D,y,b,,,,,,,,,,3,0,60,11,,,,,,,,,,,,,b,1,0.8306516317509249,860.942673044311,None,,,,,001,44,2019_Oct_21_1007,ACPT_experiment_5_30_19,3.1.0,59.94593176328441,
,,,C,G,d,b,,,,,,,,,,3,1,61,3,,,,,,,,,,,,,v,0,2.051619133173972,865.0591740214236,None,,,,,001,44,2019_Oct_21_1007,ACPT_experiment_5_30_19,3.1.0,59.94593176328441,
,,,C,U,d,n,,,,,,,,,,3,2,62,6,,,,,,,,,,,,,n,1,2.3184626279348777,870.3966077863527,None,,,,,001,44,2019_Oct_21_1007,ACPT_experiment_5_30_19,3.1.0,59.94593176328441,
,,,C,G,g,v,,,,,,,,,,3,3,63,4,,,,,,,,,,,,,v,1,1.7013253353184155,876.0009140243576,None,,,,,001,44,2019_Oct_21_1007,ACPT_experiment_5_30_19,3.1.0,59.94593176328441,
,,,C,D,d,v,,,,,,,,,,3,4,64,0,,,,,,,,,,,,,v,1,5.404168108035947,880.9880778381694,None,,,,,001,44,2019_Oct_21_1007,ACPT_experiment_5_30_19,3.1.0,59.94593176328441,
,,,C,G,g,v,,,,,,,,,,3,5,65,13,,,,,,,,,,,,,v,1,1.3008818463533771,889.6780931785652,None,,,,,001,44,2019_Oct_21_1007,ACPT_experiment_5_30_19,3.1.0,59.94593176328441,
,,,C,U,g,n,,,,,,,,,,3,6,66,16,,,,,,,,,,,,,n,1,1.4844866400910632,894.2649508485515,None,,,,,001,44,2019_Oct_21_1007,ACPT_experiment_5_30_19,3.1.0,59.94593176328441,
,,,C,D,g,b,,,,,,,,,,3,7,67,10,,,,,,,,,,,,,b,1,3.969742412964024,899.0352820042854,None,,,,,001,44,2019_Oct_21_1007,ACPT_experiment_5_30_19,3.1.0,59.94593176328441,
,,,C,G,y,b,,,,,,,,,,3,8,68,5,,,,,,,,,,,,,b,1,1.3677487048805688,906.2908360304298,None,,,,,001,44,2019_Oct_21_1007,ACPT_experiment_5_30_19,3.1.0,59.94593176328441,
,,,C,D,d,v,,,,,,,,,,3,9,69,18,,,,,,,,,,,,,b,0,1.2009289964869367,910.9611186474856,None,,,,,001,44,2019_Oct_21_1007,ACPT_experiment_5_30_19,3.1.0,59.94593176328441,
,,,C,G,y,b,,,,,,,,,,3,10,70,14,,,,,,,,,,,,,b,1,2.218390846233433,915.4478891410406,None,,,,,001,44,2019_Oct_21_1007,ACPT_experiment_5_30_19,3.1.0,59.94593176328441,
,,,C,D,y,b,,,,,,,,,,3,11,71,2,,,,,,,,,,,,,b,1,1.0007643030623967,920.9521317474951,None,,,,,001,44,2019_Oct_21_1007,ACPT_experiment_5_30_19,3.1.0,59.94593176328441,
,,,C,U,y,n,,,,,,,,,,3,12,72,17,,,,,,,,,,,,,n,1,1.56458662735281,925.2587528095382,None,,,,,001,44,2019_Oct_21_1007,ACPT_experiment_5_30_19,3.1.0,59.94593176328441,
,,,C,D,g,b,,,,,,,,,,3,13,73,1,,,,,,,,,,,,,b,1,2.9356062595575168,930.1091528612162,None,,,,,001,44,2019_Oct_21_1007,ACPT_experiment_5_30_19,3.1.0,59.94593176328441,
,,,C,U,y,n,,,,,,,,,,3,14,74,8,,,,,,,,,,,,,n,1,0.8840284808541128,936.3306009196995,None,,,,,001,44,2019_Oct_21_1007,ACPT_experiment_5_30_19,3.1.0,59.94593176328441,
,,,C,G,g,v,,,,,,,,,,3,15,75,19,,,,,,,,,,,,,v,1,4.052696160554433,940.5175626701346,None,,,,,001,44,2019_Oct_21_1007,ACPT_experiment_5_30_19,3.1.0,59.94593176328441,
,,,C,U,g,n,,,,,,,,,,3,16,76,7,,,,,,,,,,,,,n,1,1.2843442841178785,947.8561108927677,None,,,,,001,44,2019_Oct_21_1007,ACPT_experiment_5_30_19,3.1.0,59.94593176328441,
,,,C,G,d,b,,,,,,,,,,3,17,77,12,,,,,,,,,,,,,b,1,1.2673753675869648,952.443259855193,None,,,,,001,44,2019_Oct_21_1007,ACPT_experiment_5_30_19,3.1.0,59.94593176328441,
,,,C,U,d,n,,,,,,,,,,3,18,78,15,,,,,,,,,,,,,n,1,1.0341340404042967,956.9964821532822,None,,,,,001,44,2019_Oct_21_1007,ACPT_experiment_5_30_19,3.1.0,59.94593176328441,
,,,C,D,d,v,,,,,,,,,,3,19,79,9,,,,,,,,,,,,,v,1,1.4510972820150982,961.3165008563697,None,,,,,001,44,2019_Oct_21_1007,ACPT_experiment_5_30_19,3.1.0,59.94593176328441,
,,,C,D,d,v,,,,,,,,,,4,0,80,0,,,,,,,,,,,,,v,1,1.284337643254048,966.0367602002161,None,,,,,001,44,2019_Oct_21_1007,ACPT_experiment_5_30_19,3.1.0,59.94593176328441,
,,,C,G,g,v,,,,,,,,,,4,1,81,13,,,,,,,,,,,,,v,1,1.5342466332328968,970.623894069769,None,,,,,001,44,2019_Oct_21_1007,ACPT_experiment_5_30_19,3.1.0,59.94593176328441,
,,,C,U,y,n,,,,,,,,,,4,2,82,8,,,,,,,,,,,,,n,1,1.3343617616642405,975.4439942743679,None,,,,,001,44,2019_Oct_21_1007,ACPT_experiment_5_30_19,3.1.0,59.94593176328441,
,,,C,U,d,n,,,,,,,,,,4,3,83,6,,,,,,,,,,,,,n,1,1.3644285747923277,980.0842070597214,None,,,,,001,44,2019_Oct_21_1007,ACPT_experiment_5_30_19,3.1.0,59.94593176328441,
,,,C,D,d,v,,,,,,,,,,4,4,84,9,,,,,,,,,,,,,v,1,3.602774613305428,984.7344638498537,None,,,,,001,44,2019_Oct_21_1007,ACPT_experiment_5_30_19,3.1.0,59.94593176328441,
,,,C,G,g,v,,,,,,,,,,4,5,85,4,,,,,,,,,,,,,v,1,3.7696079052843743,991.6230558116313,None,,,,,001,44,2019_Oct_21_1007,ACPT_experiment_5_30_19,3.1.0,59.94593176328441,
,,,C,D,d,v,,,,,,,,,,4,6,86,18,,,,,,,,,,,,,v,1,1.167581596596392,998.6785003842647,None,,,,,001,44,2019_Oct_21_1007,ACPT_experiment_5_30_19,3.1.0,59.94593176328441,
,,,C,D,y,b,,,,,,,,,,4,7,87,11,,,,,,,,,,,,,b,1,1.133976108586694,1003.1488450028405,None,,,,,001,44,2019_Oct_21_1007,ACPT_experiment_5_30_19,3.1.0,59.94593176328441,
,,,C,U,y,n,,,,,,,,,,4,8,88,17,,,,,,,,,,,,,n,1,0.6838918601724799,1007.5686417803311,None,,,,,001,44,2019_Oct_21_1007,ACPT_experiment_5_30_19,3.1.0,59.94593176328441,
,,,C,G,d,b,,,,,,,,,,4,9,89,3,,,,,,,,,,,,,b,1,3.852951954557284,1011.5550729861129,None,,,,,001,44,2019_Oct_21_1007,ACPT_experiment_5_30_19,3.1.0,59.94593176328441,
,,,C,G,d,b,,,,,,,,,,4,10,90,12,,,,,,,,,,,,,b,1,1.4511123748877708,1018.6938920956213,None,,,,,001,44,2019_Oct_21_1007,ACPT_experiment_5_30_19,3.1.0,59.94593176328441,
,,,C,G,y,b,,,,,,,,,,4,11,91,5,,,,,,,,,,,,,b,1,0.8006255693785533,1023.4308471750069,None,,,,,001,44,2019_Oct_21_1007,ACPT_experiment_5_30_19,3.1.0,59.94593176328441,
,,,C,G,y,b,,,,,,,,,,4,12,92,14,,,,,,,,,,,,,b,1,1.3512060110683706,1027.517172368452,None,,,,,001,44,2019_Oct_21_1007,ACPT_experiment_5_30_19,3.1.0,59.94593176328441,
,,,C,U,g,n,,,,,,,,,,4,13,93,7,,,,,,,,,,,,,n,1,1.5845472530670577,1032.1542313471718,None,,,,,001,44,2019_Oct_21_1007,ACPT_experiment_5_30_19,3.1.0,59.94593176328441,
,,,C,D,g,b,,,,,,,,,,4,14,94,1,,,,,,,,,,,,,b,1,1.7346733389238125,1037.024634284607,None,,,,,001,44,2019_Oct_21_1007,ACPT_experiment_5_30_19,3.1.0,59.94593176328441,
,,,C,U,g,n,,,,,,,,,,4,15,95,16,,,,,,,,,,,,,n,1,0.9507709741121744,1042.0451454983095,None,,,,,001,44,2019_Oct_21_1007,ACPT_experiment_5_30_19,3.1.0,59.94593176328441,
,,,C,D,g,b,,,,,,,,,,4,16,96,10,,,,,,,,,,,,,b,1,2.985185741944406,1046.29885004386,None,,,,,001,44,2019_Oct_21_1007,ACPT_experiment_5_30_19,3.1.0,59.94593176328441,
,,,C,D,y,b,,,,,,,,,,4,17,97,2,,,,,,,,,,,,,b,1,2.7688161331939227,1052.5532165627976,None,,,,,001,44,2019_Oct_21_1007,ACPT_experiment_5_30_19,3.1.0,59.94593176328441,
,,,C,U,d,n,,,,,,,,,,4,18,98,15,,,,,,,,,,,,,n,1,2.6353878958786936,1058.607868457768,None,,,,,001,44,2019_Oct_21_1007,ACPT_experiment_5_30_19,3.1.0,59.94593176328441,
,,,C,G,g,v,,,,,,,,,,4,19,99,19,,,,,,,,,,,,,v,1,2.735448206996807,1064.5290881912763,None,,,,,001,44,2019_Oct_21_1007,ACPT_experiment_5_30_19,3.1.0,59.94593176328441,
,,,C,D,y,b,,,,,,,,,,5,0,100,11,,,,,,,,,,,,,b,1,1.1342773623211997,1070.550358274607,None,,,,,001,44,2019_Oct_21_1007,ACPT_experiment_5_30_19,3.1.0,59.94593176328441,
,,,C,D,g,b,,,,,,,,,,5,1,101,1,,,,,,,,,,,,,b,1,1.597915915796193,1074.9904450042895,None,,,,,001,44,2019_Oct_21_1007,ACPT_experiment_5_30_19,3.1.0,59.94593176328441,
,,,C,U,d,n,,,,,,,,,,5,2,102,6,,,,,,,,,,,,,n,1,0.9007317628295368,1079.8741791741302,None,,,,,001,44,2019_Oct_21_1007,ACPT_experiment_5_30_19,3.1.0,59.94593176328441,
,,,C,D,y,b,,,,,,,,,,5,3,103,2,,,,,,,,,,,,,b,1,0.8170312199085856,1084.077704748399,None,,,,,001,44,2019_Oct_21_1007,ACPT_experiment_5_30_19,3.1.0,59.94593176328441,
,,,C,D,d,v,,,,,,,,,,5,4,104,18,,,,,,,,,,,,,v,1,4.720335713781196,1088.1638796168343,None,,,,,001,44,2019_Oct_21_1007,ACPT_experiment_5_30_19,3.1.0,59.94593176328441,
,,,C,U,g,n,,,,,,,,,,5,5,105,16,,,,,,,,,,,,,n,1,2.8688861037508104,1096.170056525826,None,,,,,001,44,2019_Oct_21_1007,ACPT_experiment_5_30_19,3.1.0,59.94593176328441,
,,,C,G,y,b,,,,,,,,,,5,6,106,14,,,,,,,,,,,,,b,1,0.8673427066107706,1102.324781409928,None,,,,,001,44,2019_Oct_21_1007,ACPT_experiment_5_30_19,3.1.0,59.94593176328441,
,,,C,D,d,v,,,,,,,,,,5,7,107,0,,,,,,,,,,,,,v,1,2.335122442437296,1106.494663462148,None,,,,,001,44,2019_Oct_21_1007,ACPT_experiment_5_30_19,3.1.0,59.94593176328441,
,,,C,U,y,n,,,,,,,,,,5,8,108,17,,,,,,,,,,,,,n,1,3.5027004167443465,1112.132311364752,None,,,,,001,44,2019_Oct_21_1007,ACPT_experiment_5_30_19,3.1.0,59.94593176328441,
,,,C,U,y,n,,,,,,,,,,5,9,109,8,,,,,,,,,,,,,n,1,3.8529703678616443,1118.920863843575,None,,,,,001,44,2019_Oct_21_1007,ACPT_experiment_5_30_19,3.1.0,59.94593176328441,
,,,C,G,g,v,,,,,,,,,,5,10,110,13,,,,,,,,,,,,,v,1,1.7513548871627336,1126.0596772177921,None,,,,,001,44,2019_Oct_21_1007,ACPT_experiment_5_30_19,3.1.0,59.94593176328441,
,,,C,D,d,v,,,,,,,,,,5,11,111,9,,,,,,,,,,,,,v,1,1.2009567673721904,1131.0968579054354,None,,,,,001,44,2019_Oct_21_1007,ACPT_experiment_5_30_19,3.1.0,59.94593176328441,
,,,C,G,g,v,,,,,,,,,,5,12,112,4,,,,,,,,,,,,,v,1,1.6008197844616916,1135.6007367736631,None,,,,,001,44,2019_Oct_21_1007,ACPT_experiment_5_30_19,3.1.0,59.94593176328441,
,,,C,G,d,b,,,,,,,,,,5,13,113,12,,,,,,,,,,,,,b,1,1.2509736412039274,1140.4707445796969,None,,,,,001,44,2019_Oct_21_1007,ACPT_experiment_5_30_19,3.1.0,59.94593176328441,
,,,C,U,g,n,,,,,,,,,,5,14,114,7,,,,,,,,,,,,,n,1,1.0338605575548172,1145.024521389921,None,,,,,001,44,2019_Oct_21_1007,ACPT_experiment_5_30_19,3.1.0,59.94593176328441,
,,,C,D,g,b,,,,,,,,,,5,15,115,10,,,,,,,,,,,,,b,1,6.238145605166892,1149.3442279724054,None,,,,,001,44,2019_Oct_21_1007,ACPT_experiment_5_30_19,3.1.0,59.94593176328441,
,,,C,G,d,b,,,,,,,,,,5,16,116,3,,,,,,,,,,,,,b,1,1.2342981301139844,1158.8682105467785,None,,,,,001,44,2019_Oct_21_1007,ACPT_experiment_5_30_19,3.1.0,59.94593176328441,
,,,C,U,d,n,,,,,,,,,,5,17,117,15,,,,,,,,,,,,,n,1,0.9336094725283601,1163.4054642839249,None,,,,,001,44,2019_Oct_21_1007,ACPT_experiment_5_30_19,3.1.0,59.94593176328441,
,,,C,G,g,v,,,,,,,,,,5,18,118,19,,,,,,,,,,,,,v,1,1.4678041862798636,1167.624939402117,None,,,,,001,44,2019_Oct_21_1007,ACPT_experiment_5_30_19,3.1.0,59.94593176328441,
,,,C,G,y,b,,,,,,,,,,5,19,119,5,0,0,0,0,0,0,0,0,,,,,b,1,0.7672660951900525,1172.3785847836075,None,,,,,001,44,2019_Oct_21_1007,ACPT_experiment_5_30_19,3.1.0,59.94593176328441,
,,,C,G,y,b,R,D,d,R,c ,,,,,5,19,119,5,0,0,0,0,,,,,0,0,0,1,,,,,,up,1.1008457442023882,1223.5512224924853,None,001,44,2019_Oct_21_1007,ACPT_experiment_5_30_19,3.1.0,59.94593176328441,
,,,C,G,y,b,R,G,y,R,y,,,,,5,19,119,5,0,0,0,0,,,,,0,1,1,29,,,,,,down,1.0508038162026878,1225.9363935037863,None,001,44,2019_Oct_21_1007,ACPT_experiment_5_30_19,3.1.0,59.94593176328441,
,,,C,G,y,b,R,D,g,R,i,,,,,5,19,119,5,0,0,0,0,,,,,0,2,2,3,,,,,,up,0.600465101958207,1228.2715096072172,None,001,44,2019_Oct_21_1007,ACPT_experiment_5_30_19,3.1.0,59.94593176328441,
,,,C,G,y,b,L,U,d,L,u,,,,,5,19,119,5,0,0,0,0,,,,,0,3,3,20,,,,,,up,0.683897897321458,1230.15629454284,None,001,44,2019_Oct_21_1007,ACPT_experiment_5_30_19,3.1.0,59.94593176328441,
,,,C,G,y,b,R,U,d,L,u,,,,,5,19,119,5,0,0,0,0,,,,,0,4,4,8,,,,,,up,0.5504207590988699,1232.1077932952633,None,001,44,2019_Oct_21_1007,ACPT_experiment_5_30_19,3.1.0,59.94593176328441,
,,,C,G,y,b,L,G,d,L,i,,,,,5,19,119,5,0,0,0,0,,,,,0,5,5,16,,,,,,up,0.8338618857276288,1233.9425353973138,None,001,44,2019_Oct_21_1007,ACPT_experiment_5_30_19,3.1.0,59.94593176328441,
,,,C,G,y,b,L,G,d,R,i,,,,,5,19,119,5,0,0,0,0,,,,,0,6,6,17,,,,,,up,0.5837802332873707,1236.0441548021597,None,001,44,2019_Oct_21_1007,ACPT_experiment_5_30_19,3.1.0,59.94593176328441,
,,,C,G,y,b,R,G,g,R,c ,,,,,5,19,119,5,0,0,0,0,,,,,0,7,7,7,,,,,,up,0.7138949813784166,1237.932254434437,None,001,44,2019_Oct_21_1007,ACPT_experiment_5_30_19,3.1.0,59.94593176328441,
,,,C,G,y,b,R,D,y,R,y,,,,,5,19,119,5,0,0,0,0,,,,,0,8,8,27,,,,,,down,0.6505028039537137,1239.9304674383352,None,001,44,2019_Oct_21_1007,ACPT_experiment_5_30_19,3.1.0,59.94593176328441,
,,,C,G,y,b,R,U,y,R,u,,,,,5,19,119,5,0,0,0,0,,,,,0,9,9,31,,,,,,up,0.5837708757064775,1241.8652994335343,None,001,44,2019_Oct_21_1007,ACPT_experiment_5_30_19,3.1.0,59.94593176328441,
,,,C,G,y,b,L,D,y,R,y,,,,,5,19,119,5,0,0,0,0,,,,,0,10,10,33,,,,,,down,0.8006189285147229,1243.7167070853793,None,001,44,2019_Oct_21_1007,ACPT_experiment_5_30_19,3.1.0,59.94593176328441,
,,,C,G,y,b,L,D,y,L,y,,,,,5,19,119,5,0,0,0,0,,,,,0,11,11,32,,,,,,down,0.6338484228851939,1245.7849419618683,None,001,44,2019_Oct_21_1007,ACPT_experiment_5_30_19,3.1.0,59.94593176328441,
,,,C,G,y,b,L,G,y,L,y,,,,,5,19,119,5,0,0,0,0,,,,,0,12,12,34,,,,,,down,0.40029799367425767,1247.7031096147032,None,001,44,2019_Oct_21_1007,ACPT_experiment_5_30_19,3.1.0,59.94593176328441,
,,,C,G,y,b,L,U,g,L,u,,,,,5,19,119,5,0,0,0,0,,,,,0,13,13,22,,,,,,up,0.5003933202567623,1249.3877192918908,None,001,44,2019_Oct_21_1007,ACPT_experiment_5_30_19,3.1.0,59.94593176328441,
,,,C,G,y,b,R,U,d,R,u,,,,,5,19,119,5,0,0,0,0,,,,,0,14,14,9,,,,,,up,0.5804558771947086,1251.1924389538588,None,001,44,2019_Oct_21_1007,ACPT_experiment_5_30_19,3.1.0,59.94593176328441,
,,,C,G,y,b,R,U,g,R,u,,,,,5,19,119,5,0,0,0,0,,,,,0,15,15,11,,,,,,up,0.5669918275114014,1253.0405355313387,None,001,44,2019_Oct_21_1007,ACPT_experiment_5_30_19,3.1.0,59.94593176328441,
,,,C,G,y,b,L,U,g,R,u,,,,,5,19,119,5,0,0,0,0,,,,,0,16,16,23,,,,,,up,0.5337476628687909,1254.8919597853433,None,001,44,2019_Oct_21_1007,ACPT_experiment_5_30_19,3.1.0,59.94593176328441,
,,,C,G,y,b,L,D,g,R,i,,,,,5,19,119,5,0,0,0,0,,,,,0,17,17,15,,,,,,up,0.4336952000437577,1256.709996190559,None,001,44,2019_Oct_21_1007,ACPT_experiment_5_30_19,3.1.0,59.94593176328441,
,,,C,G,y,b,L,D,g,L,i,,,,,5,19,119,5,0,0,0,0,,,,,0,18,18,14,,,,,,up,0.6335426412890683,1258.4449602182067,None,001,44,2019_Oct_21_1007,ACPT_experiment_5_30_19,3.1.0,59.94593176328441,
,,,C,G,y,b,R,D,y,L,y,,,,,5,19,119,5,0,0,0,0,,,,,0,19,19,26,,,,,,down,0.5670983831910235,1260.3628320507412,None,001,44,2019_Oct_21_1007,ACPT_experiment_5_30_19,3.1.0,59.94593176328441,
,,,C,G,y,b,L,U,d,R,u,,,,,5,19,119,5,0,0,0,0,,,,,0,20,20,21,,,,,,up,1.0006281653525093,1262.214252380599,None,001,44,2019_Oct_21_1007,ACPT_experiment_5_30_19,3.1.0,59.94593176328441,
,,,C,G,y,b,R,D,g,L,i,,,,,5,19,119,5,0,0,0,0,,,,,0,21,21,2,,,,,,up,0.5171113932472053,1264.4993328950363,None,001,44,2019_Oct_21_1007,ACPT_experiment_5_30_19,3.1.0,59.94593176328441,
,,,C,G,y,b,R,U,g,L,u,,,,,5,19,119,5,0,0,0,0,,,,,0,22,22,10,,,,,,up,0.41698799392179353,1266.3007161266137,None,001,44,2019_Oct_21_1007,ACPT_experiment_5_30_19,3.1.0,59.94593176328441,
,,,C,G,y,b,R,U,y,L,u,,,,,5,19,119,5,0,0,0,0,,,,,0,23,23,30,,,,,,down,0.5671288707935673,1268.0020004093187,None,001,44,2019_Oct_21_1007,ACPT_experiment_5_30_19,3.1.0,59.94593176328441,
,,,C,G,y,b,L,G,g,R,c ,,,,,5,19,119,5,0,0,0,0,,,,,0,24,24,19,,,,,,up,0.5504204572416711,1269.8534494156343,None,001,44,2019_Oct_21_1007,ACPT_experiment_5_30_19,3.1.0,59.94593176328441,
,,,C,G,y,b,R,D,d,L,c,,,,,5,19,119,5,0,0,0,0,,,,,0,25,25,0,,,,,,up,0.6502241895279894,1271.705145643201,None,001,44,2019_Oct_21_1007,ACPT_experiment_5_30_19,3.1.0,59.94593176328441,
,,,C,G,y,b,R,G,d,R,i,,,,,5,19,119,5,0,0,0,0,,,,,0,26,26,5,,,,,,up,0.6004660075307129,1273.6396908738232,None,001,44,2019_Oct_21_1007,ACPT_experiment_5_30_19,3.1.0,59.94593176328441,
,,,C,G,y,b,L,U,y,L,u,,,,,5,19,119,5,0,0,0,0,,,,,0,27,27,24,,,,,,down,0.55041623123725,1275.5411498112487,None,001,44,2019_Oct_21_1007,ACPT_experiment_5_30_19,3.1.0,59.94593176328441,
,,,C,G,y,b,L,U,y,R,u,,,,,5,19,119,5,0,0,0,0,,,,,0,28,28,25,,,,,,down,0.7338927355590386,1277.3925698392488,None,001,44,2019_Oct_21_1007,ACPT_experiment_5_30_19,3.1.0,59.94593176328441,
,,,C,G,y,b,R,G,g,L,c ,,,,,5,19,119,5,0,0,0,0,,,,,0,29,29,6,,,,,,up,0.6505242358327905,1279.4107884456214,None,001,44,2019_Oct_21_1007,ACPT_experiment_5_30_19,3.1.0,59.94593176328441,
,,,C,G,y,b,L,G,g,L,c ,,,,,5,19,119,5,0,0,0,0,,,,,0,30,30,18,,,,,,up,0.45036074983818253,1281.3455902550756,None,001,44,2019_Oct_21_1007,ACPT_experiment_5_30_19,3.1.0,59.94593176328441,
,,,C,G,y,b,L,G,y,R,y,,,,,5,19,119,5,0,0,0,0,,,,,0,31,31,35,,,,,,down,0.65052212283058,1283.0635741974668,None,001,44,2019_Oct_21_1007,ACPT_experiment_5_30_19,3.1.0,59.94593176328441,
,,,C,G,y,b,L,D,d,R,c ,,,,,5,19,119,5,0,0,0,0,,,,,0,32,32,13,,,,,,up,0.733650947742035,1285.0153391881606,None,001,44,2019_Oct_21_1007,ACPT_experiment_5_30_19,3.1.0,59.94593176328441,
,,,C,G,y,b,L,D,d,L,c ,,,,,5,19,119,5,0,0,0,0,,,,,0,33,33,12,,,,,,up,0.5504204572414437,1287.033308762137,None,001,44,2019_Oct_21_1007,ACPT_experiment_5_30_19,3.1.0,59.94593176328441,
,,,C,G,y,b,R,G,y,L,y,,,,,5,19,119,5,0,0,0,0,,,,,0,34,34,28,,,,,,down,0.7338879058397652,1288.8680559957645,None,001,44,2019_Oct_21_1007,ACPT_experiment_5_30_19,3.1.0,59.94593176328441,
,,,C,G,y,b,R,G,d,L,i,,,,,5,19,119,5,0,0,0,0,,,,,0,35,35,4,,,,,,up,0.5337757356116981,1290.8862697724178,None,001,44,2019_Oct_21_1007,ACPT_experiment_5_30_19,3.1.0,59.94593176328441,
,,,C,G,y,b,R,G,d,R,i,,,,,5,19,119,5,0,0,0,0,,,,,1,0,36,5,,,,,,up,1.000795394379793,1292.6876270442542,None,001,44,2019_Oct_21_1007,ACPT_experiment_5_30_19,3.1.0,59.94593176328441,
,,,C,G,y,b,R,G,d,L,i,,,,,5,19,119,5,0,0,0,0,,,,,1,1,37,4,,,,,,up,0.5338907432999349,1294.9559094934773,None,001,44,2019_Oct_21_1007,ACPT_experiment_5_30_19,3.1.0,59.94593176328441,
,,,C,G,y,b,L,U,g,R,u,,,,,5,19,119,5,0,0,0,0,,,,,1,2,38,23,,,,,,up,0.6172353962874695,1296.7741206741564,None,001,44,2019_Oct_21_1007,ACPT_experiment_5_30_19,3.1.0,59.94593176328441,
,,,C,G,y,b,R,D,g,R,i,,,,,5,19,119,5,0,0,0,0,,,,,1,3,39,3,,,,,,up,0.5504412854056682,1298.6755820264416,None,001,44,2019_Oct_21_1007,ACPT_experiment_5_30_19,3.1.0,59.94593176328441,
,,,C,G,y,b,L,D,y,L,y,,,,,5,19,119,5,0,0,0,0,,,,,1,4,40,32,,,,,,down,0.6004708372499863,1300.5103410325096,None,001,44,2019_Oct_21_1007,ACPT_experiment_5_30_19,3.1.0,59.94593176328441,
,,,C,G,y,b,R,U,y,L,u,,,,,5,19,119,5,0,0,0,0,,,,,1,5,41,30,,,,,,down,0.5337271365619927,1302.4117878956372,None,001,44,2019_Oct_21_1007,ACPT_experiment_5_30_19,3.1.0,59.94593176328441,
,,,C,G,y,b,L,U,g,L,u,,,,,5,19,119,5,0,0,0,0,,,,,1,6,42,22,,,,,,up,0.5170380418869627,1304.2632266387993,None,001,44,2019_Oct_21_1007,ACPT_experiment_5_30_19,3.1.0,59.94593176328441,
,,,C,G,y,b,R,U,g,L,u,,,,,5,19,119,5,0,0,0,0,,,,,1,7,43,10,,,,,,up,0.5837711775639036,1306.0645917589295,None,001,44,2019_Oct_21_1007,ACPT_experiment_5_30_19,3.1.0,59.94593176328441,
,,,C,G,y,b,R,D,y,R,y,,,,,5,19,119,5,0,0,0,0,,,,,1,8,44,27,,,,,,down,0.7171408545341365,1307.9494313307507,None,001,44,2019_Oct_21_1007,ACPT_experiment_5_30_19,3.1.0,59.94593176328441,
,,,C,G,y,b,R,U,y,R,u,,,,,5,19,119,5,0,0,0,0,,,,,1,9,45,31,,,,,,down,0.6671725797523322,1309.950907111822,None,001,44,2019_Oct_21_1007,ACPT_experiment_5_30_19,3.1.0,59.94593176328441,
,,,C,G,y,b,L,G,g,L,c ,,,,,5,19,119,5,0,0,0,0,,,,,1,10,46,18,,,,,,up,0.5504147219501192,1311.9190904310585,None,001,44,2019_Oct_21_1007,ACPT_experiment_5_30_19,3.1.0,59.94593176328441,
,,,C,G,y,b,L,U,y,L,u,,,,,5,19,119,5,0,0,0,0,,,,,1,11,47,24,,,,,,down,0.5504189479543129,1313.75382770339,None,001,44,2019_Oct_21_1007,ACPT_experiment_5_30_19,3.1.0,59.94593176328441,
,,,C,G,y,b,R,D,d,L,c,,,,,5,19,119,5,0,0,0,0,,,,,1,12,48,0,,,,,,up,0.6671780131862306,1315.5885676924388,None,001,44,2019_Oct_21_1007,ACPT_experiment_5_30_19,3.1.0,59.94593176328441,
,,,C,G,y,b,L,U,d,L,u,,,,,5,19,119,5,0,0,0,0,,,,,1,13,49,20,,,,,,up,0.5137345139582976,1317.5600738584808,None,001,44,2019_Oct_21_1007,ACPT_experiment_5_30_19,3.1.0,59.94593176328441,
,,,C,G,y,b,L,D,y,R,y,,,,,5,19,119,5,0,0,0,0,,,,,1,14,50,33,,,,,,down,0.7672513041750335,1319.3748082450552,None,001,44,2019_Oct_21_1007,ACPT_experiment_5_30_19,3.1.0,59.94593176328441,
,,,C,G,y,b,R,G,y,L,y,,,,,5,19,119,5,0,0,0,0,,,,,1,15,51,28,,,,,,down,0.5170519273294758,1321.476424933184,None,001,44,2019_Oct_21_1007,ACPT_experiment_5_30_19,3.1.0,59.94593176328441,
,,,C,G,y,b,R,U,d,L,u,,,,,5,19,119,5,0,0,0,0,,,,,1,16,52,8,,,,,,up,0.7172099798904128,1323.2778078629037,None,001,44,2019_Oct_21_1007,ACPT_experiment_5_30_19,3.1.0,59.94593176328441,
,,,C,G,y,b,L,D,g,L,i,,,,,5,19,119,5,0,0,0,0,,,,,1,17,53,14,,,,,,up,0.5504219665288019,1325.2793419024626,None,001,44,2019_Oct_21_1007,ACPT_experiment_5_30_19,3.1.0,59.94593176328441,
,,,C,G,y,b,R,U,g,R,u,,,,,5,19,119,5,0,0,0,0,,,,,1,18,54,11,,,,,,up,0.8172938358898136,1327.1140840045134,None,001,44,2019_Oct_21_1007,ACPT_experiment_5_30_19,3.1.0,59.94593176328441,
,,,C,G,y,b,R,D,g,L,i,,,,,5,19,119,5,0,0,0,0,,,,,1,19,55,2,,,,,,up,0.5170606811955167,1329.2157000889272,None,001,44,2019_Oct_21_1007,ACPT_experiment_5_30_19,3.1.0,59.94593176328441,
,,,C,G,y,b,L,G,y,R,y,,,,,5,19,119,5,0,0,0,0,,,,,1,20,56,35,,,,,,down,0.6504973705198154,1331.017083018647,None,001,44,2019_Oct_21_1007,ACPT_experiment_5_30_19,3.1.0,59.94593176328441,
,,,C,G,y,b,R,G,g,L,c ,,,,,5,19,119,5,0,0,0,0,,,,,1,21,57,6,,,,,,up,0.8506684029507596,1332.9518851299588,None,001,44,2019_Oct_21_1007,ACPT_experiment_5_30_19,3.1.0,59.94593176328441,
,,,C,G,y,b,R,G,g,R,c ,,,,,5,19,119,5,0,0,0,0,,,,,1,22,58,7,,,,,,up,0.8006605848427171,1335.0868452938312,None,001,44,2019_Oct_21_1007,ACPT_experiment_5_30_19,3.1.0,59.94593176328441,
,,,C,G,y,b,L,D,d,L,c ,,,,,5,19,119,5,0,0,0,0,,,,,1,23,59,12,,,,,,up,0.5504461151247142,1337.171782546723,None,001,44,2019_Oct_21_1007,ACPT_experiment_5_30_19,3.1.0,59.94593176328441,
,,,C,G,y,b,L,U,d,R,u,,,,,5,19,119,5,0,0,0,0,,,,,1,24,60,21,,,,,,up,0.5170821130745935,1338.9898488358265,None,001,44,2019_Oct_21_1007,ACPT_experiment_5_30_19,3.1.0,59.94593176328441,
,,,C,G,y,b,R,G,y,R,y,,,,,5,19,119,5,0,0,0,0,,,,,1,25,61,29,,,,,,down,0.6671719760372525,1340.7912550085698,None,001,44,2019_Oct_21_1007,ACPT_experiment_5_30_19,3.1.0,59.94593176328441,
,,,C,G,y,b,L,G,g,R,c ,,,,,5,19,119,5,0,0,0,0,,,,,1,26,62,19,,,,,,up,0.6836213958974895,1342.759679813766,None,001,44,2019_Oct_21_1007,ACPT_experiment_5_30_19,3.1.0,59.94593176328441,
,,,C,G,y,b,L,G,y,L,y,,,,,5,19,119,5,0,0,0,0,,,,,1,27,63,34,,,,,,down,0.7172380526330926,1344.727588744581,None,001,44,2019_Oct_21_1007,ACPT_experiment_5_30_19,3.1.0,59.94593176328441,
,,,C,G,y,b,R,D,d,R,c ,,,,,5,19,119,5,0,0,0,0,,,,,1,28,64,1,,,,,,up,0.6505000872368782,1346.745821236396,None,001,44,2019_Oct_21_1007,ACPT_experiment_5_30_19,3.1.0,59.94593176328441,
,,,C,G,y,b,L,D,d,R,c ,,,,,5,19,119,5,0,0,0,0,,,,,1,29,65,13,,,,,,up,0.5504237776735863,1348.6806417610123,None,001,44,2019_Oct_21_1007,ACPT_experiment_5_30_19,3.1.0,59.94593176328441,
,,,C,G,y,b,R,D,y,L,y,,,,,5,19,119,5,0,0,0,0,,,,,1,30,66,26,,,,,,down,0.6505169912538804,1350.5153660534736,None,001,44,2019_Oct_21_1007,ACPT_experiment_5_30_19,3.1.0,59.94593176328441,
,,,C,G,y,b,L,G,d,R,i,,,,,5,19,119,5,0,0,0,0,,,,,1,31,67,17,,,,,,up,0.6338291040085551,1352.4502004635324,None,001,44,2019_Oct_21_1007,ACPT_experiment_5_30_19,3.1.0,59.94593176328441,
,,,C,G,y,b,L,D,g,R,i,,,,,5,19,119,5,0,0,0,0,,,,,1,32,68,15,,,,,,up,0.4503776538551847,1354.3683466844884,None,001,44,2019_Oct_21_1007,ACPT_experiment_5_30_19,3.1.0,59.94593176328441,
,,,C,G,y,b,L,G,d,L,i,,,,,5,19,119,5,0,0,0,0,,,,,1,33,69,16,,,,,,up,0.4667712300870335,1356.1199412464662,None,001,44,2019_Oct_21_1007,ACPT_experiment_5_30_19,3.1.0,59.94593176328441,
,,,C,G,y,b,L,U,y,R,u,,,,,5,19,119,5,0,0,0,0,,,,,1,34,70,25,,,,,,up,0.4504226306153214,1357.8710365362222,None,001,44,2019_Oct_21_1007,ACPT_experiment_5_30_19,3.1.0,59.94593176328441,
,,,C,G,y,b,R,U,d,R,u,,,,,5,19,119,5,0,0,0,0,,,,,1,35,71,9,,,,,,up,0.6338019368381538,1359.6057156104373,None,001,44,2019_Oct_21_1007,ACPT_experiment_5_30_19,3.1.0,59.94593176328441,
,,,C,G,y,b,,,,,,,,,,5,19,119,5,1,0,1,0,0,0,0,0,,,,,,,,,,,,,,001,44,2019_Oct_21_1007,ACPT_experiment_5_30_19,3.1.0,59.94593176328441,
,,,C,G,y,b,L,U,y,R,u,,,,,5,19,119,5,1,0,1,0,,,,,0,0,0,25,,,,,,down,0.7669889900512317,1382.3734501883894,None,001,44,2019_Oct_21_1007,ACPT_experiment_5_30_19,3.1.0,59.94593176328441,
,,,C,G,y,b,L,G,y,L,y,,,,,5,19,119,5,1,0,1,0,,,,,0,1,1,34,,,,,,down,0.6671746927545428,1384.424762936252,None,001,44,2019_Oct_21_1007,ACPT_experiment_5_30_19,3.1.0,59.94593176328441,
,,,C,G,y,b,L,G,d,L,i,,,,,5,19,119,5,1,0,1,0,,,,,0,2,2,16,,,,,,up,0.7005356762299471,1386.376254745954,None,001,44,2019_Oct_21_1007,ACPT_experiment_5_30_19,3.1.0,59.94593176328441,
,,,C,G,y,b,L,G,d,R,i,,,,,5,19,119,5,1,0,1,0,,,,,0,3,3,17,,,,,,up,0.784083781138861,1388.3442835141761,None,001,44,2019_Oct_21_1007,ACPT_experiment_5_30_19,3.1.0,59.94593176328441,
,,,C,G,y,b,R,U,d,R,u,,,,,5,19,119,5,1,0,1,0,,,,,0,4,4,9,,,,,,up,0.600481100403158,1390.3959907897256,None,001,44,2019_Oct_21_1007,ACPT_experiment_5_30_19,3.1.0,59.94593176328441,
,,,C,G,y,b,R,U,d,L,u,,,,,5,19,119,5,1,0,1,0,,,,,0,5,5,8,,,,,,up,0.41700670908380744,1392.2640920641074,None,001,44,2019_Oct_21_1007,ACPT_experiment_5_30_19,3.1.0,59.94593176328441,
,,,C,G,y,b,R,U,g,R,u,,,,,5,19,119,5,1,0,1,0,,,,,0,6,6,11,,,,,,up,0.617135783329104,1393.9487412846208,None,001,44,2019_Oct_21_1007,ACPT_experiment_5_30_19,3.1.0,59.94593176328441,
,,,C,G,y,b,R,D,g,R,i,,,,,5,19,119,5,1,0,1,0,,,,,0,7,7,3,,,,,,up,0.6504964649475369,1395.8502002220464,None,001,44,2019_Oct_21_1007,ACPT_experiment_5_30_19,3.1.0,59.94593176328441,
,,,C,G,y,b,L,U,d,R,u,,,,,5,19,119,5,1,0,1,0,,,,,0,8,8,21,,,,,,up,0.6838622781422146,1397.7850135020838,None,001,44,2019_Oct_21_1007,ACPT_experiment_5_30_19,3.1.0,59.94593176328441,
,,,C,G,y,b,L,D,d,R,c ,,,,,5,19,119,5,1,0,1,0,,,,,0,9,9,13,,,,,,up,1.0674802328649093,1399.736517084226,None,001,44,2019_Oct_21_1007,ACPT_experiment_5_30_19,3.1.0,59.94593176328441,
,,,C,G,y,b,R,G,d,L,i,,,,,5,19,119,5,1,0,1,0,,,,,0,10,10,4,,,,,,up,0.6338402727342327,1402.0883222823322,None,001,44,2019_Oct_21_1007,ACPT_experiment_5_30_19,3.1.0,59.94593176328441,
,,,C,G,y,b,R,D,d,R,c ,,,,,5,19,119,5,1,0,1,0,,,,,0,11,11,1,,,,,,up,0.5671074389144906,1403.9897785030407,None,001,44,2019_Oct_21_1007,ACPT_experiment_5_30_19,3.1.0,59.94593176328441,
,,,C,G,y,b,R,G,g,L,c ,,,,,5,19,119,5,1,0,1,0,,,,,0,12,12,6,,,,,,up,0.5337386071453238,1405.8412030589027,None,001,44,2019_Oct_21_1007,ACPT_experiment_5_30_19,3.1.0,59.94593176328441,
,,,C,G,y,b,L,G,g,L,c ,,,,,5,19,119,5,1,0,1,0,,,,,0,13,13,18,,,,,,up,0.6335655824550486,1407.676197815639,None,001,44,2019_Oct_21_1007,ACPT_experiment_5_30_19,3.1.0,59.94593176328441,
,,,C,G,y,b,L,D,y,L,y,,,,,5,19,119,5,1,0,1,0,,,,,0,14,14,32,,,,,,down,0.7839313431268238,1409.5940853447605,None,001,44,2019_Oct_21_1007,ACPT_experiment_5_30_19,3.1.0,59.94593176328441,
,,,C,G,y,b,R,D,d,L,c,,,,,5,19,119,5,1,0,1,0,,,,,0,15,15,0,,,,,,up,0.7672612654710065,1411.6623428605583,None,001,44,2019_Oct_21_1007,ACPT_experiment_5_30_19,3.1.0,59.94593176328441,
,,,C,G,y,b,L,G,g,R,c ,,,,,5,19,119,5,1,0,1,0,,,,,0,16,16,19,,,,,,up,0.617150574344123,1413.713915507685,None,001,44,2019_Oct_21_1007,ACPT_experiment_5_30_19,3.1.0,59.94593176328441,
,,,C,G,y,b,R,G,y,L,y,,,,,5,19,119,5,1,0,1,0,,,,,0,17,17,28,,,,,,down,0.6671768057565259,1415.6320581063517,None,001,44,2019_Oct_21_1007,ACPT_experiment_5_30_19,3.1.0,59.94593176328441,
,,,C,G,y,b,L,D,g,L,i,,,,,5,19,119,5,1,0,1,0,,,,,0,18,18,14,,,,,,up,0.46701482904927616,1417.600235086582,None,001,44,2019_Oct_21_1007,ACPT_experiment_5_30_19,3.1.0,59.94593176328441,
,,,C,G,y,b,L,D,d,L,c ,,,,,5,19,119,5,1,0,1,0,,,,,0,19,19,12,,,,,,up,0.4670516556579969,1419.334872504469,None,001,44,2019_Oct_21_1007,ACPT_experiment_5_30_19,3.1.0,59.94593176328441,
,,,C,G,y,b,R,G,y,R,y,,,,,5,19,119,5,1,0,1,0,,,,,0,20,20,29,,,,,,down,0.8339838361373495,1421.086240371502,None,001,44,2019_Oct_21_1007,ACPT_experiment_5_30_19,3.1.0,59.94593176328441,
,,,C,G,y,b,L,D,y,R,y,,,,,5,19,119,5,1,0,1,0,,,,,0,21,21,33,,,,,,down,0.8172929303173078,1423.2045364948676,None,001,44,2019_Oct_21_1007,ACPT_experiment_5_30_19,3.1.0,59.94593176328441,
,,,C,G,y,b,R,D,y,L,y,,,,,5,19,119,5,1,0,1,0,,,,,0,22,22,26,,,,,,down,0.6171369907588087,1425.3061483532772,None,001,44,2019_Oct_21_1007,ACPT_experiment_5_30_19,3.1.0,59.94593176328441,
,,,C,G,y,b,R,G,g,R,c ,,,,,5,19,119,5,1,0,1,0,,,,,0,23,23,7,,,,,,up,1.2676452281468755,1427.207606686988,None,001,44,2019_Oct_21_1007,ACPT_experiment_5_30_19,3.1.0,59.94593176328441,
,,,C,G,y,b,R,U,g,L,u,,,,,5,19,119,5,1,0,1,0,,,,,0,24,24,10,,,,,,up,0.6505169912541078,1429.7595699376545,None,001,44,2019_Oct_21_1007,ACPT_experiment_5_30_19,3.1.0,59.94593176328441,
,,,C,G,y,b,L,U,g,R,u,,,,,5,19,119,5,1,0,1,0,,,,,0,25,25,23,,,,,,up,0.5837823462898086,1431.6943853306939,None,001,44,2019_Oct_21_1007,ACPT_experiment_5_30_19,3.1.0,59.94593176328441,
,,,C,G,y,b,L,G,y,R,y,,,,,5,19,119,5,1,0,1,0,,,,,0,26,26,35,,,,,,down,0.7505785098021533,1433.5624860013609,None,001,44,2019_Oct_21_1007,ACPT_experiment_5_30_19,3.1.0,59.94593176328441,
,,,C,G,y,b,R,U,y,R,u,,,,,5,19,119,5,1,0,1,0,,,,,0,27,27,31,,,,,,down,0.6338411783065112,1435.5973586869443,None,001,44,2019_Oct_21_1007,ACPT_experiment_5_30_19,3.1.0,59.94593176328441,
,,,C,G,y,b,R,D,y,R,y,,,,,5,19,119,5,1,0,1,0,,,,,0,28,28,27,,,,,,down,0.6838517131316166,1437.5155239249198,None,001,44,2019_Oct_21_1007,ACPT_experiment_5_30_19,3.1.0,59.94593176328441,
,,,C,G,y,b,R,U,y,L,u,,,,,5,19,119,5,1,0,1,0,,,,,0,29,29,30,,,,,,down,0.6171608374975222,1439.48369969772,None,001,44,2019_Oct_21_1007,ACPT_experiment_5_30_19,3.1.0,59.94593176328441,
,,,C,G,y,b,L,U,g,L,u,,,,,5,19,119,5,1,0,1,0,,,,,0,30,30,22,,,,,,up,0.7339244305912871,1441.3851601444328,None,001,44,2019_Oct_21_1007,ACPT_experiment_5_30_19,3.1.0,59.94593176328441,
,,,C,G,y,b,L,U,d,L,u,,,,,5,19,119,5,1,0,1,0,,,,,0,31,31,20,,,,,,up,0.4336580715778382,1443.4033790526628,None,001,44,2019_Oct_21_1007,ACPT_experiment_5_30_19,3.1.0,59.94593176328441,
,,,C,G,y,b,L,D,g,R,i,,,,,5,19,119,5,1,0,1,0,,,,,0,32,32,15,,,,,,up,0.36665930134495284,1445.1383255725784,None,001,44,2019_Oct_21_1007,ACPT_experiment_5_30_19,3.1.0,59.94593176328441,
,,,C,G,y,b,R,G,d,R,i,,,,,5,19,119,5,1,0,1,0,,,,,0,33,33,5,,,,,,up,0.8673342546021559,1446.7893092354495,None,001,44,2019_Oct_21_1007,ACPT_experiment_5_30_19,3.1.0,59.94593176328441,
,,,C,G,y,b,L,U,y,L,u,,,,,5,19,119,5,1,0,1,0,,,,,0,34,34,24,,,,,,down,0.783947643429201,1448.9409506457034,None,001,44,2019_Oct_21_1007,ACPT_experiment_5_30_19,3.1.0,59.94593176328441,
,,,C,G,y,b,R,D,g,L,i,,,,,5,19,119,5,1,0,1,0,,,,,0,35,35,2,,,,,,up,0.6504988798069462,1451.0092199339415,None,001,44,2019_Oct_21_1007,ACPT_experiment_5_30_19,3.1.0,59.94593176328441,
,,,C,G,y,b,L,D,y,L,y,,,,,5,19,119,5,1,0,1,0,,,,,1,0,36,32,,,,,,down,0.6171472539122078,1452.9440295916895,None,001,44,2019_Oct_21_1007,ACPT_experiment_5_30_19,3.1.0,59.94593176328441,
,,,C,G,y,b,L,G,y,R,y,,,,,5,19,119,5,1,0,1,0,,,,,1,1,37,35,,,,,,down,0.9340384119641385,1454.845501207128,None,001,44,2019_Oct_21_1007,ACPT_experiment_5_30_19,3.1.0,59.94593176328441,
,,,C,G,y,b,R,G,y,R,y,,,,,5,19,119,5,1,0,1,0,,,,,1,2,38,29,,,,,,down,1.0174718110420145,1457.0805228895485,None,001,44,2019_Oct_21_1007,ACPT_experiment_5_30_19,3.1.0,59.94593176328441,
,,,C,G,y,b,L,G,d,R,i,,,,,5,19,119,5,1,0,1,0,,,,,1,3,39,17,,,,,,up,0.8339663284050403,1459.4156749140159,None,001,44,2019_Oct_21_1007,ACPT_experiment_5_30_19,3.1.0,59.94593176328441,
,,,C,G,y,b,R,U,d,L,u,,,,,5,19,119,5,1,0,1,0,,,,,1,4,40,8,,,,,,up,0.4836903401389918,1461.5339761689581,None,001,44,2019_Oct_21_1007,ACPT_experiment_5_30_19,3.1.0,59.94593176328441,
,,,C,G,y,b,R,G,g,R,c ,,,,,5,19,119,5,1,0,1,0,,,,,1,5,41,7,,,,,,up,0.5837784221428137,1463.3019896631936,None,001,44,2019_Oct_21_1007,ACPT_experiment_5_30_19,3.1.0,59.94593176328441,
,,,C,G,y,b,R,G,d,L,i,,,,,5,19,119,5,1,0,1,0,,,,,1,6,42,4,,,,,,up,0.6335836939022101,1465.170364722282,None,001,44,2019_Oct_21_1007,ACPT_experiment_5_30_19,3.1.0,59.94593176328441,
,,,C,G,y,b,R,U,g,R,u,,,,,5,19,119,5,1,0,1,0,,,,,1,7,43,11,,,,,,up,0.6504949556601787,1467.08823021581,None,001,44,2019_Oct_21_1007,ACPT_experiment_5_30_19,3.1.0,59.94593176328441,
,,,C,G,y,b,L,U,g,R,u,,,,,5,19,119,5,1,0,1,0,,,,,1,8,44,23,,,,,,up,0.6171022771520711,1469.0230978301884,None,001,44,2019_Oct_21_1007,ACPT_experiment_5_30_19,3.1.0,59.94593176328441,
,,,C,G,y,b,R,D,g,L,i,,,,,5,19,119,5,1,0,1,0,,,,,1,9,45,2,,,,,,up,0.5504237776735863,1470.9078299407574,None,001,44,2019_Oct_21_1007,ACPT_experiment_5_30_19,3.1.0,59.94593176328441,
,,,C,G,y,b,R,D,d,L,c,,,,,5,19,119,5,1,0,1,0,,,,,1,10,46,0,,,,,,up,0.4837259593180079,1472.7258657422585,None,001,44,2019_Oct_21_1007,ACPT_experiment_5_30_19,3.1.0,59.94593176328441,
,,,C,G,y,b,L,D,y,R,y,,,,,5,19,119,5,1,0,1,0,,,,,1,11,47,33,,,,,,down,0.7506008472535086,1474.4939085166666,None,001,44,2019_Oct_21_1007,ACPT_experiment_5_30_19,3.1.0,59.94593176328441,
,,,C,G,y,b,L,D,g,R,i,,,,,5,19,119,5,1,0,1,0,,,,,1,12,48,15,,,,,,up,0.8840206325603504,1476.5287968988373,None,001,44,2019_Oct_21_1007,ACPT_experiment_5_30_19,3.1.0,59.94593176328441,
,,,C,G,y,b,R,D,g,R,i,,,,,5,19,119,5,1,0,1,0,,,,,1,13,49,3,,,,,,up,0.7172600882267943,1478.6971174424705,None,001,44,2019_Oct_21_1007,ACPT_experiment_5_30_19,3.1.0,59.94593176328441,
,,,C,G,y,b,L,G,g,L,c ,,,,,5,19,119,5,1,0,1,0,,,,,1,14,50,18,,,,,,up,0.5003733976652711,1480.6986855919215,None,001,44,2019_Oct_21_1007,ACPT_experiment_5_30_19,3.1.0,59.94593176328441,
,,,C,G,y,b,R,U,d,R,u,,,,,5,19,119,5,1,0,1,0,,,,,1,15,51,9,,,,,,up,0.4837208277415357,1482.4833604099467,None,001,44,2019_Oct_21_1007,ACPT_experiment_5_30_19,3.1.0,59.94593176328441,
,,,C,G,y,b,L,U,d,L,u,,,,,5,19,119,5,1,0,1,0,,,,,1,16,52,20,,,,,,up,0.6471648642759646,1484.271420861127,None,001,44,2019_Oct_21_1007,ACPT_experiment_5_30_19,3.1.0,59.94593176328441,
,,,C,G,y,b,R,U,y,L,u,,,,,5,19,119,5,1,0,1,0,,,,,1,17,53,30,,,,,,down,1.4177601452779527,1486.2029055590672,None,001,44,2019_Oct_21_1007,ACPT_experiment_5_30_19,3.1.0,59.94593176328441,
,,,C,G,y,b,L,G,d,L,i,,,,,5,19,119,5,1,0,1,0,,,,,1,18,54,16,,,,,,up,0.7005471468132782,1488.9049728599969,None,001,44,2019_Oct_21_1007,ACPT_experiment_5_30_19,3.1.0,59.94593176328441,
,,,C,G,y,b,R,U,y,R,u,,,,,5,19,119,5,1,0,1,0,,,,,1,19,55,31,,,,,,down,0.5837648385577268,1490.8898368219,None,001,44,2019_Oct_21_1007,ACPT_experiment_5_30_19,3.1.0,59.94593176328441,
,,,C,G,y,b,R,D,d,R,c ,,,,,5,19,119,5,1,0,1,0,,,,,1,20,56,1,,,,,,up,0.8006002133529364,1492.7579501705798,None,001,44,2019_Oct_21_1007,ACPT_experiment_5_30_19,3.1.0,59.94593176328441,
,,,C,G,y,b,L,U,d,R,u,,,,,5,19,119,5,1,0,1,0,,,,,1,21,57,21,,,,,,up,0.5671258522188509,1494.8428687083099,None,001,44,2019_Oct_21_1007,ACPT_experiment_5_30_19,3.1.0,59.94593176328441,
,,,C,G,y,b,L,D,g,L,i,,,,,5,19,119,5,1,0,1,0,,,,,1,22,58,14,,,,,,up,0.5003863775357331,1496.6942920567421,None,001,44,2019_Oct_21_1007,ACPT_experiment_5_30_19,3.1.0,59.94593176328441,
,,,C,G,y,b,L,D,d,R,c ,,,,,5,19,119,5,1,0,1,0,,,,,1,23,59,13,,,,,,up,0.5170700387766374,1498.462317323418,None,001,44,2019_Oct_21_1007,ACPT_experiment_5_30_19,3.1.0,59.94593176328441,
,,,C,G,y,b,L,G,g,R,c ,,,,,5,19,119,5,1,0,1,0,,,,,1,24,60,19,,,,,,up,0.5837766109982567,1500.2637023661398,None,001,44,2019_Oct_21_1007,ACPT_experiment_5_30_19,3.1.0,59.94593176328441,
,,,C,G,y,b,L,D,d,L,c ,,,,,5,19,119,5,1,0,1,0,,,,,1,25,61,12,,,,,,up,0.5170555496190445,1502.1318042442365,None,001,44,2019_Oct_21_1007,ACPT_experiment_5_30_19,3.1.0,59.94593176328441,
,,,C,G,y,b,R,D,y,L,y,,,,,5,19,119,5,1,0,1,0,,,,,1,26,62,26,,,,,,down,0.6838465815549171,1503.9498660054783,None,001,44,2019_Oct_21_1007,ACPT_experiment_5_30_19,3.1.0,59.94593176328441,
,,,C,G,y,b,L,U,g,L,u,,,,,5,19,119,5,1,0,1,0,,,,,1,27,63,22,,,,,,up,0.5504147219501192,1505.9347242320898,None,001,44,2019_Oct_21_1007,ACPT_experiment_5_30_19,3.1.0,59.94593176328441,
,,,C,G,y,b,L,U,y,L,u,,,,,5,19,119,5,1,0,1,0,,,,,1,28,64,24,,,,,,down,0.6671737871820369,1507.7694618062787,None,001,44,2019_Oct_21_1007,ACPT_experiment_5_30_19,3.1.0,59.94593176328441,
,,,C,G,y,b,R,G,y,L,y,,,,,5,19,119,5,1,0,1,0,,,,,1,29,65,28,,,,,,down,0.6004439719367838,1509.7376547849537,None,001,44,2019_Oct_21_1007,ACPT_experiment_5_30_19,3.1.0,59.94593176328441,
,,,C,G,y,b,L,G,y,L,y,,,,,5,19,119,5,1,0,1,0,,,,,1,30,66,34,,,,,,down,0.5504491336992032,1511.6391046666558,None,001,44,2019_Oct_21_1007,ACPT_experiment_5_30_19,3.1.0,59.94593176328441,
,,,C,G,y,b,R,D,y,R,y,,,,,5,19,119,5,1,0,1,0,,,,,1,31,67,27,,,,,,down,0.6669292826477431,1513.4907676899031,None,001,44,2019_Oct_21_1007,ACPT_experiment_5_30_19,3.1.0,59.94593176328441,
,,,C,G,y,b,R,U,g,L,u,,,,,5,19,119,5,1,0,1,0,,,,,1,32,68,10,,,,,,up,0.4837256574605817,1515.4419999021982,None,001,44,2019_Oct_21_1007,ACPT_experiment_5_30_19,3.1.0,59.94593176328441,
,,,C,G,y,b,R,G,g,L,c ,,,,,5,19,119,5,1,0,1,0,,,,,1,33,69,6,,,,,,up,0.43369791676104796,1517.2100152075784,None,001,44,2019_Oct_21_1007,ACPT_experiment_5_30_19,3.1.0,59.94593176328441,
,,,C,G,y,b,L,U,y,R,u,,,,,5,19,119,5,1,0,1,0,,,,,1,34,70,25,,,,,,down,0.9007145569548811,1518.928022996708,None,001,44,2019_Oct_21_1007,ACPT_experiment_5_30_19,3.1.0,59.94593176328441,
,,,C,G,y,b,R,G,d,R,i,,,,,5,19,119,5,1,0,1,0,,,,,1,35,71,5,,,,,,up,0.7336566830333595,1521.129961102649,None,001,44,2019_Oct_21_1007,ACPT_experiment_5_30_19,3.1.0,59.94593176328441,
,,,C,G,y,b,,,,,,,,,,5,19,119,5,2,0,2,0,0,0,0,0,,,,,,,,,,,,,,001,44,2019_Oct_21_1007,ACPT_experiment_5_30_19,3.1.0,59.94593176328441,
,,,C,G,y,b,R,G,y,L,y,,,,,5,19,119,5,2,0,2,0,,,,,0,0,0,28,,,,,,down,0.8170454072087523,1593.8693180617613,None,001,44,2019_Oct_21_1007,ACPT_experiment_5_30_19,3.1.0,59.94593176328441,
,,,C,G,y,b,L,D,y,R,y,,,,,5,19,119,5,2,0,2,0,,,,,0,1,1,33,,,,,,down,0.6838610707125099,1595.9872003385633,None,001,44,2019_Oct_21_1007,ACPT_experiment_5_30_19,3.1.0,59.94593176328441,
,,,C,G,y,b,R,G,d,R,i,,,,,5,19,119,5,2,0,2,0,,,,,0,2,2,5,,,,,,up,0.5671225317871631,1597.955355585057,None,001,44,2019_Oct_21_1007,ACPT_experiment_5_30_19,3.1.0,59.94593176328441,
,,,C,G,y,b,L,D,y,L,y,,,,,5,19,119,5,2,0,2,0,,,,,0,3,3,32,,,,,,down,0.6338106907041947,1599.8234852340393,None,001,44,2019_Oct_21_1007,ACPT_experiment_5_30_19,3.1.0,59.94593176328441,
,,,C,G,y,b,R,D,g,L,i,,,,,5,19,119,5,2,0,2,0,,,,,0,4,4,2,,,,,,up,0.6004657056732867,1601.7583151162364,None,001,44,2019_Oct_21_1007,ACPT_experiment_5_30_19,3.1.0,59.94593176328441,
,,,C,G,y,b,L,U,y,L,u,,,,,5,19,119,5,2,0,2,0,,,,,0,5,5,24,,,,,,down,0.6505018983814352,1603.6430768088355,None,001,44,2019_Oct_21_1007,ACPT_experiment_5_30_19,3.1.0,59.94593176328441,
,,,C,G,y,b,R,D,d,L,c,,,,,5,19,119,5,2,0,2,0,,,,,0,6,6,0,,,,,,up,0.500382151531312,1605.5778964278793,None,001,44,2019_Oct_21_1007,ACPT_experiment_5_30_19,3.1.0,59.94593176328441,
,,,C,G,y,b,R,G,g,R,c ,,,,,5,19,119,5,2,0,2,0,,,,,0,7,7,7,,,,,,up,0.5337452480091542,1607.3625984130751,None,001,44,2019_Oct_21_1007,ACPT_experiment_5_30_19,3.1.0,59.94593176328441,
,,,C,G,y,b,L,D,g,L,i,,,,,5,19,119,5,2,0,2,0,,,,,0,8,8,14,,,,,,up,0.5003851701055737,1609.180663796606,None,001,44,2019_Oct_21_1007,ACPT_experiment_5_30_19,3.1.0,59.94593176328441,
,,,C,G,y,b,L,D,d,R,c ,,,,,5,19,119,5,2,0,2,0,,,,,0,9,9,13,,,,,,up,0.9509276381284053,1610.948665518401,None,001,44,2019_Oct_21_1007,ACPT_experiment_5_30_19,3.1.0,59.94593176328441,
,,,C,G,y,b,L,D,d,L,c ,,,,,5,19,119,5,2,0,2,0,,,,,0,10,10,12,,,,,,up,0.5168152710891718,1613.184004453001,None,001,44,2019_Oct_21_1007,ACPT_experiment_5_30_19,3.1.0,59.94593176328441,
,,,C,G,y,b,L,D,g,R,i,,,,,5,19,119,5,2,0,2,0,,,,,0,11,11,15,,,,,,up,0.5337473610111374,1614.9851190314482,None,001,44,2019_Oct_21_1007,ACPT_experiment_5_30_19,3.1.0,59.94593176328441,
,,,C,G,y,b,R,D,d,R,c ,,,,,5,19,119,5,2,0,2,0,,,,,0,12,12,1,,,,,,up,0.4837087534433522,1616.8031807926898,None,001,44,2019_Oct_21_1007,ACPT_experiment_5_30_19,3.1.0,59.94593176328441,
,,,C,G,y,b,R,U,d,L,u,,,,,5,19,119,5,2,0,2,0,,,,,0,13,13,8,,,,,,up,0.4503513922570619,1618.5712045500786,None,001,44,2019_Oct_21_1007,ACPT_experiment_5_30_19,3.1.0,59.94593176328441,
,,,C,G,y,b,L,G,d,R,i,,,,,5,19,119,5,2,0,2,0,,,,,0,14,14,17,,,,,,up,0.5668529730844512,1620.3228045454903,None,001,44,2019_Oct_21_1007,ACPT_experiment_5_30_19,3.1.0,59.94593176328441,
,,,C,G,y,b,L,U,d,R,u,,,,,5,19,119,5,2,0,2,0,,,,,0,15,15,21,,,,,,up,0.4503513922570619,1622.1739719188054,None,001,44,2019_Oct_21_1007,ACPT_experiment_5_30_19,3.1.0,59.94593176328441,
,,,C,G,y,b,R,U,y,R,u,,,,,5,19,119,5,2,0,2,0,,,,,0,16,16,31,,,,,,down,0.8006409641084247,1623.9086144682692,None,001,44,2019_Oct_21_1007,ACPT_experiment_5_30_19,3.1.0,59.94593176328441,
,,,C,G,y,b,L,U,g,L,u,,,,,5,19,119,5,2,0,2,0,,,,,0,17,17,22,,,,,,up,0.4837057348690905,1625.9935713418954,None,001,44,2019_Oct_21_1007,ACPT_experiment_5_30_19,3.1.0,59.94593176328441,
,,,C,G,y,b,R,G,y,R,y,,,,,5,19,119,5,2,0,2,0,,,,,0,18,18,29,,,,,,down,0.633703531309493,1627.7616017401479,None,001,44,2019_Oct_21_1007,ACPT_experiment_5_30_19,3.1.0,59.94593176328441,
,,,C,G,y,b,L,G,d,L,i,,,,,5,19,119,5,2,0,2,0,,,,,0,19,19,16,,,,,,up,0.5504273999629277,1629.6797328682314,None,001,44,2019_Oct_21_1007,ACPT_experiment_5_30_19,3.1.0,59.94593176328441,
,,,C,G,y,b,L,U,d,L,u,,,,,5,19,119,5,2,0,2,0,,,,,0,20,20,20,,,,,,up,0.4670130179044918,1631.5144822148611,None,001,44,2019_Oct_21_1007,ACPT_experiment_5_30_19,3.1.0,59.94593176328441,
,,,C,G,y,b,L,U,y,R,u,,,,,5,19,119,5,2,0,2,0,,,,,0,21,21,25,,,,,,down,0.7503056306677536,1633.2660912659962,None,001,44,2019_Oct_21_1007,ACPT_experiment_5_30_19,3.1.0,59.94593176328441,
,,,C,G,y,b,L,G,g,L,c ,,,,,5,19,119,5,2,0,2,0,,,,,0,22,22,18,,,,,,up,0.5171530495751995,1635.3006907705878,None,001,44,2019_Oct_21_1007,ACPT_experiment_5_30_19,3.1.0,59.94593176328441,
,,,C,G,y,b,R,D,y,L,y,,,,,5,19,119,5,2,0,2,0,,,,,0,23,23,26,,,,,,down,0.8006436808254875,1637.1021017730504,None,001,44,2019_Oct_21_1007,ACPT_experiment_5_30_19,3.1.0,59.94593176328441,
,,,C,G,y,b,L,U,g,R,u,,,,,5,19,119,5,2,0,2,0,,,,,0,24,24,23,,,,,,up,0.5671038166253766,1639.1870317813634,None,001,44,2019_Oct_21_1007,ACPT_experiment_5_30_19,3.1.0,59.94593176328441,
,,,C,G,y,b,R,U,g,L,u,,,,,5,19,119,5,2,0,2,0,,,,,0,25,25,10,,,,,,up,0.5337455498665804,1641.0217681481226,None,001,44,2019_Oct_21_1007,ACPT_experiment_5_30_19,3.1.0,59.94593176328441,
,,,C,G,y,b,R,U,g,R,u,,,,,5,19,119,5,2,0,2,0,,,,,0,26,26,11,,,,,,up,0.4171392245041261,1642.8230073936963,None,001,44,2019_Oct_21_1007,ACPT_experiment_5_30_19,3.1.0,59.94593176328441,
,,,C,G,y,b,R,G,g,L,c ,,,,,5,19,119,5,2,0,2,0,,,,,0,27,27,6,,,,,,up,0.5170480031827083,1644.5244782243055,None,001,44,2019_Oct_21_1007,ACPT_experiment_5_30_19,3.1.0,59.94593176328441,
,,,C,G,y,b,L,G,y,L,y,,,,,5,19,119,5,2,0,2,0,,,,,0,28,28,34,,,,,,down,0.8003342769395658,1646.342812562824,None,001,44,2019_Oct_21_1007,ACPT_experiment_5_30_19,3.1.0,59.94593176328441,
,,,C,G,y,b,R,D,y,R,y,,,,,5,19,119,5,2,0,2,0,,,,,0,29,29,27,,,,,,down,0.6671728816097584,1648.427466371571,None,001,44,2019_Oct_21_1007,ACPT_experiment_5_30_19,3.1.0,59.94593176328441,
,,,C,G,y,b,R,U,y,L,u,,,,,5,19,119,5,2,0,2,0,,,,,0,30,30,30,,,,,,down,0.5671128723488437,1650.3789593887025,None,001,44,2019_Oct_21_1007,ACPT_experiment_5_30_19,3.1.0,59.94593176328441,
,,,C,G,y,b,R,U,d,R,u,,,,,5,19,119,5,2,0,2,0,,,,,0,31,31,9,,,,,,up,0.5671228336445893,1652.213678549587,None,001,44,2019_Oct_21_1007,ACPT_experiment_5_30_19,3.1.0,59.94593176328441,
,,,C,G,y,b,R,D,g,R,i,,,,,5,19,119,5,2,0,2,0,,,,,0,32,32,3,,,,,,up,0.5337367960005395,1654.0651281596174,None,001,44,2019_Oct_21_1007,ACPT_experiment_5_30_19,3.1.0,59.94593176328441,
,,,C,G,y,b,R,G,d,L,i,,,,,5,19,119,5,2,0,2,0,,,,,0,33,33,4,,,,,,up,0.5170289861634956,1655.8832137675977,None,001,44,2019_Oct_21_1007,ACPT_experiment_5_30_19,3.1.0,59.94593176328441,
,,,C,G,y,b,L,G,y,R,y,,,,,5,19,119,5,2,0,2,0,,,,,0,34,34,35,,,,,,up,0.4003067475402986,1657.6845677190022,None,001,44,2019_Oct_21_1007,ACPT_experiment_5_30_19,3.1.0,59.94593176328441,
,,,C,G,y,b,L,G,g,R,c ,,,,,5,19,119,5,2,0,2,0,,,,,0,35,35,19,,,,,,up,0.583513391301949,1659.369470197916,None,001,44,2019_Oct_21_1007,ACPT_experiment_5_30_19,3.1.0,59.94593176328441,
,,,C,G,y,b,L,D,d,R,c ,,,,,5,19,119,5,2,0,2,0,,,,,1,0,36,13,,,,,,up,0.5337232124152251,1661.2373133841784,None,001,44,2019_Oct_21_1007,ACPT_experiment_5_30_19,3.1.0,59.94593176328441,
,,,C,G,y,b,R,U,d,L,u,,,,,5,19,119,5,2,0,2,0,,,,,1,1,37,8,,,,,,up,0.5170561533338969,1663.055364580409,None,001,44,2019_Oct_21_1007,ACPT_experiment_5_30_19,3.1.0,59.94593176328441,
,,,C,G,y,b,L,G,d,R,i,,,,,5,19,119,5,2,0,2,0,,,,,1,2,38,17,,,,,,up,0.5337666798880036,1664.8567176262413,None,001,44,2019_Oct_21_1007,ACPT_experiment_5_30_19,3.1.0,59.94593176328441,
,,,C,G,y,b,R,U,d,R,u,,,,,5,19,119,5,2,0,2,0,,,,,1,3,39,9,,,,,,up,0.5170636997702331,1666.6914989697607,None,001,44,2019_Oct_21_1007,ACPT_experiment_5_30_19,3.1.0,59.94593176328441,
,,,C,G,y,b,R,D,g,R,i,,,,,5,19,119,5,2,0,2,0,,,,,1,4,40,3,,,,,,up,0.4336556567179741,1668.4928734474718,None,001,44,2019_Oct_21_1007,ACPT_experiment_5_30_19,3.1.0,59.94593176328441,
,,,C,G,y,b,L,U,y,R,u,,,,,5,19,119,5,2,0,2,0,,,,,1,5,41,25,,,,,,down,0.6338266891489184,1670.2275304860932,None,001,44,2019_Oct_21_1007,ACPT_experiment_5_30_19,3.1.0,59.94593176328441,
,,,C,G,y,b,L,U,d,L,u,,,,,5,19,119,5,2,0,2,0,,,,,1,6,42,20,,,,,,up,0.6171336703271209,1672.1623534255689,None,001,44,2019_Oct_21_1007,ACPT_experiment_5_30_19,3.1.0,59.94593176328441,
,,,C,G,y,b,R,D,d,L,c,,,,,5,19,119,5,2,0,2,0,,,,,1,7,43,0,,,,,,up,0.6338659306172758,1674.0471148163108,None,001,44,2019_Oct_21_1007,ACPT_experiment_5_30_19,3.1.0,59.94593176328441,
,,,C,G,y,b,L,G,y,L,y,,,,,5,19,119,5,2,0,2,0,,,,,1,8,44,34,,,,,,down,0.7005399022343681,1675.96527250785,None,001,44,2019_Oct_21_1007,ACPT_experiment_5_30_19,3.1.0,59.94593176328441,
,,,C,G,y,b,L,G,g,R,c ,,,,,5,19,119,5,2,0,2,0,,,,,1,9,45,19,,,,,,up,0.5504618117122391,1677.9334238301967,None,001,44,2019_Oct_21_1007,ACPT_experiment_5_30_19,3.1.0,59.94593176328441,
,,,C,G,y,b,L,D,g,L,i,,,,,5,19,119,5,2,0,2,0,,,,,1,10,46,14,,,,,,up,0.7336373641567207,1679.7851276041997,None,001,44,2019_Oct_21_1007,ACPT_experiment_5_30_19,3.1.0,59.94593176328441,
,,,C,G,y,b,L,U,g,L,u,,,,,5,19,119,5,2,0,2,0,,,,,1,11,47,22,,,,,,up,0.6671979357781765,1681.803088122453,None,001,44,2019_Oct_21_1007,ACPT_experiment_5_30_19,3.1.0,59.94593176328441,
,,,C,G,y,b,L,U,d,R,u,,,,,5,19,119,5,2,0,2,0,,,,,1,12,48,21,,,,,,up,0.5504243813884386,1683.7379050247796,None,001,44,2019_Oct_21_1007,ACPT_experiment_5_30_19,3.1.0,59.94593176328441,
,,,C,G,y,b,L,D,y,L,y,,,,,5,19,119,5,2,0,2,0,,,,,1,13,49,32,,,,,,down,0.6838803895893761,1685.57264833426,None,001,44,2019_Oct_21_1007,ACPT_experiment_5_30_19,3.1.0,59.94593176328441,
,,,C,G,y,b,R,G,g,L,c ,,,,,5,19,119,5,2,0,2,0,,,,,1,14,50,6,,,,,,up,0.6671967283482445,1687.540806297471,None,001,44,2019_Oct_21_1007,ACPT_experiment_5_30_19,3.1.0,59.94593176328441,
,,,C,G,y,b,L,D,g,R,i,,,,,5,19,119,5,2,0,2,0,,,,,1,15,51,15,,,,,,up,0.6171363870441837,1689.4923243687708,None,001,44,2019_Oct_21_1007,ACPT_experiment_5_30_19,3.1.0,59.94593176328441,
,,,C,G,y,b,R,U,y,R,u,,,,,5,19,119,5,2,0,2,0,,,,,1,16,52,31,,,,,,down,0.8506524045058086,1691.3937827024815,None,001,44,2019_Oct_21_1007,ACPT_experiment_5_30_19,3.1.0,59.94593176328441,
,,,C,G,y,b,R,D,g,L,i,,,,,5,19,119,5,2,0,2,0,,,,,1,17,53,2,,,,,,up,0.6338206519999403,1693.528754336937,None,001,44,2019_Oct_21_1007,ACPT_experiment_5_30_19,3.1.0,59.94593176328441,
,,,C,G,y,b,R,G,y,L,y,,,,,5,19,119,5,2,0,2,0,,,,,1,18,54,28,,,,,,down,0.6671918986289711,1695.4468990486057,None,001,44,2019_Oct_21_1007,ACPT_experiment_5_30_19,3.1.0,59.94593176328441,
,,,C,G,y,b,R,D,d,R,c ,,,,,5,19,119,5,2,0,2,0,,,,,1,19,55,1,,,,,,up,0.8006240600911951,1697.3983815007266,None,001,44,2019_Oct_21_1007,ACPT_experiment_5_30_19,3.1.0,59.94593176328441,
,,,C,G,y,b,L,G,y,R,y,,,,,5,19,119,5,2,0,2,0,,,,,1,20,56,35,,,,,,down,0.717216922611442,1699.4833250926251,None,001,44,2019_Oct_21_1007,ACPT_experiment_5_30_19,3.1.0,59.94593176328441,
,,,C,G,y,b,R,G,y,R,y,,,,,5,19,119,5,2,0,2,0,,,,,1,21,57,29,,,,,,down,0.7672476818856921,1701.4848660749053,None,001,44,2019_Oct_21_1007,ACPT_experiment_5_30_19,3.1.0,59.94593176328441,
,,,C,G,y,b,R,D,y,L,y,,,,,5,19,119,5,2,0,2,0,,,,,1,22,58,26,,,,,,down,1.1008526869236448,1703.5364326848833,None,001,44,2019_Oct_21_1007,ACPT_experiment_5_30_19,3.1.0,59.94593176328441,
,,,C,G,y,b,L,U,g,R,u,,,,,5,19,119,5,2,0,2,0,,,,,1,23,59,23,,,,,,up,0.7172190356138799,1705.921600979467,None,001,44,2019_Oct_21_1007,ACPT_experiment_5_30_19,3.1.0,59.94593176328441,
,,,C,G,y,b,L,D,d,L,c ,,,,,5,19,119,5,2,0,2,0,,,,,1,24,60,12,,,,,,up,0.6004358217858226,1707.9231567527625,None,001,44,2019_Oct_21_1007,ACPT_experiment_5_30_19,3.1.0,59.94593176328441,
,,,C,G,y,b,L,U,y,L,u,,,,,5,19,119,5,2,0,2,0,,,,,1,25,61,24,,,,,,down,0.6672024636397964,1709.8078952023382,None,001,44,2019_Oct_21_1007,ACPT_experiment_5_30_19,3.1.0,59.94593176328441,
,,,C,G,y,b,R,G,d,R,i,,,,,5,19,119,5,2,0,2,0,,,,,1,26,62,5,,,,,,up,0.8337571411925637,1711.776343250558,None,001,44,2019_Oct_21_1007,ACPT_experiment_5_30_19,3.1.0,59.94593176328441,
,,,C,G,y,b,R,D,y,R,y,,,,,5,19,119,5,2,0,2,0,,,,,1,27,63,27,,,,,,down,1.033907345459511,1713.9112505893768,None,001,44,2019_Oct_21_1007,ACPT_experiment_5_30_19,3.1.0,59.94593176328441,
,,,C,G,y,b,R,U,y,L,u,,,,,5,19,119,5,2,0,2,0,,,,,1,28,64,30,,,,,,down,0.6504970686621618,1716.2461979544933,None,001,44,2019_Oct_21_1007,ACPT_experiment_5_30_19,3.1.0,59.94593176328441,
,,,C,G,y,b,L,D,y,R,y,,,,,5,19,119,5,2,0,2,0,,,,,1,29,65,33,,,,,,down,0.6171641579294374,1718.181010027101,None,001,44,2019_Oct_21_1007,ACPT_experiment_5_30_19,3.1.0,59.94593176328441,
,,,C,G,y,b,R,G,d,L,i,,,,,5,19,119,5,2,0,2,0,,,,,1,30,66,4,,,,,,up,0.5170784907850248,1720.0824743979606,None,001,44,2019_Oct_21_1007,ACPT_experiment_5_30_19,3.1.0,59.94593176328441,
,,,C,G,y,b,R,G,g,R,c ,,,,,5,19,119,5,2,0,2,0,,,,,1,31,67,7,,,,,,up,0.5671041184825754,1721.8838546109632,None,001,44,2019_Oct_21_1007,ACPT_experiment_5_30_19,3.1.0,59.94593176328441,
,,,C,G,y,b,L,G,d,L,i,,,,,5,19,119,5,2,0,2,0,,,,,1,32,68,16,,,,,,up,0.45034505325065766,1723.735277657538,None,001,44,2019_Oct_21_1007,ACPT_experiment_5_30_19,3.1.0,59.94593176328441,
,,,C,G,y,b,L,G,g,L,c ,,,,,5,19,119,5,2,0,2,0,,,,,1,33,69,18,,,,,,up,0.46675070378068995,1725.4702148198726,None,001,44,2019_Oct_21_1007,ACPT_experiment_5_30_19,3.1.0,59.94593176328441,
,,,C,G,y,b,R,U,g,L,u,,,,,5,19,119,5,2,0,2,0,,,,,1,34,70,10,,,,,,up,0.4670154327639011,1727.2212889796072,None,001,44,2019_Oct_21_1007,ACPT_experiment_5_30_19,3.1.0,59.94593176328441,
,,,C,G,y,b,R,U,g,R,u,,,,,5,19,119,5,2,0,2,0,,,,,1,35,71,11,,,,,,up,0.5171826316052375,1728.9558243696765,None,001,44,2019_Oct_21_1007,ACPT_experiment_5_30_19,3.1.0,59.94593176328441,
,,,C,G,y,b,,,,,,,,,,5,19,119,5,3,0,3,0,0,0,0,0,,,,,,,,,,,,,,001,44,2019_Oct_21_1007,ACPT_experiment_5_30_19,3.1.0,59.94593176328441,
,,,C,G,y,b,R,G,y,L,y,,,,,5,19,119,5,3,0,3,0,,,,,0,0,0,28,,,,,,down,0.650242904689776,1756.510692394581,None,001,44,2019_Oct_21_1007,ACPT_experiment_5_30_19,3.1.0,59.94593176328441,
,,,C,G,y,b,R,G,d,L,i,,,,,5,19,119,5,3,0,3,0,,,,,0,1,1,4,,,,,,up,0.5837790258576661,1758.4452596607969,None,001,44,2019_Oct_21_1007,ACPT_experiment_5_30_19,3.1.0,59.94593176328441,
,,,C,G,y,b,L,G,g,R,c ,,,,,5,19,119,5,3,0,3,0,,,,,0,2,2,19,,,,,,up,0.6505055206707766,1760.313355803602,None,001,44,2019_Oct_21_1007,ACPT_experiment_5_30_19,3.1.0,59.94593176328441,
,,,C,G,y,b,L,G,d,R,i,,,,,5,19,119,5,3,0,3,0,,,,,0,3,3,17,,,,,,up,0.6671801261884411,1762.2481754226458,None,001,44,2019_Oct_21_1007,ACPT_experiment_5_30_19,3.1.0,59.94593176328441,
,,,C,G,y,b,L,U,g,R,u,,,,,5,19,119,5,3,0,3,0,,,,,0,4,4,23,,,,,,up,0.7338821705482133,1764.2163702124656,None,001,44,2019_Oct_21_1007,ACPT_experiment_5_30_19,3.1.0,59.94593176328441,
,,,C,G,y,b,L,G,d,L,i,,,,,5,19,119,5,3,0,3,0,,,,,0,5,5,16,,,,,,up,0.6838556372783842,1766.234576140825,None,001,44,2019_Oct_21_1007,ACPT_experiment_5_30_19,3.1.0,59.94593176328441,
,,,C,G,y,b,R,G,g,R,c ,,,,,5,19,119,5,3,0,3,0,,,,,0,6,6,7,,,,,,up,0.5003824533887382,1768.2027531210551,None,001,44,2019_Oct_21_1007,ACPT_experiment_5_30_19,3.1.0,59.94593176328441,
,,,C,G,y,b,R,D,y,L,y,,,,,5,19,119,5,3,0,3,0,,,,,0,7,7,26,,,,,,down,0.5837787240002399,1769.9874596341126,None,001,44,2019_Oct_21_1007,ACPT_experiment_5_30_19,3.1.0,59.94593176328441,
,,,C,G,y,b,R,U,d,R,u,,,,,5,19,119,5,3,0,3,0,,,,,0,8,8,9,,,,,,up,0.4670130179042644,1771.8555603047796,None,001,44,2019_Oct_21_1007,ACPT_experiment_5_30_19,3.1.0,59.94593176328441,
,,,C,G,y,b,L,D,y,L,y,,,,,5,19,119,5,3,0,3,0,,,,,0,9,9,32,,,,,,down,1.1008397070534102,1773.640261384403,None,001,44,2019_Oct_21_1007,ACPT_experiment_5_30_19,3.1.0,59.94593176328441,
,,,C,G,y,b,L,U,g,L,u,,,,,5,19,119,5,3,0,3,0,,,,,0,10,10,22,,,,,,up,0.6171294443226998,1776.0421048882192,None,001,44,2019_Oct_21_1007,ACPT_experiment_5_30_19,3.1.0,59.94593176328441,
,,,C,G,y,b,L,D,g,R,i,,,,,5,19,119,5,3,0,3,0,,,,,0,11,11,15,,,,,,up,0.5504521522739196,1777.9435641275022,None,001,44,2019_Oct_21_1007,ACPT_experiment_5_30_19,3.1.0,59.94593176328441,
,,,C,G,y,b,L,D,g,L,i,,,,,5,19,119,5,3,0,3,0,,,,,0,12,12,14,,,,,,up,0.45036165541023365,1779.761608381012,None,001,44,2019_Oct_21_1007,ACPT_experiment_5_30_19,3.1.0,59.94593176328441,
,,,C,G,y,b,R,D,d,L,c,,,,,5,19,119,5,3,0,3,0,,,,,0,13,13,0,,,,,,up,0.43365776972041203,1781.4962950016634,None,001,44,2019_Oct_21_1007,ACPT_experiment_5_30_19,3.1.0,59.94593176328441,
,,,C,G,y,b,R,U,g,L,u,,,,,5,19,119,5,3,0,3,0,,,,,0,14,14,10,,,,,,up,0.3970005028945707,1783.234298130114,None,001,44,2019_Oct_21_1007,ACPT_experiment_5_30_19,3.1.0,59.94593176328441,
,,,C,G,y,b,R,G,y,R,y,,,,,5,19,119,5,3,0,3,0,,,,,0,15,15,29,,,,,,down,0.9674181106015567,1784.915574697343,None,001,44,2019_Oct_21_1007,ACPT_experiment_5_30_19,3.1.0,59.94593176328441,
,,,C,G,y,b,R,U,d,L,u,,,,,5,19,119,5,3,0,3,0,,,,,0,16,16,8,,,,,,up,0.550425588818598,1787.1673117360365,None,001,44,2019_Oct_21_1007,ACPT_experiment_5_30_19,3.1.0,59.94593176328441,
,,,C,G,y,b,L,U,d,L,u,,,,,5,19,119,5,3,0,3,0,,,,,0,17,17,20,,,,,,up,0.5337434368643699,1789.0020514232278,None,001,44,2019_Oct_21_1007,ACPT_experiment_5_30_19,3.1.0,59.94593176328441,
,,,C,G,y,b,R,U,g,R,u,,,,,5,19,119,5,3,0,3,0,,,,,0,18,18,11,,,,,,up,0.6338248780043614,1790.8201122788969,None,001,44,2019_Oct_21_1007,ACPT_experiment_5_30_19,3.1.0,59.94593176328441,
,,,C,G,y,b,L,D,d,L,c ,,,,,5,19,119,5,3,0,3,0,,,,,0,19,19,12,,,,,,up,0.7672600580413018,1792.7382606128554,None,001,44,2019_Oct_21_1007,ACPT_experiment_5_30_19,3.1.0,59.94593176328441,
,,,C,G,y,b,R,D,d,R,c ,,,,,5,19,119,5,3,0,3,0,,,,,0,20,20,1,,,,,,up,0.5004177707101007,1794.7898045835245,None,001,44,2019_Oct_21_1007,ACPT_experiment_5_30_19,3.1.0,59.94593176328441,
,,,C,G,y,b,L,U,d,R,u,,,,,5,19,119,5,3,0,3,0,,,,,0,21,21,21,,,,,,up,0.5837606125533057,1796.59122705657,None,001,44,2019_Oct_21_1007,ACPT_experiment_5_30_19,3.1.0,59.94593176328441,
,,,C,G,y,b,R,G,g,L,c ,,,,,5,19,119,5,3,0,3,0,,,,,0,22,22,6,,,,,,up,0.5170555496192719,1798.4593228975177,None,001,44,2019_Oct_21_1007,ACPT_experiment_5_30_19,3.1.0,59.94593176328441,
,,,C,G,y,b,L,G,y,R,y,,,,,5,19,119,5,3,0,3,0,,,,,0,23,23,35,,,,,,down,1.2843183243771819,1800.260697375229,None,001,44,2019_Oct_21_1007,ACPT_experiment_5_30_19,3.1.0,59.94593176328441,
,,,C,G,y,b,R,G,d,R,i,,,,,5,19,119,5,3,0,3,0,,,,,0,24,24,5,,,,,,up,0.6338245761467078,1802.8293340239834,None,001,44,2019_Oct_21_1007,ACPT_experiment_5_30_19,3.1.0,59.94593176328441,
,,,C,G,y,b,R,D,y,R,y,,,,,5,19,119,5,3,0,3,0,,,,,0,25,25,27,,,,,,down,0.6504922389431158,1804.7474793393671,None,001,44,2019_Oct_21_1007,ACPT_experiment_5_30_19,3.1.0,59.94593176328441,
,,,C,G,y,b,L,U,y,R,u,,,,,5,19,119,5,3,0,3,0,,,,,0,26,26,25,,,,,,down,0.9674069418765612,1806.6822968454085,None,001,44,2019_Oct_21_1007,ACPT_experiment_5_30_19,3.1.0,59.94593176328441,
,,,C,G,y,b,L,U,y,L,u,,,,,5,19,119,5,3,0,3,0,,,,,0,27,27,24,,,,,,down,0.6505408379925939,1808.950706980333,None,001,44,2019_Oct_21_1007,ACPT_experiment_5_30_19,3.1.0,59.94593176328441,
,,,C,G,y,b,R,U,y,R,u,,,,,5,19,119,5,3,0,3,0,,,,,0,28,28,31,,,,,,down,0.5837983447345323,1810.8855184492254,None,001,44,2019_Oct_21_1007,ACPT_experiment_5_30_19,3.1.0,59.94593176328441,
,,,C,G,y,b,L,G,g,L,c ,,,,,5,19,119,5,3,0,3,0,,,,,0,29,29,18,,,,,,up,0.6838508075593381,1812.7869858386598,None,001,44,2019_Oct_21_1007,ACPT_experiment_5_30_19,3.1.0,59.94593176328441,
,,,C,G,y,b,R,U,y,L,u,,,,,5,19,119,5,3,0,3,0,,,,,0,30,30,30,,,,,,down,0.5671029110530981,1814.7551573854557,None,001,44,2019_Oct_21_1007,ACPT_experiment_5_30_19,3.1.0,59.94593176328441,
,,,C,G,y,b,L,G,y,L,y,,,,,5,19,119,5,3,0,3,0,,,,,0,31,31,34,,,,,,down,0.5835634996387853,1816.6234735823418,None,001,44,2019_Oct_21_1007,ACPT_experiment_5_30_19,3.1.0,59.94593176328441,
,,,C,G,y,b,R,D,g,L,i,,,,,5,19,119,5,3,0,3,0,,,,,0,32,32,2,,,,,,up,0.8673233877339044,1818.4913632546513,None,001,44,2019_Oct_21_1007,ACPT_experiment_5_30_19,3.1.0,59.94593176328441,
,,,C,G,y,b,R,D,g,R,i,,,,,5,19,119,5,3,0,3,0,,,,,0,33,33,3,,,,,,up,0.5671026091954445,1820.6263300593873,None,001,44,2019_Oct_21_1007,ACPT_experiment_5_30_19,3.1.0,59.94593176328441,
,,,C,G,y,b,L,D,d,R,c ,,,,,5,19,119,5,3,0,3,0,,,,,0,34,34,13,,,,,,up,0.46703294049621036,1822.477749483673,None,001,44,2019_Oct_21_1007,ACPT_experiment_5_30_19,3.1.0,59.94593176328441,
,,,C,G,y,b,L,D,y,R,y,,,,,5,19,119,5,3,0,3,0,,,,,0,35,35,33,,,,,,down,0.7169380063278368,1824.2627306870095,None,001,44,2019_Oct_21_1007,ACPT_experiment_5_30_19,3.1.0,59.94593176328441,
,,,C,G,y,b,R,U,d,L,u,,,,,5,19,119,5,3,0,3,0,,,,,1,0,36,8,,,,,,up,0.6672003506378132,1826.2639722267,None,001,44,2019_Oct_21_1007,ACPT_experiment_5_30_19,3.1.0,59.94593176328441,
,,,C,G,y,b,R,G,g,R,c ,,,,,5,19,119,5,3,0,3,0,,,,,1,1,37,7,,,,,,up,0.8006207396592799,1828.2154878831402,None,001,44,2019_Oct_21_1007,ACPT_experiment_5_30_19,3.1.0,59.94593176328441,
,,,C,G,y,b,L,U,g,R,u,,,,,5,19,119,5,3,0,3,0,,,,,1,2,38,23,,,,,,up,1.2509473796053499,1830.3004414363345,None,001,44,2019_Oct_21_1007,ACPT_experiment_5_30_19,3.1.0,59.94593176328441,
,,,C,G,y,b,R,G,d,L,i,,,,,5,19,119,5,3,0,3,0,,,,,1,3,39,4,,,,,,up,0.5337558130195248,1832.8357017068834,None,001,44,2019_Oct_21_1007,ACPT_experiment_5_30_19,3.1.0,59.94593176328441,
,,,C,G,y,b,L,U,y,R,u,,,,,5,19,119,5,3,0,3,0,,,,,1,4,40,25,,,,,,down,1.067486571871541,1834.6537695052739,None,001,44,2019_Oct_21_1007,ACPT_experiment_5_30_19,3.1.0,59.94593176328441,
,,,C,G,y,b,R,D,d,L,c,,,,,5,19,119,5,3,0,3,0,,,,,1,5,41,0,,,,,,up,0.6338254817192137,1837.0055659495138,None,001,44,2019_Oct_21_1007,ACPT_experiment_5_30_19,3.1.0,59.94593176328441,
,,,C,G,y,b,R,G,d,R,i,,,,,5,19,119,5,3,0,3,0,,,,,1,6,42,5,,,,,,up,0.9840972439810685,1838.9237010017441,None,001,44,2019_Oct_21_1007,ACPT_experiment_5_30_19,3.1.0,59.94593176328441,
,,,C,G,y,b,L,G,g,L,c ,,,,,5,19,119,5,3,0,3,0,,,,,1,7,43,18,,,,,,up,0.5670102408157618,1841.1921935437522,None,001,44,2019_Oct_21_1007,ACPT_experiment_5_30_19,3.1.0,59.94593176328441,
,,,C,G,y,b,L,D,y,R,y,,,,,5,19,119,5,3,0,3,0,,,,,1,8,44,33,,,,,,down,0.8840106712646048,1843.0435432389668,None,001,44,2019_Oct_21_1007,ACPT_experiment_5_30_19,3.1.0,59.94593176328441,
,,,C,G,y,b,R,U,d,R,u,,,,,5,19,119,5,3,0,3,0,,,,,1,9,45,9,,,,,,up,0.9007112365229659,1845.2118532175891,None,001,44,2019_Oct_21_1007,ACPT_experiment_5_30_19,3.1.0,59.94593176328441,
,,,C,G,y,b,R,D,g,R,i,,,,,5,19,119,5,3,0,3,0,,,,,1,10,46,3,,,,,,up,1.1675659000088672,1847.3968815710596,None,001,44,2019_Oct_21_1007,ACPT_experiment_5_30_19,3.1.0,59.94593176328441,
,,,C,G,y,b,L,G,d,L,i,,,,,5,19,119,5,3,0,3,0,,,,,1,11,47,16,,,,,,up,0.8170266920469658,1849.8657166005296,None,001,44,2019_Oct_21_1007,ACPT_experiment_5_30_19,3.1.0,59.94593176328441,
,,,C,G,y,b,L,U,y,L,u,,,,,5,19,119,5,3,0,3,0,,,,,1,12,48,24,,,,,,down,0.8840094638349001,1851.9670607113817,None,001,44,2019_Oct_21_1007,ACPT_experiment_5_30_19,3.1.0,59.94593176328441,
,,,C,G,y,b,R,U,g,R,u,,,,,5,19,119,5,3,0,3,0,,,,,1,13,49,11,,,,,,up,0.6004545369473817,1854.1353924237405,None,001,44,2019_Oct_21_1007,ACPT_experiment_5_30_19,3.1.0,59.94593176328441,
,,,C,G,y,b,R,D,y,R,y,,,,,5,19,119,5,3,0,3,0,,,,,1,14,50,27,,,,,,down,0.833969950694609,1856.0368507574508,None,001,44,2019_Oct_21_1007,ACPT_experiment_5_30_19,3.1.0,59.94593176328441,
,,,C,G,y,b,R,D,y,L,y,,,,,5,19,119,5,3,0,3,0,,,,,1,15,51,26,,,,,,down,0.6338203501422868,1858.1718245049087,None,001,44,2019_Oct_21_1007,ACPT_experiment_5_30_19,3.1.0,59.94593176328441,
,,,C,G,y,b,L,G,d,R,i,,,,,5,19,119,5,3,0,3,0,,,,,1,16,52,17,,,,,,up,0.9006828619221778,1860.0899640850007,None,001,44,2019_Oct_21_1007,ACPT_experiment_5_30_19,3.1.0,59.94593176328441,
,,,C,G,y,b,L,U,d,L,u,,,,,5,19,119,5,3,0,3,0,,,,,1,17,53,20,,,,,,up,0.6837433463074376,1862.2749725158792,None,001,44,2019_Oct_21_1007,ACPT_experiment_5_30_19,3.1.0,59.94593176328441,
,,,C,G,y,b,L,G,y,L,y,,,,,5,19,119,5,3,0,3,0,,,,,1,18,54,34,,,,,,down,0.867346328900112,1864.2431564388307,None,001,44,2019_Oct_21_1007,ACPT_experiment_5_30_19,3.1.0,59.94593176328441,
,,,C,G,y,b,L,D,g,R,i,,,,,5,19,119,5,3,0,3,0,,,,,1,19,55,15,,,,,,up,0.8006134950805972,1866.3948014713742,None,001,44,2019_Oct_21_1007,ACPT_experiment_5_30_19,3.1.0,59.94593176328441,
,,,C,G,y,b,L,D,y,L,y,,,,,5,19,119,5,3,0,3,0,,,,,1,20,56,32,,,,,,down,0.7005103202045575,1868.4964172539303,None,001,44,2019_Oct_21_1007,ACPT_experiment_5_30_19,3.1.0,59.94593176328441,
,,,C,G,y,b,L,D,g,L,i,,,,,5,19,119,5,3,0,3,0,,,,,1,21,57,14,,,,,,up,0.6136556687920347,1870.5347860524953,None,001,44,2019_Oct_21_1007,ACPT_experiment_5_30_19,3.1.0,59.94593176328441,
,,,C,G,y,b,R,U,g,L,u,,,,,5,19,119,5,3,0,3,0,,,,,1,22,58,10,,,,,,up,0.6171659690739943,1872.416068837988,None,001,44,2019_Oct_21_1007,ACPT_experiment_5_30_19,3.1.0,59.94593176328441,
,,,C,G,y,b,L,G,y,R,y,,,,,5,19,119,5,3,0,3,0,,,,,1,23,59,35,,,,,,down,0.8840381402924322,1874.3342069087926,None,001,44,2019_Oct_21_1007,ACPT_experiment_5_30_19,3.1.0,59.94593176328441,
,,,C,G,y,b,R,D,g,L,i,,,,,5,19,119,5,3,0,3,0,,,,,1,24,60,2,,,,,,up,0.58377419613862,1876.5359219420784,None,001,44,2019_Oct_21_1007,ACPT_experiment_5_30_19,3.1.0,59.94593176328441,
,,,C,G,y,b,R,U,y,L,u,,,,,5,19,119,5,3,0,3,0,,,,,1,25,61,30,,,,,,down,0.6838474871274229,1878.420708085131,None,001,44,2019_Oct_21_1007,ACPT_experiment_5_30_19,3.1.0,59.94593176328441,
,,,C,G,y,b,L,D,d,L,c ,,,,,5,19,119,5,3,0,3,0,,,,,1,26,62,12,,,,,,up,0.5836703571762882,1880.4222391061157,None,001,44,2019_Oct_21_1007,ACPT_experiment_5_30_19,3.1.0,59.94593176328441,
,,,C,G,y,b,L,U,g,L,u,,,,,5,19,119,5,3,0,3,0,,,,,1,27,63,22,,,,,,up,0.5671189094978217,1882.2903174393314,None,001,44,2019_Oct_21_1007,ACPT_experiment_5_30_19,3.1.0,59.94593176328441,
,,,C,G,y,b,R,G,y,R,y,,,,,5,19,119,5,3,0,3,0,,,,,1,28,64,29,,,,,,down,0.7838588973386322,1884.141739278476,None,001,44,2019_Oct_21_1007,ACPT_experiment_5_30_19,3.1.0,59.94593176328441,
,,,C,G,y,b,R,G,g,L,c ,,,,,5,19,119,5,3,0,3,0,,,,,1,29,65,6,,,,,,up,0.6338227650021508,1886.2100103778594,None,001,44,2019_Oct_21_1007,ACPT_experiment_5_30_19,3.1.0,59.94593176328441,
,,,C,G,y,b,R,U,y,R,u,,,,,5,19,119,5,3,0,3,0,,,,,1,30,66,31,,,,,,down,0.783923494832834,1888.1281611266768,None,001,44,2019_Oct_21_1007,ACPT_experiment_5_30_19,3.1.0,59.94593176328441,
,,,C,G,y,b,L,G,g,R,c ,,,,,5,19,119,5,3,0,3,0,,,,,1,31,67,19,,,,,,up,0.550410797803579,1890.1964144164704,None,001,44,2019_Oct_21_1007,ACPT_experiment_5_30_19,3.1.0,59.94593176328441,
,,,C,G,y,b,R,G,y,L,y,,,,,5,19,119,5,3,0,3,0,,,,,1,32,68,28,,,,,,down,0.9006925213607246,1892.0311513869447,None,001,44,2019_Oct_21_1007,ACPT_experiment_5_30_19,3.1.0,59.94593176328441,
,,,C,G,y,b,L,U,d,R,u,,,,,5,19,119,5,3,0,3,0,,,,,1,33,69,21,,,,,,up,0.6004530276604783,1894.2161619308254,None,001,44,2019_Oct_21_1007,ACPT_experiment_5_30_19,3.1.0,59.94593176328441,
,,,C,G,y,b,R,D,d,R,c ,,,,,5,19,119,5,3,0,3,0,,,,,1,34,70,1,,,,,,up,0.5337410220049605,1896.1009414330142,None,001,44,2019_Oct_21_1007,ACPT_experiment_5_30_19,3.1.0,59.94593176328441,
,,,C,G,y,b,L,D,d,R,c ,,,,,5,19,119,5,3,0,3,0,,,,,1,35,71,13,,,,,,up,0.5504277018203538,1897.9190040998278,None,001,44,2019_Oct_21_1007,ACPT_experiment_5_30_19,3.1.0,59.94593176328441,
,,,C,G,y,b,,,,,,,,,,5,19,119,5,4,0,4,0,0,0,0,0,,,,,,,,,,,,,,001,44,2019_Oct_21_1007,ACPT_experiment_5_30_19,3.1.0,59.94593176328441,
,,,C,G,y,b,L,G,d,L,i,,,,,5,19,119,5,4,0,4,0,,,,,0,0,0,16,,,,,,up,0.6671653351731948,1937.8163149121806,None,001,44,2019_Oct_21_1007,ACPT_experiment_5_30_19,3.1.0,59.94593176328441,
,,,C,G,y,b,L,U,d,R,u,,,,,5,19,119,5,4,0,4,0,,,,,0,1,1,21,,,,,,up,0.5503969123601564,1939.7678175887509,None,001,44,2019_Oct_21_1007,ACPT_experiment_5_30_19,3.1.0,59.94593176328441,
,,,C,G,y,b,L,D,d,R,c ,,,,,5,19,119,5,4,0,4,0,,,,,0,2,2,13,,,,,,up,0.46702660148957875,1941.6025391644948,None,001,44,2019_Oct_21_1007,ACPT_experiment_5_30_19,3.1.0,59.94593176328441,
,,,C,G,y,b,L,U,y,L,u,,,,,5,19,119,5,4,0,4,0,,,,,0,3,3,24,,,,,,down,1.0341467184171051,1943.3538868070787,None,001,44,2019_Oct_21_1007,ACPT_experiment_5_30_19,3.1.0,59.94593176328441,
,,,C,G,y,b,L,D,g,R,i,,,,,5,19,119,5,4,0,4,0,,,,,0,4,4,15,,,,,,up,0.7839228911179816,1945.6723358514282,None,001,44,2019_Oct_21_1007,ACPT_experiment_5_30_19,3.1.0,59.94593176328441,
,,,C,G,y,b,R,U,y,R,u,,,,,5,19,119,5,4,0,4,0,,,,,0,5,5,31,,,,,,down,0.7003334317387271,1947.757430070194,None,001,44,2019_Oct_21_1007,ACPT_experiment_5_30_19,3.1.0,59.94593176328441,
,,,C,G,y,b,L,U,g,L,u,,,,,5,19,119,5,4,0,4,0,,,,,0,6,6,22,,,,,,up,0.6671737871820369,1949.7588080494515,None,001,44,2019_Oct_21_1007,ACPT_experiment_5_30_19,3.1.0,59.94593176328441,
,,,C,G,y,b,L,G,y,L,y,,,,,5,19,119,5,4,0,4,0,,,,,0,7,7,34,,,,,,down,0.7338972634211132,1951.7103007647256,None,001,44,2019_Oct_21_1007,ACPT_experiment_5_30_19,3.1.0,59.94593176328441,
,,,C,G,y,b,L,D,y,L,y,,,,,5,19,119,5,4,0,4,0,,,,,0,8,8,32,,,,,,down,0.6505015965240091,1953.728519069241,None,001,44,2019_Oct_21_1007,ACPT_experiment_5_30_19,3.1.0,59.94593176328441,
,,,C,G,y,b,R,U,y,L,u,,,,,5,19,119,5,4,0,4,0,,,,,0,9,9,30,,,,,,down,0.450360447980529,1955.646636010024,None,001,44,2019_Oct_21_1007,ACPT_experiment_5_30_19,3.1.0,59.94593176328441,
,,,C,G,y,b,L,G,g,R,c ,,,,,5,19,119,5,4,0,4,0,,,,,0,10,10,19,,,,,,up,0.6171421223357356,1957.3813244418202,None,001,44,2019_Oct_21_1007,ACPT_experiment_5_30_19,3.1.0,59.94593176328441,
,,,C,G,y,b,R,D,d,R,c ,,,,,5,19,119,5,4,0,4,0,,,,,0,11,11,1,,,,,,up,0.5504264943901944,1959.282781266244,None,001,44,2019_Oct_21_1007,ACPT_experiment_5_30_19,3.1.0,59.94593176328441,
,,,C,G,y,b,R,D,y,L,y,,,,,5,19,119,5,4,0,4,0,,,,,0,12,12,26,,,,,,down,0.7005589192535808,1961.100824614181,None,001,44,2019_Oct_21_1007,ACPT_experiment_5_30_19,3.1.0,59.94593176328441,
,,,C,G,y,b,R,G,d,R,i,,,,,5,19,119,5,4,0,4,0,,,,,0,13,13,5,,,,,,up,0.6002009766898482,1963.1026390793108,None,001,44,2019_Oct_21_1007,ACPT_experiment_5_30_19,3.1.0,59.94593176328441,
,,,C,G,y,b,L,D,d,L,c ,,,,,5,19,119,5,4,0,4,0,,,,,0,14,14,12,,,,,,up,0.8339753841287347,1964.9871635119543,None,001,44,2019_Oct_21_1007,ACPT_experiment_5_30_19,3.1.0,59.94593176328441,
,,,C,G,y,b,L,U,g,R,u,,,,,5,19,119,5,4,0,4,0,,,,,0,15,15,23,,,,,,up,0.7339120544356774,1967.1054578241756,None,001,44,2019_Oct_21_1007,ACPT_experiment_5_30_19,3.1.0,59.94593176328441,
,,,C,G,y,b,R,D,y,R,y,,,,,5,19,119,5,4,0,4,0,,,,,0,16,16,27,,,,,,down,0.700541411521499,1969.1236682803965,None,001,44,2019_Oct_21_1007,ACPT_experiment_5_30_19,3.1.0,59.94593176328441,
,,,C,G,y,b,R,U,d,L,u,,,,,5,19,119,5,4,0,4,0,,,,,0,17,17,8,,,,,,up,0.5671029110530981,1971.108530431155,None,001,44,2019_Oct_21_1007,ACPT_experiment_5_30_19,3.1.0,59.94593176328441,
,,,C,G,y,b,R,U,g,L,u,,,,,5,19,119,5,4,0,4,0,,,,,0,18,18,10,,,,,,up,0.4670504482282922,1972.9432471771802,None,001,44,2019_Oct_21_1007,ACPT_experiment_5_30_19,3.1.0,59.94593176328441,
,,,C,G,y,b,R,U,d,R,u,,,,,5,19,119,5,4,0,4,0,,,,,0,19,19,9,,,,,,up,0.6504964649475369,1974.6779359108336,None,001,44,2019_Oct_21_1007,ACPT_experiment_5_30_19,3.1.0,59.94593176328441,
,,,C,G,y,b,L,U,d,L,u,,,,,5,19,119,5,4,0,4,0,,,,,0,20,20,20,,,,,,up,0.5170621904826476,1976.6127561335925,None,001,44,2019_Oct_21_1007,ACPT_experiment_5_30_19,3.1.0,59.94593176328441,
,,,C,G,y,b,R,D,g,L,i,,,,,5,19,119,5,4,0,4,0,,,,,0,21,21,2,,,,,,up,0.7172148096096862,1978.4141363465951,None,001,44,2019_Oct_21_1007,ACPT_experiment_5_30_19,3.1.0,59.94593176328441,
,,,C,G,y,b,R,D,g,R,i,,,,,5,19,119,5,4,0,4,0,,,,,0,22,22,3,,,,,,up,0.6171584226376581,1980.3989936676344,None,001,44,2019_Oct_21_1007,ACPT_experiment_5_30_19,3.1.0,59.94593176328441,
,,,C,G,y,b,L,D,g,L,i,,,,,5,19,119,5,4,0,4,0,,,,,0,23,23,14,,,,,,up,0.4500788149798609,1982.3174006934269,None,001,44,2019_Oct_21_1007,ACPT_experiment_5_30_19,3.1.0,59.94593176328441,
,,,C,G,y,b,L,G,d,R,i,,,,,5,19,119,5,4,0,4,0,,,,,0,24,24,17,,,,,,up,0.4837075460136475,1984.0517987383569,None,001,44,2019_Oct_21_1007,ACPT_experiment_5_30_19,3.1.0,59.94593176328441,
,,,C,G,y,b,R,G,d,L,i,,,,,5,19,119,5,4,0,4,0,,,,,0,25,25,4,,,,,,up,0.500373095807845,1985.819824910605,None,001,44,2019_Oct_21_1007,ACPT_experiment_5_30_19,3.1.0,59.94593176328441,
,,,C,G,y,b,L,U,y,R,u,,,,,5,19,119,5,4,0,4,0,,,,,0,26,26,25,,,,,,down,0.6503865888357723,1987.621293869698,None,001,44,2019_Oct_21_1007,ACPT_experiment_5_30_19,3.1.0,59.94593176328441,
,,,C,G,y,b,R,G,g,L,c ,,,,,5,19,119,5,4,0,4,0,,,,,0,27,27,6,,,,,,up,0.6669241510712709,1989.5729513991396,None,001,44,2019_Oct_21_1007,ACPT_experiment_5_30_19,3.1.0,59.94593176328441,
,,,C,G,y,b,R,G,y,R,y,,,,,5,19,119,5,4,0,4,0,,,,,0,28,28,29,,,,,,down,0.5504198535268188,1991.5242017228816,None,001,44,2019_Oct_21_1007,ACPT_experiment_5_30_19,3.1.0,59.94593176328441,
,,,C,G,y,b,R,D,d,L,c,,,,,5,19,119,5,4,0,4,0,,,,,0,29,29,0,,,,,,up,0.8340140218824672,1993.358945636077,None,001,44,2019_Oct_21_1007,ACPT_experiment_5_30_19,3.1.0,59.94593176328441,
,,,C,G,y,b,R,G,g,R,c ,,,,,5,19,119,5,4,0,4,0,,,,,0,30,30,7,,,,,,up,0.5003848682481475,1995.4772375334383,None,001,44,2019_Oct_21_1007,ACPT_experiment_5_30_19,3.1.0,59.94593176328441,
,,,C,G,y,b,R,U,g,R,u,,,,,5,19,119,5,4,0,4,0,,,,,0,31,31,11,,,,,,up,0.5804573864820668,1997.2819460266805,None,001,44,2019_Oct_21_1007,ACPT_experiment_5_30_19,3.1.0,59.94593176328441,
,,,C,G,y,b,L,G,y,R,y,,,,,5,19,119,5,4,0,4,0,,,,,0,32,32,35,,,,,,down,0.783931041269625,1999.1467241523997,None,001,44,2019_Oct_21_1007,ACPT_experiment_5_30_19,3.1.0,59.94593176328441,
,,,C,G,y,b,L,D,y,R,y,,,,,5,19,119,5,4,0,4,0,,,,,0,33,33,33,,,,,,down,0.6671828429057314,2001.214970197614,None,001,44,2019_Oct_21_1007,ACPT_experiment_5_30_19,3.1.0,59.94593176328441,
,,,C,G,y,b,L,G,g,L,c ,,,,,5,19,119,5,4,0,4,0,,,,,0,34,34,18,,,,,,up,0.6838556372786115,2003.1664764964735,None,001,44,2019_Oct_21_1007,ACPT_experiment_5_30_19,3.1.0,59.94593176328441,
,,,C,G,y,b,R,G,y,L,y,,,,,5,19,119,5,4,0,4,0,,,,,0,35,35,28,,,,,,down,0.6505332915562576,2005.134654382276,None,001,44,2019_Oct_21_1007,ACPT_experiment_5_30_19,3.1.0,59.94593176328441,
,,,C,G,y,b,R,D,g,L,i,,,,,5,19,119,5,4,0,4,0,,,,,1,0,36,2,,,,,,up,0.5837802332871433,2007.0694682660283,None,001,44,2019_Oct_21_1007,ACPT_experiment_5_30_19,3.1.0,59.94593176328441,
,,,C,G,y,b,L,D,g,L,i,,,,,5,19,119,5,4,0,4,0,,,,,1,1,37,14,,,,,,up,0.5504174386674094,2008.9375749738442,None,001,44,2019_Oct_21_1007,ACPT_experiment_5_30_19,3.1.0,59.94593176328441,
,,,C,G,y,b,L,U,y,L,u,,,,,5,19,119,5,4,0,4,0,,,,,1,2,38,24,,,,,,down,0.7171725495668397,2010.7890218671573,None,001,44,2019_Oct_21_1007,ACPT_experiment_5_30_19,3.1.0,59.94593176328441,
,,,C,G,y,b,R,G,y,L,y,,,,,5,19,119,5,4,0,4,0,,,,,1,3,39,28,,,,,,down,0.8840290845691925,2012.8071882521913,None,001,44,2019_Oct_21_1007,ACPT_experiment_5_30_19,3.1.0,59.94593176328441,
,,,C,G,y,b,R,U,d,R,u,,,,,5,19,119,5,4,0,4,0,,,,,1,4,40,9,,,,,,up,0.8339575745389993,2014.992225661385,None,001,44,2019_Oct_21_1007,ACPT_experiment_5_30_19,3.1.0,59.94593176328441,
,,,C,G,y,b,R,G,g,R,c ,,,,,5,19,119,5,4,0,4,0,,,,,1,5,41,7,,,,,,up,0.717216922611442,2017.1105184643184,None,001,44,2019_Oct_21_1007,ACPT_experiment_5_30_19,3.1.0,59.94593176328441,
,,,C,G,y,b,L,G,y,R,y,,,,,5,19,119,5,4,0,4,0,,,,,1,6,42,35,,,,,,down,0.7339727277835664,2019.112026845994,None,001,44,2019_Oct_21_1007,ACPT_experiment_5_30_19,3.1.0,59.94593176328441,
,,,C,G,y,b,R,U,y,L,u,,,,,5,19,119,5,4,0,4,0,,,,,1,7,43,30,,,,,,down,1.3176796097100123,2021.1302608470965,None,001,44,2019_Oct_21_1007,ACPT_experiment_5_30_19,3.1.0,59.94593176328441,
,,,C,G,y,b,L,U,d,R,u,,,,,5,19,119,5,4,0,4,0,,,,,1,8,44,21,,,,,,up,0.6338146148509622,2023.7322636109034,None,001,44,2019_Oct_21_1007,ACPT_experiment_5_30_19,3.1.0,59.94593176328441,
,,,C,G,y,b,L,D,g,R,i,,,,,5,19,119,5,4,0,4,0,,,,,1,9,45,15,,,,,,up,0.41698648463443533,2025.650400172421,None,001,44,2019_Oct_21_1007,ACPT_experiment_5_30_19,3.1.0,59.94593176328441,
,,,C,G,y,b,R,D,g,R,i,,,,,5,19,119,5,4,0,4,0,,,,,1,10,46,3,,,,,,up,0.4503375068143214,2027.3350321870598,None,001,44,2019_Oct_21_1007,ACPT_experiment_5_30_19,3.1.0,59.94593176328441,
,,,C,G,y,b,R,G,g,L,c ,,,,,5,19,119,5,4,0,4,0,,,,,1,11,47,6,,,,,,up,0.567111664919139,2029.0696931498283,None,001,44,2019_Oct_21_1007,ACPT_experiment_5_30_19,3.1.0,59.94593176328441,
,,,C,G,y,b,L,U,g,R,u,,,,,5,19,119,5,4,0,4,0,,,,,1,12,48,23,,,,,,up,0.41365699696507363,2030.9411181765877,None,001,44,2019_Oct_21_1007,ACPT_experiment_5_30_19,3.1.0,59.94593176328441,
,,,C,G,y,b,L,U,y,R,u,,,,,5,19,119,5,4,0,4,0,,,,,1,13,49,25,,,,,,down,0.6838613725699361,2032.6390934979304,None,001,44,2019_Oct_21_1007,ACPT_experiment_5_30_19,3.1.0,59.94593176328441,
,,,C,G,y,b,R,U,y,R,u,,,,,5,19,119,5,4,0,4,0,,,,,1,14,50,31,,,,,,down,0.46701996062574835,2034.5905997967898,None,001,44,2019_Oct_21_1007,ACPT_experiment_5_30_19,3.1.0,59.94593176328441,
,,,C,G,y,b,R,D,y,L,y,,,,,5,19,119,5,4,0,4,0,,,,,1,15,51,26,,,,,,down,0.5004111298462703,2036.3252547224088,None,001,44,2019_Oct_21_1007,ACPT_experiment_5_30_19,3.1.0,59.94593176328441,
,,,C,G,y,b,R,D,d,R,c ,,,,,5,19,119,5,4,0,4,0,,,,,1,16,52,1,,,,,,up,0.5001316098482675,2038.1268887975266,None,001,44,2019_Oct_21_1007,ACPT_experiment_5_30_19,3.1.0,59.94593176328441,
,,,C,G,y,b,L,U,g,L,u,,,,,5,19,119,5,4,0,4,0,,,,,1,17,53,22,,,,,,up,0.4837289778924969,2039.9113477874757,None,001,44,2019_Oct_21_1007,ACPT_experiment_5_30_19,3.1.0,59.94593176328441,
,,,C,G,y,b,L,G,d,R,i,,,,,5,19,119,5,4,0,4,0,,,,,1,18,54,17,,,,,,up,0.4003034271086108,2041.6793718467216,None,001,44,2019_Oct_21_1007,ACPT_experiment_5_30_19,3.1.0,59.94593176328441,
,,,C,G,y,b,L,D,y,L,y,,,,,5,19,119,5,4,0,4,0,,,,,1,19,55,32,,,,,,down,0.8006506235469715,2043.3640044650756,None,001,44,2019_Oct_21_1007,ACPT_experiment_5_30_19,3.1.0,59.94593176328441,
,,,C,G,y,b,L,G,g,L,c ,,,,,5,19,119,5,4,0,4,0,,,,,1,20,56,18,,,,,,up,0.667150846016284,2045.465632925645,None,001,44,2019_Oct_21_1007,ACPT_experiment_5_30_19,3.1.0,59.94593176328441,
,,,C,G,y,b,R,U,g,R,u,,,,,5,19,119,5,4,0,4,0,,,,,1,21,57,11,,,,,,up,2.3685084800813456,2047.417113566621,None,001,44,2019_Oct_21_1007,ACPT_experiment_5_30_19,3.1.0,59.94593176328441,
,,,C,G,y,b,R,G,d,L,i,,,,,5,19,119,5,4,0,4,0,,,,,1,22,58,4,,,,,,up,0.5337503795858538,2051.0699156187684,None,001,44,2019_Oct_21_1007,ACPT_experiment_5_30_19,3.1.0,59.94593176328441,
,,,C,G,y,b,L,G,y,L,y,,,,,5,19,119,5,4,0,4,0,,,,,1,23,59,34,,,,,,down,0.717213300322328,2052.904666172828,None,001,44,2019_Oct_21_1007,ACPT_experiment_5_30_19,3.1.0,59.94593176328441,
,,,C,G,y,b,R,D,y,R,y,,,,,5,19,119,5,4,0,4,0,,,,,1,24,60,27,,,,,,down,1.8848030470699086,2054.922875723477,None,001,44,2019_Oct_21_1007,ACPT_experiment_5_30_19,3.1.0,59.94593176328441,
,,,C,G,y,b,R,D,d,L,c,,,,,5,19,119,5,4,0,4,0,,,,,1,25,61,0,,,,,,down,0.66718767262455,2058.0919687203236,None,001,44,2019_Oct_21_1007,ACPT_experiment_5_30_19,3.1.0,59.94593176328441,
,,,C,G,y,b,L,D,y,R,y,,,,,5,19,119,5,4,0,4,0,,,,,1,26,62,33,,,,,,down,0.6338402727342327,2060.043469585749,None,001,44,2019_Oct_21_1007,ACPT_experiment_5_30_19,3.1.0,59.94593176328441,
,,,C,G,y,b,R,G,d,R,i,,,,,5,19,119,5,4,0,4,0,,,,,1,27,63,5,,,,,,up,0.7172205449010107,2061.9616088639837,None,001,44,2019_Oct_21_1007,ACPT_experiment_5_30_19,3.1.0,59.94593176328441,
,,,C,G,y,b,R,U,g,L,u,,,,,5,19,119,5,4,0,4,0,,,,,1,28,64,10,,,,,,up,0.4837057348690905,2063.9631462239745,None,001,44,2019_Oct_21_1007,ACPT_experiment_5_30_19,3.1.0,59.94593176328441,
,,,C,G,y,b,R,G,y,R,y,,,,,5,19,119,5,4,0,4,0,,,,,1,29,65,29,,,,,,down,0.6671586943098191,2065.7311908095276,None,001,44,2019_Oct_21_1007,ACPT_experiment_5_30_19,3.1.0,59.94593176328441,
,,,C,G,y,b,L,U,d,L,u,,,,,5,19,119,5,4,0,4,0,,,,,1,30,66,20,,,,,,up,0.7005546932491598,2067.682646698193,None,001,44,2019_Oct_21_1007,ACPT_experiment_5_30_19,3.1.0,59.94593176328441,
,,,C,G,y,b,R,U,d,L,u,,,,,5,19,119,5,4,0,4,0,,,,,1,31,67,8,,,,,,up,0.9640759449193865,2069.687537694449,None,001,44,2019_Oct_21_1007,ACPT_experiment_5_30_19,3.1.0,59.94593176328441,
,,,C,G,y,b,L,G,g,R,c ,,,,,5,19,119,5,4,0,4,0,,,,,1,32,68,19,,,,,,up,0.6504979742344403,2071.935935887893,None,001,44,2019_Oct_21_1007,ACPT_experiment_5_30_19,3.1.0,59.94593176328441,
,,,C,G,y,b,L,G,d,L,i,,,,,5,19,119,5,4,0,4,0,,,,,1,33,69,16,,,,,,up,0.867357497626017,2073.8707512809324,None,001,44,2019_Oct_21_1007,ACPT_experiment_5_30_19,3.1.0,59.94593176328441,
,,,C,G,y,b,L,D,d,L,c ,,,,,5,19,119,5,4,0,4,0,,,,,1,34,70,12,,,,,,up,0.7338999801377213,2076.022406274771,None,001,44,2019_Oct_21_1007,ACPT_experiment_5_30_19,3.1.0,59.94593176328441,
,,,C,G,y,b,L,D,d,R,c ,,,,,5,19,119,5,4,0,4,0,,,,,1,35,71,13,,,,,,up,1.0174470587312499,2078.0239418236174,None,001,44,2019_Oct_21_1007,ACPT_experiment_5_30_19,3.1.0,59.94593176328441,
,,,C,G,y,b,,,,,,,,,,5,19,119,5,5,0,5,0,0,0,0,0,,,,,,,,,,,,,,001,44,2019_Oct_21_1007,ACPT_experiment_5_30_19,3.1.0,59.94593176328441,
,,,C,G,y,b,L,U,g,L,u,,,,,5,19,119,5,5,0,5,0,,,,,0,0,0,22,,,,,,up,0.5804510474754352,2093.0721605326216,None,001,44,2019_Oct_21_1007,ACPT_experiment_5_30_19,3.1.0,59.94593176328441,
,,,C,G,y,b,L,G,y,L,y,,,,,5,19,119,5,5,0,5,0,,,,,0,1,1,34,,,,,,down,0.6338215575724462,2094.9369265840423,None,001,44,2019_Oct_21_1007,ACPT_experiment_5_30_19,3.1.0,59.94593176328441,
,,,C,G,y,b,R,D,g,L,i,,,,,5,19,119,5,5,0,5,0,,,,,0,2,2,2,,,,,,up,0.5003996592631665,2096.85506314556,None,001,44,2019_Oct_21_1007,ACPT_experiment_5_30_19,3.1.0,59.94593176328441,
,,,C,G,y,b,R,U,g,R,u,,,,,5,19,119,5,5,0,5,0,,,,,0,3,3,11,,,,,,up,0.5170600774808918,2098.639769960475,None,001,44,2019_Oct_21_1007,ACPT_experiment_5_30_19,3.1.0,59.94593176328441,
,,,C,G,y,b,R,U,d,L,u,,,,,5,19,119,5,5,0,5,0,,,,,0,4,4,8,,,,,,up,0.43357807935353776,2100.4244484007895,None,001,44,2019_Oct_21_1007,ACPT_experiment_5_30_19,3.1.0,59.94593176328441,
,,,C,G,y,b,L,U,y,L,u,,,,,5,19,119,5,5,0,5,0,,,,,0,5,5,24,,,,,,down,0.7172338266286715,2102.142455586204,None,001,44,2019_Oct_21_1007,ACPT_experiment_5_30_19,3.1.0,59.94593176328441,
,,,C,G,y,b,R,D,d,L,c,,,,,5,19,119,5,5,0,5,0,,,,,0,6,6,0,,,,,,up,0.5504252869609445,2104.143992040623,None,001,44,2019_Oct_21_1007,ACPT_experiment_5_30_19,3.1.0,59.94593176328441,
,,,C,G,y,b,L,G,d,L,i,,,,,5,19,119,5,5,0,5,0,,,,,0,7,7,16,,,,,,up,0.6001919209666084,2105.9956861551873,None,001,44,2019_Oct_21_1007,ACPT_experiment_5_30_19,3.1.0,59.94593176328441,
,,,C,G,y,b,L,D,g,L,i,,,,,5,19,119,5,5,0,5,0,,,,,0,8,8,14,,,,,,up,0.5004201855699648,2107.880181609516,None,001,44,2019_Oct_21_1007,ACPT_experiment_5_30_19,3.1.0,59.94593176328441,
,,,C,G,y,b,L,G,g,L,c ,,,,,5,19,119,5,5,0,5,0,,,,,0,9,9,18,,,,,,up,0.4003028233933037,2109.6649014043014,None,001,44,2019_Oct_21_1007,ACPT_experiment_5_30_19,3.1.0,59.94593176328441,
,,,C,G,y,b,L,U,y,R,u,,,,,5,19,119,5,5,0,5,0,,,,,0,10,10,25,,,,,,down,0.7339069228587505,2111.349530400366,None,001,44,2019_Oct_21_1007,ACPT_experiment_5_30_19,3.1.0,59.94593176328441,
,,,C,G,y,b,R,U,d,R,u,,,,,5,19,119,5,5,0,5,0,,,,,0,11,11,9,,,,,,up,0.7806075907487866,2113.3877494776357,None,001,44,2019_Oct_21_1007,ACPT_experiment_5_30_19,3.1.0,59.94593176328441,
,,,C,G,y,b,L,D,d,L,c ,,,,,5,19,119,5,5,0,5,0,,,,,0,12,12,12,,,,,,up,0.8673312360274394,2115.452676298334,None,001,44,2019_Oct_21_1007,ACPT_experiment_5_30_19,3.1.0,59.94593176328441,
,,,C,G,y,b,R,G,d,R,i,,,,,5,19,119,5,5,0,5,0,,,,,0,13,13,5,,,,,,up,0.7005441282385618,2117.604314690014,None,001,44,2019_Oct_21_1007,ACPT_experiment_5_30_19,3.1.0,59.94593176328441,
,,,C,G,y,b,L,U,d,R,u,,,,,5,19,119,5,5,0,5,0,,,,,0,14,14,21,,,,,,up,0.8673529697639424,2119.5891629553294,None,001,44,2019_Oct_21_1007,ACPT_experiment_5_30_19,3.1.0,59.94593176328441,
,,,C,G,y,b,R,U,y,L,u,,,,,5,19,119,5,5,0,5,0,,,,,0,15,15,30,,,,,,down,0.9840866789704705,2121.7575148921374,None,001,44,2019_Oct_21_1007,ACPT_experiment_5_30_19,3.1.0,59.94593176328441,
,,,C,G,y,b,L,U,g,R,u,,,,,5,19,119,5,5,0,5,0,,,,,0,16,16,23,,,,,,up,0.46701513090647495,2124.042615631024,None,001,44,2019_Oct_21_1007,ACPT_experiment_5_30_19,3.1.0,59.94593176328441,
,,,C,G,y,b,R,G,g,R,c ,,,,,5,19,119,5,5,0,5,0,,,,,0,17,17,7,,,,,,up,0.5504225702438816,2125.793947878878,None,001,44,2019_Oct_21_1007,ACPT_experiment_5_30_19,3.1.0,59.94593176328441,
,,,C,G,y,b,L,D,g,R,i,,,,,5,19,119,5,5,0,5,0,,,,,0,18,18,15,,,,,,up,0.5001095742541111,2127.645643804587,None,001,44,2019_Oct_21_1007,ACPT_experiment_5_30_19,3.1.0,59.94593176328441,
,,,C,G,y,b,L,D,y,L,y,,,,,5,19,119,5,5,0,5,0,,,,,0,19,19,32,,,,,,down,0.667182239190879,2129.4300756273656,None,001,44,2019_Oct_21_1007,ACPT_experiment_5_30_19,3.1.0,59.94593176328441,
,,,C,G,y,b,R,U,g,L,u,,,,,5,19,119,5,5,0,5,0,,,,,0,20,20,10,,,,,,up,0.5670953646167618,2131.381570455642,None,001,44,2019_Oct_21_1007,ACPT_experiment_5_30_19,3.1.0,59.94593176328441,
,,,C,G,y,b,L,G,y,R,y,,,,,5,19,119,5,5,0,5,0,,,,,0,21,21,35,,,,,,down,0.8673327453147976,2133.232992596644,None,001,44,2019_Oct_21_1007,ACPT_experiment_5_30_19,3.1.0,59.94593176328441,
,,,C,G,y,b,L,G,d,R,i,,,,,5,19,119,5,5,0,5,0,,,,,0,22,22,17,,,,,,up,0.8172953451767171,2135.3846442700515,None,001,44,2019_Oct_21_1007,ACPT_experiment_5_30_19,3.1.0,59.94593176328441,
,,,C,G,y,b,R,D,g,R,i,,,,,5,19,119,5,5,0,5,0,,,,,0,23,23,3,,,,,,up,0.6004448775092897,2137.486264278612,None,001,44,2019_Oct_21_1007,ACPT_experiment_5_30_19,3.1.0,59.94593176328441,
,,,C,G,y,b,R,G,g,L,c ,,,,,5,19,119,5,5,0,5,0,,,,,0,24,24,6,,,,,,up,0.9340489769747364,2139.354361628847,None,001,44,2019_Oct_21_1007,ACPT_experiment_5_30_19,3.1.0,59.94593176328441,
,,,C,G,y,b,R,D,y,R,y,,,,,5,19,119,5,5,0,5,0,,,,,0,25,25,27,,,,,,down,0.7338848872650487,2141.5727271190544,None,001,44,2019_Oct_21_1007,ACPT_experiment_5_30_19,3.1.0,59.94593176328441,
,,,C,G,y,b,R,D,y,L,y,,,,,5,19,119,5,5,0,5,0,,,,,0,26,26,26,,,,,,down,1.5512173609085949,2143.590939084563,None,001,44,2019_Oct_21_1007,ACPT_experiment_5_30_19,3.1.0,59.94593176328441,
,,,C,G,y,b,R,U,y,R,u,,,,,5,19,119,5,5,0,5,0,,,,,0,27,27,31,,,,,,down,1.100843631200405,2146.426457262117,None,001,44,2019_Oct_21_1007,ACPT_experiment_5_30_19,3.1.0,59.94593176328441,
,,,C,G,y,b,R,G,y,L,y,,,,,5,19,119,5,5,0,5,0,,,,,0,28,28,28,,,,,,down,0.6671722778951334,2148.828299860361,None,001,44,2019_Oct_21_1007,ACPT_experiment_5_30_19,3.1.0,59.94593176328441,
,,,C,G,y,b,L,U,d,L,u,,,,,5,19,119,5,5,0,5,0,,,,,0,29,29,20,,,,,,up,0.6338097851316888,2150.796479557308,None,001,44,2019_Oct_21_1007,ACPT_experiment_5_30_19,3.1.0,59.94593176328441,
,,,C,G,y,b,L,D,y,R,y,,,,,5,19,119,5,5,0,5,0,,,,,0,30,30,33,,,,,,down,0.7338954522761014,2152.7146164206833,None,001,44,2019_Oct_21_1007,ACPT_experiment_5_30_19,3.1.0,59.94593176328441,
,,,C,G,y,b,L,D,d,R,c ,,,,,5,19,119,5,5,0,5,0,,,,,0,31,31,13,,,,,,up,0.5337404182896535,2154.732829895479,None,001,44,2019_Oct_21_1007,ACPT_experiment_5_30_19,3.1.0,59.94593176328441,
,,,C,G,y,b,R,G,y,R,y,,,,,5,19,119,5,5,0,5,0,,,,,0,32,32,29,,,,,,down,0.5170624923403011,2156.5508949771524,None,001,44,2019_Oct_21_1007,ACPT_experiment_5_30_19,3.1.0,59.94593176328441,
,,,C,G,y,b,R,D,d,R,c ,,,,,5,19,119,5,5,0,5,0,,,,,0,33,33,1,,,,,,up,0.5504071755135556,2158.385646436784,None,001,44,2019_Oct_21_1007,ACPT_experiment_5_30_19,3.1.0,59.94593176328441,
,,,C,G,y,b,L,G,g,R,c ,,,,,5,19,119,5,5,0,5,0,,,,,0,34,34,19,,,,,,up,0.5003803403865277,2160.2203770682518,None,001,44,2019_Oct_21_1007,ACPT_experiment_5_30_19,3.1.0,59.94593176328441,
,,,C,G,y,b,R,G,d,L,i,,,,,5,19,119,5,5,0,5,0,,,,,0,35,35,4,,,,,,up,0.5838070986005732,2162.005051886277,None,001,44,2019_Oct_21_1007,ACPT_experiment_5_30_19,3.1.0,59.94593176328441,
,,,C,G,y,b,R,D,d,R,c ,,,,,5,19,119,5,5,0,5,0,,,,,1,0,36,1,,,,,,up,0.6004596685243087,2163.8731812334017,None,001,44,2019_Oct_21_1007,ACPT_experiment_5_30_19,3.1.0,59.94593176328441,
,,,C,G,y,b,R,U,y,R,u,,,,,5,19,119,5,5,0,5,0,,,,,1,1,37,31,,,,,,down,0.6004599703819622,2165.8079948152968,None,001,44,2019_Oct_21_1007,ACPT_experiment_5_30_19,3.1.0,59.94593176328441,
,,,C,G,y,b,R,G,y,R,y,,,,,5,19,119,5,5,0,5,0,,,,,1,2,38,29,,,,,,down,0.5670841958913115,2167.7094748827435,None,001,44,2019_Oct_21_1007,ACPT_experiment_5_30_19,3.1.0,59.94593176328441,
,,,C,G,y,b,L,U,d,R,u,,,,,5,19,119,5,5,0,5,0,,,,,1,3,39,21,,,,,,up,0.5837808370024504,2169.560882232731,None,001,44,2019_Oct_21_1007,ACPT_experiment_5_30_19,3.1.0,59.94593176328441,
,,,C,G,y,b,R,G,g,L,c ,,,,,5,19,119,5,5,0,5,0,,,,,1,4,40,6,,,,,,up,0.5504195516691652,2171.428984412685,None,001,44,2019_Oct_21_1007,ACPT_experiment_5_30_19,3.1.0,59.94593176328441,
,,,C,G,y,b,L,D,y,L,y,,,,,5,19,119,5,5,0,5,0,,,,,1,5,41,32,,,,,,down,0.7169693995028865,2173.3140026841165,None,001,44,2019_Oct_21_1007,ACPT_experiment_5_30_19,3.1.0,59.94593176328441,
,,,C,G,y,b,R,G,g,R,c ,,,,,5,19,119,5,5,0,5,0,,,,,1,6,42,7,,,,,,up,0.7505788116595795,2175.3319921806847,None,001,44,2019_Oct_21_1007,ACPT_experiment_5_30_19,3.1.0,59.94593176328441,
,,,C,G,y,b,L,G,y,R,y,,,,,5,19,119,5,5,0,5,0,,,,,1,7,43,35,,,,,,down,0.7338966597058061,2177.366872412704,None,001,44,2019_Oct_21_1007,ACPT_experiment_5_30_19,3.1.0,59.94593176328441,
,,,C,G,y,b,R,G,y,L,y,,,,,5,19,119,5,5,0,5,0,,,,,1,8,44,28,,,,,,down,0.767257341324239,2179.3850919246493,None,001,44,2019_Oct_21_1007,ACPT_experiment_5_30_19,3.1.0,59.94593176328441,
,,,C,G,y,b,L,U,d,L,u,,,,,5,19,119,5,5,0,5,0,,,,,1,9,45,20,,,,,,up,0.6505012946663555,2181.4366657792057,None,001,44,2019_Oct_21_1007,ACPT_experiment_5_30_19,3.1.0,59.94593176328441,
,,,C,G,y,b,L,U,g,R,u,,,,,5,19,119,5,5,0,5,0,,,,,1,10,46,23,,,,,,up,1.351064741782011,2183.354782719989,None,001,44,2019_Oct_21_1007,ACPT_experiment_5_30_19,3.1.0,59.94593176328441,
,,,C,G,y,b,L,D,y,R,y,,,,,5,19,119,5,5,0,5,0,,,,,1,11,47,33,,,,,,down,0.7505797172320854,2185.9901612582867,None,001,44,2019_Oct_21_1007,ACPT_experiment_5_30_19,3.1.0,59.94593176328441,
,,,C,G,y,b,R,U,d,R,u,,,,,5,19,119,5,5,0,5,0,,,,,1,12,48,9,,,,,,up,0.58379442058731,2188.0250571868937,None,001,44,2019_Oct_21_1007,ACPT_experiment_5_30_19,3.1.0,59.94593176328441,
,,,C,G,y,b,L,U,y,L,u,,,,,5,19,119,5,5,0,5,0,,,,,1,13,49,24,,,,,,down,1.2342839428138177,2189.8931509148397,None,001,44,2019_Oct_21_1007,ACPT_experiment_5_30_19,3.1.0,59.94593176328441,
,,,C,G,y,b,L,D,g,R,i,,,,,5,19,119,5,5,0,5,0,,,,,1,14,50,15,,,,,,up,0.750576698657369,2192.411756502462,None,001,44,2019_Oct_21_1007,ACPT_experiment_5_30_19,3.1.0,59.94593176328441,
,,,C,G,y,b,R,D,g,L,i,,,,,5,19,119,5,5,0,5,0,,,,,1,15,51,2,,,,,,up,0.6171925325293159,2194.4466539403566,None,001,44,2019_Oct_21_1007,ACPT_experiment_5_30_19,3.1.0,59.94593176328441,
,,,C,G,y,b,L,D,d,R,c ,,,,,5,19,119,5,5,0,5,0,,,,,1,16,52,13,,,,,,up,0.6004608759540133,2196.348115594499,None,001,44,2019_Oct_21_1007,ACPT_experiment_5_30_19,3.1.0,59.94593176328441,
,,,C,G,y,b,R,G,d,L,i,,,,,5,19,119,5,5,0,5,0,,,,,1,17,53,4,,,,,,up,0.48370301815202765,2198.2495872099375,None,001,44,2019_Oct_21_1007,ACPT_experiment_5_30_19,3.1.0,59.94593176328441,
,,,C,G,y,b,R,U,g,L,u,,,,,5,19,119,5,5,0,5,0,,,,,1,18,54,10,,,,,,up,0.46701905505369723,2200.0175982893134,None,001,44,2019_Oct_21_1007,ACPT_experiment_5_30_19,3.1.0,59.94593176328441,
,,,C,G,y,b,L,G,d,L,i,,,,,5,19,119,5,5,0,5,0,,,,,1,19,55,16,,,,,,up,0.45034263839124833,2201.7689435170378,None,001,44,2019_Oct_21_1007,ACPT_experiment_5_30_19,3.1.0,59.94593176328441,
,,,C,G,y,b,R,U,g,R,u,,,,,5,19,119,5,5,0,5,0,,,,,1,20,56,11,,,,,,up,0.6504753349258863,2203.5036189689636,None,001,44,2019_Oct_21_1007,ACPT_experiment_5_30_19,3.1.0,59.94593176328441,
,,,C,G,y,b,R,U,d,L,u,,,,,5,19,119,5,5,0,5,0,,,,,1,21,57,8,,,,,,up,0.4667452703465642,2205.4386984872717,None,001,44,2019_Oct_21_1007,ACPT_experiment_5_30_19,3.1.0,59.94593176328441,
,,,C,G,y,b,R,D,y,R,y,,,,,5,19,119,5,5,0,5,0,,,,,1,22,58,27,,,,,,down,0.5504114015179766,2207.18977808044,None,001,44,2019_Oct_21_1007,ACPT_experiment_5_30_19,3.1.0,59.94593176328441,
,,,C,G,y,b,L,U,g,L,u,,,,,5,19,119,5,5,0,5,0,,,,,1,23,59,22,,,,,,up,0.5504222683862281,2209.0245129379123,None,001,44,2019_Oct_21_1007,ACPT_experiment_5_30_19,3.1.0,59.94593176328441,
,,,C,G,y,b,L,G,g,R,c ,,,,,5,19,119,5,5,0,5,0,,,,,1,24,60,19,,,,,,up,0.550450944844215,2210.859226363505,None,001,44,2019_Oct_21_1007,ACPT_experiment_5_30_19,3.1.0,59.94593176328441,
,,,C,G,y,b,R,G,d,R,i,,,,,5,19,119,5,5,0,5,0,,,,,1,25,61,5,,,,,,up,0.51706158676825,2212.710681105112,None,001,44,2019_Oct_21_1007,ACPT_experiment_5_30_19,3.1.0,59.94593176328441,
,,,C,G,y,b,L,D,d,L,c ,,,,,5,19,119,5,5,0,5,0,,,,,1,26,62,12,,,,,,up,0.5504418891205205,2214.5120326416572,None,001,44,2019_Oct_21_1007,ACPT_experiment_5_30_19,3.1.0,59.94593176328441,
,,,C,G,y,b,R,D,y,L,y,,,,,5,19,119,5,5,0,5,0,,,,,1,27,63,26,,,,,,down,0.6671843521926348,2216.346798288589,None,001,44,2019_Oct_21_1007,ACPT_experiment_5_30_19,3.1.0,59.94593176328441,
,,,C,G,y,b,L,G,d,R,i,,,,,5,19,119,5,5,0,5,0,,,,,1,28,64,17,,,,,,up,0.6505366119881728,2218.2982952298676,None,001,44,2019_Oct_21_1007,ACPT_experiment_5_30_19,3.1.0,59.94593176328441,
,,,C,G,y,b,R,D,d,L,c,,,,,5,19,119,5,5,0,5,0,,,,,1,29,65,0,,,,,,up,0.5504811305891053,2220.2331181693435,None,001,44,2019_Oct_21_1007,ACPT_experiment_5_30_19,3.1.0,59.94593176328441,
,,,C,G,y,b,L,D,g,L,i,,,,,5,19,119,5,5,0,5,0,,,,,1,30,66,14,,,,,,up,0.41698437163267954,2222.067858762107,None,001,44,2019_Oct_21_1007,ACPT_experiment_5_30_19,3.1.0,59.94593176328441,
