facing_vig,person_vig,text_vig,facing_train,person_train,food_train,correct_key_train,facing_exp,person_exp,food_exp,showL_R,consistent,vig_random.thisRepN,vig_random.thisTrialN,vig_random.thisN,vig_random.thisIndex,trainTrials.thisRepN,trainTrials.thisTrialN,trainTrials.thisN,trainTrials.thisIndex,expBlock.thisRepN,expBlock.thisTrialN,expBlock.thisN,expBlock.thisIndex,breakLoop.thisRepN,breakLoop.thisTrialN,breakLoop.thisN,breakLoop.thisIndex,expTrials.thisRepN,expTrials.thisTrialN,expTrials.thisN,expTrials.thisIndex,train_resp.keys,train_resp.corr,train_resp.rt,train_resp.started,train_resp.stopped,exp_resp.keys,exp_resp.rt,exp_resp.started,exp_resp.stopped,session,participant,date,expName,psychopyVersion,frameRate,
C,D,"is allergic to gluten, meaning she can’t eat wheat products. She enjoys eating dairy products. She thinks eating insects, like crickets, is disgusting.",,,,,,,,,,0,0,0,1,,,,,,,,,,,,,,,,,,,,,,,,,,001,45,2019_Oct_21_1104,ACPT_experiment_5_30_19,3.1.0,59.95276633637824,
C,G,"cannot eat dairy products because she is lactose intolerant. She enjoys eating wheat products. She thinks eating insects, like crickets, is disgusting.",,,,,,,,,,0,1,1,0,,,,,,,,,,,,,,,,,,,,,,,,,,001,45,2019_Oct_21_1104,ACPT_experiment_5_30_19,3.1.0,59.95276633637824,
C,U,"did not report her food preferences, so her food preferences are unknown.",,,,,,,,,,0,2,2,2,,,,,,,,,,,,,,,,,,,,,,,,,,001,45,2019_Oct_21_1104,ACPT_experiment_5_30_19,3.1.0,59.95276633637824,
,,,C,G,g,v,,,,,,,,,,0,0,0,13,,,,,,,,,,,,,v,1,3.30256017377269,916.324482269195,None,,,,,001,45,2019_Oct_21_1104,ACPT_experiment_5_30_19,3.1.0,59.95276633637824,
,,,C,D,d,v,,,,,,,,,,0,1,1,9,,,,,,,,,,,,,v,1,2.6520446918066227,922.9128929957606,None,,,,,001,45,2019_Oct_21_1104,ACPT_experiment_5_30_19,3.1.0,59.95276633637824,
,,,C,U,g,n,,,,,,,,,,0,2,2,7,,,,,,,,,,,,,n,1,0.9340556178385668,928.8507882403583,None,,,,,001,45,2019_Oct_21_1104,ACPT_experiment_5_30_19,3.1.0,59.95276633637824,
,,,C,D,g,b,,,,,,,,,,0,3,3,10,,,,,,,,,,,,,b,1,1.5845526865005013,933.0706932035591,None,,,,,001,45,2019_Oct_21_1104,ACPT_experiment_5_30_19,3.1.0,59.95276633637824,
,,,C,U,d,n,,,,,,,,,,0,4,4,15,,,,,,,,,,,,,n,1,1.4845509357282936,937.941079538834,None,,,,,001,45,2019_Oct_21_1104,ACPT_experiment_5_30_19,3.1.0,59.95276633637824,
,,,C,D,d,v,,,,,,,,,,0,5,5,0,,,,,,,,,,,,,b,0,2.0849447993277863,942.7114372580236,None,,,,,001,45,2019_Oct_21_1104,ACPT_experiment_5_30_19,3.1.0,59.95276633637824,
,,,C,G,d,b,,,,,,,,,,0,6,6,12,,,,,,,,,,,,,b,1,1.868106405958315,948.0822338175731,None,,,,,001,45,2019_Oct_21_1104,ACPT_experiment_5_30_19,3.1.0,59.95276633637824,
,,,C,U,y,n,,,,,,,,,,0,7,7,17,,,,,,,,,,,,,n,1,1.2509757542056832,953.2361919837531,None,,,,,001,45,2019_Oct_21_1104,ACPT_experiment_5_30_19,3.1.0,59.95276633637824,
,,,C,D,d,v,,,,,,,,,,0,8,8,18,,,,,,,,,,,,,v,1,2.1183057828038727,957.7730110461716,None,,,,,001,45,2019_Oct_21_1104,ACPT_experiment_5_30_19,3.1.0,59.95276633637824,
,,,C,D,g,b,,,,,,,,,,0,9,9,1,,,,,,,,,,,,,b,1,1.0008092798225334,963.160486437243,None,,,,,001,45,2019_Oct_21_1104,ACPT_experiment_5_30_19,3.1.0,59.95276633637824,
,,,C,U,g,n,,,,,,,,,,0,10,10,16,,,,,,,,,,,,,n,1,1.0171919891863581,967.4640659836241,None,,,,,001,45,2019_Oct_21_1104,ACPT_experiment_5_30_19,3.1.0,59.95276633637824,
,,,C,D,y,b,,,,,,,,,,0,11,11,2,,,,,,,,,,,,,n,0,0.7338915281288791,971.7671142608933,None,,,,,001,45,2019_Oct_21_1104,ACPT_experiment_5_30_19,3.1.0,59.95276633637824,
,,,C,D,y,b,,,,,,,,,,0,12,12,11,,,,,,,,,,,,,b,1,0.9674567483552892,975.7701923013065,None,,,,,001,45,2019_Oct_21_1104,ACPT_experiment_5_30_19,3.1.0,59.95276633637824,
,,,C,G,g,v,,,,,,,,,,0,13,13,4,,,,,,,,,,,,,v,1,1.2343141285591628,980.0234491922592,None,,,,,001,45,2019_Oct_21_1104,ACPT_experiment_5_30_19,3.1.0,59.95276633637824,
,,,C,G,g,v,,,,,,,,,,0,14,14,19,,,,,,,,,,,,,v,1,2.601753429553355,984.5438535484245,None,,,,,001,45,2019_Oct_21_1104,ACPT_experiment_5_30_19,3.1.0,59.95276633637824,
,,,C,U,d,n,,,,,,,,,,0,15,15,6,,,,,,,,,,,,,n,1,1.1842507686797035,990.4314487769034,None,,,,,001,45,2019_Oct_21_1104,ACPT_experiment_5_30_19,3.1.0,59.95276633637824,
,,,C,G,d,b,,,,,,,,,,0,16,16,3,,,,,,,,,,,,,b,1,1.9179068479979833,994.9184680009976,None,,,,,001,45,2019_Oct_21_1104,ACPT_experiment_5_30_19,3.1.0,59.95276633637824,
,,,C,G,y,b,,,,,,,,,,0,17,17,14,,,,,,,,,,,,,b,1,1.1008478572039166,1000.1222293259343,None,,,,,001,45,2019_Oct_21_1104,ACPT_experiment_5_30_19,3.1.0,59.95276633637824,
,,,C,G,y,b,,,,,,,,,,0,18,18,5,,,,,,,,,,,,,b,1,0.7003053589960473,1004.5258498645562,None,,,,,001,45,2019_Oct_21_1104,ACPT_experiment_5_30_19,3.1.0,59.95276633637824,
,,,C,U,y,n,,,,,,,,,,0,19,19,8,,,,,,,,,,,,,n,1,0.8173264364941133,1008.5620244613201,None,,,,,001,45,2019_Oct_21_1104,ACPT_experiment_5_30_19,3.1.0,59.95276633637824,
,,,C,D,d,v,,,,,,,,,,1,0,20,18,,,,,,,,,,,,,v,1,1.8347493466289961,1012.6652077896124,None,,,,,001,45,2019_Oct_21_1104,ACPT_experiment_5_30_19,3.1.0,59.95276633637824,
,,,C,D,g,b,,,,,,,,,,1,1,21,1,,,,,,,,,,,,,b,1,1.2009308076321759,1017.7691270463674,None,,,,,001,45,2019_Oct_21_1104,ACPT_experiment_5_30_19,3.1.0,59.95276633637824,
,,,C,U,y,n,,,,,,,,,,1,2,22,8,,,,,,,,,,,,,n,1,1.017043173464117,1022.2729739177048,None,,,,,001,45,2019_Oct_21_1104,ACPT_experiment_5_30_19,3.1.0,59.95276633637824,
,,,C,D,d,v,,,,,,,,,,1,3,23,9,,,,,,,,,,,,,b,0,2.151653484551389,1026.5759077910016,None,,,,,001,45,2019_Oct_21_1104,ACPT_experiment_5_30_19,3.1.0,59.95276633637824,
,,,C,U,g,n,,,,,,,,,,1,4,24,16,,,,,,,,,,,,,n,1,0.9841041867030071,1032.0134060930532,None,,,,,001,45,2019_Oct_21_1104,ACPT_experiment_5_30_19,3.1.0,59.95276633637824,
,,,C,D,d,v,,,,,,,,,,1,5,25,0,,,,,,,,,,,,,v,1,1.250590282243138,1036.3004052134402,None,,,,,001,45,2019_Oct_21_1104,ACPT_experiment_5_30_19,3.1.0,59.95276633637824,
,,,C,D,g,b,,,,,,,,,,1,6,26,10,,,,,,,,,,,,,b,1,0.550426796247848,1040.8368590283453,None,,,,,001,45,2019_Oct_21_1104,ACPT_experiment_5_30_19,3.1.0,59.95276633637824,
,,,C,G,g,v,,,,,,,,,,1,7,27,19,,,,,,,,,,,,,b,0,2.1013592037243143,1044.6900880880412,None,,,,,001,45,2019_Oct_21_1104,ACPT_experiment_5_30_19,3.1.0,59.95276633637824,
,,,C,G,g,v,,,,,,,,,,1,8,28,13,,,,,,,,,,,,,v,1,0.8339889677145038,1050.060610561026,None,,,,,001,45,2019_Oct_21_1104,ACPT_experiment_5_30_19,3.1.0,59.95276633637824,
,,,C,G,y,b,,,,,,,,,,1,9,29,5,,,,,,,,,,,,,b,1,1.080863384751865,1054.2004448171374,None,,,,,001,45,2019_Oct_21_1104,ACPT_experiment_5_30_19,3.1.0,59.95276633637824,
,,,C,G,y,b,,,,,,,,,,1,10,30,14,,,,,,,,,,,,,b,1,0.8173333792155972,1058.5504467188393,None,,,,,001,45,2019_Oct_21_1104,ACPT_experiment_5_30_19,3.1.0,59.95276633637824,
,,,C,G,g,v,,,,,,,,,,1,11,31,4,,,,,,,,,,,,,v,1,2.3818463533507384,1062.673630819887,None,,,,,001,45,2019_Oct_21_1104,ACPT_experiment_5_30_19,3.1.0,59.95276633637824,
,,,C,D,y,b,,,,,,,,,,1,12,32,2,,,,,,,,,,,,,b,1,1.3675989835855944,1068.3413382910403,None,,,,,001,45,2019_Oct_21_1104,ACPT_experiment_5_30_19,3.1.0,59.95276633637824,
,,,C,U,g,n,,,,,,,,,,1,13,33,7,,,,,,,,,,,,,n,1,1.0005047056556577,1073.011866318202,None,,,,,001,45,2019_Oct_21_1104,ACPT_experiment_5_30_19,3.1.0,59.95276633637824,
,,,C,G,d,b,,,,,,,,,,1,14,34,12,,,,,,,,,,,,,b,1,2.18509174353494,1077.2982179543606,None,,,,,001,45,2019_Oct_21_1104,ACPT_experiment_5_30_19,3.1.0,59.95276633637824,
,,,C,U,d,n,,,,,,,,,,1,15,35,15,,,,,,,,,,,,,n,1,0.8506831939657786,1082.7690853900394,None,,,,,001,45,2019_Oct_21_1104,ACPT_experiment_5_30_19,3.1.0,59.95276633637824,
,,,C,U,d,n,,,,,,,,,,1,16,36,6,,,,,,,,,,,,,n,1,0.7005371855175326,1086.9056121940748,None,,,,,001,45,2019_Oct_21_1104,ACPT_experiment_5_30_19,3.1.0,59.95276633637824,
,,,C,D,y,b,,,,,,,,,,1,17,37,11,,,,,,,,,,,,,b,1,0.7172371470605867,1090.8919990268114,None,,,,,001,45,2019_Oct_21_1104,ACPT_experiment_5_30_19,3.1.0,59.95276633637824,
,,,C,G,d,b,,,,,,,,,,1,18,38,3,,,,,,,,,,,,,v,0,1.4344510510982218,1094.8950731430787,None,,,,,001,45,2019_Oct_21_1104,ACPT_experiment_5_30_19,3.1.0,59.95276633637824,
,,,C,U,y,n,,,,,,,,,,1,19,39,17,,,,,,,,,,,,,n,1,0.934060447558295,1099.6153690116762,None,,,,,001,45,2019_Oct_21_1104,ACPT_experiment_5_30_19,3.1.0,59.95276633637824,
,,,C,D,d,v,,,,,,,,,,2,0,40,0,,,,,,,,,,,,,v,1,1.4344679551149966,1103.8352603912917,None,,,,,001,45,2019_Oct_21_1104,ACPT_experiment_5_30_19,3.1.0,59.95276633637824,
,,,C,U,y,n,,,,,,,,,,2,1,41,8,,,,,,,,,,,,,n,1,0.8840100675497524,1108.555574069479,None,,,,,001,45,2019_Oct_21_1104,ACPT_experiment_5_30_19,3.1.0,59.95276633637824,
,,,C,U,y,n,,,,,,,,,,2,2,42,17,,,,,,,,,,,,,n,1,0.7003307150216642,1112.7423652704556,None,,,,,001,45,2019_Oct_21_1104,ACPT_experiment_5_30_19,3.1.0,59.95276633637824,
,,,C,G,y,b,,,,,,,,,,2,3,43,14,,,,,,,,,,,,,b,1,1.868110631962736,1116.728521785958,None,,,,,001,45,2019_Oct_21_1104,ACPT_experiment_5_30_19,3.1.0,59.95276633637824,
,,,C,G,g,v,,,,,,,,,,2,4,44,13,,,,,,,,,,,,,v,1,1.467799658417789,1121.8658104781962,None,,,,,001,45,2019_Oct_21_1104,ACPT_experiment_5_30_19,3.1.0,59.95276633637824,
,,,C,D,g,b,,,,,,,,,,2,5,45,10,,,,,,,,,,,,,b,1,1.1341988793838027,1126.6194573689745,None,,,,,001,45,2019_Oct_21_1104,ACPT_experiment_5_30_19,3.1.0,59.95276633637824,
,,,C,U,d,n,,,,,,,,,,2,6,46,15,,,,,,,,,,,,,n,1,1.1006220678318641,1131.056436476213,None,,,,,001,45,2019_Oct_21_1104,ACPT_experiment_5_30_19,3.1.0,59.95276633637824,
,,,C,U,g,n,,,,,,,,,,2,7,47,16,,,,,,,,,,,,,n,1,1.1342212168356127,1135.4428958151084,None,,,,,001,45,2019_Oct_21_1104,ACPT_experiment_5_30_19,3.1.0,59.95276633637824,
,,,C,D,d,v,,,,,,,,,,2,8,48,9,,,,,,,,,,,,,v,1,1.0675016647437587,1139.8796427939687,None,,,,,001,45,2019_Oct_21_1104,ACPT_experiment_5_30_19,3.1.0,59.95276633637824,
,,,C,G,g,v,,,,,,,,,,2,9,49,19,,,,,,,,,,,,,v,1,0.9340809738650933,1144.2329693536203,None,,,,,001,45,2019_Oct_21_1104,ACPT_experiment_5_30_19,3.1.0,59.95276633637824,
,,,C,G,y,b,,,,,,,,,,2,10,50,5,,,,,,,,,,,,,b,1,1.2173699643390137,1148.4698233107601,None,,,,,001,45,2019_Oct_21_1104,ACPT_experiment_5_30_19,3.1.0,59.95276633637824,
,,,C,G,g,v,,,,,,,,,,2,11,51,4,,,,,,,,,,,,,v,1,1.884794293203413,1152.9730462427506,None,,,,,001,45,2019_Oct_21_1104,ACPT_experiment_5_30_19,3.1.0,59.95276633637824,
,,,C,D,y,b,,,,,,,,,,2,12,52,2,,,,,,,,,,,,,b,1,1.4844806029423125,1158.1436853534542,None,,,,,001,45,2019_Oct_21_1104,ACPT_experiment_5_30_19,3.1.0,59.95276633637824,
,,,C,D,d,v,,,,,,,,,,2,13,53,18,,,,,,,,,,,,,b,0,2.185043144485462,1162.9140174147597,None,,,,,001,45,2019_Oct_21_1104,ACPT_experiment_5_30_19,3.1.0,59.95276633637824,
,,,C,D,g,b,,,,,,,,,,2,14,54,1,,,,,,,,,,,,,b,1,1.9681905638153694,1168.3682090374914,None,,,,,001,45,2019_Oct_21_1104,ACPT_experiment_5_30_19,3.1.0,59.95276633637824,
,,,C,G,d,b,,,,,,,,,,2,15,55,3,,,,,,,,,,,,,b,1,1.8347843620940694,1173.62224170209,None,,,,,001,45,2019_Oct_21_1104,ACPT_experiment_5_30_19,3.1.0,59.95276633637824,
,,,C,U,g,n,,,,,,,,,,2,16,56,7,,,,,,,,,,,,,n,1,1.5011802626286226,1178.742844318228,None,,,,,001,45,2019_Oct_21_1104,ACPT_experiment_5_30_19,3.1.0,59.95276633637824,
,,,C,G,d,b,,,,,,,,,,2,17,57,12,,,,,,,,,,,,,b,1,1.8348085106890721,1183.5298334773197,None,,,,,001,45,2019_Oct_21_1104,ACPT_experiment_5_30_19,3.1.0,59.95276633637824,
,,,C,U,d,n,,,,,,,,,,2,18,58,6,,,,,,,,,,,,,n,1,0.9006928232183782,1188.6504614494834,None,,,,,001,45,2019_Oct_21_1104,ACPT_experiment_5_30_19,3.1.0,59.95276633637824,
,,,C,D,y,b,,,,,,,,,,2,19,59,11,,,,,,,,,,,,,b,1,1.7177466824359726,1192.8539354061277,None,,,,,001,45,2019_Oct_21_1104,ACPT_experiment_5_30_19,3.1.0,59.95276633637824,
,,,C,U,g,n,,,,,,,,,,3,0,60,7,,,,,,,,,,,,,n,1,0.9005714765235098,1197.8575353580727,None,,,,,001,45,2019_Oct_21_1104,ACPT_experiment_5_30_19,3.1.0,59.95276633637824,
,,,C,G,g,v,,,,,,,,,,3,1,61,19,,,,,,,,,,,,,v,1,1.6009966729270673,1202.0610078054297,None,,,,,001,45,2019_Oct_21_1104,ACPT_experiment_5_30_19,3.1.0,59.95276633637824,
,,,C,G,y,b,,,,,,,,,,3,2,62,5,,,,,,,,,,,,,b,1,0.8340689599381221,1206.9311496361715,None,,,,,001,45,2019_Oct_21_1104,ACPT_experiment_5_30_19,3.1.0,59.95276633637824,
,,,C,D,g,b,,,,,,,,,,3,3,63,1,,,,,,,,,,,,,b,1,1.8178260105742083,1211.0679432821926,None,,,,,001,45,2019_Oct_21_1104,ACPT_experiment_5_30_19,3.1.0,59.95276633637824,
,,,C,G,g,v,,,,,,,,,,3,4,64,4,,,,,,,,,,,,,v,1,1.1342462710044856,1216.15490026328,None,,,,,001,45,2019_Oct_21_1104,ACPT_experiment_5_30_19,3.1.0,59.95276633637824,
,,,C,D,y,b,,,,,,,,,,3,5,65,2,,,,,,,,,,,,,b,1,2.2848619696442256,1220.5919116692658,None,,,,,001,45,2019_Oct_21_1104,ACPT_experiment_5_30_19,3.1.0,59.95276633637824,
,,,C,D,d,v,,,,,,,,,,3,6,66,9,,,,,,,,,,,,,v,1,0.9007064068036925,1226.1459347951686,None,,,,,001,45,2019_Oct_21_1104,ACPT_experiment_5_30_19,3.1.0,59.95276633637824,
,,,C,U,y,n,,,,,,,,,,3,7,67,17,,,,,,,,,,,,,n,1,1.0505487466580234,1230.3494304855494,None,,,,,001,45,2019_Oct_21_1104,ACPT_experiment_5_30_19,3.1.0,59.95276633637824,
,,,C,U,g,n,,,,,,,,,,3,8,68,16,,,,,,,,,,,,,n,1,1.0008195429763873,1234.6691521609073,None,,,,,001,45,2019_Oct_21_1104,ACPT_experiment_5_30_19,3.1.0,59.95276633637824,
,,,C,G,d,b,,,,,,,,,,3,9,69,3,,,,,,,,,,,,,b,1,1.5011600381785684,1238.9557781854865,None,,,,,001,45,2019_Oct_21_1104,ACPT_experiment_5_30_19,3.1.0,59.95276633637824,
,,,C,U,y,n,,,,,,,,,,3,10,70,8,,,,,,,,,,,,,n,1,0.8506644788039921,1243.7427917950317,None,,,,,001,45,2019_Oct_21_1104,ACPT_experiment_5_30_19,3.1.0,59.95276633637824,
,,,C,G,y,b,,,,,,,,,,3,11,71,14,,,,,,,,,,,,,b,1,1.3341226905640724,1247.8962226162466,None,,,,,001,45,2019_Oct_21_1104,ACPT_experiment_5_30_19,3.1.0,59.95276633637824,
,,,C,D,g,b,,,,,,,,,,3,12,72,10,,,,,,,,,,,,,b,1,1.3176913821507696,1252.5161937466,None,,,,,001,45,2019_Oct_21_1104,ACPT_experiment_5_30_19,3.1.0,59.95276633637824,
,,,C,G,g,v,,,,,,,,,,3,13,73,13,,,,,,,,,,,,,v,1,0.8670791850572641,1257.1366786383333,None,,,,,001,45,2019_Oct_21_1104,ACPT_experiment_5_30_19,3.1.0,59.95276633637824,
,,,C,D,d,v,,,,,,,,,,3,14,74,0,,,,,,,,,,,,,b,0,0.8339820249921104,1261.289599622316,None,,,,,001,45,2019_Oct_21_1104,ACPT_experiment_5_30_19,3.1.0,59.95276633637824,
,,,C,D,d,v,,,,,,,,,,3,15,75,18,,,,,,,,,,,,,v,1,0.7334459865332974,1265.4265429896323,None,,,,,001,45,2019_Oct_21_1104,ACPT_experiment_5_30_19,3.1.0,59.95276633637824,
,,,C,G,d,b,,,,,,,,,,3,16,76,12,,,,,,,,,,,,,b,1,1.5512028717512294,1269.44586880913,None,,,,,001,45,2019_Oct_21_1104,ACPT_experiment_5_30_19,3.1.0,59.95276633637824,
,,,C,D,y,b,,,,,,,,,,3,17,77,11,,,,,,,,,,,,,n,0,1.117501634558721,1274.2829527212753,None,,,,,001,45,2019_Oct_21_1104,ACPT_experiment_5_30_19,3.1.0,59.95276633637824,
,,,C,U,d,n,,,,,,,,,,3,18,78,15,,,,,,,,,,,,,n,1,0.8670888444958109,1278.7032291502528,None,,,,,001,45,2019_Oct_21_1104,ACPT_experiment_5_30_19,3.1.0,59.95276633637824,
,,,C,U,d,n,,,,,,,,,,3,19,79,6,,,,,,,,,,,,,n,1,1.0341415868397235,1282.8561712642577,None,,,,,001,45,2019_Oct_21_1104,ACPT_experiment_5_30_19,3.1.0,59.95276633637824,
,,,C,U,y,n,,,,,,,,,,4,0,80,17,,,,,,,,,,,,,n,1,0.7336400808735561,1287.1764214920086,None,,,,,001,45,2019_Oct_21_1104,ACPT_experiment_5_30_19,3.1.0,59.95276633637824,
,,,C,G,y,b,,,,,,,,,,4,1,81,14,,,,,,,,,,,,,b,1,1.334382589829147,1291.1959305389782,None,,,,,001,45,2019_Oct_21_1104,ACPT_experiment_5_30_19,3.1.0,59.95276633637824,
,,,C,G,d,b,,,,,,,,,,4,2,82,12,,,,,,,,,,,,,b,1,1.5678955887160555,1295.7994341380254,None,,,,,001,45,2019_Oct_21_1104,ACPT_experiment_5_30_19,3.1.0,59.95276633637824,
,,,C,D,d,v,,,,,,,,,,4,3,83,18,,,,,,,,,,,,,v,1,0.8006551514081366,1300.6531694126643,None,,,,,001,45,2019_Oct_21_1104,ACPT_experiment_5_30_19,3.1.0,59.95276633637824,
,,,C,G,d,b,,,,,,,,,,4,4,84,3,,,,,,,,,,,,,b,1,1.3007665368077141,1304.7565631355983,None,,,,,001,45,2019_Oct_21_1104,ACPT_experiment_5_30_19,3.1.0,59.95276633637824,
,,,C,D,g,b,,,,,,,,,,4,5,85,10,,,,,,,,,,,,,b,1,0.8673414991808386,1309.3431790177683,None,,,,,001,45,2019_Oct_21_1104,ACPT_experiment_5_30_19,3.1.0,59.95276633637824,
,,,C,D,d,v,,,,,,,,,,4,6,86,0,,,,,,,,,,,,,v,1,0.817309834334992,1313.4797040106596,None,,,,,001,45,2019_Oct_21_1104,ACPT_experiment_5_30_19,3.1.0,59.95276633637824,
,,,C,G,g,v,,,,,,,,,,4,7,87,13,,,,,,,,,,,,,b,0,0.7505911878151892,1317.5828444751933,None,,,,,001,45,2019_Oct_21_1104,ACPT_experiment_5_30_19,3.1.0,59.95276633637824,
,,,C,U,d,n,,,,,,,,,,4,8,88,15,,,,,,,,,,,,,n,1,0.8170683483749599,1321.6361959682708,None,,,,,001,45,2019_Oct_21_1104,ACPT_experiment_5_30_19,3.1.0,59.95276633637824,
,,,C,G,g,v,,,,,,,,,,4,9,89,4,,,,,,,,,,,,,v,1,1.467807506711324,1325.7391085304316,None,,,,,001,45,2019_Oct_21_1104,ACPT_experiment_5_30_19,3.1.0,59.95276633637824,
,,,C,U,g,n,,,,,,,,,,4,10,90,16,,,,,,,,,,,,,n,1,0.8340025512989087,1330.49276477879,None,,,,,001,45,2019_Oct_21_1104,ACPT_experiment_5_30_19,3.1.0,59.95276633637824,
,,,C,U,d,n,,,,,,,,,,4,11,91,6,,,,,,,,,,,,,n,1,1.2009576729442415,1334.5958904523095,None,,,,,001,45,2019_Oct_21_1104,ACPT_experiment_5_30_19,3.1.0,59.95276633637824,
,,,C,U,y,n,,,,,,,,,,4,12,92,8,,,,,,,,,,,,,n,1,0.6805527130645714,1339.1026943192237,None,,,,,001,45,2019_Oct_21_1104,ACPT_experiment_5_30_19,3.1.0,59.95276633637824,
,,,C,G,y,b,,,,,,,,,,4,13,93,5,,,,,,,,,,,,,b,1,1.4511525219277246,1343.0690713234817,None,,,,,001,45,2019_Oct_21_1104,ACPT_experiment_5_30_19,3.1.0,59.95276633637824,
,,,C,G,g,v,,,,,,,,,,4,14,94,19,,,,,,,,,,,,,v,1,1.6508378657226785,1347.8064686240314,None,,,,,001,45,2019_Oct_21_1104,ACPT_experiment_5_30_19,3.1.0,59.95276633637824,
,,,C,D,g,b,,,,,,,,,,4,15,95,1,,,,,,,,,,,,,b,1,1.1342245372670732,1352.7431827004284,None,,,,,001,45,2019_Oct_21_1104,ACPT_experiment_5_30_19,3.1.0,59.95276633637824,
,,,C,D,y,b,,,,,,,,,,4,16,96,2,,,,,,,,,,,,,b,1,1.0508014013430511,1357.1465810719683,None,,,,,001,45,2019_Oct_21_1104,ACPT_experiment_5_30_19,3.1.0,59.95276633637824,
,,,C,D,y,b,,,,,,,,,,4,17,97,11,,,,,,,,,,,,,b,1,0.6339779197314783,1361.466401152854,None,,,,,001,45,2019_Oct_21_1104,ACPT_experiment_5_30_19,3.1.0,59.95276633637824,
,,,C,U,g,n,,,,,,,,,,4,18,98,7,,,,,,,,,,,,,n,1,0.7670016680649496,1365.4031746951696,None,,,,,001,45,2019_Oct_21_1104,ACPT_experiment_5_30_19,3.1.0,59.95276633637824,
,,,C,D,d,v,,,,,,,,,,4,19,99,9,,,,,,,,,,,,,v,1,1.7680316056830634,1369.456025708595,None,,,,,001,45,2019_Oct_21_1104,ACPT_experiment_5_30_19,3.1.0,59.95276633637824,
,,,C,G,g,v,,,,,,,,,,5,0,100,19,,,,,,,,,,,,,v,1,1.5345137770755173,1374.50991722465,None,,,,,001,45,2019_Oct_21_1104,ACPT_experiment_5_30_19,3.1.0,59.95276633637824,
,,,C,G,g,v,,,,,,,,,,5,1,101,4,,,,,,,,,,,,,v,1,1.0841566495273582,1379.3136147972937,None,,,,,001,45,2019_Oct_21_1104,ACPT_experiment_5_30_19,3.1.0,59.95276633637824,
,,,C,U,g,n,,,,,,,,,,5,2,102,7,,,,,,,,,,,,,n,1,0.8170659335155506,1383.7005356762302,None,,,,,001,45,2019_Oct_21_1104,ACPT_experiment_5_30_19,3.1.0,59.95276633637824,
,,,C,U,g,n,,,,,,,,,,5,3,103,16,,,,,,,,,,,,,n,1,0.7339066210015517,1387.786770614298,None,,,,,001,45,2019_Oct_21_1104,ACPT_experiment_5_30_19,3.1.0,59.95276633637824,
,,,C,D,d,v,,,,,,,,,,5,4,104,18,,,,,,,,,,,,,v,1,1.0007455879003828,1391.8065537478324,None,,,,,001,45,2019_Oct_21_1104,ACPT_experiment_5_30_19,3.1.0,59.95276633637824,
,,,C,D,y,b,,,,,,,,,,5,5,105,11,,,,,,,,,,,,,b,1,0.7839428137094728,1396.076471057002,None,,,,,001,45,2019_Oct_21_1104,ACPT_experiment_5_30_19,3.1.0,59.95276633637824,
,,,C,U,y,n,,,,,,,,,,5,6,106,8,,,,,,,,,,,,,n,1,0.7835325894357084,1400.1633317455635,None,,,,,001,45,2019_Oct_21_1104,ACPT_experiment_5_30_19,3.1.0,59.95276633637824,
,,,C,G,g,v,,,,,,,,,,5,7,107,13,,,,,,,,,,,,,v,1,0.9674510130635099,1404.2327363196691,None,,,,,001,45,2019_Oct_21_1104,ACPT_experiment_5_30_19,3.1.0,59.95276633637824,
,,,C,G,y,b,,,,,,,,,,5,8,108,14,,,,,,,,,,,,,b,1,0.783525948571878,1408.5030774366987,None,,,,,001,45,2019_Oct_21_1104,ACPT_experiment_5_30_19,3.1.0,59.95276633637824,
,,,C,G,d,b,,,,,,,,,,5,9,109,3,,,,,,,,,,,,,b,1,1.2176295617455253,1412.5557826529766,None,,,,,001,45,2019_Oct_21_1104,ACPT_experiment_5_30_19,3.1.0,59.95276633637824,
,,,C,D,d,v,,,,,,,,,,5,10,110,0,,,,,,,,,,,,,v,1,0.7169642679264143,1417.0762027057299,None,,,,,001,45,2019_Oct_21_1104,ACPT_experiment_5_30_19,3.1.0,59.95276633637824,
,,,C,U,d,n,,,,,,,,,,5,11,111,15,,,,,,,,,,,,,n,1,0.8840236511350668,1421.079003942862,None,,,,,001,45,2019_Oct_21_1104,ACPT_experiment_5_30_19,3.1.0,59.95276633637824,
,,,C,U,d,n,,,,,,,,,,5,12,112,6,,,,,,,,,,,,,n,1,0.7639396260956346,1425.2688755991112,None,,,,,001,45,2019_Oct_21_1104,ACPT_experiment_5_30_19,3.1.0,59.95276633637824,
,,,C,D,d,v,,,,,,,,,,5,13,113,9,,,,,,,,,,,,,v,1,1.1175411778831403,1429.3186645705682,None,,,,,001,45,2019_Oct_21_1104,ACPT_experiment_5_30_19,3.1.0,59.95276633637824,
,,,C,D,g,b,,,,,,,,,,5,14,114,10,,,,,,,,,,,,,b,1,1.0674838551549328,1433.722062036536,None,,,,,001,45,2019_Oct_21_1104,ACPT_experiment_5_30_19,3.1.0,59.95276633637824,
,,,C,G,y,b,,,,,,,,,,5,15,115,5,,,,,,,,,,,,,b,1,0.7505751893704655,1438.07540489649,None,,,,,001,45,2019_Oct_21_1104,ACPT_experiment_5_30_19,3.1.0,59.95276633637824,
,,,C,D,y,b,,,,,,,,,,5,16,116,2,,,,,,,,,,,,,b,1,0.7835286652889408,1442.1288925272775,None,,,,,001,45,2019_Oct_21_1104,ACPT_experiment_5_30_19,3.1.0,59.95276633637824,
,,,C,G,d,b,,,,,,,,,,5,17,117,12,,,,,,,,,,,,,b,1,2.268417983218569,1446.1983025348181,None,,,,,001,45,2019_Oct_21_1104,ACPT_experiment_5_30_19,3.1.0,59.95276633637824,
,,,C,D,g,b,,,,,,,,,,5,18,118,1,,,,,,,,,,,,,b,1,1.5178412845607454,1451.752566241108,None,,,,,001,45,2019_Oct_21_1104,ACPT_experiment_5_30_19,3.1.0,59.95276633637824,
,,,C,U,y,n,,,,,,,,,,5,19,119,17,0,0,0,0,0,0,0,0,,,,,n,1,0.7672817917782595,1456.5562553617428,None,,,,,001,45,2019_Oct_21_1104,ACPT_experiment_5_30_19,3.1.0,59.95276633637824,
,,,C,U,y,n,L,G,g,L,c ,,,,,5,19,119,17,0,0,0,0,,,,,0,0,0,18,,,,,,up,1.1842522779670617,1537.8520210261822,None,001,45,2019_Oct_21_1104,ACPT_experiment_5_30_19,3.1.0,59.95276633637824,
,,,C,U,y,n,R,D,d,R,c ,,,,,5,19,119,17,0,0,0,0,,,,,0,1,1,1,,,,,,up,0.8673405936087875,1540.3206049102546,None,001,45,2019_Oct_21_1104,ACPT_experiment_5_30_19,3.1.0,59.95276633637824,
,,,C,U,y,n,R,D,d,L,c,,,,,5,19,119,17,0,0,0,0,,,,,0,2,2,0,,,,,,up,1.0174434364425906,1542.4722408870748,None,001,45,2019_Oct_21_1104,ACPT_experiment_5_30_19,3.1.0,59.95276633637824,
,,,C,U,y,n,R,D,y,L,y,,,,,5,19,119,17,0,0,0,0,,,,,0,3,3,26,,,,,,down,0.8673581013408693,1544.7573044974952,None,001,45,2019_Oct_21_1104,ACPT_experiment_5_30_19,3.1.0,59.95276633637824,
,,,C,U,y,n,L,G,d,R,i,,,,,5,19,119,17,0,0,0,0,,,,,0,4,4,17,,,,,,up,1.3510375746109275,1546.9089830362154,None,001,45,2019_Oct_21_1104,ACPT_experiment_5_30_19,3.1.0,59.95276633637824,
,,,C,U,y,n,L,G,g,R,c ,,,,,5,19,119,17,0,0,0,0,,,,,0,5,5,19,,,,,,up,1.117549629892892,1549.527635351371,None,001,45,2019_Oct_21_1104,ACPT_experiment_5_30_19,3.1.0,59.95276633637824,
,,,C,U,y,n,R,U,g,L,u,,,,,5,19,119,17,0,0,0,0,,,,,0,6,6,10,,,,,,up,1.284320739237046,1551.9295060223576,None,001,45,2019_Oct_21_1104,ACPT_experiment_5_30_19,3.1.0,59.95276633637824,
,,,C,U,y,n,R,G,g,L,c ,,,,,5,19,119,17,0,0,0,0,,,,,0,7,7,6,,,,,,up,1.4844694342164075,1554.498144482257,None,001,45,2019_Oct_21_1104,ACPT_experiment_5_30_19,3.1.0,59.95276633637824,
,,,C,U,y,n,L,G,d,L,i,,,,,5,19,119,17,0,0,0,0,,,,,0,8,8,16,,,,,,up,1.3010004763309553,1557.2669340519951,None,001,45,2019_Oct_21_1104,ACPT_experiment_5_30_19,3.1.0,59.95276633637824,
,,,C,U,y,n,R,U,d,R,u,,,,,5,19,119,17,0,0,0,0,,,,,0,9,9,9,,,,,,up,1.267648548579018,1559.852268247434,None,001,45,2019_Oct_21_1104,ACPT_experiment_5_30_19,3.1.0,59.95276633637824,
,,,C,U,y,n,L,D,g,R,i,,,,,5,19,119,17,0,0,0,0,,,,,0,10,10,15,,,,,,down,0.8006319083851849,1562.4041973882086,None,001,45,2019_Oct_21_1104,ACPT_experiment_5_30_19,3.1.0,59.95276633637824,
,,,C,U,y,n,R,U,y,R,u,,,,,5,19,119,17,0,0,0,0,,,,,0,11,11,31,,,,,,up,1.2009208463359755,1564.4891503376875,None,001,45,2019_Oct_21_1104,ACPT_experiment_5_30_19,3.1.0,59.95276633637824,
,,,C,U,y,n,R,G,g,R,c ,,,,,5,19,119,17,0,0,0,0,,,,,0,12,12,7,,,,,,up,2.2516893452166187,1566.9744124495674,None,001,45,2019_Oct_21_1104,ACPT_experiment_5_30_19,3.1.0,59.95276633637824,
,,,C,U,y,n,L,U,d,L,u,,,,,5,19,119,17,0,0,0,0,,,,,0,13,13,20,,,,,,up,1.31768232642753,1570.5104385324657,None,001,45,2019_Oct_21_1104,ACPT_experiment_5_30_19,3.1.0,59.95276633637824,
,,,C,U,y,n,L,G,y,L,y,,,,,5,19,119,17,0,0,0,0,,,,,0,14,14,34,,,,,,down,1.150885257342452,1573.1124340516935,None,001,45,2019_Oct_21_1104,ACPT_experiment_5_30_19,3.1.0,59.95276633637824,
,,,C,U,y,n,L,D,g,L,i,,,,,5,19,119,17,0,0,0,0,,,,,0,15,15,14,,,,,,up,1.4010737673197582,1575.5476424631324,None,001,45,2019_Oct_21_1104,ACPT_experiment_5_30_19,3.1.0,59.95276633637824,
,,,C,U,y,n,R,D,y,R,y,,,,,5,19,119,17,0,0,0,0,,,,,0,16,16,27,,,,,,down,0.7839340598438866,1578.233037271547,None,001,45,2019_Oct_21_1104,ACPT_experiment_5_30_19,3.1.0,59.95276633637824,
,,,C,U,y,n,L,D,y,L,y,,,,,5,19,119,17,0,0,0,0,,,,,0,17,17,32,,,,,,down,0.8840082564056502,1580.3012905613405,None,001,45,2019_Oct_21_1104,ACPT_experiment_5_30_19,3.1.0,59.95276633637824,
,,,C,U,y,n,L,D,d,L,c ,,,,,5,19,119,17,0,0,0,0,,,,,0,18,18,12,,,,,,up,0.867337273177327,1582.469619858839,None,001,45,2019_Oct_21_1104,ACPT_experiment_5_30_19,3.1.0,59.95276633637824,
,,,C,U,y,n,L,U,d,R,u,,,,,5,19,119,17,0,0,0,0,,,,,0,19,19,21,,,,,,up,1.6179091421154226,1584.621276361966,None,001,45,2019_Oct_21_1104,ACPT_experiment_5_30_19,3.1.0,59.95276633637824,
,,,C,U,y,n,L,U,y,L,u,,,,,5,19,119,17,0,0,0,0,,,,,0,20,20,24,,,,,,down,1.1007775244188451,1587.5402333720313,None,001,45,2019_Oct_21_1104,ACPT_experiment_5_30_19,3.1.0,59.95276633637824,
,,,C,U,y,n,L,U,y,R,u,,,,,5,19,119,17,0,0,0,0,,,,,0,21,21,25,,,,,,down,0.6338115962762458,1589.942027069369,None,001,45,2019_Oct_21_1104,ACPT_experiment_5_30_19,3.1.0,59.95276633637824,
,,,C,U,y,n,R,U,y,L,u,,,,,5,19,119,17,0,0,0,0,,,,,0,22,22,30,,,,,,down,0.6338212557147926,1591.8601645364588,None,001,45,2019_Oct_21_1104,ACPT_experiment_5_30_19,3.1.0,59.95276633637824,
,,,C,U,y,n,R,U,d,L,u,,,,,5,19,119,17,0,0,0,0,,,,,0,23,23,8,,,,,,up,0.717216922611442,1593.778307135125,None,001,45,2019_Oct_21_1104,ACPT_experiment_5_30_19,3.1.0,59.95276633637824,
,,,C,U,y,n,L,D,d,R,c ,,,,,5,19,119,17,0,0,0,0,,,,,0,24,24,13,,,,,,up,0.5337153641212353,1595.779874077146,None,001,45,2019_Oct_21_1104,ACPT_experiment_5_30_19,3.1.0,59.95276633637824,
,,,C,U,y,n,R,G,y,R,y,,,,,5,19,119,17,0,0,0,0,,,,,0,25,25,29,,,,,,down,0.7839630381595271,1597.5979032377836,None,001,45,2019_Oct_21_1104,ACPT_experiment_5_30_19,3.1.0,59.95276633637824,
,,,C,U,y,n,L,U,g,R,u,,,,,5,19,119,17,0,0,0,0,,,,,0,26,26,23,,,,,,up,1.1508870684874637,1599.6661571312916,None,001,45,2019_Oct_21_1104,ACPT_experiment_5_30_19,3.1.0,59.95276633637824,
,,,C,U,y,n,L,U,g,L,u,,,,,5,19,119,17,0,0,0,0,,,,,0,27,27,22,,,,,,up,0.6004943821317283,1602.1013658445881,None,001,45,2019_Oct_21_1104,ACPT_experiment_5_30_19,3.1.0,59.95276633637824,
,,,C,U,y,n,L,G,y,R,y,,,,,5,19,119,17,0,0,0,0,,,,,0,28,28,35,,,,,,down,0.6171403111911786,1603.9861444412045,None,001,45,2019_Oct_21_1104,ACPT_experiment_5_30_19,3.1.0,59.95276633637824,
,,,C,U,y,n,R,G,y,L,y,,,,,5,19,119,17,0,0,0,0,,,,,0,29,29,28,,,,,,down,0.7839325505565284,1605.8876045860598,None,001,45,2019_Oct_21_1104,ACPT_experiment_5_30_19,3.1.0,59.95276633637824,
,,,C,U,y,n,R,G,d,R,i,,,,,5,19,119,17,0,0,0,0,,,,,0,30,30,5,,,,,,up,0.6838278663926758,1607.955887759741,None,001,45,2019_Oct_21_1104,ACPT_experiment_5_30_19,3.1.0,59.95276633637824,
,,,C,U,y,n,R,D,g,L,i,,,,,5,19,119,17,0,0,0,0,,,,,0,31,31,2,,,,,,up,0.7172187337564537,1609.9240396858022,None,001,45,2019_Oct_21_1104,ACPT_experiment_5_30_19,3.1.0,59.95276633637824,
,,,C,U,y,n,R,U,g,R,u,,,,,5,19,119,17,0,0,0,0,,,,,0,32,32,11,,,,,,up,0.5504515485590673,1611.9255746309336,None,001,45,2019_Oct_21_1104,ACPT_experiment_5_30_19,3.1.0,59.95276633637824,
,,,C,U,y,n,R,D,g,R,i,,,,,5,19,119,17,0,0,0,0,,,,,0,33,33,3,,,,,,up,0.45033509195491206,1613.7603206571312,None,001,45,2019_Oct_21_1104,ACPT_experiment_5_30_19,3.1.0,59.95276633637824,
,,,C,U,y,n,L,D,y,R,y,,,,,5,19,119,17,0,0,0,0,,,,,0,34,34,33,,,,,,down,0.8339602912565169,1615.494990373766,None,001,45,2019_Oct_21_1104,ACPT_experiment_5_30_19,3.1.0,59.95276633637824,
,,,C,U,y,n,R,G,d,L,i,,,,,5,19,119,17,0,0,0,0,,,,,0,35,35,4,,,,,,up,0.4803822843487069,1617.6332742900158,None,001,45,2019_Oct_21_1104,ACPT_experiment_5_30_19,3.1.0,59.95276633637824,
,,,C,U,y,n,R,G,d,L,i,,,,,5,19,119,17,0,0,0,0,,,,,1,0,36,4,,,,,,up,0.7005700879790311,1619.3812776539153,None,001,45,2019_Oct_21_1104,ACPT_experiment_5_30_19,3.1.0,59.95276633637824,
,,,C,U,y,n,R,G,g,R,c ,,,,,5,19,119,17,0,0,0,0,,,,,1,1,37,7,,,,,,up,1.0174458513010904,1621.3494830087457,None,001,45,2019_Oct_21_1104,ACPT_experiment_5_30_19,3.1.0,59.95276633637824,
,,,C,U,y,n,L,G,d,R,i,,,,,5,19,119,17,0,0,0,0,,,,,1,2,38,17,,,,,,up,0.7672543227499773,1623.6512426565632,None,001,45,2019_Oct_21_1104,ACPT_experiment_5_30_19,3.1.0,59.95276633637824,
,,,C,U,y,n,R,D,d,L,c,,,,,5,19,119,17,0,0,0,0,,,,,1,3,39,0,,,,,,up,1.1175052568469255,1625.7028352262814,None,001,45,2019_Oct_21_1104,ACPT_experiment_5_30_19,3.1.0,59.95276633637824,
,,,C,U,y,n,R,U,y,R,u,,,,,5,19,119,17,0,0,0,0,,,,,1,4,40,31,,,,,,down,0.9340486751170829,1628.1046651465122,None,001,45,2019_Oct_21_1104,ACPT_experiment_5_30_19,3.1.0,59.95276633637824,
,,,C,U,y,n,L,U,g,L,u,,,,,5,19,119,17,0,0,0,0,,,,,1,5,41,22,,,,,,up,0.5671038166256039,1630.3230333534375,None,001,45,2019_Oct_21_1104,ACPT_experiment_5_30_19,3.1.0,59.95276633637824,
,,,C,U,y,n,L,G,g,L,c ,,,,,5,19,119,17,0,0,0,0,,,,,1,6,42,18,,,,,,up,0.4836984902904078,1632.1744545888669,None,001,45,2019_Oct_21_1104,ACPT_experiment_5_30_19,3.1.0,59.95276633637824,
,,,C,U,y,n,R,U,g,L,u,,,,,5,19,119,17,0,0,0,0,,,,,1,7,43,10,,,,,,up,0.600462083383718,1633.9424783462555,None,001,45,2019_Oct_21_1104,ACPT_experiment_5_30_19,3.1.0,59.95276633637824,
,,,C,U,y,n,L,G,g,R,c ,,,,,5,19,119,17,0,0,0,0,,,,,1,8,44,19,,,,,,up,0.6671774094711509,1635.827256641015,None,001,45,2019_Oct_21_1104,ACPT_experiment_5_30_19,3.1.0,59.95276633637824,
,,,C,U,y,n,R,G,y,R,y,,,,,5,19,119,17,0,0,0,0,,,,,1,9,45,29,,,,,,down,0.7505688503633792,1637.778761430587,None,001,45,2019_Oct_21_1104,ACPT_experiment_5_30_19,3.1.0,59.95276633637824,
,,,C,U,y,n,L,D,y,L,y,,,,,5,19,119,17,0,0,0,0,,,,,1,10,46,32,,,,,,down,0.7002640045247972,1639.8306063531336,None,001,45,2019_Oct_21_1104,ACPT_experiment_5_30_19,3.1.0,59.95276633637824,
,,,C,U,y,n,R,G,y,L,y,,,,,5,19,119,17,0,0,0,0,,,,,1,11,47,28,,,,,,down,0.5837711775648131,1641.8151938136125,None,001,45,2019_Oct_21_1104,ACPT_experiment_5_30_19,3.1.0,59.95276633637824,
,,,C,U,y,n,L,U,d,R,u,,,,,5,19,119,17,0,0,0,0,,,,,1,12,48,21,,,,,,up,0.8339705544094613,1643.6832938805646,None,001,45,2019_Oct_21_1104,ACPT_experiment_5_30_19,3.1.0,59.95276633637824,
,,,C,U,y,n,R,U,d,R,u,,,,,5,19,119,17,0,0,0,0,,,,,1,13,49,9,,,,,,up,0.6504994835213438,1645.8015827593517,None,001,45,2019_Oct_21_1104,ACPT_experiment_5_30_19,3.1.0,59.95276633637824,
,,,C,U,y,n,R,U,d,L,u,,,,,5,19,119,17,0,0,0,0,,,,,1,14,50,8,,,,,,up,0.6672311400980107,1647.7197117744327,None,001,45,2019_Oct_21_1104,ACPT_experiment_5_30_19,3.1.0,59.95276633637824,
,,,C,U,y,n,L,G,y,R,y,,,,,5,19,119,17,0,0,0,0,,,,,1,15,51,35,,,,,,down,0.5003764162393054,1649.671227430873,None,001,45,2019_Oct_21_1104,ACPT_experiment_5_30_19,3.1.0,59.95276633637824,
,,,C,U,y,n,L,G,d,L,i,,,,,5,19,119,17,0,0,0,0,,,,,1,16,52,16,,,,,,up,0.7839781310312901,1651.4559309253564,None,001,45,2019_Oct_21_1104,ACPT_experiment_5_30_19,3.1.0,59.95276633637824,
,,,C,U,y,n,L,U,y,L,u,,,,,5,19,119,17,0,0,0,0,,,,,1,17,53,24,,,,,,down,0.7005335632284186,1653.524185120722,None,001,45,2019_Oct_21_1104,ACPT_experiment_5_30_19,3.1.0,59.95276633637824,
,,,C,U,y,n,L,G,y,L,y,,,,,5,19,119,17,0,0,0,0,,,,,1,18,54,34,,,,,,down,0.8506572342248546,1655.509045460336,None,001,45,2019_Oct_21_1104,ACPT_experiment_5_30_19,3.1.0,59.95276633637824,
,,,C,U,y,n,L,U,d,L,u,,,,,5,19,119,17,0,0,0,0,,,,,1,19,55,20,,,,,,up,0.7172259783355912,1657.6440186040782,None,001,45,2019_Oct_21_1104,ACPT_experiment_5_30_19,3.1.0,59.95276633637824,
,,,C,U,y,n,R,D,y,L,y,,,,,5,19,119,17,0,0,0,0,,,,,1,20,56,26,,,,,,down,0.6338327262974417,1659.6455369470495,None,001,45,2019_Oct_21_1104,ACPT_experiment_5_30_19,3.1.0,59.95276633637824,
,,,C,U,y,n,R,D,y,R,y,,,,,5,19,119,17,0,0,0,0,,,,,1,21,57,27,,,,,,down,0.7172145077520327,1661.5636946385894,None,001,45,2019_Oct_21_1104,ACPT_experiment_5_30_19,3.1.0,59.95276633637824,
,,,C,U,y,n,R,U,y,L,u,,,,,5,19,119,17,0,0,0,0,,,,,1,22,58,30,,,,,,down,0.5337373997153918,1663.565228376291,None,001,45,2019_Oct_21_1104,ACPT_experiment_5_30_19,3.1.0,59.95276633637824,
,,,C,U,y,n,L,D,g,R,i,,,,,5,19,119,17,0,0,0,0,,,,,1,23,59,15,,,,,,up,0.5670971757617735,1665.3832913449623,None,001,45,2019_Oct_21_1104,ACPT_experiment_5_30_19,3.1.0,59.95276633637824,
,,,C,U,y,n,L,U,y,R,u,,,,,5,19,119,17,0,0,0,0,,,,,1,24,60,25,,,,,,down,0.7505745856551584,1667.2347098636756,None,001,45,2019_Oct_21_1104,ACPT_experiment_5_30_19,3.1.0,59.95276633637824,
,,,C,U,y,n,L,D,d,L,c ,,,,,5,19,119,17,0,0,0,0,,,,,1,25,61,12,,,,,,up,0.5337386071450965,1669.2696136405757,None,001,45,2019_Oct_21_1104,ACPT_experiment_5_30_19,3.1.0,59.95276633637824,
,,,C,U,y,n,R,G,g,L,c ,,,,,5,19,119,17,0,0,0,0,,,,,1,26,62,6,,,,,,up,1.4644680577466715,1671.1076707411385,None,001,45,2019_Oct_21_1104,ACPT_experiment_5_30_19,3.1.0,59.95276633637824,
,,,C,U,y,n,L,D,y,R,y,,,,,5,19,119,17,0,0,0,0,,,,,1,27,63,33,,,,,,down,0.8006083635045798,1673.8731480290826,None,001,45,2019_Oct_21_1104,ACPT_experiment_5_30_19,3.1.0,59.95276633637824,
,,,C,U,y,n,R,G,d,R,i,,,,,5,19,119,17,0,0,0,0,,,,,1,28,64,5,,,,,,up,0.5670896293249825,1675.9914411338732,None,001,45,2019_Oct_21_1104,ACPT_experiment_5_30_19,3.1.0,59.95276633637824,
,,,C,U,y,n,R,D,g,R,i,,,,,5,19,119,17,0,0,0,0,,,,,1,29,65,3,,,,,,up,0.4503510903996357,1677.8428602563008,None,001,45,2019_Oct_21_1104,ACPT_experiment_5_30_19,3.1.0,59.95276633637824,
,,,C,U,y,n,R,D,g,L,i,,,,,5,19,119,17,0,0,0,0,,,,,1,30,66,2,,,,,,up,0.48368701970684924,1679.577534500797,None,001,45,2019_Oct_21_1104,ACPT_experiment_5_30_19,3.1.0,59.95276633637824,
,,,C,U,y,n,R,U,g,R,u,,,,,5,19,119,17,0,0,0,0,,,,,1,31,67,11,,,,,,up,0.5671035147679504,1681.3455473913182,None,001,45,2019_Oct_21_1104,ACPT_experiment_5_30_19,3.1.0,59.95276633637824,
,,,C,U,y,n,L,U,g,R,u,,,,,5,19,119,17,0,0,0,0,,,,,1,32,68,23,,,,,,up,0.6671789187585091,1683.1969662118881,None,001,45,2019_Oct_21_1104,ACPT_experiment_5_30_19,3.1.0,59.95276633637824,
,,,C,U,y,n,R,D,d,R,c ,,,,,5,19,119,17,0,0,0,0,,,,,1,33,69,1,,,,,,up,0.6838646930018513,1685.148463756882,None,001,45,2019_Oct_21_1104,ACPT_experiment_5_30_19,3.1.0,59.95276633637824,
,,,C,U,y,n,L,D,d,R,c ,,,,,5,19,119,17,0,0,0,0,,,,,1,34,70,13,,,,,,up,0.5671056277697062,1687.116642548256,None,001,45,2019_Oct_21_1104,ACPT_experiment_5_30_19,3.1.0,59.95276633637824,
,,,C,U,y,n,L,D,g,L,i,,,,,5,19,119,17,0,0,0,0,,,,,1,35,71,14,,,,,,up,0.5504249851037457,1688.9513861595942,None,001,45,2019_Oct_21_1104,ACPT_experiment_5_30_19,3.1.0,59.95276633637824,
,,,C,U,y,n,,,,,,,,,,5,19,119,17,1,0,1,0,0,0,0,0,,,,,,,,,,,,,,001,45,2019_Oct_21_1104,ACPT_experiment_5_30_19,3.1.0,59.95276633637824,
,,,C,U,y,n,L,G,y,L,y,,,,,5,19,119,17,1,0,1,0,,,,,0,0,0,34,,,,,,down,0.6335625638803322,1724.3955301552578,None,001,45,2019_Oct_21_1104,ACPT_experiment_5_30_19,3.1.0,59.95276633637824,
,,,C,U,y,n,L,D,d,L,c ,,,,,5,19,119,17,1,0,1,0,,,,,0,1,1,12,,,,,,up,0.600351603557101,1726.3134065156537,None,001,45,2019_Oct_21_1104,ACPT_experiment_5_30_19,3.1.0,59.95276633637824,
,,,C,U,y,n,R,G,y,R,y,,,,,5,19,119,17,1,0,1,0,,,,,0,2,2,29,,,,,,down,0.7839379839906542,1728.2148708865134,None,001,45,2019_Oct_21_1104,ACPT_experiment_5_30_19,3.1.0,59.95276633637824,
,,,C,U,y,n,L,D,d,R,c ,,,,,5,19,119,17,1,0,1,0,,,,,0,3,3,13,,,,,,up,0.8840118786947642,1730.2998081394053,None,001,45,2019_Oct_21_1104,ACPT_experiment_5_30_19,3.1.0,59.95276633637824,
,,,C,U,y,n,L,D,y,L,y,,,,,5,19,119,17,1,0,1,0,,,,,0,4,4,32,,,,,,down,0.6171327647543876,1732.4681410591938,None,001,45,2019_Oct_21_1104,ACPT_experiment_5_30_19,3.1.0,59.95276633637824,
,,,C,U,y,n,L,D,g,L,i,,,,,5,19,119,17,1,0,1,0,,,,,0,5,5,14,,,,,,up,0.5003724920925379,1734.3696045244806,None,001,45,2019_Oct_21_1104,ACPT_experiment_5_30_19,3.1.0,59.95276633637824,
,,,C,U,y,n,R,D,d,L,c,,,,,5,19,119,17,1,0,1,0,,,,,0,6,6,0,,,,,,up,0.5670956664735058,1736.1543004725281,None,001,45,2019_Oct_21_1104,ACPT_experiment_5_30_19,3.1.0,59.95276633637824,
,,,C,U,y,n,R,D,y,R,y,,,,,5,19,119,17,1,0,1,0,,,,,0,7,7,27,,,,,,down,0.7172157151817373,1738.005727745107,None,001,45,2019_Oct_21_1104,ACPT_experiment_5_30_19,3.1.0,59.95276633637824,
,,,C,U,y,n,R,D,g,R,i,,,,,5,19,119,17,1,0,1,0,,,,,0,8,8,3,,,,,,up,0.6171578189232605,1740.0072385416424,None,001,45,2019_Oct_21_1104,ACPT_experiment_5_30_19,3.1.0,59.95276633637824,
,,,C,U,y,n,L,G,g,L,c ,,,,,5,19,119,17,1,0,1,0,,,,,0,9,9,18,,,,,,up,0.667174692754088,1741.9087201183766,None,001,45,2019_Oct_21_1104,ACPT_experiment_5_30_19,3.1.0,59.95276633637824,
,,,C,U,y,n,L,D,y,R,y,,,,,5,19,119,17,1,0,1,0,,,,,0,10,10,33,,,,,,down,0.6171744210823817,1743.8602167577974,None,001,45,2019_Oct_21_1104,ACPT_experiment_5_30_19,3.1.0,59.95276633637824,
,,,C,U,y,n,L,U,d,R,u,,,,,5,19,119,17,1,0,1,0,,,,,0,11,11,21,,,,,,up,0.533742531291864,1745.76167841194,None,001,45,2019_Oct_21_1104,ACPT_experiment_5_30_19,3.1.0,59.95276633637824,
,,,C,U,y,n,R,G,g,R,c ,,,,,5,19,119,17,1,0,1,0,,,,,0,12,12,7,,,,,,up,0.5003824533887382,1747.579739871324,None,001,45,2019_Oct_21_1104,ACPT_experiment_5_30_19,3.1.0,59.95276633637824,
,,,C,U,y,n,R,U,d,L,u,,,,,5,19,119,17,1,0,1,0,,,,,0,13,13,8,,,,,,up,0.5804667440634148,1749.3844377995556,None,001,45,2019_Oct_21_1104,ACPT_experiment_5_30_19,3.1.0,59.95276633637824,
,,,C,U,y,n,L,U,y,L,u,,,,,5,19,119,17,1,0,1,0,,,,,0,14,14,24,,,,,,down,0.6505028039537137,1751.2492213587084,None,001,45,2019_Oct_21_1104,ACPT_experiment_5_30_19,3.1.0,59.95276633637824,
,,,C,U,y,n,L,U,y,R,u,,,,,5,19,119,17,1,0,1,0,,,,,0,15,15,25,,,,,,down,0.633801936837699,1753.2007291668551,None,001,45,2019_Oct_21_1104,ACPT_experiment_5_30_19,3.1.0,59.95276633637824,
,,,C,U,y,n,L,U,g,L,u,,,,,5,19,119,17,1,0,1,0,,,,,0,16,16,22,,,,,,up,0.6171400093335251,1755.1355463710397,None,001,45,2019_Oct_21_1104,ACPT_experiment_5_30_19,3.1.0,59.95276633637824,
,,,C,U,y,n,L,G,g,R,c ,,,,,5,19,119,17,1,0,1,0,,,,,0,17,17,19,,,,,,up,0.4003468945811619,1757.0203008190601,None,001,45,2019_Oct_21_1104,ACPT_experiment_5_30_19,3.1.0,59.95276633637824,
,,,C,U,y,n,R,G,g,L,c ,,,,,5,19,119,17,1,0,1,0,,,,,0,18,18,6,,,,,,up,0.6004560462351947,1758.7049533600057,None,001,45,2019_Oct_21_1104,ACPT_experiment_5_30_19,3.1.0,59.95276633637824,
,,,C,U,y,n,R,G,d,R,i,,,,,5,19,119,17,1,0,1,0,,,,,0,19,19,5,,,,,,up,0.6338879662116597,1760.5730365229401,None,001,45,2019_Oct_21_1104,ACPT_experiment_5_30_19,3.1.0,59.95276633637824,
,,,C,U,y,n,R,U,g,R,u,,,,,5,19,119,17,1,0,1,0,,,,,0,20,20,11,,,,,,up,0.5637737252409352,1762.5111928742326,None,001,45,2019_Oct_21_1104,ACPT_experiment_5_30_19,3.1.0,59.95276633637824,
,,,C,U,y,n,L,G,d,L,i,,,,,5,19,119,17,1,0,1,0,,,,,0,21,21,16,,,,,,up,0.5170863390794693,1764.35928975357,None,001,45,2019_Oct_21_1104,ACPT_experiment_5_30_19,3.1.0,59.95276633637824,
,,,C,U,y,n,R,U,g,L,u,,,,,5,19,119,17,1,0,1,0,,,,,0,22,22,10,,,,,,up,0.6171430279082415,1766.1606757018635,None,001,45,2019_Oct_21_1104,ACPT_experiment_5_30_19,3.1.0,59.95276633637824,
,,,C,U,y,n,R,U,d,R,u,,,,,5,19,119,17,1,0,1,0,,,,,0,23,23,9,,,,,,up,0.45035712754906854,1768.0454561096249,None,001,45,2019_Oct_21_1104,ACPT_experiment_5_30_19,3.1.0,59.95276633637824,
,,,C,U,y,n,L,G,y,R,y,,,,,5,19,119,17,1,0,1,0,,,,,0,24,24,35,,,,,,up,0.7838401821773004,1769.8136175140107,None,001,45,2019_Oct_21_1104,ACPT_experiment_5_30_19,3.1.0,59.95276633637824,
,,,C,U,y,n,L,G,d,R,i,,,,,5,19,119,17,1,0,1,0,,,,,0,25,25,17,,,,,,up,0.6504855980792854,1771.8984189310504,None,001,45,2019_Oct_21_1104,ACPT_experiment_5_30_19,3.1.0,59.95276633637824,
,,,C,U,y,n,L,U,d,L,u,,,,,5,19,119,17,1,0,1,0,,,,,0,26,26,20,,,,,,up,0.5504624154273188,1773.8332319092306,None,001,45,2019_Oct_21_1104,ACPT_experiment_5_30_19,3.1.0,59.95276633637824,
,,,C,U,y,n,L,D,g,R,i,,,,,5,19,119,17,1,0,1,0,,,,,0,27,27,15,,,,,,up,0.61713548147236,1775.6679815577172,None,001,45,2019_Oct_21_1104,ACPT_experiment_5_30_19,3.1.0,59.95276633637824,
,,,C,U,y,n,R,G,d,L,i,,,,,5,19,119,17,1,0,1,0,,,,,0,28,28,4,,,,,,up,0.383626104873656,1777.569435665424,None,001,45,2019_Oct_21_1104,ACPT_experiment_5_30_19,3.1.0,59.95276633637824,
,,,C,U,y,n,R,D,g,L,i,,,,,5,19,119,17,1,0,1,0,,,,,0,29,29,2,,,,,,up,0.6504931445151669,1779.237393376402,None,001,45,2019_Oct_21_1104,ACPT_experiment_5_30_19,3.1.0,59.95276633637824,
,,,C,U,y,n,R,D,d,R,c ,,,,,5,19,119,17,1,0,1,0,,,,,0,30,30,1,,,,,,up,0.4336731644507381,1781.1555100153282,None,001,45,2019_Oct_21_1104,ACPT_experiment_5_30_19,3.1.0,59.95276633637824,
,,,C,U,y,n,R,U,y,R,u,,,,,5,19,119,17,1,0,1,0,,,,,0,31,31,31,,,,,,down,0.9173469024290171,1782.906890862232,None,001,45,2019_Oct_21_1104,ACPT_experiment_5_30_19,3.1.0,59.95276633637824,
,,,C,U,y,n,L,U,g,R,u,,,,,5,19,119,17,1,0,1,0,,,,,0,32,32,23,,,,,,up,0.5504243813884386,1785.1252412595668,None,001,45,2019_Oct_21_1104,ACPT_experiment_5_30_19,3.1.0,59.95276633637824,
,,,C,U,y,n,R,G,y,L,y,,,,,5,19,119,17,1,0,1,0,,,,,0,33,33,28,,,,,,down,0.8339660265482962,1786.95998305976,None,001,45,2019_Oct_21_1104,ACPT_experiment_5_30_19,3.1.0,59.95276633637824,
,,,C,U,y,n,R,U,y,L,u,,,,,5,19,119,17,1,0,1,0,,,,,0,34,34,30,,,,,,down,0.60045483880549,1789.0782740515488,None,001,45,2019_Oct_21_1104,ACPT_experiment_5_30_19,3.1.0,59.95276633637824,
,,,C,U,y,n,R,D,y,L,y,,,,,5,19,119,17,1,0,1,0,,,,,0,35,35,26,,,,,,down,0.7172202430438119,1790.9630532518804,None,001,45,2019_Oct_21_1104,ACPT_experiment_5_30_19,3.1.0,59.95276633637824,
,,,C,U,y,n,R,G,d,L,i,,,,,5,19,119,17,1,0,1,0,,,,,1,0,36,4,,,,,,up,0.5504141182354942,1792.9645906118712,None,001,45,2019_Oct_21_1104,ACPT_experiment_5_30_19,3.1.0,59.95276633637824,
,,,C,U,y,n,L,G,y,L,y,,,,,5,19,119,17,1,0,1,0,,,,,1,1,37,34,,,,,,down,0.6004777799716976,1794.7993324120644,None,001,45,2019_Oct_21_1104,ACPT_experiment_5_30_19,3.1.0,59.95276633637824,
,,,C,U,y,n,R,D,g,L,i,,,,,5,19,119,17,1,0,1,0,,,,,1,2,38,2,,,,,,up,0.6004814022608116,1796.684092293519,None,001,45,2019_Oct_21_1104,ACPT_experiment_5_30_19,3.1.0,59.95276633637824,
,,,C,U,y,n,R,D,y,R,y,,,,,5,19,119,17,1,0,1,0,,,,,1,3,39,27,,,,,,down,0.5670980813338247,1798.5688950387312,None,001,45,2019_Oct_21_1104,ACPT_experiment_5_30_19,3.1.0,59.95276633637824,
,,,C,U,y,n,R,U,g,L,u,,,,,5,19,119,17,1,0,1,0,,,,,1,4,40,10,,,,,,up,0.45034022353138425,1800.4203141611597,None,001,45,2019_Oct_21_1104,ACPT_experiment_5_30_19,3.1.0,59.95276633637824,
,,,C,U,y,n,R,D,y,L,y,,,,,5,19,119,17,1,0,1,0,,,,,1,5,41,26,,,,,,down,0.6335492821526714,1802.1719262308688,None,001,45,2019_Oct_21_1104,ACPT_experiment_5_30_19,3.1.0,59.95276633637824,
,,,C,U,y,n,R,G,g,R,c ,,,,,5,19,119,17,1,0,1,0,,,,,1,6,42,7,,,,,,up,0.46720439552700554,1804.0897971578306,None,001,45,2019_Oct_21_1104,ACPT_experiment_5_30_19,3.1.0,59.95276633637824,
,,,C,U,y,n,R,D,g,R,i,,,,,5,19,119,17,1,0,1,0,,,,,1,7,43,3,,,,,,up,0.5170649071997104,1805.841143291128,None,001,45,2019_Oct_21_1104,ACPT_experiment_5_30_19,3.1.0,59.95276633637824,
,,,C,U,y,n,R,G,d,R,i,,,,,5,19,119,17,1,0,1,0,,,,,1,8,44,5,,,,,,up,0.5504231739578245,1807.6425225985577,None,001,45,2019_Oct_21_1104,ACPT_experiment_5_30_19,3.1.0,59.95276633637824,
,,,C,U,y,n,R,U,g,R,u,,,,,5,19,119,17,1,0,1,0,,,,,1,9,45,11,,,,,,up,0.4333870035879954,1809.4942236558436,None,001,45,2019_Oct_21_1104,ACPT_experiment_5_30_19,3.1.0,59.95276633637824,
,,,C,U,y,n,L,D,d,R,c ,,,,,5,19,119,17,1,0,1,0,,,,,1,10,46,13,,,,,,up,0.5337419275774664,1811.211930191239,None,001,45,2019_Oct_21_1104,ACPT_experiment_5_30_19,3.1.0,59.95276633637824,
,,,C,U,y,n,L,D,y,L,y,,,,,5,19,119,17,1,0,1,0,,,,,1,11,47,32,,,,,,down,0.8339699506941542,1813.0300010082037,None,001,45,2019_Oct_21_1104,ACPT_experiment_5_30_19,3.1.0,59.95276633637824,
,,,C,U,y,n,L,D,g,L,i,,,,,5,19,119,17,1,0,1,0,,,,,1,12,48,14,,,,,,up,0.7505628132148559,1815.1649771705215,None,001,45,2019_Oct_21_1104,ACPT_experiment_5_30_19,3.1.0,59.95276633637824,
,,,C,U,y,n,R,G,g,L,c ,,,,,5,19,119,17,1,0,1,0,,,,,1,13,49,6,,,,,,up,0.5337434368639151,1817.1998646471193,None,001,45,2019_Oct_21_1104,ACPT_experiment_5_30_19,3.1.0,59.95276633637824,
,,,C,U,y,n,L,G,g,L,c ,,,,,5,19,119,17,1,0,1,0,,,,,1,14,50,18,,,,,,up,0.45033811052871897,1819.017930936223,None,001,45,2019_Oct_21_1104,ACPT_experiment_5_30_19,3.1.0,59.95276633637824,
,,,C,U,y,n,R,D,d,R,c ,,,,,5,19,119,17,1,0,1,0,,,,,1,15,51,1,,,,,,up,0.6171626486429886,1820.7525918989913,None,001,45,2019_Oct_21_1104,ACPT_experiment_5_30_19,3.1.0,59.95276633637824,
,,,C,U,y,n,L,U,d,R,u,,,,,5,19,119,17,1,0,1,0,,,,,1,16,52,21,,,,,,up,0.4637079806880138,1822.6740428553057,None,001,45,2019_Oct_21_1104,ACPT_experiment_5_30_19,3.1.0,59.95276633637824,
,,,C,U,y,n,L,D,g,R,i,,,,,5,19,119,17,1,0,1,0,,,,,1,17,53,15,,,,,,up,0.5003821515310847,1824.4220754993776,None,001,45,2019_Oct_21_1104,ACPT_experiment_5_30_19,3.1.0,59.95276633637824,
,,,C,U,y,n,L,G,d,L,i,,,,,5,19,119,17,1,0,1,0,,,,,1,18,54,16,,,,,,up,0.4503390161016796,1826.2067823142925,None,001,45,2019_Oct_21_1104,ACPT_experiment_5_30_19,3.1.0,59.95276633637824,
,,,C,U,y,n,R,U,y,L,u,,,,,5,19,119,17,1,0,1,0,,,,,1,19,55,30,,,,,,down,0.7338921318441862,1827.941448710495,None,001,45,2019_Oct_21_1104,ACPT_experiment_5_30_19,3.1.0,59.95276633637824,
,,,C,U,y,n,L,G,y,R,y,,,,,5,19,119,17,1,0,1,0,,,,,1,20,56,35,,,,,,down,1.2309598885785817,1829.9796650710487,None,001,45,2019_Oct_21_1104,ACPT_experiment_5_30_19,3.1.0,59.95276633637824,
,,,C,U,y,n,L,U,y,R,u,,,,,5,19,119,17,1,0,1,0,,,,,1,21,57,25,,,,,,down,0.5504141182354942,1832.4949472081507,None,001,45,2019_Oct_21_1104,ACPT_experiment_5_30_19,3.1.0,59.95276633637824,
,,,C,U,y,n,L,D,y,R,y,,,,,5,19,119,17,1,0,1,0,,,,,1,22,58,33,,,,,,down,0.3836245955862978,1834.329684178625,None,001,45,2019_Oct_21_1104,ACPT_experiment_5_30_19,3.1.0,59.95276633637824,
,,,C,U,y,n,L,G,d,R,i,,,,,5,19,119,17,1,0,1,0,,,,,1,23,59,17,,,,,,up,0.55041955166962,1835.9976304190204,None,001,45,2019_Oct_21_1104,ACPT_experiment_5_30_19,3.1.0,59.95276633637824,
,,,C,U,y,n,L,G,g,R,c ,,,,,5,19,119,17,1,0,1,0,,,,,1,24,60,19,,,,,,up,0.5004084131296622,1837.8156713520984,None,001,45,2019_Oct_21_1104,ACPT_experiment_5_30_19,3.1.0,59.95276633637824,
,,,C,U,y,n,L,U,y,L,u,,,,,5,19,119,17,1,0,1,0,,,,,1,25,61,24,,,,,,down,0.6671813336188279,1839.6004005044642,None,001,45,2019_Oct_21_1104,ACPT_experiment_5_30_19,3.1.0,59.95276633637824,
,,,C,U,y,n,R,U,d,L,u,,,,,5,19,119,17,1,0,1,0,,,,,1,26,62,8,,,,,,up,0.7505670392192769,1841.5519004643174,None,001,45,2019_Oct_21_1104,ACPT_experiment_5_30_19,3.1.0,59.95276633637824,
,,,C,U,y,n,R,U,d,R,u,,,,,5,19,119,17,1,0,1,0,,,,,1,27,63,9,,,,,,up,0.8006267768087127,1843.5700949220936,None,001,45,2019_Oct_21_1104,ACPT_experiment_5_30_19,3.1.0,59.95276633637824,
,,,C,U,y,n,L,U,g,R,u,,,,,5,19,119,17,1,0,1,0,,,,,1,28,64,23,,,,,,up,0.583777818427734,1845.65504938086,None,001,45,2019_Oct_21_1104,ACPT_experiment_5_30_19,3.1.0,59.95276633637824,
,,,C,U,y,n,R,D,d,L,c,,,,,5,19,119,17,1,0,1,0,,,,,1,29,65,0,,,,,,up,0.4836957735733449,1847.5231566923912,None,001,45,2019_Oct_21_1104,ACPT_experiment_5_30_19,3.1.0,59.95276633637824,
,,,C,U,y,n,L,U,d,L,u,,,,,5,19,119,17,1,0,1,0,,,,,1,30,66,20,,,,,,up,0.4503169805075231,1849.3078792038932,None,001,45,2019_Oct_21_1104,ACPT_experiment_5_30_19,3.1.0,59.95276633637824,
,,,C,U,y,n,R,U,y,R,u,,,,,5,19,119,17,1,0,1,0,,,,,1,31,67,31,,,,,,down,0.733919902730122,1851.0424948880445,None,001,45,2019_Oct_21_1104,ACPT_experiment_5_30_19,3.1.0,59.95276633637824,
,,,C,U,y,n,L,U,g,L,u,,,,,5,19,119,17,1,0,1,0,,,,,1,32,68,22,,,,,,up,0.5337772448983742,1853.060730700291,None,001,45,2019_Oct_21_1104,ACPT_experiment_5_30_19,3.1.0,59.95276633637824,
,,,C,U,y,n,R,G,y,L,y,,,,,5,19,119,17,1,0,1,0,,,,,1,33,69,28,,,,,,down,0.7672353057296277,1854.8788271751391,None,001,45,2019_Oct_21_1104,ACPT_experiment_5_30_19,3.1.0,59.95276633637824,
,,,C,U,y,n,R,G,y,R,y,,,,,5,19,119,17,1,0,1,0,,,,,1,34,70,29,,,,,,down,0.8673110115787495,1856.9303768811005,None,001,45,2019_Oct_21_1104,ACPT_experiment_5_30_19,3.1.0,59.95276633637824,
,,,C,U,y,n,L,D,d,L,c ,,,,,5,19,119,17,1,0,1,0,,,,,1,35,71,12,,,,,,up,0.9507302233569135,1859.0987046693126,None,001,45,2019_Oct_21_1104,ACPT_experiment_5_30_19,3.1.0,59.95276633637824,
,,,C,U,y,n,,,,,,,,,,5,19,119,17,2,0,2,0,0,0,0,0,,,,,,,,,,,,,,001,45,2019_Oct_21_1104,ACPT_experiment_5_30_19,3.1.0,59.95276633637824,
,,,C,U,y,n,L,U,y,R,u,,,,,5,19,119,17,2,0,2,0,,,,,0,0,0,25,,,,,,down,0.7670369853858574,1916.7264649292956,None,001,45,2019_Oct_21_1104,ACPT_experiment_5_30_19,3.1.0,59.95276633637824,
,,,C,U,y,n,R,U,g,R,u,,,,,5,19,119,17,2,0,2,0,,,,,0,1,1,11,,,,,,up,0.5170715480644503,1918.8112183510011,None,001,45,2019_Oct_21_1104,ACPT_experiment_5_30_19,3.1.0,59.95276633637824,
,,,C,U,y,n,L,U,g,L,u,,,,,5,19,119,17,2,0,2,0,,,,,0,2,2,22,,,,,,up,0.5170603793385453,1920.61260490301,None,001,45,2019_Oct_21_1104,ACPT_experiment_5_30_19,3.1.0,59.95276633637824,
,,,C,U,y,n,R,U,g,L,u,,,,,5,19,119,17,2,0,2,0,,,,,0,3,3,10,,,,,,up,0.4002985973893374,1922.41399024759,None,001,45,2019_Oct_21_1104,ACPT_experiment_5_30_19,3.1.0,59.95276633637824,
,,,C,U,y,n,R,U,d,R,u,,,,,5,19,119,17,2,0,2,0,,,,,0,4,4,9,,,,,,up,0.5501478799651522,1924.0988824633496,None,001,45,2019_Oct_21_1104,ACPT_experiment_5_30_19,3.1.0,59.95276633637824,
,,,C,U,y,n,L,U,d,L,u,,,,,5,19,119,17,2,0,2,0,,,,,0,5,5,20,,,,,,up,0.33360168460603745,1925.916658365587,None,001,45,2019_Oct_21_1104,ACPT_experiment_5_30_19,3.1.0,59.95276633637824,
,,,C,U,y,n,R,G,y,L,y,,,,,5,19,119,17,2,0,2,0,,,,,0,6,6,28,,,,,,up,0.4503625609822848,1927.5512442262216,None,001,45,2019_Oct_21_1104,ACPT_experiment_5_30_19,3.1.0,59.95276633637824,
,,,C,U,y,n,L,D,d,R,c ,,,,,5,19,119,17,2,0,2,0,,,,,0,7,7,13,,,,,,up,0.5504424928358276,1929.3025888502307,None,001,45,2019_Oct_21_1104,ACPT_experiment_5_30_19,3.1.0,59.95276633637824,
,,,C,U,y,n,L,D,d,L,c ,,,,,5,19,119,17,2,0,2,0,,,,,0,8,8,12,,,,,,up,0.46702297920001,1931.137345139582,None,001,45,2019_Oct_21_1104,ACPT_experiment_5_30_19,3.1.0,59.95276633637824,
,,,C,U,y,n,R,U,y,L,u,,,,,5,19,119,17,2,0,2,0,,,,,0,9,9,30,,,,,,down,0.7005275260789858,1932.8887033471765,None,001,45,2019_Oct_21_1104,ACPT_experiment_5_30_19,3.1.0,59.95276633637824,
,,,C,U,y,n,L,G,d,L,i,,,,,5,19,119,17,2,0,2,0,,,,,0,10,10,16,,,,,,up,0.5337370978577383,1934.8735606682158,None,001,45,2019_Oct_21_1104,ACPT_experiment_5_30_19,3.1.0,59.95276633637824,
,,,C,U,y,n,L,G,y,R,y,,,,,5,19,119,17,2,0,2,0,,,,,0,11,11,35,,,,,,down,0.8339678376923985,1936.691620014598,None,001,45,2019_Oct_21_1104,ACPT_experiment_5_30_19,3.1.0,59.95276633637824,
,,,C,U,y,n,L,D,g,R,i,,,,,5,19,119,17,2,0,2,0,,,,,0,12,12,15,,,,,,up,0.6004602722387062,1938.826590441624,None,001,45,2019_Oct_21_1104,ACPT_experiment_5_30_19,3.1.0,59.95276633637824,
,,,C,U,y,n,R,D,g,R,i,,,,,5,19,119,17,2,0,2,0,,,,,0,13,13,3,,,,,,up,0.900687691641906,1940.7113747735311,None,001,45,2019_Oct_21_1104,ACPT_experiment_5_30_19,3.1.0,59.95276633637824,
,,,C,U,y,n,R,G,d,L,i,,,,,5,19,119,17,2,0,2,0,,,,,0,14,14,4,,,,,,up,0.5504252869604898,1942.8963756579742,None,001,45,2019_Oct_21_1104,ACPT_experiment_5_30_19,3.1.0,59.95276633637824,
,,,C,U,y,n,R,D,d,R,c ,,,,,5,19,119,17,2,0,2,0,,,,,0,15,15,1,,,,,,up,0.5337494740133479,1944.7311271176059,None,001,45,2019_Oct_21_1104,ACPT_experiment_5_30_19,3.1.0,59.95276633637824,
,,,C,U,y,n,R,G,g,R,c ,,,,,5,19,119,17,2,0,2,0,,,,,0,16,16,7,,,,,,up,0.7505646243589581,1946.5491979345707,None,001,45,2019_Oct_21_1104,ACPT_experiment_5_30_19,3.1.0,59.95276633637824,
,,,C,U,y,n,R,D,g,L,i,,,,,5,19,119,17,2,0,2,0,,,,,0,17,17,2,,,,,,up,0.5670944590447107,1948.5674068815051,None,001,45,2019_Oct_21_1104,ACPT_experiment_5_30_19,3.1.0,59.95276633637824,
,,,C,U,y,n,R,U,y,R,u,,,,,5,19,119,17,2,0,2,0,,,,,0,18,18,31,,,,,,down,0.6335513951544272,1950.4357704700105,None,001,45,2019_Oct_21_1104,ACPT_experiment_5_30_19,3.1.0,59.95276633637824,
,,,C,U,y,n,R,D,y,R,y,,,,,5,19,119,17,2,0,2,0,,,,,0,19,19,27,,,,,,down,1.0341394738388772,1952.3536486415505,None,001,45,2019_Oct_21_1104,ACPT_experiment_5_30_19,3.1.0,59.95276633637824,
,,,C,U,y,n,L,U,g,R,u,,,,,5,19,119,17,2,0,2,0,,,,,0,20,20,23,,,,,,up,0.7172114891773163,1954.6720949691835,None,001,45,2019_Oct_21_1104,ACPT_experiment_5_30_19,3.1.0,59.95276633637824,
,,,C,U,y,n,L,G,g,L,c ,,,,,5,19,119,17,2,0,2,0,,,,,0,21,21,18,,,,,,up,0.48369758471744717,1956.6736296124573,None,001,45,2019_Oct_21_1104,ACPT_experiment_5_30_19,3.1.0,59.95276633637824,
,,,C,U,y,n,R,G,d,R,i,,,,,5,19,119,17,2,0,2,0,,,,,0,22,22,5,,,,,,up,0.5003631345116446,1958.4416648404294,None,001,45,2019_Oct_21_1104,ACPT_experiment_5_30_19,3.1.0,59.95276633637824,
,,,C,U,y,n,L,G,d,R,i,,,,,5,19,119,17,2,0,2,0,,,,,0,23,23,17,,,,,,up,0.5003764162393054,1960.2263532420393,None,001,45,2019_Oct_21_1104,ACPT_experiment_5_30_19,3.1.0,59.95276633637824,
,,,C,U,y,n,L,U,d,R,u,,,,,5,19,119,17,2,0,2,0,,,,,0,24,24,21,,,,,,up,0.7339144692959962,1962.0110600569542,None,001,45,2019_Oct_21_1104,ACPT_experiment_5_30_19,3.1.0,59.95276633637824,
,,,C,U,y,n,R,G,y,R,y,,,,,5,19,119,17,2,0,2,0,,,,,0,25,25,29,,,,,,down,0.9173580711558316,1964.0292877190504,None,001,45,2019_Oct_21_1104,ACPT_experiment_5_30_19,3.1.0,59.95276633637824,
,,,C,U,y,n,R,G,g,L,c ,,,,,5,19,119,17,2,0,2,0,,,,,0,26,26,6,,,,,,up,0.7839639437315782,1966.214261436322,None,001,45,2019_Oct_21_1104,ACPT_experiment_5_30_19,3.1.0,59.95276633637824,
,,,C,U,y,n,R,U,d,L,u,,,,,5,19,119,17,2,0,2,0,,,,,0,27,27,8,,,,,,up,1.1341985775270587,1968.282546723005,None,001,45,2019_Oct_21_1104,ACPT_experiment_5_30_19,3.1.0,59.95276633637824,
,,,C,U,y,n,L,D,y,L,y,,,,,5,19,119,17,2,0,2,0,,,,,0,28,28,32,,,,,,down,0.8506539137933942,1970.701063323052,None,001,45,2019_Oct_21_1104,ACPT_experiment_5_30_19,3.1.0,59.95276633637824,
,,,C,U,y,n,L,D,y,R,y,,,,,5,19,119,17,2,0,2,0,,,,,0,29,29,33,,,,,,down,0.767281489920606,1972.8193331848197,None,001,45,2019_Oct_21_1104,ACPT_experiment_5_30_19,3.1.0,59.95276633637824,
,,,C,U,y,n,L,U,y,L,u,,,,,5,19,119,17,2,0,2,0,,,,,0,30,30,24,,,,,,down,2.9689349442860475,1974.8709508087059,None,001,45,2019_Oct_21_1104,ACPT_experiment_5_30_19,3.1.0,59.95276633637824,
,,,C,U,y,n,R,D,d,L,c,,,,,5,19,119,17,2,0,2,0,,,,,0,31,31,0,,,,,,up,0.5170655109150175,1979.1241965309337,None,001,45,2019_Oct_21_1104,ACPT_experiment_5_30_19,3.1.0,59.95276633637824,
,,,C,U,y,n,R,D,y,L,y,,,,,5,19,119,17,2,0,2,0,,,,,0,32,32,26,,,,,,down,0.6004334069266406,1980.925609344541,None,001,45,2019_Oct_21_1104,ACPT_experiment_5_30_19,3.1.0,59.95276633637824,
,,,C,U,y,n,L,G,g,R,c ,,,,,5,19,119,17,2,0,2,0,,,,,0,33,33,19,,,,,,up,0.8006113820783867,1982.8103607739868,None,001,45,2019_Oct_21_1104,ACPT_experiment_5_30_19,3.1.0,59.95276633637824,
,,,C,U,y,n,L,D,g,L,i,,,,,5,19,119,17,2,0,2,0,,,,,0,34,34,14,,,,,,up,0.5337455498665804,1984.8952947064463,None,001,45,2019_Oct_21_1104,ACPT_experiment_5_30_19,3.1.0,59.95276633637824,
,,,C,U,y,n,L,G,y,L,y,,,,,5,19,119,17,2,0,2,0,,,,,0,35,35,34,,,,,,down,2.4518887522481236,1986.7133576751185,None,001,45,2019_Oct_21_1104,ACPT_experiment_5_30_19,3.1.0,59.95276633637824,
,,,C,U,y,n,L,U,d,L,u,,,,,5,19,119,17,2,0,2,0,,,,,1,0,36,20,,,,,,up,0.46702026248294715,1990.4495584127371,None,001,45,2019_Oct_21_1104,ACPT_experiment_5_30_19,3.1.0,59.95276633637824,
,,,C,U,y,n,R,U,d,L,u,,,,,5,19,119,17,2,0,2,0,,,,,1,1,37,8,,,,,,up,0.46704773151031986,1992.184196736196,None,001,45,2019_Oct_21_1104,ACPT_experiment_5_30_19,3.1.0,59.95276633637824,
,,,C,U,y,n,R,D,y,L,y,,,,,5,19,119,17,2,0,2,0,,,,,1,2,38,26,,,,,,down,0.7005347706581233,1993.9355697348064,None,001,45,2019_Oct_21_1104,ACPT_experiment_5_30_19,3.1.0,59.95276633637824,
,,,C,U,y,n,L,G,d,L,i,,,,,5,19,119,17,2,0,2,0,,,,,1,3,39,16,,,,,,up,0.8840085582623942,1995.9204330929942,None,001,45,2019_Oct_21_1104,ACPT_experiment_5_30_19,3.1.0,59.95276633637824,
,,,C,U,y,n,L,D,g,L,i,,,,,5,19,119,17,2,0,2,0,,,,,1,4,40,14,,,,,,up,0.4336677310157029,1998.088756655202,None,001,45,2019_Oct_21_1104,ACPT_experiment_5_30_19,3.1.0,59.95276633637824,
,,,C,U,y,n,L,G,d,R,i,,,,,5,19,119,17,2,0,2,0,,,,,1,5,41,17,,,,,,up,0.6838499019868323,1999.8067436161673,None,001,45,2019_Oct_21_1104,ACPT_experiment_5_30_19,3.1.0,59.95276633637824,
,,,C,U,y,n,L,U,y,L,u,,,,,5,19,119,17,2,0,2,0,,,,,1,6,42,24,,,,,,down,0.6838840118780354,2001.7916223690863,None,001,45,2019_Oct_21_1104,ACPT_experiment_5_30_19,3.1.0,59.95276633637824,
,,,C,U,y,n,R,D,g,R,i,,,,,5,19,119,17,2,0,2,0,,,,,1,7,43,3,,,,,,up,0.6004566499495922,2003.759780332297,None,001,45,2019_Oct_21_1104,ACPT_experiment_5_30_19,3.1.0,59.95276633637824,
,,,C,U,y,n,R,D,g,L,i,,,,,5,19,119,17,2,0,2,0,,,,,1,8,44,2,,,,,,up,0.4503619572678872,2005.6278601748,None,001,45,2019_Oct_21_1104,ACPT_experiment_5_30_19,3.1.0,59.95276633637824,
,,,C,U,y,n,L,U,d,R,u,,,,,5,19,119,17,2,0,2,0,,,,,1,9,45,21,,,,,,up,0.5504192498119664,2007.3625461917363,None,001,45,2019_Oct_21_1104,ACPT_experiment_5_30_19,3.1.0,59.95276633637824,
,,,C,U,y,n,R,U,y,R,u,,,,,5,19,119,17,2,0,2,0,,,,,1,10,46,31,,,,,,down,0.7505773023722213,2009.197283765925,None,001,45,2019_Oct_21_1104,ACPT_experiment_5_30_19,3.1.0,59.95276633637824,
,,,C,U,y,n,R,U,d,R,u,,,,,5,19,119,17,2,0,2,0,,,,,1,11,47,9,,,,,,up,0.5003718883772308,2011.2321920706881,None,001,45,2019_Oct_21_1104,ACPT_experiment_5_30_19,3.1.0,59.95276633637824,
,,,C,U,y,n,R,G,d,R,i,,,,,5,19,119,17,2,0,2,0,,,,,1,12,48,5,,,,,,up,0.5170588700502776,2013.0168862075898,None,001,45,2019_Oct_21_1104,ACPT_experiment_5_30_19,3.1.0,59.95276633637824,
,,,C,U,y,n,R,D,d,L,c,,,,,5,19,119,17,2,0,2,0,,,,,1,13,49,0,,,,,,up,0.5637954589774381,2014.8382644766307,None,001,45,2019_Oct_21_1104,ACPT_experiment_5_30_19,3.1.0,59.95276633637824,
,,,C,U,y,n,L,D,d,R,c ,,,,,5,19,119,17,2,0,2,0,,,,,1,14,50,13,,,,,,up,0.4836942642859867,2016.6863758451254,None,001,45,2019_Oct_21_1104,ACPT_experiment_5_30_19,3.1.0,59.95276633637824,
,,,C,U,y,n,L,D,y,R,y,,,,,5,19,119,17,2,0,2,0,,,,,1,15,51,33,,,,,,down,0.7339205064445196,2018.4543962820826,None,001,45,2019_Oct_21_1104,ACPT_experiment_5_30_19,3.1.0,59.95276633637824,
,,,C,U,y,n,L,D,d,L,c ,,,,,5,19,119,17,2,0,2,0,,,,,1,16,52,12,,,,,,up,0.48372022402600123,2020.455910097192,None,001,45,2019_Oct_21_1104,ACPT_experiment_5_30_19,3.1.0,59.95276633637824,
,,,C,U,y,n,L,D,g,R,i,,,,,5,19,119,17,2,0,2,0,,,,,1,17,53,15,,,,,,up,0.5170585681935336,2022.223953777172,None,001,45,2019_Oct_21_1104,ACPT_experiment_5_30_19,3.1.0,59.95276633637824,
,,,C,U,y,n,L,G,y,L,y,,,,,5,19,119,17,2,0,2,0,,,,,1,18,54,34,,,,,,down,0.7672516060329144,2024.0420182551316,None,001,45,2019_Oct_21_1104,ACPT_experiment_5_30_19,3.1.0,59.95276633637824,
,,,C,U,y,n,L,U,g,L,u,,,,,5,19,119,17,2,0,2,0,,,,,1,19,55,22,,,,,,up,0.5337407201468523,2026.1102718467819,None,001,45,2019_Oct_21_1104,ACPT_experiment_5_30_19,3.1.0,59.95276633637824,
,,,C,U,y,n,L,G,g,L,c ,,,,,5,19,119,17,2,0,2,0,,,,,1,20,56,18,,,,,,up,0.5166522680665366,2027.9620746300288,None,001,45,2019_Oct_21_1104,ACPT_experiment_5_30_19,3.1.0,59.95276633637824,
,,,C,U,y,n,R,G,y,L,y,,,,,5,19,119,17,2,0,2,0,,,,,1,21,57,28,,,,,,down,0.6004599703819622,2029.7630775212192,None,001,45,2019_Oct_21_1104,ACPT_experiment_5_30_19,3.1.0,59.95276633637824,
,,,C,U,y,n,L,D,y,L,y,,,,,5,19,119,17,2,0,2,0,,,,,1,22,58,32,,,,,,down,0.8673312360278942,2031.647857627123,None,001,45,2019_Oct_21_1104,ACPT_experiment_5_30_19,3.1.0,59.95276633637824,
,,,C,U,y,n,L,U,y,R,u,,,,,5,19,119,17,2,0,2,0,,,,,1,23,59,25,,,,,,down,0.7672488893149421,2033.8161923580565,None,001,45,2019_Oct_21_1104,ACPT_experiment_5_30_19,3.1.0,59.95276633637824,
,,,C,U,y,n,R,G,d,L,i,,,,,5,19,119,17,2,0,2,0,,,,,1,24,60,4,,,,,,up,0.5504189479543129,2035.8844480627095,None,001,45,2019_Oct_21_1104,ACPT_experiment_5_30_19,3.1.0,59.95276633637824,
,,,C,U,y,n,R,D,d,R,c ,,,,,5,19,119,17,2,0,2,0,,,,,1,25,61,1,,,,,,up,0.8006134950801425,2037.7191844294684,None,001,45,2019_Oct_21_1104,ACPT_experiment_5_30_19,3.1.0,59.95276633637824,
,,,C,U,y,n,R,G,g,R,c ,,,,,5,19,119,17,2,0,2,0,,,,,1,26,62,7,,,,,,up,0.4003106716872935,2039.8041138340668,None,001,45,2019_Oct_21_1104,ACPT_experiment_5_30_19,3.1.0,59.95276633637824,
,,,C,U,y,n,R,U,g,R,u,,,,,5,19,119,17,2,0,2,0,,,,,1,27,63,11,,,,,,up,0.4500661369675072,2041.5057014835083,None,001,45,2019_Oct_21_1104,ACPT_experiment_5_30_19,3.1.0,59.95276633637824,
,,,C,U,y,n,L,G,y,R,y,,,,,5,19,119,17,2,0,2,0,,,,,1,28,64,35,,,,,,down,0.7005371855175326,2043.24009107643,None,001,45,2019_Oct_21_1104,ACPT_experiment_5_30_19,3.1.0,59.95276633637824,
,,,C,U,y,n,R,D,y,R,y,,,,,5,19,119,17,2,0,2,0,,,,,1,29,65,27,,,,,,down,0.6838526187038951,2045.2249526234737,None,001,45,2019_Oct_21_1104,ACPT_experiment_5_30_19,3.1.0,59.95276633637824,
,,,C,U,y,n,R,U,y,L,u,,,,,5,19,119,17,2,0,2,0,,,,,1,30,66,30,,,,,,down,1.2676630377363836,2047.1931003235304,None,001,45,2019_Oct_21_1104,ACPT_experiment_5_30_19,3.1.0,59.95276633637824,
,,,C,U,y,n,L,U,g,R,u,,,,,5,19,119,17,2,0,2,0,,,,,1,31,67,23,,,,,,up,0.6671707686073205,2049.7450862135065,None,001,45,2019_Oct_21_1104,ACPT_experiment_5_30_19,3.1.0,59.95276633637824,
,,,C,U,y,n,R,G,y,R,y,,,,,5,19,119,17,2,0,2,0,,,,,1,32,68,29,,,,,,down,0.7339036024268353,2051.696585871502,None,001,45,2019_Oct_21_1104,ACPT_experiment_5_30_19,3.1.0,59.95276633637824,
,,,C,U,y,n,R,U,g,L,u,,,,,5,19,119,17,2,0,2,0,,,,,1,33,69,10,,,,,,up,0.5837717812792107,2053.714802666729,None,001,45,2019_Oct_21_1104,ACPT_experiment_5_30_19,3.1.0,59.95276633637824,
,,,C,U,y,n,L,G,g,R,c ,,,,,5,19,119,17,2,0,2,0,,,,,1,34,70,19,,,,,,up,0.6171288406076201,2055.582918732126,None,001,45,2019_Oct_21_1104,ACPT_experiment_5_30_19,3.1.0,59.95276633637824,
,,,C,U,y,n,R,G,g,L,c ,,,,,5,19,119,17,2,0,2,0,,,,,1,35,71,6,,,,,,up,0.4003653078862044,2057.4676580872747,None,001,45,2019_Oct_21_1104,ACPT_experiment_5_30_19,3.1.0,59.95276633637824,
,,,C,U,y,n,,,,,,,,,,5,19,119,17,3,0,3,0,0,0,0,0,,,,,,,,,,,,,,001,45,2019_Oct_21_1104,ACPT_experiment_5_30_19,3.1.0,59.95276633637824,
,,,C,U,y,n,R,G,d,R,i,,,,,5,19,119,17,3,0,3,0,,,,,0,0,0,5,,,,,,up,0.7336313270070605,2107.589768783231,None,001,45,2019_Oct_21_1104,ACPT_experiment_5_30_19,3.1.0,59.95276633637824,
,,,C,U,y,n,L,G,y,L,y,,,,,5,19,119,17,3,0,3,0,,,,,0,1,1,34,,,,,,down,0.5504207590993246,2109.607711793752,None,001,45,2019_Oct_21_1104,ACPT_experiment_5_30_19,3.1.0,59.95276633637824,
,,,C,U,y,n,R,U,g,L,u,,,,,5,19,119,17,3,0,3,0,,,,,0,2,2,10,,,,,,up,0.38361916215217207,2111.4424632533837,None,001,45,2019_Oct_21_1104,ACPT_experiment_5_30_19,3.1.0,59.95276633637824,
,,,C,U,y,n,R,D,d,R,c ,,,,,5,19,119,17,3,0,3,0,,,,,0,3,3,1,,,,,,up,0.3669466696364907,2113.1104091919215,None,001,45,2019_Oct_21_1104,ACPT_experiment_5_30_19,3.1.0,59.95276633637824,
,,,C,U,y,n,L,D,d,L,c ,,,,,5,19,119,17,3,0,3,0,,,,,0,4,4,12,,,,,,up,0.3666695644978972,2114.7786249910196,None,001,45,2019_Oct_21_1104,ACPT_experiment_5_30_19,3.1.0,59.95276633637824,
,,,C,U,y,n,R,U,g,R,u,,,,,5,19,119,17,3,0,3,0,,,,,0,5,5,11,,,,,,up,0.48369003828156565,2116.4296273690525,None,001,45,2019_Oct_21_1104,ACPT_experiment_5_30_19,3.1.0,59.95276633637824,
,,,C,U,y,n,R,G,g,L,c ,,,,,5,19,119,17,3,0,3,0,,,,,0,6,6,6,,,,,,up,0.36693972691591625,2118.197651126441,None,001,45,2019_Oct_21_1104,ACPT_experiment_5_30_19,3.1.0,59.95276633637824,
,,,C,U,y,n,L,U,y,R,u,,,,,5,19,119,17,3,0,3,0,,,,,0,7,7,25,,,,,,down,0.6338188408553833,2119.848915516741,None,001,45,2019_Oct_21_1104,ACPT_experiment_5_30_19,3.1.0,59.95276633637824,
,,,C,U,y,n,L,U,g,R,u,,,,,5,19,119,17,3,0,3,0,,,,,0,8,8,23,,,,,,up,0.7305837741960204,2121.787048323152,None,001,45,2019_Oct_21_1104,ACPT_experiment_5_30_19,3.1.0,59.95276633637824,
,,,C,U,y,n,L,G,g,R,c ,,,,,5,19,119,17,3,0,3,0,,,,,0,9,9,19,,,,,,up,1.234278509379692,2123.8019522328696,None,001,45,2019_Oct_21_1104,ACPT_experiment_5_30_19,3.1.0,59.95276633637824,
,,,C,U,y,n,R,D,y,L,y,,,,,5,19,119,17,3,0,3,0,,,,,0,10,10,26,,,,,,down,0.8339889677135943,2126.32052974775,None,001,45,2019_Oct_21_1104,ACPT_experiment_5_30_19,3.1.0,59.95276633637824,
,,,C,U,y,n,R,D,g,R,i,,,,,5,19,119,17,3,0,3,0,,,,,0,11,11,3,,,,,,up,1.1175251794384167,2128.438843378847,None,001,45,2019_Oct_21_1104,ACPT_experiment_5_30_19,3.1.0,59.95276633637824,
,,,C,U,y,n,R,U,y,L,u,,,,,5,19,119,17,3,0,3,0,,,,,0,12,12,30,,,,,,down,0.5670935534717501,2130.840695334672,None,001,45,2019_Oct_21_1104,ACPT_experiment_5_30_19,3.1.0,59.95276633637824,
,,,C,U,y,n,R,D,d,L,c,,,,,5,19,119,17,3,0,3,0,,,,,0,13,13,0,,,,,,up,0.8170263901893122,2132.7090553008884,None,001,45,2019_Oct_21_1104,ACPT_experiment_5_30_19,3.1.0,59.95276633637824,
,,,C,U,y,n,L,G,d,R,i,,,,,5,19,119,17,3,0,3,0,,,,,0,14,14,17,,,,,,up,0.5504252869613993,2134.8103982043103,None,001,45,2019_Oct_21_1104,ACPT_experiment_5_30_19,3.1.0,59.95276633637824,
,,,C,U,y,n,L,U,d,L,u,,,,,5,19,119,17,3,0,3,0,,,,,0,15,15,20,,,,,,up,0.4670184513379354,2136.645143023078,None,001,45,2019_Oct_21_1104,ACPT_experiment_5_30_19,3.1.0,59.95276633637824,
,,,C,U,y,n,L,D,g,L,i,,,,,5,19,119,17,3,0,3,0,,,,,0,16,16,14,,,,,,up,0.5838086078874767,2138.396462894777,None,001,45,2019_Oct_21_1104,ACPT_experiment_5_30_19,3.1.0,59.95276633637824,
,,,C,U,y,n,L,G,d,L,i,,,,,5,19,119,17,3,0,3,0,,,,,0,17,17,16,,,,,,up,0.4670235829153171,2140.264588921469,None,001,45,2019_Oct_21_1104,ACPT_experiment_5_30_19,3.1.0,59.95276633637824,
,,,C,U,y,n,R,U,y,R,u,,,,,5,19,119,17,3,0,3,0,,,,,0,18,18,31,,,,,,down,0.7172175263258396,2142.015932941764,None,001,45,2019_Oct_21_1104,ACPT_experiment_5_30_19,3.1.0,59.95276633637824,
,,,C,U,y,n,R,D,y,R,y,,,,,5,19,119,17,3,0,3,0,,,,,0,19,19,27,,,,,,down,0.8673258025937685,2144.0174751314744,None,001,45,2019_Oct_21_1104,ACPT_experiment_5_30_19,3.1.0,59.95276633637824,
,,,C,U,y,n,R,G,g,R,c ,,,,,5,19,119,17,3,0,3,0,,,,,0,20,20,7,,,,,,up,0.9674081493058111,2146.1691234844493,None,001,45,2019_Oct_21_1104,ACPT_experiment_5_30_19,3.1.0,59.95276633637824,
,,,C,U,y,n,L,G,y,R,y,,,,,5,19,119,17,3,0,3,0,,,,,0,21,21,35,,,,,,up,0.9006931250751222,2148.420850561847,None,001,45,2019_Oct_21_1104,ACPT_experiment_5_30_19,3.1.0,59.95276633637824,
,,,C,U,y,n,R,G,d,L,i,,,,,5,19,119,17,3,0,3,0,,,,,0,22,22,4,,,,,,up,0.600495589561433,2150.6058653317323,None,001,45,2019_Oct_21_1104,ACPT_experiment_5_30_19,3.1.0,59.95276633637824,
,,,C,U,y,n,R,D,g,L,i,,,,,5,19,119,17,3,0,3,0,,,,,0,23,23,2,,,,,,up,0.4837422596201577,2152.490643324634,None,001,45,2019_Oct_21_1104,ACPT_experiment_5_30_19,3.1.0,59.95276633637824,
,,,C,U,y,n,L,D,d,R,c ,,,,,5,19,119,17,3,0,3,0,,,,,0,24,24,13,,,,,,up,0.850641839495438,2154.258674326601,None,001,45,2019_Oct_21_1104,ACPT_experiment_5_30_19,3.1.0,59.95276633637824,
,,,C,U,y,n,L,D,y,L,y,,,,,5,19,119,17,3,0,3,0,,,,,0,25,25,32,,,,,,down,1.0174684906096445,2156.376936641933,None,001,45,2019_Oct_21_1104,ACPT_experiment_5_30_19,3.1.0,59.95276633637824,
,,,C,U,y,n,L,D,g,R,i,,,,,5,19,119,17,3,0,3,0,,,,,0,26,26,15,,,,,,up,0.6504943519448716,2158.678731908928,None,001,45,2019_Oct_21_1104,ACPT_experiment_5_30_19,3.1.0,59.95276633637824,
,,,C,U,y,n,L,U,y,L,u,,,,,5,19,119,17,3,0,3,0,,,,,0,27,27,24,,,,,,down,1.2342585867882008,2160.630241226362,None,001,45,2019_Oct_21_1104,ACPT_experiment_5_30_19,3.1.0,59.95276633637824,
,,,C,U,y,n,L,U,g,L,u,,,,,5,19,119,17,3,0,3,0,,,,,0,28,28,22,,,,,,up,0.8172859875958238,2163.1655093452046,None,001,45,2019_Oct_21_1104,ACPT_experiment_5_30_19,3.1.0,59.95276633637824,
,,,C,U,y,n,L,U,d,R,u,,,,,5,19,119,17,3,0,3,0,,,,,0,29,29,21,,,,,,up,1.1508840499127473,2165.2671166757527,None,001,45,2019_Oct_21_1104,ACPT_experiment_5_30_19,3.1.0,59.95276633637824,
,,,C,U,y,n,L,G,g,L,c ,,,,,5,19,119,17,3,0,3,0,,,,,0,30,30,18,,,,,,up,0.7338900188424304,2167.7023259927637,None,001,45,2019_Oct_21_1104,ACPT_experiment_5_30_19,3.1.0,59.95276633637824,
,,,C,U,y,n,R,U,d,R,u,,,,,5,19,119,17,3,0,3,0,,,,,0,31,31,9,,,,,,up,0.5337585297365877,2169.720536147128,None,001,45,2019_Oct_21_1104,ACPT_experiment_5_30_19,3.1.0,59.95276633637824,
,,,C,U,y,n,R,G,y,R,y,,,,,5,19,119,17,3,0,3,0,,,,,0,32,32,29,,,,,,down,0.850711568566112,2171.538603039946,None,001,45,2019_Oct_21_1104,ACPT_experiment_5_30_19,3.1.0,59.95276633637824,
,,,C,U,y,n,R,G,y,L,y,,,,,5,19,119,17,3,0,3,0,,,,,0,33,33,28,,,,,,down,0.5837817425745015,2173.6735755799737,None,001,45,2019_Oct_21_1104,ACPT_experiment_5_30_19,3.1.0,59.95276633637824,
,,,C,U,y,n,R,U,d,L,u,,,,,5,19,119,17,3,0,3,0,,,,,0,34,34,8,,,,,,up,0.4836909438536168,2175.541678967358,None,001,45,2019_Oct_21_1104,ACPT_experiment_5_30_19,3.1.0,59.95276633637824,
,,,C,U,y,n,L,D,y,R,y,,,,,5,19,119,17,3,0,3,0,,,,,0,35,35,33,,,,,,down,0.5637740270976792,2177.363053614109,None,001,45,2019_Oct_21_1104,ACPT_experiment_5_30_19,3.1.0,59.95276633637824,
,,,C,U,y,n,R,D,d,R,c ,,,,,5,19,119,17,3,0,3,0,,,,,1,0,36,1,,,,,,up,0.5671282670782603,2179.211129665282,None,001,45,2019_Oct_21_1104,ACPT_experiment_5_30_19,3.1.0,59.95276633637824,
,,,C,U,y,n,L,D,y,R,y,,,,,5,19,119,17,3,0,3,0,,,,,1,1,37,33,,,,,,down,0.5337401164324547,2181.0625783697405,None,001,45,2019_Oct_21_1104,ACPT_experiment_5_30_19,3.1.0,59.95276633637824,
,,,C,U,y,n,R,D,y,R,y,,,,,5,19,119,17,3,0,3,0,,,,,1,2,38,27,,,,,,down,0.6504843906495807,2182.880655827569,None,001,45,2019_Oct_21_1104,ACPT_experiment_5_30_19,3.1.0,59.95276633637824,
,,,C,U,y,n,L,U,g,L,u,,,,,5,19,119,17,3,0,3,0,,,,,1,3,39,22,,,,,,up,0.550456981993193,2184.8154648816026,None,001,45,2019_Oct_21_1104,ACPT_experiment_5_30_19,3.1.0,59.95276633637824,
,,,C,U,y,n,R,G,g,R,c ,,,,,5,19,119,17,3,0,3,0,,,,,1,4,40,7,,,,,,up,0.5504651321443816,2186.6502133226595,None,001,45,2019_Oct_21_1104,ACPT_experiment_5_30_19,3.1.0,59.95276633637824,
,,,C,U,y,n,R,U,g,L,u,,,,,5,19,119,17,3,0,3,0,,,,,1,5,41,10,,,,,,up,0.6338125018492065,2188.484946368987,None,001,45,2019_Oct_21_1104,ACPT_experiment_5_30_19,3.1.0,59.95276633637824,
,,,C,U,y,n,R,U,y,L,u,,,,,5,19,119,17,3,0,3,0,,,,,1,6,42,30,,,,,,down,0.630484825323947,2190.4230924571257,None,001,45,2019_Oct_21_1104,ACPT_experiment_5_30_19,3.1.0,59.95276633637824,
,,,C,U,y,n,L,U,d,R,u,,,,,5,19,119,17,3,0,3,0,,,,,1,7,43,21,,,,,,up,0.7505821320919495,2192.3379001346884,None,001,45,2019_Oct_21_1104,ACPT_experiment_5_30_19,3.1.0,59.95276633637824,
,,,C,U,y,n,R,D,d,L,c,,,,,5,19,119,17,3,0,3,0,,,,,1,8,44,0,,,,,,up,0.4503359975269632,2194.372806024592,None,001,45,2019_Oct_21_1104,ACPT_experiment_5_30_19,3.1.0,59.95276633637824,
,,,C,U,y,n,R,U,d,R,u,,,,,5,19,119,17,3,0,3,0,,,,,1,9,45,9,,,,,,up,0.6504976723772415,2196.107463063213,None,001,45,2019_Oct_21_1104,ACPT_experiment_5_30_19,3.1.0,59.95276633637824,
,,,C,U,y,n,L,D,d,L,c ,,,,,5,19,119,17,3,0,3,0,,,,,1,10,46,12,,,,,,up,0.5170573607638289,2198.042284493402,None,001,45,2019_Oct_21_1104,ACPT_experiment_5_30_19,3.1.0,59.95276633637824,
,,,C,U,y,n,L,G,y,R,y,,,,,5,19,119,17,3,0,3,0,,,,,1,11,47,35,,,,,,down,0.533760944595997,2199.84369006243,None,001,45,2019_Oct_21_1104,ACPT_experiment_5_30_19,3.1.0,59.95276633637824,
,,,C,U,y,n,R,U,y,R,u,,,,,5,19,119,17,3,0,3,0,,,,,1,12,48,31,,,,,,down,0.46701724390914023,2201.6617297880775,None,001,45,2019_Oct_21_1104,ACPT_experiment_5_30_19,3.1.0,59.95276633637824,
,,,C,U,y,n,L,G,g,L,c ,,,,,5,19,119,17,3,0,3,0,,,,,1,13,49,18,,,,,,up,0.4834582117600803,2203.4299983518586,None,001,45,2019_Oct_21_1104,ACPT_experiment_5_30_19,3.1.0,59.95276633637824,
,,,C,U,y,n,R,G,d,R,i,,,,,5,19,119,17,3,0,3,0,,,,,1,14,50,5,,,,,,up,0.6838840118789449,2205.1977507393995,None,001,45,2019_Oct_21_1104,ACPT_experiment_5_30_19,3.1.0,59.95276633637824,
,,,C,U,y,n,L,D,d,R,c ,,,,,5,19,119,17,3,0,3,0,,,,,1,15,51,13,,,,,,up,0.4670139234767703,2207.165957603517,None,001,45,2019_Oct_21_1104,ACPT_experiment_5_30_19,3.1.0,59.95276633637824,
,,,C,U,y,n,L,D,g,L,i,,,,,5,19,119,17,3,0,3,0,,,,,1,16,52,14,,,,,,up,0.41700821837093827,2208.917298907095,None,001,45,2019_Oct_21_1104,ACPT_experiment_5_30_19,3.1.0,59.95276633637824,
,,,C,U,y,n,L,G,d,R,i,,,,,5,19,119,17,3,0,3,0,,,,,1,17,53,17,,,,,,up,0.43362909326242516,2210.6353154500903,None,001,45,2019_Oct_21_1104,ACPT_experiment_5_30_19,3.1.0,59.95276633637824,
,,,C,U,y,n,R,D,g,L,i,,,,,5,19,119,17,3,0,3,0,,,,,1,18,54,2,,,,,,up,0.3502578768184321,2212.3532728290265,None,001,45,2019_Oct_21_1104,ACPT_experiment_5_30_19,3.1.0,59.95276633637824,
,,,C,U,y,n,L,U,y,L,u,,,,,5,19,119,17,3,0,3,0,,,,,1,19,55,24,,,,,,down,0.5670977794761711,2213.987856878516,None,001,45,2019_Oct_21_1104,ACPT_experiment_5_30_19,3.1.0,59.95276633637824,
,,,C,U,y,n,R,D,g,R,i,,,,,5,19,119,17,3,0,3,0,,,,,1,20,56,3,,,,,,up,0.500373699523152,2215.8392817362355,None,001,45,2019_Oct_21_1104,ACPT_experiment_5_30_19,3.1.0,59.95276633637824,
,,,C,U,y,n,L,D,g,R,i,,,,,5,19,119,17,3,0,3,0,,,,,1,21,57,15,,,,,,up,0.48337852139320603,2217.6409837292795,None,001,45,2019_Oct_21_1104,ACPT_experiment_5_30_19,3.1.0,59.95276633637824,
,,,C,U,y,n,L,U,g,R,u,,,,,5,19,119,17,3,0,3,0,,,,,1,22,58,23,,,,,,up,0.38361403057569987,2219.408699290212,None,001,45,2019_Oct_21_1104,ACPT_experiment_5_30_19,3.1.0,59.95276633637824,
,,,C,U,y,n,R,U,g,R,u,,,,,5,19,119,17,3,0,3,0,,,,,1,23,59,11,,,,,,up,0.45033267709459324,2221.076637682314,None,001,45,2019_Oct_21_1104,ACPT_experiment_5_30_19,3.1.0,59.95276633637824,
,,,C,U,y,n,L,G,y,L,y,,,,,5,19,119,17,3,0,3,0,,,,,1,24,60,34,,,,,,down,0.616932331407952,2222.8281504409233,None,001,45,2019_Oct_21_1104,ACPT_experiment_5_30_19,3.1.0,59.95276633637824,
,,,C,U,y,n,R,U,d,L,u,,,,,5,19,119,17,3,0,3,0,,,,,1,25,61,8,,,,,,up,0.7169552122022651,2224.763049146619,None,001,45,2019_Oct_21_1104,ACPT_experiment_5_30_19,3.1.0,59.95276633637824,
,,,C,U,y,n,R,G,g,L,c ,,,,,5,19,119,17,3,0,3,0,,,,,1,26,62,6,,,,,,up,0.3669379157709045,2226.7643350593544,None,001,45,2019_Oct_21_1104,ACPT_experiment_5_30_19,3.1.0,59.95276633637824,
,,,C,U,y,n,R,G,d,L,i,,,,,5,19,119,17,3,0,3,0,,,,,1,27,63,4,,,,,,up,0.4003254627023125,2228.398902204827,None,001,45,2019_Oct_21_1104,ACPT_experiment_5_30_19,3.1.0,59.95276633637824,
,,,C,U,y,n,L,G,g,R,c ,,,,,5,19,119,17,3,0,3,0,,,,,1,28,64,19,,,,,,up,0.5003788310996242,2230.0835487086233,None,001,45,2019_Oct_21_1104,ACPT_experiment_5_30_19,3.1.0,59.95276633637824,
,,,C,U,y,n,R,G,y,R,y,,,,,5,19,119,17,3,0,3,0,,,,,1,29,65,29,,,,,,down,0.533469048443294,2231.885208139767,None,001,45,2019_Oct_21_1104,ACPT_experiment_5_30_19,3.1.0,59.95276633637824,
,,,C,U,y,n,L,G,d,L,i,,,,,5,19,119,17,3,0,3,0,,,,,1,30,66,16,,,,,,up,0.4336665235859982,2233.702995814445,None,001,45,2019_Oct_21_1104,ACPT_experiment_5_30_19,3.1.0,59.95276633637824,
,,,C,U,y,n,R,G,y,L,y,,,,,5,19,119,17,3,0,3,0,,,,,1,31,67,28,,,,,,down,0.8006086653613238,2235.42098398284,None,001,45,2019_Oct_21_1104,ACPT_experiment_5_30_19,3.1.0,59.95276633637824,
,,,C,U,y,n,L,U,y,R,u,,,,,5,19,119,17,3,0,3,0,,,,,1,32,68,25,,,,,,down,0.5837787239997851,2237.5059170097275,None,001,45,2019_Oct_21_1104,ACPT_experiment_5_30_19,3.1.0,59.95276633637824,
,,,C,U,y,n,R,D,y,L,y,,,,,5,19,119,17,3,0,3,0,,,,,1,33,69,26,,,,,,down,0.5170643034844034,2239.374016472965,None,001,45,2019_Oct_21_1104,ACPT_experiment_5_30_19,3.1.0,59.95276633637824,
,,,C,U,y,n,L,U,d,L,u,,,,,5,19,119,17,3,0,3,0,,,,,1,34,70,20,,,,,,up,0.6004611778116669,2241.1753997045416,None,001,45,2019_Oct_21_1104,ACPT_experiment_5_30_19,3.1.0,59.95276633637824,
,,,C,U,y,n,L,D,y,L,y,,,,,5,19,119,17,3,0,3,0,,,,,1,35,71,32,,,,,,down,0.7338818686912418,2243.0601933940306,None,001,45,2019_Oct_21_1104,ACPT_experiment_5_30_19,3.1.0,59.95276633637824,
,,,C,U,y,n,,,,,,,,,,5,19,119,17,4,0,4,0,0,0,0,0,,,,,,,,,,,,,,001,45,2019_Oct_21_1104,ACPT_experiment_5_30_19,3.1.0,59.95276633637824,
,,,C,U,y,n,R,D,g,L,i,,,,,5,19,119,17,4,0,4,0,,,,,0,0,0,2,,,,,,up,0.5137417585365256,2306.362101253855,None,001,45,2019_Oct_21_1104,ACPT_experiment_5_30_19,3.1.0,59.95276633637824,
,,,C,U,y,n,L,U,y,L,u,,,,,5,19,119,17,4,0,4,0,,,,,0,1,1,24,,,,,,down,0.7005359780869185,2308.1601625442,None,001,45,2019_Oct_21_1104,ACPT_experiment_5_30_19,3.1.0,59.95276633637824,
,,,C,U,y,n,L,U,g,L,u,,,,,5,19,119,17,4,0,4,0,,,,,0,2,2,22,,,,,,up,0.5170603793376358,2310.1450195633815,None,001,45,2019_Oct_21_1104,ACPT_experiment_5_30_19,3.1.0,59.95276633637824,
,,,C,U,y,n,R,U,y,L,u,,,,,5,19,119,17,4,0,4,0,,,,,0,3,3,30,,,,,,up,0.6672238955179637,2311.946401889386,None,001,45,2019_Oct_21_1104,ACPT_experiment_5_30_19,3.1.0,59.95276633637824,
,,,C,U,y,n,L,D,g,L,i,,,,,5,19,119,17,4,0,4,0,,,,,0,4,4,14,,,,,,up,0.5170609830529429,2313.897903056669,None,001,45,2019_Oct_21_1104,ACPT_experiment_5_30_19,3.1.0,59.95276633637824,
,,,C,U,y,n,L,U,y,R,u,,,,,5,19,119,17,4,0,4,0,,,,,0,5,5,25,,,,,,down,0.6838483926994741,2315.7159645160527,None,001,45,2019_Oct_21_1104,ACPT_experiment_5_30_19,3.1.0,59.95276633637824,
,,,C,U,y,n,L,G,y,L,y,,,,,5,19,119,17,4,0,4,0,,,,,0,6,6,34,,,,,,down,0.6338082758447854,2317.700827572384,None,001,45,2019_Oct_21_1104,ACPT_experiment_5_30_19,3.1.0,59.95276633637824,
,,,C,U,y,n,R,G,d,R,i,,,,,5,19,119,17,4,0,4,0,,,,,0,7,7,5,,,,,,up,0.5170594737655847,2319.6356559452934,None,001,45,2019_Oct_21_1104,ACPT_experiment_5_30_19,3.1.0,59.95276633637824,
,,,C,U,y,n,R,G,y,L,y,,,,,5,19,119,17,4,0,4,0,,,,,0,8,8,28,,,,,,down,0.6171369907588087,2321.453703821093,None,001,45,2019_Oct_21_1104,ACPT_experiment_5_30_19,3.1.0,59.95276633637824,
,,,C,U,y,n,L,D,d,R,c ,,,,,5,19,119,17,4,0,4,0,,,,,0,9,9,13,,,,,,up,0.4003025215361049,2323.371848230904,None,001,45,2019_Oct_21_1104,ACPT_experiment_5_30_19,3.1.0,59.95276633637824,
,,,C,U,y,n,L,D,d,L,c ,,,,,5,19,119,17,4,0,4,0,,,,,0,10,10,12,,,,,,up,0.40036802460235776,2325.056483565975,None,001,45,2019_Oct_21_1104,ACPT_experiment_5_30_19,3.1.0,59.95276633637824,
,,,C,U,y,n,L,U,d,R,u,,,,,5,19,119,17,4,0,4,0,,,,,0,11,11,21,,,,,,up,0.5135947539583867,2326.7779198520175,None,001,45,2019_Oct_21_1104,ACPT_experiment_5_30_19,3.1.0,59.95276633637824,
,,,C,U,y,n,L,U,d,L,u,,,,,5,19,119,17,4,0,4,0,,,,,0,12,12,20,,,,,,up,0.5337383052874429,2328.575842589792,None,001,45,2019_Oct_21_1104,ACPT_experiment_5_30_19,3.1.0,59.95276633637824,
,,,C,U,y,n,R,D,y,L,y,,,,,5,19,119,17,4,0,4,0,,,,,0,13,13,26,,,,,,down,0.7172111873205722,2330.393901936174,None,001,45,2019_Oct_21_1104,ACPT_experiment_5_30_19,3.1.0,59.95276633637824,
,,,C,U,y,n,L,G,d,L,i,,,,,5,19,119,17,4,0,4,0,,,,,0,14,14,16,,,,,,up,0.4503471662528682,2332.395447446316,None,001,45,2019_Oct_21_1104,ACPT_experiment_5_30_19,3.1.0,59.95276633637824,
,,,C,U,y,n,R,D,d,R,c ,,,,,5,19,119,17,4,0,4,0,,,,,0,15,15,1,,,,,,up,0.4970580972958487,2334.15010555955,None,001,45,2019_Oct_21_1104,ACPT_experiment_5_30_19,3.1.0,59.95276633637824,
,,,C,U,y,n,L,G,y,R,y,,,,,5,19,119,17,4,0,4,0,,,,,0,16,16,35,,,,,,down,0.6671783150441115,2335.931484094225,None,001,45,2019_Oct_21_1104,ACPT_experiment_5_30_19,3.1.0,59.95276633637824,
,,,C,U,y,n,R,D,y,R,y,,,,,5,19,119,17,4,0,4,0,,,,,0,17,17,27,,,,,,down,0.5504222683866828,2337.8829819410767,None,001,45,2019_Oct_21_1104,ACPT_experiment_5_30_19,3.1.0,59.95276633637824,
,,,C,U,y,n,R,U,d,R,u,,,,,5,19,119,17,4,0,4,0,,,,,0,18,18,9,,,,,,up,0.5337262309894868,2339.7177340044227,None,001,45,2019_Oct_21_1104,ACPT_experiment_5_30_19,3.1.0,59.95276633637824,
,,,C,U,y,n,L,G,g,L,c ,,,,,5,19,119,17,4,0,4,0,,,,,0,19,19,18,,,,,,up,0.4503411291043449,2341.5357900303725,None,001,45,2019_Oct_21_1104,ACPT_experiment_5_30_19,3.1.0,59.95276633637824,
,,,C,U,y,n,R,D,g,R,i,,,,,5,19,119,17,4,0,4,0,,,,,0,20,20,3,,,,,,up,0.4837030181515729,2343.270454615431,None,001,45,2019_Oct_21_1104,ACPT_experiment_5_30_19,3.1.0,59.95276633637824,
,,,C,U,y,n,R,G,y,R,y,,,,,5,19,119,17,4,0,4,0,,,,,0,21,21,29,,,,,,down,0.8838292549371545,2345.0553135665004,None,001,45,2019_Oct_21_1104,ACPT_experiment_5_30_19,3.1.0,59.95276633637824,
,,,C,U,y,n,R,U,y,R,u,,,,,5,19,119,17,4,0,4,0,,,,,0,22,22,31,,,,,,down,0.7338565126647154,2347.256876161774,None,001,45,2019_Oct_21_1104,ACPT_experiment_5_30_19,3.1.0,59.95276633637824,
,,,C,U,y,n,R,G,d,L,i,,,,,5,19,119,17,4,0,4,0,,,,,0,23,23,4,,,,,,up,0.46701452719207737,2349.275067902833,None,001,45,2019_Oct_21_1104,ACPT_experiment_5_30_19,3.1.0,59.95276633637824,
,,,C,U,y,n,L,G,d,R,i,,,,,5,19,119,17,4,0,4,0,,,,,0,24,24,17,,,,,,up,0.48370332000922645,2351.0264095082684,None,001,45,2019_Oct_21_1104,ACPT_experiment_5_30_19,3.1.0,59.95276633637824,
,,,C,U,y,n,R,U,d,L,u,,,,,5,19,119,17,4,0,4,0,,,,,0,25,25,8,,,,,,up,0.4503634665552454,2352.7777317948267,None,001,45,2019_Oct_21_1104,ACPT_experiment_5_30_19,3.1.0,59.95276633637824,
,,,C,U,y,n,R,D,d,L,c,,,,,5,19,119,17,4,0,4,0,,,,,0,26,26,0,,,,,,up,0.5834222303519709,2354.5126885778955,None,001,45,2019_Oct_21_1104,ACPT_experiment_5_30_19,3.1.0,59.95276633637824,
,,,C,U,y,n,R,U,g,L,u,,,,,5,19,119,17,4,0,4,0,,,,,0,27,27,10,,,,,,up,0.46702328105766355,2356.3805230102917,None,001,45,2019_Oct_21_1104,ACPT_experiment_5_30_19,3.1.0,59.95276633637824,
,,,C,U,y,n,L,D,y,R,y,,,,,5,19,119,17,4,0,4,0,,,,,0,28,28,33,,,,,,down,0.6671864651943906,2358.1318661250134,None,001,45,2019_Oct_21_1104,ACPT_experiment_5_30_19,3.1.0,59.95276633637824,
,,,C,U,y,n,L,D,g,R,i,,,,,5,19,119,17,4,0,4,0,,,,,0,29,29,15,,,,,,up,0.5337458517242339,2360.083363971865,None,001,45,2019_Oct_21_1104,ACPT_experiment_5_30_19,3.1.0,59.95276633637824,
,,,C,U,y,n,R,G,g,L,c ,,,,,5,19,119,17,4,0,4,0,,,,,0,30,30,6,,,,,,up,0.4837006032930731,2361.9014257331064,None,001,45,2019_Oct_21_1104,ACPT_experiment_5_30_19,3.1.0,59.95276633637824,
,,,C,U,y,n,L,G,g,R,c ,,,,,5,19,119,17,4,0,4,0,,,,,0,31,31,19,,,,,,up,0.5003824533887382,2363.669452207212,None,001,45,2019_Oct_21_1104,ACPT_experiment_5_30_19,3.1.0,59.95276633637824,
,,,C,U,y,n,L,U,g,R,u,,,,,5,19,119,17,4,0,4,0,,,,,0,32,32,23,,,,,,up,0.5504292111081668,2365.4541502682605,None,001,45,2019_Oct_21_1104,ACPT_experiment_5_30_19,3.1.0,59.95276633637824,
,,,C,U,y,n,R,U,g,R,u,,,,,5,19,119,17,4,0,4,0,,,,,0,33,33,11,,,,,,up,0.433383985013279,2367.305854344121,None,001,45,2019_Oct_21_1104,ACPT_experiment_5_30_19,3.1.0,59.95276633637824,
,,,C,U,y,n,R,G,g,R,c ,,,,,5,19,119,17,4,0,4,0,,,,,0,34,34,7,,,,,,up,0.46702237548470293,2369.023562086946,None,001,45,2019_Oct_21_1104,ACPT_experiment_5_30_19,3.1.0,59.95276633637824,
,,,C,U,y,n,L,D,y,L,y,,,,,5,19,119,17,4,0,4,0,,,,,0,35,35,32,,,,,,down,0.6671771076134974,2370.7749055035256,None,001,45,2019_Oct_21_1104,ACPT_experiment_5_30_19,3.1.0,59.95276633637824,
,,,C,U,y,n,L,G,d,L,i,,,,,5,19,119,17,4,0,4,0,,,,,1,0,36,16,,,,,,up,0.6671879744826583,2372.726405161521,None,001,45,2019_Oct_21_1104,ACPT_experiment_5_30_19,3.1.0,59.95276633637824,
,,,C,U,y,n,L,G,g,R,c ,,,,,5,19,119,17,4,0,4,0,,,,,1,1,37,19,,,,,,up,0.7303561736789561,2374.698113873912,None,001,45,2019_Oct_21_1104,ACPT_experiment_5_30_19,3.1.0,59.95276633637824,
,,,C,U,y,n,L,U,y,L,u,,,,,5,19,119,17,4,0,4,0,,,,,1,2,38,24,,,,,,down,0.700514244351325,2376.7128227837175,None,001,45,2019_Oct_21_1104,ACPT_experiment_5_30_19,3.1.0,59.95276633637824,
,,,C,U,y,n,R,G,y,R,y,,,,,5,19,119,17,4,0,4,0,,,,,1,3,39,29,,,,,,down,0.6004684223898948,2378.6976487115817,None,001,45,2019_Oct_21_1104,ACPT_experiment_5_30_19,3.1.0,59.95276633637824,
,,,C,U,y,n,R,G,d,L,i,,,,,5,19,119,17,4,0,4,0,,,,,1,4,40,4,,,,,,up,0.46702539405941934,2380.582437269494,None,001,45,2019_Oct_21_1104,ACPT_experiment_5_30_19,3.1.0,59.95276633637824,
,,,C,U,y,n,R,G,y,L,y,,,,,5,19,119,17,4,0,4,0,,,,,1,5,41,28,,,,,,down,0.7005598248260867,2382.317079215243,None,001,45,2019_Oct_21_1104,ACPT_experiment_5_30_19,3.1.0,59.95276633637824,
,,,C,U,y,n,L,D,y,R,y,,,,,5,19,119,17,4,0,4,0,,,,,1,6,42,33,,,,,,down,0.6171273313202619,2384.301963703453,None,001,45,2019_Oct_21_1104,ACPT_experiment_5_30_19,3.1.0,59.95276633637824,
,,,C,U,y,n,L,U,d,L,u,,,,,5,19,119,17,4,0,4,0,,,,,1,7,43,20,,,,,,up,0.617076317412284,2386.203477880792,None,001,45,2019_Oct_21_1104,ACPT_experiment_5_30_19,3.1.0,59.95276633637824,
,,,C,U,y,n,L,D,d,R,c ,,,,,5,19,119,17,4,0,4,0,,,,,1,8,44,13,,,,,,up,0.5137393436771163,2388.1248769176245,None,001,45,2019_Oct_21_1104,ACPT_experiment_5_30_19,3.1.0,59.95276633637824,
,,,C,U,y,n,L,D,d,L,c ,,,,,5,19,119,17,4,0,4,0,,,,,1,9,45,12,,,,,,up,0.467063729955953,2389.9062409631424,None,001,45,2019_Oct_21_1104,ACPT_experiment_5_30_19,3.1.0,59.95276633637824,
,,,C,U,y,n,L,D,y,L,y,,,,,5,19,119,17,4,0,4,0,,,,,1,10,46,32,,,,,,down,0.6338118981338994,2391.6576070190313,None,001,45,2019_Oct_21_1104,ACPT_experiment_5_30_19,3.1.0,59.95276633637824,
,,,C,U,y,n,R,U,g,R,u,,,,,5,19,119,17,4,0,4,0,,,,,1,11,47,11,,,,,,up,0.7006090275908718,2393.5757432786913,None,001,45,2019_Oct_21_1104,ACPT_experiment_5_30_19,3.1.0,59.95276633637824,
,,,C,U,y,n,L,G,d,R,i,,,,,5,19,119,17,4,0,4,0,,,,,1,12,48,17,,,,,,up,0.9006907102166224,2395.560601203445,None,001,45,2019_Oct_21_1104,ACPT_experiment_5_30_19,3.1.0,59.95276633637824,
,,,C,U,y,n,R,U,d,L,u,,,,,5,19,119,17,4,0,4,0,,,,,1,13,49,8,,,,,,up,0.8006083635036703,2397.728935330664,None,001,45,2019_Oct_21_1104,ACPT_experiment_5_30_19,3.1.0,59.95276633637824,
,,,C,U,y,n,L,G,g,L,c ,,,,,5,19,119,17,4,0,4,0,,,,,1,14,50,18,,,,,,up,0.5836673386011171,2399.8138692631237,None,001,45,2019_Oct_21_1104,ACPT_experiment_5_30_19,3.1.0,59.95276633637824,
,,,C,U,y,n,R,G,g,R,c ,,,,,5,19,119,17,4,0,4,0,,,,,1,15,51,7,,,,,,up,1.5845412159187617,2401.681980196944,None,001,45,2019_Oct_21_1104,ACPT_experiment_5_30_19,3.1.0,59.95276633637824,
,,,C,U,y,n,R,U,d,R,u,,,,,5,19,119,17,4,0,4,0,,,,,1,16,52,9,,,,,,up,0.5170709443482338,2404.550835511235,None,001,45,2019_Oct_21_1104,ACPT_experiment_5_30_19,3.1.0,59.95276633637824,
,,,C,U,y,n,R,U,y,R,u,,,,,5,19,119,17,4,0,4,0,,,,,1,17,53,31,,,,,,down,0.8673538753364483,2406.3521958016463,None,001,45,2019_Oct_21_1104,ACPT_experiment_5_30_19,3.1.0,59.95276633637824,
,,,C,U,y,n,L,G,y,L,y,,,,,5,19,119,17,4,0,4,0,,,,,1,18,54,34,,,,,,down,0.583784761149218,2408.5038661902145,None,001,45,2019_Oct_21_1104,ACPT_experiment_5_30_19,3.1.0,59.95276633637824,
,,,C,U,y,n,L,G,y,R,y,,,,,5,19,119,17,4,0,4,0,,,,,1,19,55,35,,,,,,down,0.5670965720464665,2410.371976218463,None,001,45,2019_Oct_21_1104,ACPT_experiment_5_30_19,3.1.0,59.95276633637824,
,,,C,U,y,n,R,D,g,R,i,,,,,5,19,119,17,4,0,4,0,,,,,1,20,56,3,,,,,,up,0.4503495811122775,2412.223398661323,None,001,45,2019_Oct_21_1104,ACPT_experiment_5_30_19,3.1.0,59.95276633637824,
,,,C,U,y,n,L,U,g,L,u,,,,,5,19,119,17,4,0,4,0,,,,,1,21,57,22,,,,,,up,0.5003803403860729,2413.958057812946,None,001,45,2019_Oct_21_1104,ACPT_experiment_5_30_19,3.1.0,59.95276633637824,
,,,C,U,y,n,L,U,g,R,u,,,,,5,19,119,17,4,0,4,0,,,,,1,22,58,23,,,,,,up,0.4671736060672629,2415.725927623035,None,001,45,2019_Oct_21_1104,ACPT_experiment_5_30_19,3.1.0,59.95276633637824,
,,,C,U,y,n,R,G,g,L,c ,,,,,5,19,119,17,4,0,4,0,,,,,1,23,59,6,,,,,,up,0.43365776972041203,2417.4774304203484,None,001,45,2019_Oct_21_1104,ACPT_experiment_5_30_19,3.1.0,59.95276633637824,
,,,C,U,y,n,L,D,g,L,i,,,,,5,19,119,17,4,0,4,0,,,,,1,24,60,14,,,,,,up,0.3833574517439047,2419.2123591306745,None,001,45,2019_Oct_21_1104,ACPT_experiment_5_30_19,3.1.0,59.95276633637824,
,,,C,U,y,n,R,G,d,R,i,,,,,5,19,119,17,4,0,4,0,,,,,1,25,61,5,,,,,,up,0.4503426383907936,2420.880039736515,None,001,45,2019_Oct_21_1104,ACPT_experiment_5_30_19,3.1.0,59.95276633637824,
,,,C,U,y,n,R,U,y,L,u,,,,,5,19,119,17,4,0,4,0,,,,,1,26,62,30,,,,,,down,0.5837711775648131,2422.614706434574,None,001,45,2019_Oct_21_1104,ACPT_experiment_5_30_19,3.1.0,59.95276633637824,
,,,C,U,y,n,R,D,d,R,c ,,,,,5,19,119,17,4,0,4,0,,,,,1,27,63,1,,,,,,up,0.467019356910896,2424.4828116331028,None,001,45,2019_Oct_21_1104,ACPT_experiment_5_30_19,3.1.0,59.95276633637824,
,,,C,U,y,n,R,D,d,L,c,,,,,5,19,119,17,4,0,4,0,,,,,1,28,64,0,,,,,,up,0.4167428856726474,2426.2510705374452,None,001,45,2019_Oct_21_1104,ACPT_experiment_5_30_19,3.1.0,59.95276633637824,
,,,C,U,y,n,R,D,y,L,y,,,,,5,19,119,17,4,0,4,0,,,,,1,29,65,26,,,,,,down,0.6338137092789111,2427.9521383883593,None,001,45,2019_Oct_21_1104,ACPT_experiment_5_30_19,3.1.0,59.95276633637824,
,,,C,U,y,n,R,U,g,L,u,,,,,5,19,119,17,4,0,4,0,,,,,1,30,66,10,,,,,,up,0.5170528329017543,2429.8702864204597,None,001,45,2019_Oct_21_1104,ACPT_experiment_5_30_19,3.1.0,59.95276633637824,
,,,C,U,y,n,R,D,g,L,i,,,,,5,19,119,17,4,0,4,0,,,,,1,31,67,2,,,,,,up,0.41699191806947056,2431.671645503441,None,001,45,2019_Oct_21_1104,ACPT_experiment_5_30_19,3.1.0,59.95276633637824,
,,,C,U,y,n,L,U,y,R,u,,,,,5,19,119,17,4,0,4,0,,,,,1,32,68,25,,,,,,down,0.5501804805699066,2433.389880893087,None,001,45,2019_Oct_21_1104,ACPT_experiment_5_30_19,3.1.0,59.95276633637824,
,,,C,U,y,n,L,U,d,R,u,,,,,5,19,119,17,4,0,4,0,,,,,1,33,69,21,,,,,,up,0.5670956664735058,2435.224386942613,None,001,45,2019_Oct_21_1104,ACPT_experiment_5_30_19,3.1.0,59.95276633637824,
,,,C,U,y,n,L,D,g,R,i,,,,,5,19,119,17,4,0,4,0,,,,,1,34,70,15,,,,,,up,0.4837102627307104,2437.0758021408938,None,001,45,2019_Oct_21_1104,ACPT_experiment_5_30_19,3.1.0,59.95276633637824,
,,,C,U,y,n,R,D,y,R,y,,,,,5,19,119,17,4,0,4,0,,,,,1,35,71,27,,,,,,down,0.7672531153202726,2438.843832539146,None,001,45,2019_Oct_21_1104,ACPT_experiment_5_30_19,3.1.0,59.95276633637824,
,,,C,U,y,n,,,,,,,,,,5,19,119,17,5,0,5,0,0,0,0,0,,,,,,,,,,,,,,001,45,2019_Oct_21_1104,ACPT_experiment_5_30_19,3.1.0,59.95276633637824,
,,,C,U,y,n,R,G,d,L,i,,,,,5,19,119,17,5,0,5,0,,,,,0,0,0,4,,,,,,up,0.4803699081930972,2465.1673684852367,None,001,45,2019_Oct_21_1104,ACPT_experiment_5_30_19,3.1.0,59.95276633637824,
,,,C,U,y,n,R,D,d,R,c ,,,,,5,19,119,17,5,0,5,0,,,,,0,1,1,1,,,,,,up,0.43365776971950254,2466.932076640399,None,001,45,2019_Oct_21_1104,ACPT_experiment_5_30_19,3.1.0,59.95276633637824,
,,,C,U,y,n,R,U,g,R,u,,,,,5,19,119,17,5,0,5,0,,,,,0,2,2,11,,,,,,up,0.38363153830778174,2468.65004518806,None,001,45,2019_Oct_21_1104,ACPT_experiment_5_30_19,3.1.0,59.95276633637824,
,,,C,U,y,n,L,G,d,R,i,,,,,5,19,119,17,5,0,5,0,,,,,0,3,3,17,,,,,,up,0.41698588091912825,2470.3179905228835,None,001,45,2019_Oct_21_1104,ACPT_experiment_5_30_19,3.1.0,59.95276633637824,
,,,C,U,y,n,L,U,y,L,u,,,,,5,19,119,17,5,0,5,0,,,,,0,4,4,24,,,,,,down,0.6001843745307269,2472.0362573057046,None,001,45,2019_Oct_21_1104,ACPT_experiment_5_30_19,3.1.0,59.95276633637824,
,,,C,U,y,n,R,D,g,L,i,,,,,5,19,119,17,5,0,5,0,,,,,0,5,5,2,,,,,,up,0.4169816549156167,2473.9207642306164,None,001,45,2019_Oct_21_1104,ACPT_experiment_5_30_19,3.1.0,59.95276633637824,
,,,C,U,y,n,L,G,d,L,i,,,,,5,19,119,17,5,0,5,0,,,,,0,6,6,16,,,,,,up,0.4336484121386093,2475.622076887922,None,001,45,2019_Oct_21_1104,ACPT_experiment_5_30_19,3.1.0,59.95276633637824,
,,,C,U,y,n,R,U,d,L,u,,,,,5,19,119,17,5,0,5,0,,,,,0,7,7,8,,,,,,up,0.5003752088105102,2477.3400544913065,None,001,45,2019_Oct_21_1104,ACPT_experiment_5_30_19,3.1.0,59.95276633637824,
,,,C,U,y,n,R,D,y,L,y,,,,,5,19,119,17,5,0,5,0,,,,,0,8,8,26,,,,,,down,0.7639245332220526,2479.144764795694,None,001,45,2019_Oct_21_1104,ACPT_experiment_5_30_19,3.1.0,59.95276633637824,
,,,C,U,y,n,L,D,g,L,i,,,,,5,19,119,17,5,0,5,0,,,,,0,9,9,14,,,,,,up,0.40018691013301577,2481.193013690443,None,001,45,2019_Oct_21_1104,ACPT_experiment_5_30_19,3.1.0,59.95276633637824,
,,,C,U,y,n,R,D,g,R,i,,,,,5,19,119,17,5,0,5,0,,,,,0,10,10,3,,,,,,up,0.4003106716872935,2482.8609554029763,None,001,45,2019_Oct_21_1104,ACPT_experiment_5_30_19,3.1.0,59.95276633637824,
,,,C,U,y,n,L,U,g,L,u,,,,,5,19,119,17,5,0,5,0,,,,,0,11,11,22,,,,,,up,0.3669674978009425,2484.528883531925,None,001,45,2019_Oct_21_1104,ACPT_experiment_5_30_19,3.1.0,59.95276633637824,
,,,C,U,y,n,L,U,g,R,u,,,,,5,19,119,17,5,0,5,0,,,,,0,12,12,23,,,,,,up,0.5167974614996638,2486.1804371016615,None,001,45,2019_Oct_21_1104,ACPT_experiment_5_30_19,3.1.0,59.95276633637824,
,,,C,U,y,n,R,U,g,L,u,,,,,5,19,119,17,5,0,5,0,,,,,0,13,13,10,,,,,,up,0.3836209732971838,2487.9815625469764,None,001,45,2019_Oct_21_1104,ACPT_experiment_5_30_19,3.1.0,59.95276633637824,
,,,C,U,y,n,R,U,d,R,u,,,,,5,19,119,17,5,0,5,0,,,,,0,14,14,9,,,,,,up,0.36696327179652144,2489.6328064109694,None,001,45,2019_Oct_21_1104,ACPT_experiment_5_30_19,3.1.0,59.95276633637824,
,,,C,U,y,n,L,U,y,R,u,,,,,5,19,119,17,5,0,5,0,,,,,0,15,15,25,,,,,,down,0.8173004767540988,2491.300758990371,None,001,45,2019_Oct_21_1104,ACPT_experiment_5_30_19,3.1.0,59.95276633637824,
,,,C,U,y,n,L,G,g,L,c ,,,,,5,19,119,17,5,0,5,0,,,,,0,16,16,18,,,,,,up,0.3669306711926765,2493.435758999427,None,001,45,2019_Oct_21_1104,ACPT_experiment_5_30_19,3.1.0,59.95276633637824,
,,,C,U,y,n,L,G,y,L,y,,,,,5,19,119,17,5,0,5,0,,,,,0,17,17,34,,,,,,down,0.5504440021231858,2495.087012824715,None,001,45,2019_Oct_21_1104,ACPT_experiment_5_30_19,3.1.0,59.95276633637824,
,,,C,U,y,n,L,G,y,R,y,,,,,5,19,119,17,5,0,5,0,,,,,0,18,18,35,,,,,,down,0.8506581397978152,2496.9217561341966,None,001,45,2019_Oct_21_1104,ACPT_experiment_5_30_19,3.1.0,59.95276633637824,
,,,C,U,y,n,R,U,y,R,u,,,,,5,19,119,17,5,0,5,0,,,,,0,19,19,31,,,,,,down,0.517065812772671,2499.056722637075,None,001,45,2019_Oct_21_1104,ACPT_experiment_5_30_19,3.1.0,59.95276633637824,
,,,C,U,y,n,R,D,d,L,c,,,,,5,19,119,17,5,0,5,0,,,,,0,20,20,0,,,,,,up,0.6671755983261392,2500.858111905801,None,001,45,2019_Oct_21_1104,ACPT_experiment_5_30_19,3.1.0,59.95276633637824,
,,,C,U,y,n,R,U,y,L,u,,,,,5,19,119,17,5,0,5,0,,,,,0,21,21,30,,,,,,down,0.8006201359448823,2502.809603715503,None,001,45,2019_Oct_21_1104,ACPT_experiment_5_30_19,3.1.0,59.95276633637824,
,,,C,U,y,n,R,G,g,R,c ,,,,,5,19,119,17,5,0,5,0,,,,,0,22,22,7,,,,,,up,0.5671007980508875,2504.894545496257,None,001,45,2019_Oct_21_1104,ACPT_experiment_5_30_19,3.1.0,59.95276633637824,
,,,C,U,y,n,R,G,d,R,i,,,,,5,19,119,17,5,0,5,0,,,,,0,23,23,5,,,,,,up,0.5334950081833085,2506.7462329699574,None,001,45,2019_Oct_21_1104,ACPT_experiment_5_30_19,3.1.0,59.95276633637824,
,,,C,U,y,n,L,D,g,R,i,,,,,5,19,119,17,5,0,5,0,,,,,0,24,24,15,,,,,,up,0.5003812459590335,2508.5640287947863,None,001,45,2019_Oct_21_1104,ACPT_experiment_5_30_19,3.1.0,59.95276633637824,
,,,C,U,y,n,R,G,y,R,y,,,,,5,19,119,17,5,0,5,0,,,,,0,25,25,29,,,,,,down,0.7005236019322183,2510.348743156137,None,001,45,2019_Oct_21_1104,ACPT_experiment_5_30_19,3.1.0,59.95276633637824,
,,,C,U,y,n,L,G,g,R,c ,,,,,5,19,119,17,5,0,5,0,,,,,0,26,26,19,,,,,,up,1.0341283051120627,2512.3335893084504,None,001,45,2019_Oct_21_1104,ACPT_experiment_5_30_19,3.1.0,59.95276633637824,
,,,C,U,y,n,L,U,d,R,u,,,,,5,19,119,17,5,0,5,0,,,,,0,27,27,21,,,,,,up,0.5337434368639151,2514.65203593794,None,001,45,2019_Oct_21_1104,ACPT_experiment_5_30_19,3.1.0,59.95276633637824,
,,,C,U,y,n,R,G,y,L,y,,,,,5,19,119,17,5,0,5,0,,,,,0,28,28,28,,,,,,down,0.7005365818022256,2516.470096491752,None,001,45,2019_Oct_21_1104,ACPT_experiment_5_30_19,3.1.0,59.95276633637824,
,,,C,U,y,n,L,D,y,R,y,,,,,5,19,119,17,5,0,5,0,,,,,0,29,29,33,,,,,,down,0.5671050240553086,2518.454951397932,None,001,45,2019_Oct_21_1104,ACPT_experiment_5_30_19,3.1.0,59.95276633637824,
,,,C,U,y,n,L,U,d,L,u,,,,,5,19,119,17,5,0,5,0,,,,,0,30,30,20,,,,,,up,0.7672636803299611,2520.306374746364,None,001,45,2019_Oct_21_1104,ACPT_experiment_5_30_19,3.1.0,59.95276633637824,
,,,C,U,y,n,L,D,d,R,c ,,,,,5,19,119,17,5,0,5,0,,,,,0,31,31,13,,,,,,up,0.6004928728434606,2522.3579169058885,None,001,45,2019_Oct_21_1104,ACPT_experiment_5_30_19,3.1.0,59.95276633637824,
,,,C,U,y,n,L,D,y,L,y,,,,,5,19,119,17,5,0,5,0,,,,,0,32,32,32,,,,,,down,1.050804118060114,2524.2427299142546,None,001,45,2019_Oct_21_1104,ACPT_experiment_5_30_19,3.1.0,59.95276633637824,
,,,C,U,y,n,L,D,d,L,c ,,,,,5,19,119,17,5,0,5,0,,,,,0,33,33,12,,,,,,up,0.8506505933610242,2526.577855677124,None,001,45,2019_Oct_21_1104,ACPT_experiment_5_30_19,3.1.0,59.95276633637824,
,,,C,U,y,n,R,D,y,R,y,,,,,5,19,119,17,5,0,5,0,,,,,0,34,34,27,,,,,,down,1.4344314303634746,2528.7128312357263,None,001,45,2019_Oct_21_1104,ACPT_experiment_5_30_19,3.1.0,59.95276633637824,
,,,C,U,y,n,R,G,g,L,c ,,,,,5,19,119,17,5,0,5,0,,,,,0,35,35,6,,,,,,up,0.5003830571031358,2531.4315818960395,None,001,45,2019_Oct_21_1104,ACPT_experiment_5_30_19,3.1.0,59.95276633637824,
,,,C,U,y,n,L,D,d,L,c ,,,,,5,19,119,17,5,0,5,0,,,,,1,0,36,12,,,,,,up,0.7172114891782257,2533.2162914276714,None,001,45,2019_Oct_21_1104,ACPT_experiment_5_30_19,3.1.0,59.95276633637824,
,,,C,U,y,n,R,D,d,R,c ,,,,,5,19,119,17,5,0,5,0,,,,,1,1,37,1,,,,,,up,0.5337446442945293,2535.201141805989,None,001,45,2019_Oct_21_1104,ACPT_experiment_5_30_19,3.1.0,59.95276633637824,
,,,C,U,y,n,L,G,d,L,i,,,,,5,19,119,17,5,0,5,0,,,,,1,2,38,16,,,,,,up,0.41699101249650994,2537.0025253394233,None,001,45,2019_Oct_21_1104,ACPT_experiment_5_30_19,3.1.0,59.95276633637824,
,,,C,U,y,n,R,D,y,L,y,,,,,5,19,119,17,5,0,5,0,,,,,1,3,39,26,,,,,,down,0.7338993764233237,2538.703831355865,None,001,45,2019_Oct_21_1104,ACPT_experiment_5_30_19,3.1.0,59.95276633637824,
,,,C,U,y,n,L,G,g,R,c ,,,,,5,19,119,17,5,0,5,0,,,,,1,4,40,19,,,,,,up,0.6335529044426949,2540.73899623946,None,001,45,2019_Oct_21_1104,ACPT_experiment_5_30_19,3.1.0,59.95276633637824,
,,,C,U,y,n,L,U,d,R,u,,,,,5,19,119,17,5,0,5,0,,,,,1,5,41,21,,,,,,up,0.5837720831359547,2542.656870486854,None,001,45,2019_Oct_21_1104,ACPT_experiment_5_30_19,3.1.0,59.95276633637824,
,,,C,U,y,n,R,G,d,L,i,,,,,5,19,119,17,5,0,5,0,,,,,1,6,42,4,,,,,,up,1.6846534465175864,2544.5249397643456,None,001,45,2019_Oct_21_1104,ACPT_experiment_5_30_19,3.1.0,59.95276633637824,
,,,C,U,y,n,R,D,g,R,i,,,,,5,19,119,17,5,0,5,0,,,,,1,7,43,3,,,,,,up,0.4336625994392307,2547.493914855673,None,001,45,2019_Oct_21_1104,ACPT_experiment_5_30_19,3.1.0,59.95276633637824,
,,,C,U,y,n,R,G,d,R,i,,,,,5,19,119,17,5,0,5,0,,,,,1,8,44,5,,,,,,up,0.5003815478166871,2549.211897892492,None,001,45,2019_Oct_21_1104,ACPT_experiment_5_30_19,3.1.0,59.95276633637824,
,,,C,U,y,n,L,G,y,R,y,,,,,5,19,119,17,5,0,5,0,,,,,1,9,45,35,,,,,,down,0.6005094750034914,2550.9965977646852,None,001,45,2019_Oct_21_1104,ACPT_experiment_5_30_19,3.1.0,59.95276633637824,
,,,C,U,y,n,L,U,g,R,u,,,,,5,19,119,17,5,0,5,0,,,,,1,10,46,23,,,,,,up,0.4837289778924969,2552.88138602074,None,001,45,2019_Oct_21_1104,ACPT_experiment_5_30_19,3.1.0,59.95276633637824,
,,,C,U,y,n,L,D,y,R,y,,,,,5,19,119,17,5,0,5,0,,,,,1,11,47,33,,,,,,down,0.900717273671944,2554.6494064576964,None,001,45,2019_Oct_21_1104,ACPT_experiment_5_30_19,3.1.0,59.95276633637824,
,,,C,U,y,n,R,U,y,R,u,,,,,5,19,119,17,5,0,5,0,,,,,1,12,48,31,,,,,,down,0.5668578028034972,2556.851340941348,None,001,45,2019_Oct_21_1104,ACPT_experiment_5_30_19,3.1.0,59.95276633637824,
,,,C,U,y,n,R,U,g,R,u,,,,,5,19,119,17,5,0,5,0,,,,,1,13,49,11,,,,,,up,0.45034837368257286,2558.7025176722445,None,001,45,2019_Oct_21_1104,ACPT_experiment_5_30_19,3.1.0,59.95276633637824,
,,,C,U,y,n,R,U,d,R,u,,,,,5,19,119,17,5,0,5,0,,,,,1,14,50,9,,,,,,up,0.46702479034502176,2560.420506444355,None,001,45,2019_Oct_21_1104,ACPT_experiment_5_30_19,3.1.0,59.95276633637824,
,,,C,U,y,n,R,U,d,L,u,,,,,5,19,119,17,5,0,5,0,,,,,1,15,51,8,,,,,,up,0.5670986850482223,2562.155168614553,None,001,45,2019_Oct_21_1104,ACPT_experiment_5_30_19,3.1.0,59.95276633637824,
,,,C,U,y,n,L,U,d,L,u,,,,,5,19,119,17,5,0,5,0,,,,,1,16,52,20,,,,,,up,0.3803077859301993,2564.0265860948766,None,001,45,2019_Oct_21_1104,ACPT_experiment_5_30_19,3.1.0,59.95276633637824,
,,,C,U,y,n,L,U,y,L,u,,,,,5,19,119,17,5,0,5,0,,,,,1,17,53,24,,,,,,down,0.6004578573792969,2565.6912188460474,None,001,45,2019_Oct_21_1104,ACPT_experiment_5_30_19,3.1.0,59.95276633637824,
,,,C,U,y,n,L,D,g,R,i,,,,,5,19,119,17,5,0,5,0,,,,,1,18,54,15,,,,,,up,0.45035350525904505,2567.5759808405037,None,001,45,2019_Oct_21_1104,ACPT_experiment_5_30_19,3.1.0,59.95276633637824,
,,,C,U,y,n,R,G,y,L,y,,,,,5,19,119,17,5,0,5,0,,,,,1,19,55,28,,,,,,down,0.750564322502214,2569.310675007592,None,001,45,2019_Oct_21_1104,ACPT_experiment_5_30_19,3.1.0,59.95276633637824,
,,,C,U,y,n,R,D,g,L,i,,,,,5,19,119,17,5,0,5,0,,,,,1,20,56,2,,,,,,up,1.030803043447122,2571.3655614458003,None,001,45,2019_Oct_21_1104,ACPT_experiment_5_30_19,3.1.0,59.95276633637824,
,,,C,U,y,n,L,G,d,R,i,,,,,5,19,119,17,5,0,5,0,,,,,1,21,57,17,,,,,,up,0.6004608759540133,2573.6806849266277,None,001,45,2019_Oct_21_1104,ACPT_experiment_5_30_19,3.1.0,59.95276633637824,
,,,C,U,y,n,R,G,g,R,c ,,,,,5,19,119,17,5,0,5,0,,,,,1,22,58,7,,,,,,up,0.5337413238630688,2575.5654641269584,None,001,45,2019_Oct_21_1104,ACPT_experiment_5_30_19,3.1.0,59.95276633637824,
,,,C,U,y,n,R,D,d,L,c,,,,,5,19,119,17,5,0,5,0,,,,,1,23,59,0,,,,,,up,0.6838598632821231,2577.3835280012026,None,001,45,2019_Oct_21_1104,ACPT_experiment_5_30_19,3.1.0,59.95276633637824,
,,,C,U,y,n,R,D,y,R,y,,,,,5,19,119,17,5,0,5,0,,,,,1,24,60,27,,,,,,down,0.683851713131844,2579.351707396292,None,001,45,2019_Oct_21_1104,ACPT_experiment_5_30_19,3.1.0,59.95276633637824,
,,,C,U,y,n,R,U,y,L,u,,,,,5,19,119,17,5,0,5,0,,,,,1,25,61,30,,,,,,down,0.8840151991262246,2581.3198801505187,None,001,45,2019_Oct_21_1104,ACPT_experiment_5_30_19,3.1.0,59.95276633637824,
,,,C,U,y,n,L,G,y,L,y,,,,,5,19,119,17,5,0,5,0,,,,,1,26,62,34,,,,,,down,1.434430524790514,2583.488215183309,None,001,45,2019_Oct_21_1104,ACPT_experiment_5_30_19,3.1.0,59.95276633637824,
,,,C,U,y,n,L,U,y,R,u,,,,,5,19,119,17,5,0,5,0,,,,,1,27,63,25,,,,,,down,0.5837702719918525,2586.2069721826283,None,001,45,2019_Oct_21_1104,ACPT_experiment_5_30_19,3.1.0,59.95276633637824,
