facing_vig,person_vig,text_vig,facing_train,person_train,food_train,correct_key_train,facing_exp,person_exp,food_exp,showL_R,consistent,vig_random.thisRepN,vig_random.thisTrialN,vig_random.thisN,vig_random.thisIndex,trainTrials.thisRepN,trainTrials.thisTrialN,trainTrials.thisN,trainTrials.thisIndex,expBlock.thisRepN,expBlock.thisTrialN,expBlock.thisN,expBlock.thisIndex,breakLoop.thisRepN,breakLoop.thisTrialN,breakLoop.thisN,breakLoop.thisIndex,expTrials.thisRepN,expTrials.thisTrialN,expTrials.thisN,expTrials.thisIndex,train_resp.keys,train_resp.corr,train_resp.rt,train_resp.started,train_resp.stopped,exp_resp.keys,exp_resp.rt,exp_resp.started,exp_resp.stopped,session,participant,date,expName,psychopyVersion,frameRate,
C,G,"cannot eat dairy products because she is lactose intolerant. She enjoys eating wheat products. She thinks eating insects, like crickets, is disgusting.",,,,,,,,,,0,0,0,0,,,,,,,,,,,,,,,,,,,,,,,,,,001,46,2019_Oct_21_1203,ACPT_experiment_5_30_19,3.1.0,59.961338876643026,
C,D,"is allergic to gluten, meaning she can’t eat wheat products. She enjoys eating dairy products. She thinks eating insects, like crickets, is disgusting.",,,,,,,,,,0,1,1,1,,,,,,,,,,,,,,,,,,,,,,,,,,001,46,2019_Oct_21_1203,ACPT_experiment_5_30_19,3.1.0,59.961338876643026,
C,U,"did not report her food preferences, so her food preferences are unknown.",,,,,,,,,,0,2,2,2,,,,,,,,,,,,,,,,,,,,,,,,,,001,46,2019_Oct_21_1203,ACPT_experiment_5_30_19,3.1.0,59.961338876643026,
,,,C,G,y,b,,,,,,,,,,0,0,0,5,,,,,,,,,,,,,b,1,4.536814232698816,1113.7491141993132,None,,,,,001,46,2019_Oct_21_1203,ACPT_experiment_5_30_19,3.1.0,59.961338876643026,
,,,C,G,d,b,,,,,,,,,,0,1,1,3,,,,,,,,,,,,,b,1,3.852975197581145,1121.5551043792875,None,,,,,001,46,2019_Oct_21_1203,ACPT_experiment_5_30_19,3.1.0,59.961338876643026,
,,,C,D,g,b,,,,,,,,,,0,2,2,10,,,,,,,,,,,,,b,1,3.9030325203111715,1128.6939259036553,None,,,,,001,46,2019_Oct_21_1203,ACPT_experiment_5_30_19,3.1.0,59.961338876643026,
,,,C,D,d,v,,,,,,,,,,0,3,3,9,,,,,,,,,,,,,v,1,1.6012414793185599,1135.8661047892092,None,,,,,001,46,2019_Oct_21_1203,ACPT_experiment_5_30_19,3.1.0,59.961338876643026,
,,,C,G,y,b,,,,,,,,,,0,4,4,14,,,,,,,,,,,,,n,0,1.751344624009107,1140.7532107067627,None,,,,,001,46,2019_Oct_21_1203,ACPT_experiment_5_30_19,3.1.0,59.961338876643026,
,,,C,D,d,v,,,,,,,,,,0,5,5,0,,,,,,,,,,,,,v,1,2.1516718978564313,1145.7904028649891,None,,,,,001,46,2019_Oct_21_1203,ACPT_experiment_5_30_19,3.1.0,59.961338876643026,
,,,C,G,g,v,,,,,,,,,,0,6,6,19,,,,,,,,,,,,,v,1,1.334371119244679,1151.2279189766305,None,,,,,001,46,2019_Oct_21_1203,ACPT_experiment_5_30_19,3.1.0,59.961338876643026,
,,,C,G,g,v,,,,,,,,,,0,7,7,13,,,,,,,,,,,,,v,1,1.1506292822250543,1155.8483993405016,None,,,,,001,46,2019_Oct_21_1203,ACPT_experiment_5_30_19,3.1.0,59.961338876643026,
,,,C,G,g,v,,,,,,,,,,0,8,8,4,,,,,,,,,,,,,v,1,0.7007056219736114,1160.2680397558333,None,,,,,001,46,2019_Oct_21_1203,ACPT_experiment_5_30_19,3.1.0,59.961338876643026,
,,,C,U,d,n,,,,,,,,,,0,9,9,15,,,,,,,,,,,,,n,1,2.5350459517594572,1164.2715174555105,None,,,,,001,46,2019_Oct_21_1203,ACPT_experiment_5_30_19,3.1.0,59.961338876643026,
,,,C,U,d,n,,,,,,,,,,0,10,10,6,,,,,,,,,,,,,n,1,0.9675765857627994,1170.0755775589505,None,,,,,001,46,2019_Oct_21_1203,ACPT_experiment_5_30_19,3.1.0,59.961338876643026,
,,,C,U,g,n,,,,,,,,,,0,11,11,16,,,,,,,,,,,,,n,1,0.883758922152083,1174.3292688227739,None,,,,,001,46,2019_Oct_21_1203,ACPT_experiment_5_30_19,3.1.0,59.961338876643026,
,,,C,D,y,b,,,,,,,,,,0,12,12,2,,,,,,,,,,,,,b,1,1.6679634462707327,1178.4988704494226,None,,,,,001,46,2019_Oct_21_1203,ACPT_experiment_5_30_19,3.1.0,59.961338876643026,
,,,C,U,g,n,,,,,,,,,,0,13,13,7,,,,,,,,,,,,,n,1,1.4678195810101897,1183.4526762983342,None,,,,,001,46,2019_Oct_21_1203,ACPT_experiment_5_30_19,3.1.0,59.961338876643026,
,,,C,G,d,b,,,,,,,,,,0,14,14,12,,,,,,,,,,,,,b,1,3.6361633676669953,1188.2063364708392,None,,,,,001,46,2019_Oct_21_1203,ACPT_experiment_5_30_19,3.1.0,59.961338876643026,
,,,C,D,d,v,,,,,,,,,,0,15,15,18,,,,,,,,,,,,,v,1,1.5345128715043757,1195.1283352984246,None,,,,,001,46,2019_Oct_21_1203,ACPT_experiment_5_30_19,3.1.0,59.961338876643026,
,,,C,U,y,n,,,,,,,,,,0,16,16,17,,,,,,,,,,,,,n,1,1.7180056761280866,1199.9486878558519,None,,,,,001,46,2019_Oct_21_1203,ACPT_experiment_5_30_19,3.1.0,59.961338876643026,
,,,C,D,y,b,,,,,,,,,,0,17,17,11,,,,,,,,,,,,,b,1,3.10238763205507,1204.9525425754837,None,,,,,001,46,2019_Oct_21_1203,ACPT_experiment_5_30_19,3.1.0,59.961338876643026,
,,,C,D,g,b,,,,,,,,,,0,18,18,1,,,,,,,,,,,,,b,1,1.9848763380587116,1211.340778647328,None,,,,,001,46,2019_Oct_21_1203,ACPT_experiment_5_30_19,3.1.0,59.961338876643026,
,,,C,U,y,n,,,,,,,,,,0,19,19,8,,,,,,,,,,,,,n,1,1.1676048396202532,1216.6114964824546,None,,,,,001,46,2019_Oct_21_1203,ACPT_experiment_5_30_19,3.1.0,59.961338876643026,
,,,C,G,g,v,,,,,,,,,,1,0,20,19,,,,,,,,,,,,,v,1,2.0513474614690494,1221.0818444214628,None,,,,,001,46,2019_Oct_21_1203,ACPT_experiment_5_30_19,3.1.0,59.961338876643026,
,,,C,G,y,b,,,,,,,,,,1,1,21,5,,,,,,,,,,,,,b,1,1.18425046682205,1226.4023560577652,None,,,,,001,46,2019_Oct_21_1203,ACPT_experiment_5_30_19,3.1.0,59.961338876643026,
,,,C,D,d,v,,,,,,,,,,1,2,22,18,,,,,,,,,,,,,v,1,1.6346169519520117,1230.872442588222,None,,,,,001,46,2019_Oct_21_1203,ACPT_experiment_5_30_19,3.1.0,59.961338876643026,
,,,C,G,g,v,,,,,,,,,,1,3,23,4,,,,,,,,,,,,,v,1,1.7013479746274243,1235.79288232208,None,,,,,001,46,2019_Oct_21_1203,ACPT_experiment_5_30_19,3.1.0,59.961338876643026,
,,,C,D,y,b,,,,,,,,,,1,4,24,11,,,,,,,,,,,,,b,1,1.1508834461974402,1240.7800917163668,None,,,,,001,46,2019_Oct_21_1203,ACPT_experiment_5_30_19,3.1.0,59.961338876643026,
,,,C,G,y,b,,,,,,,,,,1,5,25,14,,,,,,,,,,,,,b,1,1.0005315709686329,1245.2337439198363,None,,,,,001,46,2019_Oct_21_1203,ACPT_experiment_5_30_19,3.1.0,59.961338876643026,
,,,C,G,d,b,,,,,,,,,,1,6,26,3,,,,,,,,,,,,,b,1,3.4193282947289845,1249.5034227616206,None,,,,,001,46,2019_Oct_21_1203,ACPT_experiment_5_30_19,3.1.0,59.961338876643026,
,,,C,U,d,n,,,,,,,,,,1,7,27,15,,,,,,,,,,,,,n,1,1.1342112555403219,1256.2086091555775,None,,,,,001,46,2019_Oct_21_1203,ACPT_experiment_5_30_19,3.1.0,59.961338876643026,
,,,C,U,g,n,,,,,,,,,,1,8,28,7,,,,,,,,,,,,,n,1,1.531194250702356,1260.6486672088022,None,,,,,001,46,2019_Oct_21_1203,ACPT_experiment_5_30_19,3.1.0,59.961338876643026,
,,,C,G,d,b,,,,,,,,,,1,9,29,12,,,,,,,,,,,,,b,1,2.2517424721281714,1265.4657138234406,None,,,,,001,46,2019_Oct_21_1203,ACPT_experiment_5_30_19,3.1.0,59.961338876643026,
,,,C,G,g,v,,,,,,,,,,1,10,30,13,,,,,,,,,,,,,v,1,1.1842676726964783,1270.9866135276807,None,,,,,001,46,2019_Oct_21_1203,ACPT_experiment_5_30_19,3.1.0,59.961338876643026,
,,,C,D,d,v,,,,,,,,,,1,11,31,0,,,,,,,,,,,,,v,1,3.1855973547635585,1275.4735738895715,None,,,,,001,46,2019_Oct_21_1203,ACPT_experiment_5_30_19,3.1.0,59.961338876643026,
,,,C,U,d,n,,,,,,,,,,1,12,32,6,,,,,,,,,,,,,n,1,1.317712210314312,1281.9450474550094,None,,,,,001,46,2019_Oct_21_1203,ACPT_experiment_5_30_19,3.1.0,59.961338876643026,
,,,C,U,y,n,,,,,,,,,,1,13,33,8,,,,,,,,,,,,,n,1,0.9004350369568783,1286.5488544207928,None,,,,,001,46,2019_Oct_21_1203,ACPT_experiment_5_30_19,3.1.0,59.961338876643026,
,,,C,D,g,b,,,,,,,,,,1,14,34,10,,,,,,,,,,,,,b,1,3.152432578628577,1290.73513065296,None,,,,,001,46,2019_Oct_21_1203,ACPT_experiment_5_30_19,3.1.0,59.961338876643026,
,,,C,D,g,b,,,,,,,,,,1,15,35,1,,,,,,,,,,,,,b,1,1.0843157284034532,1297.1565816092743,None,,,,,001,46,2019_Oct_21_1203,ACPT_experiment_5_30_19,3.1.0,59.961338876643026,
,,,C,U,g,n,,,,,,,,,,1,16,36,16,,,,,,,,,,,,,n,1,0.7839346635591937,1301.5434490594416,None,,,,,001,46,2019_Oct_21_1203,ACPT_experiment_5_30_19,3.1.0,59.961338876643026,
,,,C,U,y,n,,,,,,,,,,1,17,37,17,,,,,,,,,,,,,n,1,1.3343699118158838,1305.5965485015486,None,,,,,001,46,2019_Oct_21_1203,ACPT_experiment_5_30_19,3.1.0,59.961338876643026,
,,,C,D,d,v,,,,,,,,,,1,18,38,9,,,,,,,,,,,,,v,1,2.401850446537537,1310.2167753051626,None,,,,,001,46,2019_Oct_21_1203,ACPT_experiment_5_30_19,3.1.0,59.961338876643026,
,,,C,D,y,b,,,,,,,,,,1,19,39,2,,,,,,,,,,,,,n,0,0.8173267383517668,1315.90446815434,None,,,,,001,46,2019_Oct_21_1203,ACPT_experiment_5_30_19,3.1.0,59.961338876643026,
,,,C,D,y,b,,,,,,,,,,2,0,40,11,,,,,,,,,,,,,b,1,1.2009320150618805,1320.0243043544142,None,,,,,001,46,2019_Oct_21_1203,ACPT_experiment_5_30_19,3.1.0,59.961338876643026,
,,,C,U,g,n,,,,,,,,,,2,1,41,7,,,,,,,,,,,,,n,1,1.2676391909972153,1324.5110965817057,None,,,,,001,46,2019_Oct_21_1203,ACPT_experiment_5_30_19,3.1.0,59.961338876643026,
,,,C,G,g,v,,,,,,,,,,2,2,42,4,,,,,,,,,,,,,v,1,1.8178036731223983,1329.0815335082898,None,,,,,001,46,2019_Oct_21_1203,ACPT_experiment_5_30_19,3.1.0,59.961338876643026,
,,,C,D,g,b,,,,,,,,,,2,3,43,1,,,,,,,,,,,,,b,1,1.8680961428044611,1334.1851967899265,None,,,,,001,46,2019_Oct_21_1203,ACPT_experiment_5_30_19,3.1.0,59.961338876643026,
,,,C,G,g,v,,,,,,,,,,2,4,44,13,,,,,,,,,,,,,v,1,1.5011684901874105,1339.322461937284,None,,,,,001,46,2019_Oct_21_1203,ACPT_experiment_5_30_19,3.1.0,59.961338876643026,
,,,C,U,d,n,,,,,,,,,,2,5,45,15,,,,,,,,,,,,,n,1,2.3853086582976175,1344.109474037542,None,,,,,001,46,2019_Oct_21_1203,ACPT_experiment_5_30_19,3.1.0,59.961338876643026,
,,,C,G,y,b,,,,,,,,,,2,6,46,14,,,,,,,,,,,,,b,1,1.8180807782609918,1349.7804943942047,None,,,,,001,46,2019_Oct_21_1203,ACPT_experiment_5_30_19,3.1.0,59.961338876643026,
,,,C,U,y,n,,,,,,,,,,2,7,47,8,,,,,,,,,,,,,n,1,0.8006005152101352,1354.8844441385618,None,,,,,001,46,2019_Oct_21_1203,ACPT_experiment_5_30_19,3.1.0,59.961338876643026,
,,,C,G,g,v,,,,,,,,,,2,8,48,19,,,,,,,,,,,,,v,1,3.3356766527149375,1358.9878269946284,None,,,,,001,46,2019_Oct_21_1203,ACPT_experiment_5_30_19,3.1.0,59.961338876643026,
,,,C,D,d,v,,,,,,,,,,2,9,49,18,,,,,,,,,,,,,v,1,2.5853462697359646,1365.6093261273918,None,,,,,001,46,2019_Oct_21_1203,ACPT_experiment_5_30_19,3.1.0,59.961338876643026,
,,,C,G,d,b,,,,,,,,,,2,10,50,12,,,,,,,,,,,,,b,1,1.5178436994201547,1371.4805027254706,None,,,,,001,46,2019_Oct_21_1203,ACPT_experiment_5_30_19,3.1.0,59.961338876643026,
,,,C,D,d,v,,,,,,,,,,2,11,51,0,,,,,,,,,,,,,v,1,1.6179233294151345,1376.2841915442477,None,,,,,001,46,2019_Oct_21_1203,ACPT_experiment_5_30_19,3.1.0,59.961338876643026,
,,,C,D,d,v,,,,,,,,,,2,12,52,9,,,,,,,,,,,,,v,1,1.9348322970563459,1381.1712811614989,None,,,,,001,46,2019_Oct_21_1203,ACPT_experiment_5_30_19,3.1.0,59.961338876643026,
,,,C,U,g,n,,,,,,,,,,2,13,53,16,,,,,,,,,,,,,n,1,1.5679049462960393,1386.3919368441766,None,,,,,001,46,2019_Oct_21_1203,ACPT_experiment_5_30_19,3.1.0,59.961338876643026,
,,,C,U,d,n,,,,,,,,,,2,14,54,6,,,,,,,,,,,,,n,1,1.084166610822649,1391.2456932488367,None,,,,,001,46,2019_Oct_21_1203,ACPT_experiment_5_30_19,3.1.0,59.961338876643026,
,,,C,D,g,b,,,,,,,,,,2,15,55,10,,,,,,,,,,,,,b,1,1.351052365626856,1395.6157058845902,None,,,,,001,46,2019_Oct_21_1203,ACPT_experiment_5_30_19,3.1.0,59.961338876643026,
,,,C,U,y,n,,,,,,,,,,2,16,56,17,,,,,,,,,,,,,n,1,1.751373300467094,1400.2526103122955,None,,,,,001,46,2019_Oct_21_1203,ACPT_experiment_5_30_19,3.1.0,59.961338876643026,
,,,C,G,d,b,,,,,,,,,,2,17,57,3,,,,,,,,,,,,,b,1,4.686947261277965,1405.2898097151,None,,,,,001,46,2019_Oct_21_1203,ACPT_experiment_5_30_19,3.1.0,59.961338876643026,
,,,C,D,y,b,,,,,,,,,,2,18,58,2,,,,,,,,,,,,,b,1,2.7688146239070193,1413.2625942474415,None,,,,,001,46,2019_Oct_21_1203,ACPT_experiment_5_30_19,3.1.0,59.961338876643026,
,,,C,G,y,b,,,,,,,,,,2,19,59,5,,,,,,,,,,,,,b,1,1.2341547478254142,1419.3172585185675,None,,,,,001,46,2019_Oct_21_1203,ACPT_experiment_5_30_19,3.1.0,59.961338876643026,
,,,C,D,d,v,,,,,,,,,,3,0,60,9,,,,,,,,,,,,,v,1,3.6361419357872364,1423.8373927123157,None,,,,,001,46,2019_Oct_21_1203,ACPT_experiment_5_30_19,3.1.0,59.961338876643026,
,,,C,D,g,b,,,,,,,,,,3,1,61,10,,,,,,,,,,,,,b,1,1.818078665259236,1430.7426933895022,None,,,,,001,46,2019_Oct_21_1203,ACPT_experiment_5_30_19,3.1.0,59.961338876643026,
,,,C,U,y,n,,,,,,,,,,3,2,62,17,,,,,,,,,,,,,n,1,1.134193144092933,1435.8466392097125,None,,,,,001,46,2019_Oct_21_1203,ACPT_experiment_5_30_19,3.1.0,59.961338876643026,
,,,C,U,g,n,,,,,,,,,,3,3,63,7,,,,,,,,,,,,,n,1,0.3969618651408382,1440.2866960555075,None,,,,,001,46,2019_Oct_21_1203,ACPT_experiment_5_30_19,3.1.0,59.961338876643026,
,,,C,D,y,b,,,,,,,,,,3,4,64,11,,,,,,,,,,,,,n,0,0.917383125323795,1443.9695229625977,None,,,,,001,46,2019_Oct_21_1203,ACPT_experiment_5_30_19,3.1.0,59.961338876643026,
,,,C,G,d,b,,,,,,,,,,3,5,65,3,,,,,,,,,,,,,b,1,0.23694360880199383,None,None,,,,,001,46,2019_Oct_21_1203,ACPT_experiment_5_30_19,3.1.0,59.961338876643026,
,,,C,D,d,v,,,,,,,,,,3,6,66,18,,,,,,,,,,,,,v,1,2.3682609569723354,1451.4421683386545,None,,,,,001,46,2019_Oct_21_1203,ACPT_experiment_5_30_19,3.1.0,59.961338876643026,
,,,C,G,d,b,,,,,,,,,,3,7,67,12,,,,,,,,,,,,,b,1,1.2342984319711832,1457.0962701889803,None,,,,,001,46,2019_Oct_21_1203,ACPT_experiment_5_30_19,3.1.0,59.961338876643026,
,,,C,U,y,n,,,,,,,,,,3,8,68,8,,,,,,,,,,,,,n,1,1.13395739342468,1461.633350056236,None,,,,,001,46,2019_Oct_21_1203,ACPT_experiment_5_30_19,3.1.0,59.961338876643026,
,,,C,D,d,v,,,,,,,,,,3,9,69,0,,,,,,,,,,,,,v,1,3.3192263272821947,1466.0531573987373,None,,,,,001,46,2019_Oct_21_1203,ACPT_experiment_5_30_19,3.1.0,59.961338876643026,
,,,C,U,d,n,,,,,,,,,,3,10,70,6,,,,,,,,,,,,,n,1,3.169115636155766,1472.6582288453765,None,,,,,001,46,2019_Oct_21_1203,ACPT_experiment_5_30_19,3.1.0,59.961338876643026,
,,,C,G,y,b,,,,,,,,,,3,11,71,14,,,,,,,,,,,,,b,1,1.8347517614884055,1479.1131886953171,None,,,,,001,46,2019_Oct_21_1203,ACPT_experiment_5_30_19,3.1.0,59.961338876643026,
,,,C,G,g,v,,,,,,,,,,3,12,72,19,,,,,,,,,,,,,v,1,1.9515207880167509,1484.2170895387671,None,,,,,001,46,2019_Oct_21_1203,ACPT_experiment_5_30_19,3.1.0,59.961338876643026,
,,,C,G,y,b,,,,,,,,,,3,13,73,5,,,,,,,,,,,,,b,1,0.934100896455675,1489.4377657477517,None,,,,,001,46,2019_Oct_21_1203,ACPT_experiment_5_30_19,3.1.0,59.961338876643026,
,,,C,D,y,b,,,,,,,,,,3,14,74,2,,,,,,,,,,,,,b,1,1.5178430957057572,1493.6743818412215,None,,,,,001,46,2019_Oct_21_1203,ACPT_experiment_5_30_19,3.1.0,59.961338876643026,
,,,C,U,d,n,,,,,,,,,,3,15,75,15,,,,,,,,,,,,,n,1,2.168340768082089,1498.4780564726989,None,,,,,001,46,2019_Oct_21_1203,ACPT_experiment_5_30_19,3.1.0,59.961338876643026,
,,,C,D,g,b,,,,,,,,,,3,16,76,1,,,,,,,,,,,,,b,1,2.418538333782635,1503.9322447749983,None,,,,,001,46,2019_Oct_21_1203,ACPT_experiment_5_30_19,3.1.0,59.961338876643026,
,,,C,G,g,v,,,,,,,,,,3,17,77,4,,,,,,,,,,,,,v,1,1.4344305247914235,1509.6366496600176,None,,,,,001,46,2019_Oct_21_1203,ACPT_experiment_5_30_19,3.1.0,59.961338876643026,
,,,C,G,g,v,,,,,,,,,,3,18,78,13,,,,,,,,,,,,,v,1,0.9140472986473469,1514.376937547504,None,,,,,001,46,2019_Oct_21_1203,ACPT_experiment_5_30_19,3.1.0,59.961338876643026,
,,,C,U,g,n,,,,,,,,,,3,19,79,16,,,,,,,,,,,,,n,1,0.7505926971025474,1518.5768296636516,None,,,,,001,46,2019_Oct_21_1203,ACPT_experiment_5_30_19,3.1.0,59.961338876643026,
,,,C,D,d,v,,,,,,,,,,4,0,80,18,,,,,,,,,,,,,b,0,1.4843704249724397,1522.630055282173,None,,,,,001,46,2019_Oct_21_1203,ACPT_experiment_5_30_19,3.1.0,59.961338876643026,
,,,C,D,g,b,,,,,,,,,,4,1,81,1,,,,,,,,,,,,,v,0,0.23632993260707735,None,None,,,,,001,46,2019_Oct_21_1203,ACPT_experiment_5_30_19,3.1.0,59.961338876643026,
,,,C,U,g,n,,,,,,,,,,4,2,82,16,,,,,,,,,,,,,n,1,1.2007182999877841,1530.6696955043162,None,,,,,001,46,2019_Oct_21_1203,ACPT_experiment_5_30_19,3.1.0,59.961338876643026,
,,,C,U,d,n,,,,,,,,,,4,3,83,15,,,,,,,,,,,,,n,1,1.8180856079798104,1535.1395496045361,None,,,,,001,46,2019_Oct_21_1203,ACPT_experiment_5_30_19,3.1.0,59.961338876643026,
,,,C,U,y,n,,,,,,,,,,4,4,84,17,,,,,,,,,,,,,n,1,1.6179432520066257,1540.2434733891523,None,,,,,001,46,2019_Oct_21_1203,ACPT_experiment_5_30_19,3.1.0,59.961338876643026,
,,,C,D,d,v,,,,,,,,,,4,5,85,0,,,,,,,,,,,,,v,1,2.2016836401107867,1545.1639372716063,None,,,,,001,46,2019_Oct_21_1203,ACPT_experiment_5_30_19,3.1.0,59.961338876643026,
,,,C,U,y,n,,,,,,,,,,4,6,86,8,,,,,,,,,,,,,n,1,1.951543125468561,1550.6514654273606,None,,,,,001,46,2019_Oct_21_1203,ACPT_experiment_5_30_19,3.1.0,59.961338876643026,
,,,C,D,g,b,,,,,,,,,,4,7,87,10,,,,,,,,,,,,,b,1,1.718008090987496,1555.8888183548643,None,,,,,001,46,2019_Oct_21_1203,ACPT_experiment_5_30_19,3.1.0,59.961338876643026,
,,,C,D,y,b,,,,,,,,,,4,8,88,11,,,,,,,,,,,,,b,1,1.1008276327556814,1560.876014769281,None,,,,,001,46,2019_Oct_21_1203,ACPT_experiment_5_30_19,3.1.0,59.961338876643026,
,,,C,G,g,v,,,,,,,,,,4,9,89,19,,,,,,,,,,,,,v,1,2.3349120477951146,1565.2796365153326,None,,,,,001,46,2019_Oct_21_1203,ACPT_experiment_5_30_19,3.1.0,59.961338876643026,
,,,C,U,g,n,,,,,,,,,,4,10,90,7,,,,,,,,,,,,,n,1,1.1508798239083262,1570.9003668171727,None,,,,,001,46,2019_Oct_21_1203,ACPT_experiment_5_30_19,3.1.0,59.961338876643026,
,,,C,G,g,v,,,,,,,,,,4,11,91,4,,,,,,,,,,,,,v,1,2.9853907031520066,1575.3540223410728,None,,,,,001,46,2019_Oct_21_1203,ACPT_experiment_5_30_19,3.1.0,59.961338876643026,
,,,C,G,y,b,,,,,,,,,,4,12,92,14,,,,,,,,,,,,,b,1,1.5179037690522819,1581.608553976036,None,,,,,001,46,2019_Oct_21_1203,ACPT_experiment_5_30_19,3.1.0,59.961338876643026,
,,,C,G,d,b,,,,,,,,,,4,13,93,3,,,,,,,,,,,,,b,1,3.202472997341829,1586.3955841877405,None,,,,,001,46,2019_Oct_21_1203,ACPT_experiment_5_30_19,3.1.0,59.961338876643026,
,,,C,U,d,n,,,,,,,,,,4,14,94,6,,,,,,,,,,,,,n,1,1.167578276164022,1592.8839013988672,None,,,,,001,46,2019_Oct_21_1203,ACPT_experiment_5_30_19,3.1.0,59.961338876643026,
,,,C,G,d,b,,,,,,,,,,4,15,95,12,,,,,,,,,,,,,b,1,2.168075737241452,1597.3542680530372,None,,,,,001,46,2019_Oct_21_1203,ACPT_experiment_5_30_19,3.1.0,59.961338876643026,
,,,C,G,g,v,,,,,,,,,,4,16,96,13,,,,,,,,,,,,,v,1,1.2176232227393484,1602.7915022298203,None,,,,,001,46,2019_Oct_21_1203,ACPT_experiment_5_30_19,3.1.0,59.961338876643026,
,,,C,D,y,b,,,,,,,,,,4,17,97,2,,,,,,,,,,,,,b,1,1.5676299541610206,1607.3118945116885,None,,,,,001,46,2019_Oct_21_1203,ACPT_experiment_5_30_19,3.1.0,59.961338876643026,
,,,C,D,d,v,,,,,,,,,,4,18,98,9,,,,,,,,,,,,,v,1,3.869643464093315,1612.165379244644,None,,,,,001,46,2019_Oct_21_1203,ACPT_experiment_5_30_19,3.1.0,59.961338876643026,
,,,C,G,y,b,,,,,,,,,,4,19,99,5,,,,,,,,,,,,,b,1,1.2843222485244041,1619.3208762801014,None,,,,,001,46,2019_Oct_21_1203,ACPT_experiment_5_30_19,3.1.0,59.961338876643026,
,,,C,D,d,v,,,,,,,,,,5,0,100,9,,,,,,,,,,,,,v,1,1.5511826473029942,1623.8910717207264,None,,,,,001,46,2019_Oct_21_1203,ACPT_experiment_5_30_19,3.1.0,59.961338876643026,
,,,C,G,g,v,,,,,,,,,,5,1,101,4,,,,,,,,,,,,,v,1,3.319229647713655,1628.728094355808,None,,,,,001,46,2019_Oct_21_1203,ACPT_experiment_5_30_19,3.1.0,59.961338876643026,
,,,C,U,g,n,,,,,,,,,,5,2,102,7,,,,,,,,,,,,,n,1,2.001548830574393,1635.3331670098787,None,,,,,001,46,2019_Oct_21_1203,ACPT_experiment_5_30_19,3.1.0,59.961338876643026,
,,,C,D,g,b,,,,,,,,,,5,3,103,1,,,,,,,,,,,,,b,1,1.284358471417363,1640.6205618653812,None,,,,,001,46,2019_Oct_21_1203,ACPT_experiment_5_30_19,3.1.0,59.961338876643026,
,,,C,D,y,b,,,,,,,,,,5,4,104,11,,,,,,,,,,,,,b,1,0.9841307501592382,1645.1907548911468,None,,,,,001,46,2019_Oct_21_1203,ACPT_experiment_5_30_19,3.1.0,59.961338876643026,
,,,C,U,d,n,,,,,,,,,,5,5,105,6,,,,,,,,,,,,,n,1,1.3176983248722536,1649.4606839727576,None,,,,,001,46,2019_Oct_21_1203,ACPT_experiment_5_30_19,3.1.0,59.961338876643026,
,,,C,U,y,n,,,,,,,,,,5,6,106,8,,,,,,,,,,,,,n,1,0.7503158938216075,1654.0811739960673,None,,,,,001,46,2019_Oct_21_1203,ACPT_experiment_5_30_19,3.1.0,59.961338876643026,
,,,C,U,d,n,,,,,,,,,,5,7,107,15,,,,,,,,,,,,,n,1,1.4177963681722758,1658.1006513480052,None,,,,,001,46,2019_Oct_21_1203,ACPT_experiment_5_30_19,3.1.0,59.961338876643026,
,,,C,D,d,v,,,,,,,,,,5,8,108,0,,,,,,,,,,,,,v,1,2.335148100321021,1662.8042650646485,None,,,,,001,46,2019_Oct_21_1203,ACPT_experiment_5_30_19,3.1.0,59.961338876643026,
,,,C,G,d,b,,,,,,,,,,5,9,109,3,,,,,,,,,,,,,b,1,2.735446999568012,1668.4252528508923,None,,,,,001,46,2019_Oct_21_1203,ACPT_experiment_5_30_19,3.1.0,59.961338876643026,
,,,C,G,d,b,,,,,,,,,,5,10,110,12,,,,,,,,,,,,,b,1,4.00308558684992,1674.429859195573,None,,,,,001,46,2019_Oct_21_1203,ACPT_experiment_5_30_19,3.1.0,59.961338876643026,
,,,C,D,d,v,,,,,,,,,,5,11,111,18,,,,,,,,,,,,,v,1,1.4177743325781194,1681.7187917129258,None,,,,,001,46,2019_Oct_21_1203,ACPT_experiment_5_30_19,3.1.0,59.961338876643026,
,,,C,D,y,b,,,,,,,,,,5,12,112,2,,,,,,,,,,,,,b,1,0.9838337224282441,1686.4226819309943,None,,,,,001,46,2019_Oct_21_1203,ACPT_experiment_5_30_19,3.1.0,59.961338876643026,
,,,C,G,y,b,,,,,,,,,,5,13,113,14,,,,,,,,,,,,,b,1,1.9014987826103606,1690.692326964744,None,,,,,001,46,2019_Oct_21_1203,ACPT_experiment_5_30_19,3.1.0,59.961338876643026,
,,,C,U,g,n,,,,,,,,,,5,14,114,16,,,,,,,,,,,,,n,1,1.2009489190786553,1695.8796642258467,None,,,,,001,46,2019_Oct_21_1203,ACPT_experiment_5_30_19,3.1.0,59.961338876643026,
,,,C,G,y,b,,,,,,,,,,5,15,115,5,,,,,,,,,,,,,b,1,3.1188201478980773,1700.3833806947669,None,,,,,001,46,2019_Oct_21_1203,ACPT_experiment_5_30_19,3.1.0,59.961338876643026,
,,,C,G,g,v,,,,,,,,,,5,16,116,19,,,,,,,,,,,,,v,1,1.6513012169089052,1706.77134117076,None,,,,,001,46,2019_Oct_21_1203,ACPT_experiment_5_30_19,3.1.0,59.961338876643026,
,,,C,D,g,b,,,,,,,,,,5,17,117,10,,,,,,,,,,,,,b,1,4.019768644377109,1711.70848931817,None,,,,,001,46,2019_Oct_21_1203,ACPT_experiment_5_30_19,3.1.0,59.961338876643026,
,,,C,G,g,v,,,,,,,,,,5,18,118,13,,,,,,,,,,,,,v,1,1.9181555785362434,1719.014098554043,None,,,,,001,46,2019_Oct_21_1203,ACPT_experiment_5_30_19,3.1.0,59.961338876643026,
,,,C,U,y,n,,,,,,,,,,5,19,119,17,0,0,0,0,0,0,0,0,,,,,n,1,1.3843943320825929,1724.2181022705108,None,,,,,001,46,2019_Oct_21_1203,ACPT_experiment_5_30_19,3.1.0,59.961338876643026,
,,,C,U,y,n,R,D,y,R,y,,,,,5,19,119,17,0,0,0,0,,,,,0,0,0,27,,,,,,down,1.3146915228171565,1856.6060871969576,None,001,46,2019_Oct_21_1203,ACPT_experiment_5_30_19,3.1.0,59.961338876643026,
,,,C,U,y,n,L,G,y,R,y,,,,,5,19,119,17,0,0,0,0,,,,,0,1,1,35,,,,,,down,0.8339669321212568,1859.221781610965,None,001,46,2019_Oct_21_1203,ACPT_experiment_5_30_19,3.1.0,59.961338876643026,
,,,C,U,y,n,L,U,d,R,u,,,,,5,19,119,17,0,0,0,0,,,,,0,2,2,21,,,,,,up,1.31767568556279,1861.340076225043,None,001,46,2019_Oct_21_1203,ACPT_experiment_5_30_19,3.1.0,59.961338876643026,
,,,C,U,y,n,R,G,y,L,y,,,,,5,19,119,17,0,0,0,0,,,,,0,3,3,28,,,,,,down,1.6012245753026946,1863.9420726498438,None,001,46,2019_Oct_21_1203,ACPT_experiment_5_30_19,3.1.0,59.961338876643026,
,,,C,U,y,n,L,U,y,R,u,,,,,5,19,119,17,0,0,0,0,,,,,0,4,4,25,,,,,,down,1.4010683338856325,1866.8443061534845,None,001,46,2019_Oct_21_1203,ACPT_experiment_5_30_19,3.1.0,59.961338876643026,
,,,C,U,y,n,L,D,g,L,i,,,,,5,19,119,17,0,0,0,0,,,,,0,5,5,14,,,,,,up,1.8013696479920327,1869.5463822082793,None,001,46,2019_Oct_21_1203,ACPT_experiment_5_30_19,3.1.0,59.961338876643026,
,,,C,U,y,n,R,G,g,R,c ,,,,,5,19,119,17,0,0,0,0,,,,,0,6,6,7,,,,,,up,0.8840046341156267,1872.6320852735216,None,001,46,2019_Oct_21_1203,ACPT_experiment_5_30_19,3.1.0,59.961338876643026,
,,,C,U,y,n,R,D,g,R,i,,,,,5,19,119,17,0,0,0,0,,,,,0,7,7,3,,,,,,up,0.8339898732865549,1874.8004200044552,None,001,46,2019_Oct_21_1203,ACPT_experiment_5_30_19,3.1.0,59.961338876643026,
,,,C,U,y,n,R,G,d,R,i,,,,,5,19,119,17,0,0,0,0,,,,,0,8,8,5,,,,,,up,0.8673309341702407,1876.9187061665243,None,001,46,2019_Oct_21_1203,ACPT_experiment_5_30_19,3.1.0,59.961338876643026,
,,,C,U,y,n,L,U,d,L,u,,,,,5,19,119,17,0,0,0,0,,,,,0,9,9,20,,,,,,up,1.0508134756419167,1879.0703536139272,None,001,46,2019_Oct_21_1203,ACPT_experiment_5_30_19,3.1.0,59.961338876643026,
,,,C,U,y,n,L,U,g,R,u,,,,,5,19,119,17,0,0,0,0,,,,,0,10,10,23,,,,,,up,0.8339928918594524,1881.3887827356857,None,001,46,2019_Oct_21_1203,ACPT_experiment_5_30_19,3.1.0,59.961338876643026,
,,,C,U,y,n,L,U,g,L,u,,,,,5,19,119,17,0,0,0,0,,,,,0,11,11,22,,,,,,up,1.0340772912040848,1883.507146475119,None,001,46,2019_Oct_21_1203,ACPT_experiment_5_30_19,3.1.0,59.961338876643026,
,,,C,U,y,n,R,U,d,L,u,,,,,5,19,119,17,0,0,0,0,,,,,0,12,12,8,,,,,,up,1.718004166841638,1885.8255218662516,None,001,46,2019_Oct_21_1203,ACPT_experiment_5_30_19,3.1.0,59.961338876643026,
,,,C,U,y,n,R,D,d,L,c,,,,,5,19,119,17,0,0,0,0,,,,,0,13,13,0,,,,,,up,1.8347544782063778,1888.8278519039059,None,001,46,2019_Oct_21_1203,ACPT_experiment_5_30_19,3.1.0,59.961338876643026,
,,,C,U,y,n,L,G,y,L,y,,,,,5,19,119,17,0,0,0,0,,,,,0,14,14,34,,,,,,down,0.55041955166962,1891.9469111229037,None,001,46,2019_Oct_21_1203,ACPT_experiment_5_30_19,3.1.0,59.961338876643026,
,,,C,U,y,n,L,D,d,L,c ,,,,,5,19,119,17,0,0,0,0,,,,,0,15,15,12,,,,,,up,0.5837832518627692,1893.781651715667,None,001,46,2019_Oct_21_1203,ACPT_experiment_5_30_19,3.1.0,59.961338876643026,
,,,C,U,y,n,R,G,g,L,c ,,,,,5,19,119,17,0,0,0,0,,,,,0,16,16,6,,,,,,up,0.6171397074758715,1895.64975389562,None,001,46,2019_Oct_21_1203,ACPT_experiment_5_30_19,3.1.0,59.961338876643026,
,,,C,U,y,n,L,D,d,R,c ,,,,,5,19,119,17,0,0,0,0,,,,,0,17,17,13,,,,,,up,0.9170966626024892,1897.5681657511332,None,001,46,2019_Oct_21_1203,ACPT_experiment_5_30_19,3.1.0,59.961338876643026,
,,,C,U,y,n,R,D,y,L,y,,,,,5,19,119,17,0,0,0,0,,,,,0,18,18,26,,,,,,down,0.6838692208639259,1899.7695943216995,None,001,46,2019_Oct_21_1203,ACPT_experiment_5_30_19,3.1.0,59.961338876643026,
,,,C,U,y,n,R,U,d,R,u,,,,,5,19,119,17,0,0,0,0,,,,,0,19,19,9,,,,,,up,0.6004789874023118,1901.737736890179,None,001,46,2019_Oct_21_1203,ACPT_experiment_5_30_19,3.1.0,59.961338876643026,
,,,C,U,y,n,L,D,g,R,i,,,,,5,19,119,17,0,0,0,0,,,,,0,20,20,15,,,,,,up,1.1008454423445073,1903.6225450688262,None,001,46,2019_Oct_21_1203,ACPT_experiment_5_30_19,3.1.0,59.961338876643026,
,,,C,U,y,n,R,G,y,R,y,,,,,5,19,119,17,0,0,0,0,,,,,0,21,21,29,,,,,,down,1.234278207522948,1906.0077139671257,None,001,46,2019_Oct_21_1203,ACPT_experiment_5_30_19,3.1.0,59.961338876643026,
,,,C,U,y,n,R,U,y,R,u,,,,,5,19,119,17,0,0,0,0,,,,,0,22,22,31,,,,,,down,1.2343132229852927,1908.5263056693047,None,001,46,2019_Oct_21_1203,ACPT_experiment_5_30_19,3.1.0,59.961338876643026,
,,,C,U,y,n,L,G,d,R,i,,,,,5,19,119,17,0,0,0,0,,,,,0,23,23,17,,,,,,up,1.2176298636022693,1911.0449052197791,None,001,46,2019_Oct_21_1203,ACPT_experiment_5_30_19,3.1.0,59.961338876643026,
,,,C,U,y,n,R,D,d,R,c ,,,,,5,19,119,17,0,0,0,0,,,,,0,24,24,1,,,,,,up,0.7505875655260752,1913.5301419756333,None,001,46,2019_Oct_21_1203,ACPT_experiment_5_30_19,3.1.0,59.961338876643026,
,,,C,U,y,n,L,G,d,L,i,,,,,5,19,119,17,0,0,0,0,,,,,0,25,25,16,,,,,,up,0.9840996588409325,1915.5650436395308,None,001,46,2019_Oct_21_1203,ACPT_experiment_5_30_19,3.1.0,59.961338876643026,
,,,C,U,y,n,L,G,g,R,c ,,,,,5,19,119,17,0,0,0,0,,,,,0,26,26,19,,,,,,up,0.6504997853808163,1917.8334504540226,None,001,46,2019_Oct_21_1203,ACPT_experiment_5_30_19,3.1.0,59.961338876643026,
,,,C,U,y,n,L,G,g,L,c ,,,,,5,19,119,17,0,0,0,0,,,,,0,27,27,18,,,,,,up,0.5504328333972808,1919.768272487926,None,001,46,2019_Oct_21_1203,ACPT_experiment_5_30_19,3.1.0,59.961338876643026,
,,,C,U,y,n,R,D,g,L,i,,,,,5,19,119,17,0,0,0,0,,,,,0,28,28,2,,,,,,up,0.8339762897012406,1921.60301791041,None,001,46,2019_Oct_21_1203,ACPT_experiment_5_30_19,3.1.0,59.961338876643026,
,,,C,U,y,n,L,U,y,L,u,,,,,5,19,119,17,0,0,0,0,,,,,0,29,29,24,,,,,,down,1.0307918747221265,1923.7413199381072,None,001,46,2019_Oct_21_1203,ACPT_experiment_5_30_19,3.1.0,59.961338876643026,
,,,C,U,y,n,L,D,y,R,y,,,,,5,19,119,17,0,0,0,0,,,,,0,30,30,33,,,,,,down,1.084199513285057,1926.0564343632095,None,001,46,2019_Oct_21_1203,ACPT_experiment_5_30_19,3.1.0,59.961338876643026,
,,,C,U,y,n,R,G,d,L,i,,,,,5,19,119,17,0,0,0,0,,,,,0,31,31,4,,,,,,up,1.334352102227058,1928.4249214114125,None,001,46,2019_Oct_21_1203,ACPT_experiment_5_30_19,3.1.0,59.961338876643026,
,,,C,U,y,n,R,U,g,R,u,,,,,5,19,119,17,0,0,0,0,,,,,0,32,32,11,,,,,,up,2.918909316589634,1931.0435945547333,None,001,46,2019_Oct_21_1203,ACPT_experiment_5_30_19,3.1.0,59.961338876643026,
,,,C,U,y,n,R,U,y,L,u,,,,,5,19,119,17,0,0,0,0,,,,,0,33,33,30,,,,,,down,0.917397916336995,1935.2468227994132,None,001,46,2019_Oct_21_1203,ACPT_experiment_5_30_19,3.1.0,59.961338876643026,
,,,C,U,y,n,R,U,g,L,u,,,,,5,19,119,17,0,0,0,0,,,,,0,34,34,10,,,,,,up,0.7672567376084771,1937.4485148915328,None,001,46,2019_Oct_21_1203,ACPT_experiment_5_30_19,3.1.0,59.961338876643026,
,,,C,U,y,n,L,D,y,L,y,,,,,5,19,119,17,0,0,0,0,,,,,0,35,35,32,,,,,,down,0.9173698435952247,1939.5000935758098,None,001,46,2019_Oct_21_1203,ACPT_experiment_5_30_19,3.1.0,59.961338876643026,
,,,C,U,y,n,R,U,y,L,u,,,,,5,19,119,17,0,0,0,0,,,,,1,0,36,30,,,,,,down,0.7507167605144787,1941.7017829512124,None,001,46,2019_Oct_21_1203,ACPT_experiment_5_30_19,3.1.0,59.961338876643026,
,,,C,U,y,n,R,G,g,L,c ,,,,,5,19,119,17,0,0,0,0,,,,,1,1,37,6,,,,,,up,0.6004542350910924,1943.7366776723893,None,001,46,2019_Oct_21_1203,ACPT_experiment_5_30_19,3.1.0,59.961338876643026,
,,,C,U,y,n,L,U,y,L,u,,,,,5,19,119,17,0,0,0,0,,,,,1,2,38,24,,,,,,down,0.6505022002384067,1945.6214571745777,None,001,46,2019_Oct_21_1203,ACPT_experiment_5_30_19,3.1.0,59.961338876643026,
,,,C,U,y,n,L,D,d,R,c ,,,,,5,19,119,17,0,0,0,0,,,,,1,3,39,13,,,,,,up,1.517528258384118,1947.573252351017,None,001,46,2019_Oct_21_1203,ACPT_experiment_5_30_19,3.1.0,59.961338876643026,
,,,C,U,y,n,L,D,g,L,i,,,,,5,19,119,17,0,0,0,0,,,,,1,4,40,14,,,,,,up,0.6672057840714842,1950.358405914957,None,001,46,2019_Oct_21_1203,ACPT_experiment_5_30_19,3.1.0,59.961338876643026,
,,,C,U,y,n,R,G,d,R,i,,,,,5,19,119,17,0,0,0,0,,,,,1,5,41,5,,,,,,up,0.6671698630361789,1952.3099399847006,None,001,46,2019_Oct_21_1203,ACPT_experiment_5_30_19,3.1.0,59.961338876643026,
,,,C,U,y,n,R,G,g,R,c ,,,,,5,19,119,17,0,0,0,0,,,,,1,6,42,7,,,,,,up,0.6671997469220514,1954.2447233808516,None,001,46,2019_Oct_21_1203,ACPT_experiment_5_30_19,3.1.0,59.961338876643026,
,,,C,U,y,n,R,U,g,R,u,,,,,5,19,119,17,0,0,0,0,,,,,1,7,43,11,,,,,,up,0.5003730958069355,1956.1962505078745,None,001,46,2019_Oct_21_1203,ACPT_experiment_5_30_19,3.1.0,59.961338876643026,
,,,C,U,y,n,R,D,d,R,c ,,,,,5,19,119,17,0,0,0,0,,,,,1,8,44,1,,,,,,up,0.45034686439430516,1957.9809461540635,None,001,46,2019_Oct_21_1203,ACPT_experiment_5_30_19,3.1.0,59.961338876643026,
,,,C,U,y,n,R,U,y,R,u,,,,,5,19,119,17,0,0,0,0,,,,,1,9,45,31,,,,,,down,0.6838649948585953,1959.7156119465517,None,001,46,2019_Oct_21_1203,ACPT_experiment_5_30_19,3.1.0,59.961338876643026,
,,,C,U,y,n,L,U,d,R,u,,,,,5,19,119,17,0,0,0,0,,,,,1,10,46,21,,,,,,up,0.6338251798624697,1961.7004852660348,None,001,46,2019_Oct_21_1203,ACPT_experiment_5_30_19,3.1.0,59.961338876643026,
,,,C,U,y,n,L,G,y,R,y,,,,,5,19,119,17,0,0,0,0,,,,,1,11,47,35,,,,,,down,0.817313456624106,1963.618588925091,None,001,46,2019_Oct_21_1203,ACPT_experiment_5_30_19,3.1.0,59.961338876643026,
,,,C,U,y,n,R,D,y,R,y,,,,,5,19,119,17,0,0,0,0,,,,,1,12,48,27,,,,,,down,0.7171994148793601,1965.720232478533,None,001,46,2019_Oct_21_1203,ACPT_experiment_5_30_19,3.1.0,59.961338876643026,
,,,C,U,y,n,L,G,g,L,c ,,,,,5,19,119,17,0,0,0,0,,,,,1,13,49,18,,,,,,up,0.8673088985760842,1967.7217755738156,None,001,46,2019_Oct_21_1203,ACPT_experiment_5_30_19,3.1.0,59.961338876643026,
,,,C,U,y,n,R,D,y,L,y,,,,,5,19,119,17,0,0,0,0,,,,,1,14,50,26,,,,,,down,0.6338167278536275,1969.8900900802992,None,001,46,2019_Oct_21_1203,ACPT_experiment_5_30_19,3.1.0,59.961338876643026,
,,,C,U,y,n,L,U,g,L,u,,,,,5,19,119,17,0,0,0,0,,,,,1,15,51,22,,,,,,up,0.6671067748266069,1971.8249836544192,None,001,46,2019_Oct_21_1203,ACPT_experiment_5_30_19,3.1.0,59.961338876643026,
,,,C,U,y,n,R,D,g,R,i,,,,,5,19,119,17,0,0,0,0,,,,,1,16,52,3,,,,,,up,0.7505763968001702,1973.776408149909,None,001,46,2019_Oct_21_1203,ACPT_experiment_5_30_19,3.1.0,59.961338876643026,
,,,C,U,y,n,R,U,d,R,u,,,,,5,19,119,17,0,0,0,0,,,,,1,17,53,9,,,,,,up,0.517113506250098,1975.8112820429224,None,001,46,2019_Oct_21_1203,ACPT_experiment_5_30_19,3.1.0,59.961338876643026,
,,,C,U,y,n,R,U,g,L,u,,,,,5,19,119,17,0,0,0,0,,,,,1,18,54,10,,,,,,up,0.6672063877867913,1977.5959846318337,None,001,46,2019_Oct_21_1203,ACPT_experiment_5_30_19,3.1.0,59.961338876643026,
,,,C,U,y,n,R,U,d,L,u,,,,,5,19,119,17,0,0,0,0,,,,,1,19,55,8,,,,,,up,0.5504397761178552,1979.547508740282,None,001,46,2019_Oct_21_1203,ACPT_experiment_5_30_19,3.1.0,59.961338876643026,
,,,C,U,y,n,L,D,g,R,i,,,,,5,19,119,17,0,0,0,0,,,,,1,20,56,15,,,,,,up,0.8671978150341602,1981.3822659352054,None,001,46,2019_Oct_21_1203,ACPT_experiment_5_30_19,3.1.0,59.961338876643026,
,,,C,U,y,n,L,U,d,L,u,,,,,5,19,119,17,0,0,0,0,,,,,1,21,57,20,,,,,,up,0.8339717618400755,1983.533901610167,None,001,46,2019_Oct_21_1203,ACPT_experiment_5_30_19,3.1.0,59.961338876643026,
,,,C,U,y,n,L,D,y,L,y,,,,,5,19,119,17,0,0,0,0,,,,,1,22,58,32,,,,,,down,1.4010867471915844,1985.6521883759515,None,001,46,2019_Oct_21_1203,ACPT_experiment_5_30_19,3.1.0,59.961338876643026,
,,,C,U,y,n,L,G,d,R,i,,,,,5,19,119,17,0,0,0,0,,,,,1,23,59,17,,,,,,up,0.8339983252953971,1988.3375656766339,None,001,46,2019_Oct_21_1203,ACPT_experiment_5_30_19,3.1.0,59.961338876643026,
,,,C,U,y,n,L,U,g,R,u,,,,,5,19,119,17,0,0,0,0,,,,,1,24,60,23,,,,,,up,0.5671101556308713,1990.4558838355942,None,001,46,2019_Oct_21_1203,ACPT_experiment_5_30_19,3.1.0,59.961338876643026,
,,,C,U,y,n,L,G,g,R,c ,,,,,5,19,119,17,0,0,0,0,,,,,1,25,61,19,,,,,,up,0.4503221120849048,1992.3073258991872,None,001,46,2019_Oct_21_1203,ACPT_experiment_5_30_19,3.1.0,59.961338876643026,
,,,C,U,y,n,L,D,d,L,c ,,,,,5,19,119,17,0,0,0,0,,,,,1,26,62,12,,,,,,up,0.700258872948325,1994.0589255927416,None,001,46,2019_Oct_21_1203,ACPT_experiment_5_30_19,3.1.0,59.961338876643026,
,,,C,U,y,n,L,D,y,R,y,,,,,5,19,119,17,0,0,0,0,,,,,1,27,63,33,,,,,,down,0.7839648493027198,1996.0434879990526,None,001,46,2019_Oct_21_1203,ACPT_experiment_5_30_19,3.1.0,59.961338876643026,
,,,C,U,y,n,R,G,y,R,y,,,,,5,19,119,17,0,0,0,0,,,,,1,28,64,29,,,,,,down,1.1508716737571376,1998.1284466838233,None,001,46,2019_Oct_21_1203,ACPT_experiment_5_30_19,3.1.0,59.961338876643026,
,,,C,U,y,n,R,G,y,L,y,,,,,5,19,119,17,0,0,0,0,,,,,1,29,65,28,,,,,,down,0.6805234328930965,2000.5836540568735,None,001,46,2019_Oct_21_1203,ACPT_experiment_5_30_19,3.1.0,59.961338876643026,
,,,C,U,y,n,R,G,d,L,i,,,,,5,19,119,17,0,0,0,0,,,,,1,30,66,4,,,,,,up,0.7005872938534594,2002.548501851291,None,001,46,2019_Oct_21_1203,ACPT_experiment_5_30_19,3.1.0,59.961338876643026,
,,,C,U,y,n,L,G,d,L,i,,,,,5,19,119,17,0,0,0,0,,,,,1,31,67,16,,,,,,up,0.7505727745101467,2004.533359172331,None,001,46,2019_Oct_21_1203,ACPT_experiment_5_30_19,3.1.0,59.961338876643026,
,,,C,U,y,n,L,G,y,L,y,,,,,5,19,119,17,0,0,0,0,,,,,1,32,68,34,,,,,,down,0.8006334176716337,2006.5515563468243,None,001,46,2019_Oct_21_1203,ACPT_experiment_5_30_19,3.1.0,59.961338876643026,
,,,C,U,y,n,R,D,g,L,i,,,,,5,19,119,17,0,0,0,0,,,,,1,33,69,2,,,,,,up,0.7839542842939409,2008.6365102018763,None,001,46,2019_Oct_21_1203,ACPT_experiment_5_30_19,3.1.0,59.961338876643026,
,,,C,U,y,n,L,U,y,R,u,,,,,5,19,119,17,0,0,0,0,,,,,1,34,70,25,,,,,,down,0.9340752385724045,2010.704767113958,None,001,46,2019_Oct_21_1203,ACPT_experiment_5_30_19,3.1.0,59.961338876643026,
,,,C,U,y,n,R,D,d,L,c,,,,,5,19,119,17,0,0,0,0,,,,,1,35,71,0,,,,,,up,0.7338827742642025,2012.9398265285608,None,001,46,2019_Oct_21_1203,ACPT_experiment_5_30_19,3.1.0,59.961338876643026,
,,,C,U,y,n,,,,,,,,,,5,19,119,17,1,0,1,0,0,0,0,0,,,,,,,,,,,,,,001,46,2019_Oct_21_1203,ACPT_experiment_5_30_19,3.1.0,59.961338876643026,
,,,C,U,y,n,L,U,y,R,u,,,,,5,19,119,17,1,0,1,0,,,,,0,0,0,25,,,,,,down,0.9507425995125232,2022.3136842245067,None,001,46,2019_Oct_21_1203,ACPT_experiment_5_30_19,3.1.0,59.961338876643026,
,,,C,U,y,n,L,U,d,L,u,,,,,5,19,119,17,1,0,1,0,,,,,0,1,1,20,,,,,,up,0.6504620531977707,2024.5654300170672,None,001,46,2019_Oct_21_1203,ACPT_experiment_5_30_19,3.1.0,59.961338876643026,
,,,C,U,y,n,L,G,y,L,y,,,,,5,19,119,17,1,0,1,0,,,,,0,2,2,34,,,,,,down,0.6838447704103601,2026.5169100543271,None,001,46,2019_Oct_21_1203,ACPT_experiment_5_30_19,3.1.0,59.961338876643026,
,,,C,U,y,n,R,G,y,L,y,,,,,5,19,119,17,1,0,1,0,,,,,0,3,3,28,,,,,,down,0.6338112944195018,2028.5017664697943,None,001,46,2019_Oct_21_1203,ACPT_experiment_5_30_19,3.1.0,59.961338876643026,
,,,C,U,y,n,L,D,y,R,y,,,,,5,19,119,17,1,0,1,0,,,,,0,4,4,33,,,,,,down,0.767263378473217,2030.4198969941635,None,001,46,2019_Oct_21_1203,ACPT_experiment_5_30_19,3.1.0,59.961338876643026,
,,,C,U,y,n,L,G,g,R,c ,,,,,5,19,119,17,1,0,1,0,,,,,0,5,5,19,,,,,,up,0.9006931250751222,2032.4714789988711,None,001,46,2019_Oct_21_1203,ACPT_experiment_5_30_19,3.1.0,59.961338876643026,
,,,C,U,y,n,R,G,y,R,y,,,,,5,19,119,17,1,0,1,0,,,,,0,6,6,29,,,,,,down,1.0007712457845628,2034.6564904483248,None,001,46,2019_Oct_21_1203,ACPT_experiment_5_30_19,3.1.0,59.961338876643026,
,,,C,U,y,n,L,G,y,R,y,,,,,5,19,119,17,1,0,1,0,,,,,0,7,7,35,,,,,,down,1.000769132782807,2036.9415748869078,None,001,46,2019_Oct_21_1203,ACPT_experiment_5_30_19,3.1.0,59.961338876643026,
,,,C,U,y,n,R,D,d,L,c,,,,,5,19,119,17,1,0,1,0,,,,,0,8,8,0,,,,,,up,1.084169327539712,2039.2266647589267,None,001,46,2019_Oct_21_1203,ACPT_experiment_5_30_19,3.1.0,59.961338876643026,
,,,C,U,y,n,L,D,g,L,i,,,,,5,19,119,17,1,0,1,0,,,,,0,9,9,14,,,,,,up,0.5304800559752039,2041.615161937466,None,001,46,2019_Oct_21_1203,ACPT_experiment_5_30_19,3.1.0,59.961338876643026,
,,,C,U,y,n,R,U,y,R,u,,,,,5,19,119,17,1,0,1,0,,,,,0,10,10,31,,,,,,down,0.7339114507212798,2043.4465718351303,None,001,46,2019_Oct_21_1203,ACPT_experiment_5_30_19,3.1.0,59.961338876643026,
,,,C,U,y,n,R,G,g,R,c ,,,,,5,19,119,17,1,0,1,0,,,,,0,11,11,7,,,,,,up,0.8006153062251542,2045.4814695748819,None,001,46,2019_Oct_21_1203,ACPT_experiment_5_30_19,3.1.0,59.961338876643026,
,,,C,U,y,n,R,U,y,L,u,,,,,5,19,119,17,1,0,1,0,,,,,0,12,12,30,,,,,,down,0.7005347706581233,2047.5664053184855,None,001,46,2019_Oct_21_1203,ACPT_experiment_5_30_19,3.1.0,59.961338876643026,
,,,C,U,y,n,L,G,d,R,i,,,,,5,19,119,17,1,0,1,0,,,,,0,13,13,17,,,,,,up,0.6671795224738162,2049.5512590172357,None,001,46,2019_Oct_21_1203,ACPT_experiment_5_30_19,3.1.0,59.961338876643026,
,,,C,U,y,n,R,D,d,R,c ,,,,,5,19,119,17,1,0,1,0,,,,,0,14,14,1,,,,,,up,0.6004596685233992,2051.502757769659,None,001,46,2019_Oct_21_1203,ACPT_experiment_5_30_19,3.1.0,59.961338876643026,
,,,C,U,y,n,L,U,g,R,u,,,,,5,19,119,17,1,0,1,0,,,,,0,15,15,23,,,,,,up,0.46701301790380967,2053.3875427052817,None,001,46,2019_Oct_21_1203,ACPT_experiment_5_30_19,3.1.0,59.961338876643026,
,,,C,U,y,n,R,U,d,R,u,,,,,5,19,119,17,1,0,1,0,,,,,0,16,16,9,,,,,,up,0.5170652090564545,2055.138889140436,None,001,46,2019_Oct_21_1203,ACPT_experiment_5_30_19,3.1.0,59.961338876643026,
,,,C,U,y,n,R,G,g,L,c ,,,,,5,19,119,17,1,0,1,0,,,,,0,17,17,6,,,,,,up,0.8171758096268604,2056.9402681460097,None,001,46,2019_Oct_21_1203,ACPT_experiment_5_30_19,3.1.0,59.961338876643026,
,,,C,U,y,n,L,U,d,R,u,,,,,5,19,119,17,1,0,1,0,,,,,0,18,18,21,,,,,,up,0.6671882763403119,2059.0418775895587,None,001,46,2019_Oct_21_1203,ACPT_experiment_5_30_19,3.1.0,59.961338876643026,
,,,C,U,y,n,R,U,g,R,u,,,,,5,19,119,17,1,0,1,0,,,,,0,19,19,11,,,,,,up,0.7305578144550964,2061.0133940187543,None,001,46,2019_Oct_21_1203,ACPT_experiment_5_30_19,3.1.0,59.961338876643026,
,,,C,U,y,n,R,D,y,R,y,,,,,5,19,119,17,1,0,1,0,,,,,0,20,20,27,,,,,,down,0.8840088601191383,2063.028277402166,None,001,46,2019_Oct_21_1203,ACPT_experiment_5_30_19,3.1.0,59.961338876643026,
,,,C,U,y,n,L,D,g,R,i,,,,,5,19,119,17,1,0,1,0,,,,,0,21,21,15,,,,,,up,0.6671762020414462,2065.1966057940926,None,001,46,2019_Oct_21_1203,ACPT_experiment_5_30_19,3.1.0,59.961338876643026,
,,,C,U,y,n,R,U,d,L,u,,,,,5,19,119,17,1,0,1,0,,,,,0,22,22,8,,,,,,up,1.184213640213784,2067.148132317402,None,001,46,2019_Oct_21_1203,ACPT_experiment_5_30_19,3.1.0,59.961338876643026,
,,,C,U,y,n,L,D,y,L,y,,,,,5,19,119,17,1,0,1,0,,,,,0,23,23,32,,,,,,down,0.8339723655553826,2069.616672130286,None,001,46,2019_Oct_21_1203,ACPT_experiment_5_30_19,3.1.0,59.961338876643026,
,,,C,U,y,n,L,G,d,L,i,,,,,5,19,119,17,1,0,1,0,,,,,0,24,24,16,,,,,,up,0.7172323173417681,2071.7349610090723,None,001,46,2019_Oct_21_1203,ACPT_experiment_5_30_19,3.1.0,59.961338876643026,
,,,C,U,y,n,L,U,y,L,u,,,,,5,19,119,17,1,0,1,0,,,,,0,25,25,24,,,,,,down,0.9007353851175139,2073.7364989727785,None,001,46,2019_Oct_21_1203,ACPT_experiment_5_30_19,3.1.0,59.961338876643026,
,,,C,U,y,n,R,D,g,L,i,,,,,5,19,119,17,1,0,1,0,,,,,0,26,26,2,,,,,,up,0.7339675962066394,2075.9215083092304,None,001,46,2019_Oct_21_1203,ACPT_experiment_5_30_19,3.1.0,59.961338876643026,
,,,C,U,y,n,R,U,g,L,u,,,,,5,19,119,17,1,0,1,0,,,,,0,27,27,10,,,,,,up,0.750574585654249,2077.9397232933125,None,001,46,2019_Oct_21_1203,ACPT_experiment_5_30_19,3.1.0,59.961338876643026,
,,,C,U,y,n,R,G,d,R,i,,,,,5,19,119,17,1,0,1,0,,,,,0,28,28,5,,,,,,up,1.267633455707255,2079.9746252590694,None,001,46,2019_Oct_21_1203,ACPT_experiment_5_30_19,3.1.0,59.961338876643026,
,,,C,U,y,n,R,G,d,L,i,,,,,5,19,119,17,1,0,1,0,,,,,0,29,29,4,,,,,,up,0.5339112696074153,2082.509750599337,None,001,46,2019_Oct_21_1203,ACPT_experiment_5_30_19,3.1.0,59.961338876643026,
,,,C,U,y,n,L,D,d,R,c ,,,,,5,19,119,17,1,0,1,0,,,,,0,30,30,13,,,,,,up,0.8506976831231441,2084.327961780017,None,001,46,2019_Oct_21_1203,ACPT_experiment_5_30_19,3.1.0,59.961338876643026,
,,,C,U,y,n,L,D,d,L,c ,,,,,5,19,119,17,1,0,1,0,,,,,0,31,31,12,,,,,,up,0.467022677341447,2086.4462569978105,None,001,46,2019_Oct_21_1203,ACPT_experiment_5_30_19,3.1.0,59.961338876643026,
,,,C,U,y,n,R,D,g,R,i,,,,,5,19,119,17,1,0,1,0,,,,,0,32,32,3,,,,,,up,0.7005371855175326,2088.197601319961,None,001,46,2019_Oct_21_1203,ACPT_experiment_5_30_19,3.1.0,59.961338876643026,
,,,C,U,y,n,R,D,y,L,y,,,,,5,19,119,17,1,0,1,0,,,,,0,33,33,26,,,,,,down,0.5170745666382572,2090.165758679458,None,001,46,2019_Oct_21_1203,ACPT_experiment_5_30_19,3.1.0,59.961338876643026,
,,,C,U,y,n,L,G,g,L,c ,,,,,5,19,119,17,1,0,1,0,,,,,0,34,34,18,,,,,,up,0.567126757790902,2091.967160928055,None,001,46,2019_Oct_21_1203,ACPT_experiment_5_30_19,3.1.0,59.961338876643026,
,,,C,U,y,n,L,U,g,L,u,,,,,5,19,119,17,1,0,1,0,,,,,0,35,35,22,,,,,,up,0.5500585301597312,2093.8356362038166,None,001,46,2019_Oct_21_1203,ACPT_experiment_5_30_19,3.1.0,59.961338876643026,
,,,C,U,y,n,R,U,y,L,u,,,,,5,19,119,17,1,0,1,0,,,,,1,0,36,30,,,,,,down,0.6339727881531871,2095.6700046063443,None,001,46,2019_Oct_21_1203,ACPT_experiment_5_30_19,3.1.0,59.961338876643026,
,,,C,U,y,n,L,G,y,L,y,,,,,5,19,119,17,1,0,1,0,,,,,1,1,37,34,,,,,,down,0.6838818988762796,2097.6048275458206,None,001,46,2019_Oct_21_1203,ACPT_experiment_5_30_19,3.1.0,59.961338876643026,
,,,C,U,y,n,R,D,y,R,y,,,,,5,19,119,17,1,0,1,0,,,,,1,2,38,27,,,,,,down,0.9173939921911369,2099.589658001546,None,001,46,2019_Oct_21_1203,ACPT_experiment_5_30_19,3.1.0,59.961338876643026,
,,,C,U,y,n,L,D,d,R,c ,,,,,5,19,119,17,1,0,1,0,,,,,1,3,39,13,,,,,,up,0.6338185389977298,2101.791371827402,None,001,46,2019_Oct_21_1203,ACPT_experiment_5_30_19,3.1.0,59.961338876643026,
,,,C,U,y,n,R,G,g,R,c ,,,,,5,19,119,17,1,0,1,0,,,,,1,4,40,7,,,,,,up,0.6004605740963598,2103.7095153316413,None,001,46,2019_Oct_21_1203,ACPT_experiment_5_30_19,3.1.0,59.961338876643026,
,,,C,U,y,n,R,G,y,L,y,,,,,5,19,119,17,1,0,1,0,,,,,1,5,41,28,,,,,,down,0.9340130559394311,2105.594326830719,None,001,46,2019_Oct_21_1203,ACPT_experiment_5_30_19,3.1.0,59.961338876643026,
,,,C,U,y,n,L,U,g,L,u,,,,,5,19,119,17,1,0,1,0,,,,,1,6,42,22,,,,,,up,0.6338209538571391,2107.8126606258948,None,001,46,2019_Oct_21_1203,ACPT_experiment_5_30_19,3.1.0,59.961338876643026,
,,,C,U,y,n,R,G,g,L,c ,,,,,5,19,119,17,1,0,1,0,,,,,1,7,43,6,,,,,,up,0.767263378471398,2109.7307971874134,None,001,46,2019_Oct_21_1203,ACPT_experiment_5_30_19,3.1.0,59.961338876643026,
,,,C,U,y,n,R,D,y,L,y,,,,,5,19,119,17,1,0,1,0,,,,,1,8,44,26,,,,,,down,0.8006047412145563,2111.7990601366446,None,001,46,2019_Oct_21_1203,ACPT_experiment_5_30_19,3.1.0,59.961338876643026,
,,,C,U,y,n,L,U,d,L,u,,,,,5,19,119,17,1,0,1,0,,,,,1,9,45,20,,,,,,up,0.6838716357233352,2113.9006502613183,None,001,46,2019_Oct_21_1203,ACPT_experiment_5_30_19,3.1.0,59.961338876643026,
,,,C,U,y,n,R,D,d,L,c,,,,,5,19,119,17,1,0,1,0,,,,,1,10,46,0,,,,,,up,0.6838508075579739,2115.8688532012884,None,001,46,2019_Oct_21_1203,ACPT_experiment_5_30_19,3.1.0,59.961338876643026,
,,,C,U,y,n,L,G,y,R,y,,,,,5,19,119,17,1,0,1,0,,,,,1,11,47,35,,,,,,down,1.1175215571493027,2117.837025049942,None,001,46,2019_Oct_21_1203,ACPT_experiment_5_30_19,3.1.0,59.961338876643026,
,,,C,U,y,n,L,D,g,L,i,,,,,5,19,119,17,1,0,1,0,,,,,1,12,48,14,,,,,,up,0.767256133894989,2120.238869459331,None,001,46,2019_Oct_21_1203,ACPT_experiment_5_30_19,3.1.0,59.961338876643026,
,,,C,U,y,n,R,U,y,R,u,,,,,5,19,119,17,1,0,1,0,,,,,1,13,49,31,,,,,,down,1.784702287053733,2122.290445728747,None,001,46,2019_Oct_21_1203,ACPT_experiment_5_30_19,3.1.0,59.961338876643026,
,,,C,U,y,n,L,G,d,R,i,,,,,5,19,119,17,1,0,1,0,,,,,1,14,50,17,,,,,,up,0.6838843137356889,2125.359471169896,None,001,46,2019_Oct_21_1203,ACPT_experiment_5_30_19,3.1.0,59.961338876643026,
,,,C,U,y,n,L,G,d,L,i,,,,,5,19,119,17,1,0,1,0,,,,,1,15,51,16,,,,,,up,0.6671734853243834,2127.3276653560015,None,001,46,2019_Oct_21_1203,ACPT_experiment_5_30_19,3.1.0,59.961338876643026,
,,,C,U,y,n,R,G,y,R,y,,,,,5,19,119,17,1,0,1,0,,,,,1,16,52,29,,,,,,down,0.7672712267667521,2129.312506980453,None,001,46,2019_Oct_21_1203,ACPT_experiment_5_30_19,3.1.0,59.961338876643026,
,,,C,U,y,n,L,U,y,L,u,,,,,5,19,119,17,1,0,1,0,,,,,1,17,53,24,,,,,,down,0.7672588506120519,2131.3640814387245,None,001,46,2019_Oct_21_1203,ACPT_experiment_5_30_19,3.1.0,59.961338876643026,
,,,C,U,y,n,L,D,g,R,i,,,,,5,19,119,17,1,0,1,0,,,,,1,18,54,15,,,,,,up,1.034098119367627,2133.4323609901157,None,001,46,2019_Oct_21_1203,ACPT_experiment_5_30_19,3.1.0,59.961338876643026,
,,,C,U,y,n,R,D,g,L,i,,,,,5,19,119,17,1,0,1,0,,,,,1,19,55,2,,,,,,up,0.4670694652468228,2135.7507795468637,None,001,46,2019_Oct_21_1203,ACPT_experiment_5_30_19,3.1.0,59.961338876643026,
,,,C,U,y,n,L,U,y,R,u,,,,,5,19,119,17,1,0,1,0,,,,,1,20,56,25,,,,,,down,0.997433607963103,2137.5221385272134,None,001,46,2019_Oct_21_1203,ACPT_experiment_5_30_19,3.1.0,59.961338876643026,
,,,C,U,y,n,L,U,g,R,u,,,,,5,19,119,17,1,0,1,0,,,,,1,21,57,23,,,,,,up,0.9173955014794046,2139.787188083151,None,001,46,2019_Oct_21_1203,ACPT_experiment_5_30_19,3.1.0,59.961338876643026,
,,,C,U,y,n,R,U,d,R,u,,,,,5,19,119,17,1,0,1,0,,,,,1,22,58,9,,,,,,up,1.1675677111543337,2141.988901003434,None,001,46,2019_Oct_21_1203,ACPT_experiment_5_30_19,3.1.0,59.961338876643026,
,,,C,U,y,n,L,U,d,R,u,,,,,5,19,119,17,1,0,1,0,,,,,1,23,59,21,,,,,,up,1.017467886895247,2144.4240873792796,None,001,46,2019_Oct_21_1203,ACPT_experiment_5_30_19,3.1.0,59.961338876643026,
,,,C,U,y,n,R,D,d,R,c ,,,,,5,19,119,17,1,0,1,0,,,,,1,24,60,1,,,,,,up,0.6838499019868323,2146.725877816555,None,001,46,2019_Oct_21_1203,ACPT_experiment_5_30_19,3.1.0,59.961338876643026,
,,,C,U,y,n,R,U,d,L,u,,,,,5,19,119,17,1,0,1,0,,,,,1,25,61,8,,,,,,up,3.169100543282184,2148.6940554005005,None,001,46,2019_Oct_21_1203,ACPT_experiment_5_30_19,3.1.0,59.961338876643026,
,,,C,U,y,n,R,U,g,L,u,,,,,5,19,119,17,1,0,1,0,,,,,1,26,62,10,,,,,,up,0.5337552093042177,2153.1307776270505,None,001,46,2019_Oct_21_1203,ACPT_experiment_5_30_19,3.1.0,59.961338876643026,
,,,C,U,y,n,R,G,d,L,i,,,,,5,19,119,17,1,0,1,0,,,,,1,27,63,4,,,,,,up,0.46704048693391087,2154.948855386737,None,001,46,2019_Oct_21_1203,ACPT_experiment_5_30_19,3.1.0,59.961338876643026,
,,,C,U,y,n,L,G,g,R,c ,,,,,5,19,119,17,1,0,1,0,,,,,1,28,64,19,,,,,,up,1.0841681201109168,2156.7001994070315,None,001,46,2019_Oct_21_1203,ACPT_experiment_5_30_19,3.1.0,59.961338876643026,
,,,C,U,y,n,R,D,g,R,i,,,,,5,19,119,17,1,0,1,0,,,,,1,29,65,3,,,,,,up,0.8339669321194378,2159.068688870092,None,001,46,2019_Oct_21_1203,ACPT_experiment_5_30_19,3.1.0,59.961338876643026,
,,,C,U,y,n,L,D,d,L,c ,,,,,5,19,119,17,1,0,1,0,,,,,1,30,66,12,,,,,,up,0.9006846730662801,2161.1869810693106,None,001,46,2019_Oct_21_1203,ACPT_experiment_5_30_19,3.1.0,59.961338876643026,
,,,C,U,y,n,L,D,y,L,y,,,,,5,19,119,17,1,0,1,0,,,,,1,31,67,32,,,,,,down,0.9507256954948389,2163.371989198332,None,001,46,2019_Oct_21_1203,ACPT_experiment_5_30_19,3.1.0,59.961338876643026,
,,,C,U,y,n,R,U,g,R,u,,,,,5,19,119,17,1,0,1,0,,,,,1,32,68,11,,,,,,up,0.6672118212190981,2165.623721407307,None,001,46,2019_Oct_21_1203,ACPT_experiment_5_30_19,3.1.0,59.961338876643026,
,,,C,U,y,n,R,G,d,R,i,,,,,5,19,119,17,1,0,1,0,,,,,1,33,69,5,,,,,,up,0.6838610707109183,2167.5752183485865,None,001,46,2019_Oct_21_1203,ACPT_experiment_5_30_19,3.1.0,59.961338876643026,
,,,C,U,y,n,L,G,g,L,c ,,,,,5,19,119,17,1,0,1,0,,,,,1,34,70,18,,,,,,up,0.5837726868503523,2169.5434028752525,None,001,46,2019_Oct_21_1203,ACPT_experiment_5_30_19,3.1.0,59.961338876643026,
,,,C,U,y,n,L,D,y,R,y,,,,,5,19,119,17,1,0,1,0,,,,,1,35,71,33,,,,,,down,0.8173158714835154,2171.4114966031984,None,001,46,2019_Oct_21_1203,ACPT_experiment_5_30_19,3.1.0,59.961338876643026,
,,,C,U,y,n,,,,,,,,,,5,19,119,17,2,0,2,0,0,0,0,0,,,,,,,,,,,,,,001,46,2019_Oct_21_1203,ACPT_experiment_5_30_19,3.1.0,59.961338876643026,
,,,C,U,y,n,R,U,d,L,u,,,,,5,19,119,17,2,0,2,0,,,,,0,0,0,8,,,,,,up,0.7003373558854946,2177.0826814721704,None,001,46,2019_Oct_21_1203,ACPT_experiment_5_30_19,3.1.0,59.961338876643026,
,,,C,U,y,n,L,D,y,R,y,,,,,5,19,119,17,2,0,2,0,,,,,0,1,1,33,,,,,,down,0.6838568447092257,2179.067374884614,None,001,46,2019_Oct_21_1203,ACPT_experiment_5_30_19,3.1.0,59.961338876643026,
,,,C,U,y,n,R,G,d,R,i,,,,,5,19,119,17,2,0,2,0,,,,,0,2,2,5,,,,,,up,0.8506536119366501,2181.035552770417,None,001,46,2019_Oct_21_1203,ACPT_experiment_5_30_19,3.1.0,59.961338876643026,
,,,C,U,y,n,L,D,d,L,c ,,,,,5,19,119,17,2,0,2,0,,,,,0,3,3,12,,,,,,up,0.7005236019322183,2183.153840743632,None,001,46,2019_Oct_21_1203,ACPT_experiment_5_30_19,3.1.0,59.961338876643026,
,,,C,U,y,n,R,G,g,L,c ,,,,,5,19,119,17,2,0,2,0,,,,,0,4,4,6,,,,,,up,0.5504316259666666,2185.138710440827,None,001,46,2019_Oct_21_1203,ACPT_experiment_5_30_19,3.1.0,59.961338876643026,
,,,C,U,y,n,L,U,d,R,u,,,,,5,19,119,17,2,0,2,0,,,,,0,5,5,21,,,,,,up,0.5504228721001709,2186.973444090868,None,001,46,2019_Oct_21_1203,ACPT_experiment_5_30_19,3.1.0,59.961338876643026,
,,,C,U,y,n,L,D,g,L,i,,,,,5,19,119,17,2,0,2,0,,,,,0,6,6,14,,,,,,up,0.7005332613716746,2188.808189513352,None,001,46,2019_Oct_21_1203,ACPT_experiment_5_30_19,3.1.0,59.961338876643026,
,,,C,U,y,n,R,D,d,L,c,,,,,5,19,119,17,2,0,2,0,,,,,0,7,7,0,,,,,,up,0.41701093508709164,2190.793023893225,None,001,46,2019_Oct_21_1203,ACPT_experiment_5_30_19,3.1.0,59.961338876643026,
,,,C,U,y,n,R,U,g,L,u,,,,,5,19,119,17,2,0,2,0,,,,,0,8,8,10,,,,,,up,0.5170636997700058,2192.4943489266852,None,001,46,2019_Oct_21_1203,ACPT_experiment_5_30_19,3.1.0,59.961338876643026,
,,,C,U,y,n,L,D,g,R,i,,,,,5,19,119,17,2,0,2,0,,,,,0,9,9,15,,,,,,up,0.7172123947511864,2194.2957342712643,None,001,46,2019_Oct_21_1203,ACPT_experiment_5_30_19,3.1.0,59.961338876643026,
,,,C,U,y,n,R,G,y,R,y,,,,,5,19,119,17,2,0,2,0,,,,,0,10,10,29,,,,,,down,1.4008908417035855,2196.3141276530996,None,001,46,2019_Oct_21_1203,ACPT_experiment_5_30_19,3.1.0,59.961338876643026,
,,,C,U,y,n,R,D,y,R,y,,,,,5,19,119,17,2,0,2,0,,,,,0,11,11,27,,,,,,down,0.984084264109697,2198.9993452711906,None,001,46,2019_Oct_21_1203,ACPT_experiment_5_30_19,3.1.0,59.961338876643026,
,,,C,U,y,n,L,U,g,R,u,,,,,5,19,119,17,2,0,2,0,,,,,0,12,12,23,,,,,,up,0.7005278279375489,2201.2677626506947,None,001,46,2019_Oct_21_1203,ACPT_experiment_5_30_19,3.1.0,59.961338876643026,
,,,C,U,y,n,L,G,y,R,y,,,,,5,19,119,17,2,0,2,0,,,,,0,13,13,35,,,,,,down,0.7672494930302491,2203.252613632728,None,001,46,2019_Oct_21_1203,ACPT_experiment_5_30_19,3.1.0,59.961338876643026,
,,,C,U,y,n,R,D,d,R,c ,,,,,5,19,119,17,2,0,2,0,,,,,0,14,14,1,,,,,,up,0.7338700962500297,2205.3042046931578,None,001,46,2019_Oct_21_1203,ACPT_experiment_5_30_19,3.1.0,59.961338876643026,
,,,C,U,y,n,R,G,g,R,c ,,,,,5,19,119,17,2,0,2,0,,,,,0,15,15,7,,,,,,up,0.6671798243296507,2207.3224033769393,None,001,46,2019_Oct_21_1203,ACPT_experiment_5_30_19,3.1.0,59.961338876643026,
,,,C,U,y,n,L,U,y,L,u,,,,,5,19,119,17,2,0,2,0,,,,,0,16,16,24,,,,,,down,0.7172365433452796,2209.273899110788,None,001,46,2019_Oct_21_1203,ACPT_experiment_5_30_19,3.1.0,59.961338876643026,
,,,C,U,y,n,L,D,y,L,y,,,,,5,19,119,17,2,0,2,0,,,,,0,17,17,32,,,,,,down,0.8006409641075152,2211.2921228487367,None,001,46,2019_Oct_21_1203,ACPT_experiment_5_30_19,3.1.0,59.961338876643026,
,,,C,U,y,n,L,U,y,R,u,,,,,5,19,119,17,2,0,2,0,,,,,0,18,18,25,,,,,,down,0.9006680709062493,2213.3937464795863,None,001,46,2019_Oct_21_1203,ACPT_experiment_5_30_19,3.1.0,59.961338876643026,
,,,C,U,y,n,R,U,y,L,u,,,,,5,19,119,17,2,0,2,0,,,,,0,19,19,30,,,,,,down,2.351775314218685,2215.57877090891,None,001,46,2019_Oct_21_1203,ACPT_experiment_5_30_19,3.1.0,59.961338876643026,
,,,C,U,y,n,L,G,g,L,c ,,,,,5,19,119,17,2,0,2,0,,,,,0,20,20,18,,,,,,up,0.7337804445869551,2219.2148681697954,None,001,46,2019_Oct_21_1203,ACPT_experiment_5_30_19,3.1.0,59.961338876643026,
,,,C,U,y,n,R,U,g,R,u,,,,,5,19,119,17,2,0,2,0,,,,,0,21,21,11,,,,,,up,0.7839029685273999,2221.233103982043,None,001,46,2019_Oct_21_1203,ACPT_experiment_5_30_19,3.1.0,59.961338876643026,
,,,C,U,y,n,R,D,g,R,i,,,,,5,19,119,17,2,0,2,0,,,,,0,22,22,3,,,,,,up,0.8506542156501382,2223.30133916039,None,001,46,2019_Oct_21_1203,ACPT_experiment_5_30_19,3.1.0,59.961338876643026,
,,,C,U,y,n,L,U,g,L,u,,,,,5,19,119,17,2,0,2,0,,,,,0,23,23,22,,,,,,up,1.0007640012063348,2225.4363129078474,None,001,46,2019_Oct_21_1203,ACPT_experiment_5_30_19,3.1.0,59.961338876643026,
,,,C,U,y,n,L,U,d,L,u,,,,,5,19,119,17,2,0,2,0,,,,,0,24,24,20,,,,,,up,0.5670989869049663,2227.7213988557187,None,001,46,2019_Oct_21_1203,ACPT_experiment_5_30_19,3.1.0,59.961338876643026,
,,,C,U,y,n,L,G,y,L,y,,,,,5,19,119,17,2,0,2,0,,,,,0,25,25,34,,,,,,down,0.6671774094702414,2229.5894983189546,None,001,46,2019_Oct_21_1203,ACPT_experiment_5_30_19,3.1.0,59.961338876643026,
,,,C,U,y,n,R,G,d,L,i,,,,,5,19,119,17,2,0,2,0,,,,,0,26,26,4,,,,,,up,0.5003966406893596,2231.557658093311,None,001,46,2019_Oct_21_1203,ACPT_experiment_5_30_19,3.1.0,59.961338876643026,
,,,C,U,y,n,R,U,y,R,u,,,,,5,19,119,17,2,0,2,0,,,,,0,27,27,31,,,,,,down,1.2176069224369712,2233.3423784918114,None,001,46,2019_Oct_21_1203,ACPT_experiment_5_30_19,3.1.0,59.961338876643026,
,,,C,U,y,n,R,G,y,L,y,,,,,5,19,119,17,2,0,2,0,,,,,0,28,28,28,,,,,,down,1.9681718486535829,2235.844304946054,None,001,46,2019_Oct_21_1203,ACPT_experiment_5_30_19,3.1.0,59.961338876643026,
,,,C,U,y,n,L,D,d,R,c ,,,,,5,19,119,17,2,0,2,0,,,,,0,29,29,13,,,,,,up,4.319981272763471,2239.0968168528225,None,001,46,2019_Oct_21_1203,ACPT_experiment_5_30_19,3.1.0,59.961338876643026,
,,,C,U,y,n,R,D,g,L,i,,,,,5,19,119,17,2,0,2,0,,,,,0,30,30,2,,,,,,up,0.8006147025098471,2244.7010998478027,None,001,46,2019_Oct_21_1203,ACPT_experiment_5_30_19,3.1.0,59.961338876643026,
,,,C,U,y,n,L,G,d,L,i,,,,,5,19,119,17,2,0,2,0,,,,,0,31,31,16,,,,,,up,0.6171593282087997,2246.786040421127,None,001,46,2019_Oct_21_1203,ACPT_experiment_5_30_19,3.1.0,59.961338876643026,
,,,C,U,y,n,R,D,y,L,y,,,,,5,19,119,17,2,0,2,0,,,,,0,32,32,26,,,,,,down,0.5338074306437193,2248.6874890953995,None,001,46,2019_Oct_21_1203,ACPT_experiment_5_30_19,3.1.0,59.961338876643026,
,,,C,U,y,n,L,G,g,R,c ,,,,,5,19,119,17,2,0,2,0,,,,,0,33,33,19,,,,,,up,0.7836771791535284,2250.522517358312,None,001,46,2019_Oct_21_1203,ACPT_experiment_5_30_19,3.1.0,59.961338876643026,
,,,C,U,y,n,L,G,d,R,i,,,,,5,19,119,17,2,0,2,0,,,,,0,34,34,17,,,,,,up,0.7672730379126733,2252.5737941851376,None,001,46,2019_Oct_21_1203,ACPT_experiment_5_30_19,3.1.0,59.961338876643026,
,,,C,U,y,n,R,U,d,R,u,,,,,5,19,119,17,2,0,2,0,,,,,0,35,35,9,,,,,,up,0.6505206135443586,2254.608716073487,None,001,46,2019_Oct_21_1203,ACPT_experiment_5_30_19,3.1.0,59.961338876643026,
,,,C,U,y,n,L,D,d,L,c ,,,,,5,19,119,17,2,0,2,0,,,,,1,0,36,12,,,,,,up,0.6504970686637535,2256.543527240522,None,001,46,2019_Oct_21_1203,ACPT_experiment_5_30_19,3.1.0,59.961338876643026,
,,,C,U,y,n,L,D,g,L,i,,,,,5,19,119,17,2,0,2,0,,,,,1,1,37,14,,,,,,up,0.5003830571040453,2258.478343237276,None,001,46,2019_Oct_21_1203,ACPT_experiment_5_30_19,3.1.0,59.961338876643026,
,,,C,U,y,n,L,G,y,R,y,,,,,5,19,119,17,2,0,2,0,,,,,1,2,38,35,,,,,,down,1.1342052183899796,2260.263050655906,None,001,46,2019_Oct_21_1203,ACPT_experiment_5_30_19,3.1.0,59.961338876643026,
,,,C,U,y,n,L,G,g,R,c ,,,,,5,19,119,17,2,0,2,0,,,,,1,3,39,19,,,,,,up,3.235573779697006,2262.6818187032086,None,001,46,2019_Oct_21_1203,ACPT_experiment_5_30_19,3.1.0,59.961338876643026,
,,,C,U,y,n,R,U,y,R,u,,,,,5,19,119,17,2,0,2,0,,,,,1,4,40,31,,,,,,down,0.9840860752556182,2267.2017117128535,None,001,46,2019_Oct_21_1203,ACPT_experiment_5_30_19,3.1.0,59.961338876643026,
,,,C,U,y,n,R,D,d,R,c ,,,,,5,19,119,17,2,0,2,0,,,,,1,5,41,1,,,,,,up,1.83475960978285,2269.4701218477776,None,001,46,2019_Oct_21_1203,ACPT_experiment_5_30_19,3.1.0,59.961338876643026,
,,,C,U,y,n,L,D,d,R,c ,,,,,5,19,119,17,2,0,2,0,,,,,1,6,42,13,,,,,,up,0.550445813267288,2272.589160238612,None,001,46,2019_Oct_21_1203,ACPT_experiment_5_30_19,3.1.0,59.961338876643026,
,,,C,U,y,n,R,U,g,R,u,,,,,5,19,119,17,2,0,2,0,,,,,1,7,43,11,,,,,,up,0.7005057923433924,2274.423949128567,None,001,46,2019_Oct_21_1203,ACPT_experiment_5_30_19,3.1.0,59.961338876643026,
,,,C,U,y,n,R,U,g,L,u,,,,,5,19,119,17,2,0,2,0,,,,,1,8,44,10,,,,,,up,0.8007665368077141,2276.3919489184746,None,001,46,2019_Oct_21_1203,ACPT_experiment_5_30_19,3.1.0,59.961338876643026,
,,,C,U,y,n,L,D,y,R,y,,,,,5,19,119,17,2,0,2,0,,,,,1,9,45,33,,,,,,down,1.4341576456572511,2278.4939897163194,None,001,46,2019_Oct_21_1203,ACPT_experiment_5_30_19,3.1.0,59.961338876643026,
,,,C,U,y,n,L,G,d,L,i,,,,,5,19,119,17,2,0,2,0,,,,,1,10,46,16,,,,,,up,3.0356668725344207,2281.2124684030705,None,001,46,2019_Oct_21_1203,ACPT_experiment_5_30_19,3.1.0,59.961338876643026,
,,,C,U,y,n,R,G,g,L,c ,,,,,5,19,119,17,2,0,2,0,,,,,1,11,47,6,,,,,,up,2.235049151448038,2285.5324535999816,None,001,46,2019_Oct_21_1203,ACPT_experiment_5_30_19,3.1.0,59.961338876643026,
,,,C,U,y,n,R,U,d,R,u,,,,,5,19,119,17,2,0,2,0,,,,,1,12,48,9,,,,,,up,1.050804118060114,2289.0518216795217,None,001,46,2019_Oct_21_1203,ACPT_experiment_5_30_19,3.1.0,59.961338876643026,
,,,C,U,y,n,L,D,y,L,y,,,,,5,19,119,17,2,0,2,0,,,,,1,13,49,32,,,,,,down,5.954554757243386,2291.386969477985,None,001,46,2019_Oct_21_1203,ACPT_experiment_5_30_19,3.1.0,59.961338876643026,
,,,C,U,y,n,L,U,g,L,u,,,,,5,19,119,17,2,0,2,0,,,,,1,14,50,22,,,,,,up,0.7839373802762566,2298.6258431633205,None,001,46,2019_Oct_21_1203,ACPT_experiment_5_30_19,3.1.0,59.961338876643026,
,,,C,U,y,n,L,U,y,L,u,,,,,5,19,119,17,2,0,2,0,,,,,1,15,51,24,,,,,,down,0.96740724373376,2300.677417621592,None,001,46,2019_Oct_21_1203,ACPT_experiment_5_30_19,3.1.0,59.961338876643026,
,,,C,U,y,n,L,U,d,L,u,,,,,5,19,119,17,2,0,2,0,,,,,1,16,52,20,,,,,,up,0.6338321225830441,2302.9291443971333,None,001,46,2019_Oct_21_1203,ACPT_experiment_5_30_19,3.1.0,59.961338876643026,
,,,C,U,y,n,R,D,g,R,i,,,,,5,19,119,17,2,0,2,0,,,,,1,17,53,3,,,,,,up,0.8172823653076193,2304.8472897125166,None,001,46,2019_Oct_21_1203,ACPT_experiment_5_30_19,3.1.0,59.961338876643026,
,,,C,U,y,n,R,G,g,R,c ,,,,,5,19,119,17,2,0,2,0,,,,,1,18,54,7,,,,,,up,0.8673294248837919,2306.9488973449215,None,001,46,2019_Oct_21_1203,ACPT_experiment_5_30_19,3.1.0,59.961338876643026,
,,,C,U,y,n,L,U,d,R,u,,,,,5,19,119,17,2,0,2,0,,,,,1,19,55,21,,,,,,up,0.650501294667265,2309.100550829474,None,001,46,2019_Oct_21_1203,ACPT_experiment_5_30_19,3.1.0,59.961338876643026,
,,,C,U,y,n,R,G,y,L,y,,,,,5,19,119,17,2,0,2,0,,,,,1,20,56,28,,,,,,down,0.8506421413530916,2311.0353770893807,None,001,46,2019_Oct_21_1203,ACPT_experiment_5_30_19,3.1.0,59.961338876643026,
,,,C,U,y,n,L,D,g,R,i,,,,,5,19,119,17,2,0,2,0,,,,,1,21,57,15,,,,,,up,0.8672817314054555,2313.1703770984377,None,001,46,2019_Oct_21_1203,ACPT_experiment_5_30_19,3.1.0,59.961338876643026,
,,,C,U,y,n,R,D,g,L,i,,,,,5,19,119,17,2,0,2,0,,,,,1,22,58,2,,,,,,up,0.5337189864112588,2315.322015188259,None,001,46,2019_Oct_21_1203,ACPT_experiment_5_30_19,3.1.0,59.961338876643026,
,,,C,U,y,n,R,U,y,L,u,,,,,5,19,119,17,2,0,2,0,,,,,1,23,59,30,,,,,,down,1.0507998920547834,2317.1567397825775,None,001,46,2019_Oct_21_1203,ACPT_experiment_5_30_19,3.1.0,59.961338876643026,
,,,C,U,y,n,R,G,d,R,i,,,,,5,19,119,17,2,0,2,0,,,,,1,24,60,5,,,,,,up,1.4344480325235054,2319.5085380379633,None,001,46,2019_Oct_21_1203,ACPT_experiment_5_30_19,3.1.0,59.961338876643026,
,,,C,U,y,n,R,G,y,R,y,,,,,5,19,119,17,2,0,2,0,,,,,1,25,61,29,,,,,,down,0.8838953617196239,2322.2272959428547,None,001,46,2019_Oct_21_1203,ACPT_experiment_5_30_19,3.1.0,59.961338876643026,
,,,C,U,y,n,R,D,y,R,y,,,,,5,19,119,17,2,0,2,0,,,,,1,26,62,27,,,,,,down,0.9173644101610989,2324.412307996022,None,001,46,2019_Oct_21_1203,ACPT_experiment_5_30_19,3.1.0,59.961338876643026,
,,,C,U,y,n,R,D,d,L,c,,,,,5,19,119,17,2,0,2,0,,,,,1,27,63,0,,,,,,up,0.9340553159818228,2326.630658695215,None,001,46,2019_Oct_21_1203,ACPT_experiment_5_30_19,3.1.0,59.961338876643026,
,,,C,U,y,n,L,U,g,R,u,,,,,5,19,119,17,2,0,2,0,,,,,1,28,64,23,,,,,,up,1.2342561719287914,2328.849066143607,None,001,46,2019_Oct_21_1203,ACPT_experiment_5_30_19,3.1.0,59.961338876643026,
,,,C,U,y,n,R,D,y,L,y,,,,,5,19,119,17,2,0,2,0,,,,,1,29,65,26,,,,,,down,1.1509118207977735,2331.3676445640604,None,001,46,2019_Oct_21_1203,ACPT_experiment_5_30_19,3.1.0,59.961338876643026,
,,,C,U,y,n,L,G,y,L,y,,,,,5,19,119,17,2,0,2,0,,,,,1,30,66,34,,,,,,down,1.4844812066567101,2333.802846636493,None,001,46,2019_Oct_21_1203,ACPT_experiment_5_30_19,3.1.0,59.961338876643026,
,,,C,U,y,n,R,G,d,L,i,,,,,5,19,119,17,2,0,2,0,,,,,1,31,67,4,,,,,,up,0.9173716547411459,2336.571643752667,None,001,46,2019_Oct_21_1203,ACPT_experiment_5_30_19,3.1.0,59.961338876643026,
,,,C,U,y,n,L,G,g,L,c ,,,,,5,19,119,17,2,0,2,0,,,,,1,32,68,18,,,,,,up,1.784705607486103,2338.7733322224967,None,001,46,2019_Oct_21_1203,ACPT_experiment_5_30_19,3.1.0,59.961338876643026,
,,,C,U,y,n,R,U,d,L,u,,,,,5,19,119,17,2,0,2,0,,,,,1,33,69,8,,,,,,up,0.6838583539956744,2341.842356758075,None,001,46,2019_Oct_21_1203,ACPT_experiment_5_30_19,3.1.0,59.961338876643026,
,,,C,U,y,n,L,G,d,R,i,,,,,5,19,119,17,2,0,2,0,,,,,1,34,70,17,,,,,,up,0.600458461094604,2343.8105358513067,None,001,46,2019_Oct_21_1203,ACPT_experiment_5_30_19,3.1.0,59.961338876643026,
,,,C,U,y,n,L,U,y,R,u,,,,,5,19,119,17,2,0,2,0,,,,,1,35,71,25,,,,,,down,0.8006165136557684,2345.695312636778,None,001,46,2019_Oct_21_1203,ACPT_experiment_5_30_19,3.1.0,59.961338876643026,
,,,C,U,y,n,,,,,,,,,,5,19,119,17,3,0,3,0,0,0,0,0,,,,,,,,,,,,,,001,46,2019_Oct_21_1203,ACPT_experiment_5_30_19,3.1.0,59.961338876643026,
,,,C,U,y,n,R,G,y,L,y,,,,,5,19,119,17,3,0,3,0,,,,,0,0,0,28,,,,,,down,0.8670622810404893,2387.4943504359717,None,001,46,2019_Oct_21_1203,ACPT_experiment_5_30_19,3.1.0,59.961338876643026,
,,,C,U,y,n,R,D,g,R,i,,,,,5,19,119,17,3,0,3,0,,,,,0,1,1,3,,,,,,up,0.6671752964703046,2389.645732550677,None,001,46,2019_Oct_21_1203,ACPT_experiment_5_30_19,3.1.0,59.961338876643026,
,,,C,U,y,n,R,G,g,L,c ,,,,,5,19,119,17,3,0,3,0,,,,,0,2,2,6,,,,,,up,0.5170643034853128,2391.5972325105295,None,001,46,2019_Oct_21_1203,ACPT_experiment_5_30_19,3.1.0,59.961338876643026,
,,,C,U,y,n,L,D,y,R,y,,,,,5,19,119,17,3,0,3,0,,,,,0,3,3,33,,,,,,down,0.767255530177863,2393.3986142328204,None,001,46,2019_Oct_21_1203,ACPT_experiment_5_30_19,3.1.0,59.961338876643026,
,,,C,U,y,n,L,G,d,L,i,,,,,5,19,119,17,3,0,3,0,,,,,0,4,4,16,,,,,,up,0.600476874398737,2395.4501932189532,None,001,46,2019_Oct_21_1203,ACPT_experiment_5_30_19,3.1.0,59.961338876643026,
,,,C,U,y,n,R,U,y,R,u,,,,,5,19,119,17,3,0,3,0,,,,,0,5,5,31,,,,,,down,0.9507522589501605,2397.334967891423,None,001,46,2019_Oct_21_1203,ACPT_experiment_5_30_19,3.1.0,59.961338876643026,
,,,C,U,y,n,R,D,g,L,i,,,,,5,19,119,17,3,0,3,0,,,,,0,6,6,2,,,,,,up,0.5671246447891463,2399.570016741013,None,001,46,2019_Oct_21_1203,ACPT_experiment_5_30_19,3.1.0,59.961338876643026,
,,,C,U,y,n,R,D,d,R,c ,,,,,5,19,119,17,3,0,3,0,,,,,0,7,7,1,,,,,,up,0.7172661253753176,2401.404739524188,None,001,46,2019_Oct_21_1203,ACPT_experiment_5_30_19,3.1.0,59.961338876643026,
,,,C,U,y,n,L,G,g,R,c ,,,,,5,19,119,17,3,0,3,0,,,,,0,8,8,19,,,,,,up,0.7505733782254538,2403.4063158237905,None,001,46,2019_Oct_21_1203,ACPT_experiment_5_30_19,3.1.0,59.961338876643026,
,,,C,U,y,n,L,U,d,L,u,,,,,5,19,119,17,3,0,3,0,,,,,0,9,9,20,,,,,,up,0.6171345758993994,2405.441195452094,None,001,46,2019_Oct_21_1203,ACPT_experiment_5_30_19,3.1.0,59.961338876643026,
,,,C,U,y,n,L,D,d,R,c ,,,,,5,19,119,17,3,0,3,0,,,,,0,10,10,13,,,,,,up,0.6838459778391552,2407.3426613322417,None,001,46,2019_Oct_21_1203,ACPT_experiment_5_30_19,3.1.0,59.961338876643026,
,,,C,U,y,n,L,D,g,L,i,,,,,5,19,119,17,3,0,3,0,,,,,0,11,11,14,,,,,,up,0.667170466749667,2409.31083619947,None,001,46,2019_Oct_21_1203,ACPT_experiment_5_30_19,3.1.0,59.961338876643026,
,,,C,U,y,n,R,G,g,R,c ,,,,,5,19,119,17,3,0,3,0,,,,,0,12,12,7,,,,,,up,1.9348202227592992,2411.262331631461,None,001,46,2019_Oct_21_1203,ACPT_experiment_5_30_19,3.1.0,59.961338876643026,
,,,C,U,y,n,R,G,y,R,y,,,,,5,19,119,17,3,0,3,0,,,,,0,13,13,29,,,,,,down,1.100843631200405,2414.4814725934566,None,001,46,2019_Oct_21_1203,ACPT_experiment_5_30_19,3.1.0,59.961338876643026,
,,,C,U,y,n,R,D,y,L,y,,,,,5,19,119,17,3,0,3,0,,,,,0,14,14,26,,,,,,down,0.9173438838552102,2416.883334510577,None,001,46,2019_Oct_21_1203,ACPT_experiment_5_30_19,3.1.0,59.961338876643026,
,,,C,U,y,n,L,U,g,L,u,,,,,5,19,119,17,3,0,3,0,,,,,0,15,15,22,,,,,,up,0.7005359780887375,2419.1016882283448,None,001,46,2019_Oct_21_1203,ACPT_experiment_5_30_19,3.1.0,59.961338876643026,
,,,C,U,y,n,R,G,d,R,i,,,,,5,19,119,17,3,0,3,0,,,,,0,16,16,5,,,,,,up,1.1175300091581448,2421.0865413233796,None,001,46,2019_Oct_21_1203,ACPT_experiment_5_30_19,3.1.0,59.961338876643026,
,,,C,U,y,n,R,U,g,L,u,,,,,5,19,119,17,3,0,3,0,,,,,0,17,17,10,,,,,,up,0.6171348777570529,2423.488385732767,None,001,46,2019_Oct_21_1203,ACPT_experiment_5_30_19,3.1.0,59.961338876643026,
,,,C,U,y,n,L,G,g,L,c ,,,,,5,19,119,17,3,0,3,0,,,,,0,18,18,18,,,,,,up,0.5337262309894868,2425.38985795192,None,001,46,2019_Oct_21_1203,ACPT_experiment_5_30_19,3.1.0,59.961338876643026,
,,,C,U,y,n,L,U,y,L,u,,,,,5,19,119,17,3,0,3,0,,,,,0,19,19,24,,,,,,down,0.5001454952907807,2427.224826447059,None,001,46,2019_Oct_21_1203,ACPT_experiment_5_30_19,3.1.0,59.961338876643026,
,,,C,U,y,n,L,G,y,R,y,,,,,5,19,119,17,3,0,3,0,,,,,0,20,20,35,,,,,,down,0.6671665426038089,2429.009308378173,None,001,46,2019_Oct_21_1203,ACPT_experiment_5_30_19,3.1.0,59.961338876643026,
,,,C,U,y,n,L,D,d,L,c ,,,,,5,19,119,17,3,0,3,0,,,,,0,21,21,12,,,,,,up,0.5170685294888244,2430.9607905284365,None,001,46,2019_Oct_21_1203,ACPT_experiment_5_30_19,3.1.0,59.961338876643026,
,,,C,U,y,n,L,D,g,R,i,,,,,5,19,119,17,3,0,3,0,,,,,0,22,22,15,,,,,,up,0.80064307711109,2432.762147800274,None,001,46,2019_Oct_21_1203,ACPT_experiment_5_30_19,3.1.0,59.961338876643026,
,,,C,U,y,n,R,U,d,R,u,,,,,5,19,119,17,3,0,3,0,,,,,0,23,23,9,,,,,,up,0.7839358709879889,2434.8471104091923,None,001,46,2019_Oct_21_1203,ACPT_experiment_5_30_19,3.1.0,59.961338876643026,
,,,C,U,y,n,L,U,g,R,u,,,,,5,19,119,17,3,0,3,0,,,,,0,24,24,23,,,,,,up,0.850652404504217,2436.91536551013,None,001,46,2019_Oct_21_1203,ACPT_experiment_5_30_19,3.1.0,59.961338876643026,
,,,C,U,y,n,L,D,y,L,y,,,,,5,19,119,17,3,0,3,0,,,,,0,25,25,32,,,,,,down,1.868072296067112,2439.0503643117563,None,001,46,2019_Oct_21_1203,ACPT_experiment_5_30_19,3.1.0,59.961338876643026,
,,,C,U,y,n,R,G,d,L,i,,,,,5,19,119,17,3,0,3,0,,,,,0,26,26,4,,,,,,up,0.850641235780131,2442.202759761919,None,001,46,2019_Oct_21_1203,ACPT_experiment_5_30_19,3.1.0,59.961338876643026,
,,,C,U,y,n,R,U,y,L,u,,,,,5,19,119,17,3,0,3,0,,,,,0,27,27,30,,,,,,down,0.8506511970772408,2444.337745885531,None,001,46,2019_Oct_21_1203,ACPT_experiment_5_30_19,3.1.0,59.961338876643026,
,,,C,U,y,n,L,U,d,R,u,,,,,5,19,119,17,3,0,3,0,,,,,0,28,28,21,,,,,,up,0.7171927740164392,2446.4727271794263,None,001,46,2019_Oct_21_1203,ACPT_experiment_5_30_19,3.1.0,59.961338876643026,
,,,C,U,y,n,L,G,d,R,i,,,,,5,19,119,17,3,0,3,0,,,,,0,29,29,17,,,,,,up,0.6004569518063363,2448.474239787106,None,001,46,2019_Oct_21_1203,ACPT_experiment_5_30_19,3.1.0,59.961338876643026,
,,,C,U,y,n,L,G,y,L,y,,,,,5,19,119,17,3,0,3,0,,,,,0,30,30,34,,,,,,down,1.1342070295340818,2450.3590192892943,None,001,46,2019_Oct_21_1203,ACPT_experiment_5_30_19,3.1.0,59.961338876643026,
,,,C,U,y,n,R,D,d,L,c,,,,,5,19,119,17,3,0,3,0,,,,,0,31,31,0,,,,,,up,1.7345441439356364,2452.7775440394917,None,001,46,2019_Oct_21_1203,ACPT_experiment_5_30_19,3.1.0,59.961338876643026,
,,,C,U,y,n,R,U,d,L,u,,,,,5,19,119,17,3,0,3,0,,,,,0,32,32,8,,,,,,up,2.0348907970310393,2455.796530571216,None,001,46,2019_Oct_21_1203,ACPT_experiment_5_30_19,3.1.0,59.961338876643026,
,,,C,U,y,n,L,U,y,R,u,,,,,5,19,119,17,3,0,3,0,,,,,0,33,33,25,,,,,,down,3.1857503964893112,2459.132447804318,None,001,46,2019_Oct_21_1203,ACPT_experiment_5_30_19,3.1.0,59.961338876643026,
,,,C,U,y,n,R,U,g,R,u,,,,,5,19,119,17,3,0,3,0,,,,,0,34,34,11,,,,,,up,0.7339600497689389,2463.619203205001,None,001,46,2019_Oct_21_1203,ACPT_experiment_5_30_19,3.1.0,59.961338876643026,
,,,C,U,y,n,R,D,y,R,y,,,,,5,19,119,17,3,0,3,0,,,,,0,35,35,27,,,,,,down,2.0348612149991823,2465.637450487832,None,001,46,2019_Oct_21_1203,ACPT_experiment_5_30_19,3.1.0,59.961338876643026,
,,,C,U,y,n,R,D,y,L,y,,,,,5,19,119,17,3,0,3,0,,,,,1,0,36,26,,,,,,down,1.5012038075092278,2468.9566119157616,None,001,46,2019_Oct_21_1203,ACPT_experiment_5_30_19,3.1.0,59.961338876643026,
,,,C,U,y,n,L,D,d,R,c ,,,,,5,19,119,17,3,0,3,0,,,,,1,1,37,13,,,,,,up,0.9507054710466036,2471.7588005030148,None,001,46,2019_Oct_21_1203,ACPT_experiment_5_30_19,3.1.0,59.961338876643026,
,,,C,U,y,n,R,U,y,L,u,,,,,5,19,119,17,3,0,3,0,,,,,1,2,38,30,,,,,,down,1.134218801975294,2473.9938396931675,None,001,46,2019_Oct_21_1203,ACPT_experiment_5_30_19,3.1.0,59.961338876643026,
,,,C,U,y,n,L,U,g,L,u,,,,,5,19,119,17,3,0,3,0,,,,,1,3,39,22,,,,,,up,0.8506789679613576,2476.412329126043,None,001,46,2019_Oct_21_1203,ACPT_experiment_5_30_19,3.1.0,59.961338876643026,
,,,C,U,y,n,L,D,y,L,y,,,,,5,19,119,17,3,0,3,0,,,,,1,4,40,32,,,,,,down,0.8504592157387378,2478.5641685547844,None,001,46,2019_Oct_21_1203,ACPT_experiment_5_30_19,3.1.0,59.961338876643026,
,,,C,U,y,n,R,G,d,R,i,,,,,5,19,119,17,3,0,3,0,,,,,1,5,41,5,,,,,,up,1.0341367571218143,2480.715659640028,None,001,46,2019_Oct_21_1203,ACPT_experiment_5_30_19,3.1.0,59.961338876643026,
,,,C,U,y,n,L,U,d,L,u,,,,,5,19,119,17,3,0,3,0,,,,,1,6,42,20,,,,,,up,0.5504690562902397,2483.01740691169,None,001,46,2019_Oct_21_1203,ACPT_experiment_5_30_19,3.1.0,59.961338876643026,
,,,C,U,y,n,L,G,y,R,y,,,,,5,19,119,17,3,0,3,0,,,,,1,7,43,35,,,,,,down,1.0174754333311284,2484.8688513901443,None,001,46,2019_Oct_21_1203,ACPT_experiment_5_30_19,3.1.0,59.961338876643026,
,,,C,U,y,n,R,D,d,L,c,,,,,5,19,119,17,3,0,3,0,,,,,1,8,44,0,,,,,,up,0.6670705519354669,2487.187302547495,None,001,46,2019_Oct_21_1203,ACPT_experiment_5_30_19,3.1.0,59.961338876643026,
,,,C,U,y,n,L,U,y,L,u,,,,,5,19,119,17,3,0,3,0,,,,,1,9,45,24,,,,,,down,0.9340728237129952,2489.138794659054,None,001,46,2019_Oct_21_1203,ACPT_experiment_5_30_19,3.1.0,59.961338876643026,
,,,C,U,y,n,L,D,g,L,i,,,,,5,19,119,17,3,0,3,0,,,,,1,10,46,14,,,,,,up,0.6671774094702414,2491.35716860127,None,001,46,2019_Oct_21_1203,ACPT_experiment_5_30_19,3.1.0,59.961338876643026,
,,,C,U,y,n,L,U,g,R,u,,,,,5,19,119,17,3,0,3,0,,,,,1,11,47,23,,,,,,up,0.9507299214983504,2493.3086646369766,None,001,46,2019_Oct_21_1203,ACPT_experiment_5_30_19,3.1.0,59.961338876643026,
,,,C,U,y,n,L,G,d,R,i,,,,,5,19,119,17,3,0,3,0,,,,,1,12,48,17,,,,,,up,1.984854604323118,2495.5437186181452,None,001,46,2019_Oct_21_1203,ACPT_experiment_5_30_19,3.1.0,59.961338876643026,
,,,C,U,y,n,L,G,y,L,y,,,,,5,19,119,17,3,0,3,0,,,,,1,13,49,34,,,,,,down,0.6838595614244696,2498.8128894338415,None,001,46,2019_Oct_21_1203,ACPT_experiment_5_30_19,3.1.0,59.961338876643026,
,,,C,U,y,n,L,G,d,L,i,,,,,5,19,119,17,3,0,3,0,,,,,1,14,50,16,,,,,,up,0.5837760072827223,2500.781070640077,None,001,46,2019_Oct_21_1203,ACPT_experiment_5_30_19,3.1.0,59.961338876643026,
,,,C,U,y,n,R,D,g,L,i,,,,,5,19,119,17,3,0,3,0,,,,,1,15,51,2,,,,,,up,0.7505902822413191,2502.649152293724,None,001,46,2019_Oct_21_1203,ACPT_experiment_5_30_19,3.1.0,59.961338876643026,
,,,C,U,y,n,R,U,g,R,u,,,,,5,19,119,17,3,0,3,0,,,,,1,16,52,11,,,,,,up,6.921711157436221,2504.7010168370043,None,001,46,2019_Oct_21_1203,ACPT_experiment_5_30_19,3.1.0,59.961338876643026,
,,,C,U,y,n,R,G,y,L,y,,,,,5,19,119,17,3,0,3,0,,,,,1,17,53,28,,,,,,down,1.1342028035323892,2512.907048431821,None,001,46,2019_Oct_21_1203,ACPT_experiment_5_30_19,3.1.0,59.961338876643026,
,,,C,U,y,n,R,G,g,L,c ,,,,,5,19,119,17,3,0,3,0,,,,,1,18,54,6,,,,,,up,1.1174925788345718,2515.325605782623,None,001,46,2019_Oct_21_1203,ACPT_experiment_5_30_19,3.1.0,59.961338876643026,
,,,C,U,y,n,L,G,g,R,c ,,,,,5,19,119,17,3,0,3,0,,,,,1,19,55,19,,,,,,up,0.7170958777751366,2517.7274172895495,None,001,46,2019_Oct_21_1203,ACPT_experiment_5_30_19,3.1.0,59.961338876643026,
,,,C,U,y,n,R,D,y,R,y,,,,,5,19,119,17,3,0,3,0,,,,,1,20,56,27,,,,,,down,1.0174380030075554,2519.7289546495404,None,001,46,2019_Oct_21_1203,ACPT_experiment_5_30_19,3.1.0,59.961338876643026,
,,,C,U,y,n,L,D,d,L,c ,,,,,5,19,119,17,3,0,3,0,,,,,1,21,57,12,,,,,,up,0.7172163188970444,2522.030717919647,None,001,46,2019_Oct_21_1203,ACPT_experiment_5_30_19,3.1.0,59.961338876643026,
,,,C,U,y,n,R,D,g,R,i,,,,,5,19,119,17,3,0,3,0,,,,,1,22,58,3,,,,,,up,1.4511156953194586,2524.0322501480614,None,001,46,2019_Oct_21_1203,ACPT_experiment_5_30_19,3.1.0,59.961338876643026,
,,,C,U,y,n,L,G,g,L,c ,,,,,5,19,119,17,3,0,3,0,,,,,1,23,59,18,,,,,,up,0.8506496877871541,2526.767689299334,None,001,46,2019_Oct_21_1203,ACPT_experiment_5_30_19,3.1.0,59.961338876643026,
,,,C,U,y,n,L,U,d,R,u,,,,,5,19,119,17,3,0,3,0,,,,,1,24,60,21,,,,,,up,0.7172142058934696,2528.902660631932,None,001,46,2019_Oct_21_1203,ACPT_experiment_5_30_19,3.1.0,59.961338876643026,
,,,C,U,y,n,R,G,y,R,y,,,,,5,19,119,17,3,0,3,0,,,,,1,25,61,29,,,,,,down,0.8172905154569889,2530.904198897496,None,001,46,2019_Oct_21_1203,ACPT_experiment_5_30_19,3.1.0,59.961338876643026,
,,,C,U,y,n,R,U,g,L,u,,,,,5,19,119,17,3,0,3,0,,,,,1,26,62,10,,,,,,up,0.6004566499505017,2533.0058113596197,None,001,46,2019_Oct_21_1203,ACPT_experiment_5_30_19,3.1.0,59.961338876643026,
,,,C,U,y,n,L,D,y,R,y,,,,,5,19,119,17,3,0,3,0,,,,,1,27,63,33,,,,,,down,0.750571265223698,2534.8905956915287,None,001,46,2019_Oct_21_1203,ACPT_experiment_5_30_19,3.1.0,59.961338876643026,
,,,C,U,y,n,L,D,g,R,i,,,,,5,19,119,17,3,0,3,0,,,,,1,28,64,15,,,,,,up,0.7172145077511232,2536.9254858848426,None,001,46,2019_Oct_21_1203,ACPT_experiment_5_30_19,3.1.0,59.961338876643026,
,,,C,U,y,n,R,D,d,R,c ,,,,,5,19,119,17,3,0,3,0,,,,,1,29,65,1,,,,,,up,0.8841078693621967,2538.9270316968423,None,001,46,2019_Oct_21_1203,ACPT_experiment_5_30_19,3.1.0,59.961338876643026,
,,,C,U,y,n,R,U,y,R,u,,,,,5,19,119,17,3,0,3,0,,,,,1,30,66,31,,,,,,down,1.1008451404868538,2541.0953585794823,None,001,46,2019_Oct_21_1203,ACPT_experiment_5_30_19,3.1.0,59.961338876643026,
,,,C,U,y,n,R,G,d,L,i,,,,,5,19,119,17,3,0,3,0,,,,,1,31,67,4,,,,,,up,0.83397206369591,2543.4805220443477,None,001,46,2019_Oct_21_1203,ACPT_experiment_5_30_19,3.1.0,59.961338876643026,
,,,C,U,y,n,R,U,d,L,u,,,,,5,19,119,17,3,0,3,0,,,,,1,32,68,8,,,,,,up,0.750575189369556,2545.5988148472816,None,001,46,2019_Oct_21_1203,ACPT_experiment_5_30_19,3.1.0,59.961338876643026,
,,,C,U,y,n,R,U,d,R,u,,,,,5,19,119,17,3,0,3,0,,,,,1,33,69,9,,,,,,up,0.7842664048966981,2547.6168798082117,None,001,46,2019_Oct_21_1203,ACPT_experiment_5_30_19,3.1.0,59.961338876643026,
,,,C,U,y,n,R,G,g,R,c ,,,,,5,19,119,17,3,0,3,0,,,,,1,34,70,7,,,,,,up,0.6004892505534372,2549.685261085563,None,001,46,2019_Oct_21_1203,ACPT_experiment_5_30_19,3.1.0,59.961338876643026,
,,,C,U,y,n,L,U,y,R,u,,,,,5,19,119,17,3,0,3,0,,,,,1,35,71,25,,,,,,down,0.8840197269873897,2551.570068660495,None,001,46,2019_Oct_21_1203,ACPT_experiment_5_30_19,3.1.0,59.961338876643026,
,,,C,U,y,n,,,,,,,,,,5,19,119,17,4,0,4,0,0,0,0,0,,,,,,,,,,,,,,001,46,2019_Oct_21_1203,ACPT_experiment_5_30_19,3.1.0,59.961338876643026,
,,,C,U,y,n,L,U,y,R,u,,,,,5,19,119,17,4,0,4,0,,,,,0,0,0,25,,,,,,down,0.7172422786370589,2556.990895375603,None,001,46,2019_Oct_21_1203,ACPT_experiment_5_30_19,3.1.0,59.961338876643026,
,,,C,U,y,n,R,G,g,R,c ,,,,,5,19,119,17,4,0,4,0,,,,,0,1,1,7,,,,,,up,0.6004672149610997,2558.992427905875,None,001,46,2019_Oct_21_1203,ACPT_experiment_5_30_19,3.1.0,59.961338876643026,
,,,C,U,y,n,R,U,y,R,u,,,,,5,19,119,17,4,0,4,0,,,,,0,2,2,31,,,,,,down,0.5170606811952894,2560.8772092192094,None,001,46,2019_Oct_21_1203,ACPT_experiment_5_30_19,3.1.0,59.961338876643026,
,,,C,U,y,n,R,G,y,R,y,,,,,5,19,119,17,4,0,4,0,,,,,0,3,3,29,,,,,,down,0.5170612849105964,2562.6619166378396,None,001,46,2019_Oct_21_1203,ACPT_experiment_5_30_19,3.1.0,59.961338876643026,
,,,C,U,y,n,R,G,y,L,y,,,,,5,19,119,17,4,0,4,0,,,,,0,4,4,28,,,,,,down,0.7839542842939409,2564.4465965874415,None,001,46,2019_Oct_21_1203,ACPT_experiment_5_30_19,3.1.0,59.961338876643026,
,,,C,U,y,n,R,G,d,R,i,,,,,5,19,119,17,4,0,4,0,,,,,0,5,5,5,,,,,,up,0.6338285002930206,2566.5148734221157,None,001,46,2019_Oct_21_1203,ACPT_experiment_5_30_19,3.1.0,59.961338876643026,
,,,C,U,y,n,R,U,y,L,u,,,,,5,19,119,17,4,0,4,0,,,,,0,6,6,30,,,,,,down,0.6505043132401624,2568.4497117563214,None,001,46,2019_Oct_21_1203,ACPT_experiment_5_30_19,3.1.0,59.961338876643026,
,,,C,U,y,n,R,D,d,R,c ,,,,,5,19,119,17,4,0,4,0,,,,,0,7,7,1,,,,,,up,0.6838405444050295,2570.4011945102984,None,001,46,2019_Oct_21_1203,ACPT_experiment_5_30_19,3.1.0,59.961338876643026,
,,,C,U,y,n,L,D,d,R,c ,,,,,5,19,119,17,4,0,4,0,,,,,0,8,8,13,,,,,,up,0.867359610627318,2572.3693500586496,None,001,46,2019_Oct_21_1203,ACPT_experiment_5_30_19,3.1.0,59.961338876643026,
,,,C,U,y,n,L,G,y,R,y,,,,,5,19,119,17,4,0,4,0,,,,,0,9,9,35,,,,,,down,0.7172459009270824,2574.5210207490773,None,001,46,2019_Oct_21_1203,ACPT_experiment_5_30_19,3.1.0,59.961338876643026,
,,,C,U,y,n,R,D,y,L,y,,,,,5,19,119,17,4,0,4,0,,,,,0,10,10,26,,,,,,down,0.750552851917746,2576.5726226763773,None,001,46,2019_Oct_21_1203,ACPT_experiment_5_30_19,3.1.0,59.961338876643026,
,,,C,U,y,n,L,D,y,R,y,,,,,5,19,119,17,4,0,4,0,,,,,0,11,11,33,,,,,,down,0.9340746348570974,2578.6241757027683,None,001,46,2019_Oct_21_1203,ACPT_experiment_5_30_19,3.1.0,59.961338876643026,
,,,C,U,y,n,L,U,y,L,u,,,,,5,19,119,17,4,0,4,0,,,,,0,12,12,24,,,,,,down,0.6838435629797459,2580.842553569132,None,001,46,2019_Oct_21_1203,ACPT_experiment_5_30_19,3.1.0,59.961338876643026,
,,,C,U,y,n,R,D,d,L,c,,,,,5,19,119,17,4,0,4,0,,,,,0,13,13,0,,,,,,up,0.6838393369762343,2582.810736284654,None,001,46,2019_Oct_21_1203,ACPT_experiment_5_30_19,3.1.0,59.961338876643026,
,,,C,U,y,n,L,G,g,L,c ,,,,,5,19,119,17,4,0,4,0,,,,,0,14,14,18,,,,,,up,0.7672588506120519,2584.778897568297,None,001,46,2019_Oct_21_1203,ACPT_experiment_5_30_19,3.1.0,59.961338876643026,
,,,C,U,y,n,L,U,d,L,u,,,,,5,19,119,17,4,0,4,0,,,,,0,15,15,20,,,,,,up,0.6338140111347457,2586.8304732339975,None,001,46,2019_Oct_21_1203,ACPT_experiment_5_30_19,3.1.0,59.961338876643026,
,,,C,U,y,n,R,G,d,L,i,,,,,5,19,119,17,4,0,4,0,,,,,0,16,16,4,,,,,,up,0.7338933392729814,2588.7486107010873,None,001,46,2019_Oct_21_1203,ACPT_experiment_5_30_19,3.1.0,59.961338876643026,
,,,C,U,y,n,R,G,g,L,c ,,,,,5,19,119,17,4,0,4,0,,,,,0,17,17,6,,,,,,up,0.5838019670227368,2590.75012783663,None,001,46,2019_Oct_21_1203,ACPT_experiment_5_30_19,3.1.0,59.961338876643026,
,,,C,U,y,n,R,U,g,R,u,,,,,5,19,119,17,4,0,4,0,,,,,0,18,18,11,,,,,,up,0.8339962122936413,2592.618247524316,None,001,46,2019_Oct_21_1203,ACPT_experiment_5_30_19,3.1.0,59.961338876643026,
,,,C,U,y,n,L,G,d,R,i,,,,,5,19,119,17,4,0,4,0,,,,,0,19,19,17,,,,,,up,1.4677942249836633,2594.7365433458244,None,001,46,2019_Oct_21_1203,ACPT_experiment_5_30_19,3.1.0,59.961338876643026,
,,,C,U,y,n,R,U,d,L,u,,,,,5,19,119,17,4,0,4,0,,,,,0,20,20,8,,,,,,up,0.8506566305095475,2597.4886564989,None,001,46,2019_Oct_21_1203,ACPT_experiment_5_30_19,3.1.0,59.961338876643026,
,,,C,U,y,n,L,G,y,L,y,,,,,5,19,119,17,4,0,4,0,,,,,0,21,21,34,,,,,,down,0.7338978671359655,2599.6236275296405,None,001,46,2019_Oct_21_1203,ACPT_experiment_5_30_19,3.1.0,59.961338876643026,
,,,C,U,y,n,R,D,y,R,y,,,,,5,19,119,17,4,0,4,0,,,,,0,22,22,27,,,,,,down,0.8006340213869407,2601.6418259115644,None,001,46,2019_Oct_21_1203,ACPT_experiment_5_30_19,3.1.0,59.961338876643026,
,,,C,U,y,n,L,D,g,L,i,,,,,5,19,119,17,4,0,4,0,,,,,0,23,23,14,,,,,,up,0.7005299409374857,2603.726783087047,None,001,46,2019_Oct_21_1203,ACPT_experiment_5_30_19,3.1.0,59.961338876643026,
,,,C,U,y,n,L,D,d,L,c ,,,,,5,19,119,17,4,0,4,0,,,,,0,24,24,12,,,,,,up,0.5337383052883524,2605.7116382950853,None,001,46,2019_Oct_21_1203,ACPT_experiment_5_30_19,3.1.0,59.961338876643026,
,,,C,U,y,n,L,U,g,R,u,,,,,5,19,119,17,4,0,4,0,,,,,0,25,25,23,,,,,,up,0.9340752385724045,2607.529674096585,None,001,46,2019_Oct_21_1203,ACPT_experiment_5_30_19,3.1.0,59.961338876643026,
,,,C,U,y,n,L,D,g,R,i,,,,,5,19,119,17,4,0,4,0,,,,,0,26,26,15,,,,,,up,0.6005049471423263,2609.7313689054217,None,001,46,2019_Oct_21_1203,ACPT_experiment_5_30_19,3.1.0,59.961338876643026,
,,,C,U,y,n,R,D,g,L,i,,,,,5,19,119,17,4,0,4,0,,,,,0,27,27,2,,,,,,up,0.7005229982169112,2611.616174367352,None,001,46,2019_Oct_21_1203,ACPT_experiment_5_30_19,3.1.0,59.961338876643026,
,,,C,U,y,n,R,U,d,R,u,,,,,5,19,119,17,4,0,4,0,,,,,0,28,28,9,,,,,,up,0.6671988413490908,2613.601029877246,None,001,46,2019_Oct_21_1203,ACPT_experiment_5_30_19,3.1.0,59.961338876643026,
,,,C,U,y,n,L,D,y,L,y,,,,,5,19,119,17,4,0,4,0,,,,,0,29,29,32,,,,,,down,0.9840887919726811,2615.5525289315274,None,001,46,2019_Oct_21_1203,ACPT_experiment_5_30_19,3.1.0,59.961338876643026,
,,,C,U,y,n,R,U,g,L,u,,,,,5,19,119,17,4,0,4,0,,,,,0,30,30,10,,,,,,up,0.884010973122713,2617.8209336330174,None,001,46,2019_Oct_21_1203,ACPT_experiment_5_30_19,3.1.0,59.961338876643026,
,,,C,U,y,n,L,U,g,L,u,,,,,5,19,119,17,4,0,4,0,,,,,0,31,31,22,,,,,,up,1.1008451404886728,2619.9892659490915,None,001,46,2019_Oct_21_1203,ACPT_experiment_5_30_19,3.1.0,59.961338876643026,
,,,C,U,y,n,L,G,d,L,i,,,,,5,19,119,17,4,0,4,0,,,,,0,32,32,16,,,,,,up,0.8005944780616119,2622.374450845834,None,001,46,2019_Oct_21_1203,ACPT_experiment_5_30_19,3.1.0,59.961338876643026,
,,,C,U,y,n,L,U,d,R,u,,,,,5,19,119,17,4,0,4,0,,,,,0,33,33,21,,,,,,up,0.6004536313757853,2624.4593651575606,None,001,46,2019_Oct_21_1203,ACPT_experiment_5_30_19,3.1.0,59.961338876643026,
,,,C,U,y,n,L,G,g,R,c ,,,,,5,19,119,17,4,0,4,0,,,,,0,34,34,19,,,,,,up,0.7839527750056732,2626.3441211148684,None,001,46,2019_Oct_21_1203,ACPT_experiment_5_30_19,3.1.0,59.961338876643026,
,,,C,U,y,n,R,D,g,R,i,,,,,5,19,119,17,4,0,4,0,,,,,0,35,35,3,,,,,,up,0.7172136021799815,2628.412397647685,None,001,46,2019_Oct_21_1203,ACPT_experiment_5_30_19,3.1.0,59.961338876643026,
,,,C,U,y,n,R,D,y,R,y,,,,,5,19,119,17,4,0,4,0,,,,,1,0,36,27,,,,,,down,0.9307152633009537,2630.433949665873,None,001,46,2019_Oct_21_1203,ACPT_experiment_5_30_19,3.1.0,59.961338876643026,
,,,C,U,y,n,L,D,d,R,c ,,,,,5,19,119,17,4,0,4,0,,,,,1,1,37,13,,,,,,up,0.7172175263258396,2632.648984762839,None,001,46,2019_Oct_21_1203,ACPT_experiment_5_30_19,3.1.0,59.961338876643026,
,,,C,U,y,n,R,U,y,L,u,,,,,5,19,119,17,4,0,4,0,,,,,1,2,38,30,,,,,,down,0.7005365818022256,2634.6505299711234,None,001,46,2019_Oct_21_1203,ACPT_experiment_5_30_19,3.1.0,59.961338876643026,
,,,C,U,y,n,L,D,y,R,y,,,,,5,19,119,17,4,0,4,0,,,,,1,3,39,33,,,,,,down,0.9840794343926973,2636.6520643125396,None,001,46,2019_Oct_21_1203,ACPT_experiment_5_30_19,3.1.0,59.961338876643026,
,,,C,U,y,n,L,G,g,R,c ,,,,,5,19,119,17,4,0,4,0,,,,,1,4,40,19,,,,,,up,0.8506385190630681,2638.9371556938468,None,001,46,2019_Oct_21_1203,ACPT_experiment_5_30_19,3.1.0,59.961338876643026,
,,,C,U,y,n,R,G,y,R,y,,,,,5,19,119,17,4,0,4,0,,,,,1,5,41,29,,,,,,down,0.7839382858473982,2641.072118574436,None,001,46,2019_Oct_21_1203,ACPT_experiment_5_30_19,3.1.0,59.961338876643026,
,,,C,U,y,n,L,U,y,L,u,,,,,5,19,119,17,4,0,4,0,,,,,1,6,42,24,,,,,,down,0.8505201909429161,2643.157147290135,None,001,46,2019_Oct_21_1203,ACPT_experiment_5_30_19,3.1.0,59.961338876643026,
,,,C,U,y,n,R,U,y,R,u,,,,,5,19,119,17,4,0,4,0,,,,,1,7,43,31,,,,,,down,0.9340384119641385,2645.30870931188,None,001,46,2019_Oct_21_1203,ACPT_experiment_5_30_19,3.1.0,59.961338876643026,
,,,C,U,y,n,R,U,d,R,u,,,,,5,19,119,17,4,0,4,0,,,,,1,8,44,9,,,,,,up,0.7672775657738384,2647.510374236829,None,001,46,2019_Oct_21_1203,ACPT_experiment_5_30_19,3.1.0,59.961338876643026,
,,,C,U,y,n,L,G,d,R,i,,,,,5,19,119,17,4,0,4,0,,,,,1,9,45,17,,,,,,up,0.9006919176463271,2649.5619701269798,None,001,46,2019_Oct_21_1203,ACPT_experiment_5_30_19,3.1.0,59.961338876643026,
,,,C,U,y,n,R,G,g,L,c ,,,,,5,19,119,17,4,0,4,0,,,,,1,10,46,6,,,,,,up,0.7839425118527288,2651.746982180147,None,001,46,2019_Oct_21_1203,ACPT_experiment_5_30_19,3.1.0,59.961338876643026,
,,,C,U,y,n,R,G,g,R,c ,,,,,5,19,119,17,4,0,4,0,,,,,1,11,47,7,,,,,,up,0.6505040113843279,2653.8152372810846,None,001,46,2019_Oct_21_1203,ACPT_experiment_5_30_19,3.1.0,59.961338876643026,
,,,C,U,y,n,R,G,d,R,i,,,,,5,19,119,17,4,0,4,0,,,,,1,12,48,5,,,,,,up,0.6838818988762796,2655.7333521088667,None,001,46,2019_Oct_21_1203,ACPT_experiment_5_30_19,3.1.0,59.961338876643026,
,,,C,U,y,n,L,U,d,R,u,,,,,5,19,119,17,4,0,4,0,,,,,1,13,49,21,,,,,,up,1.0341289088264602,2657.7015526339774,None,001,46,2019_Oct_21_1203,ACPT_experiment_5_30_19,3.1.0,59.961338876643026,
,,,C,U,y,n,L,G,y,R,y,,,,,5,19,119,17,4,0,4,0,,,,,1,14,50,35,,,,,,down,1.9681812062353856,2660.0200031876147,None,001,46,2019_Oct_21_1203,ACPT_experiment_5_30_19,3.1.0,59.961338876643026,
,,,C,U,y,n,L,D,g,R,i,,,,,5,19,119,17,4,0,4,0,,,,,1,15,51,15,,,,,,up,0.8173007786117523,2663.272499095937,None,001,46,2019_Oct_21_1203,ACPT_experiment_5_30_19,3.1.0,59.961338876643026,
,,,C,U,y,n,L,D,d,L,c ,,,,,5,19,119,17,4,0,4,0,,,,,1,16,52,12,,,,,,up,0.7339854057954653,2665.3741106524894,None,001,46,2019_Oct_21_1203,ACPT_experiment_5_30_19,3.1.0,59.961338876643026,
,,,C,U,y,n,L,U,d,L,u,,,,,5,19,119,17,4,0,4,0,,,,,1,17,53,20,,,,,,up,0.5003999611199106,2667.375644692048,None,001,46,2019_Oct_21_1203,ACPT_experiment_5_30_19,3.1.0,59.961338876643026,
,,,C,U,y,n,R,D,d,L,c,,,,,5,19,119,17,4,0,4,0,,,,,1,18,54,0,,,,,,up,0.5001047445348377,2669.1606268009573,None,001,46,2019_Oct_21_1203,ACPT_experiment_5_30_19,3.1.0,59.961338876643026,
,,,C,U,y,n,L,G,g,L,c ,,,,,5,19,119,17,4,0,4,0,,,,,1,19,55,18,,,,,,up,0.6004669131034461,2670.9450568125894,None,001,46,2019_Oct_21_1203,ACPT_experiment_5_30_19,3.1.0,59.961338876643026,
,,,C,U,y,n,R,G,d,L,i,,,,,5,19,119,17,4,0,4,0,,,,,1,20,56,4,,,,,,up,2.6853990344188787,2672.829838729639,None,001,46,2019_Oct_21_1203,ACPT_experiment_5_30_19,3.1.0,59.961338876643026,
,,,C,U,y,n,L,D,y,L,y,,,,,5,19,119,17,4,0,4,0,,,,,1,21,57,32,,,,,,down,0.8673285193108313,2676.7995536735752,None,001,46,2019_Oct_21_1203,ACPT_experiment_5_30_19,3.1.0,59.961338876643026,
,,,C,U,y,n,R,U,g,L,u,,,,,5,19,119,17,4,0,4,0,,,,,1,22,58,10,,,,,,up,0.8339877602829802,2678.951205950697,None,001,46,2019_Oct_21_1203,ACPT_experiment_5_30_19,3.1.0,59.961338876643026,
,,,C,U,y,n,R,D,g,R,i,,,,,5,19,119,17,4,0,4,0,,,,,1,23,59,3,,,,,,up,0.9507241862083902,2681.0695008666326,None,001,46,2019_Oct_21_1203,ACPT_experiment_5_30_19,3.1.0,59.961338876643026,
,,,C,U,y,n,L,G,d,L,i,,,,,5,19,119,17,4,0,4,0,,,,,1,24,60,16,,,,,,up,0.9674172050290508,2683.3045473013635,None,001,46,2019_Oct_21_1203,ACPT_experiment_5_30_19,3.1.0,59.961338876643026,
,,,C,U,y,n,L,D,g,L,i,,,,,5,19,119,17,4,0,4,0,,,,,1,25,61,14,,,,,,up,0.5170567570476123,2685.5562770954793,None,001,46,2019_Oct_21_1203,ACPT_experiment_5_30_19,3.1.0,59.961338876643026,
,,,C,U,y,n,R,D,g,L,i,,,,,5,19,119,17,4,0,4,0,,,,,1,26,62,2,,,,,,up,0.6004608759540133,2687.3576615344855,None,001,46,2019_Oct_21_1203,ACPT_experiment_5_30_19,3.1.0,59.961338876643026,
,,,C,U,y,n,R,G,y,L,y,,,,,5,19,119,17,4,0,4,0,,,,,1,27,63,28,,,,,,down,0.8172890061705402,2689.242441036674,None,001,46,2019_Oct_21_1203,ACPT_experiment_5_30_19,3.1.0,59.961338876643026,
,,,C,U,y,n,L,U,g,R,u,,,,,5,19,119,17,4,0,4,0,,,,,1,28,64,23,,,,,,up,0.9006659579063125,2691.3440740251053,None,001,46,2019_Oct_21_1203,ACPT_experiment_5_30_19,3.1.0,59.961338876643026,
,,,C,U,y,n,L,G,y,L,y,,,,,5,19,119,17,4,0,4,0,,,,,1,29,65,34,,,,,,down,0.7338918299865327,2693.5457452890614,None,001,46,2019_Oct_21_1203,ACPT_experiment_5_30_19,3.1.0,59.961338876643026,
,,,C,U,y,n,R,D,d,R,c ,,,,,5,19,119,17,4,0,4,0,,,,,1,30,66,1,,,,,,up,0.900672900626887,2695.580648764105,None,001,46,2019_Oct_21_1203,ACPT_experiment_5_30_19,3.1.0,59.961338876643026,
,,,C,U,y,n,R,U,g,R,u,,,,,5,19,119,17,4,0,4,0,,,,,1,31,67,11,,,,,,up,0.7005368836598791,2697.7656538745514,None,001,46,2019_Oct_21_1203,ACPT_experiment_5_30_19,3.1.0,59.961338876643026,
,,,C,U,y,n,L,U,y,R,u,,,,,5,19,119,17,4,0,4,0,,,,,1,32,68,25,,,,,,down,0.8339723655535636,2699.7505069695862,None,001,46,2019_Oct_21_1203,ACPT_experiment_5_30_19,3.1.0,59.961338876643026,
,,,C,U,y,n,L,U,g,L,u,,,,,5,19,119,17,4,0,4,0,,,,,1,33,69,22,,,,,,up,0.7839509638615709,2701.868789811225,None,001,46,2019_Oct_21_1203,ACPT_experiment_5_30_19,3.1.0,59.961338876643026,
,,,C,U,y,n,R,U,d,L,u,,,,,5,19,119,17,4,0,4,0,,,,,1,34,70,8,,,,,,up,0.7172178281834931,2703.9370560808884,None,001,46,2019_Oct_21_1203,ACPT_experiment_5_30_19,3.1.0,59.961338876643026,
,,,C,U,y,n,R,D,y,L,y,,,,,5,19,119,17,4,0,4,0,,,,,1,35,71,26,,,,,,down,0.800425437890226,2705.9554328605636,None,001,46,2019_Oct_21_1203,ACPT_experiment_5_30_19,3.1.0,59.961338876643026,
,,,C,U,y,n,,,,,,,,,,5,19,119,17,5,0,5,0,0,0,0,0,,,,,,,,,,,,,,001,46,2019_Oct_21_1203,ACPT_experiment_5_30_19,3.1.0,59.961338876643026,
,,,C,U,y,n,L,U,g,R,u,,,,,5,19,119,17,5,0,5,0,,,,,0,0,0,23,,,,,,up,0.7839090056750138,2711.5262404680952,None,001,46,2019_Oct_21_1203,ACPT_experiment_5_30_19,3.1.0,59.961338876643026,
,,,C,U,y,n,R,G,g,R,c ,,,,,5,19,119,17,5,0,5,0,,,,,0,1,1,7,,,,,,up,0.7002471005089319,2713.6114297719587,None,001,46,2019_Oct_21_1203,ACPT_experiment_5_30_19,3.1.0,59.961338876643026,
,,,C,U,y,n,R,U,g,L,u,,,,,5,19,119,17,5,0,5,0,,,,,0,2,2,10,,,,,,up,0.5504440021231858,2715.5793054984542,None,001,46,2019_Oct_21_1203,ACPT_experiment_5_30_19,3.1.0,59.961338876643026,
,,,C,U,y,n,L,D,d,R,c ,,,,,5,19,119,17,5,0,5,0,,,,,0,3,3,13,,,,,,up,0.6671752964703046,2717.4140657119524,None,001,46,2019_Oct_21_1203,ACPT_experiment_5_30_19,3.1.0,59.961338876643026,
,,,C,U,y,n,L,D,g,L,i,,,,,5,19,119,17,5,0,5,0,,,,,0,4,4,14,,,,,,up,0.5671014017661946,2719.348886538425,None,001,46,2019_Oct_21_1203,ACPT_experiment_5_30_19,3.1.0,59.961338876643026,
,,,C,U,y,n,R,D,d,L,c,,,,,5,19,119,17,5,0,5,0,,,,,0,5,5,0,,,,,,up,0.7505688503642887,2721.2003113961446,None,001,46,2019_Oct_21_1203,ACPT_experiment_5_30_19,3.1.0,59.961338876643026,
,,,C,U,y,n,L,D,d,L,c ,,,,,5,19,119,17,5,0,5,0,,,,,0,6,6,12,,,,,,up,0.6504937482313835,2723.235209437754,None,001,46,2019_Oct_21_1203,ACPT_experiment_5_30_19,3.1.0,59.961338876643026,
,,,C,U,y,n,L,G,y,L,y,,,,,5,19,119,17,5,0,5,0,,,,,0,7,7,34,,,,,,down,0.9840812455367995,2725.1867069827467,None,001,46,2019_Oct_21_1203,ACPT_experiment_5_30_19,3.1.0,59.961338876643026,
,,,C,U,y,n,L,D,y,R,y,,,,,5,19,119,17,5,0,5,0,,,,,0,8,8,33,,,,,,down,0.9340616549870902,2727.4717739136004,None,001,46,2019_Oct_21_1203,ACPT_experiment_5_30_19,3.1.0,59.961338876643026,
,,,C,U,y,n,R,D,y,L,y,,,,,5,19,119,17,5,0,5,0,,,,,0,9,9,26,,,,,,down,0.6671460162961012,2729.6901904177166,None,001,46,2019_Oct_21_1203,ACPT_experiment_5_30_19,3.1.0,59.961338876643026,
,,,C,U,y,n,R,G,d,L,i,,,,,5,19,119,17,5,0,5,0,,,,,0,10,10,4,,,,,,up,0.650512463391351,2731.6416583806795,None,001,46,2019_Oct_21_1203,ACPT_experiment_5_30_19,3.1.0,59.961338876643026,
,,,C,U,y,n,L,D,g,R,i,,,,,5,19,119,17,5,0,5,0,,,,,0,11,11,15,,,,,,up,0.984084867825004,2733.576481320156,None,001,46,2019_Oct_21_1203,ACPT_experiment_5_30_19,3.1.0,59.961338876643026,
,,,C,U,y,n,R,D,y,R,y,,,,,5,19,119,17,5,0,5,0,,,,,0,12,12,27,,,,,,down,1.2007346002883423,2735.8617206116114,None,001,46,2019_Oct_21_1203,ACPT_experiment_5_30_19,3.1.0,59.961338876643026,
,,,C,U,y,n,R,G,y,L,y,,,,,5,19,119,17,5,0,5,0,,,,,0,13,13,28,,,,,,down,1.8681124431077478,2738.3634946278426,None,001,46,2019_Oct_21_1203,ACPT_experiment_5_30_19,3.1.0,59.961338876643026,
,,,C,U,y,n,R,G,d,R,i,,,,,5,19,119,17,5,0,5,0,,,,,0,14,14,5,,,,,,up,2.385168596440053,2741.515905170879,None,001,46,2019_Oct_21_1203,ACPT_experiment_5_30_19,3.1.0,59.961338876643026,
,,,C,U,y,n,R,U,d,R,u,,,,,5,19,119,17,5,0,5,0,,,,,0,15,15,9,,,,,,up,1.0007670197792322,2745.185393600984,None,001,46,2019_Oct_21_1203,ACPT_experiment_5_30_19,3.1.0,59.961338876643026,
,,,C,U,y,n,R,D,d,R,c ,,,,,5,19,119,17,5,0,5,0,,,,,0,16,16,1,,,,,,up,0.7338951504189026,2747.470480454428,None,001,46,2019_Oct_21_1203,ACPT_experiment_5_30_19,3.1.0,59.961338876643026,
,,,C,U,y,n,R,D,g,L,i,,,,,5,19,119,17,5,0,5,0,,,,,0,17,17,2,,,,,,up,0.767255530177863,2749.472018719992,None,001,46,2019_Oct_21_1203,ACPT_experiment_5_30_19,3.1.0,59.961338876643026,
,,,C,U,y,n,L,D,y,L,y,,,,,5,19,119,17,5,0,5,0,,,,,0,18,18,32,,,,,,down,1.1175251794393262,2751.523590159689,None,001,46,2019_Oct_21_1203,ACPT_experiment_5_30_19,3.1.0,59.961338876643026,
,,,C,U,y,n,R,U,y,R,u,,,,,5,19,119,17,5,0,5,0,,,,,0,19,19,31,,,,,,down,1.2843207392361364,2753.9254369839373,None,001,46,2019_Oct_21_1203,ACPT_experiment_5_30_19,3.1.0,59.961338876643026,
,,,C,U,y,n,R,U,d,L,u,,,,,5,19,119,17,5,0,5,0,,,,,0,20,20,8,,,,,,up,2.0015551695796603,2756.4773785008665,None,001,46,2019_Oct_21_1203,ACPT_experiment_5_30_19,3.1.0,59.961338876643026,
,,,C,U,y,n,L,U,y,L,u,,,,,5,19,119,17,5,0,5,0,,,,,0,21,21,24,,,,,,down,0.917317018542235,2759.76329878273,None,001,46,2019_Oct_21_1203,ACPT_experiment_5_30_19,3.1.0,59.961338876643026,
,,,C,U,y,n,R,U,y,L,u,,,,,5,19,119,17,5,0,5,0,,,,,0,22,22,30,,,,,,down,1.0507950623359648,2761.9816262388986,None,001,46,2019_Oct_21_1203,ACPT_experiment_5_30_19,3.1.0,59.961338876643026,
,,,C,U,y,n,L,U,y,R,u,,,,,5,19,119,17,5,0,5,0,,,,,0,23,23,25,,,,,,down,1.034119249388823,2764.3334293240014,None,001,46,2019_Oct_21_1203,ACPT_experiment_5_30_19,3.1.0,59.961338876643026,
,,,C,U,y,n,R,G,g,L,c ,,,,,5,19,119,17,5,0,5,0,,,,,0,24,24,6,,,,,,up,0.5504292111072573,2766.6518762553487,None,001,46,2019_Oct_21_1203,ACPT_experiment_5_30_19,3.1.0,59.961338876643026,
,,,C,U,y,n,L,U,d,R,u,,,,,5,19,119,17,5,0,5,0,,,,,0,25,25,21,,,,,,up,0.8673318397432013,2768.4865996422386,None,001,46,2019_Oct_21_1203,ACPT_experiment_5_30_19,3.1.0,59.961338876643026,
,,,C,U,y,n,L,G,g,R,c ,,,,,5,19,119,17,5,0,5,0,,,,,0,26,26,19,,,,,,up,0.9507148286265874,2770.6382805958174,None,001,46,2019_Oct_21_1203,ACPT_experiment_5_30_19,3.1.0,59.961338876643026,
,,,C,U,y,n,R,D,g,R,i,,,,,5,19,119,17,5,0,5,0,,,,,0,27,27,3,,,,,,up,0.7338999801377213,2772.8733146543937,None,001,46,2019_Oct_21_1203,ACPT_experiment_5_30_19,3.1.0,59.961338876643026,
,,,C,U,y,n,R,U,g,R,u,,,,,5,19,119,17,5,0,5,0,,,,,0,28,28,11,,,,,,up,0.5003803403869824,2774.891532958908,None,001,46,2019_Oct_21_1203,ACPT_experiment_5_30_19,3.1.0,59.961338876643026,
,,,C,U,y,n,R,G,y,R,y,,,,,5,19,119,17,5,0,5,0,,,,,0,29,29,29,,,,,,down,0.7005688805493264,2776.67623675525,None,001,46,2019_Oct_21_1203,ACPT_experiment_5_30_19,3.1.0,59.961338876643026,
,,,C,U,y,n,L,U,g,L,u,,,,,5,19,119,17,5,0,5,0,,,,,0,30,30,22,,,,,,up,0.750604167684287,2778.6610913595714,None,001,46,2019_Oct_21_1203,ACPT_experiment_5_30_19,3.1.0,59.961338876643026,
,,,C,U,y,n,L,U,d,L,u,,,,,5,19,119,17,5,0,5,0,,,,,0,31,31,20,,,,,,up,0.7338951504189026,2780.6959903067536,None,001,46,2019_Oct_21_1203,ACPT_experiment_5_30_19,3.1.0,59.961338876643026,
,,,C,U,y,n,L,G,d,L,i,,,,,5,19,119,17,5,0,5,0,,,,,0,32,32,16,,,,,,up,1.1842468445338454,2782.7142064982663,None,001,46,2019_Oct_21_1203,ACPT_experiment_5_30_19,3.1.0,59.961338876643026,
,,,C,U,y,n,L,G,d,R,i,,,,,5,19,119,17,5,0,5,0,,,,,0,33,33,17,,,,,,up,1.0341482277035539,2785.1660711019185,None,001,46,2019_Oct_21_1203,ACPT_experiment_5_30_19,3.1.0,59.961338876643026,
,,,C,U,y,n,L,G,y,R,y,,,,,5,19,119,17,5,0,5,0,,,,,0,34,34,35,,,,,,down,0.8339735729841777,2787.467854898331,None,001,46,2019_Oct_21_1203,ACPT_experiment_5_30_19,3.1.0,59.961338876643026,
,,,C,U,y,n,L,G,g,L,c ,,,,,5,19,119,17,5,0,5,0,,,,,0,35,35,18,,,,,,up,0.7339114507212798,2789.569453475012,None,001,46,2019_Oct_21_1203,ACPT_experiment_5_30_19,3.1.0,59.961338876643026,
,,,C,U,y,n,R,U,d,L,u,,,,,5,19,119,17,5,0,5,0,,,,,1,0,36,8,,,,,,up,0.9838177239835204,2791.604632847765,None,001,46,2019_Oct_21_1203,ACPT_experiment_5_30_19,3.1.0,59.961338876643026,
,,,C,U,y,n,R,U,y,R,u,,,,,5,19,119,17,5,0,5,0,,,,,1,1,37,31,,,,,,down,4.336663122860045,2793.8560954980376,None,001,46,2019_Oct_21_1203,ACPT_experiment_5_30_19,3.1.0,59.961338876643026,
,,,C,U,y,n,L,D,y,L,y,,,,,5,19,119,17,5,0,5,0,,,,,1,2,38,32,,,,,,down,0.6504994835231628,2799.477078152705,None,001,46,2019_Oct_21_1203,ACPT_experiment_5_30_19,3.1.0,59.961338876643026,
,,,C,U,y,n,L,U,d,L,u,,,,,5,19,119,17,5,0,5,0,,,,,1,3,39,20,,,,,,up,1.2176026964316407,2801.411901695895,None,001,46,2019_Oct_21_1203,ACPT_experiment_5_30_19,3.1.0,59.961338876643026,
,,,C,U,y,n,L,D,g,L,i,,,,,5,19,119,17,5,0,5,0,,,,,1,4,40,14,,,,,,up,0.6504816739325179,2803.913829357568,None,001,46,2019_Oct_21_1203,ACPT_experiment_5_30_19,3.1.0,59.961338876643026,
,,,C,U,y,n,R,U,g,R,u,,,,,5,19,119,17,5,0,5,0,,,,,1,5,41,11,,,,,,up,2.0182228323756135,2805.84863388374,None,001,46,2019_Oct_21_1203,ACPT_experiment_5_30_19,3.1.0,59.961338876643026,
,,,C,U,y,n,R,D,g,L,i,,,,,5,19,119,17,5,0,5,0,,,,,1,6,42,2,,,,,,up,0.5670986850491317,2809.1344974164012,None,001,46,2019_Oct_21_1203,ACPT_experiment_5_30_19,3.1.0,59.961338876643026,
,,,C,U,y,n,L,G,d,R,i,,,,,5,19,119,17,5,0,5,0,,,,,1,7,43,17,,,,,,up,0.8006243619474844,2810.9859156332577,None,001,46,2019_Oct_21_1203,ACPT_experiment_5_30_19,3.1.0,59.961338876643026,
,,,C,U,y,n,R,D,y,R,y,,,,,5,19,119,17,5,0,5,0,,,,,1,8,44,27,,,,,,down,0.6671789187585091,2813.070849867575,None,001,46,2019_Oct_21_1203,ACPT_experiment_5_30_19,3.1.0,59.961338876643026,
,,,C,U,y,n,R,G,d,L,i,,,,,5,19,119,17,5,0,5,0,,,,,1,9,45,4,,,,,,up,0.5835227488823875,2815.039282219207,None,001,46,2019_Oct_21_1203,ACPT_experiment_5_30_19,3.1.0,59.961338876643026,
,,,C,U,y,n,R,D,d,L,c,,,,,5,19,119,17,5,0,5,0,,,,,1,10,46,0,,,,,,up,0.700528431651037,2816.9071293296156,None,001,46,2019_Oct_21_1203,ACPT_experiment_5_30_19,3.1.0,59.961338876643026,
,,,C,U,y,n,L,U,g,R,u,,,,,5,19,119,17,5,0,5,0,,,,,1,11,47,23,,,,,,up,0.633813105563604,2818.8919842357964,None,001,46,2019_Oct_21_1203,ACPT_experiment_5_30_19,3.1.0,59.961338876643026,
,,,C,U,y,n,L,U,y,R,u,,,,,5,19,119,17,5,0,5,0,,,,,1,12,48,25,,,,,,down,0.9674329016161209,2820.810098761721,None,001,46,2019_Oct_21_1203,ACPT_experiment_5_30_19,3.1.0,59.961338876643026,
,,,C,U,y,n,L,D,d,R,c ,,,,,5,19,119,17,5,0,5,0,,,,,1,13,49,13,,,,,,up,1.3176747799916484,2823.0618521007154,None,001,46,2019_Oct_21_1203,ACPT_experiment_5_30_19,3.1.0,59.961338876643026,
,,,C,U,y,n,R,G,y,R,y,,,,,5,19,119,17,5,0,5,0,,,,,1,14,50,29,,,,,,down,1.100835179191563,2825.663857883098,None,001,46,2019_Oct_21_1203,ACPT_experiment_5_30_19,3.1.0,59.961338876643026,
,,,C,U,y,n,R,G,y,L,y,,,,,5,19,119,17,5,0,5,0,,,,,1,15,51,28,,,,,,down,0.7672582468967448,2828.0490131978104,None,001,46,2019_Oct_21_1203,ACPT_experiment_5_30_19,3.1.0,59.961338876643026,
,,,C,U,y,n,L,U,y,L,u,,,,,5,19,119,17,5,0,5,0,,,,,1,16,52,24,,,,,,down,0.6337958996900852,2830.1006084842456,None,001,46,2019_Oct_21_1203,ACPT_experiment_5_30_19,3.1.0,59.961338876643026,
,,,C,U,y,n,L,D,d,L,c ,,,,,5,19,119,17,5,0,5,0,,,,,1,17,53,12,,,,,,up,0.7003919920825865,2832.052224659218,None,001,46,2019_Oct_21_1203,ACPT_experiment_5_30_19,3.1.0,59.961338876643026,
,,,C,U,y,n,R,G,g,L,c ,,,,,5,19,119,17,5,0,5,0,,,,,1,18,54,6,,,,,,up,0.5003468342092674,2834.0369663688534,None,001,46,2019_Oct_21_1203,ACPT_experiment_5_30_19,3.1.0,59.961338876643026,
,,,C,U,y,n,R,G,d,R,i,,,,,5,19,119,17,5,0,5,0,,,,,1,19,55,5,,,,,,up,0.8006279842375079,2835.804957827496,None,001,46,2019_Oct_21_1203,ACPT_experiment_5_30_19,3.1.0,59.961338876643026,
,,,C,U,y,n,L,G,d,L,i,,,,,5,19,119,17,5,0,5,0,,,,,1,20,56,16,,,,,,up,1.6346051795098901,2837.8899062491137,None,001,46,2019_Oct_21_1203,ACPT_experiment_5_30_19,3.1.0,59.961338876643026,
,,,C,U,y,n,R,U,y,L,u,,,,,5,19,119,17,5,0,5,0,,,,,1,21,57,30,,,,,,down,4.503458380799202,2840.808813150842,None,001,46,2019_Oct_21_1203,ACPT_experiment_5_30_19,3.1.0,59.961338876643026,
,,,C,U,y,n,L,G,y,R,y,,,,,5,19,119,17,5,0,5,0,,,,,1,22,58,35,,,,,,down,0.6671746927549975,2846.596590761593,None,001,46,2019_Oct_21_1203,ACPT_experiment_5_30_19,3.1.0,59.961338876643026,
,,,C,U,y,n,L,G,g,L,c ,,,,,5,19,119,17,5,0,5,0,,,,,1,23,59,18,,,,,,up,0.6338266891489184,2848.5480849861533,None,001,46,2019_Oct_21_1203,ACPT_experiment_5_30_19,3.1.0,59.961338876643026,
,,,C,U,y,n,R,U,g,L,u,,,,,5,19,119,17,5,0,5,0,,,,,1,24,60,10,,,,,,up,0.5003782273834076,2850.4662257736754,None,001,46,2019_Oct_21_1203,ACPT_experiment_5_30_19,3.1.0,59.961338876643026,
,,,C,U,y,n,L,G,y,L,y,,,,,5,19,119,17,5,0,5,0,,,,,1,25,61,34,,,,,,down,0.6171360851858481,2852.250932890448,None,001,46,2019_Oct_21_1203,ACPT_experiment_5_30_19,3.1.0,59.961338876643026,
