facing_vig,person_vig,text_vig,facing_train,person_train,food_train,correct_key_train,facing_exp,person_exp,food_exp,showL_R,consistent,vig_random.thisRepN,vig_random.thisTrialN,vig_random.thisN,vig_random.thisIndex,trainTrials.thisRepN,trainTrials.thisTrialN,trainTrials.thisN,trainTrials.thisIndex,expBlock.thisRepN,expBlock.thisTrialN,expBlock.thisN,expBlock.thisIndex,breakLoop.thisRepN,breakLoop.thisTrialN,breakLoop.thisN,breakLoop.thisIndex,expTrials.thisRepN,expTrials.thisTrialN,expTrials.thisN,expTrials.thisIndex,train_resp.keys,train_resp.corr,train_resp.rt,train_resp.started,train_resp.stopped,exp_resp.keys,exp_resp.rt,exp_resp.started,exp_resp.stopped,session,participant,date,expName,psychopyVersion,frameRate,
C,D,"is allergic to gluten, meaning she can’t eat wheat products. She enjoys eating dairy products. She thinks eating insects, like crickets, is disgusting.",,,,,,,,,,0,0,0,1,,,,,,,,,,,,,,,,,,,,,,,,,,001,47,2019_Oct_21_1604,ACPT_experiment_5_30_19,3.1.0,59.952657839172986,
C,U,"did not report her food preferences, so her food preferences are unknown.",,,,,,,,,,0,1,1,2,,,,,,,,,,,,,,,,,,,,,,,,,,001,47,2019_Oct_21_1604,ACPT_experiment_5_30_19,3.1.0,59.952657839172986,
C,G,"cannot eat dairy products because she is lactose intolerant. She enjoys eating wheat products. She thinks eating insects, like crickets, is disgusting.",,,,,,,,,,0,2,2,0,,,,,,,,,,,,,,,,,,,,,,,,,,001,47,2019_Oct_21_1604,ACPT_experiment_5_30_19,3.1.0,59.952657839172986,
,,,C,G,d,b,,,,,,,,,,0,0,0,12,,,,,,,,,,,,,b,1,2.518618869347847,1834.27516993065,None,,,,,001,47,2019_Oct_21_1604,ACPT_experiment_5_30_19,3.1.0,59.952657839172986,
,,,C,D,d,v,,,,,,,,,,0,1,1,18,,,,,,,,,,,,,v,1,1.317682930141018,1840.079636334216,None,,,,,001,47,2019_Oct_21_1604,ACPT_experiment_5_30_19,3.1.0,59.952657839172986,
,,,C,G,y,b,,,,,,,,,,0,2,2,14,,,,,,,,,,,,,b,1,3.002069534675684,1844.7001055293622,None,,,,,001,47,2019_Oct_21_1604,ACPT_experiment_5_30_19,3.1.0,59.952657839172986,
,,,C,G,d,b,,,,,,,,,,0,3,3,3,,,,,,,,,,,,,b,1,1.317690778436372,1850.971348596453,None,,,,,001,47,2019_Oct_21_1604,ACPT_experiment_5_30_19,3.1.0,59.952657839172986,
,,,C,U,y,n,,,,,,,,,,0,4,4,17,,,,,,,,,,,,,n,1,1.6846371462161187,1855.5748899276805,None,,,,,001,47,2019_Oct_21_1604,ACPT_experiment_5_30_19,3.1.0,59.952657839172986,
,,,C,D,g,b,,,,,,,,,,0,5,5,1,,,,,,,,,,,,,b,1,1.9181588989704323,1860.545371891396,None,,,,,001,47,2019_Oct_21_1604,ACPT_experiment_5_30_19,3.1.0,59.952657839172986,
,,,C,U,g,n,,,,,,,,,,0,6,6,7,,,,,,,,,,,,,n,1,1.2509697170571599,1865.7493786264386,None,,,,,001,47,2019_Oct_21_1604,ACPT_experiment_5_30_19,3.1.0,59.952657839172986,
,,,C,D,d,v,,,,,,,,,,0,7,7,0,,,,,,,,,,,,,v,1,1.7175773404051142,1870.3032665202045,None,,,,,001,47,2019_Oct_21_1604,ACPT_experiment_5_30_19,3.1.0,59.952657839172986,
,,,C,U,y,n,,,,,,,,,,0,8,8,8,,,,,,,,,,,,,n,1,1.0841774776927195,1875.306728221436,None,,,,,001,47,2019_Oct_21_1604,ACPT_experiment_5_30_19,3.1.0,59.952657839172986,
,,,C,D,d,v,,,,,,,,,,0,9,9,9,,,,,,,,,,,,,v,1,1.450671059294109,1879.6938682488799,None,,,,,001,47,2019_Oct_21_1604,ACPT_experiment_5_30_19,3.1.0,59.952657839172986,
,,,C,U,g,n,,,,,,,,,,0,10,10,16,,,,,,,,,,,,,n,1,1.0675128334696637,1884.4304103872746,None,,,,,001,47,2019_Oct_21_1604,ACPT_experiment_5_30_19,3.1.0,59.952657839172986,
,,,C,U,d,n,,,,,,,,,,0,11,11,6,,,,,,,,,,,,,n,1,0.9640853025011893,1888.8037703202863,None,,,,,001,47,2019_Oct_21_1604,ACPT_experiment_5_30_19,3.1.0,59.952657839172986,
,,,C,G,g,v,,,,,,,,,,0,12,12,19,,,,,,,,,,,,,v,1,8.122912127488235,1893.0537227777386,None,,,,,001,47,2019_Oct_21_1604,ACPT_experiment_5_30_19,3.1.0,59.952657839172986,
,,,C,D,g,b,,,,,,,,,,0,13,13,10,,,,,,,,,,,,,b,1,1.5345252476581663,1904.4624866654449,None,,,,,001,47,2019_Oct_21_1604,ACPT_experiment_5_30_19,3.1.0,59.952657839172986,
,,,C,D,y,b,,,,,,,,,,0,14,14,2,,,,,,,,,,,,,b,1,1.167574653874908,1909.2661763897959,None,,,,,001,47,2019_Oct_21_1604,ACPT_experiment_5_30_19,3.1.0,59.952657839172986,
,,,C,G,g,v,,,,,,,,,,0,15,15,13,,,,,,,,,,,,,v,1,2.0346653095184593,1913.7365237250888,None,,,,,001,47,2019_Oct_21_1604,ACPT_experiment_5_30_19,3.1.0,59.952657839172986,
,,,C,U,d,n,,,,,,,,,,0,16,16,15,,,,,,,,,,,,,n,1,1.3010312657897884,1919.057016042516,None,,,,,001,47,2019_Oct_21_1604,ACPT_experiment_5_30_19,3.1.0,59.952657839172986,
,,,C,G,g,v,,,,,,,,,,0,17,17,4,,,,,,,,,,,,,v,1,1.5509496133490757,1923.6608287435884,None,,,,,001,47,2019_Oct_21_1604,ACPT_experiment_5_30_19,3.1.0,59.952657839172986,
,,,C,D,y,b,,,,,,,,,,0,18,18,11,,,,,,,,,,,,,b,1,1.2342875651011127,1928.4976334375933,None,,,,,001,47,2019_Oct_21_1604,ACPT_experiment_5_30_19,3.1.0,59.952657839172986,
,,,C,G,y,b,,,,,,,,,,0,19,19,5,,,,,,,,,,,,,b,1,0.8002177599664719,1933.0348298218232,None,,,,,001,47,2019_Oct_21_1604,ACPT_experiment_5_30_19,3.1.0,59.952657839172986,
,,,C,U,y,n,,,,,,,,,,1,0,20,17,,,,,,,,,,,,,n,1,0.9674202236019482,1937.1209298296126,None,,,,,001,47,2019_Oct_21_1604,ACPT_experiment_5_30_19,3.1.0,59.952657839172986,
,,,C,G,g,v,,,,,,,,,,1,1,21,13,,,,,,,,,,,,,v,1,1.7346519070451905,1941.3908987564064,None,,,,,001,47,2019_Oct_21_1604,ACPT_experiment_5_30_19,3.1.0,59.952657839172986,
,,,C,D,g,b,,,,,,,,,,1,2,22,1,,,,,,,,,,,,,b,1,1.117539064882294,1946.411407253392,None,,,,,001,47,2019_Oct_21_1604,ACPT_experiment_5_30_19,3.1.0,59.952657839172986,
,,,C,U,d,n,,,,,,,,,,1,3,23,15,,,,,,,,,,,,,n,1,1.0841967965679942,1950.8147712131831,None,,,,,001,47,2019_Oct_21_1604,ACPT_experiment_5_30_19,3.1.0,59.952657839172986,
,,,C,D,y,b,,,,,,,,,,1,4,24,11,,,,,,,,,,,,,b,1,2.268417077644699,1955.1848197699728,None,,,,,001,47,2019_Oct_21_1604,ACPT_experiment_5_30_19,3.1.0,59.952657839172986,
,,,C,U,d,n,,,,,,,,,,1,5,25,6,,,,,,,,,,,,,n,1,1.1508940112071286,1960.739095248704,None,,,,,001,47,2019_Oct_21_1604,ACPT_experiment_5_30_19,3.1.0,59.952657839172986,
,,,C,G,d,b,,,,,,,,,,1,6,26,3,,,,,,,,,,,,,b,1,2.334722179461096,1965.192902606901,None,,,,,001,47,2019_Oct_21_1604,ACPT_experiment_5_30_19,3.1.0,59.952657839172986,
,,,C,U,g,n,,,,,,,,,,1,7,27,7,,,,,,,,,,,,,n,1,0.8673408954637125,1970.8135076378967,None,,,,,001,47,2019_Oct_21_1604,ACPT_experiment_5_30_19,3.1.0,59.952657839172986,
,,,C,G,d,b,,,,,,,,,,1,8,28,12,,,,,,,,,,,,,b,1,1.9679044029508077,1974.9836619655362,None,,,,,001,47,2019_Oct_21_1604,ACPT_experiment_5_30_19,3.1.0,59.952657839172986,
,,,C,U,y,n,,,,,,,,,,1,9,29,8,,,,,,,,,,,,,n,1,0.7172434860658541,1980.23742054357,None,,,,,001,47,2019_Oct_21_1604,ACPT_experiment_5_30_19,3.1.0,59.952657839172986,
,,,C,D,y,b,,,,,,,,,,1,10,30,2,,,,,,,,,,,,,n,0,0.8337396334609366,1984.2574155810362,None,,,,,001,47,2019_Oct_21_1604,ACPT_experiment_5_30_19,3.1.0,59.952657839172986,
,,,C,D,d,v,,,,,,,,,,1,11,31,0,,,,,,,,,,,,,b,0,0.21971962272800738,None,None,,,,,001,47,2019_Oct_21_1604,ACPT_experiment_5_30_19,3.1.0,59.952657839172986,
,,,C,G,g,v,,,,,,,,,,1,12,32,4,,,,,,,,,,,,,v,1,2.468323079236143,1991.6464385952495,None,,,,,001,47,2019_Oct_21_1604,ACPT_experiment_5_30_19,3.1.0,59.952657839172986,
,,,C,D,d,v,,,,,,,,,,1,13,33,18,,,,,,,,,,,,,v,1,4.086485177893337,1997.4006134347073,None,,,,,001,47,2019_Oct_21_1604,ACPT_experiment_5_30_19,3.1.0,59.952657839172986,
,,,C,G,y,b,,,,,,,,,,1,14,34,5,,,,,,,,,,,,,b,1,2.501936113683769,2004.7729518821106,None,,,,,001,47,2019_Oct_21_1604,ACPT_experiment_5_30_19,3.1.0,59.952657839172986,
,,,C,G,y,b,,,,,,,,,,1,15,35,14,,,,,,,,,,,,,b,1,1.2843599807056307,2010.5940720630315,None,,,,,001,47,2019_Oct_21_1604,ACPT_experiment_5_30_19,3.1.0,59.952657839172986,
,,,C,G,g,v,,,,,,,,,,1,16,36,19,,,,,,,,,,,,,v,1,4.016285209407215,2015.1844119605557,None,,,,,001,47,2019_Oct_21_1604,ACPT_experiment_5_30_19,3.1.0,59.952657839172986,
,,,C,D,d,v,,,,,,,,,,1,17,37,9,,,,,,,,,,,,,v,1,2.3351387427392183,2022.4865767010706,None,,,,,001,47,2019_Oct_21_1604,ACPT_experiment_5_30_19,3.1.0,59.952657839172986,
,,,C,U,g,n,,,,,,,,,,1,18,38,16,,,,,,,,,,,,,n,1,1.2176362026111747,2028.1075614687397,None,,,,,001,47,2019_Oct_21_1604,ACPT_experiment_5_30_19,3.1.0,59.952657839172986,
,,,C,D,g,b,,,,,,,,,,1,19,39,10,,,,,,,,,,,,,b,1,5.651023809910839,2032.6310390356011,None,,,,,001,47,2019_Oct_21_1604,ACPT_experiment_5_30_19,3.1.0,59.952657839172986,
,,,C,D,d,v,,,,,,,,,,2,0,40,18,,,,,,,,,,,,,v,1,0.8173068157593661,2041.5512288314894,None,,,,,001,47,2019_Oct_21_1604,ACPT_experiment_5_30_19,3.1.0,59.952657839172986,
,,,C,D,d,v,,,,,,,,,,2,1,41,0,,,,,,,,,,,,,v,1,0.8170375589143077,2045.6546557587462,None,,,,,001,47,2019_Oct_21_1604,ACPT_experiment_5_30_19,3.1.0,59.952657839172986,
,,,C,U,g,n,,,,,,,,,,2,2,42,16,,,,,,,,,,,,,n,1,0.8172974581793824,2049.7575441723093,None,,,,,001,47,2019_Oct_21_1604,ACPT_experiment_5_30_19,3.1.0,59.952657839172986,
,,,C,D,d,v,,,,,,,,,,2,3,43,9,,,,,,,,,,,,,v,1,1.6846615966678655,2053.860674373689,None,,,,,001,47,2019_Oct_21_1604,ACPT_experiment_5_30_19,3.1.0,59.952657839172986,
,,,C,G,g,v,,,,,,,,,,2,4,44,4,,,,,,,,,,,,,v,1,2.8688851981787593,2058.8311795804293,None,,,,,001,47,2019_Oct_21_1604,ACPT_experiment_5_30_19,3.1.0,59.952657839172986,
,,,C,D,y,b,,,,,,,,,,2,5,45,11,,,,,,,,,,,,,n,0,1.3844076138120727,2064.9859165388298,None,,,,,001,47,2019_Oct_21_1604,ACPT_experiment_5_30_19,3.1.0,59.952657839172986,
,,,C,U,d,n,,,,,,,,,,2,6,46,6,,,,,,,,,,,,,n,1,0.9340586364123737,2069.6561734980023,None,,,,,001,47,2019_Oct_21_1604,ACPT_experiment_5_30_19,3.1.0,59.952657839172986,
,,,C,U,g,n,,,,,,,,,,2,7,47,7,,,,,,,,,,,,,n,1,1.3510508563413168,2073.859405364972,None,,,,,001,47,2019_Oct_21_1604,ACPT_experiment_5_30_19,3.1.0,59.952657839172986,
,,,C,G,d,b,,,,,,,,,,2,8,48,3,,,,,,,,,,,,,b,1,7.188611703255447,2078.513248221607,None,,,,,001,47,2019_Oct_21_1604,ACPT_experiment_5_30_19,3.1.0,59.952657839172986,
,,,C,D,g,b,,,,,,,,,,2,9,49,10,,,,,,,,,,,,,b,1,1.8180726281098032,2088.9877011200697,None,,,,,001,47,2019_Oct_21_1604,ACPT_experiment_5_30_19,3.1.0,59.952657839172986,
,,,C,G,g,v,,,,,,,,,,2,10,50,13,,,,,,,,,,,,,v,1,1.8847936894890154,2094.0916279232624,None,,,,,001,47,2019_Oct_21_1604,ACPT_experiment_5_30_19,3.1.0,59.952657839172986,
,,,C,G,y,b,,,,,,,,,,2,11,51,5,,,,,,,,,,,,,b,1,0.9674410517691285,2099.2455688835653,None,,,,,001,47,2019_Oct_21_1604,ACPT_experiment_5_30_19,3.1.0,59.952657839172986,
,,,C,U,y,n,,,,,,,,,,2,12,52,17,,,,,,,,,,,,,n,1,1.117516123715177,2103.5322314328987,None,,,,,001,47,2019_Oct_21_1604,ACPT_experiment_5_30_19,3.1.0,59.952657839172986,
,,,C,U,d,n,,,,,,,,,,2,13,53,15,,,,,,,,,,,,,n,1,0.8506481785007054,2107.9356168245686,None,,,,,001,47,2019_Oct_21_1604,ACPT_experiment_5_30_19,3.1.0,59.952657839172986,
,,,C,U,y,n,,,,,,,,,,2,14,54,8,,,,,,,,,,,,,n,1,0.8006098727928475,2112.0554475912068,None,,,,,001,47,2019_Oct_21_1604,ACPT_experiment_5_30_19,3.1.0,59.952657839172986,
,,,C,G,y,b,,,,,,,,,,2,15,55,14,,,,,,,,,,,,,n,0,0.7672679063325631,2116.14190892236,None,,,,,001,47,2019_Oct_21_1604,ACPT_experiment_5_30_19,3.1.0,59.952657839172986,
,,,C,D,y,b,,,,,,,,,,2,16,56,2,,,,,,,,,,,,,b,1,1.4508835669439577,2120.2119492082566,None,,,,,001,47,2019_Oct_21_1604,ACPT_experiment_5_30_19,3.1.0,59.952657839172986,
,,,C,G,d,b,,,,,,,,,,2,17,57,12,,,,,,,,,,,,,b,1,3.0857163469700026,2124.948686648422,None,,,,,001,47,2019_Oct_21_1604,ACPT_experiment_5_30_19,3.1.0,59.952657839172986,
,,,C,D,g,b,,,,,,,,,,2,18,58,1,,,,,,,,,,,,,b,1,1.8014288120539277,2131.3202266828703,None,,,,,001,47,2019_Oct_21_1604,ACPT_experiment_5_30_19,3.1.0,59.952657839172986,
,,,C,G,g,v,,,,,,,,,,2,19,59,19,,,,,,,,,,,,,v,1,2.1016242345649516,2136.407502727281,None,,,,,001,47,2019_Oct_21_1604,ACPT_experiment_5_30_19,3.1.0,59.952657839172986,
,,,C,G,g,v,,,,,,,,,,3,0,60,19,,,,,,,,,,,,,v,1,0.9674232421784836,2141.7782863069588,None,,,,,001,47,2019_Oct_21_1604,ACPT_experiment_5_30_19,3.1.0,59.952657839172986,
,,,C,G,g,v,,,,,,,,,,3,1,61,13,,,,,,,,,,,,,v,1,0.7505917915295868,2146.0315588945014,None,,,,,001,47,2019_Oct_21_1604,ACPT_experiment_5_30_19,3.1.0,59.952657839172986,
,,,C,U,d,n,,,,,,,,,,3,2,62,6,,,,,,,,,,,,,n,1,1.1008665723638842,2150.068000333249,None,,,,,001,47,2019_Oct_21_1604,ACPT_experiment_5_30_19,3.1.0,59.952657839172986,
,,,C,U,d,n,,,,,,,,,,3,3,63,15,,,,,,,,,,,,,n,1,1.0007682272080274,2154.438031080448,None,,,,,001,47,2019_Oct_21_1604,ACPT_experiment_5_30_19,3.1.0,59.952657839172986,
,,,C,D,g,b,,,,,,,,,,3,4,64,10,,,,,,,,,,,,,v,0,2.8688836888941296,2158.7246486530203,None,,,,,001,47,2019_Oct_21_1604,ACPT_experiment_5_30_19,3.1.0,59.952657839172986,
,,,C,D,y,b,,,,,,,,,,3,5,65,11,,,,,,,,,,,,,n,0,0.750582433949603,2164.8793819891325,None,,,,,001,47,2019_Oct_21_1604,ACPT_experiment_5_30_19,3.1.0,59.952657839172986,
,,,C,U,g,n,,,,,,,,,,3,6,66,7,,,,,,,,,,,,,n,1,1.1975949809529993,2168.9525054470178,None,,,,,001,47,2019_Oct_21_1604,ACPT_experiment_5_30_19,3.1.0,59.952657839172986,
,,,C,G,y,b,,,,,,,,,,3,7,67,5,,,,,,,,,,,,,b,1,1.0841702331126726,2173.435969997783,None,,,,,001,47,2019_Oct_21_1604,ACPT_experiment_5_30_19,3.1.0,59.952657839172986,
,,,C,G,y,b,,,,,,,,,,3,8,68,14,,,,,,,,,,,,,b,1,1.0841608755290508,2177.8059947078327,None,,,,,001,47,2019_Oct_21_1604,ACPT_experiment_5_30_19,3.1.0,59.952657839172986,
,,,C,U,y,n,,,,,,,,,,3,9,69,17,,,,,,,,,,,,,n,1,1.0841807981232705,2182.176007343587,None,,,,,001,47,2019_Oct_21_1604,ACPT_experiment_5_30_19,3.1.0,59.952657839172986,
,,,C,G,d,b,,,,,,,,,,3,10,70,12,,,,,,,,,,,,,b,1,2.6517893204036227,2186.5629783308614,None,,,,,001,47,2019_Oct_21_1604,ACPT_experiment_5_30_19,3.1.0,59.952657839172986,
,,,C,D,d,v,,,,,,,,,,3,11,71,9,,,,,,,,,,,,,v,1,1.9349940926476847,2192.500611865049,None,,,,,001,47,2019_Oct_21_1604,ACPT_experiment_5_30_19,3.1.0,59.952657839172986,
,,,C,G,g,v,,,,,,,,,,3,12,72,4,,,,,,,,,,,,,v,1,2.4352195801620837,2197.7212929037523,None,,,,,001,47,2019_Oct_21_1604,ACPT_experiment_5_30_19,3.1.0,59.952657839172986,
,,,C,D,g,b,,,,,,,,,,3,13,73,1,,,,,,,,,,,,,b,1,1.3510529693412536,2203.442355792129,None,,,,,001,47,2019_Oct_21_1604,ACPT_experiment_5_30_19,3.1.0,59.952657839172986,
,,,C,U,y,n,,,,,,,,,,3,14,74,8,,,,,,,,,,,,,n,1,0.8835935042698111,2208.09633539019,None,,,,,001,47,2019_Oct_21_1604,ACPT_experiment_5_30_19,3.1.0,59.952657839172986,
,,,C,D,y,b,,,,,,,,,,3,15,75,2,,,,,,,,,,,,,b,1,1.8180729299674567,2212.265806010706,None,,,,,001,47,2019_Oct_21_1604,ACPT_experiment_5_30_19,3.1.0,59.952657839172986,
,,,C,G,d,b,,,,,,,,,,3,16,76,3,,,,,,,,,,,,,b,1,2.7855308857506316,2217.369703835582,None,,,,,001,47,2019_Oct_21_1604,ACPT_experiment_5_30_19,3.1.0,59.952657839172986,
,,,C,D,d,v,,,,,,,,,,3,17,77,0,,,,,,,,,,,,,v,1,1.1675978968996787,2223.4410384862204,None,,,,,001,47,2019_Oct_21_1604,ACPT_experiment_5_30_19,3.1.0,59.952657839172986,
,,,C,D,d,v,,,,,,,,,,3,18,78,18,,,,,,,,,,,,,v,1,0.850386769951001,2227.8947595131867,None,,,,,001,47,2019_Oct_21_1604,ACPT_experiment_5_30_19,3.1.0,59.952657839172986,
,,,C,U,g,n,,,,,,,,,,3,19,79,16,,,,,,,,,,,,,n,1,1.317690174721065,2232.0309971377865,None,,,,,001,47,2019_Oct_21_1604,ACPT_experiment_5_30_19,3.1.0,59.952657839172986,
,,,C,U,g,n,,,,,,,,,,4,0,80,16,,,,,,,,,,,,,n,1,0.7669868770499306,2236.6348119518625,None,,,,,001,47,2019_Oct_21_1604,ACPT_experiment_5_30_19,3.1.0,59.952657839172986,
,,,C,U,g,n,,,,,,,,,,4,1,81,7,,,,,,,,,,,,,n,1,0.8840272734232713,2240.670970248324,None,,,,,001,47,2019_Oct_21_1604,ACPT_experiment_5_30_19,3.1.0,59.952657839172986,
,,,C,G,g,v,,,,,,,,,,4,2,82,4,,,,,,,,,,,,,v,1,2.5853227248553594,2244.8408507912573,None,,,,,001,47,2019_Oct_21_1604,ACPT_experiment_5_30_19,3.1.0,59.952657839172986,
,,,C,U,y,n,,,,,,,,,,4,3,83,17,,,,,,,,,,,,,n,1,0.9173843327553186,2250.7120204466155,None,,,,,001,47,2019_Oct_21_1604,ACPT_experiment_5_30_19,3.1.0,59.952657839172986,
,,,C,D,g,b,,,,,,,,,,4,4,84,1,,,,,,,,,,,,,b,1,1.4842445504145871,2254.932186818365,None,,,,,001,47,2019_Oct_21_1604,ACPT_experiment_5_30_19,3.1.0,59.952657839172986,
,,,C,G,g,v,,,,,,,,,,4,5,85,13,,,,,,,,,,,,,v,1,3.0857269119806006,2259.7022623008415,None,,,,,001,47,2019_Oct_21_1604,ACPT_experiment_5_30_19,3.1.0,59.952657839172986,
,,,C,G,d,b,,,,,,,,,,4,6,86,3,,,,,,,,,,,,,b,1,1.3176922877210018,2266.057146746789,None,,,,,001,47,2019_Oct_21_1604,ACPT_experiment_5_30_19,3.1.0,59.952657839172986,
,,,C,G,y,b,,,,,,,,,,4,7,87,14,,,,,,,,,,,,,b,1,0.9474094895522285,2270.680692171205,None,,,,,001,47,2019_Oct_21_1604,ACPT_experiment_5_30_19,3.1.0,59.952657839172986,
,,,C,D,y,b,,,,,,,,,,4,8,88,11,,,,,,,,,,,,,b,1,1.034168452155427,2274.913956137698,None,,,,,001,47,2019_Oct_21_1604,ACPT_experiment_5_30_19,3.1.0,59.952657839172986,
,,,C,D,d,v,,,,,,,,,,4,9,89,0,,,,,,,,,,,,,v,1,2.9687070419131487,2279.250867991097,None,,,,,001,47,2019_Oct_21_1604,ACPT_experiment_5_30_19,3.1.0,59.952657839172986,
,,,C,U,d,n,,,,,,,,,,4,10,90,6,,,,,,,,,,,,,n,1,0.9840966402662161,2285.5054273969436,None,,,,,001,47,2019_Oct_21_1604,ACPT_experiment_5_30_19,3.1.0,59.952657839172986,
,,,C,D,g,b,,,,,,,,,,4,11,91,10,,,,,,,,,,,,,b,1,2.6684756983631814,2289.7923320359478,None,,,,,001,47,2019_Oct_21_1604,ACPT_experiment_5_30_19,3.1.0,59.952657839172986,
,,,C,U,y,n,,,,,,,,,,4,12,92,8,,,,,,,,,,,,,n,1,1.134218801973475,2295.746625082782,None,,,,,001,47,2019_Oct_21_1604,ACPT_experiment_5_30_19,3.1.0,59.952657839172986,
,,,C,D,d,v,,,,,,,,,,4,13,93,9,,,,,,,,,,,,,v,1,1.0005243263876764,2300.1836226033265,None,,,,,001,47,2019_Oct_21_1604,ACPT_experiment_5_30_19,3.1.0,59.952657839172986,
,,,C,G,g,v,,,,,,,,,,4,14,94,19,,,,,,,,,,,,,v,1,2.368573681291309,2304.4699998973665,None,,,,,001,47,2019_Oct_21_1604,ACPT_experiment_5_30_19,3.1.0,59.952657839172986,
,,,C,G,d,b,,,,,,,,,,4,15,95,12,,,,,,,,,,,,,b,1,1.9515376920353447,2310.107638140533,None,,,,,001,47,2019_Oct_21_1604,ACPT_experiment_5_30_19,3.1.0,59.952657839172986,
,,,C,D,y,b,,,,,,,,,,4,16,96,2,,,,,,,,,,,,,n,0,1.3010409252310637,2315.3450221593557,None,,,,,001,47,2019_Oct_21_1604,ACPT_experiment_5_30_19,3.1.0,59.952657839172986,
,,,C,G,y,b,,,,,,,,,,4,17,97,5,,,,,,,,,,,,,b,1,1.3841338291058491,2319.9488345585705,None,,,,,001,47,2019_Oct_21_1604,ACPT_experiment_5_30_19,3.1.0,59.952657839172986,
,,,C,U,d,n,,,,,,,,,,4,18,98,15,,,,,,,,,,,,,n,1,1.0174600386017119,2324.618817431179,None,,,,,001,47,2019_Oct_21_1604,ACPT_experiment_5_30_19,3.1.0,59.952657839172986,
,,,C,D,d,v,,,,,,,,,,4,19,99,18,,,,,,,,,,,,,v,1,2.1149935010107583,2328.942132719476,None,,,,,001,47,2019_Oct_21_1604,ACPT_experiment_5_30_19,3.1.0,59.952657839172986,
,,,C,D,g,b,,,,,,,,,,5,0,100,10,,,,,,,,,,,,,b,1,1.3010128524838365,2334.32627228387,None,,,,,001,47,2019_Oct_21_1604,ACPT_experiment_5_30_19,3.1.0,59.952657839172986,
,,,C,U,y,n,,,,,,,,,,5,1,101,17,,,,,,,,,,,,,n,1,0.8506617620878387,2338.9131332742872,None,,,,,001,47,2019_Oct_21_1604,ACPT_experiment_5_30_19,3.1.0,59.952657839172986,
,,,C,G,y,b,,,,,,,,,,5,2,102,5,,,,,,,,,,,,,b,1,1.5178476235669223,2343.0496434761662,None,,,,,001,47,2019_Oct_21_1604,ACPT_experiment_5_30_19,3.1.0,59.952657839172986,
,,,C,D,y,b,,,,,,,,,,5,3,103,11,,,,,,,,,,,,,b,1,1.0841980039986083,2347.853314183496,None,,,,,001,47,2019_Oct_21_1604,ACPT_experiment_5_30_19,3.1.0,59.952657839172986,
,,,C,G,d,b,,,,,,,,,,5,4,104,12,,,,,,,,,,,,,b,1,4.286629345013353,2352.2233714941503,None,,,,,001,47,2019_Oct_21_1604,ACPT_experiment_5_30_19,3.1.0,59.952657839172986,
,,,C,D,d,v,,,,,,,,,,5,5,105,0,,,,,,,,,,,,,v,1,1.3844266308333317,2359.795823319211,None,,,,,001,47,2019_Oct_21_1604,ACPT_experiment_5_30_19,3.1.0,59.952657839172986,
,,,C,G,g,v,,,,,,,,,,5,6,106,13,,,,,,,,,,,,,v,1,1.000536400686542,2364.4830377243306,None,,,,,001,47,2019_Oct_21_1604,ACPT_experiment_5_30_19,3.1.0,59.952657839172986,
,,,C,G,g,v,,,,,,,,,,5,7,107,19,,,,,,,,,,,,,v,1,0.9173825216093974,2368.7527250181265,None,,,,,001,47,2019_Oct_21_1604,ACPT_experiment_5_30_19,3.1.0,59.952657839172986,
,,,C,D,y,b,,,,,,,,,,5,8,108,2,,,,,,,,,,,,,b,1,0.6669443755199609,2372.9728787118656,None,,,,,001,47,2019_Oct_21_1604,ACPT_experiment_5_30_19,3.1.0,59.952657839172986,
,,,C,G,g,v,,,,,,,,,,5,9,109,4,,,,,,,,,,,,,v,1,2.301778966691927,2376.925672432746,None,,,,,001,47,2019_Oct_21_1604,ACPT_experiment_5_30_19,3.1.0,59.952657839172986,
,,,C,U,g,n,,,,,,,,,,5,10,110,7,,,,,,,,,,,,,n,1,1.0174609441746725,2382.5132974243716,None,,,,,001,47,2019_Oct_21_1604,ACPT_experiment_5_30_19,3.1.0,59.952657839172986,
,,,C,G,d,b,,,,,,,,,,5,11,111,3,,,,,,,,,,,,,b,1,1.8011227285969653,2386.8335624431347,None,,,,,001,47,2019_Oct_21_1604,ACPT_experiment_5_30_19,3.1.0,59.952657839172986,
,,,C,D,d,v,,,,,,,,,,5,12,112,18,,,,,,,,,,,,,v,1,2.0849481197583373,2391.9205284799464,None,,,,,001,47,2019_Oct_21_1604,ACPT_experiment_5_30_19,3.1.0,59.952657839172986,
,,,C,U,y,n,,,,,,,,,,5,13,113,8,,,,,,,,,,,,,n,1,0.9006967473651457,2397.2913226246383,None,,,,,001,47,2019_Oct_21_1604,ACPT_experiment_5_30_19,3.1.0,59.952657839172986,
,,,C,D,d,v,,,,,,,,,,5,14,114,9,,,,,,,,,,,,,b,0,0.9836800769880938,2401.4949402654274,None,,,,,001,47,2019_Oct_21_1604,ACPT_experiment_5_30_19,3.1.0,59.952657839172986,
,,,C,D,g,b,,,,,,,,,,5,15,115,1,,,,,,,,,,,,,b,1,2.418562180519075,2405.747815910421,None,,,,,001,47,2019_Oct_21_1604,ACPT_experiment_5_30_19,3.1.0,59.952657839172986,
,,,C,U,d,n,,,,,,,,,,5,16,116,6,,,,,,,,,,,,,n,1,1.634607292511646,2411.4521942319843,None,,,,,001,47,2019_Oct_21_1604,ACPT_experiment_5_30_19,3.1.0,59.952657839172986,
,,,C,U,g,n,,,,,,,,,,5,17,117,16,,,,,,,,,,,,,n,1,1.2176174874475691,2416.3559669067618,None,,,,,001,47,2019_Oct_21_1604,ACPT_experiment_5_30_19,3.1.0,59.952657839172986,
,,,C,G,y,b,,,,,,,,,,5,18,118,14,,,,,,,,,,,,,b,1,0.8503867699473631,2420.8763827335097,None,,,,,001,47,2019_Oct_21_1604,ACPT_experiment_5_30_19,3.1.0,59.952657839172986,
,,,C,U,d,n,,,,,,,,,,5,19,119,15,0,0,0,0,0,0,0,0,,,,,n,1,0.9173798048905155,2425.0126209618247,None,,,,,001,47,2019_Oct_21_1604,ACPT_experiment_5_30_19,3.1.0,59.952657839172986,
,,,C,U,d,n,R,G,g,L,c ,,,,,5,19,119,15,0,0,0,0,,,,,0,0,0,6,,,,,,up,1.1008457442039798,2459.7893385156203,None,001,47,2019_Oct_21_1604,ACPT_experiment_5_30_19,3.1.0,59.952657839172986,
,,,C,U,d,n,L,U,d,L,u,,,,,5,19,119,15,0,0,0,0,,,,,0,1,1,20,,,,,,up,1.3343367074958223,2462.174505300918,None,001,47,2019_Oct_21_1604,ACPT_experiment_5_30_19,3.1.0,59.952657839172986,
,,,C,U,d,n,L,D,g,L,i,,,,,5,19,119,15,0,0,0,0,,,,,0,2,2,14,,,,,,up,0.5170567570494313,2464.7931844813866,None,001,47,2019_Oct_21_1604,ACPT_experiment_5_30_19,3.1.0,59.952657839172986,
,,,C,U,d,n,R,G,y,L,y,,,,,5,19,119,15,0,0,0,0,,,,,0,3,3,28,,,,,,down,0.7505742838002334,2466.594566807391,None,001,47,2019_Oct_21_1604,ACPT_experiment_5_30_19,3.1.0,59.952657839172986,
,,,C,U,d,n,L,U,g,R,u,,,,,5,19,119,15,0,0,0,0,,,,,0,4,4,23,,,,,,up,0.8506542156501382,2468.6294624341426,None,001,47,2019_Oct_21_1604,ACPT_experiment_5_30_19,3.1.0,59.952657839172986,
,,,C,U,d,n,R,D,y,R,y,,,,,5,19,119,15,0,0,0,0,,,,,0,5,5,27,,,,,,down,0.8006276823798544,2470.7644524819007,None,001,47,2019_Oct_21_1604,ACPT_experiment_5_30_19,3.1.0,59.952657839172986,
,,,C,U,d,n,R,D,d,L,c,,,,,5,19,119,15,0,0,0,0,,,,,0,6,6,0,,,,,,up,0.683855335420958,2472.8493740382073,None,001,47,2019_Oct_21_1604,ACPT_experiment_5_30_19,3.1.0,59.952657839172986,
,,,C,U,d,n,L,U,d,R,u,,,,,5,19,119,15,0,0,0,0,,,,,0,7,7,21,,,,,,up,0.6171735155076021,2474.800867357193,None,001,47,2019_Oct_21_1604,ACPT_experiment_5_30_19,3.1.0,59.952657839172986,
,,,C,U,d,n,L,G,d,R,i,,,,,5,19,119,15,0,0,0,0,,,,,0,8,8,17,,,,,,up,0.6838535242750368,2476.7023326336275,None,001,47,2019_Oct_21_1604,ACPT_experiment_5_30_19,3.1.0,59.952657839172986,
,,,C,U,d,n,L,G,g,L,c ,,,,,5,19,119,15,0,0,0,0,,,,,0,9,9,18,,,,,,up,0.6004578573811159,2478.6538298767628,None,001,47,2019_Oct_21_1604,ACPT_experiment_5_30_19,3.1.0,59.952657839172986,
,,,C,U,d,n,L,U,y,R,u,,,,,5,19,119,15,0,0,0,0,,,,,0,10,10,25,,,,,,down,0.7839247022639029,2480.5552969643395,None,001,47,2019_Oct_21_1604,ACPT_experiment_5_30_19,3.1.0,59.952657839172986,
,,,C,U,d,n,R,U,d,L,u,,,,,5,19,119,15,0,0,0,0,,,,,0,11,11,8,,,,,,up,0.5837790258556197,2482.64022606708,None,001,47,2019_Oct_21_1604,ACPT_experiment_5_30_19,3.1.0,59.952657839172986,
,,,C,U,d,n,L,G,y,R,y,,,,,5,19,119,15,0,0,0,0,,,,,0,12,12,35,,,,,,down,0.7672525116031466,2484.5083273414602,None,001,47,2019_Oct_21_1604,ACPT_experiment_5_30_19,3.1.0,59.952657839172986,
,,,C,U,d,n,L,U,g,L,u,,,,,5,19,119,15,0,0,0,0,,,,,0,13,13,22,,,,,,up,0.650497370519588,2486.5599060257373,None,001,47,2019_Oct_21_1604,ACPT_experiment_5_30_19,3.1.0,59.952657839172986,
,,,C,U,d,n,R,U,y,L,u,,,,,5,19,119,15,0,0,0,0,,,,,0,14,14,30,,,,,,down,0.6004506128010689,2488.4947271540696,None,001,47,2019_Oct_21_1604,ACPT_experiment_5_30_19,3.1.0,59.952657839172986,
,,,C,U,d,n,L,G,y,L,y,,,,,5,19,119,15,0,0,0,0,,,,,0,15,15,34,,,,,,down,0.6004575555198244,2490.379506052541,None,001,47,2019_Oct_21_1604,ACPT_experiment_5_30_19,3.1.0,59.952657839172986,
,,,C,U,d,n,L,G,d,L,i,,,,,5,19,119,15,0,0,0,0,,,,,0,16,16,16,,,,,,up,0.5971383310061356,2492.284293270208,None,001,47,2019_Oct_21_1604,ACPT_experiment_5_30_19,3.1.0,59.952657839172986,
,,,C,U,d,n,L,U,y,L,u,,,,,5,19,119,15,0,0,0,0,,,,,0,17,17,24,,,,,,down,0.5337364941442502,2494.1657520385925,None,001,47,2019_Oct_21_1604,ACPT_experiment_5_30_19,3.1.0,59.952657839172986,
,,,C,U,d,n,L,D,y,R,y,,,,,5,19,119,15,0,0,0,0,,,,,0,18,18,33,,,,,,down,0.8006261730915867,2495.9671277237358,None,001,47,2019_Oct_21_1604,ACPT_experiment_5_30_19,3.1.0,59.952657839172986,
,,,C,U,d,n,R,D,y,L,y,,,,,5,19,119,15,0,0,0,0,,,,,0,19,19,26,,,,,,down,0.5837977410192252,2498.0353644113675,None,001,47,2019_Oct_21_1604,ACPT_experiment_5_30_19,3.1.0,59.952657839172986,
,,,C,U,d,n,R,D,g,L,i,,,,,5,19,119,15,0,0,0,0,,,,,0,20,20,2,,,,,,up,0.5838028725956974,2499.8867859486563,None,001,47,2019_Oct_21_1604,ACPT_experiment_5_30_19,3.1.0,59.952657839172986,
,,,C,U,d,n,R,U,g,R,u,,,,,5,19,119,15,0,0,0,0,,,,,0,21,21,11,,,,,,up,0.7505951119601377,2501.738210504518,None,001,47,2019_Oct_21_1604,ACPT_experiment_5_30_19,3.1.0,59.952657839172986,
,,,C,U,d,n,L,D,d,R,c ,,,,,5,19,119,15,0,0,0,0,,,,,0,22,22,13,,,,,,down,1.4177577304180886,2503.7731242427144,None,001,47,2019_Oct_21_1604,ACPT_experiment_5_30_19,3.1.0,59.952657839172986,
,,,C,U,d,n,L,D,y,L,y,,,,,5,19,119,15,0,0,0,0,,,,,0,23,23,32,,,,,,down,0.8339768934165477,2506.4751981845075,None,001,47,2019_Oct_21_1604,ACPT_experiment_5_30_19,3.1.0,59.952657839172986,
,,,C,U,d,n,R,G,y,R,y,,,,,5,19,119,15,0,0,0,0,,,,,0,24,24,29,,,,,,down,0.7839262115485326,2508.6101788746855,None,001,47,2019_Oct_21_1604,ACPT_experiment_5_30_19,3.1.0,59.952657839172986,
,,,C,U,d,n,R,G,d,R,i,,,,,5,19,119,15,0,0,0,0,,,,,0,25,25,5,,,,,,up,0.7005293372239976,2510.6951158257216,None,001,47,2019_Oct_21_1604,ACPT_experiment_5_30_19,3.1.0,59.952657839172986,
,,,C,U,d,n,L,D,d,L,c ,,,,,5,19,119,15,0,0,0,0,,,,,0,26,26,12,,,,,,up,0.6171381981876038,2512.663292504094,None,001,47,2019_Oct_21_1604,ACPT_experiment_5_30_19,3.1.0,59.952657839172986,
,,,C,U,d,n,R,U,g,L,u,,,,,5,19,119,15,0,0,0,0,,,,,0,27,27,10,,,,,,up,0.5670992887608008,2514.5647508378024,None,001,47,2019_Oct_21_1604,ACPT_experiment_5_30_19,3.1.0,59.952657839172986,
,,,C,U,d,n,R,G,g,R,c ,,,,,5,19,119,15,0,0,0,0,,,,,0,28,28,7,,,,,,up,0.6672124249344051,2516.4161747899525,None,001,47,2019_Oct_21_1604,ACPT_experiment_5_30_19,3.1.0,59.952657839172986,
,,,C,U,d,n,R,D,g,R,i,,,,,5,19,119,15,0,0,0,0,,,,,0,29,29,3,,,,,,up,0.500114403974294,2518.3846240456005,None,001,47,2019_Oct_21_1604,ACPT_experiment_5_30_19,3.1.0,59.952657839172986,
,,,C,U,d,n,L,G,g,R,c ,,,,,5,19,119,15,0,0,0,0,,,,,0,30,30,19,,,,,,up,0.7005374873770052,2520.169059188811,None,001,47,2019_Oct_21_1604,ACPT_experiment_5_30_19,3.1.0,59.952657839172986,
,,,C,U,d,n,R,U,y,R,u,,,,,5,19,119,15,0,0,0,0,,,,,0,31,31,31,,,,,,down,0.6338363485883747,2522.1538977946875,None,001,47,2019_Oct_21_1604,ACPT_experiment_5_30_19,3.1.0,59.952657839172986,
,,,C,U,d,n,R,U,d,R,u,,,,,5,19,119,15,0,0,0,0,,,,,0,32,32,9,,,,,,up,0.5837820444321551,2524.0553721268443,None,001,47,2019_Oct_21_1604,ACPT_experiment_5_30_19,3.1.0,59.952657839172986,
,,,C,U,d,n,R,G,d,L,i,,,,,5,19,119,15,0,0,0,0,,,,,0,33,33,4,,,,,,up,0.7672863196385151,2525.923479136516,None,001,47,2019_Oct_21_1604,ACPT_experiment_5_30_19,3.1.0,59.952657839172986,
,,,C,U,d,n,R,D,d,R,c ,,,,,5,19,119,15,0,0,0,0,,,,,0,34,34,1,,,,,,up,0.5003860756769427,2527.9750548022203,None,001,47,2019_Oct_21_1604,ACPT_experiment_5_30_19,3.1.0,59.952657839172986,
,,,C,U,d,n,L,D,g,R,i,,,,,5,19,119,15,0,0,0,0,,,,,0,35,35,15,,,,,,up,0.5337452480125648,2529.759756183699,None,001,47,2019_Oct_21_1604,ACPT_experiment_5_30_19,3.1.0,59.952657839172986,
,,,C,U,d,n,R,D,d,R,c ,,,,,5,19,119,15,0,0,0,0,,,,,1,0,36,1,,,,,,down,0.7839663585909875,2531.5945118693344,None,001,47,2019_Oct_21_1604,ACPT_experiment_5_30_19,3.1.0,59.952657839172986,
,,,C,U,d,n,R,D,g,L,i,,,,,5,19,119,15,0,0,0,0,,,,,1,1,37,2,,,,,,up,1.0341231735365,2533.6627564052615,None,001,47,2019_Oct_21_1604,ACPT_experiment_5_30_19,3.1.0,59.952657839172986,
,,,C,U,d,n,L,U,g,R,u,,,,,5,19,119,15,0,0,0,0,,,,,1,2,38,23,,,,,,up,0.4169861827758723,2535.9811988087495,None,001,47,2019_Oct_21_1604,ACPT_experiment_5_30_19,3.1.0,59.952657839172986,
,,,C,U,d,n,L,D,d,R,c ,,,,,5,19,119,15,0,0,0,0,,,,,1,3,39,13,,,,,,up,0.8006047412163753,2537.68251448463,None,001,47,2019_Oct_21_1604,ACPT_experiment_5_30_19,3.1.0,59.952657839172986,
,,,C,U,d,n,L,D,g,L,i,,,,,5,19,119,15,0,0,0,0,,,,,1,4,40,14,,,,,,up,0.5504409835484694,2539.7674447947975,None,001,47,2019_Oct_21_1604,ACPT_experiment_5_30_19,3.1.0,59.952657839172986,
,,,C,U,d,n,L,G,d,R,i,,,,,5,19,119,15,0,0,0,0,,,,,1,5,41,17,,,,,,up,0.5337370978559193,2541.602189613568,None,001,47,2019_Oct_21_1604,ACPT_experiment_5_30_19,3.1.0,59.952657839172986,
,,,C,U,d,n,R,D,d,L,c,,,,,5,19,119,15,0,0,0,0,,,,,1,6,42,0,,,,,,up,0.6838496001291787,2543.420252884094,None,001,47,2019_Oct_21_1604,ACPT_experiment_5_30_19,3.1.0,59.952657839172986,
,,,C,U,d,n,L,G,g,L,c ,,,,,5,19,119,15,0,0,0,0,,,,,1,7,43,18,,,,,,up,0.71721330031869,2545.3884313736125,None,001,47,2019_Oct_21_1604,ACPT_experiment_5_30_19,3.1.0,59.952657839172986,
,,,C,U,d,n,L,U,y,R,u,,,,,5,19,119,15,0,0,0,0,,,,,1,8,44,25,,,,,,down,0.7505776042307843,2547.3899639038864,None,001,47,2019_Oct_21_1604,ACPT_experiment_5_30_19,3.1.0,59.952657839172986,
,,,C,U,d,n,L,D,y,R,y,,,,,5,19,119,15,0,0,0,0,,,,,1,9,45,33,,,,,,down,0.4837223370304855,2549.408164700668,None,001,47,2019_Oct_21_1604,ACPT_experiment_5_30_19,3.1.0,59.952657839172986,
,,,C,U,d,n,L,G,y,L,y,,,,,5,19,119,15,0,0,0,0,,,,,1,10,46,34,,,,,,down,0.5671041184832575,2551.1762059657885,None,001,47,2019_Oct_21_1604,ACPT_experiment_5_30_19,3.1.0,59.952657839172986,
,,,C,U,d,n,L,D,g,R,i,,,,,5,19,119,15,0,0,0,0,,,,,1,11,47,15,,,,,,up,0.5170567570494313,2553.027627804935,None,001,47,2019_Oct_21_1604,ACPT_experiment_5_30_19,3.1.0,59.952657839172986,
,,,C,U,d,n,L,D,y,L,y,,,,,5,19,119,15,0,0,0,0,,,,,1,12,48,32,,,,,,down,0.6004632908116037,2554.8123322049905,None,001,47,2019_Oct_21_1604,ACPT_experiment_5_30_19,3.1.0,59.952657839172986,
,,,C,U,d,n,L,U,g,L,u,,,,,5,19,119,15,0,0,0,0,,,,,1,13,49,22,,,,,,up,0.7169389119007974,2556.7140712661276,None,001,47,2019_Oct_21_1604,ACPT_experiment_5_30_19,3.1.0,59.952657839172986,
,,,C,U,d,n,R,D,g,R,i,,,,,5,19,119,15,0,0,0,0,,,,,1,14,50,3,,,,,,up,0.46702629963328945,2558.7153336339834,None,001,47,2019_Oct_21_1604,ACPT_experiment_5_30_19,3.1.0,59.952657839172986,
,,,C,U,d,n,R,D,y,R,y,,,,,5,19,119,15,0,0,0,0,,,,,1,15,51,27,,,,,,down,0.6005188325834752,2560.4499767871603,None,001,47,2019_Oct_21_1604,ACPT_experiment_5_30_19,3.1.0,59.952657839172986,
,,,C,U,d,n,R,U,y,L,u,,,,,5,19,119,15,0,0,0,0,,,,,1,16,52,30,,,,,,down,0.6004614796693204,2562.33478104166,None,001,47,2019_Oct_21_1604,ACPT_experiment_5_30_19,3.1.0,59.952657839172986,
,,,C,U,d,n,R,U,d,L,u,,,,,5,19,119,15,0,0,0,0,,,,,1,17,53,8,,,,,,down,1.067478421718988,2564.219563562423,None,001,47,2019_Oct_21_1604,ACPT_experiment_5_30_19,3.1.0,59.952657839172986,
,,,C,U,d,n,R,G,g,R,c ,,,,,5,19,119,15,0,0,0,0,,,,,1,18,54,7,,,,,,up,0.5837802332862339,2566.5713669493853,None,001,47,2019_Oct_21_1604,ACPT_experiment_5_30_19,3.1.0,59.952657839172986,
,,,C,U,d,n,R,U,d,R,u,,,,,5,19,119,15,0,0,0,0,,,,,1,19,55,9,,,,,,up,0.5504047606555105,2568.4394818073524,None,001,47,2019_Oct_21_1604,ACPT_experiment_5_30_19,3.1.0,59.952657839172986,
,,,C,U,d,n,R,G,y,L,y,,,,,5,19,119,15,0,0,0,0,,,,,1,20,56,28,,,,,,down,0.5837584995497309,2570.274230248411,None,001,47,2019_Oct_21_1604,ACPT_experiment_5_30_19,3.1.0,59.952657839172986,
,,,C,U,d,n,L,U,y,L,u,,,,,5,19,119,15,0,0,0,0,,,,,1,21,57,24,,,,,,down,0.5670902330384706,2572.1589952614413,None,001,47,2019_Oct_21_1604,ACPT_experiment_5_30_19,3.1.0,59.952657839172986,
,,,C,U,d,n,L,G,y,R,y,,,,,5,19,119,15,0,0,0,0,,,,,1,22,58,35,,,,,,down,0.5003743032357306,2574.0270962339637,None,001,47,2019_Oct_21_1604,ACPT_experiment_5_30_19,3.1.0,59.952657839172986,
,,,C,U,d,n,R,G,d,R,i,,,,,5,19,119,15,0,0,0,0,,,,,1,23,59,5,,,,,,up,0.5804519530465768,2575.831805330923,None,001,47,2019_Oct_21_1604,ACPT_experiment_5_30_19,3.1.0,59.952657839172986,
,,,C,U,d,n,R,U,g,L,u,,,,,5,19,119,15,0,0,0,0,,,,,1,24,60,10,,,,,,up,0.500381245958124,2577.6965807399247,None,001,47,2019_Oct_21_1604,ACPT_experiment_5_30_19,3.1.0,59.952657839172986,
,,,C,U,d,n,R,U,g,R,u,,,,,5,19,119,15,0,0,0,0,,,,,1,25,61,11,,,,,,up,0.5672429729092983,2579.464465944744,None,001,47,2019_Oct_21_1604,ACPT_experiment_5_30_19,3.1.0,59.952657839172986,
,,,C,U,d,n,L,U,d,L,u,,,,,5,19,119,15,0,0,0,0,,,,,1,26,62,20,,,,,,up,0.750579113519052,2581.316036297754,None,001,47,2019_Oct_21_1604,ACPT_experiment_5_30_19,3.1.0,59.952657839172986,
,,,C,U,d,n,R,G,g,L,c ,,,,,5,19,119,15,0,0,0,0,,,,,1,27,63,6,,,,,,up,1.4010776914656162,2583.3509225669222,None,001,47,2019_Oct_21_1604,ACPT_experiment_5_30_19,3.1.0,59.952657839172986,
,,,C,U,d,n,L,G,d,L,i,,,,,5,19,119,15,0,0,0,0,,,,,1,28,64,16,,,,,,up,0.8839910505303124,2586.0363357886417,None,001,47,2019_Oct_21_1604,ACPT_experiment_5_30_19,3.1.0,59.952657839172986,
,,,C,U,d,n,R,G,d,L,i,,,,,5,19,119,15,0,0,0,0,,,,,1,29,65,4,,,,,,up,0.7836777828706545,2588.2215784608998,None,001,47,2019_Oct_21_1604,ACPT_experiment_5_30_19,3.1.0,59.952657839172986,
,,,C,U,d,n,R,U,y,R,u,,,,,5,19,119,15,0,0,0,0,,,,,1,30,66,31,,,,,,down,0.6002643667561642,2590.306420326837,None,001,47,2019_Oct_21_1604,ACPT_experiment_5_30_19,3.1.0,59.952657839172986,
,,,C,U,d,n,R,D,y,L,y,,,,,5,19,119,15,0,0,0,0,,,,,1,31,67,26,,,,,,down,0.46703897764746216,2592.20770569623,None,001,47,2019_Oct_21_1604,ACPT_experiment_5_30_19,3.1.0,59.952657839172986,
,,,C,U,d,n,R,G,y,R,y,,,,,5,19,119,15,0,0,0,0,,,,,1,32,68,29,,,,,,down,0.7672591524715244,2593.959068733544,None,001,47,2019_Oct_21_1604,ACPT_experiment_5_30_19,3.1.0,59.952657839172986,
,,,C,U,d,n,L,U,d,R,u,,,,,5,19,119,15,0,0,0,0,,,,,1,33,69,21,,,,,,up,0.5837708757062501,2596.0106555679704,None,001,47,2019_Oct_21_1604,ACPT_experiment_5_30_19,3.1.0,59.952657839172986,
,,,C,U,d,n,L,G,g,R,c ,,,,,5,19,119,15,0,0,0,0,,,,,1,34,70,19,,,,,,up,0.8006113820774772,2597.8787474847704,None,001,47,2019_Oct_21_1604,ACPT_experiment_5_30_19,3.1.0,59.952657839172986,
,,,C,U,d,n,L,D,d,L,c ,,,,,5,19,119,15,0,0,0,0,,,,,1,35,71,12,,,,,,up,0.5003743032393686,2599.9636874543794,None,001,47,2019_Oct_21_1604,ACPT_experiment_5_30_19,3.1.0,59.952657839172986,
,,,C,U,d,n,,,,,,,,,,5,19,119,15,1,0,1,0,0,0,0,0,,,,,,,,,,,,,,001,47,2019_Oct_21_1604,ACPT_experiment_5_30_19,3.1.0,59.952657839172986,
,,,C,U,d,n,L,G,g,L,c ,,,,,5,19,119,15,1,0,1,0,,,,,0,0,0,18,,,,,,up,0.6168846379332535,2630.720911959652,None,001,47,2019_Oct_21_1604,ACPT_experiment_5_30_19,3.1.0,59.952657839172986,
,,,C,U,d,n,R,D,g,L,i,,,,,5,19,119,15,1,0,1,0,,,,,0,1,1,2,,,,,,up,0.5337751318947994,2632.6221058662377,None,001,47,2019_Oct_21_1604,ACPT_experiment_5_30_19,3.1.0,59.952657839172986,
,,,C,U,d,n,R,D,y,L,y,,,,,5,19,119,15,1,0,1,0,,,,,0,2,2,26,,,,,,down,0.55041955166962,2634.4401685330486,None,001,47,2019_Oct_21_1604,ACPT_experiment_5_30_19,3.1.0,59.952657839172986,
,,,C,U,d,n,R,D,y,R,y,,,,,5,19,119,15,1,0,1,0,,,,,0,3,3,27,,,,,,down,0.450493567113881,2636.258081176711,None,001,47,2019_Oct_21_1604,ACPT_experiment_5_30_19,3.1.0,59.952657839172986,
,,,C,U,d,n,R,G,y,R,y,,,,,5,19,119,15,1,0,1,0,,,,,0,4,4,29,,,,,,down,0.5835399547577254,2638.0098139894,None,001,47,2019_Oct_21_1604,ACPT_experiment_5_30_19,3.1.0,59.952657839172986,
,,,C,U,d,n,L,D,d,L,c ,,,,,5,19,119,15,1,0,1,0,,,,,0,5,5,12,,,,,,up,0.533753700019588,2639.877680720543,None,001,47,2019_Oct_21_1604,ACPT_experiment_5_30_19,3.1.0,59.952657839172986,
,,,C,U,d,n,R,G,d,R,i,,,,,5,19,119,15,1,0,1,0,,,,,0,6,6,5,,,,,,up,0.5003821515310847,2641.6957409725,None,001,47,2019_Oct_21_1604,ACPT_experiment_5_30_19,3.1.0,59.952657839172986,
,,,C,U,d,n,R,D,d,R,c ,,,,,5,19,119,15,1,0,1,0,,,,,0,7,7,1,,,,,,up,0.4670836525474442,2643.463746014724,None,001,47,2019_Oct_21_1604,ACPT_experiment_5_30_19,3.1.0,59.952657839172986,
,,,C,U,d,n,R,D,g,R,i,,,,,5,19,119,15,1,0,1,0,,,,,0,8,8,3,,,,,,up,0.5971253511343093,2645.235126426953,None,001,47,2019_Oct_21_1604,ACPT_experiment_5_30_19,3.1.0,59.952657839172986,
,,,C,U,d,n,L,U,g,L,u,,,,,5,19,119,15,1,0,1,0,,,,,0,9,9,22,,,,,,up,0.5170549459035101,2647.1165698006116,None,001,47,2019_Oct_21_1604,ACPT_experiment_5_30_19,3.1.0,59.952657839172986,
,,,C,U,d,n,R,D,d,L,c,,,,,5,19,119,15,1,0,1,0,,,,,0,10,10,0,,,,,,up,0.4503507885419822,2648.917952126616,None,001,47,2019_Oct_21_1604,ACPT_experiment_5_30_19,3.1.0,59.952657839172986,
,,,C,U,d,n,R,U,g,R,u,,,,,5,19,119,15,1,0,1,0,,,,,0,11,11,11,,,,,,up,0.533742531293683,2650.65261822096,None,001,47,2019_Oct_21_1604,ACPT_experiment_5_30_19,3.1.0,59.952657839172986,
,,,C,U,d,n,R,U,y,L,u,,,,,5,19,119,15,1,0,1,0,,,,,0,12,12,30,,,,,,down,0.6168592819049081,2652.504315655955,None,001,47,2019_Oct_21_1604,ACPT_experiment_5_30_19,3.1.0,59.952657839172986,
,,,C,U,d,n,L,G,y,R,y,,,,,5,19,119,15,1,0,1,0,,,,,0,13,13,35,,,,,,down,0.583774196140439,2654.422184469917,None,001,47,2019_Oct_21_1604,ACPT_experiment_5_30_19,3.1.0,59.952657839172986,
,,,C,U,d,n,L,U,d,R,u,,,,,5,19,119,15,1,0,1,0,,,,,0,14,14,21,,,,,,up,0.4837289778915874,2656.290284235012,None,001,47,2019_Oct_21_1604,ACPT_experiment_5_30_19,3.1.0,59.952657839172986,
,,,C,U,d,n,R,U,d,L,u,,,,,5,19,119,15,1,0,1,0,,,,,0,15,15,8,,,,,,up,0.5671017036220292,2658.0583076905423,None,001,47,2019_Oct_21_1604,ACPT_experiment_5_30_19,3.1.0,59.952657839172986,
,,,C,U,d,n,L,G,g,R,c ,,,,,5,19,119,15,1,0,1,0,,,,,0,16,16,19,,,,,,up,0.5671074389138084,2659.909729831543,None,001,47,2019_Oct_21_1604,ACPT_experiment_5_30_19,3.1.0,59.952657839172986,
,,,C,U,d,n,L,U,d,L,u,,,,,5,19,119,15,1,0,1,0,,,,,0,17,17,20,,,,,,up,0.5504186460966594,2661.7611580096964,None,001,47,2019_Oct_21_1604,ACPT_experiment_5_30_19,3.1.0,59.952657839172986,
,,,C,U,d,n,R,G,d,L,i,,,,,5,19,119,15,1,0,1,0,,,,,0,18,18,4,,,,,,up,0.7005525802451302,2663.5958768687233,None,001,47,2019_Oct_21_1604,ACPT_experiment_5_30_19,3.1.0,59.952657839172986,
,,,C,U,d,n,R,G,y,L,y,,,,,5,19,119,15,1,0,1,0,,,,,0,19,19,28,,,,,,down,0.5835109764411754,2665.581023369199,None,001,47,2019_Oct_21_1604,ACPT_experiment_5_30_19,3.1.0,59.952657839172986,
,,,C,U,d,n,L,D,d,R,c ,,,,,5,19,119,15,1,0,1,0,,,,,0,20,20,13,,,,,,up,1.3843991618014115,2667.4488520663035,None,001,47,2019_Oct_21_1604,ACPT_experiment_5_30_19,3.1.0,59.952657839172986,
,,,C,U,d,n,R,U,g,L,u,,,,,5,19,119,15,1,0,1,0,,,,,0,21,21,10,,,,,,up,0.5003809441041085,2670.117577702633,None,001,47,2019_Oct_21_1604,ACPT_experiment_5_30_19,3.1.0,59.952657839172986,
,,,C,U,d,n,L,D,y,L,y,,,,,5,19,119,15,1,0,1,0,,,,,0,22,22,32,,,,,,down,0.6000183529322385,2671.9193602916166,None,001,47,2019_Oct_21_1604,ACPT_experiment_5_30_19,3.1.0,59.952657839172986,
,,,C,U,d,n,L,G,d,L,i,,,,,5,19,119,15,1,0,1,0,,,,,0,23,23,16,,,,,,up,0.5671035147679504,2673.80373711597,None,001,47,2019_Oct_21_1604,ACPT_experiment_5_30_19,3.1.0,59.952657839172986,
,,,C,U,d,n,L,D,g,L,i,,,,,5,19,119,15,1,0,1,0,,,,,0,24,24,14,,,,,,up,0.55041955166962,2675.6551589551127,None,001,47,2019_Oct_21_1604,ACPT_experiment_5_30_19,3.1.0,59.952657839172986,
,,,C,U,d,n,R,G,g,R,c ,,,,,5,19,119,15,1,0,1,0,,,,,0,25,25,7,,,,,,up,0.6171312554652104,2677.4899019627373,None,001,47,2019_Oct_21_1604,ACPT_experiment_5_30_19,3.1.0,59.952657839172986,
,,,C,U,d,n,R,G,g,L,c ,,,,,5,19,119,15,1,0,1,0,,,,,0,26,26,6,,,,,,up,0.7672564357490046,2679.3746811630663,None,001,47,2019_Oct_21_1604,ACPT_experiment_5_30_19,3.1.0,59.952657839172986,
,,,C,U,d,n,L,G,d,R,i,,,,,5,19,119,15,1,0,1,0,,,,,0,27,27,17,,,,,,down,0.9673673985489586,2681.4262800717916,None,001,47,2019_Oct_21_1604,ACPT_experiment_5_30_19,3.1.0,59.952657839172986,
,,,C,U,d,n,L,D,g,R,i,,,,,5,19,119,15,1,0,1,0,,,,,0,28,28,15,,,,,,up,0.7339102432888467,2683.677967605865,None,001,47,2019_Oct_21_1604,ACPT_experiment_5_30_19,3.1.0,59.952657839172986,
,,,C,U,d,n,L,U,g,R,u,,,,,5,19,119,15,1,0,1,0,,,,,0,29,29,23,,,,,,up,0.7672763583432243,2685.6961801750876,None,001,47,2019_Oct_21_1604,ACPT_experiment_5_30_19,3.1.0,59.952657839172986,
,,,C,U,d,n,L,G,y,L,y,,,,,5,19,119,15,1,0,1,0,,,,,0,30,30,34,,,,,,down,0.6338149167058873,2687.7477824042435,None,001,47,2019_Oct_21_1604,ACPT_experiment_5_30_19,3.1.0,59.952657839172986,
,,,C,U,d,n,L,U,y,R,u,,,,,5,19,119,15,1,0,1,0,,,,,0,31,31,25,,,,,,down,0.5670911386114312,2689.665926210342,None,001,47,2019_Oct_21_1604,ACPT_experiment_5_30_19,3.1.0,59.952657839172986,
,,,C,U,d,n,L,D,y,R,y,,,,,5,19,119,15,1,0,1,0,,,,,0,32,32,33,,,,,,down,0.6171197848852898,2691.517356199638,None,001,47,2019_Oct_21_1604,ACPT_experiment_5_30_19,3.1.0,59.952657839172986,
,,,C,U,d,n,L,U,y,L,u,,,,,5,19,119,15,1,0,1,0,,,,,0,33,33,24,,,,,,down,0.6338100869907066,2693.418808194343,None,001,47,2019_Oct_21_1604,ACPT_experiment_5_30_19,3.1.0,59.952657839172986,
,,,C,U,d,n,R,U,y,R,u,,,,,5,19,119,15,1,0,1,0,,,,,0,34,34,31,,,,,,down,0.6004801948292879,2695.336939926139,None,001,47,2019_Oct_21_1604,ACPT_experiment_5_30_19,3.1.0,59.952657839172986,
,,,C,U,d,n,R,U,d,R,u,,,,,5,19,119,15,1,0,1,0,,,,,0,35,35,9,,,,,,up,1.1642415439164324,2697.2417289549485,None,001,47,2019_Oct_21_1604,ACPT_experiment_5_30_19,3.1.0,59.952657839172986,
,,,C,U,d,n,R,D,g,R,i,,,,,5,19,119,15,1,0,1,0,,,,,1,0,36,3,,,,,,up,0.6172003808205773,2699.690263165361,None,001,47,2019_Oct_21_1604,ACPT_experiment_5_30_19,3.1.0,59.952657839172986,
,,,C,U,d,n,R,G,d,R,i,,,,,5,19,119,15,1,0,1,0,,,,,1,1,37,5,,,,,,down,0.7339060172853351,2701.5917456476673,None,001,47,2019_Oct_21_1604,ACPT_experiment_5_30_19,3.1.0,59.952657839172986,
,,,C,U,d,n,L,D,g,R,i,,,,,5,19,119,15,1,0,1,0,,,,,1,2,38,15,,,,,,up,1.117505558704579,2703.626663008152,None,001,47,2019_Oct_21_1604,ACPT_experiment_5_30_19,3.1.0,59.952657839172986,
,,,C,U,d,n,L,D,g,L,i,,,,,5,19,119,15,1,0,1,0,,,,,1,3,39,14,,,,,,up,0.7505972249637125,2706.0117848166883,None,001,47,2019_Oct_21_1604,ACPT_experiment_5_30_19,3.1.0,59.952657839172986,
,,,C,U,d,n,L,U,y,R,u,,,,,5,19,119,15,1,0,1,0,,,,,1,4,40,25,,,,,,down,0.6338115962753363,2708.0467079124683,None,001,47,2019_Oct_21_1604,ACPT_experiment_5_30_19,3.1.0,59.952657839172986,
,,,C,U,d,n,R,U,y,R,u,,,,,5,19,119,15,1,0,1,0,,,,,1,5,41,31,,,,,,down,0.5668568972323555,2709.9817705267596,None,001,47,2019_Oct_21_1604,ACPT_experiment_5_30_19,3.1.0,59.952657839172986,
,,,C,U,d,n,L,U,g,R,u,,,,,5,19,119,15,1,0,1,0,,,,,1,6,42,23,,,,,,up,0.7005263186474622,2711.8329554078045,None,001,47,2019_Oct_21_1604,ACPT_experiment_5_30_19,3.1.0,59.952657839172986,
,,,C,U,d,n,L,U,y,L,u,,,,,5,19,119,15,1,0,1,0,,,,,1,7,43,24,,,,,,down,0.7172299024823587,2713.817782543101,None,001,47,2019_Oct_21_1604,ACPT_experiment_5_30_19,3.1.0,59.952657839172986,
,,,C,U,d,n,R,G,y,L,y,,,,,5,19,119,15,1,0,1,0,,,,,1,8,44,28,,,,,,down,0.8506508952195873,2715.8360222794945,None,001,47,2019_Oct_21_1604,ACPT_experiment_5_30_19,3.1.0,59.952657839172986,
,,,C,U,d,n,R,D,y,R,y,,,,,5,19,119,15,1,0,1,0,,,,,1,9,45,27,,,,,,down,0.5337443424359662,2717.970991499089,None,001,47,2019_Oct_21_1604,ACPT_experiment_5_30_19,3.1.0,59.952657839172986,
,,,C,U,d,n,L,D,d,R,c ,,,,,5,19,119,15,1,0,1,0,,,,,1,10,46,13,,,,,,up,0.800628587952815,2719.789055373334,None,001,47,2019_Oct_21_1604,ACPT_experiment_5_30_19,3.1.0,59.952657839172986,
,,,C,U,d,n,L,U,d,L,u,,,,,5,19,119,15,1,0,1,0,,,,,1,11,47,20,,,,,,up,0.6838526187020761,2721.873992928082,None,001,47,2019_Oct_21_1604,ACPT_experiment_5_30_19,3.1.0,59.952657839172986,
,,,C,U,d,n,R,D,y,L,y,,,,,5,19,119,15,1,0,1,0,,,,,1,12,48,26,,,,,,down,0.5837838555780763,2723.8421674934543,None,001,47,2019_Oct_21_1604,ACPT_experiment_5_30_19,3.1.0,59.952657839172986,
,,,C,U,d,n,R,U,g,L,u,,,,,5,19,119,15,1,0,1,0,,,,,1,13,49,10,,,,,,up,0.8339717618400755,2725.710269975265,None,001,47,2019_Oct_21_1604,ACPT_experiment_5_30_19,3.1.0,59.952657839172986,
,,,C,U,d,n,L,D,y,R,y,,,,,5,19,119,15,1,0,1,0,,,,,1,14,50,33,,,,,,down,0.6836681838030927,2727.8453988774527,None,001,47,2019_Oct_21_1604,ACPT_experiment_5_30_19,3.1.0,59.952657839172986,
,,,C,U,d,n,L,G,g,R,c ,,,,,5,19,119,15,1,0,1,0,,,,,1,15,51,19,,,,,,up,0.7839274189791468,2729.8301022511914,None,001,47,2019_Oct_21_1604,ACPT_experiment_5_30_19,3.1.0,59.952657839172986,
,,,C,U,d,n,R,U,d,R,u,,,,,5,19,119,15,1,0,1,0,,,,,1,16,52,9,,,,,,up,0.6004563480928482,2731.8983561446985,None,001,47,2019_Oct_21_1604,ACPT_experiment_5_30_19,3.1.0,59.952657839172986,
,,,C,U,d,n,L,G,g,L,c ,,,,,5,19,119,15,1,0,1,0,,,,,1,17,53,18,,,,,,up,0.6004593666657456,2733.783133835743,None,001,47,2019_Oct_21_1604,ACPT_experiment_5_30_19,3.1.0,59.952657839172986,
,,,C,U,d,n,R,U,y,L,u,,,,,5,19,119,15,1,0,1,0,,,,,1,18,54,30,,,,,,down,0.7338924337018398,2735.7012900179943,None,001,47,2019_Oct_21_1604,ACPT_experiment_5_30_19,3.1.0,59.952657839172986,
,,,C,U,d,n,R,D,g,L,i,,,,,5,19,119,15,1,0,1,0,,,,,1,19,55,2,,,,,,up,0.5670920441843919,2737.7361768908777,None,001,47,2019_Oct_21_1604,ACPT_experiment_5_30_19,3.1.0,59.952657839172986,
,,,C,U,d,n,R,U,g,R,u,,,,,5,19,119,15,1,0,1,0,,,,,1,20,56,11,,,,,,up,0.6171348777570529,2739.5876002393125,None,001,47,2019_Oct_21_1604,ACPT_experiment_5_30_19,3.1.0,59.952657839172986,
,,,C,U,d,n,R,G,g,R,c ,,,,,5,19,119,15,1,0,1,0,,,,,1,21,57,7,,,,,,up,0.7338987727089261,2741.4890549507327,None,001,47,2019_Oct_21_1604,ACPT_experiment_5_30_19,3.1.0,59.952657839172986,
,,,C,U,d,n,R,D,d,L,c,,,,,5,19,119,15,1,0,1,0,,,,,1,22,58,0,,,,,,up,0.8306489150345442,2743.5272870078734,None,001,47,2019_Oct_21_1604,ACPT_experiment_5_30_19,3.1.0,59.952657839172986,
,,,C,U,d,n,L,D,y,L,y,,,,,5,19,119,15,1,0,1,0,,,,,1,23,59,32,,,,,,down,0.5504165330967226,2745.642249417564,None,001,47,2019_Oct_21_1604,ACPT_experiment_5_30_19,3.1.0,59.952657839172986,
,,,C,U,d,n,L,G,d,L,i,,,,,5,19,119,15,1,0,1,0,,,,,1,24,60,16,,,,,,down,0.7839244004026114,2747.4769906140427,None,001,47,2019_Oct_21_1604,ACPT_experiment_5_30_19,3.1.0,59.952657839172986,
,,,C,U,d,n,R,G,g,L,c ,,,,,5,19,119,15,1,0,1,0,,,,,1,25,61,6,,,,,,up,0.6171155588817783,2749.5452463186957,None,001,47,2019_Oct_21_1604,ACPT_experiment_5_30_19,3.1.0,59.952657839172986,
,,,C,U,d,n,L,G,d,R,i,,,,,5,19,119,15,1,0,1,0,,,,,1,26,62,17,,,,,,up,0.5837769128556829,2751.446702539404,None,001,47,2019_Oct_21_1604,ACPT_experiment_5_30_19,3.1.0,59.952657839172986,
,,,C,U,d,n,L,U,g,L,u,,,,,5,19,119,15,1,0,1,0,,,,,1,27,63,22,,,,,,up,0.5670977794761711,2753.314806530503,None,001,47,2019_Oct_21_1604,ACPT_experiment_5_30_19,3.1.0,59.952657839172986,
,,,C,U,d,n,L,D,d,L,c ,,,,,5,19,119,15,1,0,1,0,,,,,1,28,64,12,,,,,,down,0.6171279350346595,2755.166236519799,None,001,47,2019_Oct_21_1604,ACPT_experiment_5_30_19,3.1.0,59.952657839172986,
,,,C,U,d,n,L,G,y,L,y,,,,,5,19,119,15,1,0,1,0,,,,,1,29,65,34,,,,,,down,0.5504427946907526,2757.067667384483,None,001,47,2019_Oct_21_1604,ACPT_experiment_5_30_19,3.1.0,59.952657839172986,
,,,C,U,d,n,R,G,d,L,i,,,,,5,19,119,15,1,0,1,0,,,,,1,30,66,4,,,,,,down,0.6002788559126202,2758.902472876598,None,001,47,2019_Oct_21_1604,ACPT_experiment_5_30_19,3.1.0,59.952657839172986,
,,,C,U,d,n,L,U,d,R,u,,,,,5,19,119,15,1,0,1,0,,,,,1,31,67,21,,,,,,up,0.7172154133259028,2760.7872116280305,None,001,47,2019_Oct_21_1604,ACPT_experiment_5_30_19,3.1.0,59.952657839172986,
,,,C,U,d,n,L,G,y,R,y,,,,,5,19,119,15,1,0,1,0,,,,,1,32,68,35,,,,,,down,0.6335634694551118,2762.8056789649418,None,001,47,2019_Oct_21_1604,ACPT_experiment_5_30_19,3.1.0,59.952657839172986,
,,,C,U,d,n,R,D,d,R,c ,,,,,5,19,119,15,1,0,1,0,,,,,1,33,69,1,,,,,,up,0.5670941571879666,2764.7235710219247,None,001,47,2019_Oct_21_1604,ACPT_experiment_5_30_19,3.1.0,59.952657839172986,
,,,C,U,d,n,R,U,d,L,u,,,,,5,19,119,15,1,0,1,0,,,,,1,34,70,8,,,,,,up,0.633816425997793,2766.57499044621,None,001,47,2019_Oct_21_1604,ACPT_experiment_5_30_19,3.1.0,59.952657839172986,
,,,C,U,d,n,R,G,y,R,y,,,,,5,19,119,15,1,0,1,0,,,,,1,35,71,29,,,,,,down,0.6338167278518085,2768.509807046681,None,001,47,2019_Oct_21_1604,ACPT_experiment_5_30_19,3.1.0,59.952657839172986,
,,,C,U,d,n,,,,,,,,,,5,19,119,15,2,0,2,0,0,0,0,0,,,,,,,,,,,,,,001,47,2019_Oct_21_1604,ACPT_experiment_5_30_19,3.1.0,59.952657839172986,
,,,C,U,d,n,L,U,g,R,u,,,,,5,19,119,15,2,0,2,0,,,,,0,0,0,23,,,,,,up,0.666926565929316,2807.940344817802,None,001,47,2019_Oct_21_1604,ACPT_experiment_5_30_19,3.1.0,59.952657839172986,
,,,C,U,d,n,L,G,d,L,i,,,,,5,19,119,15,2,0,2,0,,,,,0,1,1,16,,,,,,up,0.5504201553849271,2809.891594839686,None,001,47,2019_Oct_21_1604,ACPT_experiment_5_30_19,3.1.0,59.952657839172986,
,,,C,U,d,n,R,D,g,R,i,,,,,5,19,119,15,2,0,2,0,,,,,0,2,2,3,,,,,,up,0.5171346362731128,2811.7263393565954,None,001,47,2019_Oct_21_1604,ACPT_experiment_5_30_19,3.1.0,59.952657839172986,
,,,C,U,d,n,R,U,y,L,u,,,,,5,19,119,15,2,0,2,0,,,,,0,3,3,30,,,,,,down,0.6171366889029741,2813.527721380742,None,001,47,2019_Oct_21_1604,ACPT_experiment_5_30_19,3.1.0,59.952657839172986,
,,,C,U,d,n,R,U,y,R,u,,,,,5,19,119,15,2,0,2,0,,,,,0,4,4,31,,,,,,down,0.4636889636676642,2815.4491916559346,None,001,47,2019_Oct_21_1604,ACPT_experiment_5_30_19,3.1.0,59.952657839172986,
,,,C,U,d,n,R,G,y,L,y,,,,,5,19,119,15,2,0,2,0,,,,,0,5,5,28,,,,,,down,0.6171391037605645,2817.1972064904185,None,001,47,2019_Oct_21_1604,ACPT_experiment_5_30_19,3.1.0,59.952657839172986,
,,,C,U,d,n,L,U,y,R,u,,,,,5,19,119,15,2,0,2,0,,,,,0,6,6,25,,,,,,down,0.6338140111365647,2819.08199263347,None,001,47,2019_Oct_21_1604,ACPT_experiment_5_30_19,3.1.0,59.952657839172986,
,,,C,U,d,n,R,D,d,R,c ,,,,,5,19,119,15,2,0,2,0,,,,,0,7,7,1,,,,,,up,0.5504189479543129,2821.000127081985,None,001,47,2019_Oct_21_1604,ACPT_experiment_5_30_19,3.1.0,59.952657839172986,
,,,C,U,d,n,R,D,g,L,i,,,,,5,19,119,15,2,0,2,0,,,,,0,8,8,2,,,,,,up,0.7005326576545485,2822.834869787752,None,001,47,2019_Oct_21_1604,ACPT_experiment_5_30_19,3.1.0,59.952657839172986,
,,,C,U,d,n,R,U,d,R,u,,,,,5,19,119,15,2,0,2,0,,,,,0,9,9,9,,,,,,up,0.7505920933872403,2824.8197268069343,None,001,47,2019_Oct_21_1604,ACPT_experiment_5_30_19,3.1.0,59.952657839172986,
,,,C,U,d,n,R,U,g,R,u,,,,,5,19,119,15,2,0,2,0,,,,,0,10,10,11,,,,,,up,0.5337437387242971,2826.8379387724417,None,001,47,2019_Oct_21_1604,ACPT_experiment_5_30_19,3.1.0,59.952657839172986,
,,,C,U,d,n,R,D,y,L,y,,,,,5,19,119,15,2,0,2,0,,,,,0,11,11,26,,,,,,down,0.5501249387962162,2828.6729766947938,None,001,47,2019_Oct_21_1604,ACPT_experiment_5_30_19,3.1.0,59.952657839172986,
,,,C,U,d,n,L,G,g,R,c ,,,,,5,19,119,15,2,0,2,0,,,,,0,12,12,19,,,,,,up,0.6338448005990358,2830.5074015446626,None,001,47,2019_Oct_21_1604,ACPT_experiment_5_30_19,3.1.0,59.952657839172986,
,,,C,U,d,n,L,G,y,L,y,,,,,5,19,119,15,2,0,2,0,,,,,0,13,13,34,,,,,,down,0.5171186378247512,2832.408871650816,None,001,47,2019_Oct_21_1604,ACPT_experiment_5_30_19,3.1.0,59.952657839172986,
,,,C,U,d,n,L,G,g,L,c ,,,,,5,19,119,15,2,0,2,0,,,,,0,14,14,18,,,,,,up,0.533742531293683,2834.2102760124144,None,001,47,2019_Oct_21_1604,ACPT_experiment_5_30_19,3.1.0,59.952657839172986,
,,,C,U,d,n,R,D,d,L,c,,,,,5,19,119,15,2,0,2,0,,,,,0,15,15,0,,,,,,up,0.7002543450871599,2836.045296125176,None,001,47,2019_Oct_21_1604,ACPT_experiment_5_30_19,3.1.0,59.952657839172986,
,,,C,U,d,n,L,D,g,R,i,,,,,5,19,119,15,2,0,2,0,,,,,0,16,16,15,,,,,,up,0.45034897739606095,2838.029867587211,None,001,47,2019_Oct_21_1604,ACPT_experiment_5_30_19,3.1.0,59.952657839172986,
,,,C,U,d,n,R,G,g,L,c ,,,,,5,19,119,15,2,0,2,0,,,,,0,17,17,6,,,,,,up,0.5671140797785483,2839.764542133562,None,001,47,2019_Oct_21_1604,ACPT_experiment_5_30_19,3.1.0,59.952657839172986,
,,,C,U,d,n,L,U,y,L,u,,,,,5,19,119,15,2,0,2,0,,,,,0,18,18,24,,,,,,down,0.6338345374424534,2841.61596246342,None,001,47,2019_Oct_21_1604,ACPT_experiment_5_30_19,3.1.0,59.952657839172986,
,,,C,U,d,n,L,D,y,R,y,,,,,5,19,119,15,2,0,2,0,,,,,0,19,19,33,,,,,,down,0.48369879214806133,2843.5341077788034,None,001,47,2019_Oct_21_1604,ACPT_experiment_5_30_19,3.1.0,59.952657839172986,
,,,C,U,d,n,L,G,d,R,i,,,,,5,19,119,15,2,0,2,0,,,,,0,20,20,17,,,,,,up,0.8339687432671781,2845.302129423191,None,001,47,2019_Oct_21_1604,ACPT_experiment_5_30_19,3.1.0,59.952657839172986,
,,,C,U,d,n,L,U,d,L,u,,,,,5,19,119,15,2,0,2,0,,,,,0,21,21,20,,,,,,up,0.8339551596800447,2847.4204189056945,None,001,47,2019_Oct_21_1604,ACPT_experiment_5_30_19,3.1.0,59.952657839172986,
,,,C,U,d,n,L,D,y,L,y,,,,,5,19,119,15,2,0,2,0,,,,,0,22,22,32,,,,,,down,0.6338909847872856,2849.5553950680114,None,001,47,2019_Oct_21_1604,ACPT_experiment_5_30_19,3.1.0,59.952657839172986,
,,,C,U,d,n,R,U,g,L,u,,,,,5,19,119,15,2,0,2,0,,,,,0,23,23,10,,,,,,up,0.6671626184543129,2851.490214988913,None,001,47,2019_Oct_21_1604,ACPT_experiment_5_30_19,3.1.0,59.952657839172986,
,,,C,U,d,n,R,G,d,L,i,,,,,5,19,119,15,2,0,2,0,,,,,0,24,24,4,,,,,,up,0.5337431350053521,2853.4417113264753,None,001,47,2019_Oct_21_1604,ACPT_experiment_5_30_19,3.1.0,59.952657839172986,
,,,C,U,d,n,L,D,g,L,i,,,,,5,19,119,15,2,0,2,0,,,,,0,25,25,14,,,,,,up,0.9836770584115584,2855.276829241051,None,001,47,2019_Oct_21_1604,ACPT_experiment_5_30_19,3.1.0,59.952657839172986,
,,,C,U,d,n,R,U,d,L,u,,,,,5,19,119,15,2,0,2,0,,,,,0,26,26,8,,,,,,up,0.5504153256624704,2857.5448668838835,None,001,47,2019_Oct_21_1604,ACPT_experiment_5_30_19,3.1.0,59.952657839172986,
,,,C,U,d,n,L,G,y,R,y,,,,,5,19,119,15,2,0,2,0,,,,,0,27,27,35,,,,,,down,0.7672491911725956,2859.39628359145,None,001,47,2019_Oct_21_1604,ACPT_experiment_5_30_19,3.1.0,59.952657839172986,
,,,C,U,d,n,R,D,y,R,y,,,,,5,19,119,15,2,0,2,0,,,,,0,28,28,27,,,,,,down,0.80061741922691,2861.4645347682417,None,001,47,2019_Oct_21_1604,ACPT_experiment_5_30_19,3.1.0,59.952657839172986,
,,,C,U,d,n,R,G,y,R,y,,,,,5,19,119,15,2,0,2,0,,,,,0,29,29,29,,,,,,down,0.5670911386114312,2863.566155078661,None,001,47,2019_Oct_21_1604,ACPT_experiment_5_30_19,3.1.0,59.952657839172986,
,,,C,U,d,n,R,G,d,R,i,,,,,5,19,119,15,2,0,2,0,,,,,0,30,30,5,,,,,,up,0.617132161038171,2865.434256956756,None,001,47,2019_Oct_21_1604,ACPT_experiment_5_30_19,3.1.0,59.952657839172986,
,,,C,U,d,n,L,U,g,L,u,,,,,5,19,119,15,2,0,2,0,,,,,0,31,31,22,,,,,,up,0.517054342188203,2867.3357171016105,None,001,47,2019_Oct_21_1604,ACPT_experiment_5_30_19,3.1.0,59.952657839172986,
,,,C,U,d,n,L,U,d,R,u,,,,,5,19,119,15,2,0,2,0,,,,,0,32,32,21,,,,,,down,0.7502980842327815,2869.1540478178395,None,001,47,2019_Oct_21_1604,ACPT_experiment_5_30_19,3.1.0,59.952657839172986,
,,,C,U,d,n,L,D,d,R,c ,,,,,5,19,119,15,2,0,2,0,,,,,0,33,33,13,,,,,,up,0.5337343811406754,2871.1886793193225,None,001,47,2019_Oct_21_1604,ACPT_experiment_5_30_19,3.1.0,59.952657839172986,
,,,C,U,d,n,R,G,g,R,c ,,,,,5,19,119,15,2,0,2,0,,,,,0,34,34,7,,,,,,up,0.5504189479543129,2873.006740476849,None,001,47,2019_Oct_21_1604,ACPT_experiment_5_30_19,3.1.0,59.952657839172986,
,,,C,U,d,n,L,D,d,L,c ,,,,,5,19,119,15,2,0,2,0,,,,,0,35,35,12,,,,,,up,0.6171623467853351,2874.84145752473,None,001,47,2019_Oct_21_1604,ACPT_experiment_5_30_19,3.1.0,59.952657839172986,
,,,C,U,d,n,R,G,g,R,c ,,,,,5,19,119,15,2,0,2,0,,,,,1,0,36,7,,,,,,up,0.7005359780887375,2876.7429384977513,None,001,47,2019_Oct_21_1604,ACPT_experiment_5_30_19,3.1.0,59.952657839172986,
,,,C,U,d,n,L,U,d,R,u,,,,,5,19,119,15,2,0,2,0,,,,,1,1,37,21,,,,,,up,0.5003791329581873,2878.7278003466527,None,001,47,2019_Oct_21_1604,ACPT_experiment_5_30_19,3.1.0,59.952657839172986,
,,,C,U,d,n,R,U,g,R,u,,,,,5,19,119,15,2,0,2,0,,,,,1,2,38,11,,,,,,up,0.550423475815478,2880.5125008225586,None,001,47,2019_Oct_21_1604,ACPT_experiment_5_30_19,3.1.0,59.952657839172986,
,,,C,U,d,n,L,G,d,L,i,,,,,5,19,119,15,2,0,2,0,,,,,1,3,39,16,,,,,,down,0.6838390351185808,2882.363939263865,None,001,47,2019_Oct_21_1604,ACPT_experiment_5_30_19,3.1.0,59.952657839172986,
,,,C,U,d,n,R,D,y,R,y,,,,,5,19,119,15,2,0,2,0,,,,,1,4,40,27,,,,,,down,0.5003924146840291,2884.33208243606,None,001,47,2019_Oct_21_1604,ACPT_experiment_5_30_19,3.1.0,59.952657839172986,
,,,C,U,d,n,L,U,g,L,u,,,,,5,19,119,15,2,0,2,0,,,,,1,5,41,22,,,,,,up,0.550416231235431,2886.1168058531366,None,001,47,2019_Oct_21_1604,ACPT_experiment_5_30_19,3.1.0,59.952657839172986,
,,,C,U,d,n,R,U,d,L,u,,,,,5,19,119,15,2,0,2,0,,,,,1,6,42,8,,,,,,up,0.5003746050970221,2887.9515515774765,None,001,47,2019_Oct_21_1604,ACPT_experiment_5_30_19,3.1.0,59.952657839172986,
,,,C,U,d,n,L,U,g,R,u,,,,,5,19,119,15,2,0,2,0,,,,,1,7,43,23,,,,,,up,0.617139405618218,2889.7362553738167,None,001,47,2019_Oct_21_1604,ACPT_experiment_5_30_19,3.1.0,59.952657839172986,
,,,C,U,d,n,L,U,y,R,u,,,,,5,19,119,15,2,0,2,0,,,,,1,8,44,25,,,,,,down,0.4837872363787028,2891.6377131038134,None,001,47,2019_Oct_21_1604,ACPT_experiment_5_30_19,3.1.0,59.952657839172986,
,,,C,U,d,n,R,G,d,L,i,,,,,5,19,119,15,2,0,2,0,,,,,1,9,45,4,,,,,,up,0.617165063504217,2893.4057341444823,None,001,47,2019_Oct_21_1604,ACPT_experiment_5_30_19,3.1.0,59.952657839172986,
,,,C,U,d,n,R,U,g,L,u,,,,,5,19,119,15,2,0,2,0,,,,,1,10,46,10,,,,,,up,0.44704635504240287,2895.327204117817,None,001,47,2019_Oct_21_1604,ACPT_experiment_5_30_19,3.1.0,59.952657839172986,
,,,C,U,d,n,R,G,d,R,i,,,,,5,19,119,15,2,0,2,0,,,,,1,11,47,5,,,,,,up,0.5003770199546125,2897.0585452523555,None,001,47,2019_Oct_21_1604,ACPT_experiment_5_30_19,3.1.0,59.952657839172986,
,,,C,U,d,n,R,G,y,R,y,,,,,5,19,119,15,2,0,2,0,,,,,1,12,48,29,,,,,,down,0.5671186076397134,2898.8432230889557,None,001,47,2019_Oct_21_1604,ACPT_experiment_5_30_19,3.1.0,59.952657839172986,
,,,C,U,d,n,L,U,d,L,u,,,,,5,19,119,15,2,0,2,0,,,,,1,13,49,20,,,,,,down,0.5837757054250687,2900.694673906415,None,001,47,2019_Oct_21_1604,ACPT_experiment_5_30_19,3.1.0,59.952657839172986,
,,,C,U,d,n,L,G,d,R,i,,,,,5,19,119,15,2,0,2,0,,,,,1,14,50,17,,,,,,up,0.8005984022092889,2902.5794672940465,None,001,47,2019_Oct_21_1604,ACPT_experiment_5_30_19,3.1.0,59.952657839172986,
,,,C,U,d,n,R,D,d,R,c ,,,,,5,19,119,15,2,0,2,0,,,,,1,15,51,1,,,,,,up,0.7172196393257764,2904.6643828132,None,001,47,2019_Oct_21_1604,ACPT_experiment_5_30_19,3.1.0,59.952657839172986,
,,,C,U,d,n,R,G,y,L,y,,,,,5,19,119,15,2,0,2,0,,,,,1,16,52,28,,,,,,down,0.7172443916388147,2906.6658945153104,None,001,47,2019_Oct_21_1604,ACPT_experiment_5_30_19,3.1.0,59.952657839172986,
,,,C,U,d,n,L,D,d,R,c ,,,,,5,19,119,15,2,0,2,0,,,,,1,17,53,13,,,,,,up,0.9340619568429247,2908.667462664762,None,001,47,2019_Oct_21_1604,ACPT_experiment_5_30_19,3.1.0,59.952657839172986,
,,,C,U,d,n,R,D,g,R,i,,,,,5,19,119,15,2,0,2,0,,,,,1,18,54,3,,,,,,up,0.6505006909537769,2910.8858251363927,None,001,47,2019_Oct_21_1604,ACPT_experiment_5_30_19,3.1.0,59.952657839172986,
,,,C,U,d,n,L,G,y,L,y,,,,,5,19,119,15,2,0,2,0,,,,,1,19,55,34,,,,,,down,0.7505827358072565,2912.820647170298,None,001,47,2019_Oct_21_1604,ACPT_experiment_5_30_19,3.1.0,59.952657839172986,
,,,C,U,d,n,L,G,g,R,c ,,,,,5,19,119,15,2,0,2,0,,,,,1,20,56,19,,,,,,up,0.5837684608486597,2914.838876039823,None,001,47,2019_Oct_21_1604,ACPT_experiment_5_30_19,3.1.0,59.952657839172986,
,,,C,U,d,n,L,D,g,L,i,,,,,5,19,119,15,2,0,2,0,,,,,1,21,57,14,,,,,,up,0.5337389090054785,2916.7069658436194,None,001,47,2019_Oct_21_1604,ACPT_experiment_5_30_19,3.1.0,59.952657839172986,
,,,C,U,d,n,R,G,g,L,c ,,,,,5,19,119,15,2,0,2,0,,,,,1,22,58,6,,,,,,up,0.6170180589215306,2918.525031227153,None,001,47,2019_Oct_21_1604,ACPT_experiment_5_30_19,3.1.0,59.952657839172986,
,,,C,U,d,n,L,U,y,L,u,,,,,5,19,119,15,2,0,2,0,,,,,1,23,59,24,,,,,,down,0.6338103888483602,2920.443175636963,None,001,47,2019_Oct_21_1604,ACPT_experiment_5_30_19,3.1.0,59.952657839172986,
,,,C,U,d,n,L,G,y,R,y,,,,,5,19,119,15,2,0,2,0,,,,,1,24,60,35,,,,,,down,0.5504159293814155,2922.3779904262883,None,001,47,2019_Oct_21_1604,ACPT_experiment_5_30_19,3.1.0,59.952657839172986,
,,,C,U,d,n,R,U,y,L,u,,,,,5,19,119,15,2,0,2,0,,,,,1,25,61,30,,,,,,down,0.4670196587649116,2924.212731622767,None,001,47,2019_Oct_21_1604,ACPT_experiment_5_30_19,3.1.0,59.952657839172986,
,,,C,U,d,n,L,D,d,L,c ,,,,,5,19,119,15,2,0,2,0,,,,,1,26,62,12,,,,,,up,0.6838471852715884,2925.964078963494,None,001,47,2019_Oct_21_1604,ACPT_experiment_5_30_19,3.1.0,59.952657839172986,
,,,C,U,d,n,L,G,g,L,c ,,,,,5,19,119,15,2,0,2,0,,,,,1,27,63,18,,,,,,up,0.733613517419144,2927.9492121822404,None,001,47,2019_Oct_21_1604,ACPT_experiment_5_30_19,3.1.0,59.952657839172986,
,,,C,U,d,n,L,D,g,R,i,,,,,5,19,119,15,2,0,2,0,,,,,1,28,64,15,,,,,,up,0.6338088795600925,2929.9671512686145,None,001,47,2019_Oct_21_1604,ACPT_experiment_5_30_19,3.1.0,59.952657839172986,
,,,C,U,d,n,R,U,y,R,u,,,,,5,19,119,15,2,0,2,0,,,,,1,29,65,31,,,,,,down,0.617117068166408,2931.885303828578,None,001,47,2019_Oct_21_1604,ACPT_experiment_5_30_19,3.1.0,59.952657839172986,
,,,C,U,d,n,L,D,y,L,y,,,,,5,19,119,15,2,0,2,0,,,,,1,30,66,32,,,,,,down,0.5337183826959517,2933.786776047731,None,001,47,2019_Oct_21_1604,ACPT_experiment_5_30_19,3.1.0,59.952657839172986,
,,,C,U,d,n,R,D,d,L,c,,,,,5,19,119,15,2,0,2,0,,,,,1,31,67,0,,,,,,up,0.7839343617015402,2935.6048112455173,None,001,47,2019_Oct_21_1604,ACPT_experiment_5_30_19,3.1.0,59.952657839172986,
,,,C,U,d,n,L,D,y,R,y,,,,,5,19,119,15,2,0,2,0,,,,,1,32,68,33,,,,,,down,0.6171560077782487,2937.673046725722,None,001,47,2019_Oct_21_1604,ACPT_experiment_5_30_19,3.1.0,59.952657839172986,
,,,C,U,d,n,R,U,d,R,u,,,,,5,19,119,15,2,0,2,0,,,,,1,33,69,9,,,,,,down,0.7505709633660445,2939.5745328303165,None,001,47,2019_Oct_21_1604,ACPT_experiment_5_30_19,3.1.0,59.952657839172986,
,,,C,U,d,n,R,D,g,L,i,,,,,5,19,119,15,2,0,2,0,,,,,1,34,70,2,,,,,,up,0.65051970796776,2941.609399176894,None,001,47,2019_Oct_21_1604,ACPT_experiment_5_30_19,3.1.0,59.952657839172986,
,,,C,U,d,n,R,D,y,L,y,,,,,5,19,119,15,2,0,2,0,,,,,1,35,71,26,,,,,,down,0.5504138163778407,2943.544248377966,None,001,47,2019_Oct_21_1604,ACPT_experiment_5_30_19,3.1.0,59.952657839172986,
,,,C,U,d,n,,,,,,,,,,5,19,119,15,3,0,3,0,0,0,0,0,,,,,,,,,,,,,,001,47,2019_Oct_21_1604,ACPT_experiment_5_30_19,3.1.0,59.952657839172986,
,,,C,U,d,n,L,G,g,L,c ,,,,,5,19,119,15,3,0,3,0,,,,,0,0,0,18,,,,,,up,0.7670291370923223,2957.4384666607475,None,001,47,2019_Oct_21_1604,ACPT_experiment_5_30_19,3.1.0,59.952657839172986,
,,,C,U,d,n,R,D,y,L,y,,,,,5,19,119,15,3,0,3,0,,,,,0,1,1,26,,,,,,down,0.7505700577930838,2959.4898204612255,None,001,47,2019_Oct_21_1604,ACPT_experiment_5_30_19,3.1.0,59.952657839172986,
,,,C,U,d,n,R,U,g,L,u,,,,,5,19,119,15,3,0,3,0,,,,,0,2,2,10,,,,,,up,0.48369577357152593,2961.524724539984,None,001,47,2019_Oct_21_1604,ACPT_experiment_5_30_19,3.1.0,59.952657839172986,
,,,C,U,d,n,L,D,g,R,i,,,,,5,19,119,15,3,0,3,0,,,,,0,3,3,15,,,,,,up,0.5837862704356667,2963.2927467880836,None,001,47,2019_Oct_21_1604,ACPT_experiment_5_30_19,3.1.0,59.952657839172986,
,,,C,U,d,n,L,D,d,L,c ,,,,,5,19,119,15,3,0,3,0,,,,,0,4,4,12,,,,,,up,0.5671240410738392,2965.144140856344,None,001,47,2019_Oct_21_1604,ACPT_experiment_5_30_19,3.1.0,59.952657839172986,
,,,C,U,d,n,R,G,y,R,y,,,,,5,19,119,15,3,0,3,0,,,,,0,5,5,29,,,,,,down,0.5670869126079197,2967.0122729201867,None,001,47,2019_Oct_21_1604,ACPT_experiment_5_30_19,3.1.0,59.952657839172986,
,,,C,U,d,n,R,U,g,R,u,,,,,5,19,119,15,3,0,3,0,,,,,0,6,6,11,,,,,,up,0.7005287335086905,2968.8803723834244,None,001,47,2019_Oct_21_1604,ACPT_experiment_5_30_19,3.1.0,59.952657839172986,
,,,C,U,d,n,L,U,y,L,u,,,,,5,19,119,15,3,0,3,0,,,,,0,7,7,24,,,,,,down,0.7169377044701832,2970.882185641123,None,001,47,2019_Oct_21_1604,ACPT_experiment_5_30_19,3.1.0,59.952657839172986,
,,,C,U,d,n,L,D,y,R,y,,,,,5,19,119,15,3,0,3,0,,,,,0,8,8,33,,,,,,down,0.6171424241947534,2972.883440764399,None,001,47,2019_Oct_21_1604,ACPT_experiment_5_30_19,3.1.0,59.952657839172986,
,,,C,U,d,n,R,U,y,L,u,,,,,5,19,119,15,3,0,3,0,,,,,0,9,9,30,,,,,,down,0.5670974776185176,2974.7849081538334,None,001,47,2019_Oct_21_1604,ACPT_experiment_5_30_19,3.1.0,59.952657839172986,
,,,C,U,d,n,L,G,g,R,c ,,,,,5,19,119,15,3,0,3,0,,,,,0,10,10,19,,,,,,up,0.6338028424106597,2976.636330898549,None,001,47,2019_Oct_21_1604,ACPT_experiment_5_30_19,3.1.0,59.952657839172986,
,,,C,U,d,n,L,D,y,L,y,,,,,5,19,119,15,3,0,3,0,,,,,0,11,11,32,,,,,,down,0.5337389090054785,2978.5544650452066,None,001,47,2019_Oct_21_1604,ACPT_experiment_5_30_19,3.1.0,59.952657839172986,
,,,C,U,d,n,L,U,y,R,u,,,,,5,19,119,15,3,0,3,0,,,,,0,12,12,25,,,,,,down,0.5504110996589588,2980.3725346547435,None,001,47,2019_Oct_21_1604,ACPT_experiment_5_30_19,3.1.0,59.952657839172986,
,,,C,U,d,n,R,D,g,R,i,,,,,5,19,119,15,3,0,3,0,,,,,0,13,13,3,,,,,,up,0.6838499019868323,2982.2072728326457,None,001,47,2019_Oct_21_1604,ACPT_experiment_5_30_19,3.1.0,59.952657839172986,
,,,C,U,d,n,R,G,d,L,i,,,,,5,19,119,15,3,0,3,0,,,,,0,14,14,4,,,,,,up,0.5001171206931758,2984.192399410531,None,001,47,2019_Oct_21_1604,ACPT_experiment_5_30_19,3.1.0,59.952657839172986,
,,,C,U,d,n,R,U,y,R,u,,,,,5,19,119,15,3,0,3,0,,,,,0,15,15,31,,,,,,down,0.5337340792866598,2985.9768336481684,None,001,47,2019_Oct_21_1604,ACPT_experiment_5_30_19,3.1.0,59.952657839172986,
,,,C,U,d,n,L,G,d,L,i,,,,,5,19,119,15,3,0,3,0,,,,,0,16,16,16,,,,,,up,0.8506502915042802,2987.79489329641,None,001,47,2019_Oct_21_1604,ACPT_experiment_5_30_19,3.1.0,59.952657839172986,
,,,C,U,d,n,R,G,g,L,c ,,,,,5,19,119,15,3,0,3,0,,,,,0,17,17,6,,,,,,up,0.6338272928624065,2989.929861912289,None,001,47,2019_Oct_21_1604,ACPT_experiment_5_30_19,3.1.0,59.952657839172986,
,,,C,U,d,n,R,G,y,L,y,,,,,5,19,119,15,3,0,3,0,,,,,0,18,18,28,,,,,,down,0.5504207591002341,2991.8480033035266,None,001,47,2019_Oct_21_1604,ACPT_experiment_5_30_19,3.1.0,59.952657839172986,
,,,C,U,d,n,R,D,y,R,y,,,,,5,19,119,15,3,0,3,0,,,,,0,19,19,27,,,,,,down,0.4503450532502029,2993.6827481222936,None,001,47,2019_Oct_21_1604,ACPT_experiment_5_30_19,3.1.0,59.952657839172986,
,,,C,U,d,n,R,D,d,L,c,,,,,5,19,119,15,3,0,3,0,,,,,0,20,20,0,,,,,,up,0.5170633979105332,2995.417414820353,None,001,47,2019_Oct_21_1604,ACPT_experiment_5_30_19,3.1.0,59.952657839172986,
,,,C,U,d,n,R,G,d,R,i,,,,,5,19,119,15,3,0,3,0,,,,,0,21,21,5,,,,,,up,0.7305590218857105,2997.2388118045565,None,001,47,2019_Oct_21_1604,ACPT_experiment_5_30_19,3.1.0,59.952657839172986,
,,,C,U,d,n,R,U,d,L,u,,,,,5,19,119,15,3,0,3,0,,,,,0,22,22,8,,,,,,up,0.5171445975647657,2999.2370154508753,None,001,47,2019_Oct_21_1604,ACPT_experiment_5_30_19,3.1.0,59.952657839172986,
,,,C,U,d,n,L,G,y,R,y,,,,,5,19,119,15,3,0,3,0,,,,,0,23,23,35,,,,,,down,0.6671976339202956,3001.038397475022,None,001,47,2019_Oct_21_1604,ACPT_experiment_5_30_19,3.1.0,59.952657839172986,
,,,C,U,d,n,L,D,d,R,c ,,,,,5,19,119,15,3,0,3,0,,,,,0,24,24,13,,,,,,down,0.6838496001291787,3002.9898953218726,None,001,47,2019_Oct_21_1604,ACPT_experiment_5_30_19,3.1.0,59.952657839172986,
,,,C,U,d,n,L,G,d,R,i,,,,,5,19,119,15,3,0,3,0,,,,,0,25,25,17,,,,,,up,0.5671007980490685,3004.958076528106,None,001,47,2019_Oct_21_1604,ACPT_experiment_5_30_19,3.1.0,59.952657839172986,
,,,C,U,d,n,L,D,g,L,i,,,,,5,19,119,15,3,0,3,0,,,,,0,26,26,14,,,,,,up,0.5671047221985646,3006.8094929338185,None,001,47,2019_Oct_21_1604,ACPT_experiment_5_30_19,3.1.0,59.952657839172986,
,,,C,U,d,n,R,D,d,R,c ,,,,,5,19,119,15,3,0,3,0,,,,,0,27,27,1,,,,,,up,0.6004554425198876,3008.66091960268,None,001,47,2019_Oct_21_1604,ACPT_experiment_5_30_19,3.1.0,59.952657839172986,
,,,C,U,d,n,L,U,g,R,u,,,,,5,19,119,15,3,0,3,0,,,,,0,28,28,23,,,,,,up,0.5834982984270027,3010.5626562489597,None,001,47,2019_Oct_21_1604,ACPT_experiment_5_30_19,3.1.0,59.952657839172986,
,,,C,U,d,n,L,U,g,L,u,,,,,5,19,119,15,3,0,3,0,,,,,0,29,29,22,,,,,,up,0.4338295266061323,3012.413651563529,None,001,47,2019_Oct_21_1604,ACPT_experiment_5_30_19,3.1.0,59.952657839172986,
,,,C,U,d,n,L,U,d,L,u,,,,,5,19,119,15,3,0,3,0,,,,,0,30,30,20,,,,,,up,0.48370543300916324,3014.1317840197844,None,001,47,2019_Oct_21_1604,ACPT_experiment_5_30_19,3.1.0,59.952657839172986,
,,,C,U,d,n,R,U,d,R,u,,,,,5,19,119,15,3,0,3,0,,,,,0,31,31,9,,,,,,up,0.5169369196410116,3015.89981532361,None,001,47,2019_Oct_21_1604,ACPT_experiment_5_30_19,3.1.0,59.952657839172986,
,,,C,U,d,n,R,G,g,R,c ,,,,,5,19,119,15,3,0,3,0,,,,,0,32,32,7,,,,,,up,0.5332991026989475,3017.7182815738342,None,001,47,2019_Oct_21_1604,ACPT_experiment_5_30_19,3.1.0,59.952657839172986,
,,,C,U,d,n,L,G,y,L,y,,,,,5,19,119,15,3,0,3,0,,,,,0,33,33,34,,,,,,down,0.7172126966070209,3019.5359379405236,None,001,47,2019_Oct_21_1604,ACPT_experiment_5_30_19,3.1.0,59.952657839172986,
,,,C,U,d,n,R,D,g,L,i,,,,,5,19,119,15,3,0,3,0,,,,,0,34,34,2,,,,,,up,0.5337289477101876,3021.5374792246585,None,001,47,2019_Oct_21_1604,ACPT_experiment_5_30_19,3.1.0,59.952657839172986,
,,,C,U,d,n,L,U,d,R,u,,,,,5,19,119,15,3,0,3,0,,,,,0,35,35,21,,,,,,up,0.6671725797532417,3023.355537363612,None,001,47,2019_Oct_21_1604,ACPT_experiment_5_30_19,3.1.0,59.952657839172986,
,,,C,U,d,n,L,G,g,L,c ,,,,,5,19,119,15,3,0,3,0,,,,,1,0,36,18,,,,,,up,0.5670914404690848,3025.3070406438965,None,001,47,2019_Oct_21_1604,ACPT_experiment_5_30_19,3.1.0,59.952657839172986,
,,,C,U,d,n,R,U,g,L,u,,,,,5,19,119,15,3,0,3,0,,,,,1,1,37,10,,,,,,up,0.48375493763160193,3027.141756786208,None,001,47,2019_Oct_21_1604,ACPT_experiment_5_30_19,3.1.0,59.952657839172986,
,,,C,U,d,n,L,G,g,R,c ,,,,,5,19,119,15,3,0,3,0,,,,,1,2,38,19,,,,,,up,0.5838019670227368,3028.9097880900335,None,001,47,2019_Oct_21_1604,ACPT_experiment_5_30_19,3.1.0,59.952657839172986,
,,,C,U,d,n,R,D,y,L,y,,,,,5,19,119,15,3,0,3,0,,,,,1,3,39,26,,,,,,down,0.8671274822518171,3030.7948265859122,None,001,47,2019_Oct_21_1604,ACPT_experiment_5_30_19,3.1.0,59.952657839172986,
,,,C,U,d,n,R,G,d,L,i,,,,,5,19,119,15,3,0,3,0,,,,,1,4,40,4,,,,,,up,0.6171448390523437,3032.9462355659307,None,001,47,2019_Oct_21_1604,ACPT_experiment_5_30_19,3.1.0,59.952657839172986,
,,,C,U,d,n,R,G,g,L,c ,,,,,5,19,119,15,3,0,3,0,,,,,1,5,41,6,,,,,,up,0.5838345676274912,3034.830992126954,None,001,47,2019_Oct_21_1604,ACPT_experiment_5_30_19,3.1.0,59.952657839172986,
,,,C,U,d,n,L,U,d,L,u,,,,,5,19,119,15,3,0,3,0,,,,,1,6,42,20,,,,,,up,0.5003697753745655,3036.6991232852233,None,001,47,2019_Oct_21_1604,ACPT_experiment_5_30_19,3.1.0,59.952657839172986,
,,,C,U,d,n,L,U,y,L,u,,,,,5,19,119,15,3,0,3,0,,,,,1,7,43,24,,,,,,down,0.6502244913863251,3038.4840963384086,None,001,47,2019_Oct_21_1604,ACPT_experiment_5_30_19,3.1.0,59.952657839172986,
,,,C,U,d,n,R,G,d,R,i,,,,,5,19,119,15,3,0,3,0,,,,,1,8,44,5,,,,,,up,0.6171529892053513,3040.4186291928745,None,001,47,2019_Oct_21_1604,ACPT_experiment_5_30_19,3.1.0,59.952657839172986,
,,,C,U,d,n,R,G,y,R,y,,,,,5,19,119,15,3,0,3,0,,,,,1,9,45,29,,,,,,down,0.5670980813338247,3042.320104128743,None,001,47,2019_Oct_21_1604,ACPT_experiment_5_30_19,3.1.0,59.952657839172986,
,,,C,U,d,n,R,D,g,L,i,,,,,5,19,119,15,3,0,3,0,,,,,1,10,46,2,,,,,,up,0.5504177405236987,3044.171523854886,None,001,47,2019_Oct_21_1604,ACPT_experiment_5_30_19,3.1.0,59.952657839172986,
,,,C,U,d,n,R,U,d,R,u,,,,,5,19,119,15,3,0,3,0,,,,,1,11,47,9,,,,,,up,0.5671014017643756,3046.0062638439376,None,001,47,2019_Oct_21_1604,ACPT_experiment_5_30_19,3.1.0,59.952657839172986,
,,,C,U,d,n,R,U,y,L,u,,,,,5,19,119,15,3,0,3,0,,,,,1,12,48,30,,,,,,down,0.4837253556033829,3047.8409866271104,None,001,47,2019_Oct_21_1604,ACPT_experiment_5_30_19,3.1.0,59.952657839172986,
,,,C,U,d,n,L,D,g,R,i,,,,,5,19,119,15,3,0,3,0,,,,,1,13,49,15,,,,,,up,0.6838435629797459,3049.609046607391,None,001,47,2019_Oct_21_1604,ACPT_experiment_5_30_19,3.1.0,59.952657839172986,
,,,C,U,d,n,R,D,d,L,c,,,,,5,19,119,15,3,0,3,0,,,,,1,14,50,0,,,,,,up,0.5000974999566097,3051.5941680537,None,001,47,2019_Oct_21_1604,ACPT_experiment_5_30_19,3.1.0,59.952657839172986,
,,,C,U,d,n,L,G,y,R,y,,,,,5,19,119,15,3,0,3,0,,,,,1,15,51,35,,,,,,down,0.5504433984096977,3053.3785908207537,None,001,47,2019_Oct_21_1604,ACPT_experiment_5_30_19,3.1.0,59.952657839172986,
,,,C,U,d,n,L,U,g,L,u,,,,,5,19,119,15,3,0,3,0,,,,,1,16,52,22,,,,,,up,0.5670980813338247,3055.213338959955,None,001,47,2019_Oct_21_1604,ACPT_experiment_5_30_19,3.1.0,59.952657839172986,
,,,C,U,d,n,R,D,d,R,c ,,,,,5,19,119,15,3,0,3,0,,,,,1,17,53,1,,,,,,up,0.5504204572425806,3057.06475838424,None,001,47,2019_Oct_21_1604,ACPT_experiment_5_30_19,3.1.0,59.952657839172986,
,,,C,U,d,n,L,G,d,R,i,,,,,5,19,119,15,3,0,3,0,,,,,1,18,54,17,,,,,,up,0.5668457285064505,3058.9164552155235,None,001,47,2019_Oct_21_1604,ACPT_experiment_5_30_19,3.1.0,59.952657839172986,
,,,C,U,d,n,R,G,g,R,c ,,,,,5,19,119,15,3,0,3,0,,,,,1,19,55,7,,,,,,up,0.6338167278518085,3060.767604175533,None,001,47,2019_Oct_21_1604,ACPT_experiment_5_30_19,3.1.0,59.952657839172986,
,,,C,U,d,n,L,D,d,L,c ,,,,,5,19,119,15,3,0,3,0,,,,,1,20,56,12,,,,,,up,1.1842426185285149,3062.6857422463363,None,001,47,2019_Oct_21_1604,ACPT_experiment_5_30_19,3.1.0,59.952657839172986,
,,,C,U,d,n,L,G,d,L,i,,,,,5,19,119,15,3,0,3,0,,,,,1,21,57,16,,,,,,up,0.6171608374970674,3065.15430832082,None,001,47,2019_Oct_21_1604,ACPT_experiment_5_30_19,3.1.0,59.952657839172986,
,,,C,U,d,n,L,U,g,R,u,,,,,5,19,119,15,3,0,3,0,,,,,1,22,58,23,,,,,,up,0.9340516936936183,3067.0557642396707,None,001,47,2019_Oct_21_1604,ACPT_experiment_5_30_19,3.1.0,59.952657839172986,
,,,C,U,d,n,L,D,y,L,y,,,,,5,19,119,15,3,0,3,0,,,,,1,23,59,32,,,,,,down,0.5337678873147524,3069.2741119202874,None,001,47,2019_Oct_21_1604,ACPT_experiment_5_30_19,3.1.0,59.952657839172986,
,,,C,U,d,n,L,U,y,R,u,,,,,5,19,119,15,3,0,3,0,,,,,1,24,60,25,,,,,,down,0.6838517131291155,3071.0922008486996,None,001,47,2019_Oct_21_1604,ACPT_experiment_5_30_19,3.1.0,59.952657839172986,
,,,C,U,d,n,R,D,y,R,y,,,,,5,19,119,15,3,0,3,0,,,,,1,25,61,27,,,,,,down,0.5337422294360294,3073.0603781307873,None,001,47,2019_Oct_21_1604,ACPT_experiment_5_30_19,3.1.0,59.952657839172986,
,,,C,U,d,n,R,D,g,R,i,,,,,5,19,119,15,3,0,3,0,,,,,1,26,62,3,,,,,,up,0.5337428331513365,3074.8784356660253,None,001,47,2019_Oct_21_1604,ACPT_experiment_5_30_19,3.1.0,59.952657839172986,
,,,C,U,d,n,R,U,g,R,u,,,,,5,19,119,15,3,0,3,0,,,,,1,27,63,11,,,,,,up,0.533739210859494,3076.6965049737046,None,001,47,2019_Oct_21_1604,ACPT_experiment_5_30_19,3.1.0,59.952657839172986,
,,,C,U,d,n,L,D,g,L,i,,,,,5,19,119,15,3,0,3,0,,,,,1,28,64,14,,,,,,up,0.46689106749545317,3078.5145709609496,None,001,47,2019_Oct_21_1604,ACPT_experiment_5_30_19,3.1.0,59.952657839172986,
,,,C,U,d,n,L,U,d,R,u,,,,,5,19,119,15,3,0,3,0,,,,,1,29,65,21,,,,,,down,0.63380525726825,3080.2659176979614,None,001,47,2019_Oct_21_1604,ACPT_experiment_5_30_19,3.1.0,59.952657839172986,
,,,C,U,d,n,R,G,y,L,y,,,,,5,19,119,15,3,0,3,0,,,,,1,30,66,28,,,,,,down,0.5671134760632413,3082.18403041274,None,001,47,2019_Oct_21_1604,ACPT_experiment_5_30_19,3.1.0,59.952657839172986,
,,,C,U,d,n,L,G,y,L,y,,,,,5,19,119,15,3,0,3,0,,,,,1,31,67,34,,,,,,down,0.6002112398418831,3084.0523940012463,None,001,47,2019_Oct_21_1604,ACPT_experiment_5_30_19,3.1.0,59.952657839172986,
,,,C,U,d,n,R,U,y,R,u,,,,,5,19,119,15,3,0,3,0,,,,,1,32,68,31,,,,,,down,0.6671647314578877,3085.9536117545686,None,001,47,2019_Oct_21_1604,ACPT_experiment_5_30_19,3.1.0,59.952657839172986,
,,,C,U,d,n,L,D,d,R,c ,,,,,5,19,119,15,3,0,3,0,,,,,1,33,69,13,,,,,,up,0.5337298532758723,3087.9217905459445,None,001,47,2019_Oct_21_1604,ACPT_experiment_5_30_19,3.1.0,59.952657839172986,
,,,C,U,d,n,L,D,y,R,y,,,,,5,19,119,15,3,0,3,0,,,,,1,34,70,33,,,,,,down,0.5337361922829587,3089.723175890522,None,001,47,2019_Oct_21_1604,ACPT_experiment_5_30_19,3.1.0,59.952657839172986,
,,,C,U,d,n,R,U,d,L,u,,,,,5,19,119,15,3,0,3,0,,,,,1,35,71,8,,,,,,up,0.7171858312940458,3091.5412642152223,None,001,47,2019_Oct_21_1604,ACPT_experiment_5_30_19,3.1.0,59.952657839172986,
,,,C,U,d,n,,,,,,,,,,5,19,119,15,4,0,4,0,0,0,0,0,,,,,,,,,,,,,,001,47,2019_Oct_21_1604,ACPT_experiment_5_30_19,3.1.0,59.952657839172986,
,,,C,U,d,n,L,U,d,L,u,,,,,5,19,119,15,4,0,4,0,,,,,0,0,0,20,,,,,,down,1.0007486064750992,3121.2473963285665,None,001,47,2019_Oct_21_1604,ACPT_experiment_5_30_19,3.1.0,59.952657839172986,
,,,C,U,d,n,R,G,d,R,i,,,,,5,19,119,15,4,0,4,0,,,,,0,1,1,5,,,,,,up,0.5504110996589588,3123.5324768430037,None,001,47,2019_Oct_21_1604,ACPT_experiment_5_30_19,3.1.0,59.952657839172986,
,,,C,U,d,n,R,U,y,R,u,,,,,5,19,119,15,4,0,4,0,,,,,0,2,2,31,,,,,,down,0.6338155204248324,3125.3672177376247,None,001,47,2019_Oct_21_1604,ACPT_experiment_5_30_19,3.1.0,59.952657839172986,
,,,C,U,d,n,L,D,d,R,c ,,,,,5,19,119,15,4,0,4,0,,,,,0,3,3,13,,,,,,up,0.5168047060797107,3127.2856078594014,None,001,47,2019_Oct_21_1604,ACPT_experiment_5_30_19,3.1.0,59.952657839172986,
,,,C,U,d,n,R,G,g,R,c ,,,,,5,19,119,15,4,0,4,0,,,,,0,4,4,7,,,,,,up,0.4503390161007701,3129.0867396437243,None,001,47,2019_Oct_21_1604,ACPT_experiment_5_30_19,3.1.0,59.952657839172986,
,,,C,U,d,n,R,G,g,L,c ,,,,,5,19,119,15,4,0,4,0,,,,,0,5,5,6,,,,,,up,0.5005333821136446,3130.8045750722486,None,001,47,2019_Oct_21_1604,ACPT_experiment_5_30_19,3.1.0,59.952657839172986,
,,,C,U,d,n,L,G,d,R,i,,,,,5,19,119,15,4,0,4,0,,,,,0,6,6,17,,,,,,up,0.50037339766277,3132.589433117744,None,001,47,2019_Oct_21_1604,ACPT_experiment_5_30_19,3.1.0,59.952657839172986,
,,,C,U,d,n,R,D,g,R,i,,,,,5,19,119,15,4,0,4,0,,,,,0,7,7,3,,,,,,up,0.5668152409052709,3134.391094360035,None,001,47,2019_Oct_21_1604,ACPT_experiment_5_30_19,3.1.0,59.952657839172986,
,,,C,U,d,n,L,D,g,R,i,,,,,5,19,119,15,4,0,4,0,,,,,0,8,8,15,,,,,,up,0.5003743032393686,3136.2422378866104,None,001,47,2019_Oct_21_1604,ACPT_experiment_5_30_19,3.1.0,59.952657839172986,
,,,C,U,d,n,R,D,d,R,c ,,,,,5,19,119,15,4,0,4,0,,,,,0,9,9,1,,,,,,up,0.5337331737100612,3138.026943795954,None,001,47,2019_Oct_21_1604,ACPT_experiment_5_30_19,3.1.0,59.952657839172986,
,,,C,U,d,n,R,U,d,R,u,,,,,5,19,119,15,4,0,4,0,,,,,0,10,10,9,,,,,,up,0.5170736610671156,3139.844998010758,None,001,47,2019_Oct_21_1604,ACPT_experiment_5_30_19,3.1.0,59.952657839172986,
,,,C,U,d,n,R,D,g,L,i,,,,,5,19,119,15,4,0,4,0,,,,,0,11,11,2,,,,,,up,0.5137324009556323,3141.666398315392,None,001,47,2019_Oct_21_1604,ACPT_experiment_5_30_19,3.1.0,59.952657839172986,
,,,C,U,d,n,L,D,d,L,c ,,,,,5,19,119,15,4,0,4,0,,,,,0,12,12,12,,,,,,up,0.5170658127717616,3143.4644478332957,None,001,47,2019_Oct_21_1604,ACPT_experiment_5_30_19,3.1.0,59.952657839172986,
,,,C,U,d,n,L,G,y,R,y,,,,,5,19,119,15,4,0,4,0,,,,,0,13,13,35,,,,,,down,0.5837898927275091,3145.2658325741613,None,001,47,2019_Oct_21_1604,ACPT_experiment_5_30_19,3.1.0,59.952657839172986,
,,,C,U,d,n,L,G,g,L,c ,,,,,5,19,119,15,4,0,4,0,,,,,0,14,14,18,,,,,,up,0.4837006032903446,3147.1339347541143,None,001,47,2019_Oct_21_1604,ACPT_experiment_5_30_19,3.1.0,59.952657839172986,
,,,C,U,d,n,L,U,y,L,u,,,,,5,19,119,15,4,0,4,0,,,,,0,15,15,24,,,,,,down,0.6168952029402135,3148.9189069017266,None,001,47,2019_Oct_21_1604,ACPT_experiment_5_30_19,3.1.0,59.952657839172986,
,,,C,U,d,n,L,D,y,R,y,,,,,5,19,119,15,4,0,4,0,,,,,0,16,16,33,,,,,,down,0.6505127652490046,3150.83678356398,None,001,47,2019_Oct_21_1604,ACPT_experiment_5_30_19,3.1.0,59.952657839172986,
,,,C,U,d,n,L,G,g,R,c ,,,,,5,19,119,15,4,0,4,0,,,,,0,17,17,19,,,,,,up,0.5170781889282807,3152.7882759773966,None,001,47,2019_Oct_21_1604,ACPT_experiment_5_30_19,3.1.0,59.952657839172986,
,,,C,U,d,n,R,D,y,L,y,,,,,5,19,119,15,4,0,4,0,,,,,0,18,18,26,,,,,,down,0.5838086078874767,3154.5896637368387,None,001,47,2019_Oct_21_1604,ACPT_experiment_5_30_19,3.1.0,59.952657839172986,
,,,C,U,d,n,R,U,g,L,u,,,,,5,19,119,15,4,0,4,0,,,,,0,19,19,10,,,,,,up,0.5003767180969589,3156.45776742608,None,001,47,2019_Oct_21_1604,ACPT_experiment_5_30_19,3.1.0,59.952657839172986,
,,,C,U,d,n,L,G,d,L,i,,,,,5,19,119,15,4,0,4,0,,,,,0,20,20,16,,,,,,up,0.4336523362871958,3158.2424642796977,None,001,47,2019_Oct_21_1604,ACPT_experiment_5_30_19,3.1.0,59.952657839172986,
,,,C,U,d,n,R,G,d,L,i,,,,,5,19,119,15,4,0,4,0,,,,,0,21,21,4,,,,,,up,0.5170534366188804,3159.960453957381,None,001,47,2019_Oct_21_1604,ACPT_experiment_5_30_19,3.1.0,59.952657839172986,
,,,C,U,d,n,L,D,g,L,i,,,,,5,19,119,15,4,0,4,0,,,,,0,22,22,14,,,,,,up,0.647169693995238,3161.7818461118623,None,001,47,2019_Oct_21_1604,ACPT_experiment_5_30_19,3.1.0,59.952657839172986,
,,,C,U,d,n,L,U,g,R,u,,,,,5,19,119,15,4,0,4,0,,,,,0,23,23,23,,,,,,up,0.7338951504207216,3163.7133329228054,None,001,47,2019_Oct_21_1604,ACPT_experiment_5_30_19,3.1.0,59.952657839172986,
,,,C,U,d,n,R,G,y,R,y,,,,,5,19,119,15,4,0,4,0,,,,,0,24,24,29,,,,,,down,0.5837760072827223,3165.731552132893,None,001,47,2019_Oct_21_1604,ACPT_experiment_5_30_19,3.1.0,59.952657839172986,
,,,C,U,d,n,R,U,d,L,u,,,,,5,19,119,15,4,0,4,0,,,,,0,25,25,8,,,,,,up,0.5337530963042809,3167.5996506905576,None,001,47,2019_Oct_21_1604,ACPT_experiment_5_30_19,3.1.0,59.952657839172986,
,,,C,U,d,n,R,D,y,R,y,,,,,5,19,119,15,4,0,4,0,,,,,0,26,26,27,,,,,,down,0.6838803895916499,3169.4177178852333,None,001,47,2019_Oct_21_1604,ACPT_experiment_5_30_19,3.1.0,59.952657839172986,
,,,C,U,d,n,L,D,y,L,y,,,,,5,19,119,15,4,0,4,0,,,,,0,27,27,32,,,,,,down,0.6004542350929114,3171.3858939598904,None,001,47,2019_Oct_21_1604,ACPT_experiment_5_30_19,3.1.0,59.952657839172986,
,,,C,U,d,n,L,U,d,R,u,,,,,5,19,119,15,4,0,4,0,,,,,0,28,28,21,,,,,,down,0.7005492598145793,3173.270654746917,None,001,47,2019_Oct_21_1604,ACPT_experiment_5_30_19,3.1.0,59.952657839172986,
,,,C,U,d,n,R,D,d,L,c,,,,,5,19,119,15,4,0,4,0,,,,,0,29,29,0,,,,,,up,0.550405062509526,3175.255544668562,None,001,47,2019_Oct_21_1604,ACPT_experiment_5_30_19,3.1.0,59.952657839172986,
,,,C,U,d,n,R,U,y,L,u,,,,,5,19,119,15,4,0,4,0,,,,,0,30,30,30,,,,,,down,0.5337389090054785,3177.090272885169,None,001,47,2019_Oct_21_1604,ACPT_experiment_5_30_19,3.1.0,59.952657839172986,
,,,C,U,d,n,L,U,g,L,u,,,,,5,19,119,15,4,0,4,0,,,,,0,31,31,22,,,,,,up,0.7839274189827847,3178.908336759414,None,001,47,2019_Oct_21_1604,ACPT_experiment_5_30_19,3.1.0,59.952657839172986,
,,,C,U,d,n,L,G,y,L,y,,,,,5,19,119,15,4,0,4,0,,,,,0,32,32,34,,,,,,down,0.48344130774057703,3180.9935275725657,None,001,47,2019_Oct_21_1604,ACPT_experiment_5_30_19,3.1.0,59.952657839172986,
,,,C,U,d,n,L,U,y,R,u,,,,,5,19,119,15,4,0,4,0,,,,,0,33,33,25,,,,,,down,0.5504171368120296,3182.7612959585495,None,001,47,2019_Oct_21_1604,ACPT_experiment_5_30_19,3.1.0,59.952657839172986,
,,,C,U,d,n,R,G,y,L,y,,,,,5,19,119,15,4,0,4,0,,,,,0,34,34,28,,,,,,down,0.5837684608450218,3184.612718703269,None,001,47,2019_Oct_21_1604,ACPT_experiment_5_30_19,3.1.0,59.952657839172986,
,,,C,U,d,n,R,U,g,R,u,,,,,5,19,119,15,4,0,4,0,,,,,0,35,35,11,,,,,,up,0.5003776236699196,3186.497497903598,None,001,47,2019_Oct_21_1604,ACPT_experiment_5_30_19,3.1.0,59.952657839172986,
,,,C,U,d,n,L,G,g,R,c ,,,,,5,19,119,15,4,0,4,0,,,,,1,0,36,19,,,,,,up,0.4667558353576169,3188.2991464678744,None,001,47,2019_Oct_21_1604,ACPT_experiment_5_30_19,3.1.0,59.952657839172986,
,,,C,U,d,n,R,D,g,R,i,,,,,5,19,119,15,4,0,4,0,,,,,1,1,37,3,,,,,,up,0.5003818496734311,3190.0502272684716,None,001,47,2019_Oct_21_1604,ACPT_experiment_5_30_19,3.1.0,59.952657839172986,
,,,C,U,d,n,L,U,d,L,u,,,,,5,19,119,15,4,0,4,0,,,,,1,2,38,20,,,,,,up,0.5003860756805807,3191.834919896086,None,001,47,2019_Oct_21_1604,ACPT_experiment_5_30_19,3.1.0,59.952657839172986,
,,,C,U,d,n,R,G,d,R,i,,,,,5,19,119,15,4,0,4,0,,,,,1,3,39,5,,,,,,up,0.48373139275281574,3193.602928258748,None,001,47,2019_Oct_21_1604,ACPT_experiment_5_30_19,3.1.0,59.952657839172986,
,,,C,U,d,n,L,U,g,R,u,,,,,5,19,119,15,4,0,4,0,,,,,1,4,40,23,,,,,,up,0.4834307427336171,3195.387933006965,None,001,47,2019_Oct_21_1604,ACPT_experiment_5_30_19,3.1.0,59.952657839172986,
,,,C,U,d,n,L,D,y,R,y,,,,,5,19,119,15,4,0,4,0,,,,,1,5,41,33,,,,,,down,0.6671762020414462,3197.155682375931,None,001,47,2019_Oct_21_1604,ACPT_experiment_5_30_19,3.1.0,59.952657839172986,
,,,C,U,d,n,R,G,g,L,c ,,,,,5,19,119,15,4,0,4,0,,,,,1,6,42,6,,,,,,up,0.6838562409939186,3199.1071802227816,None,001,47,2019_Oct_21_1604,ACPT_experiment_5_30_19,3.1.0,59.952657839172986,
,,,C,U,d,n,L,G,d,L,i,,,,,5,19,119,15,4,0,4,0,,,,,1,7,43,16,,,,,,down,0.7005411096652097,3201.075359617873,None,001,47,2019_Oct_21_1604,ACPT_experiment_5_30_19,3.1.0,59.952657839172986,
,,,C,U,d,n,R,D,d,L,c,,,,,5,19,119,15,4,0,4,0,,,,,1,8,44,0,,,,,,up,0.5504527559860435,3203.060220863059,None,001,47,2019_Oct_21_1604,ACPT_experiment_5_30_19,3.1.0,59.952657839172986,
,,,C,U,d,n,R,D,y,L,y,,,,,5,19,119,15,4,0,4,0,,,,,1,9,45,26,,,,,,down,0.6171391037605645,3204.894955418673,None,001,47,2019_Oct_21_1604,ACPT_experiment_5_30_19,3.1.0,59.952657839172986,
,,,C,U,d,n,R,D,g,L,i,,,,,5,19,119,15,4,0,4,0,,,,,1,10,46,2,,,,,,up,0.5504198535272735,3206.7964155635273,None,001,47,2019_Oct_21_1604,ACPT_experiment_5_30_19,3.1.0,59.952657839172986,
,,,C,U,d,n,R,D,d,R,c ,,,,,5,19,119,15,4,0,4,0,,,,,1,11,47,1,,,,,,up,0.44701164143771166,3208.651173833063,None,001,47,2019_Oct_21_1604,ACPT_experiment_5_30_19,3.1.0,59.952657839172986,
,,,C,U,d,n,R,U,y,R,u,,,,,5,19,119,15,4,0,4,0,,,,,1,12,48,31,,,,,,down,0.517087244650611,3210.3825037988754,None,001,47,2019_Oct_21_1604,ACPT_experiment_5_30_19,3.1.0,59.952657839172986,
,,,C,U,d,n,R,G,y,R,y,,,,,5,19,119,15,4,0,4,0,,,,,1,13,49,29,,,,,,down,0.5504231739614625,3212.1838903508833,None,001,47,2019_Oct_21_1604,ACPT_experiment_5_30_19,3.1.0,59.952657839172986,
,,,C,U,d,n,L,G,d,R,i,,,,,5,19,119,15,4,0,4,0,,,,,1,14,50,17,,,,,,up,0.6171369907606277,3214.018631547362,None,001,47,2019_Oct_21_1604,ACPT_experiment_5_30_19,3.1.0,59.952657839172986,
,,,C,U,d,n,L,U,y,L,u,,,,,5,19,119,15,4,0,4,0,,,,,1,15,51,24,,,,,,down,0.5337141566888022,3215.920095616366,None,001,47,2019_Oct_21_1604,ACPT_experiment_5_30_19,3.1.0,59.952657839172986,
,,,C,U,d,n,R,U,d,L,u,,,,,5,19,119,15,4,0,4,0,,,,,1,16,52,8,,,,,,up,0.5671074389138084,3217.7381528497463,None,001,47,2019_Oct_21_1604,ACPT_experiment_5_30_19,3.1.0,59.952657839172986,
,,,C,U,d,n,L,D,d,R,c ,,,,,5,19,119,15,4,0,4,0,,,,,1,17,53,13,,,,,,down,0.6004488016551477,3219.589584952042,None,001,47,2019_Oct_21_1604,ACPT_experiment_5_30_19,3.1.0,59.952657839172986,
,,,C,U,d,n,L,G,y,R,y,,,,,5,19,119,15,4,0,4,0,,,,,1,18,54,35,,,,,,down,0.5337349848559825,3221.4910411727506,None,001,47,2019_Oct_21_1604,ACPT_experiment_5_30_19,3.1.0,59.952657839172986,
,,,C,U,d,n,R,G,g,R,c ,,,,,5,19,119,15,4,0,4,0,,,,,1,19,55,7,,,,,,up,0.48369909400571487,3223.3090996135616,None,001,47,2019_Oct_21_1604,ACPT_experiment_5_30_19,3.1.0,59.952657839172986,
,,,C,U,d,n,R,U,g,R,u,,,,,5,19,119,15,4,0,4,0,,,,,1,20,56,11,,,,,,up,0.533735286713636,3225.0604481617156,None,001,47,2019_Oct_21_1604,ACPT_experiment_5_30_19,3.1.0,59.952657839172986,
,,,C,U,d,n,R,U,g,L,u,,,,,5,19,119,15,4,0,4,0,,,,,1,21,57,10,,,,,,up,0.6338224631435878,3226.878502376523,None,001,47,2019_Oct_21_1604,ACPT_experiment_5_30_19,3.1.0,59.952657839172986,
,,,C,U,d,n,L,G,g,L,c ,,,,,5,19,119,15,4,0,4,0,,,,,1,22,58,18,,,,,,up,0.6001083064547856,3228.8136854319346,None,001,47,2019_Oct_21_1604,ACPT_experiment_5_30_19,3.1.0,59.952657839172986,
,,,C,U,d,n,L,D,g,L,i,,,,,5,19,119,15,4,0,4,0,,,,,1,23,59,14,,,,,,up,0.48370181072095875,3230.6981063274725,None,001,47,2019_Oct_21_1604,ACPT_experiment_5_30_19,3.1.0,59.952657839172986,
,,,C,U,d,n,L,D,d,L,c ,,,,,5,19,119,15,4,0,4,0,,,,,1,24,60,12,,,,,,up,0.533764868741855,3232.4494304251784,None,001,47,2019_Oct_21_1604,ACPT_experiment_5_30_19,3.1.0,59.952657839172986,
,,,C,U,d,n,R,G,y,L,y,,,,,5,19,119,15,4,0,4,0,,,,,1,25,61,28,,,,,,down,0.48370090514799813,3234.2675130145835,None,001,47,2019_Oct_21_1604,ACPT_experiment_5_30_19,3.1.0,59.952657839172986,
,,,C,U,d,n,L,D,g,R,i,,,,,5,19,119,15,4,0,4,0,,,,,1,26,62,15,,,,,,up,0.4667775690941198,3236.0524954253488,None,001,47,2019_Oct_21_1604,ACPT_experiment_5_30_19,3.1.0,59.952657839172986,
,,,C,U,d,n,R,U,y,L,u,,,,,5,19,119,15,4,0,4,0,,,,,1,27,63,30,,,,,,down,0.5337367960019037,3237.8035674720813,None,001,47,2019_Oct_21_1604,ACPT_experiment_5_30_19,3.1.0,59.952657839172986,
,,,C,U,d,n,R,G,d,L,i,,,,,5,19,119,15,4,0,4,0,,,,,1,28,64,4,,,,,,up,0.5003969425451942,3239.6216259128923,None,001,47,2019_Oct_21_1604,ACPT_experiment_5_30_19,3.1.0,59.952657839172986,
,,,C,U,d,n,L,U,g,L,u,,,,,5,19,119,15,4,0,4,0,,,,,1,29,65,22,,,,,,up,0.5504201553849271,3241.4063281999443,None,001,47,2019_Oct_21_1604,ACPT_experiment_5_30_19,3.1.0,59.952657839172986,
,,,C,U,d,n,R,D,y,R,y,,,,,5,19,119,15,4,0,4,0,,,,,1,30,66,27,,,,,,down,0.6502773164393147,3243.2746078720775,None,001,47,2019_Oct_21_1604,ACPT_experiment_5_30_19,3.1.0,59.952657839172986,
,,,C,U,d,n,L,G,y,L,y,,,,,5,19,119,15,4,0,4,0,,,,,1,31,67,34,,,,,,down,0.5170552477611636,3245.225928830463,None,001,47,2019_Oct_21_1604,ACPT_experiment_5_30_19,3.1.0,59.952657839172986,
,,,C,U,d,n,L,U,y,R,u,,,,,5,19,119,15,4,0,4,0,,,,,1,32,68,25,,,,,,down,0.6338128037059505,3247.027317193617,None,001,47,2019_Oct_21_1604,ACPT_experiment_5_30_19,3.1.0,59.952657839172986,
,,,C,U,d,n,L,D,y,L,y,,,,,5,19,119,15,4,0,4,0,,,,,1,33,69,32,,,,,,down,0.5837760072827223,3248.945455868139,None,001,47,2019_Oct_21_1604,ACPT_experiment_5_30_19,3.1.0,59.952657839172986,
,,,C,U,d,n,R,U,d,R,u,,,,,5,19,119,15,4,0,4,0,,,,,1,34,70,9,,,,,,down,0.6336670065575163,3250.8304041086412,None,001,47,2019_Oct_21_1604,ACPT_experiment_5_30_19,3.1.0,59.952657839172986,
,,,C,U,d,n,L,U,d,R,u,,,,,5,19,119,15,4,0,4,0,,,,,1,35,71,21,,,,,,up,0.58377751657099,3252.748375252275,None,001,47,2019_Oct_21_1604,ACPT_experiment_5_30_19,3.1.0,59.952657839172986,
,,,C,U,d,n,,,,,,,,,,5,19,119,15,5,0,5,0,0,0,0,0,,,,,,,,,,,,,,001,47,2019_Oct_21_1604,ACPT_experiment_5_30_19,3.1.0,59.952657839172986,
,,,C,U,d,n,L,U,g,L,u,,,,,5,19,119,15,5,0,5,0,,,,,0,0,0,22,,,,,,up,0.6168653190543409,3263.2066769660414,None,001,47,2019_Oct_21_1604,ACPT_experiment_5_30_19,3.1.0,59.952657839172986,
,,,C,U,d,n,R,U,d,R,u,,,,,5,19,119,15,5,0,5,0,,,,,0,1,1,9,,,,,,up,0.400299502962298,3265.1078681559084,None,001,47,2019_Oct_21_1604,ACPT_experiment_5_30_19,3.1.0,59.952657839172986,
,,,C,U,d,n,L,U,g,R,u,,,,,5,19,119,15,5,0,5,0,,,,,0,2,2,23,,,,,,up,0.45034143095836043,3266.7924926241103,None,001,47,2019_Oct_21_1604,ACPT_experiment_5_30_19,3.1.0,59.952657839172986,
,,,C,U,d,n,L,U,d,L,u,,,,,5,19,119,15,5,0,5,0,,,,,0,3,3,20,,,,,,up,0.6171457446253044,3268.510482905509,None,001,47,2019_Oct_21_1604,ACPT_experiment_5_30_19,3.1.0,59.952657839172986,
,,,C,U,d,n,R,D,y,R,y,,,,,5,19,119,15,5,0,5,0,,,,,0,4,4,27,,,,,,down,0.5333398534567095,3270.42899678884,None,001,47,2019_Oct_21_1604,ACPT_experiment_5_30_19,3.1.0,59.952657839172986,
,,,C,U,d,n,R,D,y,L,y,,,,,5,19,119,15,5,0,5,0,,,,,0,5,5,26,,,,,,down,0.500388490538171,3272.246682133842,None,001,47,2019_Oct_21_1604,ACPT_experiment_5_30_19,3.1.0,59.952657839172986,
,,,C,U,d,n,R,G,y,R,y,,,,,5,19,119,15,5,0,5,0,,,,,0,6,6,29,,,,,,down,0.5504228721038089,3274.031390156186,None,001,47,2019_Oct_21_1604,ACPT_experiment_5_30_19,3.1.0,59.952657839172986,
,,,C,U,d,n,L,G,d,R,i,,,,,5,19,119,15,5,0,5,0,,,,,0,7,7,17,,,,,,up,0.5670995906220924,3275.866130145234,None,001,47,2019_Oct_21_1604,ACPT_experiment_5_30_19,3.1.0,59.952657839172986,
,,,C,U,d,n,L,G,y,L,y,,,,,5,19,119,15,5,0,5,0,,,,,0,8,8,34,,,,,,down,0.7002667212400411,3277.717819128222,None,001,47,2019_Oct_21_1604,ACPT_experiment_5_30_19,3.1.0,59.952657839172986,
,,,C,U,d,n,R,D,d,L,c,,,,,5,19,119,15,5,0,5,0,,,,,0,9,9,0,,,,,,up,0.5670956664725963,3279.7024099091323,None,001,47,2019_Oct_21_1604,ACPT_experiment_5_30_19,3.1.0,59.952657839172986,
,,,C,U,d,n,L,D,g,L,i,,,,,5,19,119,15,5,0,5,0,,,,,0,10,10,14,,,,,,up,0.5170588700493681,3281.5538338612823,None,001,47,2019_Oct_21_1604,ACPT_experiment_5_30_19,3.1.0,59.952657839172986,
,,,C,U,d,n,R,G,g,L,c ,,,,,5,19,119,15,5,0,5,0,,,,,0,11,11,6,,,,,,up,0.533739210859494,3283.3552161872867,None,001,47,2019_Oct_21_1604,ACPT_experiment_5_30_19,3.1.0,59.952657839172986,
,,,C,U,d,n,R,D,g,R,i,,,,,5,19,119,15,5,0,5,0,,,,,0,12,12,3,,,,,,up,0.5837817425745015,3285.173278250386,None,001,47,2019_Oct_21_1604,ACPT_experiment_5_30_19,3.1.0,59.952657839172986,
,,,C,U,d,n,R,D,g,L,i,,,,,5,19,119,15,5,0,5,0,,,,,0,13,13,2,,,,,,up,0.5337603408806899,3287.024681072511,None,001,47,2019_Oct_21_1604,ACPT_experiment_5_30_19,3.1.0,59.952657839172986,
,,,C,U,d,n,L,G,d,L,i,,,,,5,19,119,15,5,0,5,0,,,,,0,14,14,16,,,,,,up,0.7672833010656177,3288.842739211461,None,001,47,2019_Oct_21_1604,ACPT_experiment_5_30_19,3.1.0,59.952657839172986,
,,,C,U,d,n,R,G,g,R,c ,,,,,5,19,119,15,5,0,5,0,,,,,0,15,15,7,,,,,,up,0.5835070522953174,3290.9112892271296,None,001,47,2019_Oct_21_1604,ACPT_experiment_5_30_19,3.1.0,59.952657839172986,
,,,C,U,d,n,L,D,d,L,c ,,,,,5,19,119,15,5,0,5,0,,,,,0,16,16,12,,,,,,up,0.48370090514799813,3292.7791136982305,None,001,47,2019_Oct_21_1604,ACPT_experiment_5_30_19,3.1.0,59.952657839172986,
,,,C,U,d,n,L,U,d,R,u,,,,,5,19,119,15,5,0,5,0,,,,,0,17,17,21,,,,,,up,0.5504219665308483,3294.5471371537606,None,001,47,2019_Oct_21_1604,ACPT_experiment_5_30_19,3.1.0,59.952657839172986,
,,,C,U,d,n,L,D,y,L,y,,,,,5,19,119,15,5,0,5,0,,,,,0,18,18,32,,,,,,down,0.6004605740999978,3296.381882576243,None,001,47,2019_Oct_21_1604,ACPT_experiment_5_30_19,3.1.0,59.952657839172986,
,,,C,U,d,n,R,G,y,L,y,,,,,5,19,119,15,5,0,5,0,,,,,0,19,19,28,,,,,,down,0.5001373451414111,3298.283587829348,None,001,47,2019_Oct_21_1604,ACPT_experiment_5_30_19,3.1.0,59.952657839172986,
,,,C,U,d,n,R,U,d,L,u,,,,,5,19,119,15,5,0,5,0,,,,,0,20,20,8,,,,,,up,0.5670941571879666,3300.0680534601597,None,001,47,2019_Oct_21_1604,ACPT_experiment_5_30_19,3.1.0,59.952657839172986,
,,,C,U,d,n,L,D,g,R,i,,,,,5,19,119,15,5,0,5,0,,,,,0,21,21,15,,,,,,up,0.5504225702425174,3301.919466545438,None,001,47,2019_Oct_21_1604,ACPT_experiment_5_30_19,3.1.0,59.952657839172986,
,,,C,U,d,n,L,G,g,L,c ,,,,,5,19,119,15,5,0,5,0,,,,,0,22,22,18,,,,,,up,0.4837039237245335,3303.7542104586355,None,001,47,2019_Oct_21_1604,ACPT_experiment_5_30_19,3.1.0,59.952657839172986,
,,,C,U,d,n,L,D,d,R,c ,,,,,5,19,119,15,5,0,5,0,,,,,0,23,23,13,,,,,,up,0.5500509837256686,3305.539171437522,None,001,47,2019_Oct_21_1604,ACPT_experiment_5_30_19,3.1.0,59.952657839172986,
,,,C,U,d,n,R,U,y,R,u,,,,,5,19,119,15,5,0,5,0,,,,,0,24,24,31,,,,,,down,0.5337543037348951,3307.3736608848885,None,001,47,2019_Oct_21_1604,ACPT_experiment_5_30_19,3.1.0,59.952657839172986,
,,,C,U,d,n,R,G,d,L,i,,,,,5,19,119,15,5,0,5,0,,,,,0,25,25,4,,,,,,up,0.6171336703264387,3309.191719929411,None,001,47,2019_Oct_21_1604,ACPT_experiment_5_30_19,3.1.0,59.952657839172986,
,,,C,U,d,n,L,U,y,R,u,,,,,5,19,119,15,5,0,5,0,,,,,0,26,26,25,,,,,,down,0.5003598140829126,3311.093185809561,None,001,47,2019_Oct_21_1604,ACPT_experiment_5_30_19,3.1.0,59.952657839172986,
,,,C,U,d,n,L,G,g,R,c ,,,,,5,19,119,15,5,0,5,0,,,,,0,27,27,19,,,,,,up,0.6502413954040094,3312.8948180735315,None,001,47,2019_Oct_21_1604,ACPT_experiment_5_30_19,3.1.0,59.952657839172986,
,,,C,U,d,n,L,U,y,L,u,,,,,5,19,119,15,5,0,5,0,,,,,0,28,28,24,,,,,,down,0.5504204572389426,3314.82938383046,None,001,47,2019_Oct_21_1604,ACPT_experiment_5_30_19,3.1.0,59.952657839172986,
,,,C,U,d,n,L,G,y,R,y,,,,,5,19,119,15,5,0,5,0,,,,,0,29,29,35,,,,,,down,0.5003749069510377,3316.6808080844676,None,001,47,2019_Oct_21_1604,ACPT_experiment_5_30_19,3.1.0,59.952657839172986,
,,,C,U,d,n,R,U,g,R,u,,,,,5,19,119,15,5,0,5,0,,,,,0,30,30,11,,,,,,up,0.6504892203702184,3318.482190410472,None,001,47,2019_Oct_21_1604,ACPT_experiment_5_30_19,3.1.0,59.952657839172986,
,,,C,U,d,n,L,D,y,R,y,,,,,5,19,119,15,5,0,5,0,,,,,0,31,31,33,,,,,,down,0.5504216646731948,3320.41700821837,None,001,47,2019_Oct_21_1604,ACPT_experiment_5_30_19,3.1.0,59.952657839172986,
,,,C,U,d,n,R,G,d,R,i,,,,,5,19,119,15,5,0,5,0,,,,,0,32,32,5,,,,,,up,0.5504138163778407,3322.2517524334216,None,001,47,2019_Oct_21_1604,ACPT_experiment_5_30_19,3.1.0,59.952657839172986,
,,,C,U,d,n,R,U,g,L,u,,,,,5,19,119,15,5,0,5,0,,,,,0,33,33,10,,,,,,up,0.5837778184286435,3324.086493026185,None,001,47,2019_Oct_21_1604,ACPT_experiment_5_30_19,3.1.0,59.952657839172986,
,,,C,U,d,n,R,D,d,R,c ,,,,,5,19,119,15,5,0,5,0,,,,,0,34,34,1,,,,,,up,0.6502250950979942,3325.9715435963662,None,001,47,2019_Oct_21_1604,ACPT_experiment_5_30_19,3.1.0,59.952657839172986,
,,,C,U,d,n,R,U,y,L,u,,,,,5,19,119,15,5,0,5,0,,,,,0,35,35,30,,,,,,down,0.6505163875372091,3327.9060728285403,None,001,47,2019_Oct_21_1604,ACPT_experiment_5_30_19,3.1.0,59.952657839172986,
,,,C,U,d,n,L,U,g,L,u,,,,,5,19,119,15,5,0,5,0,,,,,1,0,36,22,,,,,,up,0.6171412167641392,3329.8409114646056,None,001,47,2019_Oct_21_1604,ACPT_experiment_5_30_19,3.1.0,59.952657839172986,
,,,C,U,d,n,L,U,d,R,u,,,,,5,19,119,15,5,0,5,0,,,,,1,1,37,21,,,,,,up,0.5170691332059505,3331.7256737609205,None,001,47,2019_Oct_21_1604,ACPT_experiment_5_30_19,3.1.0,59.952657839172986,
,,,C,U,d,n,R,D,y,L,y,,,,,5,19,119,15,5,0,5,0,,,,,1,2,38,26,,,,,,down,0.9340522974089254,3333.5270760095154,None,001,47,2019_Oct_21_1604,ACPT_experiment_5_30_19,3.1.0,59.952657839172986,
,,,C,U,d,n,R,U,d,R,u,,,,,5,19,119,15,5,0,5,0,,,,,1,3,39,9,,,,,,up,1.0007670197774132,3335.7454454238687,None,001,47,2019_Oct_21_1604,ACPT_experiment_5_30_19,3.1.0,59.952657839172986,
,,,C,U,d,n,L,D,g,R,i,,,,,5,19,119,15,5,0,5,0,,,,,1,4,40,15,,,,,,up,0.550415627520124,3338.0305380126047,None,001,47,2019_Oct_21_1604,ACPT_experiment_5_30_19,3.1.0,59.952657839172986,
,,,C,U,d,n,R,G,d,R,i,,,,,5,19,119,15,5,0,5,0,,,,,1,5,41,5,,,,,,up,0.6004575555234624,3339.865276492368,None,001,47,2019_Oct_21_1604,ACPT_experiment_5_30_19,3.1.0,59.952657839172986,
,,,C,U,d,n,R,U,d,L,u,,,,,5,19,119,15,5,0,5,0,,,,,1,6,42,8,,,,,,down,0.5504189479543129,3341.7500587112736,None,001,47,2019_Oct_21_1604,ACPT_experiment_5_30_19,3.1.0,59.952657839172986,
,,,C,U,d,n,L,G,y,L,y,,,,,5,19,119,15,5,0,5,0,,,,,1,7,43,34,,,,,,down,0.683855335420958,3343.5847990021794,None,001,47,2019_Oct_21_1604,ACPT_experiment_5_30_19,3.1.0,59.952657839172986,
,,,C,U,d,n,R,G,g,R,c ,,,,,5,19,119,15,5,0,5,0,,,,,1,8,44,7,,,,,,up,0.5837805351438874,3345.5529796046976,None,001,47,2019_Oct_21_1604,ACPT_experiment_5_30_19,3.1.0,59.952657839172986,
,,,C,U,d,n,L,G,g,L,c ,,,,,5,19,119,15,5,0,5,0,,,,,1,9,45,18,,,,,,up,0.5504243813884386,3347.4210778605047,None,001,47,2019_Oct_21_1604,ACPT_experiment_5_30_19,3.1.0,59.952657839172986,
,,,C,U,d,n,R,D,d,R,c ,,,,,5,19,119,15,5,0,5,0,,,,,1,10,46,1,,,,,,up,0.5170624923412106,3349.255821169987,None,001,47,2019_Oct_21_1604,ACPT_experiment_5_30_19,3.1.0,59.952657839172986,
,,,C,U,d,n,R,U,g,R,u,,,,,5,19,119,15,5,0,5,0,,,,,1,11,47,11,,,,,,up,0.5137296842403885,3351.0772157393294,None,001,47,2019_Oct_21_1604,ACPT_experiment_5_30_19,3.1.0,59.952657839172986,
,,,C,U,d,n,R,G,d,L,i,,,,,5,19,119,15,5,0,5,0,,,,,1,12,48,4,,,,,,up,0.6838628818550205,3352.875269181379,None,001,47,2019_Oct_21_1604,ACPT_experiment_5_30_19,3.1.0,59.952657839172986,
,,,C,U,d,n,L,G,g,R,c ,,,,,5,19,119,15,5,0,5,0,,,,,1,13,49,19,,,,,,up,0.6671701648920134,3354.8434500857547,None,001,47,2019_Oct_21_1604,ACPT_experiment_5_30_19,3.1.0,59.952657839172986,
,,,C,U,d,n,R,D,g,L,i,,,,,5,19,119,15,5,0,5,0,,,,,1,14,50,2,,,,,,up,0.5003797366698564,3356.7949482344666,None,001,47,2019_Oct_21_1604,ACPT_experiment_5_30_19,3.1.0,59.952657839172986,
,,,C,U,d,n,R,D,g,R,i,,,,,5,19,119,15,5,0,5,0,,,,,1,15,51,3,,,,,,up,0.5838025707380439,3358.5629472395412,None,001,47,2019_Oct_21_1604,ACPT_experiment_5_30_19,3.1.0,59.952657839172986,
,,,C,U,d,n,L,G,y,R,y,,,,,5,19,119,15,5,0,5,0,,,,,1,16,52,35,,,,,,down,0.5504192498119664,3360.431070549519,None,001,47,2019_Oct_21_1604,ACPT_experiment_5_30_19,3.1.0,59.952657839172986,
,,,C,U,d,n,R,U,g,L,u,,,,,5,19,119,15,5,0,5,0,,,,,1,17,53,10,,,,,,up,0.5003782273852266,3362.2658141608554,None,001,47,2019_Oct_21_1604,ACPT_experiment_5_30_19,3.1.0,59.952657839172986,
,,,C,U,d,n,L,G,d,L,i,,,,,5,19,119,15,5,0,5,0,,,,,1,18,54,16,,,,,,down,0.6002541035995819,3364.0673619047448,None,001,47,2019_Oct_21_1604,ACPT_experiment_5_30_19,3.1.0,59.952657839172986,
,,,C,U,d,n,L,D,y,L,y,,,,,5,19,119,15,5,0,5,0,,,,,1,19,55,32,,,,,,down,0.6004542350929114,3365.9686581410024,None,001,47,2019_Oct_21_1604,ACPT_experiment_5_30_19,3.1.0,59.952657839172986,
,,,C,U,d,n,L,G,d,R,i,,,,,5,19,119,15,5,0,5,0,,,,,1,20,56,17,,,,,,down,0.6004536313739663,3367.8534346246197,None,001,47,2019_Oct_21_1604,ACPT_experiment_5_30_19,3.1.0,59.952657839172986,
,,,C,U,d,n,L,D,g,L,i,,,,,5,19,119,15,5,0,5,0,,,,,1,21,57,14,,,,,,up,0.6338094832753995,3369.7382219751016,None,001,47,2019_Oct_21_1604,ACPT_experiment_5_30_19,3.1.0,59.952657839172986,
,,,C,U,d,n,R,G,y,L,y,,,,,5,19,119,15,5,0,5,0,,,,,1,22,58,28,,,,,,down,0.633819746424706,3371.656358234759,None,001,47,2019_Oct_21_1604,ACPT_experiment_5_30_19,3.1.0,59.952657839172986,
,,,C,U,d,n,L,D,y,R,y,,,,,5,19,119,15,5,0,5,0,,,,,1,23,59,33,,,,,,down,1.0675167576155218,3373.574496909281,None,001,47,2019_Oct_21_1604,ACPT_experiment_5_30_19,3.1.0,59.952657839172986,
,,,C,U,d,n,L,U,y,R,u,,,,,5,19,119,15,5,0,5,0,,,,,1,24,60,25,,,,,,down,0.5837705738485965,3375.9263117668233,None,001,47,2019_Oct_21_1604,ACPT_experiment_5_30_19,3.1.0,59.952657839172986,
