facing_vig,person_vig,text_vig,facing_train,person_train,food_train,correct_key_train,facing_exp,person_exp,food_exp,showL_R,consistent,vig_random.thisRepN,vig_random.thisTrialN,vig_random.thisN,vig_random.thisIndex,trainTrials.thisRepN,trainTrials.thisTrialN,trainTrials.thisN,trainTrials.thisIndex,expBlock.thisRepN,expBlock.thisTrialN,expBlock.thisN,expBlock.thisIndex,breakLoop.thisRepN,breakLoop.thisTrialN,breakLoop.thisN,breakLoop.thisIndex,expTrials.thisRepN,expTrials.thisTrialN,expTrials.thisN,expTrials.thisIndex,train_resp.keys,train_resp.corr,train_resp.rt,train_resp.started,train_resp.stopped,exp_resp.keys,exp_resp.rt,exp_resp.started,exp_resp.stopped,session,participant,date,expName,psychopyVersion,frameRate,
C,U,"did not report her food preferences, so her food preferences are unknown.",,,,,,,,,,0,0,0,2,,,,,,,,,,,,,,,,,,,,,,,,,,001,48,2019_Oct_21_1704,ACPT_experiment_5_30_19,3.1.0,59.950162505621485,
C,D,"is allergic to gluten, meaning she can’t eat wheat products. She enjoys eating dairy products. She thinks eating insects, like crickets, is disgusting.",,,,,,,,,,0,1,1,1,,,,,,,,,,,,,,,,,,,,,,,,,,001,48,2019_Oct_21_1704,ACPT_experiment_5_30_19,3.1.0,59.950162505621485,
C,G,"cannot eat dairy products because she is lactose intolerant. She enjoys eating wheat products. She thinks eating insects, like crickets, is disgusting.",,,,,,,,,,0,2,2,0,,,,,,,,,,,,,,,,,,,,,,,,,,001,48,2019_Oct_21_1704,ACPT_experiment_5_30_19,3.1.0,59.950162505621485,
,,,C,D,g,b,,,,,,,,,,0,0,0,10,,,,,,,,,,,,,v,0,5.27050291262276,1351.8202888655032,None,,,,,001,48,2019_Oct_21_1704,ACPT_experiment_5_30_19,3.1.0,59.950162505621485,
,,,C,G,d,b,,,,,,,,,,0,1,1,3,,,,,,,,,,,,,v,0,2.1850337869036593,1360.376642330917,None,,,,,001,48,2019_Oct_21_1704,ACPT_experiment_5_30_19,3.1.0,59.950162505621485,
,,,C,G,d,b,,,,,,,,,,0,2,2,12,,,,,,,,,,,,,v,0,3.1190888010278286,1365.8308339536488,None,,,,,001,48,2019_Oct_21_1704,ACPT_experiment_5_30_19,3.1.0,59.950162505621485,
,,,C,G,g,v,,,,,,,,,,0,3,3,13,,,,,,,,,,,,,b,0,1.6179212164133787,1372.2190817979354,None,,,,,001,48,2019_Oct_21_1704,ACPT_experiment_5_30_19,3.1.0,59.950162505621485,
,,,C,G,y,b,,,,,,,,,,0,4,4,14,,,,,,,,,,,,,n,0,1.4344462213775842,1377.1061711133298,None,,,,,001,48,2019_Oct_21_1704,ACPT_experiment_5_30_19,3.1.0,59.950162505621485,
,,,C,D,y,b,,,,,,,,,,0,5,5,2,,,,,,,,,,,,,b,1,1.6346060850846698,1381.8264648689255,None,,,,,001,48,2019_Oct_21_1704,ACPT_experiment_5_30_19,3.1.0,59.950162505621485,
,,,C,D,d,v,,,,,,,,,,0,6,6,18,,,,,,,,,,,,,b,0,0.9841259204404196,1386.7469187900824,None,,,,,001,48,2019_Oct_21_1704,ACPT_experiment_5_30_19,3.1.0,59.950162505621485,
,,,C,D,g,b,,,,,,,,,,0,7,7,1,,,,,,,,,,,,,v,0,0.8670704311916779,1391.0338134677913,None,,,,,001,48,2019_Oct_21_1704,ACPT_experiment_5_30_19,3.1.0,59.950162505621485,
,,,C,U,g,n,,,,,,,,,,0,8,8,7,,,,,,,,,,,,,v,0,1.3510523656259465,1395.1867374703506,None,,,,,001,48,2019_Oct_21_1704,ACPT_experiment_5_30_19,3.1.0,59.950162505621485,
,,,C,U,y,n,,,,,,,,,,0,9,9,17,,,,,,,,,,,,,n,1,1.0839151635664166,1399.8239017973174,None,,,,,001,48,2019_Oct_21_1704,ACPT_experiment_5_30_19,3.1.0,59.950162505621485,
,,,C,D,y,b,,,,,,,,,,0,10,10,11,,,,,,,,,,,,,n,0,1.2843391525384504,1404.1936599672408,None,,,,,001,48,2019_Oct_21_1704,ACPT_experiment_5_30_19,3.1.0,59.950162505621485,
,,,C,U,d,n,,,,,,,,,,0,11,11,15,,,,,,,,,,,,,b,0,2.1850428426296276,1408.7638363908482,None,,,,,001,48,2019_Oct_21_1704,ACPT_experiment_5_30_19,3.1.0,59.950162505621485,
,,,C,G,g,v,,,,,,,,,,0,12,12,4,,,,,,,,,,,,,b,0,1.6679685778472049,1414.234716806397,None,,,,,001,48,2019_Oct_21_1704,ACPT_experiment_5_30_19,3.1.0,59.950162505621485,
,,,C,U,d,n,,,,,,,,,,0,13,13,6,,,,,,,,,,,,,b,0,0.9841078089921211,1419.18852597574,None,,,,,001,48,2019_Oct_21_1704,ACPT_experiment_5_30_19,3.1.0,59.950162505621485,
,,,C,D,d,v,,,,,,,,,,0,14,14,0,,,,,,,,,,,,,v,1,0.8337363130267477,1423.4753952974243,None,,,,,001,48,2019_Oct_21_1704,ACPT_experiment_5_30_19,3.1.0,59.950162505621485,
,,,C,U,y,n,,,,,,,,,,0,15,15,8,,,,,,,,,,,,,n,1,0.8339886658577598,1427.594990313395,None,,,,,001,48,2019_Oct_21_1704,ACPT_experiment_5_30_19,3.1.0,59.950162505621485,
,,,C,D,d,v,,,,,,,,,,0,16,16,9,,,,,,,,,,,,,v,1,2.084700596649782,1431.7317522643825,None,,,,,001,48,2019_Oct_21_1704,ACPT_experiment_5_30_19,3.1.0,59.950162505621485,
,,,C,G,y,b,,,,,,,,,,0,17,17,5,,,,,,,,,,,,,b,1,1.1509248006695998,1437.1022997915352,None,,,,,001,48,2019_Oct_21_1704,ACPT_experiment_5_30_19,3.1.0,59.950162505621485,
,,,C,U,g,n,,,,,,,,,,0,18,18,16,,,,,,,,,,,,,v,0,1.4841062997038534,1441.5561113757394,None,,,,,001,48,2019_Oct_21_1704,ACPT_experiment_5_30_19,3.1.0,59.950162505621485,
,,,C,G,g,v,,,,,,,,,,0,19,19,19,,,,,,,,,,,,,b,0,1.300995344754483,1446.3260670208037,None,,,,,001,48,2019_Oct_21_1704,ACPT_experiment_5_30_19,3.1.0,59.950162505621485,
,,,C,D,d,v,,,,,,,,,,1,0,20,18,,,,,,,,,,,,,v,1,0.9171811826890917,1450.929833235834,None,,,,,001,48,2019_Oct_21_1704,ACPT_experiment_5_30_19,3.1.0,59.950162505621485,
,,,C,D,d,v,,,,,,,,,,1,1,21,0,,,,,,,,,,,,,v,1,1.3844314605521504,1455.116125466444,None,,,,,001,48,2019_Oct_21_1704,ACPT_experiment_5_30_19,3.1.0,59.950162505621485,
,,,C,D,d,v,,,,,,,,,,1,2,22,9,,,,,,,,,,,,,v,1,1.4343287988303928,1459.7864228745166,None,,,,,001,48,2019_Oct_21_1704,ACPT_experiment_5_30_19,3.1.0,59.950162505621485,
,,,C,G,g,v,,,,,,,,,,1,3,23,4,,,,,,,,,,,,,b,0,2.4019373814844585,1464.5067217616888,None,,,,,001,48,2019_Oct_21_1704,ACPT_experiment_5_30_19,3.1.0,59.950162505621485,
,,,C,G,y,b,,,,,,,,,,1,4,24,5,,,,,,,,,,,,,b,1,1.0341838468812057,1470.1777176678988,None,,,,,001,48,2019_Oct_21_1704,ACPT_experiment_5_30_19,3.1.0,59.950162505621485,
,,,C,U,g,n,,,,,,,,,,1,5,25,7,,,,,,,,,,,,,n,1,3.802706574635522,1474.514663933045,None,,,,,001,48,2019_Oct_21_1704,ACPT_experiment_5_30_19,3.1.0,59.950162505621485,
,,,C,D,g,b,,,,,,,,,,1,6,26,1,,,,,,,,,,,,,v,0,1.1342326874182618,1481.6031963081623,None,,,,,001,48,2019_Oct_21_1704,ACPT_experiment_5_30_19,3.1.0,59.950162505621485,
,,,C,U,g,n,,,,,,,,,,1,7,27,16,,,,,,,,,,,,,v,0,1.6677138101586024,1486.0401684726785,None,,,,,001,48,2019_Oct_21_1704,ACPT_experiment_5_30_19,3.1.0,59.950162505621485,
,,,C,G,d,b,,,,,,,,,,1,8,28,12,,,,,,,,,,,,,n,0,1.3177224734681658,1490.9937403820659,None,,,,,001,48,2019_Oct_21_1704,ACPT_experiment_5_30_19,3.1.0,59.950162505621485,
,,,C,U,d,n,,,,,,,,,,1,9,29,6,,,,,,,,,,,,,b,0,2.965675185685541,1495.617275543329,None,,,,,001,48,2019_Oct_21_1704,ACPT_experiment_5_30_19,3.1.0,59.950162505621485,
,,,C,U,y,n,,,,,,,,,,1,10,30,8,,,,,,,,,,,,,b,0,1.617672485874209,1503.220067664366,None,,,,,001,48,2019_Oct_21_1704,ACPT_experiment_5_30_19,3.1.0,59.950162505621485,
,,,C,G,y,b,,,,,,,,,,1,11,31,14,,,,,,,,,,,,,b,1,0.8840275752809248,1508.1235674600066,None,,,,,001,48,2019_Oct_21_1704,ACPT_experiment_5_30_19,3.1.0,59.950162505621485,
,,,C,U,d,n,,,,,,,,,,1,12,32,15,,,,,,,,,,,,,n,1,1.150657053109171,1512.3103583591255,None,,,,,001,48,2019_Oct_21_1704,ACPT_experiment_5_30_19,3.1.0,59.950162505621485,
,,,C,U,y,n,,,,,,,,,,1,13,33,17,,,,,,,,,,,,,b,0,0.9007067086604366,1516.7468596260223,None,,,,,001,48,2019_Oct_21_1704,ACPT_experiment_5_30_19,3.1.0,59.950162505621485,
,,,C,G,d,b,,,,,,,,,,1,14,34,3,,,,,,,,,,,,,b,1,1.6512818980336306,1520.9501105100135,None,,,,,001,48,2019_Oct_21_1704,ACPT_experiment_5_30_19,3.1.0,59.950162505621485,
,,,C,D,g,b,,,,,,,,,,1,15,35,10,,,,,,,,,,,,,n,0,3.302560475633072,1525.887223038244,None,,,,,001,48,2019_Oct_21_1704,ACPT_experiment_5_30_19,3.1.0,59.950162505621485,
,,,C,G,g,v,,,,,,,,,,1,16,36,13,,,,,,,,,,,,,v,1,3.5360837376720156,1532.4756198793657,None,,,,,001,48,2019_Oct_21_1704,ACPT_experiment_5_30_19,3.1.0,59.950162505621485,
,,,C,G,g,v,,,,,,,,,,1,17,37,19,,,,,,,,,,,,,v,1,1.2509989972313633,1539.280848472994,None,,,,,001,48,2019_Oct_21_1704,ACPT_experiment_5_30_19,3.1.0,59.950162505621485,
,,,C,D,y,b,,,,,,,,,,1,18,38,11,,,,,,,,,,,,,n,0,1.7176180911628762,1543.834602040195,None,,,,,001,48,2019_Oct_21_1704,ACPT_experiment_5_30_19,3.1.0,59.950162505621485,
,,,C,D,y,b,,,,,,,,,,1,19,39,2,,,,,,,,,,,,,b,1,0.78412513560761,1548.8213628743106,None,,,,,001,48,2019_Oct_21_1704,ACPT_experiment_5_30_19,3.1.0,59.950162505621485,
,,,C,U,g,n,,,,,,,,,,2,0,40,16,,,,,,,,,,,,,n,1,2.051159102422389,1552.9083992439082,None,,,,,001,48,2019_Oct_21_1704,ACPT_experiment_5_30_19,3.1.0,59.950162505621485,
,,,C,G,g,v,,,,,,,,,,2,1,41,13,,,,,,,,,,,,,b,0,2.685548151996045,1558.2621441779847,None,,,,,001,48,2019_Oct_21_1704,ACPT_experiment_5_30_19,3.1.0,59.950162505621485,
,,,C,D,g,b,,,,,,,,,,2,2,42,10,,,,,,,,,,,,,b,1,0.9340456565441855,1564.2500891988748,None,,,,,001,48,2019_Oct_21_1704,ACPT_experiment_5_30_19,3.1.0,59.950162505621485,
,,,C,D,d,v,,,,,,,,,,2,3,43,18,,,,,,,,,,,,,v,1,0.8307406796993746,1568.4899641453703,None,,,,,001,48,2019_Oct_21_1704,ACPT_experiment_5_30_19,3.1.0,59.950162505621485,
,,,C,U,d,n,,,,,,,,,,2,4,44,15,,,,,,,,,,,,,b,0,2.8521988202228385,1572.6231505948708,None,,,,,001,48,2019_Oct_21_1704,ACPT_experiment_5_30_19,3.1.0,59.950162505621485,
,,,C,U,g,n,,,,,,,,,,2,5,45,7,,,,,,,,,,,,,n,1,0.9842690008699719,1578.7611939307317,None,,,,,001,48,2019_Oct_21_1704,ACPT_experiment_5_30_19,3.1.0,59.950162505621485,
,,,C,D,y,b,,,,,,,,,,2,6,46,11,,,,,,,,,,,,,n,0,0.9671760209275817,1583.0480822694371,None,,,,,001,48,2019_Oct_21_1704,ACPT_experiment_5_30_19,3.1.0,59.950162505621485,
,,,C,U,d,n,,,,,,,,,,2,7,47,6,,,,,,,,,,,,,n,1,2.9023783952179656,1587.3010871094193,None,,,,,001,48,2019_Oct_21_1704,ACPT_experiment_5_30_19,3.1.0,59.950162505621485,
,,,C,G,d,b,,,,,,,,,,2,8,48,12,,,,,,,,,,,,,b,1,1.8014315287691716,1593.489177806714,None,,,,,001,48,2019_Oct_21_1704,ACPT_experiment_5_30_19,3.1.0,59.950162505621485,
,,,C,D,g,b,,,,,,,,,,2,9,49,1,,,,,,,,,,,,,b,1,1.1008572147875384,1598.5764197412354,None,,,,,001,48,2019_Oct_21_1704,ACPT_experiment_5_30_19,3.1.0,59.950162505621485,
,,,C,G,y,b,,,,,,,,,,2,10,50,5,,,,,,,,,,,,,b,1,1.7843147020867036,1602.9801824547176,None,,,,,001,48,2019_Oct_21_1704,ACPT_experiment_5_30_19,3.1.0,59.950162505621485,
,,,C,D,y,b,,,,,,,,,,2,11,51,2,,,,,,,,,,,,,b,1,1.2009344299185614,1608.050368537759,None,,,,,001,48,2019_Oct_21_1704,ACPT_experiment_5_30_19,3.1.0,59.950162505621485,
,,,C,U,y,n,,,,,,,,,,2,12,52,17,,,,,,,,,,,,,n,1,0.6505529122878215,1612.5371526148992,None,,,,,001,48,2019_Oct_21_1704,ACPT_experiment_5_30_19,3.1.0,59.950162505621485,
,,,C,G,d,b,,,,,,,,,,2,13,53,3,,,,,,,,,,,,,b,1,2.25174398141462,1616.4735050660747,None,,,,,001,48,2019_Oct_21_1704,ACPT_experiment_5_30_19,3.1.0,59.950162505621485,
,,,C,G,g,v,,,,,,,,,,2,14,54,4,,,,,,,,,,,,,v,1,1.667984878149582,1622.0111017132804,None,,,,,001,48,2019_Oct_21_1704,ACPT_experiment_5_30_19,3.1.0,59.950162505621485,
,,,C,D,d,v,,,,,,,,,,2,15,55,0,,,,,,,,,,,,,v,1,0.6672386865320732,1626.964878885734,None,,,,,001,48,2019_Oct_21_1704,ACPT_experiment_5_30_19,3.1.0,59.950162505621485,
,,,C,G,y,b,,,,,,,,,,2,16,56,14,,,,,,,,,,,,,b,1,2.1349755586015817,1630.934630052565,None,,,,,001,48,2019_Oct_21_1704,ACPT_experiment_5_30_19,3.1.0,59.950162505621485,
,,,C,U,y,n,,,,,,,,,,2,17,57,8,,,,,,,,,,,,,n,1,0.8006258712375711,1636.355451032381,None,,,,,001,48,2019_Oct_21_1704,ACPT_experiment_5_30_19,3.1.0,59.950162505621485,
,,,C,G,g,v,,,,,,,,,,2,18,58,19,,,,,,,,,,,,,v,1,1.2506926119203854,1640.4588858079296,None,,,,,001,48,2019_Oct_21_1704,ACPT_experiment_5_30_19,3.1.0,59.950162505621485,
,,,C,D,d,v,,,,,,,,,,2,19,59,9,,,,,,,,,,,,,v,1,0.6838668060045165,1644.9954280670681,None,,,,,001,48,2019_Oct_21_1704,ACPT_experiment_5_30_19,3.1.0,59.950162505621485,
,,,C,G,g,v,,,,,,,,,,3,0,60,19,,,,,,,,,,,,,v,1,2.101361014869326,1648.9820835529354,None,,,,,001,48,2019_Oct_21_1704,ACPT_experiment_5_30_19,3.1.0,59.950162505621485,
,,,C,D,d,v,,,,,,,,,,3,1,61,18,,,,,,,,,,,,,v,1,0.5837995521615085,1654.3692933094499,None,,,,,001,48,2019_Oct_21_1704,ACPT_experiment_5_30_19,3.1.0,59.950162505621485,
,,,C,D,d,v,,,,,,,,,,3,2,62,9,,,,,,,,,,,,,v,1,0.8337206164396775,1658.2558875786272,None,,,,,001,48,2019_Oct_21_1704,ACPT_experiment_5_30_19,3.1.0,59.950162505621485,
,,,C,G,d,b,,,,,,,,,,3,3,63,12,,,,,,,,,,,,,b,1,1.0675206817613798,1662.3754469754167,None,,,,,001,48,2019_Oct_21_1704,ACPT_experiment_5_30_19,3.1.0,59.950162505621485,
,,,C,D,y,b,,,,,,,,,,3,4,64,11,,,,,,,,,,,,,b,1,0.7836992147495039,1666.7457146807174,None,,,,,001,48,2019_Oct_21_1704,ACPT_experiment_5_30_19,3.1.0,59.950162505621485,
,,,C,U,d,n,,,,,,,,,,3,5,65,6,,,,,,,,,,,,,n,1,1.3844130472461984,1670.8152635426814,None,,,,,001,48,2019_Oct_21_1704,ACPT_experiment_5_30_19,3.1.0,59.950162505621485,
,,,C,U,y,n,,,,,,,,,,3,6,66,8,,,,,,,,,,,,,n,1,0.7670098182134097,1675.4857903624143,None,,,,,001,48,2019_Oct_21_1704,ACPT_experiment_5_30_19,3.1.0,59.950162505621485,
,,,C,G,d,b,,,,,,,,,,3,7,67,3,,,,,,,,,,,,,b,1,1.7513545853034884,1679.53863443312,None,,,,,001,48,2019_Oct_21_1704,ACPT_experiment_5_30_19,3.1.0,59.950162505621485,
,,,C,U,g,n,,,,,,,,,,3,8,68,7,,,,,,,,,,,,,n,1,1.2009172240468615,1684.5758585882359,None,,,,,001,48,2019_Oct_21_1704,ACPT_experiment_5_30_19,3.1.0,59.950162505621485,
,,,C,D,d,v,,,,,,,,,,3,9,69,0,,,,,,,,,,,,,v,1,0.7836771791553474,1689.0795596624266,None,,,,,001,48,2019_Oct_21_1704,ACPT_experiment_5_30_19,3.1.0,59.950162505621485,
,,,C,G,g,v,,,,,,,,,,3,10,70,13,,,,,,,,,,,,,v,1,1.2509772634912224,1693.1490901110883,None,,,,,001,48,2019_Oct_21_1704,ACPT_experiment_5_30_19,3.1.0,59.950162505621485,
,,,C,G,y,b,,,,,,,,,,3,11,71,14,,,,,,,,,,,,,b,1,1.9815525856829481,1697.7059051165452,None,,,,,001,48,2019_Oct_21_1704,ACPT_experiment_5_30_19,3.1.0,59.950162505621485,
,,,C,G,y,b,,,,,,,,,,3,12,72,5,,,,,,,,,,,,,n,0,1.0509719508008857,1702.95647366505,None,,,,,001,48,2019_Oct_21_1704,ACPT_experiment_5_30_19,3.1.0,59.950162505621485,
,,,C,U,d,n,,,,,,,,,,3,13,73,15,,,,,,,,,,,,,n,1,1.1842317516602634,1707.2933121670867,None,,,,,001,48,2019_Oct_21_1704,ACPT_experiment_5_30_19,3.1.0,59.950162505621485,
,,,C,D,g,b,,,,,,,,,,3,14,74,1,,,,,,,,,,,,,b,1,1.1342028035287512,1711.763397188257,None,,,,,001,48,2019_Oct_21_1704,ACPT_experiment_5_30_19,3.1.0,59.950162505621485,
,,,C,U,y,n,,,,,,,,,,3,15,75,17,,,,,,,,,,,,,n,1,0.8339928918612713,1716.1834475260075,None,,,,,001,48,2019_Oct_21_1704,ACPT_experiment_5_30_19,3.1.0,59.950162505621485,
,,,C,U,g,n,,,,,,,,,,3,16,76,16,,,,,,,,,,,,,n,1,0.7505875655260752,1720.2866097242768,None,,,,,001,48,2019_Oct_21_1704,ACPT_experiment_5_30_19,3.1.0,59.950162505621485,
,,,C,D,g,b,,,,,,,,,,3,17,77,10,,,,,,,,,,,,,b,1,1.050549652230984,1724.3399889882385,None,,,,,001,48,2019_Oct_21_1704,ACPT_experiment_5_30_19,3.1.0,59.950162505621485,
,,,C,D,y,b,,,,,,,,,,3,18,78,2,,,,,,,,,,,,,b,1,1.25101439196078,1728.659707946881,None,,,,,001,48,2019_Oct_21_1704,ACPT_experiment_5_30_19,3.1.0,59.950162505621485,
,,,C,G,g,v,,,,,,,,,,3,19,79,4,,,,,,,,,,,,,v,1,1.4008229237806518,1733.2134708716621,None,,,,,001,48,2019_Oct_21_1704,ACPT_experiment_5_30_19,3.1.0,59.950162505621485,
,,,C,U,d,n,,,,,,,,,,4,0,80,6,,,,,,,,,,,,,n,1,0.950785463268403,1737.900114766202,None,,,,,001,48,2019_Oct_21_1704,ACPT_experiment_5_30_19,3.1.0,59.950162505621485,
,,,C,D,g,b,,,,,,,,,,4,1,81,10,,,,,,,,,,,,,b,1,1.1006151251094707,1742.1536457437178,None,,,,,001,48,2019_Oct_21_1704,ACPT_experiment_5_30_19,3.1.0,59.950162505621485,
,,,C,U,d,n,,,,,,,,,,4,2,82,15,,,,,,,,,,,,,n,1,1.0341479258459003,1746.5401084030455,None,,,,,001,48,2019_Oct_21_1704,ACPT_experiment_5_30_19,3.1.0,59.950162505621485,
,,,C,G,y,b,,,,,,,,,,4,3,83,14,,,,,,,,,,,,,b,1,1.9848546043212991,1750.8767917503574,None,,,,,001,48,2019_Oct_21_1704,ACPT_experiment_5_30_19,3.1.0,59.950162505621485,
,,,C,G,d,b,,,,,,,,,,4,4,84,12,,,,,,,,,,,,,b,1,0.9507444106566254,1756.1474932851816,None,,,,,001,48,2019_Oct_21_1704,ACPT_experiment_5_30_19,3.1.0,59.950162505621485,
,,,C,G,g,v,,,,,,,,,,4,5,85,19,,,,,,,,,,,,,v,1,0.7836877441623074,1760.3843415070296,None,,,,,001,48,2019_Oct_21_1704,ACPT_experiment_5_30_19,3.1.0,59.950162505621485,
,,,C,U,g,n,,,,,,,,,,4,6,86,7,,,,,,,,,,,,,n,1,1.0675037777473335,1764.4538740686949,None,,,,,001,48,2019_Oct_21_1704,ACPT_experiment_5_30_19,3.1.0,59.950162505621485,
,,,C,D,y,b,,,,,,,,,,4,7,87,11,,,,,,,,,,,,,b,1,1.0672487082010775,1768.8241466037107,None,,,,,001,48,2019_Oct_21_1704,ACPT_experiment_5_30_19,3.1.0,59.950162505621485,
,,,C,G,d,b,,,,,,,,,,4,8,88,3,,,,,,,,,,,,,b,1,1.4010873509032535,1773.1772389219805,None,,,,,001,48,2019_Oct_21_1704,ACPT_experiment_5_30_19,3.1.0,59.950162505621485,
,,,C,D,g,b,,,,,,,,,,4,9,89,1,,,,,,,,,,,,,b,1,1.367485787042824,1777.8810953320171,None,,,,,001,48,2019_Oct_21_1704,ACPT_experiment_5_30_19,3.1.0,59.950162505621485,
,,,C,D,y,b,,,,,,,,,,4,10,90,2,,,,,,,,,,,,,b,1,2.4185473895086034,1782.5177416716033,None,,,,,001,48,2019_Oct_21_1704,ACPT_experiment_5_30_19,3.1.0,59.950162505621485,
,,,C,G,y,b,,,,,,,,,,4,11,91,5,,,,,,,,,,,,,b,1,1.1342550248700718,1788.2221260303158,None,,,,,001,48,2019_Oct_21_1704,ACPT_experiment_5_30_19,3.1.0,59.950162505621485,
,,,C,G,g,v,,,,,,,,,,4,12,92,13,,,,,,,,,,,,,v,1,1.3341045791166835,1792.6424601140643,None,,,,,001,48,2019_Oct_21_1704,ACPT_experiment_5_30_19,3.1.0,59.950162505621485,
,,,C,D,d,v,,,,,,,,,,4,13,93,18,,,,,,,,,,,,,v,1,0.9173798048905155,1797.2624119255415,None,,,,,001,48,2019_Oct_21_1704,ACPT_experiment_5_30_19,3.1.0,59.950162505621485,
,,,C,U,y,n,,,,,,,,,,4,14,94,17,,,,,,,,,,,,,n,1,1.6679655592743075,1801.4656323219278,None,,,,,001,48,2019_Oct_21_1704,ACPT_experiment_5_30_19,3.1.0,59.950162505621485,
,,,C,U,y,n,,,,,,,,,,4,15,95,8,,,,,,,,,,,,,n,1,0.7672642840443586,1806.4194451135627,None,,,,,001,48,2019_Oct_21_1704,ACPT_experiment_5_30_19,3.1.0,59.950162505621485,
,,,C,U,g,n,,,,,,,,,,4,16,96,16,,,,,,,,,,,,,n,1,0.4334606568045274,1810.4894751363026,None,,,,,001,48,2019_Oct_21_1704,ACPT_experiment_5_30_19,3.1.0,59.950162505621485,
,,,C,D,d,v,,,,,,,,,,4,17,97,0,,,,,,,,,,,,,v,1,1.2509688114841993,1814.2087643103077,None,,,,,001,48,2019_Oct_21_1704,ACPT_experiment_5_30_19,3.1.0,59.950162505621485,
,,,C,G,g,v,,,,,,,,,,4,18,98,4,,,,,,,,,,,,,v,1,0.9171365077891096,1818.76252240537,None,,,,,001,48,2019_Oct_21_1704,ACPT_experiment_5_30_19,3.1.0,59.950162505621485,
,,,C,D,d,v,,,,,,,,,,4,19,99,9,,,,,,,,,,,,,v,1,0.9007058030911139,1822.9654841099218,None,,,,,001,48,2019_Oct_21_1704,ACPT_experiment_5_30_19,3.1.0,59.950162505621485,
,,,C,U,g,n,,,,,,,,,,5,0,100,7,,,,,,,,,,,,,n,1,1.083899768837,1827.1689985154662,None,,,,,001,48,2019_Oct_21_1704,ACPT_experiment_5_30_19,3.1.0,59.950162505621485,
,,,C,D,d,v,,,,,,,,,,5,1,101,9,,,,,,,,,,,,,v,1,0.7172320154822955,1831.5387352535072,None,,,,,001,48,2019_Oct_21_1704,ACPT_experiment_5_30_19,3.1.0,59.950162505621485,
,,,C,G,g,v,,,,,,,,,,5,2,102,19,,,,,,,,,,,,,v,1,1.9011893787246663,1835.5587773807347,None,,,,,001,48,2019_Oct_21_1704,ACPT_experiment_5_30_19,3.1.0,59.950162505621485,
,,,C,G,d,b,,,,,,,,,,5,3,103,12,,,,,,,,,,,,,b,1,1.1675915578925924,1840.7291339528638,None,,,,,001,48,2019_Oct_21_1704,ACPT_experiment_5_30_19,3.1.0,59.950162505621485,
,,,C,U,d,n,,,,,,,,,,5,4,104,15,,,,,,,,,,,,,b,0,2.201728918727895,1845.1825501038074,None,,,,,001,48,2019_Oct_21_1704,ACPT_experiment_5_30_19,3.1.0,59.950162505621485,
,,,C,D,y,b,,,,,,,,,,5,5,105,11,,,,,,,,,,,,,b,1,1.0841786851233337,1850.6701021063018,None,,,,,001,48,2019_Oct_21_1704,ACPT_experiment_5_30_19,3.1.0,59.950162505621485,
,,,C,U,g,n,,,,,,,,,,5,6,106,16,,,,,,,,,,,,,n,1,1.4008362055101315,1855.0570589062736,None,,,,,001,48,2019_Oct_21_1704,ACPT_experiment_5_30_19,3.1.0,59.950162505621485,
,,,C,D,g,b,,,,,,,,,,5,7,107,10,,,,,,,,,,,,,b,1,1.334386815833568,1859.74374838129,None,,,,,001,48,2019_Oct_21_1704,ACPT_experiment_5_30_19,3.1.0,59.950162505621485,
,,,C,G,g,v,,,,,,,,,,5,8,108,13,,,,,,,,,,,,,v,1,1.650808283691731,1864.381082654003,None,,,,,001,48,2019_Oct_21_1704,ACPT_experiment_5_30_19,3.1.0,59.950162505621485,
,,,C,G,g,v,,,,,,,,,,5,9,109,4,,,,,,,,,,,,,v,1,1.0341436998423887,1869.3010889205616,None,,,,,001,48,2019_Oct_21_1704,ACPT_experiment_5_30_19,3.1.0,59.950162505621485,
,,,C,D,y,b,,,,,,,,,,5,10,110,2,,,,,,,,,,,,,b,1,1.0505804416898172,1873.6380167724055,None,,,,,001,48,2019_Oct_21_1704,ACPT_experiment_5_30_19,3.1.0,59.950162505621485,
,,,C,G,d,b,,,,,,,,,,5,11,111,3,,,,,,,,,,,,,b,1,1.3176832319986715,1877.9744202978618,None,,,,,001,48,2019_Oct_21_1704,ACPT_experiment_5_30_19,3.1.0,59.950162505621485,
,,,C,D,d,v,,,,,,,,,,5,12,112,18,,,,,,,,,,,,,v,1,0.6972378835926065,1882.5979376495306,None,,,,,001,48,2019_Oct_21_1704,ACPT_experiment_5_30_19,3.1.0,59.950162505621485,
,,,C,G,y,b,,,,,,,,,,5,13,113,5,,,,,,,,,,,,,b,1,1.6012487238986068,1886.581016124619,None,,,,,001,48,2019_Oct_21_1704,ACPT_experiment_5_30_19,3.1.0,59.950162505621485,
,,,C,D,g,b,,,,,,,,,,5,14,114,1,,,,,,,,,,,,,b,1,0.9674238458937907,1891.4681078548747,None,,,,,001,48,2019_Oct_21_1704,ACPT_experiment_5_30_19,3.1.0,59.950162505621485,
,,,C,U,y,n,,,,,,,,,,5,15,115,8,,,,,,,,,,,,,n,1,1.150656449397502,1895.738298345037,None,,,,,001,48,2019_Oct_21_1704,ACPT_experiment_5_30_19,3.1.0,59.950162505621485,
,,,C,D,d,v,,,,,,,,,,5,16,116,0,,,,,,,,,,,,,v,1,0.900724820108735,1900.1747981026456,None,,,,,001,48,2019_Oct_21_1704,ACPT_experiment_5_30_19,3.1.0,59.950162505621485,
,,,C,U,d,n,,,,,,,,,,5,17,117,6,,,,,,,,,,,,,n,1,1.8514354227299918,1904.3613463083748,None,,,,,001,48,2019_Oct_21_1704,ACPT_experiment_5_30_19,3.1.0,59.950162505621485,
,,,C,U,y,n,,,,,,,,,,5,18,118,17,,,,,,,,,,,,,n,1,1.1508985390719317,1909.4819450003633,None,,,,,001,48,2019_Oct_21_1704,ACPT_experiment_5_30_19,3.1.0,59.950162505621485,
,,,C,G,y,b,,,,,,,,,,5,19,119,14,,,,,,,,,,,,,b,1,1.1006048619565263,1913.935625880291,None,,,,,001,48,2019_Oct_21_1704,ACPT_experiment_5_30_19,3.1.0,59.950162505621485,
,,,C,D,d,v,,,,,,,,,,6,0,120,18,,,,,,,,,,,,,v,1,0.7839135335379979,1918.3221148012162,None,,,,,001,48,2019_Oct_21_1704,ACPT_experiment_5_30_19,3.1.0,59.950162505621485,
,,,C,D,y,b,,,,,,,,,,6,1,121,11,,,,,,,,,,,,,b,1,1.701053663615312,1922.3921252032233,None,,,,,001,48,2019_Oct_21_1704,ACPT_experiment_5_30_19,3.1.0,59.950162505621485,
,,,C,U,y,n,,,,,,,,,,6,2,122,8,,,,,,,,,,,,,n,1,1.084173855400877,1927.3790297214873,None,,,,,001,48,2019_Oct_21_1704,ACPT_experiment_5_30_19,3.1.0,59.950162505621485,
,,,C,G,y,b,,,,,,,,,,6,3,123,14,,,,,,,,,,,,,b,1,1.1842311479485943,1931.765746846646,None,,,,,001,48,2019_Oct_21_1704,ACPT_experiment_5_30_19,3.1.0,59.950162505621485,
,,,C,G,y,b,,,,,,,,,,6,4,124,5,,,,,,,,,,,,,b,1,4.336683045450627,1936.235829452955,None,,,,,001,48,2019_Oct_21_1704,ACPT_experiment_5_30_19,3.1.0,59.950162505621485,
,,,C,D,g,b,,,,,,,,,,6,5,125,1,,,,,,,,,,,,,b,1,2.3518248188411235,1943.8583452416096,None,,,,,001,48,2019_Oct_21_1704,ACPT_experiment_5_30_19,3.1.0,59.950162505621485,
,,,C,G,d,b,,,,,,,,,,6,6,126,12,,,,,,,,,,,,,b,1,1.100850272061507,1949.496017896523,None,,,,,001,48,2019_Oct_21_1704,ACPT_experiment_5_30_19,3.1.0,59.950162505621485,
,,,C,D,d,v,,,,,,,,,,6,7,127,9,,,,,,,,,,,,,v,1,1.0808664033284003,1953.9027279461443,None,,,,,001,48,2019_Oct_21_1704,ACPT_experiment_5_30_19,3.1.0,59.950162505621485,
,,,C,U,g,n,,,,,,,,,,6,8,128,16,,,,,,,,,,,,,n,1,1.0508183053607354,1958.2694222629507,None,,,,,001,48,2019_Oct_21_1704,ACPT_experiment_5_30_19,3.1.0,59.950162505621485,
,,,C,D,y,b,,,,,,,,,,6,9,129,2,,,,,,,,,,,,,b,1,1.0336972526747559,1962.6231762527532,None,,,,,001,48,2019_Oct_21_1704,ACPT_experiment_5_30_19,3.1.0,59.950162505621485,
,,,C,U,g,n,,,,,,,,,,6,10,130,7,,,,,,,,,,,,,n,1,1.4344993482882273,1966.942749112386,None,,,,,001,48,2019_Oct_21_1704,ACPT_experiment_5_30_19,3.1.0,59.950162505621485,
,,,C,U,y,n,,,,,,,,,,6,11,131,17,,,,,,,,,,,,,b,0,0.900273845079937,1971.6801249810596,None,,,,,001,48,2019_Oct_21_1704,ACPT_experiment_5_30_19,3.1.0,59.950162505621485,
,,,C,G,g,v,,,,,,,,,,6,12,132,13,,,,,,,,,,,,,b,0,0.9174531562493939,1975.8662644717988,None,,,,,001,48,2019_Oct_21_1704,ACPT_experiment_5_30_19,3.1.0,59.950162505621485,
,,,C,U,d,n,,,,,,,,,,6,13,133,6,,,,,,,,,,,,,n,1,0.8171148344226822,1980.0863399844602,None,,,,,001,48,2019_Oct_21_1704,ACPT_experiment_5_30_19,3.1.0,59.950162505621485,
,,,C,G,g,v,,,,,,,,,,6,14,134,19,,,,,,,,,,,,,v,1,1.134219405688782,1984.1893292184104,None,,,,,001,48,2019_Oct_21_1704,ACPT_experiment_5_30_19,3.1.0,59.950162505621485,
,,,C,D,d,v,,,,,,,,,,6,15,135,0,,,,,,,,,,,,,v,1,1.0172366640872497,1988.6262591228879,None,,,,,001,48,2019_Oct_21_1704,ACPT_experiment_5_30_19,3.1.0,59.950162505621485,
,,,C,D,g,b,,,,,,,,,,6,16,136,10,,,,,,,,,,,,,b,1,2.2350648480351083,1992.9293722995062,None,,,,,001,48,2019_Oct_21_1704,ACPT_experiment_5_30_19,3.1.0,59.950162505621485,
,,,C,G,d,b,,,,,,,,,,6,17,137,3,,,,,,,,,,,,,b,1,1.2842941757808148,1998.450335091955,None,,,,,001,48,2019_Oct_21_1704,ACPT_experiment_5_30_19,3.1.0,59.950162505621485,
,,,C,G,g,v,,,,,,,,,,6,18,138,4,0,0,0,0,0,0,0,0,,,,,v,1,1.9982462082189159,2003.0404673115554,None,,,,,001,48,2019_Oct_21_1704,ACPT_experiment_5_30_19,3.1.0,59.950162505621485,
,,,C,G,g,v,R,G,d,L,i,,,,,6,18,138,4,0,0,0,0,,,,,0,0,0,4,,,,,,up,1.5678759679794894,2080.0963293530403,None,001,48,2019_Oct_21_1704,ACPT_experiment_5_30_19,3.1.0,59.950162505621485,
,,,C,G,g,v,R,U,d,R,u,,,,,6,18,138,4,0,0,0,0,,,,,0,1,1,9,,,,,,up,1.0007640012045158,2082.931844512019,None,001,48,2019_Oct_21_1704,ACPT_experiment_5_30_19,3.1.0,59.950162505621485,
,,,C,G,g,v,R,G,d,R,i,,,,,6,18,138,4,0,0,0,0,,,,,0,2,2,5,,,,,,up,0.533768189176044,2085.2002513265106,None,001,48,2019_Oct_21_1704,ACPT_experiment_5_30_19,3.1.0,59.950162505621485,
,,,C,G,g,v,R,U,d,L,u,,,,,6,18,138,4,0,0,0,0,,,,,0,3,3,8,,,,,,down,1.0674838551531138,2087.0183194267593,None,001,48,2019_Oct_21_1704,ACPT_experiment_5_30_19,3.1.0,59.950162505621485,
,,,C,G,g,v,R,U,y,L,u,,,,,6,18,138,4,0,0,0,0,,,,,0,4,4,30,,,,,,down,1.0341298143976019,2089.370119493291,None,001,48,2019_Oct_21_1704,ACPT_experiment_5_30_19,3.1.0,59.950162505621485,
,,,C,G,g,v,L,D,g,L,i,,,,,6,18,138,4,0,0,0,0,,,,,0,5,5,14,,,,,,up,0.9840815473944531,2091.68857789522,None,001,48,2019_Oct_21_1704,ACPT_experiment_5_30_19,3.1.0,59.950162505621485,
,,,C,G,g,v,L,U,y,R,u,,,,,6,18,138,4,0,0,0,0,,,,,0,6,6,25,,,,,,down,0.9507317326460907,2093.956975955847,None,001,48,2019_Oct_21_1704,ACPT_experiment_5_30_19,3.1.0,59.950162505621485,
,,,C,G,g,v,R,U,y,R,u,,,,,6,18,138,4,0,0,0,0,,,,,0,7,7,31,,,,,,down,0.6338463098836655,2096.1920036754163,None,001,48,2019_Oct_21_1704,ACPT_experiment_5_30_19,3.1.0,59.950162505621485,
,,,C,G,g,v,L,D,y,L,y,,,,,6,18,138,4,0,0,0,0,,,,,0,8,8,32,,,,,,down,0.6004898542705632,2098.110144161081,None,001,48,2019_Oct_21_1704,ACPT_experiment_5_30_19,3.1.0,59.950162505621485,
,,,C,G,g,v,L,G,y,L,y,,,,,6,18,138,4,0,0,0,0,,,,,0,9,9,34,,,,,,down,0.6004581592351315,2100.0116326805364,None,001,48,2019_Oct_21_1704,ACPT_experiment_5_30_19,3.1.0,59.950162505621485,
,,,C,G,g,v,L,D,g,R,i,,,,,6,18,138,4,0,0,0,0,,,,,0,10,10,15,,,,,,up,0.7505706615083909,2101.913095240252,None,001,48,2019_Oct_21_1704,ACPT_experiment_5_30_19,3.1.0,59.950162505621485,
,,,C,G,g,v,L,D,d,L,c ,,,,,6,18,138,4,0,0,0,0,,,,,0,11,11,12,,,,,,up,1.1339371689755353,2103.948251671838,None,001,48,2019_Oct_21_1704,ACPT_experiment_5_30_19,3.1.0,59.950162505621485,
,,,C,G,g,v,R,D,g,L,i,,,,,6,18,138,4,0,0,0,0,,,,,0,12,12,2,,,,,,up,0.850653008219524,2106.3665107874804,None,001,48,2019_Oct_21_1704,ACPT_experiment_5_30_19,3.1.0,59.950162505621485,
,,,C,G,g,v,L,G,g,R,c ,,,,,6,18,138,4,0,0,0,0,,,,,0,13,13,19,,,,,,up,0.7671888196819054,2108.5015458119997,None,001,48,2019_Oct_21_1704,ACPT_experiment_5_30_19,3.1.0,59.950162505621485,
,,,C,G,g,v,R,G,g,R,c ,,,,,6,18,138,4,0,0,0,0,,,,,0,14,14,7,,,,,,up,0.8006153062269732,2110.5530635210707,None,001,48,2019_Oct_21_1704,ACPT_experiment_5_30_19,3.1.0,59.950162505621485,
,,,C,G,g,v,R,G,y,R,y,,,,,6,18,138,4,0,0,0,0,,,,,0,15,15,29,,,,,,down,0.8506671955219645,2112.6380043962527,None,001,48,2019_Oct_21_1704,ACPT_experiment_5_30_19,3.1.0,59.950162505621485,
,,,C,G,g,v,R,D,g,R,i,,,,,6,18,138,4,0,0,0,0,,,,,0,16,16,3,,,,,,up,0.7672558320373355,2114.789647013935,None,001,48,2019_Oct_21_1704,ACPT_experiment_5_30_19,3.1.0,59.950162505621485,
,,,C,G,g,v,L,D,y,R,y,,,,,6,18,138,4,0,0,0,0,,,,,0,17,17,33,,,,,,down,0.7172163188952254,2116.8412232833507,None,001,48,2019_Oct_21_1704,ACPT_experiment_5_30_19,3.1.0,59.950162505621485,
,,,C,G,g,v,R,D,d,L,c,,,,,6,18,138,4,0,0,0,0,,,,,0,18,18,0,,,,,,up,0.7505763968001702,2118.8427597377704,None,001,48,2019_Oct_21_1704,ACPT_experiment_5_30_19,3.1.0,59.950162505621485,
,,,C,G,g,v,R,D,d,R,c ,,,,,6,18,138,4,0,0,0,0,,,,,0,19,19,1,,,,,,down,0.9340344878182805,2120.8776734759667,None,001,48,2019_Oct_21_1704,ACPT_experiment_5_30_19,3.1.0,59.950162505621485,
,,,C,G,g,v,R,G,g,L,c ,,,,,6,18,138,4,0,0,0,0,,,,,0,20,20,6,,,,,,up,1.0674747994307836,2123.0960386643164,None,001,48,2019_Oct_21_1704,ACPT_experiment_5_30_19,3.1.0,59.950162505621485,
,,,C,G,g,v,L,G,d,L,i,,,,,6,18,138,4,0,0,0,0,,,,,0,21,21,16,,,,,,up,0.6505018983807531,2125.4478311844105,None,001,48,2019_Oct_21_1704,ACPT_experiment_5_30_19,3.1.0,59.950162505621485,
,,,C,G,g,v,L,U,y,L,u,,,,,6,18,138,4,0,0,0,0,,,,,0,22,22,24,,,,,,down,0.5337180808382982,2127.3826785743404,None,001,48,2019_Oct_21_1704,ACPT_experiment_5_30_19,3.1.0,59.950162505621485,
,,,C,G,g,v,L,U,d,L,u,,,,,6,18,138,4,0,0,0,0,,,,,0,23,23,20,,,,,,up,0.533738607144187,2129.2007195074148,None,001,48,2019_Oct_21_1704,ACPT_experiment_5_30_19,3.1.0,59.950162505621485,
,,,C,G,g,v,R,U,g,R,u,,,,,6,18,138,4,0,0,0,0,,,,,0,24,24,11,,,,,,up,0.8172920247452566,2131.0187821742293,None,001,48,2019_Oct_21_1704,ACPT_experiment_5_30_19,3.1.0,59.950162505621485,
,,,C,G,g,v,R,D,y,R,y,,,,,6,18,138,4,0,0,0,0,,,,,0,25,25,27,,,,,,down,0.8173040990441223,2133.120395541926,None,001,48,2019_Oct_21_1704,ACPT_experiment_5_30_19,3.1.0,59.950162505621485,
,,,C,G,g,v,L,G,d,R,i,,,,,6,18,138,4,0,0,0,0,,,,,0,26,26,17,,,,,,up,0.7338999801395403,2135.2220070984804,None,001,48,2019_Oct_21_1704,ACPT_experiment_5_30_19,3.1.0,59.950162505621485,
,,,C,G,g,v,R,G,y,L,y,,,,,6,18,138,4,0,0,0,0,,,,,0,27,27,28,,,,,,down,0.7172190356141073,2137.240226308568,None,001,48,2019_Oct_21_1704,ACPT_experiment_5_30_19,3.1.0,59.950162505621485,
,,,C,G,g,v,L,U,d,R,u,,,,,6,18,138,4,0,0,0,0,,,,,0,28,28,21,,,,,,up,1.1175251794411452,2139.2417609518416,None,001,48,2019_Oct_21_1704,ACPT_experiment_5_30_19,3.1.0,59.950162505621485,
,,,C,G,g,v,L,G,g,L,c ,,,,,6,18,138,4,0,0,0,0,,,,,0,29,29,18,,,,,,up,1.4510987913017743,2141.643621661533,None,001,48,2019_Oct_21_1704,ACPT_experiment_5_30_19,3.1.0,59.950162505621485,
,,,C,G,g,v,L,G,y,R,y,,,,,6,18,138,4,0,0,0,0,,,,,0,30,30,35,,,,,,down,0.6338623083283892,2144.36234092867,None,001,48,2019_Oct_21_1704,ACPT_experiment_5_30_19,3.1.0,59.950162505621485,
,,,C,G,g,v,L,U,g,L,u,,,,,6,18,138,4,0,0,0,0,,,,,0,31,31,22,,,,,,up,0.8673321416026738,2146.280502544356,None,001,48,2019_Oct_21_1704,ACPT_experiment_5_30_19,3.1.0,59.950162505621485,
,,,C,G,g,v,R,U,g,L,u,,,,,6,18,138,4,0,0,0,0,,,,,0,32,32,10,,,,,,up,0.6335782604692213,2148.4490739315297,None,001,48,2019_Oct_21_1704,ACPT_experiment_5_30_19,3.1.0,59.950162505621485,
,,,C,G,g,v,L,U,g,R,u,,,,,6,18,138,4,0,0,0,0,,,,,0,33,33,23,,,,,,up,0.6838447704103601,2150.3669907408257,None,001,48,2019_Oct_21_1704,ACPT_experiment_5_30_19,3.1.0,59.950162505621485,
,,,C,G,g,v,L,D,d,R,c ,,,,,6,18,138,4,0,0,0,0,,,,,0,34,34,13,,,,,,up,0.5504189479543129,2152.3351496096075,None,001,48,2019_Oct_21_1704,ACPT_experiment_5_30_19,3.1.0,59.950162505621485,
,,,C,G,g,v,R,D,y,L,y,,,,,6,18,138,4,0,0,0,0,,,,,0,35,35,26,,,,,,down,0.5003854719652736,2154.1698914098015,None,001,48,2019_Oct_21_1704,ACPT_experiment_5_30_19,3.1.0,59.950162505621485,
,,,C,G,g,v,R,U,y,L,u,,,,,6,18,138,4,0,0,0,0,,,,,1,0,36,30,,,,,,down,0.617294560346636,2155.971282187813,None,001,48,2019_Oct_21_1704,ACPT_experiment_5_30_19,3.1.0,59.950162505621485,
,,,C,G,g,v,L,D,y,L,y,,,,,6,18,138,4,0,0,0,0,,,,,1,1,37,32,,,,,,down,0.7005287335086905,2157.8727577274003,None,001,48,2019_Oct_21_1704,ACPT_experiment_5_30_19,3.1.0,59.950162505621485,
,,,C,G,g,v,R,G,g,R,c ,,,,,6,18,138,4,0,0,0,0,,,,,1,2,38,7,,,,,,up,0.7171484009704727,2159.8742769759447,None,001,48,2019_Oct_21_1704,ACPT_experiment_5_30_19,3.1.0,59.950162505621485,
,,,C,G,g,v,L,D,d,L,c ,,,,,6,18,138,4,0,0,0,0,,,,,1,3,39,12,,,,,,up,0.8172956470334611,2161.8758146377913,None,001,48,2019_Oct_21_1704,ACPT_experiment_5_30_19,3.1.0,59.950162505621485,
,,,C,G,g,v,L,G,d,L,i,,,,,6,18,138,4,0,0,0,0,,,,,1,4,40,16,,,,,,up,0.7172407693506102,2163.9774053661786,None,001,48,2019_Oct_21_1704,ACPT_experiment_5_30_19,3.1.0,59.950162505621485,
,,,C,G,g,v,L,G,g,L,c ,,,,,6,18,138,4,0,0,0,0,,,,,1,5,41,18,,,,,,up,0.6672057840696652,2165.9622626872188,None,001,48,2019_Oct_21_1704,ACPT_experiment_5_30_19,3.1.0,59.950162505621485,
,,,C,G,g,v,L,G,y,R,y,,,,,6,18,138,4,0,0,0,0,,,,,1,6,42,35,,,,,,down,0.6505091429608001,2167.9137852863823,None,001,48,2019_Oct_21_1704,ACPT_experiment_5_30_19,3.1.0,59.950162505621485,
,,,C,G,g,v,L,G,d,R,i,,,,,6,18,138,4,0,0,0,0,,,,,1,7,43,17,,,,,,up,0.9507259973506734,2169.848605509138,None,001,48,2019_Oct_21_1704,ACPT_experiment_5_30_19,3.1.0,59.950162505621485,
,,,C,G,g,v,R,U,y,R,u,,,,,6,18,138,4,0,0,0,0,,,,,1,8,44,31,,,,,,down,0.6838363184033369,2172.083673979465,None,001,48,2019_Oct_21_1704,ACPT_experiment_5_30_19,3.1.0,59.950162505621485,
,,,C,G,g,v,R,G,y,L,y,,,,,6,18,138,4,0,0,0,0,,,,,1,9,45,28,,,,,,down,0.7173005371259933,2174.068514698345,None,001,48,2019_Oct_21_1704,ACPT_experiment_5_30_19,3.1.0,59.950162505621485,
,,,C,G,g,v,R,U,d,R,u,,,,,6,18,138,4,0,0,0,0,,,,,1,10,46,9,,,,,,down,0.8173101361899171,2176.086706439404,None,001,48,2019_Oct_21_1704,ACPT_experiment_5_30_19,3.1.0,59.950162505621485,
,,,C,G,g,v,L,D,d,R,c ,,,,,6,18,138,4,0,0,0,0,,,,,1,11,47,13,,,,,,up,0.7672488893149421,2178.188339125976,None,001,48,2019_Oct_21_1704,ACPT_experiment_5_30_19,3.1.0,59.950162505621485,
,,,C,G,g,v,R,D,d,R,c ,,,,,6,18,138,4,0,0,0,0,,,,,1,12,48,1,,,,,,up,0.683866504146863,2180.2399144898227,None,001,48,2019_Oct_21_1704,ACPT_experiment_5_30_19,3.1.0,59.950162505621485,
,,,C,G,g,v,L,G,g,R,c ,,,,,6,18,138,4,0,0,0,0,,,,,1,13,49,19,,,,,,up,0.6338185389977298,2182.208095997914,None,001,48,2019_Oct_21_1704,ACPT_experiment_5_30_19,3.1.0,59.950162505621485,
,,,C,G,g,v,R,D,y,R,y,,,,,6,18,138,4,0,0,0,0,,,,,1,14,50,27,,,,,,down,0.5170477013271011,2184.1429213522497,None,001,48,2019_Oct_21_1704,ACPT_experiment_5_30_19,3.1.0,59.950162505621485,
,,,C,G,g,v,L,U,d,R,u,,,,,6,18,138,4,0,0,0,0,,,,,1,15,51,21,,,,,,down,1.4511277696146863,2185.977658624579,None,001,48,2019_Oct_21_1704,ACPT_experiment_5_30_19,3.1.0,59.950162505621485,
,,,C,G,g,v,R,U,d,L,u,,,,,6,18,138,4,0,0,0,0,,,,,1,16,52,8,,,,,,up,0.9340673902806884,2188.713087814558,None,001,48,2019_Oct_21_1704,ACPT_experiment_5_30_19,3.1.0,59.950162505621485,
,,,C,G,g,v,R,G,g,L,c ,,,,,6,18,138,4,0,0,0,0,,,,,1,17,53,6,,,,,,up,0.5838140413216024,2190.93145994563,None,001,48,2019_Oct_21_1704,ACPT_experiment_5_30_19,3.1.0,59.950162505621485,
,,,C,G,g,v,R,D,g,L,i,,,,,6,18,138,4,0,0,0,0,,,,,1,18,54,2,,,,,,up,0.5170489087540773,2192.799575105455,None,001,48,2019_Oct_21_1704,ACPT_experiment_5_30_19,3.1.0,59.950162505621485,
,,,C,G,g,v,L,D,g,R,i,,,,,6,18,138,4,0,0,0,0,,,,,1,19,55,15,,,,,,up,0.5835103727258684,2194.6178964641003,None,001,48,2019_Oct_21_1704,ACPT_experiment_5_30_19,3.1.0,59.950162505621485,
,,,C,G,g,v,L,U,g,L,u,,,,,6,18,138,4,0,0,0,0,,,,,1,20,56,22,,,,,,up,0.6004883449822955,2196.485726670493,None,001,48,2019_Oct_21_1704,ACPT_experiment_5_30_19,3.1.0,59.950162505621485,
,,,C,G,g,v,L,D,y,R,y,,,,,6,18,138,4,0,0,0,0,,,,,1,21,57,33,,,,,,down,0.6671556757355575,2198.3872088509415,None,001,48,2019_Oct_21_1704,ACPT_experiment_5_30_19,3.1.0,59.950162505621485,
,,,C,G,g,v,L,U,d,L,u,,,,,6,18,138,4,0,0,0,0,,,,,1,22,58,20,,,,,,up,0.7672582468949258,2200.355361984435,None,001,48,2019_Oct_21_1704,ACPT_experiment_5_30_19,3.1.0,59.950162505621485,
,,,C,G,g,v,R,U,g,L,u,,,,,6,18,138,4,0,0,0,0,,,,,1,23,59,10,,,,,,up,0.5670986850491317,2202.406940064997,None,001,48,2019_Oct_21_1704,ACPT_experiment_5_30_19,3.1.0,59.950162505621485,
,,,C,G,g,v,R,D,d,L,c,,,,,6,18,138,4,0,0,0,0,,,,,1,24,60,0,,,,,,up,0.5003764162393054,2204.2583637152857,None,001,48,2019_Oct_21_1704,ACPT_experiment_5_30_19,3.1.0,59.950162505621485,
,,,C,G,g,v,L,G,y,L,y,,,,,6,18,138,4,0,0,0,0,,,,,1,25,61,34,,,,,,down,0.5337476628665172,2206.0430641911953,None,001,48,2019_Oct_21_1704,ACPT_experiment_5_30_19,3.1.0,59.950162505621485,
,,,C,G,g,v,R,G,d,R,i,,,,,6,18,138,4,0,0,0,0,,,,,1,26,62,5,,,,,,down,0.9841056959885464,2207.8778331585563,None,001,48,2019_Oct_21_1704,ACPT_experiment_5_30_19,3.1.0,59.950162505621485,
,,,C,G,g,v,L,D,g,L,i,,,,,6,18,138,4,0,0,0,0,,,,,1,27,63,14,,,,,,up,0.6338396690189256,2210.1461968074327,None,001,48,2019_Oct_21_1704,ACPT_experiment_5_30_19,3.1.0,59.950162505621485,
,,,C,G,g,v,L,U,y,R,u,,,,,6,18,138,4,0,0,0,0,,,,,1,28,64,25,,,,,,down,0.8840360272915859,2212.064360536122,None,001,48,2019_Oct_21_1704,ACPT_experiment_5_30_19,3.1.0,59.950162505621485,
,,,C,G,g,v,L,U,g,R,u,,,,,6,18,138,4,0,0,0,0,,,,,1,29,65,23,,,,,,up,0.8306784970627632,2214.252689097091,None,001,48,2019_Oct_21_1704,ACPT_experiment_5_30_19,3.1.0,59.950162505621485,
,,,C,G,g,v,R,G,d,L,i,,,,,6,18,138,4,0,0,0,0,,,,,1,30,66,4,,,,,,up,0.9173695417375711,2216.3676669015113,None,001,48,2019_Oct_21_1704,ACPT_experiment_5_30_19,3.1.0,59.950162505621485,
,,,C,G,g,v,R,D,y,L,y,,,,,6,18,138,4,0,0,0,0,,,,,1,31,67,26,,,,,,down,0.7339262417372083,2218.5693260911685,None,001,48,2019_Oct_21_1704,ACPT_experiment_5_30_19,3.1.0,59.950162505621485,
,,,C,G,g,v,R,U,g,R,u,,,,,6,18,138,4,0,0,0,0,,,,,1,32,68,11,,,,,,up,0.6671737871802179,2220.58757458143,None,001,48,2019_Oct_21_1704,ACPT_experiment_5_30_19,3.1.0,59.950162505621485,
,,,C,G,g,v,R,G,y,R,y,,,,,6,18,138,4,0,0,0,0,,,,,1,33,69,29,,,,,,down,1.0007667179197597,2222.5390727301383,None,001,48,2019_Oct_21_1704,ACPT_experiment_5_30_19,3.1.0,59.950162505621485,
,,,C,G,g,v,R,D,g,R,i,,,,,6,18,138,4,0,0,0,0,,,,,1,34,70,3,,,,,,up,0.7172407693506102,2224.8241595835825,None,001,48,2019_Oct_21_1704,ACPT_experiment_5_30_19,3.1.0,59.950162505621485,
,,,C,G,g,v,L,U,y,L,u,,,,,6,18,138,4,0,0,0,0,,,,,1,35,71,24,,,,,,down,0.7670560024052975,2226.859220628212,None,001,48,2019_Oct_21_1704,ACPT_experiment_5_30_19,3.1.0,59.950162505621485,
,,,C,G,g,v,,,,,,,,,,6,18,138,4,1,0,1,0,0,0,0,0,,,,,,,,,,,,,,001,48,2019_Oct_21_1704,ACPT_experiment_5_30_19,3.1.0,59.950162505621485,
,,,C,G,g,v,R,D,g,R,i,,,,,6,18,138,4,1,0,1,0,,,,,0,0,0,3,,,,,,up,0.6671653351731948,2247.658377962958,None,001,48,2019_Oct_21_1704,ACPT_experiment_5_30_19,3.1.0,59.950162505621485,
,,,C,G,g,v,R,U,d,R,u,,,,,6,18,138,4,1,0,1,0,,,,,0,1,1,9,,,,,,up,0.6004817041175556,2249.6098649429405,None,001,48,2019_Oct_21_1704,ACPT_experiment_5_30_19,3.1.0,59.950162505621485,
,,,C,G,g,v,R,G,y,R,y,,,,,6,18,138,4,1,0,1,0,,,,,0,2,2,29,,,,,,down,0.550416231239069,2251.4946483692765,None,001,48,2019_Oct_21_1704,ACPT_experiment_5_30_19,3.1.0,59.950162505621485,
,,,C,G,g,v,L,D,y,L,y,,,,,6,18,138,4,1,0,1,0,,,,,0,3,3,32,,,,,,up,0.7005368836580601,2253.329385339748,None,001,48,2019_Oct_21_1704,ACPT_experiment_5_30_19,3.1.0,59.950162505621485,
,,,C,G,g,v,R,G,y,L,y,,,,,6,18,138,4,1,0,1,0,,,,,0,4,4,28,,,,,,down,0.6338239724318555,2255.3142414533577,None,001,48,2019_Oct_21_1704,ACPT_experiment_5_30_19,3.1.0,59.950162505621485,
,,,C,G,g,v,R,U,y,L,u,,,,,6,18,138,4,1,0,1,0,,,,,0,5,5,30,,,,,,down,0.4169795419147704,2257.2323906928905,None,001,48,2019_Oct_21_1704,ACPT_experiment_5_30_19,3.1.0,59.950162505621485,
,,,C,G,g,v,L,D,d,L,c ,,,,,6,18,138,4,1,0,1,0,,,,,0,6,6,12,,,,,,up,0.6338185389977298,2258.9336918796107,None,001,48,2019_Oct_21_1704,ACPT_experiment_5_30_19,3.1.0,59.950162505621485,
,,,C,G,g,v,R,G,d,L,i,,,,,6,18,138,4,1,0,1,0,,,,,0,7,7,4,,,,,,up,0.5137477956850489,2260.871828308311,None,001,48,2019_Oct_21_1704,ACPT_experiment_5_30_19,3.1.0,59.950162505621485,
,,,C,G,g,v,R,D,d,L,c,,,,,6,18,138,4,1,0,1,0,,,,,0,8,8,0,,,,,,up,0.40031338840708486,2262.6698895986556,None,001,48,2019_Oct_21_1704,ACPT_experiment_5_30_19,3.1.0,59.950162505621485,
,,,C,G,g,v,L,G,y,R,y,,,,,6,18,138,4,1,0,1,0,,,,,0,9,9,35,,,,,,down,0.6505034076690208,2264.371195011383,None,001,48,2019_Oct_21_1704,ACPT_experiment_5_30_19,3.1.0,59.950162505621485,
,,,C,G,g,v,L,G,g,L,c ,,,,,6,18,138,4,1,0,1,0,,,,,0,10,10,18,,,,,,up,0.6004566499505017,2266.322696178664,None,001,48,2019_Oct_21_1704,ACPT_experiment_5_30_19,3.1.0,59.950162505621485,
,,,C,G,g,v,L,D,d,R,c ,,,,,6,18,138,4,1,0,1,0,,,,,0,11,11,13,,,,,,up,0.7002640045247972,2268.224431315659,None,001,48,2019_Oct_21_1704,ACPT_experiment_5_30_19,3.1.0,59.950162505621485,
,,,C,G,g,v,R,D,y,R,y,,,,,6,18,138,4,1,0,1,0,,,,,0,12,12,27,,,,,,down,0.5837823462898086,2270.2090163612775,None,001,48,2019_Oct_21_1704,ACPT_experiment_5_30_19,3.1.0,59.950162505621485,
,,,C,G,g,v,L,D,y,R,y,,,,,6,18,138,4,1,0,1,0,,,,,0,13,13,33,,,,,,down,0.6004651019575249,2272.077117031942,None,001,48,2019_Oct_21_1704,ACPT_experiment_5_30_19,3.1.0,59.950162505621485,
,,,C,G,g,v,L,D,g,R,i,,,,,6,18,138,4,1,0,1,0,,,,,0,14,14,15,,,,,,up,0.6671864651943906,2273.961899552709,None,001,48,2019_Oct_21_1704,ACPT_experiment_5_30_19,3.1.0,59.950162505621485,
,,,C,G,g,v,R,D,y,L,y,,,,,6,18,138,4,1,0,1,0,,,,,0,15,15,26,,,,,,down,0.767045135537046,2275.9302549306885,None,001,48,2019_Oct_21_1704,ACPT_experiment_5_30_19,3.1.0,59.950162505621485,
,,,C,G,g,v,R,U,g,R,u,,,,,6,18,138,4,1,0,1,0,,,,,0,16,16,11,,,,,,up,0.5671174002127373,2277.9983382747378,None,001,48,2019_Oct_21_1704,ACPT_experiment_5_30_19,3.1.0,59.950162505621485,
,,,C,G,g,v,L,U,d,R,u,,,,,6,18,138,4,1,0,1,0,,,,,0,17,17,21,,,,,,up,0.6505003890924854,2279.849753774877,None,001,48,2019_Oct_21_1704,ACPT_experiment_5_30_19,3.1.0,59.950162505621485,
,,,C,G,g,v,R,U,y,R,u,,,,,6,18,138,4,1,0,1,0,,,,,0,18,18,31,,,,,,down,0.6338272928624065,2281.784569771633,None,001,48,2019_Oct_21_1704,ACPT_experiment_5_30_19,3.1.0,59.950162505621485,
,,,C,G,g,v,L,G,g,R,c ,,,,,6,18,138,4,1,0,1,0,,,,,0,19,19,19,,,,,,up,0.6838722394386423,2283.702708748009,None,001,48,2019_Oct_21_1704,ACPT_experiment_5_30_19,3.1.0,59.950162505621485,
,,,C,G,g,v,R,G,g,L,c ,,,,,6,18,138,4,1,0,1,0,,,,,0,20,20,6,,,,,,up,0.6838710320080281,2285.670892369104,None,001,48,2019_Oct_21_1704,ACPT_experiment_5_30_19,3.1.0,59.950162505621485,
,,,C,G,g,v,L,U,d,L,u,,,,,6,18,138,4,1,0,1,0,,,,,0,21,21,20,,,,,,up,0.7669548801604833,2287.6560503401633,None,001,48,2019_Oct_21_1704,ACPT_experiment_5_30_19,3.1.0,59.950162505621485,
,,,C,G,g,v,L,D,g,L,i,,,,,6,18,138,4,1,0,1,0,,,,,0,22,22,14,,,,,,up,0.5671001943337615,2289.7073265632753,None,001,48,2019_Oct_21_1704,ACPT_experiment_5_30_19,3.1.0,59.950162505621485,
,,,C,G,g,v,L,U,y,L,u,,,,,6,18,138,4,1,0,1,0,,,,,0,23,23,24,,,,,,down,0.5671174002090993,2291.5587481005605,None,001,48,2019_Oct_21_1704,ACPT_experiment_5_30_19,3.1.0,59.950162505621485,
,,,C,G,g,v,L,G,y,L,y,,,,,6,18,138,4,1,0,1,0,,,,,0,24,24,34,,,,,,down,0.5337633594572253,2293.4101714489952,None,001,48,2019_Oct_21_1704,ACPT_experiment_5_30_19,3.1.0,59.950162505621485,
,,,C,G,g,v,L,U,g,L,u,,,,,6,18,138,4,1,0,1,0,,,,,0,25,25,22,,,,,,up,0.633820350143651,2295.2282344176638,None,001,48,2019_Oct_21_1704,ACPT_experiment_5_30_19,3.1.0,59.950162505621485,
,,,C,G,g,v,R,D,d,R,c ,,,,,6,18,138,4,1,0,1,0,,,,,0,26,26,1,,,,,,up,0.7172151114682492,2297.146373092186,None,001,48,2019_Oct_21_1704,ACPT_experiment_5_30_19,3.1.0,59.950162505621485,
,,,C,G,g,v,L,G,d,L,i,,,,,6,18,138,4,1,0,1,0,,,,,0,27,27,16,,,,,,down,0.683852014990407,2299.1479116596056,None,001,48,2019_Oct_21_1704,ACPT_experiment_5_30_19,3.1.0,59.950162505621485,
,,,C,G,g,v,R,D,g,L,i,,,,,6,18,138,4,1,0,1,0,,,,,0,28,28,2,,,,,,up,0.6171786470877123,2301.116068717245,None,001,48,2019_Oct_21_1704,ACPT_experiment_5_30_19,3.1.0,59.950162505621485,
,,,C,G,g,v,L,U,y,R,u,,,,,6,18,138,4,1,0,1,0,,,,,0,29,29,25,,,,,,down,0.6838486945562181,2303.0175593497006,None,001,48,2019_Oct_21_1704,ACPT_experiment_5_30_19,3.1.0,59.950162505621485,
,,,C,G,g,v,R,U,d,L,u,,,,,6,18,138,4,1,0,1,0,,,,,0,30,30,8,,,,,,up,0.533742531293683,2304.9857281797813,None,001,48,2019_Oct_21_1704,ACPT_experiment_5_30_19,3.1.0,59.950162505621485,
,,,C,G,g,v,L,G,d,R,i,,,,,6,18,138,4,1,0,1,0,,,,,0,31,31,17,,,,,,up,0.5668336542075849,2306.820741651678,None,001,48,2019_Oct_21_1704,ACPT_experiment_5_30_19,3.1.0,59.950162505621485,
,,,C,G,g,v,R,U,g,L,u,,,,,6,18,138,4,1,0,1,0,,,,,0,32,32,10,,,,,,up,0.450334488239605,2308.671896648837,None,001,48,2019_Oct_21_1704,ACPT_experiment_5_30_19,3.1.0,59.950162505621485,
,,,C,G,g,v,R,G,d,R,i,,,,,6,18,138,4,1,0,1,0,,,,,0,33,33,5,,,,,,up,0.4169747121959517,2310.406600173508,None,001,48,2019_Oct_21_1704,ACPT_experiment_5_30_19,3.1.0,59.950162505621485,
,,,C,G,g,v,L,U,g,R,u,,,,,6,18,138,4,1,0,1,0,,,,,0,34,34,23,,,,,,up,0.45034082724669133,2312.107863628047,None,001,48,2019_Oct_21_1704,ACPT_experiment_5_30_19,3.1.0,59.950162505621485,
,,,C,G,g,v,R,G,g,R,c ,,,,,6,18,138,4,1,0,1,0,,,,,0,35,35,7,,,,,,up,0.5501524078281363,2313.8427968662363,None,001,48,2019_Oct_21_1704,ACPT_experiment_5_30_19,3.1.0,59.950162505621485,
,,,C,G,g,v,R,D,y,L,y,,,,,6,18,138,4,1,0,1,0,,,,,1,0,36,26,,,,,,up,0.45034837368439185,2315.677273635589,None,001,48,2019_Oct_21_1704,ACPT_experiment_5_30_19,3.1.0,59.950162505621485,
,,,C,G,g,v,L,U,y,L,u,,,,,6,18,138,4,1,0,1,0,,,,,1,1,37,24,,,,,,down,0.51708392422006,2317.4119355039293,None,001,48,2019_Oct_21_1704,ACPT_experiment_5_30_19,3.1.0,59.950162505621485,
,,,C,G,g,v,L,D,d,R,c ,,,,,6,18,138,4,1,0,1,0,,,,,1,2,38,13,,,,,,up,0.6671906911979022,2319.2133181317913,None,001,48,2019_Oct_21_1704,ACPT_experiment_5_30_19,3.1.0,59.950162505621485,
,,,C,G,g,v,L,U,d,L,u,,,,,6,18,138,4,1,0,1,0,,,,,1,3,39,20,,,,,,down,0.7005248093628325,2321.1815117141814,None,001,48,2019_Oct_21_1704,ACPT_experiment_5_30_19,3.1.0,59.950162505621485,
,,,C,G,g,v,L,U,d,R,u,,,,,6,18,138,4,1,0,1,0,,,,,1,4,40,21,,,,,,up,0.7672679063362011,2323.166352131204,None,001,48,2019_Oct_21_1704,ACPT_experiment_5_30_19,3.1.0,59.950162505621485,
,,,C,G,g,v,L,U,g,L,u,,,,,6,18,138,4,1,0,1,0,,,,,1,5,41,22,,,,,,up,0.6672045766426891,2325.2012323632225,None,001,48,2019_Oct_21_1704,ACPT_experiment_5_30_19,3.1.0,59.950162505621485,
,,,C,G,g,v,L,D,y,L,y,,,,,6,18,138,4,1,0,1,0,,,,,1,6,42,32,,,,,,up,0.40012472749731387,2327.1695817040563,None,001,48,2019_Oct_21_1704,ACPT_experiment_5_30_19,3.1.0,59.950162505621485,
,,,C,G,g,v,R,G,y,L,y,,,,,6,18,138,4,1,0,1,0,,,,,1,7,43,28,,,,,,down,0.5670835921737307,2328.8707449419235,None,001,48,2019_Oct_21_1704,ACPT_experiment_5_30_19,3.1.0,59.950162505621485,
,,,C,G,g,v,R,D,d,L,c,,,,,6,18,138,4,1,0,1,0,,,,,1,8,44,0,,,,,,down,0.5003779255275731,2330.722161045778,None,001,48,2019_Oct_21_1704,ACPT_experiment_5_30_19,3.1.0,59.950162505621485,
,,,C,G,g,v,R,D,g,R,i,,,,,6,18,138,4,1,0,1,0,,,,,1,9,45,3,,,,,,up,0.6838565428515722,2332.5068639365454,None,001,48,2019_Oct_21_1704,ACPT_experiment_5_30_19,3.1.0,59.950162505621485,
,,,C,G,g,v,L,D,g,L,i,,,,,6,18,138,4,1,0,1,0,,,,,1,10,46,14,,,,,,up,0.6001753188065777,2334.492003192445,None,001,48,2019_Oct_21_1704,ACPT_experiment_5_30_19,3.1.0,59.950162505621485,
,,,C,G,g,v,R,U,g,R,u,,,,,6,18,138,4,1,0,1,0,,,,,1,11,47,11,,,,,,up,0.567107740771462,2336.3765010616335,None,001,48,2019_Oct_21_1704,ACPT_experiment_5_30_19,3.1.0,59.950162505621485,
,,,C,G,g,v,L,D,y,R,y,,,,,6,18,138,4,1,0,1,0,,,,,1,12,48,33,,,,,,down,0.6171457446253044,2338.2279195803458,None,001,48,2019_Oct_21_1704,ACPT_experiment_5_30_19,3.1.0,59.950162505621485,
,,,C,G,g,v,L,D,d,L,c ,,,,,6,18,138,4,1,0,1,0,,,,,1,13,49,12,,,,,,up,0.5004044889828947,2340.1126833859453,None,001,48,2019_Oct_21_1704,ACPT_experiment_5_30_19,3.1.0,59.950162505621485,
,,,C,G,g,v,R,D,g,L,i,,,,,6,18,138,4,1,0,1,0,,,,,1,14,50,2,,,,,,up,1.0508140793572238,2341.897408916022,None,001,48,2019_Oct_21_1704,ACPT_experiment_5_30_19,3.1.0,59.950162505621485,
,,,C,G,g,v,L,U,y,R,u,,,,,6,18,138,4,1,0,1,0,,,,,1,15,51,25,,,,,,down,0.5170670202023757,2344.2325349807506,None,001,48,2019_Oct_21_1704,ACPT_experiment_5_30_19,3.1.0,59.950162505621485,
,,,C,G,g,v,L,G,g,L,c ,,,,,6,18,138,4,1,0,1,0,,,,,1,16,52,18,,,,,,up,0.5337802634712716,2346.0339188160433,None,001,48,2019_Oct_21_1704,ACPT_experiment_5_30_19,3.1.0,59.950162505621485,
,,,C,G,g,v,L,G,y,L,y,,,,,6,18,138,4,1,0,1,0,,,,,1,17,53,34,,,,,,down,0.5470976104370493,2347.8719882927617,None,001,48,2019_Oct_21_1704,ACPT_experiment_5_30_19,3.1.0,59.950162505621485,
,,,C,G,g,v,R,G,g,R,c ,,,,,6,18,138,4,1,0,1,0,,,,,1,18,54,7,,,,,,up,0.6838628818550205,2349.70340211457,None,001,48,2019_Oct_21_1704,ACPT_experiment_5_30_19,3.1.0,59.950162505621485,
,,,C,G,g,v,R,U,g,L,u,,,,,6,18,138,4,1,0,1,0,,,,,1,19,55,10,,,,,,down,0.46702780892155715,2351.6715824152343,None,001,48,2019_Oct_21_1704,ACPT_experiment_5_30_19,3.1.0,59.950162505621485,
,,,C,G,g,v,L,G,d,R,i,,,,,6,18,138,4,1,0,1,0,,,,,1,20,56,17,,,,,,up,0.6838538261326903,2353.4229288503884,None,001,48,2019_Oct_21_1704,ACPT_experiment_5_30_19,3.1.0,59.950162505621485,
,,,C,G,g,v,R,D,y,R,y,,,,,6,18,138,4,1,0,1,0,,,,,1,21,57,27,,,,,,down,0.5337706040372723,2355.391083191309,None,001,48,2019_Oct_21_1704,ACPT_experiment_5_30_19,3.1.0,59.950162505621485,
,,,C,G,g,v,R,G,d,L,i,,,,,6,18,138,4,1,0,1,0,,,,,1,22,58,4,,,,,,up,0.7839343617015402,2357.2091712141482,None,001,48,2019_Oct_21_1704,ACPT_experiment_5_30_19,3.1.0,59.950162505621485,
,,,C,G,g,v,R,U,y,L,u,,,,,6,18,138,4,1,0,1,0,,,,,1,23,59,30,,,,,,down,0.6504976723772415,2359.2774251076553,None,001,48,2019_Oct_21_1704,ACPT_experiment_5_30_19,3.1.0,59.950162505621485,
,,,C,G,g,v,R,U,d,L,u,,,,,6,18,138,4,1,0,1,0,,,,,1,24,60,8,,,,,,down,0.9307270357421658,2361.232244895742,None,001,48,2019_Oct_21_1704,ACPT_experiment_5_30_19,3.1.0,59.950162505621485,
,,,C,G,g,v,L,G,d,L,i,,,,,6,18,138,4,1,0,1,0,,,,,1,25,61,16,,,,,,up,0.5337748300407839,2363.4472923688627,None,001,48,2019_Oct_21_1704,ACPT_experiment_5_30_19,3.1.0,59.950162505621485,
,,,C,G,g,v,R,G,g,L,c ,,,,,6,18,138,4,1,0,1,0,,,,,1,26,62,6,,,,,,up,0.5003933202569897,2365.2653538282466,None,001,48,2019_Oct_21_1704,ACPT_experiment_5_30_19,3.1.0,59.950162505621485,
,,,C,G,g,v,L,D,g,R,i,,,,,6,18,138,4,1,0,1,0,,,,,1,27,63,15,,,,,,up,0.73387915197236,2367.0500754341774,None,001,48,2019_Oct_21_1704,ACPT_experiment_5_30_19,3.1.0,59.950162505621485,
,,,C,G,g,v,L,U,g,R,u,,,,,6,18,138,4,1,0,1,0,,,,,1,28,64,23,,,,,,up,0.8339726674130361,2369.0682792495354,None,001,48,2019_Oct_21_1704,ACPT_experiment_5_30_19,3.1.0,59.950162505621485,
,,,C,G,g,v,L,G,y,R,y,,,,,6,18,138,4,1,0,1,0,,,,,1,29,65,35,,,,,,up,0.4501591090593138,2371.203400907143,None,001,48,2019_Oct_21_1704,ACPT_experiment_5_30_19,3.1.0,59.950162505621485,
,,,C,G,g,v,L,G,g,R,c ,,,,,6,18,138,4,1,0,1,0,,,,,1,30,66,19,,,,,,up,0.583814343179256,2372.954597922857,None,001,48,2019_Oct_21_1704,ACPT_experiment_5_30_19,3.1.0,59.950162505621485,
,,,C,G,g,v,R,D,d,R,c ,,,,,6,18,138,4,1,0,1,0,,,,,1,31,67,1,,,,,,up,0.41698648463352583,2374.82270734739,None,001,48,2019_Oct_21_1704,ACPT_experiment_5_30_19,3.1.0,59.950162505621485,
,,,C,G,g,v,R,U,d,R,u,,,,,6,18,138,4,1,0,1,0,,,,,1,32,68,9,,,,,,up,0.4503471662537777,2376.5240024969644,None,001,48,2019_Oct_21_1704,ACPT_experiment_5_30_19,3.1.0,59.950162505621485,
,,,C,G,g,v,R,G,y,R,y,,,,,6,18,138,4,1,0,1,0,,,,,1,33,69,29,,,,,,down,0.4003076531153056,2378.2586713080273,None,001,48,2019_Oct_21_1704,ACPT_experiment_5_30_19,3.1.0,59.950162505621485,
,,,C,G,g,v,R,U,y,R,u,,,,,6,18,138,4,1,0,1,0,,,,,1,34,70,31,,,,,,down,0.8173004767522798,2379.943288833507,None,001,48,2019_Oct_21_1704,ACPT_experiment_5_30_19,3.1.0,59.950162505621485,
,,,C,G,g,v,R,G,d,R,i,,,,,6,18,138,4,1,0,1,0,,,,,1,35,71,5,,,,,,down,0.7338933392748004,2382.044910049499,None,001,48,2019_Oct_21_1704,ACPT_experiment_5_30_19,3.1.0,59.950162505621485,
,,,C,G,g,v,,,,,,,,,,6,18,138,4,2,0,2,0,0,0,0,0,,,,,,,,,,,,,,001,48,2019_Oct_21_1704,ACPT_experiment_5_30_19,3.1.0,59.950162505621485,
,,,C,G,g,v,R,D,g,R,i,,,,,6,18,138,4,2,0,2,0,,,,,0,0,0,3,,,,,,up,0.6838465815562813,2413.0520755416364,None,001,48,2019_Oct_21_1704,ACPT_experiment_5_30_19,3.1.0,59.950162505621485,
,,,C,G,g,v,L,G,y,L,y,,,,,6,18,138,4,2,0,2,0,,,,,0,1,1,34,,,,,,down,0.550416231239069,2415.0202440698595,None,001,48,2019_Oct_21_1704,ACPT_experiment_5_30_19,3.1.0,59.950162505621485,
,,,C,G,g,v,L,U,y,L,u,,,,,6,18,138,4,2,0,2,0,,,,,0,2,2,24,,,,,,down,0.5337349848559825,2416.87166621086,None,001,48,2019_Oct_21_1704,ACPT_experiment_5_30_19,3.1.0,59.950162505621485,
,,,C,G,g,v,L,G,d,L,i,,,,,6,18,138,4,2,0,2,0,,,,,0,3,3,16,,,,,,up,0.5504340408260759,2418.706398653474,None,001,48,2019_Oct_21_1704,ACPT_experiment_5_30_19,3.1.0,59.950162505621485,
,,,C,G,g,v,L,G,g,L,c ,,,,,6,18,138,4,2,0,2,0,,,,,0,4,4,18,,,,,,up,0.5337863006243424,2420.524444416271,None,001,48,2019_Oct_21_1704,ACPT_experiment_5_30_19,3.1.0,59.950162505621485,
,,,C,G,g,v,R,U,y,R,u,,,,,6,18,138,4,2,0,2,0,,,,,0,5,5,31,,,,,,down,0.683866504146863,2422.342522477815,None,001,48,2019_Oct_21_1704,ACPT_experiment_5_30_19,3.1.0,59.950162505621485,
,,,C,G,g,v,L,U,y,R,u,,,,,6,18,138,4,2,0,2,0,,,,,0,6,6,25,,,,,,down,0.6503841739759082,2424.310706702625,None,001,48,2019_Oct_21_1704,ACPT_experiment_5_30_19,3.1.0,59.950162505621485,
,,,C,G,g,v,L,D,d,L,c ,,,,,6,18,138,4,2,0,2,0,,,,,0,7,7,12,,,,,,down,0.6504626569112588,2426.2622359426496,None,001,48,2019_Oct_21_1704,ACPT_experiment_5_30_19,3.1.0,59.950162505621485,
,,,C,G,g,v,R,D,d,L,c,,,,,6,18,138,4,2,0,2,0,,,,,0,8,8,0,,,,,,down,0.6171599319241068,2428.1970271870923,None,001,48,2019_Oct_21_1704,ACPT_experiment_5_30_19,3.1.0,59.950162505621485,
,,,C,G,g,v,R,U,g,L,u,,,,,6,18,138,4,2,0,2,0,,,,,0,9,9,10,,,,,,up,1.3010068153380416,2430.098484917089,None,001,48,2019_Oct_21_1704,ACPT_experiment_5_30_19,3.1.0,59.950162505621485,
,,,C,G,g,v,L,G,g,R,c ,,,,,6,18,138,4,2,0,2,0,,,,,0,10,10,19,,,,,,down,0.9504648906549846,2432.6840696542095,None,001,48,2019_Oct_21_1704,ACPT_experiment_5_30_19,3.1.0,59.950162505621485,
,,,C,G,g,v,L,G,y,R,y,,,,,6,18,138,4,2,0,2,0,,,,,0,11,11,35,,,,,,up,0.5504005346483609,2434.918874904837,None,001,48,2019_Oct_21_1704,ACPT_experiment_5_30_19,3.1.0,59.950162505621485,
,,,C,G,g,v,L,D,y,L,y,,,,,6,18,138,4,2,0,2,0,,,,,0,12,12,32,,,,,,down,0.46702690334859653,2436.75359346201,None,001,48,2019_Oct_21_1704,ACPT_experiment_5_30_19,3.1.0,59.950162505621485,
,,,C,G,g,v,L,D,d,R,c ,,,,,6,18,138,4,2,0,2,0,,,,,0,13,13,13,,,,,,down,0.5337407201477617,2438.5049371804453,None,001,48,2019_Oct_21_1704,ACPT_experiment_5_30_19,3.1.0,59.950162505621485,
,,,C,G,g,v,R,U,d,R,u,,,,,6,18,138,4,2,0,2,0,,,,,0,14,14,9,,,,,,down,0.467056183519162,2440.3230037714056,None,001,48,2019_Oct_21_1704,ACPT_experiment_5_30_19,3.1.0,59.950162505621485,
,,,C,G,g,v,R,D,y,R,y,,,,,6,18,138,4,2,0,2,0,,,,,0,15,15,27,,,,,,down,0.5337458517242339,2442.074348697275,None,001,48,2019_Oct_21_1704,ACPT_experiment_5_30_19,3.1.0,59.950162505621485,
,,,C,G,g,v,L,U,g,R,u,,,,,6,18,138,4,2,0,2,0,,,,,0,16,16,23,,,,,,down,0.48358951975023956,2443.8924125715166,None,001,48,2019_Oct_21_1704,ACPT_experiment_5_30_19,3.1.0,59.950162505621485,
,,,C,G,g,v,R,G,y,L,y,,,,,6,18,138,4,2,0,2,0,,,,,0,17,17,28,,,,,,down,0.6169525558580062,2445.693965145125,None,001,48,2019_Oct_21_1704,ACPT_experiment_5_30_19,3.1.0,59.950162505621485,
,,,C,G,g,v,R,D,g,L,i,,,,,6,18,138,4,2,0,2,0,,,,,0,18,18,2,,,,,,up,0.7338631535276363,2447.6119637577867,None,001,48,2019_Oct_21_1704,ACPT_experiment_5_30_19,3.1.0,59.950162505621485,
,,,C,G,g,v,L,D,y,R,y,,,,,6,18,138,4,2,0,2,0,,,,,0,19,19,33,,,,,,down,0.6337071535999712,2449.630152480273,None,001,48,2019_Oct_21_1704,ACPT_experiment_5_30_19,3.1.0,59.950162505621485,
,,,C,G,g,v,R,D,y,L,y,,,,,6,18,138,4,2,0,2,0,,,,,0,20,20,26,,,,,,down,0.6671656370308483,2451.564977532751,None,001,48,2019_Oct_21_1704,ACPT_experiment_5_30_19,3.1.0,59.950162505621485,
,,,C,G,g,v,R,U,g,R,u,,,,,6,18,138,4,2,0,2,0,,,,,0,21,21,11,,,,,,up,0.9340468639747996,2453.5331523999776,None,001,48,2019_Oct_21_1704,ACPT_experiment_5_30_19,3.1.0,59.950162505621485,
,,,C,G,g,v,R,G,d,R,i,,,,,6,18,138,4,2,0,2,0,,,,,0,22,22,5,,,,,,up,0.9173734658870671,2455.7515221161884,None,001,48,2019_Oct_21_1704,ACPT_experiment_5_30_19,3.1.0,59.950162505621485,
,,,C,G,g,v,R,U,y,L,u,,,,,6,18,138,4,2,0,2,0,,,,,0,23,23,30,,,,,,down,0.6338191427130369,2457.953212095308,None,001,48,2019_Oct_21_1704,ACPT_experiment_5_30_19,3.1.0,59.950162505621485,
,,,C,G,g,v,R,U,d,L,u,,,,,6,18,138,4,2,0,2,0,,,,,0,24,24,8,,,,,,down,0.5671219280702644,2459.8713501661114,None,001,48,2019_Oct_21_1704,ACPT_experiment_5_30_19,3.1.0,59.950162505621485,
,,,C,G,g,v,L,D,g,L,i,,,,,6,18,138,4,2,0,2,0,,,,,0,25,25,14,,,,,,down,0.6338185389977298,2461.7227762312614,None,001,48,2019_Oct_21_1704,ACPT_experiment_5_30_19,3.1.0,59.950162505621485,
,,,C,G,g,v,L,D,g,R,i,,,,,6,18,138,4,2,0,2,0,,,,,0,26,26,15,,,,,,up,0.8007668386635487,2463.6240839381026,None,001,48,2019_Oct_21_1704,ACPT_experiment_5_30_19,3.1.0,59.950162505621485,
,,,C,G,g,v,R,D,d,R,c ,,,,,6,18,138,4,2,0,2,0,,,,,0,27,27,1,,,,,,up,0.5001141021166404,2465.7261190006575,None,001,48,2019_Oct_21_1704,ACPT_experiment_5_30_19,3.1.0,59.950162505621485,
,,,C,G,g,v,R,G,g,R,c ,,,,,6,18,138,4,2,0,2,0,,,,,0,28,28,7,,,,,,up,0.6004666112457926,2467.5105583698714,None,001,48,2019_Oct_21_1704,ACPT_experiment_5_30_19,3.1.0,59.950162505621485,
,,,C,G,g,v,L,U,d,L,u,,,,,6,18,138,4,2,0,2,0,,,,,0,29,29,20,,,,,,up,0.7672380224503286,2469.3953408906345,None,001,48,2019_Oct_21_1704,ACPT_experiment_5_30_19,3.1.0,59.950162505621485,
,,,C,G,g,v,L,G,d,R,i,,,,,6,18,138,4,2,0,2,0,,,,,0,30,30,17,,,,,,up,0.5003752088123292,2471.446915348908,None,001,48,2019_Oct_21_1704,ACPT_experiment_5_30_19,3.1.0,59.950162505621485,
,,,C,G,g,v,L,U,d,R,u,,,,,6,18,138,4,2,0,2,0,,,,,0,31,31,21,,,,,,up,0.8172962507487682,2473.2316158248177,None,001,48,2019_Oct_21_1704,ACPT_experiment_5_30_19,3.1.0,59.950162505621485,
,,,C,G,g,v,R,G,d,L,i,,,,,6,18,138,4,2,0,2,0,,,,,0,32,32,4,,,,,,up,0.5172445123826037,2475.3332264757955,None,001,48,2019_Oct_21_1704,ACPT_experiment_5_30_19,3.1.0,59.950162505621485,
,,,C,G,g,v,L,U,g,L,u,,,,,6,18,138,4,2,0,2,0,,,,,0,33,33,22,,,,,,up,0.46701724390732124,2477.134611216661,None,001,48,2019_Oct_21_1704,ACPT_experiment_5_30_19,3.1.0,59.950162505621485,
,,,C,G,g,v,R,G,g,L,c ,,,,,6,18,138,4,2,0,2,0,,,,,0,34,34,6,,,,,,up,0.3833529238800111,2478.902907249467,None,001,48,2019_Oct_21_1704,ACPT_experiment_5_30_19,3.1.0,59.950162505621485,
,,,C,G,g,v,R,G,y,R,y,,,,,6,18,138,4,2,0,2,0,,,,,0,35,35,29,,,,,,down,0.8006080616469262,2480.587265781258,None,001,48,2019_Oct_21_1704,ACPT_experiment_5_30_19,3.1.0,59.950162505621485,
,,,C,G,g,v,L,D,y,R,y,,,,,6,18,138,4,2,0,2,0,,,,,1,0,36,33,,,,,,down,0.6671858614790835,2482.6888776396663,None,001,48,2019_Oct_21_1704,ACPT_experiment_5_30_19,3.1.0,59.950162505621485,
,,,C,G,g,v,R,G,g,R,c ,,,,,6,18,138,4,2,0,2,0,,,,,1,1,37,7,,,,,,up,0.517065510914108,2484.6403839385275,None,001,48,2019_Oct_21_1704,ACPT_experiment_5_30_19,3.1.0,59.950162505621485,
,,,C,G,g,v,R,D,y,L,y,,,,,6,18,138,4,2,0,2,0,,,,,1,2,38,26,,,,,,down,0.5837883834392414,2486.441757812525,None,001,48,2019_Oct_21_1704,ACPT_experiment_5_30_19,3.1.0,59.950162505621485,
,,,C,G,g,v,L,D,y,L,y,,,,,6,18,138,4,2,0,2,0,,,,,1,3,39,32,,,,,,down,0.7005380910886743,2488.309859992478,None,001,48,2019_Oct_21_1704,ACPT_experiment_5_30_19,3.1.0,59.950162505621485,
,,,C,G,g,v,R,G,d,R,i,,,,,6,18,138,4,2,0,2,0,,,,,1,4,40,5,,,,,,up,0.7505661336472258,2490.294723954379,None,001,48,2019_Oct_21_1704,ACPT_experiment_5_30_19,3.1.0,59.950162505621485,
,,,C,G,g,v,R,D,d,R,c ,,,,,6,18,138,4,2,0,2,0,,,,,1,5,41,1,,,,,,up,0.7172148096105957,2492.329615958839,None,001,48,2019_Oct_21_1704,ACPT_experiment_5_30_19,3.1.0,59.950162505621485,
,,,C,G,g,v,R,D,g,R,i,,,,,6,18,138,4,2,0,2,0,,,,,1,6,42,3,,,,,,up,0.550445813267288,2494.3144497350004,None,001,48,2019_Oct_21_1704,ACPT_experiment_5_30_19,3.1.0,59.950162505621485,
,,,C,G,g,v,R,G,g,L,c ,,,,,6,18,138,4,2,0,2,0,,,,,1,7,43,6,,,,,,up,0.6838788803033822,2496.149215985646,None,001,48,2019_Oct_21_1704,ACPT_experiment_5_30_19,3.1.0,59.950162505621485,
,,,C,G,g,v,L,G,d,L,i,,,,,6,18,138,4,2,0,2,0,,,,,1,8,44,16,,,,,,up,0.4334008890327823,2498.134339243097,None,001,48,2019_Oct_21_1704,ACPT_experiment_5_30_19,3.1.0,59.950162505621485,
,,,C,G,g,v,L,U,y,L,u,,,,,6,18,138,4,2,0,2,0,,,,,1,9,45,24,,,,,,down,0.6004720446762803,2499.8520690215155,None,001,48,2019_Oct_21_1704,ACPT_experiment_5_30_19,3.1.0,59.950162505621485,
,,,C,G,g,v,L,G,g,L,c ,,,,,6,18,138,4,2,0,2,0,,,,,1,10,46,18,,,,,,up,0.5170558514764707,2501.7368439958445,None,001,48,2019_Oct_21_1704,ACPT_experiment_5_30_19,3.1.0,59.950162505621485,
,,,C,G,g,v,L,U,y,R,u,,,,,6,18,138,4,2,0,2,0,,,,,1,11,47,25,,,,,,down,0.6004605740963598,2503.5382220958454,None,001,48,2019_Oct_21_1704,ACPT_experiment_5_30_19,3.1.0,59.950162505621485,
,,,C,G,g,v,L,G,y,R,y,,,,,6,18,138,4,2,0,2,0,,,,,1,12,48,35,,,,,,down,0.6669323012210953,2505.456611613903,None,001,48,2019_Oct_21_1704,ACPT_experiment_5_30_19,3.1.0,59.950162505621485,
,,,C,G,g,v,R,G,y,R,y,,,,,6,18,138,4,2,0,2,0,,,,,1,13,49,29,,,,,,down,0.5337328718524077,2507.4245437877435,None,001,48,2019_Oct_21_1704,ACPT_experiment_5_30_19,3.1.0,59.950162505621485,
,,,C,G,g,v,R,U,y,L,u,,,,,6,18,138,4,2,0,2,0,,,,,1,14,50,30,,,,,,down,0.5670935534726596,2509.242611284277,None,001,48,2019_Oct_21_1704,ACPT_experiment_5_30_19,3.1.0,59.950162505621485,
,,,C,G,g,v,R,U,g,L,u,,,,,6,18,138,4,2,0,2,0,,,,,1,15,51,10,,,,,,up,0.7172151114682492,2511.0940255769856,None,001,48,2019_Oct_21_1704,ACPT_experiment_5_30_19,3.1.0,59.950162505621485,
,,,C,G,g,v,R,G,d,L,i,,,,,6,18,138,4,2,0,2,0,,,,,1,16,52,4,,,,,,up,0.5004277320076653,2513.095565049978,None,001,48,2019_Oct_21_1704,ACPT_experiment_5_30_19,3.1.0,59.950162505621485,
,,,C,G,g,v,R,D,d,L,c,,,,,6,18,138,4,2,0,2,0,,,,,1,17,53,0,,,,,,up,0.5837968354462646,2514.8802513385854,None,001,48,2019_Oct_21_1704,ACPT_experiment_5_30_19,3.1.0,59.950162505621485,
,,,C,G,g,v,R,U,y,R,u,,,,,6,18,138,4,2,0,2,0,,,,,1,18,54,31,,,,,,down,0.7172383544893819,2516.7483695169867,None,001,48,2019_Oct_21_1704,ACPT_experiment_5_30_19,3.1.0,59.950162505621485,
,,,C,G,g,v,L,D,g,L,i,,,,,6,18,138,4,2,0,2,0,,,,,1,19,55,14,,,,,,up,1.0172143266354396,2518.7668199498803,None,001,48,2019_Oct_21_1704,ACPT_experiment_5_30_19,3.1.0,59.950162505621485,
,,,C,G,g,v,L,D,d,L,c ,,,,,6,18,138,4,2,0,2,0,,,,,1,20,56,12,,,,,,up,0.5504461151249416,2521.0516499226324,None,001,48,2019_Oct_21_1704,ACPT_experiment_5_30_19,3.1.0,59.950162505621485,
,,,C,G,g,v,L,D,d,R,c ,,,,,6,18,138,4,2,0,2,0,,,,,1,21,57,13,,,,,,up,0.8506493859313196,2522.86973734176,None,001,48,2019_Oct_21_1704,ACPT_experiment_5_30_19,3.1.0,59.950162505621485,
,,,C,G,g,v,R,D,y,R,y,,,,,6,18,138,4,2,0,2,0,,,,,1,22,58,27,,,,,,down,0.6338263872894458,2525.0047092780696,None,001,48,2019_Oct_21_1704,ACPT_experiment_5_30_19,3.1.0,59.950162505621485,
,,,C,G,g,v,R,G,y,L,y,,,,,6,18,138,4,2,0,2,0,,,,,1,23,59,28,,,,,,down,1.4177788604429225,2526.9228518767377,None,001,48,2019_Oct_21_1704,ACPT_experiment_5_30_19,3.1.0,59.950162505621485,
,,,C,G,g,v,L,G,y,L,y,,,,,6,18,138,4,2,0,2,0,,,,,1,24,60,34,,,,,,down,0.7339020931394771,2529.6249246111,None,001,48,2019_Oct_21_1704,ACPT_experiment_5_30_19,3.1.0,59.950162505621485,
,,,C,G,g,v,R,U,d,L,u,,,,,6,18,138,4,2,0,2,0,,,,,1,25,61,8,,,,,,up,0.8006080616469262,2531.6431465379064,None,001,48,2019_Oct_21_1704,ACPT_experiment_5_30_19,3.1.0,59.950162505621485,
,,,C,G,g,v,L,G,d,R,i,,,,,6,18,138,4,2,0,2,0,,,,,1,26,62,17,,,,,,down,0.767255530179682,2533.728075640647,None,001,48,2019_Oct_21_1704,ACPT_experiment_5_30_19,3.1.0,59.950162505621485,
,,,C,G,g,v,L,G,g,R,c ,,,,,6,18,138,4,2,0,2,0,,,,,1,27,63,19,,,,,,up,0.7172311099093349,2535.762969456253,None,001,48,2019_Oct_21_1704,ACPT_experiment_5_30_19,3.1.0,59.950162505621485,
,,,C,G,g,v,R,U,d,R,u,,,,,6,18,138,4,2,0,2,0,,,,,1,28,64,9,,,,,,up,0.5503932900719519,2537.764528851836,None,001,48,2019_Oct_21_1704,ACPT_experiment_5_30_19,3.1.0,59.950162505621485,
,,,C,G,g,v,L,D,g,R,i,,,,,6,18,138,4,2,0,2,0,,,,,1,29,65,15,,,,,,up,1.4844923753807961,2539.599232014276,None,001,48,2019_Oct_21_1704,ACPT_experiment_5_30_19,3.1.0,59.950162505621485,
,,,C,G,g,v,L,U,g,R,u,,,,,6,18,138,4,2,0,2,0,,,,,1,30,66,23,,,,,,up,0.7172148096105957,2542.3680460344694,None,001,48,2019_Oct_21_1704,ACPT_experiment_5_30_19,3.1.0,59.950162505621485,
,,,C,G,g,v,L,U,g,L,u,,,,,6,18,138,4,2,0,2,0,,,,,1,31,67,22,,,,,,up,0.4333963611679792,2544.3698517457306,None,001,48,2019_Oct_21_1704,ACPT_experiment_5_30_19,3.1.0,59.950162505621485,
,,,C,G,g,v,L,U,d,L,u,,,,,6,18,138,4,2,0,2,0,,,,,1,32,68,20,,,,,,up,0.48375282463166513,2546.0708688845953,None,001,48,2019_Oct_21_1704,ACPT_experiment_5_30_19,3.1.0,59.950162505621485,
,,,C,G,g,v,R,U,g,R,u,,,,,6,18,138,4,2,0,2,0,,,,,1,33,69,11,,,,,,up,0.5504222683848639,2547.838914979435,None,001,48,2019_Oct_21_1704,ACPT_experiment_5_30_19,3.1.0,59.950162505621485,
,,,C,G,g,v,R,D,g,L,i,,,,,6,18,138,4,2,0,2,0,,,,,1,34,70,2,,,,,,up,0.4503474681114312,2549.673655572198,None,001,48,2019_Oct_21_1704,ACPT_experiment_5_30_19,3.1.0,59.950162505621485,
,,,C,G,g,v,L,U,d,R,u,,,,,6,18,138,4,2,0,2,0,,,,,1,35,71,21,,,,,,up,0.46370345282775816,2551.4283185151507,None,001,48,2019_Oct_21_1704,ACPT_experiment_5_30_19,3.1.0,59.950162505621485,
,,,C,G,g,v,,,,,,,,,,6,18,138,4,3,0,3,0,0,0,0,0,,,,,,,,,,,,,,001,48,2019_Oct_21_1704,ACPT_experiment_5_30_19,3.1.0,59.950162505621485,
,,,C,G,g,v,R,G,g,R,c ,,,,,6,18,138,4,3,0,3,0,,,,,0,0,0,7,,,,,,up,0.8506880236855068,2555.5448264349834,None,001,48,2019_Oct_21_1704,ACPT_experiment_5_30_19,3.1.0,59.950162505621485,
,,,C,G,g,v,L,G,d,R,i,,,,,6,18,138,4,3,0,3,0,,,,,0,1,1,17,,,,,,up,0.6338508377448306,2557.6798025973003,None,001,48,2019_Oct_21_1704,ACPT_experiment_5_30_19,3.1.0,59.950162505621485,
,,,C,G,g,v,R,U,g,L,u,,,,,6,18,138,4,3,0,3,0,,,,,0,2,2,10,,,,,,up,0.5003830571040453,2559.597945497826,None,001,48,2019_Oct_21_1704,ACPT_experiment_5_30_19,3.1.0,59.950162505621485,
,,,C,G,g,v,L,U,g,L,u,,,,,6,18,138,4,3,0,3,0,,,,,0,3,3,22,,,,,,up,0.4670353553556197,2561.382652312739,None,001,48,2019_Oct_21_1704,ACPT_experiment_5_30_19,3.1.0,59.950162505621485,
,,,C,G,g,v,L,D,d,R,c ,,,,,6,18,138,4,3,0,3,0,,,,,0,4,4,13,,,,,,down,0.6838598632821231,2563.133990597744,None,001,48,2019_Oct_21_1704,ACPT_experiment_5_30_19,3.1.0,59.950162505621485,
,,,C,G,g,v,L,U,d,L,u,,,,,6,18,138,4,3,0,3,0,,,,,0,5,5,20,,,,,,down,0.4503553164031473,2565.1021708984044,None,001,48,2019_Oct_21_1704,ACPT_experiment_5_30_19,3.1.0,59.950162505621485,
,,,C,G,g,v,L,D,d,L,c ,,,,,6,18,138,4,3,0,3,0,,,,,0,6,6,12,,,,,,down,0.450338412389101,2566.8368385020367,None,001,48,2019_Oct_21_1704,ACPT_experiment_5_30_19,3.1.0,59.950162505621485,
,,,C,G,g,v,R,D,d,R,c ,,,,,6,18,138,4,3,0,3,0,,,,,0,7,7,1,,,,,,down,0.5671146834902174,2568.5715067093843,None,001,48,2019_Oct_21_1704,ACPT_experiment_5_30_19,3.1.0,59.950162505621485,
,,,C,G,g,v,R,U,y,R,u,,,,,6,18,138,4,3,0,3,0,,,,,0,8,8,31,,,,,,down,0.5835055430070497,2570.4398766368977,None,001,48,2019_Oct_21_1704,ACPT_experiment_5_30_19,3.1.0,59.950162505621485,
,,,C,G,g,v,R,U,d,R,u,,,,,6,18,138,4,3,0,3,0,,,,,0,9,9,9,,,,,,down,0.4837495041974762,2572.3077065414327,None,001,48,2019_Oct_21_1704,ACPT_experiment_5_30_19,3.1.0,59.950162505621485,
,,,C,G,g,v,L,G,d,L,i,,,,,6,18,138,4,3,0,3,0,,,,,0,10,10,16,,,,,,up,0.6338269910047529,2574.059045732007,None,001,48,2019_Oct_21_1704,ACPT_experiment_5_30_19,3.1.0,59.950162505621485,
,,,C,G,g,v,L,G,g,R,c ,,,,,6,18,138,4,3,0,3,0,,,,,0,11,11,19,,,,,,up,0.8506771568172553,2575.9604916895623,None,001,48,2019_Oct_21_1704,ACPT_experiment_5_30_19,3.1.0,59.950162505621485,
,,,C,G,g,v,L,D,g,L,i,,,,,6,18,138,4,3,0,3,0,,,,,0,12,12,14,,,,,,up,0.4169867864911794,2578.095482039178,None,001,48,2019_Oct_21_1704,ACPT_experiment_5_30_19,3.1.0,59.950162505621485,
,,,C,G,g,v,L,U,g,R,u,,,,,6,18,138,4,3,0,3,0,,,,,0,13,13,23,,,,,,up,0.6838858230221376,2579.796764812596,None,001,48,2019_Oct_21_1704,ACPT_experiment_5_30_19,3.1.0,59.950162505621485,
,,,C,G,g,v,L,G,y,L,y,,,,,6,18,138,4,3,0,3,0,,,,,0,14,14,34,,,,,,down,0.5337105344005977,2581.78167405312,None,001,48,2019_Oct_21_1704,ACPT_experiment_5_30_19,3.1.0,59.950162505621485,
,,,C,G,g,v,R,G,d,R,i,,,,,6,18,138,4,3,0,3,0,,,,,0,15,15,5,,,,,,up,0.7503192142539774,2583.6333219834924,None,001,48,2019_Oct_21_1704,ACPT_experiment_5_30_19,3.1.0,59.950162505621485,
,,,C,G,g,v,R,G,d,L,i,,,,,6,18,138,4,3,0,3,0,,,,,0,16,16,4,,,,,,down,0.6004575555198244,2585.6679625406978,None,001,48,2019_Oct_21_1704,ACPT_experiment_5_30_19,3.1.0,59.950162505621485,
,,,C,G,g,v,R,G,y,R,y,,,,,6,18,138,4,3,0,3,0,,,,,0,17,17,29,,,,,,down,0.7672525116031466,2587.552745061461,None,001,48,2019_Oct_21_1704,ACPT_experiment_5_30_19,3.1.0,59.950162505621485,
,,,C,G,g,v,L,U,y,R,u,,,,,6,18,138,4,3,0,3,0,,,,,0,18,18,25,,,,,,down,0.6336190112233453,2589.621162561707,None,001,48,2019_Oct_21_1704,ACPT_experiment_5_30_19,3.1.0,59.950162505621485,
,,,C,G,g,v,L,D,g,R,i,,,,,6,18,138,4,3,0,3,0,,,,,0,19,19,15,,,,,,up,0.6671695611803443,2591.5558270260226,None,001,48,2019_Oct_21_1704,ACPT_experiment_5_30_19,3.1.0,59.950162505621485,
,,,C,G,g,v,R,G,g,L,c ,,,,,6,18,138,4,3,0,3,0,,,,,0,20,20,6,,,,,,up,0.6838326961114944,2593.507348417752,None,001,48,2019_Oct_21_1704,ACPT_experiment_5_30_19,3.1.0,59.950162505621485,
,,,C,G,g,v,R,D,g,R,i,,,,,6,18,138,4,3,0,3,0,,,,,0,21,21,3,,,,,,up,0.5837850630050525,2595.4588193992895,None,001,48,2019_Oct_21_1704,ACPT_experiment_5_30_19,3.1.0,59.950162505621485,
,,,C,G,g,v,L,D,y,R,y,,,,,6,18,138,4,3,0,3,0,,,,,0,22,22,33,,,,,,down,0.6669425643740396,2597.343832539147,None,001,48,2019_Oct_21_1704,ACPT_experiment_5_30_19,3.1.0,59.950162505621485,
,,,C,G,g,v,L,G,g,L,c ,,,,,6,18,138,4,3,0,3,0,,,,,0,23,23,18,,,,,,up,1.0674760068613978,2599.2951094263444,None,001,48,2019_Oct_21_1704,ACPT_experiment_5_30_19,3.1.0,59.950162505621485,
,,,C,G,g,v,L,U,d,R,u,,,,,6,18,138,4,3,0,3,0,,,,,0,24,24,21,,,,,,up,0.8840170102703269,2601.646906172442,None,001,48,2019_Oct_21_1704,ACPT_experiment_5_30_19,3.1.0,59.950162505621485,
,,,C,G,g,v,R,D,d,L,c,,,,,6,18,138,4,3,0,3,0,,,,,0,25,25,0,,,,,,up,0.5170516254729591,2603.815241205233,None,001,48,2019_Oct_21_1704,ACPT_experiment_5_30_19,3.1.0,59.950162505621485,
,,,C,G,g,v,R,U,d,L,u,,,,,6,18,138,4,3,0,3,0,,,,,0,26,26,8,,,,,,up,0.4169901069253683,2605.6166153810846,None,001,48,2019_Oct_21_1704,ACPT_experiment_5_30_19,3.1.0,59.950162505621485,
,,,C,G,g,v,R,U,y,L,u,,,,,6,18,138,4,3,0,3,0,,,,,0,27,27,30,,,,,,down,0.6171333684687852,2607.3179265291037,None,001,48,2019_Oct_21_1704,ACPT_experiment_5_30_19,3.1.0,59.950162505621485,
,,,C,G,g,v,R,D,g,L,i,,,,,6,18,138,4,3,0,3,0,,,,,0,28,28,2,,,,,,up,0.9674458814879472,2609.2193887869616,None,001,48,2019_Oct_21_1704,ACPT_experiment_5_30_19,3.1.0,59.950162505621485,
,,,C,G,g,v,L,D,y,L,y,,,,,6,18,138,4,3,0,3,0,,,,,0,29,29,32,,,,,,up,0.4000368869819795,2611.4880663675867,None,001,48,2019_Oct_21_1704,ACPT_experiment_5_30_19,3.1.0,59.950162505621485,
,,,C,G,g,v,R,D,y,R,y,,,,,6,18,138,4,3,0,3,0,,,,,0,30,30,27,,,,,,down,0.8006080616432882,2613.1724255030895,None,001,48,2019_Oct_21_1704,ACPT_experiment_5_30_19,3.1.0,59.950162505621485,
,,,C,G,g,v,R,G,y,L,y,,,,,6,18,138,4,3,0,3,0,,,,,0,31,31,28,,,,,,down,0.5170636997681868,2615.257379358143,None,001,48,2019_Oct_21_1704,ACPT_experiment_5_30_19,3.1.0,59.950162505621485,
,,,C,G,g,v,R,D,y,L,y,,,,,6,18,138,4,3,0,3,0,,,,,0,32,32,26,,,,,,down,0.4836824918456841,2617.0754293469436,None,001,48,2019_Oct_21_1704,ACPT_experiment_5_30_19,3.1.0,59.950162505621485,
,,,C,G,g,v,R,U,g,R,u,,,,,6,18,138,4,3,0,3,0,,,,,0,33,33,11,,,,,,up,0.7504366368011688,2618.876944792082,None,001,48,2019_Oct_21_1704,ACPT_experiment_5_30_19,3.1.0,59.950162505621485,
,,,C,G,g,v,L,U,y,L,u,,,,,6,18,138,4,3,0,3,0,,,,,0,34,34,24,,,,,,down,0.5337389090018405,2620.91170126255,None,001,48,2019_Oct_21_1704,ACPT_experiment_5_30_19,3.1.0,59.950162505621485,
,,,C,G,g,v,L,G,y,R,y,,,,,6,18,138,4,3,0,3,0,,,,,0,35,35,35,,,,,,down,0.417006105370092,2622.7297663442223,None,001,48,2019_Oct_21_1704,ACPT_experiment_5_30_19,3.1.0,59.950162505621485,
,,,C,G,g,v,L,D,y,L,y,,,,,6,18,138,4,3,0,3,0,,,,,1,0,36,32,,,,,,down,0.38362067144043976,2624.431072360665,None,001,48,2019_Oct_21_1704,ACPT_experiment_5_30_19,3.1.0,59.950162505621485,
,,,C,G,g,v,L,G,g,L,c ,,,,,6,18,138,4,3,0,3,0,,,,,1,1,37,18,,,,,,up,0.7670197795123386,2626.115933786965,None,001,48,2019_Oct_21_1704,ACPT_experiment_5_30_19,3.1.0,59.950162505621485,
,,,C,G,g,v,L,U,y,L,u,,,,,6,18,138,4,3,0,3,0,,,,,1,2,38,24,,,,,,down,0.6505239339749096,2628.1839537409505,None,001,48,2019_Oct_21_1704,ACPT_experiment_5_30_19,3.1.0,59.950162505621485,
,,,C,G,g,v,R,D,y,R,y,,,,,6,18,138,4,3,0,3,0,,,,,1,3,39,27,,,,,,down,0.7005054904839199,2630.135475736395,None,001,48,2019_Oct_21_1704,ACPT_experiment_5_30_19,3.1.0,59.950162505621485,
,,,C,G,g,v,L,U,d,R,u,,,,,6,18,138,4,3,0,3,0,,,,,1,4,40,21,,,,,,down,0.5336269198887749,2632.1203092106953,None,001,48,2019_Oct_21_1704,ACPT_experiment_5_30_19,3.1.0,59.950162505621485,
,,,C,G,g,v,L,G,d,L,i,,,,,6,18,138,4,3,0,3,0,,,,,1,5,41,16,,,,,,up,0.6838465815562813,2633.9383851592393,None,001,48,2019_Oct_21_1704,ACPT_experiment_5_30_19,3.1.0,59.950162505621485,
,,,C,G,g,v,L,G,y,L,y,,,,,6,18,138,4,3,0,3,0,,,,,1,6,42,34,,,,,,down,0.683877672872768,2635.8898491980544,None,001,48,2019_Oct_21_1704,ACPT_experiment_5_30_19,3.1.0,59.950162505621485,
,,,C,G,g,v,R,G,y,L,y,,,,,6,18,138,4,3,0,3,0,,,,,1,7,43,28,,,,,,down,0.6004536313739663,2637.858051836167,None,001,48,2019_Oct_21_1704,ACPT_experiment_5_30_19,3.1.0,59.950162505621485,
,,,C,G,g,v,R,U,g,R,u,,,,,6,18,138,4,3,0,3,0,,,,,1,8,44,11,,,,,,up,1.1172987863537855,2639.759743203831,None,001,48,2019_Oct_21_1704,ACPT_experiment_5_30_19,3.1.0,59.950162505621485,
,,,C,G,g,v,L,G,d,R,i,,,,,6,18,138,4,3,0,3,0,,,,,1,9,45,17,,,,,,up,0.5003848682499665,2642.1613494476915,None,001,48,2019_Oct_21_1704,ACPT_experiment_5_30_19,3.1.0,59.950162505621485,
,,,C,G,g,v,R,D,d,R,c ,,,,,6,18,138,4,3,0,3,0,,,,,1,10,46,1,,,,,,up,0.3669496882102976,2643.946055960747,None,001,48,2019_Oct_21_1704,ACPT_experiment_5_30_19,3.1.0,59.950162505621485,
,,,C,G,g,v,R,G,g,R,c ,,,,,6,18,138,4,3,0,3,0,,,,,1,11,47,7,,,,,,up,0.38365840362166637,2645.597320652905,None,001,48,2019_Oct_21_1704,ACPT_experiment_5_30_19,3.1.0,59.950162505621485,
,,,C,G,g,v,R,G,d,R,i,,,,,6,18,138,4,3,0,3,0,,,,,1,12,48,5,,,,,,up,0.4334289617763716,2647.265536753861,None,001,48,2019_Oct_21_1704,ACPT_experiment_5_30_19,3.1.0,59.950162505621485,
,,,C,G,g,v,R,D,g,L,i,,,,,6,18,138,4,3,0,3,0,,,,,1,13,49,2,,,,,,up,0.717257371510641,2648.9832348372474,None,001,48,2019_Oct_21_1704,ACPT_experiment_5_30_19,3.1.0,59.950162505621485,
,,,C,G,g,v,R,U,d,R,u,,,,,6,18,138,4,3,0,3,0,,,,,1,14,50,9,,,,,,down,0.9340713144265465,2650.9847951384036,None,001,48,2019_Oct_21_1704,ACPT_experiment_5_30_19,3.1.0,59.950162505621485,
,,,C,G,g,v,R,G,g,L,c ,,,,,6,18,138,4,3,0,3,0,,,,,1,15,51,6,,,,,,up,0.6338423857341695,2653.2031434227356,None,001,48,2019_Oct_21_1704,ACPT_experiment_5_30_19,3.1.0,59.950162505621485,
,,,C,G,g,v,L,U,d,L,u,,,,,6,18,138,4,3,0,3,0,,,,,1,16,52,20,,,,,,up,0.6504967668042809,2655.1213092644284,None,001,48,2019_Oct_21_1704,ACPT_experiment_5_30_19,3.1.0,59.950162505621485,
,,,C,G,g,v,R,G,y,R,y,,,,,6,18,138,4,3,0,3,0,,,,,1,17,53,29,,,,,,down,0.7339033005664533,2657.05613129833,None,001,48,2019_Oct_21_1704,ACPT_experiment_5_30_19,3.1.0,59.950162505621485,
,,,C,G,g,v,L,D,g,R,i,,,,,6,18,138,4,3,0,3,0,,,,,1,18,54,15,,,,,,down,0.5671001943373994,2659.0743429619833,None,001,48,2019_Oct_21_1704,ACPT_experiment_5_30_19,3.1.0,59.950162505621485,
,,,C,G,g,v,R,U,d,L,u,,,,,6,18,138,4,3,0,3,0,,,,,1,19,55,8,,,,,,down,0.8006153062269732,2660.925763291838,None,001,48,2019_Oct_21_1704,ACPT_experiment_5_30_19,3.1.0,59.950162505621485,
,,,C,G,g,v,L,D,d,L,c ,,,,,6,18,138,4,3,0,3,0,,,,,1,20,56,12,,,,,,down,0.7505875655260752,2663.010696620586,None,001,48,2019_Oct_21_1704,ACPT_experiment_5_30_19,3.1.0,59.950162505621485,
,,,C,G,g,v,L,U,y,R,u,,,,,6,18,138,4,3,0,3,0,,,,,1,21,57,25,,,,,,down,0.6838794840186893,2665.045574739601,None,001,48,2019_Oct_21_1704,ACPT_experiment_5_30_19,3.1.0,59.950162505621485,
,,,C,G,g,v,R,U,y,L,u,,,,,6,18,138,4,3,0,3,0,,,,,1,22,58,30,,,,,,down,0.5003815478157776,2666.997095225761,None,001,48,2019_Oct_21_1704,ACPT_experiment_5_30_19,3.1.0,59.950162505621485,
,,,C,G,g,v,R,D,g,R,i,,,,,6,18,138,4,3,0,3,0,,,,,1,23,59,3,,,,,,up,0.6171484613441862,2668.7817947960975,None,001,48,2019_Oct_21_1704,ACPT_experiment_5_30_19,3.1.0,59.950162505621485,
,,,C,G,g,v,R,U,g,L,u,,,,,6,18,138,4,3,0,3,0,,,,,1,24,60,10,,,,,,up,0.5170585681917146,2670.6832579595284,None,001,48,2019_Oct_21_1704,ACPT_experiment_5_30_19,3.1.0,59.950162505621485,
,,,C,G,g,v,R,D,d,L,c,,,,,6,18,138,4,3,0,3,0,,,,,1,25,61,0,,,,,,up,0.416791786581598,2672.5014827237937,None,001,48,2019_Oct_21_1704,ACPT_experiment_5_30_19,3.1.0,59.950162505621485,
,,,C,G,g,v,L,D,g,L,i,,,,,6,18,138,4,3,0,3,0,,,,,1,26,62,14,,,,,,up,0.5170627941988641,2674.202629963216,None,001,48,2019_Oct_21_1704,ACPT_experiment_5_30_19,3.1.0,59.950162505621485,
,,,C,G,g,v,L,D,y,R,y,,,,,6,18,138,4,3,0,3,0,,,,,1,27,63,33,,,,,,down,0.6838562409939186,2676.004008063217,None,001,48,2019_Oct_21_1704,ACPT_experiment_5_30_19,3.1.0,59.950162505621485,
,,,C,G,g,v,R,G,d,L,i,,,,,6,18,138,4,3,0,3,0,,,,,1,28,64,4,,,,,,up,0.6671752964684856,2677.9721895713083,None,001,48,2019_Oct_21_1704,ACPT_experiment_5_30_19,3.1.0,59.950162505621485,
,,,C,G,g,v,L,D,d,R,c ,,,,,6,18,138,4,3,0,3,0,,,,,1,29,65,13,,,,,,up,0.8173409256523883,2679.92368258844,None,001,48,2019_Oct_21_1704,ACPT_experiment_5_30_19,3.1.0,59.950162505621485,
,,,C,G,g,v,L,G,y,R,y,,,,,6,18,138,4,3,0,3,0,,,,,1,30,66,35,,,,,,down,0.7005483542416187,2682.025298672852,None,001,48,2019_Oct_21_1704,ACPT_experiment_5_30_19,3.1.0,59.950162505621485,
,,,C,G,g,v,L,G,g,R,c ,,,,,6,18,138,4,3,0,3,0,,,,,1,31,67,19,,,,,,up,0.9006925213616341,2683.9934813883738,None,001,48,2019_Oct_21_1704,ACPT_experiment_5_30_19,3.1.0,59.950162505621485,
,,,C,G,g,v,R,U,y,R,u,,,,,6,18,138,4,3,0,3,0,,,,,1,32,68,31,,,,,,down,0.6838634855703276,2686.178488008107,None,001,48,2019_Oct_21_1704,ACPT_experiment_5_30_19,3.1.0,59.950162505621485,
,,,C,G,g,v,L,U,g,L,u,,,,,6,18,138,4,3,0,3,0,,,,,1,33,69,22,,,,,,up,0.6671759001837927,2688.1466698180593,None,001,48,2019_Oct_21_1704,ACPT_experiment_5_30_19,3.1.0,59.950162505621485,
,,,C,G,g,v,R,D,y,L,y,,,,,6,18,138,4,3,0,3,0,,,,,1,34,70,26,,,,,,down,0.8172926284605637,2690.098167363052,None,001,48,2019_Oct_21_1704,ACPT_experiment_5_30_19,3.1.0,59.950162505621485,
,,,C,G,g,v,L,U,g,R,u,,,,,6,18,138,4,3,0,3,0,,,,,1,35,71,23,,,,,,up,0.7005314502275723,2692.1997858623254,None,001,48,2019_Oct_21_1704,ACPT_experiment_5_30_19,3.1.0,59.950162505621485,
,,,C,G,g,v,,,,,,,,,,6,18,138,4,4,0,4,0,0,0,0,0,,,,,,,,,,,,,,001,48,2019_Oct_21_1704,ACPT_experiment_5_30_19,3.1.0,59.950162505621485,
,,,C,G,g,v,R,U,d,R,u,,,,,6,18,138,4,4,0,4,0,,,,,0,0,0,9,,,,,,up,0.5470979122910649,2697.273666982408,None,001,48,2019_Oct_21_1704,ACPT_experiment_5_30_19,3.1.0,59.950162505621485,
,,,C,G,g,v,R,D,d,L,c,,,,,6,18,138,4,4,0,4,0,,,,,0,1,1,0,,,,,,down,0.6004563480928482,2699.1050895580847,None,001,48,2019_Oct_21_1704,ACPT_experiment_5_30_19,3.1.0,59.950162505621485,
,,,C,G,g,v,L,G,d,R,i,,,,,6,18,138,4,4,0,4,0,,,,,0,2,2,17,,,,,,up,0.48369728285979363,2700.9898702677056,None,001,48,2019_Oct_21_1704,ACPT_experiment_5_30_19,3.1.0,59.950162505621485,
,,,C,G,g,v,L,G,g,R,c ,,,,,6,18,138,4,4,0,4,0,,,,,0,3,3,19,,,,,,up,0.5670983831914782,2702.741210967568,None,001,48,2019_Oct_21_1704,ACPT_experiment_5_30_19,3.1.0,59.950162505621485,
,,,C,G,g,v,R,G,y,R,y,,,,,6,18,138,4,4,0,4,0,,,,,0,4,4,29,,,,,,down,0.6335752418926859,2704.609582404366,None,001,48,2019_Oct_21_1704,ACPT_experiment_5_30_19,3.1.0,59.950162505621485,
,,,C,G,g,v,L,D,y,R,y,,,,,6,18,138,4,4,0,4,0,,,,,0,5,5,33,,,,,,down,0.6338137092789111,2706.5274527276124,None,001,48,2019_Oct_21_1704,ACPT_experiment_5_30_19,3.1.0,59.950162505621485,
,,,C,G,g,v,L,D,d,R,c ,,,,,6,18,138,4,4,0,4,0,,,,,0,6,6,13,,,,,,up,0.5337322681371006,2708.4456037782875,None,001,48,2019_Oct_21_1704,ACPT_experiment_5_30_19,3.1.0,59.950162505621485,
,,,C,G,g,v,L,U,d,R,u,,,,,6,18,138,4,4,0,4,0,,,,,0,7,7,21,,,,,,up,0.48367977513044025,2710.2636797268315,None,001,48,2019_Oct_21_1704,ACPT_experiment_5_30_19,3.1.0,59.950162505621485,
,,,C,G,g,v,L,G,y,R,y,,,,,6,18,138,4,4,0,4,0,,,,,0,8,8,35,,,,,,down,0.6669941820000531,2712.0485142274483,None,001,48,2019_Oct_21_1704,ACPT_experiment_5_30_19,3.1.0,59.950162505621485,
,,,C,G,g,v,R,U,g,R,u,,,,,6,18,138,4,4,0,4,0,,,,,0,9,9,11,,,,,,up,0.4169774289111956,2714.016541184523,None,001,48,2019_Oct_21_1704,ACPT_experiment_5_30_19,3.1.0,59.950162505621485,
,,,C,G,g,v,R,U,g,L,u,,,,,6,18,138,4,4,0,4,0,,,,,0,10,10,10,,,,,,up,0.8673562901967671,2715.701143013419,None,001,48,2019_Oct_21_1704,ACPT_experiment_5_30_19,3.1.0,59.950162505621485,
,,,C,G,g,v,L,G,d,L,i,,,,,6,18,138,4,4,0,4,0,,,,,0,11,11,16,,,,,,up,0.9171045108960243,2717.869765112642,None,001,48,2019_Oct_21_1704,ACPT_experiment_5_30_19,3.1.0,59.950162505621485,
,,,C,G,g,v,L,U,g,L,u,,,,,6,18,138,4,4,0,4,0,,,,,0,12,12,22,,,,,,up,0.5504210609578877,2720.0711879479168,None,001,48,2019_Oct_21_1704,ACPT_experiment_5_30_19,3.1.0,59.950162505621485,
,,,C,G,g,v,R,G,d,L,i,,,,,6,18,138,4,4,0,4,0,,,,,0,13,13,4,,,,,,up,0.41698769206414,2721.905929748111,None,001,48,2019_Oct_21_1704,ACPT_experiment_5_30_19,3.1.0,59.950162505621485,
,,,C,G,g,v,R,G,g,L,c ,,,,,6,18,138,4,4,0,4,0,,,,,0,14,14,6,,,,,,up,0.5337567185924854,2723.5905364067257,None,001,48,2019_Oct_21_1704,ACPT_experiment_5_30_19,3.1.0,59.950162505621485,
,,,C,G,g,v,L,D,y,L,y,,,,,6,18,138,4,4,0,4,0,,,,,0,15,15,32,,,,,,down,0.7505945082484686,2725.408618090558,None,001,48,2019_Oct_21_1704,ACPT_experiment_5_30_19,3.1.0,59.950162505621485,
,,,C,G,g,v,L,U,y,R,u,,,,,6,18,138,4,4,0,4,0,,,,,0,16,16,25,,,,,,down,1.434445013950608,2727.4435167358824,None,001,48,2019_Oct_21_1704,ACPT_experiment_5_30_19,3.1.0,59.950162505621485,
,,,C,G,g,v,R,G,y,L,y,,,,,6,18,138,4,4,0,4,0,,,,,0,17,17,28,,,,,,down,0.7338845854101237,2730.1456036575473,None,001,48,2019_Oct_21_1704,ACPT_experiment_5_30_19,3.1.0,59.950162505621485,
,,,C,G,g,v,R,D,g,L,i,,,,,6,18,138,4,4,0,4,0,,,,,0,18,18,2,,,,,,up,0.5671007980527065,2732.1638141137664,None,001,48,2019_Oct_21_1704,ACPT_experiment_5_30_19,3.1.0,59.950162505621485,
,,,C,G,g,v,R,D,d,R,c ,,,,,6,18,138,4,4,0,4,0,,,,,0,19,19,1,,,,,,up,0.6838822007339331,2733.9985299542204,None,001,48,2019_Oct_21_1704,ACPT_experiment_5_30_19,3.1.0,59.950162505621485,
,,,C,G,g,v,R,D,y,R,y,,,,,6,18,138,4,4,0,4,0,,,,,0,20,20,27,,,,,,down,0.6336884384363657,2735.9667437610588,None,001,48,2019_Oct_21_1704,ACPT_experiment_5_30_19,3.1.0,59.950162505621485,
,,,C,G,g,v,R,D,y,L,y,,,,,6,18,138,4,4,0,4,0,,,,,0,21,21,26,,,,,,down,0.7672727360513818,2737.8848730779973,None,001,48,2019_Oct_21_1704,ACPT_experiment_5_30_19,3.1.0,59.950162505621485,
,,,C,G,g,v,R,G,d,R,i,,,,,6,18,138,4,4,0,4,0,,,,,0,22,22,5,,,,,,up,0.6338897773566714,2739.9364414991214,None,001,48,2019_Oct_21_1704,ACPT_experiment_5_30_19,3.1.0,59.950162505621485,
,,,C,G,g,v,R,G,g,R,c ,,,,,6,18,138,4,4,0,4,0,,,,,0,23,23,7,,,,,,up,0.45034595882316353,2741.854585003359,None,001,48,2019_Oct_21_1704,ACPT_experiment_5_30_19,3.1.0,59.950162505621485,
,,,C,G,g,v,L,U,g,R,u,,,,,6,18,138,4,4,0,4,0,,,,,0,24,24,23,,,,,,up,0.5170685294906434,2743.589249890276,None,001,48,2019_Oct_21_1704,ACPT_experiment_5_30_19,3.1.0,59.950162505621485,
,,,C,G,g,v,L,D,g,L,i,,,,,6,18,138,4,4,0,4,0,,,,,0,25,25,14,,,,,,up,0.4837024144399038,2745.3906355367108,None,001,48,2019_Oct_21_1704,ACPT_experiment_5_30_19,3.1.0,59.950162505621485,
,,,C,G,g,v,R,U,y,L,u,,,,,6,18,138,4,4,0,4,0,,,,,0,26,26,30,,,,,,down,0.8006150043693196,2747.1586580866715,None,001,48,2019_Oct_21_1704,ACPT_experiment_5_30_19,3.1.0,59.950162505621485,
,,,C,G,g,v,L,U,y,L,u,,,,,6,18,138,4,4,0,4,0,,,,,0,27,27,24,,,,,,down,0.6335761474692845,2749.260516864473,None,001,48,2019_Oct_21_1704,ACPT_experiment_5_30_19,3.1.0,59.950162505621485,
,,,C,G,g,v,L,U,d,L,u,,,,,6,18,138,4,4,0,4,0,,,,,0,28,28,20,,,,,,up,0.5671219280702644,2751.1617131859166,None,001,48,2019_Oct_21_1704,ACPT_experiment_5_30_19,3.1.0,59.950162505621485,
,,,C,G,g,v,L,G,g,L,c ,,,,,6,18,138,4,4,0,4,0,,,,,0,29,29,18,,,,,,up,0.46703656278623384,2753.0131597773725,None,001,48,2019_Oct_21_1704,ACPT_experiment_5_30_19,3.1.0,59.950162505621485,
,,,C,G,g,v,R,U,y,R,u,,,,,6,18,138,4,4,0,4,0,,,,,0,30,30,31,,,,,,down,0.7338909244135721,2754.781183232906,None,001,48,2019_Oct_21_1704,ACPT_experiment_5_30_19,3.1.0,59.950162505621485,
,,,C,G,g,v,L,G,y,L,y,,,,,6,18,138,4,4,0,4,0,,,,,0,31,31,34,,,,,,down,0.6671870689096977,2756.8160779540813,None,001,48,2019_Oct_21_1704,ACPT_experiment_5_30_19,3.1.0,59.950162505621485,
,,,C,G,g,v,R,D,g,R,i,,,,,6,18,138,4,4,0,4,0,,,,,0,32,32,3,,,,,,up,0.5837802332862339,2758.7675751972165,None,001,48,2019_Oct_21_1704,ACPT_experiment_5_30_19,3.1.0,59.950162505621485,
,,,C,G,g,v,L,D,d,L,c ,,,,,6,18,138,4,4,0,4,0,,,,,0,33,33,12,,,,,,up,0.45034082724669133,2760.635677377173,None,001,48,2019_Oct_21_1704,ACPT_experiment_5_30_19,3.1.0,59.950162505621485,
,,,C,G,g,v,L,D,g,R,i,,,,,6,18,138,4,4,0,4,0,,,,,0,34,34,15,,,,,,up,0.5501705192727968,2762.3706106153586,None,001,48,2019_Oct_21_1704,ACPT_experiment_5_30_19,3.1.0,59.950162505621485,
,,,C,G,g,v,R,U,d,L,u,,,,,6,18,138,4,4,0,4,0,,,,,0,35,35,8,,,,,,up,0.7505715670813515,2764.205084366138,None,001,48,2019_Oct_21_1704,ACPT_experiment_5_30_19,3.1.0,59.950162505621485,
,,,C,G,g,v,R,D,g,R,i,,,,,6,18,138,4,4,0,4,0,,,,,1,0,36,3,,,,,,up,0.5003857738229271,2766.2399778798863,None,001,48,2019_Oct_21_1704,ACPT_experiment_5_30_19,3.1.0,59.950162505621485,
,,,C,G,g,v,L,U,g,L,u,,,,,6,18,138,4,4,0,4,0,,,,,1,1,37,22,,,,,,up,0.46702026248385664,2768.0246862040876,None,001,48,2019_Oct_21_1704,ACPT_experiment_5_30_19,3.1.0,59.950162505621485,
,,,C,G,g,v,R,U,d,R,u,,,,,6,18,138,4,4,0,4,0,,,,,1,2,38,9,,,,,,up,0.45033871424311656,2769.7760290169535,None,001,48,2019_Oct_21_1704,ACPT_experiment_5_30_19,3.1.0,59.950162505621485,
,,,C,G,g,v,R,G,y,R,y,,,,,6,18,138,4,4,0,4,0,,,,,1,3,39,29,,,,,,down,0.7339008857088629,2771.510691790867,None,001,48,2019_Oct_21_1704,ACPT_experiment_5_30_19,3.1.0,59.950162505621485,
,,,C,G,g,v,R,U,g,R,u,,,,,6,18,138,4,4,0,4,0,,,,,1,4,40,11,,,,,,up,0.5670863088926126,2773.5289257919685,None,001,48,2019_Oct_21_1704,ACPT_experiment_5_30_19,3.1.0,59.950162505621485,
,,,C,G,g,v,L,G,g,R,c ,,,,,6,18,138,4,4,0,4,0,,,,,1,5,41,19,,,,,,up,0.4167199445073493,2775.397277306176,None,001,48,2019_Oct_21_1704,ACPT_experiment_5_30_19,3.1.0,59.950162505621485,
,,,C,G,g,v,R,D,d,L,c,,,,,6,18,138,4,4,0,4,0,,,,,1,6,42,0,,,,,,up,0.4837015088669432,2777.0983198010617,None,001,48,2019_Oct_21_1704,ACPT_experiment_5_30_19,3.1.0,59.950162505621485,
,,,C,G,g,v,L,D,y,L,y,,,,,6,18,138,4,4,0,4,0,,,,,1,7,43,32,,,,,,up,0.8340260961813328,2778.8830229936902,None,001,48,2019_Oct_21_1704,ACPT_experiment_5_30_19,3.1.0,59.950162505621485,
,,,C,G,g,v,L,G,d,L,i,,,,,6,18,138,4,4,0,4,0,,,,,1,8,44,16,,,,,,up,0.7338866984100605,2781.0180006652918,None,001,48,2019_Oct_21_1704,ACPT_experiment_5_30_19,3.1.0,59.950162505621485,
,,,C,G,g,v,R,U,y,L,u,,,,,6,18,138,4,4,0,4,0,,,,,1,9,45,30,,,,,,down,0.7839138353920134,2783.0362307422474,None,001,48,2019_Oct_21_1704,ACPT_experiment_5_30_19,3.1.0,59.950162505621485,
,,,C,G,g,v,L,D,g,L,i,,,,,6,18,138,4,4,0,4,0,,,,,1,10,46,14,,,,,,up,0.5337615483113041,2785.1044668261675,None,001,48,2019_Oct_21_1704,ACPT_experiment_5_30_19,3.1.0,59.950162505621485,
,,,C,G,g,v,R,G,d,R,i,,,,,6,18,138,4,4,0,4,0,,,,,1,11,47,5,,,,,,up,0.7005383929499658,2786.9225297948396,None,001,48,2019_Oct_21_1704,ACPT_experiment_5_30_19,3.1.0,59.950162505621485,
,,,C,G,g,v,R,G,g,L,c ,,,,,6,18,138,4,4,0,4,0,,,,,1,12,48,6,,,,,,up,0.8507000979843724,2788.890687154337,None,001,48,2019_Oct_21_1704,ACPT_experiment_5_30_19,3.1.0,59.950162505621485,
,,,C,G,g,v,R,G,y,L,y,,,,,6,18,138,4,4,0,4,0,,,,,1,13,49,28,,,,,,down,1.7179960166868113,2791.0256802206677,None,001,48,2019_Oct_21_1704,ACPT_experiment_5_30_19,3.1.0,59.950162505621485,
,,,C,G,g,v,L,U,y,R,u,,,,,6,18,138,4,4,0,4,0,,,,,1,14,50,25,,,,,,down,0.7172178281834931,2794.0279885245873,None,001,48,2019_Oct_21_1704,ACPT_experiment_5_30_19,3.1.0,59.950162505621485,
,,,C,G,g,v,L,D,y,R,y,,,,,6,18,138,4,4,0,4,0,,,,,1,15,51,33,,,,,,down,0.5504286073955882,2796.0295219604304,None,001,48,2019_Oct_21_1704,ACPT_experiment_5_30_19,3.1.0,59.950162505621485,
,,,C,G,g,v,L,D,d,R,c ,,,,,6,18,138,4,4,0,4,0,,,,,1,16,52,13,,,,,,down,0.75056734107784,2797.864271608916,None,001,48,2019_Oct_21_1704,ACPT_experiment_5_30_19,3.1.0,59.950162505621485,
,,,C,G,g,v,L,D,d,L,c ,,,,,6,18,138,4,4,0,4,0,,,,,1,17,53,12,,,,,,up,0.7005281297933834,2799.8991684430985,None,001,48,2019_Oct_21_1704,ACPT_experiment_5_30_19,3.1.0,59.950162505621485,
,,,C,G,g,v,R,D,y,R,y,,,,,6,18,138,4,4,0,4,0,,,,,1,18,54,27,,,,,,down,0.7005299409393047,2801.884024556708,None,001,48,2019_Oct_21_1704,ACPT_experiment_5_30_19,3.1.0,59.950162505621485,
,,,C,G,g,v,R,G,g,R,c ,,,,,6,18,138,4,4,0,4,0,,,,,1,19,55,7,,,,,,up,0.8005971947786747,2803.8688963669047,None,001,48,2019_Oct_21_1704,ACPT_experiment_5_30_19,3.1.0,59.950162505621485,
,,,C,G,g,v,L,U,d,R,u,,,,,6,18,138,4,4,0,4,0,,,,,1,20,56,21,,,,,,up,0.8339787045588309,2805.9538109804853,None,001,48,2019_Oct_21_1704,ACPT_experiment_5_30_19,3.1.0,59.950162505621485,
,,,C,G,g,v,L,U,g,R,u,,,,,6,18,138,4,4,0,4,0,,,,,1,21,57,23,,,,,,up,0.6672154435109405,2808.0554107645985,None,001,48,2019_Oct_21_1704,ACPT_experiment_5_30_19,3.1.0,59.950162505621485,
,,,C,G,g,v,R,D,g,L,i,,,,,6,18,138,4,4,0,4,0,,,,,1,22,58,2,,,,,,up,0.7005060941992269,2810.0069729070856,None,001,48,2019_Oct_21_1704,ACPT_experiment_5_30_19,3.1.0,59.950162505621485,
,,,C,G,g,v,R,U,g,L,u,,,,,6,18,138,4,4,0,4,0,,,,,1,23,59,10,,,,,,up,0.6838622781433514,2811.9917807235033,None,001,48,2019_Oct_21_1704,ACPT_experiment_5_30_19,3.1.0,59.950162505621485,
,,,C,G,g,v,L,G,y,R,y,,,,,6,18,138,4,4,0,4,0,,,,,1,24,60,35,,,,,,down,1.0174410215804528,2813.959968268744,None,001,48,2019_Oct_21_1704,ACPT_experiment_5_30_19,3.1.0,59.950162505621485,
,,,C,G,g,v,R,D,d,R,c ,,,,,6,18,138,4,4,0,4,0,,,,,1,25,61,1,,,,,,down,1.017445549441618,2816.2617297277066,None,001,48,2019_Oct_21_1704,ACPT_experiment_5_30_19,3.1.0,59.950162505621485,
,,,C,G,g,v,R,U,d,L,u,,,,,6,18,138,4,4,0,4,0,,,,,1,26,62,8,,,,,,down,0.8005138821245055,2818.5634791123703,None,001,48,2019_Oct_21_1704,ACPT_experiment_5_30_19,3.1.0,59.950162505621485,
,,,C,G,g,v,L,G,d,R,i,,,,,6,18,138,4,4,0,4,0,,,,,1,27,63,17,,,,,,up,0.7172202430410834,2820.6484338729933,None,001,48,2019_Oct_21_1704,ACPT_experiment_5_30_19,3.1.0,59.950162505621485,
,,,C,G,g,v,L,G,g,L,c ,,,,,6,18,138,4,4,0,4,0,,,,,1,28,64,18,,,,,,up,0.7505972249637125,2822.63327247887,None,001,48,2019_Oct_21_1704,ACPT_experiment_5_30_19,3.1.0,59.950162505621485,
,,,C,G,g,v,L,U,d,L,u,,,,,6,18,138,4,4,0,4,0,,,,,1,29,65,20,,,,,,up,0.5670995906220924,2824.6681877263545,None,001,48,2019_Oct_21_1704,ACPT_experiment_5_30_19,3.1.0,59.950162505621485,
,,,C,G,g,v,L,D,g,R,i,,,,,6,18,138,4,4,0,4,0,,,,,1,30,66,15,,,,,,up,0.8172953451794456,2826.5196083580704,None,001,48,2019_Oct_21_1704,ACPT_experiment_5_30_19,3.1.0,59.950162505621485,
,,,C,G,g,v,R,U,y,R,u,,,,,6,18,138,4,4,0,4,0,,,,,1,31,67,31,,,,,,down,0.7505739819389419,2828.6379029721465,None,001,48,2019_Oct_21_1704,ACPT_experiment_5_30_19,3.1.0,59.950162505621485,
,,,C,G,g,v,R,G,d,L,i,,,,,6,18,138,4,4,0,4,0,,,,,1,32,68,4,,,,,,up,0.5003776236699196,2830.68947743042,None,001,48,2019_Oct_21_1704,ACPT_experiment_5_30_19,3.1.0,59.950162505621485,
,,,C,G,g,v,L,U,y,L,u,,,,,6,18,138,4,4,0,4,0,,,,,1,33,69,24,,,,,,down,0.583737369532173,2832.5242491145,None,001,48,2019_Oct_21_1704,ACPT_experiment_5_30_19,3.1.0,59.950162505621485,
,,,C,G,g,v,L,G,y,L,y,,,,,6,18,138,4,4,0,4,0,,,,,1,34,70,34,,,,,,down,0.8172802523040446,2834.4090071848113,None,001,48,2019_Oct_21_1704,ACPT_experiment_5_30_19,3.1.0,59.950162505621485,
,,,C,G,g,v,R,D,y,L,y,,,,,6,18,138,4,4,0,4,0,,,,,1,35,71,26,,,,,,down,0.5002900850086007,2836.510616930216,None,001,48,2019_Oct_21_1704,ACPT_experiment_5_30_19,3.1.0,59.950162505621485,
,,,C,G,g,v,,,,,,,,,,6,18,138,4,5,0,5,0,0,0,0,0,,,,,,,,,,,,,,001,48,2019_Oct_21_1704,ACPT_experiment_5_30_19,3.1.0,59.950162505621485,
,,,C,G,g,v,L,U,g,L,u,,,,,6,18,138,4,5,0,5,0,,,,,0,0,0,22,,,,,,up,1.5842798073681479,2840.2804445877264,None,001,48,2019_Oct_21_1704,ACPT_experiment_5_30_19,3.1.0,59.950162505621485,
,,,C,G,g,v,R,G,d,L,i,,,,,6,18,138,4,5,0,5,0,,,,,0,1,1,4,,,,,,up,0.4837021125786123,2843.1490460399,None,001,48,2019_Oct_21_1704,ACPT_experiment_5_30_19,3.1.0,59.950162505621485,
,,,C,G,g,v,R,D,g,L,i,,,,,6,18,138,4,5,0,5,0,,,,,0,2,2,2,,,,,,up,0.4003130865494313,2844.9170688917184,None,001,48,2019_Oct_21_1704,ACPT_experiment_5_30_19,3.1.0,59.950162505621485,
,,,C,G,g,v,R,U,g,L,u,,,,,6,18,138,4,5,0,5,0,,,,,0,3,3,10,,,,,,up,0.40030010667760507,2846.6016978877815,None,001,48,2019_Oct_21_1704,ACPT_experiment_5_30_19,3.1.0,59.950162505621485,
,,,C,G,g,v,R,U,d,R,u,,,,,6,18,138,4,5,0,5,0,,,,,0,4,4,9,,,,,,up,1.1675843133125454,2848.2696220925827,None,001,48,2019_Oct_21_1704,ACPT_experiment_5_30_19,3.1.0,59.950162505621485,
,,,C,G,g,v,R,G,g,R,c ,,,,,6,18,138,4,5,0,5,0,,,,,0,5,5,7,,,,,,up,0.4336656180130376,2850.7215304655656,None,001,48,2019_Oct_21_1704,ACPT_experiment_5_30_19,3.1.0,59.950162505621485,
,,,C,G,g,v,L,U,d,L,u,,,,,6,18,138,4,5,0,5,0,,,,,0,6,6,20,,,,,,up,0.46704682593917823,2852.4395110875266,None,001,48,2019_Oct_21_1704,ACPT_experiment_5_30_19,3.1.0,59.950162505621485,
,,,C,G,g,v,L,G,y,L,y,,,,,6,18,138,4,5,0,5,0,,,,,0,7,7,34,,,,,,down,0.6171381981876038,2854.190857220823,None,001,48,2019_Oct_21_1704,ACPT_experiment_5_30_19,3.1.0,59.950162505621485,
,,,C,G,g,v,L,G,d,R,i,,,,,6,18,138,4,5,0,5,0,,,,,0,8,8,17,,,,,,up,0.6171789489453658,2856.0923203842503,None,001,48,2019_Oct_21_1704,ACPT_experiment_5_30_19,3.1.0,59.950162505621485,
,,,C,G,g,v,R,U,y,L,u,,,,,6,18,138,4,5,0,5,0,,,,,0,9,9,30,,,,,,down,0.5671077407751,2857.9937787179624,None,001,48,2019_Oct_21_1704,ACPT_experiment_5_30_19,3.1.0,59.950162505621485,
,,,C,G,g,v,L,D,d,L,c ,,,,,6,18,138,4,5,0,5,0,,,,,0,10,10,12,,,,,,up,1.1005789022165118,2859.862145928757,None,001,48,2019_Oct_21_1704,ACPT_experiment_5_30_19,3.1.0,59.950162505621485,
,,,C,G,g,v,L,U,g,R,u,,,,,6,18,138,4,5,0,5,0,,,,,0,11,11,23,,,,,,up,0.600488043124642,2862.2470507017897,None,001,48,2019_Oct_21_1704,ACPT_experiment_5_30_19,3.1.0,59.950162505621485,
,,,C,G,g,v,R,G,d,R,i,,,,,6,18,138,4,5,0,5,0,,,,,0,12,12,5,,,,,,up,0.6171388019029109,2864.131830505834,None,001,48,2019_Oct_21_1704,ACPT_experiment_5_30_19,3.1.0,59.950162505621485,
,,,C,G,g,v,R,U,d,L,u,,,,,6,18,138,4,5,0,5,0,,,,,0,13,13,8,,,,,,up,0.5337367960019037,2866.0166163470276,None,001,48,2019_Oct_21_1704,ACPT_experiment_5_30_19,3.1.0,59.950162505621485,
,,,C,G,g,v,L,U,y,L,u,,,,,6,18,138,4,5,0,5,0,,,,,0,14,14,24,,,,,,up,0.8006901668741193,2867.8346449039527,None,001,48,2019_Oct_21_1704,ACPT_experiment_5_30_19,3.1.0,59.950162505621485,
,,,C,G,g,v,R,G,y,R,y,,,,,6,18,138,4,5,0,5,0,,,,,0,15,15,29,,,,,,down,0.9173701454528782,2869.9196099277287,None,001,48,2019_Oct_21_1704,ACPT_experiment_5_30_19,3.1.0,59.950162505621485,
,,,C,G,g,v,R,D,d,L,c,,,,,6,18,138,4,5,0,5,0,,,,,0,16,16,0,,,,,,down,0.5003881886805175,2872.1212971901296,None,001,48,2019_Oct_21_1704,ACPT_experiment_5_30_19,3.1.0,59.950162505621485,
,,,C,G,g,v,L,G,d,L,i,,,,,6,18,138,4,5,0,5,0,,,,,0,17,17,16,,,,,,up,0.5504228721001709,2873.905999779039,None,001,48,2019_Oct_21_1704,ACPT_experiment_5_30_19,3.1.0,59.950162505621485,
,,,C,G,g,v,L,D,g,R,i,,,,,6,18,138,4,5,0,5,0,,,,,0,18,18,15,,,,,,up,0.667178315045021,2875.740741579233,None,001,48,2019_Oct_21_1704,ACPT_experiment_5_30_19,3.1.0,59.950162505621485,
,,,C,G,g,v,L,G,y,R,y,,,,,6,18,138,4,5,0,5,0,,,,,0,19,19,35,,,,,,down,0.7339401271783572,2877.692244859518,None,001,48,2019_Oct_21_1704,ACPT_experiment_5_30_19,3.1.0,59.950162505621485,
,,,C,G,g,v,L,U,d,R,u,,,,,6,18,138,4,5,0,5,0,,,,,0,20,20,21,,,,,,down,0.6671931060591305,2879.710464975178,None,001,48,2019_Oct_21_1704,ACPT_experiment_5_30_19,3.1.0,59.950162505621485,
,,,C,G,g,v,R,G,y,L,y,,,,,6,18,138,4,5,0,5,0,,,,,0,21,21,28,,,,,,down,1.017438908580516,2881.661964331317,None,001,48,2019_Oct_21_1704,ACPT_experiment_5_30_19,3.1.0,59.950162505621485,
,,,C,G,g,v,R,D,y,R,y,,,,,6,18,138,4,5,0,5,0,,,,,0,22,22,27,,,,,,down,0.7839268152638397,2883.980410658947,None,001,48,2019_Oct_21_1704,ACPT_experiment_5_30_19,3.1.0,59.950162505621485,
,,,C,G,g,v,L,D,d,R,c ,,,,,6,18,138,4,5,0,5,0,,,,,0,23,23,13,,,,,,up,0.7839216836873675,2886.065352439702,None,001,48,2019_Oct_21_1704,ACPT_experiment_5_30_19,3.1.0,59.950162505621485,
,,,C,G,g,v,L,U,y,R,u,,,,,6,18,138,4,5,0,5,0,,,,,0,24,24,25,,,,,,down,0.733883076121856,2888.1502872777346,None,001,48,2019_Oct_21_1704,ACPT_experiment_5_30_19,3.1.0,59.950162505621485,
,,,C,G,g,v,L,G,g,R,c ,,,,,6,18,138,4,5,0,5,0,,,,,0,25,25,19,,,,,,up,0.7172126966070209,2890.185171132045,None,001,48,2019_Oct_21_1704,ACPT_experiment_5_30_19,3.1.0,59.950162505621485,
,,,C,G,g,v,L,G,g,L,c ,,,,,6,18,138,4,5,0,5,0,,,,,0,26,26,18,,,,,,up,0.917268419492757,2892.1867063790305,None,001,48,2019_Oct_21_1704,ACPT_experiment_5_30_19,3.1.0,59.950162505621485,
,,,C,G,g,v,R,U,g,R,u,,,,,6,18,138,4,5,0,5,0,,,,,0,27,27,11,,,,,,up,0.783937078420422,2894.38839635815,None,001,48,2019_Oct_21_1704,ACPT_experiment_5_30_19,3.1.0,59.950162505621485,
,,,C,G,g,v,R,G,g,L,c ,,,,,6,18,138,4,5,0,5,0,,,,,0,28,28,6,,,,,,up,0.683858655851509,2896.456654175803,None,001,48,2019_Oct_21_1704,ACPT_experiment_5_30_19,3.1.0,59.950162505621485,
,,,C,G,g,v,L,D,y,L,y,,,,,6,18,138,4,5,0,5,0,,,,,0,29,29,32,,,,,,up,0.6338713640507194,2898.424832967179,None,001,48,2019_Oct_21_1704,ACPT_experiment_5_30_19,3.1.0,59.950162505621485,
,,,C,G,g,v,L,D,g,L,i,,,,,6,18,138,4,5,0,5,0,,,,,0,30,30,14,,,,,,up,0.4670401850780763,2900.342974660274,None,001,48,2019_Oct_21_1704,ACPT_experiment_5_30_19,3.1.0,59.950162505621485,
,,,C,G,g,v,R,U,y,R,u,,,,,6,18,138,4,5,0,5,0,,,,,0,31,31,31,,,,,,down,0.667171070464974,2902.094322302859,None,001,48,2019_Oct_21_1704,ACPT_experiment_5_30_19,3.1.0,59.950162505621485,
,,,C,G,g,v,R,D,y,L,y,,,,,6,18,138,4,5,0,5,0,,,,,0,32,32,26,,,,,,down,0.7339060172853351,2904.0624977738007,None,001,48,2019_Oct_21_1704,ACPT_experiment_5_30_19,3.1.0,59.950162505621485,
,,,C,G,g,v,L,D,y,R,y,,,,,6,18,138,4,5,0,5,0,,,,,0,33,33,33,,,,,,down,0.45034082724669133,2906.0973952116947,None,001,48,2019_Oct_21_1704,ACPT_experiment_5_30_19,3.1.0,59.950162505621485,
,,,C,G,g,v,R,D,g,R,i,,,,,6,18,138,4,5,0,5,0,,,,,0,34,34,3,,,,,,up,0.8340007401566254,2907.832052552174,None,001,48,2019_Oct_21_1704,ACPT_experiment_5_30_19,3.1.0,59.950162505621485,
,,,C,G,g,v,R,D,d,R,c ,,,,,6,18,138,4,5,0,5,0,,,,,0,35,35,1,,,,,,up,0.7172347322011774,2909.9336532418565,None,001,48,2019_Oct_21_1704,ACPT_experiment_5_30_19,3.1.0,59.950162505621485,
,,,C,G,g,v,R,G,d,L,i,,,,,6,18,138,4,5,0,5,0,,,,,1,0,36,4,,,,,,up,0.6004578573811159,2911.935211128155,None,001,48,2019_Oct_21_1704,ACPT_experiment_5_30_19,3.1.0,59.950162505621485,
,,,C,G,g,v,R,U,g,R,u,,,,,6,18,138,4,5,0,5,0,,,,,1,1,37,11,,,,,,up,0.6504985779465642,2913.8199933470605,None,001,48,2019_Oct_21_1704,ACPT_experiment_5_30_19,3.1.0,59.950162505621485,
,,,C,G,g,v,L,G,d,R,i,,,,,6,18,138,4,5,0,5,0,,,,,1,2,38,17,,,,,,up,0.8003674812607642,2915.7717625637597,None,001,48,2019_Oct_21_1704,ACPT_experiment_5_30_19,3.1.0,59.950162505621485,
,,,C,G,g,v,L,G,y,L,y,,,,,6,18,138,4,5,0,5,0,,,,,1,3,39,34,,,,,,down,0.767277867631492,2917.8397197313934,None,001,48,2019_Oct_21_1704,ACPT_experiment_5_30_19,3.1.0,59.950162505621485,
,,,C,G,g,v,R,G,g,R,c ,,,,,6,18,138,4,5,0,5,0,,,,,1,4,40,7,,,,,,up,0.7672543227490678,2919.891322564268,None,001,48,2019_Oct_21_1704,ACPT_experiment_5_30_19,3.1.0,59.950162505621485,
,,,C,G,g,v,R,D,d,R,c ,,,,,6,18,138,4,5,0,5,0,,,,,1,5,41,1,,,,,,up,0.6338176334284071,2921.942896418823,None,001,48,2019_Oct_21_1704,ACPT_experiment_5_30_19,3.1.0,59.950162505621485,
,,,C,G,g,v,L,U,g,R,u,,,,,6,18,138,4,5,0,5,0,,,,,1,6,42,23,,,,,,up,0.6004626870999346,2923.861031772911,None,001,48,2019_Oct_21_1704,ACPT_experiment_5_30_19,3.1.0,59.950162505621485,
,,,C,G,g,v,L,G,g,L,c ,,,,,6,18,138,4,5,0,5,0,,,,,1,7,43,18,,,,,,up,0.5337416257207224,2925.745817010393,None,001,48,2019_Oct_21_1704,ACPT_experiment_5_30_19,3.1.0,59.950162505621485,
,,,C,G,g,v,L,U,y,R,u,,,,,6,18,138,4,5,0,5,0,,,,,1,8,44,25,,,,,,down,0.517058266334061,2927.5638784697767,None,001,48,2019_Oct_21_1704,ACPT_experiment_5_30_19,3.1.0,59.950162505621485,
,,,C,G,g,v,L,D,g,L,i,,,,,6,18,138,4,5,0,5,0,,,,,1,9,45,14,,,,,,up,0.5504298148225644,2929.3652623050693,None,001,48,2019_Oct_21_1704,ACPT_experiment_5_30_19,3.1.0,59.950162505621485,
