facing_vig,person_vig,text_vig,facing_train,person_train,food_train,correct_key_train,facing_exp,person_exp,food_exp,showL_R,consistent,vig_random.thisRepN,vig_random.thisTrialN,vig_random.thisN,vig_random.thisIndex,trainTrials.thisRepN,trainTrials.thisTrialN,trainTrials.thisN,trainTrials.thisIndex,expBlock.thisRepN,expBlock.thisTrialN,expBlock.thisN,expBlock.thisIndex,breakLoop.thisRepN,breakLoop.thisTrialN,breakLoop.thisN,breakLoop.thisIndex,expTrials.thisRepN,expTrials.thisTrialN,expTrials.thisN,expTrials.thisIndex,train_resp.keys,train_resp.corr,train_resp.rt,train_resp.started,train_resp.stopped,exp_resp.keys,exp_resp.rt,exp_resp.started,exp_resp.stopped,session,participant,date,expName,psychopyVersion,frameRate,
C,G,"cannot eat dairy products because she is lactose intolerant. She enjoys eating wheat products. She thinks eating insects, like crickets, is disgusting.",,,,,,,,,,0,0,0,0,,,,,,,,,,,,,,,,,,,,,,,,,,001,49,2019_Oct_22_1203,ACPT_experiment_5_30_19,3.1.0,59.943889247759955,
C,D,"is allergic to gluten, meaning she can’t eat wheat products. She enjoys eating dairy products. She thinks eating insects, like crickets, is disgusting.",,,,,,,,,,0,1,1,1,,,,,,,,,,,,,,,,,,,,,,,,,,001,49,2019_Oct_22_1203,ACPT_experiment_5_30_19,3.1.0,59.943889247759955,
C,U,"did not report her food preferences, so her food preferences are unknown.",,,,,,,,,,0,2,2,2,,,,,,,,,,,,,,,,,,,,,,,,,,001,49,2019_Oct_22_1203,ACPT_experiment_5_30_19,3.1.0,59.943889247759955,
,,,C,D,g,b,,,,,,,,,,0,0,0,10,,,,,,,,,,,,,v,0,8.006125558093572,833.4718255418838,None,,,,,001,49,2019_Oct_22_1203,ACPT_experiment_5_30_19,3.1.0,59.943889247759955,
,,,C,D,d,v,,,,,,,,,,0,1,1,18,,,,,,,,,,,,,v,1,1.0173105198830399,844.7471179570646,None,,,,,001,49,2019_Oct_22_1203,ACPT_experiment_5_30_19,3.1.0,59.943889247759955,
,,,C,G,g,v,,,,,,,,,,0,2,2,4,,,,,,,,,,,,,v,1,1.3006793866654789,849.0673920058343,None,,,,,001,49,2019_Oct_22_1203,ACPT_experiment_5_30_19,3.1.0,59.943889247759955,
,,,C,G,y,b,,,,,,,,,,0,3,3,5,,,,,,,,,,,,,b,1,2.201748891661282,853.6371947823636,None,,,,,001,49,2019_Oct_22_1203,ACPT_experiment_5_30_19,3.1.0,59.943889247759955,
,,,C,U,d,n,,,,,,,,,,0,4,4,15,,,,,,,,,,,,,n,1,1.8848049151770283,859.1247491201661,None,,,,,001,49,2019_Oct_22_1203,ACPT_experiment_5_30_19,3.1.0,59.943889247759955,
,,,C,G,d,b,,,,,,,,,,0,5,5,12,,,,,,,,,,,,,v,0,1.5846078939496238,864.2786487489136,None,,,,,001,49,2019_Oct_22_1203,ACPT_experiment_5_30_19,3.1.0,59.943889247759955,
,,,C,U,g,n,,,,,,,,,,0,6,6,7,,,,,,,,,,,,,v,0,1.0007793914649028,869.149055146323,None,,,,,001,49,2019_Oct_22_1203,ACPT_experiment_5_30_19,3.1.0,59.943889247759955,
,,,C,G,g,v,,,,,,,,,,0,7,7,19,,,,,,,,,,,,,v,1,3.3522982237905126,873.4526172550991,None,,,,,001,49,2019_Oct_22_1203,ACPT_experiment_5_30_19,3.1.0,59.943889247759955,
,,,C,D,y,b,,,,,,,,,,0,8,8,2,,,,,,,,,,,,,v,0,3.6027765896401434,880.0907170009066,None,,,,,001,49,2019_Oct_22_1203,ACPT_experiment_5_30_19,3.1.0,59.943889247759955,
,,,C,U,y,n,,,,,,,,,,0,9,9,8,,,,,,,,,,,,,n,1,1.3010207854829332,886.979305375658,None,,,,,001,49,2019_Oct_22_1203,ACPT_experiment_5_30_19,3.1.0,59.943889247759955,
,,,C,U,y,n,,,,,,,,,,0,10,10,17,,,,,,,,,,,,,n,1,1.1839650620117936,891.5831173304123,None,,,,,001,49,2019_Oct_22_1203,ACPT_experiment_5_30_19,3.1.0,59.943889247759955,
,,,C,D,d,v,,,,,,,,,,0,11,11,9,,,,,,,,,,,,,b,0,2.7187709884053675,896.0528968942367,None,,,,,001,49,2019_Oct_22_1203,ACPT_experiment_5_30_19,3.1.0,59.943889247759955,
,,,C,G,y,b,,,,,,,,,,0,12,12,14,,,,,,,,,,,,,b,1,2.9188971037244755,902.0575023069323,None,,,,,001,49,2019_Oct_22_1203,ACPT_experiment_5_30_19,3.1.0,59.943889247759955,
,,,C,U,d,n,,,,,,,,,,0,13,13,6,,,,,,,,,,,,,v,0,4.920430530774183,908.2622356460813,None,,,,,001,49,2019_Oct_22_1203,ACPT_experiment_5_30_19,3.1.0,59.943889247759955,
,,,C,G,d,b,,,,,,,,,,0,14,14,3,,,,,,,,,,,,,v,0,5.120611281978199,916.4517898685751,None,,,,,001,49,2019_Oct_22_1203,ACPT_experiment_5_30_19,3.1.0,59.943889247759955,
,,,C,D,y,b,,,,,,,,,,0,15,15,11,,,,,,,,,,,,,v,0,3.2523242135678174,924.8583720136282,None,,,,,001,49,2019_Oct_22_1203,ACPT_experiment_5_30_19,3.1.0,59.943889247759955,
,,,C,U,g,n,,,,,,,,,,0,16,16,16,,,,,,,,,,,,,n,1,1.0674904107984275,931.3965511776751,None,,,,,001,49,2019_Oct_22_1203,ACPT_experiment_5_30_19,3.1.0,59.943889247759955,
,,,C,D,g,b,,,,,,,,,,0,17,17,1,,,,,,,,,,,,,v,0,2.565183176614937,935.769882104212,None,,,,,001,49,2019_Oct_22_1203,ACPT_experiment_5_30_19,3.1.0,59.943889247759955,
,,,C,G,g,v,,,,,,,,,,0,18,18,13,,,,,,,,,,,,,v,1,5.187264948725215,941.621061801638,None,,,,,001,49,2019_Oct_22_1203,ACPT_experiment_5_30_19,3.1.0,59.943889247759955,
,,,C,D,d,v,,,,,,,,,,0,19,19,0,,,,,,,,,,,,,v,1,2.1516607648841273,950.0941475911461,None,,,,,001,49,2019_Oct_22_1203,ACPT_experiment_5_30_19,3.1.0,59.943889247759955,
,,,C,U,y,n,,,,,,,,,,1,0,20,8,,,,,,,,,,,,,n,1,1.117531448083355,955.531633724649,None,,,,,001,49,2019_Oct_22_1203,ACPT_experiment_5_30_19,3.1.0,59.943889247759955,
,,,C,D,g,b,,,,,,,,,,1,1,21,1,,,,,,,,,,,,,b,1,3.018582238024692,959.9520459931521,None,,,,,001,49,2019_Oct_22_1203,ACPT_experiment_5_30_19,3.1.0,59.943889247759955,
,,,C,G,g,v,,,,,,,,,,1,2,22,19,,,,,,,,,,,,,v,1,1.0674985609030045,966.2564810686658,None,,,,,001,49,2019_Oct_22_1203,ACPT_experiment_5_30_19,3.1.0,59.943889247759955,
,,,C,D,y,b,,,,,,,,,,1,3,23,2,,,,,,,,,,,,,b,1,2.685136714982491,970.6267400095567,None,,,,,001,49,2019_Oct_22_1203,ACPT_experiment_5_30_19,3.1.0,59.943889247759955,
,,,C,D,y,b,,,,,,,,,,1,4,24,11,,,,,,,,,,,,,b,1,2.83553240255128,976.5810049440947,None,,,,,001,49,2019_Oct_22_1203,ACPT_experiment_5_30_19,3.1.0,59.943889247759955,
,,,C,U,g,n,,,,,,,,,,1,5,25,16,,,,,,,,,,,,,n,1,1.7013315761307695,982.7023766006278,None,,,,,001,49,2019_Oct_22_1203,ACPT_experiment_5_30_19,3.1.0,59.943889247759955,
,,,C,D,d,v,,,,,,,,,,1,6,26,18,,,,,,,,,,,,,v,1,2.7687984421829697,987.6895124154767,None,,,,,001,49,2019_Oct_22_1203,ACPT_experiment_5_30_19,3.1.0,59.943889247759955,
,,,C,U,g,n,,,,,,,,,,1,7,27,7,,,,,,,,,,,,,n,1,1.0174563161949663,993.7441211334924,None,,,,,001,49,2019_Oct_22_1203,ACPT_experiment_5_30_19,3.1.0,59.943889247759955,
,,,C,G,d,b,,,,,,,,,,1,8,28,12,,,,,,,,,,,,,b,1,2.151479651453201,998.064231274607,None,,,,,001,49,2019_Oct_22_1203,ACPT_experiment_5_30_19,3.1.0,59.943889247759955,
,,,C,U,d,n,,,,,,,,,,1,9,29,6,,,,,,,,,,,,,n,1,1.1008750495420827,1003.5015767433451,None,,,,,001,49,2019_Oct_22_1203,ACPT_experiment_5_30_19,3.1.0,59.943889247759955,
,,,C,G,y,b,,,,,,,,,,1,10,30,14,,,,,,,,,,,,,b,1,1.3842122214739447,1007.9050805637819,None,,,,,001,49,2019_Oct_22_1203,ACPT_experiment_5_30_19,3.1.0,59.943889247759955,
,,,C,U,y,n,,,,,,,,,,1,11,31,17,,,,,,,,,,,,,n,1,1.6846305029430368,1012.575155282128,None,,,,,001,49,2019_Oct_22_1203,ACPT_experiment_5_30_19,3.1.0,59.943889247759955,
,,,C,G,d,b,,,,,,,,,,1,12,32,3,,,,,,,,,,,,,b,1,1.3343664848387107,1017.545611757401,None,,,,,001,49,2019_Oct_22_1203,ACPT_experiment_5_30_19,3.1.0,59.943889247759955,
,,,C,G,g,v,,,,,,,,,,1,13,33,4,,,,,,,,,,,,,v,1,3.4357296350774504,1022.1660737717264,None,,,,,001,49,2019_Oct_22_1203,ACPT_experiment_5_30_19,3.1.0,59.943889247759955,
,,,C,D,g,b,,,,,,,,,,1,14,34,10,,,,,,,,,,,,,b,1,2.918910687232028,1028.887600400985,None,,,,,001,49,2019_Oct_22_1203,ACPT_experiment_5_30_19,3.1.0,59.943889247759955,
,,,C,G,g,v,,,,,,,,,,1,15,35,13,,,,,,,,,,,,,v,1,1.4177544289025263,1035.0923452106515,None,,,,,001,49,2019_Oct_22_1203,ACPT_experiment_5_30_19,3.1.0,59.943889247759955,
,,,C,G,y,b,,,,,,,,,,1,16,36,5,,,,,,,,,,,,,b,1,1.684359738363355,1039.7961924523393,None,,,,,001,49,2019_Oct_22_1203,ACPT_experiment_5_30_19,3.1.0,59.943889247759955,
,,,C,D,d,v,,,,,,,,,,1,17,37,9,,,,,,,,,,,,,v,1,2.335130179806356,1044.7663787667443,None,,,,,001,49,2019_Oct_22_1203,ACPT_experiment_5_30_19,3.1.0,59.943889247759955,
,,,C,U,d,n,,,,,,,,,,1,18,38,15,,,,,,,,,,,,,n,1,2.068240824114355,1050.3873503135223,None,,,,,001,49,2019_Oct_22_1203,ACPT_experiment_5_30_19,3.1.0,59.943889247759955,
,,,C,D,d,v,,,,,,,,,,1,19,39,0,,,,,,,,,,,,,v,1,2.351811632372346,1055.7414177136784,None,,,,,001,49,2019_Oct_22_1203,ACPT_experiment_5_30_19,3.1.0,59.943889247759955,
,,,C,G,d,b,,,,,,,,,,2,0,40,12,,,,,,,,,,,,,b,1,1.2342931640848747,1061.3790480738435,None,,,,,001,49,2019_Oct_22_1203,ACPT_experiment_5_30_19,3.1.0,59.943889247759955,
,,,C,G,g,v,,,,,,,,,,2,1,41,4,,,,,,,,,,,,,v,1,1.5009117551976487,1065.916094675235,None,,,,,001,49,2019_Oct_22_1203,ACPT_experiment_5_30_19,3.1.0,59.943889247759955,
,,,C,G,g,v,,,,,,,,,,2,2,42,19,,,,,,,,,,,,,v,1,1.0007809007433934,1070.6861542706094,None,,,,,001,49,2019_Oct_22_1203,ACPT_experiment_5_30_19,3.1.0,59.943889247759955,
,,,C,D,d,v,,,,,,,,,,2,3,43,18,,,,,,,,,,,,,v,1,1.5676049650435289,1074.9897082292812,None,,,,,001,49,2019_Oct_22_1203,ACPT_experiment_5_30_19,3.1.0,59.943889247759955,
,,,C,G,g,v,,,,,,,,,,2,4,44,13,,,,,,,,,,,,,v,1,1.250963146133472,1079.8431430907792,None,,,,,001,49,2019_Oct_22_1203,ACPT_experiment_5_30_19,3.1.0,59.943889247759955,
,,,C,D,d,v,,,,,,,,,,2,5,45,9,,,,,,,,,,,,,v,1,1.9012116790390792,1084.396864202055,None,,,,,001,49,2019_Oct_22_1203,ACPT_experiment_5_30_19,3.1.0,59.943889247759955,
,,,C,U,d,n,,,,,,,,,,2,6,46,15,,,,,,,,,,,,,n,1,1.050809561943879,1089.5839100035287,None,,,,,001,49,2019_Oct_22_1203,ACPT_experiment_5_30_19,3.1.0,59.943889247759955,
,,,C,U,y,n,,,,,,,,,,2,7,47,17,,,,,,,,,,,,,n,1,1.2643299210556052,1093.9405540440969,None,,,,,001,49,2019_Oct_22_1203,ACPT_experiment_5_30_19,3.1.0,59.943889247759955,
,,,C,G,d,b,,,,,,,,,,2,8,48,3,,,,,,,,,,,,,b,1,1.6179155594850272,1098.4907011836667,None,,,,,001,49,2019_Oct_22_1203,ACPT_experiment_5_30_19,3.1.0,59.943889247759955,
,,,C,G,y,b,,,,,,,,,,2,9,49,14,,,,,,,,,,,,,b,1,2.9689668173027712,1103.394419170736,None,,,,,001,49,2019_Oct_22_1203,ACPT_experiment_5_30_19,3.1.0,59.943889247759955,
,,,C,D,y,b,,,,,,,,,,2,10,50,2,,,,,,,,,,,,,v,0,1.4344585206474676,1109.6491971694386,None,,,,,001,49,2019_Oct_22_1203,ACPT_experiment_5_30_19,3.1.0,59.943889247759955,
,,,C,D,d,v,,,,,,,,,,2,11,51,0,,,,,,,,,,,,,v,1,2.5019383664955512,1114.35279387088,None,,,,,001,49,2019_Oct_22_1203,ACPT_experiment_5_30_19,3.1.0,59.943889247759955,
,,,C,U,g,n,,,,,,,,,,2,12,52,16,,,,,,,,,,,,,n,1,1.3010105223884239,1120.1405500596013,None,,,,,001,49,2019_Oct_22_1203,ACPT_experiment_5_30_19,3.1.0,59.943889247759955,
,,,C,D,g,b,,,,,,,,,,2,13,53,1,,,,,,,,,,,,,b,1,1.3505993798071358,1124.7444857752002,None,,,,,001,49,2019_Oct_22_1203,ACPT_experiment_5_30_19,3.1.0,59.943889247759955,
,,,C,G,y,b,,,,,,,,,,2,14,54,5,,,,,,,,,,,,,b,1,2.0516091777421934,1129.380935275795,None,,,,,001,49,2019_Oct_22_1203,ACPT_experiment_5_30_19,3.1.0,59.943889247759955,
,,,C,U,d,n,,,,,,,,,,2,15,55,6,,,,,,,,,,,,,n,1,1.734666710536203,1134.7183335994694,None,,,,,001,49,2019_Oct_22_1203,ACPT_experiment_5_30_19,3.1.0,59.943889247759955,
,,,C,U,y,n,,,,,,,,,,2,16,56,8,,,,,,,,,,,,,n,1,0.9507335244884416,1139.7388353380074,None,,,,,001,49,2019_Oct_22_1203,ACPT_experiment_5_30_19,3.1.0,59.943889247759955,
,,,C,D,g,b,,,,,,,,,,2,17,57,10,,,,,,,,,,,,,b,1,4.086289984940549,1143.99224774144,None,,,,,001,49,2019_Oct_22_1203,ACPT_experiment_5_30_19,3.1.0,59.943889247759955,
,,,C,U,g,n,,,,,,,,,,2,18,58,7,,,,,,,,,,,,,n,1,2.101623953579292,1151.3643612838648,None,,,,,001,49,2019_Oct_22_1203,ACPT_experiment_5_30_19,3.1.0,59.943889247759955,
,,,C,D,y,b,,,,,,,,,,2,19,59,11,,,,,,,,,,,,,b,1,1.484514047006769,1156.7518075875057,None,,,,,001,49,2019_Oct_22_1203,ACPT_experiment_5_30_19,3.1.0,59.943889247759955,
,,,C,G,y,b,,,,,,,,,,3,0,60,5,,,,,,,,,,,,,b,1,1.050836125247315,1161.5221156101363,None,,,,,001,49,2019_Oct_22_1203,ACPT_experiment_5_30_19,3.1.0,59.943889247759955,
,,,C,U,d,n,,,,,,,,,,3,1,61,15,,,,,,,,,,,,,n,1,0.8671717115310003,1165.8756058621589,None,,,,,001,49,2019_Oct_22_1203,ACPT_experiment_5_30_19,3.1.0,59.943889247759955,
,,,C,D,d,v,,,,,,,,,,3,2,62,18,,,,,,,,,,,,,v,1,2.4351769372569834,1170.028625883343,None,,,,,001,49,2019_Oct_22_1203,ACPT_experiment_5_30_19,3.1.0,59.943889247759955,
,,,C,U,y,n,,,,,,,,,,3,3,63,17,,,,,,,,,,,,,n,1,1.084173674498743,1175.7496306040646,None,,,,,001,49,2019_Oct_22_1203,ACPT_experiment_5_30_19,3.1.0,59.943889247759955,
,,,C,U,d,n,,,,,,,,,,3,4,64,6,,,,,,,,,,,,,n,1,1.4841641962291305,1180.1366289538194,None,,,,,001,49,2019_Oct_22_1203,ACPT_experiment_5_30_19,3.1.0,59.943889247759955,
,,,C,D,g,b,,,,,,,,,,3,5,65,1,,,,,,,,,,,,,b,1,3.7528785715946924,1184.9066200279458,None,,,,,001,49,2019_Oct_22_1203,ACPT_experiment_5_30_19,3.1.0,59.943889247759955,
,,,C,U,g,n,,,,,,,,,,3,6,66,16,,,,,,,,,,,,,n,1,1.000760374554602,1191.9453321182634,None,,,,,001,49,2019_Oct_22_1203,ACPT_experiment_5_30_19,3.1.0,59.943889247759955,
,,,C,D,d,v,,,,,,,,,,3,7,67,9,,,,,,,,,,,,,v,1,1.4511239748603657,1196.2319214837053,None,,,,,001,49,2019_Oct_22_1203,ACPT_experiment_5_30_19,3.1.0,59.943889247759955,
,,,C,U,g,n,,,,,,,,,,3,8,68,7,,,,,,,,,,,,,n,1,1.7847083515327995,1200.9688744494529,None,,,,,001,49,2019_Oct_22_1203,ACPT_experiment_5_30_19,3.1.0,59.943889247759955,
,,,C,U,y,n,,,,,,,,,,3,9,69,8,,,,,,,,,,,,,n,1,1.2843272586881085,1206.0393985102212,None,,,,,001,49,2019_Oct_22_1203,ACPT_experiment_5_30_19,3.1.0,59.943889247759955,
,,,C,D,y,b,,,,,,,,,,3,10,70,2,,,,,,,,,,,,,b,1,0.7138739830859322,1210.6462583021641,None,,,,,001,49,2019_Oct_22_1203,ACPT_experiment_5_30_19,3.1.0,59.943889247759955,
,,,C,D,g,b,,,,,,,,,,3,11,71,10,,,,,,,,,,,,,b,1,2.3351588560997243,1214.6292668437754,None,,,,,001,49,2019_Oct_22_1203,ACPT_experiment_5_30_19,3.1.0,59.943889247759955,
,,,C,G,y,b,,,,,,,,,,3,12,72,14,,,,,,,,,,,,,b,1,1.9681991982108684,1220.2502181662205,None,,,,,001,49,2019_Oct_22_1203,ACPT_experiment_5_30_19,3.1.0,59.943889247759955,
,,,C,G,d,b,,,,,,,,,,3,13,73,3,,,,,,,,,,,,,b,1,2.7187706865497603,1225.4875534322352,None,,,,,001,49,2019_Oct_22_1203,ACPT_experiment_5_30_19,3.1.0,59.943889247759955,
,,,C,D,d,v,,,,,,,,,,3,14,74,0,,,,,,,,,,,,,v,1,1.9181626887616403,1231.4921259426576,None,,,,,001,49,2019_Oct_22_1203,ACPT_experiment_5_30_19,3.1.0,59.943889247759955,
,,,C,G,g,v,,,,,,,,,,3,15,75,19,,,,,,,,,,,,,v,1,1.484490502260769,1236.6961130944708,None,,,,,001,49,2019_Oct_22_1203,ACPT_experiment_5_30_19,3.1.0,59.943889247759955,
,,,C,G,d,b,,,,,,,,,,3,16,76,12,,,,,,,,,,,,,b,1,2.2517724213143993,1241.4664220226687,None,,,,,001,49,2019_Oct_22_1203,ACPT_experiment_5_30_19,3.1.0,59.943889247759955,
,,,C,G,g,v,,,,,,,,,,3,17,77,4,,,,,,,,,,,,,v,1,1.667960219038605,1247.0039718175426,None,,,,,001,49,2019_Oct_22_1203,ACPT_experiment_5_30_19,3.1.0,59.943889247759955,
,,,C,D,y,b,,,,,,,,,,3,18,78,11,,,,,,,,,,,,,b,1,1.21760537254886,1251.9577640460257,None,,,,,001,49,2019_Oct_22_1203,ACPT_experiment_5_30_19,3.1.0,59.943889247759955,
,,,C,G,g,v,,,,,,,,,,3,19,79,13,,,,,,,,,,,,,v,1,2.2513078653639695,1256.4782671429145,None,,,,,001,49,2019_Oct_22_1203,ACPT_experiment_5_30_19,3.1.0,59.943889247759955,
,,,C,D,y,b,,,,,,,,,,4,0,80,2,,,,,,,,,,,,,b,1,2.25172291697686,1262.0154248272102,None,,,,,001,49,2019_Oct_22_1203,ACPT_experiment_5_30_19,3.1.0,59.943889247759955,
,,,C,G,y,b,,,,,,,,,,4,1,81,5,,,,,,,,,,,,,b,1,1.718017858388066,1267.5529839796116,None,,,,,001,49,2019_Oct_22_1203,ACPT_experiment_5_30_19,3.1.0,59.943889247759955,
,,,C,D,g,b,,,,,,,,,,4,2,82,10,,,,,,,,,,,,,b,1,1.7180184620995078,1272.5568054730063,None,,,,,001,49,2019_Oct_22_1203,ACPT_experiment_5_30_19,3.1.0,59.943889247759955,
,,,C,G,d,b,,,,,,,,,,4,3,83,12,,,,,,,,,,,,,b,1,1.2341621587029294,1277.5606097606253,None,,,,,001,49,2019_Oct_22_1203,ACPT_experiment_5_30_19,3.1.0,59.943889247759955,
,,,C,G,y,b,,,,,,,,,,4,4,84,14,,,,,,,,,,,,,b,1,1.2173521156012157,1282.0976521360367,None,,,,,001,49,2019_Oct_22_1203,ACPT_experiment_5_30_19,3.1.0,59.943889247759955,
,,,C,G,d,b,,,,,,,,,,4,5,85,3,,,,,,,,,,,,,b,1,2.785344059675708,1286.6008359592265,None,,,,,001,49,2019_Oct_22_1203,ACPT_experiment_5_30_19,3.1.0,59.943889247759955,
,,,C,U,y,n,,,,,,,,,,4,6,86,8,,,,,,,,,,,,,n,1,2.0182040128095196,1292.6888187510358,None,,,,,001,49,2019_Oct_22_1203,ACPT_experiment_5_30_19,3.1.0,59.943889247759955,
,,,C,G,g,v,,,,,,,,,,4,7,87,4,,,,,,,,,,,,,v,1,1.4344428241499827,1297.9928623196827,None,,,,,001,49,2019_Oct_22_1203,ACPT_experiment_5_30_19,3.1.0,59.943889247759955,
,,,C,G,g,v,,,,,,,,,,4,8,88,19,,,,,,,,,,,,,v,1,1.85142269127914,1302.6964460413283,None,,,,,001,49,2019_Oct_22_1203,ACPT_experiment_5_30_19,3.1.0,59.943889247759955,
,,,C,D,d,v,,,,,,,,,,4,9,89,0,,,,,,,,,,,,,v,1,1.6345888619466677,1307.8336962142162,None,,,,,001,49,2019_Oct_22_1203,ACPT_experiment_5_30_19,3.1.0,59.943889247759955,
,,,C,D,g,b,,,,,,,,,,4,10,90,1,,,,,,,,,,,,,b,1,1.6179113335051625,1312.7374383497427,None,,,,,001,49,2019_Oct_22_1203,ACPT_experiment_5_30_19,3.1.0,59.943889247759955,
,,,C,G,g,v,,,,,,,,,,4,11,91,13,,,,,,,,,,,,,v,1,1.2009266366844713,1317.6411741462991,None,,,,,001,49,2019_Oct_22_1203,ACPT_experiment_5_30_19,3.1.0,59.943889247759955,
,,,C,U,d,n,,,,,,,,,,4,12,92,15,,,,,,,,,,,,,n,1,1.1842626917500638,1322.1279077384033,None,,,,,001,49,2019_Oct_22_1203,ACPT_experiment_5_30_19,3.1.0,59.943889247759955,
,,,C,D,d,v,,,,,,,,,,4,13,93,18,,,,,,,,,,,,,v,1,2.0516303076424265,1326.5979807059862,None,,,,,001,49,2019_Oct_22_1203,ACPT_experiment_5_30_19,3.1.0,59.943889247759955,
,,,C,D,d,v,,,,,,,,,,4,14,94,9,,,,,,,,,,,,,v,1,1.717999445189207,1331.9187138773034,None,,,,,001,49,2019_Oct_22_1203,ACPT_experiment_5_30_19,3.1.0,59.943889247759955,
,,,C,U,y,n,,,,,,,,,,4,15,95,17,,,,,,,,,,,,,n,1,1.0007757691962524,1336.9225420115242,None,,,,,001,49,2019_Oct_22_1203,ACPT_experiment_5_30_19,3.1.0,59.943889247759955,
,,,C,U,g,n,,,,,,,,,,4,16,96,7,,,,,,,,,,,,,n,1,1.1839590248973764,1341.20942508258,None,,,,,001,49,2019_Oct_22_1203,ACPT_experiment_5_30_19,3.1.0,59.943889247759955,
,,,C,D,y,b,,,,,,,,,,4,17,97,11,,,,,,,,,,,,,b,1,1.3009972407369332,1345.679225776305,None,,,,,001,49,2019_Oct_22_1203,ACPT_experiment_5_30_19,3.1.0,59.943889247759955,
,,,C,U,d,n,,,,,,,,,,4,18,98,6,,,,,,,,,,,,,n,1,1.000770939504946,1350.2660498949392,None,,,,,001,49,2019_Oct_22_1203,ACPT_experiment_5_30_19,3.1.0,59.943889247759955,
,,,C,U,g,n,,,,,,,,,,4,19,99,16,,,,,,,,,,,,,n,1,0.9507362411900431,1354.5359665616309,None,,,,,001,49,2019_Oct_22_1203,ACPT_experiment_5_30_19,3.1.0,59.943889247759955,
,,,C,U,d,n,,,,,,,,,,5,0,100,15,,,,,,,,,,,,,n,1,2.1345449419395663,1358.7896147143797,None,,,,,001,49,2019_Oct_22_1203,ACPT_experiment_5_30_19,3.1.0,59.943889247759955,
,,,C,D,d,v,,,,,,,,,,5,1,101,18,,,,,,,,,,,,,v,1,2.868866631389892,1364.2100140030868,None,,,,,001,49,2019_Oct_22_1203,ACPT_experiment_5_30_19,3.1.0,59.943889247759955,
,,,C,U,y,n,,,,,,,,,,5,2,102,17,,,,,,,,,,,,,n,1,1.0508168064811798,1370.364705097528,None,,,,,001,49,2019_Oct_22_1203,ACPT_experiment_5_30_19,3.1.0,59.943889247759955,
,,,C,U,g,n,,,,,,,,,,5,3,103,7,,,,,,,,,,,,,n,1,0.7972860756069622,1374.7213536659322,None,,,,,001,49,2019_Oct_22_1203,ACPT_experiment_5_30_19,3.1.0,59.943889247759955,
,,,C,G,y,b,,,,,,,,,,5,4,104,5,,,,,,,,,,,,,b,1,3.335894478485443,1378.8044771843865,None,,,,,001,49,2019_Oct_22_1203,ACPT_experiment_5_30_19,3.1.0,59.943889247759955,
,,,C,G,g,v,,,,,,,,,,5,5,105,13,,,,,,,,,,,,,v,1,1.0508122786454805,1385.4095047121186,None,,,,,001,49,2019_Oct_22_1203,ACPT_experiment_5_30_19,3.1.0,59.943889247759955,
,,,C,U,d,n,,,,,,,,,,5,6,106,6,,,,,,,,,,,,,n,1,1.467798786600497,1389.74614749093,None,,,,,001,49,2019_Oct_22_1203,ACPT_experiment_5_30_19,3.1.0,59.943889247759955,
,,,C,D,y,b,,,,,,,,,,5,7,107,2,,,,,,,,,,,,,b,1,0.867383010534013,1394.499780399965,None,,,,,001,49,2019_Oct_22_1203,ACPT_experiment_5_30_19,3.1.0,59.943889247759955,
,,,C,G,g,v,,,,,,,,,,5,8,108,19,,,,,,,,,,,,,v,1,1.8176682792804968,1398.6699868783319,None,,,,,001,49,2019_Oct_22_1203,ACPT_experiment_5_30_19,3.1.0,59.943889247759955,
,,,C,U,y,n,,,,,,,,,,5,9,109,8,,,,,,,,,,,,,n,1,1.0174496753693347,1403.7735070895344,None,,,,,001,49,2019_Oct_22_1203,ACPT_experiment_5_30_19,3.1.0,59.943889247759955,
,,,C,G,g,v,,,,,,,,,,5,10,110,4,,,,,,,,,,,,,v,1,1.4673946017933304,1408.0938484521291,None,,,,,001,49,2019_Oct_22_1203,ACPT_experiment_5_30_19,3.1.0,59.943889247759955,
,,,C,D,d,v,,,,,,,,,,5,11,111,0,,,,,,,,,,,,,v,1,1.8514338599406983,1412.8470907598644,None,,,,,001,49,2019_Oct_22_1203,ACPT_experiment_5_30_19,3.1.0,59.943889247759955,
,,,C,D,y,b,,,,,,,,,,5,12,112,11,,,,,,,,,,,,,b,1,1.250964051700521,1417.9843403290408,None,,,,,001,49,2019_Oct_22_1203,ACPT_experiment_5_30_19,3.1.0,59.943889247759955,
,,,C,D,d,v,,,,,,,,,,5,13,113,9,,,,,,,,,,,,,v,1,1.180912998842814,1422.5411433872016,None,,,,,001,49,2019_Oct_22_1203,ACPT_experiment_5_30_19,3.1.0,59.943889247759955,
,,,C,G,d,b,,,,,,,,,,5,14,114,12,,,,,,,,,,,,,b,1,1.417761673439827,1427.007885075076,None,,,,,001,49,2019_Oct_22_1203,ACPT_experiment_5_30_19,3.1.0,59.943889247759955,
,,,C,D,g,b,,,,,,,,,,5,15,115,1,,,,,,,,,,,,,b,1,1.6841762100866617,1431.728579789975,None,,,,,001,49,2019_Oct_22_1203,ACPT_experiment_5_30_19,3.1.0,59.943889247759955,
,,,C,D,g,b,,,,,,,,,,5,16,116,10,,,,,,,,,,,,,b,1,1.6681060153505314,1436.6817776645482,None,,,,,001,49,2019_Oct_22_1203,ACPT_experiment_5_30_19,3.1.0,59.943889247759955,
,,,C,G,y,b,,,,,,,,,,5,17,117,14,,,,,,,,,,,,,b,1,1.3343568254558704,1441.6357051243933,None,,,,,001,49,2019_Oct_22_1203,ACPT_experiment_5_30_19,3.1.0,59.943889247759955,
,,,C,U,g,n,,,,,,,,,,5,18,118,16,,,,,,,,,,,,,n,1,1.2008128370785016,1446.2558791683634,None,,,,,001,49,2019_Oct_22_1203,ACPT_experiment_5_30_19,3.1.0,59.943889247759955,
,,,C,G,d,b,,,,,,,,,,5,19,119,3,0,0,0,0,0,0,0,0,,,,,b,1,1.7680250878324841,1450.7426480775866,None,,,,,001,49,2019_Oct_22_1203,ACPT_experiment_5_30_19,3.1.0,59.943889247759955,
,,,C,G,d,b,R,U,d,R,u,,,,,5,19,119,3,0,0,0,0,,,,,0,0,0,9,,,,,,up,1.2340444349729296,1498.6794310381936,None,001,49,2019_Oct_22_1203,ACPT_experiment_5_30_19,3.1.0,59.943889247759955,
,,,C,G,d,b,R,D,y,L,y,,,,,5,19,119,3,0,0,0,0,,,,,0,1,1,26,,,,,,down,1.6512564291494982,1501.1977816019544,None,001,49,2019_Oct_22_1203,ACPT_experiment_5_30_19,3.1.0,59.943889247759955,
,,,C,G,d,b,R,U,d,L,u,,,,,5,19,119,3,0,0,0,0,,,,,0,2,2,8,,,,,,up,2.2016845963933065,1504.1333438580361,None,001,49,2019_Oct_22_1203,ACPT_experiment_5_30_19,3.1.0,59.943889247759955,
,,,C,G,d,b,R,G,y,R,y,,,,,5,19,119,3,0,0,0,0,,,,,0,3,3,29,,,,,,down,0.8673138855742764,1507.6360305248577,None,001,49,2019_Oct_22_1203,ACPT_experiment_5_30_19,3.1.0,59.943889247759955,
,,,C,G,d,b,L,G,d,L,i,,,,,5,19,119,3,0,0,0,0,,,,,0,4,4,16,,,,,,up,0.9674010916912721,1509.8043410474575,None,001,49,2019_Oct_22_1203,ACPT_experiment_5_30_19,3.1.0,59.943889247759955,
,,,C,G,d,b,R,G,y,L,y,,,,,5,19,119,3,0,0,0,0,,,,,0,5,5,28,,,,,,down,0.7839464676994794,1512.056036193708,None,001,49,2019_Oct_22_1203,ACPT_experiment_5_30_19,3.1.0,59.943889247759955,
,,,C,G,d,b,L,U,d,L,u,,,,,5,19,119,3,0,0,0,0,,,,,0,6,6,20,,,,,,up,0.7672650151334892,1514.140977185443,None,001,49,2019_Oct_22_1203,ACPT_experiment_5_30_19,3.1.0,59.943889247759955,
,,,C,G,d,b,R,U,g,R,u,,,,,5,19,119,3,0,0,0,0,,,,,0,7,7,11,,,,,,up,0.9507093760309999,1516.1925516497774,None,001,49,2019_Oct_22_1203,ACPT_experiment_5_30_19,3.1.0,59.943889247759955,
,,,C,G,d,b,R,D,g,L,i,,,,,5,19,119,3,0,0,0,0,,,,,0,8,8,2,,,,,,up,1.4677776567000365,1518.4275734935663,None,001,49,2019_Oct_22_1203,ACPT_experiment_5_30_19,3.1.0,59.943889247759955,
,,,C,G,d,b,R,U,y,L,u,,,,,5,19,119,3,0,0,0,0,,,,,0,9,9,30,,,,,,down,0.7839072264562219,1521.1796928980293,None,001,49,2019_Oct_22_1203,ACPT_experiment_5_30_19,3.1.0,59.943889247759955,
,,,C,G,d,b,L,D,d,L,c ,,,,,5,19,119,3,0,0,0,0,,,,,0,10,10,12,,,,,,up,0.6004695063843428,1523.2478987068803,None,001,49,2019_Oct_22_1203,ACPT_experiment_5_30_19,3.1.0,59.943889247759955,
,,,C,G,d,b,L,U,y,R,u,,,,,5,19,119,3,0,0,0,0,,,,,0,11,11,25,,,,,,down,0.6838360186920909,1525.149384169056,None,001,49,2019_Oct_22_1203,ACPT_experiment_5_30_19,3.1.0,59.943889247759955,
,,,C,G,d,b,L,G,d,R,i,,,,,5,19,119,3,0,0,0,0,,,,,0,12,12,17,,,,,,up,0.7672544501833727,1527.1175299388049,None,001,49,2019_Oct_22_1203,ACPT_experiment_5_30_19,3.1.0,59.943889247759955,
,,,C,G,d,b,L,U,d,R,u,,,,,5,19,119,3,0,0,0,0,,,,,0,13,13,21,,,,,,up,0.7672532427604892,1529.169097158602,None,001,49,2019_Oct_22_1203,ACPT_experiment_5_30_19,3.1.0,59.943889247759955,
,,,C,G,d,b,L,G,y,L,y,,,,,5,19,119,3,0,0,0,0,,,,,0,14,14,34,,,,,,down,0.566975595870872,1531.220670717369,None,001,49,2019_Oct_22_1203,ACPT_experiment_5_30_19,3.1.0,59.943889247759955,
,,,C,G,d,b,R,G,d,R,i,,,,,5,19,119,3,0,0,0,0,,,,,0,15,15,5,,,,,,up,0.4834949821013197,1533.0722488643432,None,001,49,2019_Oct_22_1203,ACPT_experiment_5_30_19,3.1.0,59.943889247759955,
,,,C,G,d,b,L,G,g,L,c ,,,,,5,19,119,3,0,0,0,0,,,,,0,16,16,18,,,,,,up,0.8339627528155233,1534.8400895183318,None,001,49,2019_Oct_22_1203,ACPT_experiment_5_30_19,3.1.0,59.943889247759955,
,,,C,G,d,b,L,D,y,R,y,,,,,5,19,119,3,0,0,0,0,,,,,0,17,17,33,,,,,,down,0.7171153097899605,1536.9583505516866,None,001,49,2019_Oct_22_1203,ACPT_experiment_5_30_19,3.1.0,59.943889247759955,
,,,C,G,d,b,L,U,g,L,u,,,,,5,19,119,3,0,0,0,0,,,,,0,18,18,22,,,,,,up,0.7338812819571103,1538.9598945436862,None,001,49,2019_Oct_22_1203,ACPT_experiment_5_30_19,3.1.0,59.943889247759955,
,,,C,G,d,b,L,D,g,L,i,,,,,5,19,119,3,0,0,0,0,,,,,0,19,19,14,,,,,,up,0.8006143367581444,1540.9780964435058,None,001,49,2019_Oct_22_1203,ACPT_experiment_5_30_19,3.1.0,59.943889247759955,
,,,C,G,d,b,L,D,d,R,c ,,,,,5,19,119,3,0,0,0,0,,,,,0,20,20,13,,,,,,up,0.6672061834540273,1543.0463188544213,None,001,49,2019_Oct_22_1203,ACPT_experiment_5_30_19,3.1.0,59.943889247759955,
,,,C,G,d,b,R,D,g,R,i,,,,,5,19,119,3,0,0,0,0,,,,,0,21,21,3,,,,,,up,0.6671717719020762,1544.9978278462504,None,001,49,2019_Oct_22_1203,ACPT_experiment_5_30_19,3.1.0,59.943889247759955,
,,,C,G,d,b,R,G,d,L,i,,,,,5,19,119,3,0,0,0,0,,,,,0,22,22,4,,,,,,up,0.5837714517540462,1546.949322349005,None,001,49,2019_Oct_22_1203,ACPT_experiment_5_30_19,3.1.0,59.943889247759955,
,,,C,G,d,b,L,D,g,R,i,,,,,5,19,119,3,0,0,0,0,,,,,0,23,23,15,,,,,,up,0.5838031466043958,1548.8174150223329,None,001,49,2019_Oct_22_1203,ACPT_experiment_5_30_19,3.1.0,59.943889247759955,
,,,C,G,d,b,R,D,d,R,c ,,,,,5,19,119,3,0,0,0,0,,,,,0,24,24,1,,,,,,up,1.1005910033109103,1550.7024264068211,None,001,49,2019_Oct_22_1203,ACPT_experiment_5_30_19,3.1.0,59.943889247759955,
,,,C,G,d,b,L,U,g,R,u,,,,,5,19,119,3,0,0,0,0,,,,,0,25,25,23,,,,,,up,0.8172840169511346,1553.0873316890247,None,001,49,2019_Oct_22_1203,ACPT_experiment_5_30_19,3.1.0,59.943889247759955,
,,,C,G,d,b,R,D,d,L,c,,,,,5,19,119,3,0,0,0,0,,,,,0,26,26,0,,,,,,up,0.7672562613176979,1555.188943870231,None,001,49,2019_Oct_22_1203,ACPT_experiment_5_30_19,3.1.0,59.943889247759955,
,,,C,G,d,b,L,G,g,R,c ,,,,,5,19,119,3,0,0,0,0,,,,,0,27,27,19,,,,,,up,0.5499648187160346,1557.2575964255452,None,001,49,2019_Oct_22_1203,ACPT_experiment_5_30_19,3.1.0,59.943889247759955,
,,,C,G,d,b,R,U,g,L,u,,,,,5,19,119,3,0,0,0,0,,,,,0,28,28,10,,,,,,up,0.8172906577767662,1559.0919060105812,None,001,49,2019_Oct_22_1203,ACPT_experiment_5_30_19,3.1.0,59.943889247759955,
,,,C,G,d,b,L,U,y,L,u,,,,,5,19,119,3,0,0,0,0,,,,,0,29,29,24,,,,,,down,0.6003463492513674,1561.1935021934346,None,001,49,2019_Oct_22_1203,ACPT_experiment_5_30_19,3.1.0,59.943889247759955,
,,,C,G,d,b,R,D,y,R,y,,,,,5,19,119,3,0,0,0,0,,,,,0,30,30,27,,,,,,down,0.4170025063081084,1563.0782560949951,None,001,49,2019_Oct_22_1203,ACPT_experiment_5_30_19,3.1.0,59.943889247759955,
,,,C,G,d,b,L,G,y,R,y,,,,,5,19,119,3,0,0,0,0,,,,,0,31,31,35,,,,,,down,0.5504067354877407,1564.7795762006085,None,001,49,2019_Oct_22_1203,ACPT_experiment_5_30_19,3.1.0,59.943889247759955,
,,,C,G,d,b,R,G,g,L,c ,,,,,5,19,119,3,0,0,0,0,,,,,0,32,32,6,,,,,,up,0.5670927158896575,1566.6143041576702,None,001,49,2019_Oct_22_1203,ACPT_experiment_5_30_19,3.1.0,59.943889247759955,
,,,C,G,d,b,R,G,g,R,c ,,,,,5,19,119,3,0,0,0,0,,,,,0,33,33,7,,,,,,up,0.5003826021229543,1568.465709945029,None,001,49,2019_Oct_22_1203,ACPT_experiment_5_30_19,3.1.0,59.943889247759955,
,,,C,G,d,b,R,U,y,R,u,,,,,5,19,119,3,0,0,0,0,,,,,0,34,34,31,,,,,,down,0.7669658761167284,1570.2673723248415,None,001,49,2019_Oct_22_1203,ACPT_experiment_5_30_19,3.1.0,59.943889247759955,
,,,C,G,d,b,L,D,y,L,y,,,,,5,19,119,3,0,0,0,0,,,,,0,35,35,32,,,,,,down,0.6171361680201244,1572.3186521779946,None,001,49,2019_Oct_22_1203,ACPT_experiment_5_30_19,3.1.0,59.943889247759955,
,,,C,G,d,b,L,G,g,L,c ,,,,,5,19,119,3,0,0,0,0,,,,,1,0,36,18,,,,,,up,0.7672731652378388,1574.2200784764498,None,001,49,2019_Oct_22_1203,ACPT_experiment_5_30_19,3.1.0,59.943889247759955,
,,,C,G,d,b,L,G,d,R,i,,,,,5,19,119,3,0,0,0,0,,,,,1,1,37,17,,,,,,up,0.5003995060433226,1576.2716438851126,None,001,49,2019_Oct_22_1203,ACPT_experiment_5_30_19,3.1.0,59.943889247759955,
,,,C,G,d,b,R,G,y,L,y,,,,,5,19,119,3,0,0,0,0,,,,,1,2,38,28,,,,,,down,0.7172088850625187,1578.0730361040569,None,001,49,2019_Oct_22_1203,ACPT_experiment_5_30_19,3.1.0,59.943889247759955,
,,,C,G,d,b,R,U,y,L,u,,,,,5,19,119,3,0,0,0,0,,,,,1,3,39,30,,,,,,down,0.6338040370787894,1580.0912482669708,None,001,49,2019_Oct_22_1203,ACPT_experiment_5_30_19,3.1.0,59.943889247759955,
,,,C,G,d,b,R,U,d,R,u,,,,,5,19,119,3,0,0,0,0,,,,,1,4,40,9,,,,,,up,0.6171307346171488,1582.009374129335,None,001,49,2019_Oct_22_1203,ACPT_experiment_5_30_19,3.1.0,59.943889247759955,
,,,C,G,d,b,R,G,g,L,c ,,,,,5,19,119,3,0,0,0,0,,,,,1,5,41,6,,,,,,up,0.6338133946060225,1583.910823972536,None,001,49,2019_Oct_22_1203,ACPT_experiment_5_30_19,3.1.0,59.943889247759955,
,,,C,G,d,b,R,D,y,R,y,,,,,5,19,119,3,0,0,0,0,,,,,1,6,42,27,,,,,,down,0.7839301674905528,1585.8289528534572,None,001,49,2019_Oct_22_1203,ACPT_experiment_5_30_19,3.1.0,59.943889247759955,
,,,C,G,d,b,R,U,d,L,u,,,,,5,19,119,3,0,0,0,0,,,,,1,7,43,8,,,,,,up,2.0849201636904127,1587.8971960924173,None,001,49,2019_Oct_22_1203,ACPT_experiment_5_30_19,3.1.0,59.943889247759955,
,,,C,G,d,b,R,U,y,R,u,,,,,5,19,119,3,0,0,0,0,,,,,1,8,44,31,,,,,,down,0.450335527723837,1591.266427214587,None,001,49,2019_Oct_22_1203,ACPT_experiment_5_30_19,3.1.0,59.943889247759955,
,,,C,G,d,b,L,G,g,R,c ,,,,,5,19,119,3,0,0,0,0,,,,,1,9,45,19,,,,,,up,0.6838480929209254,1593.0010875861533,None,001,49,2019_Oct_22_1203,ACPT_experiment_5_30_19,3.1.0,59.943889247759955,
,,,C,G,d,b,L,U,g,R,u,,,,,5,19,119,3,0,0,0,0,,,,,1,10,46,23,,,,,,up,0.6004607525687788,1594.9692466375536,None,001,49,2019_Oct_22_1203,ACPT_experiment_5_30_19,3.1.0,59.943889247759955,
,,,C,G,d,b,R,D,d,L,c,,,,,5,19,119,3,0,0,0,0,,,,,1,11,47,0,,,,,,up,0.5835028001645242,1596.8709714713143,None,001,49,2019_Oct_22_1203,ACPT_experiment_5_30_19,3.1.0,59.943889247759955,
,,,C,G,d,b,L,U,g,L,u,,,,,5,19,119,3,0,0,0,0,,,,,1,12,48,22,,,,,,up,0.6504897156246443,1598.7387921726397,None,001,49,2019_Oct_22_1203,ACPT_experiment_5_30_19,3.1.0,59.943889247759955,
,,,C,G,d,b,L,U,d,L,u,,,,,5,19,119,3,0,0,0,0,,,,,1,13,49,20,,,,,,up,0.45033764071376936,1600.6735976764355,None,001,49,2019_Oct_22_1203,ACPT_experiment_5_30_19,3.1.0,59.943889247759955,
,,,C,G,d,b,L,U,d,R,u,,,,,5,19,119,3,0,0,0,0,,,,,1,14,50,21,,,,,,up,0.6673082106867696,1602.3914307991238,None,001,49,2019_Oct_22_1203,ACPT_experiment_5_30_19,3.1.0,59.943889247759955,
,,,C,G,d,b,L,G,d,L,i,,,,,5,19,119,3,0,0,0,0,,,,,1,15,51,16,,,,,,up,0.5337331311704929,1604.3430644573646,None,001,49,2019_Oct_22_1203,ACPT_experiment_5_30_19,3.1.0,59.943889247759955,
,,,C,G,d,b,L,D,y,R,y,,,,,5,19,119,3,0,0,0,0,,,,,1,16,52,33,,,,,,down,0.6671889776780517,1606.1611148859845,None,001,49,2019_Oct_22_1203,ACPT_experiment_5_30_19,3.1.0,59.943889247759955,
,,,C,G,d,b,R,U,g,L,u,,,,,5,19,119,3,0,0,0,0,,,,,1,17,53,10,,,,,,up,0.800629127688353,1608.112598823789,None,001,49,2019_Oct_22_1203,ACPT_experiment_5_30_19,3.1.0,59.943889247759955,
,,,C,G,d,b,R,G,g,R,c ,,,,,5,19,119,3,0,0,0,0,,,,,1,18,54,7,,,,,,down,0.5167896678410671,1610.2144721101918,None,001,49,2019_Oct_22_1203,ACPT_experiment_5_30_19,3.1.0,59.943889247759955,
,,,C,G,d,b,L,D,y,L,y,,,,,5,19,119,3,0,0,0,0,,,,,1,19,55,32,,,,,,down,0.800611620056543,1612.0155775662038,None,001,49,2019_Oct_22_1203,ACPT_experiment_5_30_19,3.1.0,59.943889247759955,
,,,C,G,d,b,R,D,d,R,c ,,,,,5,19,119,3,0,0,0,0,,,,,1,20,56,1,,,,,,up,0.5671044882624301,1614.1005209727844,None,001,49,2019_Oct_22_1203,ACPT_experiment_5_30_19,3.1.0,59.943889247759955,
,,,C,G,d,b,R,D,g,L,i,,,,,5,19,119,3,0,0,0,0,,,,,1,21,57,2,,,,,,up,0.6004435467925759,1615.9352437982989,None,001,49,2019_Oct_22_1203,ACPT_experiment_5_30_19,3.1.0,59.943889247759955,
,,,C,G,d,b,R,U,g,R,u,,,,,5,19,119,3,0,0,0,0,,,,,1,22,58,11,,,,,,up,0.5837750740224692,1617.8199995109937,None,001,49,2019_Oct_22_1203,ACPT_experiment_5_30_19,3.1.0,59.943889247759955,
,,,C,G,d,b,L,D,g,R,i,,,,,5,19,119,3,0,0,0,0,,,,,1,23,59,15,,,,,,up,0.6671720737576834,1619.6714122410342,None,001,49,2019_Oct_22_1203,ACPT_experiment_5_30_19,3.1.0,59.943889247759955,
,,,C,G,d,b,R,G,d,R,i,,,,,5,19,119,3,0,0,0,0,,,,,1,24,60,5,,,,,,up,0.7672263776014461,1621.6229145920374,None,001,49,2019_Oct_22_1203,ACPT_experiment_5_30_19,3.1.0,59.943889247759955,
,,,C,G,d,b,R,G,y,R,y,,,,,5,19,119,3,0,0,0,0,,,,,1,25,61,29,,,,,,down,0.7005334696111731,1623.6744582670885,None,001,49,2019_Oct_22_1203,ACPT_experiment_5_30_19,3.1.0,59.943889247759955,
,,,C,G,d,b,R,G,d,L,i,,,,,5,19,119,3,0,0,0,0,,,,,1,26,62,4,,,,,,up,0.6338106779046484,1625.6593126564178,None,001,49,2019_Oct_22_1203,ACPT_experiment_5_30_19,3.1.0,59.943889247759955,
,,,C,G,d,b,L,D,g,L,i,,,,,5,19,119,3,0,0,0,0,,,,,1,27,63,14,,,,,,up,0.6004773546330853,1627.5774128610458,None,001,49,2019_Oct_22_1203,ACPT_experiment_5_30_19,3.1.0,59.943889247759955,
,,,C,G,d,b,L,D,d,L,c ,,,,,5,19,119,3,0,0,0,0,,,,,1,28,64,12,,,,,,up,0.6335486671409853,1629.4791539950152,None,001,49,2019_Oct_22_1203,ACPT_experiment_5_30_19,3.1.0,59.943889247759955,
,,,C,G,d,b,L,D,d,R,c ,,,,,5,19,119,3,0,0,0,0,,,,,1,29,65,13,,,,,,up,0.6004538098870853,1631.39701965775,None,001,49,2019_Oct_22_1203,ACPT_experiment_5_30_19,3.1.0,59.943889247759955,
,,,C,G,d,b,L,G,y,R,y,,,,,5,19,119,3,0,0,0,0,,,,,1,30,66,35,,,,,,up,0.4169819801190897,1633.2817841242606,None,001,49,2019_Oct_22_1203,ACPT_experiment_5_30_19,3.1.0,59.943889247759955,
,,,C,G,d,b,L,U,y,L,u,,,,,5,19,119,3,0,0,0,0,,,,,1,31,67,24,,,,,,down,0.5837901668085124,1634.9830800814166,None,001,49,2019_Oct_22_1203,ACPT_experiment_5_30_19,3.1.0,59.943889247759955,
,,,C,G,d,b,L,U,y,R,u,,,,,5,19,119,3,0,0,0,0,,,,,1,32,68,25,,,,,,down,0.5338695699551863,1636.8344662481538,None,001,49,2019_Oct_22_1203,ACPT_experiment_5_30_19,3.1.0,59.943889247759955,
,,,C,G,d,b,R,D,y,L,y,,,,,5,19,119,3,0,0,0,0,,,,,1,33,69,26,,,,,,down,0.5170396043756682,1638.6525565217287,None,001,49,2019_Oct_22_1203,ACPT_experiment_5_30_19,3.1.0,59.943889247759955,
,,,C,G,d,b,L,G,y,L,y,,,,,5,19,119,3,0,0,0,0,,,,,1,34,70,34,,,,,,down,0.5170764307733862,1640.453917649534,None,001,49,2019_Oct_22_1203,ACPT_experiment_5_30_19,3.1.0,59.943889247759955,
,,,C,G,d,b,R,D,g,R,i,,,,,5,19,119,3,0,0,0,0,,,,,1,35,71,3,,,,,,up,0.7501108565127197,1642.2724030522443,None,001,49,2019_Oct_22_1203,ACPT_experiment_5_30_19,3.1.0,59.943889247759955,
,,,C,G,d,b,,,,,,,,,,5,19,119,3,1,0,1,0,0,0,0,0,,,,,,,,,,,,,,001,49,2019_Oct_22_1203,ACPT_experiment_5_30_19,3.1.0,59.943889247759955,
,,,C,G,d,b,L,D,y,R,y,,,,,5,19,119,3,1,0,1,0,,,,,0,0,0,33,,,,,,down,0.8003719466162238,1650.6285771034588,None,001,49,2019_Oct_22_1203,ACPT_experiment_5_30_19,3.1.0,59.943889247759955,
,,,C,G,d,b,R,D,g,L,i,,,,,5,19,119,3,1,0,1,0,,,,,0,1,1,2,,,,,,up,0.6171373754430078,1652.713252160306,None,001,49,2019_Oct_22_1203,ACPT_experiment_5_30_19,3.1.0,59.943889247759955,
,,,C,G,d,b,L,D,d,L,c ,,,,,5,19,119,3,1,0,1,0,,,,,0,2,2,12,,,,,,up,1.2009365979229187,1654.6147216241286,None,001,49,2019_Oct_22_1203,ACPT_experiment_5_30_19,3.1.0,59.943889247759955,
,,,C,G,d,b,R,D,y,L,y,,,,,5,19,119,3,1,0,1,0,,,,,0,3,3,26,,,,,,down,0.7505518677171494,1657.0999495599094,None,001,49,2019_Oct_22_1203,ACPT_experiment_5_30_19,3.1.0,59.943889247759955,
,,,C,G,d,b,L,G,y,L,y,,,,,5,19,119,3,1,0,1,0,,,,,0,4,4,34,,,,,,down,0.7505554899857998,1659.134829591882,None,001,49,2019_Oct_22_1203,ACPT_experiment_5_30_19,3.1.0,59.943889247759955,
,,,C,G,d,b,R,U,d,R,u,,,,,5,19,119,3,1,0,1,0,,,,,0,5,5,9,,,,,,up,0.7337222039936933,1661.1698614572808,None,001,49,2019_Oct_22_1203,ACPT_experiment_5_30_19,3.1.0,59.943889247759955,
,,,C,G,d,b,L,U,y,L,u,,,,,5,19,119,3,1,0,1,0,,,,,0,6,6,24,,,,,,down,0.7172351465101201,1663.1878867715052,None,001,49,2019_Oct_22_1203,ACPT_experiment_5_30_19,3.1.0,59.943889247759955,
,,,C,G,d,b,R,U,y,L,u,,,,,5,19,119,3,1,0,1,0,,,,,0,7,7,30,,,,,,down,0.5837720554652606,1665.1894371024748,None,001,49,2019_Oct_22_1203,ACPT_experiment_5_30_19,3.1.0,59.943889247759955,
,,,C,G,d,b,R,U,y,R,u,,,,,5,19,119,3,1,0,1,0,,,,,0,8,8,31,,,,,,down,0.6304787944848158,1667.077542206221,None,001,49,2019_Oct_22_1203,ACPT_experiment_5_30_19,3.1.0,59.943889247759955,
,,,C,G,d,b,R,G,d,R,i,,,,,5,19,119,3,1,0,1,0,,,,,0,9,9,5,,,,,,up,0.6838450743637168,1668.9923425241357,None,001,49,2019_Oct_22_1203,ACPT_experiment_5_30_19,3.1.0,59.943889247759955,
,,,C,G,d,b,R,D,g,R,i,,,,,5,19,119,3,1,0,1,0,,,,,0,10,10,3,,,,,,up,0.6004583377230119,1670.9604994625458,None,001,49,2019_Oct_22_1203,ACPT_experiment_5_30_19,3.1.0,59.943889247759955,
,,,C,G,d,b,L,G,d,R,i,,,,,5,19,119,3,1,0,1,0,,,,,0,11,11,17,,,,,,up,0.6004565265884594,1672.845272079161,None,001,49,2019_Oct_22_1203,ACPT_experiment_5_30_19,3.1.0,59.943889247759955,
,,,C,G,d,b,R,D,d,L,c,,,,,5,19,119,3,1,0,1,0,,,,,0,12,12,0,,,,,,up,0.7005244139395472,1674.730051336602,None,001,49,2019_Oct_22_1203,ACPT_experiment_5_30_19,3.1.0,59.943889247759955,
,,,C,G,d,b,L,U,d,R,u,,,,,5,19,119,3,1,0,1,0,,,,,0,13,13,21,,,,,,up,0.6004302651410853,1676.7149036129413,None,001,49,2019_Oct_22_1203,ACPT_experiment_5_30_19,3.1.0,59.943889247759955,
,,,C,G,d,b,L,G,d,L,i,,,,,5,19,119,3,1,0,1,0,,,,,0,14,14,16,,,,,,up,0.5004049394460708,1678.5829504042,None,001,49,2019_Oct_22_1203,ACPT_experiment_5_30_19,3.1.0,59.943889247759955,
,,,C,G,d,b,L,G,g,L,c ,,,,,5,19,119,3,1,0,1,0,,,,,0,15,15,18,,,,,,up,0.6669049314471067,1680.3679400852623,None,001,49,2019_Oct_22_1203,ACPT_experiment_5_30_19,3.1.0,59.943889247759955,
,,,C,G,d,b,R,U,g,R,u,,,,,5,19,119,3,1,0,1,0,,,,,0,16,16,11,,,,,,up,0.4837038662587929,1682.3024727114885,None,001,49,2019_Oct_22_1203,ACPT_experiment_5_30_19,3.1.0,59.943889247759955,
,,,C,G,d,b,R,G,g,L,c ,,,,,5,19,119,3,1,0,1,0,,,,,0,17,17,6,,,,,,up,0.6004335855539011,1684.0705044401466,None,001,49,2019_Oct_22_1203,ACPT_experiment_5_30_19,3.1.0,59.943889247759955,
,,,C,G,d,b,R,G,y,R,y,,,,,5,19,119,3,1,0,1,0,,,,,0,18,18,29,,,,,,down,0.7338812819571103,1685.9552652843888,None,001,49,2019_Oct_22_1203,ACPT_experiment_5_30_19,3.1.0,59.943889247759955,
,,,C,G,d,b,L,U,g,R,u,,,,,5,19,119,3,1,0,1,0,,,,,0,19,19,23,,,,,,up,0.7839383175951298,1687.9734668823526,None,001,49,2019_Oct_22_1203,ACPT_experiment_5_30_19,3.1.0,59.943889247759955,
,,,C,G,d,b,R,D,d,R,c ,,,,,5,19,119,3,1,0,1,0,,,,,0,20,20,1,,,,,,up,0.7005283380640321,1690.04171102688,None,001,49,2019_Oct_22_1203,ACPT_experiment_5_30_19,3.1.0,59.943889247759955,
,,,C,G,d,b,L,U,d,L,u,,,,,5,19,119,3,1,0,1,0,,,,,0,21,21,20,,,,,,up,0.48371443120868207,1692.0265376454831,None,001,49,2019_Oct_22_1203,ACPT_experiment_5_30_19,3.1.0,59.943889247759955,
,,,C,G,d,b,R,U,d,L,u,,,,,5,19,119,3,1,0,1,0,,,,,0,22,22,8,,,,,,up,1.0174379029961074,1693.7945736001216,None,001,49,2019_Oct_22_1203,ACPT_experiment_5_30_19,3.1.0,59.943889247759955,
,,,C,G,d,b,L,D,y,L,y,,,,,5,19,119,3,1,0,1,0,,,,,0,23,23,32,,,,,,down,0.7172079794954698,1696.0963266875772,None,001,49,2019_Oct_22_1203,ACPT_experiment_5_30_19,3.1.0,59.943889247759955,
,,,C,G,d,b,L,D,g,L,i,,,,,5,19,119,3,1,0,1,0,,,,,0,24,24,14,,,,,,up,0.733887922782742,1698.097854379368,None,001,49,2019_Oct_22_1203,ACPT_experiment_5_30_19,3.1.0,59.943889247759955,
,,,C,G,d,b,L,U,y,R,u,,,,,5,19,119,3,1,0,1,0,,,,,0,25,25,25,,,,,,down,0.8173105802541158,1700.1160499402174,None,001,49,2019_Oct_22_1203,ACPT_experiment_5_30_19,3.1.0,59.943889247759955,
,,,C,G,d,b,R,U,g,L,u,,,,,5,19,119,3,1,0,1,0,,,,,0,26,26,10,,,,,,up,0.8339636583825722,1702.2176572917324,None,001,49,2019_Oct_22_1203,ACPT_experiment_5_30_19,3.1.0,59.943889247759955,
,,,C,G,d,b,L,G,g,R,c ,,,,,5,19,119,3,1,0,1,0,,,,,0,27,27,19,,,,,,up,0.7338891302056254,1704.335938851276,None,001,49,2019_Oct_22_1203,ACPT_experiment_5_30_19,3.1.0,59.943889247759955,
,,,C,G,d,b,R,D,y,R,y,,,,,5,19,119,3,1,0,1,0,,,,,0,28,28,27,,,,,,down,0.7505817514331738,1706.3541537308913,None,001,49,2019_Oct_22_1203,ACPT_experiment_5_30_19,3.1.0,59.943889247759955,
,,,C,G,d,b,L,G,y,R,y,,,,,5,19,119,3,1,0,1,0,,,,,0,29,29,35,,,,,,down,0.8840037901004507,1708.389029536884,None,001,49,2019_Oct_22_1203,ACPT_experiment_5_30_19,3.1.0,59.943889247759955,
,,,C,G,d,b,L,D,g,R,i,,,,,5,19,119,3,1,0,1,0,,,,,0,30,30,15,,,,,,up,0.5670924140338229,1710.5573442854638,None,001,49,2019_Oct_22_1203,ACPT_experiment_5_30_19,3.1.0,59.943889247759955,
,,,C,G,d,b,R,G,y,L,y,,,,,5,19,119,3,1,0,1,0,,,,,0,31,31,28,,,,,,down,0.6171388847214985,1712.408751883957,None,001,49,2019_Oct_22_1203,ACPT_experiment_5_30_19,3.1.0,59.943889247759955,
,,,C,G,d,b,L,U,g,L,u,,,,,5,19,119,3,1,0,1,0,,,,,0,32,32,22,,,,,,up,0.7338900357729017,1714.3102044438594,None,001,49,2019_Oct_22_1203,ACPT_experiment_5_30_19,3.1.0,59.943889247759955,
,,,C,G,d,b,L,D,d,R,c ,,,,,5,19,119,3,1,0,1,0,,,,,0,33,33,13,,,,,,up,0.5504197152836241,1716.328407249246,None,001,49,2019_Oct_22_1203,ACPT_experiment_5_30_19,3.1.0,59.943889247759955,
,,,C,G,d,b,R,G,d,L,i,,,,,5,19,119,3,1,0,1,0,,,,,0,34,34,4,,,,,,up,0.7668846769283846,1718.180180998726,None,001,49,2019_Oct_22_1203,ACPT_experiment_5_30_19,3.1.0,59.943889247759955,
,,,C,G,d,b,R,G,g,R,c ,,,,,5,19,119,3,1,0,1,0,,,,,0,35,35,7,,,,,,up,0.8339950513773147,1720.2146791832147,None,001,49,2019_Oct_22_1203,ACPT_experiment_5_30_19,3.1.0,59.943889247759955,
,,,C,G,d,b,R,D,d,L,c,,,,,5,19,119,3,1,0,1,0,,,,,1,0,36,0,,,,,,up,0.5670830565065899,1722.3329981728673,None,001,49,2019_Oct_22_1203,ACPT_experiment_5_30_19,3.1.0,59.943889247759955,
,,,C,G,d,b,L,D,y,R,y,,,,,5,19,119,3,1,0,1,0,,,,,1,1,37,33,,,,,,up,0.483694810587167,1724.1844060732162,None,001,49,2019_Oct_22_1203,ACPT_experiment_5_30_19,3.1.0,59.943889247759955,
,,,C,G,d,b,L,D,d,L,c ,,,,,5,19,119,3,1,0,1,0,,,,,1,2,38,12,,,,,,up,1.4678039181476379,1725.9357137876525,None,001,49,2019_Oct_22_1203,ACPT_experiment_5_30_19,3.1.0,59.943889247759955,
,,,C,G,d,b,R,D,y,R,y,,,,,5,19,119,3,1,0,1,0,,,,,1,3,39,27,,,,,,down,0.8339905235416154,1728.687807836235,None,001,49,2019_Oct_22_1203,ACPT_experiment_5_30_19,3.1.0,59.943889247759955,
,,,C,G,d,b,R,G,d,R,i,,,,,5,19,119,3,1,0,1,0,,,,,1,4,40,5,,,,,,up,0.68383662240376,1730.8061259203203,None,001,49,2019_Oct_22_1203,ACPT_experiment_5_30_19,3.1.0,59.943889247759955,
,,,C,G,d,b,L,U,d,R,u,,,,,5,19,119,3,1,0,1,0,,,,,1,5,41,21,,,,,,down,0.6004541117426925,1732.7742804438847,None,001,49,2019_Oct_22_1203,ACPT_experiment_5_30_19,3.1.0,59.943889247759955,
,,,C,G,d,b,L,G,d,R,i,,,,,5,19,119,3,1,0,1,0,,,,,1,6,42,17,,,,,,up,0.8670708917211414,1734.675976903208,None,001,49,2019_Oct_22_1203,ACPT_experiment_5_30_19,3.1.0,59.943889247759955,
,,,C,G,d,b,L,G,g,L,c ,,,,,5,19,119,3,1,0,1,0,,,,,1,7,43,18,,,,,,up,0.5504571453930112,1736.8106664340364,None,001,49,2019_Oct_22_1203,ACPT_experiment_5_30_19,3.1.0,59.943889247759955,
,,,C,G,d,b,R,D,y,L,y,,,,,5,19,119,3,1,0,1,0,,,,,1,8,44,26,,,,,,down,0.6838707320998765,1738.6454001263567,None,001,49,2019_Oct_22_1203,ACPT_experiment_5_30_19,3.1.0,59.943889247759955,
,,,C,G,d,b,L,G,g,R,c ,,,,,5,19,119,3,1,0,1,0,,,,,1,9,45,19,,,,,,up,1.0174385067080038,1740.6135845336373,None,001,49,2019_Oct_22_1203,ACPT_experiment_5_30_19,3.1.0,59.943889247759955,
,,,C,G,d,b,R,G,y,R,y,,,,,5,19,119,3,1,0,1,0,,,,,1,10,46,29,,,,,,down,0.7338710188628284,1742.932032959022,None,001,49,2019_Oct_22_1203,ACPT_experiment_5_30_19,3.1.0,59.943889247759955,
,,,C,G,d,b,R,U,g,L,u,,,,,5,19,119,3,1,0,1,0,,,,,1,11,47,10,,,,,,up,0.7839229229534794,1744.966908161303,None,001,49,2019_Oct_22_1203,ACPT_experiment_5_30_19,3.1.0,59.943889247759955,
,,,C,G,d,b,L,D,g,R,i,,,,,5,19,119,3,1,0,1,0,,,,,1,12,48,15,,,,,,up,0.6338103760485865,1747.018470551409,None,001,49,2019_Oct_22_1203,ACPT_experiment_5_30_19,3.1.0,59.943889247759955,
,,,C,G,d,b,L,G,y,R,y,,,,,5,19,119,3,1,0,1,0,,,,,1,13,49,35,,,,,,down,0.6004737323646623,1748.93660154532,None,001,49,2019_Oct_22_1203,ACPT_experiment_5_30_19,3.1.0,59.943889247759955,
,,,C,G,d,b,R,G,y,L,y,,,,,5,19,119,3,1,0,1,0,,,,,1,14,50,28,,,,,,down,0.7338966765987607,1750.8213599747166,None,001,49,2019_Oct_22_1203,ACPT_experiment_5_30_19,3.1.0,59.943889247759955,
,,,C,G,d,b,L,G,d,L,i,,,,,5,19,119,3,1,0,1,0,,,,,1,15,51,16,,,,,,up,0.6671150230267813,1752.8396011157795,None,001,49,2019_Oct_22_1203,ACPT_experiment_5_30_19,3.1.0,59.943889247759955,
,,,C,G,d,b,R,U,d,L,u,,,,,5,19,119,3,1,0,1,0,,,,,1,16,52,8,,,,,,up,0.6505011861422645,1754.7910557735793,None,001,49,2019_Oct_22_1203,ACPT_experiment_5_30_19,3.1.0,59.943889247759955,
,,,C,G,d,b,L,U,y,R,u,,,,,5,19,119,3,1,0,1,0,,,,,1,17,53,25,,,,,,down,0.6505147696493623,1756.7258661070666,None,001,49,2019_Oct_22_1203,ACPT_experiment_5_30_19,3.1.0,59.943889247759955,
,,,C,G,d,b,L,D,d,R,c ,,,,,5,19,119,3,1,0,1,0,,,,,1,18,54,13,,,,,,up,0.6505023935646932,1758.6606731201407,None,001,49,2019_Oct_22_1203,ACPT_experiment_5_30_19,3.1.0,59.943889247759955,
,,,C,G,d,b,R,U,g,R,u,,,,,5,19,119,3,1,0,1,0,,,,,1,19,55,11,,,,,,up,0.8172803946822569,1760.5954822462052,None,001,49,2019_Oct_22_1203,ACPT_experiment_5_30_19,3.1.0,59.943889247759955,
,,,C,G,d,b,R,D,d,R,c ,,,,,5,19,119,3,1,0,1,0,,,,,1,20,56,1,,,,,,up,0.5670824527951481,1762.6970917107099,None,001,49,2019_Oct_22_1203,ACPT_experiment_5_30_19,3.1.0,59.943889247759955,
,,,C,G,d,b,R,G,g,R,c ,,,,,5,19,119,3,1,0,1,0,,,,,1,21,57,7,,,,,,up,0.5670993567150617,1764.5484899516757,None,001,49,2019_Oct_22_1203,ACPT_experiment_5_30_19,3.1.0,59.943889247759955,
,,,C,G,d,b,R,U,d,R,u,,,,,5,19,119,3,1,0,1,0,,,,,1,22,58,9,,,,,,up,0.5671059975406934,1766.3999023798608,None,001,49,2019_Oct_22_1203,ACPT_experiment_5_30_19,3.1.0,59.943889247759955,
,,,C,G,d,b,R,D,g,R,i,,,,,5,19,119,3,1,0,1,0,,,,,1,23,59,3,,,,,,up,0.6504073090136444,1768.2513229581498,None,001,49,2019_Oct_22_1203,ACPT_experiment_5_30_19,3.1.0,59.943889247759955,
,,,C,G,d,b,R,G,g,L,c ,,,,,5,19,119,3,1,0,1,0,,,,,1,24,60,6,,,,,,up,0.9006927890591214,1770.1861181988509,None,001,49,2019_Oct_22_1203,ACPT_experiment_5_30_19,3.1.0,59.943889247759955,
,,,C,G,d,b,R,U,y,L,u,,,,,5,19,119,3,1,0,1,0,,,,,1,25,61,30,,,,,,down,0.766959537146704,1772.3880838229181,None,001,49,2019_Oct_22_1203,ACPT_experiment_5_30_19,3.1.0,59.943889247759955,
,,,C,G,d,b,L,D,y,L,y,,,,,5,19,119,3,1,0,1,0,,,,,1,26,62,32,,,,,,down,0.6502992446662574,1774.4561981694867,None,001,49,2019_Oct_22_1203,ACPT_experiment_5_30_19,3.1.0,59.943889247759955,
,,,C,G,d,b,L,U,y,L,u,,,,,5,19,119,3,1,0,1,0,,,,,1,27,63,24,,,,,,down,0.5504387321939248,1776.4075323868549,None,001,49,2019_Oct_22_1203,ACPT_experiment_5_30_19,3.1.0,59.943889247759955,
,,,C,G,d,b,L,G,y,L,y,,,,,5,19,119,3,1,0,1,0,,,,,1,28,64,34,,,,,,down,0.5337349423048181,1778.2422618531948,None,001,49,2019_Oct_22_1203,ACPT_experiment_5_30_19,3.1.0,59.943889247759955,
,,,C,G,d,b,R,U,y,R,u,,,,,5,19,119,3,1,0,1,0,,,,,1,29,65,31,,,,,,down,0.733901808146129,1780.0602999057303,None,001,49,2019_Oct_22_1203,ACPT_experiment_5_30_19,3.1.0,59.943889247759955,
,,,C,G,d,b,L,U,g,R,u,,,,,5,19,119,3,1,0,1,0,,,,,1,30,66,23,,,,,,up,0.8173274841747116,1782.0785205206046,None,001,49,2019_Oct_22_1203,ACPT_experiment_5_30_19,3.1.0,59.943889247759955,
,,,C,G,d,b,L,U,g,L,u,,,,,5,19,119,3,1,0,1,0,,,,,1,31,67,22,,,,,,up,0.884030353403432,1784.1634222710961,None,001,49,2019_Oct_22_1203,ACPT_experiment_5_30_19,3.1.0,59.943889247759955,
,,,C,G,d,b,L,D,g,L,i,,,,,5,19,119,3,1,0,1,0,,,,,1,32,68,14,,,,,,up,0.5504345062136053,1786.3317587532877,None,001,49,2019_Oct_22_1203,ACPT_experiment_5_30_19,3.1.0,59.943889247759955,
,,,C,G,d,b,R,D,g,L,i,,,,,5,19,119,3,1,0,1,0,,,,,1,33,69,2,,,,,,up,0.6004830898914406,1788.1664646748816,None,001,49,2019_Oct_22_1203,ACPT_experiment_5_30_19,3.1.0,59.943889247759955,
,,,C,G,d,b,R,G,d,L,i,,,,,5,19,119,3,1,0,1,0,,,,,1,34,70,4,,,,,,up,0.6004855047376623,1790.0512753253176,None,001,49,2019_Oct_22_1203,ACPT_experiment_5_30_19,3.1.0,59.943889247759955,
,,,C,G,d,b,L,U,d,L,u,,,,,5,19,119,3,1,0,1,0,,,,,1,35,71,20,,,,,,up,0.5671066012528172,1791.9360210767738,None,001,49,2019_Oct_22_1203,ACPT_experiment_5_30_19,3.1.0,59.943889247759955,
,,,C,G,d,b,,,,,,,,,,5,19,119,3,2,0,2,0,0,0,0,0,,,,,,,,,,,,,,001,49,2019_Oct_22_1203,ACPT_experiment_5_30_19,3.1.0,59.943889247759955,
,,,C,G,d,b,L,U,d,R,u,,,,,5,19,119,3,2,0,2,0,,,,,0,0,0,21,,,,,,up,0.7471188626318508,1814.6734745193023,None,001,49,2019_Oct_22_1203,ACPT_experiment_5_30_19,3.1.0,59.943889247759955,
,,,C,G,d,b,R,G,y,R,y,,,,,5,19,119,3,2,0,2,0,,,,,0,1,1,29,,,,,,down,0.7005624477601486,1816.7048871346376,None,001,49,2019_Oct_22_1203,ACPT_experiment_5_30_19,3.1.0,59.943889247759955,
,,,C,G,d,b,R,U,y,R,u,,,,,5,19,119,3,2,0,2,0,,,,,0,2,2,31,,,,,,down,0.5337346404489836,1818.6897569186087,None,001,49,2019_Oct_22_1203,ACPT_experiment_5_30_19,3.1.0,59.943889247759955,
,,,C,G,d,b,L,D,g,R,i,,,,,5,19,119,3,2,0,2,0,,,,,0,3,3,15,,,,,,up,0.6504951490278472,1820.5078031212486,None,001,49,2019_Oct_22_1203,ACPT_experiment_5_30_19,3.1.0,59.943889247759955,
,,,C,G,d,b,L,D,d,L,c ,,,,,5,19,119,3,2,0,2,0,,,,,0,4,4,12,,,,,,up,0.90085458372414,1822.425910268558,None,001,49,2019_Oct_22_1203,ACPT_experiment_5_30_19,3.1.0,59.943889247759955,
,,,C,G,d,b,R,D,g,L,i,,,,,5,19,119,3,2,0,2,0,,,,,0,5,5,2,,,,,,up,0.8506541666201883,1824.6109300144497,None,001,49,2019_Oct_22_1203,ACPT_experiment_5_30_19,3.1.0,59.943889247759955,
,,,C,G,d,b,L,U,y,R,u,,,,,5,19,119,3,2,0,2,0,,,,,0,6,6,25,,,,,,down,0.8339591305466456,1826.7458993655293,None,001,49,2019_Oct_22_1203,ACPT_experiment_5_30_19,3.1.0,59.943889247759955,
,,,C,G,d,b,L,U,d,L,u,,,,,5,19,119,3,2,0,2,0,,,,,0,7,7,20,,,,,,up,0.8673766715637612,1828.8641712656902,None,001,49,2019_Oct_22_1203,ACPT_experiment_5_30_19,3.1.0,59.943889247759955,
,,,C,G,d,b,R,U,d,L,u,,,,,5,19,119,3,2,0,2,0,,,,,0,8,8,8,,,,,,up,0.6338046407904585,1830.9991448427497,None,001,49,2019_Oct_22_1203,ACPT_experiment_5_30_19,3.1.0,59.943889247759955,
,,,C,G,d,b,L,D,g,L,i,,,,,5,19,119,3,2,0,2,0,,,,,0,9,9,14,,,,,,up,0.817291261488208,1832.917264064288,None,001,49,2019_Oct_22_1203,ACPT_experiment_5_30_19,3.1.0,59.943889247759955,
,,,C,G,d,b,R,D,d,R,c ,,,,,5,19,119,3,2,0,2,0,,,,,0,10,10,1,,,,,,up,0.9340508645000227,1835.0188765473501,None,001,49,2019_Oct_22_1203,ACPT_experiment_5_30_19,3.1.0,59.943889247759955,
,,,C,G,d,b,R,U,g,L,u,,,,,5,19,119,3,2,0,2,0,,,,,0,11,11,10,,,,,,up,0.7005304510539645,1837.2372259942447,None,001,49,2019_Oct_22_1203,ACPT_experiment_5_30_19,3.1.0,59.943889247759955,
,,,C,G,d,b,R,D,y,R,y,,,,,5,19,119,3,2,0,2,0,,,,,0,12,12,27,,,,,,down,0.8172752631353433,1839.2220655926437,None,001,49,2019_Oct_22_1203,ACPT_experiment_5_30_19,3.1.0,59.943889247759955,
,,,C,G,d,b,L,G,d,R,i,,,,,5,19,119,3,2,0,2,0,,,,,0,13,13,17,,,,,,up,1.0007911638376754,1841.3236699256015,None,001,49,2019_Oct_22_1203,ACPT_experiment_5_30_19,3.1.0,59.943889247759955,
,,,C,G,d,b,L,D,y,L,y,,,,,5,19,119,3,2,0,2,0,,,,,0,14,14,32,,,,,,down,0.6838634875625758,1843.6087331085312,None,001,49,2019_Oct_22_1203,ACPT_experiment_5_30_19,3.1.0,59.943889247759955,
,,,C,G,d,b,R,D,d,L,c,,,,,5,19,119,3,2,0,2,0,,,,,0,15,15,0,,,,,,up,0.5170812604646926,1845.576888839519,None,001,49,2019_Oct_22_1203,ACPT_experiment_5_30_19,3.1.0,59.943889247759955,
,,,C,G,d,b,L,G,g,L,c ,,,,,5,19,119,3,2,0,2,0,,,,,0,16,16,18,,,,,,up,1.5178295607911423,1847.3782780399058,None,001,49,2019_Oct_22_1203,ACPT_experiment_5_30_19,3.1.0,59.943889247759955,
,,,C,G,d,b,L,G,d,L,i,,,,,5,19,119,3,2,0,2,0,,,,,0,17,17,16,,,,,,up,0.8006291276878983,1850.1637153729987,None,001,49,2019_Oct_22_1203,ACPT_experiment_5_30_19,3.1.0,59.943889247759955,
,,,C,G,d,b,L,G,y,L,y,,,,,5,19,119,3,2,0,2,0,,,,,0,18,18,34,,,,,,down,0.7172103943416914,1852.2486620999923,None,001,49,2019_Oct_22_1203,ACPT_experiment_5_30_19,3.1.0,59.943889247759955,
,,,C,G,d,b,R,U,d,R,u,,,,,5,19,119,3,2,0,2,0,,,,,0,19,19,9,,,,,,up,0.650508732534945,1854.2501719822956,None,001,49,2019_Oct_22_1203,ACPT_experiment_5_30_19,3.1.0,59.943889247759955,
,,,C,G,d,b,L,D,d,R,c ,,,,,5,19,119,3,2,0,2,0,,,,,0,20,20,13,,,,,,up,0.8339660732285665,1856.1849946918671,None,001,49,2019_Oct_22_1203,ACPT_experiment_5_30_19,3.1.0,59.943889247759955,
,,,C,G,d,b,R,U,g,R,u,,,,,5,19,119,3,2,0,2,0,,,,,0,21,21,11,,,,,,up,0.5837747721666346,1858.3032786662563,None,001,49,2019_Oct_22_1203,ACPT_experiment_5_30_19,3.1.0,59.943889247759955,
,,,C,G,d,b,R,G,y,L,y,,,,,5,19,119,3,2,0,2,0,,,,,0,22,22,28,,,,,,down,0.7505579048315667,1860.188051886583,None,001,49,2019_Oct_22_1203,ACPT_experiment_5_30_19,3.1.0,59.943889247759955,
,,,C,G,d,b,R,G,g,R,c ,,,,,5,19,119,3,2,0,2,0,,,,,0,23,23,7,,,,,,up,0.667195014792469,1862.2396127674103,None,001,49,2019_Oct_22_1203,ACPT_experiment_5_30_19,3.1.0,59.943889247759955,
,,,C,G,d,b,L,U,g,R,u,,,,,5,19,119,3,2,0,2,0,,,,,0,24,24,23,,,,,,up,1.0174360918617822,1864.1911021386175,None,001,49,2019_Oct_22_1203,ACPT_experiment_5_30_19,3.1.0,59.943889247759955,
,,,C,G,d,b,L,U,y,L,u,,,,,5,19,119,3,2,0,2,0,,,,,0,25,25,24,,,,,,down,0.700527734352363,1866.4928534149392,None,001,49,2019_Oct_22_1203,ACPT_experiment_5_30_19,3.1.0,59.943889247759955,
,,,C,G,d,b,R,D,y,L,y,,,,,5,19,119,3,2,0,2,0,,,,,0,26,26,26,,,,,,down,0.6838544318907225,1868.4776960318952,None,001,49,2019_Oct_22_1203,ACPT_experiment_5_30_19,3.1.0,59.943889247759955,
,,,C,G,d,b,L,D,y,R,y,,,,,5,19,119,3,2,0,2,0,,,,,0,27,27,33,,,,,,down,0.5837949964998188,1870.4458463294798,None,001,49,2019_Oct_22_1203,ACPT_experiment_5_30_19,3.1.0,59.943889247759955,
,,,C,G,d,b,L,G,y,R,y,,,,,5,19,119,3,2,0,2,0,,,,,0,28,28,35,,,,,,down,0.5671041864065955,1872.3139507751805,None,001,49,2019_Oct_22_1203,ACPT_experiment_5_30_19,3.1.0,59.943889247759955,
,,,C,G,d,b,L,U,g,L,u,,,,,5,19,119,3,2,0,2,0,,,,,0,29,29,22,,,,,,up,0.8173114858213921,1874.1653426771766,None,001,49,2019_Oct_22_1203,ACPT_experiment_5_30_19,3.1.0,59.943889247759955,
,,,C,G,d,b,L,G,g,R,c ,,,,,5,19,119,3,2,0,2,0,,,,,0,30,30,19,,,,,,up,0.38361635828596263,1876.2502990635528,None,001,49,2019_Oct_22_1203,ACPT_experiment_5_30_19,3.1.0,59.943889247759955,
,,,C,G,d,b,R,G,g,L,c ,,,,,5,19,119,3,2,0,2,0,,,,,0,31,31,6,,,,,,up,0.7005355826013329,1877.9182209469152,None,001,49,2019_Oct_22_1203,ACPT_experiment_5_30_19,3.1.0,59.943889247759955,
,,,C,G,d,b,R,U,y,L,u,,,,,5,19,119,3,2,0,2,0,,,,,0,32,32,30,,,,,,down,0.7839322804807125,1879.9030674879962,None,001,49,2019_Oct_22_1203,ACPT_experiment_5_30_19,3.1.0,59.943889247759955,
,,,C,G,d,b,R,D,g,R,i,,,,,5,19,119,3,2,0,2,0,,,,,0,33,33,3,,,,,,up,0.700526225073645,1881.9713285364435,None,001,49,2019_Oct_22_1203,ACPT_experiment_5_30_19,3.1.0,59.943889247759955,
,,,C,G,d,b,R,G,d,R,i,,,,,5,19,119,3,2,0,2,0,,,,,0,34,34,5,,,,,,up,0.7172188463014209,1883.9561569661812,None,001,49,2019_Oct_22_1203,ACPT_experiment_5_30_19,3.1.0,59.943889247759955,
,,,C,G,d,b,R,G,d,L,i,,,,,5,19,119,3,2,0,2,0,,,,,0,35,35,4,,,,,,up,1.050829182565849,1885.9409977720031,None,001,49,2019_Oct_22_1203,ACPT_experiment_5_30_19,3.1.0,59.943889247759955,
,,,C,G,d,b,L,D,g,L,i,,,,,5,19,119,3,2,0,2,0,,,,,1,0,36,14,,,,,,up,0.6338112816160901,1888.276116783148,None,001,49,2019_Oct_22_1203,ACPT_experiment_5_30_19,3.1.0,59.943889247759955,
,,,C,G,d,b,L,D,d,R,c ,,,,,5,19,119,3,2,0,2,0,,,,,1,1,37,13,,,,,,up,1.601247388570755,1890.1775430816026,None,001,49,2019_Oct_22_1203,ACPT_experiment_5_30_19,3.1.0,59.943889247759955,
,,,C,G,d,b,R,U,g,L,u,,,,,5,19,119,3,2,0,2,0,,,,,1,2,38,10,,,,,,up,0.6504749246946631,1893.0631216529862,None,001,49,2019_Oct_22_1203,ACPT_experiment_5_30_19,3.1.0,59.943889247759955,
,,,C,G,d,b,L,D,y,L,y,,,,,5,19,119,3,2,0,2,0,,,,,1,3,39,32,,,,,,down,0.800611016345556,1894.997905725026,None,001,49,2019_Oct_22_1203,ACPT_experiment_5_30_19,3.1.0,59.943889247759955,
,,,C,G,d,b,R,U,d,L,u,,,,,5,19,119,3,2,0,2,0,,,,,1,4,40,8,,,,,,up,1.2009375034899676,1897.0828047588159,None,001,49,2019_Oct_22_1203,ACPT_experiment_5_30_19,3.1.0,59.943889247759955,
,,,C,G,d,b,R,D,g,R,i,,,,,5,19,119,3,2,0,2,0,,,,,1,5,41,3,,,,,,up,0.550425148686827,1899.5680489948052,None,001,49,2019_Oct_22_1203,ACPT_experiment_5_30_19,3.1.0,59.943889247759955,
,,,C,G,d,b,R,G,d,R,i,,,,,5,19,119,3,2,0,2,0,,,,,1,6,42,5,,,,,,up,1.084181522747258,1901.4027923465085,None,001,49,2019_Oct_22_1203,ACPT_experiment_5_30_19,3.1.0,59.943889247759955,
,,,C,G,d,b,L,U,y,R,u,,,,,5,19,119,3,2,0,2,0,,,,,1,7,43,25,,,,,,down,1.050812882356695,1903.7712633959793,None,001,49,2019_Oct_22_1203,ACPT_experiment_5_30_19,3.1.0,59.943889247759955,
,,,C,G,d,b,L,U,g,R,u,,,,,5,19,119,3,2,0,2,0,,,,,1,8,44,23,,,,,,up,0.6838701283886621,1906.0896707689865,None,001,49,2019_Oct_22_1203,ACPT_experiment_5_30_19,3.1.0,59.943889247759955,
,,,C,G,d,b,L,G,d,L,i,,,,,5,19,119,3,2,0,2,0,,,,,1,9,45,16,,,,,,up,0.6004652804044781,1908.0578509502873,None,001,49,2019_Oct_22_1203,ACPT_experiment_5_30_19,3.1.0,59.943889247759955,
,,,C,G,d,b,L,U,g,L,u,,,,,5,19,119,3,2,0,2,0,,,,,1,10,46,22,,,,,,up,0.633822450277421,1909.9426166242208,None,001,49,2019_Oct_22_1203,ACPT_experiment_5_30_19,3.1.0,59.943889247759955,
,,,C,G,d,b,R,G,d,L,i,,,,,5,19,119,3,2,0,2,0,,,,,1,11,47,4,,,,,,up,0.4837159404874001,1911.8607373550374,None,001,49,2019_Oct_22_1203,ACPT_experiment_5_30_19,3.1.0,59.943889247759955,
,,,C,G,d,b,R,U,g,R,u,,,,,5,19,119,3,2,0,2,0,,,,,1,12,48,11,,,,,,up,0.4670027930710603,1913.6287974581335,None,001,49,2019_Oct_22_1203,ACPT_experiment_5_30_19,3.1.0,59.943889247759955,
,,,C,G,d,b,R,D,g,L,i,,,,,5,19,119,3,2,0,2,0,,,,,1,13,49,2,,,,,,up,0.5337566759167203,1915.380084042669,None,001,49,2019_Oct_22_1203,ACPT_experiment_5_30_19,3.1.0,59.943889247759955,
,,,C,G,d,b,L,U,d,L,u,,,,,5,19,119,3,2,0,2,0,,,,,1,14,50,20,,,,,,up,0.5334641777258184,1917.2151138554493,None,001,49,2019_Oct_22_1203,ACPT_experiment_5_30_19,3.1.0,59.943889247759955,
,,,C,G,d,b,L,G,d,R,i,,,,,5,19,119,3,2,0,2,0,,,,,1,15,51,17,,,,,,up,0.5504182060049061,1919.0328892935097,None,001,49,2019_Oct_22_1203,ACPT_experiment_5_30_19,3.1.0,59.943889247759955,
,,,C,G,d,b,R,G,y,R,y,,,,,5,19,119,3,2,0,2,0,,,,,1,16,52,29,,,,,,down,0.5170785437635459,1920.8842793843712,None,001,49,2019_Oct_22_1203,ACPT_experiment_5_30_19,3.1.0,59.943889247759955,
,,,C,G,d,b,R,D,d,L,c,,,,,5,19,119,3,2,0,2,0,,,,,1,17,53,0,,,,,,up,0.6004571303001285,1922.7023539614486,None,001,49,2019_Oct_22_1203,ACPT_experiment_5_30_19,3.1.0,59.943889247759955,
,,,C,G,d,b,L,U,d,R,u,,,,,5,19,119,3,2,0,2,0,,,,,1,18,54,21,,,,,,up,0.6304929817033553,1924.6071332732238,None,001,49,2019_Oct_22_1203,ACPT_experiment_5_30_19,3.1.0,59.943889247759955,
,,,C,G,d,b,L,D,y,R,y,,,,,5,19,119,3,2,0,2,0,,,,,1,19,55,33,,,,,,down,0.6338112816160901,1926.5219290633024,None,001,49,2019_Oct_22_1203,ACPT_experiment_5_30_19,3.1.0,59.943889247759955,
,,,C,G,d,b,L,G,y,R,y,,,,,5,19,119,3,2,0,2,0,,,,,1,20,56,35,,,,,,down,0.5170809586093128,1928.4400353050448,None,001,49,2019_Oct_22_1203,ACPT_experiment_5_30_19,3.1.0,59.943889247759955,
,,,C,G,d,b,R,D,y,L,y,,,,,5,19,119,3,2,0,2,0,,,,,1,21,57,26,,,,,,down,0.8673141874301109,1930.2581180322265,None,001,49,2019_Oct_22_1203,ACPT_experiment_5_30_19,3.1.0,59.943889247759955,
,,,C,G,d,b,R,G,g,L,c ,,,,,5,19,119,3,2,0,2,0,,,,,1,22,58,6,,,,,,up,0.900717239372625,1932.4264306678167,None,001,49,2019_Oct_22_1203,ACPT_experiment_5_30_19,3.1.0,59.943889247759955,
,,,C,G,d,b,L,G,g,R,c ,,,,,5,19,119,3,2,0,2,0,,,,,1,23,59,19,,,,,,up,0.7839790681173326,1934.6114250578282,None,001,49,2019_Oct_22_1203,ACPT_experiment_5_30_19,3.1.0,59.943889247759955,
,,,C,G,d,b,L,D,d,L,c ,,,,,5,19,119,3,2,0,2,0,,,,,1,24,60,12,,,,,,up,3.319226005715336,1936.679669504211,None,001,49,2019_Oct_22_1203,ACPT_experiment_5_30_19,3.1.0,59.943889247759955,
,,,C,G,d,b,R,U,d,R,u,,,,,5,19,119,3,2,0,2,0,,,,,1,25,61,9,,,,,,up,0.9340487515096356,1941.283177188401,None,001,49,2019_Oct_22_1203,ACPT_experiment_5_30_19,3.1.0,59.943889247759955,
,,,C,G,d,b,L,U,y,L,u,,,,,5,19,119,3,2,0,2,0,,,,,1,26,62,24,,,,,,down,0.8172888466428958,1943.5015359928232,None,001,49,2019_Oct_22_1203,ACPT_experiment_5_30_19,3.1.0,59.943889247759955,
,,,C,G,d,b,R,U,y,R,u,,,,,5,19,119,3,2,0,2,0,,,,,1,27,63,31,,,,,,down,0.7672242646112863,1945.603154814855,None,001,49,2019_Oct_22_1203,ACPT_experiment_5_30_19,3.1.0,59.943889247759955,
,,,C,G,d,b,L,G,g,L,c ,,,,,5,19,119,3,2,0,2,0,,,,,1,28,64,18,,,,,,up,0.8006137330467027,1947.6546981880508,None,001,49,2019_Oct_22_1203,ACPT_experiment_5_30_19,3.1.0,59.943889247759955,
,,,C,G,d,b,R,D,d,R,c ,,,,,5,19,119,3,2,0,2,0,,,,,1,29,65,1,,,,,,up,0.6504879044905465,1949.7396252944225,None,001,49,2019_Oct_22_1203,ACPT_experiment_5_30_19,3.1.0,59.943889247759955,
,,,C,G,d,b,R,G,g,R,c ,,,,,5,19,119,3,2,0,2,0,,,,,1,30,66,7,,,,,,up,0.6003460473953055,1951.6744286852283,None,001,49,2019_Oct_22_1203,ACPT_experiment_5_30_19,3.1.0,59.943889247759955,
,,,C,G,d,b,R,D,y,R,y,,,,,5,19,119,3,2,0,2,0,,,,,1,31,67,27,,,,,,down,0.897348831410909,1953.579219769376,None,001,49,2019_Oct_22_1203,ACPT_experiment_5_30_19,3.1.0,59.943889247759955,
,,,C,G,d,b,L,G,y,L,y,,,,,5,19,119,3,2,0,2,0,,,,,1,32,68,34,,,,,,down,0.6171464311146337,1955.7441929751533,None,001,49,2019_Oct_22_1203,ACPT_experiment_5_30_19,3.1.0,59.943889247759955,
,,,C,G,d,b,R,U,y,L,u,,,,,5,19,119,3,2,0,2,0,,,,,1,33,69,30,,,,,,down,0.5837744703112548,1957.6456419127874,None,001,49,2019_Oct_22_1203,ACPT_experiment_5_30_19,3.1.0,59.943889247759955,
,,,C,G,d,b,L,D,g,R,i,,,,,5,19,119,3,2,0,2,0,,,,,1,34,70,15,,,,,,up,0.7338933561854901,1959.513736699105,None,001,49,2019_Oct_22_1203,ACPT_experiment_5_30_19,3.1.0,59.943889247759955,
,,,C,G,d,b,R,G,y,L,y,,,,,5,19,119,3,2,0,2,0,,,,,1,35,71,28,,,,,,down,0.7839271489333441,1961.531942221193,None,001,49,2019_Oct_22_1203,ACPT_experiment_5_30_19,3.1.0,59.943889247759955,
,,,C,G,d,b,,,,,,,,,,5,19,119,3,3,0,3,0,0,0,0,0,,,,,,,,,,,,,,001,49,2019_Oct_22_1203,ACPT_experiment_5_30_19,3.1.0,59.943889247759955,
,,,C,G,d,b,L,G,d,R,i,,,,,5,19,119,3,3,0,3,0,,,,,0,0,0,17,,,,,,up,0.7336138377909265,1969.4549210179418,None,001,49,2019_Oct_22_1203,ACPT_experiment_5_30_19,3.1.0,59.943889247759955,
,,,C,G,d,b,L,D,g,L,i,,,,,5,19,119,3,3,0,3,0,,,,,0,1,1,14,,,,,,up,0.650462548609994,1971.4728687552467,None,001,49,2019_Oct_22_1203,ACPT_experiment_5_30_19,3.1.0,59.943889247759955,
,,,C,G,d,b,L,G,y,L,y,,,,,5,19,119,3,3,0,3,0,,,,,0,2,2,34,,,,,,down,0.5838176356792246,1973.4076377345002,None,001,49,2019_Oct_22_1203,ACPT_experiment_5_30_19,3.1.0,59.943889247759955,
,,,C,G,d,b,R,D,y,L,y,,,,,5,19,119,3,3,0,3,0,,,,,0,3,3,26,,,,,,down,0.6671008358084691,1975.2924897391697,None,001,49,2019_Oct_22_1203,ACPT_experiment_5_30_19,3.1.0,59.943889247759955,
,,,C,G,d,b,L,U,y,R,u,,,,,5,19,119,3,3,0,3,0,,,,,0,4,4,25,,,,,,down,0.6171195659553632,1977.2606074363364,None,001,49,2019_Oct_22_1203,ACPT_experiment_5_30_19,3.1.0,59.943889247759955,
,,,C,G,d,b,L,G,d,L,i,,,,,5,19,119,3,3,0,3,0,,,,,0,5,5,16,,,,,,up,0.6171579016317992,1979.162020151284,None,001,49,2019_Oct_22_1203,ACPT_experiment_5_30_19,3.1.0,59.943889247759955,
,,,C,G,d,b,L,U,d,R,u,,,,,5,19,119,3,3,0,3,0,,,,,0,6,6,21,,,,,,up,0.48370296069151664,1981.0634902188183,None,001,49,2019_Oct_22_1203,ACPT_experiment_5_30_19,3.1.0,59.943889247759955,
,,,C,G,d,b,L,G,y,R,y,,,,,5,19,119,3,3,0,3,0,,,,,0,7,7,35,,,,,,down,0.8001757403990268,1982.8485888697949,None,001,49,2019_Oct_22_1203,ACPT_experiment_5_30_19,3.1.0,59.943889247759955,
,,,C,G,d,b,R,D,g,R,i,,,,,5,19,119,3,3,0,3,0,,,,,0,8,8,3,,,,,,up,0.9507220539712762,1984.9331090746584,None,001,49,2019_Oct_22_1203,ACPT_experiment_5_30_19,3.1.0,59.943889247759955,
,,,C,G,d,b,L,D,d,L,c ,,,,,5,19,119,3,3,0,3,0,,,,,0,9,9,12,,,,,,up,1.0674988627583843,1987.1681236739103,None,001,49,2019_Oct_22_1203,ACPT_experiment_5_30_19,3.1.0,59.943889247759955,
,,,C,G,d,b,R,D,d,R,c ,,,,,5,19,119,3,3,0,3,0,,,,,0,10,10,1,,,,,,up,0.8673298839275958,1989.5199377211281,None,001,49,2019_Oct_22_1203,ACPT_experiment_5_30_19,3.1.0,59.943889247759955,
,,,C,G,d,b,R,D,d,L,c,,,,,5,19,119,3,3,0,3,0,,,,,0,11,11,0,,,,,,up,0.8506520536298012,1991.6548868478746,None,001,49,2019_Oct_22_1203,ACPT_experiment_5_30_19,3.1.0,59.943889247759955,
,,,C,G,d,b,R,G,d,L,i,,,,,5,19,119,3,3,0,3,0,,,,,0,12,12,4,,,,,,up,0.8172577555033058,1993.789870688029,None,001,49,2019_Oct_22_1203,ACPT_experiment_5_30_19,3.1.0,59.943889247759955,
,,,C,G,d,b,R,U,g,L,u,,,,,5,19,119,3,3,0,3,0,,,,,0,13,13,10,,,,,,up,0.6338339207950412,1995.8914632486137,None,001,49,2019_Oct_22_1203,ACPT_experiment_5_30_19,3.1.0,59.943889247759955,
,,,C,G,d,b,L,D,y,L,y,,,,,5,19,119,3,3,0,3,0,,,,,0,14,14,32,,,,,,down,0.633817620586342,1997.8095900165447,None,001,49,2019_Oct_22_1203,ACPT_experiment_5_30_19,3.1.0,59.943889247759955,
,,,C,G,d,b,R,G,y,L,y,,,,,5,19,119,3,3,0,3,0,,,,,0,15,15,28,,,,,,down,0.41697654671634155,1999.7277213123118,None,001,49,2019_Oct_22_1203,ACPT_experiment_5_30_19,3.1.0,59.943889247759955,
,,,C,G,d,b,L,D,d,R,c ,,,,,5,19,119,3,3,0,3,0,,,,,0,16,16,13,,,,,,up,0.6004915418520795,2001.429014552766,None,001,49,2019_Oct_22_1203,ACPT_experiment_5_30_19,3.1.0,59.943889247759955,
,,,C,G,d,b,R,G,d,R,i,,,,,5,19,119,3,3,0,3,0,,,,,0,17,17,5,,,,,,up,0.5471231489832462,2003.3337938645411,None,001,49,2019_Oct_22_1203,ACPT_experiment_5_30_19,3.1.0,59.943889247759955,
,,,C,G,d,b,L,D,g,R,i,,,,,5,19,119,3,3,0,3,0,,,,,0,18,18,15,,,,,,up,0.550423639408109,2005.1651905418946,None,001,49,2019_Oct_22_1203,ACPT_experiment_5_30_19,3.1.0,59.943889247759955,
,,,C,G,d,b,L,D,y,R,y,,,,,5,19,119,3,3,0,3,0,,,,,0,19,19,33,,,,,,down,1.0174457512453046,2006.999924837926,None,001,49,2019_Oct_22_1203,ACPT_experiment_5_30_19,3.1.0,59.943889247759955,
,,,C,G,d,b,R,G,y,R,y,,,,,5,19,119,3,3,0,3,0,,,,,0,20,20,29,,,,,,down,0.5003925633618564,2009.3016818495064,None,001,49,2019_Oct_22_1203,ACPT_experiment_5_30_19,3.1.0,59.943889247759955,
,,,C,G,d,b,R,U,d,R,u,,,,,5,19,119,3,3,0,3,0,,,,,0,21,21,9,,,,,,up,0.6671642255091683,2011.0863823527905,None,001,49,2019_Oct_22_1203,ACPT_experiment_5_30_19,3.1.0,59.943889247759955,
,,,C,G,d,b,L,U,g,L,u,,,,,5,19,119,3,3,0,3,0,,,,,0,22,22,22,,,,,,down,0.6171446199800812,2013.037852103376,None,001,49,2019_Oct_22_1203,ACPT_experiment_5_30_19,3.1.0,59.943889247759955,
,,,C,G,d,b,L,U,y,L,u,,,,,5,19,119,3,3,0,3,0,,,,,0,23,23,24,,,,,,down,0.8506366589886056,2014.9393122096715,None,001,49,2019_Oct_22_1203,ACPT_experiment_5_30_19,3.1.0,59.943889247759955,
,,,C,G,d,b,R,U,g,R,u,,,,,5,19,119,3,3,0,3,0,,,,,0,24,24,11,,,,,,up,0.783933487903596,2017.0742649586866,None,001,49,2019_Oct_22_1203,ACPT_experiment_5_30_19,3.1.0,59.943889247759955,
,,,C,G,d,b,R,U,y,R,u,,,,,5,19,119,3,3,0,3,0,,,,,0,25,25,31,,,,,,down,0.8339675825072845,2019.142511216204,None,001,49,2019_Oct_22_1203,ACPT_experiment_5_30_19,3.1.0,59.943889247759955,
,,,C,G,d,b,L,G,g,R,c ,,,,,5,19,119,3,3,0,3,0,,,,,0,26,26,19,,,,,,up,0.7005389030141487,2021.260796398016,None,001,49,2019_Oct_22_1203,ACPT_experiment_5_30_19,3.1.0,59.943889247759955,
,,,C,G,d,b,R,D,y,R,y,,,,,5,19,119,3,3,0,3,0,,,,,0,27,27,27,,,,,,down,0.7172149221769359,2023.245635090848,None,001,49,2019_Oct_22_1203,ACPT_experiment_5_30_19,3.1.0,59.943889247759955,
,,,C,G,d,b,R,D,g,L,i,,,,,5,19,119,3,3,0,3,0,,,,,0,28,28,2,,,,,,up,0.650480659952791,2025.2471751587234,None,001,49,2019_Oct_22_1203,ACPT_experiment_5_30_19,3.1.0,59.943889247759955,
,,,C,G,d,b,R,G,g,R,c ,,,,,5,19,119,3,3,0,3,0,,,,,0,29,29,7,,,,,,up,0.8671747300882089,2027.182089934289,None,001,49,2019_Oct_22_1203,ACPT_experiment_5_30_19,3.1.0,59.943889247759955,
,,,C,G,d,b,R,U,y,L,u,,,,,5,19,119,3,3,0,3,0,,,,,0,30,30,30,,,,,,down,0.7670437548922564,2029.3504596206096,None,001,49,2019_Oct_22_1203,ACPT_experiment_5_30_19,3.1.0,59.943889247759955,
,,,C,G,d,b,R,G,g,L,c ,,,,,5,19,119,3,3,0,3,0,,,,,0,31,31,6,,,,,,up,0.6671732811810216,2031.4185389519146,None,001,49,2019_Oct_22_1203,ACPT_experiment_5_30_19,3.1.0,59.943889247759955,
,,,C,G,d,b,L,G,g,L,c ,,,,,5,19,119,3,3,0,3,0,,,,,0,32,32,18,,,,,,up,1.0007416595003633,2033.3700431140521,None,001,49,2019_Oct_22_1203,ACPT_experiment_5_30_19,3.1.0,59.943889247759955,
,,,C,G,d,b,L,U,d,L,u,,,,,5,19,119,3,3,0,3,0,,,,,0,33,33,20,,,,,,up,0.5837626979382549,2035.6551047877035,None,001,49,2019_Oct_22_1203,ACPT_experiment_5_30_19,3.1.0,59.943889247759955,
,,,C,G,d,b,L,U,g,R,u,,,,,5,19,119,3,3,0,3,0,,,,,0,34,34,23,,,,,,up,0.8173166173687605,2037.506483106192,None,001,49,2019_Oct_22_1203,ACPT_experiment_5_30_19,3.1.0,59.943889247759955,
,,,C,G,d,b,R,U,d,L,u,,,,,5,19,119,3,3,0,3,0,,,,,0,35,35,8,,,,,,up,0.8840336738167025,2039.6080795909008,None,001,49,2019_Oct_22_1203,ACPT_experiment_5_30_19,3.1.0,59.943889247759955,
,,,C,G,d,b,L,D,y,L,y,,,,,5,19,119,3,3,0,3,0,,,,,1,0,36,32,,,,,,down,0.7006059149834982,2041.7764221102068,None,001,49,2019_Oct_22_1203,ACPT_experiment_5_30_19,3.1.0,59.943889247759955,
,,,C,G,d,b,R,D,g,L,i,,,,,5,19,119,3,3,0,3,0,,,,,1,1,37,2,,,,,,up,0.6504990731518774,2043.7612656327303,None,001,49,2019_Oct_22_1203,ACPT_experiment_5_30_19,3.1.0,59.943889247759955,
,,,C,G,d,b,R,G,y,L,y,,,,,5,19,119,3,3,0,3,0,,,,,1,2,38,28,,,,,,down,0.6338266762572857,2045.6960904552918,None,001,49,2019_Oct_22_1203,ACPT_experiment_5_30_19,3.1.0,59.943889247759955,
,,,C,G,d,b,L,G,g,R,c ,,,,,5,19,119,3,3,0,3,0,,,,,1,3,39,19,,,,,,up,0.5837832241272736,2047.6142021304374,None,001,49,2019_Oct_22_1203,ACPT_experiment_5_30_19,3.1.0,59.943889247759955,
,,,C,G,d,b,R,G,d,R,i,,,,,5,19,119,3,3,0,3,0,,,,,1,4,40,5,,,,,,up,0.6337832090339361,2049.482325291193,None,001,49,2019_Oct_22_1203,ACPT_experiment_5_30_19,3.1.0,59.943889247759955,
,,,C,G,d,b,L,U,y,R,u,,,,,5,19,119,3,3,0,3,0,,,,,1,5,41,25,,,,,,down,0.8006357685139847,2051.4004028566414,None,001,49,2019_Oct_22_1203,ACPT_experiment_5_30_19,3.1.0,59.943889247759955,
,,,C,G,d,b,R,D,d,L,c,,,,,5,19,119,3,3,0,3,0,,,,,1,6,42,0,,,,,,up,0.5835616620297515,2053.4855276785092,None,001,49,2019_Oct_22_1203,ACPT_experiment_5_30_19,3.1.0,59.943889247759955,
,,,C,G,d,b,R,U,g,L,u,,,,,5,19,119,3,3,0,3,0,,,,,1,7,43,10,,,,,,up,0.600466185971527,2055.3534350124255,None,001,49,2019_Oct_22_1203,ACPT_experiment_5_30_19,3.1.0,59.943889247759955,
,,,C,G,d,b,R,D,y,L,y,,,,,5,19,119,3,3,0,3,0,,,,,1,8,44,26,,,,,,down,0.9007078818449372,2057.238185291718,None,001,49,2019_Oct_22_1203,ACPT_experiment_5_30_19,3.1.0,59.943889247759955,
,,,C,G,d,b,R,D,y,R,y,,,,,5,19,119,3,3,0,3,0,,,,,1,9,45,27,,,,,,down,0.6671775071608863,2059.423203528331,None,001,49,2019_Oct_22_1203,ACPT_experiment_5_30_19,3.1.0,59.943889247759955,
,,,C,G,d,b,R,U,y,L,u,,,,,5,19,119,3,3,0,3,0,,,,,1,10,46,30,,,,,,down,0.5671117327997308,2061.374688371703,None,001,49,2019_Oct_22_1203,ACPT_experiment_5_30_19,3.1.0,59.943889247759955,
,,,C,G,d,b,L,U,g,L,u,,,,,5,19,119,3,3,0,3,0,,,,,1,11,47,22,,,,,,up,0.7505899015377508,2063.2261050258676,None,001,49,2019_Oct_22_1203,ACPT_experiment_5_30_19,3.1.0,59.943889247759955,
,,,C,G,d,b,L,D,d,L,c ,,,,,5,19,119,3,3,0,3,0,,,,,1,12,48,12,,,,,,up,0.5003847151128866,2065.260985359696,None,001,49,2019_Oct_22_1203,ACPT_experiment_5_30_19,3.1.0,59.943889247759955,
,,,C,G,d,b,L,G,d,R,i,,,,,5,19,119,3,3,0,3,0,,,,,1,13,49,17,,,,,,up,0.6338076593474398,2067.045682844423,None,001,49,2019_Oct_22_1203,ACPT_experiment_5_30_19,3.1.0,59.943889247759955,
,,,C,G,d,b,R,U,g,R,u,,,,,5,19,119,3,3,0,3,0,,,,,1,14,50,11,,,,,,up,0.5170770344852826,2068.9637884824533,None,001,49,2019_Oct_22_1203,ACPT_experiment_5_30_19,3.1.0,59.943889247759955,
,,,C,G,d,b,L,D,g,R,i,,,,,5,19,119,3,3,0,3,0,,,,,1,15,51,15,,,,,,up,0.6638498497213732,2070.785192226249,None,001,49,2019_Oct_22_1203,ACPT_experiment_5_30_19,3.1.0,59.943889247759955,
,,,C,G,d,b,L,G,d,L,i,,,,,5,19,119,3,3,0,3,0,,,,,1,16,52,16,,,,,,up,0.8339926365320025,2072.733330093415,None,001,49,2019_Oct_22_1203,ACPT_experiment_5_30_19,3.1.0,59.943889247759955,
,,,C,G,d,b,L,D,y,R,y,,,,,5,19,119,3,3,0,3,0,,,,,1,17,53,33,,,,,,down,0.8172855262296252,2074.8683085001667,None,001,49,2019_Oct_22_1203,ACPT_experiment_5_30_19,3.1.0,59.943889247759955,
,,,C,G,d,b,R,U,d,L,u,,,,,5,19,119,3,3,0,3,0,,,,,1,18,54,8,,,,,,up,0.7005053970292465,2076.9866096803316,None,001,49,2019_Oct_22_1203,ACPT_experiment_5_30_19,3.1.0,59.943889247759955,
,,,C,G,d,b,L,G,y,R,y,,,,,5,19,119,3,3,0,3,0,,,,,1,19,55,35,,,,,,down,0.7505736013290516,2078.9714353933678,None,001,49,2019_Oct_22_1203,ACPT_experiment_5_30_19,3.1.0,59.943889247759955,
,,,C,G,d,b,R,D,g,R,i,,,,,5,19,119,3,3,0,3,0,,,,,1,20,56,3,,,,,,up,0.7172040553714396,2081.0063268958575,None,001,49,2019_Oct_22_1203,ACPT_experiment_5_30_19,3.1.0,59.943889247759955,
,,,C,G,d,b,L,U,d,R,u,,,,,5,19,119,3,3,0,3,0,,,,,1,21,57,21,,,,,,up,0.7005195842480134,2083.0078563987827,None,001,49,2019_Oct_22_1203,ACPT_experiment_5_30_19,3.1.0,59.943889247759955,
,,,C,G,d,b,L,U,g,R,u,,,,,5,19,119,3,3,0,3,0,,,,,1,22,58,23,,,,,,up,0.5504351099252744,2084.9759925091485,None,001,49,2019_Oct_22_1203,ACPT_experiment_5_30_19,3.1.0,59.943889247759955,
,,,C,G,d,b,R,G,d,L,i,,,,,5,19,119,3,3,0,3,0,,,,,1,23,59,4,,,,,,up,0.6504942434607983,2086.810741897966,None,001,49,2019_Oct_22_1203,ACPT_experiment_5_30_19,3.1.0,59.943889247759955,
,,,C,G,d,b,R,U,d,R,u,,,,,5,19,119,3,3,0,3,0,,,,,1,24,60,9,,,,,,up,0.6838462817863729,2088.745555853722,None,001,49,2019_Oct_22_1203,ACPT_experiment_5_30_19,3.1.0,59.943889247759955,
,,,C,G,d,b,L,D,g,L,i,,,,,5,19,119,3,3,0,3,0,,,,,1,25,61,14,,,,,,up,0.8506457146600042,2090.7137209422363,None,001,49,2019_Oct_22_1203,ACPT_experiment_5_30_19,3.1.0,59.943889247759955,
,,,C,G,d,b,L,U,d,L,u,,,,,5,19,119,3,3,0,3,0,,,,,1,26,62,20,,,,,,up,0.6004586395783917,2092.8486767098093,None,001,49,2019_Oct_22_1203,ACPT_experiment_5_30_19,3.1.0,59.943889247759955,
,,,C,G,d,b,R,G,y,R,y,,,,,5,19,119,3,3,0,3,0,,,,,1,27,63,29,,,,,,down,1.0506058093337742,2094.750289555098,None,001,49,2019_Oct_22_1203,ACPT_experiment_5_30_19,3.1.0,59.943889247759955,
,,,C,G,d,b,R,D,d,R,c ,,,,,5,19,119,3,3,0,3,0,,,,,1,28,64,1,,,,,,down,0.5503952649701205,2097.101938487238,None,001,49,2019_Oct_22_1203,ACPT_experiment_5_30_19,3.1.0,59.943889247759955,
,,,C,G,d,b,L,G,y,L,y,,,,,5,19,119,3,3,0,3,0,,,,,1,29,65,34,,,,,,down,0.76724871492479,2098.936649842235,None,001,49,2019_Oct_22_1203,ACPT_experiment_5_30_19,3.1.0,59.943889247759955,
,,,C,G,d,b,L,G,g,L,c ,,,,,5,19,119,3,3,0,3,0,,,,,1,30,66,18,,,,,,up,0.9173603562621793,2100.9882107230624,None,001,49,2019_Oct_22_1203,ACPT_experiment_5_30_19,3.1.0,59.943889247759955,
,,,C,G,d,b,L,U,y,L,u,,,,,5,19,119,3,3,0,3,0,,,,,1,31,67,24,,,,,,down,0.850647525794102,2103.1898883767735,None,001,49,2019_Oct_22_1203,ACPT_experiment_5_30_19,3.1.0,59.943889247759955,
,,,C,G,d,b,L,D,d,R,c ,,,,,5,19,119,3,3,0,3,0,,,,,1,32,68,13,,,,,,up,0.6338342226508757,2105.324843238779,None,001,49,2019_Oct_22_1203,ACPT_experiment_5_30_19,3.1.0,59.943889247759955,
,,,C,G,d,b,R,G,g,L,c ,,,,,5,19,119,3,3,0,3,0,,,,,1,33,69,6,,,,,,up,0.8006046773748494,2107.2429820809393,None,001,49,2019_Oct_22_1203,ACPT_experiment_5_30_19,3.1.0,59.943889247759955,
,,,C,G,d,b,R,G,g,R,c ,,,,,5,19,119,3,3,0,3,0,,,,,1,34,70,7,,,,,,up,0.6338435801776541,2109.3112038881427,None,001,49,2019_Oct_22_1203,ACPT_experiment_5_30_19,3.1.0,59.943889247759955,
,,,C,G,d,b,R,U,y,R,u,,,,,5,19,119,3,3,0,3,0,,,,,1,35,71,31,,,,,,down,0.7005373937358854,2111.2293499748403,None,001,49,2019_Oct_22_1203,ACPT_experiment_5_30_19,3.1.0,59.943889247759955,
,,,C,G,d,b,,,,,,,,,,5,19,119,3,4,0,4,0,0,0,0,0,,,,,,,,,,,,,,001,49,2019_Oct_22_1203,ACPT_experiment_5_30_19,3.1.0,59.943889247759955,
,,,C,G,d,b,L,D,g,L,i,,,,,5,19,119,3,4,0,4,0,,,,,0,0,0,14,,,,,,up,0.600202062218159,2116.6837551213594,None,001,49,2019_Oct_22_1203,ACPT_experiment_5_30_19,3.1.0,59.943889247759955,
,,,C,G,d,b,L,U,d,R,u,,,,,5,19,119,3,4,0,4,0,,,,,0,1,1,21,,,,,,up,0.5671002622825654,2118.5682669346343,None,001,49,2019_Oct_22_1203,ACPT_experiment_5_30_19,3.1.0,59.943889247759955,
,,,C,G,d,b,L,G,y,L,y,,,,,5,19,119,3,4,0,4,0,,,,,0,2,2,34,,,,,,down,0.7005446382722766,2120.4196663830226,None,001,49,2019_Oct_22_1203,ACPT_experiment_5_30_19,3.1.0,59.943889247759955,
,,,C,G,d,b,R,U,d,L,u,,,,,5,19,119,3,4,0,4,0,,,,,0,3,3,8,,,,,,up,0.6838707320998765,2122.404534054004,None,001,49,2019_Oct_22_1203,ACPT_experiment_5_30_19,3.1.0,59.943889247759955,
,,,C,G,d,b,L,U,d,L,u,,,,,5,19,119,3,4,0,4,0,,,,,0,4,4,20,,,,,,up,0.6004553191655759,2124.37269974623,None,001,49,2019_Oct_22_1203,ACPT_experiment_5_30_19,3.1.0,59.943889247759955,
,,,C,G,d,b,R,D,g,R,i,,,,,5,19,119,3,4,0,4,0,,,,,0,5,5,3,,,,,,up,0.41698982836805953,2126.257466023875,None,001,49,2019_Oct_22_1203,ACPT_experiment_5_30_19,3.1.0,59.943889247759955,
,,,C,G,d,b,R,U,d,R,u,,,,,5,19,119,3,4,0,4,0,,,,,0,6,6,9,,,,,,up,0.9173537154365476,2127.958771640414,None,001,49,2019_Oct_22_1203,ACPT_experiment_5_30_19,3.1.0,59.943889247759955,
,,,C,G,d,b,L,G,d,R,i,,,,,5,19,119,3,4,0,4,0,,,,,0,7,7,17,,,,,,up,0.6004501876186623,2130.160443257011,None,001,49,2019_Oct_22_1203,ACPT_experiment_5_30_19,3.1.0,59.943889247759955,
,,,C,G,d,b,R,G,d,L,i,,,,,5,19,119,3,4,0,4,0,,,,,0,8,8,4,,,,,,up,0.7672345277060231,2132.0452270422875,None,001,49,2019_Oct_22_1203,ACPT_experiment_5_30_19,3.1.0,59.943889247759955,
,,,C,G,d,b,R,G,g,R,c ,,,,,5,19,119,3,4,0,4,0,,,,,0,9,9,7,,,,,,up,0.6338547488394397,2134.080074171987,None,001,49,2019_Oct_22_1203,ACPT_experiment_5_30_19,3.1.0,59.943889247759955,
,,,C,G,d,b,L,U,g,R,u,,,,,5,19,119,3,4,0,4,0,,,,,0,10,10,23,,,,,,up,0.6835845728787717,2135.9984982678006,None,001,49,2019_Oct_22_1203,ACPT_experiment_5_30_19,3.1.0,59.943889247759955,
,,,C,G,d,b,L,G,y,R,y,,,,,5,19,119,3,4,0,4,0,,,,,0,11,11,35,,,,,,down,0.7172351465101201,2137.9663693488455,None,001,49,2019_Oct_22_1203,ACPT_experiment_5_30_19,3.1.0,59.943889247759955,
,,,C,G,d,b,R,U,y,R,u,,,,,5,19,119,3,4,0,4,0,,,,,0,12,12,31,,,,,,down,0.6504966583061105,2139.967915755691,None,001,49,2019_Oct_22_1203,ACPT_experiment_5_30_19,3.1.0,59.943889247759955,
,,,C,G,d,b,L,D,y,R,y,,,,,5,19,119,3,4,0,4,0,,,,,0,13,13,33,,,,,,down,0.4836884716169152,2141.9027429930984,None,001,49,2019_Oct_22_1203,ACPT_experiment_5_30_19,3.1.0,59.943889247759955,
,,,C,G,d,b,R,G,g,L,c ,,,,,5,19,119,3,4,0,4,0,,,,,0,14,14,6,,,,,,up,0.7338924506184412,2143.6707409139162,None,001,49,2019_Oct_22_1203,ACPT_experiment_5_30_19,3.1.0,59.943889247759955,
,,,C,G,d,b,L,D,g,R,i,,,,,5,19,119,3,4,0,4,0,,,,,0,15,15,15,,,,,,up,0.5504218282740112,2145.688939795179,None,001,49,2019_Oct_22_1203,ACPT_experiment_5_30_19,3.1.0,59.943889247759955,
,,,C,G,d,b,R,U,g,L,u,,,,,5,19,119,3,4,0,4,0,,,,,0,16,16,10,,,,,,up,0.6838493003438089,2147.523677411624,None,001,49,2019_Oct_22_1203,ACPT_experiment_5_30_19,3.1.0,59.943889247759955,
,,,C,G,d,b,L,D,y,L,y,,,,,5,19,119,3,4,0,4,0,,,,,0,17,17,32,,,,,,down,0.6671850535535668,2149.508517010023,None,001,49,2019_Oct_22_1203,ACPT_experiment_5_30_19,3.1.0,59.943889247759955,
,,,C,G,d,b,R,D,d,L,c,,,,,5,19,119,3,4,0,4,0,,,,,0,18,18,0,,,,,,up,0.7505636400901494,2151.493369890073,None,001,49,2019_Oct_22_1203,ACPT_experiment_5_30_19,3.1.0,59.943889247759955,
,,,C,G,d,b,R,U,y,L,u,,,,,5,19,119,3,4,0,4,0,,,,,0,19,19,30,,,,,,down,0.750550660294266,2153.528264712976,None,001,49,2019_Oct_22_1203,ACPT_experiment_5_30_19,3.1.0,59.943889247759955,
,,,C,G,d,b,R,D,y,L,y,,,,,5,19,119,3,4,0,4,0,,,,,0,20,20,26,,,,,,down,0.7672900691582072,2155.5631293503066,None,001,49,2019_Oct_22_1203,ACPT_experiment_5_30_19,3.1.0,59.943889247759955,
,,,C,G,d,b,L,U,y,L,u,,,,,5,19,119,3,4,0,4,0,,,,,0,21,21,24,,,,,,down,0.583800429902567,2157.614704116497,None,001,49,2019_Oct_22_1203,ACPT_experiment_5_30_19,3.1.0,59.943889247759955,
,,,C,G,d,b,L,U,y,R,u,,,,,5,19,119,3,4,0,4,0,,,,,0,22,22,25,,,,,,down,0.8506429979588574,2159.4827886397206,None,001,49,2019_Oct_22_1203,ACPT_experiment_5_30_19,3.1.0,59.943889247759955,
,,,C,G,d,b,R,D,g,L,i,,,,,5,19,119,3,4,0,4,0,,,,,0,23,23,2,,,,,,up,0.7172128091870036,2161.617745916571,None,001,49,2019_Oct_22_1203,ACPT_experiment_5_30_19,3.1.0,59.943889247759955,
,,,C,G,d,b,R,D,d,R,c ,,,,,5,19,119,3,4,0,4,0,,,,,0,24,24,1,,,,,,up,0.6505286550122946,2163.6025764592987,None,001,49,2019_Oct_22_1203,ACPT_experiment_5_30_19,3.1.0,59.943889247759955,
,,,C,G,d,b,R,U,g,R,u,,,,,5,19,119,3,4,0,4,0,,,,,0,25,25,11,,,,,,up,0.5003904503714693,2165.537399470726,None,001,49,2019_Oct_22_1203,ACPT_experiment_5_30_19,3.1.0,59.943889247759955,
,,,C,G,d,b,L,G,d,L,i,,,,,5,19,119,3,4,0,4,0,,,,,0,26,26,16,,,,,,up,0.5167006204042082,2167.3558024668255,None,001,49,2019_Oct_22_1203,ACPT_experiment_5_30_19,3.1.0,59.943889247759955,
,,,C,G,d,b,R,D,y,R,y,,,,,5,19,119,3,4,0,4,0,,,,,0,27,27,27,,,,,,down,0.7172049609384885,2169.1568261199373,None,001,49,2019_Oct_22_1203,ACPT_experiment_5_30_19,3.1.0,59.943889247759955,
,,,C,G,d,b,L,U,g,L,u,,,,,5,19,119,3,4,0,4,0,,,,,0,28,28,22,,,,,,up,0.7005440345610623,2171.158354717296,None,001,49,2019_Oct_22_1203,ACPT_experiment_5_30_19,3.1.0,59.943889247759955,
,,,C,G,d,b,R,G,y,L,y,,,,,5,19,119,3,4,0,4,0,,,,,0,29,29,28,,,,,,down,0.7005226028054494,2173.143203673222,None,001,49,2019_Oct_22_1203,ACPT_experiment_5_30_19,3.1.0,59.943889247759955,
,,,C,G,d,b,L,D,d,R,c ,,,,,5,19,119,3,4,0,4,0,,,,,0,30,30,13,,,,,,up,0.6171394884331676,2175.128033914094,None,001,49,2019_Oct_22_1203,ACPT_experiment_5_30_19,3.1.0,59.943889247759955,
,,,C,G,d,b,L,G,g,R,c ,,,,,5,19,119,3,4,0,4,0,,,,,0,31,31,19,,,,,,up,0.5670981492921783,2177.029493114822,None,001,49,2019_Oct_22_1203,ACPT_experiment_5_30_19,3.1.0,59.943889247759955,
,,,C,G,d,b,R,G,d,R,i,,,,,5,19,119,3,4,0,4,0,,,,,0,32,32,5,,,,,,up,0.5837657164956909,2178.8809115801214,None,001,49,2019_Oct_22_1203,ACPT_experiment_5_30_19,3.1.0,59.943889247759955,
,,,C,G,d,b,R,G,y,R,y,,,,,5,19,119,3,4,0,4,0,,,,,0,33,33,29,,,,,,down,0.8339772418898974,2180.7323176693353,None,001,49,2019_Oct_22_1203,ACPT_experiment_5_30_19,3.1.0,59.943889247759955,
,,,C,G,d,b,L,D,d,L,c ,,,,,5,19,119,3,4,0,4,0,,,,,0,34,34,12,,,,,,up,0.5671168643470992,2182.850571760009,None,001,49,2019_Oct_22_1203,ACPT_experiment_5_30_19,3.1.0,59.943889247759955,
,,,C,G,d,b,L,G,g,L,c ,,,,,5,19,119,3,4,0,4,0,,,,,0,35,35,18,,,,,,up,0.5504055280648572,2184.718691600351,None,001,49,2019_Oct_22_1203,ACPT_experiment_5_30_19,3.1.0,59.943889247759955,
,,,C,G,d,b,L,G,d,R,i,,,,,5,19,119,3,4,0,4,0,,,,,1,0,36,17,,,,,,up,0.4999204610180641,2186.570517570871,None,001,49,2019_Oct_22_1203,ACPT_experiment_5_30_19,3.1.0,59.943889247759955,
,,,C,G,d,b,R,G,y,R,y,,,,,5,19,119,3,4,0,4,0,,,,,1,1,37,29,,,,,,down,0.7005446382727314,2188.354769818413,None,001,49,2019_Oct_22_1203,ACPT_experiment_5_30_19,3.1.0,59.943889247759955,
,,,C,G,d,b,R,U,g,R,u,,,,,5,19,119,3,4,0,4,0,,,,,1,2,38,11,,,,,,up,0.6170268962500813,2190.339632659702,None,001,49,2019_Oct_22_1203,ACPT_experiment_5_30_19,3.1.0,59.943889247759955,
,,,C,G,d,b,L,G,y,R,y,,,,,5,19,119,3,4,0,4,0,,,,,1,3,39,35,,,,,,down,0.6171651461690999,2192.2577651628917,None,001,49,2019_Oct_22_1203,ACPT_experiment_5_30_19,3.1.0,59.943889247759955,
,,,C,G,d,b,R,G,g,L,c ,,,,,5,19,119,3,4,0,4,0,,,,,1,4,40,6,,,,,,up,0.5671093179539639,2194.1758732157687,None,001,49,2019_Oct_22_1203,ACPT_experiment_5_30_19,3.1.0,59.943889247759955,
,,,C,G,d,b,R,G,g,R,c ,,,,,5,19,119,3,4,0,4,0,,,,,1,5,41,7,,,,,,up,0.9340490533654702,2196.027310094267,None,001,49,2019_Oct_22_1203,ACPT_experiment_5_30_19,3.1.0,59.943889247759955,
,,,C,G,d,b,L,D,y,L,y,,,,,5,19,119,3,4,0,4,0,,,,,1,6,42,32,,,,,,down,1.084170354085927,2198.2456393168277,None,001,49,2019_Oct_22_1203,ACPT_experiment_5_30_19,3.1.0,59.943889247759955,
,,,C,G,d,b,L,D,d,R,c ,,,,,5,19,119,3,4,0,4,0,,,,,1,7,43,13,,,,,,up,0.533730112613739,2200.6141299869205,None,001,49,2019_Oct_22_1203,ACPT_experiment_5_30_19,3.1.0,59.943889247759955,
,,,C,G,d,b,L,U,d,L,u,,,,,5,19,119,3,4,0,4,0,,,,,1,8,44,20,,,,,,up,0.6004504894740421,2202.432183735954,None,001,49,2019_Oct_22_1203,ACPT_experiment_5_30_19,3.1.0,59.943889247759955,
,,,C,G,d,b,L,G,d,L,i,,,,,5,19,119,3,4,0,4,0,,,,,1,9,45,16,,,,,,up,0.4503406592707506,2204.316954239579,None,001,49,2019_Oct_22_1203,ACPT_experiment_5_30_19,3.1.0,59.943889247759955,
,,,C,G,d,b,L,G,g,L,c ,,,,,5,19,119,3,4,0,4,0,,,,,1,10,46,18,,,,,,up,0.4970528316935088,2206.0716125524887,None,001,49,2019_Oct_22_1203,ACPT_experiment_5_30_19,3.1.0,59.943889247759955,
,,,C,G,d,b,R,G,d,L,i,,,,,5,19,119,3,4,0,4,0,,,,,1,11,47,4,,,,,,up,0.5168871672381101,2207.8531233463964,None,001,49,2019_Oct_22_1203,ACPT_experiment_5_30_19,3.1.0,59.943889247759955,
,,,C,G,d,b,R,D,d,L,c,,,,,5,19,119,3,4,0,4,0,,,,,1,12,48,0,,,,,,up,0.46703328049852644,2209.6543287166514,None,001,49,2019_Oct_22_1203,ACPT_experiment_5_30_19,3.1.0,59.943889247759955,
,,,C,G,d,b,R,U,d,L,u,,,,,5,19,119,3,4,0,4,0,,,,,1,13,49,8,,,,,,up,0.4169819801190897,2211.389009614407,None,001,49,2019_Oct_22_1203,ACPT_experiment_5_30_19,3.1.0,59.943889247759955,
,,,C,G,d,b,L,D,g,L,i,,,,,5,19,119,3,4,0,4,0,,,,,1,14,50,14,,,,,,up,0.5001091208423531,2213.107256279429,None,001,49,2019_Oct_22_1203,ACPT_experiment_5_30_19,3.1.0,59.943889247759955,
,,,C,G,d,b,L,U,g,R,u,,,,,5,19,119,3,4,0,4,0,,,,,1,15,51,23,,,,,,up,0.7839274507891787,2214.8916760568945,None,001,49,2019_Oct_22_1203,ACPT_experiment_5_30_19,3.1.0,59.943889247759955,
,,,C,G,d,b,R,G,d,R,i,,,,,5,19,119,3,4,0,4,0,,,,,1,16,52,5,,,,,,up,0.567095130735197,2216.959917182865,None,001,49,2019_Oct_22_1203,ACPT_experiment_5_30_19,3.1.0,59.943889247759955,
,,,C,G,d,b,L,D,y,R,y,,,,,5,19,119,3,4,0,4,0,,,,,1,17,53,33,,,,,,down,0.8173280878859259,2218.8113121034185,None,001,49,2019_Oct_22_1203,ACPT_experiment_5_30_19,3.1.0,59.943889247759955,
,,,C,G,d,b,L,U,y,R,u,,,,,5,19,119,3,4,0,4,0,,,,,1,18,54,25,,,,,,down,0.6004459616383429,2220.929611774305,None,001,49,2019_Oct_22_1203,ACPT_experiment_5_30_19,3.1.0,59.943889247759955,
,,,C,G,d,b,R,D,d,R,c ,,,,,5,19,119,3,4,0,4,0,,,,,1,19,55,1,,,,,,up,0.5504052262090227,2222.8477403533707,None,001,49,2019_Oct_22_1203,ACPT_experiment_5_30_19,3.1.0,59.943889247759955,
,,,C,G,d,b,R,U,d,R,u,,,,,5,19,119,3,4,0,4,0,,,,,1,20,56,9,,,,,,up,0.5003681130483528,2224.6824761586804,None,001,49,2019_Oct_22_1203,ACPT_experiment_5_30_19,3.1.0,59.943889247759955,
,,,C,G,d,b,R,D,y,R,y,,,,,5,19,119,3,4,0,4,0,,,,,1,21,57,27,,,,,,down,0.5666942663410737,2226.484221850671,None,001,49,2019_Oct_22_1203,ACPT_experiment_5_30_19,3.1.0,59.943889247759955,
,,,C,G,d,b,R,G,y,L,y,,,,,5,19,119,3,4,0,4,0,,,,,1,22,58,28,,,,,,down,0.9007072781337229,2228.335254544362,None,001,49,2019_Oct_22_1203,ACPT_experiment_5_30_19,3.1.0,59.943889247759955,
,,,C,G,d,b,L,G,y,L,y,,,,,5,19,119,3,4,0,4,0,,,,,1,23,59,34,,,,,,down,0.5504203189952932,2230.5202450102497,None,001,49,2019_Oct_22_1203,ACPT_experiment_5_30_19,3.1.0,59.943889247759955,
,,,C,G,d,b,L,G,g,R,c ,,,,,5,19,119,3,4,0,4,0,,,,,1,24,60,19,,,,,,up,0.8840034882446162,2232.354983834117,None,001,49,2019_Oct_22_1203,ACPT_experiment_5_30_19,3.1.0,59.943889247759955,
,,,C,G,d,b,R,D,g,L,i,,,,,5,19,119,3,4,0,4,0,,,,,1,25,61,2,,,,,,up,0.6171591090551374,2234.523279263931,None,001,49,2019_Oct_22_1203,ACPT_experiment_5_30_19,3.1.0,59.943889247759955,
,,,C,G,d,b,L,U,y,L,u,,,,,5,19,119,3,4,0,4,0,,,,,1,26,62,24,,,,,,down,0.7338812819571103,2236.4247526518775,None,001,49,2019_Oct_22_1203,ACPT_experiment_5_30_19,3.1.0,59.943889247759955,
,,,C,G,d,b,R,U,y,L,u,,,,,5,19,119,3,4,0,4,0,,,,,1,27,63,30,,,,,,down,0.5504157911591392,2238.4429551554085,None,001,49,2019_Oct_22_1203,ACPT_experiment_5_30_19,3.1.0,59.943889247759955,
,,,C,G,d,b,R,U,g,L,u,,,,,5,19,119,3,4,0,4,0,,,,,1,28,64,10,,,,,,up,0.650493941604509,2240.2776867347393,None,001,49,2019_Oct_22_1203,ACPT_experiment_5_30_19,3.1.0,59.943889247759955,
,,,C,G,d,b,L,U,g,L,u,,,,,5,19,119,3,4,0,4,0,,,,,1,29,65,22,,,,,,up,0.6838514133337412,2242.212491031112,None,001,49,2019_Oct_22_1203,ACPT_experiment_5_30_19,3.1.0,59.943889247759955,
,,,C,G,d,b,R,U,y,R,u,,,,,5,19,119,3,4,0,4,0,,,,,1,30,66,31,,,,,,down,0.8506499406398689,2244.1806576289055,None,001,49,2019_Oct_22_1203,ACPT_experiment_5_30_19,3.1.0,59.943889247759955,
,,,C,G,d,b,R,D,y,L,y,,,,,5,19,119,3,4,0,4,0,,,,,1,31,67,26,,,,,,down,0.8006264109867516,2246.3156037370945,None,001,49,2019_Oct_22_1203,ACPT_experiment_5_30_19,3.1.0,59.943889247759955,
,,,C,G,d,b,L,D,d,L,c ,,,,,5,19,119,3,4,0,4,0,,,,,1,32,68,12,,,,,,up,1.2008925269883548,2248.4005679717193,None,001,49,2019_Oct_22_1203,ACPT_experiment_5_30_19,3.1.0,59.943889247759955,
,,,C,G,d,b,L,U,d,R,u,,,,,5,19,119,3,4,0,4,0,,,,,1,33,69,21,,,,,,up,1.1008484862386467,2250.8690815526616,None,001,49,2019_Oct_22_1203,ACPT_experiment_5_30_19,3.1.0,59.943889247759955,
,,,C,G,d,b,R,D,g,R,i,,,,,5,19,119,3,4,0,4,0,,,,,1,34,70,3,,,,,,up,0.8505551579446546,2253.2542168489217,None,001,49,2019_Oct_22_1203,ACPT_experiment_5_30_19,3.1.0,59.943889247759955,
,,,C,G,d,b,L,D,g,R,i,,,,,5,19,119,3,4,0,4,0,,,,,1,35,71,15,,,,,,up,1.0341643320643925,2255.3891756350513,None,001,49,2019_Oct_22_1203,ACPT_experiment_5_30_19,3.1.0,59.943889247759955,
,,,C,G,d,b,,,,,,,,,,5,19,119,3,5,0,5,0,0,0,0,0,,,,,,,,,,,,,,001,49,2019_Oct_22_1203,ACPT_experiment_5_30_19,3.1.0,59.943889247759955,
,,,C,G,d,b,L,D,d,L,c ,,,,,5,19,119,3,5,0,5,0,,,,,0,0,0,12,,,,,,up,0.7336216860394416,2267.765572811976,None,001,49,2019_Oct_22_1203,ACPT_experiment_5_30_19,3.1.0,59.943889247759955,
,,,C,G,d,b,R,U,d,L,u,,,,,5,19,119,3,5,0,5,0,,,,,0,1,1,8,,,,,,up,0.8173223526273432,2269.766801062894,None,001,49,2019_Oct_22_1203,ACPT_experiment_5_30_19,3.1.0,59.943889247759955,
,,,C,G,d,b,L,D,y,L,y,,,,,5,19,119,3,5,0,5,0,,,,,0,2,2,32,,,,,,down,0.6838565448806548,2271.868421997917,None,001,49,2019_Oct_22_1203,ACPT_experiment_5_30_19,3.1.0,59.943889247759955,
,,,C,G,d,b,L,G,g,R,c ,,,,,5,19,119,3,5,0,5,0,,,,,0,3,3,19,,,,,,up,0.9006906760691891,2273.836594330968,None,001,49,2019_Oct_22_1203,ACPT_experiment_5_30_19,3.1.0,59.943889247759955,
,,,C,G,d,b,R,D,y,R,y,,,,,5,19,119,3,5,0,5,0,,,,,0,4,4,27,,,,,,down,0.7172439003256841,2276.021570307781,None,001,49,2019_Oct_22_1203,ACPT_experiment_5_30_19,3.1.0,59.943889247759955,
,,,C,G,d,b,R,U,g,L,u,,,,,5,19,119,3,5,0,5,0,,,,,0,5,5,10,,,,,,up,0.6003424251271099,2278.023117922049,None,001,49,2019_Oct_22_1203,ACPT_experiment_5_30_19,3.1.0,59.943889247759955,
,,,C,G,d,b,L,U,d,L,u,,,,,5,19,119,3,5,0,5,0,,,,,0,6,6,20,,,,,,up,0.6336820873689248,2279.908032410852,None,001,49,2019_Oct_22_1203,ACPT_experiment_5_30_19,3.1.0,59.943889247759955,
,,,C,G,d,b,R,U,d,R,u,,,,,5,19,119,3,5,0,5,0,,,,,0,7,7,9,,,,,,up,0.6838459799305383,2281.8260154954614,None,001,49,2019_Oct_22_1203,ACPT_experiment_5_30_19,3.1.0,59.943889247759955,
,,,C,G,d,b,L,G,y,L,y,,,,,5,19,119,3,5,0,5,0,,,,,0,8,8,34,,,,,,down,0.800615242324966,2283.794179678409,None,001,49,2019_Oct_22_1203,ACPT_experiment_5_30_19,3.1.0,59.943889247759955,
,,,C,G,d,b,R,G,d,R,i,,,,,5,19,119,3,5,0,5,0,,,,,0,9,9,5,,,,,,up,0.5504293746666917,2285.8790847493137,None,001,49,2019_Oct_22_1203,ACPT_experiment_5_30_19,3.1.0,59.943889247759955,
,,,C,G,d,b,L,G,g,L,c ,,,,,5,19,119,3,5,0,5,0,,,,,0,10,10,18,,,,,,down,0.5170468489127416,2287.7138444012253,None,001,49,2019_Oct_22_1203,ACPT_experiment_5_30_19,3.1.0,59.943889247759955,
,,,C,G,d,b,L,G,d,L,i,,,,,5,19,119,3,5,0,5,0,,,,,0,11,11,16,,,,,,up,0.7672665244117525,2289.498513209659,None,001,49,2019_Oct_22_1203,ACPT_experiment_5_30_19,3.1.0,59.943889247759955,
,,,C,G,d,b,R,D,d,R,c ,,,,,5,19,119,3,5,0,5,0,,,,,0,12,12,1,,,,,,up,0.6171231882244683,2291.550105785336,None,001,49,2019_Oct_22_1203,ACPT_experiment_5_30_19,3.1.0,59.943889247759955,
,,,C,G,d,b,R,U,y,R,u,,,,,5,19,119,3,5,0,5,0,,,,,0,13,13,31,,,,,,down,0.6501042458721713,2293.468494865887,None,001,49,2019_Oct_22_1203,ACPT_experiment_5_30_19,3.1.0,59.943889247759955,
,,,C,G,d,b,R,G,d,L,i,,,,,5,19,119,3,5,0,5,0,,,,,0,14,14,4,,,,,,up,0.717215525888605,2295.4030247754117,None,001,49,2019_Oct_22_1203,ACPT_experiment_5_30_19,3.1.0,59.943889247759955,
,,,C,G,d,b,R,D,g,R,i,,,,,5,19,119,3,5,0,5,0,,,,,0,15,15,3,,,,,,up,0.6838725432339743,2297.4045319410134,None,001,49,2019_Oct_22_1203,ACPT_experiment_5_30_19,3.1.0,59.943889247759955,
,,,C,G,d,b,L,G,y,R,y,,,,,5,19,119,3,5,0,5,0,,,,,0,16,16,35,,,,,,down,0.9338504323027337,2299.389551143565,None,001,49,2019_Oct_22_1203,ACPT_experiment_5_30_19,3.1.0,59.943889247759955,
,,,C,G,d,b,R,G,y,R,y,,,,,5,19,119,3,5,0,5,0,,,,,0,17,17,29,,,,,,down,0.7005274324965285,2301.607757812705,None,001,49,2019_Oct_22_1203,ACPT_experiment_5_30_19,3.1.0,59.943889247759955,
,,,C,G,d,b,L,D,g,R,i,,,,,5,19,119,3,5,0,5,0,,,,,0,18,18,15,,,,,,up,0.6838671098312261,2303.609264374596,None,001,49,2019_Oct_22_1203,ACPT_experiment_5_30_19,3.1.0,59.943889247759955,
,,,C,G,d,b,R,D,d,L,c,,,,,5,19,119,3,5,0,5,0,,,,,0,19,19,0,,,,,,up,0.6004441505037903,2305.5774599505376,None,001,49,2019_Oct_22_1203,ACPT_experiment_5_30_19,3.1.0,59.943889247759955,
,,,C,G,d,b,R,D,y,L,y,,,,,5,19,119,3,5,0,5,0,,,,,0,20,20,26,,,,,,down,0.6505042046992457,2307.462208418696,None,001,49,2019_Oct_22_1203,ACPT_experiment_5_30_19,3.1.0,59.943889247759955,
,,,C,G,d,b,L,U,y,R,u,,,,,5,19,119,3,5,0,5,0,,,,,0,21,21,25,,,,,,down,0.7005256213624307,2309.4137095622764,None,001,49,2019_Oct_22_1203,ACPT_experiment_5_30_19,3.1.0,59.943889247759955,
,,,C,G,d,b,L,D,g,L,i,,,,,5,19,119,3,5,0,5,0,,,,,0,22,22,14,,,,,,up,0.7338843005140916,2311.4152312169526,None,001,49,2019_Oct_22_1203,ACPT_experiment_5_30_19,3.1.0,59.943889247759955,
,,,C,G,d,b,R,U,g,R,u,,,,,5,19,119,3,5,0,5,0,,,,,0,23,23,11,,,,,,up,0.5003838095458377,2313.4167516642065,None,001,49,2019_Oct_22_1203,ACPT_experiment_5_30_19,3.1.0,59.943889247759955,
,,,C,G,d,b,R,G,g,R,c ,,,,,5,19,119,3,5,0,5,0,,,,,0,24,24,7,,,,,,up,0.6671726774693525,2315.2014491489326,None,001,49,2019_Oct_22_1203,ACPT_experiment_5_30_19,3.1.0,59.943889247759955,
,,,C,G,d,b,L,U,g,R,u,,,,,5,19,119,3,5,0,5,0,,,,,0,25,25,23,,,,,,up,1.017443940110752,2317.152931275603,None,001,49,2019_Oct_22_1203,ACPT_experiment_5_30_19,3.1.0,59.943889247759955,
,,,C,G,d,b,L,U,y,L,u,,,,,5,19,119,3,5,0,5,0,,,,,0,26,26,24,,,,,,down,1.1675504499012277,2319.4546943242976,None,001,49,2019_Oct_22_1203,ACPT_experiment_5_30_19,3.1.0,59.943889247759955,
,,,C,G,d,b,R,U,y,L,u,,,,,5,19,119,3,5,0,5,0,,,,,0,27,27,30,,,,,,down,0.6838532244682938,2321.8898794116594,None,001,49,2019_Oct_22_1203,ACPT_experiment_5_30_19,3.1.0,59.943889247759955,
,,,C,G,d,b,L,U,g,L,u,,,,,5,19,119,3,5,0,5,0,,,,,0,28,28,22,,,,,,up,0.7505666586471307,2323.858045707597,None,001,49,2019_Oct_22_1203,ACPT_experiment_5_30_19,3.1.0,59.943889247759955,
,,,C,G,d,b,R,G,y,L,y,,,,,5,19,119,3,5,0,5,0,,,,,0,29,29,28,,,,,,down,0.9673995824127815,2325.892932078539,None,001,49,2019_Oct_22_1203,ACPT_experiment_5_30_19,3.1.0,59.943889247759955,
,,,C,G,d,b,L,D,y,R,y,,,,,5,19,119,3,5,0,5,0,,,,,0,30,30,33,,,,,,down,0.9340167548034515,2328.1613445981866,None,001,49,2019_Oct_22_1203,ACPT_experiment_5_30_19,3.1.0,59.943889247759955,
,,,C,G,d,b,R,D,g,L,i,,,,,5,19,119,3,5,0,5,0,,,,,0,31,31,2,,,,,,up,0.9840749978648091,2330.396360706716,None,001,49,2019_Oct_22_1203,ACPT_experiment_5_30_19,3.1.0,59.943889247759955,
,,,C,G,d,b,R,G,g,L,c ,,,,,5,19,119,3,5,0,5,0,,,,,0,32,32,6,,,,,,up,0.6171506570949532,2332.648055249256,None,001,49,2019_Oct_22_1203,ACPT_experiment_5_30_19,3.1.0,59.943889247759955,
,,,C,G,d,b,L,G,d,R,i,,,,,5,19,119,3,5,0,5,0,,,,,0,33,33,17,,,,,,up,0.9506121784897914,2334.5495232038,None,001,49,2019_Oct_22_1203,ACPT_experiment_5_30_19,3.1.0,59.943889247759955,
,,,C,G,d,b,L,D,d,R,c ,,,,,5,19,119,3,5,0,5,0,,,,,0,34,34,13,,,,,,up,0.6171621276116639,2336.7678539356402,None,001,49,2019_Oct_22_1203,ACPT_experiment_5_30_19,3.1.0,59.943889247759955,
,,,C,G,d,b,L,U,d,R,u,,,,,5,19,119,3,5,0,5,0,,,,,0,35,35,21,,,,,,up,0.46701909327975955,2338.6526479840113,None,001,49,2019_Oct_22_1203,ACPT_experiment_5_30_19,3.1.0,59.943889247759955,
,,,C,G,d,b,R,U,y,R,u,,,,,5,19,119,3,5,0,5,0,,,,,1,0,36,31,,,,,,down,0.667173884892236,2340.4039886007204,None,001,49,2019_Oct_22_1203,ACPT_experiment_5_30_19,3.1.0,59.943889247759955,
,,,C,G,d,b,R,D,d,L,c,,,,,5,19,119,3,5,0,5,0,,,,,1,1,37,0,,,,,,up,0.717210998052451,2342.3554710292465,None,001,49,2019_Oct_22_1203,ACPT_experiment_5_30_19,3.1.0,59.943889247759955,
,,,C,G,d,b,R,G,y,L,y,,,,,5,19,119,3,5,0,5,0,,,,,1,2,38,28,,,,,,down,0.8006004513949847,2344.373680173603,None,001,49,2019_Oct_22_1203,ACPT_experiment_5_30_19,3.1.0,59.943889247759955,
,,,C,G,d,b,L,G,y,L,y,,,,,5,19,119,3,5,0,5,0,,,,,1,3,39,34,,,,,,down,0.6004577340113428,2346.4752769601682,None,001,49,2019_Oct_22_1203,ACPT_experiment_5_30_19,3.1.0,59.943889247759955,
,,,C,G,d,b,L,D,y,L,y,,,,,5,19,119,3,5,0,5,0,,,,,1,4,40,32,,,,,,down,0.5504492971440413,2348.360044445236,None,001,49,2019_Oct_22_1203,ACPT_experiment_5_30_19,3.1.0,59.943889247759955,
,,,C,G,d,b,R,U,d,L,u,,,,,5,19,119,3,5,0,5,0,,,,,1,5,41,8,,,,,,up,0.7001138901623563,2350.2285074955307,None,001,49,2019_Oct_22_1203,ACPT_experiment_5_30_19,3.1.0,59.943889247759955,
,,,C,G,d,b,R,G,g,R,c ,,,,,5,19,119,3,5,0,5,0,,,,,1,6,42,7,,,,,,up,0.5671072049640316,2352.2129794336643,None,001,49,2019_Oct_22_1203,ACPT_experiment_5_30_19,3.1.0,59.943889247759955,
,,,C,G,d,b,L,U,d,R,u,,,,,5,19,119,3,5,0,5,0,,,,,1,7,43,21,,,,,,up,0.6671699607682058,2354.0643945785505,None,001,49,2019_Oct_22_1203,ACPT_experiment_5_30_19,3.1.0,59.943889247759955,
,,,C,G,d,b,L,D,d,R,c ,,,,,5,19,119,3,5,0,5,0,,,,,1,8,44,13,,,,,,up,0.5504311858012443,2356.0158601031562,None,001,49,2019_Oct_22_1203,ACPT_experiment_5_30_19,3.1.0,59.943889247759955,
,,,C,G,d,b,R,D,g,L,i,,,,,5,19,119,3,5,0,5,0,,,,,1,9,45,2,,,,,,up,0.7172037535156051,2357.8506146235213,None,001,49,2019_Oct_22_1203,ACPT_experiment_5_30_19,3.1.0,59.943889247759955,
,,,C,G,d,b,L,D,g,R,i,,,,,5,19,119,3,5,0,5,0,,,,,1,10,46,15,,,,,,up,0.5337439979762166,2359.8521368819092,None,001,49,2019_Oct_22_1203,ACPT_experiment_5_30_19,3.1.0,59.943889247759955,
,,,C,G,d,b,L,G,g,L,c ,,,,,5,19,119,3,5,0,5,0,,,,,1,11,47,18,,,,,,up,0.5504154893037594,2361.670188517952,None,001,49,2019_Oct_22_1203,ACPT_experiment_5_30_19,3.1.0,59.943889247759955,
,,,C,G,d,b,R,G,d,R,i,,,,,5,19,119,3,5,0,5,0,,,,,1,12,48,5,,,,,,up,0.6333763075258503,2363.5220247515654,None,001,49,2019_Oct_22_1203,ACPT_experiment_5_30_19,3.1.0,59.943889247759955,
,,,C,G,d,b,R,D,g,R,i,,,,,5,19,119,3,5,0,5,0,,,,,1,13,49,3,,,,,,up,0.5170725066491286,2365.439729223346,None,001,49,2019_Oct_22_1203,ACPT_experiment_5_30_19,3.1.0,59.943889247759955,
,,,C,G,d,b,L,U,d,L,u,,,,,5,19,119,3,5,0,5,0,,,,,1,14,50,20,,,,,,up,0.5837506237094203,2367.2411063495047,None,001,49,2019_Oct_22_1203,ACPT_experiment_5_30_19,3.1.0,59.943889247759955,
,,,C,G,d,b,L,U,y,R,u,,,,,5,19,119,3,5,0,5,0,,,,,1,15,51,25,,,,,,down,0.4670212062696919,2369.1091893634493,None,001,49,2019_Oct_22_1203,ACPT_experiment_5_30_19,3.1.0,59.943889247759955,
,,,C,G,d,b,L,G,y,R,y,,,,,5,19,119,3,5,0,5,0,,,,,1,16,52,35,,,,,,down,0.4303255121512848,2370.8805409012994,None,001,49,2019_Oct_22_1203,ACPT_experiment_5_30_19,3.1.0,59.943889247759955,
,,,C,G,d,b,R,U,g,L,u,,,,,5,19,119,3,5,0,5,0,,,,,1,17,53,10,,,,,,up,0.4336570937152828,2372.5951825034763,None,001,49,2019_Oct_22_1203,ACPT_experiment_5_30_19,3.1.0,59.943889247759955,
,,,C,G,d,b,L,U,g,R,u,,,,,5,19,119,3,5,0,5,0,,,,,1,18,54,23,,,,,,up,0.7338770559767909,2374.313172892994,None,001,49,2019_Oct_22_1203,ACPT_experiment_5_30_19,3.1.0,59.943889247759955,
,,,C,G,d,b,R,D,y,R,y,,,,,5,19,119,3,5,0,5,0,,,,,1,19,55,27,,,,,,down,0.8339712047759349,2376.331359398172,None,001,49,2019_Oct_22_1203,ACPT_experiment_5_30_19,3.1.0,59.943889247759955,
,,,C,G,d,b,L,D,d,L,c ,,,,,5,19,119,3,5,0,5,0,,,,,1,20,56,12,,,,,,up,0.5671117327997308,2378.4496282797754,None,001,49,2019_Oct_22_1203,ACPT_experiment_5_30_19,3.1.0,59.943889247759955,
,,,C,G,d,b,R,U,g,R,u,,,,,5,19,119,3,5,0,5,0,,,,,1,21,57,11,,,,,,up,0.9006807148307416,2380.301056102602,None,001,49,2019_Oct_22_1203,ACPT_experiment_5_30_19,3.1.0,59.943889247759955,
,,,C,G,d,b,R,G,d,L,i,,,,,5,19,119,3,5,0,5,0,,,,,1,22,58,4,,,,,,up,0.667172979325187,2382.4860510963244,None,001,49,2019_Oct_22_1203,ACPT_experiment_5_30_19,3.1.0,59.943889247759955,
,,,C,G,d,b,R,U,y,L,u,,,,,5,19,119,3,5,0,5,0,,,,,1,23,59,30,,,,,,down,0.6504963564507307,2384.4375398638213,None,001,49,2019_Oct_22_1203,ACPT_experiment_5_30_19,3.1.0,59.943889247759955,
,,,C,G,d,b,L,D,y,R,y,,,,,5,19,119,3,5,0,5,0,,,,,1,24,60,33,,,,,,down,0.5504215264177219,2386.3723456694725,None,001,49,2019_Oct_22_1203,ACPT_experiment_5_30_19,3.1.0,59.943889247759955,
,,,C,G,d,b,L,G,g,R,c ,,,,,5,19,119,3,5,0,5,0,,,,,1,25,61,19,,,,,,up,0.6671744886034503,2388.2070784562256,None,001,49,2019_Oct_22_1203,ACPT_experiment_5_30_19,3.1.0,59.943889247759955,
,,,C,G,d,b,R,D,y,L,y,,,,,5,19,119,3,5,0,5,0,,,,,1,26,62,26,,,,,,down,0.7336150452138099,2390.175528798394,None,001,49,2019_Oct_22_1203,ACPT_experiment_5_30_19,3.1.0,59.943889247759955,
