facing_vig,person_vig,text_vig,facing_train,person_train,food_train,correct_key_train,facing_exp,person_exp,food_exp,showL_R,consistent,vig_random.thisRepN,vig_random.thisTrialN,vig_random.thisN,vig_random.thisIndex,trainTrials.thisRepN,trainTrials.thisTrialN,trainTrials.thisN,trainTrials.thisIndex,expBlock.thisRepN,expBlock.thisTrialN,expBlock.thisN,expBlock.thisIndex,breakLoop.thisRepN,breakLoop.thisTrialN,breakLoop.thisN,breakLoop.thisIndex,expTrials.thisRepN,expTrials.thisTrialN,expTrials.thisN,expTrials.thisIndex,train_resp.keys,train_resp.corr,train_resp.rt,train_resp.started,train_resp.stopped,exp_resp.keys,exp_resp.rt,exp_resp.started,exp_resp.stopped,session,participant,date,expName,psychopyVersion,frameRate,
C,U,"did not report her food preferences, so her food preferences are unknown.",,,,,,,,,,0,0,0,2,,,,,,,,,,,,,,,,,,,,,,,,,,001,4,2019_Jun_04_1459,ACPT_experiment_5_30_19,3.1.0,59.95551493584245,
C,G,"cannot eat dairy products because she is lactose intolerant. She enjoys eating wheat products. She thinks eating insects, like crickets, is disgusting.",,,,,,,,,,0,1,1,0,,,,,,,,,,,,,,,,,,,,,,,,,,001,4,2019_Jun_04_1459,ACPT_experiment_5_30_19,3.1.0,59.95551493584245,
C,D,"is allergic to gluten, meaning she can’t eat wheat products. She enjoys eating dairy products. She thinks eating insects, like crickets, is disgusting.",,,,,,,,,,0,2,2,1,,,,,,,,,,,,,,,,,,,,,,,,,,001,4,2019_Jun_04_1459,ACPT_experiment_5_30_19,3.1.0,59.95551493584245,
,,,C,G,y,b,,,,,,,,,,0,0,0,5,,,,,,,,,,,,,b,1,1.701317792860209,174.42520070562387,None,,,,,001,4,2019_Jun_04_1459,ACPT_experiment_5_30_19,3.1.0,59.95551493584245,
,,,C,G,g,v,,,,,,,,,,0,1,1,13,,,,,,,,,,,,,v,1,1.2176244833681267,179.41238530891496,None,,,,,001,4,2019_Jun_04_1459,ACPT_experiment_5_30_19,3.1.0,59.95551493584245,
,,,C,D,g,b,,,,,,,,,,0,2,2,1,,,,,,,,,,,,,b,1,1.4508810038096271,183.93278670809013,None,,,,,001,4,2019_Jun_04_1459,ACPT_experiment_5_30_19,3.1.0,59.95551493584245,
,,,C,D,d,v,,,,,,,,,,0,3,3,9,,,,,,,,,,,,,v,1,1.1175279490635148,188.66952757959007,None,,,,,001,4,2019_Jun_04_1459,ACPT_experiment_5_30_19,3.1.0,59.95551493584245,
,,,C,U,y,n,,,,,,,,,,0,4,4,17,,,,,,,,,,,,,b,0,1.1006090898008551,193.1065191746493,None,,,,,001,4,2019_Jun_04_1459,ACPT_experiment_5_30_19,3.1.0,59.95551493584245,
,,,C,G,d,b,,,,,,,,,,0,5,5,12,,,,,,,,,,,,,v,0,2.7854843558889115,197.49300081018737,None,,,,,001,4,2019_Jun_04_1459,ACPT_experiment_5_30_19,3.1.0,59.95551493584245,
,,,C,U,g,n,,,,,,,,,,0,6,6,16,,,,,,,,,,,,,v,0,1.3176884169697587,203.56434986349996,None,,,,,001,4,2019_Jun_04_1459,ACPT_experiment_5_30_19,3.1.0,59.95551493584245,
,,,C,G,g,v,,,,,,,,,,0,7,7,19,,,,,,,,,,,,,v,1,1.1308945391392626,208.1878962645642,None,,,,,001,4,2019_Jun_04_1459,ACPT_experiment_5_30_19,3.1.0,59.95551493584245,
,,,C,D,y,b,,,,,,,,,,0,8,8,2,,,,,,,,,,,,,b,1,1.2009274900010496,212.6046612364371,None,,,,,001,4,2019_Jun_04_1459,ACPT_experiment_5_30_19,3.1.0,59.95551493584245,
,,,C,G,g,v,,,,,,,,,,0,9,9,4,,,,,,,,,,,,,v,1,1.5343490665945865,217.10830436499236,None,,,,,001,4,2019_Jun_04_1459,ACPT_experiment_5_30_19,3.1.0,59.95551493584245,
,,,C,D,g,b,,,,,,,,,,0,10,10,10,,,,,,,,,,,,,b,1,0.9507373192318482,221.92852265688634,None,,,,,001,4,2019_Jun_04_1459,ACPT_experiment_5_30_19,3.1.0,59.95551493584245,
,,,C,D,d,v,,,,,,,,,,0,11,11,18,,,,,,,,,,,,,v,1,1.9181547277657955,226.14845545114076,None,,,,,001,4,2019_Jun_04_1459,ACPT_experiment_5_30_19,3.1.0,59.95551493584245,
,,,C,G,y,b,,,,,,,,,,0,12,12,14,,,,,,,,,,,,,b,1,1.0842103324939671,231.35243291801817,None,,,,,001,4,2019_Jun_04_1459,ACPT_experiment_5_30_19,3.1.0,59.95551493584245,
,,,C,D,d,v,,,,,,,,,,0,13,13,0,,,,,,,,,,,,,v,1,1.1175517958763521,235.72249708103118,None,,,,,001,4,2019_Jun_04_1459,ACPT_experiment_5_30_19,3.1.0,59.95551493584245,
,,,C,U,d,n,,,,,,,,,,0,14,14,6,,,,,,,,,,,,,b,0,0.9674186159681994,240.1258972739779,None,,,,,001,4,2019_Jun_04_1459,ACPT_experiment_5_30_19,3.1.0,59.95551493584245,
,,,C,U,g,n,,,,,,,,,,0,15,15,7,,,,,,,,,,,,,n,1,0.9671415099910519,244.39613265105436,None,,,,,001,4,2019_Jun_04_1459,ACPT_experiment_5_30_19,3.1.0,59.95551493584245,
,,,C,D,y,b,,,,,,,,,,0,16,16,11,,,,,,,,,,,,,b,1,1.6846211013471475,248.64913583988528,None,,,,,001,4,2019_Jun_04_1459,ACPT_experiment_5_30_19,3.1.0,59.95551493584245,
,,,C,U,d,n,,,,,,,,,,0,17,17,15,,,,,,,,,,,,,n,1,0.9340647763892775,253.61963461856794,None,,,,,001,4,2019_Jun_04_1459,ACPT_experiment_5_30_19,3.1.0,59.95551493584245,
,,,C,U,y,n,,,,,,,,,,0,18,18,8,,,,,,,,,,,,,n,1,0.6638550572752138,257.8595724719671,None,,,,,001,4,2019_Jun_04_1459,ACPT_experiment_5_30_19,3.1.0,59.95551493584245,
,,,C,G,d,b,,,,,,,,,,0,19,19,3,,,,,,,,,,,,,b,1,2.3852102081254998,261.8259460542904,None,,,,,001,4,2019_Jun_04_1459,ACPT_experiment_5_30_19,3.1.0,59.95551493584245,
,,,C,D,g,b,,,,,,,,,,1,0,20,1,,,,,,,,,,,,,b,1,0.9840962904017942,267.4970128096611,None,,,,,001,4,2019_Jun_04_1459,ACPT_experiment_5_30_19,3.1.0,59.95551493584245,
,,,C,D,d,v,,,,,,,,,,1,1,21,0,,,,,,,,,,,,,v,1,1.000768833244365,271.75030880110353,None,,,,,001,4,2019_Jun_04_1459,ACPT_experiment_5_30_19,3.1.0,59.95551493584245,
,,,C,D,y,b,,,,,,,,,,1,2,22,2,,,,,,,,,,,,,b,1,1.167550709185889,276.0202800521147,None,,,,,001,4,2019_Jun_04_1459,ACPT_experiment_5_30_19,3.1.0,59.95551493584245,
,,,C,U,g,n,,,,,,,,,,1,3,23,16,,,,,,,,,,,,,b,0,3.1855511269568524,280.4906239774573,None,,,,,001,4,2019_Jun_04_1459,ACPT_experiment_5_30_19,3.1.0,59.95551493584245,
,,,C,D,d,v,,,,,,,,,,1,4,24,18,,,,,,,,,,,,,b,0,2.1183106677926844,286.96203316095125,None,,,,,001,4,2019_Jun_04_1459,ACPT_experiment_5_30_19,3.1.0,59.95551493584245,
,,,C,G,d,b,,,,,,,,,,1,5,25,3,,,,,,,,,,,,,b,1,2.0515945366059896,292.36619856484685,None,,,,,001,4,2019_Jun_04_1459,ACPT_experiment_5_30_19,3.1.0,59.95551493584245,
,,,C,D,g,b,,,,,,,,,,1,6,26,10,,,,,,,,,,,,,v,0,1.0841795429405465,297.7036538747161,None,,,,,001,4,2019_Jun_04_1459,ACPT_experiment_5_30_19,3.1.0,59.95551493584245,
,,,C,G,y,b,,,,,,,,,,1,7,27,5,,,,,,,,,,,,,n,0,1.2342867630286491,302.0903797136707,None,,,,,001,4,2019_Jun_04_1459,ACPT_experiment_5_30_19,3.1.0,59.95551493584245,
,,,C,D,d,v,,,,,,,,,,1,8,28,9,,,,,,,,,,,,,v,1,6.154703617346968,306.610579773318,None,,,,,001,4,2019_Jun_04_1459,ACPT_experiment_5_30_19,3.1.0,59.95551493584245,
,,,C,U,y,n,,,,,,,,,,1,9,29,17,,,,,,,,,,,,,n,1,1.1175391178221616,316.0511441639319,None,,,,,001,4,2019_Jun_04_1459,ACPT_experiment_5_30_19,3.1.0,59.95551493584245,
,,,C,G,g,v,,,,,,,,,,1,10,30,13,,,,,,,,,,,,,v,1,4.169652247095655,320.4714638198602,None,,,,,001,4,2019_Jun_04_1459,ACPT_experiment_5_30_19,3.1.0,59.95551493584245,
,,,C,U,d,n,,,,,,,,,,1,11,31,15,,,,,,,,,,,,,n,1,1.267656299241935,327.9269771420768,None,,,,,001,4,2019_Jun_04_1459,ACPT_experiment_5_30_19,3.1.0,59.95551493584245,
,,,C,G,g,v,,,,,,,,,,1,12,32,4,,,,,,,,,,,,,v,1,1.184234118929453,332.4805074963515,None,,,,,001,4,2019_Jun_04_1459,ACPT_experiment_5_30_19,3.1.0,59.95551493584245,
,,,C,G,g,v,,,,,,,,,,1,13,33,19,,,,,,,,,,,,,v,1,2.001553966842039,336.9339265252602,None,,,,,001,4,2019_Jun_04_1459,ACPT_experiment_5_30_19,3.1.0,59.95551493584245,
,,,C,U,d,n,,,,,,,,,,1,14,34,6,,,,,,,,,,,,,n,1,1.3677534372618538,342.2213159092644,None,,,,,001,4,2019_Jun_04_1459,ACPT_experiment_5_30_19,3.1.0,59.95551493584245,
,,,C,G,d,b,,,,,,,,,,1,15,35,12,,,,,,,,,,,,,b,1,2.618451937505597,346.90852846463895,None,,,,,001,4,2019_Jun_04_1459,ACPT_experiment_5_30_19,3.1.0,59.95551493584245,
,,,C,G,y,b,,,,,,,,,,1,16,36,14,,,,,,,,,,,,,b,1,1.884787002702069,352.8128511367395,None,,,,,001,4,2019_Jun_04_1459,ACPT_experiment_5_30_19,3.1.0,59.95551493584245,
,,,C,D,y,b,,,,,,,,,,1,17,37,11,,,,,,,,,,,,,b,1,1.250981945246167,357.98351581677343,None,,,,,001,4,2019_Jun_04_1459,ACPT_experiment_5_30_19,3.1.0,59.95551493584245,
,,,C,U,g,n,,,,,,,,,,1,18,38,7,,,,,,,,,,,,,n,1,1.1508953722695878,362.53702836140656,None,,,,,001,4,2019_Jun_04_1459,ACPT_experiment_5_30_19,3.1.0,59.95551493584245,
,,,C,U,y,n,,,,,,,,,,1,19,39,8,,,,,,,,,,,,,n,1,0.9674119750852697,366.9570959656048,None,,,,,001,4,2019_Jun_04_1459,ACPT_experiment_5_30_19,3.1.0,59.95551493584245,
,,,C,D,g,b,,,,,,,,,,2,0,40,10,,,,,,,,,,,,,b,1,1.317431535502692,371.2273147404703,None,,,,,001,4,2019_Jun_04_1459,ACPT_experiment_5_30_19,3.1.0,59.95551493584245,
,,,C,U,d,n,,,,,,,,,,2,1,41,6,,,,,,,,,,,,,n,1,1.3510694237993448,375.830583806146,None,,,,,001,4,2019_Jun_04_1459,ACPT_experiment_5_30_19,3.1.0,59.95551493584245,
,,,C,G,d,b,,,,,,,,,,2,2,42,3,,,,,,,,,,,,,b,1,2.218373695821356,380.4675260775439,None,,,,,001,4,2019_Jun_04_1459,ACPT_experiment_5_30_19,3.1.0,59.95551493584245,
,,,C,U,d,n,,,,,,,,,,2,3,43,15,,,,,,,,,,,,,n,1,1.2509958307346096,385.9717391146878,None,,,,,001,4,2019_Jun_04_1459,ACPT_experiment_5_30_19,3.1.0,59.95551493584245,
,,,C,U,y,n,,,,,,,,,,2,4,44,17,,,,,,,,,,,,,n,1,1.2340588599654438,390.52551065379157,None,,,,,001,4,2019_Jun_04_1459,ACPT_experiment_5_30_19,3.1.0,59.95551493584245,
,,,C,G,d,b,,,,,,,,,,2,5,45,12,,,,,,,,,,,,,b,1,3.0189874946117925,395.0621161116287,None,,,,,001,4,2019_Jun_04_1459,ACPT_experiment_5_30_19,3.1.0,59.95551493584245,
,,,C,U,g,n,,,,,,,,,,2,6,46,7,,,,,,,,,,,,,n,1,1.4010873541883484,401.36697705755796,None,,,,,001,4,2019_Jun_04_1459,ACPT_experiment_5_30_19,3.1.0,59.95551493584245,
,,,C,U,g,n,,,,,,,,,,2,7,47,16,,,,,,,,,,,,,n,1,1.0174622043159616,406.0539167329771,None,,,,,001,4,2019_Jun_04_1459,ACPT_experiment_5_30_19,3.1.0,59.95551493584245,
,,,C,D,g,b,,,,,,,,,,2,8,48,1,,,,,,,,,,,,,b,1,2.7020887391117867,410.3572457477203,None,,,,,001,4,2019_Jun_04_1459,ACPT_experiment_5_30_19,3.1.0,59.95551493584245,
,,,C,D,d,v,,,,,,,,,,2,9,49,9,,,,,,,,,,,,,v,1,1.1342179996936466,416.3285160763735,None,,,,,001,4,2019_Jun_04_1459,ACPT_experiment_5_30_19,3.1.0,59.95551493584245,
,,,C,G,g,v,,,,,,,,,,2,10,50,19,,,,,,,,,,,,,v,1,2.051348522043554,420.7655420832816,None,,,,,001,4,2019_Jun_04_1459,ACPT_experiment_5_30_19,3.1.0,59.95551493584245,
,,,C,G,g,v,,,,,,,,,,2,11,51,13,,,,,,,,,,,,,v,1,3.5693081889330642,426.08604019787526,None,,,,,001,4,2019_Jun_04_1459,ACPT_experiment_5_30_19,3.1.0,59.95551493584245,
,,,C,D,d,v,,,,,,,,,,2,12,52,0,,,,,,,,,,,,,b,0,1.1008584248083935,432.94132869598616,None,,,,,001,4,2019_Jun_04_1459,ACPT_experiment_5_30_19,3.1.0,59.95551493584245,
,,,C,D,y,b,,,,,,,,,,2,13,53,11,,,,,,,,,,,,,b,1,1.250968361619016,437.3113783697954,None,,,,,001,4,2019_Jun_04_1459,ACPT_experiment_5_30_19,3.1.0,59.95551493584245,
,,,C,G,g,v,,,,,,,,,,2,14,54,4,,,,,,,,,,,,,v,1,1.5679021326905058,441.8481794318541,None,,,,,001,4,2019_Jun_04_1459,ACPT_experiment_5_30_19,3.1.0,59.95551493584245,
,,,C,D,y,b,,,,,,,,,,2,15,55,2,,,,,,,,,,,,,b,1,2.5519754818560614,446.70194928055207,None,,,,,001,4,2019_Jun_04_1459,ACPT_experiment_5_30_19,3.1.0,59.95551493584245,
,,,C,G,y,b,,,,,,,,,,2,16,56,5,,,,,,,,,,,,,b,1,1.067521187440434,452.5397794985038,None,,,,,001,4,2019_Jun_04_1459,ACPT_experiment_5_30_19,3.1.0,59.95551493584245,
,,,C,G,y,b,,,,,,,,,,2,17,57,14,,,,,,,,,,,,,b,1,0.9671490564505802,456.89340898306546,None,,,,,001,4,2019_Jun_04_1459,ACPT_experiment_5_30_19,3.1.0,59.95551493584245,
,,,C,D,d,v,,,,,,,,,,2,18,58,18,,,,,,,,,,,,,v,1,3.70289500279614,461.146396475262,None,,,,,001,4,2019_Jun_04_1459,ACPT_experiment_5_30_19,3.1.0,59.95551493584245,
,,,C,U,y,n,,,,,,,,,,2,19,59,8,,,,,,,,,,,,,n,1,1.1008792530337814,468.13512568778606,None,,,,,001,4,2019_Jun_04_1459,ACPT_experiment_5_30_19,3.1.0,59.95551493584245,
,,,C,D,d,v,,,,,,,,,,3,0,60,9,,,,,,,,,,,,,v,1,1.751360173773719,472.52186148806504,None,,,,,001,4,2019_Jun_04_1459,ACPT_experiment_5_30_19,3.1.0,59.95551493584245,
,,,C,G,g,v,,,,,,,,,,3,1,61,13,,,,,,,,,,,,,v,1,1.1508914481128159,477.5590851518282,None,,,,,001,4,2019_Jun_04_1459,ACPT_experiment_5_30_19,3.1.0,59.95551493584245,
,,,C,D,y,b,,,,,,,,,,3,2,62,2,,,,,,,,,,,,,b,1,0.9340454574521573,482.0125310461335,None,,,,,001,4,2019_Jun_04_1459,ACPT_experiment_5_30_19,3.1.0,59.95551493584245,
,,,C,D,d,v,,,,,,,,,,3,3,63,18,,,,,,,,,,,,,v,1,1.3177249418295105,486.232435465703,None,,,,,001,4,2019_Jun_04_1459,ACPT_experiment_5_30_19,3.1.0,59.95551493584245,
,,,C,D,g,b,,,,,,,,,,3,4,64,1,,,,,,,,,,,,,b,1,0.9006946364606847,490.8193151316773,None,,,,,001,4,2019_Jun_04_1459,ACPT_experiment_5_30_19,3.1.0,59.95551493584245,
,,,C,G,y,b,,,,,,,,,,3,5,65,5,,,,,,,,,,,,,b,1,0.8339851461532817,495.0058711451202,None,,,,,001,4,2019_Jun_04_1459,ACPT_experiment_5_30_19,3.1.0,59.95551493584245,
,,,C,D,d,v,,,,,,,,,,3,6,66,0,,,,,,,,,,,,,v,1,0.9840962904017942,499.1257197812629,None,,,,,001,4,2019_Jun_04_1459,ACPT_experiment_5_30_19,3.1.0,59.95551493584245,
,,,C,G,y,b,,,,,,,,,,3,7,67,14,,,,,,,,,,,,,b,1,0.7005402057220635,503.3956819765226,None,,,,,001,4,2019_Jun_04_1459,ACPT_experiment_5_30_19,3.1.0,59.95551493584245,
,,,C,G,d,b,,,,,,,,,,3,8,68,3,,,,,,,,,,,,,b,1,0.7503389869380044,507.39900634264995,None,,,,,001,4,2019_Jun_04_1459,ACPT_experiment_5_30_19,3.1.0,59.95551493584245,
,,,C,U,y,n,,,,,,,,,,3,9,69,8,,,,,,,,,,,,,n,1,1.200964316722093,511.4351816523267,None,,,,,001,4,2019_Jun_04_1459,ACPT_experiment_5_30_19,3.1.0,59.95551493584245,
,,,C,U,g,n,,,,,,,,,,3,10,70,7,,,,,,,,,,,,,n,1,1.1809299773121893,515.9420054624279,None,,,,,001,4,2019_Jun_04_1459,ACPT_experiment_5_30_19,3.1.0,59.95551493584245,
,,,C,U,y,n,,,,,,,,,,3,11,71,17,,,,,,,,,,,,,n,1,1.1842796995406388,520.3920952954795,None,,,,,001,4,2019_Jun_04_1459,ACPT_experiment_5_30_19,3.1.0,59.95551493584245,
,,,C,G,g,v,,,,,,,,,,3,12,72,4,,,,,,,,,,,,,v,1,1.7676203780974902,524.8792992177041,None,,,,,001,4,2019_Jun_04_1459,ACPT_experiment_5_30_19,3.1.0,59.95551493584245,
,,,C,D,g,b,,,,,,,,,,3,13,73,10,,,,,,,,,,,,,b,1,0.7839469912541972,529.9328054233083,None,,,,,001,4,2019_Jun_04_1459,ACPT_experiment_5_30_19,3.1.0,59.95551493584245,
,,,C,U,g,n,,,,,,,,,,3,14,74,16,,,,,,,,,,,,,n,1,1.2507027262654447,534.0195634403644,None,,,,,001,4,2019_Jun_04_1459,ACPT_experiment_5_30_19,3.1.0,59.95551493584245,
,,,C,G,g,v,,,,,,,,,,3,15,75,19,,,,,,,,,,,,,v,1,3.035685393559106,538.556123317594,None,,,,,001,4,2019_Jun_04_1459,ACPT_experiment_5_30_19,3.1.0,59.95551493584245,
,,,C,U,d,n,,,,,,,,,,3,16,76,15,,,,,,,,,,,,,n,1,1.7180111639281677,544.877670691847,None,,,,,001,4,2019_Jun_04_1459,ACPT_experiment_5_30_19,3.1.0,59.95551493584245,
,,,C,G,d,b,,,,,,,,,,3,17,77,12,,,,,,,,,,,,,b,1,1.134238526061381,549.8981858916231,None,,,,,001,4,2019_Jun_04_1459,ACPT_experiment_5_30_19,3.1.0,59.95551493584245,
,,,C,U,d,n,,,,,,,,,,3,18,78,6,,,,,,,,,,,,,n,1,0.9338190636844956,554.3351983149078,None,,,,,001,4,2019_Jun_04_1459,ACPT_experiment_5_30_19,3.1.0,59.95551493584245,
,,,C,D,y,b,,,,,,,,,,3,19,79,11,,,,,,,,,,,,,b,1,1.5178449607192306,558.5548841890231,None,,,,,001,4,2019_Jun_04_1459,ACPT_experiment_5_30_19,3.1.0,59.95551493584245,
,,,C,D,y,b,,,,,,,,,,4,0,80,2,,,,,,,,,,,,,b,1,0.9173786499195558,563.3419131541414,None,,,,,001,4,2019_Jun_04_1459,ACPT_experiment_5_30_19,3.1.0,59.95551493584245,
,,,C,G,g,v,,,,,,,,,,4,1,81,4,,,,,,,,,,,,,v,1,1.2340244481129048,567.5621001131367,None,,,,,001,4,2019_Jun_04_1459,ACPT_experiment_5_30_19,3.1.0,59.95551493584245,
,,,C,G,y,b,,,,,,,,,,4,2,82,5,,,,,,,,,,,,,b,1,0.8339845424379746,572.0653028303459,None,,,,,001,4,2019_Jun_04_1459,ACPT_experiment_5_30_19,3.1.0,59.95551493584245,
,,,C,D,d,v,,,,,,,,,,4,3,83,9,,,,,,,,,,,,,v,1,4.169899167234689,576.2018203870321,None,,,,,001,4,2019_Jun_04_1459,ACPT_experiment_5_30_19,3.1.0,59.95551493584245,
,,,C,G,d,b,,,,,,,,,,4,4,84,3,,,,,,,,,,,,,b,1,1.7346785751797142,583.6575782145192,None,,,,,001,4,2019_Jun_04_1459,ACPT_experiment_5_30_19,3.1.0,59.95551493584245,
,,,C,G,y,b,,,,,,,,,,4,5,85,14,,,,,,,,,,,,,b,1,2.518618623693328,588.6614362662294,None,,,,,001,4,2019_Jun_04_1459,ACPT_experiment_5_30_19,3.1.0,59.95551493584245,
,,,C,D,y,b,,,,,,,,,,4,6,86,11,,,,,,,,,,,,,b,1,0.7005504689041118,594.4659105315986,None,,,,,001,4,2019_Jun_04_1459,ACPT_experiment_5_30_19,3.1.0,59.95551493584245,
,,,C,U,g,n,,,,,,,,,,4,7,87,7,,,,,,,,,,,,,n,1,1.2340289759886218,598.4692684040019,None,,,,,001,4,2019_Jun_04_1459,ACPT_experiment_5_30_19,3.1.0,59.95551493584245,
,,,C,D,g,b,,,,,,,,,,4,8,88,1,,,,,,,,,,,,,b,1,4.353234653823165,602.9891560402466,None,,,,,001,4,2019_Jun_04_1459,ACPT_experiment_5_30_19,3.1.0,59.95551493584245,
,,,C,D,d,v,,,,,,,,,,4,9,89,0,,,,,,,,,,,,,v,1,1.200938356898405,610.6283743236854,None,,,,,001,4,2019_Jun_04_1459,ACPT_experiment_5_30_19,3.1.0,59.95551493584245,
,,,C,U,y,n,,,,,,,,,,4,10,90,17,,,,,,,,,,,,,n,1,1.100466914511344,615.1322426385814,None,,,,,001,4,2019_Jun_04_1459,ACPT_experiment_5_30_19,3.1.0,59.95551493584245,
,,,C,U,d,n,,,,,,,,,,4,11,91,15,,,,,,,,,,,,,n,1,4.603564585009735,619.501883596171,None,,,,,001,4,2019_Jun_04_1459,ACPT_experiment_5_30_19,3.1.0,59.95551493584245,
,,,C,G,g,v,,,,,,,,,,4,12,92,19,,,,,,,,,,,,,v,1,1.100858122947102,627.391302011707,None,,,,,001,4,2019_Jun_04_1459,ACPT_experiment_5_30_19,3.1.0,59.95551493584245,
,,,C,U,d,n,,,,,,,,,,4,13,93,6,,,,,,,,,,,,,n,1,0.8339842405766831,631.778021813494,None,,,,,001,4,2019_Jun_04_1459,ACPT_experiment_5_30_19,3.1.0,59.95551493584245,
,,,C,G,d,b,,,,,,,,,,4,14,94,12,,,,,,,,,,,,,b,1,1.2843354829674354,635.89786079017,None,,,,,001,4,2019_Jun_04_1459,ACPT_experiment_5_30_19,3.1.0,59.95551493584245,
,,,C,G,g,v,,,,,,,,,,4,15,95,13,,,,,,,,,,,,,v,1,0.8503962796530686,640.4683226817579,None,,,,,001,4,2019_Jun_04_1459,ACPT_experiment_5_30_19,3.1.0,59.95551493584245,
,,,C,D,g,b,,,,,,,,,,4,16,96,10,,,,,,,,,,,,,b,1,1.351050406723516,644.6045755086634,None,,,,,001,4,2019_Jun_04_1459,ACPT_experiment_5_30_19,3.1.0,59.95551493584245,
,,,C,U,g,n,,,,,,,,,,4,17,97,16,,,,,,,,,,,,,n,1,0.6335798711188545,649.258413999949,None,,,,,001,4,2019_Jun_04_1459,ACPT_experiment_5_30_19,3.1.0,59.95551493584245,
,,,C,U,y,n,,,,,,,,,,4,18,98,8,,,,,,,,,,,,,n,1,1.1008517839218257,653.1611754606056,None,,,,,001,4,2019_Jun_04_1459,ACPT_experiment_5_30_19,3.1.0,59.95551493584245,
,,,C,D,d,v,,,,,,,,,,4,19,99,18,,,,,,,,,,,,,v,1,1.5511396360525396,657.5479692176923,None,,,,,001,4,2019_Jun_04_1459,ACPT_experiment_5_30_19,3.1.0,59.95551493584245,
,,,C,G,d,b,,,,,,,,,,5,0,100,3,,,,,,,,,,,,,b,1,0.8173364501235483,662.384927366842,None,,,,,001,4,2019_Jun_04_1459,ACPT_experiment_5_30_19,3.1.0,59.95551493584245,
,,,C,U,d,n,,,,,,,,,,5,1,101,6,,,,,,,,,,,,,n,1,1.4008730347522942,666.5050365067509,None,,,,,001,4,2019_Jun_04_1459,ACPT_experiment_5_30_19,3.1.0,59.95551493584245,
,,,C,U,d,n,,,,,,,,,,5,2,102,15,,,,,,,,,,,,,n,1,1.567886436056142,671.1750666805128,None,,,,,001,4,2019_Jun_04_1459,ACPT_experiment_5_30_19,3.1.0,59.95551493584245,
,,,C,G,d,b,,,,,,,,,,5,3,103,12,,,,,,,,,,,,,b,1,2.1016927613163716,676.0287840058554,None,,,,,001,4,2019_Jun_04_1459,ACPT_experiment_5_30_19,3.1.0,59.95551493584245,
,,,C,D,y,b,,,,,,,,,,5,4,104,2,,,,,,,,,,,,,b,1,1.2009365457488457,681.4162982988491,None,,,,,001,4,2019_Jun_04_1459,ACPT_experiment_5_30_19,3.1.0,59.95551493584245,
,,,C,G,y,b,,,,,,,,,,5,5,105,5,,,,,,,,,,,,,b,1,0.8003889143110428,685.9200054213761,None,,,,,001,4,2019_Jun_04_1459,ACPT_experiment_5_30_19,3.1.0,59.95551493584245,
,,,C,D,d,v,,,,,,,,,,5,6,106,9,,,,,,,,,,,,,v,1,2.7187736581472564,690.0062535996622,None,,,,,001,4,2019_Jun_04_1459,ACPT_experiment_5_30_19,3.1.0,59.95551493584245,
,,,C,G,g,v,,,,,,,,,,5,7,107,19,,,,,,,,,,,,,v,1,0.967419521544798,696.0108828994817,None,,,,,001,4,2019_Jun_04_1459,ACPT_experiment_5_30_19,3.1.0,59.95551493584245,
,,,C,G,g,v,,,,,,,,,,5,8,108,4,,,,,,,,,,,,,v,1,0.8504014112477307,700.264427924074,None,,,,,001,4,2019_Jun_04_1459,ACPT_experiment_5_30_19,3.1.0,59.95551493584245,
,,,C,D,y,b,,,,,,,,,,5,9,109,11,,,,,,,,,,,,,b,1,1.0007706443939242,704.4006919197345,None,,,,,001,4,2019_Jun_04_1459,ACPT_experiment_5_30_19,3.1.0,59.95551493584245,
,,,C,G,y,b,,,,,,,,,,5,10,110,14,,,,,,,,,,,,,b,1,0.7836907135060756,708.7042539691356,None,,,,,001,4,2019_Jun_04_1459,ACPT_experiment_5_30_19,3.1.0,59.95551493584245,
,,,C,U,g,n,,,,,,,,,,5,11,111,16,,,,,,,,,,,,,n,1,1.1675639909553865,712.77381451166,None,,,,,001,4,2019_Jun_04_1459,ACPT_experiment_5_30_19,3.1.0,59.95551493584245,
,,,C,U,y,n,,,,,,,,,,5,12,112,8,,,,,,,,,,,,,n,1,0.36652849603342474,717.2443223460941,None,,,,,001,4,2019_Jun_04_1459,ACPT_experiment_5_30_19,3.1.0,59.95551493584245,
,,,C,U,g,n,,,,,,,,,,5,13,113,7,,,,,,,,,,,,,n,1,0.3836342056238209,720.896740593791,None,,,,,001,4,2019_Jun_04_1459,ACPT_experiment_5_30_19,3.1.0,59.95551493584245,
,,,C,G,g,v,,,,,,,,,,5,14,114,13,,,,,,,,,,,,,v,1,1.200948620084091,724.5662247057808,None,,,,,001,4,2019_Jun_04_1459,ACPT_experiment_5_30_19,3.1.0,59.95551493584245,
,,,C,D,d,v,,,,,,,,,,5,15,115,0,,,,,,,,,,,,,b,0,0.8673800384676724,729.0530298731101,None,,,,,001,4,2019_Jun_04_1459,ACPT_experiment_5_30_19,3.1.0,59.95551493584245,
,,,C,D,g,b,,,,,,,,,,5,16,116,1,,,,,,,,,,,,,b,1,1.0338760545419063,733.2231765641991,None,,,,,001,4,2019_Jun_04_1459,ACPT_experiment_5_30_19,3.1.0,59.95551493584245,
,,,C,D,d,v,,,,,,,,,,5,17,117,18,,,,,,,,,,,,,v,1,0.9842493325922987,737.5262333027058,None,,,,,001,4,2019_Jun_04_1459,ACPT_experiment_5_30_19,3.1.0,59.95551493584245,
,,,C,D,g,b,,,,,,,,,,5,18,118,10,,,,,,,,,,,,,b,1,1.5676603441424959,741.796456605447,None,,,,,001,4,2019_Jun_04_1459,ACPT_experiment_5_30_19,3.1.0,59.95551493584245,
,,,C,U,y,n,,,,,,,,,,5,19,119,17,0,0,0,0,0,0,0,0,,,,,b,0,0.7505886238031962,746.6499318403839,None,,,,,001,4,2019_Jun_04_1459,ACPT_experiment_5_30_19,3.1.0,59.95551493584245,
,,,C,U,y,n,R,D,d,L,c,,,,,5,19,119,17,0,0,0,0,,,,,0,0,0,0,,,,,,up,1.5815832591761136,792.137978249295,None,001,4,2019_Jun_04_1459,ACPT_experiment_5_30_19,3.1.0,59.95551493584245,
,,,C,U,y,n,L,U,d,L,u,,,,,5,19,119,17,0,0,0,0,,,,,0,1,1,20,,,,,,up,0.8339703550918784,795.0039033304638,None,001,4,2019_Jun_04_1459,ACPT_experiment_5_30_19,3.1.0,59.95551493584245,
,,,C,U,y,n,R,U,d,R,u,,,,,5,19,119,17,0,0,0,0,,,,,0,2,2,9,,,,,,up,0.9507551288734248,797.1221632860543,None,001,4,2019_Jun_04_1459,ACPT_experiment_5_30_19,3.1.0,59.95551493584245,
,,,C,U,y,n,L,D,g,L,i,,,,,5,19,119,17,0,0,0,0,,,,,0,3,3,14,,,,,,up,0.7505774550445494,799.357239408695,None,001,4,2019_Jun_04_1459,ACPT_experiment_5_30_19,3.1.0,59.95551493584245,
,,,C,U,y,n,R,G,g,R,c ,,,,,5,19,119,17,0,0,0,0,,,,,0,4,4,7,,,,,,up,0.8839982468089147,801.392140574233,None,001,4,2019_Jun_04_1459,ACPT_experiment_5_30_19,3.1.0,59.95551493584245,
,,,C,U,y,n,R,D,g,R,i,,,,,5,19,119,17,0,0,0,0,,,,,0,5,5,3,,,,,,up,0.9173704997447203,803.5604842653302,None,001,4,2019_Jun_04_1459,ACPT_experiment_5_30_19,3.1.0,59.95551493584245,
,,,C,U,y,n,L,G,d,L,i,,,,,5,19,119,17,0,0,0,0,,,,,0,6,6,16,,,,,,up,1.0341296155638702,805.7621712309665,None,001,4,2019_Jun_04_1459,ACPT_experiment_5_30_19,3.1.0,59.95551493584245,
,,,C,U,y,n,R,G,y,R,y,,,,,5,19,119,17,0,0,0,0,,,,,0,7,7,29,,,,,,down,1.8013844431843609,808.097314003935,None,001,4,2019_Jun_04_1459,ACPT_experiment_5_30_19,3.1.0,59.95551493584245,
,,,C,U,y,n,L,G,d,R,i,,,,,5,19,119,17,0,0,0,0,,,,,0,8,8,17,,,,,,up,0.8506474258138041,811.1830260817696,None,001,4,2019_Jun_04_1459,ACPT_experiment_5_30_19,3.1.0,59.95551493584245,
,,,C,U,y,n,L,D,y,R,y,,,,,5,19,119,17,0,0,0,0,,,,,0,9,9,33,,,,,,down,1.1175261379175936,813.3180044626752,None,001,4,2019_Jun_04_1459,ACPT_experiment_5_30_19,3.1.0,59.95551493584245,
,,,C,U,y,n,L,D,d,L,c ,,,,,5,19,119,17,0,0,0,0,,,,,0,10,10,12,,,,,,up,1.0008237714682764,815.7198555185132,None,001,4,2019_Jun_04_1459,ACPT_experiment_5_30_19,3.1.0,59.95551493584245,
,,,C,U,y,n,R,U,d,L,u,,,,,5,19,119,17,0,0,0,0,,,,,0,11,11,8,,,,,,up,1.4511342629775754,818.0049317619014,None,001,4,2019_Jun_04_1459,ACPT_experiment_5_30_19,3.1.0,59.95551493584245,
,,,C,U,y,n,L,D,y,L,y,,,,,5,19,119,17,0,0,0,0,,,,,0,12,12,32,,,,,,down,0.9173644625770976,820.7403978855436,None,001,4,2019_Jun_04_1459,ACPT_experiment_5_30_19,3.1.0,59.95551493584245,
,,,C,U,y,n,L,U,d,R,u,,,,,5,19,119,17,0,0,0,0,,,,,0,13,13,21,,,,,,up,0.8506703670500428,822.9420911902052,None,001,4,2019_Jun_04_1459,ACPT_experiment_5_30_19,3.1.0,59.95551493584245,
,,,C,U,y,n,R,U,g,R,u,,,,,5,19,119,17,0,0,0,0,,,,,0,14,14,11,,,,,,up,1.0507985361073224,825.0770774194243,None,001,4,2019_Jun_04_1459,ACPT_experiment_5_30_19,3.1.0,59.95551493584245,
,,,C,U,y,n,R,U,y,L,u,,,,,5,19,119,17,0,0,0,0,,,,,0,15,15,30,,,,,,down,0.8840275270704296,827.4122111366414,None,001,4,2019_Jun_04_1459,ACPT_experiment_5_30_19,3.1.0,59.95551493584245,
,,,C,U,y,n,R,D,y,R,y,,,,,5,19,119,17,0,0,0,0,,,,,0,16,16,27,,,,,,down,1.117517384023813,829.5972267668694,None,001,4,2019_Jun_04_1459,ACPT_experiment_5_30_19,3.1.0,59.95551493584245,
,,,C,U,y,n,L,U,y,L,u,,,,,5,19,119,17,0,0,0,0,,,,,0,17,17,24,,,,,,down,1.0341241821151925,831.9990732948318,None,001,4,2019_Jun_04_1459,ACPT_experiment_5_30_19,3.1.0,59.95551493584245,
,,,C,U,y,n,R,U,y,R,u,,,,,5,19,119,17,0,0,0,0,,,,,0,18,18,31,,,,,,down,0.8506404830695828,834.317534771064,None,001,4,2019_Jun_04_1459,ACPT_experiment_5_30_19,3.1.0,59.95551493584245,
,,,C,U,y,n,R,U,g,L,u,,,,,5,19,119,17,0,0,0,0,,,,,0,19,19,10,,,,,,up,0.8339495268664905,836.4692107490555,None,001,4,2019_Jun_04_1459,ACPT_experiment_5_30_19,3.1.0,59.95551493584245,
,,,C,U,y,n,R,D,g,L,i,,,,,5,19,119,17,0,0,0,0,,,,,0,20,20,2,,,,,,up,0.7005377908535593,838.5874864012803,None,001,4,2019_Jun_04_1459,ACPT_experiment_5_30_19,3.1.0,59.95551493584245,
,,,C,U,y,n,R,G,y,L,y,,,,,5,19,119,17,0,0,0,0,,,,,0,21,21,28,,,,,,down,0.8673287225465174,840.5890358402467,None,001,4,2019_Jun_04_1459,ACPT_experiment_5_30_19,3.1.0,59.95551493584245,
,,,C,U,y,n,L,G,g,L,c ,,,,,5,19,119,17,0,0,0,0,,,,,0,22,22,18,,,,,,up,0.6671730843772821,842.7573692681617,None,001,4,2019_Jun_04_1459,ACPT_experiment_5_30_19,3.1.0,59.95551493584245,
,,,C,U,y,n,L,D,g,R,i,,,,,5,19,119,17,0,0,0,0,,,,,0,23,23,15,,,,,,up,0.7505964721203782,844.7088784392254,None,001,4,2019_Jun_04_1459,ACPT_experiment_5_30_19,3.1.0,59.95551493584245,
,,,C,U,y,n,R,G,d,L,i,,,,,5,19,119,17,0,0,0,0,,,,,0,24,24,4,,,,,,up,0.7839681213408767,846.7437768880336,None,001,4,2019_Jun_04_1459,ACPT_experiment_5_30_19,3.1.0,59.95551493584245,
,,,C,U,y,n,L,U,g,L,u,,,,,5,19,119,17,0,0,0,0,,,,,0,25,25,22,,,,,,up,0.7839515191335522,848.8120382321722,None,001,4,2019_Jun_04_1459,ACPT_experiment_5_30_19,3.1.0,59.95551493584245,
,,,C,U,y,n,R,G,g,L,c ,,,,,5,19,119,17,0,0,0,0,,,,,0,26,26,6,,,,,,up,1.2009202453991747,850.8803019911793,None,001,4,2019_Jun_04_1459,ACPT_experiment_5_30_19,3.1.0,59.95551493584245,
,,,C,U,y,n,L,G,y,L,y,,,,,5,19,119,17,0,0,0,0,,,,,0,27,27,34,,,,,,down,0.9007628564504557,853.3655438340611,None,001,4,2019_Jun_04_1459,ACPT_experiment_5_30_19,3.1.0,59.95551493584245,
,,,C,U,y,n,L,G,g,R,c ,,,,,5,19,119,17,0,0,0,0,,,,,0,28,28,19,,,,,,up,0.8673293262654624,855.5505685200369,None,001,4,2019_Jun_04_1459,ACPT_experiment_5_30_19,3.1.0,59.95551493584245,
,,,C,U,y,n,L,U,g,R,u,,,,,5,19,119,17,0,0,0,0,,,,,0,29,29,23,,,,,,up,0.7005326592625352,857.7022291032517,None,001,4,2019_Jun_04_1459,ACPT_experiment_5_30_19,3.1.0,59.95551493584245,
,,,C,U,y,n,R,G,d,R,i,,,,,5,19,119,17,0,0,0,0,,,,,0,30,30,5,,,,,,up,1.4344324398734898,859.6870921138907,None,001,4,2019_Jun_04_1459,ACPT_experiment_5_30_19,3.1.0,59.95551493584245,
,,,C,U,y,n,L,G,y,R,y,,,,,5,19,119,17,0,0,0,0,,,,,0,31,31,35,,,,,,down,0.8172881527825666,862.4058527921297,None,001,4,2019_Jun_04_1459,ACPT_experiment_5_30_19,3.1.0,59.95551493584245,
,,,C,U,y,n,L,D,d,R,c ,,,,,5,19,119,17,0,0,0,0,,,,,0,32,32,13,,,,,,up,1.100845746754203,864.5074703907158,None,001,4,2019_Jun_04_1459,ACPT_experiment_5_30_19,3.1.0,59.95551493584245,
,,,C,U,y,n,R,D,y,L,y,,,,,5,19,119,17,0,0,0,0,,,,,0,33,33,26,,,,,,down,0.984086027219746,866.8926455832698,None,001,4,2019_Jun_04_1459,ACPT_experiment_5_30_19,3.1.0,59.95551493584245,
,,,C,U,y,n,L,U,y,R,u,,,,,5,19,119,17,0,0,0,0,,,,,0,34,34,25,,,,,,down,0.7339058177749394,869.1610634711542,None,001,4,2019_Jun_04_1459,ACPT_experiment_5_30_19,3.1.0,59.95551493584245,
,,,C,U,y,n,R,D,d,R,c ,,,,,5,19,119,17,0,0,0,0,,,,,0,35,35,1,,,,,,up,0.8006144025093818,871.1792821325216,None,001,4,2019_Jun_04_1459,ACPT_experiment_5_30_19,3.1.0,59.95551493584245,
,,,C,U,y,n,R,G,d,R,i,,,,,5,19,119,17,0,0,0,0,,,,,1,0,36,5,,,,,,up,0.5671212251108955,873.2641991154342,None,001,4,2019_Jun_04_1459,ACPT_experiment_5_30_19,3.1.0,59.95551493584245,
,,,C,U,y,n,L,D,y,R,y,,,,,5,19,119,17,0,0,0,0,,,,,1,1,37,33,,,,,,down,0.6671794234025583,875.1156470696187,None,001,4,2019_Jun_04_1459,ACPT_experiment_5_30_19,3.1.0,59.95551493584245,
,,,C,U,y,n,R,G,d,L,i,,,,,5,19,119,17,0,0,0,0,,,,,1,2,38,4,,,,,,up,0.8172899639357638,877.0671550332481,None,001,4,2019_Jun_04_1459,ACPT_experiment_5_30_19,3.1.0,59.95551493584245,
,,,C,U,y,n,L,D,g,R,i,,,,,5,19,119,17,0,0,0,0,,,,,1,3,39,15,,,,,,up,0.6004475955778616,879.1687795745747,None,001,4,2019_Jun_04_1459,ACPT_experiment_5_30_19,3.1.0,59.95551493584245,
,,,C,U,y,n,L,U,d,L,u,,,,,5,19,119,17,0,0,0,0,,,,,1,4,40,20,,,,,,up,0.7672397347050719,881.0535738218787,None,001,4,2019_Jun_04_1459,ACPT_experiment_5_30_19,3.1.0,59.95551493584245,
,,,C,U,y,n,L,G,g,L,c ,,,,,5,19,119,17,0,0,0,0,,,,,1,5,41,18,,,,,,up,0.7672901450496283,883.105140587515,None,001,4,2019_Jun_04_1459,ACPT_experiment_5_30_19,3.1.0,59.95551493584245,
,,,C,U,y,n,R,U,y,L,u,,,,,5,19,119,17,0,0,0,0,,,,,1,6,42,30,,,,,,down,0.7005317536859366,885.1567296906687,None,001,4,2019_Jun_04_1459,ACPT_experiment_5_30_19,3.1.0,59.95551493584245,
,,,C,U,y,n,L,U,d,R,u,,,,,5,19,119,17,0,0,0,0,,,,,1,7,43,21,,,,,,up,0.7338861969838035,887.1415917957311,None,001,4,2019_Jun_04_1459,ACPT_experiment_5_30_19,3.1.0,59.95551493584245,
,,,C,U,y,n,L,U,y,R,u,,,,,5,19,119,17,0,0,0,0,,,,,1,8,44,25,,,,,,down,0.9006876937164634,889.1598074385147,None,001,4,2019_Jun_04_1459,ACPT_experiment_5_30_19,3.1.0,59.95551493584245,
,,,C,U,y,n,L,D,d,L,c ,,,,,5,19,119,17,0,0,0,0,,,,,1,9,45,12,,,,,,up,1.0341211635313812,891.3448312189175,None,001,4,2019_Jun_04_1459,ACPT_experiment_5_30_19,3.1.0,59.95551493584245,
,,,C,U,y,n,R,U,d,L,u,,,,,5,19,119,17,0,0,0,0,,,,,1,10,46,8,,,,,,up,0.8006035356047505,893.6632899784236,None,001,4,2019_Jun_04_1459,ACPT_experiment_5_30_19,3.1.0,59.95551493584245,
,,,C,U,y,n,L,U,g,R,u,,,,,5,19,119,17,0,0,0,0,,,,,1,11,47,23,,,,,,up,0.6338138113496825,895.7482235635471,None,001,4,2019_Jun_04_1459,ACPT_experiment_5_30_19,3.1.0,59.95551493584245,
,,,C,U,y,n,L,G,y,R,y,,,,,5,19,119,17,0,0,0,0,,,,,1,12,48,35,,,,,,down,1.317695359710342,897.6830511360131,None,001,4,2019_Jun_04_1459,ACPT_experiment_5_30_19,3.1.0,59.95551493584245,
,,,C,U,y,n,R,G,y,L,y,,,,,5,19,119,17,0,0,0,0,,,,,1,13,49,28,,,,,,down,1.084166261171049,900.3017336933117,None,001,4,2019_Jun_04_1459,ACPT_experiment_5_30_19,3.1.0,59.95551493584245,
,,,C,U,y,n,L,G,d,R,i,,,,,5,19,119,17,0,0,0,0,,,,,1,14,50,17,,,,,,up,0.9006964476102439,902.6702263816987,None,001,4,2019_Jun_04_1459,ACPT_experiment_5_30_19,3.1.0,59.95551493584245,
,,,C,U,y,n,L,G,d,L,i,,,,,5,19,119,17,0,0,0,0,,,,,1,15,51,16,,,,,,up,0.6671812345521175,904.8385652430625,None,001,4,2019_Jun_04_1459,ACPT_experiment_5_30_19,3.1.0,59.95551493584245,
,,,C,U,y,n,R,G,g,R,c ,,,,,5,19,119,17,0,0,0,0,,,,,1,16,52,7,,,,,,up,0.7005374889959057,906.7900726029729,None,001,4,2019_Jun_04_1459,ACPT_experiment_5_30_19,3.1.0,59.95551493584245,
,,,C,U,y,n,R,D,y,R,y,,,,,5,19,119,17,0,0,0,0,,,,,1,17,53,27,,,,,,down,0.917368084879854,908.7749362173308,None,001,4,2019_Jun_04_1459,ACPT_experiment_5_30_19,3.1.0,59.95551493584245,
,,,C,U,y,n,R,G,g,L,c ,,,,,5,19,119,17,0,0,0,0,,,,,1,18,54,6,,,,,,up,0.8506558778462932,910.9766316349996,None,001,4,2019_Jun_04_1459,ACPT_experiment_5_30_19,3.1.0,59.95551493584245,
,,,C,U,y,n,R,D,g,R,i,,,,,5,19,119,17,0,0,0,0,,,,,1,19,55,3,,,,,,up,1.0508097048659693,913.0949344544752,None,001,4,2019_Jun_04_1459,ACPT_experiment_5_30_19,3.1.0,59.95551493584245,
,,,C,U,y,n,R,U,g,R,u,,,,,5,19,119,17,0,0,0,0,,,,,1,20,56,11,,,,,,up,0.8006107802066253,915.4300672661193,None,001,4,2019_Jun_04_1459,ACPT_experiment_5_30_19,3.1.0,59.95551493584245,
,,,C,U,y,n,R,U,d,R,u,,,,,5,19,119,17,0,0,0,0,,,,,1,21,57,9,,,,,,up,0.8005978002984193,917.5150120200014,None,001,4,2019_Jun_04_1459,ACPT_experiment_5_30_19,3.1.0,59.95551493584245,
,,,C,U,y,n,L,G,y,L,y,,,,,5,19,119,17,0,0,0,0,,,,,1,22,58,34,,,,,,down,0.7839488024073944,919.599928097341,None,001,4,2019_Jun_04_1459,ACPT_experiment_5_30_19,3.1.0,59.95551493584245,
,,,C,U,y,n,R,U,y,R,u,,,,,5,19,119,17,0,0,0,0,,,,,1,23,59,31,,,,,,down,0.5504142704157857,921.6682117789969,None,001,4,2019_Jun_04_1459,ACPT_experiment_5_30_19,3.1.0,59.95551493584245,
,,,C,U,y,n,L,U,g,L,u,,,,,5,19,119,17,0,0,0,0,,,,,1,24,60,22,,,,,,up,0.7672484885952144,923.5029606268035,None,001,4,2019_Jun_04_1459,ACPT_experiment_5_30_19,3.1.0,59.95551493584245,
,,,C,U,y,n,L,D,d,R,c ,,,,,5,19,119,17,0,0,0,0,,,,,1,25,61,13,,,,,,up,0.7505967739816697,925.5545388630562,None,001,4,2019_Jun_04_1459,ACPT_experiment_5_30_19,3.1.0,59.95551493584245,
,,,C,U,y,n,R,U,g,L,u,,,,,5,19,119,17,0,0,0,0,,,,,1,26,62,10,,,,,,up,0.8840562036129995,927.5894394248753,None,001,4,2019_Jun_04_1459,ACPT_experiment_5_30_19,3.1.0,59.95551493584245,
,,,C,U,y,n,R,D,d,R,c ,,,,,5,19,119,17,0,0,0,0,,,,,1,27,63,1,,,,,,up,0.6671733862349356,929.7577810029688,None,001,4,2019_Jun_04_1459,ACPT_experiment_5_30_19,3.1.0,59.95551493584245,
,,,C,U,y,n,L,D,g,L,i,,,,,5,19,119,17,0,0,0,0,,,,,1,28,64,14,,,,,,up,1.0007736629813735,931.709282929427,None,001,4,2019_Jun_04_1459,ACPT_experiment_5_30_19,3.1.0,59.95551493584245,
,,,C,U,y,n,R,D,y,L,y,,,,,5,19,119,17,0,0,0,0,,,,,1,29,65,26,,,,,,down,0.7337222878923058,934.0112333570396,None,001,4,2019_Jun_04_1459,ACPT_experiment_5_30_19,3.1.0,59.95551493584245,
,,,C,U,y,n,R,D,g,L,i,,,,,5,19,119,17,0,0,0,0,,,,,1,30,66,2,,,,,,up,0.6338113964811782,936.0459603503004,None,001,4,2019_Jun_04_1459,ACPT_experiment_5_30_19,3.1.0,59.95551493584245,
,,,C,U,y,n,R,D,d,L,c,,,,,5,19,119,17,0,0,0,0,,,,,1,31,67,0,,,,,,up,0.683881850221951,937.9474038973531,None,001,4,2019_Jun_04_1459,ACPT_experiment_5_30_19,3.1.0,59.95551493584245,
,,,C,U,y,n,R,G,y,R,y,,,,,5,19,119,17,0,0,0,0,,,,,1,32,68,29,,,,,,down,0.7839331057730305,939.9156091562108,None,001,4,2019_Jun_04_1459,ACPT_experiment_5_30_19,3.1.0,59.95551493584245,
,,,C,U,y,n,L,G,g,R,c ,,,,,5,19,119,17,0,0,0,0,,,,,1,33,69,19,,,,,,up,1.3010001774928242,941.9838741226486,None,001,4,2019_Jun_04_1459,ACPT_experiment_5_30_19,3.1.0,59.95551493584245,
,,,C,U,y,n,L,D,y,L,y,,,,,5,19,119,17,0,0,0,0,,,,,1,34,70,32,,,,,,down,0.8172875490672595,944.5692134054116,None,001,4,2019_Jun_04_1459,ACPT_experiment_5_30_19,3.1.0,59.95551493584245,
,,,C,U,y,n,L,U,y,L,u,,,,,5,19,119,17,0,0,0,0,,,,,1,35,71,24,,,,,,down,0.8173159237521759,946.6708231556768,None,001,4,2019_Jun_04_1459,ACPT_experiment_5_30_19,3.1.0,59.95551493584245,
,,,C,U,y,n,,,,,,,,,,5,19,119,17,1,0,1,0,0,0,0,0,,,,,,,,,,,,,,001,4,2019_Jun_04_1459,ACPT_experiment_5_30_19,3.1.0,59.95551493584245,
,,,C,U,y,n,R,U,d,R,u,,,,,5,19,119,17,1,0,1,0,,,,,0,0,0,9,,,,,,up,0.984068519432185,957.5792462717473,None,001,4,2019_Jun_04_1459,ACPT_experiment_5_30_19,3.1.0,59.95551493584245,
,,,C,U,y,n,R,U,y,R,u,,,,,5,19,119,17,1,0,1,0,,,,,0,1,1,31,,,,,,down,0.7339091382200422,959.8476451425558,None,001,4,2019_Jun_04_1459,ACPT_experiment_5_30_19,3.1.0,59.95551493584245,
,,,C,U,y,n,L,U,d,L,u,,,,,5,19,119,17,1,0,1,0,,,,,0,2,2,20,,,,,,up,0.7672539220438921,961.8658647094999,None,001,4,2019_Jun_04_1459,ACPT_experiment_5_30_19,3.1.0,59.95551493584245,
,,,C,U,y,n,L,D,y,R,y,,,,,5,19,119,17,1,0,1,0,,,,,0,3,3,33,,,,,,down,0.8003487671521725,963.9343947075795,None,001,4,2019_Jun_04_1459,ACPT_experiment_5_30_19,3.1.0,59.95551493584245,
,,,C,U,y,n,R,D,g,R,i,,,,,5,19,119,17,1,0,1,0,,,,,0,4,4,3,,,,,,up,0.617134023901599,966.0190711093783,None,001,4,2019_Jun_04_1459,ACPT_experiment_5_30_19,3.1.0,59.95551493584245,
,,,C,U,y,n,R,G,g,L,c ,,,,,5,19,119,17,1,0,1,0,,,,,0,5,5,6,,,,,,up,0.6838573996938067,967.9205351827986,None,001,4,2019_Jun_04_1459,ACPT_experiment_5_30_19,3.1.0,59.95551493584245,
,,,C,U,y,n,R,U,g,R,u,,,,,5,19,119,17,1,0,1,0,,,,,0,6,6,11,,,,,,up,0.6338213578055729,969.8720371092604,None,001,4,2019_Jun_04_1459,ACPT_experiment_5_30_19,3.1.0,59.95551493584245,
,,,C,U,y,n,R,G,g,R,c ,,,,,5,19,119,17,1,0,1,0,,,,,0,7,7,7,,,,,,up,0.6671697639358172,971.7901882147271,None,001,4,2019_Jun_04_1459,ACPT_experiment_5_30_19,3.1.0,59.95551493584245,
,,,C,U,y,n,R,G,d,L,i,,,,,5,19,119,17,1,0,1,0,,,,,0,8,8,4,,,,,,up,0.7005580153636402,973.7249877143659,None,001,4,2019_Jun_04_1459,ACPT_experiment_5_30_19,3.1.0,59.95551493584245,
,,,C,U,y,n,L,U,y,L,u,,,,,5,19,119,17,1,0,1,0,,,,,0,9,9,24,,,,,,down,0.8840121322900814,975.709874571814,None,001,4,2019_Jun_04_1459,ACPT_experiment_5_30_19,3.1.0,59.95551493584245,
,,,C,U,y,n,R,D,y,L,y,,,,,5,19,119,17,1,0,1,0,,,,,0,10,10,26,,,,,,down,0.767257242485357,977.8782083015903,None,001,4,2019_Jun_04_1459,ACPT_experiment_5_30_19,3.1.0,59.95551493584245,
,,,C,U,y,n,R,D,d,R,c ,,,,,5,19,119,17,1,0,1,0,,,,,0,11,11,1,,,,,,up,0.6338207540902658,979.929791669434,None,001,4,2019_Jun_04_1459,ACPT_experiment_5_30_19,3.1.0,59.95551493584245,
,,,C,U,y,n,L,U,d,R,u,,,,,5,19,119,17,1,0,1,0,,,,,0,12,12,21,,,,,,up,0.9007006736246694,981.8479379451674,None,001,4,2019_Jun_04_1459,ACPT_experiment_5_30_19,3.1.0,59.95551493584245,
,,,C,U,y,n,R,D,d,L,c,,,,,5,19,119,17,1,0,1,0,,,,,0,13,13,0,,,,,,up,0.6671845549935824,984.0329568958332,None,001,4,2019_Jun_04_1459,ACPT_experiment_5_30_19,3.1.0,59.95551493584245,
,,,C,U,y,n,L,G,g,L,c ,,,,,5,19,119,17,1,0,1,0,,,,,0,14,14,18,,,,,,up,0.6838595127046574,985.9844594260103,None,001,4,2019_Jun_04_1459,ACPT_experiment_5_30_19,3.1.0,59.95551493584245,
,,,C,U,y,n,L,G,d,L,i,,,,,5,19,119,17,1,0,1,0,,,,,0,15,15,16,,,,,,up,0.5004026790520584,987.9359441465458,None,001,4,2019_Jun_04_1459,ACPT_experiment_5_30_19,3.1.0,59.95551493584245,
,,,C,U,y,n,L,G,y,R,y,,,,,5,19,119,17,1,0,1,0,,,,,0,16,16,35,,,,,,down,0.8640327311077272,989.7406758970938,None,001,4,2019_Jun_04_1459,ACPT_experiment_5_30_19,3.1.0,59.95551493584245,
,,,C,U,y,n,R,U,y,L,u,,,,,5,19,119,17,1,0,1,0,,,,,0,17,17,30,,,,,,down,0.9173701978870668,991.8890169439146,None,001,4,2019_Jun_04_1459,ACPT_experiment_5_30_19,3.1.0,59.95551493584245,
,,,C,U,y,n,R,U,g,L,u,,,,,5,19,119,17,1,0,1,0,,,,,0,18,18,10,,,,,,up,0.7505994907041895,994.0740135570632,None,001,4,2019_Jun_04_1459,ACPT_experiment_5_30_19,3.1.0,59.95551493584245,
,,,C,U,y,n,L,U,g,L,u,,,,,5,19,119,17,1,0,1,0,,,,,0,19,19,22,,,,,,up,0.5167884564543783,996.1258861052193,None,001,4,2019_Jun_04_1459,ACPT_experiment_5_30_19,3.1.0,59.95551493584245,
,,,C,U,y,n,L,G,d,R,i,,,,,5,19,119,17,1,0,1,0,,,,,0,20,20,17,,,,,,up,0.7505768513292423,997.9270154780897,None,001,4,2019_Jun_04_1459,ACPT_experiment_5_30_19,3.1.0,59.95551493584245,
,,,C,U,y,n,R,G,d,R,i,,,,,5,19,119,17,1,0,1,0,,,,,0,21,21,5,,,,,,up,0.8506616131562623,999.9619039655736,None,001,4,2019_Jun_04_1459,ACPT_experiment_5_30_19,3.1.0,59.95551493584245,
,,,C,U,y,n,R,G,y,L,y,,,,,5,19,119,17,1,0,1,0,,,,,0,22,22,28,,,,,,down,0.683851966245129,1002.0968892892197,None,001,4,2019_Jun_04_1459,ACPT_experiment_5_30_19,3.1.0,59.95551493584245,
,,,C,U,y,n,L,D,d,R,c ,,,,,5,19,119,17,1,0,1,0,,,,,0,23,23,13,,,,,,up,0.6004783851312823,1004.0650492693239,None,001,4,2019_Jun_04_1459,ACPT_experiment_5_30_19,3.1.0,59.95551493584245,
,,,C,U,y,n,R,D,g,L,i,,,,,5,19,119,17,1,0,1,0,,,,,0,24,24,2,,,,,,up,0.7172160690060991,1005.9498552891018,None,001,4,2019_Jun_04_1459,ACPT_experiment_5_30_19,3.1.0,59.95551493584245,
,,,C,U,y,n,L,G,y,L,y,,,,,5,19,119,17,1,0,1,0,,,,,0,25,25,34,,,,,,down,0.7839611786002934,1007.9513709199309,None,001,4,2019_Jun_04_1459,ACPT_experiment_5_30_19,3.1.0,59.95551493584245,
,,,C,U,y,n,R,D,y,R,y,,,,,5,19,119,17,1,0,1,0,,,,,0,26,26,27,,,,,,down,0.8673398913088022,1010.0196573183166,None,001,4,2019_Jun_04_1459,ACPT_experiment_5_30_19,3.1.0,59.95551493584245,
,,,C,U,y,n,L,D,y,L,y,,,,,5,19,119,17,1,0,1,0,,,,,0,27,27,32,,,,,,down,0.6671869698620867,1012.1546314732041,None,001,4,2019_Jun_04_1459,ACPT_experiment_5_30_19,3.1.0,59.95551493584245,
,,,C,U,y,n,R,G,y,R,y,,,,,5,19,119,17,1,0,1,0,,,,,0,28,28,29,,,,,,down,0.7673115769939614,1014.1061170993125,None,001,4,2019_Jun_04_1459,ACPT_experiment_5_30_19,3.1.0,59.95551493584245,
,,,C,U,y,n,L,U,y,R,u,,,,,5,19,119,17,1,0,1,0,,,,,0,29,29,25,,,,,,down,0.6504948062247422,1016.1577270306916,None,001,4,2019_Jun_04_1459,ACPT_experiment_5_30_19,3.1.0,59.95551493584245,
,,,C,U,y,n,L,G,g,R,c ,,,,,5,19,119,17,1,0,1,0,,,,,0,30,30,19,,,,,,up,0.6171213458546845,1018.0925621496172,None,001,4,2019_Jun_04_1459,ACPT_experiment_5_30_19,3.1.0,59.95551493584245,
,,,C,U,y,n,R,U,d,L,u,,,,,5,19,119,17,1,0,1,0,,,,,0,31,31,8,,,,,,up,0.7006072182775824,1019.994018374724,None,001,4,2019_Jun_04_1459,ACPT_experiment_5_30_19,3.1.0,59.95551493584245,
,,,C,U,y,n,L,D,g,L,i,,,,,5,19,119,17,1,0,1,0,,,,,0,32,32,14,,,,,,up,0.767232490103197,1021.995567511829,None,001,4,2019_Jun_04_1459,ACPT_experiment_5_30_19,3.1.0,59.95551493584245,
,,,C,U,y,n,L,U,g,R,u,,,,,5,19,119,17,1,0,1,0,,,,,0,33,33,23,,,,,,up,0.6838444197856006,1024.0471538982601,None,001,4,2019_Jun_04_1459,ACPT_experiment_5_30_19,3.1.0,59.95551493584245,
,,,C,U,y,n,L,D,d,L,c ,,,,,5,19,119,17,1,0,1,0,,,,,0,34,34,12,,,,,,up,0.8338429708674084,1026.0153422530457,None,001,4,2019_Jun_04_1459,ACPT_experiment_5_30_19,3.1.0,59.95551493584245,
,,,C,U,y,n,L,D,g,R,i,,,,,5,19,119,17,1,0,1,0,,,,,0,35,35,15,,,,,,up,0.6004832148610149,1028.1169209119034,None,001,4,2019_Jun_04_1459,ACPT_experiment_5_30_19,3.1.0,59.95551493584245,
,,,C,U,y,n,L,U,g,L,u,,,,,5,19,119,17,1,0,1,0,,,,,1,0,36,22,,,,,,up,0.6171382499233005,1030.001732968849,None,001,4,2019_Jun_04_1459,ACPT_experiment_5_30_19,3.1.0,59.95551493584245,
,,,C,U,y,n,R,G,y,L,y,,,,,5,19,119,17,1,0,1,0,,,,,1,1,37,28,,,,,,down,1.1175554181791085,1031.9031728936025,None,001,4,2019_Jun_04_1459,ACPT_experiment_5_30_19,3.1.0,59.95551493584245,
,,,C,U,y,n,R,D,d,R,c ,,,,,5,19,119,17,1,0,1,0,,,,,1,2,38,1,,,,,,up,0.8506525574011903,1034.3050474943957,None,001,4,2019_Jun_04_1459,ACPT_experiment_5_30_19,3.1.0,59.95551493584245,
,,,C,U,y,n,L,U,y,L,u,,,,,5,19,119,17,1,0,1,0,,,,,1,3,39,24,,,,,,down,0.4670243889486301,1036.4400279883084,None,001,4,2019_Jun_04_1459,ACPT_experiment_5_30_19,3.1.0,59.95551493584245,
,,,C,U,y,n,L,U,d,R,u,,,,,5,19,119,17,1,0,1,0,,,,,1,4,40,21,,,,,,up,1.1008276352549728,1038.191395406684,None,001,4,2019_Jun_04_1459,ACPT_experiment_5_30_19,3.1.0,59.95551493584245,
,,,C,U,y,n,R,U,y,L,u,,,,,5,19,119,17,1,0,1,0,,,,,1,5,41,30,,,,,,down,0.7172199931665091,1040.5765527895965,None,001,4,2019_Jun_04_1459,ACPT_experiment_5_30_19,3.1.0,59.95551493584245,
,,,C,U,y,n,R,U,y,R,u,,,,,5,19,119,17,1,0,1,0,,,,,1,6,42,31,,,,,,down,0.7839231444449979,1042.5780998136943,None,001,4,2019_Jun_04_1459,ACPT_experiment_5_30_19,3.1.0,59.95551493584245,
,,,C,U,y,n,R,U,d,R,u,,,,,5,19,119,17,1,0,1,0,,,,,1,7,43,9,,,,,,up,0.6004503123040195,1044.663039737843,None,001,4,2019_Jun_04_1459,ACPT_experiment_5_30_19,3.1.0,59.95551493584245,
,,,C,U,y,n,R,D,g,R,i,,,,,5,19,119,17,1,0,1,0,,,,,1,8,44,3,,,,,,up,0.7005402057220635,1046.5478213070965,None,001,4,2019_Jun_04_1459,ACPT_experiment_5_30_19,3.1.0,59.95551493584245,
,,,C,U,y,n,L,D,g,R,i,,,,,5,19,119,17,1,0,1,0,,,,,1,9,45,15,,,,,,up,0.6004874408827163,1048.5159773630403,None,001,4,2019_Jun_04_1459,ACPT_experiment_5_30_19,3.1.0,59.95551493584245,
,,,C,U,y,n,L,G,y,R,y,,,,,5,19,119,17,1,0,1,0,,,,,1,10,46,35,,,,,,down,0.5170525825196819,1050.4007984757372,None,001,4,2019_Jun_04_1459,ACPT_experiment_5_30_19,3.1.0,59.95551493584245,
,,,C,U,y,n,L,G,g,L,c ,,,,,5,19,119,17,1,0,1,0,,,,,1,11,47,18,,,,,,up,0.8473275875621766,1052.222188883643,None,001,4,2019_Jun_04_1459,ACPT_experiment_5_30_19,3.1.0,59.95551493584245,
,,,C,U,y,n,R,G,y,R,y,,,,,5,19,119,17,1,0,1,0,,,,,1,12,48,29,,,,,,down,0.6671818382674246,1054.35383776683,None,001,4,2019_Jun_04_1459,ACPT_experiment_5_30_19,3.1.0,59.95551493584245,
,,,C,U,y,n,R,G,g,R,c ,,,,,5,19,119,17,1,0,1,0,,,,,1,13,49,7,,,,,,up,1.0508075918587565,1056.3053475416054,None,001,4,2019_Jun_04_1459,ACPT_experiment_5_30_19,3.1.0,59.95551493584245,
,,,C,U,y,n,L,D,y,L,y,,,,,5,19,119,17,1,0,1,0,,,,,1,14,50,32,,,,,,down,0.7669716844793584,1058.657429700208,None,001,4,2019_Jun_04_1459,ACPT_experiment_5_30_19,3.1.0,59.95551493584245,
,,,C,U,y,n,L,U,d,L,u,,,,,5,19,119,17,1,0,1,0,,,,,1,15,51,20,,,,,,up,0.8339649216468388,1060.7087429048188,None,001,4,2019_Jun_04_1459,ACPT_experiment_5_30_19,3.1.0,59.95551493584245,
,,,C,U,y,n,L,D,d,R,c ,,,,,5,19,119,17,1,0,1,0,,,,,1,16,52,13,,,,,,up,0.9507321876408241,1062.8270372722654,None,001,4,2019_Jun_04_1459,ACPT_experiment_5_30_19,3.1.0,59.95551493584245,
,,,C,U,y,n,L,D,y,R,y,,,,,5,19,119,17,1,0,1,0,,,,,1,17,53,33,,,,,,down,0.6838531736793811,1065.0620949815457,None,001,4,2019_Jun_04_1459,ACPT_experiment_5_30_19,3.1.0,59.95551493584245,
,,,C,U,y,n,R,U,d,L,u,,,,,5,19,119,17,1,0,1,0,,,,,1,18,54,8,,,,,,up,0.9340517964774335,1067.0302794121744,None,001,4,2019_Jun_04_1459,ACPT_experiment_5_30_19,3.1.0,59.95551493584245,
,,,C,U,y,n,R,G,g,L,c ,,,,,5,19,119,17,1,0,1,0,,,,,1,19,55,6,,,,,,up,0.7172196913088555,1069.2486555228606,None,001,4,2019_Jun_04_1459,ACPT_experiment_5_30_19,3.1.0,59.95551493584245,
,,,C,U,y,n,L,D,g,L,i,,,,,5,19,119,17,1,0,1,0,,,,,1,20,56,14,,,,,,up,0.7505964721240161,1071.2501753797078,None,001,4,2019_Jun_04_1459,ACPT_experiment_5_30_19,3.1.0,59.95551493584245,
,,,C,U,y,n,R,D,g,L,i,,,,,5,19,119,17,1,0,1,0,,,,,1,21,57,2,,,,,,up,0.7172139559988864,1073.285099788336,None,001,4,2019_Jun_04_1459,ACPT_experiment_5_30_19,3.1.0,59.95551493584245,
,,,C,U,y,n,L,D,d,L,c ,,,,,5,19,119,17,1,0,1,0,,,,,1,22,58,12,,,,,,up,1.2009223584063875,1075.2866410771276,None,001,4,2019_Jun_04_1459,ACPT_experiment_5_30_19,3.1.0,59.95551493584245,
,,,C,U,y,n,R,U,g,R,u,,,,,5,19,119,17,1,0,1,0,,,,,1,23,59,11,,,,,,up,2.64872470879709,1077.7918903940226,None,001,4,2019_Jun_04_1459,ACPT_experiment_5_30_19,3.1.0,59.95551493584245,
,,,C,U,y,n,L,U,g,R,u,,,,,5,19,119,17,1,0,1,0,,,,,1,24,60,23,,,,,,up,0.6338201503749588,1081.7249418318934,None,001,4,2019_Jun_04_1459,ACPT_experiment_5_30_19,3.1.0,59.95551493584245,
,,,C,U,y,n,L,G,d,L,i,,,,,5,19,119,17,1,0,1,0,,,,,1,25,61,16,,,,,,up,0.6171406647881668,1083.6430859946195,None,001,4,2019_Jun_04_1459,ACPT_experiment_5_30_19,3.1.0,59.95551493584245,
,,,C,U,y,n,R,D,y,R,y,,,,,5,19,119,17,1,0,1,0,,,,,1,26,62,27,,,,,,down,0.7338886118486698,1085.5445545959155,None,001,4,2019_Jun_04_1459,ACPT_experiment_5_30_19,3.1.0,59.95551493584245,
,,,C,U,y,n,R,U,g,L,u,,,,,5,19,119,17,1,0,1,0,,,,,1,27,63,10,,,,,,up,0.7338931397280248,1087.5627756721478,None,001,4,2019_Jun_04_1459,ACPT_experiment_5_30_19,3.1.0,59.95551493584245,
,,,C,U,y,n,R,D,d,L,c,,,,,5,19,119,17,1,0,1,0,,,,,1,28,64,0,,,,,,up,0.5337685929662257,1089.580982862899,None,001,4,2019_Jun_04_1459,ACPT_experiment_5_30_19,3.1.0,59.95551493584245,
,,,C,U,y,n,R,G,d,R,i,,,,,5,19,119,17,1,0,1,0,,,,,1,29,65,5,,,,,,up,0.7005420168716228,1091.3990612808702,None,001,4,2019_Jun_04_1459,ACPT_experiment_5_30_19,3.1.0,59.95551493584245,
,,,C,U,y,n,L,G,g,R,c ,,,,,5,19,119,17,1,0,1,0,,,,,1,30,66,19,,,,,,up,0.6504803170209925,1093.4006252090367,None,001,4,2019_Jun_04_1459,ACPT_experiment_5_30_19,3.1.0,59.95551493584245,
,,,C,U,y,n,L,G,y,L,y,,,,,5,19,119,17,1,0,1,0,,,,,1,31,67,34,,,,,,down,0.8006400604681403,1095.335411125052,None,001,4,2019_Jun_04_1459,ACPT_experiment_5_30_19,3.1.0,59.95551493584245,
,,,C,U,y,n,R,D,y,L,y,,,,,5,19,119,17,1,0,1,0,,,,,1,32,68,26,,,,,,down,0.5337393127047108,1097.420373990437,None,001,4,2019_Jun_04_1459,ACPT_experiment_5_30_19,3.1.0,59.95551493584245,
,,,C,U,y,n,L,G,d,R,i,,,,,5,19,119,17,1,0,1,0,,,,,1,33,69,17,,,,,,up,0.5838037292778608,1099.2384173928367,None,001,4,2019_Jun_04_1459,ACPT_experiment_5_30_19,3.1.0,59.95551493584245,
,,,C,U,y,n,R,G,d,L,i,,,,,5,19,119,17,1,0,1,0,,,,,1,34,70,4,,,,,,up,0.7338952527352376,1101.1065487567685,None,001,4,2019_Jun_04_1459,ACPT_experiment_5_30_19,3.1.0,59.95551493584245,
,,,C,U,y,n,L,U,y,R,u,,,,,5,19,119,17,1,0,1,0,,,,,1,35,71,25,,,,,,down,0.7672391309861268,1103.1247746627341,None,001,4,2019_Jun_04_1459,ACPT_experiment_5_30_19,3.1.0,59.95551493584245,
,,,C,U,y,n,,,,,,,,,,5,19,119,17,2,0,2,0,0,0,0,0,,,,,,,,,,,,,,001,4,2019_Jun_04_1459,ACPT_experiment_5_30_19,3.1.0,59.95551493584245,
,,,C,U,y,n,R,U,d,R,u,,,,,5,19,119,17,2,0,2,0,,,,,0,0,0,9,,,,,,up,0.800349069009826,1142.9724297666144,None,001,4,2019_Jun_04_1459,ACPT_experiment_5_30_19,3.1.0,59.95551493584245,
,,,C,U,y,n,L,G,y,L,y,,,,,5,19,119,17,2,0,2,0,,,,,0,1,1,34,,,,,,down,0.6672162501236016,1145.057101640541,None,001,4,2019_Jun_04_1459,ACPT_experiment_5_30_19,3.1.0,59.95551493584245,
,,,C,U,y,n,L,U,y,L,u,,,,,5,19,119,17,2,0,2,0,,,,,0,2,2,24,,,,,,down,0.6337163110983965,1147.025284561878,None,001,4,2019_Jun_04_1459,ACPT_experiment_5_30_19,3.1.0,59.95551493584245,
,,,C,U,y,n,R,D,g,L,i,,,,,5,19,119,17,2,0,2,0,,,,,0,3,3,2,,,,,,up,0.5837717322938261,1148.9601187752269,None,001,4,2019_Jun_04_1459,ACPT_experiment_5_30_19,3.1.0,59.95551493584245,
,,,C,U,y,n,R,D,d,L,c,,,,,5,19,119,17,2,0,2,0,,,,,0,4,4,0,,,,,,up,0.6005082691081043,1150.811519035793,None,001,4,2019_Jun_04_1459,ACPT_experiment_5_30_19,3.1.0,59.95551493584245,
,,,C,U,y,n,R,U,d,L,u,,,,,5,19,119,17,2,0,2,0,,,,,0,5,5,8,,,,,,up,0.5337396145623643,1152.696328376016,None,001,4,2019_Jun_04_1459,ACPT_experiment_5_30_19,3.1.0,59.95551493584245,
,,,C,U,y,n,R,D,d,R,c ,,,,,5,19,119,17,2,0,2,0,,,,,0,6,6,1,,,,,,up,0.5504133648391871,1154.514396228944,None,001,4,2019_Jun_04_1459,ACPT_experiment_5_30_19,3.1.0,59.95551493584245,
,,,C,U,y,n,R,D,g,R,i,,,,,5,19,119,17,2,0,2,0,,,,,0,7,7,3,,,,,,up,0.6471659122216806,1156.3691468154539,None,001,4,2019_Jun_04_1459,ACPT_experiment_5_30_19,3.1.0,59.95551493584245,
,,,C,U,y,n,L,U,g,R,u,,,,,5,19,119,17,2,0,2,0,,,,,0,8,8,23,,,,,,up,0.46702408709097654,1158.3006451920628,None,001,4,2019_Jun_04_1459,ACPT_experiment_5_30_19,3.1.0,59.95551493584245,
,,,C,U,y,n,L,D,d,L,c ,,,,,5,19,119,17,2,0,2,0,,,,,0,9,9,12,,,,,,up,0.3502625564033224,1160.0519954045085,None,001,4,2019_Jun_04_1459,ACPT_experiment_5_30_19,3.1.0,59.95551493584245,
,,,C,U,y,n,R,D,y,R,y,,,,,5,19,119,17,2,0,2,0,,,,,0,10,10,27,,,,,,down,1.334319001500262,1161.703288927958,None,001,4,2019_Jun_04_1459,ACPT_experiment_5_30_19,3.1.0,59.95551493584245,
,,,C,U,y,n,R,G,g,L,c ,,,,,5,19,119,17,2,0,2,0,,,,,0,11,11,6,,,,,,up,0.5837738453010388,1164.338637990928,None,001,4,2019_Jun_04_1459,ACPT_experiment_5_30_19,3.1.0,59.95551493584245,
,,,C,U,y,n,L,G,d,R,i,,,,,5,19,119,17,2,0,2,0,,,,,0,12,12,17,,,,,,up,0.7005417150139692,1166.2067370560108,None,001,4,2019_Jun_04_1459,ACPT_experiment_5_30_19,3.1.0,59.95551493584245,
,,,C,U,y,n,L,D,g,R,i,,,,,5,19,119,17,2,0,2,0,,,,,0,13,13,15,,,,,,up,0.33358790054990095,1168.1916030852335,None,001,4,2019_Jun_04_1459,ACPT_experiment_5_30_19,3.1.0,59.95551493584245,
,,,C,U,y,n,L,D,d,R,c ,,,,,5,19,119,17,2,0,2,0,,,,,0,14,14,13,,,,,,down,0.6171645115973661,1169.7928152880413,None,001,4,2019_Jun_04_1459,ACPT_experiment_5_30_19,3.1.0,59.95551493584245,
,,,C,U,y,n,L,G,y,R,y,,,,,5,19,119,17,2,0,2,0,,,,,0,15,15,35,,,,,,down,0.8172869453483145,1171.7109872217334,None,001,4,2019_Jun_04_1459,ACPT_experiment_5_30_19,3.1.0,59.95551493584245,
,,,C,U,y,n,R,G,y,R,y,,,,,5,19,119,17,2,0,2,0,,,,,0,16,16,29,,,,,,down,0.6838555885442474,1173.8126033110238,None,001,4,2019_Jun_04_1459,ACPT_experiment_5_30_19,3.1.0,59.95551493584245,
,,,C,U,y,n,L,G,g,R,c ,,,,,5,19,119,17,2,0,2,0,,,,,0,17,17,19,,,,,,up,0.6171593800099799,1175.7974445878608,None,001,4,2019_Jun_04_1459,ACPT_experiment_5_30_19,3.1.0,59.95551493584245,
,,,C,U,y,n,R,D,y,L,y,,,,,5,19,119,17,2,0,2,0,,,,,0,18,18,26,,,,,,down,0.7505928498212597,1177.6989385452616,None,001,4,2019_Jun_04_1459,ACPT_experiment_5_30_19,3.1.0,59.95551493584245,
,,,C,U,y,n,L,G,d,L,i,,,,,5,19,119,17,2,0,2,0,,,,,0,19,19,16,,,,,,up,0.8506561797039467,1179.7338336736284,None,001,4,2019_Jun_04_1459,ACPT_experiment_5_30_19,3.1.0,59.95551493584245,
,,,C,U,y,n,R,G,y,L,y,,,,,5,19,119,17,2,0,2,0,,,,,0,20,20,28,,,,,,down,0.7002884558496589,1181.8857662312257,None,001,4,2019_Jun_04_1459,ACPT_experiment_5_30_19,3.1.0,59.95551493584245,
,,,C,U,y,n,L,U,d,L,u,,,,,5,19,119,17,2,0,2,0,,,,,0,21,21,20,,,,,,down,1.2676430174724374,1183.8703590786317,None,001,4,2019_Jun_04_1459,ACPT_experiment_5_30_19,3.1.0,59.95551493584245,
,,,C,U,y,n,R,G,d,L,i,,,,,5,19,119,17,2,0,2,0,,,,,0,22,22,4,,,,,,up,1.467810729980556,1186.4223227880138,None,001,4,2019_Jun_04_1459,ACPT_experiment_5_30_19,3.1.0,59.95551493584245,
,,,C,U,y,n,R,U,g,R,u,,,,,5,19,119,17,2,0,2,0,,,,,0,23,23,11,,,,,,up,0.5837771657425037,1189.1744508894553,None,001,4,2019_Jun_04_1459,ACPT_experiment_5_30_19,3.1.0,59.95551493584245,
,,,C,U,y,n,L,D,y,R,y,,,,,5,19,119,17,2,0,2,0,,,,,0,24,24,33,,,,,,down,0.6004644996428397,1191.0425493508228,None,001,4,2019_Jun_04_1459,ACPT_experiment_5_30_19,3.1.0,59.95551493584245,
,,,C,U,y,n,R,U,y,L,u,,,,,5,19,119,17,2,0,2,0,,,,,0,25,25,30,,,,,,down,0.6505352552485419,1192.9273451074187,None,001,4,2019_Jun_04_1459,ACPT_experiment_5_30_19,3.1.0,59.95551493584245,
,,,C,U,y,n,L,U,d,R,u,,,,,5,19,119,17,2,0,2,0,,,,,0,26,26,21,,,,,,up,0.6502264541450131,1194.8791156878215,None,001,4,2019_Jun_04_1459,ACPT_experiment_5_30_19,3.1.0,59.95551493584245,
,,,C,U,y,n,R,G,d,R,i,,,,,5,19,119,17,2,0,2,0,,,,,0,27,27,5,,,,,,up,0.4503439977852395,1196.7969899891687,None,001,4,2019_Jun_04_1459,ACPT_experiment_5_30_19,3.1.0,59.95551493584245,
,,,C,U,y,n,R,G,g,R,c ,,,,,5,19,119,17,2,0,2,0,,,,,0,28,28,7,,,,,,up,0.5838031255625538,1198.5149601003613,None,001,4,2019_Jun_04_1459,ACPT_experiment_5_30_19,3.1.0,59.95551493584245,
,,,C,U,y,n,L,D,y,L,y,,,,,5,19,119,17,2,0,2,0,,,,,0,29,29,32,,,,,,down,0.850433106374112,1200.3999538760436,None,001,4,2019_Jun_04_1459,ACPT_experiment_5_30_19,3.1.0,59.95551493584245,
,,,C,U,y,n,R,U,y,R,u,,,,,5,19,119,17,2,0,2,0,,,,,0,30,30,31,,,,,,down,0.7672472811609623,1202.551431533091,None,001,4,2019_Jun_04_1459,ACPT_experiment_5_30_19,3.1.0,59.95551493584245,
,,,C,U,y,n,L,D,g,L,i,,,,,5,19,119,17,2,0,2,0,,,,,0,31,31,14,,,,,,up,0.6338104909045796,1204.6030149009384,None,001,4,2019_Jun_04_1459,ACPT_experiment_5_30_19,3.1.0,59.95551493584245,
,,,C,U,y,n,L,U,g,L,u,,,,,5,19,119,17,2,0,2,0,,,,,0,32,32,22,,,,,,up,0.5337368978398445,1206.5211557432194,None,001,4,2019_Jun_04_1459,ACPT_experiment_5_30_19,3.1.0,59.95551493584245,
,,,C,U,y,n,R,U,g,L,u,,,,,5,19,119,17,2,0,2,0,,,,,0,33,33,10,,,,,,up,0.5504172889995971,1208.3392260110159,None,001,4,2019_Jun_04_1459,ACPT_experiment_5_30_19,3.1.0,59.95551493584245,
,,,C,U,y,n,L,U,y,R,u,,,,,5,19,119,17,2,0,2,0,,,,,0,34,34,25,,,,,,down,0.8840386958290765,1210.1739458804186,None,001,4,2019_Jun_04_1459,ACPT_experiment_5_30_19,3.1.0,59.95551493584245,
,,,C,U,y,n,L,G,g,L,c ,,,,,5,19,119,17,2,0,2,0,,,,,0,35,35,18,,,,,,up,0.7839355206415348,1212.3423119090367,None,001,4,2019_Jun_04_1459,ACPT_experiment_5_30_19,3.1.0,59.95551493584245,
,,,C,U,y,n,L,U,g,L,u,,,,,5,19,119,17,2,0,2,0,,,,,1,0,36,22,,,,,,up,0.6171168179789674,1214.4105717438833,None,001,4,2019_Jun_04_1459,ACPT_experiment_5_30_19,3.1.0,59.95551493584245,
,,,C,U,y,n,R,D,d,L,c,,,,,5,19,119,17,2,0,2,0,,,,,1,1,37,0,,,,,,up,1.384400925860973,1216.312034609873,None,001,4,2019_Jun_04_1459,ACPT_experiment_5_30_19,3.1.0,59.95551493584245,
,,,C,U,y,n,R,D,d,R,c ,,,,,5,19,119,17,2,0,2,0,,,,,1,2,38,1,,,,,,up,0.5837762601695431,1218.9807622648077,None,001,4,2019_Jun_04_1459,ACPT_experiment_5_30_19,3.1.0,59.95551493584245,
,,,C,U,y,n,R,U,d,L,u,,,,,5,19,119,17,2,0,2,0,,,,,1,3,39,8,,,,,,up,0.5670979820170032,1220.848865254051,None,001,4,2019_Jun_04_1459,ACPT_experiment_5_30_19,3.1.0,59.95551493584245,
,,,C,U,y,n,L,D,g,L,i,,,,,5,19,119,17,2,0,2,0,,,,,1,4,40,14,,,,,,up,0.4670168424891017,1222.7002944930173,None,001,4,2019_Jun_04_1459,ACPT_experiment_5_30_19,3.1.0,59.95551493584245,
,,,C,U,y,n,L,D,d,R,c ,,,,,5,19,119,17,2,0,2,0,,,,,1,5,41,13,,,,,,up,0.48370810055348556,1224.4349652198798,None,001,4,2019_Jun_04_1459,ACPT_experiment_5_30_19,3.1.0,59.95551493584245,
,,,C,U,y,n,L,U,g,R,u,,,,,5,19,119,17,2,0,2,0,,,,,1,6,42,23,,,,,,up,0.40003447222625255,1226.2199421518635,None,001,4,2019_Jun_04_1459,ACPT_experiment_5_30_19,3.1.0,59.95551493584245,
,,,C,U,y,n,L,D,d,L,c ,,,,,5,19,119,17,2,0,2,0,,,,,1,7,43,12,,,,,,up,0.46702076664951164,1227.9043045605977,None,001,4,2019_Jun_04_1459,ACPT_experiment_5_30_19,3.1.0,59.95551493584245,
,,,C,U,y,n,L,U,y,R,u,,,,,5,19,119,17,2,0,2,0,,,,,1,8,44,25,,,,,,down,0.7005293388210703,1229.689013140498,None,001,4,2019_Jun_04_1459,ACPT_experiment_5_30_19,3.1.0,59.95551493584245,
,,,C,U,y,n,L,G,y,L,y,,,,,5,19,119,17,2,0,2,0,,,,,1,9,45,34,,,,,,down,0.6171587762910349,1231.6905429586732,None,001,4,2019_Jun_04_1459,ACPT_experiment_5_30_19,3.1.0,59.95551493584245,
,,,C,U,y,n,R,U,y,R,u,,,,,5,19,119,17,2,0,2,0,,,,,1,10,46,31,,,,,,down,0.5167824192867556,1233.6089769054197,None,001,4,2019_Jun_04_1459,ACPT_experiment_5_30_19,3.1.0,59.95551493584245,
,,,C,U,y,n,R,U,y,L,u,,,,,5,19,119,17,2,0,2,0,,,,,1,11,47,30,,,,,,down,0.4837014596669178,1235.4100948076739,None,001,4,2019_Jun_04_1459,ACPT_experiment_5_30_19,3.1.0,59.95551493584245,
,,,C,U,y,n,R,U,d,R,u,,,,,5,19,119,17,2,0,2,0,,,,,1,12,48,9,,,,,,up,0.5670907374151284,1237.178123901991,None,001,4,2019_Jun_04_1459,ACPT_experiment_5_30_19,3.1.0,59.95551493584245,
,,,C,U,y,n,L,U,y,L,u,,,,,5,19,119,17,2,0,2,0,,,,,1,13,49,24,,,,,,down,0.6005155137063412,1239.029529596006,None,001,4,2019_Jun_04_1459,ACPT_experiment_5_30_19,3.1.0,59.95551493584245,
,,,C,U,y,n,R,G,g,L,c ,,,,,5,19,119,17,2,0,2,0,,,,,1,14,50,6,,,,,,up,0.6000319366175972,1240.9314150637001,None,001,4,2019_Jun_04_1459,ACPT_experiment_5_30_19,3.1.0,59.95551493584245,
,,,C,U,y,n,R,U,g,R,u,,,,,5,19,119,17,2,0,2,0,,,,,1,15,51,11,,,,,,up,0.7338928378667333,1242.815803311507,None,001,4,2019_Jun_04_1459,ACPT_experiment_5_30_19,3.1.0,59.95551493584245,
,,,C,U,y,n,R,D,y,R,y,,,,,5,19,119,17,2,0,2,0,,,,,1,16,52,27,,,,,,down,0.6838510606685304,1244.8340310286258,None,001,4,2019_Jun_04_1459,ACPT_experiment_5_30_19,3.1.0,59.95551493584245,
,,,C,U,y,n,L,D,y,R,y,,,,,5,19,119,17,2,0,2,0,,,,,1,17,53,33,,,,,,down,0.6004472937165701,1246.8188949448377,None,001,4,2019_Jun_04_1459,ACPT_experiment_5_30_19,3.1.0,59.95551493584245,
,,,C,U,y,n,R,D,g,L,i,,,,,5,19,119,17,2,0,2,0,,,,,1,18,54,2,,,,,,up,0.6505002396734199,1248.7203511699445,None,001,4,2019_Jun_04_1459,ACPT_experiment_5_30_19,3.1.0,59.95551493584245,
,,,C,U,y,n,L,D,y,L,y,,,,,5,19,119,17,2,0,2,0,,,,,1,19,55,32,,,,,,down,0.6004611792050127,1250.6551790442682,None,001,4,2019_Jun_04_1459,ACPT_experiment_5_30_19,3.1.0,59.95551493584245,
,,,C,U,y,n,L,U,d,R,u,,,,,5,19,119,17,2,0,2,0,,,,,1,20,56,21,,,,,,up,0.7505886238068342,1252.5399633302477,None,001,4,2019_Jun_04_1459,ACPT_experiment_5_30_19,3.1.0,59.95551493584245,
,,,C,U,y,n,R,G,g,R,c ,,,,,5,19,119,17,2,0,2,0,,,,,1,21,57,7,,,,,,up,0.4969491175470466,1254.6116679727093,None,001,4,2019_Jun_04_1459,ACPT_experiment_5_30_19,3.1.0,59.95551493584245,
,,,C,U,y,n,R,D,g,R,i,,,,,5,19,119,17,2,0,2,0,,,,,1,22,58,3,,,,,,up,0.5337667818166665,1256.3762329404744,None,001,4,2019_Jun_04_1459,ACPT_experiment_5_30_19,3.1.0,59.95551493584245,
,,,C,U,y,n,L,D,g,R,i,,,,,5,19,119,17,2,0,2,0,,,,,1,23,59,15,,,,,,up,0.6670607930682309,1258.194327658799,None,001,4,2019_Jun_04_1459,ACPT_experiment_5_30_19,3.1.0,59.95551493584245,
,,,C,U,y,n,R,D,y,L,y,,,,,5,19,119,17,2,0,2,0,,,,,1,24,60,26,,,,,,down,0.8673320429916203,1260.145830188976,None,001,4,2019_Jun_04_1459,ACPT_experiment_5_30_19,3.1.0,59.95551493584245,
,,,C,U,y,n,L,G,d,R,i,,,,,5,19,119,17,2,0,2,0,,,,,1,25,61,17,,,,,,up,0.6838426086360414,1262.2974953000667,None,001,4,2019_Jun_04_1459,ACPT_experiment_5_30_19,3.1.0,59.95551493584245,
,,,C,U,y,n,L,G,g,L,c ,,,,,5,19,119,17,2,0,2,0,,,,,1,26,62,18,,,,,,up,0.5504094406787772,1264.2656788251188,None,001,4,2019_Jun_04_1459,ACPT_experiment_5_30_19,3.1.0,59.95551493584245,
,,,C,U,y,n,R,U,g,L,u,,,,,5,19,119,17,2,0,2,0,,,,,1,27,63,10,,,,,,up,0.5337393127047108,1266.1004216357578,None,001,4,2019_Jun_04_1459,ACPT_experiment_5_30_19,3.1.0,59.95551493584245,
,,,C,U,y,n,L,G,g,R,c ,,,,,5,19,119,17,2,0,2,0,,,,,1,28,64,19,,,,,,up,0.5501510499234428,1267.918755727762,None,001,4,2019_Jun_04_1459,ACPT_experiment_5_30_19,3.1.0,59.95551493584245,
,,,C,U,y,n,R,G,d,R,i,,,,,5,19,119,17,2,0,2,0,,,,,1,29,65,5,,,,,,up,0.48371957116614794,1269.7532084525192,None,001,4,2019_Jun_04_1459,ACPT_experiment_5_30_19,3.1.0,59.95551493584245,
,,,C,U,y,n,R,G,y,R,y,,,,,5,19,119,17,2,0,2,0,,,,,1,30,66,29,,,,,,down,0.6504957117977028,1271.5212686382438,None,001,4,2019_Jun_04_1459,ACPT_experiment_5_30_19,3.1.0,59.95551493584245,
,,,C,U,y,n,L,U,d,L,u,,,,,5,19,119,17,2,0,2,0,,,,,1,31,67,20,,,,,,up,6.288171800875716,1273.456092286553,None,001,4,2019_Jun_04_1459,ACPT_experiment_5_30_19,3.1.0,59.95551493584245,
,,,C,U,y,n,L,G,y,R,y,,,,,5,19,119,17,2,0,2,0,,,,,1,32,68,35,,,,,,down,0.7839364262144954,1281.0285947406628,None,001,4,2019_Jun_04_1459,ACPT_experiment_5_30_19,3.1.0,59.95551493584245,
,,,C,U,y,n,L,G,d,L,i,,,,,5,19,119,17,2,0,2,0,,,,,1,33,69,16,,,,,,up,1.7847342378627218,1283.0968322379922,None,001,4,2019_Jun_04_1459,ACPT_experiment_5_30_19,3.1.0,59.95551493584245,
,,,C,U,y,n,R,G,y,L,y,,,,,5,19,119,17,2,0,2,0,,,,,1,34,70,28,,,,,,down,0.9006870900011563,1286.1825729923694,None,001,4,2019_Jun_04_1459,ACPT_experiment_5_30_19,3.1.0,59.95551493584245,
,,,C,U,y,n,R,G,d,L,i,,,,,5,19,119,17,2,0,2,0,,,,,1,35,71,4,,,,,,up,0.8006134969327832,1288.3675871133055,None,001,4,2019_Jun_04_1459,ACPT_experiment_5_30_19,3.1.0,59.95551493584245,
,,,C,U,y,n,,,,,,,,,,5,19,119,17,3,0,3,0,0,0,0,0,,,,,,,,,,,,,,001,4,2019_Jun_04_1459,ACPT_experiment_5_30_19,3.1.0,59.95551493584245,
,,,C,U,y,n,L,G,d,R,i,,,,,5,19,119,17,3,0,3,0,,,,,0,0,0,17,,,,,,up,0.7472624465262925,1294.00857972019,None,001,4,2019_Jun_04_1459,ACPT_experiment_5_30_19,3.1.0,59.95551493584245,
,,,C,U,y,n,R,U,g,R,u,,,,,5,19,119,17,3,0,3,0,,,,,0,1,1,11,,,,,,up,0.4503415829203732,1296.0401640660566,None,001,4,2019_Jun_04_1459,ACPT_experiment_5_30_19,3.1.0,59.95551493584245,
,,,C,U,y,n,L,G,d,L,i,,,,,5,19,119,17,3,0,3,0,,,,,0,2,2,16,,,,,,up,0.11674402290373109,1297.7748411319444,None,001,4,2019_Jun_04_1459,ACPT_experiment_5_30_19,3.1.0,59.95551493584245,
,,,C,U,y,n,L,G,g,L,c ,,,,,5,19,119,17,3,0,3,0,,,,,0,3,3,18,,,,,,up,0.266866637768544,1299.1592348132035,None,001,4,2019_Jun_04_1459,ACPT_experiment_5_30_19,3.1.0,59.95551493584245,
,,,C,U,y,n,L,D,d,L,c ,,,,,5,19,119,17,3,0,3,0,,,,,0,4,4,12,,,,,,up,0.3333497343046474,1300.7273808474492,None,001,4,2019_Jun_04_1459,ACPT_experiment_5_30_19,3.1.0,59.95551493584245,
,,,C,U,y,n,L,U,d,L,u,,,,,5,19,119,17,3,0,3,0,,,,,0,5,5,20,,,,,,up,0.3336096343555255,1302.3283240944547,None,001,4,2019_Jun_04_1459,ACPT_experiment_5_30_19,3.1.0,59.95551493584245,
,,,C,U,y,n,L,U,y,R,u,,,,,5,19,119,17,3,0,3,0,,,,,0,6,6,25,,,,,,down,0.5838028237049002,1303.9462369129324,None,001,4,2019_Jun_04_1459,ACPT_experiment_5_30_19,3.1.0,59.95551493584245,
,,,C,U,y,n,L,U,g,R,u,,,,,5,19,119,17,3,0,3,0,,,,,0,7,7,23,,,,,,up,0.5003776248122449,1305.814370691729,None,001,4,2019_Jun_04_1459,ACPT_experiment_5_30_19,3.1.0,59.95551493584245,
,,,C,U,y,n,L,D,y,L,y,,,,,5,19,119,17,3,0,3,0,,,,,0,8,8,32,,,,,,down,0.5670970764404046,1307.5990771586185,None,001,4,2019_Jun_04_1459,ACPT_experiment_5_30_19,3.1.0,59.95551493584245,
,,,C,U,y,n,L,D,g,L,i,,,,,5,19,119,17,3,0,3,0,,,,,0,9,9,14,,,,,,up,0.7172136541412328,1309.4505036808623,None,001,4,2019_Jun_04_1459,ACPT_experiment_5_30_19,3.1.0,59.95551493584245,
,,,C,U,y,n,R,G,y,L,y,,,,,5,19,119,17,3,0,3,0,,,,,0,10,10,28,,,,,,down,0.5337387089894037,1311.4520494975259,None,001,4,2019_Jun_04_1459,ACPT_experiment_5_30_19,3.1.0,59.95551493584245,
,,,C,U,y,n,R,G,g,L,c ,,,,,5,19,119,17,3,0,3,0,,,,,0,11,11,6,,,,,,up,0.5003794359581661,1313.2701164448808,None,001,4,2019_Jun_04_1459,ACPT_experiment_5_30_19,3.1.0,59.95551493584245,
,,,C,U,y,n,L,U,g,L,u,,,,,5,19,119,17,3,0,3,0,,,,,0,12,12,22,,,,,,up,0.50042109241258,1315.0548250247848,None,001,4,2019_Jun_04_1459,ACPT_experiment_5_30_19,3.1.0,59.95551493584245,
,,,C,U,y,n,R,G,g,R,c ,,,,,5,19,119,17,3,0,3,0,,,,,0,13,13,7,,,,,,up,0.5837732415857317,1316.8395333028275,None,001,4,2019_Jun_04_1459,ACPT_experiment_5_30_19,3.1.0,59.95551493584245,
,,,C,U,y,n,L,G,y,R,y,,,,,5,19,119,17,3,0,3,0,,,,,0,14,14,35,,,,,,down,1.11754666428169,1318.7076432348113,None,001,4,2019_Jun_04_1459,ACPT_experiment_5_30_19,3.1.0,59.95551493584245,
,,,C,U,y,n,R,U,y,R,u,,,,,5,19,119,17,3,0,3,0,,,,,0,15,15,31,,,,,,down,0.6504990322428057,1321.1261707576523,None,001,4,2019_Jun_04_1459,ACPT_experiment_5_30_19,3.1.0,59.95551493584245,
,,,C,U,y,n,R,D,y,R,y,,,,,5,19,119,17,3,0,3,0,,,,,0,16,16,27,,,,,,down,0.4670111071827705,1323.060998330122,None,001,4,2019_Jun_04_1459,ACPT_experiment_5_30_19,3.1.0,59.95551493584245,
,,,C,U,y,n,L,G,y,L,y,,,,,5,19,119,17,3,0,3,0,,,,,0,17,17,34,,,,,,down,0.5337601409300987,1324.8290041813416,None,001,4,2019_Jun_04_1459,ACPT_experiment_5_30_19,3.1.0,59.95551493584245,
,,,C,U,y,n,L,D,y,R,y,,,,,5,19,119,17,3,0,3,0,,,,,0,18,18,33,,,,,,down,0.5304227948945481,1326.6670933937712,None,001,4,2019_Jun_04_1459,ACPT_experiment_5_30_19,3.1.0,59.95551493584245,
,,,C,U,y,n,L,U,d,R,u,,,,,5,19,119,17,3,0,3,0,,,,,0,19,19,21,,,,,,up,0.5671073396260908,1328.4818414084475,None,001,4,2019_Jun_04_1459,ACPT_experiment_5_30_19,3.1.0,59.95551493584245,
,,,C,U,y,n,R,D,d,R,c ,,,,,5,19,119,17,3,0,3,0,,,,,0,20,20,1,,,,,,up,0.4003109744844551,1330.33325313963,None,001,4,2019_Jun_04_1459,ACPT_experiment_5_30_19,3.1.0,59.95551493584245,
,,,C,U,y,n,R,G,d,L,i,,,,,5,19,119,17,3,0,3,0,,,,,0,21,21,4,,,,,,up,0.5837985976868367,1332.017879976287,None,001,4,2019_Jun_04_1459,ACPT_experiment_5_30_19,3.1.0,59.95551493584245,
,,,C,U,y,n,L,D,g,R,i,,,,,5,19,119,17,3,0,3,0,,,,,0,22,22,15,,,,,,up,0.8473408693280362,1333.9060022120175,None,001,4,2019_Jun_04_1459,ACPT_experiment_5_30_19,3.1.0,59.95551493584245,
,,,C,U,y,n,R,G,y,R,y,,,,,5,19,119,17,3,0,3,0,,,,,0,23,23,29,,,,,,up,0.3002228922159702,1336.0543456737068,None,001,4,2019_Jun_04_1459,ACPT_experiment_5_30_19,3.1.0,59.95551493584245,
,,,C,U,y,n,L,D,d,R,c ,,,,,5,19,119,17,3,0,3,0,,,,,0,24,24,13,,,,,,down,0.9173650662960426,1337.6555835344734,None,001,4,2019_Jun_04_1459,ACPT_experiment_5_30_19,3.1.0,59.95551493584245,
,,,C,U,y,n,L,U,y,L,u,,,,,5,19,119,17,3,0,3,0,,,,,0,25,25,24,,,,,,down,0.9006919197345269,1339.857271103825,None,001,4,2019_Jun_04_1459,ACPT_experiment_5_30_19,3.1.0,59.95551493584245,
,,,C,U,y,n,R,U,d,R,u,,,,,5,19,119,17,3,0,3,0,,,,,0,26,26,9,,,,,,up,0.6838561922595545,1342.0422960916585,None,001,4,2019_Jun_04_1459,ACPT_experiment_5_30_19,3.1.0,59.95551493584245,
,,,C,U,y,n,R,D,g,L,i,,,,,5,19,119,17,3,0,3,0,,,,,0,27,27,2,,,,,,up,0.5670970764440426,1344.0104768999881,None,001,4,2019_Jun_04_1459,ACPT_experiment_5_30_19,3.1.0,59.95551493584245,
,,,C,U,y,n,R,D,g,R,i,,,,,5,19,119,17,3,0,3,0,,,,,0,28,28,3,,,,,,up,0.7840867516788421,1345.8450760260494,None,001,4,2019_Jun_04_1459,ACPT_experiment_5_30_19,3.1.0,59.95551493584245,
,,,C,U,y,n,R,U,d,L,u,,,,,5,19,119,17,3,0,3,0,,,,,0,29,29,8,,,,,,up,0.46702076664951164,1347.9134898086595,None,001,4,2019_Jun_04_1459,ACPT_experiment_5_30_19,3.1.0,59.95551493584245,
,,,C,U,y,n,L,G,g,R,c ,,,,,5,19,119,17,3,0,3,0,,,,,0,30,30,19,,,,,,up,0.6171400610728597,1349.6648367006637,None,001,4,2019_Jun_04_1459,ACPT_experiment_5_30_19,3.1.0,59.95551493584245,
,,,C,U,y,n,R,U,y,L,u,,,,,5,19,119,17,3,0,3,0,,,,,0,31,31,30,,,,,,down,0.6504939006481436,1351.566302887095,None,001,4,2019_Jun_04_1459,ACPT_experiment_5_30_19,3.1.0,59.95551493584245,
,,,C,U,y,n,R,D,y,L,y,,,,,5,19,119,17,3,0,3,0,,,,,0,32,32,26,,,,,,down,0.5837949753877183,1353.5011108387698,None,001,4,2019_Jun_04_1459,ACPT_experiment_5_30_19,3.1.0,59.95551493584245,
,,,C,U,y,n,R,G,d,R,i,,,,,5,19,119,17,3,0,3,0,,,,,0,33,33,5,,,,,,up,0.7005396020067565,1355.3692325432312,None,001,4,2019_Jun_04_1459,ACPT_experiment_5_30_19,3.1.0,59.95551493584245,
,,,C,U,y,n,R,D,d,L,c,,,,,5,19,119,17,3,0,3,0,,,,,0,34,34,0,,,,,,up,0.7339046103443252,1357.3541018928954,None,001,4,2019_Jun_04_1459,ACPT_experiment_5_30_19,3.1.0,59.95551493584245,
,,,C,U,y,n,R,U,g,L,u,,,,,5,19,119,17,3,0,3,0,,,,,0,35,35,10,,,,,,up,0.8506537648390804,1359.3723253839962,None,001,4,2019_Jun_04_1459,ACPT_experiment_5_30_19,3.1.0,59.95551493584245,
,,,C,U,y,n,R,U,d,R,u,,,,,5,19,119,17,3,0,3,0,,,,,1,0,36,9,,,,,,up,0.5337592353571381,1361.490600432502,None,001,4,2019_Jun_04_1459,ACPT_experiment_5_30_19,3.1.0,59.95551493584245,
,,,C,U,y,n,L,U,y,L,u,,,,,5,19,119,17,3,0,3,0,,,,,1,1,37,24,,,,,,down,0.73388197096574,1363.3086860950752,None,001,4,2019_Jun_04_1459,ACPT_experiment_5_30_19,3.1.0,59.95551493584245,
,,,C,U,y,n,R,G,d,L,i,,,,,5,19,119,17,3,0,3,0,,,,,1,2,38,4,,,,,,up,1.8345031350982026,1365.3605130626202,None,001,4,2019_Jun_04_1459,ACPT_experiment_5_30_19,3.1.0,59.95551493584245,
,,,C,U,y,n,R,D,d,R,c ,,,,,5,19,119,17,3,0,3,0,,,,,1,3,39,1,,,,,,up,0.5170700903072429,1368.4793402100695,None,001,4,2019_Jun_04_1459,ACPT_experiment_5_30_19,3.1.0,59.95551493584245,
,,,C,U,y,n,L,G,d,R,i,,,,,5,19,119,17,3,0,3,0,,,,,1,4,40,17,,,,,,up,0.6171448908062303,1370.280728879272,None,001,4,2019_Jun_04_1459,ACPT_experiment_5_30_19,3.1.0,59.95551493584245,
,,,C,U,y,n,L,G,y,L,y,,,,,5,19,119,17,3,0,3,0,,,,,1,5,41,34,,,,,,up,0.3835883231513435,1372.1988769661548,None,001,4,2019_Jun_04_1459,ACPT_experiment_5_30_19,3.1.0,59.95551493584245,
,,,C,U,y,n,L,U,d,L,u,,,,,5,19,119,17,3,0,3,0,,,,,1,6,42,20,,,,,,up,0.6004370305345219,1373.9002001924673,None,001,4,2019_Jun_04_1459,ACPT_experiment_5_30_19,3.1.0,59.95551493584245,
,,,C,U,y,n,R,G,d,R,i,,,,,5,19,119,17,3,0,3,0,,,,,1,7,43,5,,,,,,up,0.5670970764404046,1375.784975724553,None,001,4,2019_Jun_04_1459,ACPT_experiment_5_30_19,3.1.0,59.95551493584245,
,,,C,U,y,n,L,U,d,R,u,,,,,5,19,119,17,3,0,3,0,,,,,1,8,44,21,,,,,,up,0.5838013144129945,1377.6196995181126,None,001,4,2019_Jun_04_1459,ACPT_experiment_5_30_19,3.1.0,59.95551493584245,
,,,C,U,y,n,R,D,g,R,i,,,,,5,19,119,17,3,0,3,0,,,,,1,9,45,3,,,,,,up,0.5670976801593497,1379.4878308820444,None,001,4,2019_Jun_04_1459,ACPT_experiment_5_30_19,3.1.0,59.95551493584245,
,,,C,U,y,n,R,U,y,R,u,,,,,5,19,119,17,3,0,3,0,,,,,1,10,46,31,,,,,,up,0.41699015820995555,1381.339255593135,None,001,4,2019_Jun_04_1459,ACPT_experiment_5_30_19,3.1.0,59.95551493584245,
,,,C,U,y,n,R,U,g,L,u,,,,,5,19,119,17,3,0,3,0,,,,,1,11,47,10,,,,,,up,0.2502022451008088,1383.0405685562619,None,001,4,2019_Jun_04_1459,ACPT_experiment_5_30_19,3.1.0,59.95551493584245,
,,,C,U,y,n,L,G,y,R,y,,,,,5,19,119,17,3,0,3,0,,,,,1,12,48,35,,,,,,up,0.26686331732707913,1384.5917637342536,None,001,4,2019_Jun_04_1459,ACPT_experiment_5_30_19,3.1.0,59.95551493584245,
,,,C,U,y,n,R,U,d,L,u,,,,,5,19,119,17,3,0,3,0,,,,,1,13,49,8,,,,,,up,0.21680342862964608,1386.1596562074774,None,001,4,2019_Jun_04_1459,ACPT_experiment_5_30_19,3.1.0,59.95551493584245,
,,,C,U,y,n,R,G,y,L,y,,,,,5,19,119,17,3,0,3,0,,,,,1,14,50,28,,,,,,up,0.05004630507391994,1387.6608008543808,None,001,4,2019_Jun_04_1459,ACPT_experiment_5_30_19,3.1.0,59.95551493584245,
,,,C,U,y,n,L,G,g,L,c ,,,,,5,19,119,17,3,0,3,0,,,,,1,15,51,18,,,,,,up,0.016667411251546582,1388.9951606067589,None,001,4,2019_Jun_04_1459,ACPT_experiment_5_30_19,3.1.0,59.95551493584245,
,,,C,U,y,n,R,G,g,L,c ,,,,,5,19,119,17,3,0,3,0,,,,,1,16,52,6,,,,,,up,0.06670677358124522,1390.2961631991202,None,001,4,2019_Jun_04_1459,ACPT_experiment_5_30_19,3.1.0,59.95551493584245,
,,,C,U,y,n,R,D,y,R,y,,,,,5,19,119,17,3,0,3,0,,,,,1,17,53,27,,,,,,up,0.06671009402271011,1391.6472042482346,None,001,4,2019_Jun_04_1459,ACPT_experiment_5_30_19,3.1.0,59.95551493584245,
,,,C,U,y,n,L,U,y,R,u,,,,,5,19,119,17,3,0,3,0,,,,,1,18,54,25,,,,,,up,0.04982081687558093,1393.0151671751992,None,001,4,2019_Jun_04_1459,ACPT_experiment_5_30_19,3.1.0,59.95551493584245,
,,,C,U,y,n,R,U,y,L,u,,,,,5,19,119,17,3,0,3,0,,,,,1,19,55,30,,,,,,up,0.5503855938695779,1394.365970359926,None,001,4,2019_Jun_04_1459,ACPT_experiment_5_30_19,3.1.0,59.95551493584245,
,,,C,U,y,n,L,D,d,R,c ,,,,,5,19,119,17,3,0,3,0,,,,,1,20,56,13,,,,,,up,0.700527527671511,1396.2173971840239,None,001,4,2019_Jun_04_1459,ACPT_experiment_5_30_19,3.1.0,59.95551493584245,
,,,C,U,y,n,R,D,d,L,c,,,,,5,19,119,17,3,0,3,0,,,,,1,21,57,0,,,,,,up,0.46701654063144815,1398.2022574779367,None,001,4,2019_Jun_04_1459,ACPT_experiment_5_30_19,3.1.0,59.95551493584245,
,,,C,U,y,n,L,G,g,R,c ,,,,,5,19,119,17,3,0,3,0,,,,,1,22,58,19,,,,,,up,0.43034497581174946,1399.973601580772,None,001,4,2019_Jun_04_1459,ACPT_experiment_5_30_19,3.1.0,59.95551493584245,
,,,C,U,y,n,R,D,y,L,y,,,,,5,19,119,17,3,0,3,0,,,,,1,23,59,26,,,,,,down,0.7672566387700499,1401.6882784172485,None,001,4,2019_Jun_04_1459,ACPT_experiment_5_30_19,3.1.0,59.95551493584245,
,,,C,U,y,n,L,U,g,R,u,,,,,5,19,119,17,3,0,3,0,,,,,1,24,60,23,,,,,,up,0.4336675307858968,1403.7398599739427,None,001,4,2019_Jun_04_1459,ACPT_experiment_5_30_19,3.1.0,59.95551493584245,
,,,C,U,y,n,L,G,d,L,i,,,,,5,19,119,17,3,0,3,0,,,,,1,25,61,16,,,,,,up,0.21682667171990033,1405.4578509133644,None,001,4,2019_Jun_04_1459,ACPT_experiment_5_30_19,3.1.0,59.95551493584245,
,,,C,U,y,n,L,D,y,L,y,,,,,5,19,119,17,3,0,3,0,,,,,1,26,62,32,,,,,,down,0.7002969078821479,1406.9759213622747,None,001,4,2019_Jun_04_1459,ACPT_experiment_5_30_19,3.1.0,59.95551493584245,
,,,C,U,y,n,R,G,g,R,c ,,,,,5,19,119,17,3,0,3,0,,,,,1,27,63,7,,,,,,up,0.40030222059067455,1408.9605489233945,None,001,4,2019_Jun_04_1459,ACPT_experiment_5_30_19,3.1.0,59.95551493584245,
,,,C,U,y,n,R,D,g,L,i,,,,,5,19,119,17,3,0,3,0,,,,,1,28,64,2,,,,,,up,0.43366270105252624,1410.645182099077,None,001,4,2019_Jun_04_1459,ACPT_experiment_5_30_19,3.1.0,59.95551493584245,
,,,C,U,y,n,L,D,g,R,i,,,,,5,19,119,17,3,0,3,0,,,,,1,29,65,15,,,,,,up,0.2835425010562176,1412.3631718310608,None,001,4,2019_Jun_04_1459,ACPT_experiment_5_30_19,3.1.0,59.95551493584245,
,,,C,U,y,n,R,U,g,R,u,,,,,5,19,119,17,3,0,3,0,,,,,1,30,66,11,,,,,,up,0.36667127503824304,1413.948000369477,None,001,4,2019_Jun_04_1459,ACPT_experiment_5_30_19,3.1.0,59.95551493584245,
,,,C,U,y,n,L,D,d,L,c ,,,,,5,19,119,17,3,0,3,0,,,,,1,31,67,12,,,,,,up,0.617134627620544,1415.5990013921728,None,001,4,2019_Jun_04_1459,ACPT_experiment_5_30_19,3.1.0,59.95551493584245,
,,,C,U,y,n,L,U,g,L,u,,,,,5,19,119,17,3,0,3,0,,,,,1,32,68,22,,,,,,up,0.41688722450999194,1417.5004705971842,None,001,4,2019_Jun_04_1459,ACPT_experiment_5_30_19,3.1.0,59.95551493584245,
,,,C,U,y,n,L,D,y,R,y,,,,,5,19,119,17,3,0,3,0,,,,,1,33,69,33,,,,,,down,0.583775052731653,1419.2017802398695,None,001,4,2019_Jun_04_1459,ACPT_experiment_5_30_19,3.1.0,59.95551493584245,
,,,C,U,y,n,L,D,g,L,i,,,,,5,19,119,17,3,0,3,0,,,,,1,34,70,14,,,,,,up,0.3302695715901791,1421.0898795343674,None,001,4,2019_Jun_04_1459,ACPT_experiment_5_30_19,3.1.0,59.95551493584245,
,,,C,U,y,n,R,G,y,R,y,,,,,5,19,119,17,3,0,3,0,,,,,1,35,71,29,,,,,,up,0.08338988146715565,1422.7044767406078,None,001,4,2019_Jun_04_1459,ACPT_experiment_5_30_19,3.1.0,59.95551493584245,
,,,C,U,y,n,,,,,,,,,,5,19,119,17,4,0,4,0,0,0,0,0,,,,,,,,,,,,,,001,4,2019_Jun_04_1459,ACPT_experiment_5_30_19,3.1.0,59.95551493584245,
,,,C,U,y,n,L,G,d,R,i,,,,,5,19,119,17,4,0,4,0,,,,,0,0,0,17,,,,,,up,0.2669267075834796,1425.773509030998,None,001,4,2019_Jun_04_1459,ACPT_experiment_5_30_19,3.1.0,59.95551493584245,
,,,C,U,y,n,L,U,d,R,u,,,,,5,19,119,17,4,0,4,0,,,,,0,1,1,21,,,,,,up,0.18346528568508802,1427.3247057182853,None,001,4,2019_Jun_04_1459,ACPT_experiment_5_30_19,3.1.0,59.95551493584245,
,,,C,U,y,n,L,D,y,L,y,,,,,5,19,119,17,4,0,4,0,,,,,0,2,2,32,,,,,,up,0.06671039588036365,1428.792504373927,None,001,4,2019_Jun_04_1459,ACPT_experiment_5_30_19,3.1.0,59.95551493584245,
,,,C,U,y,n,R,U,d,R,u,,,,,5,19,119,17,4,0,4,0,,,,,0,3,3,9,,,,,,up,0.08338565544909216,1430.1435487434865,None,001,4,2019_Jun_04_1459,ACPT_experiment_5_30_19,3.1.0,59.95551493584245,
,,,C,U,y,n,R,U,g,R,u,,,,,5,19,119,17,4,0,4,0,,,,,0,4,4,11,,,,,,up,0.0001696443978289608,1431.4945894907432,None,001,4,2019_Jun_04_1459,ACPT_experiment_5_30_19,3.1.0,59.95551493584245,
,,,C,U,y,n,R,G,d,R,i,,,,,5,19,119,17,4,0,4,0,,,,,0,5,5,5,,,,,,up,0.13343346981491777,1432.7789141068097,None,001,4,2019_Jun_04_1459,ACPT_experiment_5_30_19,3.1.0,59.95551493584245,
,,,C,U,y,n,L,G,y,L,y,,,,,5,19,119,17,4,0,4,0,,,,,0,6,6,34,,,,,,up,0.049908657660125755,1434.2136209359305,None,001,4,2019_Jun_04_1459,ACPT_experiment_5_30_19,3.1.0,59.95551493584245,
,,,C,U,y,n,R,U,y,R,u,,,,,5,19,119,17,4,0,4,0,,,,,0,7,7,31,,,,,,up,0.03335414143293747,1435.5477111287946,None,001,4,2019_Jun_04_1459,ACPT_experiment_5_30_19,3.1.0,59.95551493584245,
,,,C,U,y,n,R,G,g,R,c ,,,,,5,19,119,17,4,0,4,0,,,,,0,8,8,7,,,,,,up,0.20015352516202256,1436.865393206739,None,001,4,2019_Jun_04_1459,ACPT_experiment_5_30_19,3.1.0,59.95551493584245,
,,,C,U,y,n,L,D,d,R,c ,,,,,5,19,119,17,4,0,4,0,,,,,0,9,9,13,,,,,,up,0.20015020472055767,1438.3498692349604,None,001,4,2019_Jun_04_1459,ACPT_experiment_5_30_19,3.1.0,59.95551493584245,
,,,C,U,y,n,L,D,g,R,i,,,,,5,19,119,17,4,0,4,0,,,,,0,10,10,15,,,,,,up,0.4670355577072769,1439.817656118128,None,001,4,2019_Jun_04_1459,ACPT_experiment_5_30_19,3.1.0,59.95551493584245,
,,,C,U,y,n,L,U,g,R,u,,,,,5,19,119,17,4,0,4,0,,,,,0,11,11,23,,,,,,up,0.33357914665612043,1441.5523515973764,None,001,4,2019_Jun_04_1459,ACPT_experiment_5_30_19,3.1.0,59.95551493584245,
,,,C,U,y,n,R,G,d,L,i,,,,,5,19,119,17,4,0,4,0,,,,,0,12,12,4,,,,,,up,0.4336675307858968,1443.1702523415152,None,001,4,2019_Jun_04_1459,ACPT_experiment_5_30_19,3.1.0,59.95551493584245,
,,,C,U,y,n,R,G,y,R,y,,,,,5,19,119,17,4,0,4,0,,,,,0,13,13,29,,,,,,up,0.3669652850840066,1444.8715468912815,None,001,4,2019_Jun_04_1459,ACPT_experiment_5_30_19,3.1.0,59.95551493584245,
,,,C,U,y,n,R,U,y,L,u,,,,,5,19,119,17,4,0,4,0,,,,,0,14,14,30,,,,,,up,0.2835533679535729,1446.5228376980049,None,001,4,2019_Jun_04_1459,ACPT_experiment_5_30_19,3.1.0,59.95551493584245,
,,,C,U,y,n,R,U,g,L,u,,,,,5,19,119,17,4,0,4,0,,,,,0,15,15,10,,,,,,up,0.15009605133309378,1448.090724134061,None,001,4,2019_Jun_04_1459,ACPT_experiment_5_30_19,3.1.0,59.95551493584245,
,,,C,U,y,n,L,U,d,L,u,,,,,5,19,119,17,4,0,4,0,,,,,0,16,16,20,,,,,,up,0.11676937900483608,1449.5251529516318,None,001,4,2019_Jun_04_1459,ACPT_experiment_5_30_19,3.1.0,59.95551493584245,
,,,C,U,y,n,R,D,d,R,c ,,,,,5,19,119,17,4,0,4,0,,,,,0,17,17,1,,,,,,up,0.08341131341148866,1450.9095336529826,None,001,4,2019_Jun_04_1459,ACPT_experiment_5_30_19,3.1.0,59.95551493584245,
,,,C,U,y,n,R,D,g,R,i,,,,,5,19,119,17,4,0,4,0,,,,,0,18,18,3,,,,,,up,0.3169032833757228,1452.260598850764,None,001,4,2019_Jun_04_1459,ACPT_experiment_5_30_19,3.1.0,59.95551493584245,
,,,C,U,y,n,L,U,y,R,u,,,,,5,19,119,17,4,0,4,0,,,,,0,19,19,25,,,,,,down,0.30022319407362374,1453.8618358059575,None,001,4,2019_Jun_04_1459,ACPT_experiment_5_30_19,3.1.0,59.95551493584245,
,,,C,U,y,n,L,U,y,L,u,,,,,5,19,119,17,4,0,4,0,,,,,0,20,20,24,,,,,,up,0.016679183729138458,1455.4463824086597,None,001,4,2019_Jun_04_1459,ACPT_experiment_5_30_19,3.1.0,59.95551493584245,
,,,C,U,y,n,R,G,y,L,y,,,,,5,19,119,17,4,0,4,0,,,,,0,21,21,28,,,,,,up,0.166781272222579,1456.7640702219142,None,001,4,2019_Jun_04_1459,ACPT_experiment_5_30_19,3.1.0,59.95551493584245,
,,,C,U,y,n,L,D,g,L,i,,,,,5,19,119,17,4,0,4,0,,,,,0,22,22,14,,,,,,up,0.21682455871632555,1458.2318679719829,None,001,4,2019_Jun_04_1459,ACPT_experiment_5_30_19,3.1.0,59.95551493584245,
,,,C,U,y,n,R,U,d,L,u,,,,,5,19,119,17,4,0,4,0,,,,,0,23,23,8,,,,,,up,0.3501511706672318,1459.7330262025134,None,001,4,2019_Jun_04_1459,ACPT_experiment_5_30_19,3.1.0,59.95551493584245,
,,,C,U,y,n,L,D,y,R,y,,,,,5,19,119,17,4,0,4,0,,,,,0,24,24,33,,,,,,up,0.316696510395559,1461.401148631434,None,001,4,2019_Jun_04_1459,ACPT_experiment_5_30_19,3.1.0,59.95551493584245,
,,,C,U,y,n,L,U,g,L,u,,,,,5,19,119,17,4,0,4,0,,,,,0,25,25,22,,,,,,up,0.13341928246882162,1463.018893918521,None,001,4,2019_Jun_04_1459,ACPT_experiment_5_30_19,3.1.0,59.95551493584245,
,,,C,U,y,n,R,D,d,L,c,,,,,5,19,119,17,4,0,4,0,,,,,0,26,26,0,,,,,,up,0.0667143200407736,1464.4366483820995,None,001,4,2019_Jun_04_1459,ACPT_experiment_5_30_19,3.1.0,59.95551493584245,
,,,C,U,y,n,L,G,g,R,c ,,,,,5,19,119,17,4,0,4,0,,,,,0,27,27,19,,,,,,up,1.2175933919606905,1465.7876954683816,None,001,4,2019_Jun_04_1459,ACPT_experiment_5_30_19,3.1.0,59.95551493584245,
,,,C,U,y,n,L,G,g,L,c ,,,,,5,19,119,17,4,0,4,0,,,,,0,28,28,18,,,,,,up,0.033354443294228986,1468.2896143819817,None,001,4,2019_Jun_04_1459,ACPT_experiment_5_30_19,3.1.0,59.95551493584245,
,,,C,U,y,n,L,G,y,R,y,,,,,5,19,119,17,4,0,4,0,,,,,0,29,29,35,,,,,,up,0.40032425625031465,1469.6072774428503,None,001,4,2019_Jun_04_1459,ACPT_experiment_5_30_19,3.1.0,59.95551493584245,
,,,C,U,y,n,L,D,d,L,c ,,,,,5,19,119,17,4,0,4,0,,,,,0,30,30,12,,,,,,up,0.10006997076925472,1471.2919341634843,None,001,4,2019_Jun_04_1459,ACPT_experiment_5_30_19,3.1.0,59.95551493584245,
,,,C,U,y,n,L,G,d,L,i,,,,,5,19,119,17,4,0,4,0,,,,,0,31,31,16,,,,,,up,0.06670677358124522,1472.6763359949182,None,001,4,2019_Jun_04_1459,ACPT_experiment_5_30_19,3.1.0,59.95551493584245,
,,,C,U,y,n,R,D,y,L,y,,,,,5,19,119,17,4,0,4,0,,,,,0,32,32,26,,,,,,up,0.15011265354041825,1474.0273770440363,None,001,4,2019_Jun_04_1459,ACPT_experiment_5_30_19,3.1.0,59.95551493584245,
,,,C,U,y,n,R,G,g,L,c ,,,,,5,19,119,17,4,0,4,0,,,,,0,33,33,6,,,,,,up,0.09676311242583324,1475.481802770577,None,001,4,2019_Jun_04_1459,ACPT_experiment_5_30_19,3.1.0,59.95551493584245,
,,,C,U,y,n,R,D,y,R,y,,,,,5,19,119,17,4,0,4,0,,,,,0,34,34,27,,,,,,up,0.13342682892835,1476.8628995548206,None,001,4,2019_Jun_04_1459,ACPT_experiment_5_30_19,3.1.0,59.95551493584245,
,,,C,U,y,n,R,D,g,L,i,,,,,5,19,119,17,4,0,4,0,,,,,0,35,35,2,,,,,,up,0.33357975037870347,1478.2806582444173,None,001,4,2019_Jun_04_1459,ACPT_experiment_5_30_19,3.1.0,59.95551493584245,
,,,C,U,y,n,R,G,g,R,c ,,,,,5,19,119,17,4,0,4,0,,,,,1,0,36,7,,,,,,up,0.21682969030734967,1479.8985701573183,None,001,4,2019_Jun_04_1459,ACPT_experiment_5_30_19,3.1.0,59.95551493584245,
,,,C,U,y,n,R,D,d,R,c ,,,,,5,19,119,17,4,0,4,0,,,,,1,1,37,1,,,,,,up,0.28357117759878747,1481.3997329157246,None,001,4,2019_Jun_04_1459,ACPT_experiment_5_30_19,3.1.0,59.95551493584245,
,,,C,U,y,n,R,G,y,R,y,,,,,5,19,119,17,4,0,4,0,,,,,1,2,38,29,,,,,,down,0.40029708899965044,1483.0009599095865,None,001,4,2019_Jun_04_1459,ACPT_experiment_5_30_19,3.1.0,59.95551493584245,
,,,C,U,y,n,R,U,d,L,u,,,,,5,19,119,17,4,0,4,0,,,,,1,3,39,8,,,,,,up,0.7171985612221761,1484.7022704578485,None,001,4,2019_Jun_04_1459,ACPT_experiment_5_30_19,3.1.0,59.95551493584245,
,,,C,U,y,n,L,D,g,L,i,,,,,5,19,119,17,4,0,4,0,,,,,1,4,40,14,,,,,,up,0.3836462799590663,1486.7038129540706,None,001,4,2019_Jun_04_1459,ACPT_experiment_5_30_19,3.1.0,59.95551493584245,
,,,C,U,y,n,R,G,y,L,y,,,,,5,19,119,17,4,0,4,0,,,,,1,5,41,28,,,,,,down,0.7001224337509484,1488.388832810313,None,001,4,2019_Jun_04_1459,ACPT_experiment_5_30_19,3.1.0,59.95551493584245,
,,,C,U,y,n,L,G,g,L,c ,,,,,5,19,119,17,4,0,4,0,,,,,1,6,42,18,,,,,,up,0.6004623866392649,1490.3733100459685,None,001,4,2019_Jun_04_1459,ACPT_experiment_5_30_19,3.1.0,59.95551493584245,
,,,C,U,y,n,L,U,g,R,u,,,,,5,19,119,17,4,0,4,0,,,,,1,7,43,23,,,,,,up,0.5170574122530525,1492.2580982561049,None,001,4,2019_Jun_04_1459,ACPT_experiment_5_30_19,3.1.0,59.95551493584245,
,,,C,U,y,n,L,U,y,L,u,,,,,5,19,119,17,4,0,4,0,,,,,1,8,44,24,,,,,,down,0.7005374889959057,1494.0594875290262,None,001,4,2019_Jun_04_1459,ACPT_experiment_5_30_19,3.1.0,59.95551493584245,
,,,C,U,y,n,L,G,y,R,y,,,,,5,19,119,17,4,0,4,0,,,,,1,9,45,35,,,,,,down,1.15089265554343,1496.0443426913444,None,001,4,2019_Jun_04_1459,ACPT_experiment_5_30_19,3.1.0,59.95551493584245,
,,,C,U,y,n,R,G,d,R,i,,,,,5,19,119,17,4,0,4,0,,,,,1,10,46,5,,,,,,up,0.9674122769392852,1498.4795605666732,None,001,4,2019_Jun_04_1459,ACPT_experiment_5_30_19,3.1.0,59.95551493584245,
,,,C,U,y,n,L,D,d,L,c ,,,,,5,19,119,17,4,0,4,0,,,,,1,11,47,12,,,,,,up,0.733655879052094,1500.7482392601814,None,001,4,2019_Jun_04_1459,ACPT_experiment_5_30_19,3.1.0,59.95551493584245,
,,,C,U,y,n,R,G,g,L,c ,,,,,5,19,119,17,4,0,4,0,,,,,1,12,48,6,,,,,,up,0.6504932969328365,1502.7661974177827,None,001,4,2019_Jun_04_1459,ACPT_experiment_5_30_19,3.1.0,59.95551493584245,
,,,C,U,y,n,R,U,d,R,u,,,,,5,19,119,17,4,0,4,0,,,,,1,13,49,9,,,,,,up,0.6171352313358511,1504.7010249902523,None,001,4,2019_Jun_04_1459,ACPT_experiment_5_30_19,3.1.0,59.95551493584245,
,,,C,U,y,n,L,D,d,R,c ,,,,,5,19,119,17,4,0,4,0,,,,,1,14,50,13,,,,,,up,0.2668723730748752,1506.5858050502102,None,001,4,2019_Jun_04_1459,ACPT_experiment_5_30_19,3.1.0,59.95551493584245,
,,,C,U,y,n,L,U,g,L,u,,,,,5,19,119,17,4,0,4,0,,,,,1,15,51,22,,,,,,up,0.28353344530114555,1508.1370113969642,None,001,4,2019_Jun_04_1459,ACPT_experiment_5_30_19,3.1.0,59.95551493584245,
,,,C,U,y,n,L,G,y,L,y,,,,,5,19,119,17,4,0,4,0,,,,,1,16,52,34,,,,,,up,0.16680149673629785,1509.7048791178022,None,001,4,2019_Jun_04_1459,ACPT_experiment_5_30_19,3.1.0,59.95551493584245,
,,,C,U,y,n,R,D,y,R,y,,,,,5,19,119,17,4,0,4,0,,,,,1,17,53,27,,,,,,up,0.05003604188823374,1511.1560010045869,None,001,4,2019_Jun_04_1459,ACPT_experiment_5_30_19,3.1.0,59.95551493584245,
,,,C,U,y,n,L,D,y,R,y,,,,,5,19,119,17,4,0,4,0,,,,,1,18,54,33,,,,,,up,0.1501002773475193,1512.507045072285,None,001,4,2019_Jun_04_1459,ACPT_experiment_5_30_19,3.1.0,59.95551493584245,
,,,C,U,y,n,R,U,y,L,u,,,,,5,19,119,17,4,0,4,0,,,,,1,19,55,30,,,,,,up,0.016655336916301167,1513.9748536892548,None,001,4,2019_Jun_04_1459,ACPT_experiment_5_30_19,3.1.0,59.95551493584245,
,,,C,U,y,n,L,U,d,R,u,,,,,5,19,119,17,4,0,4,0,,,,,1,20,56,21,,,,,,up,0.100080837670248,1515.2758233790519,None,001,4,2019_Jun_04_1459,ACPT_experiment_5_30_19,3.1.0,59.95551493584245,
,,,C,U,y,n,R,U,g,L,u,,,,,5,19,119,17,4,0,4,0,,,,,1,21,57,10,,,,,,up,0.05003030657826457,1516.6602418126968,None,001,4,2019_Jun_04_1459,ACPT_experiment_5_30_19,3.1.0,59.95551493584245,
,,,C,U,y,n,R,U,g,R,u,,,,,5,19,119,17,4,0,4,0,,,,,1,22,58,11,,,,,,up,0.06693316735254484,1517.977767829867,None,001,4,2019_Jun_04_1459,ACPT_experiment_5_30_19,3.1.0,59.95551493584245,
,,,C,U,y,n,L,G,g,R,c ,,,,,5,19,119,17,4,0,4,0,,,,,1,23,59,19,,,,,,up,0.11674855077581014,1519.3289667509052,None,001,4,2019_Jun_04_1459,ACPT_experiment_5_30_19,3.1.0,59.95551493584245,
,,,C,U,y,n,L,G,d,R,i,,,,,5,19,119,17,4,0,4,0,,,,,1,24,60,17,,,,,,up,0.0330885060793662,1520.7303085716921,None,001,4,2019_Jun_04_1459,ACPT_experiment_5_30_19,3.1.0,59.95551493584245,
,,,C,U,y,n,R,G,d,L,i,,,,,5,19,119,17,4,0,4,0,,,,,1,25,61,4,,,,,,up,0.11675579537768499,1522.0477198826884,None,001,4,2019_Jun_04_1459,ACPT_experiment_5_30_19,3.1.0,59.95551493584245,
,,,C,U,y,n,L,U,y,R,u,,,,,5,19,119,17,4,0,4,0,,,,,1,26,62,25,,,,,,up,0.08339229633202194,1523.4488060294389,None,001,4,2019_Jun_04_1459,ACPT_experiment_5_30_19,3.1.0,59.95551493584245,
,,,C,U,y,n,L,G,d,L,i,,,,,5,19,119,17,4,0,4,0,,,,,1,27,63,16,,,,,,up,0.06650966007146053,1524.8167019438479,None,001,4,2019_Jun_04_1459,ACPT_experiment_5_30_19,3.1.0,59.95551493584245,
,,,C,U,y,n,R,U,y,R,u,,,,,5,19,119,17,4,0,4,0,,,,,1,28,64,31,,,,,,down,0.6671706695087778,1526.1675697262654,None,001,4,2019_Jun_04_1459,ACPT_experiment_5_30_19,3.1.0,59.95551493584245,
,,,C,U,y,n,L,D,y,L,y,,,,,5,19,119,17,4,0,4,0,,,,,1,29,65,32,,,,,,down,0.4670189554999524,1528.1190770861758,None,001,4,2019_Jun_04_1459,ACPT_experiment_5_30_19,3.1.0,59.95551493584245,
,,,C,U,y,n,L,D,g,R,i,,,,,5,19,119,17,4,0,4,0,,,,,1,30,66,15,,,,,,down,0.40029950386451674,1529.8704257893296,None,001,4,2019_Jun_04_1459,ACPT_experiment_5_30_19,3.1.0,59.95551493584245,
,,,C,U,y,n,R,D,g,L,i,,,,,5,19,119,17,4,0,4,0,,,,,1,31,67,2,,,,,,up,0.2335236650906154,1531.5383824980127,None,001,4,2019_Jun_04_1459,ACPT_experiment_5_30_19,3.1.0,59.95551493584245,
,,,C,U,y,n,R,D,d,L,c,,,,,5,19,119,17,4,0,4,0,,,,,1,32,68,0,,,,,,up,0.08339682420773897,1533.0395268430584,None,001,4,2019_Jun_04_1459,ACPT_experiment_5_30_19,3.1.0,59.95551493584245,
,,,C,U,y,n,R,D,g,R,i,,,,,5,19,119,17,4,0,4,0,,,,,1,33,69,3,,,,,,up,0.4837234953265579,1534.3905546104033,None,001,4,2019_Jun_04_1459,ACPT_experiment_5_30_19,3.1.0,59.95551493584245,
,,,C,U,y,n,L,U,d,L,u,,,,,5,19,119,17,4,0,4,0,,,,,1,34,70,20,,,,,,up,0.6171358350547962,1536.1586069478144,None,001,4,2019_Jun_04_1459,ACPT_experiment_5_30_19,3.1.0,59.95551493584245,
,,,C,U,y,n,R,D,y,L,y,,,,,5,19,119,17,4,0,4,0,,,,,1,35,71,26,,,,,,down,0.6504932969328365,1538.0600692100852,None,001,4,2019_Jun_04_1459,ACPT_experiment_5_30_19,3.1.0,59.95551493584245,
,,,C,U,y,n,,,,,,,,,,5,19,119,17,5,0,5,0,0,0,0,0,,,,,,,,,,,,,,001,4,2019_Jun_04_1459,ACPT_experiment_5_30_19,3.1.0,59.95551493584245,
,,,C,U,y,n,L,D,y,R,y,,,,,5,19,119,17,5,0,5,0,,,,,0,0,0,33,,,,,,up,0.23326165203252458,1541.4963016313632,None,001,4,2019_Jun_04_1459,ACPT_experiment_5_30_19,3.1.0,59.95551493584245,
,,,C,U,y,n,L,D,d,R,c ,,,,,5,19,119,17,5,0,5,0,,,,,0,1,1,13,,,,,,up,0.11676756785163889,1543.0138685805287,None,001,4,2019_Jun_04_1459,ACPT_experiment_5_30_19,3.1.0,59.95551493584245,
,,,C,U,y,n,R,U,d,L,u,,,,,5,19,119,17,5,0,5,0,,,,,0,2,2,8,,,,,,up,0.23350555359138525,1544.4149722350703,None,001,4,2019_Jun_04_1459,ACPT_experiment_5_30_19,3.1.0,59.95551493584245,
,,,C,U,y,n,R,U,y,L,u,,,,,5,19,119,17,5,0,5,0,,,,,0,3,3,30,,,,,,up,0.18355222089303425,1545.9495446768487,None,001,4,2019_Jun_04_1459,ACPT_experiment_5_30_19,3.1.0,59.95551493584245,
,,,C,U,y,n,R,G,y,L,y,,,,,5,19,119,17,5,0,5,0,,,,,0,4,4,28,,,,,,up,0.18345472064174828,1547.4339727095903,None,001,4,2019_Jun_04_1459,ACPT_experiment_5_30_19,3.1.0,59.95551493584245,
,,,C,U,y,n,R,D,g,R,i,,,,,5,19,119,17,5,0,5,0,,,,,0,5,5,3,,,,,,up,0.15011325725572533,1548.9017592909004,None,001,4,2019_Jun_04_1459,ACPT_experiment_5_30_19,3.1.0,59.95551493584245,
,,,C,U,y,n,R,G,g,L,c ,,,,,5,19,119,17,5,0,5,0,,,,,0,6,6,6,,,,,,up,0.16678881868210738,1550.3361998809487,None,001,4,2019_Jun_04_1459,ACPT_experiment_5_30_19,3.1.0,59.95551493584245,
,,,C,U,y,n,L,U,g,R,u,,,,,5,19,119,17,5,0,5,0,,,,,0,7,7,23,,,,,,up,0.28354370848683175,1551.7873196547225,None,001,4,2019_Jun_04_1459,ACPT_experiment_5_30_19,3.1.0,59.95551493584245,
,,,C,U,y,n,L,D,y,L,y,,,,,5,19,119,17,5,0,5,0,,,,,0,8,8,32,,,,,,up,0.18349547152320156,1553.3551677547657,None,001,4,2019_Jun_04_1459,ACPT_experiment_5_30_19,3.1.0,59.95551493584245,
,,,C,U,y,n,R,D,d,L,c,,,,,5,19,119,17,5,0,5,0,,,,,0,9,9,0,,,,,,up,0.24976756906471564,1554.8400567252247,None,001,4,2019_Jun_04_1459,ACPT_experiment_5_30_19,3.1.0,59.95551493584245,
,,,C,U,y,n,R,U,g,L,u,,,,,5,19,119,17,5,0,5,0,,,,,0,10,10,10,,,,,,up,0.4169786875936552,1556.3741935853905,None,001,4,2019_Jun_04_1459,ACPT_experiment_5_30_19,3.1.0,59.95551493584245,
,,,C,U,y,n,R,G,g,R,c ,,,,,5,19,119,17,5,0,5,0,,,,,0,11,11,7,,,,,,up,0.4169856303342385,1558.0754962853316,None,001,4,2019_Jun_04_1459,ACPT_experiment_5_30_19,3.1.0,59.95551493584245,
,,,C,U,y,n,L,G,y,L,y,,,,,5,19,119,17,5,0,5,0,,,,,0,12,12,34,,,,,,up,0.23350736474094447,1559.776815285626,None,001,4,2019_Jun_04_1459,ACPT_experiment_5_30_19,3.1.0,59.95551493584245,
,,,C,U,y,n,L,G,g,R,c ,,,,,5,19,119,17,5,0,5,0,,,,,0,13,13,19,,,,,,up,0.24686369163100608,1561.3146532311548,None,001,4,2019_Jun_04_1459,ACPT_experiment_5_30_19,3.1.0,59.95551493584245,
,,,C,U,y,n,L,G,g,L,c ,,,,,5,19,119,17,5,0,5,0,,,,,0,14,14,18,,,,,,up,1.267793342936784,1562.8290150482426,None,001,4,2019_Jun_04_1459,ACPT_experiment_5_30_19,3.1.0,59.95551493584245,
,,,C,U,y,n,R,D,y,R,y,,,,,5,19,119,17,5,0,5,0,,,,,0,15,15,27,,,,,,up,0.28356483856987325,1565.3811127827357,None,001,4,2019_Jun_04_1459,ACPT_experiment_5_30_19,3.1.0,59.95551493584245,
,,,C,U,y,n,L,U,y,R,u,,,,,5,19,119,17,5,0,5,0,,,,,0,16,16,25,,,,,,up,0.21682787915415247,1566.9490088782586,None,001,4,2019_Jun_04_1459,ACPT_experiment_5_30_19,3.1.0,59.95551493584245,
,,,C,U,y,n,R,G,d,R,i,,,,,5,19,119,17,5,0,5,0,,,,,0,17,17,5,,,,,,up,0.28353314344713,1568.4668544426931,None,001,4,2019_Jun_04_1459,ACPT_experiment_5_30_19,3.1.0,59.95551493584245,
,,,C,U,y,n,R,D,y,L,y,,,,,5,19,119,17,5,0,5,0,,,,,0,18,18,26,,,,,,up,0.35025199135998264,1570.034728200695,None,001,4,2019_Jun_04_1459,ACPT_experiment_5_30_19,3.1.0,59.95551493584245,
,,,C,U,y,n,R,G,y,R,y,,,,,5,19,119,17,5,0,5,0,,,,,0,19,19,29,,,,,,up,0.4503364513293491,1571.6693202028982,None,001,4,2019_Jun_04_1459,ACPT_experiment_5_30_19,3.1.0,59.95551493584245,
,,,C,U,y,n,L,U,y,L,u,,,,,5,19,119,17,5,0,5,0,,,,,0,20,20,24,,,,,,down,0.23350374244182603,1573.4039833833012,None,001,4,2019_Jun_04_1459,ACPT_experiment_5_30_19,3.1.0,59.95551493584245,
,,,C,U,y,n,L,D,g,L,i,,,,,5,19,119,17,5,0,5,0,,,,,0,21,21,14,,,,,,down,0.23323629593505757,1574.9387716538113,None,001,4,2019_Jun_04_1459,ACPT_experiment_5_30_19,3.1.0,59.95551493584245,
,,,C,U,y,n,L,G,y,R,y,,,,,5,19,119,17,5,0,5,0,,,,,0,22,22,35,,,,,,down,0.3169105279739597,1576.456335584393,None,001,4,2019_Jun_04_1459,ACPT_experiment_5_30_19,3.1.0,59.95551493584245,
,,,C,U,y,n,R,G,d,L,i,,,,,5,19,119,17,5,0,5,0,,,,,0,23,23,4,,,,,,up,0.21682455871268758,1578.057572539583,None,001,4,2019_Jun_04_1459,ACPT_experiment_5_30_19,3.1.0,59.95551493584245,
,,,C,U,y,n,L,D,g,R,i,,,,,5,19,119,17,5,0,5,0,,,,,0,24,24,15,,,,,,up,0.16684134203751455,1579.55873167569,None,001,4,2019_Jun_04_1459,ACPT_experiment_5_30_19,3.1.0,59.95551493584245,
,,,C,U,y,n,R,D,d,R,c ,,,,,5,19,119,17,5,0,5,0,,,,,0,25,25,1,,,,,,up,0.3335830708165304,1581.0098502420296,None,001,4,2019_Jun_04_1459,ACPT_experiment_5_30_19,3.1.0,59.95551493584245,
,,,C,U,y,n,L,G,d,L,i,,,,,5,19,119,17,5,0,5,0,,,,,0,26,26,16,,,,,,up,0.4169847247612779,1582.6277606456388,None,001,4,2019_Jun_04_1459,ACPT_experiment_5_30_19,3.1.0,59.95551493584245,
,,,C,U,y,n,L,U,g,L,u,,,,,5,19,119,17,5,0,5,0,,,,,0,27,27,22,,,,,,up,0.4169841210459708,1584.3290796459332,None,001,4,2019_Jun_04_1459,ACPT_experiment_5_30_19,3.1.0,59.95551493584245,
,,,C,U,y,n,L,D,d,L,c ,,,,,5,19,119,17,5,0,5,0,,,,,0,28,28,12,,,,,,up,0.38363450748147443,1586.030383251451,None,001,4,2019_Jun_04_1459,ACPT_experiment_5_30_19,3.1.0,59.95551493584245,
,,,C,U,y,n,R,U,g,R,u,,,,,5,19,119,17,5,0,5,0,,,,,0,29,29,11,,,,,,up,0.23018752648567897,1587.718334756093,None,001,4,2019_Jun_04_1459,ACPT_experiment_5_30_19,3.1.0,59.95551493584245,
,,,C,U,y,n,R,D,g,L,i,,,,,5,19,119,17,5,0,5,0,,,,,0,30,30,2,,,,,,up,0.06672367764622322,1589.232849011656,None,001,4,2019_Jun_04_1459,ACPT_experiment_5_30_19,3.1.0,59.95551493584245,
,,,C,U,y,n,R,U,d,R,u,,,,,5,19,119,17,5,0,5,0,,,,,0,31,31,9,,,,,,up,0.06670798101185937,1590.58389760723,None,001,4,2019_Jun_04_1459,ACPT_experiment_5_30_19,3.1.0,59.95551493584245,
,,,C,U,y,n,L,U,d,R,u,,,,,5,19,119,17,5,0,5,0,,,,,0,32,32,21,,,,,,up,0.033350519133819034,1591.9349374489102,None,001,4,2019_Jun_04_1459,ACPT_experiment_5_30_19,3.1.0,59.95551493584245,
,,,C,U,y,n,L,G,d,R,i,,,,,5,19,119,17,5,0,5,0,,,,,0,33,33,17,,,,,,up,0.05005022923069191,1593.2526210361466,None,001,4,2019_Jun_04_1459,ACPT_experiment_5_30_19,3.1.0,59.95551493584245,
,,,C,U,y,n,R,U,y,R,u,,,,,5,19,119,17,5,0,5,0,,,,,0,34,34,31,,,,,,up,0.00033596835783100687,1594.6205012539212,None,001,4,2019_Jun_04_1459,ACPT_experiment_5_30_19,3.1.0,59.95551493584245,
,,,C,U,y,n,L,U,d,L,u,,,,,5,19,119,17,5,0,5,0,,,,,0,35,35,20,,,,,,up,0.4669012307385856,1595.9213468799317,None,001,4,2019_Jun_04_1459,ACPT_experiment_5_30_19,3.1.0,59.95551493584245,
,,,C,U,y,n,L,D,d,R,c ,,,,,5,19,119,17,5,0,5,0,,,,,1,0,36,13,,,,,,up,0.8673429098889756,1597.6726880366296,None,001,4,2019_Jun_04_1459,ACPT_experiment_5_30_19,3.1.0,59.95551493584245,
,,,C,U,y,n,R,G,d,L,i,,,,,5,19,119,17,5,0,5,0,,,,,1,1,37,4,,,,,,up,0.5337595372147916,1599.8243498272786,None,001,4,2019_Jun_04_1459,ACPT_experiment_5_30_19,3.1.0,59.95551493584245,
,,,C,U,y,n,R,G,y,L,y,,,,,5,19,119,17,5,0,5,0,,,,,1,2,38,28,,,,,,down,0.867304272022011,1601.6591128624277,None,001,4,2019_Jun_04_1459,ACPT_experiment_5_30_19,3.1.0,59.95551493584245,
,,,C,U,y,n,R,D,y,R,y,,,,,5,19,119,17,5,0,5,0,,,,,1,3,39,27,,,,,,down,0.7839246537405415,1603.8274435736166,None,001,4,2019_Jun_04_1459,ACPT_experiment_5_30_19,3.1.0,59.95551493584245,
,,,C,U,y,n,L,G,y,L,y,,,,,5,19,119,17,5,0,5,0,,,,,1,4,40,34,,,,,,down,0.6505083898518933,1605.8957025028903,None,001,4,2019_Jun_04_1459,ACPT_experiment_5_30_19,3.1.0,59.95551493584245,
,,,C,U,y,n,L,U,y,R,u,,,,,5,19,119,17,5,0,5,0,,,,,1,5,41,25,,,,,,down,0.600450614161673,1607.830526754915,None,001,4,2019_Jun_04_1459,ACPT_experiment_5_30_19,3.1.0,59.95551493584245,
,,,C,U,y,n,R,G,d,R,i,,,,,5,19,119,17,5,0,5,0,,,,,1,6,42,5,,,,,,up,1.16756429281304,1609.7153065130187,None,001,4,2019_Jun_04_1459,ACPT_experiment_5_30_19,3.1.0,59.95551493584245,
,,,C,U,y,n,L,G,d,R,i,,,,,5,19,119,17,5,0,5,0,,,,,1,7,43,17,,,,,,up,1.3510350119504437,1612.1671990441973,None,001,4,2019_Jun_04_1459,ACPT_experiment_5_30_19,3.1.0,59.95551493584245,
,,,C,U,y,n,R,G,g,L,c ,,,,,5,19,119,17,5,0,5,0,,,,,1,8,44,6,,,,,,up,0.817287247209606,1614.80256621867,None,001,4,2019_Jun_04_1459,ACPT_experiment_5_30_19,3.1.0,59.95551493584245,
,,,C,U,y,n,R,D,g,L,i,,,,,5,19,119,17,5,0,5,0,,,,,1,9,45,2,,,,,,up,0.833971260672115,1616.9041859302633,None,001,4,2019_Jun_04_1459,ACPT_experiment_5_30_19,3.1.0,59.95551493584245,
,,,C,U,y,n,R,D,d,R,c ,,,,,5,19,119,17,5,0,5,0,,,,,1,10,46,1,,,,,,up,0.5337441424380813,1619.022484825582,None,001,4,2019_Jun_04_1459,ACPT_experiment_5_30_19,3.1.0,59.95551493584245,
,,,C,U,y,n,L,D,g,R,i,,,,,5,19,119,17,5,0,5,0,,,,,1,11,47,15,,,,,,up,0.7839352187802433,1620.840551772937,None,001,4,2019_Jun_04_1459,ACPT_experiment_5_30_19,3.1.0,59.95551493584245,
,,,C,U,y,n,R,G,y,R,y,,,,,5,19,119,17,5,0,5,0,,,,,1,12,48,29,,,,,,down,0.8339887684524001,1622.9088125133567,None,001,4,2019_Jun_04_1459,ACPT_experiment_5_30_19,3.1.0,59.95551493584245,
,,,C,U,y,n,L,G,g,R,c ,,,,,5,19,119,17,5,0,5,0,,,,,1,13,49,19,,,,,,up,1.4344339491653955,1625.0271147291205,None,001,4,2019_Jun_04_1459,ACPT_experiment_5_30_19,3.1.0,59.95551493584245,
,,,C,U,y,n,R,U,y,R,u,,,,,5,19,119,17,5,0,5,0,,,,,1,14,50,31,,,,,,down,0.6671818382710626,1627.745875105502,None,001,4,2019_Jun_04_1459,ACPT_experiment_5_30_19,3.1.0,59.95551493584245,
,,,C,U,y,n,L,U,g,L,u,,,,,5,19,119,17,5,0,5,0,,,,,1,15,51,22,,,,,,up,0.8506483313867648,1629.6973800505439,None,001,4,2019_Jun_04_1459,ACPT_experiment_5_30_19,3.1.0,59.95551493584245,
,,,C,U,y,n,L,D,y,L,y,,,,,5,19,119,17,5,0,5,0,,,,,1,16,52,32,,,,,,down,0.716959489400324,1631.8493086839844,None,001,4,2019_Jun_04_1459,ACPT_experiment_5_30_19,3.1.0,59.95551493584245,
,,,C,U,y,n,R,D,d,L,c,,,,,5,19,119,17,5,0,5,0,,,,,1,17,53,0,,,,,,up,0.7338949508739461,1633.850580111397,None,001,4,2019_Jun_04_1459,ACPT_experiment_5_30_19,3.1.0,59.95551493584245,
,,,C,U,y,n,L,U,g,R,u,,,,,5,19,119,17,5,0,5,0,,,,,1,18,54,23,,,,,,up,0.8172972085340007,1635.8688002820563,None,001,4,2019_Jun_04_1459,ACPT_experiment_5_30_19,3.1.0,59.95551493584245,
,,,C,U,y,n,R,D,y,L,y,,,,,5,19,119,17,5,0,5,0,,,,,1,19,55,26,,,,,,down,0.6004792907078809,1637.9704221066568,None,001,4,2019_Jun_04_1459,ACPT_experiment_5_30_19,3.1.0,59.95551493584245,
,,,C,U,y,n,L,D,d,L,c ,,,,,5,19,119,17,5,0,5,0,,,,,1,20,56,12,,,,,,up,2.0682643627224024,1639.8552082037859,None,001,4,2019_Jun_04_1459,ACPT_experiment_5_30_19,3.1.0,59.95551493584245,
,,,C,U,y,n,R,U,y,L,u,,,,,5,19,119,17,5,0,5,0,,,,,1,21,57,30,,,,,,down,0.600454538322083,1643.2077950695675,None,001,4,2019_Jun_04_1459,ACPT_experiment_5_30_19,3.1.0,59.95551493584245,
,,,C,U,y,n,L,D,y,R,y,,,,,5,19,119,17,5,0,5,0,,,,,1,22,58,33,,,,,,down,0.43366692707058974,1645.0925784499705,None,001,4,2019_Jun_04_1459,ACPT_experiment_5_30_19,3.1.0,59.95551493584245,
,,,C,U,y,n,L,U,y,L,u,,,,,5,19,119,17,5,0,5,0,,,,,1,23,59,24,,,,,,down,0.383622433149867,1646.827254912143,None,001,4,2019_Jun_04_1459,ACPT_experiment_5_30_19,3.1.0,59.95551493584245,
,,,C,U,y,n,L,D,g,L,i,,,,,5,19,119,17,5,0,5,0,,,,,1,24,60,14,,,,,,up,0.7672521108943329,1648.5118850692415,None,001,4,2019_Jun_04_1459,ACPT_experiment_5_30_19,3.1.0,59.95551493584245,
,,,C,U,y,n,L,G,y,R,y,,,,,5,19,119,17,5,0,5,0,,,,,1,25,61,35,,,,,,down,0.8673365708673373,1650.5634639092132,None,001,4,2019_Jun_04_1459,ACPT_experiment_5_30_19,3.1.0,59.95551493584245,
,,,C,U,y,n,L,G,d,L,i,,,,,5,19,119,17,5,0,5,0,,,,,1,26,62,16,,,,,,up,0.783932803915377,1652.715119662691,None,001,4,2019_Jun_04_1459,ACPT_experiment_5_30_19,3.1.0,59.95551493584245,
,,,C,U,y,n,L,U,d,R,u,,,,,5,19,119,17,5,0,5,0,,,,,1,27,63,21,,,,,,up,0.666900204418198,1654.8003345798097,None,001,4,2019_Jun_04_1459,ACPT_experiment_5_30_19,3.1.0,59.95551493584245,
,,,C,U,y,n,R,U,g,R,u,,,,,5,19,119,17,5,0,5,0,,,,,1,28,64,11,,,,,,up,0.6004530290265393,1656.751569059761,None,001,4,2019_Jun_04_1459,ACPT_experiment_5_30_19,3.1.0,59.95551493584245,
,,,C,U,y,n,R,D,g,R,i,,,,,5,19,119,17,5,0,5,0,,,,,1,29,65,3,,,,,,up,0.30022802380335634,1658.6363512327298,None,001,4,2019_Jun_04_1459,ACPT_experiment_5_30_19,3.1.0,59.95551493584245,
,,,C,U,y,n,L,U,d,L,u,,,,,5,19,119,17,5,0,5,0,,,,,1,30,66,20,,,,,,up,0.28354461405979237,1660.220903570742,None,001,4,2019_Jun_04_1459,ACPT_experiment_5_30_19,3.1.0,59.95551493584245,
