facing_vig,person_vig,text_vig,facing_train,person_train,food_train,correct_key_train,facing_exp,person_exp,food_exp,showL_R,consistent,vig_random.thisRepN,vig_random.thisTrialN,vig_random.thisN,vig_random.thisIndex,trainTrials.thisRepN,trainTrials.thisTrialN,trainTrials.thisN,trainTrials.thisIndex,expBlock.thisRepN,expBlock.thisTrialN,expBlock.thisN,expBlock.thisIndex,breakLoop.thisRepN,breakLoop.thisTrialN,breakLoop.thisN,breakLoop.thisIndex,expTrials.thisRepN,expTrials.thisTrialN,expTrials.thisN,expTrials.thisIndex,train_resp.keys,train_resp.corr,train_resp.rt,train_resp.started,train_resp.stopped,exp_resp.keys,exp_resp.rt,exp_resp.started,exp_resp.stopped,session,participant,date,expName,psychopyVersion,frameRate,
C,U,"did not report her food preferences, so her food preferences are unknown.",,,,,,,,,,0,0,0,2,,,,,,,,,,,,,,,,,,,,,,,,,,001,50,2019_Oct_22_1406,ACPT_experiment_5_30_19,3.1.0,59.934020566129675,
C,D,"is allergic to gluten, meaning she can’t eat wheat products. She enjoys eating dairy products. She thinks eating insects, like crickets, is disgusting.",,,,,,,,,,0,1,1,1,,,,,,,,,,,,,,,,,,,,,,,,,,001,50,2019_Oct_22_1406,ACPT_experiment_5_30_19,3.1.0,59.934020566129675,
C,G,"cannot eat dairy products because she is lactose intolerant. She enjoys eating wheat products. She thinks eating insects, like crickets, is disgusting.",,,,,,,,,,0,2,2,0,,,,,,,,,,,,,,,,,,,,,,,,,,001,50,2019_Oct_22_1406,ACPT_experiment_5_30_19,3.1.0,59.934020566129675,
,,,C,G,d,b,,,,,,,,,,0,0,0,12,,,,,,,,,,,,,b,1,7.88938014230007,1645.709574953944,None,,,,,001,50,2019_Oct_22_1406,ACPT_experiment_5_30_19,3.1.0,59.934020566129675,
,,,C,U,g,n,,,,,,,,,,0,1,1,16,,,,,,,,,,,,,n,1,9.890889722748398,1656.8847774463065,None,,,,,001,50,2019_Oct_22_1406,ACPT_experiment_5_30_19,3.1.0,59.934020566129675,
,,,C,D,d,v,,,,,,,,,,0,2,2,0,,,,,,,,,,,,,b,0,2.1516858189097547,1670.0614801615902,None,,,,,001,50,2019_Oct_22_1406,ACPT_experiment_5_30_19,3.1.0,59.934020566129675,
,,,C,U,y,n,,,,,,,,,,0,3,3,17,,,,,,,,,,,,,n,1,4.670299600855287,1675.4989518060174,None,,,,,001,50,2019_Oct_22_1406,ACPT_experiment_5_30_19,3.1.0,59.934020566129675,
,,,C,U,d,n,,,,,,,,,,0,4,4,6,,,,,,,,,,,,,n,1,1.5345098059351585,1683.455050815901,None,,,,,001,50,2019_Oct_22_1406,ACPT_experiment_5_30_19,3.1.0,59.934020566129675,
,,,C,D,g,b,,,,,,,,,,0,5,5,1,,,,,,,,,,,,,v,0,13.777204520229134,1688.2753929331357,None,,,,,001,50,2019_Oct_22_1406,ACPT_experiment_5_30_19,3.1.0,59.934020566129675,
,,,C,G,d,b,,,,,,,,,,0,6,6,3,,,,,,,,,,,,,b,1,6.838573900769916,1705.338401088371,None,,,,,001,50,2019_Oct_22_1406,ACPT_experiment_5_30_19,3.1.0,59.934020566129675,
,,,C,D,d,v,,,,,,,,,,0,7,7,9,,,,,,,,,,,,,v,1,2.48528287352201,1715.4627810389939,None,,,,,001,50,2019_Oct_22_1406,ACPT_experiment_5_30_19,3.1.0,59.934020566129675,
,,,C,G,g,v,,,,,,,,,,0,8,8,13,,,,,,,,,,,,,v,1,3.786271360442697,1721.2338551714383,None,,,,,001,50,2019_Oct_22_1406,ACPT_experiment_5_30_19,3.1.0,59.934020566129675,
,,,C,G,y,b,,,,,,,,,,0,9,9,5,,,,,,,,,,,,,n,0,2.8187606951250928,1728.2892330178238,None,,,,,001,50,2019_Oct_22_1406,ACPT_experiment_5_30_19,3.1.0,59.934020566129675,
,,,C,D,g,b,,,,,,,,,,0,10,10,10,,,,,,,,,,,,,b,1,3.7195383056405262,1734.3938978659098,None,,,,,001,50,2019_Oct_22_1406,ACPT_experiment_5_30_19,3.1.0,59.934020566129675,
,,,C,D,y,b,,,,,,,,,,0,11,11,2,,,,,,,,,,,,,b,1,2.918891972176425,1741.3825963878135,None,,,,,001,50,2019_Oct_22_1406,ACPT_experiment_5_30_19,3.1.0,59.934020566129675,
,,,C,G,g,v,,,,,,,,,,0,12,12,19,,,,,,,,,,,,,v,1,3.469320441276068,1747.5873239917037,None,,,,,001,50,2019_Oct_22_1406,ACPT_experiment_5_30_19,3.1.0,59.934020566129675,
,,,C,D,d,v,,,,,,,,,,0,13,13,18,,,,,,,,,,,,,v,1,7.755833739078298,1754.3424402197397,None,,,,,001,50,2019_Oct_22_1406,ACPT_experiment_5_30_19,3.1.0,59.934020566129675,
,,,C,U,g,n,,,,,,,,,,0,14,14,7,,,,,,,,,,,,,n,1,1.2011143909421662,1765.3842384829222,None,,,,,001,50,2019_Oct_22_1406,ACPT_experiment_5_30_19,3.1.0,59.934020566129675,
,,,C,U,d,n,,,,,,,,,,0,15,15,15,,,,,,,,,,,,,n,1,0.550139291322921,1769.8879490443396,None,,,,,001,50,2019_Oct_22_1406,ACPT_experiment_5_30_19,3.1.0,59.934020566129675,
,,,C,G,g,v,,,,,,,,,,0,16,16,4,,,,,,,,,,,,,v,1,3.3192392873679637,1773.7239094783,None,,,,,001,50,2019_Oct_22_1406,ACPT_experiment_5_30_19,3.1.0,59.934020566129675,
,,,C,G,y,b,,,,,,,,,,0,17,17,14,,,,,,,,,,,,,b,1,1.5678947465330566,1780.3122679295502,None,,,,,001,50,2019_Oct_22_1406,ACPT_experiment_5_30_19,3.1.0,59.934020566129675,
,,,C,U,y,n,,,,,,,,,,0,18,18,8,,,,,,,,,,,,,n,1,2.118290615215301,1785.1659952892405,None,,,,,001,50,2019_Oct_22_1406,ACPT_experiment_5_30_19,3.1.0,59.934020566129675,
,,,C,D,y,b,,,,,,,,,,0,19,19,11,,,,,,,,,,,,,b,1,1.067477732858606,1790.5701245547261,None,,,,,001,50,2019_Oct_22_1406,ACPT_experiment_5_30_19,3.1.0,59.934020566129675,
,,,C,U,d,n,,,,,,,,,,1,0,20,15,,,,,,,,,,,,,n,1,1.0508044303969655,1794.9401166551615,None,,,,,001,50,2019_Oct_22_1406,ACPT_experiment_5_30_19,3.1.0,59.934020566129675,
,,,C,U,g,n,,,,,,,,,,1,1,21,7,,,,,,,,,,,,,n,1,0.6505226178978774,1799.260057455218,None,,,,,001,50,2019_Oct_22_1406,ACPT_experiment_5_30_19,3.1.0,59.934020566129675,
,,,C,G,y,b,,,,,,,,,,1,2,22,14,,,,,,,,,,,,,b,1,0.9836967726496368,1803.2134599879682,None,,,,,001,50,2019_Oct_22_1406,ACPT_experiment_5_30_19,3.1.0,59.934020566129675,
,,,C,G,d,b,,,,,,,,,,1,3,23,3,,,,,,,,,,,,,b,1,3.602752139328004,1807.466344747605,None,,,,,001,50,2019_Oct_22_1406,ACPT_experiment_5_30_19,3.1.0,59.934020566129675,
,,,C,G,g,v,,,,,,,,,,1,4,24,4,,,,,,,,,,,,,v,1,1.167583050317262,1814.338254084636,None,,,,,001,50,2019_Oct_22_1406,ACPT_experiment_5_30_19,3.1.0,59.934020566129675,
,,,C,D,g,b,,,,,,,,,,1,5,25,1,,,,,,,,,,,,,b,1,2.9351619953995396,1818.8087309351704,None,,,,,001,50,2019_Oct_22_1406,ACPT_experiment_5_30_19,3.1.0,59.934020566129675,
,,,C,D,y,b,,,,,,,,,,1,6,26,2,,,,,,,,,,,,,b,1,0.817315409945877,1825.0130525431196,None,,,,,001,50,2019_Oct_22_1406,ACPT_experiment_5_30_19,3.1.0,59.934020566129675,
,,,C,G,d,b,,,,,,,,,,1,7,27,12,,,,,,,,,,,,,b,1,2.1349678418009717,1829.1161966420968,None,,,,,001,50,2019_Oct_22_1406,ACPT_experiment_5_30_19,3.1.0,59.934020566129675,
,,,C,G,g,v,,,,,,,,,,1,8,28,19,,,,,,,,,,,,,v,1,1.2009637649389333,1834.5202785162346,None,,,,,001,50,2019_Oct_22_1406,ACPT_experiment_5_30_19,3.1.0,59.934020566129675,
,,,C,D,y,b,,,,,,,,,,1,9,29,11,,,,,,,,,,,,,b,1,0.7172167333101243,1839.0070700646374,None,,,,,001,50,2019_Oct_22_1406,ACPT_experiment_5_30_19,3.1.0,59.934020566129675,
,,,C,U,y,n,,,,,,,,,,1,10,30,8,,,,,,,,,,,,,n,1,0.6004492820520682,1843.0101360131684,None,,,,,001,50,2019_Oct_22_1406,ACPT_experiment_5_30_19,3.1.0,59.934020566129675,
,,,C,D,d,v,,,,,,,,,,1,11,31,18,,,,,,,,,,,,,v,1,4.353331777769199,1846.8964209269325,None,,,,,001,50,2019_Oct_22_1406,ACPT_experiment_5_30_19,3.1.0,59.934020566129675,
,,,C,D,d,v,,,,,,,,,,1,12,32,9,,,,,,,,,,,,,v,1,2.1850131050669006,1854.5355801863116,None,,,,,001,50,2019_Oct_22_1406,ACPT_experiment_5_30_19,3.1.0,59.934020566129675,
,,,C,G,y,b,,,,,,,,,,1,13,33,5,,,,,,,,,,,,,b,1,1.2176548768857174,1860.0231155072033,None,,,,,001,50,2019_Oct_22_1406,ACPT_experiment_5_30_19,3.1.0,59.934020566129675,
,,,C,D,g,b,,,,,,,,,,1,14,34,10,,,,,,,,,,,,,b,1,1.3842593109675363,1864.5600422718744,None,,,,,001,50,2019_Oct_22_1406,ACPT_experiment_5_30_19,3.1.0,59.934020566129675,
,,,C,U,d,n,,,,,,,,,,1,15,35,6,,,,,,,,,,,,,n,1,0.4170215232170449,1869.23009374733,None,,,,,001,50,2019_Oct_22_1406,ACPT_experiment_5_30_19,3.1.0,59.934020566129675,
,,,C,D,d,v,,,,,,,,,,1,16,36,0,,,,,,,,,,,,,v,1,2.9356232309364714,1872.9329599579341,None,,,,,001,50,2019_Oct_22_1406,ACPT_experiment_5_30_19,3.1.0,59.934020566129675,
,,,C,G,g,v,,,,,,,,,,1,17,37,13,,,,,,,,,,,,,v,1,3.836329603504055,1879.154327660157,None,,,,,001,50,2019_Oct_22_1406,ACPT_experiment_5_30_19,3.1.0,59.934020566129675,
,,,C,U,y,n,,,,,,,,,,1,18,38,17,,,,,,,,,,,,,n,1,0.4003334298267873,1886.2764382594887,None,,,,,001,50,2019_Oct_22_1406,ACPT_experiment_5_30_19,3.1.0,59.934020566129675,
,,,C,U,g,n,,,,,,,,,,1,19,39,16,,,,,,,,,,,,,n,1,1.1809344306002458,1889.9826004326806,None,,,,,001,50,2019_Oct_22_1406,ACPT_experiment_5_30_19,3.1.0,59.934020566129675,
,,,C,D,d,v,,,,,,,,,,2,0,40,18,,,,,,,,,,,,,v,1,3.869643909865772,1894.4493647597337,None,,,,,001,50,2019_Oct_22_1406,ACPT_experiment_5_30_19,3.1.0,59.934020566129675,
,,,C,G,g,v,,,,,,,,,,2,1,41,13,,,,,,,,,,,,,v,1,3.269165045952832,1901.6048289066694,None,,,,,001,50,2019_Oct_22_1406,ACPT_experiment_5_30_19,3.1.0,59.934020566129675,
,,,C,U,y,n,,,,,,,,,,2,2,42,17,,,,,,,,,,,,,n,1,0.9173769583267131,1908.1598169063964,None,,,,,001,50,2019_Oct_22_1406,ACPT_experiment_5_30_19,3.1.0,59.934020566129675,
,,,C,D,d,v,,,,,,,,,,2,3,43,0,,,,,,,,,,,,,b,0,2.485270195580597,1912.362989953337,None,,,,,001,50,2019_Oct_22_1406,ACPT_experiment_5_30_19,3.1.0,59.934020566129675,
,,,C,D,y,b,,,,,,,,,,2,4,44,11,,,,,,,,,,,,,b,1,1.4011258010868914,1918.1173989334238,None,,,,,001,50,2019_Oct_22_1406,ACPT_experiment_5_30_19,3.1.0,59.934020566129675,
,,,C,U,y,n,,,,,,,,,,2,5,45,8,,,,,,,,,,,,,n,1,0.8837306106761389,1922.8212778699617,None,,,,,001,50,2019_Oct_22_1406,ACPT_experiment_5_30_19,3.1.0,59.934020566129675,
,,,C,G,y,b,,,,,,,,,,2,6,46,5,,,,,,,,,,,,,b,1,3.435956932433328,1926.990855281012,None,,,,,001,50,2019_Oct_22_1406,ACPT_experiment_5_30_19,3.1.0,59.934020566129675,
,,,C,G,d,b,,,,,,,,,,2,7,47,12,,,,,,,,,,,,,b,1,4.119730165135479,1933.6959220198023,None,,,,,001,50,2019_Oct_22_1406,ACPT_experiment_5_30_19,3.1.0,59.934020566129675,
,,,C,G,g,v,,,,,,,,,,2,8,48,4,,,,,,,,,,,,,v,1,1.2509981613966374,1941.0848920911085,None,,,,,001,50,2019_Oct_22_1406,ACPT_experiment_5_30_19,3.1.0,59.934020566129675,
,,,C,G,g,v,,,,,,,,,,2,9,49,19,,,,,,,,,,,,,v,1,1.9681895388293924,1945.6217113951443,None,,,,,001,50,2019_Oct_22_1406,ACPT_experiment_5_30_19,3.1.0,59.934020566129675,
,,,C,U,g,n,,,,,,,,,,2,10,50,7,,,,,,,,,,,,,n,1,0.8506478276485723,1950.8757386786747,None,,,,,001,50,2019_Oct_22_1406,ACPT_experiment_5_30_19,3.1.0,59.934020566129675,
,,,C,D,g,b,,,,,,,,,,2,11,51,10,,,,,,,,,,,,,b,1,4.169867796250401,1955.0122233454604,None,,,,,001,50,2019_Oct_22_1406,ACPT_experiment_5_30_19,3.1.0,59.934020566129675,
,,,C,U,d,n,,,,,,,,,,2,12,52,6,,,,,,,,,,,,,n,1,1.06748588296432,1962.4679050398136,None,,,,,001,50,2019_Oct_22_1406,ACPT_experiment_5_30_19,3.1.0,59.934020566129675,
,,,C,G,y,b,,,,,,,,,,2,13,53,14,,,,,,,,,,,,,b,1,1.3174197010976059,1966.8381630751373,None,,,,,001,50,2019_Oct_22_1406,ACPT_experiment_5_30_19,3.1.0,59.934020566129675,
,,,C,D,y,b,,,,,,,,,,2,14,54,2,,,,,,,,,,,,,b,1,0.700578144256724,1971.4413981836133,None,,,,,001,50,2019_Oct_22_1406,ACPT_experiment_5_30_19,3.1.0,59.934020566129675,
,,,C,G,d,b,,,,,,,,,,2,15,55,3,,,,,,,,,,,,,b,1,3.5524644859215186,1975.444717389093,None,,,,,001,50,2019_Oct_22_1406,ACPT_experiment_5_30_19,3.1.0,59.934020566129675,
,,,C,U,g,n,,,,,,,,,,2,16,56,16,,,,,,,,,,,,,n,1,0.5671078086743364,1982.2830199215714,None,,,,,001,50,2019_Oct_22_1406,ACPT_experiment_5_30_19,3.1.0,59.934020566129675,
,,,C,U,d,n,,,,,,,,,,2,17,57,15,,,,,,,,,,,,,n,1,0.7003076815326494,1986.1362102799376,None,,,,,001,50,2019_Oct_22_1406,ACPT_experiment_5_30_19,3.1.0,59.934020566129675,
,,,C,D,g,b,,,,,,,,,,2,18,58,1,,,,,,,,,,,,,b,1,2.251734387493343,1990.1223173704984,None,,,,,001,50,2019_Oct_22_1406,ACPT_experiment_5_30_19,3.1.0,59.934020566129675,
,,,C,D,d,v,,,,,,,,,,2,19,59,9,,,,,,,,,,,,,v,1,0.8006728967666277,1995.6432089556965,None,,,,,001,50,2019_Oct_22_1406,ACPT_experiment_5_30_19,3.1.0,59.934020566129675,
,,,C,G,d,b,,,,,,,,,,3,0,60,12,,,,,,,,,,,,,b,1,2.1180373582665197,1999.746577937185,None,,,,,001,50,2019_Oct_22_1406,ACPT_experiment_5_30_19,3.1.0,59.934020566129675,
,,,C,U,d,n,,,,,,,,,,3,1,61,6,,,,,,,,,,,,,n,1,3.769542818385162,2005.1504566624244,None,,,,,001,50,2019_Oct_22_1406,ACPT_experiment_5_30_19,3.1.0,59.934020566129675,
,,,C,U,d,n,,,,,,,,,,3,2,62,15,,,,,,,,,,,,,n,1,0.4003041498217499,2012.205839942213,None,,,,,001,50,2019_Oct_22_1406,ACPT_experiment_5_30_19,3.1.0,59.934020566129675,
,,,C,U,y,n,,,,,,,,,,3,3,63,17,,,,,,,,,,,,,n,1,0.5170779400523315,2015.9086708356972,None,,,,,001,50,2019_Oct_22_1406,ACPT_experiment_5_30_19,3.1.0,59.934020566129675,
,,,C,G,y,b,,,,,,,,,,3,4,64,14,,,,,,,,,,,,,b,1,0.8006360703693645,2019.7115412420935,None,,,,,001,50,2019_Oct_22_1406,ACPT_experiment_5_30_19,3.1.0,59.934020566129675,
,,,C,D,g,b,,,,,,,,,,3,5,65,1,,,,,,,,,,,,,b,1,2.0511769203531003,2023.8150641699976,None,,,,,001,50,2019_Oct_22_1406,ACPT_experiment_5_30_19,3.1.0,59.934020566129675,
,,,C,G,d,b,,,,,,,,,,3,6,66,3,,,,,,,,,,,,,b,1,1.3010123335225217,2029.1520740053638,None,,,,,001,50,2019_Oct_22_1406,ACPT_experiment_5_30_19,3.1.0,59.934020566129675,
,,,C,D,d,v,,,,,,,,,,3,7,67,0,,,,,,,,,,,,,v,1,0.8837444960390712,2033.7558759988788,None,,,,,001,50,2019_Oct_22_1406,ACPT_experiment_5_30_19,3.1.0,59.934020566129675,
,,,C,G,y,b,,,,,,,,,,3,8,68,5,,,,,,,,,,,,,b,1,0.7672743726598128,2037.925446165391,None,,,,,001,50,2019_Oct_22_1406,ACPT_experiment_5_30_19,3.1.0,59.934020566129675,
,,,C,D,y,b,,,,,,,,,,3,9,69,2,,,,,,,,,,,,,b,1,0.8336968179282849,2041.995490577423,None,,,,,001,50,2019_Oct_22_1406,ACPT_experiment_5_30_19,3.1.0,59.934020566129675,
,,,C,G,g,v,,,,,,,,,,3,10,70,19,,,,,,,,,,,,,v,1,6.4549282624793705,2046.1150148769593,None,,,,,001,50,2019_Oct_22_1406,ACPT_experiment_5_30_19,3.1.0,59.934020566129675,
,,,C,U,y,n,,,,,,,,,,3,11,71,8,,,,,,,,,,,,,n,1,0.8006245998531085,2055.8557730358934,None,,,,,001,50,2019_Oct_22_1406,ACPT_experiment_5_30_19,3.1.0,59.934020566129675,
,,,C,D,y,b,,,,,,,,,,3,12,72,11,,,,,,,,,,,,,b,1,0.6835999675204221,2059.9758430905677,None,,,,,001,50,2019_Oct_22_1406,ACPT_experiment_5_30_19,3.1.0,59.934020566129675,
,,,C,U,g,n,,,,,,,,,,3,13,73,16,,,,,,,,,,,,,n,1,1.000762185687563,2063.9452856324824,None,,,,,001,50,2019_Oct_22_1406,ACPT_experiment_5_30_19,3.1.0,59.934020566129675,
,,,C,D,g,b,,,,,,,,,,3,14,74,10,,,,,,,,,,,,,b,1,0.8168840581238328,2068.248945240657,None,,,,,001,50,2019_Oct_22_1406,ACPT_experiment_5_30_19,3.1.0,59.934020566129675,
,,,C,G,g,v,,,,,,,,,,3,15,75,13,,,,,,,,,,,,,v,1,0.9507151112902648,2072.3516770047227,None,,,,,001,50,2019_Oct_22_1406,ACPT_experiment_5_30_19,3.1.0,59.934020566129675,
,,,C,U,g,n,,,,,,,,,,3,16,76,7,,,,,,,,,,,,,n,1,0.8671004735806491,2076.6051781537353,None,,,,,001,50,2019_Oct_22_1406,ACPT_experiment_5_30_19,3.1.0,59.934020566129675,
,,,C,D,d,v,,,,,,,,,,3,17,77,18,,,,,,,,,,,,,v,1,2.885570119422482,2080.7581012792343,None,,,,,001,50,2019_Oct_22_1406,ACPT_experiment_5_30_19,3.1.0,59.934020566129675,
,,,C,G,g,v,,,,,,,,,,3,18,78,4,,,,,,,,,,,,,v,1,2.3017564078691066,2086.9294759392324,None,,,,,001,50,2019_Oct_22_1406,ACPT_experiment_5_30_19,3.1.0,59.934020566129675,
,,,C,D,d,v,,,,,,,,,,3,19,79,9,,,,,,,,,,,,,v,1,2.368487047824601,2092.517074921496,None,,,,,001,50,2019_Oct_22_1406,ACPT_experiment_5_30_19,3.1.0,59.934020566129675,
,,,C,G,y,b,,,,,,,,,,4,0,80,5,,,,,,,,,,,,,b,1,0.8340053144729609,2098.1713734525747,None,,,,,001,50,2019_Oct_22_1406,ACPT_experiment_5_30_19,3.1.0,59.934020566129675,
,,,C,U,y,n,,,,,,,,,,4,1,81,8,,,,,,,,,,,,,n,1,0.53352213402286,2102.3081107725975,None,,,,,001,50,2019_Oct_22_1406,ACPT_experiment_5_30_19,3.1.0,59.934020566129675,
,,,C,D,d,v,,,,,,,,,,4,2,82,0,,,,,,,,,,,,,v,1,2.9689233500794217,2106.127451634413,None,,,,,001,50,2019_Oct_22_1406,ACPT_experiment_5_30_19,3.1.0,59.934020566129675,
,,,C,G,d,b,,,,,,,,,,4,3,83,3,,,,,,,,,,,,,b,1,0.8673685214598663,2112.382208805071,None,,,,,001,50,2019_Oct_22_1406,ACPT_experiment_5_30_19,3.1.0,59.934020566129675,
,,,C,D,y,b,,,,,,,,,,4,4,84,11,,,,,,,,,,,,,b,1,0.7169571373942745,2116.552316576619,None,,,,,001,50,2019_Oct_22_1406,ACPT_experiment_5_30_19,3.1.0,59.934020566129675,
,,,C,D,g,b,,,,,,,,,,4,5,85,1,,,,,,,,,,,,,b,1,0.7339153916527721,2120.5384085743935,None,,,,,001,50,2019_Oct_22_1406,ACPT_experiment_5_30_19,3.1.0,59.934020566129675,
,,,C,U,y,n,,,,,,,,,,4,6,86,17,,,,,,,,,,,,,n,1,0.5668464016216603,2124.5750900812927,None,,,,,001,50,2019_Oct_22_1406,ACPT_experiment_5_30_19,3.1.0,59.934020566129675,
,,,C,G,y,b,,,,,,,,,,4,7,87,14,,,,,,,,,,,,,b,1,0.6171446199805359,2128.42777634061,None,,,,,001,50,2019_Oct_22_1406,ACPT_experiment_5_30_19,3.1.0,59.934020566129675,
,,,C,G,g,v,,,,,,,,,,4,8,88,19,,,,,,,,,,,,,v,1,0.9173585451280815,2132.330767157253,None,,,,,001,50,2019_Oct_22_1406,ACPT_experiment_5_30_19,3.1.0,59.934020566129675,
,,,C,G,g,v,,,,,,,,,,4,9,89,4,,,,,,,,,,,,,v,1,1.1675912004229758,2136.517253016369,None,,,,,001,50,2019_Oct_22_1406,ACPT_experiment_5_30_19,3.1.0,59.934020566129675,
,,,C,D,d,v,,,,,,,,,,4,10,90,18,,,,,,,,,,,,,b,0,0.9840976370433054,2140.9706665668527,None,,,,,001,50,2019_Oct_22_1406,ACPT_experiment_5_30_19,3.1.0,59.934020566129675,
,,,C,D,y,b,,,,,,,,,,4,11,91,2,,,,,,,,,,,,,b,1,1.1842454859743157,2145.2239186849,None,,,,,001,50,2019_Oct_22_1406,ACPT_experiment_5_30_19,3.1.0,59.934020566129675,
,,,C,U,d,n,,,,,,,,,,4,12,92,15,,,,,,,,,,,,,n,1,0.9671753036127484,2149.7109130803437,None,,,,,001,50,2019_Oct_22_1406,ACPT_experiment_5_30_19,3.1.0,59.934020566129675,
,,,C,D,g,b,,,,,,,,,,4,13,93,10,,,,,,,,,,,,,b,1,1.7013149740650988,2153.963907111751,None,,,,,001,50,2019_Oct_22_1406,ACPT_experiment_5_30_19,3.1.0,59.934020566129675,
,,,C,U,d,n,,,,,,,,,,4,14,94,6,,,,,,,,,,,,,n,1,0.633847806157064,2158.951027230103,None,,,,,001,50,2019_Oct_22_1406,ACPT_experiment_5_30_19,3.1.0,59.934020566129675,
,,,C,G,g,v,,,,,,,,,,4,15,95,13,,,,,,,,,,,,,v,1,2.8488692937571614,2162.9073755728095,None,,,,,001,50,2019_Oct_22_1406,ACPT_experiment_5_30_19,3.1.0,59.934020566129675,
,,,C,U,g,n,,,,,,,,,,4,16,96,7,,,,,,,,,,,,,n,1,1.1676050857859082,2169.042030692086,None,,,,,001,50,2019_Oct_22_1406,ACPT_experiment_5_30_19,3.1.0,59.934020566129675,
,,,C,D,d,v,,,,,,,,,,4,17,97,9,,,,,,,,,,,,,v,1,1.484473598340628,2173.4954641650475,None,,,,,001,50,2019_Oct_22_1406,ACPT_experiment_5_30_19,3.1.0,59.934020566129675,
,,,C,U,g,n,,,,,,,,,,4,18,98,16,,,,,,,,,,,,,n,1,1.184250617519865,2178.2657561893247,None,,,,,001,50,2019_Oct_22_1406,ACPT_experiment_5_30_19,3.1.0,59.934020566129675,
,,,C,G,d,b,,,,,,,,,,4,19,99,12,,,,,,,,,,,,,b,1,1.117134507812807,2182.75288098644,None,,,,,001,50,2019_Oct_22_1406,ACPT_experiment_5_30_19,3.1.0,59.934020566129675,
,,,C,G,d,b,,,,,,,,,,5,0,100,3,,,,,,,,,,,,,b,1,1.1842509193756996,2187.1391820494864,None,,,,,001,50,2019_Oct_22_1406,ACPT_experiment_5_30_19,3.1.0,59.934020566129675,
,,,C,U,d,n,,,,,,,,,,5,1,101,15,,,,,,,,,,,,,n,1,1.5009126607656071,2191.6261912358605,None,,,,,001,50,2019_Oct_22_1406,ACPT_experiment_5_30_19,3.1.0,59.934020566129675,
,,,C,U,g,n,,,,,,,,,,5,2,102,16,,,,,,,,,,,,,n,1,0.9507244688156788,2196.396261396185,None,,,,,001,50,2019_Oct_22_1406,ACPT_experiment_5_30_19,3.1.0,59.934020566129675,
,,,C,G,y,b,,,,,,,,,,5,3,103,14,,,,,,,,,,,,,b,1,1.1673122857391718,2200.6497462449897,None,,,,,001,50,2019_Oct_22_1406,ACPT_experiment_5_30_19,3.1.0,59.934020566129675,
,,,C,G,g,v,,,,,,,,,,5,4,104,13,,,,,,,,,,,,,v,1,1.6179294448484143,2205.0861888632753,None,,,,,001,50,2019_Oct_22_1406,ACPT_experiment_5_30_19,3.1.0,59.934020566129675,
,,,C,D,d,v,,,,,,,,,,5,5,105,18,,,,,,,,,,,,,v,1,2.3517908043286297,2209.989958769527,None,,,,,001,50,2019_Oct_22_1406,ACPT_experiment_5_30_19,3.1.0,59.934020566129675,
,,,C,D,y,b,,,,,,,,,,5,6,106,2,,,,,,,,,,,,,b,1,1.6012676129030297,2215.6108874527945,None,,,,,001,50,2019_Oct_22_1406,ACPT_experiment_5_30_19,3.1.0,59.934020566129675,
,,,C,G,y,b,,,,,,,,,,5,7,107,5,,,,,,,,,,,,,b,1,0.7172843489915977,2220.4979239872973,None,,,,,001,50,2019_Oct_22_1406,ACPT_experiment_5_30_19,3.1.0,59.934020566129675,
,,,C,U,y,n,,,,,,,,,,5,8,108,17,,,,,,,,,,,,,n,1,0.8670896067760623,2224.5179349084374,None,,,,,001,50,2019_Oct_22_1406,ACPT_experiment_5_30_19,3.1.0,59.934020566129675,
,,,C,G,d,b,,,,,,,,,,5,9,109,12,,,,,,,,,,,,,b,1,3.0356618382829765,2228.6708519968215,None,,,,,001,50,2019_Oct_22_1406,ACPT_experiment_5_30_19,3.1.0,59.934020566129675,
,,,C,G,g,v,,,,,,,,,,5,10,110,4,,,,,,,,,,,,,v,1,1.2843375217835273,2234.9756474880633,None,,,,,001,50,2019_Oct_22_1406,ACPT_experiment_5_30_19,3.1.0,59.934020566129675,
,,,C,U,g,n,,,,,,,,,,5,11,111,7,,,,,,,,,,,,,n,1,1.5507864699811762,2239.562871263668,None,,,,,001,50,2019_Oct_22_1406,ACPT_experiment_5_30_19,3.1.0,59.934020566129675,
,,,C,D,d,v,,,,,,,,,,5,12,112,9,,,,,,,,,,,,,v,1,2.40184723625498,2244.399501213611,None,,,,,001,50,2019_Oct_22_1406,ACPT_experiment_5_30_19,3.1.0,59.934020566129675,
,,,C,D,g,b,,,,,,,,,,5,13,113,1,,,,,,,,,,,,,b,1,1.5678645609605155,2250.070509571695,None,,,,,001,50,2019_Oct_22_1406,ACPT_experiment_5_30_19,3.1.0,59.934020566129675,
,,,C,U,d,n,,,,,,,,,,5,14,114,6,,,,,,,,,,,,,n,1,1.2676346374610148,2254.924206443955,None,,,,,001,50,2019_Oct_22_1406,ACPT_experiment_5_30_19,3.1.0,59.934020566129675,
,,,C,D,y,b,,,,,,,,,,5,15,115,11,,,,,,,,,,,,,b,1,1.534231193107189,2259.494627722852,None,,,,,001,50,2019_Oct_22_1406,ACPT_experiment_5_30_19,3.1.0,59.934020566129675,
,,,C,D,d,v,,,,,,,,,,5,16,116,0,,,,,,,,,,,,,v,1,1.3343676922613668,2264.2979913614927,None,,,,,001,50,2019_Oct_22_1406,ACPT_experiment_5_30_19,3.1.0,59.934020566129675,
,,,C,U,y,n,,,,,,,,,,5,17,117,8,,,,,,,,,,,,,n,1,1.0841812208909687,2268.934896362367,None,,,,,001,50,2019_Oct_22_1406,ACPT_experiment_5_30_19,3.1.0,59.934020566129675,
,,,C,G,g,v,,,,,,,,,,5,18,118,19,,,,,,,,,,,,,v,1,1.9014812361965596,2273.3048609939324,None,,,,,001,50,2019_Oct_22_1406,ACPT_experiment_5_30_19,3.1.0,59.934020566129675,
,,,C,D,g,b,,,,,,,,,,5,19,119,10,0,0,0,0,0,0,0,0,,,,,b,1,1.000776976619818,2278.492169711737,None,,,,,001,50,2019_Oct_22_1406,ACPT_experiment_5_30_19,3.1.0,59.934020566129675,
,,,C,D,g,b,R,U,g,L,u,,,,,5,19,119,10,0,0,0,0,,,,,0,0,0,10,,,,,,up,1.8848034058974008,2349.562996835646,None,001,50,2019_Oct_22_1406,ACPT_experiment_5_30_19,3.1.0,59.934020566129675,
,,,C,D,g,b,R,G,d,R,i,,,,,5,19,119,10,0,0,0,0,,,,,0,1,1,5,,,,,,up,0.717200734958169,2352.732100635074,None,001,50,2019_Oct_22_1406,ACPT_experiment_5_30_19,3.1.0,59.934020566129675,
,,,C,D,g,b,R,U,d,R,u,,,,,5,19,119,10,0,0,0,0,,,,,0,2,2,9,,,,,,up,0.683857450447249,2354.733613234079,None,001,50,2019_Oct_22_1406,ACPT_experiment_5_30_19,3.1.0,59.934020566129675,
,,,C,D,g,b,R,G,g,L,c ,,,,,5,19,119,10,0,0,0,0,,,,,0,3,3,6,,,,,,up,0.9840946184867789,2356.701770474345,None,001,50,2019_Oct_22_1406,ACPT_experiment_5_30_19,3.1.0,59.934020566129675,
,,,C,D,g,b,L,D,y,L,y,,,,,5,19,119,10,0,0,0,0,,,,,0,4,4,32,,,,,,down,0.8173024301486294,2358.9701884273945,None,001,50,2019_Oct_22_1406,ACPT_experiment_5_30_19,3.1.0,59.934020566129675,
,,,C,D,g,b,L,D,g,L,i,,,,,5,19,119,10,0,0,0,0,,,,,0,5,5,14,,,,,,up,0.8673090558822878,2361.071790345508,None,001,50,2019_Oct_22_1406,ACPT_experiment_5_30_19,3.1.0,59.934020566129675,
,,,C,D,g,b,L,U,d,L,u,,,,,5,19,119,10,0,0,0,0,,,,,0,6,6,20,,,,,,up,2.1182531851063686,2363.223434810183,None,001,50,2019_Oct_22_1406,ACPT_experiment_5_30_19,3.1.0,59.934020566129675,
,,,C,D,g,b,R,U,y,R,u,,,,,5,19,119,10,0,0,0,0,,,,,0,7,7,31,,,,,,down,0.7340974106500653,2366.625982049849,None,001,50,2019_Oct_22_1406,ACPT_experiment_5_30_19,3.1.0,59.934020566129675,
,,,C,D,g,b,R,D,d,L,c,,,,,5,19,119,10,0,0,0,0,,,,,0,8,8,0,,,,,,up,0.80059199943571,2368.6442283224587,None,001,50,2019_Oct_22_1406,ACPT_experiment_5_30_19,3.1.0,59.934020566129675,
,,,C,D,g,b,R,U,g,R,u,,,,,5,19,119,10,0,0,0,0,,,,,0,9,9,11,,,,,,up,0.7839488825466105,2370.729120715423,None,001,50,2019_Oct_22_1406,ACPT_experiment_5_30_19,3.1.0,59.934020566129675,
,,,C,D,g,b,R,D,g,L,i,,,,,5,19,119,10,0,0,0,0,,,,,0,10,10,2,,,,,,up,0.7505627345235553,2372.7973914232534,None,001,50,2019_Oct_22_1406,ACPT_experiment_5_30_19,3.1.0,59.934020566129675,
,,,C,D,g,b,L,U,g,L,u,,,,,5,19,119,10,0,0,0,0,,,,,0,11,11,22,,,,,,up,0.5170465470582712,2374.832277190484,None,001,50,2019_Oct_22_1406,ACPT_experiment_5_30_19,3.1.0,59.934020566129675,
,,,C,D,g,b,L,G,y,L,y,,,,,5,19,119,10,0,0,0,0,,,,,0,12,12,34,,,,,,down,0.5003711316057888,2376.6836823741323,None,001,50,2019_Oct_22_1406,ACPT_experiment_5_30_19,3.1.0,59.934020566129675,
,,,C,D,g,b,L,G,g,R,c ,,,,,5,19,119,10,0,0,0,0,,,,,0,13,13,19,,,,,,up,0.7338625669017347,2378.485075196788,None,001,50,2019_Oct_22_1406,ACPT_experiment_5_30_19,3.1.0,59.934020566129675,
,,,C,D,g,b,L,U,y,R,u,,,,,5,19,119,10,0,0,0,0,,,,,0,14,14,25,,,,,,down,0.7839356008935283,2380.503255664851,None,001,50,2019_Oct_22_1406,ACPT_experiment_5_30_19,3.1.0,59.934020566129675,
,,,C,D,g,b,R,G,g,R,c ,,,,,5,19,119,10,0,0,0,0,,,,,0,15,15,7,,,,,,up,0.45035846875907737,2382.571488640717,None,001,50,2019_Oct_22_1406,ACPT_experiment_5_30_19,3.1.0,59.934020566129675,
,,,C,D,g,b,R,D,y,R,y,,,,,5,19,119,10,0,0,0,0,,,,,0,16,16,27,,,,,,down,0.6471762454038981,2384.326149368473,None,001,50,2019_Oct_22_1406,ACPT_experiment_5_30_19,3.1.0,59.934020566129675,
,,,C,D,g,b,R,U,y,L,u,,,,,5,19,119,10,0,0,0,0,,,,,0,17,17,30,,,,,,down,0.6338013203767332,2386.2576534762757,None,001,50,2019_Oct_22_1406,ACPT_experiment_5_30_19,3.1.0,59.934020566129675,
,,,C,D,g,b,L,G,d,L,i,,,,,5,19,119,10,0,0,0,0,,,,,0,18,18,16,,,,,,up,0.7005301491990394,2388.175770584825,None,001,50,2019_Oct_22_1406,ACPT_experiment_5_30_19,3.1.0,59.934020566129675,
,,,C,D,g,b,L,D,d,R,c ,,,,,5,19,119,10,0,0,0,0,,,,,0,19,19,13,,,,,,up,0.8673353173307987,2390.160611994357,None,001,50,2019_Oct_22_1406,ACPT_experiment_5_30_19,3.1.0,59.934020566129675,
,,,C,D,g,b,R,G,y,L,y,,,,,5,19,119,10,0,0,0,0,,,,,0,20,20,28,,,,,,down,0.7005476568301674,2392.312244384804,None,001,50,2019_Oct_22_1406,ACPT_experiment_5_30_19,3.1.0,59.934020566129675,
,,,C,D,g,b,L,D,d,L,c ,,,,,5,19,119,10,0,0,0,0,,,,,0,21,21,12,,,,,,up,1.1508741288816964,2394.297111452075,None,001,50,2019_Oct_22_1406,ACPT_experiment_5_30_19,3.1.0,59.934020566129675,
,,,C,D,g,b,R,G,y,R,y,,,,,5,19,119,10,0,0,0,0,,,,,0,22,22,29,,,,,,down,0.7335869726321107,2396.749276829163,None,001,50,2019_Oct_22_1406,ACPT_experiment_5_30_19,3.1.0,59.934020566129675,
,,,C,D,g,b,L,G,y,R,y,,,,,5,19,119,10,0,0,0,0,,,,,0,23,23,35,,,,,,down,0.6171651461681904,2398.783858325831,None,001,50,2019_Oct_22_1406,ACPT_experiment_5_30_19,3.1.0,59.934020566129675,
,,,C,D,g,b,R,U,d,L,u,,,,,5,19,119,10,0,0,0,0,,,,,0,24,24,8,,,,,,up,0.5003684149032779,2400.701993847577,None,001,50,2019_Oct_22_1406,ACPT_experiment_5_30_19,3.1.0,59.934020566129675,
,,,C,D,g,b,R,D,y,L,y,,,,,5,19,119,10,0,0,0,0,,,,,0,25,25,26,,,,,,down,0.7505829588553752,2402.5033356566164,None,001,50,2019_Oct_22_1406,ACPT_experiment_5_30_19,3.1.0,59.934020566129675,
,,,C,D,g,b,L,U,y,L,u,,,,,5,19,119,10,0,0,0,0,,,,,0,26,26,24,,,,,,down,0.5670764156802761,2404.5549360805435,None,001,50,2019_Oct_22_1406,ACPT_experiment_5_30_19,3.1.0,59.934020566129675,
,,,C,D,g,b,R,D,d,R,c ,,,,,5,19,119,10,0,0,0,0,,,,,0,27,27,1,,,,,,up,0.750558206686037,2406.406349414294,None,001,50,2019_Oct_22_1406,ACPT_experiment_5_30_19,3.1.0,59.934020566129675,
,,,C,D,g,b,L,D,g,R,i,,,,,5,19,119,10,0,0,0,0,,,,,0,28,28,15,,,,,,up,0.5337666371542582,2408.4412028829647,None,001,50,2019_Oct_22_1406,ACPT_experiment_5_30_19,3.1.0,59.934020566129675,
,,,C,D,g,b,R,D,g,R,i,,,,,5,19,119,10,0,0,0,0,,,,,0,29,29,3,,,,,,up,0.4169807726957515,2410.2592780637533,None,001,50,2019_Oct_22_1406,ACPT_experiment_5_30_19,3.1.0,59.934020566129675,
,,,C,D,g,b,L,G,g,L,c ,,,,,5,19,119,10,0,0,0,0,,,,,0,30,30,18,,,,,,up,0.6671690552011569,2411.943889549786,None,001,50,2019_Oct_22_1406,ACPT_experiment_5_30_19,3.1.0,59.934020566129675,
,,,C,D,g,b,L,U,d,R,u,,,,,5,19,119,10,0,0,0,0,,,,,0,31,31,21,,,,,,up,0.5170432266440912,2413.8953909952215,None,001,50,2019_Oct_22_1406,ACPT_experiment_5_30_19,3.1.0,59.934020566129675,
,,,C,D,g,b,R,G,d,L,i,,,,,5,19,119,10,0,0,0,0,,,,,0,32,32,4,,,,,,up,0.4499020629118604,2415.7138422882363,None,001,50,2019_Oct_22_1406,ACPT_experiment_5_30_19,3.1.0,59.934020566129675,
,,,C,D,g,b,L,U,g,R,u,,,,,5,19,119,10,0,0,0,0,,,,,0,33,33,23,,,,,,up,0.46702845080835687,2417.4480728172584,None,001,50,2019_Oct_22_1406,ACPT_experiment_5_30_19,3.1.0,59.934020566129675,
,,,C,D,g,b,L,G,d,R,i,,,,,5,19,119,10,0,0,0,0,,,,,0,34,34,17,,,,,,up,0.5670839620743209,2419.199424300774,None,001,50,2019_Oct_22_1406,ACPT_experiment_5_30_19,3.1.0,59.934020566129675,
,,,C,D,g,b,L,D,y,R,y,,,,,5,19,119,10,0,0,0,0,,,,,0,35,35,33,,,,,,down,0.7005521846640477,2421.0508267677196,None,001,50,2019_Oct_22_1406,ACPT_experiment_5_30_19,3.1.0,59.934020566129675,
,,,C,D,g,b,R,D,g,L,i,,,,,5,19,119,10,0,0,0,0,,,,,1,0,36,2,,,,,,up,0.6168400475598901,2423.0526433354335,None,001,50,2019_Oct_22_1406,ACPT_experiment_5_30_19,3.1.0,59.934020566129675,
,,,C,D,g,b,L,D,y,L,y,,,,,5,19,119,10,0,0,0,0,,,,,1,1,37,32,,,,,,down,0.6504800562415767,2424.9538157732295,None,001,50,2019_Oct_22_1406,ACPT_experiment_5_30_19,3.1.0,59.934020566129675,
,,,C,D,g,b,L,G,y,L,y,,,,,5,19,119,10,0,0,0,0,,,,,1,2,38,34,,,,,,down,0.6504882063472905,2426.888616749189,None,001,50,2019_Oct_22_1406,ACPT_experiment_5_30_19,3.1.0,59.934020566129675,
,,,C,D,g,b,L,D,g,R,i,,,,,5,19,119,10,0,0,0,0,,,,,1,3,39,15,,,,,,up,0.9507229595383251,2428.8234201399955,None,001,50,2019_Oct_22_1406,ACPT_experiment_5_30_19,3.1.0,59.934020566129675,
,,,C,D,g,b,L,U,d,R,u,,,,,5,19,119,10,0,0,0,0,,,,,1,4,40,21,,,,,,up,0.5670975455814187,2431.0584513413105,None,001,50,2019_Oct_22_1406,ACPT_experiment_5_30_19,3.1.0,59.934020566129675,
,,,C,D,g,b,L,U,y,L,u,,,,,5,19,119,10,0,0,0,0,,,,,1,5,41,24,,,,,,down,0.6004812787559786,2432.893157866616,None,001,50,2019_Oct_22_1406,ACPT_experiment_5_30_19,3.1.0,59.934020566129675,
,,,C,D,g,b,R,G,d,R,i,,,,,5,19,119,10,0,0,0,0,,,,,1,6,42,5,,,,,,up,0.4503300943215436,2434.777963989216,None,001,50,2019_Oct_22_1406,ACPT_experiment_5_30_19,3.1.0,59.934020566129675,
,,,C,D,g,b,L,D,d,L,c ,,,,,5,19,119,10,0,0,0,0,,,,,1,7,43,12,,,,,,up,0.4003065646684263,2436.5126228515037,None,001,50,2019_Oct_22_1406,ACPT_experiment_5_30_19,3.1.0,59.934020566129675,
,,,C,D,g,b,R,D,y,L,y,,,,,5,19,119,10,0,0,0,0,,,,,1,8,44,26,,,,,,down,0.6336464683936356,2438.2140380416695,None,001,50,2019_Oct_22_1406,ACPT_experiment_5_30_19,3.1.0,59.934020566129675,
,,,C,D,g,b,R,U,g,L,u,,,,,5,19,119,10,0,0,0,0,,,,,1,9,45,10,,,,,,up,0.517045339634933,2440.148727029158,None,001,50,2019_Oct_22_1406,ACPT_experiment_5_30_19,3.1.0,59.934020566129675,
,,,C,D,g,b,R,D,y,R,y,,,,,5,19,119,10,0,0,0,0,,,,,1,10,46,27,,,,,,down,0.5337071715784987,2441.98347249385,None,001,50,2019_Oct_22_1406,ACPT_experiment_5_30_19,3.1.0,59.934020566129675,
,,,C,D,g,b,L,U,g,L,u,,,,,5,19,119,10,0,0,0,0,,,,,1,11,47,22,,,,,,up,1.1675522610348708,2443.8181826414257,None,001,50,2019_Oct_22_1406,ACPT_experiment_5_30_19,3.1.0,59.934020566129675,
,,,C,D,g,b,R,U,d,R,u,,,,,5,19,119,10,0,0,0,0,,,,,1,12,48,9,,,,,,up,0.6671913925238186,2446.2700515961988,None,001,50,2019_Oct_22_1406,ACPT_experiment_5_30_19,3.1.0,59.934020566129675,
,,,C,D,g,b,R,G,y,L,y,,,,,5,19,119,10,0,0,0,0,,,,,1,13,49,28,,,,,,down,0.5837868463950144,2448.221545495242,None,001,50,2019_Oct_22_1406,ACPT_experiment_5_30_19,3.1.0,59.934020566129675,
,,,C,D,g,b,R,G,d,L,i,,,,,5,19,119,10,0,0,0,0,,,,,1,14,50,4,,,,,,up,1.2342780712988315,2450.0896227739267,None,001,50,2019_Oct_22_1406,ACPT_experiment_5_30_19,3.1.0,59.934020566129675,
,,,C,D,g,b,R,U,g,R,u,,,,,5,19,119,10,0,0,0,0,,,,,1,15,51,11,,,,,,up,0.6504845840772759,2452.6082202556663,None,001,50,2019_Oct_22_1406,ACPT_experiment_5_30_19,3.1.0,59.934020566129675,
,,,C,D,g,b,L,D,y,R,y,,,,,5,19,119,10,0,0,0,0,,,,,1,16,52,33,,,,,,down,0.5999992151737388,2454.5601367527142,None,001,50,2019_Oct_22_1406,ACPT_experiment_5_30_19,3.1.0,59.934020566129675,
,,,C,D,g,b,R,G,g,L,c ,,,,,5,19,119,10,0,0,0,0,,,,,1,17,53,6,,,,,,up,0.6838701283886621,2456.4444789230765,None,001,50,2019_Oct_22_1406,ACPT_experiment_5_30_19,3.1.0,59.934020566129675,
,,,C,D,g,b,L,D,g,L,i,,,,,5,19,119,10,0,0,0,0,,,,,1,18,54,14,,,,,,up,0.60044807462873,2458.4126467282913,None,001,50,2019_Oct_22_1406,ACPT_experiment_5_30_19,3.1.0,59.934020566129675,
,,,C,D,g,b,R,D,d,R,c ,,,,,5,19,119,10,0,0,0,0,,,,,1,19,55,1,,,,,,up,1.2009266366840166,2460.2974130059374,None,001,50,2019_Oct_22_1406,ACPT_experiment_5_30_19,3.1.0,59.934020566129675,
,,,C,D,g,b,L,G,y,R,y,,,,,5,19,119,10,0,0,0,0,,,,,1,20,56,35,,,,,,down,0.5504061317769811,2462.782641847285,None,001,50,2019_Oct_22_1406,ACPT_experiment_5_30_19,3.1.0,59.934020566129675,
,,,C,D,g,b,R,G,g,R,c ,,,,,5,19,119,10,0,0,0,0,,,,,1,21,57,7,,,,,,up,0.5337213587972656,2464.6173758414607,None,001,50,2019_Oct_22_1406,ACPT_experiment_5_30_19,3.1.0,59.934020566129675,
,,,C,D,g,b,R,U,y,R,u,,,,,5,19,119,10,0,0,0,0,,,,,1,22,58,31,,,,,,down,0.6838396409602865,2466.452104100379,None,001,50,2019_Oct_22_1406,ACPT_experiment_5_30_19,3.1.0,59.934020566129675,
,,,C,D,g,b,L,G,g,L,c ,,,,,5,19,119,10,0,0,0,0,,,,,1,23,59,18,,,,,,up,0.43367248835784267,2468.4369349449607,None,001,50,2019_Oct_22_1406,ACPT_experiment_5_30_19,3.1.0,59.934020566129675,
,,,C,D,g,b,L,G,d,L,i,,,,,5,19,119,10,0,0,0,0,,,,,1,24,60,16,,,,,,up,0.4503971062895289,2470.138210074072,None,001,50,2019_Oct_22_1406,ACPT_experiment_5_30_19,3.1.0,59.934020566129675,
,,,C,D,g,b,R,U,y,L,u,,,,,5,19,119,10,0,0,0,0,,,,,1,25,61,30,,,,,,down,0.8840297496917628,2471.872880406878,None,001,50,2019_Oct_22_1406,ACPT_experiment_5_30_19,3.1.0,59.934020566129675,
,,,C,D,g,b,L,U,y,R,u,,,,,5,19,119,10,0,0,0,0,,,,,1,26,62,25,,,,,,down,0.6167292665104469,2474.058271737158,None,001,50,2019_Oct_22_1406,ACPT_experiment_5_30_19,3.1.0,59.934020566129675,
,,,C,D,g,b,R,G,y,R,y,,,,,5,19,119,10,0,0,0,0,,,,,1,27,63,29,,,,,,down,0.700530451054874,2475.9593490904026,None,001,50,2019_Oct_22_1406,ACPT_experiment_5_30_19,3.1.0,59.934020566129675,
,,,C,D,g,b,L,D,d,R,c ,,,,,5,19,119,10,0,0,0,0,,,,,1,28,64,13,,,,,,up,0.7505615271002171,2477.9441986500406,None,001,50,2019_Oct_22_1406,ACPT_experiment_5_30_19,3.1.0,59.934020566129675,
,,,C,D,g,b,R,U,d,L,u,,,,,5,19,119,10,0,0,0,0,,,,,1,29,65,8,,,,,,up,0.6338164131630037,2479.979070833764,None,001,50,2019_Oct_22_1406,ACPT_experiment_5_30_19,3.1.0,59.934020566129675,
,,,C,D,g,b,L,G,g,R,c ,,,,,5,19,119,10,0,0,0,0,,,,,1,30,66,19,,,,,,up,0.8506469220828876,2481.897206657368,None,001,50,2019_Oct_22_1406,ACPT_experiment_5_30_19,3.1.0,59.934020566129675,
,,,C,D,g,b,L,U,d,L,u,,,,,5,19,119,10,0,0,0,0,,,,,1,31,67,20,,,,,,up,0.5003678111934278,2484.0321708769006,None,001,50,2019_Oct_22_1406,ACPT_experiment_5_30_19,3.1.0,59.934020566129675,
,,,C,D,g,b,L,U,g,R,u,,,,,5,19,119,10,0,0,0,0,,,,,1,32,68,23,,,,,,up,0.400316827763163,2485.816862022657,None,001,50,2019_Oct_22_1406,ACPT_experiment_5_30_19,3.1.0,59.934020566129675,
,,,C,D,g,b,R,D,d,L,c,,,,,5,19,119,10,0,0,0,0,,,,,1,33,69,0,,,,,,up,0.5670860750633437,2487.5014819606495,None,001,50,2019_Oct_22_1406,ACPT_experiment_5_30_19,3.1.0,59.934020566129675,
,,,C,D,g,b,R,D,g,R,i,,,,,5,19,119,10,0,0,0,0,,,,,1,34,70,3,,,,,,up,0.48368998089426896,2489.3362117288452,None,001,50,2019_Oct_22_1406,ACPT_experiment_5_30_19,3.1.0,59.934020566129675,
,,,C,D,g,b,L,G,d,R,i,,,,,5,19,119,10,0,0,0,0,,,,,1,35,71,17,,,,,,up,1.0007546392953373,2491.10422534616,None,001,50,2019_Oct_22_1406,ACPT_experiment_5_30_19,3.1.0,59.934020566129675,
,,,C,D,g,b,,,,,,,,,,5,19,119,10,1,0,1,0,0,0,0,0,,,,,,,,,,,,,,001,50,2019_Oct_22_1406,ACPT_experiment_5_30_19,3.1.0,59.934020566129675,
,,,C,D,g,b,L,U,y,L,u,,,,,5,19,119,10,1,0,1,0,,,,,0,0,0,24,,,,,,down,0.9338890698363684,2509.184814484004,None,001,50,2019_Oct_22_1406,ACPT_experiment_5_30_19,3.1.0,59.934020566129675,
,,,C,D,g,b,R,G,g,L,c ,,,,,5,19,119,10,1,0,1,0,,,,,0,1,1,6,,,,,,up,0.6504746228383738,2511.4197207170528,None,001,50,2019_Oct_22_1406,ACPT_experiment_5_30_19,3.1.0,59.934020566129675,
,,,C,D,g,b,L,D,y,L,y,,,,,5,19,119,10,1,0,1,0,,,,,0,2,2,32,,,,,,down,0.6004429430813616,2513.3545177688884,None,001,50,2019_Oct_22_1406,ACPT_experiment_5_30_19,3.1.0,59.934020566129675,
,,,C,D,g,b,L,U,d,L,u,,,,,5,19,119,10,1,0,1,0,,,,,0,3,3,20,,,,,,up,0.6171310364734381,2515.239285253956,None,001,50,2019_Oct_22_1406,ACPT_experiment_5_30_19,3.1.0,59.934020566129675,
,,,C,D,g,b,L,G,g,L,c ,,,,,5,19,119,10,1,0,1,0,,,,,0,4,4,18,,,,,,up,0.6504948471720127,2517.140728758188,None,001,50,2019_Oct_22_1406,ACPT_experiment_5_30_19,3.1.0,59.934020566129675,
,,,C,D,g,b,R,U,g,R,u,,,,,5,19,119,10,1,0,1,0,,,,,0,5,5,11,,,,,,up,0.7672523371929856,2519.075531243425,None,001,50,2019_Oct_22_1406,ACPT_experiment_5_30_19,3.1.0,59.934020566129675,
,,,C,D,g,b,R,D,y,L,y,,,,,5,19,119,10,1,0,1,0,,,,,0,6,6,26,,,,,,down,0.533771466845792,2521.1270655609496,None,001,50,2019_Oct_22_1406,ACPT_experiment_5_30_19,3.1.0,59.934020566129675,
,,,C,D,g,b,L,D,y,R,y,,,,,5,19,119,10,1,0,1,0,,,,,0,7,7,33,,,,,,down,0.700547958684183,2522.9284758912363,None,001,50,2019_Oct_22_1406,ACPT_experiment_5_30_19,3.1.0,59.934020566129675,
,,,C,D,g,b,R,D,d,R,c ,,,,,5,19,119,10,1,0,1,0,,,,,0,8,8,1,,,,,,up,0.6671651310771267,2524.9133263564418,None,001,50,2019_Oct_22_1406,ACPT_experiment_5_30_19,3.1.0,59.934020566129675,
,,,C,D,g,b,R,D,y,R,y,,,,,5,19,119,10,1,0,1,0,,,,,0,9,9,27,,,,,,down,0.5504351099261839,2526.8481098247703,None,001,50,2019_Oct_22_1406,ACPT_experiment_5_30_19,3.1.0,59.934020566129675,
,,,C,D,g,b,R,U,y,R,u,,,,,5,19,119,10,1,0,1,0,,,,,0,10,10,31,,,,,,down,0.5003901485160895,2528.6661677997836,None,001,50,2019_Oct_22_1406,ACPT_experiment_5_30_19,3.1.0,59.934020566129675,
,,,C,D,g,b,L,G,y,L,y,,,,,5,19,119,10,1,0,1,0,,,,,0,11,11,34,,,,,,down,0.48370356440318574,2530.4508830939976,None,001,50,2019_Oct_22_1406,ACPT_experiment_5_30_19,3.1.0,59.934020566129675,
,,,C,D,g,b,L,G,y,R,y,,,,,5,19,119,10,1,0,1,0,,,,,0,12,12,35,,,,,,down,0.733882489379539,2532.2188967113125,None,001,50,2019_Oct_22_1406,ACPT_experiment_5_30_19,3.1.0,59.934020566129675,
,,,C,D,g,b,L,D,g,R,i,,,,,5,19,119,10,1,0,1,0,,,,,0,13,13,15,,,,,,up,0.5835305708897067,2534.2540224538407,None,001,50,2019_Oct_22_1406,ACPT_experiment_5_30_19,3.1.0,59.934020566129675,
,,,C,D,g,b,L,U,d,R,u,,,,,5,19,119,10,1,0,1,0,,,,,0,14,14,21,,,,,,up,0.8840315608267701,2536.121845570011,None,001,50,2019_Oct_22_1406,ACPT_experiment_5_30_19,3.1.0,59.934020566129675,
,,,C,D,g,b,L,U,y,R,u,,,,,5,19,119,10,1,0,1,0,,,,,0,15,15,25,,,,,,down,0.6838894471547974,2538.2734692066424,None,001,50,2019_Oct_22_1406,ACPT_experiment_5_30_19,3.1.0,59.934020566129675,
,,,C,D,g,b,R,G,d,L,i,,,,,5,19,119,10,1,0,1,0,,,,,0,16,16,4,,,,,,up,0.6671572828272474,2540.241683799495,None,001,50,2019_Oct_22_1406,ACPT_experiment_5_30_19,3.1.0,59.934020566129675,
,,,C,D,g,b,R,G,y,R,y,,,,,5,19,119,10,1,0,1,0,,,,,0,17,17,29,,,,,,down,0.6671657347869768,2542.1931559649256,None,001,50,2019_Oct_22_1406,ACPT_experiment_5_30_19,3.1.0,59.934020566129675,
,,,C,D,g,b,L,U,g,R,u,,,,,5,19,119,10,1,0,1,0,,,,,0,18,18,23,,,,,,up,0.6504869989221334,2544.1446522788156,None,001,50,2019_Oct_22_1406,ACPT_experiment_5_30_19,3.1.0,59.934020566129675,
,,,C,D,g,b,L,G,d,R,i,,,,,5,19,119,10,1,0,1,0,,,,,0,19,19,17,,,,,,up,0.38364926055874093,2546.079429710029,None,001,50,2019_Oct_22_1406,ACPT_experiment_5_30_19,3.1.0,59.934020566129675,
,,,C,D,g,b,R,D,g,R,i,,,,,5,19,119,10,1,0,1,0,,,,,0,20,20,3,,,,,,up,0.5000931224894885,2547.764349390749,None,001,50,2019_Oct_22_1406,ACPT_experiment_5_30_19,3.1.0,59.934020566129675,
,,,C,D,g,b,R,U,d,L,u,,,,,5,19,119,10,1,0,1,0,,,,,0,21,21,8,,,,,,up,0.5170821660321963,2549.548772790484,None,001,50,2019_Oct_22_1406,ACPT_experiment_5_30_19,3.1.0,59.934020566129675,
,,,C,D,g,b,L,U,g,L,u,,,,,5,19,119,10,1,0,1,0,,,,,0,22,22,22,,,,,,up,0.6004565265884594,2551.350132710866,None,001,50,2019_Oct_22_1406,ACPT_experiment_5_30_19,3.1.0,59.934020566129675,
,,,C,D,g,b,L,G,g,R,c ,,,,,5,19,119,10,1,0,1,0,,,,,0,23,23,19,,,,,,up,0.4169955636261875,2553.2349119683076,None,001,50,2019_Oct_22_1406,ACPT_experiment_5_30_19,3.1.0,59.934020566129675,
,,,C,D,g,b,L,D,d,L,c ,,,,,5,19,119,10,1,0,1,0,,,,,0,24,24,12,,,,,,up,0.43340715717931744,2554.9531640667337,None,001,50,2019_Oct_22_1406,ACPT_experiment_5_30_19,3.1.0,59.934020566129675,
,,,C,D,g,b,R,U,d,R,u,,,,,5,19,119,10,1,0,1,0,,,,,0,25,25,9,,,,,,up,0.5003653963467514,2556.670868900741,None,001,50,2019_Oct_22_1406,ACPT_experiment_5_30_19,3.1.0,59.934020566129675,
,,,C,D,g,b,R,D,g,L,i,,,,,5,19,119,10,1,0,1,0,,,,,0,26,26,2,,,,,,up,0.35029510924323404,2558.4555186922644,None,001,50,2019_Oct_22_1406,ACPT_experiment_5_30_19,3.1.0,59.934020566129675,
,,,C,D,g,b,L,D,g,L,i,,,,,5,19,119,10,1,0,1,0,,,,,0,27,27,14,,,,,,up,0.38363084736010933,2560.0901196284394,None,001,50,2019_Oct_22_1406,ACPT_experiment_5_30_19,3.1.0,59.934020566129675,
,,,C,D,g,b,L,G,d,L,i,,,,,5,19,119,10,1,0,1,0,,,,,0,28,28,16,,,,,,up,0.28320677026204066,2561.7917639270945,None,001,50,2019_Oct_22_1406,ACPT_experiment_5_30_19,3.1.0,59.934020566129675,
,,,C,D,g,b,R,U,g,L,u,,,,,5,19,119,10,1,0,1,0,,,,,0,29,29,10,,,,,,up,7.304908467631321e-05,2563.359271392741,None,001,50,2019_Oct_22_1406,ACPT_experiment_5_30_19,3.1.0,59.934020566129675,
,,,C,D,g,b,R,G,d,R,i,,,,,5,19,119,10,1,0,1,0,,,,,0,30,30,5,,,,,,up,0.35027156449723407,2564.6436107256577,None,001,50,2019_Oct_22_1406,ACPT_experiment_5_30_19,3.1.0,59.934020566129675,
,,,C,D,g,b,R,U,y,L,u,,,,,5,19,119,10,1,0,1,0,,,,,0,31,31,30,,,,,,down,0.5337548647821677,2566.2781606482167,None,001,50,2019_Oct_22_1406,ACPT_experiment_5_30_19,3.1.0,59.934020566129675,
,,,C,D,g,b,R,D,d,L,c,,,,,5,19,119,10,1,0,1,0,,,,,0,32,32,0,,,,,,up,0.6004447542145499,2568.0962412624085,None,001,50,2019_Oct_22_1406,ACPT_experiment_5_30_19,3.1.0,59.934020566129675,
,,,C,D,g,b,L,D,d,R,c ,,,,,5,19,119,10,1,0,1,0,,,,,0,33,33,13,,,,,,up,0.9507350337662501,2569.980991541701,None,001,50,2019_Oct_22_1406,ACPT_experiment_5_30_19,3.1.0,59.934020566129675,
,,,C,D,g,b,R,G,y,L,y,,,,,5,19,119,10,1,0,1,0,,,,,0,34,34,28,,,,,,down,0.7005509772425285,2572.2160148947696,None,001,50,2019_Oct_22_1406,ACPT_experiment_5_30_19,3.1.0,59.934020566129675,
,,,C,D,g,b,R,G,g,R,c ,,,,,5,19,119,10,1,0,1,0,,,,,0,35,35,7,,,,,,up,0.5003826021238638,2574.184196887203,None,001,50,2019_Oct_22_1406,ACPT_experiment_5_30_19,3.1.0,59.934020566129675,
,,,C,D,g,b,L,G,g,L,c ,,,,,5,19,119,10,1,0,1,0,,,,,1,0,36,18,,,,,,up,0.6838390372486174,2575.968911879563,None,001,50,2019_Oct_22_1406,ACPT_experiment_5_30_19,3.1.0,59.934020566129675,
,,,C,D,g,b,L,G,d,R,i,,,,,5,19,119,10,1,0,1,0,,,,,1,1,37,17,,,,,,up,0.5003916577952623,2577.9370513103404,None,001,50,2019_Oct_22_1406,ACPT_experiment_5_30_19,3.1.0,59.934020566129675,
,,,C,D,g,b,R,D,g,R,i,,,,,5,19,119,10,1,0,1,0,,,,,1,2,38,3,,,,,,up,0.6504803580974112,2579.7217669064103,None,001,50,2019_Oct_22_1406,ACPT_experiment_5_30_19,3.1.0,59.934020566129675,
,,,C,D,g,b,L,D,g,R,i,,,,,5,19,119,10,1,0,1,0,,,,,1,3,39,15,,,,,,up,0.4169702077469992,2581.656575126908,None,001,50,2019_Oct_22_1406,ACPT_experiment_5_30_19,3.1.0,59.934020566129675,
,,,C,D,g,b,R,U,d,L,u,,,,,5,19,119,10,1,0,1,0,,,,,1,4,40,8,,,,,,up,0.11674028424386051,2583.3578680655064,None,001,50,2019_Oct_22_1406,ACPT_experiment_5_30_19,3.1.0,59.934020566129675,
,,,C,D,g,b,R,D,y,R,y,,,,,5,19,119,10,1,0,1,0,,,,,1,5,41,27,,,,,,down,0.6004293595742638,2584.7756270222453,None,001,50,2019_Oct_22_1406,ACPT_experiment_5_30_19,3.1.0,59.934020566129675,
,,,C,D,g,b,R,G,g,R,c ,,,,,5,19,119,10,1,0,1,0,,,,,1,6,42,7,,,,,,up,0.6171403939988522,2586.693757412444,None,001,50,2019_Oct_22_1406,ACPT_experiment_5_30_19,3.1.0,59.934020566129675,
,,,C,D,g,b,R,G,d,R,i,,,,,5,19,119,10,1,0,1,0,,,,,1,7,43,5,,,,,,up,1.1509088422899367,2588.578478713587,None,001,50,2019_Oct_22_1406,ACPT_experiment_5_30_19,3.1.0,59.934020566129675,
,,,C,D,g,b,R,G,y,R,y,,,,,5,19,119,10,1,0,1,0,,,,,1,8,44,29,,,,,,down,0.5671268255846371,2590.9969862725084,None,001,50,2019_Oct_22_1406,ACPT_experiment_5_30_19,3.1.0,59.934020566129675,
,,,C,D,g,b,R,D,y,L,y,,,,,5,19,119,10,1,0,1,0,,,,,1,9,45,26,,,,,,down,0.7172119036204094,2592.865112753676,None,001,50,2019_Oct_22_1406,ACPT_experiment_5_30_19,3.1.0,59.934020566129675,
,,,C,D,g,b,R,D,g,L,i,,,,,5,19,119,10,1,0,1,0,,,,,1,10,46,2,,,,,,up,0.6505032991317421,2594.8833264258683,None,001,50,2019_Oct_22_1406,ACPT_experiment_5_30_19,3.1.0,59.934020566129675,
,,,C,D,g,b,L,U,g,R,u,,,,,5,19,119,10,1,0,1,0,,,,,1,11,47,23,,,,,,up,0.4503551483467163,2596.8014278379196,None,001,50,2019_Oct_22_1406,ACPT_experiment_5_30_19,3.1.0,59.934020566129675,
,,,C,D,g,b,L,D,y,R,y,,,,,5,19,119,10,1,0,1,0,,,,,1,12,48,33,,,,,,down,0.6670048456890072,2598.552905497125,None,001,50,2019_Oct_22_1406,ACPT_experiment_5_30_19,3.1.0,59.934020566129675,
,,,C,D,g,b,R,U,d,R,u,,,,,5,19,119,10,1,0,1,0,,,,,1,13,49,9,,,,,,up,0.6338161113071692,2600.5376297866387,None,001,50,2019_Oct_22_1406,ACPT_experiment_5_30_19,3.1.0,59.934020566129675,
,,,C,D,g,b,R,G,d,L,i,,,,,5,19,119,10,1,0,1,0,,,,,1,14,50,4,,,,,,up,0.6505020917084039,2602.4390621222083,None,001,50,2019_Oct_22_1406,ACPT_experiment_5_30_19,3.1.0,59.934020566129675,
,,,C,D,g,b,L,D,d,L,c ,,,,,5,19,119,10,1,0,1,0,,,,,1,15,51,12,,,,,,up,0.5003687167591124,2604.3738872466256,None,001,50,2019_Oct_22_1406,ACPT_experiment_5_30_19,3.1.0,59.934020566129675,
,,,C,D,g,b,R,G,y,L,y,,,,,5,19,119,10,1,0,1,0,,,,,1,16,52,28,,,,,,down,0.7504178437793598,2606.1753911521864,None,001,50,2019_Oct_22_1406,ACPT_experiment_5_30_19,3.1.0,59.934020566129675,
,,,C,D,g,b,L,U,g,L,u,,,,,5,19,119,10,1,0,1,0,,,,,1,17,53,22,,,,,,up,0.5003699241824506,2608.2268189146416,None,001,50,2019_Oct_22_1406,ACPT_experiment_5_30_19,3.1.0,59.934020566129675,
,,,C,D,g,b,L,D,d,R,c ,,,,,5,19,119,10,1,0,1,0,,,,,1,18,54,13,,,,,,down,0.5504058299211465,2610.0115203234927,None,001,50,2019_Oct_22_1406,ACPT_experiment_5_30_19,3.1.0,59.934020566129675,
,,,C,D,g,b,L,U,d,R,u,,,,,5,19,119,10,1,0,1,0,,,,,1,19,55,21,,,,,,up,0.5671337682670128,2611.8295263793225,None,001,50,2019_Oct_22_1406,ACPT_experiment_5_30_19,3.1.0,59.934020566129675,
,,,C,D,g,b,L,G,d,L,i,,,,,5,19,119,10,1,0,1,0,,,,,1,20,56,16,,,,,,up,0.6001797248936782,2613.6979260399166,None,001,50,2019_Oct_22_1406,ACPT_experiment_5_30_19,3.1.0,59.934020566129675,
,,,C,D,g,b,L,U,y,L,u,,,,,5,19,119,10,1,0,1,0,,,,,1,21,57,24,,,,,,down,0.7672405648208951,2615.582425477105,None,001,50,2019_Oct_22_1406,ACPT_experiment_5_30_19,3.1.0,59.934020566129675,
,,,C,D,g,b,R,U,y,L,u,,,,,5,19,119,10,1,0,1,0,,,,,1,22,58,30,,,,,,down,0.7171971126899734,2617.6506663012206,None,001,50,2019_Oct_22_1406,ACPT_experiment_5_30_19,3.1.0,59.934020566129675,
,,,C,D,g,b,R,G,g,L,c ,,,,,5,19,119,10,1,0,1,0,,,,,1,23,59,6,,,,,,up,0.800598036548763,2619.6688775585662,None,001,50,2019_Oct_22_1406,ACPT_experiment_5_30_19,3.1.0,59.934020566129675,
,,,C,D,g,b,R,U,g,L,u,,,,,5,19,119,10,1,0,1,0,,,,,1,24,60,10,,,,,,up,0.4503300943197246,2621.7538010426706,None,001,50,2019_Oct_22_1406,ACPT_experiment_5_30_19,3.1.0,59.934020566129675,
,,,C,D,g,b,L,G,g,R,c ,,,,,5,19,119,10,1,0,1,0,,,,,1,25,61,19,,,,,,up,0.5337283014778222,2623.4884514529986,None,001,50,2019_Oct_22_1406,ACPT_experiment_5_30_19,3.1.0,59.934020566129675,
,,,C,D,g,b,R,D,d,L,c,,,,,5,19,119,10,1,0,1,0,,,,,1,26,62,0,,,,,,up,0.5837786962911196,2625.3064952407913,None,001,50,2019_Oct_22_1406,ACPT_experiment_5_30_19,3.1.0,59.934020566129675,
,,,C,D,g,b,L,D,y,L,y,,,,,5,19,119,10,1,0,1,0,,,,,1,27,63,32,,,,,,down,0.9841356708639069,2627.1745532007117,None,001,50,2019_Oct_22_1406,ACPT_experiment_5_30_19,3.1.0,59.934020566129675,
,,,C,D,g,b,L,G,y,R,y,,,,,5,19,119,10,1,0,1,0,,,,,1,28,64,35,,,,,,down,0.683744556408783,2629.44298534098,None,001,50,2019_Oct_22_1406,ACPT_experiment_5_30_19,3.1.0,59.934020566129675,
,,,C,D,g,b,R,U,g,R,u,,,,,5,19,119,10,1,0,1,0,,,,,1,29,65,11,,,,,,up,0.6171186603878596,2631.4111615981565,None,001,50,2019_Oct_22_1406,ACPT_experiment_5_30_19,3.1.0,59.934020566129675,
,,,C,D,g,b,R,U,y,R,u,,,,,5,19,119,10,1,0,1,0,,,,,1,30,66,31,,,,,,down,0.567087886196532,2633.312608120945,None,001,50,2019_Oct_22_1406,ACPT_experiment_5_30_19,3.1.0,59.934020566129675,
,,,C,D,g,b,L,U,d,L,u,,,,,5,19,119,10,1,0,1,0,,,,,1,31,67,20,,,,,,up,0.5670860750651627,2635.1640163231496,None,001,50,2019_Oct_22_1406,ACPT_experiment_5_30_19,3.1.0,59.934020566129675,
,,,C,D,g,b,R,D,d,R,c ,,,,,5,19,119,10,1,0,1,0,,,,,1,32,68,1,,,,,,up,0.45037265597602527,2637.0154184882413,None,001,50,2019_Oct_22_1406,ACPT_experiment_5_30_19,3.1.0,59.934020566129675,
,,,C,D,g,b,L,D,g,L,i,,,,,5,19,119,10,1,0,1,0,,,,,1,33,69,14,,,,,,up,0.6171572979219491,2638.750084896921,None,001,50,2019_Oct_22_1406,ACPT_experiment_5_30_19,3.1.0,59.934020566129675,
,,,C,D,g,b,L,G,y,L,y,,,,,5,19,119,10,1,0,1,0,,,,,1,34,70,34,,,,,,down,0.8839645488569658,2640.701585738645,None,001,50,2019_Oct_22_1406,ACPT_experiment_5_30_19,3.1.0,59.934020566129675,
,,,C,D,g,b,L,U,y,R,u,,,,,5,19,119,10,1,0,1,0,,,,,1,35,71,25,,,,,,down,0.5837714517529093,2642.886568959995,None,001,50,2019_Oct_22_1406,ACPT_experiment_5_30_19,3.1.0,59.934020566129675,
,,,C,D,g,b,,,,,,,,,,5,19,119,10,2,0,2,0,0,0,0,0,,,,,,,,,,,,,,001,50,2019_Oct_22_1406,ACPT_experiment_5_30_19,3.1.0,59.934020566129675,
,,,C,D,g,b,R,G,d,R,i,,,,,5,19,119,10,2,0,2,0,,,,,0,0,0,5,,,,,,up,0.9670147163724323,2655.0962527329266,None,001,50,2019_Oct_22_1406,ACPT_experiment_5_30_19,3.1.0,59.934020566129675,
,,,C,D,g,b,L,G,g,R,c ,,,,,5,19,119,10,2,0,2,0,,,,,0,1,1,19,,,,,,up,0.48368394378121593,2657.3476013488125,None,001,50,2019_Oct_22_1406,ACPT_experiment_5_30_19,3.1.0,59.934020566129675,
,,,C,D,g,b,R,U,d,R,u,,,,,5,19,119,10,2,0,2,0,,,,,0,2,2,9,,,,,,up,0.4170103545566235,2659.115568782203,None,001,50,2019_Oct_22_1406,ACPT_experiment_5_30_19,3.1.0,59.934020566129675,
,,,C,D,g,b,L,G,g,L,c ,,,,,5,19,119,10,2,0,2,0,,,,,0,3,3,18,,,,,,up,0.5837557552549697,2660.816936581019,None,001,50,2019_Oct_22_1406,ACPT_experiment_5_30_19,3.1.0,59.934020566129675,
,,,C,D,g,b,R,U,g,R,u,,,,,5,19,119,10,2,0,2,0,,,,,0,4,4,11,,,,,,up,0.4169901302248036,2662.6849712980493,None,001,50,2019_Oct_22_1406,ACPT_experiment_5_30_19,3.1.0,59.934020566129675,
,,,C,D,g,b,L,D,g,R,i,,,,,5,19,119,10,2,0,2,0,,,,,0,5,5,15,,,,,,up,0.4502138798688975,2664.3862917055176,None,001,50,2019_Oct_22_1406,ACPT_experiment_5_30_19,3.1.0,59.934020566129675,
,,,C,D,g,b,R,U,y,R,u,,,,,5,19,119,10,2,0,2,0,,,,,0,6,6,31,,,,,,down,0.750564243800909,2666.120944832548,None,001,50,2019_Oct_22_1406,ACPT_experiment_5_30_19,3.1.0,59.934020566129675,
,,,C,D,g,b,R,D,d,R,c ,,,,,5,19,119,10,2,0,2,0,,,,,0,7,7,1,,,,,,up,1.7010297204124072,2668.172763196302,None,001,50,2019_Oct_22_1406,ACPT_experiment_5_30_19,3.1.0,59.934020566129675,
,,,C,D,g,b,R,U,g,L,u,,,,,5,19,119,10,2,0,2,0,,,,,0,8,8,10,,,,,,up,1.5178280515119695,2671.1581138364327,None,001,50,2019_Oct_22_1406,ACPT_experiment_5_30_19,3.1.0,59.934020566129675,
,,,C,D,g,b,L,G,d,L,i,,,,,5,19,119,10,2,0,2,0,,,,,0,9,9,16,,,,,,up,0.46702241369348485,2673.96024469632,None,001,50,2019_Oct_22_1406,ACPT_experiment_5_30_19,3.1.0,59.934020566129675,
,,,C,D,g,b,L,U,g,L,u,,,,,5,19,119,10,2,0,2,0,,,,,0,10,10,22,,,,,,up,0.650502695421892,2675.711565994263,None,001,50,2019_Oct_22_1406,ACPT_experiment_5_30_19,3.1.0,59.934020566129675,
,,,C,D,g,b,L,D,g,L,i,,,,,5,19,119,10,2,0,2,0,,,,,0,11,11,14,,,,,,up,0.6004643748365197,2677.6463751203282,None,001,50,2019_Oct_22_1406,ACPT_experiment_5_30_19,3.1.0,59.934020566129675,
,,,C,D,g,b,L,G,y,L,y,,,,,5,19,119,10,2,0,2,0,,,,,0,12,12,34,,,,,,down,4.6868965338217095,2679.531164037151,None,001,50,2019_Oct_22_1406,ACPT_experiment_5_30_19,3.1.0,59.934020566129675,
,,,C,D,g,b,R,D,d,L,c,,,,,5,19,119,10,2,0,2,0,,,,,0,13,13,0,,,,,,up,0.5170519804614742,2685.5023793777,None,001,50,2019_Oct_22_1406,ACPT_experiment_5_30_19,3.1.0,59.934020566129675,
,,,C,D,g,b,L,D,d,L,c ,,,,,5,19,119,10,2,0,2,0,,,,,0,14,14,12,,,,,,up,0.4169741318692104,2687.3037559001477,None,001,50,2019_Oct_22_1406,ACPT_experiment_5_30_19,3.1.0,59.934020566129675,
,,,C,D,g,b,L,D,y,L,y,,,,,5,19,119,10,2,0,2,0,,,,,0,15,15,32,,,,,,down,0.533727094056303,2689.0050515554485,None,001,50,2019_Oct_22_1406,ACPT_experiment_5_30_19,3.1.0,59.934020566129675,
,,,C,D,g,b,R,G,g,R,c ,,,,,5,19,119,10,2,0,2,0,,,,,0,16,16,7,,,,,,up,0.9673802636480104,2690.8231185861314,None,001,50,2019_Oct_22_1406,ACPT_experiment_5_30_19,3.1.0,59.934020566129675,
,,,C,D,g,b,R,G,d,L,i,,,,,5,19,119,10,2,0,2,0,,,,,0,17,17,4,,,,,,up,0.5003989023316535,2693.07481886393,None,001,50,2019_Oct_22_1406,ACPT_experiment_5_30_19,3.1.0,59.934020566129675,
,,,C,D,g,b,R,G,y,R,y,,,,,5,19,119,10,2,0,2,0,,,,,0,18,18,29,,,,,,down,0.4837026588356821,2694.8594979354584,None,001,50,2019_Oct_22_1406,ACPT_experiment_5_30_19,3.1.0,59.934020566129675,
,,,C,D,g,b,L,U,g,R,u,,,,,5,19,119,10,2,0,2,0,,,,,0,19,19,23,,,,,,up,0.5500333399631927,2696.644578776948,None,001,50,2019_Oct_22_1406,ACPT_experiment_5_30_19,3.1.0,59.934020566129675,
,,,C,D,g,b,L,G,y,R,y,,,,,5,19,119,10,2,0,2,0,,,,,0,20,20,35,,,,,,down,0.6171234900793934,2698.4789405830234,None,001,50,2019_Oct_22_1406,ACPT_experiment_5_30_19,3.1.0,59.934020566129675,
,,,C,D,g,b,R,G,y,L,y,,,,,5,19,119,10,2,0,2,0,,,,,0,21,21,28,,,,,,down,0.7172315242405602,2700.3803822761183,None,001,50,2019_Oct_22_1406,ACPT_experiment_5_30_19,3.1.0,59.934020566129675,
,,,C,D,g,b,R,U,d,L,u,,,,,5,19,119,10,2,0,2,0,,,,,0,22,22,8,,,,,,up,0.6171256030702352,2702.381910873477,None,001,50,2019_Oct_22_1406,ACPT_experiment_5_30_19,3.1.0,59.934020566129675,
,,,C,D,g,b,L,U,d,R,u,,,,,5,19,119,10,2,0,2,0,,,,,0,23,23,21,,,,,,up,0.4169862061007734,2704.2666650768933,None,001,50,2019_Oct_22_1406,ACPT_experiment_5_30_19,3.1.0,59.934020566129675,
,,,C,D,g,b,R,D,g,R,i,,,,,5,19,119,10,2,0,2,0,,,,,0,24,24,3,,,,,,up,0.5337292070453259,2705.9679755231246,None,001,50,2019_Oct_22_1406,ACPT_experiment_5_30_19,3.1.0,59.934020566129675,
,,,C,D,g,b,L,U,y,R,u,,,,,5,19,119,10,2,0,2,0,,,,,0,25,25,25,,,,,,down,0.750558206687856,2707.7860319888587,None,001,50,2019_Oct_22_1406,ACPT_experiment_5_30_19,3.1.0,59.934020566129675,
,,,C,D,g,b,L,U,d,L,u,,,,,5,19,119,10,2,0,2,0,,,,,0,26,26,20,,,,,,up,0.6835875914366625,2709.821174937162,None,001,50,2019_Oct_22_1406,ACPT_experiment_5_30_19,3.1.0,59.934020566129675,
,,,C,D,g,b,R,D,g,L,i,,,,,5,19,119,10,2,0,2,0,,,,,0,27,27,2,,,,,,up,1.117590913660024,2711.7890710722313,None,001,50,2019_Oct_22_1406,ACPT_experiment_5_30_19,3.1.0,59.934020566129675,
,,,C,D,g,b,R,U,y,L,u,,,,,5,19,119,10,2,0,2,0,,,,,0,28,28,30,,,,,,down,0.5337195476622583,2714.207595836928,None,001,50,2019_Oct_22_1406,ACPT_experiment_5_30_19,3.1.0,59.934020566129675,
,,,C,D,g,b,L,D,y,R,y,,,,,5,19,119,10,2,0,2,0,,,,,0,29,29,33,,,,,,down,1.2342560358320043,2716.042327114401,None,001,50,2019_Oct_22_1406,ACPT_experiment_5_30_19,3.1.0,59.934020566129675,
,,,C,D,g,b,R,D,y,L,y,,,,,5,19,119,10,2,0,2,0,,,,,0,30,30,26,,,,,,down,0.800645126040763,2718.560885958608,None,001,50,2019_Oct_22_1406,ACPT_experiment_5_30_19,3.1.0,59.934020566129675,
,,,C,D,g,b,L,D,d,R,c ,,,,,5,19,119,10,2,0,2,0,,,,,0,31,31,13,,,,,,up,0.9507084704637236,2720.6458320818892,None,001,50,2019_Oct_22_1406,ACPT_experiment_5_30_19,3.1.0,59.934020566129675,
,,,C,D,g,b,R,D,y,R,y,,,,,5,19,119,10,2,0,2,0,,,,,0,32,32,27,,,,,,down,0.6838586578705872,2722.880849699699,None,001,50,2019_Oct_22_1406,ACPT_experiment_5_30_19,3.1.0,59.934020566129675,
,,,C,D,g,b,R,G,g,L,c ,,,,,5,19,119,10,2,0,2,0,,,,,0,33,33,6,,,,,,up,0.7338870172170573,2724.849030182855,None,001,50,2019_Oct_22_1406,ACPT_experiment_5_30_19,3.1.0,59.934020566129675,
,,,C,D,g,b,L,U,y,L,u,,,,,5,19,119,10,2,0,2,0,,,,,0,34,34,24,,,,,,down,0.8339606398258184,2726.8672363086553,None,001,50,2019_Oct_22_1406,ACPT_experiment_5_30_19,3.1.0,59.934020566129675,
,,,C,D,g,b,L,G,d,R,i,,,,,5,19,119,10,2,0,2,0,,,,,0,35,35,17,,,,,,up,1.4844600148317113,2728.9855190756207,None,001,50,2019_Oct_22_1406,ACPT_experiment_5_30_19,3.1.0,59.934020566129675,
,,,C,D,g,b,R,G,g,R,c ,,,,,5,19,119,10,2,0,2,0,,,,,1,0,36,7,,,,,,up,0.6171228863677243,2731.754302425019,None,001,50,2019_Oct_22_1406,ACPT_experiment_5_30_19,3.1.0,59.934020566129675,
,,,C,D,g,b,R,G,d,R,i,,,,,5,19,119,10,2,0,2,0,,,,,1,1,37,5,,,,,,up,0.5670881880541856,2733.6557453255373,None,001,50,2019_Oct_22_1406,ACPT_experiment_5_30_19,3.1.0,59.934020566129675,
,,,C,D,g,b,R,D,g,R,i,,,,,5,19,119,10,2,0,2,0,,,,,1,2,38,3,,,,,,up,0.5504100558991922,2735.5071508110414,None,001,50,2019_Oct_22_1406,ACPT_experiment_5_30_19,3.1.0,59.934020566129675,
,,,C,D,g,b,L,D,g,R,i,,,,,5,19,119,10,2,0,2,0,,,,,1,3,39,15,,,,,,up,0.6171440162688668,2737.341880881093,None,001,50,2019_Oct_22_1406,ACPT_experiment_5_30_19,3.1.0,59.934020566129675,
,,,C,D,g,b,L,D,g,L,i,,,,,5,19,119,10,2,0,2,0,,,,,1,4,40,14,,,,,,up,0.6672079945892619,2739.226616369455,None,001,50,2019_Oct_22_1406,ACPT_experiment_5_30_19,3.1.0,59.934020566129675,
,,,C,D,g,b,R,U,y,L,u,,,,,5,19,119,10,2,0,2,0,,,,,1,5,41,30,,,,,,down,0.6004459616378881,2741.178147698607,None,001,50,2019_Oct_22_1406,ACPT_experiment_5_30_19,3.1.0,59.934020566129675,
,,,C,D,g,b,L,G,y,L,y,,,,,5,19,119,10,2,0,2,0,,,,,1,6,42,34,,,,,,down,0.8506396775464964,2743.079593315828,None,001,50,2019_Oct_22_1406,ACPT_experiment_5_30_19,3.1.0,59.934020566129675,
,,,C,D,g,b,L,D,d,R,c ,,,,,5,19,119,10,2,0,2,0,,,,,1,7,43,13,,,,,,up,0.7338800745328626,2745.247913497811,None,001,50,2019_Oct_22_1406,ACPT_experiment_5_30_19,3.1.0,59.934020566129675,
,,,C,D,g,b,R,D,g,L,i,,,,,5,19,119,10,2,0,2,0,,,,,1,8,44,2,,,,,,up,0.33349351810102235,2747.266089136183,None,001,50,2019_Oct_22_1406,ACPT_experiment_5_30_19,3.1.0,59.934020566129675,
,,,C,D,g,b,L,U,g,L,u,,,,,5,19,119,10,2,0,2,0,,,,,1,9,45,22,,,,,,up,0.5166948851456254,2748.9010281507635,None,001,50,2019_Oct_22_1406,ACPT_experiment_5_30_19,3.1.0,59.934020566129675,
,,,C,D,g,b,R,G,g,L,c ,,,,,5,19,119,10,2,0,2,0,,,,,1,10,46,6,,,,,,up,0.4670571270999062,2750.7020276554176,None,001,50,2019_Oct_22_1406,ACPT_experiment_5_30_19,3.1.0,59.934020566129675,
,,,C,D,g,b,L,G,d,L,i,,,,,5,19,119,10,2,0,2,0,,,,,1,11,47,16,,,,,,up,0.41698862094563083,2752.4534057022356,None,001,50,2019_Oct_22_1406,ACPT_experiment_5_30_19,3.1.0,59.934020566129675,
,,,C,D,g,b,L,U,y,R,u,,,,,5,19,119,10,2,0,2,0,,,,,1,12,48,25,,,,,,up,0.4336404916502943,2754.171384923093,None,001,50,2019_Oct_22_1406,ACPT_experiment_5_30_19,3.1.0,59.934020566129675,
,,,C,D,g,b,L,D,d,L,c ,,,,,5,19,119,10,2,0,2,0,,,,,1,13,49,12,,,,,,up,0.7005253195075056,2755.922711654439,None,001,50,2019_Oct_22_1406,ACPT_experiment_5_30_19,3.1.0,59.934020566129675,
,,,C,D,g,b,L,U,y,L,u,,,,,5,19,119,10,2,0,2,0,,,,,1,14,50,24,,,,,,down,0.5837913742325327,2757.9075603085093,None,001,50,2019_Oct_22_1406,ACPT_experiment_5_30_19,3.1.0,59.934020566129675,
,,,C,D,g,b,L,D,y,L,y,,,,,5,19,119,10,2,0,2,0,,,,,1,15,51,32,,,,,,down,0.7005313566205587,2759.7756421150316,None,001,50,2019_Oct_22_1406,ACPT_experiment_5_30_19,3.1.0,59.934020566129675,
,,,C,D,g,b,L,U,d,L,u,,,,,5,19,119,10,2,0,2,0,,,,,1,16,52,20,,,,,,up,0.6004873158726696,2761.76049861735,None,001,50,2019_Oct_22_1406,ACPT_experiment_5_30_19,3.1.0,59.934020566129675,
,,,C,D,g,b,R,D,y,R,y,,,,,5,19,119,10,2,0,2,0,,,,,1,17,53,27,,,,,,down,0.6338046407909133,2763.661948460551,None,001,50,2019_Oct_22_1406,ACPT_experiment_5_30_19,3.1.0,59.934020566129675,
,,,C,D,g,b,R,G,d,L,i,,,,,5,19,119,10,2,0,2,0,,,,,1,18,54,4,,,,,,up,1.334339317823833,2765.580075832195,None,001,50,2019_Oct_22_1406,ACPT_experiment_5_30_19,3.1.0,59.934020566129675,
,,,C,D,g,b,R,D,d,R,c ,,,,,5,19,119,10,2,0,2,0,,,,,1,19,55,1,,,,,,up,1.03411965741725,2768.1987303344777,None,001,50,2019_Oct_22_1406,ACPT_experiment_5_30_19,3.1.0,59.934020566129675,
,,,C,D,g,b,R,G,y,L,y,,,,,5,19,119,10,2,0,2,0,,,,,1,20,56,28,,,,,,down,0.7006270448837313,2770.517173024604,None,001,50,2019_Oct_22_1406,ACPT_experiment_5_30_19,3.1.0,59.934020566129675,
,,,C,D,g,b,L,U,d,R,u,,,,,5,19,119,10,2,0,2,0,,,,,1,21,57,21,,,,,,up,0.7504187493450445,2772.5021294411654,None,001,50,2019_Oct_22_1406,ACPT_experiment_5_30_19,3.1.0,59.934020566129675,
,,,C,D,g,b,L,G,y,R,y,,,,,5,19,119,10,2,0,2,0,,,,,1,22,58,35,,,,,,down,1.2843221271414222,2774.536879675179,None,001,50,2019_Oct_22_1406,ACPT_experiment_5_30_19,3.1.0,59.934020566129675,
,,,C,D,g,b,L,U,g,R,u,,,,,5,19,119,10,2,0,2,0,,,,,1,23,59,23,,,,,,up,0.7004404980489198,2777.1055015921374,None,001,50,2019_Oct_22_1406,ACPT_experiment_5_30_19,3.1.0,59.934020566129675,
,,,C,D,g,b,R,U,y,R,u,,,,,5,19,119,10,2,0,2,0,,,,,1,24,60,31,,,,,,down,0.8340140682867059,2779.0903411905365,None,001,50,2019_Oct_22_1406,ACPT_experiment_5_30_19,3.1.0,59.934020566129675,
,,,C,D,g,b,R,U,g,R,u,,,,,5,19,119,10,2,0,2,0,,,,,1,25,61,11,,,,,,up,0.7639273964559834,2781.2286451417385,None,001,50,2019_Oct_22_1406,ACPT_experiment_5_30_19,3.1.0,59.934020566129675,
,,,C,D,g,b,R,U,d,R,u,,,,,5,19,119,10,2,0,2,0,,,,,1,26,62,9,,,,,,up,0.6672104094341194,2783.2601745752363,None,001,50,2019_Oct_22_1406,ACPT_experiment_5_30_19,3.1.0,59.934020566129675,
,,,C,D,g,b,L,G,g,R,c ,,,,,5,19,119,10,2,0,2,0,,,,,1,27,63,19,,,,,,up,1.067485882962501,2785.2117043951093,None,001,50,2019_Oct_22_1406,ACPT_experiment_5_30_19,3.1.0,59.934020566129675,
,,,C,D,g,b,R,U,d,L,u,,,,,5,19,119,10,2,0,2,0,,,,,1,28,64,8,,,,,,up,0.950701527781348,2787.5802143839683,None,001,50,2019_Oct_22_1406,ACPT_experiment_5_30_19,3.1.0,59.934020566129675,
,,,C,D,g,b,R,D,y,L,y,,,,,5,19,119,10,2,0,2,0,,,,,1,29,65,26,,,,,,down,0.617124395646897,2789.8152060421853,None,001,50,2019_Oct_22_1406,ACPT_experiment_5_30_19,3.1.0,59.934020566129675,
,,,C,D,g,b,R,D,d,L,c,,,,,5,19,119,10,2,0,2,0,,,,,1,30,66,0,,,,,,up,0.9674050158155296,2791.7166592058,None,001,50,2019_Oct_22_1406,ACPT_experiment_5_30_19,3.1.0,59.934020566129675,
,,,C,D,g,b,R,G,y,R,y,,,,,5,19,119,10,2,0,2,0,,,,,1,31,67,29,,,,,,down,0.663872790755704,2793.9883710084487,None,001,50,2019_Oct_22_1406,ACPT_experiment_5_30_19,3.1.0,59.934020566129675,
,,,C,D,g,b,L,D,y,R,y,,,,,5,19,119,10,2,0,2,0,,,,,1,32,68,33,,,,,,down,0.5671078086743364,2795.9198488548045,None,001,50,2019_Oct_22_1406,ACPT_experiment_5_30_19,3.1.0,59.934020566129675,
,,,C,D,g,b,L,G,d,R,i,,,,,5,19,119,10,2,0,2,0,,,,,1,33,69,17,,,,,,down,0.48372378873500566,2797.7712706405164,None,001,50,2019_Oct_22_1406,ACPT_experiment_5_30_19,3.1.0,59.934020566129675,
,,,C,D,g,b,L,G,g,L,c ,,,,,5,19,119,10,2,0,2,0,,,,,1,34,70,18,,,,,,up,0.6338118853291235,2799.5226133702163,None,001,50,2019_Oct_22_1406,ACPT_experiment_5_30_19,3.1.0,59.934020566129675,
,,,C,D,g,b,R,U,g,L,u,,,,,5,19,119,10,2,0,2,0,,,,,1,35,71,10,,,,,,up,0.5337482239574456,2801.4407244416507,None,001,50,2019_Oct_22_1406,ACPT_experiment_5_30_19,3.1.0,59.934020566129675,
,,,C,D,g,b,,,,,,,,,,5,19,119,10,3,0,3,0,0,0,0,0,,,,,,,,,,,,,,001,50,2019_Oct_22_1406,ACPT_experiment_5_30_19,3.1.0,59.934020566129675,
,,,C,D,g,b,R,D,g,R,i,,,,,5,19,119,10,3,0,3,0,,,,,0,0,0,3,,,,,,up,0.7002605920406495,2832.965024581621,None,001,50,2019_Oct_22_1406,ACPT_experiment_5_30_19,3.1.0,59.934020566129675,
,,,C,D,g,b,L,U,y,L,u,,,,,5,19,119,10,3,0,3,0,,,,,0,1,1,24,,,,,,down,0.5837756777327741,2834.949613639774,None,001,50,2019_Oct_22_1406,ACPT_experiment_5_30_19,3.1.0,59.934020566129675,
,,,C,D,g,b,R,D,y,R,y,,,,,5,19,119,10,3,0,3,0,,,,,0,2,2,27,,,,,,down,0.41697141516851843,2836.817715368772,None,001,50,2019_Oct_22_1406,ACPT_experiment_5_30_19,3.1.0,59.934020566129675,
,,,C,D,g,b,L,D,d,L,c ,,,,,5,19,119,10,3,0,3,0,,,,,0,3,3,12,,,,,,up,0.46698377616121434,2838.5189998554106,None,001,50,2019_Oct_22_1406,ACPT_experiment_5_30_19,3.1.0,59.934020566129675,
,,,C,D,g,b,L,U,y,R,u,,,,,5,19,119,10,3,0,3,0,,,,,0,4,4,25,,,,,,down,0.4500871004674991,2840.287251938744,None,001,50,2019_Oct_22_1406,ACPT_experiment_5_30_19,3.1.0,59.934020566129675,
,,,C,D,g,b,L,D,d,R,c ,,,,,5,19,119,10,3,0,3,0,,,,,0,5,5,13,,,,,,up,0.6671627162304503,2842.0216696183124,None,001,50,2019_Oct_22_1406,ACPT_experiment_5_30_19,3.1.0,59.934020566129675,
,,,C,D,g,b,L,U,g,R,u,,,,,5,19,119,10,3,0,3,0,,,,,0,6,6,23,,,,,,up,0.5504049243536429,2843.97315476354,None,001,50,2019_Oct_22_1406,ACPT_experiment_5_30_19,3.1.0,59.934020566129675,
,,,C,D,g,b,L,D,y,R,y,,,,,5,19,119,10,3,0,3,0,,,,,0,7,7,33,,,,,,down,0.5335634882558224,2845.824694272982,None,001,50,2019_Oct_22_1406,ACPT_experiment_5_30_19,3.1.0,59.934020566129675,
,,,C,D,g,b,R,G,y,L,y,,,,,5,19,119,10,3,0,3,0,,,,,0,8,8,28,,,,,,down,0.8506454128037149,2847.6592876023933,None,001,50,2019_Oct_22_1406,ACPT_experiment_5_30_19,3.1.0,59.934020566129675,
,,,C,D,g,b,L,G,y,R,y,,,,,5,19,119,10,3,0,3,0,,,,,0,9,9,35,,,,,,down,0.5170447359232639,2849.810940217174,None,001,50,2019_Oct_22_1406,ACPT_experiment_5_30_19,3.1.0,59.934020566129675,
,,,C,D,g,b,R,G,g,R,c ,,,,,5,19,119,10,3,0,3,0,,,,,0,10,10,7,,,,,,up,0.4503071532853937,2851.6290054367237,None,001,50,2019_Oct_22_1406,ACPT_experiment_5_30_19,3.1.0,59.934020566129675,
,,,C,D,g,b,R,U,d,L,u,,,,,5,19,119,10,3,0,3,0,,,,,0,11,11,8,,,,,,up,0.7669773466350307,2853.3805881417193,None,001,50,2019_Oct_22_1406,ACPT_experiment_5_30_19,3.1.0,59.934020566129675,
,,,C,D,g,b,L,D,g,L,i,,,,,5,19,119,10,3,0,3,0,,,,,0,12,12,14,,,,,,up,0.4670272433831997,2855.431877352399,None,001,50,2019_Oct_22_1406,ACPT_experiment_5_30_19,3.1.0,59.934020566129675,
,,,C,D,g,b,L,U,d,L,u,,,,,5,19,119,10,3,0,3,0,,,,,0,13,13,20,,,,,,up,1.0675145592558692,2857.183181444567,None,001,50,2019_Oct_22_1406,ACPT_experiment_5_30_19,3.1.0,59.934020566129675,
,,,C,D,g,b,L,G,d,R,i,,,,,5,19,119,10,3,0,3,0,,,,,0,14,14,17,,,,,,up,1.0174424308315793,2859.5350072641577,None,001,50,2019_Oct_22_1406,ACPT_experiment_5_30_19,3.1.0,59.934020566129675,
,,,C,D,g,b,L,G,g,L,c ,,,,,5,19,119,10,3,0,3,0,,,,,0,15,15,18,,,,,,up,0.8172806965376367,2861.8200798046146,None,001,50,2019_Oct_22_1406,ACPT_experiment_5_30_19,3.1.0,59.934020566129675,
,,,C,D,g,b,R,G,g,L,c ,,,,,5,19,119,10,3,0,3,0,,,,,0,16,16,6,,,,,,up,0.6004133612204896,2863.921711606443,None,001,50,2019_Oct_22_1406,ACPT_experiment_5_30_19,3.1.0,59.934020566129675,
,,,C,D,g,b,R,U,g,L,u,,,,,5,19,119,10,3,0,3,0,,,,,0,17,17,10,,,,,,up,0.5837934872215556,2865.806442566969,None,001,50,2019_Oct_22_1406,ACPT_experiment_5_30_19,3.1.0,59.934020566129675,
,,,C,D,g,b,L,G,d,L,i,,,,,5,19,119,10,3,0,3,0,,,,,0,18,18,16,,,,,,up,0.45031983122498787,2867.674556672053,None,001,50,2019_Oct_22_1406,ACPT_experiment_5_30_19,3.1.0,59.934020566129675,
,,,C,D,g,b,L,G,y,L,y,,,,,5,19,119,10,3,0,3,0,,,,,0,19,19,34,,,,,,down,1.067495844201403,2869.4091826320673,None,001,50,2019_Oct_22_1406,ACPT_experiment_5_30_19,3.1.0,59.934020566129675,
,,,C,D,g,b,R,D,g,L,i,,,,,5,19,119,10,3,0,3,0,,,,,0,20,20,2,,,,,,up,0.5504061317769811,2871.761004527534,None,001,50,2019_Oct_22_1406,ACPT_experiment_5_30_19,3.1.0,59.934020566129675,
,,,C,D,g,b,R,D,y,L,y,,,,,5,19,119,10,3,0,3,0,,,,,0,21,21,26,,,,,,down,0.6504903193363134,2873.5957252400585,None,001,50,2019_Oct_22_1406,ACPT_experiment_5_30_19,3.1.0,59.934020566129675,
,,,C,D,g,b,L,U,d,R,u,,,,,5,19,119,10,3,0,3,0,,,,,0,22,22,21,,,,,,up,0.7505585085436906,2875.530544629217,None,001,50,2019_Oct_22_1406,ACPT_experiment_5_30_19,3.1.0,59.934020566129675,
,,,C,D,g,b,L,D,y,L,y,,,,,5,19,119,10,3,0,3,0,,,,,0,23,23,32,,,,,,down,0.7338861116495536,2877.5654198314987,None,001,50,2019_Oct_22_1406,ACPT_experiment_5_30_19,3.1.0,59.934020566129675,
,,,C,D,g,b,R,D,d,L,c,,,,,5,19,119,10,3,0,3,0,,,,,0,24,24,0,,,,,,up,0.5170486600491131,2879.583626259153,None,001,50,2019_Oct_22_1406,ACPT_experiment_5_30_19,3.1.0,59.934020566129675,
,,,C,D,g,b,R,U,y,L,u,,,,,5,19,119,10,3,0,3,0,,,,,0,25,25,30,,,,,,down,0.5504040187861392,2881.385002479745,None,001,50,2019_Oct_22_1406,ACPT_experiment_5_30_19,3.1.0,59.934020566129675,
,,,C,D,g,b,L,D,g,R,i,,,,,5,19,119,10,3,0,3,0,,,,,0,26,26,15,,,,,,up,1.0174397141290683,2883.219730738663,None,001,50,2019_Oct_22_1406,ACPT_experiment_5_30_19,3.1.0,59.934020566129675,
,,,C,D,g,b,L,G,g,R,c ,,,,,5,19,119,10,3,0,3,0,,,,,0,27,27,19,,,,,,up,0.7172197518684698,2885.5214654129195,None,001,50,2019_Oct_22_1406,ACPT_experiment_5_30_19,3.1.0,59.934020566129675,
,,,C,D,g,b,R,U,g,R,u,,,,,5,19,119,10,3,0,3,0,,,,,0,28,28,11,,,,,,up,0.6671684514894878,2887.5230109141976,None,001,50,2019_Oct_22_1406,ACPT_experiment_5_30_19,3.1.0,59.934020566129675,
,,,C,D,g,b,R,G,d,L,i,,,,,5,19,119,10,3,0,3,0,,,,,0,29,29,4,,,,,,up,1.217581224091191,2889.4745033039617,None,001,50,2019_Oct_22_1406,ACPT_experiment_5_30_19,3.1.0,59.934020566129675,
,,,C,D,g,b,R,U,y,R,u,,,,,5,19,119,10,3,0,3,0,,,,,0,30,30,31,,,,,,down,1.1173968204329867,2891.9932040203566,None,001,50,2019_Oct_22_1406,ACPT_experiment_5_30_19,3.1.0,59.934020566129675,
,,,C,D,g,b,R,G,y,R,y,,,,,5,19,119,10,3,0,3,0,,,,,0,31,31,29,,,,,,down,0.883983263911432,2894.4115989870934,None,001,50,2019_Oct_22_1406,ACPT_experiment_5_30_19,3.1.0,59.934020566129675,
,,,C,D,g,b,R,D,d,R,c ,,,,,5,19,119,10,3,0,3,0,,,,,0,32,32,1,,,,,,up,0.5671132420793583,2896.579922187633,None,001,50,2019_Oct_22_1406,ACPT_experiment_5_30_19,3.1.0,59.934020566129675,
,,,C,D,g,b,R,U,d,R,u,,,,,5,19,119,10,3,0,3,0,,,,,0,33,33,9,,,,,,up,0.6004978808214219,2898.4313140896284,None,001,50,2019_Oct_22_1406,ACPT_experiment_5_30_19,3.1.0,59.934020566129675,
,,,C,D,g,b,L,U,g,L,u,,,,,5,19,119,10,3,0,3,0,,,,,0,34,34,22,,,,,,up,1.1675401868069457,2900.316099384185,None,001,50,2019_Oct_22_1406,ACPT_experiment_5_30_19,3.1.0,59.934020566129675,
,,,C,D,g,b,R,G,d,R,i,,,,,5,19,119,10,3,0,3,0,,,,,0,35,35,5,,,,,,up,0.5337328293153405,2902.7679707538027,None,001,50,2019_Oct_22_1406,ACPT_experiment_5_30_19,3.1.0,59.934020566129675,
,,,C,D,g,b,L,G,g,R,c ,,,,,5,19,119,10,3,0,3,0,,,,,1,0,36,19,,,,,,up,0.5335773736205738,2904.602813114183,None,001,50,2019_Oct_22_1406,ACPT_experiment_5_30_19,3.1.0,59.934020566129675,
,,,C,D,g,b,R,G,g,R,c ,,,,,5,19,119,10,3,0,3,0,,,,,1,1,37,7,,,,,,up,0.5504634843637177,2906.404048066297,None,001,50,2019_Oct_22_1406,ACPT_experiment_5_30_19,3.1.0,59.934020566129675,
,,,C,D,g,b,L,D,g,L,i,,,,,5,19,119,10,3,0,3,0,,,,,1,2,38,14,,,,,,up,0.5337412812750699,2908.2387977569706,None,001,50,2019_Oct_22_1406,ACPT_experiment_5_30_19,3.1.0,59.934020566129675,
,,,C,D,g,b,R,G,y,L,y,,,,,5,19,119,10,3,0,3,0,,,,,1,3,39,28,,,,,,down,0.8506559777542861,2910.056856939407,None,001,50,2019_Oct_22_1406,ACPT_experiment_5_30_19,3.1.0,59.934020566129675,
,,,C,D,g,b,R,G,g,L,c ,,,,,5,19,119,10,3,0,3,0,,,,,1,4,40,6,,,,,,up,0.6471662841649959,2912.211810648323,None,001,50,2019_Oct_22_1406,ACPT_experiment_5_30_19,3.1.0,59.934020566129675,
,,,C,D,g,b,R,D,g,L,i,,,,,5,19,119,10,3,0,3,0,,,,,1,5,41,2,,,,,,up,0.8506439035263611,2914.1266167014965,None,001,50,2019_Oct_22_1406,ACPT_experiment_5_30_19,3.1.0,59.934020566129675,
,,,C,D,g,b,L,U,g,R,u,,,,,5,19,119,10,3,0,3,0,,,,,1,6,42,23,,,,,,up,1.4511046560946852,2916.2615809210292,None,001,50,2019_Oct_22_1406,ACPT_experiment_5_30_19,3.1.0,59.934020566129675,
,,,C,D,g,b,R,U,g,R,u,,,,,5,19,119,10,3,0,3,0,,,,,1,7,43,11,,,,,,up,0.58381401340921,2918.9969760094136,None,001,50,2019_Oct_22_1406,ACPT_experiment_5_30_19,3.1.0,59.934020566129675,
,,,C,D,g,b,R,G,y,R,y,,,,,5,19,119,10,3,0,3,0,,,,,1,8,44,29,,,,,,down,0.767239961107407,2920.8650913219208,None,001,50,2019_Oct_22_1406,ACPT_experiment_5_30_19,3.1.0,59.934020566129675,
,,,C,D,g,b,L,D,d,R,c ,,,,,5,19,119,10,3,0,3,0,,,,,1,9,45,13,,,,,,up,0.6838411502394592,2922.916654315737,None,001,50,2019_Oct_22_1406,ACPT_experiment_5_30_19,3.1.0,59.934020566129675,
,,,C,D,g,b,L,D,d,L,c ,,,,,5,19,119,10,3,0,3,0,,,,,1,10,46,12,,,,,,up,0.6004740342195873,2924.8681131995163,None,001,50,2019_Oct_22_1406,ACPT_experiment_5_30_19,3.1.0,59.934020566129675,
,,,C,D,g,b,L,D,y,R,y,,,,,5,19,119,10,3,0,3,0,,,,,1,11,47,33,,,,,,down,0.7672414703865797,2926.752909964589,None,001,50,2019_Oct_22_1406,ACPT_experiment_5_30_19,3.1.0,59.934020566129675,
,,,C,D,g,b,L,G,d,L,i,,,,,5,19,119,10,3,0,3,0,,,,,1,12,48,16,,,,,,up,0.6504785469624039,2928.8044841270676,None,001,50,2019_Oct_22_1406,ACPT_experiment_5_30_19,3.1.0,59.934020566129675,
,,,C,D,g,b,R,G,d,L,i,,,,,5,19,119,10,3,0,3,0,,,,,1,13,49,4,,,,,,up,4.336356921445258,2930.7562315849154,None,001,50,2019_Oct_22_1406,ACPT_experiment_5_30_19,3.1.0,59.934020566129675,
,,,C,D,g,b,L,G,d,R,i,,,,,5,19,119,10,3,0,3,0,,,,,1,14,50,17,,,,,,up,0.55040281136462,2936.3769100297905,None,001,50,2019_Oct_22_1406,ACPT_experiment_5_30_19,3.1.0,59.934020566129675,
,,,C,D,g,b,R,D,y,L,y,,,,,5,19,119,10,3,0,3,0,,,,,1,15,51,26,,,,,,down,0.9505512036357686,2938.2284507466557,None,001,50,2019_Oct_22_1406,ACPT_experiment_5_30_19,3.1.0,59.934020566129675,
,,,C,D,g,b,R,G,d,R,i,,,,,5,19,119,10,3,0,3,0,,,,,1,16,52,5,,,,,,up,0.8839874898912967,2940.4800393378373,None,001,50,2019_Oct_22_1406,ACPT_experiment_5_30_19,3.1.0,59.934020566129675,
,,,C,D,g,b,R,U,d,R,u,,,,,5,19,119,10,3,0,3,0,,,,,1,17,53,9,,,,,,up,1.2676168279722333,2942.6483583123972,None,001,50,2019_Oct_22_1406,ACPT_experiment_5_30_19,3.1.0,59.934020566129675,
,,,C,D,g,b,L,G,y,R,y,,,,,5,19,119,10,3,0,3,0,,,,,1,18,54,35,,,,,,down,1.2341736292200949,2945.217032752251,None,001,50,2019_Oct_22_1406,ACPT_experiment_5_30_19,3.1.0,59.934020566129675,
,,,C,D,g,b,L,D,y,L,y,,,,,5,19,119,10,3,0,3,0,,,,,1,19,55,32,,,,,,down,6.888569961553003,2947.735570164701,None,001,50,2019_Oct_22_1406,ACPT_experiment_5_30_19,3.1.0,59.934020566129675,
,,,C,D,g,b,L,G,y,L,y,,,,,5,19,119,10,3,0,3,0,,,,,1,20,56,34,,,,,,down,0.6338203372870339,2955.9084444439086,None,001,50,2019_Oct_22_1406,ACPT_experiment_5_30_19,3.1.0,59.934020566129675,
,,,C,D,g,b,R,U,y,R,u,,,,,5,19,119,10,3,0,3,0,,,,,1,21,57,31,,,,,,down,0.7839186969740695,2957.843271681315,None,001,50,2019_Oct_22_1406,ACPT_experiment_5_30_19,3.1.0,59.934020566129675,
,,,C,D,g,b,L,U,d,R,u,,,,,5,19,119,10,3,0,3,0,,,,,1,22,58,21,,,,,,up,0.7672327165710158,2959.911513712852,None,001,50,2019_Oct_22_1406,ACPT_experiment_5_30_19,3.1.0,59.934020566129675,
,,,C,D,g,b,R,U,y,L,u,,,,,5,19,119,10,3,0,3,0,,,,,1,23,59,30,,,,,,down,0.6500423654506449,2961.980177738684,None,001,50,2019_Oct_22_1406,ACPT_experiment_5_30_19,3.1.0,59.934020566129675,
,,,C,D,g,b,L,D,g,R,i,,,,,5,19,119,10,3,0,3,0,,,,,1,24,60,15,,,,,,up,0.6171234900812124,2963.914559738907,None,001,50,2019_Oct_22_1406,ACPT_experiment_5_30_19,3.1.0,59.934020566129675,
,,,C,D,g,b,R,D,d,R,c ,,,,,5,19,119,10,3,0,3,0,,,,,1,25,61,1,,,,,,up,0.5504646917870559,2965.8160095821077,None,001,50,2019_Oct_22_1406,ACPT_experiment_5_30_19,3.1.0,59.934020566129675,
,,,C,D,g,b,R,D,d,L,c,,,,,5,19,119,10,3,0,3,0,,,,,1,26,62,0,,,,,,up,0.5172518089457299,2967.6340231843315,None,001,50,2019_Oct_22_1406,ACPT_experiment_5_30_19,3.1.0,59.934020566129675,
,,,C,D,g,b,L,U,y,R,u,,,,,5,19,119,10,3,0,3,0,,,,,1,27,63,25,,,,,,down,1.0507875264756876,2969.4354389480213,None,001,50,2019_Oct_22_1406,ACPT_experiment_5_30_19,3.1.0,59.934020566129675,
,,,C,D,g,b,L,U,d,L,u,,,,,5,19,119,10,3,0,3,0,,,,,1,28,64,20,,,,,,up,0.6171225845137087,2971.7705546387533,None,001,50,2019_Oct_22_1406,ACPT_experiment_5_30_19,3.1.0,59.934020566129675,
,,,C,D,g,b,R,D,y,R,y,,,,,5,19,119,10,3,0,3,0,,,,,1,29,65,27,,,,,,down,3.4193017413144844,2973.6719564868945,None,001,50,2019_Oct_22_1406,ACPT_experiment_5_30_19,3.1.0,59.934020566129675,
,,,C,D,g,b,L,U,g,L,u,,,,,5,19,119,10,3,0,3,0,,,,,1,30,66,22,,,,,,up,0.7172079794963793,2978.3755821664854,None,001,50,2019_Oct_22_1406,ACPT_experiment_5_30_19,3.1.0,59.934020566129675,
,,,C,D,g,b,L,U,y,L,u,,,,,5,19,119,10,3,0,3,0,,,,,1,31,67,24,,,,,,up,0.4503771838135435,2980.3603825236405,None,001,50,2019_Oct_22_1406,ACPT_experiment_5_30_19,3.1.0,59.934020566129675,
,,,C,D,g,b,L,G,g,L,c ,,,,,5,19,119,10,3,0,3,0,,,,,1,32,68,18,,,,,,up,0.6171222826560552,2982.0950857587195,None,001,50,2019_Oct_22_1406,ACPT_experiment_5_30_19,3.1.0,59.934020566129675,
,,,C,D,g,b,R,D,g,R,i,,,,,5,19,119,10,3,0,3,0,,,,,1,33,69,3,,,,,,up,0.5837657164956909,2983.9965307722287,None,001,50,2019_Oct_22_1406,ACPT_experiment_5_30_19,3.1.0,59.934020566129675,
,,,C,D,g,b,R,U,g,L,u,,,,,5,19,119,10,3,0,3,0,,,,,1,34,70,10,,,,,,up,0.4169723207360221,2985.8646216344223,None,001,50,2019_Oct_22_1406,ACPT_experiment_5_30_19,3.1.0,59.934020566129675,
,,,C,D,g,b,R,U,d,L,u,,,,,5,19,119,10,3,0,3,0,,,,,1,35,71,8,,,,,,up,0.5170827697438654,2987.549205651585,None,001,50,2019_Oct_22_1406,ACPT_experiment_5_30_19,3.1.0,59.934020566129675,
,,,C,D,g,b,,,,,,,,,,5,19,119,10,4,0,4,0,0,0,0,0,,,,,,,,,,,,,,001,50,2019_Oct_22_1406,ACPT_experiment_5_30_19,3.1.0,59.934020566129675,
,,,C,D,g,b,L,D,y,L,y,,,,,5,19,119,10,4,0,4,0,,,,,0,0,0,32,,,,,,down,0.7670823924254364,3056.2684146326374,None,001,50,2019_Oct_22_1406,ACPT_experiment_5_30_19,3.1.0,59.934020566129675,
,,,C,D,g,b,L,G,g,L,c ,,,,,5,19,119,10,4,0,4,0,,,,,0,1,1,18,,,,,,up,0.6171416014221904,3058.3365304884846,None,001,50,2019_Oct_22_1406,ACPT_experiment_5_30_19,3.1.0,59.934020566129675,
,,,C,D,g,b,L,U,g,R,u,,,,,5,19,119,10,4,0,4,0,,,,,0,2,2,23,,,,,,up,0.7005485623958521,3060.237977011273,None,001,50,2019_Oct_22_1406,ACPT_experiment_5_30_19,3.1.0,59.934020566129675,
,,,C,D,g,b,L,D,d,R,c ,,,,,5,19,119,10,4,0,4,0,,,,,0,3,3,13,,,,,,up,0.4336465287651663,3062.2228253634876,None,001,50,2019_Oct_22_1406,ACPT_experiment_5_30_19,3.1.0,59.934020566129675,
,,,C,D,g,b,L,G,d,L,i,,,,,5,19,119,10,4,0,4,0,,,,,0,4,4,16,,,,,,up,0.4834137829129759,3063.957749858808,None,001,50,2019_Oct_22_1406,ACPT_experiment_5_30_19,3.1.0,59.934020566129675,
,,,C,D,g,b,R,D,y,R,y,,,,,5,19,119,10,4,0,4,0,,,,,0,5,5,27,,,,,,down,0.5502210942213424,3065.742323884546,None,001,50,2019_Oct_22_1406,ACPT_experiment_5_30_19,3.1.0,59.934020566129675,
,,,C,D,g,b,L,G,y,R,y,,,,,5,19,119,10,4,0,4,0,,,,,0,6,6,35,,,,,,down,0.5837714517547283,3067.5768972914793,None,001,50,2019_Oct_22_1406,ACPT_experiment_5_30_19,3.1.0,59.934020566129675,
,,,C,D,g,b,R,G,y,R,y,,,,,5,19,119,10,4,0,4,0,,,,,0,7,7,29,,,,,,down,1.2843009972402797,3069.461672926651,None,001,50,2019_Oct_22_1406,ACPT_experiment_5_30_19,3.1.0,59.934020566129675,
,,,C,D,g,b,R,U,d,L,u,,,,,5,19,119,10,4,0,4,0,,,,,0,8,8,8,,,,,,up,0.8839965455645142,3072.0302966547442,None,001,50,2019_Oct_22_1406,ACPT_experiment_5_30_19,3.1.0,59.934020566129675,
,,,C,D,g,b,L,U,y,L,u,,,,,5,19,119,10,4,0,4,0,,,,,0,9,9,24,,,,,,down,0.7672466019357671,3074.215288931766,None,001,50,2019_Oct_22_1406,ACPT_experiment_5_30_19,3.1.0,59.934020566129675,
,,,C,D,g,b,R,U,g,L,u,,,,,5,19,119,10,4,0,4,0,,,,,0,10,10,10,,,,,,up,0.7005491661093401,3076.283514663095,None,001,50,2019_Oct_22_1406,ACPT_experiment_5_30_19,3.1.0,59.934020566129675,
,,,C,D,g,b,R,D,y,L,y,,,,,5,19,119,10,4,0,4,0,,,,,0,11,11,26,,,,,,down,1.9179891217245313,3078.285182114083,None,001,50,2019_Oct_22_1406,ACPT_experiment_5_30_19,3.1.0,59.934020566129675,
,,,C,D,g,b,L,D,d,L,c ,,,,,5,19,119,10,4,0,4,0,,,,,0,12,12,12,,,,,,up,1.3676937709951744,3081.504183267474,None,001,50,2019_Oct_22_1406,ACPT_experiment_5_30_19,3.1.0,59.934020566129675,
,,,C,D,g,b,R,G,g,R,c ,,,,,5,19,119,10,4,0,4,0,,,,,0,13,13,7,,,,,,up,0.9673896211752435,3084.1562061082914,None,001,50,2019_Oct_22_1406,ACPT_experiment_5_30_19,3.1.0,59.934020566129675,
,,,C,D,g,b,L,G,y,L,y,,,,,5,19,119,10,4,0,4,0,,,,,0,14,14,34,,,,,,down,0.7005177731134609,3086.4079232900094,None,001,50,2019_Oct_22_1406,ACPT_experiment_5_30_19,3.1.0,59.934020566129675,
,,,C,D,g,b,L,U,g,L,u,,,,,5,19,119,10,4,0,4,0,,,,,0,15,15,22,,,,,,up,0.6504773395390657,3088.3927704348025,None,001,50,2019_Oct_22_1406,ACPT_experiment_5_30_19,3.1.0,59.934020566129675,
,,,C,D,g,b,R,G,y,L,y,,,,,5,19,119,10,4,0,4,0,,,,,0,16,16,28,,,,,,down,0.516789969697129,3090.344507327698,None,001,50,2019_Oct_22_1406,ACPT_experiment_5_30_19,3.1.0,59.934020566129675,
,,,C,D,g,b,R,G,g,L,c ,,,,,5,19,119,10,4,0,4,0,,,,,0,17,17,6,,,,,,up,0.5337273959121376,3092.1456254616514,None,001,50,2019_Oct_22_1406,ACPT_experiment_5_30_19,3.1.0,59.934020566129675,
,,,C,D,g,b,R,U,y,L,u,,,,,5,19,119,10,4,0,4,0,,,,,0,18,18,30,,,,,,down,0.50040192088818,3093.9636876626446,None,001,50,2019_Oct_22_1406,ACPT_experiment_5_30_19,3.1.0,59.934020566129675,
,,,C,D,g,b,L,U,d,L,u,,,,,5,19,119,10,4,0,4,0,,,,,0,19,19,20,,,,,,up,0.9340303383105493,3095.748371262007,None,001,50,2019_Oct_22_1406,ACPT_experiment_5_30_19,3.1.0,59.934020566129675,
,,,C,D,g,b,L,G,d,R,i,,,,,5,19,119,10,4,0,4,0,,,,,0,20,20,17,,,,,,up,0.5337678445775964,3097.9666844862168,None,001,50,2019_Oct_22_1406,ACPT_experiment_5_30_19,3.1.0,59.934020566129675,
,,,C,D,g,b,R,D,d,R,c ,,,,,5,19,119,10,4,0,4,0,,,,,0,21,21,1,,,,,,up,0.46701396173193643,3099.7847792876273,None,001,50,2019_Oct_22_1406,ACPT_experiment_5_30_19,3.1.0,59.934020566129675,
,,,C,D,g,b,R,G,d,R,i,,,,,5,19,119,10,4,0,4,0,,,,,0,22,22,5,,,,,,up,0.4003304112702608,3101.5360984725794,None,001,50,2019_Oct_22_1406,ACPT_experiment_5_30_19,3.1.0,59.934020566129675,
,,,C,D,g,b,R,U,y,R,u,,,,,5,19,119,10,4,0,4,0,,,,,0,23,23,31,,,,,,down,0.6001742914922943,3103.237682400091,None,001,50,2019_Oct_22_1406,ACPT_experiment_5_30_19,3.1.0,59.934020566129675,
,,,C,D,g,b,L,U,d,R,u,,,,,5,19,119,10,4,0,4,0,,,,,0,24,24,21,,,,,,up,0.7339175046436139,3105.1221422941817,None,001,50,2019_Oct_22_1406,ACPT_experiment_5_30_19,3.1.0,59.934020566129675,
,,,C,D,g,b,R,D,d,L,c,,,,,5,19,119,10,4,0,4,0,,,,,0,25,25,0,,,,,,up,0.5838149189767137,3107.140359286788,None,001,50,2019_Oct_22_1406,ACPT_experiment_5_30_19,3.1.0,59.934020566129675,
,,,C,D,g,b,R,D,g,R,i,,,,,5,19,119,10,4,0,4,0,,,,,0,26,26,3,,,,,,up,0.6171609201901447,3108.991760244455,None,001,50,2019_Oct_22_1406,ACPT_experiment_5_30_19,3.1.0,59.934020566129675,
,,,C,D,g,b,L,D,g,R,i,,,,,5,19,119,10,4,0,4,0,,,,,0,27,27,15,,,,,,up,0.6838625819946174,3110.893248423332,None,001,50,2019_Oct_22_1406,ACPT_experiment_5_30_19,3.1.0,59.934020566129675,
,,,C,D,g,b,R,D,g,L,i,,,,,5,19,119,10,4,0,4,0,,,,,0,28,28,2,,,,,,up,0.5170432266459102,3112.8614147192693,None,001,50,2019_Oct_22_1406,ACPT_experiment_5_30_19,3.1.0,59.934020566129675,
,,,C,D,g,b,L,D,g,L,i,,,,,5,19,119,10,4,0,4,0,,,,,0,29,29,14,,,,,,up,0.5003801872771874,3114.6461025446133,None,001,50,2019_Oct_22_1406,ACPT_experiment_5_30_19,3.1.0,59.934020566129675,
,,,C,D,g,b,L,U,y,R,u,,,,,5,19,119,10,4,0,4,0,,,,,0,30,30,25,,,,,,down,0.6669287780496234,3116.447724777616,None,001,50,2019_Oct_22_1406,ACPT_experiment_5_30_19,3.1.0,59.934020566129675,
,,,C,D,g,b,R,U,d,R,u,,,,,5,19,119,10,4,0,4,0,,,,,0,31,31,9,,,,,,up,0.5003391348982404,3118.398992888582,None,001,50,2019_Oct_22_1406,ACPT_experiment_5_30_19,3.1.0,59.934020566129675,
,,,C,D,g,b,L,G,g,R,c ,,,,,5,19,119,10,4,0,4,0,,,,,0,32,32,19,,,,,,up,0.5837648109281872,3120.1836583766017,None,001,50,2019_Oct_22_1406,ACPT_experiment_5_30_19,3.1.0,59.934020566129675,
,,,C,D,g,b,R,U,g,R,u,,,,,5,19,119,10,4,0,4,0,,,,,0,33,33,11,,,,,,up,0.5837856389734952,3122.0350548064343,None,001,50,2019_Oct_22_1406,ACPT_experiment_5_30_19,3.1.0,59.934020566129675,
,,,C,D,g,b,R,G,d,L,i,,,,,5,19,119,10,4,0,4,0,,,,,0,34,34,4,,,,,,up,0.9140459804748389,3123.9231499489415,None,001,50,2019_Oct_22_1406,ACPT_experiment_5_30_19,3.1.0,59.934020566129675,
,,,C,D,g,b,L,D,y,R,y,,,,,5,19,119,10,4,0,4,0,,,,,0,35,35,33,,,,,,down,2.034900558161098,3126.1214927006768,None,001,50,2019_Oct_22_1406,ACPT_experiment_5_30_19,3.1.0,59.934020566129675,
,,,C,D,g,b,R,U,y,L,u,,,,,5,19,119,10,4,0,4,0,,,,,1,0,36,30,,,,,,down,1.0841860505825025,3129.457351560186,None,001,50,2019_Oct_22_1406,ACPT_experiment_5_30_19,3.1.0,59.934020566129675,
,,,C,D,g,b,L,U,y,L,u,,,,,5,19,119,10,4,0,4,0,,,,,1,1,37,24,,,,,,down,2.0348706744443916,3131.8425451146013,None,001,50,2019_Oct_22_1406,ACPT_experiment_5_30_19,3.1.0,59.934020566129675,
,,,C,D,g,b,L,U,d,R,u,,,,,5,19,119,10,4,0,4,0,,,,,1,2,38,21,,,,,,up,0.5838149189767137,3135.145016920522,None,001,50,2019_Oct_22_1406,ACPT_experiment_5_30_19,3.1.0,59.934020566129675,
,,,C,D,g,b,R,U,d,L,u,,,,,5,19,119,10,4,0,4,0,,,,,1,3,39,8,,,,,,up,0.5337732779807993,3137.013108688283,None,001,50,2019_Oct_22_1406,ACPT_experiment_5_30_19,3.1.0,59.934020566129675,
,,,C,D,g,b,R,D,g,L,i,,,,,5,19,119,10,4,0,4,0,,,,,1,4,40,2,,,,,,up,0.7839141691383702,3138.83120228227,None,001,50,2019_Oct_22_1406,ACPT_experiment_5_30_19,3.1.0,59.934020566129675,
,,,C,D,g,b,R,G,y,L,y,,,,,5,19,119,10,4,0,4,0,,,,,1,5,41,28,,,,,,down,0.7505569992645178,3140.9327987669803,None,001,50,2019_Oct_22_1406,ACPT_experiment_5_30_19,3.1.0,59.934020566129675,
,,,C,D,g,b,R,G,g,R,c ,,,,,5,19,119,10,4,0,4,0,,,,,1,6,42,7,,,,,,up,0.7005120378562424,3142.9843717220356,None,001,50,2019_Oct_22_1406,ACPT_experiment_5_30_19,3.1.0,59.934020566129675,
,,,C,D,g,b,R,G,y,R,y,,,,,5,19,119,10,4,0,4,0,,,,,1,7,43,29,,,,,,down,0.7505974479317956,3144.9524960600284,None,001,50,2019_Oct_22_1406,ACPT_experiment_5_30_19,3.1.0,59.934020566129675,
,,,C,D,g,b,R,U,g,L,u,,,,,5,19,119,10,4,0,4,0,,,,,1,8,44,10,,,,,,up,0.7005506753866939,3146.9874120128316,None,001,50,2019_Oct_22_1406,ACPT_experiment_5_30_19,3.1.0,59.934020566129675,
,,,C,D,g,b,R,D,g,R,i,,,,,5,19,119,10,4,0,4,0,,,,,1,9,45,3,,,,,,up,1.050802015550289,3148.9722516112306,None,001,50,2019_Oct_22_1406,ACPT_experiment_5_30_19,3.1.0,59.934020566129675,
,,,C,D,g,b,R,U,d,R,u,,,,,5,19,119,10,4,0,4,0,,,,,1,10,46,9,,,,,,up,0.4836902827519225,3151.3073775650573,None,001,50,2019_Oct_22_1406,ACPT_experiment_5_30_19,3.1.0,59.934020566129675,
,,,C,D,g,b,L,G,g,L,c ,,,,,5,19,119,10,4,0,4,0,,,,,1,11,47,18,,,,,,up,0.5838055614494806,3153.075346507725,None,001,50,2019_Oct_22_1406,ACPT_experiment_5_30_19,3.1.0,59.934020566129675,
,,,C,D,g,b,R,G,d,R,i,,,,,5,19,119,10,4,0,4,0,,,,,1,12,48,5,,,,,,up,0.7005407141477917,3154.9434790260093,None,001,50,2019_Oct_22_1406,ACPT_experiment_5_30_19,3.1.0,59.934020566129675,
,,,C,D,g,b,R,G,d,L,i,,,,,5,19,119,10,4,0,4,0,,,,,1,13,49,4,,,,,,up,0.5505612856159132,3156.9114853384144,None,001,50,2019_Oct_22_1406,ACPT_experiment_5_30_19,3.1.0,59.934020566129675,
,,,C,D,g,b,R,U,y,R,u,,,,,5,19,119,10,4,0,4,0,,,,,1,14,50,31,,,,,,down,0.8506324330082862,3158.7630610705437,None,001,50,2019_Oct_22_1406,ACPT_experiment_5_30_19,3.1.0,59.934020566129675,
,,,C,D,g,b,L,U,y,R,u,,,,,5,19,119,10,4,0,4,0,,,,,1,15,51,25,,,,,,down,0.9506991129364906,3160.898028610489,None,001,50,2019_Oct_22_1406,ACPT_experiment_5_30_19,3.1.0,59.934020566129675,
,,,C,D,g,b,R,D,d,L,c,,,,,5,19,119,10,4,0,4,0,,,,,1,16,52,0,,,,,,up,1.1675471294875024,3163.1497385476705,None,001,50,2019_Oct_22_1406,ACPT_experiment_5_30_19,3.1.0,59.934020566129675,
,,,C,D,g,b,L,D,g,R,i,,,,,5,19,119,10,4,0,4,0,,,,,1,17,53,15,,,,,,up,0.7172366557879286,3165.6015803354276,None,001,50,2019_Oct_22_1406,ACPT_experiment_5_30_19,3.1.0,59.934020566129675,
,,,C,D,g,b,L,G,y,R,y,,,,,5,19,119,10,4,0,4,0,,,,,1,18,54,35,,,,,,down,0.7005422234269645,3167.603105310518,None,001,50,2019_Oct_22_1406,ACPT_experiment_5_30_19,3.1.0,59.934020566129675,
,,,C,D,g,b,L,U,d,L,u,,,,,5,19,119,10,4,0,4,0,,,,,1,19,55,20,,,,,,up,0.7505760161729995,3169.587970868508,None,001,50,2019_Oct_22_1406,ACPT_experiment_5_30_19,3.1.0,59.934020566129675,
,,,C,D,g,b,R,D,y,L,y,,,,,5,19,119,10,4,0,4,0,,,,,1,20,56,26,,,,,,up,0.5170869957237301,3171.6228587487294,None,001,50,2019_Oct_22_1406,ACPT_experiment_5_30_19,3.1.0,59.934020566129675,
,,,C,D,g,b,L,U,g,R,u,,,,,5,19,119,10,4,0,4,0,,,,,1,21,57,23,,,,,,up,0.6505105436699523,3173.4242014633364,None,001,50,2019_Oct_22_1406,ACPT_experiment_5_30_19,3.1.0,59.934020566129675,
,,,C,D,g,b,L,D,y,L,y,,,,,5,19,119,10,4,0,4,0,,,,,1,22,58,32,,,,,,down,0.5001296470309171,3175.3759625046896,None,001,50,2019_Oct_22_1406,ACPT_experiment_5_30_19,3.1.0,59.934020566129675,
,,,C,D,g,b,L,D,d,R,c ,,,,,5,19,119,10,4,0,4,0,,,,,1,23,59,13,,,,,,up,0.6671536605590518,3177.1604151844294,None,001,50,2019_Oct_22_1406,ACPT_experiment_5_30_19,3.1.0,59.934020566129675,
,,,C,D,g,b,L,G,d,L,i,,,,,5,19,119,10,4,0,4,0,,,,,1,24,60,16,,,,,,up,0.950755258099889,3179.111855956866,None,001,50,2019_Oct_22_1406,ACPT_experiment_5_30_19,3.1.0,59.934020566129675,
,,,C,D,g,b,L,D,g,L,i,,,,,5,19,119,10,4,0,4,0,,,,,1,25,61,14,,,,,,up,0.8172791872584639,3181.3469363606655,None,001,50,2019_Oct_22_1406,ACPT_experiment_5_30_19,3.1.0,59.934020566129675,
,,,C,D,g,b,L,G,y,L,y,,,,,5,19,119,10,4,0,4,0,,,,,1,26,62,34,,,,,,down,1.1507059952473355,3183.4653362476492,None,001,50,2019_Oct_22_1406,ACPT_experiment_5_30_19,3.1.0,59.934020566129675,
,,,C,D,g,b,R,D,y,R,y,,,,,5,19,119,10,4,0,4,0,,,,,1,27,63,27,,,,,,down,0.7005108304329042,3185.90041568551,None,001,50,2019_Oct_22_1406,ACPT_experiment_5_30_19,3.1.0,59.934020566129675,
,,,C,D,g,b,L,D,y,R,y,,,,,5,19,119,10,4,0,4,0,,,,,1,28,64,33,,,,,,down,0.7171937922757934,3187.901931303073,None,001,50,2019_Oct_22_1406,ACPT_experiment_5_30_19,3.1.0,59.934020566129675,
,,,C,D,g,b,R,U,g,R,u,,,,,5,19,119,10,4,0,4,0,,,,,1,29,65,11,,,,,,up,2.4351687871530885,3189.9034659375448,None,001,50,2019_Oct_22_1406,ACPT_experiment_5_30_19,3.1.0,59.934020566129675,
,,,C,D,g,b,R,D,d,R,c ,,,,,5,19,119,10,4,0,4,0,,,,,1,30,66,1,,,,,,up,0.6338375430641463,3193.622943872042,None,001,50,2019_Oct_22_1406,ACPT_experiment_5_30_19,3.1.0,59.934020566129675,
,,,C,D,g,b,L,U,g,L,u,,,,,5,19,119,10,4,0,4,0,,,,,1,31,67,22,,,,,,up,1.484496539376778,3195.5410446803817,None,001,50,2019_Oct_22_1406,ACPT_experiment_5_30_19,3.1.0,59.934020566129675,
,,,C,D,g,b,R,G,g,L,c ,,,,,5,19,119,10,4,0,4,0,,,,,1,32,68,6,,,,,,up,0.5837856389716762,3198.3098404058637,None,001,50,2019_Oct_22_1406,ACPT_experiment_5_30_19,3.1.0,59.934020566129675,
,,,C,D,g,b,L,D,d,L,c ,,,,,5,19,119,10,4,0,4,0,,,,,1,33,69,12,,,,,,up,0.9173516024457058,3200.1779502849677,None,001,50,2019_Oct_22_1406,ACPT_experiment_5_30_19,3.1.0,59.934020566129675,
,,,C,D,g,b,L,G,d,R,i,,,,,5,19,119,10,4,0,4,0,,,,,1,34,70,17,,,,,,up,0.7505597159652098,3202.3796282405347,None,001,50,2019_Oct_22_1406,ACPT_experiment_5_30_19,3.1.0,59.934020566129675,
,,,C,D,g,b,L,G,g,R,c ,,,,,5,19,119,10,4,0,4,0,,,,,1,35,71,19,,,,,,up,0.46700641533971066,3204.4145140077653,None,001,50,2019_Oct_22_1406,ACPT_experiment_5_30_19,3.1.0,59.934020566129675,
,,,C,D,g,b,,,,,,,,,,5,19,119,10,5,0,5,0,0,0,0,0,,,,,,,,,,,,,,001,50,2019_Oct_22_1406,ACPT_experiment_5_30_19,3.1.0,59.934020566129675,
,,,C,D,g,b,R,D,d,L,c,,,,,5,19,119,10,5,0,5,0,,,,,0,0,0,0,,,,,,up,0.5836024125510448,3247.347357751247,None,001,50,2019_Oct_22_1406,ACPT_experiment_5_30_19,3.1.0,59.934020566129675,
,,,C,D,g,b,R,D,g,R,i,,,,,5,19,119,10,5,0,5,0,,,,,0,1,1,3,,,,,,up,0.4503651095837995,3249.215321532183,None,001,50,2019_Oct_22_1406,ACPT_experiment_5_30_19,3.1.0,59.934020566129675,
,,,C,D,g,b,R,U,d,L,u,,,,,5,19,119,10,5,0,5,0,,,,,0,2,2,8,,,,,,up,0.43367761990339204,3250.9499770740586,None,001,50,2019_Oct_22_1406,ACPT_experiment_5_30_19,3.1.0,59.934020566129675,
,,,C,D,g,b,L,U,g,R,u,,,,,5,19,119,10,5,0,5,0,,,,,0,3,3,23,,,,,,up,0.3836945389157336,3252.6679270149107,None,001,50,2019_Oct_22_1406,ACPT_experiment_5_30_19,3.1.0,59.934020566129675,
,,,C,D,g,b,L,G,y,L,y,,,,,5,19,119,10,5,0,5,0,,,,,0,4,4,34,,,,,,down,0.550266372580154,3254.36939050199,None,001,50,2019_Oct_22_1406,ACPT_experiment_5_30_19,3.1.0,59.934020566129675,
,,,C,D,g,b,L,D,y,R,y,,,,,5,19,119,10,5,0,5,0,,,,,0,5,5,33,,,,,,down,0.6838345094147371,3256.2206640765435,None,001,50,2019_Oct_22_1406,ACPT_experiment_5_30_19,3.1.0,59.934020566129675,
,,,C,D,g,b,L,D,g,R,i,,,,,5,19,119,10,5,0,5,0,,,,,0,6,6,15,,,,,,up,0.5504468822982744,3258.172119941766,None,001,50,2019_Oct_22_1406,ACPT_experiment_5_30_19,3.1.0,59.934020566129675,
,,,C,D,g,b,L,U,y,R,u,,,,,5,19,119,10,5,0,5,0,,,,,0,7,7,25,,,,,,down,0.5837922797982174,3260.006880499246,None,001,50,2019_Oct_22_1406,ACPT_experiment_5_30_19,3.1.0,59.934020566129675,
,,,C,D,g,b,R,G,d,R,i,,,,,5,19,119,10,5,0,5,0,,,,,0,8,8,5,,,,,,up,0.6668892349498492,3261.8919196544593,None,001,50,2019_Oct_22_1406,ACPT_experiment_5_30_19,3.1.0,59.934020566129675,
,,,C,D,g,b,L,U,y,L,u,,,,,5,19,119,10,5,0,5,0,,,,,0,9,9,24,,,,,,down,0.5837717536087439,3263.843127997994,None,001,50,2019_Oct_22_1406,ACPT_experiment_5_30_19,3.1.0,59.934020566129675,
,,,C,D,g,b,R,G,d,L,i,,,,,5,19,119,10,5,0,5,0,,,,,0,10,10,4,,,,,,up,0.6336805780902068,3265.7112351603955,None,001,50,2019_Oct_22_1406,ACPT_experiment_5_30_19,3.1.0,59.934020566129675,
,,,C,D,g,b,R,G,y,R,y,,,,,5,19,119,10,5,0,5,0,,,,,0,11,11,29,,,,,,down,1.0174261306237895,3267.629358306058,None,001,50,2019_Oct_22_1406,ACPT_experiment_5_30_19,3.1.0,59.934020566129675,
,,,C,D,g,b,L,G,y,R,y,,,,,5,19,119,10,5,0,5,0,,,,,0,12,12,35,,,,,,down,0.867316300418679,3269.9477886201003,None,001,50,2019_Oct_22_1406,ACPT_experiment_5_30_19,3.1.0,59.934020566129675,
,,,C,D,g,b,R,U,d,R,u,,,,,5,19,119,10,5,0,5,0,,,,,0,13,13,9,,,,,,up,0.6337952832636802,3272.0994361033336,None,001,50,2019_Oct_22_1406,ACPT_experiment_5_30_19,3.1.0,59.934020566129675,
,,,C,D,g,b,R,U,g,L,u,,,,,5,19,119,10,5,0,5,0,,,,,0,14,14,10,,,,,,up,0.7005283380640321,3274.0175583434284,None,001,50,2019_Oct_22_1406,ACPT_experiment_5_30_19,3.1.0,59.934020566129675,
,,,C,D,g,b,L,D,d,R,c ,,,,,5,19,119,10,5,0,5,0,,,,,0,15,15,13,,,,,,up,0.6504857915006141,3276.0024015640956,None,001,50,2019_Oct_22_1406,ACPT_experiment_5_30_19,3.1.0,59.934020566129675,
,,,C,D,g,b,L,D,g,L,i,,,,,5,19,119,10,5,0,5,0,,,,,0,16,16,14,,,,,,up,0.4503219442158297,3277.9205367839877,None,001,50,2019_Oct_22_1406,ACPT_experiment_5_30_19,3.1.0,59.934020566129675,
,,,C,D,g,b,R,G,y,L,y,,,,,5,19,119,10,5,0,5,0,,,,,0,17,17,28,,,,,,down,0.6338007166650641,3279.655190816584,None,001,50,2019_Oct_22_1406,ACPT_experiment_5_30_19,3.1.0,59.934020566129675,
,,,C,D,g,b,L,G,g,R,c ,,,,,5,19,119,10,5,0,5,0,,,,,0,18,18,19,,,,,,up,0.6671753941700445,3281.5733109436896,None,001,50,2019_Oct_22_1406,ACPT_experiment_5_30_19,3.1.0,59.934020566129675,
,,,C,D,g,b,R,D,y,R,y,,,,,5,19,119,10,5,0,5,0,,,,,0,19,19,27,,,,,,down,0.683842659516813,3283.5248042390213,None,001,50,2019_Oct_22_1406,ACPT_experiment_5_30_19,3.1.0,59.934020566129675,
,,,C,D,g,b,R,U,g,R,u,,,,,5,19,119,10,5,0,5,0,,,,,0,20,20,11,,,,,,up,0.4503439796844759,3285.492968421968,None,001,50,2019_Oct_22_1406,ACPT_experiment_5_30_19,3.1.0,59.934020566129675,
,,,C,D,g,b,R,D,g,L,i,,,,,5,19,119,10,5,0,5,0,,,,,0,21,21,2,,,,,,up,0.48344034621550236,3287.2278757115128,None,001,50,2019_Oct_22_1406,ACPT_experiment_5_30_19,3.1.0,59.934020566129675,
,,,C,D,g,b,L,D,y,L,y,,,,,5,19,119,10,5,0,5,0,,,,,0,22,22,32,,,,,,up,0.43364501948599354,3288.9956409015704,None,001,50,2019_Oct_22_1406,ACPT_experiment_5_30_19,3.1.0,59.934020566129675,
,,,C,D,g,b,L,G,d,R,i,,,,,5,19,119,10,5,0,5,0,,,,,0,23,23,17,,,,,,up,0.45033462215724285,3290.7136128778893,None,001,50,2019_Oct_22_1406,ACPT_experiment_5_30_19,3.1.0,59.934020566129675,
,,,C,D,g,b,R,G,g,L,c ,,,,,5,19,119,10,5,0,5,0,,,,,0,24,24,6,,,,,,up,0.5337304144686641,3292.448269325332,None,001,50,2019_Oct_22_1406,ACPT_experiment_5_30_19,3.1.0,59.934020566129675,
,,,C,D,g,b,L,U,d,R,u,,,,,5,19,119,10,5,0,5,0,,,,,0,25,25,21,,,,,,up,0.6169010224166414,3294.2832623117138,None,001,50,2019_Oct_22_1406,ACPT_experiment_5_30_19,3.1.0,59.934020566129675,
,,,C,D,g,b,L,G,g,L,c ,,,,,5,19,119,10,5,0,5,0,,,,,0,26,26,18,,,,,,up,0.6671599995297584,3296.184452558997,None,001,50,2019_Oct_22_1406,ACPT_experiment_5_30_19,3.1.0,59.934020566129675,
,,,C,D,g,b,R,D,y,L,y,,,,,5,19,119,10,5,0,5,0,,,,,0,27,27,26,,,,,,down,0.7171986219691462,3298.1359398172153,None,001,50,2019_Oct_22_1406,ACPT_experiment_5_30_19,3.1.0,59.934020566129675,
,,,C,D,g,b,R,G,g,R,c ,,,,,5,19,119,10,5,0,5,0,,,,,0,28,28,7,,,,,,up,0.6504830747981032,3300.1374611700357,None,001,50,2019_Oct_22_1406,ACPT_experiment_5_30_19,3.1.0,59.934020566129675,
,,,C,D,g,b,R,U,y,L,u,,,,,5,19,119,10,5,0,5,0,,,,,0,29,29,30,,,,,,down,0.5837922797982174,3302.0722479587766,None,001,50,2019_Oct_22_1406,ACPT_experiment_5_30_19,3.1.0,59.934020566129675,
,,,C,D,g,b,L,U,g,L,u,,,,,5,19,119,10,5,0,5,0,,,,,0,30,30,22,,,,,,up,0.6672019574743899,3303.940360856437,None,001,50,2019_Oct_22_1406,ACPT_experiment_5_30_19,3.1.0,59.934020566129675,
,,,C,D,g,b,L,G,d,L,i,,,,,5,19,119,10,5,0,5,0,,,,,0,31,31,16,,,,,,up,0.8506348478549626,3305.891849925789,None,001,50,2019_Oct_22_1406,ACPT_experiment_5_30_19,3.1.0,59.934020566129675,
,,,C,D,g,b,R,D,d,R,c ,,,,,5,19,119,10,5,0,5,0,,,,,0,32,32,1,,,,,,up,0.6671823368524201,3308.010111864711,None,001,50,2019_Oct_22_1406,ACPT_experiment_5_30_19,3.1.0,59.934020566129675,
,,,C,D,g,b,L,D,d,L,c ,,,,,5,19,119,10,5,0,5,0,,,,,0,33,33,12,,,,,,up,0.9173959752370138,3309.9616087823106,None,001,50,2019_Oct_22_1406,ACPT_experiment_5_30_19,3.1.0,59.934020566129675,
,,,C,D,g,b,R,U,y,R,u,,,,,5,19,119,10,5,0,5,0,,,,,0,34,34,31,,,,,,down,1.0341468244332646,3312.163277682208,None,001,50,2019_Oct_22_1406,ACPT_experiment_5_30_19,3.1.0,59.934020566129675,
,,,C,D,g,b,L,U,d,L,u,,,,,5,19,119,10,5,0,5,0,,,,,0,35,35,20,,,,,,up,0.5003699241824506,3314.48172490017,None,001,50,2019_Oct_22_1406,ACPT_experiment_5_30_19,3.1.0,59.934020566129675,
,,,C,D,g,b,R,D,y,L,y,,,,,5,19,119,10,5,0,5,0,,,,,1,0,36,26,,,,,,down,0.550396774249748,3316.266426912731,None,001,50,2019_Oct_22_1406,ACPT_experiment_5_30_19,3.1.0,59.934020566129675,
,,,C,D,g,b,L,D,g,R,i,,,,,5,19,119,10,5,0,5,0,,,,,1,1,37,15,,,,,,up,0.800485142510297,3318.1011506438135,None,001,50,2019_Oct_22_1406,ACPT_experiment_5_30_19,3.1.0,59.934020566129675,
,,,C,D,g,b,R,G,y,L,y,,,,,5,19,119,10,5,0,5,0,,,,,1,2,38,28,,,,,,down,0.900673772148366,3320.186086202146,None,001,50,2019_Oct_22_1406,ACPT_experiment_5_30_19,3.1.0,59.934020566129675,
,,,C,D,g,b,R,U,g,R,u,,,,,5,19,119,10,5,0,5,0,,,,,1,3,39,11,,,,,,up,2.4184991069596435,3322.3710727439084,None,001,50,2019_Oct_22_1406,ACPT_experiment_5_30_19,3.1.0,59.934020566129675,
,,,C,D,g,b,L,U,y,R,u,,,,,5,19,119,10,5,0,5,0,,,,,1,4,40,25,,,,,,down,0.6004912399966997,3326.0738722443966,None,001,50,2019_Oct_22_1406,ACPT_experiment_5_30_19,3.1.0,59.934020566129675,
,,,C,D,g,b,R,D,g,L,i,,,,,5,19,119,10,5,0,5,0,,,,,1,5,41,2,,,,,,up,0.6838538281790534,3327.9586647834894,None,001,50,2019_Oct_22_1406,ACPT_experiment_5_30_19,3.1.0,59.934020566129675,
,,,C,D,g,b,L,G,y,R,y,,,,,5,19,119,10,5,0,5,0,,,,,1,6,42,35,,,,,,down,0.683845979930993,3329.9268298720035,None,001,50,2019_Oct_22_1406,ACPT_experiment_5_30_19,3.1.0,59.934020566129675,
,,,C,D,g,b,R,D,y,R,y,,,,,5,19,119,10,5,0,5,0,,,,,1,7,43,27,,,,,,down,0.7005195842484682,3331.894992243817,None,001,50,2019_Oct_22_1406,ACPT_experiment_5_30_19,3.1.0,59.934020566129675,
,,,C,D,g,b,R,D,d,L,c,,,,,5,19,119,10,5,0,5,0,,,,,1,8,44,0,,,,,,up,1.2342599599560344,3333.8798405960333,None,001,50,2019_Oct_22_1406,ACPT_experiment_5_30_19,3.1.0,59.934020566129675,
,,,C,D,g,b,L,U,d,L,u,,,,,5,19,119,10,5,0,5,0,,,,,1,9,45,20,,,,,,up,1.1008189043786842,3336.398428116532,None,001,50,2019_Oct_22_1406,ACPT_experiment_5_30_19,3.1.0,59.934020566129675,
,,,C,D,g,b,R,U,g,L,u,,,,,5,19,119,10,5,0,5,0,,,,,1,10,46,10,,,,,,up,0.6004873158708506,3338.7835374532006,None,001,50,2019_Oct_22_1406,ACPT_experiment_5_30_19,3.1.0,59.934020566129675,
,,,C,D,g,b,R,U,d,R,u,,,,,5,19,119,10,5,0,5,0,,,,,1,11,47,9,,,,,,up,0.4670299600857106,3340.6516434081805,None,001,50,2019_Oct_22_1406,ACPT_experiment_5_30_19,3.1.0,59.934020566129675,
,,,C,D,g,b,R,G,g,L,c ,,,,,5,19,119,10,5,0,5,0,,,,,1,12,48,6,,,,,,up,0.3502664329498657,3342.402990665716,None,001,50,2019_Oct_22_1406,ACPT_experiment_5_30_19,3.1.0,59.934020566129675,
,,,C,D,g,b,R,G,d,R,i,,,,,5,19,119,10,5,0,5,0,,,,,1,13,49,5,,,,,,up,0.36693067974010773,3344.0375831499314,None,001,50,2019_Oct_22_1406,ACPT_experiment_5_30_19,3.1.0,59.934020566129675,
,,,C,D,g,b,R,G,g,R,c ,,,,,5,19,119,10,5,0,5,0,,,,,1,14,50,7,,,,,,up,0.18351076915496378,3345.672120394549,None,001,50,2019_Oct_22_1406,ACPT_experiment_5_30_19,3.1.0,59.934020566129675,
,,,C,D,g,b,R,U,y,R,u,,,,,5,19,119,10,5,0,5,0,,,,,1,15,51,31,,,,,,down,0.48367760481050937,3347.139961742807,None,001,50,2019_Oct_22_1406,ACPT_experiment_5_30_19,3.1.0,59.934020566129675,
,,,C,D,g,b,L,G,d,R,i,,,,,5,19,119,10,5,0,5,0,,,,,1,16,52,17,,,,,,up,0.29982090900193725,3348.9249991170727,None,001,50,2019_Oct_22_1406,ACPT_experiment_5_30_19,3.1.0,59.934020566129675,
,,,C,D,g,b,L,U,d,R,u,,,,,5,19,119,10,5,0,5,0,,,,,1,17,53,21,,,,,,up,0.3168956795707345,3350.509178074046,None,001,50,2019_Oct_22_1406,ACPT_experiment_5_30_19,3.1.0,59.934020566129675,
,,,C,D,g,b,L,G,g,R,c ,,,,,5,19,119,10,5,0,5,0,,,,,1,18,54,19,,,,,,up,0.2835282466021454,3352.110400408592,None,001,50,2019_Oct_22_1406,ACPT_experiment_5_30_19,3.1.0,59.934020566129675,
,,,C,D,g,b,R,U,d,L,u,,,,,5,19,119,10,5,0,5,0,,,,,1,19,55,8,,,,,,up,0.4836878679052461,3353.6782936458476,None,001,50,2019_Oct_22_1406,ACPT_experiment_5_30_19,3.1.0,59.934020566129675,
,,,C,D,g,b,L,D,y,L,y,,,,,5,19,119,10,5,0,5,0,,,,,1,20,56,32,,,,,,up,0.5500759016213124,3355.479969005455,None,001,50,2019_Oct_22_1406,ACPT_experiment_5_30_19,3.1.0,59.934020566129675,
,,,C,D,g,b,R,D,g,R,i,,,,,5,19,119,10,5,0,5,0,,,,,1,21,57,3,,,,,,up,0.5170574138646771,3357.314357374833,None,001,50,2019_Oct_22_1406,ACPT_experiment_5_30_19,3.1.0,59.934020566129675,
,,,C,D,g,b,L,G,g,L,c ,,,,,5,19,119,10,5,0,5,0,,,,,1,22,58,18,,,,,,up,0.7005736164210248,3359.1156952597485,None,001,50,2019_Oct_22_1406,ACPT_experiment_5_30_19,3.1.0,59.934020566129675,
,,,C,D,g,b,L,U,g,L,u,,,,,5,19,119,10,5,0,5,0,,,,,1,23,59,22,,,,,,up,0.9673986768448231,3361.1005801365063,None,001,50,2019_Oct_22_1406,ACPT_experiment_5_30_19,3.1.0,59.934020566129675,
,,,C,D,g,b,L,D,d,L,c ,,,,,5,19,119,10,5,0,5,0,,,,,1,24,60,12,,,,,,up,1.5344983354170836,3363.3522997330692,None,001,50,2019_Oct_22_1406,ACPT_experiment_5_30_19,3.1.0,59.934020566129675,
