facing_vig,person_vig,text_vig,facing_train,person_train,food_train,correct_key_train,facing_exp,person_exp,food_exp,showL_R,consistent,vig_random.thisRepN,vig_random.thisTrialN,vig_random.thisN,vig_random.thisIndex,trainTrials.thisRepN,trainTrials.thisTrialN,trainTrials.thisN,trainTrials.thisIndex,expBlock.thisRepN,expBlock.thisTrialN,expBlock.thisN,expBlock.thisIndex,breakLoop.thisRepN,breakLoop.thisTrialN,breakLoop.thisN,breakLoop.thisIndex,expTrials.thisRepN,expTrials.thisTrialN,expTrials.thisN,expTrials.thisIndex,train_resp.keys,train_resp.corr,train_resp.rt,train_resp.started,train_resp.stopped,exp_resp.keys,exp_resp.rt,exp_resp.started,exp_resp.stopped,session,participant,date,expName,psychopyVersion,frameRate,
C,U,"did not report her food preferences, so her food preferences are unknown.",,,,,,,,,,0,0,0,2,,,,,,,,,,,,,,,,,,,,,,,,,,001,52,2019_Oct_23_1105,ACPT_experiment_5_30_19,3.1.0,59.9426601772025,
C,G,"cannot eat dairy products because she is lactose intolerant. She enjoys eating wheat products. She thinks eating insects, like crickets, is disgusting.",,,,,,,,,,0,1,1,0,,,,,,,,,,,,,,,,,,,,,,,,,,001,52,2019_Oct_23_1105,ACPT_experiment_5_30_19,3.1.0,59.9426601772025,
C,D,"is allergic to gluten, meaning she can’t eat wheat products. She enjoys eating dairy products. She thinks eating insects, like crickets, is disgusting.",,,,,,,,,,0,2,2,1,,,,,,,,,,,,,,,,,,,,,,,,,,001,52,2019_Oct_23_1105,ACPT_experiment_5_30_19,3.1.0,59.9426601772025,
,,,C,G,g,v,,,,,,,,,,0,0,0,4,,,,,,,,,,,,,b,0,5.937875865833121,4890.494552275367,None,,,,,001,52,2019_Oct_23_1105,ACPT_experiment_5_30_19,3.1.0,59.9426601772025,
,,,C,G,d,b,,,,,,,,,,0,1,1,12,,,,,,,,,,,,,b,1,4.470095395174212,4899.067731690921,None,,,,,001,52,2019_Oct_23_1105,ACPT_experiment_5_30_19,3.1.0,59.9426601772025,
,,,C,D,y,b,,,,,,,,,,0,2,2,2,,,,,,,,,,,,,b,1,3.6194253831517926,4906.823641328874,None,,,,,001,52,2019_Oct_23_1105,ACPT_experiment_5_30_19,3.1.0,59.9426601772025,
,,,C,D,d,v,,,,,,,,,,0,3,3,9,,,,,,,,,,,,,n,0,4.353343690978363,4913.7121748004965,None,,,,,001,52,2019_Oct_23_1105,ACPT_experiment_5_30_19,3.1.0,59.9426601772025,
,,,C,D,g,b,,,,,,,,,,0,4,4,10,,,,,,,,,,,,,v,0,2.4685818951711553,4921.334638955993,None,,,,,001,52,2019_Oct_23_1105,ACPT_experiment_5_30_19,3.1.0,59.9426601772025,
,,,C,D,d,v,,,,,,,,,,0,5,5,18,,,,,,,,,,,,,v,1,4.736962815411971,4927.0890308679745,None,,,,,001,52,2019_Oct_23_1105,ACPT_experiment_5_30_19,3.1.0,59.9426601772025,
,,,C,U,d,n,,,,,,,,,,0,6,6,15,,,,,,,,,,,,,v,0,2.852184115736236,4935.1118012853585,None,,,,,001,52,2019_Oct_23_1105,ACPT_experiment_5_30_19,3.1.0,59.9426601772025,
,,,C,D,g,b,,,,,,,,,,0,7,7,1,,,,,,,,,,,,,b,1,2.752102645123159,4941.249794814195,None,,,,,001,52,2019_Oct_23_1105,ACPT_experiment_5_30_19,3.1.0,59.9426601772025,
,,,C,U,d,n,,,,,,,,,,0,8,8,6,,,,,,,,,,,,,v,0,9.940909506645767,4947.287715626208,None,,,,,001,52,2019_Oct_23_1105,ACPT_experiment_5_30_19,3.1.0,59.9426601772025,
,,,C,U,y,n,,,,,,,,,,0,9,9,17,,,,,,,,,,,,,b,0,1.9348168692167746,4960.5144408849055,None,,,,,001,52,2019_Oct_23_1105,ACPT_experiment_5_30_19,3.1.0,59.9426601772025,
,,,C,U,g,n,,,,,,,,,,0,10,10,16,,,,,,,,,,,,,b,0,2.5019124011305394,4965.735078637706,None,,,,,001,52,2019_Oct_23_1105,ACPT_experiment_5_30_19,3.1.0,59.9426601772025,
,,,C,G,y,b,,,,,,,,,,0,11,11,5,,,,,,,,,,,,,b,1,2.3184459548592713,4971.522808300162,None,,,,,001,52,2019_Oct_23_1105,ACPT_experiment_5_30_19,3.1.0,59.9426601772025,
,,,C,G,g,v,,,,,,,,,,0,12,12,13,,,,,,,,,,,,,v,1,2.0182127116495394,4977.110391623409,None,,,,,001,52,2019_Oct_23_1105,ACPT_experiment_5_30_19,3.1.0,59.9426601772025,
,,,C,D,y,b,,,,,,,,,,0,13,13,11,,,,,,,,,,,,,b,1,2.0015352335494754,4982.4144209926735,None,,,,,001,52,2019_Oct_23_1105,ACPT_experiment_5_30_19,3.1.0,59.9426601772025,
,,,C,U,y,n,,,,,,,,,,0,14,14,8,,,,,,,,,,,,,v,0,1.4677898281570378,4987.701776807952,None,,,,,001,52,2019_Oct_23_1105,ACPT_experiment_5_30_19,3.1.0,59.9426601772025,
,,,C,G,g,v,,,,,,,,,,0,15,15,19,,,,,,,,,,,,,v,1,2.7854687699500573,4992.455384802999,None,,,,,001,52,2019_Oct_23_1105,ACPT_experiment_5_30_19,3.1.0,59.9426601772025,
,,,C,G,y,b,,,,,,,,,,0,16,16,14,,,,,,,,,,,,,b,1,2.2016885154207557,4998.50998731908,None,,,,,001,52,2019_Oct_23_1105,ACPT_experiment_5_30_19,3.1.0,59.9426601772025,
,,,C,U,g,n,,,,,,,,,,0,17,17,7,,,,,,,,,,,,,b,0,1.6846233048208887,5003.997504868164,None,,,,,001,52,2019_Oct_23_1105,ACPT_experiment_5_30_19,3.1.0,59.9426601772025,
,,,C,G,d,b,,,,,,,,,,0,18,18,3,,,,,,,,,,,,,b,1,4.903749670601428,5008.967933963828,None,,,,,001,52,2019_Oct_23_1105,ACPT_experiment_5_30_19,3.1.0,59.9426601772025,
,,,C,D,d,v,,,,,,,,,,0,19,19,0,,,,,,,,,,,,,v,1,1.3177079198549109,5017.140800174834,None,,,,,001,52,2019_Oct_23_1105,ACPT_experiment_5_30_19,3.1.0,59.9426601772025,
,,,C,G,g,v,,,,,,,,,,1,0,20,13,,,,,,,,,,,,,v,1,2.284818423768229,5021.761270579329,None,,,,,001,52,2019_Oct_23_1105,ACPT_experiment_5_30_19,3.1.0,59.9426601772025,
,,,C,U,d,n,,,,,,,,,,1,1,21,6,,,,,,,,,,,,,v,0,4.570173545384023,5027.331896605069,None,,,,,001,52,2019_Oct_23_1105,ACPT_experiment_5_30_19,3.1.0,59.9426601772025,
,,,C,G,g,v,,,,,,,,,,1,2,22,19,,,,,,,,,,,,,v,1,2.4518736278814686,5035.187872319039,None,,,,,001,52,2019_Oct_23_1105,ACPT_experiment_5_30_19,3.1.0,59.9426601772025,
,,,C,U,y,n,,,,,,,,,,1,3,23,17,,,,,,,,,,,,,b,0,1.7012932365505549,5040.925574075019,None,,,,,001,52,2019_Oct_23_1105,ACPT_experiment_5_30_19,3.1.0,59.9426601772025,
,,,C,U,g,n,,,,,,,,,,1,4,24,16,,,,,,,,,,,,,b,0,2.6854183903833473,5045.895986568668,None,,,,,001,52,2019_Oct_23_1105,ACPT_experiment_5_30_19,3.1.0,59.9426601772025,
,,,C,D,y,b,,,,,,,,,,1,5,25,11,,,,,,,,,,,,,v,0,1.3510348035570132,5051.867214070298,None,,,,,001,52,2019_Oct_23_1105,ACPT_experiment_5_30_19,3.1.0,59.9426601772025,
,,,C,G,g,v,,,,,,,,,,1,6,26,4,,,,,,,,,,,,,b,0,5.6209527684768545,5056.504073077842,None,,,,,001,52,2019_Oct_23_1105,ACPT_experiment_5_30_19,3.1.0,59.9426601772025,
,,,C,D,d,v,,,,,,,,,,1,7,27,0,,,,,,,,,,,,,b,0,3.519385266647987,5065.410847635466,None,,,,,001,52,2019_Oct_23_1105,ACPT_experiment_5_30_19,3.1.0,59.9426601772025,
,,,C,G,y,b,,,,,,,,,,1,8,28,5,,,,,,,,,,,,,n,0,2.101610968920795,5072.216011827879,None,,,,,001,52,2019_Oct_23_1105,ACPT_experiment_5_30_19,3.1.0,59.9426601772025,
,,,C,G,d,b,,,,,,,,,,1,9,29,3,,,,,,,,,,,,,b,1,1.1842841709449203,5077.603442171109,None,,,,,001,52,2019_Oct_23_1105,ACPT_experiment_5_30_19,3.1.0,59.9426601772025,
,,,C,U,y,n,,,,,,,,,,1,10,30,8,,,,,,,,,,,,,v,0,2.368248073939867,5082.090419098233,None,,,,,001,52,2019_Oct_23_1105,ACPT_experiment_5_30_19,3.1.0,59.9426601772025,
,,,C,D,y,b,,,,,,,,,,1,11,31,2,,,,,,,,,,,,,b,1,2.0182151264880304,5087.744479603822,None,,,,,001,52,2019_Oct_23_1105,ACPT_experiment_5_30_19,3.1.0,59.9426601772025,
,,,C,U,g,n,,,,,,,,,,1,12,32,7,,,,,,,,,,,,,b,0,2.585298886065175,5093.048529197359,None,,,,,001,52,2019_Oct_23_1105,ACPT_experiment_5_30_19,3.1.0,59.9426601772025,
,,,C,G,y,b,,,,,,,,,,1,13,33,14,,,,,,,,,,,,,v,0,1.2676425833815301,5098.919640213218,None,,,,,001,52,2019_Oct_23_1105,ACPT_experiment_5_30_19,3.1.0,59.9426601772025,
,,,C,D,g,b,,,,,,,,,,1,14,34,10,,,,,,,,,,,,,v,0,2.2348164768045535,5103.490025660677,None,,,,,001,52,2019_Oct_23_1105,ACPT_experiment_5_30_19,3.1.0,59.9426601772025,
,,,C,D,g,b,,,,,,,,,,1,15,35,1,,,,,,,,,,,,,b,1,2.6687149527706424,5108.9939623001455,None,,,,,001,52,2019_Oct_23_1105,ACPT_experiment_5_30_19,3.1.0,59.9426601772025,
,,,C,D,d,v,,,,,,,,,,1,16,36,9,,,,,,,,,,,,,v,1,1.5011544437102202,5114.931807678643,None,,,,,001,52,2019_Oct_23_1105,ACPT_experiment_5_30_19,3.1.0,59.9426601772025,
,,,C,D,d,v,,,,,,,,,,1,17,37,18,,,,,,,,,,,,,v,1,2.0515743086543807,5119.702098585177,None,,,,,001,52,2019_Oct_23_1105,ACPT_experiment_5_30_19,3.1.0,59.9426601772025,
,,,C,U,d,n,,,,,,,,,,1,18,38,15,,,,,,,,,,,,,b,0,1.9681986904934092,5125.039465403062,None,,,,,001,52,2019_Oct_23_1105,ACPT_experiment_5_30_19,3.1.0,59.9426601772025,
,,,C,G,d,b,,,,,,,,,,1,19,39,12,,,,,,,,,,,,,v,0,2.6687143490607923,5130.293481656737,None,,,,,001,52,2019_Oct_23_1105,ACPT_experiment_5_30_19,3.1.0,59.9426601772025,
,,,C,D,g,b,,,,,,,,,,2,0,40,1,,,,,,,,,,,,,v,0,2.018218748745312,5136.248005117043,None,,,,,001,52,2019_Oct_23_1105,ACPT_experiment_5_30_19,3.1.0,59.9426601772025,
,,,C,U,y,n,,,,,,,,,,2,1,41,17,,,,,,,,,,,,,n,1,1.0674678698196658,5141.552052295742,None,,,,,001,52,2019_Oct_23_1105,ACPT_experiment_5_30_19,3.1.0,59.9426601772025,
,,,C,U,d,n,,,,,,,,,,2,2,42,6,,,,,,,,,,,,,v,0,2.465237343906665,5145.925362474799,None,,,,,001,52,2019_Oct_23_1105,ACPT_experiment_5_30_19,3.1.0,59.9426601772025,
,,,C,D,d,v,,,,,,,,,,2,3,43,9,,,,,,,,,,,,,v,1,3.5527121503500894,5151.676413155919,None,,,,,001,52,2019_Oct_23_1105,ACPT_experiment_5_30_19,3.1.0,59.9426601772025,
,,,C,D,y,b,,,,,,,,,,2,4,44,11,,,,,,,,,,,,,b,1,2.535289694586936,5158.514930191548,None,,,,,001,52,2019_Oct_23_1105,ACPT_experiment_5_30_19,3.1.0,59.9426601772025,
,,,C,D,y,b,,,,,,,,,,2,5,45,2,,,,,,,,,,,,,n,0,2.3851597913708247,5164.336018130607,None,,,,,001,52,2019_Oct_23_1105,ACPT_experiment_5_30_19,3.1.0,59.9426601772025,
,,,C,G,g,v,,,,,,,,,,2,6,46,4,,,,,,,,,,,,,n,0,3.1190461025871627,5170.0069972962865,None,,,,,001,52,2019_Oct_23_1105,ACPT_experiment_5_30_19,3.1.0,59.9426601772025,
,,,C,G,g,v,,,,,,,,,,2,7,47,13,,,,,,,,,,,,,v,1,1.2342867216184459,5176.395187408067,None,,,,,001,52,2019_Oct_23_1105,ACPT_experiment_5_30_19,3.1.0,59.9426601772025,
,,,C,U,g,n,,,,,,,,,,2,8,48,7,,,,,,,,,,,,,b,0,1.6646139533595488,5180.935295007231,None,,,,,001,52,2019_Oct_23_1105,ACPT_experiment_5_30_19,3.1.0,59.9426601772025,
,,,C,G,d,b,,,,,,,,,,2,9,49,3,,,,,,,,,,,,,v,0,2.034890189748694,5185.885728033045,None,,,,,001,52,2019_Oct_23_1105,ACPT_experiment_5_30_19,3.1.0,59.9426601772025,
,,,C,G,d,b,,,,,,,,,,2,10,50,12,,,,,,,,,,,,,n,0,1.3343844923901997,5191.206414656138,None,,,,,001,52,2019_Oct_23_1105,ACPT_experiment_5_30_19,3.1.0,59.9426601772025,
,,,C,G,y,b,,,,,,,,,,2,11,51,5,,,,,,,,,,,,,n,0,1.6176371952733462,5195.826886268052,None,,,,,001,52,2019_Oct_23_1105,ACPT_experiment_5_30_19,3.1.0,59.9426601772025,
,,,C,U,g,n,,,,,,,,,,2,12,52,16,,,,,,,,,,,,,b,0,3.7528756952851836,5200.730336498684,None,,,,,001,52,2019_Oct_23_1105,ACPT_experiment_5_30_19,3.1.0,59.9426601772025,
,,,C,D,d,v,,,,,,,,,,2,13,53,0,,,,,,,,,,,,,v,1,1.9014374627777215,5207.76904364247,None,,,,,001,52,2019_Oct_23_1105,ACPT_experiment_5_30_19,3.1.0,59.9426601772025,
,,,C,D,d,v,,,,,,,,,,2,14,54,18,,,,,,,,,,,,,v,1,1.0509878047641905,5212.939466338812,None,,,,,001,52,2019_Oct_23_1105,ACPT_experiment_5_30_19,3.1.0,59.9426601772025,
,,,C,D,g,b,,,,,,,,,,2,15,55,10,,,,,,,,,,,,,n,0,2.8185680551277983,5217.276521944392,None,,,,,001,52,2019_Oct_23_1105,ACPT_experiment_5_30_19,3.1.0,59.9426601772025,
,,,C,G,g,v,,,,,,,,,,2,16,56,19,,,,,,,,,,,,,v,1,3.069010951594464,5223.380886131009,None,,,,,001,52,2019_Oct_23_1105,ACPT_experiment_5_30_19,3.1.0,59.9426601772025,
,,,C,G,y,b,,,,,,,,,,2,17,57,14,,,,,,,,,,,,,n,0,1.8013771220021226,5229.719037469539,None,,,,,001,52,2019_Oct_23_1105,ACPT_experiment_5_30_19,3.1.0,59.9426601772025,
,,,C,U,y,n,,,,,,,,,,2,18,58,8,,,,,,,,,,,,,n,1,3.769500650648297,5234.80628226262,None,,,,,001,52,2019_Oct_23_1105,ACPT_experiment_5_30_19,3.1.0,59.9426601772025,
,,,C,U,d,n,,,,,,,,,,2,19,59,15,,,,,,,,,,,,,v,0,1.73466449290936,5241.844920885364,None,,,,,001,52,2019_Oct_23_1105,ACPT_experiment_5_30_19,3.1.0,59.9426601772025,
,,,C,G,d,b,,,,,,,,,,3,0,60,12,,,,,,,,,,,,,v,0,3.96969830517628,5246.865398715488,None,,,,,001,52,2019_Oct_23_1105,ACPT_experiment_5_30_19,3.1.0,59.9426601772025,
,,,C,G,y,b,,,,,,,,,,3,1,61,14,,,,,,,,,,,,,n,0,1.6679751066376411,5254.104206316553,None,,,,,001,52,2019_Oct_23_1105,ACPT_experiment_5_30_19,3.1.0,59.9426601772025,
,,,C,U,g,n,,,,,,,,,,3,2,62,16,,,,,,,,,,,,,b,0,1.918098942573124,5259.058036114513,None,,,,,001,52,2019_Oct_23_1105,ACPT_experiment_5_30_19,3.1.0,59.9426601772025,
,,,C,U,d,n,,,,,,,,,,3,3,63,15,,,,,,,,,,,,,n,1,8.90678663181643,5264.245270010634,None,,,,,001,52,2019_Oct_23_1105,ACPT_experiment_5_30_19,3.1.0,59.9426601772025,
,,,C,G,d,b,,,,,,,,,,3,4,64,3,,,,,,,,,,,,,v,0,1.6846362845772092,5276.437869677809,None,,,,,001,52,2019_Oct_23_1105,ACPT_experiment_5_30_19,3.1.0,59.9426601772025,
,,,C,D,g,b,,,,,,,,,,3,5,65,10,,,,,,,,,,,,,v,0,2.6186794999239282,5281.408310243956,None,,,,,001,52,2019_Oct_23_1105,ACPT_experiment_5_30_19,3.1.0,59.9426601772025,
,,,C,U,y,n,,,,,,,,,,3,6,66,17,,,,,,,,,,,,,n,1,2.5352682628954426,5287.312801571818,None,,,,,001,52,2019_Oct_23_1105,ACPT_experiment_5_30_19,3.1.0,59.9426601772025,
,,,C,D,d,v,,,,,,,,,,3,7,67,9,,,,,,,,,,,,,n,0,5.454152027966302,5293.1338892090225,None,,,,,001,52,2019_Oct_23_1105,ACPT_experiment_5_30_19,3.1.0,59.9426601772025,
,,,C,U,g,n,,,,,,,,,,3,8,68,7,,,,,,,,,,,,,b,0,2.618675877665737,5301.87385940388,None,,,,,001,52,2019_Oct_23_1105,ACPT_experiment_5_30_19,3.1.0,59.9426601772025,
,,,C,D,g,b,,,,,,,,,,3,9,69,1,,,,,,,,,,,,,b,1,2.7187485944887158,5307.778345902065,None,,,,,001,52,2019_Oct_23_1105,ACPT_experiment_5_30_19,3.1.0,59.9426601772025,
,,,C,D,d,v,,,,,,,,,,3,10,70,18,,,,,,,,,,,,,b,0,1.7347170156463108,5313.766229450102,None,,,,,001,52,2019_Oct_23_1105,ACPT_experiment_5_30_19,3.1.0,59.9426601772025,
,,,C,G,y,b,,,,,,,,,,3,11,71,5,,,,,,,,,,,,,n,0,1.8681003160118053,5318.786708789499,None,,,,,001,52,2019_Oct_23_1105,ACPT_experiment_5_30_19,3.1.0,59.9426601772025,
,,,C,G,g,v,,,,,,,,,,3,12,72,19,,,,,,,,,,,,,n,0,2.1349689436683548,5323.92394466277,None,,,,,001,52,2019_Oct_23_1105,ACPT_experiment_5_30_19,3.1.0,59.9426601772025,
,,,C,G,g,v,,,,,,,,,,3,13,73,4,,,,,,,,,,,,,v,1,1.0674865848177433,5329.3280518803895,None,,,,,001,52,2019_Oct_23_1105,ACPT_experiment_5_30_19,3.1.0,59.9426601772025,
,,,C,U,d,n,,,,,,,,,,3,14,74,6,,,,,,,,,,,,,b,0,2.5853121676764204,5333.681356330243,None,,,,,001,52,2019_Oct_23_1105,ACPT_experiment_5_30_19,3.1.0,59.9426601772025,
,,,C,D,d,v,,,,,,,,,,3,15,75,0,,,,,,,,,,,,,v,1,2.8354978838469833,5339.552487268519,None,,,,,001,52,2019_Oct_23_1105,ACPT_experiment_5_30_19,3.1.0,59.9426601772025,
,,,C,D,y,b,,,,,,,,,,3,16,76,11,,,,,,,,,,,,,b,1,2.285086168983071,5345.657120709625,None,,,,,001,52,2019_Oct_23_1105,ACPT_experiment_5_30_19,3.1.0,59.9426601772025,
,,,C,D,y,b,,,,,,,,,,3,17,77,2,,,,,,,,,,,,,n,0,2.935735111539543,5351.211188791769,None,,,,,001,52,2019_Oct_23_1105,ACPT_experiment_5_30_19,3.1.0,59.9426601772025,
,,,C,U,y,n,,,,,,,,,,3,18,78,8,,,,,,,,,,,,,b,0,2.6853797529684016,5357.432736334958,None,,,,,001,52,2019_Oct_23_1105,ACPT_experiment_5_30_19,3.1.0,59.9426601772025,
,,,C,G,g,v,,,,,,,,,,3,19,79,13,,,,,,,,,,,,,b,0,2.134958680604541,5363.403937575219,None,,,,,001,52,2019_Oct_23_1105,ACPT_experiment_5_30_19,3.1.0,59.9426601772025,
,,,C,D,g,b,,,,,,,,,,4,0,80,1,,,,,,,,,,,,,v,0,1.6513169472464142,5368.824722270939,None,,,,,001,52,2019_Oct_23_1105,ACPT_experiment_5_30_19,3.1.0,59.9426601772025,
,,,C,U,d,n,,,,,,,,,,4,1,81,6,,,,,,,,,,,,,n,1,3.8029051110352157,5373.76180184379,None,,,,,001,52,2019_Oct_23_1105,ACPT_experiment_5_30_19,3.1.0,59.9426601772025,
,,,C,G,y,b,,,,,,,,,,4,2,82,14,,,,,,,,,,,,,n,0,16.145614457154807,5380.850519990184,None,,,,,001,52,2019_Oct_23_1105,ACPT_experiment_5_30_19,3.1.0,59.9426601772025,
,,,C,D,g,b,,,,,,,,,,4,3,83,10,,,,,,,,,,,,,b,1,1.9348129451036584,5400.281959255035,None,,,,,001,52,2019_Oct_23_1105,ACPT_experiment_5_30_19,3.1.0,59.9426601772025,
,,,C,U,y,n,,,,,,,,,,4,4,84,8,,,,,,,,,,,,,n,1,3.4693561527519705,5405.502579500256,None,,,,,001,52,2019_Oct_23_1105,ACPT_experiment_5_30_19,3.1.0,59.9426601772025,
,,,C,U,d,n,,,,,,,,,,4,5,85,15,,,,,,,,,,,,,v,0,6.571674367486594,5412.257716389901,None,,,,,001,52,2019_Oct_23_1105,ACPT_experiment_5_30_19,3.1.0,59.9426601772025,
,,,C,D,d,v,,,,,,,,,,4,6,86,9,,,,,,,,,,,,,v,1,1.1842790394139229,5422.115199264924,None,,,,,001,52,2019_Oct_23_1105,ACPT_experiment_5_30_19,3.1.0,59.9426601772025,
,,,C,G,g,v,,,,,,,,,,4,7,87,19,,,,,,,,,,,,,b,0,1.9010369014476964,5426.60234341961,None,,,,,001,52,2019_Oct_23_1105,ACPT_experiment_5_30_19,3.1.0,59.9426601772025,
,,,C,D,y,b,,,,,,,,,,4,8,88,11,,,,,,,,,,,,,b,1,7.889346668473991,5431.789221428914,None,,,,,001,52,2019_Oct_23_1105,ACPT_experiment_5_30_19,3.1.0,59.9426601772025,
,,,C,G,d,b,,,,,,,,,,4,9,89,3,,,,,,,,,,,,,b,1,4.470080906144176,5442.964364832587,None,,,,,001,52,2019_Oct_23_1105,ACPT_experiment_5_30_19,3.1.0,59.9426601772025,
,,,C,U,g,n,,,,,,,,,,4,10,90,16,,,,,,,,,,,,,v,0,3.419297457085122,5450.720236436834,None,,,,,001,52,2019_Oct_23_1105,ACPT_experiment_5_30_19,3.1.0,59.9426601772025,
,,,C,U,g,n,,,,,,,,,,4,11,91,7,,,,,,,,,,,,,v,0,2.50206513966441,5457.408518523774,None,,,,,001,52,2019_Oct_23_1105,ACPT_experiment_5_30_19,3.1.0,59.9426601772025,
,,,C,G,y,b,,,,,,,,,,4,12,92,5,,,,,,,,,,,,,n,0,6.905259246491369,5463.196401226617,None,,,,,001,52,2019_Oct_23_1105,ACPT_experiment_5_30_19,3.1.0,59.9426601772025,
,,,C,D,d,v,,,,,,,,,,4,13,93,18,,,,,,,,,,,,,v,1,5.22064831771786,5473.387473508467,None,,,,,001,52,2019_Oct_23_1105,ACPT_experiment_5_30_19,3.1.0,59.9426601772025,
,,,C,G,g,v,,,,,,,,,,4,14,94,13,,,,,,,,,,,,,b,0,1.6846236066758138,5481.893930635577,None,,,,,001,52,2019_Oct_23_1105,ACPT_experiment_5_30_19,3.1.0,59.9426601772025,
,,,C,D,d,v,,,,,,,,,,4,15,95,0,,,,,,,,,,,,,v,1,1.45111567046024,5486.864371805433,None,,,,,001,52,2019_Oct_23_1105,ACPT_experiment_5_30_19,3.1.0,59.9426601772025,
,,,C,G,g,v,,,,,,,,,,4,16,96,4,,,,,,,,,,,,,v,1,0.8840470036229817,5491.601302624235,None,,,,,001,52,2019_Oct_23_1105,ACPT_experiment_5_30_19,3.1.0,59.9426601772025,
,,,C,U,y,n,,,,,,,,,,4,17,97,17,,,,,,,,,,,,,n,1,1.1339619560312713,5495.788058080488,None,,,,,001,52,2019_Oct_23_1105,ACPT_experiment_5_30_19,3.1.0,59.9426601772025,
,,,C,G,d,b,,,,,,,,,,4,18,98,12,,,,,,,,,,,,,v,0,2.7020683996952357,5500.207842127521,None,,,,,001,52,2019_Oct_23_1105,ACPT_experiment_5_30_19,3.1.0,59.9426601772025,
,,,C,D,y,b,,,,,,,,,,4,19,99,2,,,,,,,,,,,,,n,0,3.069009442319839,5506.195719940318,None,,,,,001,52,2019_Oct_23_1105,ACPT_experiment_5_30_19,3.1.0,59.9426601772025,
,,,C,D,d,v,,,,,,,,,,5,0,100,18,,,,,,,,,,,,,v,1,1.0007664093564017,5512.533863732478,None,,,,,001,52,2019_Oct_23_1105,ACPT_experiment_5_30_19,3.1.0,59.9426601772025,
,,,C,U,g,n,,,,,,,,,,5,1,101,7,,,,,,,,,,,,,v,0,4.619734784329012,5516.837568909679,None,,,,,001,52,2019_Oct_23_1105,ACPT_experiment_5_30_19,3.1.0,59.9426601772025,
,,,C,D,d,v,,,,,,,,,,5,2,102,9,,,,,,,,,,,,,v,1,1.3176804510676448,5524.7431390666225,None,,,,,001,52,2019_Oct_23_1105,ACPT_experiment_5_30_19,3.1.0,59.9426601772025,
,,,C,D,d,v,,,,,,,,,,5,3,103,0,,,,,,,,,,,,,n,0,2.4682900015723135,5529.34690452423,None,,,,,001,52,2019_Oct_23_1105,ACPT_experiment_5_30_19,3.1.0,59.9426601772025,
,,,C,D,y,b,,,,,,,,,,5,4,104,11,,,,,,,,,,,,,b,1,2.3017690804690574,5535.08432374411,None,,,,,001,52,2019_Oct_23_1105,ACPT_experiment_5_30_19,3.1.0,59.9426601772025,
,,,C,G,y,b,,,,,,,,,,5,5,105,5,,,,,,,,,,,,,n,0,1.9681742402535747,5540.671901332115,None,,,,,001,52,2019_Oct_23_1105,ACPT_experiment_5_30_19,3.1.0,59.9426601772025,
,,,C,D,g,b,,,,,,,,,,5,6,106,10,,,,,,,,,,,,,b,1,3.302527641600136,5545.9258898151475,None,,,,,001,52,2019_Oct_23_1105,ACPT_experiment_5_30_19,3.1.0,59.9426601772025,
,,,C,G,d,b,,,,,,,,,,5,7,107,12,,,,,,,,,,,,,v,0,1.8013647459547428,5552.514240755168,None,,,,,001,52,2019_Oct_23_1105,ACPT_experiment_5_30_19,3.1.0,59.9426601772025,
,,,C,U,g,n,,,,,,,,,,5,8,108,16,,,,,,,,,,,,,b,0,2.3684808039961354,5557.601422762448,None,,,,,001,52,2019_Oct_23_1105,ACPT_experiment_5_30_19,3.1.0,59.9426601772025,
,,,C,U,d,n,,,,,,,,,,5,9,109,6,,,,,,,,,,,,,v,0,1.4511114444921986,5563.239040331123,None,,,,,001,52,2019_Oct_23_1105,ACPT_experiment_5_30_19,3.1.0,59.9426601772025,
,,,C,G,g,v,,,,,,,,,,5,10,110,19,,,,,,,,,,,,,b,0,9.690715640394956,5567.975966622103,None,,,,,001,52,2019_Oct_23_1105,ACPT_experiment_5_30_19,3.1.0,59.9426601772025,
,,,C,G,g,v,,,,,,,,,,5,11,111,4,,,,,,,,,,,,,v,1,1.0342771226351033,5580.935662062677,None,,,,,001,52,2019_Oct_23_1105,ACPT_experiment_5_30_19,3.1.0,59.9426601772025,
,,,C,G,g,v,,,,,,,,,,5,12,112,13,,,,,,,,,,,,,v,1,1.4978117035752803,5585.275770627777,None,,,,,001,52,2019_Oct_23_1105,ACPT_experiment_5_30_19,3.1.0,59.9426601772025,
,,,C,D,g,b,,,,,,,,,,5,13,113,1,,,,,,,,,,,,,n,0,2.4018267045512403,5590.059419515094,None,,,,,001,52,2019_Oct_23_1105,ACPT_experiment_5_30_19,3.1.0,59.9426601772025,
,,,C,G,y,b,,,,,,,,,,5,14,114,14,,,,,,,,,,,,,n,0,1.551174501962123,5595.74707404589,None,,,,,001,52,2019_Oct_23_1105,ACPT_experiment_5_30_19,3.1.0,59.9426601772025,
,,,C,U,d,n,,,,,,,,,,5,15,115,15,,,,,,,,,,,,,b,0,1.5845493805791193,5600.584063092485,None,,,,,001,52,2019_Oct_23_1105,ACPT_experiment_5_30_19,3.1.0,59.9426601772025,
,,,C,U,y,n,,,,,,,,,,5,16,116,17,,,,,,,,,,,,,n,1,1.7179791665848825,5605.45442852697,None,,,,,001,52,2019_Oct_23_1105,ACPT_experiment_5_30_19,3.1.0,59.9426601772025,
,,,C,D,y,b,,,,,,,,,,5,17,117,2,,,,,,,,,,,,,n,0,4.420059036763632,5610.4582331049605,None,,,,,001,52,2019_Oct_23_1105,ACPT_experiment_5_30_19,3.1.0,59.9426601772025,
,,,C,U,y,n,,,,,,,,,,5,18,118,8,,,,,,,,,,,,,n,1,2.4185434237751906,5618.16405235249,None,,,,,001,52,2019_Oct_23_1105,ACPT_experiment_5_30_19,3.1.0,59.9426601772025,
,,,C,G,d,b,,,,,,,,,,5,19,119,3,,,,,,,,,,,,,v,0,2.2350437734748994,5623.868410622754,None,,,,,001,52,2019_Oct_23_1105,ACPT_experiment_5_30_19,3.1.0,59.9426601772025,
,,,C,D,y,b,,,,,,,,,,6,0,120,2,,,,,,,,,,,,,b,1,1.9681953700901431,5629.389269846425,None,,,,,001,52,2019_Oct_23_1105,ACPT_experiment_5_30_19,3.1.0,59.9426601772025,
,,,C,G,g,v,,,,,,,,,,6,1,121,13,,,,,,,,,,,,,v,1,1.4844742489167402,5634.643259838731,None,,,,,001,52,2019_Oct_23_1105,ACPT_experiment_5_30_19,3.1.0,59.9426601772025,
,,,C,G,y,b,,,,,,,,,,6,2,122,14,,,,,,,,,,,,,b,1,1.367711376092302,5639.413544406314,None,,,,,001,52,2019_Oct_23_1105,ACPT_experiment_5_30_19,3.1.0,59.9426601772025,
,,,C,U,y,n,,,,,,,,,,6,3,123,8,,,,,,,,,,,,,b,0,3.152404982898588,5644.067080288248,None,,,,,001,52,2019_Oct_23_1105,ACPT_experiment_5_30_19,3.1.0,59.9426601772025,
,,,C,D,d,v,,,,,,,,,,6,4,124,0,,,,,,,,,,,,,b,0,2.9022189648731,5650.505303136181,None,,,,,001,52,2019_Oct_23_1105,ACPT_experiment_5_30_19,3.1.0,59.9426601772025,
,,,C,D,y,b,,,,,,,,,,6,5,125,11,,,,,,,,,,,,,b,1,1.701336401788467,5656.6933312123,None,,,,,001,52,2019_Oct_23_1105,ACPT_experiment_5_30_19,3.1.0,59.9426601772025,
,,,C,G,g,v,,,,,,,,,,6,6,126,4,,,,,,,,,,,,,v,1,0.9173938097428618,5661.680453180659,None,,,,,001,52,2019_Oct_23_1105,ACPT_experiment_5_30_19,3.1.0,59.9426601772025,
,,,C,D,g,b,,,,,,,,,,6,7,127,10,,,,,,,,,,,,,b,1,3.502288210365805,5665.900721463175,None,,,,,001,52,2019_Oct_23_1105,ACPT_experiment_5_30_19,3.1.0,59.9426601772025,
,,,C,G,y,b,,,,,,,,,,6,8,128,5,,,,,,,,,,,,,n,0,2.601989645775575,5672.688811842127,None,,,,,001,52,2019_Oct_23_1105,ACPT_experiment_5_30_19,3.1.0,59.9426601772025,
,,,C,G,d,b,,,,,,,,,,6,9,129,3,,,,,,,,,,,,,b,1,2.2517058569792425,5678.55995455274,None,,,,,001,52,2019_Oct_23_1105,ACPT_experiment_5_30_19,3.1.0,59.9426601772025,
,,,C,U,g,n,,,,,,,,,,6,10,130,16,,,,,,,,,,,,,v,0,2.8021396072444986,5684.097491556367,None,,,,,001,52,2019_Oct_23_1105,ACPT_experiment_5_30_19,3.1.0,59.9426601772025,
,,,C,G,d,b,,,,,,,,,,6,11,131,12,,,,,,,,,,,,,v,0,1.6345851352807585,5690.185428200665,None,,,,,001,52,2019_Oct_23_1105,ACPT_experiment_5_30_19,3.1.0,59.9426601772025,
,,,C,G,g,v,,,,,,,,,,6,12,132,19,,,,,,,,,,,,,v,1,1.0841782500929185,5695.089131989335,None,,,,,001,52,2019_Oct_23_1105,ACPT_experiment_5_30_19,3.1.0,59.9426601772025,
,,,C,D,d,v,,,,,,,,,,6,13,133,9,,,,,,,,,,,,,b,0,2.6348981587152593,5699.476247498002,None,,,,,001,52,2019_Oct_23_1105,ACPT_experiment_5_30_19,3.1.0,59.9426601772025,
,,,C,D,d,v,,,,,,,,,,6,14,134,18,,,,,,,,,,,,,n,0,4.2699297372564615,5705.380296910425,None,,,,,001,52,2019_Oct_23_1105,ACPT_experiment_5_30_19,3.1.0,59.9426601772025,
,,,C,U,y,n,,,,,,,,,,6,15,135,17,,,,,,,,,,,,,b,0,2.101591650213777,5712.936047229411,None,,,,,001,52,2019_Oct_23_1105,ACPT_experiment_5_30_19,3.1.0,59.9426601772025,
,,,C,U,g,n,,,,,,,,,,6,16,136,7,,,,,,,,,,,,,n,1,3.0523244178502864,5718.3234630836105,None,,,,,001,52,2019_Oct_23_1105,ACPT_experiment_5_30_19,3.1.0,59.9426601772025,
,,,C,U,d,n,,,,,,,,,,6,17,137,6,,,,,,,,,,,,,n,1,1.8514056321873795,5724.644945395975,None,,,,,001,52,2019_Oct_23_1105,ACPT_experiment_5_30_19,3.1.0,59.9426601772025,
,,,C,U,d,n,,,,,,,,,,6,18,138,15,,,,,,,,,,,,,n,1,1.2344415731340632,5729.765323281971,None,,,,,001,52,2019_Oct_23_1105,ACPT_experiment_5_30_19,3.1.0,59.9426601772025,
,,,C,D,g,b,,,,,,,,,,6,19,139,1,,,,,,,,,,,,,v,0,4.169575389898455,5734.3025309620025,None,,,,,001,52,2019_Oct_23_1105,ACPT_experiment_5_30_19,3.1.0,59.9426601772025,
,,,C,U,d,n,,,,,,,,,,7,0,140,6,,,,,,,,,,,,,b,0,1.6012501014984082,5741.757891918472,None,,,,,001,52,2019_Oct_23_1105,ACPT_experiment_5_30_19,3.1.0,59.9426601772025,
,,,C,U,d,n,,,,,,,,,,7,1,141,15,,,,,,,,,,,,,n,1,1.401081123178301,5746.644957470167,None,,,,,001,52,2019_Oct_23_1105,ACPT_experiment_5_30_19,3.1.0,59.9426601772025,
,,,C,D,y,b,,,,,,,,,,7,2,142,11,,,,,,,,,,,,,b,1,2.4349199526332086,5751.348804398387,None,,,,,001,52,2019_Oct_23_1105,ACPT_experiment_5_30_19,3.1.0,59.9426601772025,
,,,C,D,d,v,,,,,,,,,,7,3,143,0,,,,,,,,,,,,,n,0,1.5178286014070181,5757.052861417553,None,,,,,001,52,2019_Oct_23_1105,ACPT_experiment_5_30_19,3.1.0,59.9426601772025,
,,,C,G,d,b,,,,,,,,,,7,4,144,12,,,,,,,,,,,,,b,1,2.5186273092267584,5761.856484037466,None,,,,,001,52,2019_Oct_23_1105,ACPT_experiment_5_30_19,3.1.0,59.9426601772025,
,,,C,D,y,b,,,,,,,,,,7,5,145,2,,,,,,,,,,,,,v,0,3.4359525979289174,5767.660915628261,None,,,,,001,52,2019_Oct_23_1105,ACPT_experiment_5_30_19,3.1.0,59.9426601772025,
,,,C,G,d,b,,,,,,,,,,7,6,146,3,,,,,,,,,,,,,b,1,2.485234923031385,5774.382687600499,None,,,,,001,52,2019_Oct_23_1105,ACPT_experiment_5_30_19,3.1.0,59.9426601772025,
,,,C,U,y,n,,,,,,,,,,7,7,147,17,,,,,,,,,,,,,b,0,1.86811239020426,5780.153713221634,None,,,,,001,52,2019_Oct_23_1105,ACPT_experiment_5_30_19,3.1.0,59.9426601772025,
,,,C,G,g,v,,,,,,,,,,7,8,148,4,,,,,,,,,,,,,v,1,1.1175018133926642,5785.307654947355,None,,,,,001,52,2019_Oct_23_1105,ACPT_experiment_5_30_19,3.1.0,59.9426601772025,
,,,C,G,g,v,,,,,,,,,,7,9,149,13,,,,,,,,,,,,,b,0,1.6813647821772975,5789.730992127325,None,,,,,001,52,2019_Oct_23_1105,ACPT_experiment_5_30_19,3.1.0,59.9426601772025,
,,,C,G,g,v,,,,,,,,,,7,10,150,19,,,,,,,,,,,,,v,1,0.8173060001790873,5794.681428775397,None,,,,,001,52,2019_Oct_23_1105,ACPT_experiment_5_30_19,3.1.0,59.9426601772025,
,,,C,U,y,n,,,,,,,,,,7,11,151,8,,,,,,,,,,,,,n,1,2.851755783764929,5798.801626755927,None,,,,,001,52,2019_Oct_23_1105,ACPT_experiment_5_30_19,3.1.0,59.9426601772025,
,,,C,G,y,b,,,,,,,,,,7,12,152,14,,,,,,,,,,,,,n,0,1.4177803348229645,5804.93922636424,None,,,,,001,52,2019_Oct_23_1105,ACPT_experiment_5_30_19,3.1.0,59.9426601772025,
,,,C,D,d,v,,,,,,,,,,7,13,153,9,,,,,,,,,,,,,b,0,1.7675989653625948,5809.659856419743,None,,,,,001,52,2019_Oct_23_1105,ACPT_experiment_5_30_19,3.1.0,59.9426601772025,
,,,C,D,g,b,,,,,,,,,,7,14,154,10,,,,,,,,,,,,,b,1,2.0182151264880304,5814.696622637119,None,,,,,001,52,2019_Oct_23_1105,ACPT_experiment_5_30_19,3.1.0,59.9426601772025,
,,,C,U,g,n,,,,,,,,,,7,15,155,16,,,,,,,,,,,,,n,1,1.3843973061275392,5820.000648685981,None,,,,,001,52,2019_Oct_23_1105,ACPT_experiment_5_30_19,3.1.0,59.9426601772025,
,,,C,D,d,v,,,,,,,,,,7,16,156,18,,,,,,,,,,,,,b,0,2.401851456646,5824.687532279599,None,,,,,001,52,2019_Oct_23_1105,ACPT_experiment_5_30_19,3.1.0,59.9426601772025,
,,,C,U,g,n,,,,,,,,,,7,17,157,7,,,,,,,,,,,,,b,0,2.084948583561527,5830.375195564184,None,,,,,001,52,2019_Oct_23_1105,ACPT_experiment_5_30_19,3.1.0,59.9426601772025,
,,,C,G,y,b,,,,,,,,,,7,18,158,5,,,,,,,,,,,,,b,1,2.8689065702019434,5835.745936053267,None,,,,,001,52,2019_Oct_23_1105,ACPT_experiment_5_30_19,3.1.0,59.9426601772025,
,,,C,D,g,b,,,,,,,,,,7,19,159,1,,,,,,,,,,,,,v,0,2.2183647861011195,5841.900613097299,None,,,,,001,52,2019_Oct_23_1105,ACPT_experiment_5_30_19,3.1.0,59.9426601772025,
,,,C,G,g,v,,,,,,,,,,8,0,160,4,,,,,,,,,,,,,v,1,0.8840098754817518,5847.404791522468,None,,,,,001,52,2019_Oct_23_1105,ACPT_experiment_5_30_19,3.1.0,59.9426601772025,
,,,C,D,d,v,,,,,,,,,,8,1,161,0,,,,,,,,,,,,,n,0,1.684396008150543,5851.591538224931,None,,,,,001,52,2019_Oct_23_1105,ACPT_experiment_5_30_19,3.1.0,59.9426601772025,
,,,C,D,y,b,,,,,,,,,,8,2,162,11,,,,,,,,,,,,,b,1,3.469327174690079,5856.56173338312,None,,,,,001,52,2019_Oct_23_1105,ACPT_experiment_5_30_19,3.1.0,59.9426601772025,
,,,C,U,d,n,,,,,,,,,,8,3,163,15,,,,,,,,,,,,,v,0,1.300991502484976,5863.316875102442,None,,,,,001,52,2019_Oct_23_1105,ACPT_experiment_5_30_19,3.1.0,59.9426601772025,
,,,C,D,d,v,,,,,,,,,,8,4,164,9,,,,,,,,,,,,,v,1,1.1506152857464258,5867.920633315534,None,,,,,001,52,2019_Oct_23_1105,ACPT_experiment_5_30_19,3.1.0,59.9426601772025,
,,,C,U,d,n,,,,,,,,,,8,5,165,6,,,,,,,,,,,,,b,0,2.318443841874796,5872.357057108817,None,,,,,001,52,2019_Oct_23_1105,ACPT_experiment_5_30_19,3.1.0,59.9426601772025,
,,,C,D,g,b,,,,,,,,,,8,6,166,10,,,,,,,,,,,,,b,1,1.384399419111105,5877.96131338234,None,,,,,001,52,2019_Oct_23_1105,ACPT_experiment_5_30_19,3.1.0,59.9426601772025,
,,,C,G,d,b,,,,,,,,,,8,7,167,3,,,,,,,,,,,,,n,0,2.551952683655145,5882.631528855358,None,,,,,001,52,2019_Oct_23_1105,ACPT_experiment_5_30_19,3.1.0,59.9426601772025,
,,,C,G,y,b,,,,,,,,,,8,8,168,14,,,,,,,,,,,,,n,0,1.46782001363772,5888.469288537275,None,,,,,001,52,2019_Oct_23_1105,ACPT_experiment_5_30_19,3.1.0,59.9426601772025,
,,,C,U,g,n,,,,,,,,,,8,9,169,7,,,,,,,,,,,,,v,0,3.502683640163923,5893.222887778533,None,,,,,001,52,2019_Oct_23_1105,ACPT_experiment_5_30_19,3.1.0,59.9426601772025,
,,,C,D,g,b,,,,,,,,,,8,10,170,1,,,,,,,,,,,,,n,0,1.6179010163750718,5900.011393811554,None,,,,,001,52,2019_Oct_23_1105,ACPT_experiment_5_30_19,3.1.0,59.9426601772025,
,,,C,G,g,v,,,,,,,,,,8,11,171,13,,,,,,,,,,,,,v,1,1.1508860495077897,5904.915110278126,None,,,,,001,52,2019_Oct_23_1105,ACPT_experiment_5_30_19,3.1.0,59.9426601772025,
,,,C,G,g,v,,,,,,,,,,8,12,172,19,,,,,,,,,,,,,v,1,1.0005028901086916,5909.352085861997,None,,,,,001,52,2019_Oct_23_1105,ACPT_experiment_5_30_19,3.1.0,59.9426601772025,
,,,C,D,d,v,,,,,,,,,,8,13,173,18,,,,,,,,,,,,,v,1,11.9090819357707,5913.63839907077,None,,,,,001,52,2019_Oct_23_1105,ACPT_experiment_5_30_19,3.1.0,59.9426601772025,
,,,C,U,y,n,,,,,,,,,,8,14,174,8,,,,,,,,,,,,,n,1,1.5511829538963866,5928.833274421337,None,,,,,001,52,2019_Oct_23_1105,ACPT_experiment_5_30_19,3.1.0,59.9426601772025,
,,,C,U,y,n,,,,,,,,,,8,15,175,17,,,,,,,,,,,,,b,0,4.586855853161069,5933.653569085963,None,,,,,001,52,2019_Oct_23_1105,ACPT_experiment_5_30_19,3.1.0,59.9426601772025,
,,,C,G,d,b,,,,,,,,,,8,16,176,12,,,,,,,,,,,,,b,1,3.5358979320226354,5941.52624038932,None,,,,,001,52,2019_Oct_23_1105,ACPT_experiment_5_30_19,3.1.0,59.9426601772025,
,,,C,D,y,b,,,,,,,,,,8,17,177,2,,,,,,,,,,,,,v,0,1.6345905686675906,5948.348080248705,None,,,,,001,52,2019_Oct_23_1105,ACPT_experiment_5_30_19,3.1.0,59.9426601772025,
,,,C,U,g,n,,,,,,,,,,8,18,178,16,,,,,,,,,,,,,b,0,2.2184013105324993,5953.268480834182,None,,,,,001,52,2019_Oct_23_1105,ACPT_experiment_5_30_19,3.1.0,59.9426601772025,
,,,C,G,y,b,,,,,,,,,,8,19,179,5,,,,,,,,,,,,,n,0,3.152406794027229,5958.772662881609,None,,,,,001,52,2019_Oct_23_1105,ACPT_experiment_5_30_19,3.1.0,59.9426601772025,
,,,C,G,d,b,,,,,,,,,,9,0,180,12,,,,,,,,,,,,,v,0,1.9014797224508584,5965.19418229193,None,,,,,001,52,2019_Oct_23_1105,ACPT_experiment_5_30_19,3.1.0,59.9426601772025,
,,,C,G,y,b,,,,,,,,,,9,1,181,14,,,,,,,,,,,,,b,1,1.6012178030341602,5970.381479275706,None,,,,,001,52,2019_Oct_23_1105,ACPT_experiment_5_30_19,3.1.0,59.9426601772025,
,,,C,G,y,b,,,,,,,,,,9,2,182,5,,,,,,,,,,,,,b,1,1.1675574905120811,5975.268529130951,None,,,,,001,52,2019_Oct_23_1105,ACPT_experiment_5_30_19,3.1.0,59.9426601772025,
,,,C,G,g,v,,,,,,,,,,9,3,183,13,,,,,,,,,,,,,v,1,0.6505140134586327,5979.705210104529,None,,,,,001,52,2019_Oct_23_1105,ACPT_experiment_5_30_19,3.1.0,59.9426601772025,
,,,C,G,g,v,,,,,,,,,,9,4,184,19,,,,,,,,,,,,,v,1,0.8007664697270229,5983.624712671955,None,,,,,001,52,2019_Oct_23_1105,ACPT_experiment_5_30_19,3.1.0,59.9426601772025,
,,,C,D,d,v,,,,,,,,,,9,5,185,0,,,,,,,,,,,,,b,0,2.251450789667615,5987.728249172692,None,,,,,001,52,2019_Oct_23_1105,ACPT_experiment_5_30_19,3.1.0,59.9426601772025,
,,,C,D,y,b,,,,,,,,,,9,6,186,2,,,,,,,,,,,,,b,1,1.7680176379799377,5993.248833406634,None,,,,,001,52,2019_Oct_23_1105,ACPT_experiment_5_30_19,3.1.0,59.9426601772025,
,,,C,U,d,n,,,,,,,,,,9,7,187,6,,,,,,,,,,,,,b,0,2.418512936440493,5998.3026752486,None,,,,,001,52,2019_Oct_23_1105,ACPT_experiment_5_30_19,3.1.0,59.9426601772025,
,,,C,U,y,n,,,,,,,,,,9,8,188,17,,,,,,,,,,,,,b,0,1.1675882797017039,6003.990299593915,None,,,,,001,52,2019_Oct_23_1105,ACPT_experiment_5_30_19,3.1.0,59.9426601772025,
,,,C,D,d,v,,,,,,,,,,9,9,189,18,,,,,,,,,,,,,v,1,2.1679224329736826,6008.460756611149,None,,,,,001,52,2019_Oct_23_1105,ACPT_experiment_5_30_19,3.1.0,59.9426601772025,
,,,C,D,y,b,,,,,,,,,,9,10,190,11,,,,,,,,,,,,,b,1,1.5345190592634026,6013.914523170526,None,,,,,001,52,2019_Oct_23_1105,ACPT_experiment_5_30_19,3.1.0,59.9426601772025,
,,,C,D,d,v,,,,,,,,,,9,11,191,9,,,,,,,,,,,,,v,1,2.3684783891576444,6018.73484470023,None,,,,,001,52,2019_Oct_23_1105,ACPT_experiment_5_30_19,3.1.0,59.9426601772025,
,,,C,D,g,b,,,,,,,,,,9,12,192,10,,,,,,,,,,,,,b,1,2.5185980293108514,6024.372456835517,None,,,,,001,52,2019_Oct_23_1105,ACPT_experiment_5_30_19,3.1.0,59.9426601772025,
,,,C,U,g,n,,,,,,,,,,9,13,193,7,,,,,,,,,,,,,b,0,2.601969119649766,6030.1768851059105,None,,,,,001,52,2019_Oct_23_1105,ACPT_experiment_5_30_19,3.1.0,59.9426601772025,
,,,C,D,g,b,,,,,,,,,,9,14,194,1,,,,,,,,,,,,,n,0,1.8347432468281113,6036.064667562773,None,,,,,001,52,2019_Oct_23_1105,ACPT_experiment_5_30_19,3.1.0,59.9426601772025,
,,,C,G,d,b,,,,,,,,,,9,15,195,3,,,,,,,,,,,,,v,0,2.368484728108342,6041.18522444867,None,,,,,001,52,2019_Oct_23_1105,ACPT_experiment_5_30_19,3.1.0,59.9426601772025,
,,,C,U,g,n,,,,,,,,,,9,16,196,16,,,,,,,,,,,,,v,0,9.92423595265791,6046.839513760203,None,,,,,001,52,2019_Oct_23_1105,ACPT_experiment_5_30_19,3.1.0,59.9426601772025,
,,,C,G,g,v,,,,,,,,,,9,17,197,4,,,,,,,,,,,,,v,1,0.867360771733729,6060.0495440332215,None,,,,,001,52,2019_Oct_23_1105,ACPT_experiment_5_30_19,3.1.0,59.9426601772025,
,,,C,U,d,n,,,,,,,,,,9,18,198,15,,,,,,,,,,,,,v,0,2.901938843611788,6064.21965129129,None,,,,,001,52,2019_Oct_23_1105,ACPT_experiment_5_30_19,3.1.0,59.9426601772025,
,,,C,U,y,n,,,,,,,,,,9,19,199,8,,,,,,,,,,,,,b,0,2.1850243189328467,6070.390706675308,None,,,,,001,52,2019_Oct_23_1105,ACPT_experiment_5_30_19,3.1.0,59.9426601772025,
,,,C,U,y,n,,,,,,,,,,10,0,200,17,,,,,,,,,,,,,n,1,1.1009975999522794,6075.8447101907095,None,,,,,001,52,2019_Oct_23_1105,ACPT_experiment_5_30_19,3.1.0,59.9426601772025,
,,,C,U,d,n,,,,,,,,,,10,1,201,15,,,,,,,,,,,,,b,0,1.6846172677242066,6080.231539842873,None,,,,,001,52,2019_Oct_23_1105,ACPT_experiment_5_30_19,3.1.0,59.9426601772025,
,,,C,G,y,b,,,,,,,,,,10,2,202,5,,,,,,,,,,,,,n,0,1.734659663232378,6085.20197165523,None,,,,,001,52,2019_Oct_23_1105,ACPT_experiment_5_30_19,3.1.0,59.9426601772025,
,,,C,D,d,v,,,,,,,,,,10,3,203,18,,,,,,,,,,,,,v,1,3.4526161907069763,6090.222460050271,None,,,,,001,52,2019_Oct_23_1105,ACPT_experiment_5_30_19,3.1.0,59.9426601772025,
,,,C,D,d,v,,,,,,,,,,10,4,204,9,,,,,,,,,,,,,v,1,2.568639217398413,6096.944212703801,None,,,,,001,52,2019_Oct_23_1105,ACPT_experiment_5_30_19,3.1.0,59.9426601772025,
,,,C,G,d,b,,,,,,,,,,10,5,205,12,,,,,,,,,,,,,n,0,3.586066804694383,6102.798660730591,None,,,,,001,52,2019_Oct_23_1105,ACPT_experiment_5_30_19,3.1.0,59.9426601772025,
,,,C,D,d,v,,,,,,,,,,10,6,206,0,,,,,,,,,,,,,v,1,1.5845527009823854,6109.6705396650805,None,,,,,001,52,2019_Oct_23_1105,ACPT_experiment_5_30_19,3.1.0,59.9426601772025,
,,,C,U,y,n,,,,,,,,,,10,7,207,8,,,,,,,,,,,,,n,1,3.0023209616119857,6114.540903590291,None,,,,,001,52,2019_Oct_23_1105,ACPT_experiment_5_30_19,3.1.0,59.9426601772025,
,,,C,G,g,v,,,,,,,,,,10,8,208,4,,,,,,,,,,,,,v,1,1.034128006361243,6120.829014344443,None,,,,,001,52,2019_Oct_23_1105,ACPT_experiment_5_30_19,3.1.0,59.9426601772025,
,,,C,U,g,n,,,,,,,,,,10,9,209,16,,,,,,,,,,,,,b,0,3.4993472389796807,6125.168966850607,None,,,,,001,52,2019_Oct_23_1105,ACPT_experiment_5_30_19,3.1.0,59.9426601772025,
,,,C,G,g,v,,,,,,,,,,10,10,210,13,,,,,,,,,,,,,b,0,3.30251073772979,6131.95412682309,None,,,,,001,52,2019_Oct_23_1105,ACPT_experiment_5_30_19,3.1.0,59.9426601772025,
,,,C,G,d,b,,,,,,,,,,10,11,211,3,,,,,,,,,,,,,n,0,2.0849253407413926,6138.542455425855,None,,,,,001,52,2019_Oct_23_1105,ACPT_experiment_5_30_19,3.1.0,59.9426601772025,
,,,C,U,d,n,,,,,,,,,,10,12,212,6,,,,,,,,,,,,,b,0,1.5845511917077602,6143.913203763163,None,,,,,001,52,2019_Oct_23_1105,ACPT_experiment_5_30_19,3.1.0,59.9426601772025,
,,,C,G,g,v,,,,,,,,,,10,13,213,19,,,,,,,,,,,,,v,1,0.884016516288284,6148.783564669827,None,,,,,001,52,2019_Oct_23_1105,ACPT_experiment_5_30_19,3.1.0,59.9426601772025,
,,,C,G,y,b,,,,,,,,,,10,14,214,14,,,,,,,,,,,,,n,0,10.107464537342821,6152.970321937208,None,,,,,001,52,2019_Oct_23_1105,ACPT_experiment_5_30_19,3.1.0,59.9426601772025,
,,,C,D,y,b,,,,,,,,,,10,15,215,11,,,,,,,,,,,,,b,1,6.5383236372535976,6166.363574757815,None,,,,,001,52,2019_Oct_23_1105,ACPT_experiment_5_30_19,3.1.0,59.9426601772025,
,,,C,D,y,b,,,,,,,,,,10,16,216,2,,,,,,,,,,,,,b,1,5.987928524404197,6176.170999239024,None,,,,,001,52,2019_Oct_23_1105,ACPT_experiment_5_30_19,3.1.0,59.9426601772025,
,,,C,U,g,n,,,,,,,,,,10,17,217,7,,,,,,,,,,,,,b,0,3.2524973202844194,6185.444713631854,None,,,,,001,52,2019_Oct_23_1105,ACPT_experiment_5_30_19,3.1.0,59.9426601772025,
,,,C,D,g,b,,,,,,,,,,10,18,218,10,,,,,,,,,,,,,v,0,1.5678571115931845,6191.983036363543,None,,,,,001,52,2019_Oct_23_1105,ACPT_experiment_5_30_19,3.1.0,59.9426601772025,
,,,C,D,g,b,,,,,,,,,,10,19,219,1,,,,,,,,,,,,,b,1,1.317676828810363,6196.820026919412,None,,,,,001,52,2019_Oct_23_1105,ACPT_experiment_5_30_19,3.1.0,59.9426601772025,
,,,C,G,g,v,,,,,,,,,,11,0,220,4,,,,,,,,,,,,,v,1,0.8337287128215394,6201.440476797779,None,,,,,001,52,2019_Oct_23_1105,ACPT_experiment_5_30_19,3.1.0,59.9426601772025,
,,,C,U,g,n,,,,,,,,,,11,1,221,16,,,,,,,,,,,,,v,0,1.1008783673032667,6205.559966928788,None,,,,,001,52,2019_Oct_23_1105,ACPT_experiment_5_30_19,3.1.0,59.9426601772025,
,,,C,U,d,n,,,,,,,,,,11,2,222,6,,,,,,,,,,,,,v,0,3.185758127969166,6209.929989305285,None,,,,,001,52,2019_Oct_23_1105,ACPT_experiment_5_30_19,3.1.0,59.9426601772025,
,,,C,D,d,v,,,,,,,,,,11,3,223,18,,,,,,,,,,,,,v,1,2.4519092467489827,6216.401529679421,None,,,,,001,52,2019_Oct_23_1105,ACPT_experiment_5_30_19,3.1.0,59.9426601772025,
,,,C,G,g,v,,,,,,,,,,11,4,224,19,,,,,,,,,,,,,v,1,1.467788017028397,6222.139247131851,None,,,,,001,52,2019_Oct_23_1105,ACPT_experiment_5_30_19,3.1.0,59.9426601772025,
,,,C,D,y,b,,,,,,,,,,11,5,225,11,,,,,,,,,,,,,b,1,2.1349686418134297,6226.89285331577,None,,,,,001,52,2019_Oct_23_1105,ACPT_experiment_5_30_19,3.1.0,59.9426601772025,
,,,C,D,y,b,,,,,,,,,,11,6,226,2,,,,,,,,,,,,,b,1,0.9842271807574434,6232.296803267035,None,,,,,001,52,2019_Oct_23_1105,ACPT_experiment_5_30_19,3.1.0,59.9426601772025,
,,,C,U,y,n,,,,,,,,,,11,7,227,17,,,,,,,,,,,,,n,1,2.5185889736658282,6236.5835448077805,None,,,,,001,52,2019_Oct_23_1105,ACPT_experiment_5_30_19,3.1.0,59.9426601772025,
,,,C,G,g,v,,,,,,,,,,11,8,228,13,,,,,,,,,,,,,v,1,0.8840137995939585,6242.3879498353535,None,,,,,001,52,2019_Oct_23_1105,ACPT_experiment_5_30_19,3.1.0,59.9426601772025,
,,,C,U,g,n,,,,,,,,,,11,9,229,7,,,,,,,,,,,,,b,0,2.3347032510664576,6246.574847163365,None,,,,,001,52,2019_Oct_23_1105,ACPT_experiment_5_30_19,3.1.0,59.9426601772025,
,,,C,D,g,b,,,,,,,,,,11,10,230,10,,,,,,,,,,,,,n,0,2.1850125465944075,6252.195392427851,None,,,,,001,52,2019_Oct_23_1105,ACPT_experiment_5_30_19,3.1.0,59.9426601772025,
,,,C,U,d,n,,,,,,,,,,11,11,231,15,,,,,,,,,,,,,v,0,2.0515791383313626,6257.666214991257,None,,,,,001,52,2019_Oct_23_1105,ACPT_experiment_5_30_19,3.1.0,59.9426601772025,
,,,C,G,y,b,,,,,,,,,,11,12,232,14,,,,,,,,,,,,,n,0,1.8681555554412625,6263.003597505593,None,,,,,001,52,2019_Oct_23_1105,ACPT_experiment_5_30_19,3.1.0,59.9426601772025,
,,,C,D,g,b,,,,,,,,,,11,13,233,1,,,,,,,,,,,,,v,0,1.8680972974634642,6268.157510253253,None,,,,,001,52,2019_Oct_23_1105,ACPT_experiment_5_30_19,3.1.0,59.9426601772025,
,,,C,D,d,v,,,,,,,,,,11,14,234,9,,,,,,,,,,,,,v,1,2.1016170060174773,6273.3114166619625,None,,,,,001,52,2019_Oct_23_1105,ACPT_experiment_5_30_19,3.1.0,59.9426601772025,
,,,C,G,y,b,,,,,,,,,,11,15,235,5,,,,,,,,,,,,,b,1,1.6012292735167648,6278.6988436847905,None,,,,,001,52,2019_Oct_23_1105,ACPT_experiment_5_30_19,3.1.0,59.9426601772025,
,,,C,D,d,v,,,,,,,,,,11,16,236,0,,,,,,,,,,,,,v,1,2.034850948623898,6283.585916782856,None,,,,,001,52,2019_Oct_23_1105,ACPT_experiment_5_30_19,3.1.0,59.9426601772025,
,,,C,U,y,n,,,,,,,,,,11,17,237,8,,,,,,,,,,,,,b,0,4.2699240020147045,6288.906595557723,None,,,,,001,52,2019_Oct_23_1105,ACPT_experiment_5_30_19,3.1.0,59.9426601772025,
,,,C,G,d,b,,,,,,,,,,11,18,238,3,,,,,,,,,,,,,b,1,1.4176263888712128,6296.462331387678,None,,,,,001,52,2019_Oct_23_1105,ACPT_experiment_5_30_19,3.1.0,59.9426601772025,
,,,C,G,d,b,,,,,,,,,,11,19,239,12,,,,,,,,,,,,,b,1,0.9674078308980825,6301.149234300004,None,,,,,001,52,2019_Oct_23_1105,ACPT_experiment_5_30_19,3.1.0,59.9426601772025,
,,,C,G,y,b,,,,,,,,,,12,0,240,5,,,,,,,,,,,,,b,1,1.1342088732635602,6305.38577014179,None,,,,,001,52,2019_Oct_23_1105,ACPT_experiment_5_30_19,3.1.0,59.9426601772025,
,,,C,D,d,v,,,,,,,,,,12,1,241,9,,,,,,,,,,,,,v,1,2.5683938094407495,6309.822717653164,None,,,,,001,52,2019_Oct_23_1105,ACPT_experiment_5_30_19,3.1.0,59.9426601772025,
,,,C,U,g,n,,,,,,,,,,12,2,242,16,,,,,,,,,,,,,b,0,6.071285729422016,6315.676923592398,None,,,,,001,52,2019_Oct_23_1105,ACPT_experiment_5_30_19,3.1.0,59.9426601772025,
,,,C,U,d,n,,,,,,,,,,12,3,243,15,,,,,,,,,,,,,b,0,2.068253597882176,6325.017336427144,None,,,,,001,52,2019_Oct_23_1105,ACPT_experiment_5_30_19,3.1.0,59.9426601772025,
,,,C,D,g,b,,,,,,,,,,12,4,244,10,,,,,,,,,,,,,n,0,2.6520302301551055,6330.371400041838,None,,,,,001,52,2019_Oct_23_1105,ACPT_experiment_5_30_19,3.1.0,59.9426601772025,
,,,C,U,g,n,,,,,,,,,,12,5,245,7,,,,,,,,,,,,,v,0,0.8339762337636785,6336.30925326856,None,,,,,001,52,2019_Oct_23_1105,ACPT_experiment_5_30_19,3.1.0,59.9426601772025,
,,,C,G,d,b,,,,,,,,,,12,6,246,12,,,,,,,,,,,,,b,1,1.7680194491085786,6340.429035595021,None,,,,,001,52,2019_Oct_23_1105,ACPT_experiment_5_30_19,3.1.0,59.9426601772025,
,,,C,G,g,v,,,,,,,,,,12,7,247,4,,,,,,,,,,,,,v,1,0.9674331867017827,6345.466193318081,None,,,,,001,52,2019_Oct_23_1105,ACPT_experiment_5_30_19,3.1.0,59.9426601772025,
,,,C,D,g,b,,,,,,,,,,12,8,248,1,,,,,,,,,,,,,v,0,4.7198186697805795,6349.73651184433,None,,,,,001,52,2019_Oct_23_1105,ACPT_experiment_5_30_19,3.1.0,59.9426601772025,
,,,C,D,d,v,,,,,,,,,,12,9,249,0,,,,,,,,,,,,,v,1,1.3343509865062515,6357.725507123623,None,,,,,001,52,2019_Oct_23_1105,ACPT_experiment_5_30_19,3.1.0,59.9426601772025,
,,,C,G,g,v,,,,,,,,,,12,10,250,19,,,,,,,,,,,,,v,1,2.9351425705535803,6362.362785407494,None,,,,,001,52,2019_Oct_23_1105,ACPT_experiment_5_30_19,3.1.0,59.9426601772025,
,,,C,D,y,b,,,,,,,,,,12,11,251,2,,,,,,,,,,,,,b,1,4.0530684899504195,6368.583756408,None,,,,,001,52,2019_Oct_23_1105,ACPT_experiment_5_30_19,3.1.0,59.9426601772025,
,,,C,G,g,v,,,,,,,,,,12,12,252,13,,,,,,,,,,,,,v,1,0.8840524370098137,6375.922641555567,None,,,,,001,52,2019_Oct_23_1105,ACPT_experiment_5_30_19,3.1.0,59.9426601772025,
,,,C,G,d,b,,,,,,,,,,12,13,253,3,,,,,,,,,,,,,b,1,1.781377731748762,6380.112478345691,None,,,,,001,52,2019_Oct_23_1105,ACPT_experiment_5_30_19,3.1.0,59.9426601772025,
,,,C,D,y,b,,,,,,,,,,12,14,254,11,,,,,,,,,,,,,b,1,1.5345130221667205,6385.179663981266,None,,,,,001,52,2019_Oct_23_1105,ACPT_experiment_5_30_19,3.1.0,59.9426601772025,
,,,C,U,y,n,,,,,,,,,,12,15,255,17,,,,,,,,,,,,,v,0,3.21912757319933,6389.999996075888,None,,,,,001,52,2019_Oct_23_1105,ACPT_experiment_5_30_19,3.1.0,59.9426601772025,
,,,C,D,d,v,,,,,,,,,,12,16,256,18,,,,,,,,,,,,,v,1,2.7687816324978485,6396.504932760333,None,,,,,001,52,2019_Oct_23_1105,ACPT_experiment_5_30_19,3.1.0,59.9426601772025,
,,,C,G,y,b,,,,,,,,,,12,17,257,14,,,,,,,,,,,,,b,1,1.3844075691904436,6402.559531956011,None,,,,,001,52,2019_Oct_23_1105,ACPT_experiment_5_30_19,3.1.0,59.9426601772025,
,,,C,U,y,n,,,,,,,,,,12,18,258,8,,,,,,,,,,,,,b,0,2.8155069455287958,6407.266427014074,None,,,,,001,52,2019_Oct_23_1105,ACPT_experiment_5_30_19,3.1.0,59.9426601772025,
,,,C,U,d,n,,,,,,,,,,12,19,259,6,,,,,,,,,,,,,b,0,2.168338087043594,6413.351049896298,None,,,,,001,52,2019_Oct_23_1105,ACPT_experiment_5_30_19,3.1.0,59.9426601772025,
,,,C,G,y,b,,,,,,,,,,13,0,260,14,,,,,,,,,,,,,b,1,1.0841667796103138,6418.805190755636,None,,,,,001,52,2019_Oct_23_1105,ACPT_experiment_5_30_19,3.1.0,59.9426601772025,
,,,C,D,d,v,,,,,,,,,,13,1,261,9,,,,,,,,,,,,,v,1,1.5812069422991044,6423.211871285488,None,,,,,001,52,2019_Oct_23_1105,ACPT_experiment_5_30_19,3.1.0,59.9426601772025,
,,,C,D,g,b,,,,,,,,,,13,2,262,10,,,,,,,,,,,,,b,1,3.3025357916794746,6428.062215596174,None,,,,,001,52,2019_Oct_23_1105,ACPT_experiment_5_30_19,3.1.0,59.9426601772025,
,,,C,D,y,b,,,,,,,,,,13,3,263,11,,,,,,,,,,,,,n,0,2.2850834522887453,6434.633872456081,None,,,,,001,52,2019_Oct_23_1105,ACPT_experiment_5_30_19,3.1.0,59.9426601772025,
,,,C,U,g,n,,,,,,,,,,13,4,264,7,,,,,,,,,,,,,b,0,5.137250362301529,6440.204768038165,None,,,,,001,52,2019_Oct_23_1105,ACPT_experiment_5_30_19,3.1.0,59.9426601772025,
,,,C,G,d,b,,,,,,,,,,13,5,265,3,,,,,,,,,,,,,b,1,2.134963812136448,6448.627830530259,None,,,,,001,52,2019_Oct_23_1105,ACPT_experiment_5_30_19,3.1.0,59.9426601772025,
,,,C,G,d,b,,,,,,,,,,13,6,266,12,,,,,,,,,,,,,b,1,1.4512650885899347,6454.031779575961,None,,,,,001,52,2019_Oct_23_1105,ACPT_experiment_5_30_19,3.1.0,59.9426601772025,
,,,C,U,d,n,,,,,,,,,,13,7,267,15,,,,,,,,,,,,,v,0,3.1523983420929653,6458.768860114747,None,,,,,001,52,2019_Oct_23_1105,ACPT_experiment_5_30_19,3.1.0,59.9426601772025,
,,,C,G,g,v,,,,,,,,,,13,8,268,19,,,,,,,,,,,,,v,1,0.750453008601653,6465.207078736714,None,,,,,001,52,2019_Oct_23_1105,ACPT_experiment_5_30_19,3.1.0,59.9426601772025,
,,,C,D,d,v,,,,,,,,,,13,9,269,18,,,,,,,,,,,,,b,0,13.059653754425199,6469.260426442361,None,,,,,001,52,2019_Oct_23_1105,ACPT_experiment_5_30_19,3.1.0,59.9426601772025,
,,,C,U,y,n,,,,,,,,,,13,10,270,17,,,,,,,,,,,,,b,0,1.2343280757268076,6485.6058950432725,None,,,,,001,52,2019_Oct_23_1105,ACPT_experiment_5_30_19,3.1.0,59.9426601772025,
,,,C,D,y,b,,,,,,,,,,13,11,271,2,,,,,,,,,,,,,b,1,1.3007792985563356,6490.142897160181,None,,,,,001,52,2019_Oct_23_1105,ACPT_experiment_5_30_19,3.1.0,59.9426601772025,
,,,C,U,y,n,,,,,,,,,,13,12,272,8,,,,,,,,,,,,,v,0,15.178197570611701,6494.7294925126425,None,,,,,001,52,2019_Oct_23_1105,ACPT_experiment_5_30_19,3.1.0,59.9426601772025,
,,,C,D,g,b,,,,,,,,,,13,13,273,1,,,,,,,,,,,,,b,1,2.234868093976729,6513.193654347871,None,,,,,001,52,2019_Oct_23_1105,ACPT_experiment_5_30_19,3.1.0,59.9426601772025,
,,,C,G,g,v,,,,,,,,,,13,14,274,13,,,,,,,,,,,,,v,1,0.6671963212347691,6518.714348456963,None,,,,,001,52,2019_Oct_23_1105,ACPT_experiment_5_30_19,3.1.0,59.9426601772025,
,,,C,G,g,v,,,,,,,,,,13,15,275,4,,,,,,,,,,,,,v,1,0.8005998458729664,6522.6673762267,None,,,,,001,52,2019_Oct_23_1105,ACPT_experiment_5_30_19,3.1.0,59.9426601772025,
,,,C,U,g,n,,,,,,,,,,13,16,276,16,,,,,,,,,,,,,b,0,1.4177471307939413,6526.7537957487375,None,,,,,001,52,2019_Oct_23_1105,ACPT_experiment_5_30_19,3.1.0,59.9426601772025,
,,,C,G,y,b,,,,,,,,,,13,17,277,5,,,,,,,,,,,,,b,1,1.4840537651707564,6531.474432445045,None,,,,,001,52,2019_Oct_23_1105,ACPT_experiment_5_30_19,3.1.0,59.9426601772025,
,,,C,D,d,v,,,,,,,,,,13,18,278,0,,,,,,,,,,,,,v,1,2.034887473055278,6536.244331845894,None,,,,,001,52,2019_Oct_23_1105,ACPT_experiment_5_30_19,3.1.0,59.9426601772025,
,,,C,U,d,n,,,,,,,,,,13,19,279,6,,,,,,,,,,,,,b,0,1.5845617566264991,6541.565038995113,None,,,,,001,52,2019_Oct_23_1105,ACPT_experiment_5_30_19,3.1.0,59.9426601772025,
,,,C,U,g,n,,,,,,,,,,14,0,280,16,,,,,,,,,,,,,b,0,2.1683667632505603,6546.418721518113,None,,,,,001,52,2019_Oct_23_1105,ACPT_experiment_5_30_19,3.1.0,59.9426601772025,
,,,C,G,g,v,,,,,,,,,,14,1,281,13,,,,,,,,,,,,,v,1,0.7005684831583494,6551.87286298116,None,,,,,001,52,2019_Oct_23_1105,ACPT_experiment_5_30_19,3.1.0,59.9426601772025,
,,,C,U,d,n,,,,,,,,,,14,2,282,15,,,,,,,,,,,,,v,0,3.7193341928150403,6555.876053284618,None,,,,,001,52,2019_Oct_23_1105,ACPT_experiment_5_30_19,3.1.0,59.9426601772025,
,,,C,G,g,v,,,,,,,,,,14,3,283,4,,,,,,,,,,,,,v,1,0.7839425920456051,6562.881215303677,None,,,,,001,52,2019_Oct_23_1105,ACPT_experiment_5_30_19,3.1.0,59.9426601772025,
,,,C,G,d,b,,,,,,,,,,14,4,284,12,,,,,,,,,,,,,b,1,1.251091280591936,6566.934304319754,None,,,,,001,52,2019_Oct_23_1105,ACPT_experiment_5_30_19,3.1.0,59.9426601772025,
,,,C,U,y,n,,,,,,,,,,14,5,285,8,,,,,,,,,,,,,v,0,6.354836966709627,6571.4710721973315,None,,,,,001,52,2019_Oct_23_1105,ACPT_experiment_5_30_19,3.1.0,59.9426601772025,
,,,C,D,d,v,,,,,,,,,,14,6,286,9,,,,,,,,,,,,,v,1,1.40110346043366,6581.111699258434,None,,,,,001,52,2019_Oct_23_1105,ACPT_experiment_5_30_19,3.1.0,59.9426601772025,
,,,C,G,d,b,,,,,,,,,,14,7,287,3,,,,,,,,,,,,,b,1,1.7846842493072472,6585.815307721356,None,,,,,001,52,2019_Oct_23_1105,ACPT_experiment_5_30_19,3.1.0,59.9426601772025,
,,,C,D,d,v,,,,,,,,,,14,8,288,18,,,,,,,,,,,,,v,1,1.5845382119514397,6590.885815269085,None,,,,,001,52,2019_Oct_23_1105,ACPT_experiment_5_30_19,3.1.0,59.9426601772025,
,,,C,G,y,b,,,,,,,,,,14,9,289,14,,,,,,,,,,,,,b,1,2.151633140156264,6595.756188551794,None,,,,,001,52,2019_Oct_23_1105,ACPT_experiment_5_30_19,3.1.0,59.9426601772025,
,,,C,D,d,v,,,,,,,,,,14,10,290,0,,,,,,,,,,,,,v,1,0.9006915795489476,6601.193635331018,None,,,,,001,52,2019_Oct_23_1105,ACPT_experiment_5_30_19,3.1.0,59.9426601772025,
,,,C,D,y,b,,,,,,,,,,14,11,291,2,,,,,,,,,,,,,b,1,2.3848887257527167,6605.380418557913,None,,,,,001,52,2019_Oct_23_1105,ACPT_experiment_5_30_19,3.1.0,59.9426601772025,
,,,C,G,y,b,,,,,,,,,,14,12,292,5,,,,,,,,,,,,,b,1,1.050802164058041,6611.051116093057,None,,,,,001,52,2019_Oct_23_1105,ACPT_experiment_5_30_19,3.1.0,59.9426601772025,
,,,C,D,y,b,,,,,,,,,,14,13,293,11,,,,,,,,,,,,,b,1,2.251302277101786,6615.421479867341,None,,,,,001,52,2019_Oct_23_1105,ACPT_experiment_5_30_19,3.1.0,59.9426601772025,
,,,C,U,g,n,,,,,,,,,,14,14,294,7,,,,,,,,,,,,,b,0,1.8013834609528203,6620.958635024636,None,,,,,001,52,2019_Oct_23_1105,ACPT_experiment_5_30_19,3.1.0,59.9426601772025,
,,,C,D,g,b,,,,,,,,,,14,15,295,10,,,,,,,,,,,,,v,0,2.0182112023758236,6626.0458342376405,None,,,,,001,52,2019_Oct_23_1105,ACPT_experiment_5_30_19,3.1.0,59.9426601772025,
,,,C,D,g,b,,,,,,,,,,14,16,296,1,,,,,,,,,,,,,b,1,1.5345139277314956,6631.333171036065,None,,,,,001,52,2019_Oct_23_1105,ACPT_experiment_5_30_19,3.1.0,59.9426601772025,
,,,C,G,g,v,,,,,,,,,,14,17,297,19,,,,,,,,,,,,,v,1,0.7505891451191928,6636.153500413994,None,,,,,001,52,2019_Oct_23_1105,ACPT_experiment_5_30_19,3.1.0,59.9426601772025,
,,,C,U,d,n,,,,,,,,,,14,18,298,6,,,,,,,,,,,,,b,0,4.269466390126581,6640.207014139785,None,,,,,001,52,2019_Oct_23_1105,ACPT_experiment_5_30_19,3.1.0,59.9426601772025,
,,,C,U,y,n,,,,,,,,,,14,19,299,17,,,,,,,,,,,,,b,0,1.2342785715381979,6647.762316204381,None,,,,,001,52,2019_Oct_23_1105,ACPT_experiment_5_30_19,3.1.0,59.9426601772025,
,,,C,U,y,n,,,,,,,,,,15,0,300,17,,,,,,,,,,,,,v,0,0.9838414103141986,6652.299339752981,None,,,,,001,52,2019_Oct_23_1105,ACPT_experiment_5_30_19,3.1.0,59.9426601772025,
,,,C,G,d,b,,,,,,,,,,15,1,301,12,,,,,,,,,,,,,b,1,1.2009121448563747,6656.569013819215,None,,,,,001,52,2019_Oct_23_1105,ACPT_experiment_5_30_19,3.1.0,59.9426601772025,
,,,C,G,d,b,,,,,,,,,,15,2,302,3,,,,,,,,,,,,,b,1,1.1508739753162445,6661.039071784394,None,,,,,001,52,2019_Oct_23_1105,ACPT_experiment_5_30_19,3.1.0,59.9426601772025,
,,,C,U,d,n,,,,,,,,,,15,3,303,15,,,,,,,,,,,,,v,0,3.5527151688984304,6665.4757639266,None,,,,,001,52,2019_Oct_23_1105,ACPT_experiment_5_30_19,3.1.0,59.9426601772025,
,,,C,D,y,b,,,,,,,,,,15,4,304,11,,,,,,,,,,,,,b,1,1.2509669164110164,6672.314283377067,None,,,,,001,52,2019_Oct_23_1105,ACPT_experiment_5_30_19,3.1.0,59.9426601772025,
,,,C,G,y,b,,,,,,,,,,15,5,305,5,,,,,,,,,,,,,b,1,1.1171314375442307,6676.86811903101,None,,,,,001,52,2019_Oct_23_1105,ACPT_experiment_5_30_19,3.1.0,59.9426601772025,
,,,C,D,g,b,,,,,,,,,,15,6,306,10,,,,,,,,,,,,,v,0,1.2176053194061751,6681.271090067135,None,,,,,001,52,2019_Oct_23_1105,ACPT_experiment_5_30_19,3.1.0,59.9426601772025,
,,,C,D,g,b,,,,,,,,,,15,7,307,1,,,,,,,,,,,,,v,0,1.3841371072830952,6685.774770431873,None,,,,,001,52,2019_Oct_23_1105,ACPT_experiment_5_30_19,3.1.0,59.9426601772025,
,,,C,G,g,v,,,,,,,,,,15,8,308,4,,,,,,,,,,,,,v,1,0.7506232547129912,6690.444711820725,None,,,,,001,52,2019_Oct_23_1105,ACPT_experiment_5_30_19,3.1.0,59.9426601772025,
,,,C,G,g,v,,,,,,,,,,15,9,309,19,,,,,,,,,,,,,v,1,0.9173829429701073,6694.48111249193,None,,,,,001,52,2019_Oct_23_1105,ACPT_experiment_5_30_19,3.1.0,59.9426601772025,
,,,C,G,g,v,,,,,,,,,,15,10,310,13,,,,,,,,,,,,,v,1,0.8173032834856713,6698.66762042724,None,,,,,001,52,2019_Oct_23_1105,ACPT_experiment_5_30_19,3.1.0,59.9426601772025,
,,,C,D,d,v,,,,,,,,,,15,11,311,0,,,,,,,,,,,,,v,1,1.7677532131692715,6702.787688308348,None,,,,,001,52,2019_Oct_23_1105,ACPT_experiment_5_30_19,3.1.0,59.9426601772025,
,,,C,U,y,n,,,,,,,,,,15,12,312,8,,,,,,,,,,,,,v,0,2.301745233939073,6707.841266631068,None,,,,,001,52,2019_Oct_23_1105,ACPT_experiment_5_30_19,3.1.0,59.9426601772025,
,,,C,U,d,n,,,,,,,,,,15,13,313,6,,,,,,,,,,,,,b,0,1.2676398666890236,6713.412150138959,None,,,,,001,52,2019_Oct_23_1105,ACPT_experiment_5_30_19,3.1.0,59.9426601772025,
,,,C,D,y,b,,,,,,,,,,15,14,314,2,,,,,,,,,,,,,b,1,1.9012134865106418,6717.9825250215,None,,,,,001,52,2019_Oct_23_1105,ACPT_experiment_5_30_19,3.1.0,59.9426601772025,
,,,C,D,d,v,,,,,,,,,,15,15,315,9,,,,,,,,,,,,,b,0,3.502702355161091,6723.15285655769,None,,,,,001,52,2019_Oct_23_1105,ACPT_experiment_5_30_19,3.1.0,59.9426601772025,
,,,C,U,g,n,,,,,,,,,,15,16,316,7,,,,,,,,,,,,,v,0,1.2342565361377638,6729.941382513129,None,,,,,001,52,2019_Oct_23_1105,ACPT_experiment_5_30_19,3.1.0,59.9426601772025,
,,,C,G,y,b,,,,,,,,,,15,17,317,14,,,,,,,,,,,,,b,1,0.8670857820043238,6734.47838674302,None,,,,,001,52,2019_Oct_23_1105,ACPT_experiment_5_30_19,3.1.0,59.9426601772025,
,,,C,U,g,n,,,,,,,,,,15,18,318,16,,,,,,,,,,,,,v,0,3.836258256106703,6738.6313009549785,None,,,,,001,52,2019_Oct_23_1105,ACPT_experiment_5_30_19,3.1.0,59.9426601772025,
,,,C,D,d,v,,,,,,,,,,15,19,319,18,,,,,,,,,,,,,v,1,1.0007739557258901,6745.753365907492,None,,,,,001,52,2019_Oct_23_1105,ACPT_experiment_5_30_19,3.1.0,59.9426601772025,
,,,C,D,y,b,,,,,,,,,,16,0,320,2,,,,,,,,,,,,,b,1,1.0341213655547108,6750.039967991316,None,,,,,001,52,2019_Oct_23_1105,ACPT_experiment_5_30_19,3.1.0,59.9426601772025,
,,,C,G,d,b,,,,,,,,,,16,1,321,12,,,,,,,,,,,,,b,1,1.2342686103302185,6754.359914466422,None,,,,,001,52,2019_Oct_23_1105,ACPT_experiment_5_30_19,3.1.0,59.9426601772025,
,,,C,U,y,n,,,,,,,,,,16,2,322,17,,,,,,,,,,,,,n,1,4.686621583645319,6758.896956428164,None,,,,,001,52,2019_Oct_23_1105,ACPT_experiment_5_30_19,3.1.0,59.9426601772025,
,,,C,G,y,b,,,,,,,,,,16,3,323,5,,,,,,,,,,,,,b,1,1.3677466931048912,6766.8693958768445,None,,,,,001,52,2019_Oct_23_1105,ACPT_experiment_5_30_19,3.1.0,59.9426601772025,
,,,C,D,g,b,,,,,,,,,,16,4,324,1,,,,,,,,,,,,,v,0,3.268762464717838,6771.53998232942,None,,,,,001,52,2019_Oct_23_1105,ACPT_experiment_5_30_19,3.1.0,59.9426601772025,
,,,C,U,d,n,,,,,,,,,,16,5,325,6,,,,,,,,,,,,,b,0,1.3677228465749067,6778.094578053767,None,,,,,001,52,2019_Oct_23_1105,ACPT_experiment_5_30_19,3.1.0,59.9426601772025,
,,,C,G,d,b,,,,,,,,,,16,6,326,3,,,,,,,,,,,,,b,1,1.5011490103233882,6782.7481136338465,None,,,,,001,52,2019_Oct_23_1105,ACPT_experiment_5_30_19,3.1.0,59.9426601772025,
,,,C,D,g,b,,,,,,,,,,16,7,327,10,,,,,,,,,,,,,v,0,2.5686675917504544,6787.535085037027,None,,,,,001,52,2019_Oct_23_1105,ACPT_experiment_5_30_19,3.1.0,59.9426601772025,
,,,C,D,d,v,,,,,,,,,,16,8,328,0,,,,,,,,,,,,,b,0,0.750579183912123,6793.372848341202,None,,,,,001,52,2019_Oct_23_1105,ACPT_experiment_5_30_19,3.1.0,59.9426601772025,
,,,C,D,y,b,,,,,,,,,,16,9,329,11,,,,,,,,,,,,,b,1,1.2338731805321004,6797.426298375629,None,,,,,001,52,2019_Oct_23_1105,ACPT_experiment_5_30_19,3.1.0,59.9426601772025,
,,,C,U,g,n,,,,,,,,,,16,10,330,16,,,,,,,,,,,,,n,1,2.5352706777339336,6801.94602292708,None,,,,,001,52,2019_Oct_23_1105,ACPT_experiment_5_30_19,3.1.0,59.9426601772025,
,,,C,D,d,v,,,,,,,,,,16,11,331,18,,,,,,,,,,,,,n,0,2.8188309706656582,6807.767105432753,None,,,,,001,52,2019_Oct_23_1105,ACPT_experiment_5_30_19,3.1.0,59.9426601772025,
,,,C,G,g,v,,,,,,,,,,16,12,332,19,,,,,,,,,,,,,v,1,0.7672642083807659,6813.8717400812775,None,,,,,001,52,2019_Oct_23_1105,ACPT_experiment_5_30_19,3.1.0,59.9426601772025,
,,,C,U,g,n,,,,,,,,,,16,13,333,7,,,,,,,,,,,,,n,1,2.1483257170330035,6817.944818526399,None,,,,,001,52,2019_Oct_23_1105,ACPT_experiment_5_30_19,3.1.0,59.9426601772025,
,,,C,G,y,b,,,,,,,,,,16,14,334,14,,,,,,,,,,,,,b,1,0.867341754881636,6823.378957278791,None,,,,,001,52,2019_Oct_23_1105,ACPT_experiment_5_30_19,3.1.0,59.9426601772025,
,,,C,D,d,v,,,,,,,,,,16,15,335,9,,,,,,,,,,,,,n,0,1.9011833010290502,6827.549062423876,None,,,,,001,52,2019_Oct_23_1105,ACPT_experiment_5_30_19,3.1.0,59.9426601772025,
,,,C,U,d,n,,,,,,,,,,16,16,336,15,,,,,,,,,,,,,b,0,2.6353666373770466,6832.736035215589,None,,,,,001,52,2019_Oct_23_1105,ACPT_experiment_5_30_19,3.1.0,59.9426601772025,
,,,C,U,y,n,,,,,,,,,,16,17,337,8,,,,,,,,,,,,,b,0,2.468558048641171,6838.657217303163,None,,,,,001,52,2019_Oct_23_1105,ACPT_experiment_5_30_19,3.1.0,59.9426601772025,
,,,C,G,g,v,,,,,,,,,,16,18,338,13,,,,,,,,,,,,,v,1,0.9674057179145166,6844.41159261313,None,,,,,001,52,2019_Oct_23_1105,ACPT_experiment_5_30_19,3.1.0,59.9426601772025,
,,,C,G,g,v,,,,,,,,,,16,19,339,4,,,,,,,,,,,,,v,1,0.8172951334063328,6848.648161357091,None,,,,,001,52,2019_Oct_23_1105,ACPT_experiment_5_30_19,3.1.0,59.9426601772025,
,,,C,D,d,v,,,,,,,,,,17,0,340,0,,,,,,,,,,,,,b,0,1.167557188657156,6852.751263790615,None,,,,,001,52,2019_Oct_23_1105,ACPT_experiment_5_30_19,3.1.0,59.9426601772025,
,,,C,D,g,b,,,,,,,,,,17,1,341,10,,,,,,,,,,,,,b,1,1.5008833780939312,6857.204903269118,None,,,,,001,52,2019_Oct_23_1105,ACPT_experiment_5_30_19,3.1.0,59.9426601772025,
,,,C,G,g,v,,,,,,,,,,17,2,342,19,,,,,,,,,,,,,v,1,0.7339017058120589,6861.991599380715,None,,,,,001,52,2019_Oct_23_1105,ACPT_experiment_5_30_19,3.1.0,59.9426601772025,
,,,C,G,d,b,,,,,,,,,,17,3,343,3,,,,,,,,,,,,,b,1,1.1341937805227644,6865.994650529106,None,,,,,001,52,2019_Oct_23_1105,ACPT_experiment_5_30_19,3.1.0,59.9426601772025,
,,,C,G,y,b,,,,,,,,,,17,4,344,5,,,,,,,,,,,,,b,1,1.2676540538650443,6870.397970207535,None,,,,,001,52,2019_Oct_23_1105,ACPT_experiment_5_30_19,3.1.0,59.9426601772025,
,,,C,D,y,b,,,,,,,,,,17,5,345,11,,,,,,,,,,,,,n,0,3.068773090006289,6874.968359579106,None,,,,,001,52,2019_Oct_23_1105,ACPT_experiment_5_30_19,3.1.0,59.9426601772025,
,,,C,G,g,v,,,,,,,,,,17,6,346,4,,,,,,,,,,,,,v,1,0.7672623972521251,6881.322939365519,None,,,,,001,52,2019_Oct_23_1105,ACPT_experiment_5_30_19,3.1.0,59.9426601772025,
,,,C,U,g,n,,,,,,,,,,17,7,347,7,,,,,,,,,,,,,b,0,1.584260505527709,6885.392994131037,None,,,,,001,52,2019_Oct_23_1105,ACPT_experiment_5_30_19,3.1.0,59.9426601772025,
,,,C,G,d,b,,,,,,,,,,17,8,348,12,,,,,,,,,,,,,b,1,0.9507342769111347,6890.263063144102,None,,,,,001,52,2019_Oct_23_1105,ACPT_experiment_5_30_19,3.1.0,59.9426601772025,
,,,C,D,y,b,,,,,,,,,,17,9,349,2,,,,,,,,,,,,,n,0,2.7351755330982996,6894.516539077671,None,,,,,001,52,2019_Oct_23_1105,ACPT_experiment_5_30_19,3.1.0,59.9426601772025,
,,,C,G,y,b,,,,,,,,,,17,10,350,14,,,,,,,,,,,,,b,1,0.9006737701147358,6900.53754666298,None,,,,,001,52,2019_Oct_23_1105,ACPT_experiment_5_30_19,3.1.0,59.9426601772025,
,,,C,D,g,b,,,,,,,,,,17,11,351,1,,,,,,,,,,,,,v,0,1.7679940933048783,6904.740743245018,None,,,,,001,52,2019_Oct_23_1105,ACPT_experiment_5_30_19,3.1.0,59.9426601772025,
,,,C,D,d,v,,,,,,,,,,17,12,352,9,,,,,,,,,,,,,v,1,1.818056713084843,6909.777876819694,None,,,,,001,52,2019_Oct_23_1105,ACPT_experiment_5_30_19,3.1.0,59.9426601772025,
,,,C,U,g,n,,,,,,,,,,17,13,353,16,,,,,,,,,,,,,v,0,1.6679545805109228,6914.881744455154,None,,,,,001,52,2019_Oct_23_1105,ACPT_experiment_5_30_19,3.1.0,59.9426601772025,
,,,C,U,y,n,,,,,,,,,,17,14,354,17,,,,,,,,,,,,,n,1,2.618690064840848,6919.835507241346,None,,,,,001,52,2019_Oct_23_1105,ACPT_experiment_5_30_19,3.1.0,59.9426601772025,
,,,C,U,d,n,,,,,,,,,,17,15,355,6,,,,,,,,,,,,,v,0,2.752145206651221,6925.739990117274,None,,,,,001,52,2019_Oct_23_1105,ACPT_experiment_5_30_19,3.1.0,59.9426601772025,
,,,C,U,y,n,,,,,,,,,,17,16,356,8,,,,,,,,,,,,,n,1,1.5510872659233428,6931.761206284255,None,,,,,001,52,2019_Oct_23_1105,ACPT_experiment_5_30_19,3.1.0,59.9426601772025,
,,,C,G,g,v,,,,,,,,,,17,17,357,13,,,,,,,,,,,,,v,1,0.8006276165151576,6936.598235779394,None,,,,,001,52,2019_Oct_23_1105,ACPT_experiment_5_30_19,3.1.0,59.9426601772025,
,,,C,U,d,n,,,,,,,,,,17,18,358,15,,,,,,,,,,,,,b,0,2.1513732431676544,6940.7016228620005,None,,,,,001,52,2019_Oct_23_1105,ACPT_experiment_5_30_19,3.1.0,59.9426601772025,
,,,C,D,d,v,,,,,,,,,,17,19,359,18,,,,,,,,,,,,,n,0,1.3510864207291888,6946.138805820123,None,,,,,001,52,2019_Oct_23_1105,ACPT_experiment_5_30_19,3.1.0,59.9426601772025,
,,,C,U,y,n,,,,,,,,,,18,0,360,8,,,,,,,,,,,,,n,1,1.5008746243038331,6950.792623030738,None,,,,,001,52,2019_Oct_23_1105,ACPT_experiment_5_30_19,3.1.0,59.9426601772025,
,,,C,G,g,v,,,,,,,,,,18,1,361,13,,,,,,,,,,,,,v,1,2.034888076765128,6955.579315218221,None,,,,,001,52,2019_Oct_23_1105,ACPT_experiment_5_30_19,3.1.0,59.9426601772025,
,,,C,U,d,n,,,,,,,,,,18,2,362,15,,,,,,,,,,,,,b,0,1.651270159750311,6960.9000108969585,None,,,,,001,52,2019_Oct_23_1105,ACPT_experiment_5_30_19,3.1.0,59.9426601772025,
,,,C,G,g,v,,,,,,,,,,18,3,363,19,,,,,,,,,,,,,v,1,0.9840949683521103,6965.837095903196,None,,,,,001,52,2019_Oct_23_1105,ACPT_experiment_5_30_19,3.1.0,59.9426601772025,
,,,C,U,y,n,,,,,,,,,,18,4,364,17,,,,,,,,,,,,,n,1,1.3174259874649579,6970.123938867157,None,,,,,001,52,2019_Oct_23_1105,ACPT_experiment_5_30_19,3.1.0,59.9426601772025,
,,,C,U,g,n,,,,,,,,,,18,5,365,7,,,,,,,,,,,,,v,0,1.4678381249268568,6974.710477470916,None,,,,,001,52,2019_Oct_23_1105,ACPT_experiment_5_30_19,3.1.0,59.9426601772025,
,,,C,U,d,n,,,,,,,,,,18,6,366,6,,,,,,,,,,,,,v,0,1.234281891941464,6979.447428815845,None,,,,,001,52,2019_Oct_23_1105,ACPT_experiment_5_30_19,3.1.0,59.9426601772025,
,,,C,G,g,v,,,,,,,,,,18,7,367,4,,,,,,,,,,,,,v,1,0.7334299067479151,6983.984643740392,None,,,,,001,52,2019_Oct_23_1105,ACPT_experiment_5_30_19,3.1.0,59.9426601772025,
,,,C,D,y,b,,,,,,,,,,18,8,368,2,,,,,,,,,,,,,n,0,1.2843288152707828,6988.003916867979,None,,,,,001,52,2019_Oct_23_1105,ACPT_experiment_5_30_19,3.1.0,59.9426601772025,
,,,C,D,d,v,,,,,,,,,,18,9,369,9,,,,,,,,,,,,,b,0,3.702559215612382,6992.591039258935,None,,,,,001,52,2019_Oct_23_1105,ACPT_experiment_5_30_19,3.1.0,59.9426601772025,
,,,C,D,d,v,,,,,,,,,,18,10,370,18,,,,,,,,,,,,,v,1,0.9006970129348701,6999.579375589183,None,,,,,001,52,2019_Oct_23_1105,ACPT_experiment_5_30_19,3.1.0,59.9426601772025,
,,,C,D,g,b,,,,,,,,,,18,11,371,10,,,,,,,,,,,,,b,1,1.0505534356962016,7003.76615459011,None,,,,,001,52,2019_Oct_23_1105,ACPT_experiment_5_30_19,3.1.0,59.9426601772025,
,,,C,G,y,b,,,,,,,,,,18,12,372,14,,,,,,,,,,,,,b,1,1.0674862829628182,7008.10251381665,None,,,,,001,52,2019_Oct_23_1105,ACPT_experiment_5_30_19,3.1.0,59.9426601772025,
,,,C,G,d,b,,,,,,,,,,18,13,373,12,,,,,,,,,,,,,b,1,2.284815103364963,7012.472775865863,None,,,,,001,52,2019_Oct_23_1105,ACPT_experiment_5_30_19,3.1.0,59.9426601772025,
,,,C,D,d,v,,,,,,,,,,18,14,374,0,,,,,,,,,,,,,v,1,1.4511171797339557,7018.043387704428,None,,,,,001,52,2019_Oct_23_1105,ACPT_experiment_5_30_19,3.1.0,59.9426601772025,
,,,C,D,g,b,,,,,,,,,,18,15,375,1,,,,,,,,,,,,,b,1,2.101612478194511,7022.763639837711,None,,,,,001,52,2019_Oct_23_1105,ACPT_experiment_5_30_19,3.1.0,59.9426601772025,
,,,C,G,d,b,,,,,,,,,,18,16,376,3,,,,,,,,,,,,,b,1,1.3176991660657222,7028.151075916182,None,,,,,001,52,2019_Oct_23_1105,ACPT_experiment_5_30_19,3.1.0,59.9426601772025,
,,,C,D,y,b,,,,,,,,,,18,17,377,11,,,,,,,,,,,,,b,1,1.233812507715811,7032.771680646066,None,,,,,001,52,2019_Oct_23_1105,ACPT_experiment_5_30_19,3.1.0,59.9426601772025,
,,,C,U,g,n,,,,,,,,,,18,18,378,16,,,,,,,,,,,,,n,1,2.3184251268767184,7037.291349354378,None,,,,,001,52,2019_Oct_23_1105,ACPT_experiment_5_30_19,3.1.0,59.9426601772025,
,,,C,G,y,b,,,,,,,,,,18,19,379,5,,,,,,,,,,,,,b,1,0.9340586099397115,7042.895586309194,None,,,,,001,52,2019_Oct_23_1105,ACPT_experiment_5_30_19,3.1.0,59.9426601772025,
,,,C,G,g,v,,,,,,,,,,19,0,380,4,,,,,,,,,,,,,v,1,0.9671533672953956,7047.115729321965,None,,,,,001,52,2019_Oct_23_1105,ACPT_experiment_5_30_19,3.1.0,59.9426601772025,
,,,C,G,g,v,,,,,,,,,,19,1,381,13,,,,,,,,,,,,,v,1,2.001536742823191,7051.352007681601,None,,,,,001,52,2019_Oct_23_1105,ACPT_experiment_5_30_19,3.1.0,59.9426601772025,
,,,C,D,g,b,,,,,,,,,,19,2,382,1,,,,,,,,,,,,,b,1,4.019736172861485,7056.639358365348,None,,,,,001,52,2019_Oct_23_1105,ACPT_experiment_5_30_19,3.1.0,59.9426601772025,
,,,C,U,g,n,,,,,,,,,,19,3,383,7,,,,,,,,,,,,,n,1,1.7179827888430736,7063.94490395131,None,,,,,001,52,2019_Oct_23_1105,ACPT_experiment_5_30_19,3.1.0,59.9426601772025,
,,,C,G,y,b,,,,,,,,,,19,4,384,5,,,,,,,,,,,,,b,1,1.0508075974439635,7068.9487030959135,None,,,,,001,52,2019_Oct_23_1105,ACPT_experiment_5_30_19,3.1.0,59.9426601772025,
,,,C,U,y,n,,,,,,,,,,19,5,385,8,,,,,,,,,,,,,n,1,2.384740213187797,7073.302398447742,None,,,,,001,52,2019_Oct_23_1105,ACPT_experiment_5_30_19,3.1.0,59.9426601772025,
,,,C,U,d,n,,,,,,,,,,19,6,386,6,,,,,,,,,,,,,n,1,2.1016124781954204,7078.956298668428,None,,,,,001,52,2019_Oct_23_1105,ACPT_experiment_5_30_19,3.1.0,59.9426601772025,
,,,C,D,g,b,,,,,,,,,,19,7,387,10,,,,,,,,,,,,,b,1,4.403353184311527,7084.34371784303,None,,,,,001,52,2019_Oct_23_1105,ACPT_experiment_5_30_19,3.1.0,59.9426601772025,
,,,C,U,g,n,,,,,,,,,,19,8,388,16,,,,,,,,,,,,,n,1,2.6019881365027686,7092.032891005361,None,,,,,001,52,2019_Oct_23_1105,ACPT_experiment_5_30_19,3.1.0,59.9426601772025,
,,,C,D,y,b,,,,,,,,,,19,9,389,11,,,,,,,,,,,,,n,0,1.6012501014984082,7097.920690969802,None,,,,,001,52,2019_Oct_23_1105,ACPT_experiment_5_30_19,3.1.0,59.9426601772025,
,,,C,U,y,n,,,,,,,,,,19,10,390,17,,,,,,,,,,,,,n,1,2.0182096931011984,7102.807738108355,None,,,,,001,52,2019_Oct_23_1105,ACPT_experiment_5_30_19,3.1.0,59.9426601772025,
,,,C,G,d,b,,,,,,,,,,19,11,391,12,,,,,,,,,,,,,b,1,0.9340504598612824,7108.111766572056,None,,,,,001,52,2019_Oct_23_1105,ACPT_experiment_5_30_19,3.1.0,59.9426601772025,
,,,C,D,d,v,,,,,,,,,,19,12,392,0,,,,,,,,,,,,,v,1,1.7342219737620326,7112.348742820006,None,,,,,001,52,2019_Oct_23_1105,ACPT_experiment_5_30_19,3.1.0,59.9426601772025,
,,,C,D,d,v,,,,,,,,,,19,13,393,18,,,,,,,,,,,,,v,1,1.0342855745702764,7117.351955762574,None,,,,,001,52,2019_Oct_23_1105,ACPT_experiment_5_30_19,3.1.0,59.9426601772025,
,,,C,G,y,b,,,,,,,,,,19,14,394,14,,,,,,,,,,,,,b,1,1.0338693167905149,7121.688987823479,None,,,,,001,52,2019_Oct_23_1105,ACPT_experiment_5_30_19,3.1.0,59.9426601772025,
,,,C,G,d,b,,,,,,,,,,19,15,395,3,,,,,,,,,,,,,b,1,1.384457978942919,7126.008655384743,None,,,,,001,52,2019_Oct_23_1105,ACPT_experiment_5_30_19,3.1.0,59.9426601772025,
,,,C,D,d,v,,,,,,,,,,19,16,396,9,,,,,,,,,,,,,v,1,2.751862066841568,7130.695815477364,None,,,,,001,52,2019_Oct_23_1105,ACPT_experiment_5_30_19,3.1.0,59.9426601772025,
,,,C,U,d,n,,,,,,,,,,19,17,397,15,,,,,,,,,,,,,n,1,1.3010008599840148,7136.733488466581,None,,,,,001,52,2019_Oct_23_1105,ACPT_experiment_5_30_19,3.1.0,59.9426601772025,
,,,C,D,y,b,,,,,,,,,,19,18,398,2,,,,,,,,,,,,,b,1,1.4673916816664132,7141.337355347403,None,,,,,001,52,2019_Oct_23_1105,ACPT_experiment_5_30_19,3.1.0,59.9426601772025,
,,,C,G,g,v,,,,,,,,,,19,19,399,19,,,,,,,,,,,,,v,1,0.7339050262144156,7146.090589646199,None,,,,,001,52,2019_Oct_23_1105,ACPT_experiment_5_30_19,3.1.0,59.9426601772025,
,,,C,G,d,b,,,,,,,,,,20,0,400,12,,,,,,,,,,,,,b,1,1.1175075486344213,7150.0936413983,None,,,,,001,52,2019_Oct_23_1105,ACPT_experiment_5_30_19,3.1.0,59.9426601772025,
,,,C,D,d,v,,,,,,,,,,20,1,401,0,,,,,,,,,,,,,v,1,1.7680227695118447,7154.496969830518,None,,,,,001,52,2019_Oct_23_1105,ACPT_experiment_5_30_19,3.1.0,59.9426601772025,
,,,C,G,y,b,,,,,,,,,,20,2,402,14,,,,,,,,,,,,,b,1,0.9006635070518314,7159.5508409524,None,,,,,001,52,2019_Oct_23_1105,ACPT_experiment_5_30_19,3.1.0,59.9426601772025,
,,,C,D,y,b,,,,,,,,,,20,3,403,11,,,,,,,,,,,,,b,1,1.1173004762358687,7163.754239777159,None,,,,,001,52,2019_Oct_23_1105,ACPT_experiment_5_30_19,3.1.0,59.9426601772025,
,,,C,U,d,n,,,,,,,,,,20,4,404,15,,,,,,,,,,,,,n,1,1.4843480736080892,7168.157339101577,None,,,,,001,52,2019_Oct_23_1105,ACPT_experiment_5_30_19,3.1.0,59.9426601772025,
,,,C,D,d,v,,,,,,,,,,20,5,405,9,,,,,,,,,,,,,v,1,2.0682508811896696,7172.927624574724,None,,,,,001,52,2019_Oct_23_1105,ACPT_experiment_5_30_19,3.1.0,59.9426601772025,
,,,C,D,d,v,,,,,,,,,,20,6,406,18,,,,,,,,,,,,,v,1,1.0009294109513576,7178.264862500608,None,,,,,001,52,2019_Oct_23_1105,ACPT_experiment_5_30_19,3.1.0,59.9426601772025,
,,,C,U,y,n,,,,,,,,,,20,7,407,8,,,,,,,,,,,,,n,1,2.81858586456201,7182.568540812732,None,,,,,001,52,2019_Oct_23_1105,ACPT_experiment_5_30_19,3.1.0,59.9426601772025,
,,,C,U,d,n,,,,,,,,,,20,8,408,6,,,,,,,,,,,,,n,1,1.4511205001372218,7188.656232350927,None,,,,,001,52,2019_Oct_23_1105,ACPT_experiment_5_30_19,3.1.0,59.9426601772025,
,,,C,U,g,n,,,,,,,,,,20,9,409,7,,,,,,,,,,,,,n,1,1.501196401528432,7193.376484182356,None,,,,,001,52,2019_Oct_23_1105,ACPT_experiment_5_30_19,3.1.0,59.9426601772025,
,,,C,D,y,b,,,,,,,,,,20,10,410,2,,,,,,,,,,,,,b,1,1.751349517379822,7198.163454378117,None,,,,,001,52,2019_Oct_23_1105,ACPT_experiment_5_30_19,3.1.0,59.9426601772025,
,,,C,G,g,v,,,,,,,,,,20,11,411,4,,,,,,,,,,,,,v,1,0.7339020076660745,7203.200608478921,None,,,,,001,52,2019_Oct_23_1105,ACPT_experiment_5_30_19,3.1.0,59.9426601772025,
,,,C,G,g,v,,,,,,,,,,20,12,412,13,,,,,,,,,,,,,v,1,2.481909086764972,7207.240338608649,None,,,,,001,52,2019_Oct_23_1105,ACPT_experiment_5_30_19,3.1.0,59.9426601772025,
,,,C,D,g,b,,,,,,,,,,20,13,413,10,,,,,,,,,,,,,b,1,2.7520960043175364,7213.008054391822,None,,,,,001,52,2019_Oct_23_1105,ACPT_experiment_5_30_19,3.1.0,59.9426601772025,
,,,C,G,d,b,,,,,,,,,,20,14,414,3,,,,,,,,,,,,,b,1,2.1516482328970596,7219.045970072303,None,,,,,001,52,2019_Oct_23_1105,ACPT_experiment_5_30_19,3.1.0,59.9426601772025,
,,,C,G,y,b,,,,,,,,,,20,15,415,5,,,,,,,,,,,,,b,1,0.9673839843690075,7224.483447942573,None,,,,,001,52,2019_Oct_23_1105,ACPT_experiment_5_30_19,3.1.0,59.9426601772025,
,,,C,G,g,v,,,,,,,,,,20,16,416,19,,,,,,,,,,,,,v,1,0.8003803974279435,7228.753577809567,None,,,,,001,52,2019_Oct_23_1105,ACPT_experiment_5_30_19,3.1.0,59.9426601772025,
,,,C,U,y,n,,,,,,,,,,20,17,417,17,,,,,,,,,,,,,n,1,4.520114246007324,7232.839773053482,None,,,,,001,52,2019_Oct_23_1105,ACPT_experiment_5_30_19,3.1.0,59.9426601772025,
,,,C,U,g,n,,,,,,,,,,20,18,418,16,,,,,,,,,,,,,n,1,1.2009519896910206,7240.628995689815,None,,,,,001,52,2019_Oct_23_1105,ACPT_experiment_5_30_19,3.1.0,59.9426601772025,
,,,C,D,g,b,,,,,,,,,,20,19,419,1,,,,,,,,,,,,,b,1,3.1854946087223652,7245.132707749307,None,,,,,001,52,2019_Oct_23_1105,ACPT_experiment_5_30_19,3.1.0,59.9426601772025,
,,,C,U,g,n,,,,,,,,,,21,0,420,16,,,,,,,,,,,,,n,1,1.5678616394152414,7251.6040283731445,None,,,,,001,52,2019_Oct_23_1105,ACPT_experiment_5_30_19,3.1.0,59.9426601772025,
,,,C,U,d,n,,,,,,,,,,21,1,421,6,,,,,,,,,,,,,n,1,1.2509626904438846,7256.441023456836,None,,,,,001,52,2019_Oct_23_1105,ACPT_experiment_5_30_19,3.1.0,59.9426601772025,
,,,C,U,y,n,,,,,,,,,,21,2,422,17,,,,,,,,,,,,,n,1,1.5145205745748171,7260.997810043374,None,,,,,001,52,2019_Oct_23_1105,ACPT_experiment_5_30_19,3.1.0,59.9426601772025,
,,,C,U,g,n,,,,,,,,,,21,3,423,7,,,,,,,,,,,,,n,1,0.833994948761756,7265.781429650775,None,,,,,001,52,2019_Oct_23_1105,ACPT_experiment_5_30_19,3.1.0,59.9426601772025,
,,,C,D,y,b,,,,,,,,,,21,4,424,11,,,,,,,,,,,,,b,1,1.1003923810640117,7269.934891125499,None,,,,,001,52,2019_Oct_23_1105,ACPT_experiment_5_30_19,3.1.0,59.9426601772025,
,,,C,G,g,v,,,,,,,,,,21,5,425,13,,,,,,,,,,,,,v,1,1.3010147453051104,7274.321265278759,None,,,,,001,52,2019_Oct_23_1105,ACPT_experiment_5_30_19,3.1.0,59.9426601772025,
,,,C,G,y,b,,,,,,,,,,21,6,426,14,,,,,,,,,,,,,b,1,1.3643879546652897,7278.928085205161,None,,,,,001,52,2019_Oct_23_1105,ACPT_experiment_5_30_19,3.1.0,59.9426601772025,
,,,C,D,y,b,,,,,,,,,,21,7,427,2,,,,,,,,,,,,,b,1,1.334340421588422,7283.578304608327,None,,,,,001,52,2019_Oct_23_1105,ACPT_experiment_5_30_19,3.1.0,59.9426601772025,
,,,C,D,g,b,,,,,,,,,,21,8,428,10,,,,,,,,,,,,,b,1,2.0513011300536164,7288.198735771696,None,,,,,001,52,2019_Oct_23_1105,ACPT_experiment_5_30_19,3.1.0,59.9426601772025,
,,,C,U,y,n,,,,,,,,,,21,9,429,8,,,,,,,,,,,,,n,1,1.5345118147479297,7293.535846616706,None,,,,,001,52,2019_Oct_23_1105,ACPT_experiment_5_30_19,3.1.0,59.9426601772025,
,,,C,G,g,v,,,,,,,,,,21,10,430,19,,,,,,,,,,,,,v,1,0.8006227868381757,7298.356178107618,None,,,,,001,52,2019_Oct_23_1105,ACPT_experiment_5_30_19,3.1.0,59.9426601772025,
,,,C,D,g,b,,,,,,,,,,21,11,431,1,,,,,,,,,,,,,b,1,4.33330053177815,7302.462625092406,None,,,,,001,52,2019_Oct_23_1105,ACPT_experiment_5_30_19,3.1.0,59.9426601772025,
,,,C,D,d,v,,,,,,,,,,21,12,432,0,,,,,,,,,,,,,v,1,1.0007742575808152,7310.065062388861,None,,,,,001,52,2019_Oct_23_1105,ACPT_experiment_5_30_19,3.1.0,59.9426601772025,
,,,C,D,d,v,,,,,,,,,,21,13,433,9,,,,,,,,,,,,,v,1,0.7672599824145436,7314.3516481725255,None,,,,,001,52,2019_Oct_23_1105,ACPT_experiment_5_30_19,3.1.0,59.9426601772025,
,,,C,G,d,b,,,,,,,,,,21,14,434,3,,,,,,,,,,,,,b,1,1.0341216674096358,7318.404728132959,None,,,,,001,52,2019_Oct_23_1105,ACPT_experiment_5_30_19,3.1.0,59.9426601772025,
,,,C,G,g,v,,,,,,,,,,21,15,435,4,,,,,,,,,,,,,v,1,0.9337917702905543,7322.724944164407,None,,,,,001,52,2019_Oct_23_1105,ACPT_experiment_5_30_19,3.1.0,59.9426601772025,
,,,C,G,y,b,,,,,,,,,,21,16,436,5,,,,,,,,,,,,,b,1,0.8339861949725673,7326.927859719619,None,,,,,001,52,2019_Oct_23_1105,ACPT_experiment_5_30_19,3.1.0,59.9426601772025,
,,,C,D,d,v,,,,,,,,,,21,17,437,18,,,,,,,,,,,,,v,1,2.0012614512397704,7331.064607191812,None,,,,,001,52,2019_Oct_23_1105,ACPT_experiment_5_30_19,3.1.0,59.9426601772025,
,,,C,G,d,b,,,,,,,,,,21,18,438,12,,,,,,,,,,,,,b,1,1.4677955633978854,7336.351685904377,None,,,,,001,52,2019_Oct_23_1105,ACPT_experiment_5_30_19,3.1.0,59.9426601772025,
,,,C,U,d,n,,,,,,,,,,21,19,439,15,,,,,,,,,,,,,n,1,1.3844030413683868,7341.105289069747,None,,,,,001,52,2019_Oct_23_1105,ACPT_experiment_5_30_19,3.1.0,59.9426601772025,
,,,C,U,g,n,,,,,,,,,,22,0,440,16,,,,,,,,,,,,,n,1,1.067219141458736,7345.775770174994,None,,,,,001,52,2019_Oct_23_1105,ACPT_experiment_5_30_19,3.1.0,59.9426601772025,
,,,C,U,d,n,,,,,,,,,,22,1,441,6,,,,,,,,,,,,,n,1,1.1008481818225846,7350.112126081131,None,,,,,001,52,2019_Oct_23_1105,ACPT_experiment_5_30_19,3.1.0,59.9426601772025,
,,,C,U,y,n,,,,,,,,,,22,2,442,17,,,,,,,,,,,,,n,1,0.9838205823316457,7354.499059269493,None,,,,,001,52,2019_Oct_23_1105,ACPT_experiment_5_30_19,3.1.0,59.9426601772025,
,,,C,G,d,b,,,,,,,,,,22,3,443,12,,,,,,,,,,,,,b,1,1.0174743747911634,7358.768697113152,None,,,,,001,52,2019_Oct_23_1105,ACPT_experiment_5_30_19,3.1.0,59.9426601772025,
,,,C,U,y,n,,,,,,,,,,22,4,444,8,,,,,,,,,,,,,v,0,3.7859508320771056,7363.0889212946795,None,,,,,001,52,2019_Oct_23_1105,ACPT_experiment_5_30_19,3.1.0,59.9426601772025,
,,,C,D,g,b,,,,,,,,,,22,5,445,10,,,,,,,,,,,,,b,1,7.322275284943316,7370.160680936148,None,,,,,001,52,2019_Oct_23_1105,ACPT_experiment_5_30_19,3.1.0,59.9426601772025,
,,,C,G,y,b,,,,,,,,,,22,6,446,14,,,,,,,,,,,,,b,1,0.8840074606432609,7380.768733637583,None,,,,,001,52,2019_Oct_23_1105,ACPT_experiment_5_30_19,3.1.0,59.9426601772025,
,,,C,D,y,b,,,,,,,,,,22,7,447,2,,,,,,,,,,,,,b,1,6.655050287501581,7384.955259080472,None,,,,,001,52,2019_Oct_23_1105,ACPT_experiment_5_30_19,3.1.0,59.9426601772025,
,,,C,G,g,v,,,,,,,,,,22,8,448,4,,,,,,,,,,,,,v,1,0.8838188013887702,7394.896292951298,None,,,,,001,52,2019_Oct_23_1105,ACPT_experiment_5_30_19,3.1.0,59.9426601772025,
,,,C,D,g,b,,,,,,,,,,22,9,449,1,,,,,,,,,,,,,b,1,1.7847171514813454,7399.065942597479,None,,,,,001,52,2019_Oct_23_1105,ACPT_experiment_5_30_19,3.1.0,59.9426601772025,
,,,C,G,g,v,,,,,,,,,,22,10,450,13,,,,,,,,,,,,,v,1,0.8840264774962634,7404.1364721806085,None,,,,,001,52,2019_Oct_23_1105,ACPT_experiment_5_30_19,3.1.0,59.9426601772025,
,,,C,U,g,n,,,,,,,,,,22,11,451,7,,,,,,,,,,,,,n,1,2.051294187393978,7408.323255407503,None,,,,,001,52,2019_Oct_23_1105,ACPT_experiment_5_30_19,3.1.0,59.9426601772025,
,,,C,G,d,b,,,,,,,,,,22,12,452,3,,,,,,,,,,,,,b,1,6.087970150181718,7413.6603650450925,None,,,,,001,52,2019_Oct_23_1105,ACPT_experiment_5_30_19,3.1.0,59.9426601772025,
,,,C,D,d,v,,,,,,,,,,22,13,453,9,,,,,,,,,,,,,v,1,3.5360337666861597,7423.034145815795,None,,,,,001,52,2019_Oct_23_1105,ACPT_experiment_5_30_19,3.1.0,59.9426601772025,
,,,C,D,d,v,,,,,,,,,,22,14,454,18,,,,,,,,,,,,,v,1,1.0508148419594363,7429.839307895224,None,,,,,001,52,2019_Oct_23_1105,ACPT_experiment_5_30_19,3.1.0,59.9426601772025,
,,,C,D,d,v,,,,,,,,,,22,15,455,0,,,,,,,,,,,,,v,1,0.7836727338471974,7434.176209252997,None,,,,,001,52,2019_Oct_23_1105,ACPT_experiment_5_30_19,3.1.0,59.9426601772025,
,,,C,G,g,v,,,,,,,,,,22,16,456,19,,,,,,,,,,,,,v,1,0.7839371586587731,7438.245695927768,None,,,,,001,52,2019_Oct_23_1105,ACPT_experiment_5_30_19,3.1.0,59.9426601772025,
,,,C,U,d,n,,,,,,,,,,22,17,457,15,,,,,,,,,,,,,n,1,1.0005031919636167,7442.332398589614,None,,,,,001,52,2019_Oct_23_1105,ACPT_experiment_5_30_19,3.1.0,59.9426601772025,
,,,C,D,y,b,,,,,,,,,,22,18,458,11,,,,,,,,,,,,,b,1,3.9197020934543616,7446.618720552177,None,,,,,001,52,2019_Oct_23_1105,ACPT_experiment_5_30_19,3.1.0,59.9426601772025,
,,,C,G,y,b,,,,,,,,,,22,19,459,5,,,,,,,,,,,,,b,1,1.2342858160545802,7453.824185573091,None,,,,,001,52,2019_Oct_23_1105,ACPT_experiment_5_30_19,3.1.0,59.9426601772025,
,,,C,D,g,b,,,,,,,,,,23,0,460,10,,,,,,,,,,,,,b,1,1.9179039443670263,7458.361239307171,None,,,,,001,52,2019_Oct_23_1105,ACPT_experiment_5_30_19,3.1.0,59.9426601772025,
,,,C,D,d,v,,,,,,,,,,23,1,461,0,0,0,0,0,0,0,0,0,,,,,v,1,1.067493225623366,7463.54823443614,None,,,,,001,52,2019_Oct_23_1105,ACPT_experiment_5_30_19,3.1.0,59.9426601772025,
,,,C,D,d,v,R,U,y,L,u,,,,,23,1,461,0,0,0,0,0,,,,,0,0,0,30,,,,,,down,1.117281157527941,7503.395389952642,None,001,52,2019_Oct_23_1105,ACPT_experiment_5_30_19,3.1.0,59.9426601772025,
,,,C,D,d,v,L,D,y,L,y,,,,,23,1,461,0,0,0,0,0,,,,,0,1,1,32,,,,,,down,1.3176547934090195,7505.813657481124,None,001,52,2019_Oct_23_1105,ACPT_experiment_5_30_19,3.1.0,59.9426601772025,
,,,C,D,d,v,L,D,y,R,y,,,,,23,1,461,0,0,0,0,0,,,,,0,2,2,33,,,,,,down,1.0342197702220801,7508.415518536753,None,001,52,2019_Oct_23_1105,ACPT_experiment_5_30_19,3.1.0,59.9426601772025,
,,,C,D,d,v,R,G,d,R,i,,,,,23,1,461,0,0,0,0,0,,,,,0,3,3,5,,,,,,up,0.8506362042844557,7510.750739468815,None,001,52,2019_Oct_23_1105,ACPT_experiment_5_30_19,3.1.0,59.9426601772025,
,,,C,D,d,v,R,D,g,R,i,,,,,23,1,461,0,0,0,0,0,,,,,0,4,4,3,,,,,,up,0.9840831960145806,7512.885687282645,None,001,52,2019_Oct_23_1105,ACPT_experiment_5_30_19,3.1.0,59.9426601772025,
,,,C,D,d,v,L,U,d,R,u,,,,,23,1,461,0,0,0,0,0,,,,,0,5,5,21,,,,,,up,3.2357956938003554,7515.154076051112,None,001,52,2019_Oct_23_1105,ACPT_experiment_5_30_19,3.1.0,59.9426601772025,
,,,C,D,d,v,L,G,d,R,i,,,,,23,1,461,0,0,0,0,0,,,,,0,6,6,17,,,,,,up,0.6838587065949469,7519.6574904817635,None,001,52,2019_Oct_23_1105,ACPT_experiment_5_30_19,3.1.0,59.9426601772025,
,,,C,D,d,v,L,U,g,R,u,,,,,23,1,461,0,0,0,0,0,,,,,0,7,7,23,,,,,,up,1.1175144912940596,7521.625656873793,None,001,52,2019_Oct_23_1105,ACPT_experiment_5_30_19,3.1.0,59.9426601772025,
,,,C,D,d,v,R,G,y,L,y,,,,,23,1,461,0,0,0,0,0,,,,,0,8,8,28,,,,,,down,0.5837835749325677,7524.027473617135,None,001,52,2019_Oct_23_1105,ACPT_experiment_5_30_19,3.1.0,59.9426601772025,
,,,C,D,d,v,L,G,g,L,c ,,,,,23,1,461,0,0,0,0,0,,,,,0,9,9,18,,,,,,up,0.8334971901849713,7525.9126779320895,None,001,52,2019_Oct_23_1105,ACPT_experiment_5_30_19,3.1.0,59.9426601772025,
,,,C,D,d,v,R,U,y,R,u,,,,,23,1,461,0,0,0,0,0,,,,,0,10,10,31,,,,,,down,0.7338449571079764,7528.030562497378,None,001,52,2019_Oct_23_1105,ACPT_experiment_5_30_19,3.1.0,59.9426601772025,
,,,C,D,d,v,L,D,d,R,c ,,,,,23,1,461,0,0,0,0,0,,,,,0,11,11,13,,,,,,up,0.9840768570638829,7530.048717252904,None,001,52,2019_Oct_23_1105,ACPT_experiment_5_30_19,3.1.0,59.9426601772025,
,,,C,D,d,v,L,U,d,L,u,,,,,23,1,461,0,0,0,0,0,,,,,0,12,12,20,,,,,,up,0.9973056439903303,7532.353915705838,None,001,52,2019_Oct_23_1105,ACPT_experiment_5_30_19,3.1.0,59.9426601772025,
,,,C,D,d,v,R,G,g,R,c ,,,,,23,1,461,0,0,0,0,0,,,,,0,13,13,7,,,,,,up,0.717214266503106,7534.635529337118,None,001,52,2019_Oct_23_1105,ACPT_experiment_5_30_19,3.1.0,59.9426601772025,
,,,C,D,d,v,R,U,g,R,u,,,,,23,1,461,0,0,0,0,0,,,,,0,14,14,11,,,,,,up,0.6838692715127763,7536.620372301682,None,001,52,2019_Oct_23_1105,ACPT_experiment_5_30_19,3.1.0,59.9426601772025,
,,,C,D,d,v,L,G,g,R,c ,,,,,23,1,461,0,0,0,0,0,,,,,0,15,15,19,,,,,,up,0.6338138962482844,7538.588535373308,None,001,52,2019_Oct_23_1105,ACPT_experiment_5_30_19,3.1.0,59.9426601772025,
,,,C,D,d,v,L,D,d,L,c ,,,,,23,1,461,0,0,0,0,0,,,,,0,16,16,12,,,,,,up,0.6838544806278151,7540.506656049427,None,001,52,2019_Oct_23_1105,ACPT_experiment_5_30_19,3.1.0,59.9426601772025,
,,,C,D,d,v,L,D,g,R,i,,,,,23,1,461,0,0,0,0,0,,,,,0,17,17,15,,,,,,up,0.5003832046777461,7542.474817611779,None,001,52,2019_Oct_23_1105,ACPT_experiment_5_30_19,3.1.0,59.9426601772025,
,,,C,D,d,v,R,G,y,R,y,,,,,23,1,461,0,0,0,0,0,,,,,0,18,18,29,,,,,,down,0.650577704823263,7544.259507596327,None,001,52,2019_Oct_23_1105,ACPT_experiment_5_30_19,3.1.0,59.9426601772025,
,,,C,D,d,v,R,D,g,L,i,,,,,23,1,461,0,0,0,0,0,,,,,0,19,19,2,,,,,,up,0.5504180538155197,7546.194296694902,None,001,52,2019_Oct_23_1105,ACPT_experiment_5_30_19,3.1.0,59.9426601772025,
,,,C,D,d,v,R,D,y,L,y,,,,,23,1,461,0,0,0,0,0,,,,,0,20,20,26,,,,,,down,0.6338286871332457,7548.029015793346,None,001,52,2019_Oct_23_1105,ACPT_experiment_5_30_19,3.1.0,59.9426601772025,
,,,C,D,d,v,L,G,y,L,y,,,,,23,1,461,0,0,0,0,0,,,,,0,21,21,34,,,,,,down,0.5670952300606587,7549.963836586674,None,001,52,2019_Oct_23_1105,ACPT_experiment_5_30_19,3.1.0,59.9426601772025,
,,,C,D,d,v,L,G,y,R,y,,,,,23,1,461,0,0,0,0,0,,,,,0,22,22,35,,,,,,down,0.8003390433195818,7551.8155132844795,None,001,52,2019_Oct_23_1105,ACPT_experiment_5_30_19,3.1.0,59.9426601772025,
,,,C,D,d,v,R,U,d,L,u,,,,,23,1,461,0,0,0,0,0,,,,,0,23,23,8,,,,,,up,0.6004501862589677,7553.900159409524,None,001,52,2019_Oct_23_1105,ACPT_experiment_5_30_19,3.1.0,59.9426601772025,
,,,C,D,d,v,R,U,d,R,u,,,,,23,1,461,0,0,0,0,0,,,,,0,24,24,9,,,,,,up,0.48386570962611586,7555.768090083134,None,001,52,2019_Oct_23_1105,ACPT_experiment_5_30_19,3.1.0,59.9426601772025,
,,,C,D,d,v,R,G,g,L,c ,,,,,23,1,461,0,0,0,0,0,,,,,0,25,25,6,,,,,,up,0.7673170329717323,7557.536252611421,None,001,52,2019_Oct_23_1105,ACPT_experiment_5_30_19,3.1.0,59.9426601772025,
,,,C,D,d,v,R,D,y,R,y,,,,,23,1,461,0,0,0,0,0,,,,,0,26,26,27,,,,,,down,0.7505797876210636,7559.5878127329,None,001,52,2019_Oct_23_1105,ACPT_experiment_5_30_19,3.1.0,59.9426601772025,
,,,C,D,d,v,L,D,g,L,i,,,,,23,1,461,0,0,0,0,0,,,,,0,27,27,14,,,,,,up,0.6337960868149821,7561.622681490958,None,001,52,2019_Oct_23_1105,ACPT_experiment_5_30_19,3.1.0,59.9426601772025,
,,,C,D,d,v,L,U,y,L,u,,,,,23,1,461,0,0,0,0,0,,,,,0,28,28,24,,,,,,down,0.8506730305707606,7563.5408066948985,None,001,52,2019_Oct_23_1105,ACPT_experiment_5_30_19,3.1.0,59.9426601772025,
,,,C,D,d,v,R,D,d,R,c ,,,,,23,1,461,0,0,0,0,0,,,,,0,29,29,1,,,,,,up,0.583804101059286,7565.67576960147,None,001,52,2019_Oct_23_1105,ACPT_experiment_5_30_19,3.1.0,59.9426601772025,
,,,C,D,d,v,L,U,y,R,u,,,,,23,1,461,0,0,0,0,0,,,,,0,30,30,25,,,,,,down,0.7338896316186947,7567.5438481839365,None,001,52,2019_Oct_23_1105,ACPT_experiment_5_30_19,3.1.0,59.9426601772025,
,,,C,D,d,v,R,U,g,L,u,,,,,23,1,461,0,0,0,0,0,,,,,0,31,31,10,,,,,,up,0.48368791714437975,7569.562062103005,None,001,52,2019_Oct_23_1105,ACPT_experiment_5_30_19,3.1.0,59.9426601772025,
,,,C,D,d,v,L,G,d,L,i,,,,,23,1,461,0,0,0,0,0,,,,,0,32,32,16,,,,,,up,0.8006040718400982,7571.330053479616,None,001,52,2019_Oct_23_1105,ACPT_experiment_5_30_19,3.1.0,59.9426601772025,
,,,C,D,d,v,R,G,d,L,i,,,,,23,1,461,0,0,0,0,0,,,,,0,33,33,4,,,,,,up,0.6671634190615805,7573.414977914793,None,001,52,2019_Oct_23_1105,ACPT_experiment_5_30_19,3.1.0,59.9426601772025,
,,,C,D,d,v,R,D,d,L,c,,,,,23,1,461,0,0,0,0,0,,,,,0,34,34,0,,,,,,down,0.6838556880466058,7575.366451735982,None,001,52,2019_Oct_23_1105,ACPT_experiment_5_30_19,3.1.0,59.9426601772025,
,,,C,D,d,v,L,U,g,L,u,,,,,23,1,461,0,0,0,0,0,,,,,0,35,35,22,,,,,,up,0.6171475867759,7577.33460363898,None,001,52,2019_Oct_23_1105,ACPT_experiment_5_30_19,3.1.0,59.9426601772025,
,,,C,D,d,v,L,U,y,R,u,,,,,23,1,461,0,0,0,0,0,,,,,1,0,36,25,,,,,,down,0.8006273146602325,7579.236037479501,None,001,52,2019_Oct_23_1105,ACPT_experiment_5_30_19,3.1.0,59.9426601772025,
,,,C,D,d,v,R,G,d,L,i,,,,,23,1,461,0,0,0,0,0,,,,,1,1,37,4,,,,,,up,0.6338108777008529,7581.354333472891,None,001,52,2019_Oct_23_1105,ACPT_experiment_5_30_19,3.1.0,59.9426601772025,
,,,C,D,d,v,L,G,g,L,c ,,,,,23,1,461,0,0,0,0,0,,,,,1,2,38,18,,,,,,up,0.5504183556695352,7583.2724550545745,None,001,52,2019_Oct_23_1105,ACPT_experiment_5_30_19,3.1.0,59.9426601772025,
,,,C,D,d,v,R,U,g,R,u,,,,,23,1,461,0,0,0,0,0,,,,,1,3,39,11,,,,,,up,0.6671827377685986,7585.1071702289055,None,001,52,2019_Oct_23_1105,ACPT_experiment_5_30_19,3.1.0,59.9426601772025,
,,,C,D,d,v,L,G,d,R,i,,,,,23,1,461,0,0,0,0,0,,,,,1,4,40,17,,,,,,up,0.5670973430442245,7587.058663670658,None,001,52,2019_Oct_23_1105,ACPT_experiment_5_30_19,3.1.0,59.9426601772025,
,,,C,D,d,v,R,G,d,R,i,,,,,23,1,461,0,0,0,0,0,,,,,1,5,41,5,,,,,,up,0.4302022638503331,7588.930194868408,None,001,52,2019_Oct_23_1105,ACPT_experiment_5_30_19,3.1.0,59.9426601772025,
,,,C,D,d,v,L,G,d,L,i,,,,,23,1,461,0,0,0,0,0,,,,,1,6,42,16,,,,,,up,0.46702402251048625,7590.644729871642,None,001,52,2019_Oct_23_1105,ACPT_experiment_5_30_19,3.1.0,59.9426601772025,
,,,C,D,d,v,R,D,g,L,i,,,,,23,1,461,0,0,0,0,0,,,,,1,7,43,2,,,,,,up,0.6004806735954844,7592.396023244028,None,001,52,2019_Oct_23_1105,ACPT_experiment_5_30_19,3.1.0,59.9426601772025,
,,,C,D,d,v,L,U,d,L,u,,,,,23,1,461,0,0,0,0,0,,,,,1,8,44,20,,,,,,up,0.6338289889881707,7594.280808584509,None,001,52,2019_Oct_23_1105,ACPT_experiment_5_30_19,3.1.0,59.9426601772025,
,,,C,D,d,v,R,U,g,L,u,,,,,23,1,461,0,0,0,0,0,,,,,1,9,45,10,,,,,,up,0.4667982351156752,7596.215835242817,None,001,52,2019_Oct_23_1105,ACPT_experiment_5_30_19,3.1.0,59.9426601772025,
,,,C,D,d,v,L,U,d,R,u,,,,,23,1,461,0,0,0,0,0,,,,,1,10,46,21,,,,,,up,0.7672424748352569,7597.966944181915,None,001,52,2019_Oct_23_1105,ACPT_experiment_5_30_19,3.1.0,59.9426601772025,
,,,C,D,d,v,L,U,g,R,u,,,,,23,1,461,0,0,0,0,0,,,,,1,11,47,23,,,,,,up,0.4503857855361275,7600.001796941668,None,001,52,2019_Oct_23_1105,ACPT_experiment_5_30_19,3.1.0,59.9426601772025,
,,,C,D,d,v,L,U,g,L,u,,,,,23,1,461,0,0,0,0,0,,,,,1,12,48,22,,,,,,up,0.48385665398200217,7601.719636349477,None,001,52,2019_Oct_23_1105,ACPT_experiment_5_30_19,3.1.0,59.9426601772025,
,,,C,D,d,v,L,D,d,L,c ,,,,,23,1,461,0,0,0,0,0,,,,,1,13,49,12,,,,,,up,0.45005736750681535,7603.5047625142215,None,001,52,2019_Oct_23_1105,ACPT_experiment_5_30_19,3.1.0,59.9426601772025,
,,,C,D,d,v,L,G,y,R,y,,,,,23,1,461,0,0,0,0,0,,,,,1,14,50,35,,,,,,down,0.6004522992434431,7605.2391275671625,None,001,52,2019_Oct_23_1105,ACPT_experiment_5_30_19,3.1.0,59.9426601772025,
,,,C,D,d,v,R,G,y,L,y,,,,,23,1,461,0,0,0,0,0,,,,,1,15,51,28,,,,,,down,0.6504952984605552,7607.123889966679,None,001,52,2019_Oct_23_1105,ACPT_experiment_5_30_19,3.1.0,59.9426601772025,
,,,C,D,d,v,R,U,d,R,u,,,,,23,1,461,0,0,0,0,0,,,,,1,16,52,9,,,,,,up,0.6338024257656798,7609.058706232185,None,001,52,2019_Oct_23_1105,ACPT_experiment_5_30_19,3.1.0,59.9426601772025,
,,,C,D,d,v,L,G,g,R,c ,,,,,23,1,461,0,0,0,0,0,,,,,1,17,53,19,,,,,,up,0.5504177519605946,7610.976817550804,None,001,52,2019_Oct_23_1105,ACPT_experiment_5_30_19,3.1.0,59.9426601772025,
,,,C,D,d,v,L,D,g,L,i,,,,,23,1,461,0,0,0,0,0,,,,,1,18,54,14,,,,,,up,0.5337472165210784,7612.811544195619,None,001,52,2019_Oct_23_1105,ACPT_experiment_5_30_19,3.1.0,59.9426601772025,
,,,C,D,d,v,R,U,d,L,u,,,,,23,1,461,0,0,0,0,0,,,,,1,19,55,8,,,,,,up,0.5003792805655394,7614.6295921549145,None,001,52,2019_Oct_23_1105,ACPT_experiment_5_30_19,3.1.0,59.9426601772025,
,,,C,D,d,v,L,G,y,L,y,,,,,23,1,461,0,0,0,0,0,,,,,1,20,56,34,,,,,,down,0.9673335746156226,7616.464377661417,None,001,52,2019_Oct_23_1105,ACPT_experiment_5_30_19,3.1.0,59.9426601772025,
,,,C,D,d,v,L,U,y,L,u,,,,,23,1,461,0,0,0,0,0,,,,,1,21,57,24,,,,,,down,0.7005325624359102,7618.732707266339,None,001,52,2019_Oct_23_1105,ACPT_experiment_5_30_19,3.1.0,59.9426601772025,
,,,C,D,d,v,R,D,d,R,c ,,,,,23,1,461,0,0,0,0,0,,,,,1,22,58,1,,,,,,up,0.5837778396908107,7620.717544193808,None,001,52,2019_Oct_23_1105,ACPT_experiment_5_30_19,3.1.0,59.9426601772025,
,,,C,D,d,v,R,D,y,R,y,,,,,23,1,461,0,0,0,0,0,,,,,1,23,59,27,,,,,,down,0.667171569140919,7622.585630322644,None,001,52,2019_Oct_23_1105,ACPT_experiment_5_30_19,3.1.0,59.9426601772025,
,,,C,D,d,v,R,G,y,R,y,,,,,23,1,461,0,0,0,0,0,,,,,1,24,60,29,,,,,,down,0.900706974143759,7624.5537653217725,None,001,52,2019_Oct_23_1105,ACPT_experiment_5_30_19,3.1.0,59.9426601772025,
,,,C,D,d,v,R,D,y,L,y,,,,,23,1,461,0,0,0,0,0,,,,,1,25,61,26,,,,,,down,0.6504949966056301,7626.738780886916,None,001,52,2019_Oct_23_1105,ACPT_experiment_5_30_19,3.1.0,59.9426601772025,
,,,C,D,d,v,L,D,d,R,c ,,,,,23,1,461,0,0,0,0,0,,,,,1,26,62,13,,,,,,up,0.6171306829073728,7628.673588096778,None,001,52,2019_Oct_23_1105,ACPT_experiment_5_30_19,3.1.0,59.9426601772025,
,,,C,D,d,v,R,G,g,R,c ,,,,,23,1,461,0,0,0,0,0,,,,,1,27,63,7,,,,,,up,0.5504240909112923,7630.575030389233,None,001,52,2019_Oct_23_1105,ACPT_experiment_5_30_19,3.1.0,59.9426601772025,
,,,C,D,d,v,R,D,d,L,c,,,,,23,1,461,0,0,0,0,0,,,,,1,28,64,0,,,,,,up,0.6505285024886689,7632.409734394937,None,001,52,2019_Oct_23_1105,ACPT_experiment_5_30_19,3.1.0,59.9426601772025,
,,,C,D,d,v,L,D,y,R,y,,,,,23,1,461,0,0,0,0,0,,,,,1,29,65,33,,,,,,down,0.683848745386058,7634.344554584556,None,001,52,2019_Oct_23_1105,ACPT_experiment_5_30_19,3.1.0,59.9426601772025,
,,,C,D,d,v,L,D,g,R,i,,,,,23,1,461,0,0,0,0,0,,,,,1,30,66,15,,,,,,up,0.5004130883035032,7636.29601995381,None,001,52,2019_Oct_23_1105,ACPT_experiment_5_30_19,3.1.0,59.9426601772025,
,,,C,D,d,v,R,G,g,L,c ,,,,,23,1,461,0,0,0,0,0,,,,,1,31,67,6,,,,,,up,0.4837280638339507,7638.064022197195,None,001,52,2019_Oct_23_1105,ACPT_experiment_5_30_19,3.1.0,59.9426601772025,
,,,C,D,d,v,R,U,y,R,u,,,,,23,1,461,0,0,0,0,0,,,,,1,32,68,31,,,,,,down,0.6338141981032095,7639.832054927916,None,001,52,2019_Oct_23_1105,ACPT_experiment_5_30_19,3.1.0,59.9426601772025,
,,,C,D,d,v,L,D,y,L,y,,,,,23,1,461,0,0,0,0,0,,,,,1,33,69,32,,,,,,down,0.6502710203385504,7641.767104829043,None,001,52,2019_Oct_23_1105,ACPT_experiment_5_30_19,3.1.0,59.9426601772025,
,,,C,D,d,v,R,U,y,L,u,,,,,23,1,461,0,0,0,0,0,,,,,1,34,70,30,,,,,,down,0.6004507899697273,7643.7016608957065,None,001,52,2019_Oct_23_1105,ACPT_experiment_5_30_19,3.1.0,59.9426601772025,
,,,C,D,d,v,R,D,g,R,i,,,,,23,1,461,0,0,0,0,0,,,,,1,35,71,3,,,,,,up,0.6338090665713025,7645.586422691513,None,001,52,2019_Oct_23_1105,ACPT_experiment_5_30_19,3.1.0,59.9426601772025,
,,,C,D,d,v,,,,,,,,,,23,1,461,0,1,0,1,0,0,0,0,0,,,,,,,,,,,,,,001,52,2019_Oct_23_1105,ACPT_experiment_5_30_19,3.1.0,59.9426601772025,
,,,C,D,d,v,R,D,y,L,y,,,,,23,1,461,0,1,0,1,0,,,,,0,0,0,26,,,,,,down,0.6638439217458654,7659.900615512138,None,001,52,2019_Oct_23_1105,ACPT_experiment_5_30_19,3.1.0,59.9426601772025,
,,,C,D,d,v,R,G,y,L,y,,,,,23,1,461,0,1,0,1,0,,,,,0,1,1,28,,,,,,down,0.6004468658566111,7661.8487737601245,None,001,52,2019_Oct_23_1105,ACPT_experiment_5_30_19,3.1.0,59.9426601772025,
,,,C,D,d,v,L,D,y,R,y,,,,,23,1,461,0,1,0,1,0,,,,,0,2,2,33,,,,,,down,0.5671057949784881,7663.733553969074,None,001,52,2019_Oct_23_1105,ACPT_experiment_5_30_19,3.1.0,59.9426601772025,
,,,C,D,d,v,L,D,d,R,c ,,,,,23,1,461,0,1,0,1,0,,,,,0,3,3,13,,,,,,up,0.5170555512459032,7665.58493937699,None,001,52,2019_Oct_23_1105,ACPT_experiment_5_30_19,3.1.0,59.9426601772025,
,,,C,D,d,v,L,D,d,L,c ,,,,,23,1,461,0,1,0,1,0,,,,,0,4,4,12,,,,,,up,0.8173005667931648,7667.369612759524,None,001,52,2019_Oct_23_1105,ACPT_experiment_5_30_19,3.1.0,59.9426601772025,
,,,C,D,d,v,L,G,y,L,y,,,,,23,1,461,0,1,0,1,0,,,,,0,5,5,34,,,,,,down,0.6338422706003257,7669.471192939254,None,001,52,2019_Oct_23_1105,ACPT_experiment_5_30_19,3.1.0,59.9426601772025,
,,,C,D,d,v,L,G,y,R,y,,,,,23,1,461,0,1,0,1,0,,,,,0,6,6,35,,,,,,down,0.48369757649834355,7671.389348026821,None,001,52,2019_Oct_23_1105,ACPT_experiment_5_30_19,3.1.0,59.9426601772025,
,,,C,D,d,v,R,U,y,L,u,,,,,23,1,461,0,1,0,1,0,,,,,0,7,7,30,,,,,,down,0.650220610586075,7673.174303945454,None,001,52,2019_Oct_23_1105,ACPT_experiment_5_30_19,3.1.0,59.9426601772025,
,,,C,D,d,v,R,U,g,R,u,,,,,23,1,461,0,1,0,1,0,,,,,0,8,8,11,,,,,,up,0.5170818126143786,7675.092132124264,None,001,52,2019_Oct_23_1105,ACPT_experiment_5_30_19,3.1.0,59.9426601772025,
,,,C,D,d,v,R,U,d,R,u,,,,,23,1,461,0,1,0,1,0,,,,,0,9,9,9,,,,,,up,0.5003747527434825,7676.893524640861,None,001,52,2019_Oct_23_1105,ACPT_experiment_5_30_19,3.1.0,59.9426601772025,
,,,C,D,d,v,L,U,g,L,u,,,,,23,1,461,0,1,0,1,0,,,,,0,10,10,22,,,,,,up,0.6338199333440571,7678.678206777184,None,001,52,2019_Oct_23_1105,ACPT_experiment_5_30_19,3.1.0,59.9426601772025,
,,,C,D,d,v,R,G,g,R,c ,,,,,23,1,461,0,1,0,1,0,,,,,0,11,11,7,,,,,,up,0.5170875478552261,7680.579629147222,None,001,52,2019_Oct_23_1105,ACPT_experiment_5_30_19,3.1.0,59.9426601772025,
,,,C,D,d,v,R,D,d,R,c ,,,,,23,1,461,0,1,0,1,0,,,,,0,12,12,1,,,,,,up,0.5003629804059528,7682.381034643575,None,001,52,2019_Oct_23_1105,ACPT_experiment_5_30_19,3.1.0,59.9426601772025,
,,,C,D,d,v,R,U,g,L,u,,,,,23,1,461,0,1,0,1,0,,,,,0,13,13,10,,,,,,up,0.4503417147343498,7684.165710742802,None,001,52,2019_Oct_23_1105,ACPT_experiment_5_30_19,3.1.0,59.9426601772025,
,,,C,D,d,v,R,G,d,R,i,,,,,23,1,461,0,1,0,1,0,,,,,0,14,14,5,,,,,,up,0.4333883413410149,7685.9173144219285,None,001,52,2019_Oct_23_1105,ACPT_experiment_5_30_19,3.1.0,59.9426601772025,
,,,C,D,d,v,L,G,d,R,i,,,,,23,1,461,0,1,0,1,0,,,,,0,15,15,17,,,,,,up,0.40030414890406973,7687.635011957978,None,001,52,2019_Oct_23_1105,ACPT_experiment_5_30_19,3.1.0,59.9426601772025,
,,,C,D,d,v,R,G,g,L,c ,,,,,23,1,461,0,1,0,1,0,,,,,0,16,16,6,,,,,,up,0.4169725713591106,7689.319626810865,None,001,52,2019_Oct_23_1105,ACPT_experiment_5_30_19,3.1.0,59.9426601772025,
,,,C,D,d,v,L,G,g,R,c ,,,,,23,1,461,0,1,0,1,0,,,,,0,17,17,19,,,,,,up,0.4003017340646693,7691.020918839997,None,001,52,2019_Oct_23_1105,ACPT_experiment_5_30_19,3.1.0,59.9426601772025,
,,,C,D,d,v,L,G,d,L,i,,,,,23,1,461,0,1,0,1,0,,,,,0,18,18,16,,,,,,up,0.38335681260650745,7692.705794797291,None,001,52,2019_Oct_23_1105,ACPT_experiment_5_30_19,3.1.0,59.9426601772025,
,,,C,D,d,v,L,U,y,L,u,,,,,23,1,461,0,1,0,1,0,,,,,0,19,19,24,,,,,,down,0.6671706635761439,7694.373459899042,None,001,52,2019_Oct_23_1105,ACPT_experiment_5_30_19,3.1.0,59.9426601772025,
,,,C,D,d,v,L,G,g,L,c ,,,,,23,1,461,0,1,0,1,0,,,,,0,20,20,18,,,,,,up,0.4836945579500025,7696.324945190713,None,001,52,2019_Oct_23_1105,ACPT_experiment_5_30_19,3.1.0,59.9426601772025,
,,,C,D,d,v,R,D,g,R,i,,,,,23,1,461,0,1,0,1,0,,,,,0,21,21,3,,,,,,up,0.6505070707980849,7698.092947434098,None,001,52,2019_Oct_23_1105,ACPT_experiment_5_30_19,3.1.0,59.9426601772025,
,,,C,D,d,v,R,D,d,L,c,,,,,23,1,461,0,1,0,1,0,,,,,0,22,22,0,,,,,,up,0.48343013313933625,7700.028023898449,None,001,52,2019_Oct_23_1105,ACPT_experiment_5_30_19,3.1.0,59.9426601772025,
,,,C,D,d,v,L,U,d,L,u,,,,,23,1,461,0,1,0,1,0,,,,,0,23,23,20,,,,,,up,0.46702402251139574,7701.795756585491,None,001,52,2019_Oct_23_1105,ACPT_experiment_5_30_19,3.1.0,59.9426601772025,
,,,C,D,d,v,L,D,g,R,i,,,,,23,1,461,0,1,0,1,0,,,,,0,24,24,15,,,,,,up,0.4503405073155591,7703.5470904064205,None,001,52,2019_Oct_23_1105,ACPT_experiment_5_30_19,3.1.0,59.9426601772025,
,,,C,D,d,v,R,U,y,R,u,,,,,23,1,461,0,1,0,1,0,,,,,0,25,25,31,,,,,,down,0.6671709654310689,7705.281744636267,None,001,52,2019_Oct_23_1105,ACPT_experiment_5_30_19,3.1.0,59.9426601772025,
,,,C,D,d,v,L,U,g,R,u,,,,,23,1,461,0,1,0,1,0,,,,,0,26,26,23,,,,,,up,0.4834573000716773,7707.250146475046,None,001,52,2019_Oct_23_1105,ACPT_experiment_5_30_19,3.1.0,59.9426601772025,
,,,C,D,d,v,L,D,g,L,i,,,,,23,1,461,0,1,0,1,0,,,,,0,27,27,14,,,,,,up,0.40036965139734093,7709.017907838294,None,001,52,2019_Oct_23_1105,ACPT_experiment_5_30_19,3.1.0,59.9426601772025,
,,,C,D,d,v,R,D,y,R,y,,,,,23,1,461,0,1,0,1,0,,,,,0,28,28,27,,,,,,down,0.6171527183078069,7710.702524200455,None,001,52,2019_Oct_23_1105,ACPT_experiment_5_30_19,3.1.0,59.9426601772025,
,,,C,D,d,v,R,G,d,L,i,,,,,23,1,461,0,1,0,1,0,,,,,0,29,29,4,,,,,,up,0.43365487913524703,7712.603967096618,None,001,52,2019_Oct_23_1105,ACPT_experiment_5_30_19,3.1.0,59.9426601772025,
,,,C,D,d,v,R,D,g,L,i,,,,,23,1,461,0,1,0,1,0,,,,,0,30,30,2,,,,,,up,0.5001015741427182,7714.338891184662,None,001,52,2019_Oct_23_1105,ACPT_experiment_5_30_19,3.1.0,59.9426601772025,
,,,C,D,d,v,L,U,y,R,u,,,,,23,1,461,0,1,0,1,0,,,,,0,31,31,25,,,,,,down,0.6838550843367557,7716.123302255369,None,001,52,2019_Oct_23_1105,ACPT_experiment_5_30_19,3.1.0,59.9426601772025,
,,,C,D,d,v,R,G,y,R,y,,,,,23,1,461,0,1,0,1,0,,,,,0,32,32,29,,,,,,down,0.48369818020819366,7718.091465326995,None,001,52,2019_Oct_23_1105,ACPT_experiment_5_30_19,3.1.0,59.9426601772025,
,,,C,D,d,v,L,D,y,L,y,,,,,23,1,461,0,1,0,1,0,,,,,0,33,33,32,,,,,,down,0.46702190952782985,7719.859470890783,None,001,52,2019_Oct_23_1105,ACPT_experiment_5_30_19,3.1.0,59.9426601772025,
,,,C,D,d,v,R,U,d,L,u,,,,,23,1,461,0,1,0,1,0,,,,,0,34,34,8,,,,,,up,0.7836606596556521,7721.627751142445,None,001,52,2019_Oct_23_1105,ACPT_experiment_5_30_19,3.1.0,59.9426601772025,
,,,C,D,d,v,L,U,d,R,u,,,,,23,1,461,0,1,0,1,0,,,,,0,35,35,21,,,,,,up,0.5504165445418039,7723.679037179759,None,001,52,2019_Oct_23_1105,ACPT_experiment_5_30_19,3.1.0,59.9426601772025,
,,,C,D,d,v,L,G,d,R,i,,,,,23,1,461,0,1,0,1,0,,,,,1,0,36,17,,,,,,up,0.6338144999581345,7725.497084535345,None,001,52,2019_Oct_23_1105,ACPT_experiment_5_30_19,3.1.0,59.9426601772025,
,,,C,D,d,v,L,G,g,L,c ,,,,,23,1,461,0,1,0,1,0,,,,,1,1,37,18,,,,,,up,0.6171539257275072,7727.398507509091,None,001,52,2019_Oct_23_1105,ACPT_experiment_5_30_19,3.1.0,59.9426601772025,
,,,C,D,d,v,R,G,y,R,y,,,,,23,1,461,0,1,0,1,0,,,,,1,2,38,29,,,,,,down,0.6504983170079868,7729.299968818399,None,001,52,2019_Oct_23_1105,ACPT_experiment_5_30_19,3.1.0,59.9426601772025,
,,,C,D,d,v,R,G,d,R,i,,,,,23,1,461,0,1,0,1,0,,,,,1,3,39,5,,,,,,up,0.6171786778222668,7731.218074401777,None,001,52,2019_Oct_23_1105,ACPT_experiment_5_30_19,3.1.0,59.9426601772025,
,,,C,D,d,v,L,D,y,R,y,,,,,23,1,461,0,1,0,1,0,,,,,1,4,40,33,,,,,,down,0.5670013532153462,7733.1195221276175,None,001,52,2019_Oct_23_1105,ACPT_experiment_5_30_19,3.1.0,59.9426601772025,
,,,C,D,d,v,L,U,y,L,u,,,,,23,1,461,0,1,0,1,0,,,,,1,5,41,24,,,,,,down,0.7672427766901819,7735.02098373878,None,001,52,2019_Oct_23_1105,ACPT_experiment_5_30_19,3.1.0,59.9426601772025,
,,,C,D,d,v,L,G,y,L,y,,,,,23,1,461,0,1,0,1,0,,,,,1,6,42,34,,,,,,down,0.7005050936486441,7737.089243373759,None,001,52,2019_Oct_23_1105,ACPT_experiment_5_30_19,3.1.0,59.9426601772025,
,,,C,D,d,v,R,U,y,R,u,,,,,23,1,461,0,1,0,1,0,,,,,1,7,43,31,,,,,,down,0.6171337014557139,7739.074065510342,None,001,52,2019_Oct_23_1105,ACPT_experiment_5_30_19,3.1.0,59.9426601772025,
,,,C,D,d,v,R,G,g,L,c ,,,,,23,1,461,0,1,0,1,0,,,,,1,8,44,6,,,,,,up,0.4837226304480282,7740.97547852288,None,001,52,2019_Oct_23_1105,ACPT_experiment_5_30_19,3.1.0,59.9426601772025,
,,,C,D,d,v,L,D,g,R,i,,,,,23,1,461,0,1,0,1,0,,,,,1,9,45,15,,,,,,up,0.4336826497774382,7742.726812343809,None,001,52,2019_Oct_23_1105,ACPT_experiment_5_30_19,3.1.0,59.9426601772025,
,,,C,D,d,v,R,G,d,L,i,,,,,23,1,461,0,1,0,1,0,,,,,1,10,46,4,,,,,,up,0.38362576524014,7744.444803584586,None,001,52,2019_Oct_23_1105,ACPT_experiment_5_30_19,3.1.0,59.9426601772025,
,,,C,D,d,v,R,D,y,L,y,,,,,23,1,461,0,1,0,1,0,,,,,1,11,47,26,,,,,,down,0.6004559215016343,7746.112735525987,None,001,52,2019_Oct_23_1105,ACPT_experiment_5_30_19,3.1.0,59.9426601772025,
,,,C,D,d,v,R,G,y,L,y,,,,,23,1,461,0,1,0,1,0,,,,,1,12,48,28,,,,,,down,0.73361766043854,7748.0144552230095,None,001,52,2019_Oct_23_1105,ACPT_experiment_5_30_19,3.1.0,59.9426601772025,
,,,C,D,d,v,R,U,d,L,u,,,,,23,1,461,0,1,0,1,0,,,,,1,13,49,8,,,,,,up,0.5170549475369626,7750.032380870736,None,001,52,2019_Oct_23_1105,ACPT_experiment_5_30_19,3.1.0,59.9426601772025,
