facing_vig,person_vig,text_vig,facing_train,person_train,food_train,correct_key_train,facing_exp,person_exp,food_exp,showL_R,consistent,vig_random.thisRepN,vig_random.thisTrialN,vig_random.thisN,vig_random.thisIndex,trainTrials.thisRepN,trainTrials.thisTrialN,trainTrials.thisN,trainTrials.thisIndex,expBlock.thisRepN,expBlock.thisTrialN,expBlock.thisN,expBlock.thisIndex,breakLoop.thisRepN,breakLoop.thisTrialN,breakLoop.thisN,breakLoop.thisIndex,expTrials.thisRepN,expTrials.thisTrialN,expTrials.thisN,expTrials.thisIndex,train_resp.keys,train_resp.corr,train_resp.rt,train_resp.started,train_resp.stopped,exp_resp.keys,exp_resp.rt,exp_resp.started,exp_resp.stopped,session,participant,date,expName,psychopyVersion,frameRate,
C,U,"did not report her food preferences, so her food preferences are unknown.",,,,,,,,,,0,0,0,2,,,,,,,,,,,,,,,,,,,,,,,,,,001,53,2019_Oct_23_1219,ACPT_experiment_5_30_19,3.1.0,59.96490275444631,
C,D,"is allergic to gluten, meaning she can’t eat wheat products. She enjoys eating dairy products. She thinks eating insects, like crickets, is disgusting.",,,,,,,,,,0,1,1,1,,,,,,,,,,,,,,,,,,,,,,,,,,001,53,2019_Oct_23_1219,ACPT_experiment_5_30_19,3.1.0,59.96490275444631,
C,G,"cannot eat dairy products because she is lactose intolerant. She enjoys eating wheat products. She thinks eating insects, like crickets, is disgusting.",,,,,,,,,,0,2,2,0,,,,,,,,,,,,,,,,,,,,,,,,,,001,53,2019_Oct_23_1219,ACPT_experiment_5_30_19,3.1.0,59.96490275444631,
,,,C,U,d,n,,,,,,,,,,0,0,0,15,,,,,,,,,,,,,b,0,4.620191188798344,361.86764330783444,None,,,,,001,53,2019_Oct_23_1219,ACPT_experiment_5_30_19,3.1.0,59.96490275444631,
,,,C,U,y,n,,,,,,,,,,0,1,1,8,,,,,,,,,,,,,b,0,2.0015403650813823,369.7569703557456,None,,,,,001,53,2019_Oct_23_1219,ACPT_experiment_5_30_19,3.1.0,59.96490275444631,
,,,C,D,g,b,,,,,,,,,,0,2,2,10,,,,,,,,,,,,,b,1,10.007621230173754,375.04432043578163,None,,,,,001,53,2019_Oct_23_1219,ACPT_experiment_5_30_19,3.1.0,59.96490275444631,
,,,C,G,g,v,,,,,,,,,,0,3,3,19,,,,,,,,,,,,,v,1,5.887813849763916,388.33775228647573,None,,,,,001,53,2019_Oct_23_1219,ACPT_experiment_5_30_19,3.1.0,59.96490275444631,
,,,C,G,d,b,,,,,,,,,,0,4,4,12,,,,,,,,,,,,,v,0,3.1190488192805788,397.4947038064802,None,,,,,001,53,2019_Oct_23_1219,ACPT_experiment_5_30_19,3.1.0,59.96490275444631,
,,,C,D,d,v,,,,,,,,,,0,5,5,0,,,,,,,,,,,,,v,1,3.269162120481269,403.89957260377923,None,,,,,001,53,2019_Oct_23_1219,ACPT_experiment_5_30_19,3.1.0,59.96490275444631,
,,,C,D,d,v,,,,,,,,,,0,6,6,18,,,,,,,,,,,,,v,1,0.9508879210079613,410.4377196559708,None,,,,,001,53,2019_Oct_23_1219,ACPT_experiment_5_30_19,3.1.0,59.96490275444631,
,,,C,G,g,v,,,,,,,,,,0,7,7,13,,,,,,,,,,,,,v,1,5.904224790068838,414.6913751931497,None,,,,,001,53,2019_Oct_23_1219,ACPT_experiment_5_30_19,3.1.0,59.96490275444631,
,,,C,U,g,n,,,,,,,,,,0,8,8,7,,,,,,,,,,,,,n,1,4.586856456870009,423.8814093963174,None,,,,,001,53,2019_Oct_23_1219,ACPT_experiment_5_30_19,3.1.0,59.96490275444631,
,,,C,D,g,b,,,,,,,,,,0,9,9,1,,,,,,,,,,,,,b,1,2.05157129010513,431.7540604754031,None,,,,,001,53,2019_Oct_23_1219,ACPT_experiment_5_30_19,3.1.0,59.96490275444631,
,,,C,D,y,b,,,,,,,,,,0,10,10,2,,,,,,,,,,,,,b,1,1.51789470760923,437.074747098497,None,,,,,001,53,2019_Oct_23_1219,ACPT_experiment_5_30_19,3.1.0,59.96490275444631,
,,,C,D,d,v,,,,,,,,,,0,11,11,9,,,,,,,,,,,,,v,1,1.2676628076551424,441.86173299070833,None,,,,,001,53,2019_Oct_23_1219,ACPT_experiment_5_30_19,3.1.0,59.96490275444631,
,,,C,G,y,b,,,,,,,,,,0,12,12,14,,,,,,,,,,,,,b,1,1.5011432750834501,446.43187725617645,None,,,,,001,53,2019_Oct_23_1219,ACPT_experiment_5_30_19,3.1.0,59.96490275444631,
,,,C,U,d,n,,,,,,,,,,0,13,13,6,,,,,,,,,,,,,n,1,0.6171626795166958,451.21884775379294,None,,,,,001,53,2019_Oct_23_1219,ACPT_experiment_5_30_19,3.1.0,59.96490275444631,
,,,C,G,d,b,,,,,,,,,,0,14,14,3,,,,,,,,,,,,,v,0,2.785463336564135,455.12180928149246,None,,,,,001,53,2019_Oct_23_1219,ACPT_experiment_5_30_19,3.1.0,59.96490275444631,
,,,C,U,g,n,,,,,,,,,,0,15,15,16,,,,,,,,,,,,,n,1,0.8507705296742643,461.20973868127476,None,,,,,001,53,2019_Oct_23_1219,ACPT_experiment_5_30_19,3.1.0,59.96490275444631,
,,,C,U,y,n,,,,,,,,,,0,16,16,17,,,,,,,,,,,,,n,1,1.7313413733372727,465.3662377209239,None,,,,,001,53,2019_Oct_23_1219,ACPT_experiment_5_30_19,3.1.0,59.96490275444631,
,,,C,G,g,v,,,,,,,,,,0,17,17,4,,,,,,,,,,,,,v,1,1.6179022237938625,470.38339997784533,None,,,,,001,53,2019_Oct_23_1219,ACPT_experiment_5_30_19,3.1.0,59.96490275444631,
,,,C,G,y,b,,,,,,,,,,0,18,18,5,,,,,,,,,,,,,b,1,1.1842428168365586,475.2871239907872,None,,,,,001,53,2019_Oct_23_1219,ACPT_experiment_5_30_19,3.1.0,59.96490275444631,
,,,C,D,y,b,,,,,,,,,,0,19,19,11,,,,,,,,,,,,,b,1,1.6645946346507117,479.793881161575,None,,,,,001,53,2019_Oct_23_1219,ACPT_experiment_5_30_19,3.1.0,59.96490275444631,
,,,C,D,g,b,,,,,,,,,,1,0,20,1,,,,,,,,,,,,,b,1,1.5512167616361694,484.7276029015502,None,,,,,001,53,2019_Oct_23_1219,ACPT_experiment_5_30_19,3.1.0,59.96490275444631,
,,,C,D,d,v,,,,,,,,,,1,1,21,18,,,,,,,,,,,,,v,1,1.0341518528912275,489.54795310745976,None,,,,,001,53,2019_Oct_23_1219,ACPT_experiment_5_30_19,3.1.0,59.96490275444631,
,,,C,U,g,n,,,,,,,,,,1,2,22,16,,,,,,,,,,,,,n,1,1.367477136762318,493.88483092055867,None,,,,,001,53,2019_Oct_23_1219,ACPT_experiment_5_30_19,3.1.0,59.96490275444631,
,,,C,U,g,n,,,,,,,,,,1,3,23,7,,,,,,,,,,,,,n,1,0.6338416668895661,498.5214351626437,None,,,,,001,53,2019_Oct_23_1219,ACPT_experiment_5_30_19,3.1.0,59.96490275444631,
,,,C,G,d,b,,,,,,,,,,1,4,24,3,,,,,,,,,,,,,v,0,1.6012217271472764,502.4410910723127,None,,,,,001,53,2019_Oct_23_1219,ACPT_experiment_5_30_19,3.1.0,59.96490275444631,
,,,C,D,d,v,,,,,,,,,,1,5,25,0,,,,,,,,,,,,,v,1,1.0508085030087386,507.32812130699494,None,,,,,001,53,2019_Oct_23_1219,ACPT_experiment_5_30_19,3.1.0,59.96490275444631,
,,,C,D,g,b,,,,,,,,,,1,6,26,10,,,,,,,,,,,,,b,1,3.449312691696832,511.68475189496894,None,,,,,001,53,2019_Oct_23_1219,ACPT_experiment_5_30_19,3.1.0,59.96490275444631,
,,,C,D,y,b,,,,,,,,,,1,7,27,11,,,,,,,,,,,,,b,1,1.451113255621749,518.403197729087,None,,,,,001,53,2019_Oct_23_1219,ACPT_experiment_5_30_19,3.1.0,59.96490275444631,
,,,C,U,y,n,,,,,,,,,,1,8,28,8,,,,,,,,,,,,,n,1,1.3844009283857304,523.1401246237765,None,,,,,001,53,2019_Oct_23_1219,ACPT_experiment_5_30_19,3.1.0,59.96490275444631,
,,,C,G,g,v,,,,,,,,,,1,9,29,13,,,,,,,,,,,,,v,1,3.002300435486177,527.8103407005037,None,,,,,001,53,2019_Oct_23_1219,ACPT_experiment_5_30_19,3.1.0,59.96490275444631,
,,,C,G,g,v,,,,,,,,,,1,10,30,19,,,,,,,,,,,,,v,1,0.9173793207137351,534.0817703542962,None,,,,,001,53,2019_Oct_23_1219,ACPT_experiment_5_30_19,3.1.0,59.96490275444631,
,,,C,D,d,v,,,,,,,,,,1,11,31,9,,,,,,,,,,,,,v,1,0.9838172619292891,538.3019203097283,None,,,,,001,53,2019_Oct_23_1219,ACPT_experiment_5_30_19,3.1.0,59.96490275444631,
,,,C,G,g,v,,,,,,,,,,1,12,32,4,,,,,,,,,,,,,b,0,4.720255453687059,542.5715653979005,None,,,,,001,53,2019_Oct_23_1219,ACPT_experiment_5_30_19,3.1.0,59.96490275444631,
,,,C,G,d,b,,,,,,,,,,1,13,33,12,,,,,,,,,,,,,b,1,0.9173708687776525,550.5609552014266,None,,,,,001,53,2019_Oct_23_1219,ACPT_experiment_5_30_19,3.1.0,59.96490275444631,
,,,C,G,y,b,,,,,,,,,,1,14,34,5,,,,,,,,,,,,,b,1,2.0816055415707524,554.784146042186,None,,,,,001,53,2019_Oct_23_1219,ACPT_experiment_5_30_19,3.1.0,59.96490275444631,
,,,C,D,y,b,,,,,,,,,,1,15,35,2,,,,,,,,,,,,,b,1,1.617907959036529,560.151571863631,None,,,,,001,53,2019_Oct_23_1219,ACPT_experiment_5_30_19,3.1.0,59.96490275444631,
,,,C,U,d,n,,,,,,,,,,1,16,36,15,,,,,,,,,,,,,n,1,1.9348533936481545,565.0552913487518,None,,,,,001,53,2019_Oct_23_1219,ACPT_experiment_5_30_19,3.1.0,59.96490275444631,
,,,C,U,d,n,,,,,,,,,,1,17,37,6,,,,,,,,,,,,,n,1,2.368477785448704,570.275923668165,None,,,,,001,53,2019_Oct_23_1219,ACPT_experiment_5_30_19,3.1.0,59.96490275444631,
,,,C,U,y,n,,,,,,,,,,1,18,38,17,,,,,,,,,,,,,n,1,2.1349704529420706,575.91353942571,None,,,,,001,53,2019_Oct_23_1219,ACPT_experiment_5_30_19,3.1.0,59.96490275444631,
,,,C,G,y,b,,,,,,,,,,1,19,39,14,,,,,,,,,,,,,b,1,0.984120022301795,581.3343195936068,None,,,,,001,53,2019_Oct_23_1219,ACPT_experiment_5_30_19,3.1.0,59.96490275444631,
,,,C,G,y,b,,,,,,,,,,2,0,40,5,,,,,,,,,,,,,b,1,0.8840171199972247,585.6042303140111,None,,,,,001,53,2019_Oct_23_1219,ACPT_experiment_5_30_19,3.1.0,59.96490275444631,
,,,C,G,y,b,,,,,,,,,,2,1,41,14,,,,,,,,,,,,,b,1,1.3010213861125521,589.7573633707052,None,,,,,001,53,2019_Oct_23_1219,ACPT_experiment_5_30_19,3.1.0,59.96490275444631,
,,,C,U,y,n,,,,,,,,,,2,2,42,8,,,,,,,,,,,,,n,1,1.734071348213547,594.3613171857123,None,,,,,001,53,2019_Oct_23_1219,ACPT_experiment_5_30_19,3.1.0,59.96490275444631,
,,,C,D,d,v,,,,,,,,,,2,3,43,18,,,,,,,,,,,,,v,1,1.651256274428306,599.3813763432172,None,,,,,001,53,2019_Oct_23_1219,ACPT_experiment_5_30_19,3.1.0,59.96490275444631,
,,,C,D,g,b,,,,,,,,,,2,4,44,1,,,,,,,,,,,,,b,1,1.3677201298814907,604.3017627415193,None,,,,,001,53,2019_Oct_23_1219,ACPT_experiment_5_30_19,3.1.0,59.96490275444631,
,,,C,D,g,b,,,,,,,,,,2,5,45,10,,,,,,,,,,,,,b,1,1.7346448723474168,608.9553113013535,None,,,,,001,53,2019_Oct_23_1219,ACPT_experiment_5_30_19,3.1.0,59.96490275444631,
,,,C,G,g,v,,,,,,,,,,2,6,46,19,,,,,,,,,,,,,v,1,1.3844459047504643,613.9757761517194,None,,,,,001,53,2019_Oct_23_1219,ACPT_experiment_5_30_19,3.1.0,59.96490275444631,
,,,C,D,d,v,,,,,,,,,,2,7,47,9,,,,,,,,,,,,,v,1,1.2009091263080336,618.6460003785269,None,,,,,001,53,2019_Oct_23_1219,ACPT_experiment_5_30_19,3.1.0,59.96490275444631,
,,,C,G,g,v,,,,,,,,,,2,8,48,4,,,,,,,,,,,,,v,1,1.8514463825868006,623.1327089567276,None,,,,,001,53,2019_Oct_23_1219,ACPT_experiment_5_30_19,3.1.0,59.96490275444631,
,,,C,U,d,n,,,,,,,,,,2,9,49,6,,,,,,,,,,,,,n,1,0.9674144717046147,628.2699641487052,None,,,,,001,53,2019_Oct_23_1219,ACPT_experiment_5_30_19,3.1.0,59.96490275444631,
,,,C,U,g,n,,,,,,,,,,2,10,50,7,,,,,,,,,,,,,n,1,1.1508917847495468,632.5232055410888,None,,,,,001,53,2019_Oct_23_1219,ACPT_experiment_5_30_19,3.1.0,59.96490275444631,
,,,C,D,y,b,,,,,,,,,,2,11,51,11,,,,,,,,,,,,,b,1,1.9848408515790652,636.9599058333752,None,,,,,001,53,2019_Oct_23_1219,ACPT_experiment_5_30_19,3.1.0,59.96490275444631,
,,,C,G,d,b,,,,,,,,,,2,12,52,12,,,,,,,,,,,,,b,1,1.8180539963905176,642.2305678703942,None,,,,,001,53,2019_Oct_23_1219,ACPT_experiment_5_30_19,3.1.0,59.96490275444631,
,,,C,D,d,v,,,,,,,,,,2,13,53,0,,,,,,,,,,,,,v,1,0.9174366731258488,647.3344394299656,None,,,,,001,53,2019_Oct_23_1219,ACPT_experiment_5_30_19,3.1.0,59.96490275444631,
,,,C,U,g,n,,,,,,,,,,2,14,54,16,,,,,,,,,,,,,n,1,1.267386308651112,651.5545510498359,None,,,,,001,53,2019_Oct_23_1219,ACPT_experiment_5_30_19,3.1.0,59.96490275444631,
,,,C,U,y,n,,,,,,,,,,2,15,55,17,,,,,,,,,,,,,n,1,1.0509956529895135,656.0910916307439,None,,,,,001,53,2019_Oct_23_1219,ACPT_experiment_5_30_19,3.1.0,59.96490275444631,
,,,C,U,d,n,,,,,,,,,,2,16,56,15,,,,,,,,,,,,,n,1,1.1673268734393787,660.4279800087606,None,,,,,001,53,2019_Oct_23_1219,ACPT_experiment_5_30_19,3.1.0,59.96490275444631,
,,,C,D,y,b,,,,,,,,,,2,17,57,2,,,,,,,,,,,,,b,1,1.984893978025866,664.8810930524796,None,,,,,001,53,2019_Oct_23_1219,ACPT_experiment_5_30_19,3.1.0,59.96490275444631,
,,,C,G,d,b,,,,,,,,,,2,18,58,3,,,,,,,,,,,,,b,1,1.2509578607678122,670.1517765211902,None,,,,,001,53,2019_Oct_23_1219,ACPT_experiment_5_30_19,3.1.0,59.96490275444631,
,,,C,G,g,v,,,,,,,,,,2,19,59,13,,,,,,,,,,,,,v,1,0.950475889196241,674.6888154643839,None,,,,,001,53,2019_Oct_23_1219,ACPT_experiment_5_30_19,3.1.0,59.96490275444631,
,,,C,G,g,v,,,,,,,,,,3,0,60,13,,,,,,,,,,,,,v,1,1.4511054073955165,678.925093824022,None,,,,,001,53,2019_Oct_23_1219,ACPT_experiment_5_30_19,3.1.0,59.96490275444631,
,,,C,U,y,n,,,,,,,,,,3,1,61,17,,,,,,,,,,,,,n,1,1.3677047352866794,683.6787144969694,None,,,,,001,53,2019_Oct_23_1219,ACPT_experiment_5_30_19,3.1.0,59.96490275444631,
,,,C,U,g,n,,,,,,,,,,3,2,62,7,,,,,,,,,,,,,n,1,1.5345172481338523,688.3322373991468,None,,,,,001,53,2019_Oct_23_1219,ACPT_experiment_5_30_19,3.1.0,59.96490275444631,
,,,C,G,d,b,,,,,,,,,,3,3,63,3,,,,,,,,,,,,,b,1,2.0515709882511146,693.1525607399799,None,,,,,001,53,2019_Oct_23_1219,ACPT_experiment_5_30_19,3.1.0,59.96490275444631,
,,,C,U,d,n,,,,,,,,,,3,4,64,6,,,,,,,,,,,,,n,1,1.2343081533108489,698.4732434389607,None,,,,,001,53,2019_Oct_23_1219,ACPT_experiment_5_30_19,3.1.0,59.96490275444631,
,,,C,G,g,v,,,,,,,,,,3,5,65,19,,,,,,,,,,,,,v,1,1.4008227354624978,703.0102986823131,None,,,,,001,53,2019_Oct_23_1219,ACPT_experiment_5_30_19,3.1.0,59.96490275444631,
,,,C,D,g,b,,,,,,,,,,3,6,66,10,,,,,,,,,,,,,b,1,1.100847879968569,707.6969392828123,None,,,,,001,53,2019_Oct_23_1219,ACPT_experiment_5_30_19,3.1.0,59.96490275444631,
,,,C,D,g,b,,,,,,,,,,3,7,67,1,,,,,,,,,,,,,b,1,1.7980401171080302,712.1036180015344,None,,,,,001,53,2019_Oct_23_1219,ACPT_experiment_5_30_19,3.1.0,59.96490275444631,
,,,C,D,y,b,,,,,,,,,,3,8,68,11,,,,,,,,,,,,,b,1,1.3510607630723825,717.1707764701769,None,,,,,001,53,2019_Oct_23_1219,ACPT_experiment_5_30_19,3.1.0,59.96490275444631,
,,,C,U,g,n,,,,,,,,,,3,9,69,16,,,,,,,,,,,,,n,1,1.3005673964817106,721.8247325340017,None,,,,,001,53,2019_Oct_23_1219,ACPT_experiment_5_30_19,3.1.0,59.96490275444631,
,,,C,G,y,b,,,,,,,,,,3,10,70,14,,,,,,,,,,,,,b,1,2.968935819933904,726.4111506976933,None,,,,,001,53,2019_Oct_23_1219,ACPT_experiment_5_30_19,3.1.0,59.96490275444631,
,,,C,D,d,v,,,,,,,,,,3,11,71,0,,,,,,,,,,,,,v,1,0.6672086972812394,732.6658738953247,None,,,,,001,53,2019_Oct_23_1219,ACPT_experiment_5_30_19,3.1.0,59.96490275444631,
,,,C,D,d,v,,,,,,,,,,3,12,72,18,,,,,,,,,,,,,v,1,0.9307255291587353,736.6389025645894,None,,,,,001,53,2019_Oct_23_1219,ACPT_experiment_5_30_19,3.1.0,59.96490275444631,
,,,C,G,g,v,,,,,,,,,,3,13,73,4,,,,,,,,,,,,,v,1,1.0674938293341256,740.8554468643488,None,,,,,001,53,2019_Oct_23_1219,ACPT_experiment_5_30_19,3.1.0,59.96490275444631,
,,,C,D,y,b,,,,,,,,,,3,14,74,2,,,,,,,,,,,,,b,1,1.10057379580212,745.2257046875948,None,,,,,001,53,2019_Oct_23_1219,ACPT_experiment_5_30_19,3.1.0,59.96490275444631,
,,,C,U,y,n,,,,,,,,,,3,15,75,8,,,,,,,,,,,,,n,1,1.4844805878692569,749.6120981595614,None,,,,,001,53,2019_Oct_23_1219,ACPT_experiment_5_30_19,3.1.0,59.96490275444631,
,,,C,U,d,n,,,,,,,,,,3,16,76,15,,,,,,,,,,,,,n,1,1.2342873253273865,754.3657028342059,None,,,,,001,53,2019_Oct_23_1219,ACPT_experiment_5_30_19,3.1.0,59.96490275444631,
,,,C,G,y,b,,,,,,,,,,3,17,77,5,,,,,,,,,,,,,b,1,1.7177334567713842,758.9027354384489,None,,,,,001,53,2019_Oct_23_1219,ACPT_experiment_5_30_19,3.1.0,59.96490275444631,
,,,C,G,d,b,,,,,,,,,,3,18,78,12,,,,,,,,,,,,,b,1,1.8014184761104843,763.906277402757,None,,,,,001,53,2019_Oct_23_1219,ACPT_experiment_5_30_19,3.1.0,59.96490275444631,
,,,C,D,d,v,,,,,,,,,,3,19,79,9,,,,,,,,,,,,,v,1,0.917370566921818,768.9934802380194,None,,,,,001,53,2019_Oct_23_1219,ACPT_experiment_5_30_19,3.1.0,59.96490275444631,
,,,C,G,g,v,,,,,,,,,,4,0,80,19,,,,,,,,,,,,,v,1,1.1842394964351115,773.1966683681221,None,,,,,001,53,2019_Oct_23_1219,ACPT_experiment_5_30_19,3.1.0,59.96490275444631,
,,,C,U,y,n,,,,,,,,,,4,1,81,8,,,,,,,,,,,,,n,1,0.9006737701147358,777.666731766687,None,,,,,001,53,2019_Oct_23_1219,ACPT_experiment_5_30_19,3.1.0,59.96490275444631,
,,,C,U,y,n,,,,,,,,,,4,2,82,17,,,,,,,,,,,,,n,1,0.8640005240195023,781.8732529775716,None,,,,,001,53,2019_Oct_23_1219,ACPT_experiment_5_30_19,3.1.0,59.96490275444631,
,,,C,U,g,n,,,,,,,,,,4,3,83,16,,,,,,,,,,,,,n,1,0.767320957083939,786.0063670234504,None,,,,,001,53,2019_Oct_23_1219,ACPT_experiment_5_30_19,3.1.0,59.96490275444631,
,,,C,D,g,b,,,,,,,,,,4,4,84,10,,,,,,,,,,,,,b,1,2.3848893294616573,790.0764214871124,None,,,,,001,53,2019_Oct_23_1219,ACPT_experiment_5_30_19,3.1.0,59.96490275444631,
,,,C,G,g,v,,,,,,,,,,4,5,85,13,,,,,,,,,,,,,v,1,1.5345033628145757,795.7471250593535,None,,,,,001,53,2019_Oct_23_1219,ACPT_experiment_5_30_19,3.1.0,59.96490275444631,
,,,C,D,d,v,,,,,,,,,,4,6,86,0,,,,,,,,,,,,,v,1,1.0674778310276452,800.567456248411,None,,,,,001,53,2019_Oct_23_1219,ACPT_experiment_5_30_19,3.1.0,59.96490275444631,
,,,C,U,d,n,,,,,,,,,,4,7,87,6,,,,,,,,,,,,,n,1,1.3675375077236822,804.9376482673088,None,,,,,001,53,2019_Oct_23_1219,ACPT_experiment_5_30_19,3.1.0,59.96490275444631,
,,,C,D,y,b,,,,,,,,,,4,8,88,2,,,,,,,,,,,,,b,1,1.1675668480111199,809.5909656063614,None,,,,,001,53,2019_Oct_23_1219,ACPT_experiment_5_30_19,3.1.0,59.96490275444631,
,,,C,D,d,v,,,,,,,,,,4,9,89,18,,,,,,,,,,,,,v,1,0.9507270323974808,814.0276758598575,None,,,,,001,53,2019_Oct_23_1219,ACPT_experiment_5_30_19,3.1.0,59.96490275444631,
,,,C,D,d,v,,,,,,,,,,4,10,90,9,,,,,,,,,,,,,v,1,0.834000382146769,818.2475378458021,None,,,,,001,53,2019_Oct_23_1219,ACPT_experiment_5_30_19,3.1.0,59.96490275444631,
,,,C,U,d,n,,,,,,,,,,4,11,91,15,,,,,,,,,,,,,n,1,0.7670082355034538,822.384270527109,None,,,,,001,53,2019_Oct_23_1219,ACPT_experiment_5_30_19,3.1.0,59.96490275444631,
,,,C,G,d,b,,,,,,,,,,4,12,92,3,,,,,,,,,,,,,b,1,1.5178596924524754,826.4370851571657,None,,,,,001,53,2019_Oct_23_1219,ACPT_experiment_5_30_19,3.1.0,59.96490275444631,
,,,C,G,g,v,,,,,,,,,,4,13,93,4,,,,,,,,,,,,,v,1,0.900698824063511,831.2407358495748,None,,,,,001,53,2019_Oct_23_1219,ACPT_experiment_5_30_19,3.1.0,59.96490275444631,
,,,C,D,g,b,,,,,,,,,,4,14,94,1,,,,,,,,,,,,,b,1,1.2476296096610895,835.4472661161035,None,,,,,001,53,2019_Oct_23_1219,ACPT_experiment_5_30_19,3.1.0,59.96490275444631,
,,,C,G,y,b,,,,,,,,,,4,15,95,14,,,,,,,,,,,,,b,1,1.601205728840796,839.9807141945112,None,,,,,001,53,2019_Oct_23_1219,ACPT_experiment_5_30_19,3.1.0,59.96490275444631,
,,,C,D,y,b,,,,,,,,,,4,16,96,11,,,,,,,,,,,,,b,1,1.8347366060224886,844.8677516737098,None,,,,,001,53,2019_Oct_23_1219,ACPT_experiment_5_30_19,3.1.0,59.96490275444631,
,,,C,G,d,b,,,,,,,,,,4,17,97,12,,,,,,,,,,,,,b,1,1.2176083379545162,849.9883001076723,None,,,,,001,53,2019_Oct_23_1219,ACPT_experiment_5_30_19,3.1.0,59.96490275444631,
,,,C,U,g,n,,,,,,,,,,4,18,98,7,,,,,,,,,,,,,n,1,1.6341875924990745,854.5087756738849,None,,,,,001,53,2019_Oct_23_1219,ACPT_experiment_5_30_19,3.1.0,59.96490275444631,
,,,C,G,y,b,,,,,,,,,,4,19,99,5,,,,,,,,,,,,,b,1,1.3010189712731517,859.4287844518221,None,,,,,001,53,2019_Oct_23_1219,ACPT_experiment_5_30_19,3.1.0,59.96490275444631,
,,,C,D,g,b,,,,,,,,,,5,0,100,10,,,,,,,,,,,,,b,1,1.350800564227029,864.0325384389471,None,,,,,001,53,2019_Oct_23_1219,ACPT_experiment_5_30_19,3.1.0,59.96490275444631,
,,,C,G,g,v,,,,,,,,,,5,1,101,13,,,,,,,,,,,,,v,1,1.2509605774612282,868.6691550570795,None,,,,,001,53,2019_Oct_23_1219,ACPT_experiment_5_30_19,3.1.0,59.96490275444631,
,,,C,G,y,b,,,,,,,,,,5,2,102,5,,,,,,,,,,,,,b,1,1.5842961243961327,873.2228569893432,None,,,,,001,53,2019_Oct_23_1219,ACPT_experiment_5_30_19,3.1.0,59.96490275444631,
,,,C,U,y,n,,,,,,,,,,5,3,103,17,,,,,,,,,,,,,n,1,1.5845596436411142,878.092972186194,None,,,,,001,53,2019_Oct_23_1219,ACPT_experiment_5_30_19,3.1.0,59.96490275444631,
,,,C,U,y,n,,,,,,,,,,5,4,104,8,,,,,,,,,,,,,n,1,0.8506615600890655,882.9633373188244,None,,,,,001,53,2019_Oct_23_1219,ACPT_experiment_5_30_19,3.1.0,59.96490275444631,
,,,C,D,g,b,,,,,,,,,,5,5,105,1,,,,,,,,,,,,,b,1,1.5509481108565524,887.1334098635889,None,,,,,001,53,2019_Oct_23_1219,ACPT_experiment_5_30_19,3.1.0,59.96490275444631,
,,,C,G,y,b,,,,,,,,,,5,6,106,14,,,,,,,,,,,,,b,1,2.168343520428607,891.9701782543198,None,,,,,001,53,2019_Oct_23_1219,ACPT_experiment_5_30_19,3.1.0,59.96490275444631,
,,,C,U,d,n,,,,,,,,,,5,7,107,15,,,,,,,,,,,,,n,1,1.4511334798935422,897.4242934560007,None,,,,,001,53,2019_Oct_23_1219,ACPT_experiment_5_30_19,3.1.0,59.96490275444631,
,,,C,D,d,v,,,,,,,,,,5,8,108,18,,,,,,,,,,,,,v,1,1.1842437224022433,902.1612490268963,None,,,,,001,53,2019_Oct_23_1219,ACPT_experiment_5_30_19,3.1.0,59.96490275444631,
,,,C,D,y,b,,,,,,,,,,5,9,109,11,,,,,,,,,,,,,b,1,2.134968038104489,906.631308501348,None,,,,,001,53,2019_Oct_23_1219,ACPT_experiment_5_30_19,3.1.0,59.96490275444631,
,,,C,U,g,n,,,,,,,,,,5,10,110,7,,,,,,,,,,,,,n,1,1.3510399350889202,912.0520892729564,None,,,,,001,53,2019_Oct_23_1219,ACPT_experiment_5_30_19,3.1.0,59.96490275444631,
,,,C,U,d,n,,,,,,,,,,5,11,111,6,,,,,,,,,,,,,n,1,0.880681322521923,916.708954311558,None,,,,,001,53,2019_Oct_23_1219,ACPT_experiment_5_30_19,3.1.0,59.96490275444631,
,,,C,G,g,v,,,,,,,,,,5,12,112,19,,,,,,,,,,,,,v,1,1.034127704506318,920.8754601399232,None,,,,,001,53,2019_Oct_23_1219,ACPT_experiment_5_30_19,3.1.0,59.96490275444631,
,,,C,G,d,b,,,,,,,,,,5,13,113,3,,,,,,,,,,,,,v,0,1.5345003442653251,925.1787336647503,None,,,,,001,53,2019_Oct_23_1219,ACPT_experiment_5_30_19,3.1.0,59.96490275444631,
,,,C,D,y,b,,,,,,,,,,5,14,114,2,,,,,,,,,,,,,b,1,2.418516558696865,929.9990458369557,None,,,,,001,53,2019_Oct_23_1219,ACPT_experiment_5_30_19,3.1.0,59.96490275444631,
,,,C,D,d,v,,,,,,,,,,5,15,115,0,,,,,,,,,,,,,v,1,0.8340015895682882,935.6866777286396,None,,,,,001,53,2019_Oct_23_1219,ACPT_experiment_5_30_19,3.1.0,59.96490275444631,
,,,C,G,g,v,,,,,,,,,,5,16,116,4,,,,,,,,,,,,,v,1,1.2173221795983409,939.8234523677656,None,,,,,001,53,2019_Oct_23_1219,ACPT_experiment_5_30_19,3.1.0,59.96490275444631,
,,,C,D,d,v,,,,,,,,,,5,17,117,9,,,,,,,,,,,,,v,1,2.868858575287959,944.3265893938496,None,,,,,001,53,2019_Oct_23_1219,ACPT_experiment_5_30_19,3.1.0,59.96490275444631,
,,,C,U,g,n,,,,,,,,,,5,18,118,16,,,,,,,,,,,,,n,1,1.4678009967847174,950.4812622119134,None,,,,,001,53,2019_Oct_23_1219,ACPT_experiment_5_30_19,3.1.0,59.96490275444631,
,,,C,G,d,b,,,,,,,,,,5,19,119,12,0,0,0,0,0,0,0,0,,,,,b,1,1.1842382890135923,955.234875640348,None,,,,,001,53,2019_Oct_23_1219,ACPT_experiment_5_30_19,3.1.0,59.96490275444631,
,,,C,G,d,b,R,G,d,L,i,,,,,5,19,119,12,0,0,0,0,,,,,0,0,0,4,,,,,,up,2.685406919899833,1048.20546411535,None,001,53,2019_Oct_23_1219,ACPT_experiment_5_30_19,3.1.0,59.96490275444631,
,,,C,G,d,b,R,G,d,R,i,,,,,5,19,119,12,0,0,0,0,,,,,0,1,1,5,,,,,,up,2.085069325485165,1052.1583134888951,None,001,53,2019_Oct_23_1219,ACPT_experiment_5_30_19,3.1.0,59.96490275444631,
,,,C,G,d,b,R,D,g,R,i,,,,,5,19,119,12,0,0,0,0,,,,,0,2,2,3,,,,,,up,1.2676280943505844,1055.5276898961056,None,001,53,2019_Oct_23_1219,ACPT_experiment_5_30_19,3.1.0,59.96490275444631,
,,,C,G,d,b,R,D,d,L,c,,,,,5,19,119,12,0,0,0,0,,,,,0,3,3,0,,,,,,up,0.9507143544942664,1058.0796265814552,None,001,53,2019_Oct_23_1219,ACPT_experiment_5_30_19,3.1.0,59.96490275444631,
,,,C,G,d,b,R,U,g,L,u,,,,,5,19,119,12,0,0,0,0,,,,,0,4,4,10,,,,,,up,0.883995084595881,1060.314660997432,None,001,53,2019_Oct_23_1219,ACPT_experiment_5_30_19,3.1.0,59.96490275444631,
,,,C,G,d,b,R,G,y,L,y,,,,,5,19,119,12,0,0,0,0,,,,,0,5,5,28,,,,,,down,1.3343666829568974,1062.4829704082676,None,001,53,2019_Oct_23_1219,ACPT_experiment_5_30_19,3.1.0,59.96490275444631,
,,,C,G,d,b,L,G,g,R,c ,,,,,5,19,119,12,0,0,0,0,,,,,0,6,6,19,,,,,,up,0.9340414042162593,1065.1016233449682,None,001,53,2019_Oct_23_1219,ACPT_experiment_5_30_19,3.1.0,59.96490275444631,
,,,C,G,d,b,R,U,g,R,u,,,,,5,19,119,12,0,0,0,0,,,,,0,7,7,11,,,,,,up,0.7672500212065643,1067.319975453167,None,001,53,2019_Oct_23_1219,ACPT_experiment_5_30_19,3.1.0,59.96490275444631,
,,,C,G,d,b,R,D,y,L,y,,,,,5,19,119,12,0,0,0,0,,,,,0,8,8,26,,,,,,down,1.2171797041282844,1069.388591578674,None,001,53,2019_Oct_23_1219,ACPT_experiment_5_30_19,3.1.0,59.96490275444631,
,,,C,G,d,b,R,U,d,L,u,,,,,5,19,119,12,0,0,0,0,,,,,0,9,9,8,,,,,,up,0.9840795737582084,1071.8901118704107,None,001,53,2019_Oct_23_1219,ACPT_experiment_5_30_19,3.1.0,59.96490275444631,
,,,C,G,d,b,R,G,y,R,y,,,,,5,19,119,12,0,0,0,0,,,,,0,10,10,29,,,,,,down,0.7005428254997241,1074.158481018314,None,001,53,2019_Oct_23_1219,ACPT_experiment_5_30_19,3.1.0,59.96490275444631,
,,,C,G,d,b,L,G,y,R,y,,,,,5,19,119,12,0,0,0,0,,,,,0,11,11,35,,,,,,down,0.8339883079570427,1076.1433411886028,None,001,53,2019_Oct_23_1219,ACPT_experiment_5_30_19,3.1.0,59.96490275444631,
,,,C,G,d,b,L,U,g,L,u,,,,,5,19,119,12,0,0,0,0,,,,,0,12,12,22,,,,,,up,0.733896574280152,1078.2616106187706,None,001,53,2019_Oct_23_1219,ACPT_experiment_5_30_19,3.1.0,59.96490275444631,
,,,C,G,d,b,L,D,d,R,c ,,,,,5,19,119,12,0,0,0,0,,,,,0,13,13,13,,,,,,up,1.017442981890781,1080.2798109543728,None,001,53,2019_Oct_23_1219,ACPT_experiment_5_30_19,3.1.0,59.96490275444631,
,,,C,G,d,b,L,G,g,L,c ,,,,,5,19,119,12,0,0,0,0,,,,,0,14,14,18,,,,,,up,1.0174333225368173,1082.5815667532297,None,001,53,2019_Oct_23_1219,ACPT_experiment_5_30_19,3.1.0,59.96490275444631,
,,,C,G,d,b,R,U,d,R,u,,,,,5,19,119,12,0,0,0,0,,,,,0,15,15,9,,,,,,up,0.7505631856056425,1084.883316213136,None,001,53,2019_Oct_23_1219,ACPT_experiment_5_30_19,3.1.0,59.96490275444631,
,,,C,G,d,b,L,D,g,R,i,,,,,5,19,119,12,0,0,0,0,,,,,0,16,16,15,,,,,,up,0.6171337014566234,1086.9181885934504,None,001,53,2019_Oct_23_1219,ACPT_experiment_5_30_19,3.1.0,59.96490275444631,
,,,C,G,d,b,L,U,y,L,u,,,,,5,19,119,12,0,0,0,0,,,,,0,17,17,24,,,,,,down,1.0508118234120047,1088.819632093324,None,001,53,2019_Oct_23_1219,ACPT_experiment_5_30_19,3.1.0,59.96490275444631,
,,,C,G,d,b,L,D,g,L,i,,,,,5,19,119,12,0,0,0,0,,,,,0,18,18,14,,,,,,up,1.0507900898664957,1091.1547404335433,None,001,53,2019_Oct_23_1219,ACPT_experiment_5_30_19,3.1.0,59.96490275444631,
,,,C,G,d,b,L,U,d,L,u,,,,,5,19,119,12,0,0,0,0,,,,,0,19,19,20,,,,,,up,0.9840844034351903,1093.4898418311004,None,001,53,2019_Oct_23_1219,ACPT_experiment_5_30_19,3.1.0,59.96490275444631,
,,,C,G,d,b,L,U,y,R,u,,,,,5,19,119,12,0,0,0,0,,,,,0,20,20,25,,,,,,down,1.8179317451940733,1095.758233014405,None,001,53,2019_Oct_23_1219,ACPT_experiment_5_30_19,3.1.0,59.96490275444631,
,,,C,G,d,b,L,D,y,R,y,,,,,5,19,119,12,0,0,0,0,,,,,0,21,21,33,,,,,,down,0.800600449583726,1098.8605880554242,None,001,53,2019_Oct_23_1219,ACPT_experiment_5_30_19,3.1.0,59.96490275444631,
,,,C,G,d,b,L,G,d,R,i,,,,,5,19,119,12,0,0,0,0,,,,,0,22,22,17,,,,,,up,0.9006773923738365,1100.9455037368116,None,001,53,2019_Oct_23_1219,ACPT_experiment_5_30_19,3.1.0,59.96490275444631,
,,,C,G,d,b,L,G,d,L,i,,,,,5,19,119,12,0,0,0,0,,,,,0,23,23,16,,,,,,up,1.301130355695932,1103.1136733888725,None,001,53,2019_Oct_23_1219,ACPT_experiment_5_30_19,3.1.0,59.96490275444631,
,,,C,G,d,b,R,D,d,R,c ,,,,,5,19,119,12,0,0,0,0,,,,,0,24,24,1,,,,,,up,1.0674730013506633,1105.6991168633904,None,001,53,2019_Oct_23_1219,ACPT_experiment_5_30_19,3.1.0,59.96490275444631,
,,,C,G,d,b,L,D,d,L,c ,,,,,5,19,119,12,0,0,0,0,,,,,0,25,25,12,,,,,,up,1.0007585611292598,1108.0508966446123,None,001,53,2019_Oct_23_1219,ACPT_experiment_5_30_19,3.1.0,59.96490275444631,
,,,C,G,d,b,R,G,g,L,c ,,,,,5,19,119,12,0,0,0,0,,,,,0,26,26,6,,,,,,up,0.7506012193116476,1110.335965004162,None,001,53,2019_Oct_23_1219,ACPT_experiment_5_30_19,3.1.0,59.96490275444631,
,,,C,G,d,b,R,U,y,L,u,,,,,5,19,119,12,0,0,0,0,,,,,0,27,27,30,,,,,,down,0.8006070903884392,1112.3708431197192,None,001,53,2019_Oct_23_1219,ACPT_experiment_5_30_19,3.1.0,59.96490275444631,
,,,C,G,d,b,L,G,y,L,y,,,,,5,19,119,12,0,0,0,0,,,,,0,28,28,34,,,,,,down,0.7839127084189386,1114.4557744975555,None,001,53,2019_Oct_23_1219,ACPT_experiment_5_30_19,3.1.0,59.96490275444631,
,,,C,G,d,b,L,U,g,R,u,,,,,5,19,119,12,0,0,0,0,,,,,0,29,29,23,,,,,,up,0.8172845684875938,1116.523996702539,None,001,53,2019_Oct_23_1219,ACPT_experiment_5_30_19,3.1.0,59.96490275444631,
,,,C,G,d,b,R,U,y,R,u,,,,,5,19,119,12,0,0,0,0,,,,,0,30,30,31,,,,,,down,0.6671619097869552,1118.6256040492026,None,001,53,2019_Oct_23_1219,ACPT_experiment_5_30_19,3.1.0,59.96490275444631,
,,,C,G,d,b,R,G,g,R,c ,,,,,5,19,119,12,0,0,0,0,,,,,0,31,31,7,,,,,,up,2.18501918740003,1120.577072738859,None,001,53,2019_Oct_23_1219,ACPT_experiment_5_30_19,3.1.0,59.96490275444631,
,,,C,G,d,b,L,D,y,L,y,,,,,5,19,119,12,0,0,0,0,,,,,0,32,32,32,,,,,,down,0.6671670413197717,1124.0463748596012,None,001,53,2019_Oct_23_1219,ACPT_experiment_5_30_19,3.1.0,59.96490275444631,
,,,C,G,d,b,R,D,g,L,i,,,,,5,19,119,12,0,0,0,0,,,,,0,33,33,2,,,,,,up,0.8005228728980001,1125.9978263435332,None,001,53,2019_Oct_23_1219,ACPT_experiment_5_30_19,3.1.0,59.96490275444631,
,,,C,G,d,b,L,U,d,R,u,,,,,5,19,119,12,0,0,0,0,,,,,0,34,34,21,,,,,,up,0.6004317731167248,1128.0827903216905,None,001,53,2019_Oct_23_1219,ACPT_experiment_5_30_19,3.1.0,59.96490275444631,
,,,C,G,d,b,R,D,y,R,y,,,,,5,19,119,12,0,0,0,0,,,,,0,35,35,27,,,,,,down,0.7505550355253945,1129.9675454766912,None,001,53,2019_Oct_23_1219,ACPT_experiment_5_30_19,3.1.0,59.96490275444631,
,,,C,G,d,b,R,U,y,R,u,,,,,5,19,119,12,0,0,0,0,,,,,1,0,36,31,,,,,,down,0.5504168463958194,1132.0024118199108,None,001,53,2019_Oct_23_1219,ACPT_experiment_5_30_19,3.1.0,59.96490275444631,
,,,C,G,d,b,L,G,y,R,y,,,,,5,19,119,12,0,0,0,0,,,,,1,1,37,35,,,,,,down,0.5837832730776427,1133.8371390684351,None,001,53,2019_Oct_23_1219,ACPT_experiment_5_30_19,3.1.0,59.96490275444631,
,,,C,G,d,b,L,D,g,L,i,,,,,5,19,119,12,0,0,0,0,,,,,1,2,38,14,,,,,,up,0.7336421106774651,1135.7221526111498,None,001,53,2019_Oct_23_1219,ACPT_experiment_5_30_19,3.1.0,59.96490275444631,
,,,C,G,d,b,R,D,d,L,c,,,,,5,19,119,12,0,0,0,0,,,,,1,3,39,0,,,,,,up,0.51706007906796,1137.7401018035525,None,001,53,2019_Oct_23_1219,ACPT_experiment_5_30_19,3.1.0,59.96490275444631,
,,,C,G,d,b,R,D,y,R,y,,,,,5,19,119,12,0,0,0,0,,,,,1,4,40,27,,,,,,down,0.6004574307753501,1139.5414668513622,None,001,53,2019_Oct_23_1219,ACPT_experiment_5_30_19,3.1.0,59.96490275444631,
,,,C,G,d,b,L,G,d,R,i,,,,,5,19,119,12,0,0,0,0,,,,,1,5,41,17,,,,,,up,0.8173129428396351,1141.4262361935398,None,001,53,2019_Oct_23_1219,ACPT_experiment_5_30_19,3.1.0,59.96490275444631,
,,,C,G,d,b,R,G,y,R,y,,,,,5,19,119,12,0,0,0,0,,,,,1,6,42,29,,,,,,down,0.6338099721360777,1143.527830560446,None,001,53,2019_Oct_23_1219,ACPT_experiment_5_30_19,3.1.0,59.96490275444631,
,,,C,G,d,b,R,D,g,L,i,,,,,5,19,119,12,0,0,0,0,,,,,1,7,43,2,,,,,,up,1.0341382694241474,1145.4459288993075,None,001,53,2019_Oct_23_1219,ACPT_experiment_5_30_19,3.1.0,59.96490275444631,
,,,C,G,d,b,L,D,y,L,y,,,,,5,19,119,12,0,0,0,0,,,,,1,8,44,32,,,,,,down,0.5837500690486195,1147.7810776880706,None,001,53,2019_Oct_23_1219,ACPT_experiment_5_30_19,3.1.0,59.96490275444631,
,,,C,G,d,b,L,U,g,R,u,,,,,5,19,119,12,0,0,0,0,,,,,1,9,45,23,,,,,,up,0.5504349576840468,1149.6657987334784,None,001,53,2019_Oct_23_1219,ACPT_experiment_5_30_19,3.1.0,59.96490275444631,
,,,C,G,d,b,L,D,y,R,y,,,,,5,19,119,12,0,0,0,0,,,,,1,10,46,33,,,,,,down,0.5337360478933988,1151.500548922968,None,001,53,2019_Oct_23_1219,ACPT_experiment_5_30_19,3.1.0,59.96490275444631,
,,,C,G,d,b,R,G,y,L,y,,,,,5,19,119,12,0,0,0,0,,,,,1,11,47,28,,,,,,down,0.7506129916509963,1153.3185953729899,None,001,53,2019_Oct_23_1219,ACPT_experiment_5_30_19,3.1.0,59.96490275444631,
,,,C,G,d,b,L,U,g,L,u,,,,,5,19,119,12,0,0,0,0,,,,,1,12,48,22,,,,,,up,0.7669895205071953,1155.3704123729076,None,001,53,2019_Oct_23_1219,ACPT_experiment_5_30_19,3.1.0,59.96490275444631,
,,,C,G,d,b,L,G,d,L,i,,,,,5,19,119,12,0,0,0,0,,,,,1,13,49,16,,,,,,up,0.6672240918778698,1157.4216926749814,None,001,53,2019_Oct_23_1219,ACPT_experiment_5_30_19,3.1.0,59.96490275444631,
,,,C,G,d,b,R,U,g,R,u,,,,,5,19,119,12,0,0,0,0,,,,,1,14,50,11,,,,,,up,1.267620849836021,1159.373193361247,None,001,53,2019_Oct_23_1219,ACPT_experiment_5_30_19,3.1.0,59.96490275444631,
,,,C,G,d,b,R,U,g,L,u,,,,,5,19,119,12,0,0,0,0,,,,,1,15,51,10,,,,,,up,0.7172245295660105,1161.9084314386619,None,001,53,2019_Oct_23_1219,ACPT_experiment_5_30_19,3.1.0,59.96490275444631,
,,,C,G,d,b,L,D,g,R,i,,,,,5,19,119,12,0,0,0,0,,,,,1,16,52,15,,,,,,up,0.6672397883266967,1163.9099696907597,None,001,53,2019_Oct_23_1219,ACPT_experiment_5_30_19,3.1.0,59.96490275444631,
,,,C,G,d,b,R,D,g,R,i,,,,,5,19,119,12,0,0,0,0,,,,,1,17,53,3,,,,,,up,0.58382794759018,1165.8614504546094,None,001,53,2019_Oct_23_1219,ACPT_experiment_5_30_19,3.1.0,59.96490275444631,
,,,C,G,d,b,R,U,d,R,u,,,,,5,19,119,12,0,0,0,0,,,,,1,18,54,9,,,,,,up,0.5337378590229491,1167.7295338667518,None,001,53,2019_Oct_23_1219,ACPT_experiment_5_30_19,3.1.0,59.96490275444631,
,,,C,G,d,b,R,D,d,R,c ,,,,,5,19,119,12,0,0,0,0,,,,,1,19,55,1,,,,,,up,0.6504931854760798,1169.5309037442385,None,001,53,2019_Oct_23_1219,ACPT_experiment_5_30_19,3.1.0,59.96490275444631,
,,,C,G,d,b,L,D,d,R,c ,,,,,5,19,119,12,0,0,0,0,,,,,1,20,56,13,,,,,,up,0.8673203231901425,1171.4657070299872,None,001,53,2019_Oct_23_1219,ACPT_experiment_5_30_19,3.1.0,59.96490275444631,
,,,C,G,d,b,R,G,d,R,i,,,,,5,19,119,12,0,0,0,0,,,,,1,21,57,5,,,,,,up,1.1842319500647136,1173.61733805716,None,001,53,2019_Oct_23_1219,ACPT_experiment_5_30_19,3.1.0,59.96490275444631,
,,,C,G,d,b,L,D,d,L,c ,,,,,5,19,119,12,0,0,0,0,,,,,1,22,58,12,,,,,,up,1.1508769938645855,1176.0858752778204,None,001,53,2019_Oct_23_1219,ACPT_experiment_5_30_19,3.1.0,59.96490275444631,
,,,C,G,d,b,L,U,y,R,u,,,,,5,19,119,12,0,0,0,0,,,,,1,23,59,25,,,,,,down,0.7839036527748249,1178.5210838036492,None,001,53,2019_Oct_23_1219,ACPT_experiment_5_30_19,3.1.0,59.96490275444631,
,,,C,G,d,b,R,G,g,R,c ,,,,,5,19,119,12,0,0,0,0,,,,,1,24,60,7,,,,,,up,0.6671951138159784,1180.589272200894,None,001,53,2019_Oct_23_1219,ACPT_experiment_5_30_19,3.1.0,59.96490275444631,
,,,C,G,d,b,L,G,y,L,y,,,,,5,19,119,12,0,0,0,0,,,,,1,25,61,34,,,,,,down,0.8172812480861467,1182.5407819428037,None,001,53,2019_Oct_23_1219,ACPT_experiment_5_30_19,3.1.0,59.96490275444631,
,,,C,G,d,b,R,G,d,L,i,,,,,5,19,119,12,0,0,0,0,,,,,1,26,62,4,,,,,,up,0.8005989403081912,1184.6423832523724,None,001,53,2019_Oct_23_1219,ACPT_experiment_5_30_19,3.1.0,59.96490275444631,
,,,C,G,d,b,L,G,g,R,c ,,,,,5,19,119,12,0,0,0,0,,,,,1,27,63,19,,,,,,up,1.1675553775294247,1186.7272907836796,None,001,53,2019_Oct_23_1219,ACPT_experiment_5_30_19,3.1.0,59.96490275444631,
,,,C,G,d,b,L,U,y,L,u,,,,,5,19,119,12,0,0,0,0,,,,,1,28,64,24,,,,,,down,1.3510233330744086,1189.1791547522062,None,001,53,2019_Oct_23_1219,ACPT_experiment_5_30_19,3.1.0,59.96490275444631,
,,,C,G,d,b,L,U,d,R,u,,,,,5,19,119,12,0,0,0,0,,,,,1,29,65,21,,,,,,up,1.9514792545760429,1191.814488185555,None,001,53,2019_Oct_23_1219,ACPT_experiment_5_30_19,3.1.0,59.96490275444631,
,,,C,G,d,b,R,U,y,L,u,,,,,5,19,119,12,0,0,0,0,,,,,1,30,66,30,,,,,,down,1.484464891418611,1195.0502787478217,None,001,53,2019_Oct_23_1219,ACPT_experiment_5_30_19,3.1.0,59.96490275444631,
,,,C,G,d,b,R,D,y,L,y,,,,,5,19,119,12,0,0,0,0,,,,,1,31,67,26,,,,,,down,0.7005385995325923,1197.8190428727412,None,001,53,2019_Oct_23_1219,ACPT_experiment_5_30_19,3.1.0,59.96490275444631,
,,,C,G,d,b,R,U,d,L,u,,,,,5,19,119,12,0,0,0,0,,,,,1,32,68,8,,,,,,up,1.5511811427677458,1199.803889459563,None,001,53,2019_Oct_23_1219,ACPT_experiment_5_30_19,3.1.0,59.96490275444631,
,,,C,G,d,b,L,U,d,L,u,,,,,5,19,119,12,0,0,0,0,,,,,1,33,69,20,,,,,,up,0.6671691543033376,1202.6393701376855,None,001,53,2019_Oct_23_1219,ACPT_experiment_5_30_19,3.1.0,59.96490275444631,
,,,C,G,d,b,R,G,g,L,c ,,,,,5,19,119,12,0,0,0,0,,,,,1,34,70,6,,,,,,up,0.6838330489354121,1204.590866597986,None,001,53,2019_Oct_23_1219,ACPT_experiment_5_30_19,3.1.0,59.96490275444631,
,,,C,G,d,b,L,G,g,L,c ,,,,,5,19,119,12,0,0,0,0,,,,,1,35,71,18,,,,,,up,0.4836993876269844,1206.5423355894982,None,001,53,2019_Oct_23_1219,ACPT_experiment_5_30_19,3.1.0,59.96490275444631,
,,,C,G,d,b,,,,,,,,,,5,19,119,12,1,0,1,0,0,0,0,0,,,,,,,,,,,,,,001,53,2019_Oct_23_1219,ACPT_experiment_5_30_19,3.1.0,59.96490275444631,
,,,C,G,d,b,L,D,y,R,y,,,,,5,19,119,12,1,0,1,0,,,,,0,0,0,33,,,,,,down,0.7168106866265589,1252.34414919355,None,001,53,2019_Oct_23_1219,ACPT_experiment_5_30_19,3.1.0,59.96490275444631,
,,,C,G,d,b,R,U,y,L,u,,,,,5,19,119,12,1,0,1,0,,,,,0,1,1,30,,,,,,down,0.833954802072185,1254.3619746254826,None,001,53,2019_Oct_23_1219,ACPT_experiment_5_30_19,3.1.0,59.96490275444631,
,,,C,G,d,b,R,U,y,R,u,,,,,5,19,119,12,1,0,1,0,,,,,0,2,2,31,,,,,,down,0.6671893785751308,1256.4969091577022,None,001,53,2019_Oct_23_1219,ACPT_experiment_5_30_19,3.1.0,59.96490275444631,
,,,C,G,d,b,L,G,d,L,i,,,,,5,19,119,12,1,0,1,0,,,,,0,3,3,16,,,,,,up,0.6505390674083174,1258.4484131643712,None,001,53,2019_Oct_23_1219,ACPT_experiment_5_30_19,3.1.0,59.96490275444631,
,,,C,G,d,b,L,U,g,L,u,,,,,5,19,119,12,1,0,1,0,,,,,0,4,4,22,,,,,,up,0.6338169147966255,1260.3832086018974,None,001,53,2019_Oct_23_1219,ACPT_experiment_5_30_19,3.1.0,59.96490275444631,
,,,C,G,d,b,L,G,y,L,y,,,,,5,19,119,12,1,0,1,0,,,,,0,5,5,34,,,,,,down,0.733888424199904,1262.3180167173232,None,001,53,2019_Oct_23_1219,ACPT_experiment_5_30_19,3.1.0,59.96490275444631,
,,,C,G,d,b,L,G,g,L,c ,,,,,5,19,119,12,1,0,1,0,,,,,0,6,6,18,,,,,,up,0.8005971291786409,1264.3528984551376,None,001,53,2019_Oct_23_1219,ACPT_experiment_5_30_19,3.1.0,59.96490275444631,
,,,C,G,d,b,R,D,y,L,y,,,,,5,19,119,12,1,0,1,0,,,,,0,7,7,26,,,,,,down,0.8506458636384195,1266.4378062883006,None,001,53,2019_Oct_23_1219,ACPT_experiment_5_30_19,3.1.0,59.96490275444631,
,,,C,G,d,b,L,G,y,R,y,,,,,5,19,119,12,1,0,1,0,,,,,0,8,8,35,,,,,,down,1.0508223883298342,1268.572766478179,None,001,53,2019_Oct_23_1219,ACPT_experiment_5_30_19,3.1.0,59.96490275444631,
,,,C,G,d,b,L,D,g,L,i,,,,,5,19,119,12,1,0,1,0,,,,,0,9,9,14,,,,,,up,0.7003031527838175,1270.9248049489706,None,001,53,2019_Oct_23_1219,ACPT_experiment_5_30_19,3.1.0,59.96490275444631,
,,,C,G,d,b,R,D,y,R,y,,,,,5,19,119,12,1,0,1,0,,,,,0,10,10,27,,,,,,down,0.6338084628623619,1272.9093928462225,None,001,53,2019_Oct_23_1219,ACPT_experiment_5_30_19,3.1.0,59.96490275444631,
,,,C,G,d,b,R,G,g,R,c ,,,,,5,19,119,12,1,0,1,0,,,,,0,11,11,7,,,,,,up,0.7172076256974833,1274.827513824197,None,001,53,2019_Oct_23_1219,ACPT_experiment_5_30_19,3.1.0,59.96490275444631,
,,,C,G,d,b,R,G,d,R,i,,,,,5,19,119,12,1,0,1,0,,,,,0,12,12,5,,,,,,up,0.7005521829996724,1276.8290312483114,None,001,53,2019_Oct_23_1219,ACPT_experiment_5_30_19,3.1.0,59.96490275444631,
,,,C,G,d,b,R,U,d,L,u,,,,,5,19,119,12,1,0,1,0,,,,,0,13,13,8,,,,,,up,0.6671610042230895,1278.813873005458,None,001,53,2019_Oct_23_1219,ACPT_experiment_5_30_19,3.1.0,59.96490275444631,
,,,C,G,d,b,R,G,d,L,i,,,,,5,19,119,12,1,0,1,0,,,,,0,14,14,4,,,,,,up,0.8672850061775534,1280.7653806343842,None,001,53,2019_Oct_23_1219,ACPT_experiment_5_30_19,3.1.0,59.96490275444631,
,,,C,G,d,b,R,U,d,R,u,,,,,5,19,119,12,1,0,1,0,,,,,0,15,15,9,,,,,,up,0.5670952300588397,1282.900308223945,None,001,53,2019_Oct_23_1219,ACPT_experiment_5_30_19,3.1.0,59.96490275444631,
,,,C,G,d,b,L,U,d,R,u,,,,,5,19,119,12,1,0,1,0,,,,,0,16,16,21,,,,,,up,0.86732545472114,1284.7350324539202,None,001,53,2019_Oct_23_1219,ACPT_experiment_5_30_19,3.1.0,59.96490275444631,
,,,C,G,d,b,L,U,d,L,u,,,,,5,19,119,12,1,0,1,0,,,,,0,17,17,20,,,,,,up,0.5504044703502586,1286.8866752534304,None,001,53,2019_Oct_23_1219,ACPT_experiment_5_30_19,3.1.0,59.96490275444631,
,,,C,G,d,b,L,D,g,R,i,,,,,5,19,119,12,1,0,1,0,,,,,0,18,18,15,,,,,,up,0.533734538619683,1288.7213940500205,None,001,53,2019_Oct_23_1219,ACPT_experiment_5_30_19,3.1.0,59.96490275444631,
,,,C,G,d,b,R,G,y,L,y,,,,,5,19,119,12,1,0,1,0,,,,,0,19,19,28,,,,,,down,0.7505604689140455,1290.5394447260078,None,001,53,2019_Oct_23_1219,ACPT_experiment_5_30_19,3.1.0,59.96490275444631,
,,,C,G,d,b,R,U,g,R,u,,,,,5,19,119,12,1,0,1,0,,,,,0,20,20,11,,,,,,up,0.7005226012279309,1292.574322539711,None,001,53,2019_Oct_23_1219,ACPT_experiment_5_30_19,3.1.0,59.96490275444631,
,,,C,G,d,b,R,D,g,R,i,,,,,5,19,119,12,1,0,1,0,,,,,0,21,21,3,,,,,,up,0.7172043052942172,1294.5424804798058,None,001,53,2019_Oct_23_1219,ACPT_experiment_5_30_19,3.1.0,59.96490275444631,
,,,C,G,d,b,R,D,d,R,c ,,,,,5,19,119,12,1,0,1,0,,,,,0,22,22,1,,,,,,up,0.5837911213038751,1296.5272998996952,None,001,53,2019_Oct_23_1219,ACPT_experiment_5_30_19,3.1.0,59.96490275444631,
,,,C,G,d,b,L,U,y,R,u,,,,,5,19,119,12,1,0,1,0,,,,,0,23,23,25,,,,,,down,0.6504892613629636,1298.3954068565126,None,001,53,2019_Oct_23_1219,ACPT_experiment_5_30_19,3.1.0,59.96490275444631,
,,,C,G,d,b,L,D,d,R,c ,,,,,5,19,119,12,1,0,1,0,,,,,0,24,24,13,,,,,,up,0.9340383856688277,1300.3302050107304,None,001,53,2019_Oct_23_1219,ACPT_experiment_5_30_19,3.1.0,59.96490275444631,
,,,C,G,d,b,L,D,d,L,c ,,,,,5,19,119,12,1,0,1,0,,,,,0,25,25,12,,,,,,up,0.6838273136945645,1302.5319025817953,None,001,53,2019_Oct_23_1219,ACPT_experiment_5_30_19,3.1.0,59.96490275444631,
,,,C,G,d,b,L,G,g,R,c ,,,,,5,19,119,12,1,0,1,0,,,,,0,26,26,19,,,,,,up,0.7671362219425646,1304.5000439198757,None,001,53,2019_Oct_23_1219,ACPT_experiment_5_30_19,3.1.0,59.96490275444631,
,,,C,G,d,b,R,G,g,L,c ,,,,,5,19,119,12,1,0,1,0,,,,,0,27,27,6,,,,,,up,0.6338003127821139,1306.551609172886,None,001,53,2019_Oct_23_1219,ACPT_experiment_5_30_19,3.1.0,59.96490275444631,
,,,C,G,d,b,R,D,d,L,c,,,,,5,19,119,12,1,0,1,0,,,,,0,28,28,0,,,,,,up,0.7005452403391246,1308.4696969468296,None,001,53,2019_Oct_23_1219,ACPT_experiment_5_30_19,3.1.0,59.96490275444631,
,,,C,G,d,b,L,U,g,R,u,,,,,5,19,119,12,1,0,1,0,,,,,0,29,29,23,,,,,,up,0.9173621149875544,1310.4545601356658,None,001,53,2019_Oct_23_1219,ACPT_experiment_5_30_19,3.1.0,59.96490275444631,
,,,C,G,d,b,R,U,g,L,u,,,,,5,19,119,12,1,0,1,0,,,,,0,30,30,10,,,,,,up,0.9006755812442861,1312.6562350676213,None,001,53,2019_Oct_23_1219,ACPT_experiment_5_30_19,3.1.0,59.96490275444631,
,,,C,G,d,b,L,U,y,L,u,,,,,5,19,119,12,1,0,1,0,,,,,0,31,31,24,,,,,,down,0.7505652985910274,1314.8412231639759,None,001,53,2019_Oct_23_1219,ACPT_experiment_5_30_19,3.1.0,59.96490275444631,
,,,C,G,d,b,L,D,y,L,y,,,,,5,19,119,12,1,0,1,0,,,,,0,32,32,32,,,,,,down,0.650491676202364,1316.8760988646955,None,001,53,2019_Oct_23_1219,ACPT_experiment_5_30_19,3.1.0,59.96490275444631,
,,,C,G,d,b,R,D,g,L,i,,,,,5,19,119,12,1,0,1,0,,,,,0,33,33,2,,,,,,up,0.9007087852714903,1318.810903056008,None,001,53,2019_Oct_23_1219,ACPT_experiment_5_30_19,3.1.0,59.96490275444631,
,,,C,G,d,b,R,G,y,R,y,,,,,5,19,119,12,1,0,1,0,,,,,0,34,34,29,,,,,,down,0.7839456105939462,1320.9958754559138,None,001,53,2019_Oct_23_1219,ACPT_experiment_5_30_19,3.1.0,59.96490275444631,
,,,C,G,d,b,L,G,d,R,i,,,,,5,19,119,12,1,0,1,0,,,,,0,35,35,17,,,,,,up,1.2173879839447181,1323.0642986961993,None,001,53,2019_Oct_23_1219,ACPT_experiment_5_30_19,3.1.0,59.96490275444631,
,,,C,G,d,b,L,G,d,L,i,,,,,5,19,119,12,1,0,1,0,,,,,1,0,36,16,,,,,,up,0.6838396897419443,1325.5660369271063,None,001,53,2019_Oct_23_1219,ACPT_experiment_5_30_19,3.1.0,59.96490275444631,
,,,C,G,d,b,R,D,y,L,y,,,,,5,19,119,12,1,0,1,0,,,,,1,1,37,26,,,,,,down,0.6671670413179527,1327.5341945653472,None,001,53,2019_Oct_23_1219,ACPT_experiment_5_30_19,3.1.0,59.96490275444631,
,,,C,G,d,b,L,D,g,L,i,,,,,5,19,119,12,1,0,1,0,,,,,1,2,38,14,,,,,,up,0.8006019588574418,1329.4856750273411,None,001,53,2019_Oct_23_1219,ACPT_experiment_5_30_19,3.1.0,59.96490275444631,
,,,C,G,d,b,L,U,d,R,u,,,,,5,19,119,12,1,0,1,0,,,,,1,3,39,21,,,,,,up,0.9674005863817001,1331.5705907087286,None,001,53,2019_Oct_23_1219,ACPT_experiment_5_30_19,3.1.0,59.96490275444631,
,,,C,G,d,b,R,G,g,R,c ,,,,,5,19,119,12,1,0,1,0,,,,,1,4,40,7,,,,,,up,0.6338138962473749,1333.8222989805472,None,001,53,2019_Oct_23_1219,ACPT_experiment_5_30_19,3.1.0,59.96490275444631,
,,,C,G,d,b,R,U,d,L,u,,,,,5,19,119,12,1,0,1,0,,,,,1,5,41,8,,,,,,up,0.7839256881761685,1335.7404235807771,None,001,53,2019_Oct_23_1219,ACPT_experiment_5_30_19,3.1.0,59.96490275444631,
,,,C,G,d,b,L,U,g,R,u,,,,,5,19,119,12,1,0,1,0,,,,,1,6,42,23,,,,,,up,0.7005331661457603,1337.8086578599523,None,001,53,2019_Oct_23_1219,ACPT_experiment_5_30_19,3.1.0,59.96490275444631,
,,,C,G,d,b,L,U,d,L,u,,,,,5,19,119,12,1,0,1,0,,,,,1,7,43,20,,,,,,up,0.8840412683821341,1339.7768010091622,None,001,53,2019_Oct_23_1219,ACPT_experiment_5_30_19,3.1.0,59.96490275444631,
,,,C,G,d,b,R,U,y,R,u,,,,,5,19,119,12,1,0,1,0,,,,,1,8,44,31,,,,,,down,0.7172033997303515,1341.9451348702387,None,001,53,2019_Oct_23_1219,ACPT_experiment_5_30_19,3.1.0,59.96490275444631,
,,,C,G,d,b,R,U,y,L,u,,,,,5,19,119,12,1,0,1,0,,,,,1,9,45,30,,,,,,down,0.7338775574280589,1343.94665712403,None,001,53,2019_Oct_23_1219,ACPT_experiment_5_30_19,3.1.0,59.96490275444631,
,,,C,G,d,b,R,D,y,R,y,,,,,5,19,119,12,1,0,1,0,,,,,1,10,46,27,,,,,,down,0.6838457268386264,1345.981531919184,None,001,53,2019_Oct_23_1219,ACPT_experiment_5_30_19,3.1.0,59.96490275444631,
,,,C,G,d,b,L,D,y,L,y,,,,,5,19,119,12,1,0,1,0,,,,,1,11,47,32,,,,,,down,0.8339641595703142,1347.9496910666985,None,001,53,2019_Oct_23_1219,ACPT_experiment_5_30_19,3.1.0,59.96490275444631,
,,,C,G,d,b,R,D,g,L,i,,,,,5,19,119,12,1,0,1,0,,,,,1,12,48,2,,,,,,up,0.7338820852510253,1350.0679656283974,None,001,53,2019_Oct_23_1219,ACPT_experiment_5_30_19,3.1.0,59.96490275444631,
,,,C,G,d,b,L,U,y,R,u,,,,,5,19,119,12,1,0,1,0,,,,,1,13,49,25,,,,,,down,0.6502136679246178,1352.1031175262651,None,001,53,2019_Oct_23_1219,ACPT_experiment_5_30_19,3.1.0,59.96490275444631,
,,,C,G,d,b,L,D,y,R,y,,,,,5,19,119,12,1,0,1,0,,,,,1,14,50,33,,,,,,down,0.5837751229973946,1354.037643105592,None,001,53,2019_Oct_23_1219,ACPT_experiment_5_30_19,3.1.0,59.96490275444631,
,,,C,G,d,b,L,G,y,L,y,,,,,5,19,119,12,1,0,1,0,,,,,1,15,51,34,,,,,,down,0.9674129624308989,1355.9057201787837,None,001,53,2019_Oct_23_1219,ACPT_experiment_5_30_19,3.1.0,59.96490275444631,
,,,C,G,d,b,L,U,g,L,u,,,,,5,19,119,12,1,0,1,0,,,,,1,16,52,22,,,,,,up,0.5670934189311083,1358.1574387136643,None,001,53,2019_Oct_23_1219,ACPT_experiment_5_30_19,3.1.0,59.96490275444631,
,,,C,G,d,b,R,D,d,R,c ,,,,,5,19,119,12,1,0,1,0,,,,,1,17,53,1,,,,,,up,0.5837730100156477,1360.0088600423023,None,001,53,2019_Oct_23_1219,ACPT_experiment_5_30_19,3.1.0,59.96490275444631,
,,,C,G,d,b,L,G,y,R,y,,,,,5,19,119,12,1,0,1,0,,,,,1,18,54,35,,,,,,down,0.5837711988842784,1361.8769316821072,None,001,53,2019_Oct_23_1219,ACPT_experiment_5_30_19,3.1.0,59.96490275444631,
,,,C,G,d,b,L,G,d,R,i,,,,,5,19,119,12,1,0,1,0,,,,,1,19,55,17,,,,,,up,0.7173603642313537,1363.7450135849758,None,001,53,2019_Oct_23_1219,ACPT_experiment_5_30_19,3.1.0,59.96490275444631,
,,,C,G,d,b,R,G,d,L,i,,,,,5,19,119,12,1,0,1,0,,,,,1,20,56,4,,,,,,up,0.6171213254074246,1365.7465370461887,None,001,53,2019_Oct_23_1219,ACPT_experiment_5_30_19,3.1.0,59.96490275444631,
,,,C,G,d,b,L,D,g,R,i,,,,,5,19,119,12,1,0,1,0,,,,,1,21,57,15,,,,,,up,0.5837727081598132,1367.6479793386425,None,001,53,2019_Oct_23_1219,ACPT_experiment_5_30_19,3.1.0,59.96490275444631,
,,,C,G,d,b,R,U,g,R,u,,,,,5,19,119,12,1,0,1,0,,,,,1,22,58,11,,,,,,up,0.7338923483130202,1369.516061845221,None,001,53,2019_Oct_23_1219,ACPT_experiment_5_30_19,3.1.0,59.96490275444631,
,,,C,G,d,b,R,G,y,R,y,,,,,5,19,119,12,1,0,1,0,,,,,1,23,59,29,,,,,,down,0.617134003310639,1371.5342651993706,None,001,53,2019_Oct_23_1219,ACPT_experiment_5_30_19,3.1.0,59.96490275444631,
,,,C,G,d,b,L,G,g,L,c ,,,,,5,19,119,12,1,0,1,0,,,,,1,24,60,18,,,,,,up,1.0841486683220865,1373.4357111140835,None,001,53,2019_Oct_23_1219,ACPT_experiment_5_30_19,3.1.0,59.96490275444631,
,,,C,G,d,b,L,D,d,L,c ,,,,,5,19,119,12,1,0,1,0,,,,,1,25,61,12,,,,,,up,0.5837552005814359,1375.8041861828387,None,001,53,2019_Oct_23_1219,ACPT_experiment_5_30_19,3.1.0,59.96490275444631,
,,,C,G,d,b,L,D,d,R,c ,,,,,5,19,119,12,1,0,1,0,,,,,1,26,62,13,,,,,,up,0.8172930204218574,1377.6722535966765,None,001,53,2019_Oct_23_1219,ACPT_experiment_5_30_19,3.1.0,59.96490275444631,
,,,C,G,d,b,R,G,y,L,y,,,,,5,19,119,12,1,0,1,0,,,,,1,27,63,28,,,,,,down,0.6504913743483485,1379.7738503784203,None,001,53,2019_Oct_23_1219,ACPT_experiment_5_30_19,3.1.0,59.96490275444631,
,,,C,G,d,b,R,U,g,L,u,,,,,5,19,119,12,1,0,1,0,,,,,1,28,64,10,,,,,,up,0.650512806039842,1381.7086566827184,None,001,53,2019_Oct_23_1219,ACPT_experiment_5_30_19,3.1.0,59.96490275444631,
,,,C,G,d,b,R,G,g,L,c ,,,,,5,19,119,12,1,0,1,0,,,,,1,29,65,6,,,,,,up,0.6502115549410519,1383.660409719605,None,001,53,2019_Oct_23_1219,ACPT_experiment_5_30_19,3.1.0,59.96490275444631,
,,,C,G,d,b,R,G,d,R,i,,,,,5,19,119,12,1,0,1,0,,,,,1,30,66,5,,,,,,up,0.7839516476888093,1385.578232163174,None,001,53,2019_Oct_23_1219,ACPT_experiment_5_30_19,3.1.0,59.96490275444631,
,,,C,G,d,b,L,G,g,R,c ,,,,,5,19,119,12,1,0,1,0,,,,,1,31,67,19,,,,,,up,0.8840023291122634,1387.646492401862,None,001,53,2019_Oct_23_1219,ACPT_experiment_5_30_19,3.1.0,59.96490275444631,
,,,C,G,d,b,R,D,d,L,c,,,,,5,19,119,12,1,0,1,0,,,,,1,32,68,0,,,,,,up,1.0841719111431303,1389.8148030201191,None,001,53,2019_Oct_23_1219,ACPT_experiment_5_30_19,3.1.0,59.96490275444631,
,,,C,G,d,b,L,U,y,L,u,,,,,5,19,119,12,1,0,1,0,,,,,1,33,69,24,,,,,,down,0.700531355018029,1392.183270542504,None,001,53,2019_Oct_23_1219,ACPT_experiment_5_30_19,3.1.0,59.96490275444631,
,,,C,G,d,b,R,D,g,R,i,,,,,5,19,119,12,1,0,1,0,,,,,1,34,70,3,,,,,,up,0.7505659023008775,1394.168111092229,None,001,53,2019_Oct_23_1219,ACPT_experiment_5_30_19,3.1.0,59.96490275444631,
,,,C,G,d,b,R,U,d,R,u,,,,,5,19,119,12,1,0,1,0,,,,,1,35,71,9,,,,,,up,0.9337984110970865,1396.2199443923073,None,001,53,2019_Oct_23_1219,ACPT_experiment_5_30_19,3.1.0,59.96490275444631,
,,,C,G,d,b,,,,,,,,,,5,19,119,12,2,0,2,0,0,0,0,0,,,,,,,,,,,,,,001,53,2019_Oct_23_1219,ACPT_experiment_5_30_19,3.1.0,59.96490275444631,
,,,C,G,d,b,L,U,d,R,u,,,,,5,19,119,12,2,0,2,0,,,,,0,0,0,21,,,,,,up,0.6168665599525411,1460.3686389759168,None,001,53,2019_Oct_23_1219,ACPT_experiment_5_30_19,3.1.0,59.96490275444631,
,,,C,G,d,b,R,D,y,L,y,,,,,5,19,119,12,2,0,2,0,,,,,0,1,1,26,,,,,,down,0.7172260388415452,1462.26981684356,None,001,53,2019_Oct_23_1219,ACPT_experiment_5_30_19,3.1.0,59.96490275444631,
,,,C,G,d,b,L,G,d,R,i,,,,,5,19,119,12,2,0,2,0,,,,,0,2,2,17,,,,,,up,0.6004568270655,1464.2713300417072,None,001,53,2019_Oct_23_1219,ACPT_experiment_5_30_19,3.1.0,59.96490275444631,
,,,C,G,d,b,R,U,d,L,u,,,,,5,19,119,12,2,0,2,0,,,,,0,3,3,8,,,,,,up,0.6505125041840074,1466.1393968518369,None,001,53,2019_Oct_23_1219,ACPT_experiment_5_30_19,3.1.0,59.96490275444631,
,,,C,G,d,b,R,U,g,L,u,,,,,5,19,119,12,2,0,2,0,,,,,0,4,4,10,,,,,,up,0.5504542763937934,1468.0742194562936,None,001,53,2019_Oct_23_1219,ACPT_experiment_5_30_19,3.1.0,59.96490275444631,
,,,C,G,d,b,R,U,y,R,u,,,,,5,19,119,12,2,0,2,0,,,,,0,5,5,31,,,,,,down,0.5337405757145461,1469.9089445918344,None,001,53,2019_Oct_23_1219,ACPT_experiment_5_30_19,3.1.0,59.96490275444631,
,,,C,G,d,b,R,D,d,L,c,,,,,5,19,119,12,2,0,2,0,,,,,0,6,6,0,,,,,,up,0.6171312866172229,1471.7269910418563,None,001,53,2019_Oct_23_1219,ACPT_experiment_5_30_19,3.1.0,59.96490275444631,
,,,C,G,d,b,L,G,y,L,y,,,,,5,19,119,12,2,0,2,0,,,,,0,7,7,34,,,,,,down,0.7305580601132533,1473.648449326578,None,001,53,2019_Oct_23_1219,ACPT_experiment_5_30_19,3.1.0,59.96490275444631,
,,,C,G,d,b,L,D,y,L,y,,,,,5,19,119,12,2,0,2,0,,,,,0,8,8,32,,,,,,down,0.7005310531621944,1475.6633147702687,None,001,53,2019_Oct_23_1219,ACPT_experiment_5_30_19,3.1.0,59.96490275444631,
,,,C,G,d,b,R,U,y,L,u,,,,,5,19,119,12,2,0,2,0,,,,,0,9,9,30,,,,,,down,0.5670946263508085,1477.6481562255594,None,001,53,2019_Oct_23_1219,ACPT_experiment_5_30_19,3.1.0,59.96490275444631,
,,,C,G,d,b,L,U,y,L,u,,,,,5,19,119,12,2,0,2,0,,,,,0,10,10,24,,,,,,down,0.8506449580745539,1479.4995618577486,None,001,53,2019_Oct_23_1219,ACPT_experiment_5_30_19,3.1.0,59.96490275444631,
,,,C,G,d,b,R,D,g,L,i,,,,,5,19,119,12,2,0,2,0,,,,,0,11,11,2,,,,,,up,0.6338099721360777,1481.63451661424,None,001,53,2019_Oct_23_1219,ACPT_experiment_5_30_19,3.1.0,59.96490275444631,
,,,C,G,d,b,R,G,y,L,y,,,,,5,19,119,12,2,0,2,0,,,,,0,12,12,28,,,,,,down,0.6671685505934875,1483.5526421200357,None,001,53,2019_Oct_23_1219,ACPT_experiment_5_30_19,3.1.0,59.96490275444631,
,,,C,G,d,b,R,G,d,R,i,,,,,5,19,119,12,2,0,2,0,,,,,0,13,13,5,,,,,,up,0.7005389013866079,1485.5041219783216,None,001,53,2019_Oct_23_1219,ACPT_experiment_5_30_19,3.1.0,59.96490275444631,
,,,C,G,d,b,L,G,g,L,c ,,,,,5,19,119,12,2,0,2,0,,,,,0,14,14,18,,,,,,up,0.41700305869562726,1487.4889404926453,None,001,53,2019_Oct_23_1219,ACPT_experiment_5_30_19,3.1.0,59.96490275444631,
,,,C,G,d,b,R,G,d,L,i,,,,,5,19,119,12,2,0,2,0,,,,,0,15,15,4,,,,,,up,0.5337327274901327,1489.19025214234,None,001,53,2019_Oct_23_1219,ACPT_experiment_5_30_19,3.1.0,59.96490275444631,
,,,C,G,d,b,R,G,y,R,y,,,,,5,19,119,12,2,0,2,0,,,,,0,16,16,29,,,,,,down,0.5504406929248944,1491.0082768588145,None,001,53,2019_Oct_23_1219,ACPT_experiment_5_30_19,3.1.0,59.96490275444631,
,,,C,G,d,b,R,G,g,R,c ,,,,,5,19,119,12,2,0,2,0,,,,,0,17,17,7,,,,,,up,0.6805141553304566,1492.8630360979114,None,001,53,2019_Oct_23_1219,ACPT_experiment_5_30_19,3.1.0,59.96490275444631,
,,,C,G,d,b,R,G,g,L,c ,,,,,5,19,119,12,2,0,2,0,,,,,0,18,18,6,,,,,,up,0.5004158049978287,1494.8110385888176,None,001,53,2019_Oct_23_1219,ACPT_experiment_5_30_19,3.1.0,59.96490275444631,
,,,C,G,d,b,L,U,d,L,u,,,,,5,19,119,12,2,0,2,0,,,,,0,19,19,20,,,,,,up,0.9006725626950356,1496.5958867452846,None,001,53,2019_Oct_23_1219,ACPT_experiment_5_30_19,3.1.0,59.96490275444631,
,,,C,G,d,b,L,U,g,R,u,,,,,5,19,119,12,2,0,2,0,,,,,0,20,20,23,,,,,,up,0.6338151036670752,1498.7641674799142,None,001,53,2019_Oct_23_1219,ACPT_experiment_5_30_19,3.1.0,59.96490275444631,
,,,C,G,d,b,L,G,d,L,i,,,,,5,19,119,12,2,0,2,0,,,,,0,21,21,16,,,,,,up,0.45033537578274263,1500.682312002562,None,001,53,2019_Oct_23_1219,ACPT_experiment_5_30_19,3.1.0,59.96490275444631,
,,,C,G,d,b,L,U,y,R,u,,,,,5,19,119,12,2,0,2,0,,,,,0,22,22,25,,,,,,down,0.7338899334736197,1502.4169592897488,None,001,53,2019_Oct_23_1219,ACPT_experiment_5_30_19,3.1.0,59.96490275444631,
,,,C,G,d,b,L,D,g,L,i,,,,,5,19,119,12,2,0,2,0,,,,,0,23,23,14,,,,,,up,0.4670173817048635,1504.4351605309148,None,001,53,2019_Oct_23_1219,ACPT_experiment_5_30_19,3.1.0,59.96490275444631,
,,,C,G,d,b,R,U,d,R,u,,,,,5,19,119,12,2,0,2,0,,,,,0,24,24,9,,,,,,up,0.6336038053013908,1506.203334529686,None,001,53,2019_Oct_23_1219,ACPT_experiment_5_30_19,3.1.0,59.96490275444631,
,,,C,G,d,b,L,D,y,R,y,,,,,5,19,119,12,2,0,2,0,,,,,0,25,25,33,,,,,,down,0.6337960868131631,1508.1379853787566,None,001,53,2019_Oct_23_1219,ACPT_experiment_5_30_19,3.1.0,59.96490275444631,
,,,C,G,d,b,R,U,g,R,u,,,,,5,19,119,12,2,0,2,0,,,,,0,26,26,11,,,,,,up,1.0340917837838788,1510.0561148086654,None,001,53,2019_Oct_23_1219,ACPT_experiment_5_30_19,3.1.0,59.96490275444631,
,,,C,G,d,b,L,G,g,R,c ,,,,,5,19,119,12,2,0,2,0,,,,,0,27,27,19,,,,,,up,0.4503411110235902,1512.3745175982876,None,001,53,2019_Oct_23_1219,ACPT_experiment_5_30_19,3.1.0,59.96490275444631,
,,,C,G,d,b,L,D,d,R,c ,,,,,5,19,119,12,2,0,2,0,,,,,0,28,28,13,,,,,,up,0.6004501862607867,1514.1091718281332,None,001,53,2019_Oct_23_1219,ACPT_experiment_5_30_19,3.1.0,59.96490275444631,
,,,C,G,d,b,L,U,g,L,u,,,,,5,19,119,12,2,0,2,0,,,,,0,29,29,22,,,,,,up,0.6338042368934111,1515.993940264745,None,001,53,2019_Oct_23_1219,ACPT_experiment_5_30_19,3.1.0,59.96490275444631,
,,,C,G,d,b,R,D,d,R,c ,,,,,5,19,119,12,2,0,2,0,,,,,0,30,30,1,,,,,,up,0.5504177519596851,1517.9120585260262,None,001,53,2019_Oct_23_1219,ACPT_experiment_5_30_19,3.1.0,59.96490275444631,
,,,C,G,d,b,L,G,y,R,y,,,,,5,19,119,12,2,0,2,0,,,,,0,31,31,35,,,,,,down,0.8839522212147131,1519.7801675958272,None,001,53,2019_Oct_23_1219,ACPT_experiment_5_30_19,3.1.0,59.96490275444631,
,,,C,G,d,b,R,D,y,R,y,,,,,5,19,119,12,2,0,2,0,,,,,0,32,32,27,,,,,,down,0.683851462079474,1521.9651333549264,None,001,53,2019_Oct_23_1219,ACPT_experiment_5_30_19,3.1.0,59.96490275444631,
,,,C,G,d,b,L,D,g,R,i,,,,,5,19,119,12,2,0,2,0,,,,,0,33,33,15,,,,,,up,0.5337677426487062,1523.9332979358278,None,001,53,2019_Oct_23_1219,ACPT_experiment_5_30_19,3.1.0,59.96490275444631,
,,,C,G,d,b,L,D,d,L,c ,,,,,5,19,119,12,2,0,2,0,,,,,0,34,34,12,,,,,,up,0.6001896855614177,1525.751611527352,None,001,53,2019_Oct_23_1219,ACPT_experiment_5_30_19,3.1.0,59.96490275444631,
,,,C,G,d,b,R,D,g,R,i,,,,,5,19,119,12,2,0,2,0,,,,,0,35,35,3,,,,,,up,0.7171955515059381,1527.6361122187518,None,001,53,2019_Oct_23_1219,ACPT_experiment_5_30_19,3.1.0,59.96490275444631,
,,,C,G,d,b,R,D,d,R,c ,,,,,5,19,119,12,2,0,2,0,,,,,1,0,36,1,,,,,,up,0.48369214311242104,1529.6376272280286,None,001,53,2019_Oct_23_1219,ACPT_experiment_5_30_19,3.1.0,59.96490275444631,
,,,C,G,d,b,L,U,y,R,u,,,,,5,19,119,12,2,0,2,0,,,,,1,1,37,25,,,,,,down,0.9007030500324618,1531.4056128693992,None,001,53,2019_Oct_23_1219,ACPT_experiment_5_30_19,3.1.0,59.96490275444631,
,,,C,G,d,b,L,D,d,L,c ,,,,,5,19,119,12,2,0,2,0,,,,,1,2,38,12,,,,,,up,0.6838502546597738,1533.5906263215584,None,001,53,2019_Oct_23_1219,ACPT_experiment_5_30_19,3.1.0,59.96490275444631,
,,,C,G,d,b,R,U,y,L,u,,,,,5,19,119,12,2,0,2,0,,,,,1,3,39,30,,,,,,down,0.7172426408560568,1535.5754710972524,None,001,53,2019_Oct_23_1219,ACPT_experiment_5_30_19,3.1.0,59.96490275444631,
,,,C,G,d,b,R,D,y,L,y,,,,,5,19,119,12,2,0,2,0,,,,,1,4,40,26,,,,,,down,0.6670490160904592,1537.5936675087414,None,001,53,2019_Oct_23_1219,ACPT_experiment_5_30_19,3.1.0,59.96490275444631,
,,,C,G,d,b,L,D,g,R,i,,,,,5,19,119,12,2,0,2,0,,,,,1,5,41,15,,,,,,up,0.783917839951755,1539.5451573282353,None,001,53,2019_Oct_23_1219,ACPT_experiment_5_30_19,3.1.0,59.96490275444631,
,,,C,G,d,b,L,U,g,L,u,,,,,5,19,119,12,2,0,2,0,,,,,1,6,42,22,,,,,,up,0.5670852688508603,1541.6133879851532,None,001,53,2019_Oct_23_1219,ACPT_experiment_5_30_19,3.1.0,59.96490275444631,
,,,C,G,d,b,R,D,g,R,i,,,,,5,19,119,12,2,0,2,0,,,,,1,7,43,3,,,,,,up,0.5170513252796809,1543.464795126616,None,001,53,2019_Oct_23_1219,ACPT_experiment_5_30_19,3.1.0,59.96490275444631,
,,,C,G,d,b,R,U,y,R,u,,,,,5,19,119,12,2,0,2,0,,,,,1,8,44,31,,,,,,down,0.6337966905248322,1545.2661704374877,None,001,53,2019_Oct_23_1219,ACPT_experiment_5_30_19,3.1.0,59.96490275444631,
,,,C,G,d,b,L,D,y,R,y,,,,,5,19,119,12,2,0,2,0,,,,,1,9,45,33,,,,,,down,0.6004426398885698,1547.1842820579623,None,001,53,2019_Oct_23_1219,ACPT_experiment_5_30_19,3.1.0,59.96490275444631,
,,,C,G,d,b,R,U,d,L,u,,,,,5,19,119,12,2,0,2,0,,,,,1,10,46,8,,,,,,up,0.5504005462353234,1549.0690544186873,None,001,53,2019_Oct_23_1219,ACPT_experiment_5_30_19,3.1.0,59.96490275444631,
,,,C,G,d,b,L,D,g,L,i,,,,,5,19,119,12,2,0,2,0,,,,,1,11,47,14,,,,,,up,0.916935896000723,1550.9208889865567,None,001,53,2019_Oct_23_1219,ACPT_experiment_5_30_19,3.1.0,59.96490275444631,
,,,C,G,d,b,L,G,d,L,i,,,,,5,19,119,12,2,0,2,0,,,,,1,12,48,16,,,,,,up,0.4669944407414732,1553.1221226067828,None,001,53,2019_Oct_23_1219,ACPT_experiment_5_30_19,3.1.0,59.96490275444631,
,,,C,G,d,b,R,U,g,R,u,,,,,5,19,119,12,2,0,2,0,,,,,1,13,49,11,,,,,,up,0.7172239258561603,1554.8734331848918,None,001,53,2019_Oct_23_1219,ACPT_experiment_5_30_19,3.1.0,59.96490275444631,
,,,C,G,d,b,R,U,d,R,u,,,,,5,19,119,12,2,0,2,0,,,,,1,14,50,9,,,,,,up,0.600448676985252,1556.8749729462634,None,001,53,2019_Oct_23_1219,ACPT_experiment_5_30_19,3.1.0,59.96490275444631,
,,,C,G,d,b,R,G,g,R,c ,,,,,5,19,119,12,2,0,2,0,,,,,1,15,51,7,,,,,,up,0.5003705267754412,1558.7597401754574,None,001,53,2019_Oct_23_1219,ACPT_experiment_5_30_19,3.1.0,59.96490275444631,
,,,C,G,d,b,R,G,d,L,i,,,,,5,19,119,12,2,0,2,0,,,,,1,16,52,4,,,,,,up,0.600475843917593,1560.5277234019886,None,001,53,2019_Oct_23_1219,ACPT_experiment_5_30_19,3.1.0,59.96490275444631,
,,,C,G,d,b,L,G,g,L,c ,,,,,5,19,119,12,2,0,2,0,,,,,1,17,53,18,,,,,,up,0.5671030782850721,1562.412509044325,None,001,53,2019_Oct_23_1219,ACPT_experiment_5_30_19,3.1.0,59.96490275444631,
,,,C,G,d,b,R,D,g,L,i,,,,,5,19,119,12,2,0,2,0,,,,,1,18,54,2,,,,,,up,0.4333826060992578,1564.2641878551149,None,001,53,2019_Oct_23_1219,ACPT_experiment_5_30_19,3.1.0,59.96490275444631,
,,,C,G,d,b,R,G,y,R,y,,,,,5,19,119,12,2,0,2,0,,,,,1,19,55,29,,,,,,down,0.7005319587260601,1565.9818772410836,None,001,53,2019_Oct_23_1219,ACPT_experiment_5_30_19,3.1.0,59.96490275444631,
,,,C,G,d,b,L,U,y,L,u,,,,,5,19,119,12,2,0,2,0,,,,,1,20,56,24,,,,,,down,1.4342256865747913,1567.983561289053,None,001,53,2019_Oct_23_1219,ACPT_experiment_5_30_19,3.1.0,59.96490275444631,
,,,C,G,d,b,R,U,g,L,u,,,,,5,19,119,12,2,0,2,0,,,,,1,21,57,10,,,,,,up,0.8839811992747855,1570.7355042529834,None,001,53,2019_Oct_23_1219,ACPT_experiment_5_30_19,3.1.0,59.96490275444631,
,,,C,G,d,b,L,U,d,R,u,,,,,5,19,119,12,2,0,2,0,,,,,1,22,58,21,,,,,,up,0.884008064353111,1572.9038018914835,None,001,53,2019_Oct_23_1219,ACPT_experiment_5_30_19,3.1.0,59.96490275444631,
,,,C,G,d,b,L,G,g,R,c ,,,,,5,19,119,12,2,0,2,0,,,,,1,23,59,19,,,,,,up,0.7339071391998004,1575.0721209616731,None,001,53,2019_Oct_23_1219,ACPT_experiment_5_30_19,3.1.0,59.96490275444631,
,,,C,G,d,b,L,G,y,R,y,,,,,5,19,119,12,2,0,2,0,,,,,1,24,60,35,,,,,,down,0.583771500740113,1577.090317373164,None,001,53,2019_Oct_23_1219,ACPT_experiment_5_30_19,3.1.0,59.96490275444631,
,,,C,G,d,b,L,U,g,R,u,,,,,5,19,119,12,2,0,2,0,,,,,1,25,61,23,,,,,,up,0.7005364865490264,1578.9584013890162,None,001,53,2019_Oct_23_1219,ACPT_experiment_5_30_19,3.1.0,59.96490275444631,
,,,C,G,d,b,L,D,d,R,c ,,,,,5,19,119,12,2,0,2,0,,,,,1,26,62,13,,,,,,up,0.5837603321124334,1580.9432594463196,None,001,53,2019_Oct_23_1219,ACPT_experiment_5_30_19,3.1.0,59.96490275444631,
,,,C,G,d,b,R,G,g,L,c ,,,,,5,19,119,12,2,0,2,0,,,,,1,27,63,6,,,,,,up,0.6338120851196436,1582.8113271620132,None,001,53,2019_Oct_23_1219,ACPT_experiment_5_30_19,3.1.0,59.96490275444631,
,,,C,G,d,b,R,G,d,R,i,,,,,5,19,119,12,2,0,2,0,,,,,1,28,64,5,,,,,,up,0.7669732203466992,1584.7297225260063,None,001,53,2019_Oct_23_1219,ACPT_experiment_5_30_19,3.1.0,59.96490275444631,
,,,C,G,d,b,R,D,d,L,c,,,,,5,19,119,12,2,0,2,0,,,,,1,29,65,0,,,,,,up,0.7672382488672156,1586.781018826383,None,001,53,2019_Oct_23_1219,ACPT_experiment_5_30_19,3.1.0,59.96490275444631,
,,,C,G,d,b,L,D,y,L,y,,,,,5,19,119,12,2,0,2,0,,,,,1,30,66,32,,,,,,down,0.617139436695652,1588.832561138428,None,001,53,2019_Oct_23_1219,ACPT_experiment_5_30_19,3.1.0,59.96490275444631,
,,,C,G,d,b,L,U,d,L,u,,,,,5,19,119,12,2,0,2,0,,,,,1,31,67,20,,,,,,up,0.6338003127821139,1590.7340182217686,None,001,53,2019_Oct_23_1219,ACPT_experiment_5_30_19,3.1.0,59.96490275444631,
,,,C,G,d,b,L,G,y,L,y,,,,,5,19,119,12,2,0,2,0,,,,,1,32,68,34,,,,,,down,0.5837748211433791,1592.652130747807,None,001,53,2019_Oct_23_1219,ACPT_experiment_5_30_19,3.1.0,59.96490275444631,
,,,C,G,d,b,R,G,y,L,y,,,,,5,19,119,12,2,0,2,0,,,,,1,33,69,28,,,,,,down,0.7505677134286088,1594.5202138580953,None,001,53,2019_Oct_23_1219,ACPT_experiment_5_30_19,3.1.0,59.96490275444631,
,,,C,G,d,b,L,G,d,R,i,,,,,5,19,119,12,2,0,2,0,,,,,1,34,70,17,,,,,,up,0.6670306029463973,1596.5552256953306,None,001,53,2019_Oct_23_1219,ACPT_experiment_5_30_19,3.1.0,59.96490275444631,
,,,C,G,d,b,R,D,y,R,y,,,,,5,19,119,12,2,0,2,0,,,,,1,35,71,27,,,,,,down,0.8840023291122634,1598.506574850484,None,001,53,2019_Oct_23_1219,ACPT_experiment_5_30_19,3.1.0,59.96490275444631,
,,,C,G,d,b,,,,,,,,,,5,19,119,12,3,0,3,0,0,0,0,0,,,,,,,,,,,,,,001,53,2019_Oct_23_1219,ACPT_experiment_5_30_19,3.1.0,59.96490275444631,
,,,C,G,d,b,L,G,y,R,y,,,,,5,19,119,12,3,0,3,0,,,,,0,0,0,35,,,,,,down,0.7172024941664858,1603.8272826034136,None,001,53,2019_Oct_23_1219,ACPT_experiment_5_30_19,3.1.0,59.96490275444631,
,,,C,G,d,b,L,G,g,R,c ,,,,,5,19,119,12,3,0,3,0,,,,,0,1,1,19,,,,,,up,0.6004471677115362,1605.8454790149044,None,001,53,2019_Oct_23_1219,ACPT_experiment_5_30_19,3.1.0,59.96490275444631,
,,,C,G,d,b,R,D,y,R,y,,,,,5,19,119,12,3,0,3,0,,,,,0,2,2,27,,,,,,down,0.7005425236438896,1607.7302239068413,None,001,53,2019_Oct_23_1219,ACPT_experiment_5_30_19,3.1.0,59.96490275444631,
,,,C,G,d,b,R,D,d,R,c ,,,,,5,19,119,12,3,0,3,0,,,,,0,3,3,1,,,,,,up,0.48369335053030227,1609.7150876993874,None,001,53,2019_Oct_23_1219,ACPT_experiment_5_30_19,3.1.0,59.96490275444631,
,,,C,G,d,b,R,G,d,L,i,,,,,5,19,119,12,3,0,3,0,,,,,0,4,4,4,,,,,,up,0.6970953417476267,1611.5030941627028,None,001,53,2019_Oct_23_1219,ACPT_experiment_5_30_19,3.1.0,59.96490275444631,
,,,C,G,d,b,L,D,g,L,i,,,,,5,19,119,12,3,0,3,0,,,,,0,5,5,14,,,,,,up,0.8673245491572743,1613.4846097817262,None,001,53,2019_Oct_23_1219,ACPT_experiment_5_30_19,3.1.0,59.96490275444631,
,,,C,G,d,b,R,D,d,L,c,,,,,5,19,119,12,3,0,3,0,,,,,0,6,6,0,,,,,,up,0.517057362374544,1615.636245336722,None,001,53,2019_Oct_23_1219,ACPT_experiment_5_30_19,3.1.0,59.96490275444631,
,,,C,G,d,b,R,U,d,L,u,,,,,5,19,119,12,3,0,3,0,,,,,0,7,7,8,,,,,,up,0.4670285503325431,1617.4376303069475,None,001,53,2019_Oct_23_1219,ACPT_experiment_5_30_19,3.1.0,59.96490275444631,
,,,C,G,d,b,R,G,g,L,c ,,,,,5,19,119,12,3,0,3,0,,,,,0,8,8,6,,,,,,up,0.4503332628009957,1619.1889429980401,None,001,53,2019_Oct_23_1219,ACPT_experiment_5_30_19,3.1.0,59.96490275444631,
,,,C,G,d,b,R,U,g,L,u,,,,,5,19,119,12,3,0,3,0,,,,,0,9,9,10,,,,,,up,0.500372036050976,1620.9235881722434,None,001,53,2019_Oct_23_1219,ACPT_experiment_5_30_19,3.1.0,59.96490275444631,
,,,C,G,d,b,R,G,g,R,c ,,,,,5,19,119,12,3,0,3,0,,,,,0,10,10,7,,,,,,up,0.533739972006515,1622.7082784586455,None,001,53,2019_Oct_23_1219,ACPT_experiment_5_30_19,3.1.0,59.96490275444631,
,,,C,G,d,b,L,D,d,L,c ,,,,,5,19,119,12,3,0,3,0,,,,,0,11,11,12,,,,,,up,0.5503945091404603,1624.5430204980548,None,001,53,2019_Oct_23_1219,ACPT_experiment_5_30_19,3.1.0,59.96490275444631,
,,,C,G,d,b,R,G,y,R,y,,,,,5,19,119,12,3,0,3,0,,,,,0,12,12,29,,,,,,down,0.6004465640016861,1626.3777368798055,None,001,53,2019_Oct_23_1219,ACPT_experiment_5_30_19,3.1.0,59.96490275444631,
,,,C,G,d,b,L,U,d,L,u,,,,,5,19,119,12,3,0,3,0,,,,,0,13,13,20,,,,,,up,0.6671670413197717,1628.2624959589193,None,001,53,2019_Oct_23_1219,ACPT_experiment_5_30_19,3.1.0,59.96490275444631,
,,,C,G,d,b,R,U,y,R,u,,,,,5,19,119,12,3,0,3,0,,,,,0,14,14,31,,,,,,down,0.6004842958518566,1630.2139779301888,None,001,53,2019_Oct_23_1219,ACPT_experiment_5_30_19,3.1.0,59.96490275444631,
,,,C,G,d,b,L,U,y,L,u,,,,,5,19,119,12,3,0,3,0,,,,,0,15,15,24,,,,,,down,0.5837035834083508,1632.098801908085,None,001,53,2019_Oct_23_1219,ACPT_experiment_5_30_19,3.1.0,59.96490275444631,
,,,C,G,d,b,R,U,g,R,u,,,,,5,19,119,12,3,0,3,0,,,,,0,16,16,11,,,,,,up,0.4169731750698702,1633.966829778943,None,001,53,2019_Oct_23_1219,ACPT_experiment_5_30_19,3.1.0,59.96490275444631,
,,,C,G,d,b,L,U,g,L,u,,,,,5,19,119,12,3,0,3,0,,,,,0,17,17,22,,,,,,up,0.4169580823290744,1635.6681178839626,None,001,53,2019_Oct_23_1219,ACPT_experiment_5_30_19,3.1.0,59.96490275444631,
,,,C,G,d,b,L,G,g,L,c ,,,,,5,19,119,12,3,0,3,0,,,,,0,18,18,18,,,,,,up,0.4167181077573332,1637.386348193746,None,001,53,2019_Oct_23_1219,ACPT_experiment_5_30_19,3.1.0,59.96490275444631,
,,,C,G,d,b,L,U,d,R,u,,,,,5,19,119,12,3,0,3,0,,,,,0,19,19,21,,,,,,up,0.5170501178599807,1639.0873842500023,None,001,53,2019_Oct_23_1219,ACPT_experiment_5_30_19,3.1.0,59.96490275444631,
,,,C,G,d,b,L,G,d,L,i,,,,,5,19,119,12,3,0,3,0,,,,,0,20,20,16,,,,,,up,0.500377469435989,1640.8887468829726,None,001,53,2019_Oct_23_1219,ACPT_experiment_5_30_19,3.1.0,59.96490275444631,
,,,C,G,d,b,R,D,g,L,i,,,,,5,19,119,12,3,0,3,0,,,,,0,21,21,2,,,,,,up,0.6504808094287,1642.6734522621155,None,001,53,2019_Oct_23_1219,ACPT_experiment_5_30_19,3.1.0,59.96490275444631,
,,,C,G,d,b,L,U,g,R,u,,,,,5,19,119,12,3,0,3,0,,,,,0,22,22,23,,,,,,up,0.5003819972589554,1644.6082365310122,None,001,53,2019_Oct_23_1219,ACPT_experiment_5_30_19,3.1.0,59.96490275444631,
,,,C,G,d,b,L,D,y,R,y,,,,,5,19,119,12,3,0,3,0,,,,,0,23,23,33,,,,,,down,0.6171324940351042,1646.39292711927,None,001,53,2019_Oct_23_1219,ACPT_experiment_5_30_19,3.1.0,59.96490275444631,
,,,C,G,d,b,L,D,g,R,i,,,,,5,19,119,12,3,0,3,0,,,,,0,24,24,15,,,,,,up,0.7506157083425933,1648.2943745432567,None,001,53,2019_Oct_23_1219,ACPT_experiment_5_30_19,3.1.0,59.96490275444631,
,,,C,G,d,b,L,D,y,L,y,,,,,5,19,119,12,3,0,3,0,,,,,0,25,25,32,,,,,,down,0.5504256001859176,1650.3292318308322,None,001,53,2019_Oct_23_1219,ACPT_experiment_5_30_19,3.1.0,59.96490275444631,
,,,C,G,d,b,R,G,y,L,y,,,,,5,19,119,12,3,0,3,0,,,,,0,26,26,28,,,,,,down,0.6838617251414689,1652.1639805110462,None,001,53,2019_Oct_23_1219,ACPT_experiment_5_30_19,3.1.0,59.96490275444631,
,,,C,G,d,b,L,G,d,R,i,,,,,5,19,119,12,3,0,3,0,,,,,0,27,27,17,,,,,,up,0.9173545686189755,1654.1488198533534,None,001,53,2019_Oct_23_1219,ACPT_experiment_5_30_19,3.1.0,59.96490275444631,
,,,C,G,d,b,L,U,y,R,u,,,,,5,19,119,12,3,0,3,0,,,,,0,28,28,25,,,,,,down,0.667174285834335,1656.3504890500662,None,001,53,2019_Oct_23_1219,ACPT_experiment_5_30_19,3.1.0,59.96490275444631,
,,,C,G,d,b,L,D,d,R,c ,,,,,5,19,119,12,3,0,3,0,,,,,0,29,29,13,,,,,,up,0.5837509746124852,1658.3186635921757,None,001,53,2019_Oct_23_1219,ACPT_experiment_5_30_19,3.1.0,59.96490275444631,
,,,C,G,d,b,R,D,y,L,y,,,,,5,19,119,12,3,0,3,0,,,,,0,30,30,26,,,,,,down,0.5170501178581617,1660.2034139174993,None,001,53,2019_Oct_23_1219,ACPT_experiment_5_30_19,3.1.0,59.96490275444631,
,,,C,G,d,b,R,U,y,L,u,,,,,5,19,119,12,3,0,3,0,,,,,0,31,31,30,,,,,,down,0.5337357460375642,1662.0047774560353,None,001,53,2019_Oct_23_1219,ACPT_experiment_5_30_19,3.1.0,59.96490275444631,
,,,C,G,d,b,R,D,g,R,i,,,,,5,19,119,12,3,0,3,0,,,,,0,32,32,3,,,,,,up,0.5670876836902607,1663.8228290375882,None,001,53,2019_Oct_23_1219,ACPT_experiment_5_30_19,3.1.0,59.96490275444631,
,,,C,G,d,b,L,G,y,L,y,,,,,5,19,119,12,3,0,3,0,,,,,0,33,33,34,,,,,,down,0.5003756583082577,1665.690910336747,None,001,53,2019_Oct_23_1219,ACPT_experiment_5_30_19,3.1.0,59.96490275444631,
,,,C,G,d,b,R,G,d,R,i,,,,,5,19,119,12,3,0,3,0,,,,,0,34,34,5,,,,,,up,0.8006022607114573,1667.4756015287148,None,001,53,2019_Oct_23_1219,ACPT_experiment_5_30_19,3.1.0,59.96490275444631,
,,,C,G,d,b,R,U,d,R,u,,,,,5,19,119,12,3,0,3,0,,,,,0,35,35,9,,,,,,up,0.5670925133672426,1669.5605105692957,None,001,53,2019_Oct_23_1219,ACPT_experiment_5_30_19,3.1.0,59.96490275444631,
,,,C,G,d,b,L,G,d,R,i,,,,,5,19,119,12,3,0,3,0,,,,,1,0,36,17,,,,,,up,0.5334607563090685,1671.4288704804421,None,001,53,2019_Oct_23_1219,ACPT_experiment_5_30_19,3.1.0,59.96490275444631,
,,,C,G,d,b,R,G,g,R,c ,,,,,5,19,119,12,3,0,3,0,,,,,1,1,37,7,,,,,,up,0.5504074888958712,1673.2466491852501,None,001,53,2019_Oct_23_1219,ACPT_experiment_5_30_19,3.1.0,59.96490275444631,
,,,C,G,d,b,L,D,g,L,i,,,,,5,19,119,12,3,0,3,0,,,,,1,2,38,14,,,,,,up,0.6504850353976508,1675.0813737170793,None,001,53,2019_Oct_23_1219,ACPT_experiment_5_30_19,3.1.0,59.96490275444631,
,,,C,G,d,b,R,D,g,R,i,,,,,5,19,119,12,3,0,3,0,,,,,1,3,39,3,,,,,,up,0.7005542959832383,1677.016189982587,None,001,53,2019_Oct_23_1219,ACPT_experiment_5_30_19,3.1.0,59.96490275444631,
,,,C,G,d,b,L,G,g,L,c ,,,,,5,19,119,12,3,0,3,0,,,,,1,4,40,18,,,,,,up,0.8506404302515875,1679.0010148358633,None,001,53,2019_Oct_23_1219,ACPT_experiment_5_30_19,3.1.0,59.96490275444631,
,,,C,G,d,b,L,U,g,L,u,,,,,5,19,119,12,3,0,3,0,,,,,1,5,41,22,,,,,,up,0.5671124357850204,1681.1359677812252,None,001,53,2019_Oct_23_1219,ACPT_experiment_5_30_19,3.1.0,59.96490275444631,
,,,C,G,d,b,R,D,g,L,i,,,,,5,19,119,12,3,0,3,0,,,,,1,6,42,2,,,,,,up,0.6338178203604912,1682.9873691874473,None,001,53,2019_Oct_23_1219,ACPT_experiment_5_30_19,3.1.0,59.96490275444631,
,,,C,G,d,b,L,U,d,L,u,,,,,5,19,119,12,3,0,3,0,,,,,1,7,43,20,,,,,,up,0.4836984820631187,1684.9054965043706,None,001,53,2019_Oct_23_1219,ACPT_experiment_5_30_19,3.1.0,59.96490275444631,
,,,C,G,d,b,L,G,d,L,i,,,,,5,19,119,12,3,0,3,0,,,,,1,8,44,16,,,,,,up,0.5003735453228728,1686.6735084071097,None,001,53,2019_Oct_23_1219,ACPT_experiment_5_30_19,3.1.0,59.96490275444631,
,,,C,G,d,b,L,D,g,R,i,,,,,5,19,119,12,3,0,3,0,,,,,1,9,45,15,,,,,,up,0.517057362374544,1688.458192958271,None,001,53,2019_Oct_23_1219,ACPT_experiment_5_30_19,3.1.0,59.96490275444631,
,,,C,G,d,b,L,D,d,R,c ,,,,,5,19,119,12,3,0,3,0,,,,,1,10,46,13,,,,,,up,0.7972731040426879,1690.2795697723814,None,001,53,2019_Oct_23_1219,ACPT_experiment_5_30_19,3.1.0,59.96490275444631,
,,,C,G,d,b,R,G,d,R,i,,,,,5,19,119,12,3,0,3,0,,,,,1,11,47,5,,,,,,up,0.5671109265094856,1692.3611590137934,None,001,53,2019_Oct_23_1219,ACPT_experiment_5_30_19,3.1.0,59.96490275444631,
,,,C,G,d,b,R,U,g,L,u,,,,,5,19,119,12,3,0,3,0,,,,,1,12,48,10,,,,,,up,0.9340386875228432,1694.2125667589644,None,001,53,2019_Oct_23_1219,ACPT_experiment_5_30_19,3.1.0,59.96490275444631,
,,,C,G,d,b,L,G,y,R,y,,,,,5,19,119,12,3,0,3,0,,,,,1,13,49,35,,,,,,down,0.6338250648768735,1696.4309179615993,None,001,53,2019_Oct_23_1219,ACPT_experiment_5_30_19,3.1.0,59.96490275444631,
,,,C,G,d,b,L,U,d,R,u,,,,,5,19,119,12,3,0,3,0,,,,,1,14,50,21,,,,,,up,0.5170531364074122,1698.3490344117508,None,001,53,2019_Oct_23_1219,ACPT_experiment_5_30_19,3.1.0,59.96490275444631,
,,,C,G,d,b,R,D,d,R,c ,,,,,5,19,119,12,3,0,3,0,,,,,1,15,51,1,,,,,,up,0.6838574991761561,1700.1504057985112,None,001,53,2019_Oct_23_1219,ACPT_experiment_5_30_19,3.1.0,59.96490275444631,
,,,C,G,d,b,L,D,y,R,y,,,,,5,19,119,12,3,0,3,0,,,,,1,16,52,33,,,,,,down,0.6338078591506928,1702.1185667571535,None,001,53,2019_Oct_23_1219,ACPT_experiment_5_30_19,3.1.0,59.96490275444631,
,,,C,G,d,b,R,U,y,L,u,,,,,5,19,119,12,3,0,3,0,,,,,1,17,53,30,,,,,,down,0.5336125892772543,1704.0366940740769,None,001,53,2019_Oct_23_1219,ACPT_experiment_5_30_19,3.1.0,59.96490275444631,
,,,C,G,d,b,R,G,g,L,c ,,,,,5,19,119,12,3,0,3,0,,,,,1,18,54,6,,,,,,up,0.6671670413179527,1705.8547359962777,None,001,53,2019_Oct_23_1219,ACPT_experiment_5_30_19,3.1.0,59.96490275444631,
,,,C,G,d,b,L,U,g,R,u,,,,,5,19,119,12,3,0,3,0,,,,,1,19,55,23,,,,,,up,0.9507110340910003,1707.8062167601274,None,001,53,2019_Oct_23_1219,ACPT_experiment_5_30_19,3.1.0,59.96490275444631,
,,,C,G,d,b,L,G,y,L,y,,,,,5,19,119,12,3,0,3,0,,,,,1,20,56,34,,,,,,down,0.5504108092991373,1710.041247855699,None,001,53,2019_Oct_23_1219,ACPT_experiment_5_30_19,3.1.0,59.96490275444631,
,,,C,G,d,b,R,D,y,L,y,,,,,5,19,119,12,3,0,3,0,,,,,1,21,57,26,,,,,,down,0.6338075572966773,1711.8759711801104,None,001,53,2019_Oct_23_1219,ACPT_experiment_5_30_19,3.1.0,59.96490275444631,
,,,C,G,d,b,R,U,y,R,u,,,,,5,19,119,12,3,0,3,0,,,,,1,22,58,31,,,,,,down,1.1675502459966083,1713.7940939692126,None,001,53,2019_Oct_23_1219,ACPT_experiment_5_30_19,3.1.0,59.96490275444631,
,,,C,G,d,b,R,U,g,R,u,,,,,5,19,119,12,3,0,3,0,,,,,1,23,59,11,,,,,,up,0.5337487257966131,1716.2292590279503,None,001,53,2019_Oct_23_1219,ACPT_experiment_5_30_19,3.1.0,59.96490275444631,
,,,C,G,d,b,L,D,d,L,c ,,,,,5,19,119,12,3,0,3,0,,,,,1,24,60,12,,,,,,up,0.43364914389530895,1718.047330531921,None,001,53,2019_Oct_23_1219,ACPT_experiment_5_30_19,3.1.0,59.96490275444631,
,,,C,G,d,b,R,G,y,R,y,,,,,5,19,119,12,3,0,3,0,,,,,1,25,61,29,,,,,,down,0.6171282680679724,1719.7819711782995,None,001,53,2019_Oct_23_1219,ACPT_experiment_5_30_19,3.1.0,59.96490275444631,
,,,C,G,d,b,L,G,g,R,c ,,,,,5,19,119,12,3,0,3,0,,,,,1,26,62,19,,,,,,up,0.5837624450959993,1721.7167868400975,None,001,53,2019_Oct_23_1219,ACPT_experiment_5_30_19,3.1.0,59.96490275444631,
,,,C,G,d,b,L,U,y,L,u,,,,,5,19,119,12,3,0,3,0,,,,,1,27,63,24,,,,,,down,0.5504126204286877,1723.5848618003056,None,001,53,2019_Oct_23_1219,ACPT_experiment_5_30_19,3.1.0,59.96490275444631,
,,,C,G,d,b,L,U,y,R,u,,,,,5,19,119,12,3,0,3,0,,,,,1,28,64,25,,,,,,down,0.4670134575935663,1725.4195881432643,None,001,53,2019_Oct_23_1219,ACPT_experiment_5_30_19,3.1.0,59.96490275444631,
,,,C,G,d,b,R,U,d,L,u,,,,,5,19,119,12,3,0,3,0,,,,,1,29,65,8,,,,,,up,0.6004544122260995,1727.1709177382272,None,001,53,2019_Oct_23_1219,ACPT_experiment_5_30_19,3.1.0,59.96490275444631,
,,,C,G,d,b,R,G,d,L,i,,,,,5,19,119,12,3,0,3,0,,,,,1,30,66,4,,,,,,up,0.5470885952909157,1729.075683753963,None,001,53,2019_Oct_23_1219,ACPT_experiment_5_30_19,3.1.0,59.96490275444631,
,,,C,G,d,b,R,D,y,R,y,,,,,5,19,119,12,3,0,3,0,,,,,1,31,67,27,,,,,,down,0.6338039350393956,1730.9237683795618,None,001,53,2019_Oct_23_1219,ACPT_experiment_5_30_19,3.1.0,59.96490275444631,
,,,C,G,d,b,R,G,y,L,y,,,,,5,19,119,12,3,0,3,0,,,,,1,32,68,28,,,,,,down,0.517024762055371,1732.841909883662,None,001,53,2019_Oct_23_1219,ACPT_experiment_5_30_19,3.1.0,59.96490275444631,
,,,C,G,d,b,L,D,y,L,y,,,,,5,19,119,12,3,0,3,0,,,,,1,33,69,32,,,,,,down,0.6505411803900643,1734.6599312797352,None,001,53,2019_Oct_23_1219,ACPT_experiment_5_30_19,3.1.0,59.96490275444631,
,,,C,G,d,b,R,D,d,L,c,,,,,5,19,119,12,3,0,3,0,,,,,1,34,70,0,,,,,,up,0.5170528345533967,1736.5947360747596,None,001,53,2019_Oct_23_1219,ACPT_experiment_5_30_19,3.1.0,59.96490275444631,
,,,C,G,d,b,R,U,d,R,u,,,,,5,19,119,12,3,0,3,0,,,,,1,35,71,9,,,,,,up,0.4503402054615435,1738.396102028133,None,001,53,2019_Oct_23_1219,ACPT_experiment_5_30_19,3.1.0,59.96490275444631,
,,,C,G,d,b,,,,,,,,,,5,19,119,12,4,0,4,0,0,0,0,0,,,,,,,,,,,,,,001,53,2019_Oct_23_1219,ACPT_experiment_5_30_19,3.1.0,59.96490275444631,
,,,C,G,d,b,L,D,y,L,y,,,,,5,19,119,12,4,0,4,0,,,,,0,0,0,32,,,,,,down,0.6168822564013681,1743.3334309330548,None,001,53,2019_Oct_23_1219,ACPT_experiment_5_30_19,3.1.0,59.96490275444631,
,,,C,G,d,b,L,U,d,R,u,,,,,5,19,119,12,4,0,4,0,,,,,0,1,1,21,,,,,,up,0.43367208485869924,1745.23462842126,None,001,53,2019_Oct_23_1219,ACPT_experiment_5_30_19,3.1.0,59.96490275444631,
,,,C,G,d,b,R,D,g,L,i,,,,,5,19,119,12,4,0,4,0,,,,,0,2,2,2,,,,,,up,0.5671003615916561,1746.9525955136542,None,001,53,2019_Oct_23_1219,ACPT_experiment_5_30_19,3.1.0,59.96490275444631,
,,,C,G,d,b,R,G,y,R,y,,,,,5,19,119,12,4,0,4,0,,,,,0,3,3,29,,,,,,down,0.7005274309049128,1748.8040074847922,None,001,53,2019_Oct_23_1219,ACPT_experiment_5_30_19,3.1.0,59.96490275444631,
,,,C,G,d,b,L,D,y,R,y,,,,,5,19,119,12,4,0,4,0,,,,,0,4,4,33,,,,,,down,0.850401361245531,1750.8057676001736,None,001,53,2019_Oct_23_1219,ACPT_experiment_5_30_19,3.1.0,59.96490275444631,
,,,C,G,d,b,R,U,d,L,u,,,,,5,19,119,12,4,0,4,0,,,,,0,5,5,8,,,,,,up,0.6171297773416882,1752.9404790616918,None,001,53,2019_Oct_23_1219,ACPT_experiment_5_30_19,3.1.0,59.96490275444631,
,,,C,G,d,b,R,U,g,R,u,,,,,5,19,119,12,4,0,4,0,,,,,0,6,6,11,,,,,,up,0.5337556684571609,1754.8252194258057,None,001,53,2019_Oct_23_1219,ACPT_experiment_5_30_19,3.1.0,59.96490275444631,
,,,C,G,d,b,R,D,d,L,c,,,,,5,19,119,12,4,0,4,0,,,,,0,7,7,0,,,,,,up,0.6171358144383703,1756.6432876093731,None,001,53,2019_Oct_23_1219,ACPT_experiment_5_30_19,3.1.0,59.96490275444631,
,,,C,G,d,b,R,U,g,L,u,,,,,5,19,119,12,4,0,4,0,,,,,0,8,8,10,,,,,,up,0.6004535066640528,1758.5447359389254,None,001,53,2019_Oct_23_1219,ACPT_experiment_5_30_19,3.1.0,59.96490275444631,
,,,C,G,d,b,L,D,g,L,i,,,,,5,19,119,12,4,0,4,0,,,,,0,9,9,14,,,,,,up,0.850650995169417,1760.4294950180374,None,001,53,2019_Oct_23_1219,ACPT_experiment_5_30_19,3.1.0,59.96490275444631,
,,,C,G,d,b,L,G,g,R,c ,,,,,5,19,119,12,4,0,4,0,,,,,0,10,10,19,,,,,,up,0.6504898650746327,1762.5644509819504,None,001,53,2019_Oct_23_1219,ACPT_experiment_5_30_19,3.1.0,59.96490275444631,
,,,C,G,d,b,L,G,d,L,i,,,,,5,19,119,12,4,0,4,0,,,,,0,11,11,16,,,,,,up,0.5001106297859224,1764.4995241258966,None,001,53,2019_Oct_23_1219,ACPT_experiment_5_30_19,3.1.0,59.96490275444631,
,,,C,G,d,b,R,D,y,R,y,,,,,5,19,119,12,4,0,4,0,,,,,0,12,12,27,,,,,,down,0.4503389980400243,1766.283939724426,None,001,53,2019_Oct_23_1219,ACPT_experiment_5_30_19,3.1.0,59.96490275444631,
,,,C,G,d,b,L,U,g,R,u,,,,,5,19,119,12,4,0,4,0,,,,,0,13,13,23,,,,,,up,0.5337333311999828,1768.0185933505618,None,001,53,2019_Oct_23_1219,ACPT_experiment_5_30_19,3.1.0,59.96490275444631,
,,,C,G,d,b,R,D,g,R,i,,,,,5,19,119,12,4,0,4,0,,,,,0,14,14,3,,,,,,up,0.567134471184545,1769.8366144447791,None,001,53,2019_Oct_23_1219,ACPT_experiment_5_30_19,3.1.0,59.96490275444631,
,,,C,G,d,b,R,G,g,R,c ,,,,,5,19,119,12,4,0,4,0,,,,,0,15,15,7,,,,,,up,0.5668250700073258,1771.7049966931809,None,001,53,2019_Oct_23_1219,ACPT_experiment_5_30_19,3.1.0,59.96490275444631,
,,,C,G,d,b,R,G,y,L,y,,,,,5,19,119,12,4,0,4,0,,,,,0,16,16,28,,,,,,down,0.6004592419030814,1773.5561294486233,None,001,53,2019_Oct_23_1219,ACPT_experiment_5_30_19,3.1.0,59.96490275444631,
,,,C,G,d,b,R,G,g,L,c ,,,,,5,19,119,12,4,0,4,0,,,,,0,17,17,6,,,,,,up,0.700531355018029,1775.4408897351568,None,001,53,2019_Oct_23_1219,ACPT_experiment_5_30_19,3.1.0,59.96490275444631,
,,,C,G,d,b,R,D,y,L,y,,,,,5,19,119,12,4,0,4,0,,,,,0,18,18,26,,,,,,down,0.8172863796171441,1777.4257336052851,None,001,53,2019_Oct_23_1219,ACPT_experiment_5_30_19,3.1.0,59.96490275444631,
,,,C,G,d,b,L,U,g,L,u,,,,,5,19,119,12,4,0,4,0,,,,,0,19,19,22,,,,,,up,0.6004607511767972,1779.5273279721914,None,001,53,2019_Oct_23_1219,ACPT_experiment_5_30_19,3.1.0,59.96490275444631,
,,,C,G,d,b,L,D,d,L,c ,,,,,5,19,119,12,4,0,4,0,,,,,0,20,20,12,,,,,,up,0.5170790959218721,1781.412092484692,None,001,53,2019_Oct_23_1219,ACPT_experiment_5_30_19,3.1.0,59.96490275444631,
,,,C,G,d,b,L,G,g,L,c ,,,,,5,19,119,12,4,0,4,0,,,,,0,21,21,18,,,,,,up,0.5170676254383579,1783.213441836051,None,001,53,2019_Oct_23_1219,ACPT_experiment_5_30_19,3.1.0,59.96490275444631,
,,,C,G,d,b,L,U,y,L,u,,,,,5,19,119,12,4,0,4,0,,,,,0,22,22,24,,,,,,down,0.5168092377225548,1785.0317551257212,None,001,53,2019_Oct_23_1219,ACPT_experiment_5_30_19,3.1.0,59.96490275444631,
,,,C,G,d,b,R,U,y,R,u,,,,,5,19,119,12,4,0,4,0,,,,,0,23,23,31,,,,,,down,0.5670913059475424,1786.8328747655723,None,001,53,2019_Oct_23_1219,ACPT_experiment_5_30_19,3.1.0,59.96490275444631,
,,,C,G,d,b,R,G,d,R,i,,,,,5,19,119,12,4,0,4,0,,,,,0,24,24,5,,,,,,up,1.150871862331769,1788.6842803977615,None,001,53,2019_Oct_23_1219,ACPT_experiment_5_30_19,3.1.0,59.96490275444631,
,,,C,G,d,b,L,G,d,R,i,,,,,5,19,119,12,4,0,4,0,,,,,0,25,25,17,,,,,,up,0.667157985673839,1791.1194732271397,None,001,53,2019_Oct_23_1219,ACPT_experiment_5_30_19,3.1.0,59.96490275444631,
,,,C,G,d,b,L,D,g,R,i,,,,,5,19,119,12,4,0,4,0,,,,,0,26,26,15,,,,,,up,0.7005235067917965,1793.0709455390552,None,001,53,2019_Oct_23_1219,ACPT_experiment_5_30_19,3.1.0,59.96490275444631,
,,,C,G,d,b,L,D,d,R,c ,,,,,5,19,119,12,4,0,4,0,,,,,0,27,27,13,,,,,,up,0.7672608879784093,1795.0390883864093,None,001,53,2019_Oct_23_1219,ACPT_experiment_5_30_19,3.1.0,59.96490275444631,
,,,C,G,d,b,L,G,y,R,y,,,,,5,19,119,12,4,0,4,0,,,,,0,28,28,35,,,,,,down,0.5670843632869946,1797.0906693358684,None,001,53,2019_Oct_23_1219,ACPT_experiment_5_30_19,3.1.0,59.96490275444631,
,,,C,G,d,b,R,G,d,L,i,,,,,5,19,119,12,4,0,4,0,,,,,0,29,29,4,,,,,,up,0.9807790932936769,1798.962078886132,None,001,53,2019_Oct_23_1219,ACPT_experiment_5_30_19,3.1.0,59.96490275444631,
,,,C,G,d,b,L,U,y,R,u,,,,,5,19,119,12,4,0,4,0,,,,,0,30,30,25,,,,,,down,0.4503245090108976,1801.227150270266,None,001,53,2019_Oct_23_1219,ACPT_experiment_5_30_19,3.1.0,59.96490275444631,
,,,C,G,d,b,L,G,y,L,y,,,,,5,19,119,12,4,0,4,0,,,,,0,31,31,34,,,,,,down,0.8339795541669446,1802.9784448500704,None,001,53,2019_Oct_23_1219,ACPT_experiment_5_30_19,3.1.0,59.96490275444631,
,,,C,G,d,b,R,D,d,R,c ,,,,,5,19,119,12,4,0,4,0,,,,,0,32,32,1,,,,,,up,2.5018957991160278,1805.1300988182084,None,001,53,2019_Oct_23_1219,ACPT_experiment_5_30_19,3.1.0,59.96490275444631,
,,,C,G,d,b,R,U,y,L,u,,,,,5,19,119,12,4,0,4,0,,,,,0,33,33,30,,,,,,down,0.617129173633657,1808.9163113584054,None,001,53,2019_Oct_23_1219,ACPT_experiment_5_30_19,3.1.0,59.96490275444631,
,,,C,G,d,b,R,U,d,R,u,,,,,5,19,119,12,4,0,4,0,,,,,0,34,34,9,,,,,,up,0.6338102739900933,1810.8177509341658,None,001,53,2019_Oct_23_1219,ACPT_experiment_5_30_19,3.1.0,59.96490275444631,
,,,C,G,d,b,L,U,d,L,u,,,,,5,19,119,12,4,0,4,0,,,,,0,35,35,20,,,,,,up,0.8339620465885673,1812.7358767418154,None,001,53,2019_Oct_23_1219,ACPT_experiment_5_30_19,3.1.0,59.96490275444631,
,,,C,G,d,b,R,G,d,R,i,,,,,5,19,119,12,4,0,4,0,,,,,1,0,36,5,,,,,,up,1.2509844239903032,1814.8374445454992,None,001,53,2019_Oct_23_1219,ACPT_experiment_5_30_19,3.1.0,59.96490275444631,
,,,C,G,d,b,L,G,y,L,y,,,,,5,19,119,12,4,0,4,0,,,,,1,1,37,34,,,,,,down,0.6838457268368074,1817.3727266937149,None,001,53,2019_Oct_23_1219,ACPT_experiment_5_30_19,3.1.0,59.96490275444631,
,,,C,G,d,b,R,U,g,L,u,,,,,5,19,119,12,4,0,4,0,,,,,1,2,38,10,,,,,,up,0.6838399915959599,1819.3408991228407,None,001,53,2019_Oct_23_1219,ACPT_experiment_5_30_19,3.1.0,59.96490275444631,
,,,C,G,d,b,L,G,g,L,c ,,,,,5,19,119,12,4,0,4,0,,,,,1,3,39,18,,,,,,up,1.0341150266049226,1821.3090471017258,None,001,53,2019_Oct_23_1219,ACPT_experiment_5_30_19,3.1.0,59.96490275444631,
,,,C,G,d,b,R,U,d,L,u,,,,,5,19,119,12,4,0,4,0,,,,,1,4,40,8,,,,,,up,0.9674262440421444,1823.6274746434428,None,001,53,2019_Oct_23_1219,ACPT_experiment_5_30_19,3.1.0,59.96490275444631,
,,,C,G,d,b,L,G,d,L,i,,,,,5,19,119,12,4,0,4,0,,,,,1,5,41,16,,,,,,up,0.68384059530581,1825.8958609970687,None,001,53,2019_Oct_23_1219,ACPT_experiment_5_30_19,3.1.0,59.96490275444631,
,,,C,G,d,b,L,D,g,L,i,,,,,5,19,119,12,4,0,4,0,,,,,1,6,42,14,,,,,,up,0.5670870799804106,1827.8640237668405,None,001,53,2019_Oct_23_1219,ACPT_experiment_5_30_19,3.1.0,59.96490275444631,
,,,C,G,d,b,L,U,y,R,u,,,,,5,19,119,12,4,0,4,0,,,,,1,7,43,25,,,,,,down,1.0174333225368173,1829.7154306064476,None,001,53,2019_Oct_23_1219,ACPT_experiment_5_30_19,3.1.0,59.96490275444631,
,,,C,G,d,b,R,G,y,L,y,,,,,5,19,119,12,4,0,4,0,,,,,1,8,44,28,,,,,,down,1.2009085226000025,1832.0171758403867,None,001,53,2019_Oct_23_1219,ACPT_experiment_5_30_19,3.1.0,59.96490275444631,
,,,C,G,d,b,R,D,g,L,i,,,,,5,19,119,12,4,0,4,0,,,,,1,9,45,2,,,,,,up,0.9507155619139667,1834.5023995947904,None,001,53,2019_Oct_23_1219,ACPT_experiment_5_30_19,3.1.0,59.96490275444631,
,,,C,G,d,b,R,D,d,L,c,,,,,5,19,119,12,4,0,4,0,,,,,1,10,46,0,,,,,,up,1.2342882308912522,1836.737401410448,None,001,53,2019_Oct_23_1219,ACPT_experiment_5_30_19,3.1.0,59.96490275444631,
,,,C,G,d,b,L,D,g,R,i,,,,,5,19,119,12,4,0,4,0,,,,,1,11,47,15,,,,,,up,0.4836912375467364,1839.256003665725,None,001,53,2019_Oct_23_1219,ACPT_experiment_5_30_19,3.1.0,59.96490275444631,
,,,C,G,d,b,R,U,y,R,u,,,,,5,19,119,12,4,0,4,0,,,,,1,12,48,31,,,,,,down,0.6337163971456903,1841.0240128517707,None,001,53,2019_Oct_23_1219,ACPT_experiment_5_30_19,3.1.0,59.96490275444631,
,,,C,G,d,b,R,D,y,R,y,,,,,5,19,119,12,4,0,4,0,,,,,1,13,49,27,,,,,,down,0.7839296122892847,1842.9421286982124,None,001,53,2019_Oct_23_1219,ACPT_experiment_5_30_19,3.1.0,59.96490275444631,
,,,C,G,d,b,L,U,y,L,u,,,,,5,19,119,12,4,0,4,0,,,,,1,14,50,24,,,,,,down,0.6504762816075527,1845.0103835035152,None,001,53,2019_Oct_23_1219,ACPT_experiment_5_30_19,3.1.0,59.96490275444631,
,,,C,G,d,b,L,D,y,R,y,,,,,5,19,119,12,4,0,4,0,,,,,1,15,51,33,,,,,,down,0.5835420910862013,1846.9621018270973,None,001,53,2019_Oct_23_1219,ACPT_experiment_5_30_19,3.1.0,59.96490275444631,
,,,C,G,d,b,R,U,y,L,u,,,,,5,19,119,12,4,0,4,0,,,,,1,16,52,30,,,,,,down,0.7170005533007497,1848.8467908758957,None,001,53,2019_Oct_23_1219,ACPT_experiment_5_30_19,3.1.0,59.96490275444631,
,,,C,G,d,b,R,G,d,L,i,,,,,5,19,119,12,4,0,4,0,,,,,1,17,53,4,,,,,,up,0.5504068851878401,1850.8648200598218,None,001,53,2019_Oct_23_1219,ACPT_experiment_5_30_19,3.1.0,59.96490275444631,
,,,C,G,d,b,L,D,d,R,c ,,,,,5,19,119,12,4,0,4,0,,,,,1,18,54,13,,,,,,up,0.5337538573276106,1852.6995436860889,None,001,53,2019_Oct_23_1219,ACPT_experiment_5_30_19,3.1.0,59.96490275444631,
,,,C,G,d,b,L,U,g,R,u,,,,,5,19,119,12,4,0,4,0,,,,,1,19,55,23,,,,,,up,0.6838520657893241,1854.5175822878846,None,001,53,2019_Oct_23_1219,ACPT_experiment_5_30_19,3.1.0,59.96490275444631,
,,,C,G,d,b,R,U,d,R,u,,,,,5,19,119,12,4,0,4,0,,,,,1,20,56,9,,,,,,up,0.567094324494974,1856.4857489817696,None,001,53,2019_Oct_23_1219,ACPT_experiment_5_30_19,3.1.0,59.96490275444631,
,,,C,G,d,b,R,G,y,R,y,,,,,5,19,119,12,4,0,4,0,,,,,1,21,57,29,,,,,,down,0.6338087647163775,1858.33715914178,None,001,53,2019_Oct_23_1219,ACPT_experiment_5_30_19,3.1.0,59.96490275444631,
,,,C,G,d,b,L,G,g,R,c ,,,,,5,19,119,12,4,0,4,0,,,,,1,22,58,19,,,,,,up,0.697236609796164,1860.2752915841975,None,001,53,2019_Oct_23_1219,ACPT_experiment_5_30_19,3.1.0,59.96490275444631,
,,,C,G,d,b,L,D,d,L,c ,,,,,5,19,119,12,4,0,4,0,,,,,1,23,59,12,,,,,,up,0.9674030012211006,1862.2567942234655,None,001,53,2019_Oct_23_1219,ACPT_experiment_5_30_19,3.1.0,59.96490275444631,
,,,C,G,d,b,R,G,g,R,c ,,,,,5,19,119,12,4,0,4,0,,,,,1,24,60,7,,,,,,up,0.5170513252778619,1864.5085097397987,None,001,53,2019_Oct_23_1219,ACPT_experiment_5_30_19,3.1.0,59.96490275444631,
,,,C,G,d,b,L,G,y,R,y,,,,,5,19,119,12,4,0,4,0,,,,,1,25,61,35,,,,,,down,0.6170525025117968,1866.3433049056548,None,001,53,2019_Oct_23_1219,ACPT_experiment_5_30_19,3.1.0,59.96490275444631,
,,,C,G,d,b,L,U,g,L,u,,,,,5,19,119,12,4,0,4,0,,,,,1,26,62,22,,,,,,up,0.5504123185746721,1868.2780402740736,None,001,53,2019_Oct_23_1219,ACPT_experiment_5_30_19,3.1.0,59.96490275444631,
,,,C,G,d,b,R,G,g,L,c ,,,,,5,19,119,12,4,0,4,0,,,,,1,27,63,6,,,,,,up,0.5337278978149698,1870.1127663151783,None,001,53,2019_Oct_23_1219,ACPT_experiment_5_30_19,3.1.0,59.96490275444631,
,,,C,G,d,b,R,D,y,L,y,,,,,5,19,119,12,4,0,4,0,,,,,1,28,64,26,,,,,,down,0.6838517639334896,1871.9308082373773,None,001,53,2019_Oct_23_1219,ACPT_experiment_5_30_19,3.1.0,59.96490275444631,
,,,C,G,d,b,L,U,d,R,u,,,,,5,19,119,12,4,0,4,0,,,,,1,29,65,21,,,,,,up,0.46701164646401594,1873.8989725164229,None,001,53,2019_Oct_23_1219,ACPT_experiment_5_30_19,3.1.0,59.96490275444631,
,,,C,G,d,b,L,U,d,L,u,,,,,5,19,119,12,4,0,4,0,,,,,1,30,66,20,,,,,,up,0.6004444510181202,1875.6503033188037,None,001,53,2019_Oct_23_1219,ACPT_experiment_5_30_19,3.1.0,59.96490275444631,
,,,C,G,d,b,L,D,y,L,y,,,,,5,19,119,12,4,0,4,0,,,,,1,31,67,32,,,,,,down,0.5838056103330018,1877.5350445884833,None,001,53,2019_Oct_23_1219,ACPT_experiment_5_30_19,3.1.0,59.96490275444631,
,,,C,G,d,b,R,D,g,R,i,,,,,5,19,119,12,4,0,4,0,,,,,1,32,68,3,,,,,,up,0.6333897902441095,1879.420233508843,None,001,53,2019_Oct_23_1219,ACPT_experiment_5_30_19,3.1.0,59.96490275444631,
,,,C,G,d,b,R,D,d,R,c ,,,,,5,19,119,12,4,0,4,0,,,,,1,33,69,1,,,,,,up,0.5504159408319538,1881.337951812502,None,001,53,2019_Oct_23_1219,ACPT_experiment_5_30_19,3.1.0,59.96490275444631,
,,,C,G,d,b,R,U,g,R,u,,,,,5,19,119,12,4,0,4,0,,,,,1,34,70,11,,,,,,up,0.6338132925393438,1883.1726778536085,None,001,53,2019_Oct_23_1219,ACPT_experiment_5_30_19,3.1.0,59.96490275444631,
,,,C,G,d,b,L,G,d,R,i,,,,,5,19,119,12,4,0,4,0,,,,,1,35,71,17,,,,,,up,0.667182435914583,1885.0907801165831,None,001,53,2019_Oct_23_1219,ACPT_experiment_5_30_19,3.1.0,59.96490275444631,
,,,C,G,d,b,,,,,,,,,,5,19,119,12,5,0,5,0,0,0,0,0,,,,,,,,,,,,,,001,53,2019_Oct_23_1219,ACPT_experiment_5_30_19,3.1.0,59.96490275444631,
,,,C,G,d,b,L,G,y,R,y,,,,,5,19,119,12,5,0,5,0,,,,,0,0,0,35,,,,,,down,0.9671838546310028,1974.7591225805209,None,001,53,2019_Oct_23_1219,ACPT_experiment_5_30_19,3.1.0,59.96490275444631,
,,,C,G,d,b,L,G,d,L,i,,,,,5,19,119,12,5,0,5,0,,,,,0,1,1,16,,,,,,up,0.6505140134577232,1976.9938904587016,None,001,53,2019_Oct_23_1219,ACPT_experiment_5_30_19,3.1.0,59.96490275444631,
,,,C,G,d,b,R,D,y,L,y,,,,,5,19,119,12,5,0,5,0,,,,,0,2,2,26,,,,,,down,1.0674802458670456,1978.9287106483207,None,001,53,2019_Oct_23_1219,ACPT_experiment_5_30_19,3.1.0,59.96490275444631,
,,,C,G,d,b,L,D,y,R,y,,,,,5,19,119,12,5,0,5,0,,,,,0,3,3,33,,,,,,down,0.9674002845295036,1981.2804958629295,None,001,53,2019_Oct_23_1219,ACPT_experiment_5_30_19,3.1.0,59.96490275444631,
,,,C,G,d,b,R,U,y,R,u,,,,,5,19,119,12,5,0,5,0,,,,,0,4,4,31,,,,,,down,0.7336888981735683,1983.5490488404103,None,001,53,2019_Oct_23_1219,ACPT_experiment_5_30_19,3.1.0,59.96490275444631,
,,,C,G,d,b,L,G,d,R,i,,,,,5,19,119,12,5,0,5,0,,,,,0,5,5,17,,,,,,up,0.5670795336100127,1985.583771802596,None,001,53,2019_Oct_23_1219,ACPT_experiment_5_30_19,3.1.0,59.96490275444631,
,,,C,G,d,b,R,D,d,L,c,,,,,5,19,119,12,5,0,5,0,,,,,0,6,6,0,,,,,,up,0.5837573135650018,1987.435187999703,None,001,53,2019_Oct_23_1219,ACPT_experiment_5_30_19,3.1.0,59.96490275444631,
,,,C,G,d,b,L,U,g,L,u,,,,,5,19,119,12,5,0,5,0,,,,,0,7,7,22,,,,,,up,0.8006037699851731,1989.3199488899445,None,001,53,2019_Oct_23_1219,ACPT_experiment_5_30_19,3.1.0,59.96490275444631,
,,,C,G,d,b,R,G,d,R,i,,,,,5,19,119,12,5,0,5,0,,,,,0,8,8,5,,,,,,down,0.550408998169587,1991.4048573268174,None,001,53,2019_Oct_23_1219,ACPT_experiment_5_30_19,3.1.0,59.96490275444631,
,,,C,G,d,b,L,G,y,L,y,,,,,5,19,119,12,5,0,5,0,,,,,0,9,9,34,,,,,,down,0.7839223677729024,1993.2562590348916,None,001,53,2019_Oct_23_1219,ACPT_experiment_5_30_19,3.1.0,59.96490275444631,
,,,C,G,d,b,L,G,g,L,c ,,,,,5,19,119,12,5,0,5,0,,,,,0,10,10,18,,,,,,up,1.4177244916845666,1995.341184375633,None,001,53,2019_Oct_23_1219,ACPT_experiment_5_30_19,3.1.0,59.96490275444631,
,,,C,G,d,b,R,U,g,L,u,,,,,5,19,119,12,5,0,5,0,,,,,0,11,11,10,,,,,,up,0.5670858725607104,1998.04322953251,None,001,53,2019_Oct_23_1219,ACPT_experiment_5_30_19,3.1.0,59.96490275444631,
,,,C,G,d,b,R,G,d,L,i,,,,,5,19,119,12,5,0,5,0,,,,,0,12,12,4,,,,,,up,0.5170585697924253,1999.894631844294,None,001,53,2019_Oct_23_1219,ACPT_experiment_5_30_19,3.1.0,59.96490275444631,
,,,C,G,d,b,L,U,y,L,u,,,,,5,19,119,12,5,0,5,0,,,,,0,13,13,24,,,,,,down,0.7336324513235013,2001.7129309467891,None,001,53,2019_Oct_23_1219,ACPT_experiment_5_30_19,3.1.0,59.96490275444631,
,,,C,G,d,b,R,U,g,R,u,,,,,5,19,119,12,5,0,5,0,,,,,0,14,14,11,,,,,,up,0.6671972267995443,2003.7308493500022,None,001,53,2019_Oct_23_1219,ACPT_experiment_5_30_19,3.1.0,59.96490275444631,
,,,C,G,d,b,L,U,d,L,u,,,,,5,19,119,12,5,0,5,0,,,,,0,15,15,20,,,,,,up,0.45033447021887696,2005.6823578844942,None,001,53,2019_Oct_23_1219,ACPT_experiment_5_30_19,3.1.0,59.96490275444631,
,,,C,G,d,b,R,G,y,R,y,,,,,5,19,119,12,5,0,5,0,,,,,0,16,16,29,,,,,,down,1.0674714920769475,2007.417010605066,None,001,53,2019_Oct_23_1219,ACPT_experiment_5_30_19,3.1.0,59.96490275444631,
,,,C,G,d,b,R,G,g,R,c ,,,,,5,19,119,12,5,0,5,0,,,,,0,17,17,7,,,,,,up,1.3343449494113884,2009.7687937066894,None,001,53,2019_Oct_23_1219,ACPT_experiment_5_30_19,3.1.0,59.96490275444631,
,,,C,G,d,b,L,D,g,R,i,,,,,5,19,119,12,5,0,5,0,,,,,0,18,18,15,,,,,,up,0.5671278303798317,2012.3874550953242,None,001,53,2019_Oct_23_1219,ACPT_experiment_5_30_19,3.1.0,59.96490275444631,
,,,C,G,d,b,R,D,d,R,c ,,,,,5,19,119,12,5,0,5,0,,,,,0,19,19,1,,,,,,up,0.5670716853837803,2014.2555466575468,None,001,53,2019_Oct_23_1219,ACPT_experiment_5_30_19,3.1.0,59.96490275444631,
,,,C,G,d,b,R,U,d,R,u,,,,,5,19,119,12,5,0,5,0,,,,,0,20,20,9,,,,,,up,0.5337315200704325,2016.1069420266722,None,001,53,2019_Oct_23_1219,ACPT_experiment_5_30_19,3.1.0,59.96490275444631,
,,,C,G,d,b,R,U,d,L,u,,,,,5,19,119,12,5,0,5,0,,,,,0,21,21,8,,,,,,up,0.950875846816416,2017.9248327196128,None,001,53,2019_Oct_23_1219,ACPT_experiment_5_30_19,3.1.0,59.96490275444631,
,,,C,G,d,b,L,D,y,L,y,,,,,5,19,119,12,5,0,5,0,,,,,0,22,22,32,,,,,,down,0.9173645298269548,2020.1766882965767,None,001,53,2019_Oct_23_1219,ACPT_experiment_5_30_19,3.1.0,59.96490275444631,
,,,C,G,d,b,L,D,g,L,i,,,,,5,19,119,12,5,0,5,0,,,,,0,23,23,14,,,,,,up,0.8506356005746056,2022.3950482530017,None,001,53,2019_Oct_23_1219,ACPT_experiment_5_30_19,3.1.0,59.96490275444631,
,,,C,G,d,b,L,D,d,L,c ,,,,,5,19,119,12,5,0,5,0,,,,,0,24,24,12,,,,,,up,0.6838713844954327,2024.5132992700255,None,001,53,2019_Oct_23_1219,ACPT_experiment_5_30_19,3.1.0,59.96490275444631,
,,,C,G,d,b,L,G,g,R,c ,,,,,5,19,119,12,5,0,5,0,,,,,0,25,25,19,,,,,,up,0.6504904687826638,2026.481482867779,None,001,53,2019_Oct_23_1219,ACPT_experiment_5_30_19,3.1.0,59.96490275444631,
,,,C,G,d,b,L,D,d,R,c ,,,,,5,19,119,12,5,0,5,0,,,,,0,26,26,13,,,,,,up,0.5337414812802308,2028.4162840405443,None,001,53,2019_Oct_23_1219,ACPT_experiment_5_30_19,3.1.0,59.96490275444631,
,,,C,G,d,b,R,U,y,L,u,,,,,5,19,119,12,5,0,5,0,,,,,0,27,27,30,,,,,,down,0.7005542959832383,2030.2343060403273,None,001,53,2019_Oct_23_1219,ACPT_experiment_5_30_19,3.1.0,59.96490275444631,
,,,C,G,d,b,R,D,g,R,i,,,,,5,19,119,12,5,0,5,0,,,,,0,28,28,3,,,,,,up,0.550414431558238,2032.2191704365832,None,001,53,2019_Oct_23_1219,ACPT_experiment_5_30_19,3.1.0,59.96490275444631,
,,,C,G,d,b,R,D,y,R,y,,,,,5,19,119,12,5,0,5,0,,,,,0,29,29,27,,,,,,down,0.7672430785441975,2034.0538985906715,None,001,53,2019_Oct_23_1219,ACPT_experiment_5_30_19,3.1.0,59.96490275444631,
,,,C,G,d,b,L,U,y,R,u,,,,,5,19,119,12,5,0,5,0,,,,,0,30,30,25,,,,,,down,0.9007181427714386,2036.1054508639245,None,001,53,2019_Oct_23_1219,ACPT_experiment_5_30_19,3.1.0,59.96490275444631,
,,,C,G,d,b,R,G,y,L,y,,,,,5,19,119,12,5,0,5,0,,,,,0,31,31,28,,,,,,down,0.9507188823172328,2038.2904446955217,None,001,53,2019_Oct_23_1219,ACPT_experiment_5_30_19,3.1.0,59.96490275444631,
,,,C,G,d,b,L,U,d,R,u,,,,,5,19,119,12,5,0,5,0,,,,,0,32,32,21,,,,,,up,0.8840041402399947,2040.5254721688361,None,001,53,2019_Oct_23_1219,ACPT_experiment_5_30_19,3.1.0,59.96490275444631,
,,,C,G,d,b,R,D,g,L,i,,,,,5,19,119,12,5,0,5,0,,,,,0,33,33,2,,,,,,up,0.9673924363032711,2042.693799389106,None,001,53,2019_Oct_23_1219,ACPT_experiment_5_30_19,3.1.0,59.96490275444631,
,,,C,G,d,b,R,G,g,L,c ,,,,,5,19,119,12,5,0,5,0,,,,,0,34,34,6,,,,,,up,0.7005470514668559,2044.9454983034266,None,001,53,2019_Oct_23_1219,ACPT_experiment_5_30_19,3.1.0,59.96490275444631,
,,,C,G,d,b,L,U,g,R,u,,,,,5,19,119,12,5,0,5,0,,,,,0,35,35,23,,,,,,up,0.8673230398835585,2046.9303355327484,None,001,53,2019_Oct_23_1219,ACPT_experiment_5_30_19,3.1.0,59.96490275444631,
,,,C,G,d,b,R,U,d,L,u,,,,,5,19,119,12,5,0,5,0,,,,,1,0,36,8,,,,,,up,0.6171213254092436,2049.081967163631,None,001,53,2019_Oct_23_1219,ACPT_experiment_5_30_19,3.1.0,59.96490275444631,
,,,C,G,d,b,R,G,g,R,c ,,,,,5,19,119,12,5,0,5,0,,,,,1,1,37,7,,,,,,up,0.48370029319266905,2050.9834100597946,None,001,53,2019_Oct_23_1219,ACPT_experiment_5_30_19,3.1.0,59.96490275444631,
,,,C,G,d,b,L,G,g,L,c ,,,,,5,19,119,12,5,0,5,0,,,,,1,2,38,18,,,,,,up,0.5501427622311894,2052.7683774489105,None,001,53,2019_Oct_23_1219,ACPT_experiment_5_30_19,3.1.0,59.96490275444631,
,,,C,G,d,b,L,G,g,R,c ,,,,,5,19,119,12,5,0,5,0,,,,,1,3,39,19,,,,,,up,0.7172293592448113,2054.6028297077064,None,001,53,2019_Oct_23_1219,ACPT_experiment_5_30_19,3.1.0,59.96490275444631,
,,,C,G,d,b,L,G,d,L,i,,,,,5,19,119,12,5,0,5,0,,,,,1,4,40,16,,,,,,up,0.6171321921810886,2056.6043474336766,None,001,53,2019_Oct_23_1219,ACPT_experiment_5_30_19,3.1.0,59.96490275444631,
,,,C,G,d,b,L,G,y,R,y,,,,,5,19,119,12,5,0,5,0,,,,,1,5,41,35,,,,,,down,0.7338742370229738,2058.5224771654393,None,001,53,2019_Oct_23_1219,ACPT_experiment_5_30_19,3.1.0,59.96490275444631,
,,,C,G,d,b,R,U,y,L,u,,,,,5,19,119,12,5,0,5,0,,,,,1,6,42,30,,,,,,down,0.6671679468836373,2060.5573450179327,None,001,53,2019_Oct_23_1219,ACPT_experiment_5_30_19,3.1.0,59.96490275444631,
,,,C,G,d,b,L,G,y,L,y,,,,,5,19,119,12,5,0,5,0,,,,,1,7,43,34,,,,,,down,0.833962952152433,2062.508833026297,None,001,53,2019_Oct_23_1219,ACPT_experiment_5_30_19,3.1.0,59.96490275444631,
,,,C,G,d,b,R,G,y,R,y,,,,,5,19,119,12,5,0,5,0,,,,,1,8,44,29,,,,,,down,0.6504949966056301,2064.627101550901,None,001,53,2019_Oct_23_1219,ACPT_experiment_5_30_19,3.1.0,59.96490275444631,
,,,C,G,d,b,L,D,d,R,c ,,,,,5,19,119,12,5,0,5,0,,,,,1,9,45,13,,,,,,up,0.9173584927302727,2066.5619099681826,None,001,53,2019_Oct_23_1219,ACPT_experiment_5_30_19,3.1.0,59.96490275444631,
,,,C,G,d,b,L,D,y,L,y,,,,,5,19,119,12,5,0,5,0,,,,,1,10,46,32,,,,,,down,0.8839996124170284,2068.763576146348,None,001,53,2019_Oct_23_1219,ACPT_experiment_5_30_19,3.1.0,59.96490275444631,
,,,C,G,d,b,R,D,y,R,y,,,,,5,19,119,12,5,0,5,0,,,,,1,11,47,27,,,,,,down,1.1507761743578158,2070.9319903008018,None,001,53,2019_Oct_23_1219,ACPT_experiment_5_30_19,3.1.0,59.96490275444631,
,,,C,G,d,b,R,D,g,R,i,,,,,5,19,119,12,5,0,5,0,,,,,1,12,48,3,,,,,,up,0.7005298457424942,2073.3670705383374,None,001,53,2019_Oct_23_1219,ACPT_experiment_5_30_19,3.1.0,59.96490275444631,
,,,C,G,d,b,L,D,g,R,i,,,,,5,19,119,12,5,0,5,0,,,,,1,13,49,15,,,,,,up,0.5670925133654237,2075.351913201048,None,001,53,2019_Oct_23_1219,ACPT_experiment_5_30_19,3.1.0,59.96490275444631,
,,,C,G,d,b,L,U,g,R,u,,,,,5,19,119,12,5,0,5,0,,,,,1,14,50,23,,,,,,up,0.5504376743792818,2077.2033185313812,None,001,53,2019_Oct_23_1219,ACPT_experiment_5_30_19,3.1.0,59.96490275444631,
,,,C,G,d,b,L,U,g,L,u,,,,,5,19,119,12,5,0,5,0,,,,,1,15,51,22,,,,,,up,0.7639118088918622,2079.058061168462,None,001,53,2019_Oct_23_1219,ACPT_experiment_5_30_19,3.1.0,59.96490275444631,
,,,C,G,d,b,L,D,g,L,i,,,,,5,19,119,12,5,0,5,0,,,,,1,16,52,14,,,,,,up,0.884002630966279,2081.1062824739183,None,001,53,2019_Oct_23_1219,ACPT_experiment_5_30_19,3.1.0,59.96490275444631,
,,,C,G,d,b,L,U,y,L,u,,,,,5,19,119,12,5,0,5,0,,,,,1,17,53,24,,,,,,down,0.6838439157090761,2083.2912757018057,None,001,53,2019_Oct_23_1219,ACPT_experiment_5_30_19,3.1.0,59.96490275444631,
,,,C,G,d,b,R,U,g,R,u,,,,,5,19,119,12,5,0,5,0,,,,,1,18,54,11,,,,,,up,0.7505689208464901,2085.2761274201584,None,001,53,2019_Oct_23_1219,ACPT_experiment_5_30_19,3.1.0,59.96490275444631,
,,,C,G,d,b,R,U,d,R,u,,,,,5,19,119,12,5,0,5,0,,,,,1,19,55,9,,,,,,up,1.0508196716364182,2087.2942936461677,None,001,53,2019_Oct_23_1219,ACPT_experiment_5_30_19,3.1.0,59.96490275444631,
,,,C,G,d,b,R,G,d,R,i,,,,,5,19,119,12,5,0,5,0,,,,,1,20,56,5,,,,,,up,0.6171177031501429,2089.629431870013,None,001,53,2019_Oct_23_1219,ACPT_experiment_5_30_19,3.1.0,59.96490275444631,
,,,C,G,d,b,R,D,y,L,y,,,,,5,19,119,12,5,0,5,0,,,,,1,21,57,26,,,,,,down,0.7338781611360901,2091.530863295693,None,001,53,2019_Oct_23_1219,ACPT_experiment_5_30_19,3.1.0,59.96490275444631,
,,,C,G,d,b,R,U,y,R,u,,,,,5,19,119,12,5,0,5,0,,,,,1,22,58,31,,,,,,down,0.5169387334353814,2093.549063329441,None,001,53,2019_Oct_23_1219,ACPT_experiment_5_30_19,3.1.0,59.96490275444631,
,,,C,G,d,b,R,G,d,L,i,,,,,5,19,119,12,5,0,5,0,,,,,1,23,59,4,,,,,,up,1.3843861374989501,2095.350427169831,None,001,53,2019_Oct_23_1219,ACPT_experiment_5_30_19,3.1.0,59.96490275444631,
,,,C,G,d,b,R,G,y,L,y,,,,,5,19,119,12,5,0,5,0,,,,,1,24,60,28,,,,,,down,0.6838792327216652,2098.002416951442,None,001,53,2019_Oct_23_1219,ACPT_experiment_5_30_19,3.1.0,59.96490275444631,
,,,C,G,d,b,R,D,d,R,c ,,,,,5,19,119,12,5,0,5,0,,,,,1,25,61,1,,,,,,up,0.6004516955326835,2099.970602662179,None,001,53,2019_Oct_23_1219,ACPT_experiment_5_30_19,3.1.0,59.96490275444631,
,,,C,G,d,b,R,G,g,L,c ,,,,,5,19,119,12,5,0,5,0,,,,,1,26,62,6,,,,,,up,0.7505794857661385,2101.8553668728237,None,001,53,2019_Oct_23_1219,ACPT_experiment_5_30_19,3.1.0,59.96490275444631,
,,,C,G,d,b,R,U,g,L,u,,,,,5,19,119,12,5,0,5,0,,,,,1,27,63,10,,,,,,up,0.7172097386810492,2103.8902419698334,None,001,53,2019_Oct_23_1219,ACPT_experiment_5_30_19,3.1.0,59.96490275444631,
