facing_vig,person_vig,text_vig,facing_train,person_train,food_train,correct_key_train,facing_exp,person_exp,food_exp,showL_R,consistent,vig_random.thisRepN,vig_random.thisTrialN,vig_random.thisN,vig_random.thisIndex,trainTrials.thisRepN,trainTrials.thisTrialN,trainTrials.thisN,trainTrials.thisIndex,expBlock.thisRepN,expBlock.thisTrialN,expBlock.thisN,expBlock.thisIndex,breakLoop.thisRepN,breakLoop.thisTrialN,breakLoop.thisN,breakLoop.thisIndex,expTrials.thisRepN,expTrials.thisTrialN,expTrials.thisN,expTrials.thisIndex,train_resp.keys,train_resp.corr,train_resp.rt,train_resp.started,train_resp.stopped,exp_resp.keys,exp_resp.rt,exp_resp.started,exp_resp.stopped,session,participant,date,expName,psychopyVersion,frameRate,
C,D,"is allergic to gluten, meaning she can’t eat wheat products. She enjoys eating dairy products. She thinks eating insects, like crickets, is disgusting.",,,,,,,,,,0,0,0,1,,,,,,,,,,,,,,,,,,,,,,,,,,001,54,2019_Oct_23_1306,ACPT_experiment_5_30_19,3.1.0,59.953942153260705,
C,U,"did not report her food preferences, so her food preferences are unknown.",,,,,,,,,,0,1,1,2,,,,,,,,,,,,,,,,,,,,,,,,,,001,54,2019_Oct_23_1306,ACPT_experiment_5_30_19,3.1.0,59.953942153260705,
C,G,"cannot eat dairy products because she is lactose intolerant. She enjoys eating wheat products. She thinks eating insects, like crickets, is disgusting.",,,,,,,,,,0,2,2,0,,,,,,,,,,,,,,,,,,,,,,,,,,001,54,2019_Oct_23_1306,ACPT_experiment_5_30_19,3.1.0,59.953942153260705,
,,,C,G,g,v,,,,,,,,,,0,0,0,19,,,,,,,,,,,,,n,0,8.790020136733801,239.9420957960392,None,,,,,001,54,2019_Oct_23_1306,ACPT_experiment_5_30_19,3.1.0,59.953942153260705,
,,,C,U,g,n,,,,,,,,,,0,1,1,16,,,,,,,,,,,,,v,0,4.636875609558047,252.0179283644211,None,,,,,001,54,2019_Oct_23_1306,ACPT_experiment_5_30_19,3.1.0,59.953942153260705,
,,,C,G,y,b,,,,,,,,,,0,2,2,5,,,,,,,,,,,,,n,0,2.8355217303760583,259.940593464662,None,,,,,001,54,2019_Oct_23_1306,ACPT_experiment_5_30_19,3.1.0,59.953942153260705,
,,,C,U,d,n,,,,,,,,,,0,3,3,15,,,,,,,,,,,,,b,0,8.95684894974147,266.0619089116899,None,,,,,001,54,2019_Oct_23_1306,ACPT_experiment_5_30_19,3.1.0,59.953942153260705,
,,,C,G,d,b,,,,,,,,,,0,4,4,3,,,,,,,,,,,,,b,1,3.5026259858950652,278.30461858984927,None,,,,,001,54,2019_Oct_23_1306,ACPT_experiment_5_30_19,3.1.0,59.953942153260705,
,,,C,D,y,b,,,,,,,,,,0,5,5,11,,,,,,,,,,,,,n,0,5.320684811964384,285.0931022856148,None,,,,,001,54,2019_Oct_23_1306,ACPT_experiment_5_30_19,3.1.0,59.953942153260705,
,,,C,G,d,b,,,,,,,,,,0,6,6,12,,,,,,,,,,,,,b,1,1.3509134579253441,293.6995934921324,None,,,,,001,54,2019_Oct_23_1306,ACPT_experiment_5_30_19,3.1.0,59.953942153260705,
,,,C,D,g,b,,,,,,,,,,0,7,7,10,,,,,,,,,,,,,b,1,1.701062619478762,298.3534034582299,None,,,,,001,54,2019_Oct_23_1306,ACPT_experiment_5_30_19,3.1.0,59.953942153260705,
,,,C,G,g,v,,,,,,,,,,0,8,8,13,,,,,,,,,,,,,v,1,2.184981153694025,303.3402733778257,None,,,,,001,54,2019_Oct_23_1306,ACPT_experiment_5_30_19,3.1.0,59.953942153260705,
,,,C,U,y,n,,,,,,,,,,0,9,9,17,,,,,,,,,,,,,v,0,5.554234102288319,308.8110778299415,None,,,,,001,54,2019_Oct_23_1306,ACPT_experiment_5_30_19,3.1.0,59.953942153260705,
,,,C,U,y,n,,,,,,,,,,0,10,10,8,,,,,,,,,,,,,n,1,2.9856126943232084,317.65113009912056,None,,,,,001,54,2019_Oct_23_1306,ACPT_experiment_5_30_19,3.1.0,59.953942153260705,
,,,C,G,g,v,,,,,,,,,,0,11,11,4,,,,,,,,,,,,,b,0,1.3010219898205833,323.9225356045299,None,,,,,001,54,2019_Oct_23_1306,ACPT_experiment_5_30_19,3.1.0,59.953942153260705,
,,,C,D,d,v,,,,,,,,,,0,12,12,9,,,,,,,,,,,,,b,0,4.553469805916393,328.5093763649511,None,,,,,001,54,2019_Oct_23_1306,ACPT_experiment_5_30_19,3.1.0,59.953942153260705,
,,,C,U,g,n,,,,,,,,,,0,13,13,7,,,,,,,,,,,,,n,1,1.7680408807991626,336.3486742989662,None,,,,,001,54,2019_Oct_23_1306,ACPT_experiment_5_30_19,3.1.0,59.953942153260705,
,,,C,U,d,n,,,,,,,,,,0,14,14,6,,,,,,,,,,,,,v,0,1.434465963002367,341.3857967050135,None,,,,,001,54,2019_Oct_23_1306,ACPT_experiment_5_30_19,3.1.0,59.953942153260705,
,,,C,D,d,v,,,,,,,,,,0,15,15,18,,,,,,,,,,,,,v,1,1.1475810412248393,346.1260871678205,None,,,,,001,54,2019_Oct_23_1306,ACPT_experiment_5_30_19,3.1.0,59.953942153260705,
,,,C,D,y,b,,,,,,,,,,0,16,16,2,,,,,,,,,,,,,b,1,2.5352755074109155,350.54277599566194,None,,,,,001,54,2019_Oct_23_1306,ACPT_experiment_5_30_19,3.1.0,59.953942153260705,
,,,C,D,d,v,,,,,,,,,,0,17,17,0,,,,,,,,,,,,,b,0,2.485283823509235,356.34716351565476,None,,,,,001,54,2019_Oct_23_1306,ACPT_experiment_5_30_19,3.1.0,59.953942153260705,
,,,C,G,y,b,,,,,,,,,,0,18,18,14,,,,,,,,,,,,,b,1,3.0356822567646304,362.118215700013,None,,,,,001,54,2019_Oct_23_1306,ACPT_experiment_5_30_19,3.1.0,59.953942153260705,
,,,C,D,g,b,,,,,,,,,,0,19,19,1,,,,,,,,,,,,,b,1,1.4011016493041097,368.4396850326211,None,,,,,001,54,2019_Oct_23_1306,ACPT_experiment_5_30_19,3.1.0,59.953942153260705,
,,,C,D,g,b,,,,,,,,,,1,0,20,10,,,,,,,,,,,,,b,1,2.9853512880599737,373.1268647458037,None,,,,,001,54,2019_Oct_23_1306,ACPT_experiment_5_30_19,3.1.0,59.953942153260705,
,,,C,D,y,b,,,,,,,,,,1,1,21,11,,,,,,,,,,,,,b,1,2.8355018079600995,379.3980332951887,None,,,,,001,54,2019_Oct_23_1306,ACPT_experiment_5_30_19,3.1.0,59.953942153260705,
,,,C,G,g,v,,,,,,,,,,1,2,22,19,,,,,,,,,,,,,v,1,3.4693069504191953,385.519361118264,None,,,,,001,54,2019_Oct_23_1306,ACPT_experiment_5_30_19,3.1.0,59.953942153260705,
,,,C,D,y,b,,,,,,,,,,1,3,23,2,,,,,,,,,,,,,b,1,1.6012398384355038,392.2744747650904,None,,,,,001,54,2019_Oct_23_1306,ACPT_experiment_5_30_19,3.1.0,59.953942153260705,
,,,C,G,g,v,,,,,,,,,,1,4,24,4,,,,,,,,,,,,,v,1,3.7695881885429117,397.16150349049894,None,,,,,001,54,2019_Oct_23_1306,ACPT_experiment_5_30_19,3.1.0,59.953942153260705,
,,,C,D,d,v,,,,,,,,,,1,5,25,9,,,,,,,,,,,,,v,1,3.7528886750405945,404.21686758625765,None,,,,,001,54,2019_Oct_23_1306,ACPT_experiment_5_30_19,3.1.0,59.953942153260705,
,,,C,G,d,b,,,,,,,,,,1,6,26,3,,,,,,,,,,,,,b,1,3.28585710616062,411.25555209093363,None,,,,,001,54,2019_Oct_23_1306,ACPT_experiment_5_30_19,3.1.0,59.953942153260705,
,,,C,U,d,n,,,,,,,,,,1,7,27,15,,,,,,,,,,,,,n,1,1.5011689327402564,417.8272201194686,None,,,,,001,54,2019_Oct_23_1306,ACPT_experiment_5_30_19,3.1.0,59.953942153260705,
,,,C,G,d,b,,,,,,,,,,1,8,28,12,,,,,,,,,,,,,b,1,9.657355854518755,422.6141888059574,None,,,,,001,54,2019_Oct_23_1306,ACPT_experiment_5_30_19,3.1.0,59.953942153260705,
,,,C,G,y,b,,,,,,,,,,1,9,29,5,,,,,,,,,,,,,b,1,1.3176819603413605,435.54067568991195,None,,,,,001,54,2019_Oct_23_1306,ACPT_experiment_5_30_19,3.1.0,59.953942153260705,
,,,C,D,d,v,,,,,,,,,,1,10,30,18,,,,,,,,,,,,,v,1,2.7353116696158395,440.1609453609599,None,,,,,001,54,2019_Oct_23_1306,ACPT_experiment_5_30_19,3.1.0,59.953942153260705,
,,,C,U,g,n,,,,,,,,,,1,11,31,16,,,,,,,,,,,,,n,1,1.6012479885157518,446.1820745937566,None,,,,,001,54,2019_Oct_23_1306,ACPT_experiment_5_30_19,3.1.0,59.953942153260705,
,,,C,D,d,v,,,,,,,,,,1,12,32,0,,,,,,,,,,,,,v,1,2.368476879884838,451.06914225843684,None,,,,,001,54,2019_Oct_23_1306,ACPT_experiment_5_30_19,3.1.0,59.953942153260705,
,,,C,U,y,n,,,,,,,,,,1,13,33,8,,,,,,,,,,,,,n,1,1.3677445801222348,456.72340983642243,None,,,,,001,54,2019_Oct_23_1306,ACPT_experiment_5_30_19,3.1.0,59.953942153260705,
,,,C,U,d,n,,,,,,,,,,1,14,34,6,,,,,,,,,,,,,n,1,1.2976701940406201,461.3969786144935,None,,,,,001,54,2019_Oct_23_1306,ACPT_experiment_5_30_19,3.1.0,59.953942153260705,
,,,C,G,g,v,,,,,,,,,,1,15,35,13,,,,,,,,,,,,,v,1,2.9188795391037274,465.98048569042294,None,,,,,001,54,2019_Oct_23_1306,ACPT_experiment_5_30_19,3.1.0,59.953942153260705,
,,,C,U,y,n,,,,,,,,,,1,16,36,17,,,,,,,,,,,,,n,1,1.3342290371656418,472.18518037786816,None,,,,,001,54,2019_Oct_23_1306,ACPT_experiment_5_30_19,3.1.0,59.953942153260705,
,,,C,G,y,b,,,,,,,,,,1,17,37,14,,,,,,,,,,,,,b,1,3.0686073717170075,476.82240885569627,None,,,,,001,54,2019_Oct_23_1306,ACPT_experiment_5_30_19,3.1.0,59.953942153260705,
,,,C,D,g,b,,,,,,,,,,1,18,38,1,,,,,,,,,,,,,b,1,1.9514840842530248,483.1768618630904,None,,,,,001,54,2019_Oct_23_1306,ACPT_experiment_5_30_19,3.1.0,59.953942153260705,
,,,C,U,g,n,,,,,,,,,,1,19,39,7,,,,,,,,,,,,,n,1,1.9348147562341182,488.4141734717323,None,,,,,001,54,2019_Oct_23_1306,ACPT_experiment_5_30_19,3.1.0,59.953942153260705,
,,,C,G,g,v,,,,,,,,,,2,0,40,19,,,,,,,,,,,,,v,1,2.6187108928224916,493.6348021688882,None,,,,,001,54,2019_Oct_23_1306,ACPT_experiment_5_30_19,3.1.0,59.953942153260705,
,,,C,D,g,b,,,,,,,,,,2,1,41,10,,,,,,,,,,,,,b,1,1.7013010847749683,499.5393167395705,None,,,,,001,54,2019_Oct_23_1306,ACPT_experiment_5_30_19,3.1.0,59.953942153260705,
,,,C,D,d,v,,,,,,,,,,2,2,42,0,,,,,,,,,,,,,v,1,2.1349683399585047,504.5264070131743,None,,,,,001,54,2019_Oct_23_1306,ACPT_experiment_5_30_19,3.1.0,59.953942153260705,
,,,C,U,d,n,,,,,,,,,,2,3,43,15,,,,,,,,,,,,,n,1,1.1508546566074074,509.9472231017935,None,,,,,001,54,2019_Oct_23_1306,ACPT_experiment_5_30_19,3.1.0,59.953942153260705,
,,,C,U,y,n,,,,,,,,,,2,4,44,17,,,,,,,,,,,,,n,1,1.133934185387261,514.3841672927647,None,,,,,001,54,2019_Oct_23_1306,ACPT_experiment_5_30_19,3.1.0,59.953942153260705,
,,,C,D,d,v,,,,,,,,,,2,5,45,9,,,,,,,,,,,,,v,1,2.6687701922000997,518.8039184376248,None,,,,,001,54,2019_Oct_23_1306,ACPT_experiment_5_30_19,3.1.0,59.953942153260705,
,,,C,U,g,n,,,,,,,,,,2,6,46,16,,,,,,,,,,,,,n,1,1.0507934102679428,524.7584494443017,None,,,,,001,54,2019_Oct_23_1306,ACPT_experiment_5_30_19,3.1.0,59.953942153260705,
,,,C,U,d,n,,,,,,,,,,2,7,47,6,,,,,,,,,,,,,n,1,1.3173562590054644,529.1120678231528,None,,,,,001,54,2019_Oct_23_1306,ACPT_experiment_5_30_19,3.1.0,59.953942153260705,
,,,C,D,g,b,,,,,,,,,,2,8,48,1,,,,,,,,,,,,,b,1,1.3176895067117584,533.7152491917095,None,,,,,001,54,2019_Oct_23_1306,ACPT_experiment_5_30_19,3.1.0,59.953942153260705,
,,,C,D,y,b,,,,,,,,,,2,9,49,2,,,,,,,,,,,,,b,1,4.2532226773855655,538.3020833113242,None,,,,,001,54,2019_Oct_23_1306,ACPT_experiment_5_30_19,3.1.0,59.953942153260705,
,,,C,G,g,v,,,,,,,,,,2,10,50,4,,,,,,,,,,,,,v,1,2.5352999576498405,545.841117514794,None,,,,,001,54,2019_Oct_23_1306,ACPT_experiment_5_30_19,3.1.0,59.953942153260705,
,,,C,G,y,b,,,,,,,,,,2,11,51,14,,,,,,,,,,,,,b,1,1.1842678707853338,551.6622051519989,None,,,,,001,54,2019_Oct_23_1306,ACPT_experiment_5_30_19,3.1.0,59.953942153260705,
,,,C,D,d,v,,,,,,,,,,2,12,52,18,,,,,,,,,,,,,v,1,1.164229843116118,556.1689577949637,None,,,,,001,54,2019_Oct_23_1306,ACPT_experiment_5_30_19,3.1.0,59.953942153260705,
,,,C,G,y,b,,,,,,,,,,2,13,53,5,,,,,,,,,,,,,b,1,1.7513703453605558,560.6190064086804,None,,,,,001,54,2019_Oct_23_1306,ACPT_experiment_5_30_19,3.1.0,59.953942153260705,
,,,C,D,y,b,,,,,,,,,,2,14,54,11,,,,,,,,,,,,,b,1,1.1341937805227644,565.6561716781107,None,,,,,001,54,2019_Oct_23_1306,ACPT_experiment_5_30_19,3.1.0,59.953942153260705,
,,,C,U,g,n,,,,,,,,,,2,15,55,7,,,,,,,,,,,,,n,1,1.4674994438319118,570.093163260286,None,,,,,001,54,2019_Oct_23_1306,ACPT_experiment_5_30_19,3.1.0,59.953942153260705,
,,,C,G,g,v,,,,,,,,,,2,16,56,13,,,,,,,,,,,,,v,1,2.468552917109264,574.8464808710087,None,,,,,001,54,2019_Oct_23_1306,ACPT_experiment_5_30_19,3.1.0,59.953942153260705,
,,,C,G,d,b,,,,,,,,,,2,17,57,3,,,,,,,,,,,,,b,1,2.918919383939283,580.584144291428,None,,,,,001,54,2019_Oct_23_1306,ACPT_experiment_5_30_19,3.1.0,59.953942153260705,
,,,C,G,d,b,,,,,,,,,,2,18,58,12,,,,,,,,,,,,,b,1,1.8513102460674418,586.7888607124205,None,,,,,001,54,2019_Oct_23_1306,ACPT_experiment_5_30_19,3.1.0,59.953942153260705,
,,,C,U,y,n,,,,,,,,,,2,19,59,8,,,,,,,,,,,,,n,1,1.000791765158283,591.9260977931099,None,,,,,001,54,2019_Oct_23_1306,ACPT_experiment_5_30_19,3.1.0,59.953942153260705,
,,,C,U,y,n,,,,,,,,,,3,0,60,17,,,,,,,,,,,,,n,1,1.24763262821034,596.2327170766221,None,,,,,001,54,2019_Oct_23_1306,ACPT_experiment_5_30_19,3.1.0,59.953942153260705,
,,,C,G,g,v,,,,,,,,,,3,1,61,4,,,,,,,,,,,,,v,1,2.4852282822266716,600.7661754180917,None,,,,,001,54,2019_Oct_23_1306,ACPT_experiment_5_30_19,3.1.0,59.953942153260705,
,,,C,G,d,b,,,,,,,,,,3,2,62,3,,,,,,,,,,,,,b,1,2.01827700672402,606.5205145054824,None,,,,,001,54,2019_Oct_23_1306,ACPT_experiment_5_30_19,3.1.0,59.953942153260705,
,,,C,D,d,v,,,,,,,,,,3,3,63,18,,,,,,,,,,,,,v,1,3.669549581312822,611.8245647027288,None,,,,,001,54,2019_Oct_23_1306,ACPT_experiment_5_30_19,3.1.0,59.953942153260705,
,,,C,G,g,v,,,,,,,,,,3,4,64,13,,,,,,,,,,,,,v,1,1.3343938498892385,618.7798198590881,None,,,,,001,54,2019_Oct_23_1306,ACPT_experiment_5_30_19,3.1.0,59.953942153260705,
,,,C,U,d,n,,,,,,,,,,3,5,65,15,,,,,,,,,,,,,n,1,1.1671333845079062,623.4171002559433,None,,,,,001,54,2019_Oct_23_1306,ACPT_experiment_5_30_19,3.1.0,59.953942153260705,
,,,C,D,y,b,,,,,,,,,,3,6,66,11,,,,,,,,,,,,,b,1,1.2509922722147166,627.8700813891119,None,,,,,001,54,2019_Oct_23_1306,ACPT_experiment_5_30_19,3.1.0,59.953942153260705,
,,,C,D,g,b,,,,,,,,,,3,7,67,10,,,,,,,,,,,,,b,1,2.835501506104265,632.4068556056409,None,,,,,001,54,2019_Oct_23_1306,ACPT_experiment_5_30_19,3.1.0,59.953942153260705,
,,,C,U,y,n,,,,,,,,,,3,8,68,8,,,,,,,,,,,,,n,1,1.334386001664825,638.5281493191214,None,,,,,001,54,2019_Oct_23_1306,ACPT_experiment_5_30_19,3.1.0,59.953942153260705,
,,,C,G,y,b,,,,,,,,,,3,9,69,5,,,,,,,,,,,,,b,1,1.5009642751829233,643.1818989142594,None,,,,,001,54,2019_Oct_23_1306,ACPT_experiment_5_30_19,3.1.0,59.953942153260705,
,,,C,D,y,b,,,,,,,,,,3,10,70,2,,,,,,,,,,,,,b,1,1.6012516107730335,647.968678035928,None,,,,,001,54,2019_Oct_23_1306,ACPT_experiment_5_30_19,3.1.0,59.953942153260705,
,,,C,G,d,b,,,,,,,,,,3,11,71,12,,,,,,,,,,,,,b,1,3.0356665603121655,652.8557176281101,None,,,,,001,54,2019_Oct_23_1306,ACPT_experiment_5_30_19,3.1.0,59.953942153260705,
,,,C,G,g,v,,,,,,,,,,3,12,72,19,,,,,,,,,,,,,b,0,1.7846975309184927,659.160510690037,None,,,,,001,54,2019_Oct_23_1306,ACPT_experiment_5_30_19,3.1.0,59.953942153260705,
,,,C,D,d,v,,,,,,,,,,3,13,73,9,,,,,,,,,,,,,v,1,3.1857874078850728,664.2310327267969,None,,,,,001,54,2019_Oct_23_1306,ACPT_experiment_5_30_19,3.1.0,59.953942153260705,
,,,C,G,y,b,,,,,,,,,,3,14,74,14,,,,,,,,,,,,,b,1,2.051555895512138,670.7026204921385,None,,,,,001,54,2019_Oct_23_1306,ACPT_experiment_5_30_19,3.1.0,59.953942153260705,
,,,C,D,g,b,,,,,,,,,,3,15,75,1,,,,,,,,,,,,,b,1,1.5011441806454968,676.0399963656691,None,,,,,001,54,2019_Oct_23_1306,ACPT_experiment_5_30_19,3.1.0,59.953942153260705,
,,,C,U,g,n,,,,,,,,,,3,16,76,16,,,,,,,,,,,,,n,1,1.2009368969520438,680.826960826189,None,,,,,001,54,2019_Oct_23_1306,ACPT_experiment_5_30_19,3.1.0,59.953942153260705,
,,,C,D,d,v,,,,,,,,,,3,17,77,0,,,,,,,,,,,,,v,1,1.7013031977585342,685.3137041176924,None,,,,,001,54,2019_Oct_23_1306,ACPT_experiment_5_30_19,3.1.0,59.953942153260705,
,,,C,U,g,n,,,,,,,,,,3,18,78,7,,,,,,,,,,,,,n,1,1.467863178875632,690.3007986172634,None,,,,,001,54,2019_Oct_23_1306,ACPT_experiment_5_30_19,3.1.0,59.953942153260705,
,,,C,U,d,n,,,,,,,,,,3,19,79,6,,,,,,,,,,,,,n,1,2.568653404574434,695.0377327564693,None,,,,,001,54,2019_Oct_23_1306,ACPT_experiment_5_30_19,3.1.0,59.953942153260705,
,,,C,D,d,v,,,,,,,,,,4,0,80,18,,,,,,,,,,,,,v,1,1.2843339468017803,700.8922025168049,None,,,,,001,54,2019_Oct_23_1306,ACPT_experiment_5_30_19,3.1.0,59.953942153260705,
,,,C,D,d,v,,,,,,,,,,4,1,81,9,,,,,,,,,,,,,v,1,1.267639262980083,705.4623313876782,None,,,,,001,54,2019_Oct_23_1306,ACPT_experiment_5_30_19,3.1.0,59.953942153260705,
,,,C,D,d,v,,,,,,,,,,4,2,82,0,,,,,,,,,,,,,v,1,1.9181300336185814,709.9991219043659,None,,,,,001,54,2019_Oct_23_1306,ACPT_experiment_5_30_19,3.1.0,59.953942153260705,
,,,C,D,g,b,,,,,,,,,,4,3,83,1,,,,,,,,,,,,,b,1,0.9173744910349342,715.1863853822597,None,,,,,001,54,2019_Oct_23_1306,ACPT_experiment_5_30_19,3.1.0,59.953942153260705,
,,,C,U,g,n,,,,,,,,,,4,4,84,16,,,,,,,,,,,,,n,1,0.9337978073872364,719.4065175282558,None,,,,,001,54,2019_Oct_23_1306,ACPT_experiment_5_30_19,3.1.0,59.953942153260705,
,,,C,U,d,n,,,,,,,,,,4,5,85,15,,,,,,,,,,,,,n,1,2.551947552123238,723.6094551188689,None,,,,,001,54,2019_Oct_23_1306,ACPT_experiment_5_30_19,3.1.0,59.953942153260705,
,,,C,D,y,b,,,,,,,,,,4,6,86,11,,,,,,,,,,,,,b,1,1.200938104369925,729.4472117822388,None,,,,,001,54,2019_Oct_23_1306,ACPT_experiment_5_30_19,3.1.0,59.953942153260705,
,,,C,G,g,v,,,,,,,,,,4,7,87,13,,,,,,,,,,,,,v,1,1.9679031746381952,733.9509069378619,None,,,,,001,54,2019_Oct_23_1306,ACPT_experiment_5_30_19,3.1.0,59.953942153260705,
,,,C,U,d,n,,,,,,,,,,4,8,88,6,,,,,,,,,,,,,n,1,1.100852709645551,739.2046198274547,None,,,,,001,54,2019_Oct_23_1306,ACPT_experiment_5_30_19,3.1.0,59.953942153260705,
,,,C,U,g,n,,,,,,,,,,4,9,89,7,,,,,,,,,,,,,n,1,1.0838957139949343,743.5915581473491,None,,,,,001,54,2019_Oct_23_1306,ACPT_experiment_5_30_19,3.1.0,59.953942153260705,
,,,C,G,g,v,,,,,,,,,,4,10,90,19,,,,,,,,,,,,,v,1,1.868114503187826,747.961248785412,None,,,,,001,54,2019_Oct_23_1306,ACPT_experiment_5_30_19,3.1.0,59.953942153260705,
,,,C,G,d,b,,,,,,,,,,4,11,91,12,,,,,,,,,,,,,b,1,3.0856754499363888,753.11521284839,None,,,,,001,54,2019_Oct_23_1306,ACPT_experiment_5_30_19,3.1.0,59.953942153260705,
,,,C,G,g,v,,,,,,,,,,4,12,92,4,,,,,,,,,,,,,v,1,2.318442634456005,759.486706767073,None,,,,,001,54,2019_Oct_23_1306,ACPT_experiment_5_30_19,3.1.0,59.953942153260705,
,,,C,G,y,b,,,,,,,,,,4,13,93,14,,,,,,,,,,,,,b,1,1.134220645599271,765.0742466232259,None,,,,,001,54,2019_Oct_23_1306,ACPT_experiment_5_30_19,3.1.0,59.953942153260705,
,,,C,D,y,b,,,,,,,,,,4,14,94,2,,,,,,,,,,,,,b,1,1.134248416243281,769.5276533716733,None,,,,,001,54,2019_Oct_23_1306,ACPT_experiment_5_30_19,3.1.0,59.953942153260705,
,,,C,U,y,n,,,,,,,,,,4,15,95,8,,,,,,,,,,,,,n,1,1.0675056016716553,773.9476692431999,None,,,,,001,54,2019_Oct_23_1306,ACPT_experiment_5_30_19,3.1.0,59.953942153260705,
,,,C,D,g,b,,,,,,,,,,4,16,96,10,,,,,,,,,,,,,b,1,1.8846347149337817,778.334471426575,None,,,,,001,54,2019_Oct_23_1306,ACPT_experiment_5_30_19,3.1.0,59.953942153260705,
,,,C,G,d,b,,,,,,,,,,4,17,97,3,,,,,,,,,,,,,b,1,2.468560463479662,783.5049282325108,None,,,,,001,54,2019_Oct_23_1306,ACPT_experiment_5_30_19,3.1.0,59.953942153260705,
,,,C,G,y,b,,,,,,,,,,4,18,98,5,,,,,,,,,,,,,b,1,1.034139174988013,789.2426139901854,None,,,,,001,54,2019_Oct_23_1306,ACPT_experiment_5_30_19,3.1.0,59.953942153260705,
,,,C,U,y,n,,,,,,,,,,4,19,99,17,,,,,,,,,,,,,n,1,1.133936298372646,793.5795114238463,None,,,,,001,54,2019_Oct_23_1306,ACPT_experiment_5_30_19,3.1.0,59.953942153260705,
,,,C,D,g,b,,,,,,,,,,5,0,100,1,,,,,,,,,,,,,b,1,1.417748640069476,797.9992710206407,None,,,,,001,54,2019_Oct_23_1306,ACPT_experiment_5_30_19,3.1.0,59.953942153260705,
,,,C,G,d,b,,,,,,,,,,5,1,101,12,,,,,,,,,,,,,b,1,1.5007007559361227,802.719940920977,None,,,,,001,54,2019_Oct_23_1306,ACPT_experiment_5_30_19,3.1.0,59.953942153260705,
,,,C,U,y,n,,,,,,,,,,5,2,102,8,,,,,,,,,,,,,n,1,0.9006677330198727,807.5065144795226,None,,,,,001,54,2019_Oct_23_1306,ACPT_experiment_5_30_19,3.1.0,59.953942153260705,
,,,C,U,d,n,,,,,,,,,,5,3,103,15,,,,,,,,,,,,,n,1,0.9171046328356169,811.6932648042439,None,,,,,001,54,2019_Oct_23_1306,ACPT_experiment_5_30_19,3.1.0,59.953942153260705,
,,,C,G,g,v,,,,,,,,,,5,4,104,4,,,,,,,,,,,,,v,1,3.2191133860233094,815.8961972633242,None,,,,,001,54,2019_Oct_23_1306,ACPT_experiment_5_30_19,3.1.0,59.953942153260705,
,,,C,U,d,n,,,,,,,,,,5,5,105,6,,,,,,,,,,,,,n,1,1.5678670728011639,822.4011297218021,None,,,,,001,54,2019_Oct_23_1306,ACPT_experiment_5_30_19,3.1.0,59.953942153260705,
,,,C,U,g,n,,,,,,,,,,5,6,106,7,,,,,,,,,,,,,n,1,0.9340480450227915,827.2381395963785,None,,,,,001,54,2019_Oct_23_1306,ACPT_experiment_5_30_19,3.1.0,59.953942153260705,
,,,C,G,d,b,,,,,,,,,,5,7,107,3,,,,,,,,,,,,,b,1,3.018717714741797,831.4749389574117,None,,,,,001,54,2019_Oct_23_1306,ACPT_experiment_5_30_19,3.1.0,59.953942153260705,
,,,C,U,g,n,,,,,,,,,,5,8,108,16,,,,,,,,,,,,,n,1,1.1175172079874756,837.7794742353344,None,,,,,001,54,2019_Oct_23_1306,ACPT_experiment_5_30_19,3.1.0,59.953942153260705,
,,,C,D,d,v,,,,,,,,,,5,9,109,0,,,,,,,,,,,,,v,1,1.3508473517231323,842.1996588436978,None,,,,,001,54,2019_Oct_23_1306,ACPT_experiment_5_30_19,3.1.0,59.953942153260705,
,,,C,D,y,b,,,,,,,,,,5,10,110,2,,,,,,,,,,,,,b,1,1.2343021162123478,846.836351831098,None,,,,,001,54,2019_Oct_23_1306,ACPT_experiment_5_30_19,3.1.0,59.953942153260705,
,,,C,D,d,v,,,,,,,,,,5,11,111,18,,,,,,,,,,,,,v,1,1.317657811956451,851.339780750779,None,,,,,001,54,2019_Oct_23_1306,ACPT_experiment_5_30_19,3.1.0,59.953942153260705,
,,,C,D,g,b,,,,,,,,,,5,12,112,10,,,,,,,,,,,,,b,1,0.9841130796412472,855.9265874016073,None,,,,,001,54,2019_Oct_23_1306,ACPT_experiment_5_30_19,3.1.0,59.953942153260705,
,,,C,G,g,v,,,,,,,,,,5,13,113,19,,,,,,,,,,,,,v,1,1.6176160654358682,860.2134696066933,None,,,,,001,54,2019_Oct_23_1306,ACPT_experiment_5_30_19,3.1.0,59.953942153260705,
,,,C,G,y,b,,,,,,,,,,5,14,114,5,,,,,,,,,,,,,b,1,1.2676462056388118,865.1002124755996,None,,,,,001,54,2019_Oct_23_1306,ACPT_experiment_5_30_19,3.1.0,59.953942153260705,
,,,C,G,g,v,,,,,,,,,,5,15,115,13,,,,,,,,,,,,,v,1,1.1475475353399816,869.6736843884628,None,,,,,001,54,2019_Oct_23_1306,ACPT_experiment_5_30_19,3.1.0,59.953942153260705,
,,,C,D,y,b,,,,,,,,,,5,16,116,11,,,,,,,,,,,,,b,1,1.2176065268267848,874.1070564296442,None,,,,,001,54,2019_Oct_23_1306,ACPT_experiment_5_30_19,3.1.0,59.953942153260705,
,,,C,D,d,v,,,,,,,,,,5,17,117,9,,,,,,,,,,,,,v,1,1.784693304951361,878.6271622237164,None,,,,,001,54,2019_Oct_23_1306,ACPT_experiment_5_30_19,3.1.0,59.953942153260705,
,,,C,G,y,b,,,,,,,,,,5,18,118,14,,,,,,,,,,,,,b,1,0.8840068569334107,883.6976821474927,None,,,,,001,54,2019_Oct_23_1306,ACPT_experiment_5_30_19,3.1.0,59.953942153260705,
,,,C,U,y,n,,,,,,,,,,5,19,119,17,0,0,0,0,0,0,0,0,,,,,n,1,1.000751618470531,887.9008748054166,None,,,,,001,54,2019_Oct_23_1306,ACPT_experiment_5_30_19,3.1.0,59.953942153260705,
,,,C,U,y,n,R,D,y,L,y,,,,,5,19,119,17,0,0,0,0,,,,,0,0,0,26,,,,,,down,1.7648979685473023,930.9866888067118,None,001,54,2019_Oct_23_1306,ACPT_experiment_5_30_19,3.1.0,59.953942153260705,
,,,C,U,y,n,R,U,y,R,u,,,,,5,19,119,17,0,0,0,0,,,,,0,1,1,31,,,,,,down,0.9506989598994551,934.019241734688,None,001,54,2019_Oct_23_1306,ACPT_experiment_5_30_19,3.1.0,59.953942153260705,
,,,C,U,y,n,R,D,d,R,c ,,,,,5,19,119,17,0,0,0,0,,,,,0,2,2,1,,,,,,up,0.867314587947476,936.2542550208273,None,001,54,2019_Oct_23_1306,ACPT_experiment_5_30_19,3.1.0,59.953942153260705,
,,,C,U,y,n,L,U,y,R,u,,,,,5,19,119,17,0,0,0,0,,,,,0,3,3,25,,,,,,down,1.4177890886130626,938.4058923869507,None,001,54,2019_Oct_23_1306,ACPT_experiment_5_30_19,3.1.0,59.953942153260705,
,,,C,U,y,n,R,G,g,L,c ,,,,,5,19,119,17,0,0,0,0,,,,,0,4,4,6,,,,,,up,1.0007591648391099,941.107930903021,None,001,54,2019_Oct_23_1306,ACPT_experiment_5_30_19,3.1.0,59.953942153260705,
,,,C,U,y,n,L,G,y,R,y,,,,,5,19,119,17,0,0,0,0,,,,,0,5,5,35,,,,,,down,0.7839302159973158,943.3930004699887,None,001,54,2019_Oct_23_1306,ACPT_experiment_5_30_19,3.1.0,59.953942153260705,
,,,C,U,y,n,L,G,d,R,i,,,,,5,19,119,17,0,0,0,0,,,,,0,6,6,17,,,,,,up,0.6805310592008027,945.4812413839318,None,001,54,2019_Oct_23_1306,ACPT_experiment_5_30_19,3.1.0,59.953942153260705,
,,,C,U,y,n,L,G,d,L,i,,,,,5,19,119,17,0,0,0,0,,,,,0,7,7,16,,,,,,up,0.9340761175189982,947.4460562820368,None,001,54,2019_Oct_23_1306,ACPT_experiment_5_30_19,3.1.0,59.953942153260705,
,,,C,U,y,n,R,D,d,L,c,,,,,5,19,119,17,0,0,0,0,,,,,0,8,8,0,,,,,,up,0.6171515108890162,949.6644316330567,None,001,54,2019_Oct_23_1306,ACPT_experiment_5_30_19,3.1.0,59.953942153260705,
,,,C,U,y,n,L,D,y,L,y,,,,,5,19,119,17,0,0,0,0,,,,,0,9,9,32,,,,,,down,0.8170385568209895,951.5661413688704,None,001,54,2019_Oct_23_1306,ACPT_experiment_5_30_19,3.1.0,59.953942153260705,
,,,C,U,y,n,R,U,g,L,u,,,,,5,19,119,17,0,0,0,0,,,,,0,10,10,10,,,,,,up,0.5670922115132271,953.6674698016905,None,001,54,2019_Oct_23_1306,ACPT_experiment_5_30_19,3.1.0,59.953942153260705,
,,,C,U,y,n,R,G,y,L,y,,,,,5,19,119,17,0,0,0,0,,,,,0,11,11,28,,,,,,down,0.7505852210069861,955.5188521910586,None,001,54,2019_Oct_23_1306,ACPT_experiment_5_30_19,3.1.0,59.953942153260705,
,,,C,U,y,n,R,U,g,R,u,,,,,5,19,119,17,0,0,0,0,,,,,0,12,12,11,,,,,,up,0.6338181222163257,957.5537475123401,None,001,54,2019_Oct_23_1306,ACPT_experiment_5_30_19,3.1.0,59.953942153260705,
,,,C,U,y,n,L,U,d,R,u,,,,,5,19,119,17,0,0,0,0,,,,,0,13,13,21,,,,,,up,0.6671827377685986,959.4718745274095,None,001,54,2019_Oct_23_1306,ACPT_experiment_5_30_19,3.1.0,59.953942153260705,
,,,C,U,y,n,L,U,y,L,u,,,,,5,19,119,17,0,0,0,0,,,,,0,14,14,24,,,,,,down,0.7172399241626408,961.4066530610653,None,001,54,2019_Oct_23_1306,ACPT_experiment_5_30_19,3.1.0,59.953942153260705,
,,,C,U,y,n,L,U,g,L,u,,,,,5,19,119,17,0,0,0,0,,,,,0,15,15,22,,,,,,up,0.7339406450810202,963.40819674655,None,001,54,2019_Oct_23_1306,ACPT_experiment_5_30_19,3.1.0,59.953942153260705,
,,,C,U,y,n,R,G,d,R,i,,,,,5,19,119,17,0,0,0,0,,,,,0,16,16,5,,,,,,up,0.7839039546288404,965.4264173064239,None,001,54,2019_Oct_23_1306,ACPT_experiment_5_30_19,3.1.0,59.953942153260705,
,,,C,U,y,n,L,D,d,L,c ,,,,,5,19,119,17,0,0,0,0,,,,,0,17,17,12,,,,,,up,0.9007063704357279,967.4946126463292,None,001,54,2019_Oct_23_1306,ACPT_experiment_5_30_19,3.1.0,59.953942153260705,
,,,C,U,y,n,L,G,g,R,c ,,,,,5,19,119,17,0,0,0,0,,,,,0,18,18,19,,,,,,up,0.7672367395934998,969.6796381726799,None,001,54,2019_Oct_23_1306,ACPT_experiment_5_30_19,3.1.0,59.953942153260705,
,,,C,U,y,n,R,G,g,R,c ,,,,,5,19,119,17,0,0,0,0,,,,,0,19,19,7,,,,,,up,0.5670967393343744,971.7311832014184,None,001,54,2019_Oct_23_1306,ACPT_experiment_5_30_19,3.1.0,59.953942153260705,
,,,C,U,y,n,R,G,y,R,y,,,,,5,19,119,17,0,0,0,0,,,,,0,20,20,29,,,,,,down,0.7672264765296859,973.5826181135235,None,001,54,2019_Oct_23_1306,ACPT_experiment_5_30_19,3.1.0,59.953942153260705,
,,,C,U,y,n,R,U,d,R,u,,,,,5,19,119,17,0,0,0,0,,,,,0,21,21,9,,,,,,up,0.5337529517619259,975.6341263159738,None,001,54,2019_Oct_23_1306,ACPT_experiment_5_30_19,3.1.0,59.953942153260705,
,,,C,U,y,n,L,U,d,L,u,,,,,5,19,119,17,0,0,0,0,,,,,0,22,22,20,,,,,,up,0.9173796225659316,977.4355167195881,None,001,54,2019_Oct_23_1306,ACPT_experiment_5_30_19,3.1.0,59.953942153260705,
,,,C,U,y,n,R,U,d,L,u,,,,,5,19,119,17,0,0,0,0,,,,,0,23,23,8,,,,,,up,0.7005295438884787,979.6371907459779,None,001,54,2019_Oct_23_1306,ACPT_experiment_5_30_19,3.1.0,59.953942153260705,
,,,C,U,y,n,L,D,g,R,i,,,,,5,19,119,17,0,0,0,0,,,,,0,24,24,15,,,,,,up,0.6504660185455577,981.6220521236846,None,001,54,2019_Oct_23_1306,ACPT_experiment_5_30_19,3.1.0,59.953942153260705,
,,,C,U,y,n,R,D,y,R,y,,,,,5,19,119,17,0,0,0,0,,,,,0,25,25,27,,,,,,down,1.1173490748606127,983.5736795889716,None,001,54,2019_Oct_23_1306,ACPT_experiment_5_30_19,3.1.0,59.953942153260705,
,,,C,U,y,n,L,U,g,R,u,,,,,5,19,119,17,0,0,0,0,,,,,0,26,26,23,,,,,,up,0.4838035275370203,985.991997225352,None,001,54,2019_Oct_23_1306,ACPT_experiment_5_30_19,3.1.0,59.953942153260705,
,,,C,U,y,n,L,D,d,R,c ,,,,,5,19,119,17,0,0,0,0,,,,,0,27,27,13,,,,,,up,0.6171593591152487,987.7599985631714,None,001,54,2019_Oct_23_1306,ACPT_experiment_5_30_19,3.1.0,59.953942153260705,
,,,C,U,y,n,R,D,g,L,i,,,,,5,19,119,17,0,0,0,0,,,,,0,28,28,2,,,,,,up,1.084167383320164,989.6781427839651,None,001,54,2019_Oct_23_1306,ACPT_experiment_5_30_19,3.1.0,59.953942153260705,
,,,C,U,y,n,L,G,g,L,c ,,,,,5,19,119,17,0,0,0,0,,,,,0,29,29,18,,,,,,up,0.8173690878356865,992.0466193619941,None,001,54,2019_Oct_23_1306,ACPT_experiment_5_30_19,3.1.0,59.953942153260705,
,,,C,U,y,n,R,G,d,L,i,,,,,5,19,119,17,0,0,0,0,,,,,0,30,30,4,,,,,,up,0.6504907706384984,994.1482104084971,None,001,54,2019_Oct_23_1306,ACPT_experiment_5_30_19,3.1.0,59.953942153260705,
,,,C,U,y,n,R,D,g,R,i,,,,,5,19,119,17,0,0,0,0,,,,,0,31,31,3,,,,,,up,0.8506784639575926,996.0830112794083,None,001,54,2019_Oct_23_1306,ACPT_experiment_5_30_19,3.1.0,59.953942153260705,
,,,C,U,y,n,L,D,g,L,i,,,,,5,19,119,17,0,0,0,0,,,,,0,32,32,14,,,,,,up,0.66719813236341,998.2179717711424,None,001,54,2019_Oct_23_1306,ACPT_experiment_5_30_19,3.1.0,59.953942153260705,
,,,C,U,y,n,L,D,y,R,y,,,,,5,19,119,17,0,0,0,0,,,,,0,33,33,33,,,,,,down,0.9174360694159986,1000.1861417854288,None,001,54,2019_Oct_23_1306,ACPT_experiment_5_30_19,3.1.0,59.953942153260705,
,,,C,U,y,n,R,U,y,L,u,,,,,5,19,119,17,0,0,0,0,,,,,0,34,34,30,,,,,,down,0.8339883079552237,1002.404501138144,None,001,54,2019_Oct_23_1306,ACPT_experiment_5_30_19,3.1.0,59.953942153260705,
,,,C,U,y,n,L,G,y,L,y,,,,,5,19,119,17,0,0,0,0,,,,,0,35,35,34,,,,,,down,0.8173147539673664,1004.5060755826325,None,001,54,2019_Oct_23_1306,ACPT_experiment_5_30_19,3.1.0,59.953942153260705,
,,,C,U,y,n,L,U,d,R,u,,,,,5,19,119,17,0,0,0,0,,,,,1,0,36,21,,,,,,up,0.7005452403391246,1006.6076762884913,None,001,54,2019_Oct_23_1306,ACPT_experiment_5_30_19,3.1.0,59.953942153260705,
,,,C,U,y,n,R,G,y,L,y,,,,,5,19,119,17,0,0,0,0,,,,,1,1,37,28,,,,,,down,0.8174367033116141,1008.6258687758673,None,001,54,2019_Oct_23_1306,ACPT_experiment_5_30_19,3.1.0,59.953942153260705,
,,,C,U,y,n,R,G,g,R,c ,,,,,5,19,119,17,0,0,0,0,,,,,1,2,38,7,,,,,,up,0.7005621442076517,1010.7441369986154,None,001,54,2019_Oct_23_1306,ACPT_experiment_5_30_19,3.1.0,59.953942153260705,
,,,C,U,y,n,R,U,y,R,u,,,,,5,19,119,17,0,0,0,0,,,,,1,3,39,31,,,,,,down,0.7839510439807782,1012.745671628456,None,001,54,2019_Oct_23_1306,ACPT_experiment_5_30_19,3.1.0,59.953942153260705,
,,,C,U,y,n,L,D,g,L,i,,,,,5,19,119,17,0,0,0,0,,,,,1,4,40,14,,,,,,up,0.9173811318414664,1014.8305800653288,None,001,54,2019_Oct_23_1306,ACPT_experiment_5_30_19,3.1.0,59.953942153260705,
,,,C,U,y,n,R,G,g,L,c ,,,,,5,19,119,17,0,0,0,0,,,,,1,5,41,6,,,,,,up,0.6172073540274141,1017.032223906237,None,001,54,2019_Oct_23_1306,ACPT_experiment_5_30_19,3.1.0,59.953942153260705,
,,,C,U,y,n,L,G,d,R,i,,,,,5,19,119,17,0,0,0,0,,,,,1,6,42,17,,,,,,up,0.717213964648181,1018.933712986187,None,001,54,2019_Oct_23_1306,ACPT_experiment_5_30_19,3.1.0,59.953942153260705,
,,,C,U,y,n,L,D,d,L,c ,,,,,5,19,119,17,0,0,0,0,,,,,1,7,43,12,,,,,,up,0.6170959696046339,1020.9352738773941,None,001,54,2019_Oct_23_1306,ACPT_experiment_5_30_19,3.1.0,59.953942153260705,
,,,C,U,y,n,R,D,d,L,c,,,,,5,19,119,17,0,0,0,0,,,,,1,8,44,0,,,,,,up,0.500438745961219,1022.8199638317583,None,001,54,2019_Oct_23_1306,ACPT_experiment_5_30_19,3.1.0,59.953942153260705,
,,,C,U,y,n,L,U,g,L,u,,,,,5,19,119,17,0,0,0,0,,,,,1,9,45,22,,,,,,up,0.5503691533358506,1024.621420039719,None,001,54,2019_Oct_23_1306,ACPT_experiment_5_30_19,3.1.0,59.953942153260705,
,,,C,U,y,n,R,U,d,L,u,,,,,5,19,119,17,0,0,0,0,,,,,1,10,46,8,,,,,,up,0.4337131371121359,1026.4560802764754,None,001,54,2019_Oct_23_1306,ACPT_experiment_5_30_19,3.1.0,59.953942153260705,
,,,C,U,y,n,R,D,d,R,c ,,,,,5,19,119,17,0,0,0,0,,,,,1,11,47,1,,,,,,up,0.5838213067836477,1028.1740500855612,None,001,54,2019_Oct_23_1306,ACPT_experiment_5_30_19,3.1.0,59.953942153260705,
,,,C,U,y,n,R,U,g,R,u,,,,,5,19,119,17,0,0,0,0,,,,,1,12,48,11,,,,,,up,0.45039393561637553,1030.0421150845614,None,001,54,2019_Oct_23_1306,ACPT_experiment_5_30_19,3.1.0,59.953942153260705,
,,,C,U,y,n,L,U,g,R,u,,,,,5,19,119,17,0,0,0,0,,,,,1,13,49,23,,,,,,up,0.4000822856196464,1031.7937371768312,None,001,54,2019_Oct_23_1306,ACPT_experiment_5_30_19,3.1.0,59.953942153260705,
,,,C,U,y,n,L,U,y,R,u,,,,,5,19,119,17,0,0,0,0,,,,,1,14,50,25,,,,,,down,0.5670185589406174,1033.4613733005208,None,001,54,2019_Oct_23_1306,ACPT_experiment_5_30_19,3.1.0,59.953942153260705,
,,,C,U,y,n,R,G,d,R,i,,,,,5,19,119,17,0,0,0,0,,,,,1,15,51,5,,,,,,up,0.6171291736318381,1035.3127997606898,None,001,54,2019_Oct_23_1306,ACPT_experiment_5_30_19,3.1.0,59.953942153260705,
,,,C,U,y,n,L,G,y,L,y,,,,,5,19,119,17,0,0,0,0,,,,,1,16,52,34,,,,,,down,1.200905504050752,1037.2142535236271,None,001,54,2019_Oct_23_1306,ACPT_experiment_5_30_19,3.1.0,59.953942153260705,
,,,C,U,y,n,R,D,g,L,i,,,,,5,19,119,17,0,0,0,0,,,,,1,17,53,2,,,,,,up,0.9007211613206891,1043.6357819895911,None,001,54,2019_Oct_23_1306,ACPT_experiment_5_30_19,3.1.0,59.953942153260705,
,,,C,U,y,n,L,G,d,L,i,,,,,5,19,119,17,0,0,0,0,,,,,1,18,54,16,,,,,,up,0.5671552991680073,1045.8207740100606,None,001,54,2019_Oct_23_1306,ACPT_experiment_5_30_19,3.1.0,59.953942153260705,
,,,C,U,y,n,L,G,g,R,c ,,,,,5,19,119,17,0,0,0,0,,,,,1,19,55,19,,,,,,up,0.5837950454151724,1047.6554801287475,None,001,54,2019_Oct_23_1306,ACPT_experiment_5_30_19,3.1.0,59.953942153260705,
,,,C,U,y,n,L,G,g,L,c ,,,,,5,19,119,17,0,0,0,0,,,,,1,20,56,18,,,,,,up,0.5504080926075403,1049.523591613388,None,001,54,2019_Oct_23_1306,ACPT_experiment_5_30_19,3.1.0,59.953942153260705,
,,,C,U,y,n,L,D,y,R,y,,,,,5,19,119,17,0,0,0,0,,,,,1,21,57,33,,,,,,down,0.8506515988810861,1051.3583079951386,None,001,54,2019_Oct_23_1306,ACPT_experiment_5_30_19,3.1.0,59.953942153260705,
,,,C,U,y,n,L,U,y,L,u,,,,,5,19,119,17,0,0,0,0,,,,,1,22,58,24,,,,,,down,0.7839806257507007,1053.4932503755826,None,001,54,2019_Oct_23_1306,ACPT_experiment_5_30_19,3.1.0,59.953942153260705,
,,,C,U,y,n,L,G,y,R,y,,,,,5,19,119,17,0,0,0,0,,,,,1,23,59,35,,,,,,down,0.7171837791684084,1055.5615251033032,None,001,54,2019_Oct_23_1306,ACPT_experiment_5_30_19,3.1.0,59.953942153260705,
,,,C,U,y,n,R,D,y,L,y,,,,,5,19,119,17,0,0,0,0,,,,,1,24,60,26,,,,,,down,0.7672880549125694,1057.5463421083532,None,001,54,2019_Oct_23_1306,ACPT_experiment_5_30_19,3.1.0,59.953942153260705,
,,,C,U,y,n,R,G,y,R,y,,,,,5,19,119,17,0,0,0,0,,,,,1,25,61,29,,,,,,down,0.8840059513695451,1059.5978958908818,None,001,54,2019_Oct_23_1306,ACPT_experiment_5_30_19,3.1.0,59.953942153260705,
,,,C,U,y,n,R,U,g,L,u,,,,,5,19,119,17,0,0,0,0,,,,,1,26,62,10,,,,,,up,0.8173087168725033,1061.7662149610715,None,001,54,2019_Oct_23_1306,ACPT_experiment_5_30_19,3.1.0,59.953942153260705,
,,,C,U,y,n,L,U,d,L,u,,,,,5,19,119,17,0,0,0,0,,,,,1,27,63,20,,,,,,up,1.2676329240293853,1063.8678032908829,None,001,54,2019_Oct_23_1306,ACPT_experiment_5_30_19,3.1.0,59.953942153260705,
,,,C,U,y,n,L,D,g,R,i,,,,,5,19,119,17,0,0,0,0,,,,,1,28,64,15,,,,,,up,0.633849213259964,1066.4197414855062,None,001,54,2019_Oct_23_1306,ACPT_experiment_5_30_19,3.1.0,59.953942153260705,
,,,C,U,y,n,L,D,d,R,c ,,,,,5,19,119,17,0,0,0,0,,,,,1,29,65,13,,,,,,up,0.450358920459621,1068.3211674778013,None,001,54,2019_Oct_23_1306,ACPT_experiment_5_30_19,3.1.0,59.953942153260705,
,,,C,U,y,n,R,U,y,L,u,,,,,5,19,119,17,0,0,0,0,,,,,1,30,66,30,,,,,,down,0.7836977877959725,1070.072795003458,None,001,54,2019_Oct_23_1306,ACPT_experiment_5_30_19,3.1.0,59.953942153260705,
,,,C,U,y,n,R,U,d,R,u,,,,,5,19,119,17,0,0,0,0,,,,,1,31,67,9,,,,,,up,1.4510885035269894,1072.1407678763699,None,001,54,2019_Oct_23_1306,ACPT_experiment_5_30_19,3.1.0,59.953942153260705,
,,,C,U,y,n,R,D,g,R,i,,,,,5,19,119,17,0,0,0,0,,,,,1,32,68,3,,,,,,up,0.7505692227023246,1074.876163461624,None,001,54,2019_Oct_23_1306,ACPT_experiment_5_30_19,3.1.0,59.953942153260705,
,,,C,U,y,n,R,D,y,R,y,,,,,5,19,119,17,0,0,0,0,,,,,1,33,69,27,,,,,,down,0.7505966914886812,1076.8943393469854,None,001,54,2019_Oct_23_1306,ACPT_experiment_5_30_19,3.1.0,59.953942153260705,
,,,C,U,y,n,R,G,d,L,i,,,,,5,19,119,17,0,0,0,0,,,,,1,34,70,4,,,,,,up,0.7005392032424425,1078.9292352719767,None,001,54,2019_Oct_23_1306,ACPT_experiment_5_30_19,3.1.0,59.953942153260705,
,,,C,U,y,n,L,D,y,L,y,,,,,5,19,119,17,0,0,0,0,,,,,1,35,71,32,,,,,,down,0.6838747048986988,1080.9140592196873,None,001,54,2019_Oct_23_1306,ACPT_experiment_5_30_19,3.1.0,59.953942153260705,
,,,C,U,y,n,,,,,,,,,,5,19,119,17,1,0,1,0,0,0,0,0,,,,,,,,,,,,,,001,54,2019_Oct_23_1306,ACPT_experiment_5_30_19,3.1.0,59.953942153260705,
,,,C,U,y,n,L,D,g,L,i,,,,,5,19,119,17,1,0,1,0,,,,,0,0,0,14,,,,,,up,0.8808367777492094,1103.851492264519,None,001,54,2019_Oct_23_1306,ACPT_experiment_5_30_19,3.1.0,59.953942153260705,
,,,C,U,y,n,R,G,g,R,c ,,,,,5,19,119,17,1,0,1,0,,,,,0,1,1,7,,,,,,up,0.767216213467691,1106.0165093449723,None,001,54,2019_Oct_23_1306,ACPT_experiment_5_30_19,3.1.0,59.953942153260705,
,,,C,U,y,n,L,U,g,R,u,,,,,5,19,119,17,1,0,1,0,,,,,0,2,2,23,,,,,,up,0.6171349088745046,1108.0513485212596,None,001,54,2019_Oct_23_1306,ACPT_experiment_5_30_19,3.1.0,59.953942153260705,
,,,C,U,y,n,R,G,y,L,y,,,,,5,19,119,17,1,0,1,0,,,,,0,3,3,28,,,,,,down,0.8006348610306304,1109.9694664806848,None,001,54,2019_Oct_23_1306,ACPT_experiment_5_30_19,3.1.0,59.953942153260705,
,,,C,U,y,n,R,D,y,R,y,,,,,5,19,119,17,1,0,1,0,,,,,0,4,4,27,,,,,,down,0.783904256484675,1112.0544250254552,None,001,54,2019_Oct_23_1306,ACPT_experiment_5_30_19,3.1.0,59.953942153260705,
,,,C,U,y,n,R,D,d,R,c ,,,,,5,19,119,17,1,0,1,0,,,,,0,5,5,1,,,,,,up,0.7673728761128586,1114.1226251950357,None,001,54,2019_Oct_23_1306,ACPT_experiment_5_30_19,3.1.0,59.953942153260705,
,,,C,U,y,n,L,G,g,L,c ,,,,,5,19,119,17,1,0,1,0,,,,,0,6,6,18,,,,,,up,0.7507548634093837,1116.1742426689289,None,001,54,2019_Oct_23_1306,ACPT_experiment_5_30_19,3.1.0,59.953942153260705,
,,,C,U,y,n,L,U,g,L,u,,,,,5,19,119,17,1,0,1,0,,,,,0,7,7,22,,,,,,up,0.7339008002472838,1118.2090607153787,None,001,54,2019_Oct_23_1306,ACPT_experiment_5_30_19,3.1.0,59.953942153260705,
,,,C,U,y,n,L,G,g,R,c ,,,,,5,19,119,17,1,0,1,0,,,,,0,8,8,19,,,,,,up,0.6504937891859299,1120.2439370198063,None,001,54,2019_Oct_23_1306,ACPT_experiment_5_30_19,3.1.0,59.953942153260705,
,,,C,U,y,n,L,U,d,R,u,,,,,5,19,119,17,1,0,1,0,,,,,0,9,9,21,,,,,,up,0.650641999896834,1122.1787363814437,None,001,54,2019_Oct_23_1306,ACPT_experiment_5_30_19,3.1.0,59.953942153260705,
,,,C,U,y,n,L,U,d,L,u,,,,,5,19,119,17,1,0,1,0,,,,,0,10,10,20,,,,,,up,0.7672503230587608,1124.1135481191286,None,001,54,2019_Oct_23_1306,ACPT_experiment_5_30_19,3.1.0,59.953942153260705,
,,,C,U,y,n,R,U,g,L,u,,,,,5,19,119,17,1,0,1,0,,,,,0,11,11,10,,,,,,up,0.7505692227041436,1126.165103410929,None,001,54,2019_Oct_23_1306,ACPT_experiment_5_30_19,3.1.0,59.953942153260705,
,,,C,U,y,n,R,G,d,L,i,,,,,5,19,119,17,1,0,1,0,,,,,0,12,12,4,,,,,,up,0.41699007893839735,1128.199981828342,None,001,54,2019_Oct_23_1306,ACPT_experiment_5_30_19,3.1.0,59.953942153260705,
,,,C,U,y,n,L,G,d,L,i,,,,,5,19,119,17,1,0,1,0,,,,,0,13,13,16,,,,,,up,0.5334598507452029,1129.9015479416375,None,001,54,2019_Oct_23_1306,ACPT_experiment_5_30_19,3.1.0,59.953942153260705,
,,,C,U,y,n,R,U,d,L,u,,,,,5,19,119,17,1,0,1,0,,,,,0,14,14,8,,,,,,up,0.4003014322115632,1131.7193215149127,None,001,54,2019_Oct_23_1306,ACPT_experiment_5_30_19,3.1.0,59.953942153260705,
,,,C,U,y,n,L,D,y,R,y,,,,,5,19,119,17,1,0,1,0,,,,,0,15,15,33,,,,,,down,0.9173681520842365,1133.4039297269937,None,001,54,2019_Oct_23_1306,ACPT_experiment_5_30_19,3.1.0,59.953942153260705,
,,,C,U,y,n,L,U,y,R,u,,,,,5,19,119,17,1,0,1,0,,,,,0,16,16,25,,,,,,down,0.5837790471105109,1135.6056004329803,None,001,54,2019_Oct_23_1306,ACPT_experiment_5_30_19,3.1.0,59.953942153260705,
,,,C,U,y,n,R,D,d,L,c,,,,,5,19,119,17,1,0,1,0,,,,,0,17,17,0,,,,,,up,0.6504768853174028,1137.4737034656864,None,001,54,2019_Oct_23_1306,ACPT_experiment_5_30_19,3.1.0,59.953942153260705,
,,,C,U,y,n,L,U,y,L,u,,,,,5,19,119,17,1,0,1,0,,,,,0,18,18,24,,,,,,down,0.7005766332385974,1139.4084681140212,None,001,54,2019_Oct_23_1306,ACPT_experiment_5_30_19,3.1.0,59.953942153260705,
,,,C,U,y,n,R,U,y,L,u,,,,,5,19,119,17,1,0,1,0,,,,,0,19,19,30,,,,,,down,0.6505112967661262,1141.393309871166,None,001,54,2019_Oct_23_1306,ACPT_experiment_5_30_19,3.1.0,59.953942153260705,
,,,C,U,y,n,L,D,g,R,i,,,,,5,19,119,17,1,0,1,0,,,,,0,20,20,15,,,,,,up,0.7172133609401499,1143.328130966349,None,001,54,2019_Oct_23_1306,ACPT_experiment_5_30_19,3.1.0,59.953942153260705,
,,,C,U,y,n,R,D,g,R,i,,,,,5,19,119,17,1,0,1,0,,,,,0,21,21,3,,,,,,up,0.6337903515723156,1145.3296719351401,None,001,54,2019_Oct_23_1306,ACPT_experiment_5_30_19,3.1.0,59.953942153260705,
,,,C,U,y,n,L,G,d,R,i,,,,,5,19,119,17,1,0,1,0,,,,,0,22,22,17,,,,,,up,0.717203097874517,1147.2477802352114,None,001,54,2019_Oct_23_1306,ACPT_experiment_5_30_19,3.1.0,59.953942153260705,
,,,C,U,y,n,L,D,d,L,c ,,,,,5,19,119,17,1,0,1,0,,,,,0,23,23,12,,,,,,up,1.000738638713301,1149.265992645007,None,001,54,2019_Oct_23_1306,ACPT_experiment_5_30_19,3.1.0,59.953942153260705,
,,,C,U,y,n,R,D,y,L,y,,,,,5,19,119,17,1,0,1,0,,,,,0,24,24,26,,,,,,down,0.7005488625945873,1151.5510450062502,None,001,54,2019_Oct_23_1306,ACPT_experiment_5_30_19,3.1.0,59.953942153260705,
,,,C,U,y,n,R,G,y,R,y,,,,,5,19,119,17,1,0,1,0,,,,,0,25,25,29,,,,,,down,0.8839987068531627,1153.5525714860105,None,001,54,2019_Oct_23_1306,ACPT_experiment_5_30_19,3.1.0,59.953942153260705,
,,,C,U,y,n,L,D,d,R,c ,,,,,5,19,119,17,1,0,1,0,,,,,0,26,26,13,,,,,,up,0.6171294754894916,1155.7709414036435,None,001,54,2019_Oct_23_1306,ACPT_experiment_5_30_19,3.1.0,59.953942153260705,
,,,C,U,y,n,R,U,d,R,u,,,,,5,19,119,17,1,0,1,0,,,,,0,27,27,9,,,,,,up,0.6004504881129833,1157.672360453278,None,001,54,2019_Oct_23_1306,ACPT_experiment_5_30_19,3.1.0,59.953942153260705,
,,,C,U,y,n,R,D,g,L,i,,,,,5,19,119,17,1,0,1,0,,,,,0,28,28,2,,,,,,up,1.10087504690091,1159.5571234565032,None,001,54,2019_Oct_23_1306,ACPT_experiment_5_30_19,3.1.0,59.953942153260705,
,,,C,U,y,n,R,G,d,R,i,,,,,5,19,119,17,1,0,1,0,,,,,0,29,29,5,,,,,,up,0.6004794661766937,1161.9422379696534,None,001,54,2019_Oct_23_1306,ACPT_experiment_5_30_19,3.1.0,59.953942153260705,
,,,C,U,y,n,R,G,g,L,c ,,,,,5,19,119,17,1,0,1,0,,,,,0,30,30,6,,,,,,up,0.7505686189942935,1163.8270287435207,None,001,54,2019_Oct_23_1306,ACPT_experiment_5_30_19,3.1.0,59.953942153260705,
,,,C,U,y,n,L,G,y,R,y,,,,,5,19,119,17,1,0,1,0,,,,,0,31,31,35,,,,,,down,0.650515522731439,1165.861886634806,None,001,54,2019_Oct_23_1306,ACPT_experiment_5_30_19,3.1.0,59.953942153260705,
,,,C,U,y,n,L,G,y,L,y,,,,,5,19,119,17,1,0,1,0,,,,,0,32,32,34,,,,,,down,0.833976535617694,1167.8133764543,None,001,54,2019_Oct_23_1306,ACPT_experiment_5_30_19,3.1.0,59.953942153260705,
,,,C,U,y,n,L,D,y,L,y,,,,,5,19,119,17,1,0,1,0,,,,,0,33,33,32,,,,,,down,0.7506148027787276,1169.9483248718407,None,001,54,2019_Oct_23_1306,ACPT_experiment_5_30_19,3.1.0,59.953942153260705,
,,,C,U,y,n,R,U,y,R,u,,,,,5,19,119,17,1,0,1,0,,,,,0,34,34,31,,,,,,down,0.8340172860171151,1171.9998798617871,None,001,54,2019_Oct_23_1306,ACPT_experiment_5_30_19,3.1.0,59.953942153260705,
,,,C,U,y,n,R,U,g,R,u,,,,,5,19,119,17,1,0,1,0,,,,,0,35,35,11,,,,,,up,0.5837847823513584,1174.1348524277128,None,001,54,2019_Oct_23_1306,ACPT_experiment_5_30_19,3.1.0,59.953942153260705,
,,,C,U,y,n,L,U,y,R,u,,,,,5,19,119,17,1,0,1,0,,,,,1,0,36,25,,,,,,down,0.6836347303269577,1176.0198895151043,None,001,54,2019_Oct_23_1306,ACPT_experiment_5_30_19,3.1.0,59.953942153260705,
,,,C,U,y,n,R,D,d,L,c,,,,,5,19,119,17,1,0,1,0,,,,,1,1,37,0,,,,,,up,0.7672391544310813,1177.9877878600637,None,001,54,2019_Oct_23_1306,ACPT_experiment_5_30_19,3.1.0,59.953942153260705,
,,,C,U,y,n,R,D,y,L,y,,,,,5,19,119,17,1,0,1,0,,,,,1,2,38,26,,,,,,down,0.883887624284398,1180.039338624043,None,001,54,2019_Oct_23_1306,ACPT_experiment_5_30_19,3.1.0,59.953942153260705,
,,,C,U,y,n,R,G,y,L,y,,,,,5,19,119,17,1,0,1,0,,,,,1,3,39,28,,,,,,down,0.6505200505544053,1182.20764984601,None,001,54,2019_Oct_23_1306,ACPT_experiment_5_30_19,3.1.0,59.953942153260705,
,,,C,U,y,n,R,U,y,R,u,,,,,5,19,119,17,1,0,1,0,,,,,1,4,40,31,,,,,,down,0.7172046071500517,1184.1591345339712,None,001,54,2019_Oct_23_1306,ACPT_experiment_5_30_19,3.1.0,59.953942153260705,
,,,C,U,y,n,L,D,y,R,y,,,,,5,19,119,17,1,0,1,0,,,,,1,5,41,33,,,,,,down,0.6171506053251505,1186.177308004495,None,001,54,2019_Oct_23_1306,ACPT_experiment_5_30_19,3.1.0,59.953942153260705,
,,,C,U,y,n,R,U,g,L,u,,,,,5,19,119,17,1,0,1,0,,,,,1,6,42,10,,,,,,up,0.9674036049327697,1188.07877293606,None,001,54,2019_Oct_23_1306,ACPT_experiment_5_30_19,3.1.0,59.953942153260705,
,,,C,U,y,n,L,G,d,R,i,,,,,5,19,119,17,1,0,1,0,,,,,1,7,43,17,,,,,,up,0.5670873818344262,1190.3304884523932,None,001,54,2019_Oct_23_1306,ACPT_experiment_5_30_19,3.1.0,59.953942153260705,
,,,C,U,y,n,L,D,d,R,c ,,,,,5,19,119,17,1,0,1,0,,,,,1,8,44,13,,,,,,up,0.567102474575222,1192.1818874437758,None,001,54,2019_Oct_23_1306,ACPT_experiment_5_30_19,3.1.0,59.953942153260705,
,,,C,U,y,n,R,D,g,R,i,,,,,5,19,119,17,1,0,1,0,,,,,1,9,45,3,,,,,,up,0.6170377116268355,1194.033293377819,None,001,54,2019_Oct_23_1306,ACPT_experiment_5_30_19,3.1.0,59.953942153260705,
,,,C,U,y,n,R,G,d,L,i,,,,,5,19,119,17,1,0,1,0,,,,,1,10,46,4,,,,,,up,0.884018931126775,1195.9347404999498,None,001,54,2019_Oct_23_1306,ACPT_experiment_5_30_19,3.1.0,59.953942153260705,
,,,C,U,y,n,R,U,d,L,u,,,,,5,19,119,17,1,0,1,0,,,,,1,11,47,8,,,,,,up,1.4844585524679133,1198.1030553441742,None,001,54,2019_Oct_23_1306,ACPT_experiment_5_30_19,3.1.0,59.953942153260705,
,,,C,U,y,n,L,G,d,L,i,,,,,5,19,119,17,1,0,1,0,,,,,1,12,48,16,,,,,,up,0.7172046071500517,1200.8718155449806,None,001,54,2019_Oct_23_1306,ACPT_experiment_5_30_19,3.1.0,59.953942153260705,
,,,C,U,y,n,R,G,g,R,c ,,,,,5,19,119,17,1,0,1,0,,,,,1,13,49,7,,,,,,up,0.7339355135500227,1202.8733402136113,None,001,54,2019_Oct_23_1306,ACPT_experiment_5_30_19,3.1.0,59.953942153260705,
,,,C,U,y,n,L,U,d,L,u,,,,,5,19,119,17,1,0,1,0,,,,,1,14,50,20,,,,,,up,0.6504874502352322,1204.8915366251003,None,001,54,2019_Oct_23_1306,ACPT_experiment_5_30_19,3.1.0,59.953942153260705,
,,,C,U,y,n,L,U,g,L,u,,,,,5,19,119,17,1,0,1,0,,,,,1,15,51,22,,,,,,up,0.5170543438271125,1206.8263371941575,None,001,54,2019_Oct_23_1306,ACPT_experiment_5_30_19,3.1.0,59.953942153260705,
,,,C,U,y,n,R,U,g,R,u,,,,,5,19,119,17,1,0,1,0,,,,,1,16,52,11,,,,,,up,0.7339140818585292,1208.6276829232593,None,001,54,2019_Oct_23_1306,ACPT_experiment_5_30_19,3.1.0,59.953942153260705,
,,,C,U,y,n,R,G,y,R,y,,,,,5,19,119,17,1,0,1,0,,,,,1,17,53,29,,,,,,down,0.6671748895441851,1210.645904690553,None,001,54,2019_Oct_23_1306,ACPT_experiment_5_30_19,3.1.0,59.953942153260705,
,,,C,U,y,n,L,G,g,L,c ,,,,,5,19,119,17,1,0,1,0,,,,,1,18,54,18,,,,,,up,0.6335530936939904,1212.6143219239257,None,001,54,2019_Oct_23_1306,ACPT_experiment_5_30_19,3.1.0,59.953942153260705,
,,,C,U,y,n,R,G,g,L,c ,,,,,5,19,119,17,1,0,1,0,,,,,1,19,55,6,,,,,,up,0.600481277304425,1214.532213794102,None,001,54,2019_Oct_23_1306,ACPT_experiment_5_30_19,3.1.0,59.953942153260705,
,,,C,U,y,n,L,D,g,L,i,,,,,5,19,119,17,1,0,1,0,,,,,1,20,56,14,,,,,,up,0.46703579484892543,1216.4169309153967,None,001,54,2019_Oct_23_1306,ACPT_experiment_5_30_19,3.1.0,59.953942153260705,
,,,C,U,y,n,L,U,y,L,u,,,,,5,19,119,17,1,0,1,0,,,,,1,21,57,24,,,,,,down,0.6004522992425336,1218.1849597220044,None,001,54,2019_Oct_23_1306,ACPT_experiment_5_30_19,3.1.0,59.953942153260705,
,,,C,U,y,n,L,G,y,R,y,,,,,5,19,119,17,1,0,1,0,,,,,1,22,58,35,,,,,,down,0.6838418027255102,1220.0864080515548,None,001,54,2019_Oct_23_1306,ACPT_experiment_5_30_19,3.1.0,59.953942153260705,
,,,C,U,y,n,L,D,g,R,i,,,,,5,19,119,17,1,0,1,0,,,,,1,23,59,15,,,,,,up,0.5837654636452498,1222.0545687083431,None,001,54,2019_Oct_23_1306,ACPT_experiment_5_30_19,3.1.0,59.953942153260705,
,,,C,U,y,n,R,D,d,R,c ,,,,,5,19,119,17,1,0,1,0,,,,,1,24,60,1,,,,,,up,0.5337315200722514,1223.9226512149216,None,001,54,2019_Oct_23_1306,ACPT_experiment_5_30_19,3.1.0,59.953942153260705,
,,,C,U,y,n,L,U,g,R,u,,,,,5,19,119,17,1,0,1,0,,,,,1,25,61,23,,,,,,up,0.4836764466617751,1225.7573929524751,None,001,54,2019_Oct_23_1306,ACPT_experiment_5_30_19,3.1.0,59.953942153260705,
,,,C,U,y,n,L,U,d,R,u,,,,,5,19,119,17,1,0,1,0,,,,,1,26,62,21,,,,,,up,0.6171672073396621,1227.5086860230058,None,001,54,2019_Oct_23_1306,ACPT_experiment_5_30_19,3.1.0,59.953942153260705,
,,,C,U,y,n,R,G,d,R,i,,,,,5,19,119,17,1,0,1,0,,,,,1,27,63,5,,,,,,up,0.46701707984902896,1229.4101467286036,None,001,54,2019_Oct_23_1306,ACPT_experiment_5_30_19,3.1.0,59.953942153260705,
,,,C,U,y,n,L,D,d,L,c ,,,,,5,19,119,17,1,0,1,0,,,,,1,28,64,12,,,,,,up,0.7005407125161582,1231.1448042788525,None,001,54,2019_Oct_23_1306,ACPT_experiment_5_30_19,3.1.0,59.953942153260705,
,,,C,U,y,n,R,D,g,L,i,,,,,5,19,119,17,1,0,1,0,,,,,1,29,65,2,,,,,,up,0.5170588716500788,1233.1296396970465,None,001,54,2019_Oct_23_1306,ACPT_experiment_5_30_19,3.1.0,59.953942153260705,
,,,C,U,y,n,L,G,y,L,y,,,,,5,19,119,17,1,0,1,0,,,,,1,30,66,34,,,,,,down,0.6338697393875918,1234.9476716580375,None,001,54,2019_Oct_23_1306,ACPT_experiment_5_30_19,3.1.0,59.953942153260705,
,,,C,U,y,n,R,U,y,L,u,,,,,5,19,119,17,1,0,1,0,,,,,1,31,67,30,,,,,,down,0.8006230886931007,1236.882470717821,None,001,54,2019_Oct_23_1306,ACPT_experiment_5_30_19,3.1.0,59.953942153260705,
,,,C,U,y,n,L,D,y,L,y,,,,,5,19,119,17,1,0,1,0,,,,,1,32,68,32,,,,,,down,0.6669297834396275,1238.9843310188116,None,001,54,2019_Oct_23_1306,ACPT_experiment_5_30_19,3.1.0,59.953942153260705,
,,,C,U,y,n,R,D,y,R,y,,,,,5,19,119,17,1,0,1,0,,,,,1,33,69,27,,,,,,down,0.7005545978372538,1240.9355443393015,None,001,54,2019_Oct_23_1306,ACPT_experiment_5_30_19,3.1.0,59.953942153260705,
,,,C,U,y,n,L,G,g,R,c ,,,,,5,19,119,17,1,0,1,0,,,,,1,34,70,19,,,,,,up,0.7172242277119949,1242.9203888131415,None,001,54,2019_Oct_23_1306,ACPT_experiment_5_30_19,3.1.0,59.953942153260705,
,,,C,U,y,n,R,U,d,R,u,,,,,5,19,119,17,1,0,1,0,,,,,1,35,71,9,,,,,,up,0.5837727081598132,1244.921928574513,None,001,54,2019_Oct_23_1306,ACPT_experiment_5_30_19,3.1.0,59.953942153260705,
,,,C,U,y,n,,,,,,,,,,5,19,119,17,2,0,2,0,0,0,0,0,,,,,,,,,,,,,,001,54,2019_Oct_23_1306,ACPT_experiment_5_30_19,3.1.0,59.953942153260705,
,,,C,U,y,n,R,U,y,L,u,,,,,5,19,119,17,2,0,2,0,,,,,0,0,0,30,,,,,,down,1.080827058023715,1261.5879035911967,None,001,54,2019_Oct_23_1306,ACPT_experiment_5_30_19,3.1.0,59.953942153260705,
,,,C,U,y,n,R,D,d,R,c ,,,,,5,19,119,17,2,0,2,0,,,,,0,1,1,1,,,,,,up,0.7505649967351928,1263.9697224535612,None,001,54,2019_Oct_23_1306,ACPT_experiment_5_30_19,3.1.0,59.953942153260705,
,,,C,U,y,n,R,G,d,L,i,,,,,5,19,119,17,2,0,2,0,,,,,0,2,2,4,,,,,,up,0.7338869149261882,1266.0046011728264,None,001,54,2019_Oct_23_1306,ACPT_experiment_5_30_19,3.1.0,59.953942153260705,
,,,C,U,y,n,R,G,g,L,c ,,,,,5,19,119,17,2,0,2,0,,,,,0,3,3,6,,,,,,up,0.7002940971397038,1268.0230617072739,None,001,54,2019_Oct_23_1306,ACPT_experiment_5_30_19,3.1.0,59.953942153260705,
,,,C,U,y,n,R,D,d,L,c,,,,,5,19,119,17,2,0,2,0,,,,,0,4,4,0,,,,,,up,0.6504850353976508,1270.007639039608,None,001,54,2019_Oct_23_1306,ACPT_experiment_5_30_19,3.1.0,59.953942153260705,
,,,C,U,y,n,R,U,g,L,u,,,,,5,19,119,17,2,0,2,0,,,,,0,5,5,10,,,,,,up,0.4503383943301742,1271.9424380993896,None,001,54,2019_Oct_23_1306,ACPT_experiment_5_30_19,3.1.0,59.953942153260705,
,,,C,U,y,n,L,D,d,L,c ,,,,,5,19,119,17,2,0,2,0,,,,,0,6,6,12,,,,,,up,0.3836212374189927,1273.6771019885891,None,001,54,2019_Oct_23_1306,ACPT_experiment_5_30_19,3.1.0,59.953942153260705,
,,,C,U,y,n,L,G,y,R,y,,,,,5,19,119,17,2,0,2,0,,,,,0,7,7,35,,,,,,down,0.8337217701609916,1275.3619465529846,None,001,54,2019_Oct_23_1306,ACPT_experiment_5_30_19,3.1.0,59.953942153260705,
,,,C,U,y,n,R,U,y,R,u,,,,,5,19,119,17,2,0,2,0,,,,,0,8,8,31,,,,,,down,0.6169302513153525,1277.4968270531936,None,001,54,2019_Oct_23_1306,ACPT_experiment_5_30_19,3.1.0,59.953942153260705,
,,,C,U,y,n,L,U,d,R,u,,,,,5,19,119,17,2,0,2,0,,,,,0,9,9,21,,,,,,up,0.6505194468445552,1279.4147826147328,None,001,54,2019_Oct_23_1306,ACPT_experiment_5_30_19,3.1.0,59.953942153260705,
,,,C,U,y,n,L,U,y,R,u,,,,,5,19,119,17,2,0,2,0,,,,,0,10,10,25,,,,,,down,0.7671525221030606,1281.3495614502444,None,001,54,2019_Oct_23_1306,ACPT_experiment_5_30_19,3.1.0,59.953942153260705,
,,,C,U,y,n,L,U,g,R,u,,,,,5,19,119,17,2,0,2,0,,,,,0,11,11,23,,,,,,up,0.6505112967643072,1283.4178235000618,None,001,54,2019_Oct_23_1306,ACPT_experiment_5_30_19,3.1.0,59.953942153260705,
,,,C,U,y,n,L,D,y,L,y,,,,,5,19,119,17,2,0,2,0,,,,,0,12,12,32,,,,,,down,0.733904724358581,1285.3693048676214,None,001,54,2019_Oct_23_1306,ACPT_experiment_5_30_19,3.1.0,59.953942153260705,
,,,C,U,y,n,L,G,d,R,i,,,,,5,19,119,17,2,0,2,0,,,,,0,13,13,17,,,,,,up,0.7339294764551596,1287.4041781534997,None,001,54,2019_Oct_23_1306,ACPT_experiment_5_30_19,3.1.0,59.953942153260705,
,,,C,U,y,n,L,U,y,L,u,,,,,5,19,119,17,2,0,2,0,,,,,0,14,14,24,,,,,,down,0.7835465585376369,1289.4394100428908,None,001,54,2019_Oct_23_1306,ACPT_experiment_5_30_19,3.1.0,59.953942153260705,
,,,C,U,y,n,R,G,y,L,y,,,,,5,19,119,17,2,0,2,0,,,,,0,15,15,28,,,,,,down,0.7172142665021966,1291.507290548232,None,001,54,2019_Oct_23_1306,ACPT_experiment_5_30_19,3.1.0,59.953942153260705,
,,,C,U,y,n,R,D,g,R,i,,,,,5,19,119,17,2,0,2,0,,,,,0,16,16,3,,,,,,up,0.7672684343488072,1293.5088128020252,None,001,54,2019_Oct_23_1306,ACPT_experiment_5_30_19,3.1.0,59.953942153260705,
,,,C,U,y,n,L,G,g,L,c ,,,,,5,19,119,17,2,0,2,0,,,,,0,17,17,18,,,,,,up,1.4512137732726842,1295.5603475676999,None,001,54,2019_Oct_23_1306,ACPT_experiment_5_30_19,3.1.0,59.953942153260705,
,,,C,U,y,n,L,G,y,L,y,,,,,5,19,119,17,2,0,2,0,,,,,0,18,18,34,,,,,,down,0.9006976166438108,1298.2790865028346,None,001,54,2019_Oct_23_1306,ACPT_experiment_5_30_19,3.1.0,59.953942153260705,
,,,C,U,y,n,L,G,g,R,c ,,,,,5,19,119,17,2,0,2,0,,,,,0,19,19,19,,,,,,up,0.7172308685167081,1300.4473916877032,None,001,54,2019_Oct_23_1306,ACPT_experiment_5_30_19,3.1.0,59.953942153260705,
,,,C,U,y,n,R,G,y,R,y,,,,,5,19,119,17,2,0,2,0,,,,,0,20,20,29,,,,,,down,0.7839181418057706,1302.4489426177042,None,001,54,2019_Oct_23_1306,ACPT_experiment_5_30_19,3.1.0,59.953942153260705,
,,,C,U,y,n,L,D,g,L,i,,,,,5,19,119,17,2,0,2,0,,,,,0,21,21,14,,,,,,up,0.6839036829605902,1304.5171494280912,None,001,54,2019_Oct_23_1306,ACPT_experiment_5_30_19,3.1.0,59.953942153260705,
,,,C,U,y,n,R,U,d,R,u,,,,,5,19,119,17,2,0,2,0,,,,,0,22,22,9,,,,,,up,0.6171303810533573,1306.4853303091513,None,001,54,2019_Oct_23_1306,ACPT_experiment_5_30_19,3.1.0,59.953942153260705,
,,,C,U,y,n,L,U,d,L,u,,,,,5,19,119,17,2,0,2,0,,,,,0,23,23,20,,,,,,up,0.6839202849751018,1308.3867511699136,None,001,54,2019_Oct_23_1306,ACPT_experiment_5_30_19,3.1.0,59.953942153260705,
,,,C,U,y,n,R,U,d,L,u,,,,,5,19,119,17,2,0,2,0,,,,,0,24,24,8,,,,,,up,0.5470553912637115,1310.3749637396922,None,001,54,2019_Oct_23_1306,ACPT_experiment_5_30_19,3.1.0,59.953942153260705,
,,,C,U,y,n,R,D,g,L,i,,,,,5,19,119,17,2,0,2,0,,,,,0,25,25,2,,,,,,up,0.5670955319146742,1312.206337985017,None,001,54,2019_Oct_23_1306,ACPT_experiment_5_30_19,3.1.0,59.953942153260705,
,,,C,U,y,n,R,U,g,R,u,,,,,5,19,119,17,2,0,2,0,,,,,0,26,26,11,,,,,,up,0.7670553248535725,1314.057902090979,None,001,54,2019_Oct_23_1306,ACPT_experiment_5_30_19,3.1.0,59.953942153260705,
,,,C,U,y,n,L,D,d,R,c ,,,,,5,19,119,17,2,0,2,0,,,,,0,27,27,13,,,,,,up,0.7005343735654606,1316.1093031349737,None,001,54,2019_Oct_23_1306,ACPT_experiment_5_30_19,3.1.0,59.953942153260705,
,,,C,U,y,n,R,G,g,R,c ,,,,,5,19,119,17,2,0,2,0,,,,,0,28,28,7,,,,,,up,0.6338138962473749,1318.0941445902645,None,001,54,2019_Oct_23_1306,ACPT_experiment_5_30_19,3.1.0,59.953942153260705,
,,,C,U,y,n,L,D,y,R,y,,,,,5,19,119,17,2,0,2,0,,,,,0,29,29,33,,,,,,down,0.6504940910417645,1320.012266171947,None,001,54,2019_Oct_23_1306,ACPT_experiment_5_30_19,3.1.0,59.953942153260705,
,,,C,U,y,n,L,U,g,L,u,,,,,5,19,119,17,2,0,2,0,,,,,0,30,30,22,,,,,,up,0.7672476063671638,1321.9470739855187,None,001,54,2019_Oct_23_1306,ACPT_experiment_5_30_19,3.1.0,59.953942153260705,
,,,C,U,y,n,L,G,d,L,i,,,,,5,19,119,17,2,0,2,0,,,,,0,31,31,16,,,,,,up,0.5004097679011466,1323.9986259569177,None,001,54,2019_Oct_23_1306,ACPT_experiment_5_30_19,3.1.0,59.953942153260705,
,,,C,U,y,n,R,G,d,R,i,,,,,5,19,119,17,2,0,2,0,,,,,0,32,32,5,,,,,,up,0.76727266031412,1325.7833195637231,None,001,54,2019_Oct_23_1306,ACPT_experiment_5_30_19,3.1.0,59.953942153260705,
,,,C,U,y,n,R,D,y,R,y,,,,,5,19,119,17,2,0,2,0,,,,,0,33,33,27,,,,,,down,0.6838523676433397,1327.8348754592353,None,001,54,2019_Oct_23_1306,ACPT_experiment_5_30_19,3.1.0,59.953942153260705,
,,,C,U,y,n,R,D,y,L,y,,,,,5,19,119,17,2,0,2,0,,,,,0,34,34,26,,,,,,down,0.8339535946524848,1329.819716914526,None,001,54,2019_Oct_23_1306,ACPT_experiment_5_30_19,3.1.0,59.953942153260705,
,,,C,U,y,n,L,D,g,R,i,,,,,5,19,119,17,2,0,2,0,,,,,0,35,35,15,,,,,,up,0.6172321061221737,1331.9546768025484,None,001,54,2019_Oct_23_1306,ACPT_experiment_5_30_19,3.1.0,59.953942153260705,
,,,C,U,y,n,L,U,d,R,u,,,,,5,19,119,17,2,0,2,0,,,,,1,0,36,21,,,,,,up,0.817280342520462,1333.8561139634712,None,001,54,2019_Oct_23_1306,ACPT_experiment_5_30_19,3.1.0,59.953942153260705,
,,,C,U,y,n,R,G,y,L,y,,,,,5,19,119,17,2,0,2,0,,,,,1,1,37,28,,,,,,down,0.8172782295368961,1335.9743864121883,None,001,54,2019_Oct_23_1306,ACPT_experiment_5_30_19,3.1.0,59.953942153260705,
,,,C,U,y,n,R,U,g,R,u,,,,,5,19,119,17,2,0,2,0,,,,,1,2,38,11,,,,,,up,0.5504023573648738,1338.092667614692,None,001,54,2019_Oct_23_1306,ACPT_experiment_5_30_19,3.1.0,59.953942153260705,
,,,C,U,y,n,R,D,d,R,c ,,,,,5,19,119,17,2,0,2,0,,,,,1,3,39,1,,,,,,up,0.6505064670873253,1339.9273939576524,None,001,54,2019_Oct_23_1306,ACPT_experiment_5_30_19,3.1.0,59.953942153260705,
,,,C,U,y,n,L,G,g,R,c ,,,,,5,19,119,17,2,0,2,0,,,,,1,4,40,19,,,,,,up,0.6004695049687143,1341.8621673597754,None,001,54,2019_Oct_23_1306,ACPT_experiment_5_30_19,3.1.0,59.953942153260705,
,,,C,U,y,n,R,D,d,L,c,,,,,5,19,119,17,2,0,2,0,,,,,1,5,41,0,,,,,,up,0.8339810634406604,1343.7469539076774,None,001,54,2019_Oct_23_1306,ACPT_experiment_5_30_19,3.1.0,59.953942153260705,
,,,C,U,y,n,L,U,y,L,u,,,,,5,19,119,17,2,0,2,0,,,,,1,6,42,24,,,,,,down,0.8673136823836103,1345.8652351101828,None,001,54,2019_Oct_23_1306,ACPT_experiment_5_30_19,3.1.0,59.953942153260705,
,,,C,U,y,n,R,G,y,R,y,,,,,5,19,119,17,2,0,2,0,,,,,1,7,43,29,,,,,,down,0.6171300791975227,1348.0168607039686,None,001,54,2019_Oct_23_1306,ACPT_experiment_5_30_19,3.1.0,59.953942153260705,
,,,C,U,y,n,R,G,g,R,c ,,,,,5,19,119,17,2,0,2,0,,,,,1,8,44,7,,,,,,up,0.600451393678668,1349.9183054112618,None,001,54,2019_Oct_23_1306,ACPT_experiment_5_30_19,3.1.0,59.953942153260705,
,,,C,U,y,n,R,G,g,L,c ,,,,,5,19,119,17,2,0,2,0,,,,,1,9,45,6,,,,,,up,0.7006862065336463,1351.7862378959999,None,001,54,2019_Oct_23_1306,ACPT_experiment_5_30_19,3.1.0,59.953942153260705,
,,,C,U,y,n,R,D,g,L,i,,,,,5,19,119,17,2,0,2,0,,,,,1,10,46,2,,,,,,up,0.7169386730638507,1353.7881767094277,None,001,54,2019_Oct_23_1306,ACPT_experiment_5_30_19,3.1.0,59.953942153260705,
,,,C,U,y,n,R,G,d,R,i,,,,,5,19,119,17,2,0,2,0,,,,,1,11,47,5,,,,,,up,0.6004553177899652,1355.7894291050216,None,001,54,2019_Oct_23_1306,ACPT_experiment_5_30_19,3.1.0,59.953942153260705,
,,,C,U,y,n,R,D,y,L,y,,,,,5,19,119,17,2,0,2,0,,,,,1,12,48,26,,,,,,down,0.783966136719755,1357.6908750197344,None,001,54,2019_Oct_23_1306,ACPT_experiment_5_30_19,3.1.0,59.953942153260705,
,,,C,U,y,n,L,U,y,R,u,,,,,5,19,119,17,2,0,2,0,,,,,1,13,49,25,,,,,,down,0.7005274309049128,1359.7757882862825,None,001,54,2019_Oct_23_1306,ACPT_experiment_5_30_19,3.1.0,59.953942153260705,
,,,C,U,y,n,L,G,d,R,i,,,,,5,19,119,17,2,0,2,0,,,,,1,14,50,17,,,,,,up,0.6004562233556499,1361.7606246100422,None,001,54,2019_Oct_23_1306,ACPT_experiment_5_30_19,3.1.0,59.953942153260705,
,,,C,U,y,n,L,G,y,L,y,,,,,5,19,119,17,2,0,2,0,,,,,1,15,51,34,,,,,,down,0.7004561931698845,1363.6454636806793,None,001,54,2019_Oct_23_1306,ACPT_experiment_5_30_19,3.1.0,59.953942153260705,
,,,C,U,y,n,R,U,d,L,u,,,,,5,19,119,17,2,0,2,0,,,,,1,16,52,8,,,,,,up,0.7505643930253427,1365.6469092633506,None,001,54,2019_Oct_23_1306,ACPT_experiment_5_30_19,3.1.0,59.953942153260705,
,,,C,U,y,n,L,G,g,L,c ,,,,,5,19,119,17,2,0,2,0,,,,,1,17,53,18,,,,,,up,0.7672470026573137,1367.6817888881815,None,001,54,2019_Oct_23_1306,ACPT_experiment_5_30_19,3.1.0,59.953942153260705,
,,,C,U,y,n,L,U,d,L,u,,,,,5,19,119,17,2,0,2,0,,,,,1,18,54,20,,,,,,up,0.6502948668676254,1369.7335080871435,None,001,54,2019_Oct_23_1306,ACPT_experiment_5_30_19,3.1.0,59.953942153260705,
,,,C,U,y,n,L,G,y,R,y,,,,,5,19,119,17,2,0,2,0,,,,,1,19,55,35,,,,,,down,0.7338998946815991,1371.6681378063786,None,001,54,2019_Oct_23_1306,ACPT_experiment_5_30_19,3.1.0,59.953942153260705,
,,,C,U,y,n,L,D,d,L,c ,,,,,5,19,119,17,2,0,2,0,,,,,1,20,56,12,,,,,,up,0.667177002525932,1373.6863468957708,None,001,54,2019_Oct_23_1306,ACPT_experiment_5_30_19,3.1.0,59.953942153260705,
,,,C,U,y,n,L,U,g,R,u,,,,,5,19,119,17,2,0,2,0,,,,,1,21,57,23,,,,,,up,0.5504313354267651,1375.6378146798634,None,001,54,2019_Oct_23_1306,ACPT_experiment_5_30_19,3.1.0,59.953942153260705,
,,,C,U,y,n,R,D,y,R,y,,,,,5,19,119,17,2,0,2,0,,,,,1,22,58,27,,,,,,down,0.7672473045131483,1377.4725555118548,None,001,54,2019_Oct_23_1306,ACPT_experiment_5_30_19,3.1.0,59.953942153260705,
,,,C,U,y,n,L,D,y,L,y,,,,,5,19,119,17,2,0,2,0,,,,,1,23,59,32,,,,,,down,0.9507345787660597,1379.5407958281248,None,001,54,2019_Oct_23_1306,ACPT_experiment_5_30_19,3.1.0,59.953942153260705,
,,,C,U,y,n,L,D,d,R,c ,,,,,5,19,119,17,2,0,2,0,,,,,1,24,60,13,,,,,,up,0.6171484923415846,1381.792506212927,None,001,54,2019_Oct_23_1306,ACPT_experiment_5_30_19,3.1.0,59.953942153260705,
,,,C,U,y,n,R,D,g,R,i,,,,,5,19,119,17,2,0,2,0,,,,,1,25,61,3,,,,,,up,0.5837772359809605,1383.6939451849794,None,001,54,2019_Oct_23_1306,ACPT_experiment_5_30_19,3.1.0,59.953942153260705,
,,,C,U,y,n,L,D,g,R,i,,,,,5,19,119,17,2,0,2,0,,,,,1,26,62,15,,,,,,up,0.6838445194189262,1385.562042180587,None,001,54,2019_Oct_23_1306,ACPT_experiment_5_30_19,3.1.0,59.953942153260705,
,,,C,U,y,n,R,U,y,L,u,,,,,5,19,119,17,2,0,2,0,,,,,1,27,63,30,,,,,,down,0.850645561782585,1387.5468742783796,None,001,54,2019_Oct_23_1306,ACPT_experiment_5_30_19,3.1.0,59.953942153260705,
,,,C,U,y,n,L,U,g,L,u,,,,,5,19,119,17,2,0,2,0,,,,,1,28,64,22,,,,,,up,0.8506854066181404,1389.69851647418,None,001,54,2019_Oct_23_1306,ACPT_experiment_5_30_19,3.1.0,59.953942153260705,
,,,C,U,y,n,L,G,d,L,i,,,,,5,19,119,17,2,0,2,0,,,,,1,29,65,16,,,,,,up,0.8005681511167495,1391.8334775696221,None,001,54,2019_Oct_23_1306,ACPT_experiment_5_30_19,3.1.0,59.953942153260705,
,,,C,U,y,n,R,U,y,R,u,,,,,5,19,119,17,2,0,2,0,,,,,1,30,66,31,,,,,,down,0.8005965254706098,1393.9350583530631,None,001,54,2019_Oct_23_1306,ACPT_experiment_5_30_19,3.1.0,59.953942153260705,
,,,C,U,y,n,L,D,g,L,i,,,,,5,19,119,17,2,0,2,0,,,,,1,31,67,14,,,,,,up,0.7339089503275318,1396.0366506069859,None,001,54,2019_Oct_23_1306,ACPT_experiment_5_30_19,3.1.0,59.953942153260705,
,,,C,U,y,n,R,U,d,R,u,,,,,5,19,119,17,2,0,2,0,,,,,1,32,68,9,,,,,,up,1.6679256024490314,1398.054852150006,None,001,54,2019_Oct_23_1306,ACPT_experiment_5_30_19,3.1.0,59.953942153260705,
,,,C,U,y,n,R,G,d,L,i,,,,,5,19,119,17,2,0,2,0,,,,,1,33,69,4,,,,,,up,0.783883126649016,1401.0071343383697,None,001,54,2019_Oct_23_1306,ACPT_experiment_5_30_19,3.1.0,59.953942153260705,
,,,C,U,y,n,R,U,g,L,u,,,,,5,19,119,17,2,0,2,0,,,,,1,34,70,10,,,,,,up,0.6338347242290183,1403.0753037187606,None,001,54,2019_Oct_23_1306,ACPT_experiment_5_30_19,3.1.0,59.953942153260705,
,,,C,U,y,n,L,D,y,R,y,,,,,5,19,119,17,2,0,2,0,,,,,1,35,71,33,,,,,,down,0.7839486291413778,1404.9934358653627,None,001,54,2019_Oct_23_1306,ACPT_experiment_5_30_19,3.1.0,59.953942153260705,
,,,C,U,y,n,,,,,,,,,,5,19,119,17,3,0,3,0,0,0,0,0,,,,,,,,,,,,,,001,54,2019_Oct_23_1306,ACPT_experiment_5_30_19,3.1.0,59.953942153260705,
,,,C,U,y,n,R,D,y,R,y,,,,,5,19,119,17,3,0,3,0,,,,,0,0,0,27,,,,,,down,0.8672702152907732,1412.2490021434714,None,001,54,2019_Oct_23_1306,ACPT_experiment_5_30_19,3.1.0,59.953942153260705,
,,,C,U,y,n,R,G,g,L,c ,,,,,5,19,119,17,3,0,3,0,,,,,0,1,1,6,,,,,,up,0.750571033830056,1414.4172623519753,None,001,54,2019_Oct_23_1306,ACPT_experiment_5_30_19,3.1.0,59.953942153260705,
,,,C,U,y,n,R,G,d,L,i,,,,,5,19,119,17,3,0,3,0,,,,,0,2,2,4,,,,,,up,0.5170558531008282,1416.4521504287404,None,001,54,2019_Oct_23_1306,ACPT_experiment_5_30_19,3.1.0,59.953942153260705,
,,,C,U,y,n,L,D,d,L,c ,,,,,5,19,119,17,3,0,3,0,,,,,0,3,3,12,,,,,,up,0.4836930486762867,1418.2535148728402,None,001,54,2019_Oct_23_1306,ACPT_experiment_5_30_19,3.1.0,59.953942153260705,
,,,C,U,y,n,R,D,g,L,i,,,,,5,19,119,17,3,0,3,0,,,,,0,4,4,2,,,,,,up,0.500374752742573,1420.0215267755793,None,001,54,2019_Oct_23_1306,ACPT_experiment_5_30_19,3.1.0,59.953942153260705,
,,,C,U,y,n,R,D,d,L,c,,,,,5,19,119,17,3,0,3,0,,,,,0,5,5,0,,,,,,up,0.4336907998585957,1421.789513020658,None,001,54,2019_Oct_23_1306,ACPT_experiment_5_30_19,3.1.0,59.953942153260705,
,,,C,U,y,n,L,D,y,L,y,,,,,5,19,119,17,3,0,3,0,,,,,0,6,6,32,,,,,,down,1.0508432163114776,1423.5075027521616,None,001,54,2019_Oct_23_1306,ACPT_experiment_5_30_19,3.1.0,59.953942153260705,
,,,C,U,y,n,L,G,d,L,i,,,,,5,19,119,17,3,0,3,0,,,,,0,7,7,16,,,,,,up,0.5834968128656328,1425.8595629564988,None,001,54,2019_Oct_23_1306,ACPT_experiment_5_30_19,3.1.0,59.953942153260705,
,,,C,U,y,n,L,G,g,L,c ,,,,,5,19,119,17,3,0,3,0,,,,,0,8,8,18,,,,,,up,0.46700470380346815,1427.710710502828,None,001,54,2019_Oct_23_1306,ACPT_experiment_5_30_19,3.1.0,59.953942153260705,
,,,C,U,y,n,L,D,d,R,c ,,,,,5,19,119,17,3,0,3,0,,,,,0,9,9,13,,,,,,up,0.5170585697942442,1429.4620250050484,None,001,54,2019_Oct_23_1306,ACPT_experiment_5_30_19,3.1.0,59.953942153260705,
,,,C,U,y,n,L,U,y,R,u,,,,,5,19,119,17,3,0,3,0,,,,,0,10,10,25,,,,,,down,0.7005316568720446,1431.2633927695515,None,001,54,2019_Oct_23_1306,ACPT_experiment_5_30_19,3.1.0,59.953942153260705,
,,,C,U,y,n,L,G,g,R,c ,,,,,5,19,119,17,3,0,3,0,,,,,0,11,11,19,,,,,,up,0.6671477226118441,1433.248259278791,None,001,54,2019_Oct_23_1306,ACPT_experiment_5_30_19,3.1.0,59.953942153260705,
,,,C,U,y,n,R,U,d,L,u,,,,,5,19,119,17,3,0,3,0,,,,,0,12,12,8,,,,,,up,0.517051928987712,1435.1997183090953,None,001,54,2019_Oct_23_1306,ACPT_experiment_5_30_19,3.1.0,59.953942153260705,
,,,C,U,y,n,R,G,y,L,y,,,,,5,19,119,17,3,0,3,0,,,,,0,13,13,28,,,,,,down,0.7172290573889768,1437.0010848661786,None,001,54,2019_Oct_23_1306,ACPT_experiment_5_30_19,3.1.0,59.953942153260705,
,,,C,U,y,n,R,G,y,R,y,,,,,5,19,119,17,3,0,3,0,,,,,0,14,14,29,,,,,,down,0.8668977264605928,1439.0363864840292,None,001,54,2019_Oct_23_1306,ACPT_experiment_5_30_19,3.1.0,59.953942153260705,
,,,C,U,y,n,R,U,g,R,u,,,,,5,19,119,17,3,0,3,0,,,,,0,15,15,11,,,,,,up,0.5671000597376405,1441.2042911075696,None,001,54,2019_Oct_23_1306,ACPT_experiment_5_30_19,3.1.0,59.953942153260705,
,,,C,U,y,n,R,D,d,R,c ,,,,,5,19,119,17,3,0,3,0,,,,,0,16,16,1,,,,,,up,0.5670979467540747,1443.055678024759,None,001,54,2019_Oct_23_1306,ACPT_experiment_5_30_19,3.1.0,59.953942153260705,
,,,C,U,y,n,R,G,d,R,i,,,,,5,19,119,17,3,0,3,0,,,,,0,17,17,5,,,,,,up,0.45033658320426184,1444.907083656948,None,001,54,2019_Oct_23_1306,ACPT_experiment_5_30_19,3.1.0,59.953942153260705,
,,,C,U,y,n,R,D,g,R,i,,,,,5,19,119,17,3,0,3,0,,,,,0,18,18,3,,,,,,up,0.4503604297333368,1446.6417152476824,None,001,54,2019_Oct_23_1306,ACPT_experiment_5_30_19,3.1.0,59.953942153260705,
,,,C,U,y,n,L,U,g,L,u,,,,,5,19,119,17,3,0,3,0,,,,,0,19,19,22,,,,,,up,0.9507182786055637,1448.3763857776885,None,001,54,2019_Oct_23_1306,ACPT_experiment_5_30_19,3.1.0,59.953942153260705,
,,,C,U,y,n,L,G,y,L,y,,,,,5,19,119,17,3,0,3,0,,,,,0,20,20,34,,,,,,down,0.667171569140919,1450.6114165714062,None,001,54,2019_Oct_23_1306,ACPT_experiment_5_30_19,3.1.0,59.953942153260705,
,,,C,U,y,n,L,D,y,R,y,,,,,5,19,119,17,3,0,3,0,,,,,0,21,21,33,,,,,,down,0.5837696896105626,1452.5628994482395,None,001,54,2019_Oct_23_1306,ACPT_experiment_5_30_19,3.1.0,59.953942153260705,
,,,C,U,y,n,R,U,y,L,u,,,,,5,19,119,17,3,0,3,0,,,,,0,22,22,30,,,,,,down,0.4836966709353874,1454.430981954818,None,001,54,2019_Oct_23_1306,ACPT_experiment_5_30_19,3.1.0,59.953942153260705,
,,,C,U,y,n,L,U,d,L,u,,,,,5,19,119,17,3,0,3,0,,,,,0,23,23,20,,,,,,up,0.9340395930885279,1456.1989920464275,None,001,54,2019_Oct_23_1306,ACPT_experiment_5_30_19,3.1.0,59.953942153260705,
,,,C,U,y,n,L,G,y,R,y,,,,,5,19,119,17,3,0,3,0,,,,,0,24,24,35,,,,,,down,0.867317304642711,1458.434024047565,None,001,54,2019_Oct_23_1306,ACPT_experiment_5_30_19,3.1.0,59.953942153260705,
,,,C,U,y,n,L,D,g,L,i,,,,,5,19,119,17,3,0,3,0,,,,,0,25,25,14,,,,,,up,0.7839229714827525,1460.6023334584024,None,001,54,2019_Oct_23_1306,ACPT_experiment_5_30_19,3.1.0,59.953942153260705,
,,,C,U,y,n,L,U,d,R,u,,,,,5,19,119,17,3,0,3,0,,,,,0,26,26,21,,,,,,up,0.617155736856148,1462.6705695487071,None,001,54,2019_Oct_23_1306,ACPT_experiment_5_30_19,3.1.0,59.953942153260705,
,,,C,U,y,n,R,D,y,L,y,,,,,5,19,119,17,3,0,3,0,,,,,0,27,27,26,,,,,,down,0.8840032346761291,1464.5720133504346,None,001,54,2019_Oct_23_1306,ACPT_experiment_5_30_19,3.1.0,59.953942153260705,
,,,C,U,y,n,R,U,y,R,u,,,,,5,19,119,17,3,0,3,0,,,,,0,28,28,31,,,,,,down,0.7837463864198071,1466.757154185323,None,001,54,2019_Oct_23_1306,ACPT_experiment_5_30_19,3.1.0,59.953942153260705,
,,,C,U,y,n,L,D,g,R,i,,,,,5,19,119,17,3,0,3,0,,,,,0,29,29,15,,,,,,up,0.6504931854778988,1468.8419207504357,None,001,54,2019_Oct_23_1306,ACPT_experiment_5_30_19,3.1.0,59.953942153260705,
,,,C,U,y,n,R,U,g,L,u,,,,,5,19,119,17,3,0,3,0,,,,,0,30,30,10,,,,,,up,0.6004664864194638,1470.7767219232028,None,001,54,2019_Oct_23_1306,ACPT_experiment_5_30_19,3.1.0,59.953942153260705,
,,,C,U,y,n,R,G,g,R,c ,,,,,5,19,119,17,3,0,3,0,,,,,0,31,31,7,,,,,,up,0.5337629129699053,1472.661489152395,None,001,54,2019_Oct_23_1306,ACPT_experiment_5_30_19,3.1.0,59.953942153260705,
,,,C,U,y,n,L,G,d,R,i,,,,,5,19,119,17,3,0,3,0,,,,,0,32,32,17,,,,,,up,0.43365880324745376,1474.479535300561,None,001,54,2019_Oct_23_1306,ACPT_experiment_5_30_19,3.1.0,59.953942153260705,
,,,C,U,y,n,R,U,d,R,u,,,,,5,19,119,17,3,0,3,0,,,,,0,33,33,9,,,,,,up,0.4470122562106553,1476.2175087258693,None,001,54,2019_Oct_23_1306,ACPT_experiment_5_30_19,3.1.0,59.953942153260705,
,,,C,U,y,n,L,U,g,R,u,,,,,5,19,119,17,3,0,3,0,,,,,0,34,34,23,,,,,,up,0.4670158724311477,1477.9488374213033,None,001,54,2019_Oct_23_1306,ACPT_experiment_5_30_19,3.1.0,59.953942153260705,
,,,C,U,y,n,L,U,y,L,u,,,,,5,19,119,17,3,0,3,0,,,,,0,35,35,24,,,,,,down,0.8840071587892453,1479.7001682236842,None,001,54,2019_Oct_23_1306,ACPT_experiment_5_30_19,3.1.0,59.953942153260705,
,,,C,U,y,n,L,D,y,R,y,,,,,5,19,119,17,3,0,3,0,,,,,1,0,36,33,,,,,,down,0.7839253863203339,1481.868480351215,None,001,54,2019_Oct_23_1306,ACPT_experiment_5_30_19,3.1.0,59.953942153260705,
,,,C,U,y,n,R,D,g,R,i,,,,,5,19,119,17,3,0,3,0,,,,,1,1,37,3,,,,,,up,0.6671951138159784,1483.9366913875692,None,001,54,2019_Oct_23_1306,ACPT_experiment_5_30_19,3.1.0,59.953942153260705,
,,,C,U,y,n,L,D,d,R,c ,,,,,5,19,119,17,3,0,3,0,,,,,1,2,38,13,,,,,,up,0.6504841298319661,1485.8881990164973,None,001,54,2019_Oct_23_1306,ACPT_experiment_5_30_19,3.1.0,59.953942153260705,
,,,C,U,y,n,L,G,g,R,c ,,,,,5,19,119,17,3,0,3,0,,,,,1,3,39,19,,,,,,up,0.800611316355571,1487.822997774425,None,001,54,2019_Oct_23_1306,ACPT_experiment_5_30_19,3.1.0,59.953942153260705,
,,,C,U,y,n,L,G,d,L,i,,,,,5,19,119,17,3,0,3,0,,,,,1,4,40,16,,,,,,up,0.6004405269050039,1489.9079273411335,None,001,54,2019_Oct_23_1306,ACPT_experiment_5_30_19,3.1.0,59.953942153260705,
,,,C,U,y,n,L,G,y,R,y,,,,,5,19,119,17,3,0,3,0,,,,,1,5,41,35,,,,,,down,0.9173581908762571,1491.7926797794407,None,001,54,2019_Oct_23_1306,ACPT_experiment_5_30_19,3.1.0,59.953942153260705,
,,,C,U,y,n,R,G,g,R,c ,,,,,5,19,119,17,3,0,3,0,,,,,1,6,42,7,,,,,,up,0.9340468376030913,1493.9943489761536,None,001,54,2019_Oct_23_1306,ACPT_experiment_5_30_19,3.1.0,59.953942153260705,
,,,C,U,y,n,L,U,y,L,u,,,,,5,19,119,17,3,0,3,0,,,,,1,7,43,24,,,,,,down,0.8506612582332309,1496.2126811619364,None,001,54,2019_Oct_23_1306,ACPT_experiment_5_30_19,3.1.0,59.953942153260705,
,,,C,U,y,n,R,D,d,L,c,,,,,5,19,119,17,3,0,3,0,,,,,1,8,44,0,,,,,,up,0.7005247142114968,1498.3476579538292,None,001,54,2019_Oct_23_1306,ACPT_experiment_5_30_19,3.1.0,59.953942153260705,
,,,C,U,y,n,R,D,y,L,y,,,,,5,19,119,17,3,0,3,0,,,,,1,9,45,26,,,,,,down,0.8339822708603606,1500.3157959715063,None,001,54,2019_Oct_23_1306,ACPT_experiment_5_30_19,3.1.0,59.953942153260705,
,,,C,U,y,n,R,U,d,L,u,,,,,5,19,119,17,3,0,3,0,,,,,1,10,46,8,,,,,,up,0.7005271290508972,1502.4340958890098,None,001,54,2019_Oct_23_1306,ACPT_experiment_5_30_19,3.1.0,59.953942153260705,
,,,C,U,y,n,R,U,g,L,u,,,,,5,19,119,17,3,0,3,0,,,,,1,11,47,10,,,,,,up,0.7338875186360383,1504.4022532253948,None,001,54,2019_Oct_23_1306,ACPT_experiment_5_30_19,3.1.0,59.953942153260705,
,,,C,U,y,n,R,G,y,L,y,,,,,5,19,119,17,3,0,3,0,,,,,1,12,48,28,,,,,,down,0.7839139158386388,1506.4204662388984,None,001,54,2019_Oct_23_1306,ACPT_experiment_5_30_19,3.1.0,59.953942153260705,
,,,C,U,y,n,R,G,d,L,i,,,,,5,19,119,17,3,0,3,0,,,,,1,13,49,4,,,,,,up,0.5671199821554183,1508.4886896513017,None,001,54,2019_Oct_23_1306,ACPT_experiment_5_30_19,3.1.0,59.953942153260705,
,,,C,U,y,n,R,G,g,L,c ,,,,,5,19,119,17,3,0,3,0,,,,,1,14,50,6,,,,,,up,0.6671613060789241,1510.323422936921,None,001,54,2019_Oct_23_1306,ACPT_experiment_5_30_19,3.1.0,59.953942153260705,
,,,C,U,y,n,R,U,g,R,u,,,,,5,19,119,17,3,0,3,0,,,,,1,15,51,11,,,,,,up,0.5170597772121255,1512.2748946451266,None,001,54,2019_Oct_23_1306,ACPT_experiment_5_30_19,3.1.0,59.953942153260705,
,,,C,U,y,n,R,G,y,R,y,,,,,5,19,119,17,3,0,3,0,,,,,1,16,52,29,,,,,,down,0.6001341442752164,1514.0932843040646,None,001,54,2019_Oct_23_1306,ACPT_experiment_5_30_19,3.1.0,59.953942153260705,
,,,C,U,y,n,L,G,d,R,i,,,,,5,19,119,17,3,0,3,0,,,,,1,17,53,17,,,,,,up,0.5504156389761192,1515.9777050039374,None,001,54,2019_Oct_23_1306,ACPT_experiment_5_30_19,3.1.0,59.953942153260705,
,,,C,U,y,n,R,U,d,R,u,,,,,5,19,119,17,3,0,3,0,,,,,1,18,54,9,,,,,,up,0.5670904003818578,1517.812436478429,None,001,54,2019_Oct_23_1306,ACPT_experiment_5_30_19,3.1.0,59.953942153260705,
,,,C,U,y,n,L,U,g,L,u,,,,,5,19,119,17,3,0,3,0,,,,,1,19,55,22,,,,,,up,0.7505867302807019,1519.6638164529595,None,001,54,2019_Oct_23_1306,ACPT_experiment_5_30_19,3.1.0,59.953942153260705,
,,,C,U,y,n,L,D,d,L,c ,,,,,5,19,119,17,3,0,3,0,,,,,1,20,56,12,,,,,,up,1.017432115118936,1521.6987208298833,None,001,54,2019_Oct_23_1306,ACPT_experiment_5_30_19,3.1.0,59.953942153260705,
,,,C,U,y,n,L,D,g,R,i,,,,,5,19,119,17,3,0,3,0,,,,,1,21,57,15,,,,,,up,0.4336847627619136,1523.9837596076613,None,001,54,2019_Oct_23_1306,ACPT_experiment_5_30_19,3.1.0,59.953942153260705,
,,,C,U,y,n,L,D,y,L,y,,,,,5,19,119,17,3,0,3,0,,,,,1,22,58,32,,,,,,down,0.8506464673464507,1525.7017547725518,None,001,54,2019_Oct_23_1306,ACPT_experiment_5_30_19,3.1.0,59.953942153260705,
,,,C,U,y,n,L,U,g,R,u,,,,,5,19,119,17,3,0,3,0,,,,,1,23,59,23,,,,,,up,0.6671745876883506,1527.836710434609,None,001,54,2019_Oct_23_1306,ACPT_experiment_5_30_19,3.1.0,59.953942153260705,
,,,C,U,y,n,L,G,g,L,c ,,,,,5,19,119,17,3,0,3,0,,,,,1,24,60,18,,,,,,up,0.600473127225996,1529.7881987448272,None,001,54,2019_Oct_23_1306,ACPT_experiment_5_30_19,3.1.0,59.953942153260705,
,,,C,U,y,n,R,U,y,R,u,,,,,5,19,119,17,3,0,3,0,,,,,1,25,61,31,,,,,,down,0.7338881223458884,1531.6729590313607,None,001,54,2019_Oct_23_1306,ACPT_experiment_5_30_19,3.1.0,59.953942153260705,
,,,C,U,y,n,R,D,y,R,y,,,,,5,19,119,17,3,0,3,0,,,,,1,26,62,27,,,,,,down,0.733907441053816,1533.6911355204338,None,001,54,2019_Oct_23_1306,ACPT_experiment_5_30_19,3.1.0,59.953942153260705,
,,,C,U,y,n,R,G,d,R,i,,,,,5,19,119,17,3,0,3,0,,,,,1,27,63,5,,,,,,up,1.0341180451523542,1535.7093512506308,None,001,54,2019_Oct_23_1306,ACPT_experiment_5_30_19,3.1.0,59.953942153260705,
,,,C,U,y,n,R,U,y,L,u,,,,,5,19,119,17,3,0,3,0,,,,,1,28,64,30,,,,,,down,0.8006369740141963,1538.027755549525,None,001,54,2019_Oct_23_1306,ACPT_experiment_5_30_19,3.1.0,59.953942153260705,
,,,C,U,y,n,L,U,d,R,u,,,,,5,19,119,17,3,0,3,0,,,,,1,29,65,21,,,,,,up,0.8673194176244579,1540.1126986997006,None,001,54,2019_Oct_23_1306,ACPT_experiment_5_30_19,3.1.0,59.953942153260705,
,,,C,U,y,n,R,D,g,L,i,,,,,5,19,119,17,3,0,3,0,,,,,1,30,66,2,,,,,,up,0.717205814567933,1542.2643327454207,None,001,54,2019_Oct_23_1306,ACPT_experiment_5_30_19,3.1.0,59.953942153260705,
,,,C,U,y,n,L,G,y,L,y,,,,,5,19,119,17,3,0,3,0,,,,,1,31,67,34,,,,,,down,0.9340616284880525,1544.265825719298,None,001,54,2019_Oct_23_1306,ACPT_experiment_5_30_19,3.1.0,59.953942153260705,
,,,C,U,y,n,L,U,d,L,u,,,,,5,19,119,17,3,0,3,0,,,,,1,32,68,20,,,,,,up,0.7839105954371917,1546.484210125962,None,001,54,2019_Oct_23_1306,ACPT_experiment_5_30_19,3.1.0,59.953942153260705,
,,,C,U,y,n,R,D,d,R,c ,,,,,5,19,119,17,3,0,3,0,,,,,1,33,69,1,,,,,,up,0.6004441491641046,1548.5524438014272,None,001,54,2019_Oct_23_1306,ACPT_experiment_5_30_19,3.1.0,59.953942153260705,
,,,C,U,y,n,L,U,y,R,u,,,,,5,19,119,17,3,0,3,0,,,,,1,34,70,25,,,,,,down,0.8340061173894355,1550.4372022768312,None,001,54,2019_Oct_23_1306,ACPT_experiment_5_30_19,3.1.0,59.953942153260705,
,,,C,U,y,n,L,D,g,L,i,,,,,5,19,119,17,3,0,3,0,,,,,1,35,71,14,,,,,,up,0.8673311899638065,1552.5554762348202,None,001,54,2019_Oct_23_1306,ACPT_experiment_5_30_19,3.1.0,59.953942153260705,
,,,C,U,y,n,,,,,,,,,,5,19,119,17,4,0,4,0,0,0,0,0,,,,,,,,,,,,,,001,54,2019_Oct_23_1306,ACPT_experiment_5_30_19,3.1.0,59.953942153260705,
,,,C,U,y,n,L,D,d,R,c ,,,,,5,19,119,17,4,0,4,0,,,,,0,0,0,13,,,,,,up,0.7305529285804369,1562.2661822098253,None,001,54,2019_Oct_23_1306,ACPT_experiment_5_30_19,3.1.0,59.953942153260705,
,,,C,U,y,n,R,G,d,R,i,,,,,5,19,119,17,4,0,4,0,,,,,0,1,1,5,,,,,,up,0.633816612940791,1564.2810419182752,None,001,54,2019_Oct_23_1306,ACPT_experiment_5_30_19,3.1.0,59.953942153260705,
,,,C,U,y,n,R,U,d,L,u,,,,,5,19,119,17,4,0,4,0,,,,,0,2,2,8,,,,,,up,0.6838695733677014,1566.1991484072187,None,001,54,2019_Oct_23_1306,ACPT_experiment_5_30_19,3.1.0,59.953942153260705,
,,,C,U,y,n,L,G,g,R,c ,,,,,5,19,119,17,4,0,4,0,,,,,0,3,3,19,,,,,,up,0.6004532048063993,1568.1673295901328,None,001,54,2019_Oct_23_1306,ACPT_experiment_5_30_19,3.1.0,59.953942153260705,
,,,C,U,y,n,L,U,d,R,u,,,,,5,19,119,17,4,0,4,0,,,,,0,4,4,21,,,,,,up,0.5670768169184157,1570.0521191565822,None,001,54,2019_Oct_23_1306,ACPT_experiment_5_30_19,3.1.0,59.953942153260705,
,,,C,U,y,n,L,G,d,R,i,,,,,5,19,119,17,4,0,4,0,,,,,0,5,5,17,,,,,,up,0.5837690859025315,1571.9035003385306,None,001,54,2019_Oct_23_1306,ACPT_experiment_5_30_19,3.1.0,59.953942153260705,
,,,C,U,y,n,R,G,y,L,y,,,,,5,19,119,17,4,0,4,0,,,,,0,6,6,28,,,,,,down,0.8006143349030026,1573.7715801284157,None,001,54,2019_Oct_23_1306,ACPT_experiment_5_30_19,3.1.0,59.953942153260705,
,,,C,U,y,n,L,U,y,L,u,,,,,5,19,119,17,4,0,4,0,,,,,0,7,7,24,,,,,,down,1.0007667112095078,1575.873164534114,None,001,54,2019_Oct_23_1306,ACPT_experiment_5_30_19,3.1.0,59.953942153260705,
,,,C,U,y,n,R,G,d,L,i,,,,,5,19,119,17,4,0,4,0,,,,,0,8,8,4,,,,,,up,0.7005464477570058,1578.1749333127282,None,001,54,2019_Oct_23_1306,ACPT_experiment_5_30_19,3.1.0,59.953942153260705,
,,,C,U,y,n,R,G,y,R,y,,,,,5,19,119,17,4,0,4,0,,,,,0,9,9,29,,,,,,down,0.8339529909426346,1580.1597808051138,None,001,54,2019_Oct_23_1306,ACPT_experiment_5_30_19,3.1.0,59.953942153260705,
,,,C,U,y,n,R,U,g,L,u,,,,,5,19,119,17,4,0,4,0,,,,,0,10,10,10,,,,,,up,0.8006082978063205,1582.2780408777817,None,001,54,2019_Oct_23_1306,ACPT_experiment_5_30_19,3.1.0,59.953942153260705,
,,,C,U,y,n,R,U,d,R,u,,,,,5,19,119,17,4,0,4,0,,,,,0,11,11,9,,,,,,up,0.6838713844972517,1584.3462561401047,None,001,54,2019_Oct_23_1306,ACPT_experiment_5_30_19,3.1.0,59.953942153260705,
,,,C,U,y,n,L,D,g,R,i,,,,,5,19,119,17,4,0,4,0,,,,,0,12,12,15,,,,,,up,0.5837645580795652,1586.3144445675352,None,001,54,2019_Oct_23_1306,ACPT_experiment_5_30_19,3.1.0,59.953942153260705,
,,,C,U,y,n,R,U,y,L,u,,,,,5,19,119,17,4,0,4,0,,,,,0,13,13,30,,,,,,down,0.8672964766610676,1588.1825460909658,None,001,54,2019_Oct_23_1306,ACPT_experiment_5_30_19,3.1.0,59.953942153260705,
,,,C,U,y,n,R,G,g,L,c ,,,,,5,19,119,17,4,0,4,0,,,,,0,14,14,6,,,,,,up,0.683846028692642,1590.334161421688,None,001,54,2019_Oct_23_1306,ACPT_experiment_5_30_19,3.1.0,59.953942153260705,
,,,C,U,y,n,R,D,y,R,y,,,,,5,19,119,17,4,0,4,0,,,,,0,15,15,27,,,,,,down,0.7172178887612972,1592.302313626542,None,001,54,2019_Oct_23_1306,ACPT_experiment_5_30_19,3.1.0,59.953942153260705,
,,,C,U,y,n,L,D,y,L,y,,,,,5,19,119,17,4,0,4,0,,,,,0,16,16,32,,,,,,down,0.6504925817662297,1594.3038388988825,None,001,54,2019_Oct_23_1306,ACPT_experiment_5_30_19,3.1.0,59.953942153260705,
,,,C,U,y,n,R,G,g,R,c ,,,,,5,19,119,17,4,0,4,0,,,,,0,17,17,7,,,,,,up,0.5337635166815744,1596.2386436939069,None,001,54,2019_Oct_23_1306,ACPT_experiment_5_30_19,3.1.0,59.953942153260705,
,,,C,U,y,n,L,D,g,L,i,,,,,5,19,119,17,4,0,4,0,,,,,0,18,18,14,,,,,,up,0.7839265937418531,1598.040006025023,None,001,54,2019_Oct_23_1306,ACPT_experiment_5_30_19,3.1.0,59.953942153260705,
,,,C,U,y,n,L,U,y,R,u,,,,,5,19,119,17,4,0,4,0,,,,,0,19,19,25,,,,,,down,0.8170611959303642,1600.1251740570297,None,001,54,2019_Oct_23_1306,ACPT_experiment_5_30_19,3.1.0,59.953942153260705,
,,,C,U,y,n,L,G,y,R,y,,,,,5,19,119,17,4,0,4,0,,,,,0,20,20,35,,,,,,down,0.7505686189924745,1602.226520299284,None,001,54,2019_Oct_23_1306,ACPT_experiment_5_30_19,3.1.0,59.953942153260705,
,,,C,U,y,n,L,G,y,L,y,,,,,5,19,119,17,4,0,4,0,,,,,0,21,21,34,,,,,,down,0.8173056983250717,1604.2780583853619,None,001,54,2019_Oct_23_1306,ACPT_experiment_5_30_19,3.1.0,59.953942153260705,
,,,C,U,y,n,R,D,d,L,c,,,,,5,19,119,17,4,0,4,0,,,,,0,22,22,0,,,,,,up,0.6671652301902213,1606.413033366125,None,001,54,2019_Oct_23_1306,ACPT_experiment_5_30_19,3.1.0,59.953942153260705,
,,,C,U,y,n,L,U,d,L,u,,,,,5,19,119,17,4,0,4,0,,,,,0,23,23,20,,,,,,up,0.7172320759364084,1608.3644902834458,None,001,54,2019_Oct_23_1306,ACPT_experiment_5_30_19,3.1.0,59.953942153260705,
,,,C,U,y,n,L,D,d,L,c ,,,,,5,19,119,17,4,0,4,0,,,,,0,24,24,12,,,,,,up,0.6338461947125325,1610.3660354782041,None,001,54,2019_Oct_23_1306,ACPT_experiment_5_30_19,3.1.0,59.953942153260705,
,,,C,U,y,n,L,G,g,L,c ,,,,,5,19,119,17,4,0,4,0,,,,,0,25,25,18,,,,,,up,0.7839036527766439,1612.2841803027059,None,001,54,2019_Oct_23_1306,ACPT_experiment_5_30_19,3.1.0,59.953942153260705,
,,,C,U,y,n,R,U,g,R,u,,,,,5,19,119,17,4,0,4,0,,,,,0,26,26,11,,,,,,up,0.7505616763319267,1614.3523979798683,None,001,54,2019_Oct_23_1306,ACPT_experiment_5_30_19,3.1.0,59.953942153260705,
,,,C,U,y,n,L,G,d,L,i,,,,,5,19,119,17,4,0,4,0,,,,,0,27,27,16,,,,,,up,0.6671936045404436,1616.3872492303472,None,001,54,2019_Oct_23_1306,ACPT_experiment_5_30_19,3.1.0,59.953942153260705,
,,,C,U,y,n,R,D,y,L,y,,,,,5,19,119,17,4,0,4,0,,,,,0,28,28,26,,,,,,down,0.7672569638671121,1618.3387453887917,None,001,54,2019_Oct_23_1306,ACPT_experiment_5_30_19,3.1.0,59.953942153260705,
,,,C,U,y,n,L,U,g,R,u,,,,,5,19,119,17,4,0,4,0,,,,,0,29,29,23,,,,,,up,0.8339892135209084,1620.3902883045448,None,001,54,2019_Oct_23_1306,ACPT_experiment_5_30_19,3.1.0,59.953942153260705,
,,,C,U,y,n,R,D,d,R,c ,,,,,5,19,119,17,4,0,4,0,,,,,0,30,30,1,,,,,,up,0.6004761457716086,1622.5085619606798,None,001,54,2019_Oct_23_1306,ACPT_experiment_5_30_19,3.1.0,59.953942153260705,
,,,C,U,y,n,R,D,g,L,i,,,,,5,19,119,17,4,0,4,0,,,,,0,31,31,2,,,,,,up,0.650497109589196,1624.393347301162,None,001,54,2019_Oct_23_1306,ACPT_experiment_5_30_19,3.1.0,59.953942153260705,
,,,C,U,y,n,L,U,g,L,u,,,,,5,19,119,17,4,0,4,0,,,,,0,32,32,22,,,,,,up,0.5003768657261389,1626.3281517943306,None,001,54,2019_Oct_23_1306,ACPT_experiment_5_30_19,3.1.0,59.953942153260705,
,,,C,U,y,n,R,U,y,R,u,,,,,5,19,119,17,4,0,4,0,,,,,0,33,33,31,,,,,,down,0.8005983365983411,1628.1295243885106,None,001,54,2019_Oct_23_1306,ACPT_experiment_5_30_19,3.1.0,59.953942153260705,
,,,C,U,y,n,R,D,g,R,i,,,,,5,19,119,17,4,0,4,0,,,,,0,34,34,3,,,,,,up,0.6338199333440571,1630.231123886948,None,001,54,2019_Oct_23_1306,ACPT_experiment_5_30_19,3.1.0,59.953942153260705,
,,,C,U,y,n,L,D,y,R,y,,,,,5,19,119,17,4,0,4,0,,,,,0,35,35,33,,,,,,down,0.7005319587278791,1632.149237016698,None,001,54,2019_Oct_23_1306,ACPT_experiment_5_30_19,3.1.0,59.953942153260705,
,,,C,U,y,n,R,D,g,L,i,,,,,5,19,119,17,4,0,4,0,,,,,1,0,36,2,,,,,,up,0.7339472858875524,1634.134082094246,None,001,54,2019_Oct_23_1306,ACPT_experiment_5_30_19,3.1.0,59.953942153260705,
,,,C,U,y,n,L,D,g,L,i,,,,,5,19,119,17,4,0,4,0,,,,,1,1,37,14,,,,,,up,0.8006300313536485,1636.1522579796074,None,001,54,2019_Oct_23_1306,ACPT_experiment_5_30_19,3.1.0,59.953942153260705,
,,,C,U,y,n,R,U,g,L,u,,,,,5,19,119,17,4,0,4,0,,,,,1,2,38,10,,,,,,up,0.6838686678038357,1638.2371975075257,None,001,54,2019_Oct_23_1306,ACPT_experiment_5_30_19,3.1.0,59.953942153260705,
,,,C,U,y,n,L,G,g,R,c ,,,,,5,19,119,17,4,0,4,0,,,,,1,3,39,19,,,,,,up,1.1842322519187292,1640.205353938345,None,001,54,2019_Oct_23_1306,ACPT_experiment_5_30_19,3.1.0,59.953942153260705,
,,,C,U,y,n,L,G,y,R,y,,,,,5,19,119,17,4,0,4,0,,,,,1,4,40,35,,,,,,down,0.7672741695896548,1642.6571952677623,None,001,54,2019_Oct_23_1306,ACPT_experiment_5_30_19,3.1.0,59.953942153260705,
,,,C,U,y,n,R,D,y,L,y,,,,,5,19,119,17,4,0,4,0,,,,,1,5,41,26,,,,,,down,0.750565600445043,1644.708778028351,None,001,54,2019_Oct_23_1306,ACPT_experiment_5_30_19,3.1.0,59.953942153260705,
,,,C,U,y,n,R,U,d,L,u,,,,,5,19,119,17,4,0,4,0,,,,,1,6,42,8,,,,,,up,0.7005364865490264,1646.7436482956837,None,001,54,2019_Oct_23_1306,ACPT_experiment_5_30_19,3.1.0,59.953942153260705,
,,,C,U,y,n,R,D,y,R,y,,,,,5,19,119,17,4,0,4,0,,,,,1,7,43,27,,,,,,down,0.6338184240703413,1648.7284882416989,None,001,54,2019_Oct_23_1306,ACPT_experiment_5_30_19,3.1.0,59.953942153260705,
,,,C,U,y,n,R,U,g,R,u,,,,,5,19,119,17,4,0,4,0,,,,,1,8,44,11,,,,,,up,0.6004897292386886,1650.646596239916,None,001,54,2019_Oct_23_1306,ACPT_experiment_5_30_19,3.1.0,59.953942153260705,
,,,C,U,y,n,R,G,y,R,y,,,,,5,19,119,17,4,0,4,0,,,,,1,9,45,29,,,,,,down,0.6004507899688178,1652.5313821841064,None,001,54,2019_Oct_23_1306,ACPT_experiment_5_30_19,3.1.0,59.953942153260705,
,,,C,U,y,n,L,D,g,R,i,,,,,5,19,119,17,4,0,4,0,,,,,1,10,46,15,,,,,,up,0.550433448410331,1654.4161454891873,None,001,54,2019_Oct_23_1306,ACPT_experiment_5_30_19,3.1.0,59.953942153260705,
,,,C,U,y,n,R,U,d,R,u,,,,,5,19,119,17,4,0,4,0,,,,,1,11,47,9,,,,,,up,0.5170525326975621,1656.2508959805327,None,001,54,2019_Oct_23_1306,ACPT_experiment_5_30_19,3.1.0,59.953942153260705,
,,,C,U,y,n,R,G,d,L,i,,,,,5,19,119,17,4,0,4,0,,,,,1,12,48,4,,,,,,up,0.767246097093448,1658.0355597037124,None,001,54,2019_Oct_23_1306,ACPT_experiment_5_30_19,3.1.0,59.953942153260705,
,,,C,U,y,n,R,U,y,L,u,,,,,5,19,119,17,4,0,4,0,,,,,1,13,49,30,,,,,,down,0.8839854252419173,1660.1038084719185,None,001,54,2019_Oct_23_1306,ACPT_experiment_5_30_19,3.1.0,59.953942153260705,
,,,C,U,y,n,R,U,y,R,u,,,,,5,19,119,17,4,0,4,0,,,,,1,14,50,31,,,,,,down,0.8006019588574418,1662.2887920404519,None,001,54,2019_Oct_23_1306,ACPT_experiment_5_30_19,3.1.0,59.953942153260705,
,,,C,U,y,n,R,G,g,L,c ,,,,,5,19,119,17,4,0,4,0,,,,,1,15,51,6,,,,,,up,0.6171460775021842,1664.3736962513558,None,001,54,2019_Oct_23_1306,ACPT_experiment_5_30_19,3.1.0,59.953942153260705,
,,,C,U,y,n,L,U,g,R,u,,,,,5,19,119,17,4,0,4,0,,,,,1,16,52,23,,,,,,up,0.7005298457424942,1666.2751463920358,None,001,54,2019_Oct_23_1306,ACPT_experiment_5_30_19,3.1.0,59.953942153260705,
,,,C,U,y,n,R,D,g,R,i,,,,,5,19,119,17,4,0,4,0,,,,,1,17,53,3,,,,,,up,0.5834943980262324,1668.276941522574,None,001,54,2019_Oct_23_1306,ACPT_experiment_5_30_19,3.1.0,59.953942153260705,
,,,C,U,y,n,L,G,g,L,c ,,,,,5,19,119,17,4,0,4,0,,,,,1,18,54,18,,,,,,up,0.7839573829314759,1670.1447239854733,None,001,54,2019_Oct_23_1306,ACPT_experiment_5_30_19,3.1.0,59.953942153260705,
,,,C,U,y,n,L,U,g,L,u,,,,,5,19,119,17,4,0,4,0,,,,,1,19,55,22,,,,,,up,0.7839486291413778,1672.2129869408564,None,001,54,2019_Oct_23_1306,ACPT_experiment_5_30_19,3.1.0,59.953942153260705,
,,,C,U,y,n,R,G,g,R,c ,,,,,5,19,119,17,4,0,4,0,,,,,1,20,56,7,,,,,,up,0.6338099721360777,1674.2812251441446,None,001,54,2019_Oct_23_1306,ACPT_experiment_5_30_19,3.1.0,59.953942153260705,
,,,C,U,y,n,L,G,d,R,i,,,,,5,19,119,17,4,0,4,0,,,,,1,21,57,17,,,,,,up,0.7506006156017975,1676.199328010829,None,001,54,2019_Oct_23_1306,ACPT_experiment_5_30_19,3.1.0,59.953942153260705,
,,,C,U,y,n,L,U,d,R,u,,,,,5,19,119,17,4,0,4,0,,,,,1,22,58,21,,,,,,up,0.8506494858957012,1678.2342396322692,None,001,54,2019_Oct_23_1306,ACPT_experiment_5_30_19,3.1.0,59.953942153260705,
,,,C,U,y,n,R,D,d,L,c,,,,,5,19,119,17,4,0,4,0,,,,,1,23,59,0,,,,,,up,0.8673483956863492,1680.3691623921513,None,001,54,2019_Oct_23_1306,ACPT_experiment_5_30_19,3.1.0,59.953942153260705,
,,,C,U,y,n,L,G,y,L,y,,,,,5,19,119,17,4,0,4,0,,,,,1,24,60,34,,,,,,down,0.8673115694018634,1682.5208139454517,None,001,54,2019_Oct_23_1306,ACPT_experiment_5_30_19,3.1.0,59.953942153260705,
,,,C,U,y,n,L,U,y,R,u,,,,,5,19,119,17,4,0,4,0,,,,,1,25,61,25,,,,,,down,0.7672500212065643,1684.672452217139,None,001,54,2019_Oct_23_1306,ACPT_experiment_5_30_19,3.1.0,59.953942153260705,
,,,C,U,y,n,L,G,d,L,i,,,,,5,19,119,17,4,0,4,0,,,,,1,26,62,16,,,,,,up,0.5003970899997512,1686.7239987551511,None,001,54,2019_Oct_23_1306,ACPT_experiment_5_30_19,3.1.0,59.953942153260705,
,,,C,U,y,n,L,D,d,R,c ,,,,,5,19,119,17,4,0,4,0,,,,,1,27,63,13,,,,,,up,0.5170528345533967,1688.5087219437282,None,001,54,2019_Oct_23_1306,ACPT_experiment_5_30_19,3.1.0,59.953942153260705,
,,,C,U,y,n,L,U,y,L,u,,,,,5,19,119,17,4,0,4,0,,,,,1,28,64,24,,,,,,down,0.7338905371834699,1690.3100601264596,None,001,54,2019_Oct_23_1306,ACPT_experiment_5_30_19,3.1.0,59.953942153260705,
,,,C,U,y,n,L,D,d,L,c ,,,,,5,19,119,17,4,0,4,0,,,,,1,29,65,12,,,,,,up,1.0674977534472418,1692.3282583490782,None,001,54,2019_Oct_23_1306,ACPT_experiment_5_30_19,3.1.0,59.953942153260705,
,,,C,U,y,n,L,D,y,L,y,,,,,5,19,119,17,4,0,4,0,,,,,1,30,66,32,,,,,,down,0.7138697152404347,1694.7000625745022,None,001,54,2019_Oct_23_1306,ACPT_experiment_5_30_19,3.1.0,59.953942153260705,
,,,C,U,y,n,L,D,y,R,y,,,,,5,19,119,17,4,0,4,0,,,,,1,31,67,33,,,,,,down,0.8005968273246253,1696.7149249996455,None,001,54,2019_Oct_23_1306,ACPT_experiment_5_30_19,3.1.0,59.953942153260705,
,,,C,U,y,n,R,G,d,R,i,,,,,5,19,119,17,4,0,4,0,,,,,1,32,68,5,,,,,,up,0.6671803229310171,1698.8165296296156,None,001,54,2019_Oct_23_1306,ACPT_experiment_5_30_19,3.1.0,59.953942153260705,
,,,C,U,y,n,R,D,d,R,c ,,,,,5,19,119,17,4,0,4,0,,,,,1,33,69,1,,,,,,up,0.7505565448009293,1700.7680149212865,None,001,54,2019_Oct_23_1306,ACPT_experiment_5_30_19,3.1.0,59.953942153260705,
,,,C,U,y,n,L,U,d,L,u,,,,,5,19,119,17,4,0,4,0,,,,,1,34,70,20,,,,,,up,0.8840159125793434,1702.8028716051522,None,001,54,2019_Oct_23_1306,ACPT_experiment_5_30_19,3.1.0,59.953942153260705,
,,,C,U,y,n,R,G,y,L,y,,,,,5,19,119,17,4,0,4,0,,,,,1,35,71,28,,,,,,down,0.8006049774048734,1704.9711930901813,None,001,54,2019_Oct_23_1306,ACPT_experiment_5_30_19,3.1.0,59.953942153260705,
,,,C,U,y,n,,,,,,,,,,5,19,119,17,5,0,5,0,0,0,0,0,,,,,,,,,,,,,,001,54,2019_Oct_23_1306,ACPT_experiment_5_30_19,3.1.0,59.953942153260705,
,,,C,U,y,n,L,U,d,R,u,,,,,5,19,119,17,5,0,5,0,,,,,0,0,0,21,,,,,,up,0.8168387289388193,1727.8056205968824,None,001,54,2019_Oct_23_1306,ACPT_experiment_5_30_19,3.1.0,59.953942153260705,
,,,C,U,y,n,L,U,d,L,u,,,,,5,19,119,17,5,0,5,0,,,,,0,1,1,20,,,,,,up,0.8172631367979193,1729.890138735489,None,001,54,2019_Oct_23_1306,ACPT_experiment_5_30_19,3.1.0,59.953942153260705,
,,,C,U,y,n,L,D,y,R,y,,,,,5,19,119,17,5,0,5,0,,,,,0,2,2,33,,,,,,down,0.8506491840398667,1731.9917056336071,None,001,54,2019_Oct_23_1306,ACPT_experiment_5_30_19,3.1.0,59.953942153260705,
,,,C,U,y,n,R,G,y,L,y,,,,,5,19,119,17,5,0,5,0,,,,,0,3,3,28,,,,,,down,0.7172049090058863,1734.1266664271952,None,001,54,2019_Oct_23_1306,ACPT_experiment_5_30_19,3.1.0,59.953942153260705,
,,,C,U,y,n,L,G,y,R,y,,,,,5,19,119,17,5,0,5,0,,,,,0,4,4,35,,,,,,down,0.8840113847563771,1736.1448468403814,None,001,54,2019_Oct_23_1306,ACPT_experiment_5_30_19,3.1.0,59.953942153260705,
,,,C,U,y,n,R,G,d,L,i,,,,,5,19,119,17,5,0,5,0,,,,,0,5,5,4,,,,,,up,0.7839220659188868,1738.3298548591538,None,001,54,2019_Oct_23_1306,ACPT_experiment_5_30_19,3.1.0,59.953942153260705,
,,,C,U,y,n,L,D,y,L,y,,,,,5,19,119,17,5,0,5,0,,,,,0,6,6,32,,,,,,down,0.7505689208483091,1740.3980861197815,None,001,54,2019_Oct_23_1306,ACPT_experiment_5_30_19,3.1.0,59.953942153260705,
,,,C,U,y,n,L,U,g,R,u,,,,,5,19,119,17,5,0,5,0,,,,,0,7,7,23,,,,,,up,0.8506600508135307,1742.432963027919,None,001,54,2019_Oct_23_1306,ACPT_experiment_5_30_19,3.1.0,59.953942153260705,
,,,C,U,y,n,L,G,d,L,i,,,,,5,19,119,17,5,0,5,0,,,,,0,8,8,16,,,,,,up,0.46701225017386605,1744.5679283493282,None,001,54,2019_Oct_23_1306,ACPT_experiment_5_30_19,3.1.0,59.953942153260705,
,,,C,U,y,n,R,U,g,R,u,,,,,5,19,119,17,5,0,5,0,,,,,0,9,9,11,,,,,,up,0.5504548801018245,1746.3192386255832,None,001,54,2019_Oct_23_1306,ACPT_experiment_5_30_19,3.1.0,59.953942153260705,
,,,C,U,y,n,L,G,g,L,c ,,,,,5,19,119,17,5,0,5,0,,,,,0,10,10,18,,,,,,up,0.6338199333440571,1748.1539725149123,None,001,54,2019_Oct_23_1306,ACPT_experiment_5_30_19,3.1.0,59.953942153260705,
,,,C,U,y,n,R,D,d,R,c ,,,,,5,19,119,17,5,0,5,0,,,,,0,11,11,1,,,,,,up,0.6004631660161976,1750.0720995299816,None,001,54,2019_Oct_23_1306,ACPT_experiment_5_30_19,3.1.0,59.953942153260705,
,,,C,U,y,n,L,G,d,R,i,,,,,5,19,119,17,5,0,5,0,,,,,0,12,12,17,,,,,,up,0.6505112967661262,1751.9568670610297,None,001,54,2019_Oct_23_1306,ACPT_experiment_5_30_19,3.1.0,59.953942153260705,
,,,C,U,y,n,L,G,g,R,c ,,,,,5,19,119,17,5,0,5,0,,,,,0,13,13,19,,,,,,up,0.6671809266408673,1753.8749801907798,None,001,54,2019_Oct_23_1306,ACPT_experiment_5_30_19,3.1.0,59.953942153260705,
,,,C,U,y,n,R,G,d,R,i,,,,,5,19,119,17,5,0,5,0,,,,,0,14,14,5,,,,,,up,0.5670894948198111,1755.826473632531,None,001,54,2019_Oct_23_1306,ACPT_experiment_5_30_19,3.1.0,59.953942153260705,
,,,C,U,y,n,L,U,y,L,u,,,,,5,19,119,17,5,0,5,0,,,,,0,15,15,24,,,,,,down,0.8173090187265188,1757.677857229317,None,001,54,2019_Oct_23_1306,ACPT_experiment_5_30_19,3.1.0,59.953942153260705,
,,,C,U,y,n,L,D,g,R,i,,,,,5,19,119,17,5,0,5,0,,,,,0,16,16,15,,,,,,up,0.6671676450278028,1759.7794733297706,None,001,54,2019_Oct_23_1306,ACPT_experiment_5_30_19,3.1.0,59.953942153260705,
,,,C,U,y,n,R,G,g,R,c ,,,,,5,19,119,17,5,0,5,0,,,,,0,17,17,7,,,,,,up,0.7005229030837654,1761.7142856711635,None,001,54,2019_Oct_23_1306,ACPT_experiment_5_30_19,3.1.0,59.953942153260705,
,,,C,U,y,n,L,U,g,L,u,,,,,5,19,119,17,5,0,5,0,,,,,0,18,18,22,,,,,,up,0.8006067885344237,1763.699112939279,None,001,54,2019_Oct_23_1306,ACPT_experiment_5_30_19,3.1.0,59.953942153260705,
,,,C,U,y,n,R,U,g,L,u,,,,,5,19,119,17,5,0,5,0,,,,,0,19,19,10,,,,,,up,1.134209778829245,1765.784036770745,None,001,54,2019_Oct_23_1306,ACPT_experiment_5_30_19,3.1.0,59.953942153260705,
,,,C,U,y,n,R,G,g,L,c ,,,,,5,19,119,17,5,0,5,0,,,,,0,20,20,6,,,,,,up,0.9006725626950356,1768.2025488016225,None,001,54,2019_Oct_23_1306,ACPT_experiment_5_30_19,3.1.0,59.953942153260705,
,,,C,U,y,n,R,D,g,R,i,,,,,5,19,119,17,5,0,5,0,,,,,0,21,21,3,,,,,,up,0.750568317138459,1770.3875281441888,None,001,54,2019_Oct_23_1306,ACPT_experiment_5_30_19,3.1.0,59.953942153260705,
,,,C,U,y,n,R,D,g,L,i,,,,,5,19,119,17,5,0,5,0,,,,,0,22,22,2,,,,,,up,0.6171312866172229,1772.4224101838572,None,001,54,2019_Oct_23_1306,ACPT_experiment_5_30_19,3.1.0,59.953942153260705,
,,,C,U,y,n,R,D,y,L,y,,,,,5,19,119,17,5,0,5,0,,,,,0,23,23,26,,,,,,down,0.7505109647245263,1774.3239053009038,None,001,54,2019_Oct_23_1306,ACPT_experiment_5_30_19,3.1.0,59.953942153260705,
,,,C,U,y,n,L,G,y,L,y,,,,,5,19,119,17,5,0,5,0,,,,,0,24,24,34,,,,,,down,0.7672681324947916,1776.3587082546128,None,001,54,2019_Oct_23_1306,ACPT_experiment_5_30_19,3.1.0,59.953942153260705,
,,,C,U,y,n,L,U,y,R,u,,,,,5,19,119,17,5,0,5,0,,,,,0,25,25,25,,,,,,down,0.767246097091629,1778.4102870910883,None,001,54,2019_Oct_23_1306,ACPT_experiment_5_30_19,3.1.0,59.953942153260705,
,,,C,U,y,n,R,U,y,L,u,,,,,5,19,119,17,5,0,5,0,,,,,0,26,26,30,,,,,,down,0.9507212971548142,1780.4618432884545,None,001,54,2019_Oct_23_1306,ACPT_experiment_5_30_19,3.1.0,59.953942153260705,
,,,C,U,y,n,R,U,y,R,u,,,,,5,19,119,17,5,0,5,0,,,,,0,27,27,31,,,,,,down,0.8008087294001598,1782.680052619331,None,001,54,2019_Oct_23_1306,ACPT_experiment_5_30_19,3.1.0,59.953942153260705,
,,,C,U,y,n,L,D,d,R,c ,,,,,5,19,119,17,5,0,5,0,,,,,0,28,28,13,,,,,,up,0.6671875674455805,1784.7650881370773,None,001,54,2019_Oct_23_1306,ACPT_experiment_5_30_19,3.1.0,59.953942153260705,
,,,C,U,y,n,R,D,y,R,y,,,,,5,19,119,17,5,0,5,0,,,,,0,29,29,27,,,,,,down,1.4844820971429726,1786.7165722213285,None,001,54,2019_Oct_23_1306,ACPT_experiment_5_30_19,3.1.0,59.953942153260705,
,,,C,U,y,n,R,G,y,R,y,,,,,5,19,119,17,5,0,5,0,,,,,0,30,30,29,,,,,,down,1.2676410741096333,1789.48535596681,None,001,54,2019_Oct_23_1306,ACPT_experiment_5_30_19,3.1.0,59.953942153260705,
,,,C,U,y,n,L,D,g,L,i,,,,,5,19,119,17,5,0,5,0,,,,,0,31,31,14,,,,,,up,0.733885707506488,1792.037298991112,None,001,54,2019_Oct_23_1306,ACPT_experiment_5_30_19,3.1.0,59.953942153260705,
,,,C,U,y,n,R,D,d,L,c,,,,,5,19,119,17,5,0,5,0,,,,,0,32,32,0,,,,,,up,0.667168852447503,1794.0554981192945,None,001,54,2019_Oct_23_1306,ACPT_experiment_5_30_19,3.1.0,59.953942153260705,
,,,C,U,y,n,L,D,d,L,c ,,,,,5,19,119,17,5,0,5,0,,,,,0,33,33,12,,,,,,up,0.5337529517619259,1796.0069770720147,None,001,54,2019_Oct_23_1306,ACPT_experiment_5_30_19,3.1.0,59.953942153260705,
,,,C,U,y,n,R,U,d,R,u,,,,,5,19,119,17,5,0,5,0,,,,,0,34,34,9,,,,,,up,0.6503214300919353,1797.8418941872133,None,001,54,2019_Oct_23_1306,ACPT_experiment_5_30_19,3.1.0,59.953942153260705,
,,,C,U,y,n,R,U,d,L,u,,,,,5,19,119,17,5,0,5,0,,,,,0,35,35,8,,,,,,up,1.1008297686803417,1799.7765124359667,None,001,54,2019_Oct_23_1306,ACPT_experiment_5_30_19,3.1.0,59.953942153260705,
,,,C,U,y,n,R,U,d,L,u,,,,,5,19,119,17,5,0,5,0,,,,,1,0,36,8,,,,,,up,0.5504633320360881,1802.1616314769362,None,001,54,2019_Oct_23_1306,ACPT_experiment_5_30_19,3.1.0,59.953942153260705,
,,,C,U,y,n,R,D,d,R,c ,,,,,5,19,119,17,5,0,5,0,,,,,1,1,37,1,,,,,,up,0.6171726407264941,1803.9963557069132,None,001,54,2019_Oct_23_1306,ACPT_experiment_5_30_19,3.1.0,59.953942153260705,
,,,C,U,y,n,R,G,d,R,i,,,,,5,19,119,17,5,0,5,0,,,,,1,2,38,5,,,,,,up,0.48370240617623494,1805.8811452733626,None,001,54,2019_Oct_23_1306,ACPT_experiment_5_30_19,3.1.0,59.953942153260705,
,,,C,U,y,n,R,U,g,L,u,,,,,5,19,119,17,5,0,5,0,,,,,1,3,39,10,,,,,,up,0.6004858051255724,1807.649151440859,None,001,54,2019_Oct_23_1306,ACPT_experiment_5_30_19,3.1.0,59.953942153260705,
,,,C,U,y,n,L,U,g,R,u,,,,,5,19,119,17,5,0,5,0,,,,,1,4,40,23,,,,,,up,0.4169764954731363,1809.5339153496498,None,001,54,2019_Oct_23_1306,ACPT_experiment_5_30_19,3.1.0,59.953942153260705,
,,,C,U,y,n,L,G,y,R,y,,,,,5,19,119,17,5,0,5,0,,,,,1,5,41,35,,,,,,down,0.9173002347524744,1811.285301391461,None,001,54,2019_Oct_23_1306,ACPT_experiment_5_30_19,3.1.0,59.953942153260705,
,,,C,U,y,n,R,D,g,R,i,,,,,5,19,119,17,5,0,5,0,,,,,1,6,42,3,,,,,,up,1.084019776320929,1813.50361395668,None,001,54,2019_Oct_23_1306,ACPT_experiment_5_30_19,3.1.0,59.953942153260705,
,,,C,U,y,n,L,G,g,L,c ,,,,,5,19,119,17,5,0,5,0,,,,,1,7,43,18,,,,,,up,0.8006034681293386,1815.8720651789063,None,001,54,2019_Oct_23_1306,ACPT_experiment_5_30_19,3.1.0,59.953942153260705,
,,,C,U,y,n,R,U,y,R,u,,,,,5,19,119,17,5,0,5,0,,,,,1,8,44,31,,,,,,down,1.0341322323292843,1817.9569624471496,None,001,54,2019_Oct_23_1306,ACPT_experiment_5_30_19,3.1.0,59.953942153260705,
,,,C,U,y,n,R,G,g,L,c ,,,,,5,19,119,17,5,0,5,0,,,,,1,9,45,6,,,,,,up,0.650515522731439,1820.2754056853155,None,001,54,2019_Oct_23_1306,ACPT_experiment_5_30_19,3.1.0,59.953942153260705,
,,,C,U,y,n,R,G,y,L,y,,,,,5,19,119,17,5,0,5,0,,,,,1,10,46,28,,,,,,down,0.8506703138773446,1822.210186331955,None,001,54,2019_Oct_23_1306,ACPT_experiment_5_30_19,3.1.0,59.953942153260705,
,,,C,U,y,n,R,U,d,R,u,,,,,5,19,119,17,5,0,5,0,,,,,1,11,47,9,,,,,,up,0.5838056103348208,1824.3451480311069,None,001,54,2019_Oct_23_1306,ACPT_experiment_5_30_19,3.1.0,59.953942153260705,
,,,C,U,y,n,L,G,y,L,y,,,,,5,19,119,17,5,0,5,0,,,,,1,12,48,34,,,,,,down,0.8339680836834305,1826.2132441211525,None,001,54,2019_Oct_23_1306,ACPT_experiment_5_30_19,3.1.0,59.953942153260705,
,,,C,U,y,n,R,U,g,R,u,,,,,5,19,119,17,5,0,5,0,,,,,1,13,49,11,,,,,,up,0.7171892125552404,1828.3315428312362,None,001,54,2019_Oct_23_1306,ACPT_experiment_5_30_19,3.1.0,59.953942153260705,
,,,C,U,y,n,L,U,d,L,u,,,,,5,19,119,17,5,0,5,0,,,,,1,14,50,20,,,,,,up,0.7339149874223949,1830.3330400310788,None,001,54,2019_Oct_23_1306,ACPT_experiment_5_30_19,3.1.0,59.953942153260705,
,,,C,U,y,n,L,U,g,L,u,,,,,5,19,119,17,5,0,5,0,,,,,1,15,51,22,,,,,,up,0.717224831421845,1832.3512385555532,None,001,54,2019_Oct_23_1306,ACPT_experiment_5_30_19,3.1.0,59.953942153260705,
,,,C,U,y,n,R,D,y,L,y,,,,,5,19,119,17,5,0,5,0,,,,,1,16,52,26,,,,,,down,0.7172061164237675,1834.352762620474,None,001,54,2019_Oct_23_1306,ACPT_experiment_5_30_19,3.1.0,59.953942153260705,
,,,C,U,y,n,R,G,y,R,y,,,,,5,19,119,17,5,0,5,0,,,,,1,17,53,29,,,,,,down,0.7838112852059567,1836.3542794408804,None,001,54,2019_Oct_23_1306,ACPT_experiment_5_30_19,3.1.0,59.953942153260705,
,,,C,U,y,n,R,D,g,L,i,,,,,5,19,119,17,5,0,5,0,,,,,1,18,54,2,,,,,,up,0.700531355018029,1838.4225137200556,None,001,54,2019_Oct_23_1306,ACPT_experiment_5_30_19,3.1.0,59.953942153260705,
,,,C,U,y,n,L,G,d,R,i,,,,,5,19,119,17,5,0,5,0,,,,,1,19,55,17,,,,,,up,0.8172860777631286,1840.4073548734923,None,001,54,2019_Oct_23_1306,ACPT_experiment_5_30_19,3.1.0,59.953942153260705,
,,,C,U,y,n,L,U,y,L,u,,,,,5,19,119,17,5,0,5,0,,,,,1,20,56,24,,,,,,down,0.7839462143037963,1842.5089531645099,None,001,54,2019_Oct_23_1306,ACPT_experiment_5_30_19,3.1.0,59.953942153260705,
,,,C,U,y,n,L,D,g,L,i,,,,,5,19,119,17,5,0,5,0,,,,,1,21,57,14,,,,,,up,0.6838430101452104,1844.577191669654,None,001,54,2019_Oct_23_1306,ACPT_experiment_5_30_19,3.1.0,59.953942153260705,
,,,C,U,y,n,L,D,y,L,y,,,,,5,19,119,17,5,0,5,0,,,,,1,22,58,32,,,,,,down,0.7839199529353209,1846.5453571561175,None,001,54,2019_Oct_23_1306,ACPT_experiment_5_30_19,3.1.0,59.953942153260705,
,,,C,U,y,n,L,D,d,L,c ,,,,,5,19,119,17,5,0,5,0,,,,,1,23,59,12,,,,,,up,0.6171515108890162,1848.613589322309,None,001,54,2019_Oct_23_1306,ACPT_experiment_5_30_19,3.1.0,59.953942153260705,
,,,C,U,y,n,R,D,d,L,c,,,,,5,19,119,17,5,0,5,0,,,,,1,24,60,0,,,,,,up,0.5334846028381435,1850.5319626509008,None,001,54,2019_Oct_23_1306,ACPT_experiment_5_30_19,3.1.0,59.953942153260705,
,,,C,U,y,n,L,D,g,R,i,,,,,5,19,119,17,5,0,5,0,,,,,1,25,61,15,,,,,,up,0.6838725919169519,1852.3497332056286,None,001,54,2019_Oct_23_1306,ACPT_experiment_5_30_19,3.1.0,59.953942153260705,
