facing_vig,person_vig,text_vig,facing_train,person_train,food_train,correct_key_train,facing_exp,person_exp,food_exp,showL_R,consistent,vig_random.thisRepN,vig_random.thisTrialN,vig_random.thisN,vig_random.thisIndex,trainTrials.thisRepN,trainTrials.thisTrialN,trainTrials.thisN,trainTrials.thisIndex,expBlock.thisRepN,expBlock.thisTrialN,expBlock.thisN,expBlock.thisIndex,breakLoop.thisRepN,breakLoop.thisTrialN,breakLoop.thisN,breakLoop.thisIndex,expTrials.thisRepN,expTrials.thisTrialN,expTrials.thisN,expTrials.thisIndex,train_resp.keys,train_resp.corr,train_resp.rt,train_resp.started,train_resp.stopped,exp_resp.keys,exp_resp.rt,exp_resp.started,exp_resp.stopped,session,participant,date,expName,psychopyVersion,frameRate,
C,G,"cannot eat dairy products because she is lactose intolerant. She enjoys eating wheat products. She thinks eating insects, like crickets, is disgusting.",,,,,,,,,,0,0,0,0,,,,,,,,,,,,,,,,,,,,,,,,,,001,55,2019_Oct_23_1404,ACPT_experiment_5_30_19,3.1.0,59.92650397374263,
C,U,"did not report her food preferences, so her food preferences are unknown.",,,,,,,,,,0,1,1,2,,,,,,,,,,,,,,,,,,,,,,,,,,001,55,2019_Oct_23_1404,ACPT_experiment_5_30_19,3.1.0,59.92650397374263,
C,D,"is allergic to gluten, meaning she can’t eat wheat products. She enjoys eating dairy products. She thinks eating insects, like crickets, is disgusting.",,,,,,,,,,0,2,2,1,,,,,,,,,,,,,,,,,,,,,,,,,,001,55,2019_Oct_23_1404,ACPT_experiment_5_30_19,3.1.0,59.92650397374263,
,,,C,U,g,n,,,,,,,,,,0,0,0,7,,,,,,,,,,,,,n,1,3.6194770003239682,1311.050641275444,None,,,,,001,55,2019_Oct_23_1404,ACPT_experiment_5_30_19,3.1.0,59.92650397374263,
,,,C,G,y,b,,,,,,,,,,0,1,1,14,,,,,,,,,,,,,b,1,7.005371808148993,1317.9558790902447,None,,,,,001,55,2019_Oct_23_1404,ACPT_experiment_5_30_19,3.1.0,59.92650397374263,
,,,C,G,g,v,,,,,,,,,,0,2,2,4,,,,,,,,,,,,,v,1,4.987185961579598,1328.2303722684774,None,,,,,001,55,2019_Oct_23_1404,ACPT_experiment_5_30_19,3.1.0,59.92650397374263,
,,,C,D,d,v,,,,,,,,,,0,3,3,18,,,,,,,,,,,,,v,1,6.471616139693651,1336.5199853540034,None,,,,,001,55,2019_Oct_23_1404,ACPT_experiment_5_30_19,3.1.0,59.92650397374263,
,,,C,G,y,b,,,,,,,,,,0,4,4,5,,,,,,,,,,,,,b,1,4.253262522221121,1346.2774033604292,None,,,,,001,55,2019_Oct_23_1404,ACPT_experiment_5_30_19,3.1.0,59.92650397374263,
,,,C,D,g,b,,,,,,,,,,0,5,5,1,,,,,,,,,,,,,b,1,6.221421367878065,1353.816480125426,None,,,,,001,55,2019_Oct_23_1404,ACPT_experiment_5_30_19,3.1.0,59.92650397374263,
,,,C,U,d,n,,,,,,,,,,0,6,6,15,,,,,,,,,,,,,b,0,4.186518198372141,1363.3237217731785,None,,,,,001,55,2019_Oct_23_1404,ACPT_experiment_5_30_19,3.1.0,59.92650397374263,
,,,C,D,g,b,,,,,,,,,,0,7,7,10,,,,,,,,,,,,,b,1,2.818824933570795,1370.7960517994925,None,,,,,001,55,2019_Oct_23_1404,ACPT_experiment_5_30_19,3.1.0,59.92650397374263,
,,,C,D,y,b,,,,,,,,,,0,8,8,2,,,,,,,,,,,,,b,1,2.451886003927939,1376.8840053476597,None,,,,,001,55,2019_Oct_23_1404,ACPT_experiment_5_30_19,3.1.0,59.92650397374263,
,,,C,D,y,b,,,,,,,,,,0,9,9,11,,,,,,,,,,,,,b,1,1.7181463941469701,1382.604876283298,None,,,,,001,55,2019_Oct_23_1404,ACPT_experiment_5_30_19,3.1.0,59.92650397374263,
,,,C,U,d,n,,,,,,,,,,0,10,10,6,,,,,,,,,,,,,n,1,2.9522399286906875,1387.6088477869962,None,,,,,001,55,2019_Oct_23_1404,ACPT_experiment_5_30_19,3.1.0,59.92650397374263,
,,,C,U,g,n,,,,,,,,,,0,11,11,16,,,,,,,,,,,,,n,1,1.934843432440175,1393.830227197057,None,,,,,001,55,2019_Oct_23_1404,ACPT_experiment_5_30_19,3.1.0,59.92650397374263,
,,,C,D,d,v,,,,,,,,,,0,12,12,0,,,,,,,,,,,,,v,1,2.885537864514845,1399.0508564979227,None,,,,,001,55,2019_Oct_23_1404,ACPT_experiment_5_30_19,3.1.0,59.92650397374263,
,,,C,D,d,v,,,,,,,,,,0,13,13,9,,,,,,,,,,,,,v,1,1.7179864111003553,1405.2222134348922,None,,,,,001,55,2019_Oct_23_1404,ACPT_experiment_5_30_19,3.1.0,59.92650397374263,
,,,C,G,d,b,,,,,,,,,,0,14,14,12,,,,,,,,,,,,,b,1,1.6179094683102448,1410.2260134850603,None,,,,,001,55,2019_Oct_23_1404,ACPT_experiment_5_30_19,3.1.0,59.92650397374263,
,,,C,U,y,n,,,,,,,,,,0,15,15,8,,,,,,,,,,,,,n,1,1.3677140927866276,1415.1297408184055,None,,,,,001,55,2019_Oct_23_1404,ACPT_experiment_5_30_19,3.1.0,59.92650397374263,
,,,C,G,g,v,,,,,,,,,,0,16,16,13,,,,,,,,,,,,,v,1,2.218350598925099,1419.7999686674702,None,,,,,001,55,2019_Oct_23_1404,ACPT_experiment_5_30_19,3.1.0,59.92650397374263,
,,,C,U,y,n,,,,,,,,,,0,17,17,17,,,,,,,,,,,,,n,1,5.18729094668015,1425.3041386407058,None,,,,,001,55,2019_Oct_23_1404,ACPT_experiment_5_30_19,3.1.0,59.92650397374263,
,,,C,G,d,b,,,,,,,,,,0,18,18,3,,,,,,,,,,,,,b,1,2.3684690316586057,1433.7772543950814,None,,,,,001,55,2019_Oct_23_1404,ACPT_experiment_5_30_19,3.1.0,59.92650397374263,
,,,C,G,g,v,,,,,,,,,,0,19,19,19,,,,,,,,,,,,,v,1,1.9515088363459654,1439.4148568710152,None,,,,,001,55,2019_Oct_23_1404,ACPT_experiment_5_30_19,3.1.0,59.92650397374263,
,,,C,G,g,v,,,,,,,,,,1,0,20,13,,,,,,,,,,,,,v,1,1.0508069937350228,1444.6354949256693,None,,,,,001,55,2019_Oct_23_1404,ACPT_experiment_5_30_19,3.1.0,59.92650397374263,
,,,C,D,y,b,,,,,,,,,,1,1,21,11,,,,,,,,,,,,,b,1,1.467548948019612,1448.9890462927542,None,,,,,001,55,2019_Oct_23_1404,ACPT_experiment_5_30_19,3.1.0,59.92650397374263,
,,,C,G,d,b,,,,,,,,,,1,2,22,3,,,,,,,,,,,,,v,0,1.3009948228882422,1453.7424137095204,None,,,,,001,55,2019_Oct_23_1404,ACPT_experiment_5_30_19,3.1.0,59.92650397374263,
,,,C,D,d,v,,,,,,,,,,1,3,23,18,,,,,,,,,,,,,v,1,1.167398111174407,1458.3460590289142,None,,,,,001,55,2019_Oct_23_1404,ACPT_experiment_5_30_19,3.1.0,59.92650397374263,
,,,C,D,y,b,,,,,,,,,,1,4,24,2,,,,,,,,,,,,,b,1,2.4185720999830664,1462.7992734958498,None,,,,,001,55,2019_Oct_23_1404,ACPT_experiment_5_30_19,3.1.0,59.92650397374263,
,,,C,D,g,b,,,,,,,,,,1,5,25,1,,,,,,,,,,,,,b,1,1.6012310846454056,1468.4869491564805,None,,,,,001,55,2019_Oct_23_1404,ACPT_experiment_5_30_19,3.1.0,59.92650397374263,
,,,C,U,y,n,,,,,,,,,,1,6,26,8,,,,,,,,,,,,,n,1,1.7513166152057238,1473.3740183304344,None,,,,,001,55,2019_Oct_23_1404,ACPT_experiment_5_30_19,3.1.0,59.92650397374263,
,,,C,G,y,b,,,,,,,,,,1,7,27,5,,,,,,,,,,,,,b,1,1.1675846574453317,1478.411166997852,None,,,,,001,55,2019_Oct_23_1404,ACPT_experiment_5_30_19,3.1.0,59.92650397374263,
,,,C,U,y,n,,,,,,,,,,1,8,28,17,,,,,,,,,,,,,n,1,1.0672490250854025,1482.8814613153445,None,,,,,001,55,2019_Oct_23_1404,ACPT_experiment_5_30_19,3.1.0,59.92650397374263,
,,,C,G,d,b,,,,,,,,,,1,9,29,12,,,,,,,,,,,,,b,1,3.119055460085292,1487.2345173386911,None,,,,,001,55,2019_Oct_23_1404,ACPT_experiment_5_30_19,3.1.0,59.92650397374263,
,,,C,U,g,n,,,,,,,,,,1,10,30,16,,,,,,,,,,,,,n,1,1.5511799353480455,1493.6394003231653,None,,,,,001,55,2019_Oct_23_1404,ACPT_experiment_5_30_19,3.1.0,59.92650397374263,
,,,C,U,d,n,,,,,,,,,,1,11,31,15,,,,,,,,,,,,,n,1,1.1508806161218672,1498.4597236639984,None,,,,,001,55,2019_Oct_23_1404,ACPT_experiment_5_30_19,3.1.0,59.92650397374263,
,,,C,G,g,v,,,,,,,,,,1,12,32,4,,,,,,,,,,,,,v,1,2.3181990376269823,1502.9133477479063,None,,,,,001,55,2019_Oct_23_1404,ACPT_experiment_5_30_19,3.1.0,59.92650397374263,
,,,C,G,g,v,,,,,,,,,,1,13,33,19,,,,,,,,,,,,,v,1,1.7346605687962438,1508.5006817390822,None,,,,,001,55,2019_Oct_23_1404,ACPT_experiment_5_30_19,3.1.0,59.92650397374263,
,,,C,U,g,n,,,,,,,,,,1,14,34,7,,,,,,,,,,,,,n,1,1.2176134694873326,1513.521156550656,None,,,,,001,55,2019_Oct_23_1404,ACPT_experiment_5_30_19,3.1.0,59.92650397374263,
,,,C,G,y,b,,,,,,,,,,1,15,35,14,,,,,,,,,,,,,b,1,1.1006133387818409,1518.0415080545426,None,,,,,001,55,2019_Oct_23_1404,ACPT_experiment_5_30_19,3.1.0,59.92650397374263,
,,,C,D,d,v,,,,,,,,,,1,16,36,0,,,,,,,,,,,,,v,1,1.717990033357637,1522.4279202415073,None,,,,,001,55,2019_Oct_23_1404,ACPT_experiment_5_30_19,3.1.0,59.92650397374263,
,,,C,D,g,b,,,,,,,,,,1,17,37,10,,,,,,,,,,,,,b,1,1.4344161569606513,1527.4150669619612,None,,,,,001,55,2019_Oct_23_1404,ACPT_experiment_5_30_19,3.1.0,59.92650397374263,
,,,C,D,d,v,,,,,,,,,,1,18,38,9,,,,,,,,,,,,,v,1,2.5352598109602695,1532.1186328633557,None,,,,,001,55,2019_Oct_23_1404,ACPT_experiment_5_30_19,3.1.0,59.92650397374263,
,,,C,U,d,n,,,,,,,,,,1,19,39,6,,,,,,,,,,,,,n,1,1.1509111034574744,1537.939715369028,None,,,,,001,55,2019_Oct_23_1404,ACPT_experiment_5_30_19,3.1.0,59.92650397374263,
,,,C,U,g,n,,,,,,,,,,2,0,40,16,,,,,,,,,,,,,n,1,1.0003691684287332,1542.3766864250756,None,,,,,001,55,2019_Oct_23_1404,ACPT_experiment_5_30_19,3.1.0,59.92650397374263,
,,,C,G,y,b,,,,,,,,,,2,1,41,14,,,,,,,,,,,,,b,1,1.1675638294636883,1546.663002652398,None,,,,,001,55,2019_Oct_23_1404,ACPT_experiment_5_30_19,3.1.0,59.92650397374263,
,,,C,G,d,b,,,,,,,,,,2,2,42,3,,,,,,,,,,,,,b,1,2.1513964859877888,1551.1499880314568,None,,,,,001,55,2019_Oct_23_1404,ACPT_experiment_5_30_19,3.1.0,59.92650397374263,
,,,C,U,y,n,,,,,,,,,,2,3,43,8,,,,,,,,,,,,,n,1,1.2009661768661317,1556.5872066084466,None,,,,,001,55,2019_Oct_23_1404,ACPT_experiment_5_30_19,3.1.0,59.92650397374263,
,,,C,D,d,v,,,,,,,,,,2,4,44,9,,,,,,,,,,,,,v,1,4.502987909809235,1561.091053295182,None,,,,,001,55,2019_Oct_23_1404,ACPT_experiment_5_30_19,3.1.0,59.92650397374263,
,,,C,D,g,b,,,,,,,,,,2,5,45,10,,,,,,,,,,,,,b,1,1.5178500330985116,1568.8631975902317,None,,,,,001,55,2019_Oct_23_1404,ACPT_experiment_5_30_19,3.1.0,59.92650397374263,
,,,C,G,y,b,,,,,,,,,,2,6,46,5,,,,,,,,,,,,,b,1,0.8840231570939068,1573.6835233459024,None,,,,,001,55,2019_Oct_23_1404,ACPT_experiment_5_30_19,3.1.0,59.92650397374263,
,,,C,U,d,n,,,,,,,,,,2,7,47,15,,,,,,,,,,,,,n,1,0.933800825934668,1577.8869656377537,None,,,,,001,55,2019_Oct_23_1404,ACPT_experiment_5_30_19,3.1.0,59.92650397374263,
,,,C,D,d,v,,,,,,,,,,2,8,48,18,,,,,,,,,,,,,v,1,2.1683438222844416,1582.10659036582,None,,,,,001,55,2019_Oct_23_1404,ACPT_experiment_5_30_19,3.1.0,59.92650397374263,
,,,C,D,y,b,,,,,,,,,,2,9,49,11,,,,,,,,,,,,,b,1,0.9841148907707975,1587.5607116045958,None,,,,,001,55,2019_Oct_23_1404,ACPT_experiment_5_30_19,3.1.0,59.92650397374263,
,,,C,U,g,n,,,,,,,,,,2,10,50,7,,,,,,,,,,,,,n,1,0.7672856400731689,1591.830628060241,None,,,,,001,55,2019_Oct_23_1404,ACPT_experiment_5_30_19,3.1.0,59.92650397374263,
,,,C,G,g,v,,,,,,,,,,2,11,51,13,,,,,,,,,,,,,v,1,2.2517324202017335,1595.8670417112025,None,,,,,001,55,2019_Oct_23_1404,ACPT_experiment_5_30_19,3.1.0,59.92650397374263,
,,,C,D,g,b,,,,,,,,,,2,12,52,1,,,,,,,,,,,,,b,1,2.051567969701864,1601.4045808278115,None,,,,,001,55,2019_Oct_23_1404,ACPT_experiment_5_30_19,3.1.0,59.92650397374263,
,,,C,G,g,v,,,,,,,,,,2,13,53,19,,,,,,,,,,,,,v,1,2.7354233558944543,1606.7419696810994,None,,,,,001,55,2019_Oct_23_1404,ACPT_experiment_5_30_19,3.1.0,59.92650397374263,
,,,C,D,d,v,,,,,,,,,,2,14,54,0,,,,,,,,,,,,,v,1,2.2183548248922307,1612.7632175428353,None,,,,,001,55,2019_Oct_23_1404,ACPT_experiment_5_30_19,3.1.0,59.92650397374263,
,,,C,D,y,b,,,,,,,,,,2,15,55,2,,,,,,,,,,,,,b,1,1.1842401001431426,1618.2507115472436,None,,,,,001,55,2019_Oct_23_1404,ACPT_experiment_5_30_19,3.1.0,59.92650397374263,
,,,C,G,g,v,,,,,,,,,,2,16,56,4,,,,,,,,,,,,,v,1,2.418267528482829,1622.7377035671088,None,,,,,001,55,2019_Oct_23_1404,ACPT_experiment_5_30_19,3.1.0,59.92650397374263,
,,,C,U,y,n,,,,,,,,,,2,17,57,17,,,,,,,,,,,,,n,1,1.0174435856024502,1628.4417940921558,None,,,,,001,55,2019_Oct_23_1404,ACPT_experiment_5_30_19,3.1.0,59.92650397374263,
,,,C,U,d,n,,,,,,,,,,2,18,58,6,,,,,,,,,,,,,n,1,0.750555337381229,1632.7283850073545,None,,,,,001,55,2019_Oct_23_1404,ACPT_experiment_5_30_19,3.1.0,59.92650397374263,
,,,C,G,d,b,,,,,,,,,,2,19,59,12,,,,,,,,,,,,,b,1,1.6012537237547804,1636.7647437207415,None,,,,,001,55,2019_Oct_23_1404,ACPT_experiment_5_30_19,3.1.0,59.92650397374263,
,,,C,D,d,v,,,,,,,,,,3,0,60,18,,,,,,,,,,,,,v,1,1.0007884447550168,1641.6517981038087,None,,,,,001,55,2019_Oct_23_1404,ACPT_experiment_5_30_19,3.1.0,59.92650397374263,
,,,C,U,g,n,,,,,,,,,,3,1,61,7,,,,,,,,,,,,,n,1,1.0837840277163195,1645.9554592102068,None,,,,,001,55,2019_Oct_23_1404,ACPT_experiment_5_30_19,3.1.0,59.92650397374263,
,,,C,D,g,b,,,,,,,,,,3,2,62,10,,,,,,,,,,,,,b,1,2.0682481644980726,1650.3250695548923,None,,,,,001,55,2019_Oct_23_1404,ACPT_experiment_5_30_19,3.1.0,59.92650397374263,
,,,C,U,y,n,,,,,,,,,,3,3,63,8,,,,,,,,,,,,,n,1,1.5345244926502346,1655.679118076845,None,,,,,001,55,2019_Oct_23_1404,ACPT_experiment_5_30_19,3.1.0,59.92650397374263,
,,,C,G,y,b,,,,,,,,,,3,4,64,5,,,,,,,,,,,,,b,1,2.3017367820029904,1660.4994836773512,None,,,,,001,55,2019_Oct_23_1404,ACPT_experiment_5_30_19,3.1.0,59.92650397374263,
,,,C,U,g,n,,,,,,,,,,3,5,65,16,,,,,,,,,,,,,n,1,0.9507306546547625,1666.087037116973,None,,,,,001,55,2019_Oct_23_1404,ACPT_experiment_5_30_19,3.1.0,59.92650397374263,
,,,C,U,y,n,,,,,,,,,,3,6,66,17,,,,,,,,,,,,,n,1,1.2172020413818245,1670.3406374147235,None,,,,,001,55,2019_Oct_23_1404,ACPT_experiment_5_30_19,3.1.0,59.92650397374263,
,,,C,G,d,b,,,,,,,,,,3,7,67,3,,,,,,,,,,,,,b,1,1.884782020079001,1674.8436929400086,None,,,,,001,55,2019_Oct_23_1404,ACPT_experiment_5_30_19,3.1.0,59.92650397374263,
,,,C,U,d,n,,,,,,,,,,3,8,68,15,,,,,,,,,,,,,n,1,1.3510100514613441,1680.014315766086,None,,,,,001,55,2019_Oct_23_1404,ACPT_experiment_5_30_19,3.1.0,59.92650397374263,
,,,C,G,g,v,,,,,,,,,,3,9,69,19,,,,,,,,,,,,,v,1,5.303814750495803,1684.6680602296947,None,,,,,001,55,2019_Oct_23_1404,ACPT_experiment_5_30_19,3.1.0,59.92650397374263,
,,,C,D,d,v,,,,,,,,,,3,10,70,9,,,,,,,,,,,,,v,1,1.9014643278569565,1693.2576689986963,None,,,,,001,55,2019_Oct_23_1404,ACPT_experiment_5_30_19,3.1.0,59.92650397374263,
,,,C,D,y,b,,,,,,,,,,3,11,71,11,,,,,,,,,,,,,b,1,0.9507372954576567,1698.42827009123,None,,,,,001,55,2019_Oct_23_1404,ACPT_experiment_5_30_19,3.1.0,59.92650397374263,
,,,C,G,d,b,,,,,,,,,,3,12,72,12,,,,,,,,,,,,,b,1,1.6675135706354922,1702.6818987633305,None,,,,,001,55,2019_Oct_23_1404,ACPT_experiment_5_30_19,3.1.0,59.92650397374263,
,,,C,G,g,v,,,,,,,,,,3,13,73,13,,,,,,,,,,,,,v,1,1.0174523393907293,1707.618579284128,None,,,,,001,55,2019_Oct_23_1404,ACPT_experiment_5_30_19,3.1.0,59.92650397374263,
,,,C,D,g,b,,,,,,,,,,3,14,74,1,,,,,,,,,,,,,b,1,2.23479444140321,1711.9387753931587,None,,,,,001,55,2019_Oct_23_1404,ACPT_experiment_5_30_19,3.1.0,59.92650397374263,
,,,C,U,d,n,,,,,,,,,,3,15,75,6,,,,,,,,,,,,,n,1,1.467791035574919,1717.4593889070165,None,,,,,001,55,2019_Oct_23_1404,ACPT_experiment_5_30_19,3.1.0,59.92650397374263,
,,,C,G,g,v,,,,,,,,,,3,16,76,4,,,,,,,,,,,,,v,1,2.4352030924419523,1722.2129917705315,None,,,,,001,55,2019_Oct_23_1404,ACPT_experiment_5_30_19,3.1.0,59.92650397374263,
,,,C,D,d,v,,,,,,,,,,3,17,77,0,,,,,,,,,,,,,v,1,1.9514994788478361,1727.9340075964792,None,,,,,001,55,2019_Oct_23_1404,ACPT_experiment_5_30_19,3.1.0,59.92650397374263,
,,,C,G,y,b,,,,,,,,,,3,18,78,14,,,,,,,,,,,,,n,0,1.4010768972075311,1733.1713140735883,None,,,,,001,55,2019_Oct_23_1404,ACPT_experiment_5_30_19,3.1.0,59.92650397374263,
,,,C,D,y,b,,,,,,,,,,3,19,79,2,,,,,,,,,,,,,b,1,0.9837469297599455,1737.8752461248623,None,,,,,001,55,2019_Oct_23_1404,ACPT_experiment_5_30_19,3.1.0,59.92650397374263,
,,,C,G,d,b,,,,,,,,,,4,0,80,3,,,,,,,,,,,,,b,1,1.7847192644658207,1742.1447780174822,None,,,,,001,55,2019_Oct_23_1404,ACPT_experiment_5_30_19,3.1.0,59.92650397374263,
,,,C,D,y,b,,,,,,,,,,4,1,81,2,,,,,,,,,,,,,b,1,0.9007196520469734,1747.2152946208553,None,,,,,001,55,2019_Oct_23_1404,ACPT_experiment_5_30_19,3.1.0,59.92650397374263,
,,,C,U,d,n,,,,,,,,,,4,2,82,15,,,,,,,,,,,,,n,1,1.2840547311061528,1751.4187794742356,None,,,,,001,55,2019_Oct_23_1404,ACPT_experiment_5_30_19,3.1.0,59.92650397374263,
,,,C,G,g,v,,,,,,,,,,4,3,83,19,,,,,,,,,,,,,v,1,2.018213617211586,1755.9886454295702,None,,,,,001,55,2019_Oct_23_1404,ACPT_experiment_5_30_19,3.1.0,59.92650397374263,
,,,C,D,d,v,,,,,,,,,,4,4,84,9,,,,,,,,,,,,,v,1,1.150884842088999,1761.2926778173824,None,,,,,001,55,2019_Oct_23_1404,ACPT_experiment_5_30_19,3.1.0,59.92650397374263,
,,,C,G,g,v,,,,,,,,,,4,5,85,4,,,,,,,,,,,,,v,1,2.1514022212286363,1765.7462994864545,None,,,,,001,55,2019_Oct_23_1404,ACPT_experiment_5_30_19,3.1.0,59.92650397374263,
,,,C,D,y,b,,,,,,,,,,4,6,86,11,,,,,,,,,,,,,b,1,0.9674099438816484,1771.1835207801378,None,,,,,001,55,2019_Oct_23_1404,ACPT_experiment_5_30_19,3.1.0,59.92650397374263,
,,,C,D,d,v,,,,,,,,,,4,7,87,18,,,,,,,,,,,,,v,1,1.5006983410967223,1775.4538501731586,None,,,,,001,55,2019_Oct_23_1404,ACPT_experiment_5_30_19,3.1.0,59.92650397374263,
,,,C,D,d,v,,,,,,,,,,4,8,88,0,,,,,,,,,,,,,v,1,1.1342318142305885,1780.2403690959836,None,,,,,001,55,2019_Oct_23_1404,ACPT_experiment_5_30_19,3.1.0,59.92650397374263,
,,,C,G,d,b,,,,,,,,,,4,9,89,12,,,,,,,,,,,,,b,1,0.783770232948882,1784.6772351065592,None,,,,,001,55,2019_Oct_23_1404,ACPT_experiment_5_30_19,3.1.0,59.92650397374263,
,,,C,U,g,n,,,,,,,,,,4,10,90,7,,,,,,,,,,,,,n,1,1.1008889322220057,1788.7468530881706,None,,,,,001,55,2019_Oct_23_1404,ACPT_experiment_5_30_19,3.1.0,59.92650397374263,
,,,C,U,y,n,,,,,,,,,,4,11,91,8,,,,,,,,,,,,,n,1,0.4672126817640674,1793.1168516181388,None,,,,,001,55,2019_Oct_23_1404,ACPT_experiment_5_30_19,3.1.0,59.92650397374263,
,,,C,G,y,b,,,,,,,,,,4,12,92,5,,,,,,,,,,,,,b,1,1.034133741603,1796.8696808277818,None,,,,,001,55,2019_Oct_23_1404,ACPT_experiment_5_30_19,3.1.0,59.92650397374263,
,,,C,D,g,b,,,,,,,,,,4,13,93,10,,,,,,,,,,,,,b,1,1.8678114409594855,1801.2065969764408,None,,,,,001,55,2019_Oct_23_1404,ACPT_experiment_5_30_19,3.1.0,59.92650397374263,
,,,C,U,y,n,,,,,,,,,,4,14,94,17,,,,,,,,,,,,,n,1,1.1175160005695943,1806.36024016776,None,,,,,001,55,2019_Oct_23_1404,ACPT_experiment_5_30_19,3.1.0,59.92650397374263,
,,,C,U,d,n,,,,,,,,,,4,15,95,6,,,,,,,,,,,,,n,1,0.4336621236507199,1810.7469062146156,None,,,,,001,55,2019_Oct_23_1404,ACPT_experiment_5_30_19,3.1.0,59.92650397374263,
,,,C,D,g,b,,,,,,,,,,4,16,96,1,,,,,,,,,,,,,b,1,2.33512131997486,1814.466387108867,None,,,,,001,55,2019_Oct_23_1404,ACPT_experiment_5_30_19,3.1.0,59.92650397374263,
,,,C,G,g,v,,,,,,,,,,4,17,97,13,,,,,,,,,,,,,v,1,0.80068074295923,1820.0873166345227,None,,,,,001,55,2019_Oct_23_1404,ACPT_experiment_5_30_19,3.1.0,59.92650397374263,
,,,C,U,g,n,,,,,,,,,,4,18,98,16,,,,,,,,,,,,,n,1,0.5170754736645904,1824.1737675494624,None,,,,,001,55,2019_Oct_23_1404,ACPT_experiment_5_30_19,3.1.0,59.92650397374263,
,,,C,G,y,b,,,,,,,,,,4,19,99,14,,,,,,,,,,,,,b,1,0.9340447246177064,1827.97665213437,None,,,,,001,55,2019_Oct_23_1404,ACPT_experiment_5_30_19,3.1.0,59.92650397374263,
,,,C,U,g,n,,,,,,,,,,5,0,100,16,,,,,,,,,,,,,n,1,0.3669772652028769,1832.1964902737855,None,,,,,001,55,2019_Oct_23_1404,ACPT_experiment_5_30_19,3.1.0,59.92650397374263,
,,,C,D,d,v,,,,,,,,,,5,1,101,0,,,,,,,,,,,,,v,1,1.4677868096077873,1835.8492893281327,None,,,,,001,55,2019_Oct_23_1404,ACPT_experiment_5_30_19,3.1.0,59.92650397374263,
,,,C,U,d,n,,,,,,,,,,5,2,102,15,,,,,,,,,,,,,n,1,0.38363240604667226,1840.602894908341,None,,,,,001,55,2019_Oct_23_1404,ACPT_experiment_5_30_19,3.1.0,59.92650397374263,
,,,C,G,g,v,,,,,,,,,,5,3,103,4,,,,,,,,,,,,,v,1,2.284819027478079,1844.2893015713635,None,,,,,001,55,2019_Oct_23_1404,ACPT_experiment_5_30_19,3.1.0,59.92650397374263,
,,,C,G,g,v,,,,,,,,,,5,4,104,19,,,,,,,,,,,,,v,1,0.5170676254383579,1849.843248006022,None,,,,,001,55,2019_Oct_23_1404,ACPT_experiment_5_30_19,3.1.0,59.92650397374263,
,,,C,G,y,b,,,,,,,,,,5,5,105,14,,,,,,,,,,,,,b,1,0.7002744765777607,1853.6464057695302,None,,,,,001,55,2019_Oct_23_1404,ACPT_experiment_5_30_19,3.1.0,59.92650397374263,
,,,C,D,y,b,,,,,,,,,,5,6,106,11,,,,,,,,,,,,,b,1,1.0674859811078932,1857.632497507435,None,,,,,001,55,2019_Oct_23_1404,ACPT_experiment_5_30_19,3.1.0,59.92650397374263,
,,,C,U,d,n,,,,,,,,,,5,7,107,6,,,,,,,,,,,,,n,1,0.5003886380654876,1861.985800749866,None,,,,,001,55,2019_Oct_23_1404,ACPT_experiment_5_30_19,3.1.0,59.92650397374263,
,,,C,U,y,n,,,,,,,,,,5,8,108,8,,,,,,,,,,,,,n,1,0.33359574577843887,1865.7553261526082,None,,,,,001,55,2019_Oct_23_1404,ACPT_experiment_5_30_19,3.1.0,59.92650397374263,
,,,C,D,y,b,,,,,,,,,,5,9,109,2,,,,,,,,,,,,,b,1,0.7305746621277649,1869.3947476056128,None,,,,,001,55,2019_Oct_23_1404,ACPT_experiment_5_30_19,3.1.0,59.92650397374263,
,,,C,G,d,b,,,,,,,,,,5,10,110,12,,,,,,,,,,,,,b,1,1.2843173447909066,1873.4111543199506,None,,,,,001,55,2019_Oct_23_1404,ACPT_experiment_5_30_19,3.1.0,59.92650397374263,
,,,C,U,g,n,,,,,,,,,,5,11,111,7,,,,,,,,,,,,,n,1,1.5341486834149691,1877.998315046465,None,,,,,001,55,2019_Oct_23_1404,ACPT_experiment_5_30_19,3.1.0,59.92650397374263,
,,,C,D,d,v,,,,,,,,,,5,12,112,18,,,,,,,,,,,,,v,1,1.7846914938199916,1882.8182981969294,None,,,,,001,55,2019_Oct_23_1404,ACPT_experiment_5_30_19,3.1.0,59.92650397374263,
,,,C,G,y,b,,,,,,,,,,5,13,113,5,,,,,,,,,,,,,b,1,0.8673393400422356,1887.8887933686128,None,,,,,001,55,2019_Oct_23_1404,ACPT_experiment_5_30_19,3.1.0,59.92650397374263,
,,,C,G,g,v,,,,,,,,,,5,14,114,13,,,,,,,,,,,,,v,1,0.7501559834709042,1892.0590261982798,None,,,,,001,55,2019_Oct_23_1404,ACPT_experiment_5_30_19,3.1.0,59.92650397374263,
,,,C,D,g,b,,,,,,,,,,5,15,115,10,,,,,,,,,,,,,b,1,1.4010666341491742,1896.095045626862,None,,,,,001,55,2019_Oct_23_1404,ACPT_experiment_5_30_19,3.1.0,59.92650397374263,
,,,C,G,d,b,,,,,,,,,,5,16,116,3,,,,,,,,,,,,,b,1,1.600956698624941,1900.8155476959255,None,,,,,001,55,2019_Oct_23_1404,ACPT_experiment_5_30_19,3.1.0,59.92650397374263,
,,,C,D,d,v,,,,,,,,,,5,17,117,9,,,,,,,,,,,,,v,1,1.0508344625231985,1905.7023041483008,None,,,,,001,55,2019_Oct_23_1404,ACPT_experiment_5_30_19,3.1.0,59.92650397374263,
,,,C,D,g,b,,,,,,,,,,5,18,118,1,,,,,,,,,,,,,b,1,0.833960235460836,1910.038967342629,None,,,,,001,55,2019_Oct_23_1404,ACPT_experiment_5_30_19,3.1.0,59.92650397374263,
,,,C,U,y,n,,,,,,,,,,5,19,119,17,0,0,0,0,0,0,0,0,,,,,n,1,0.4503486573958071,1914.1587529894932,None,,,,,001,55,2019_Oct_23_1404,ACPT_experiment_5_30_19,3.1.0,59.92650397374263,
,,,C,U,y,n,R,U,g,L,u,,,,,5,19,119,17,0,0,0,0,,,,,0,0,0,10,,,,,,up,1.30098878579156,1995.9875539225868,None,001,55,2019_Oct_23_1404,ACPT_experiment_5_30_19,3.1.0,59.92650397374263,
,,,C,U,y,n,R,D,d,R,c ,,,,,5,19,119,17,0,0,0,0,,,,,0,1,1,1,,,,,,up,1.0341159321651503,1998.572848582684,None,001,55,2019_Oct_23_1404,ACPT_experiment_5_30_19,3.1.0,59.92650397374263,
,,,C,U,y,n,L,D,g,R,i,,,,,5,19,119,17,0,0,0,0,,,,,0,2,2,15,,,,,,up,0.7339095540373819,2000.891280652224,None,001,55,2019_Oct_23_1404,ACPT_experiment_5_30_19,3.1.0,59.92650397374263,
,,,C,U,y,n,L,U,y,R,u,,,,,5,19,119,17,0,0,0,0,,,,,0,3,3,25,,,,,,down,0.7338848019389843,2002.9094755544393,None,001,55,2019_Oct_23_1404,ACPT_experiment_5_30_19,3.1.0,59.92650397374263,
,,,C,U,y,n,R,U,y,R,u,,,,,5,19,119,17,0,0,0,0,,,,,0,4,4,31,,,,,,down,0.7505571485089604,2004.9443584996734,None,001,55,2019_Oct_23_1404,ACPT_experiment_5_30_19,3.1.0,59.92650397374263,
,,,C,U,y,n,L,U,d,R,u,,,,,5,19,119,17,0,0,0,0,,,,,0,5,5,21,,,,,,up,0.6671582875314925,2006.995917715587,None,001,55,2019_Oct_23_1404,ACPT_experiment_5_30_19,3.1.0,59.92650397374263,
,,,C,U,y,n,L,U,y,L,u,,,,,5,19,119,17,0,0,0,0,,,,,0,6,6,24,,,,,,down,0.7005509755763342,2008.9306911177118,None,001,55,2019_Oct_23_1404,ACPT_experiment_5_30_19,3.1.0,59.92650397374263,
,,,C,U,y,n,L,G,d,R,i,,,,,5,19,119,17,0,0,0,0,,,,,0,7,7,17,,,,,,up,0.5834946998838859,2010.9325088873593,None,001,55,2019_Oct_23_1404,ACPT_experiment_5_30_19,3.1.0,59.92650397374263,
,,,C,U,y,n,L,D,d,L,c ,,,,,5,19,119,17,0,0,0,0,,,,,0,8,8,12,,,,,,up,0.8172583071209374,2012.800341760012,None,001,55,2019_Oct_23_1404,ACPT_experiment_5_30_19,3.1.0,59.92650397374263,
,,,C,U,y,n,L,G,g,R,c ,,,,,5,19,119,17,0,0,0,0,,,,,0,9,9,19,,,,,,up,0.7338666906543949,2014.9019204304677,None,001,55,2019_Oct_23_1404,ACPT_experiment_5_30_19,3.1.0,59.92650397374263,
,,,C,U,y,n,L,G,d,L,i,,,,,5,19,119,17,0,0,0,0,,,,,0,10,10,16,,,,,,up,0.633830196406052,2016.9034158191826,None,001,55,2019_Oct_23_1404,ACPT_experiment_5_30_19,3.1.0,59.92650397374263,
,,,C,U,y,n,L,D,y,R,y,,,,,5,19,119,17,0,0,0,0,,,,,0,11,11,33,,,,,,down,0.6338141981032095,2018.8215588325584,None,001,55,2019_Oct_23_1404,ACPT_experiment_5_30_19,3.1.0,59.92650397374263,
,,,C,U,y,n,L,G,y,R,y,,,,,5,19,119,17,0,0,0,0,,,,,0,12,12,35,,,,,,down,0.7837370289234968,2020.7565139512772,None,001,55,2019_Oct_23_1404,ACPT_experiment_5_30_19,3.1.0,59.92650397374263,
,,,C,U,y,n,R,G,g,L,c ,,,,,5,19,119,17,0,0,0,0,,,,,0,13,13,6,,,,,,up,0.6171089493618638,2022.841275988565,None,001,55,2019_Oct_23_1404,ACPT_experiment_5_30_19,3.1.0,59.92650397374263,
,,,C,U,y,n,L,G,g,L,c ,,,,,5,19,119,17,0,0,0,0,,,,,0,14,14,18,,,,,,up,0.5337357460375642,2024.7427179791666,None,001,55,2019_Oct_23_1404,ACPT_experiment_5_30_19,3.1.0,59.92650397374263,
,,,C,U,y,n,L,G,y,L,y,,,,,5,19,119,17,0,0,0,0,,,,,0,15,15,34,,,,,,down,0.5170833218908228,2026.560767447736,None,001,55,2019_Oct_23_1404,ACPT_experiment_5_30_19,3.1.0,59.92650397374263,
,,,C,U,y,n,R,G,g,R,c ,,,,,5,19,119,17,0,0,0,0,,,,,0,16,16,7,,,,,,up,0.5670979467540747,2028.3621382307865,None,001,55,2019_Oct_23_1404,ACPT_experiment_5_30_19,3.1.0,59.92650397374263,
,,,C,U,y,n,R,U,d,R,u,,,,,5,19,119,17,0,0,0,0,,,,,0,17,17,9,,,,,,up,0.5837512764701387,2030.2302388486532,None,001,55,2019_Oct_23_1404,ACPT_experiment_5_30_19,3.1.0,59.92650397374263,
,,,C,U,y,n,L,U,d,L,u,,,,,5,19,119,17,0,0,0,0,,,,,0,18,18,20,,,,,,up,0.5504473337314266,2032.0982981124107,None,001,55,2019_Oct_23_1404,ACPT_experiment_5_30_19,3.1.0,59.92650397374263,
,,,C,U,y,n,R,D,y,L,y,,,,,5,19,119,17,0,0,0,0,,,,,0,19,19,26,,,,,,down,0.7171140507089149,2033.9497903769297,None,001,55,2019_Oct_23_1404,ACPT_experiment_5_30_19,3.1.0,59.92650397374263,
,,,C,U,y,n,R,U,d,L,u,,,,,5,19,119,17,0,0,0,0,,,,,0,20,20,8,,,,,,up,0.6337991053624137,2035.9845933306387,None,001,55,2019_Oct_23_1404,ACPT_experiment_5_30_19,3.1.0,59.92650397374263,
,,,C,U,y,n,R,U,y,L,u,,,,,5,19,119,17,0,0,0,0,,,,,0,21,21,30,,,,,,down,0.6671610042249085,2037.9193923904204,None,001,55,2019_Oct_23_1404,ACPT_experiment_5_30_19,3.1.0,59.92650397374263,
,,,C,U,y,n,R,G,y,L,y,,,,,5,19,119,17,0,0,0,0,,,,,0,22,22,28,,,,,,down,0.5336783936254506,2039.904302366751,None,001,55,2019_Oct_23_1404,ACPT_experiment_5_30_19,3.1.0,59.92650397374263,
,,,C,U,y,n,R,D,g,R,i,,,,,5,19,119,17,0,0,0,0,,,,,0,23,23,3,,,,,,up,0.6504949966074491,2041.722280899441,None,001,55,2019_Oct_23_1404,ACPT_experiment_5_30_19,3.1.0,59.92650397374263,
,,,C,U,y,n,L,D,y,L,y,,,,,5,19,119,17,0,0,0,0,,,,,0,24,24,32,,,,,,down,0.5670891929657955,2043.6570808647884,None,001,55,2019_Oct_23_1404,ACPT_experiment_5_30_19,3.1.0,59.92650397374263,
,,,C,U,y,n,R,D,d,L,c,,,,,5,19,119,17,0,0,0,0,,,,,0,25,25,0,,,,,,up,0.8339554057820351,2045.5084979674612,None,001,55,2019_Oct_23_1404,ACPT_experiment_5_30_19,3.1.0,59.92650397374263,
,,,C,U,y,n,R,G,d,R,i,,,,,5,19,119,17,0,0,0,0,,,,,0,26,26,5,,,,,,up,0.6338120851178246,2047.6267664920633,None,001,55,2019_Oct_23_1404,ACPT_experiment_5_30_19,3.1.0,59.92650397374263,
,,,C,U,y,n,R,G,y,R,y,,,,,5,19,119,17,0,0,0,0,,,,,0,27,27,29,,,,,,down,0.7001404530419677,2049.5786170280517,None,001,55,2019_Oct_23_1404,ACPT_experiment_5_30_19,3.1.0,59.92650397374263,
,,,C,U,y,n,R,U,g,R,u,,,,,5,19,119,17,0,0,0,0,,,,,0,28,28,11,,,,,,up,0.6671534578490537,2051.5797686041406,None,001,55,2019_Oct_23_1404,ACPT_experiment_5_30_19,3.1.0,59.92650397374263,
,,,C,U,y,n,L,U,g,L,u,,,,,5,19,119,17,0,0,0,0,,,,,0,29,29,22,,,,,,up,0.6171300791975227,2053.531245443879,None,001,55,2019_Oct_23_1404,ACPT_experiment_5_30_19,3.1.0,59.92650397374263,
,,,C,U,y,n,L,D,g,L,i,,,,,5,19,119,17,0,0,0,0,,,,,0,30,30,14,,,,,,up,0.6004779569011589,2055.415984600575,None,001,55,2019_Oct_23_1404,ACPT_experiment_5_30_19,3.1.0,59.92650397374263,
,,,C,U,y,n,R,D,y,R,y,,,,,5,19,119,17,0,0,0,0,,,,,0,31,31,27,,,,,,down,0.65048624281917,2057.3007753744423,None,001,55,2019_Oct_23_1404,ACPT_experiment_5_30_19,3.1.0,59.92650397374263,
,,,C,U,y,n,R,D,g,L,i,,,,,5,19,119,17,0,0,0,0,,,,,0,32,32,2,,,,,,up,0.6671721728489501,2059.2355759435013,None,001,55,2019_Oct_23_1404,ACPT_experiment_5_30_19,3.1.0,59.92650397374263,
,,,C,U,y,n,L,D,d,R,c ,,,,,5,19,119,17,0,0,0,0,,,,,0,33,33,13,,,,,,up,0.7172242277119949,2061.187043425736,None,001,55,2019_Oct_23_1404,ACPT_experiment_5_30_19,3.1.0,59.92650397374263,
,,,C,U,y,n,L,U,g,R,u,,,,,5,19,119,17,0,0,0,0,,,,,0,34,34,23,,,,,,up,0.6004408287590195,2063.1885922427537,None,001,55,2019_Oct_23_1404,ACPT_experiment_5_30_19,3.1.0,59.92650397374263,
,,,C,U,y,n,R,G,d,L,i,,,,,5,19,119,17,0,0,0,0,,,,,0,35,35,4,,,,,,up,0.6171614720988146,2065.0733449829168,None,001,55,2019_Oct_23_1404,ACPT_experiment_5_30_19,3.1.0,59.92650397374263,
,,,C,U,y,n,L,G,g,L,c ,,,,,5,19,119,17,0,0,0,0,,,,,1,0,36,18,,,,,,up,0.5670897966738266,2066.9914671683073,None,001,55,2019_Oct_23_1404,ACPT_experiment_5_30_19,3.1.0,59.92650397374263,
,,,C,U,y,n,R,U,y,L,u,,,,,5,19,119,17,0,0,0,0,,,,,1,1,37,30,,,,,,down,0.5169049256983271,2068.893057067762,None,001,55,2019_Oct_23_1404,ACPT_experiment_5_30_19,3.1.0,59.92650397374263,
,,,C,U,y,n,L,G,d,R,i,,,,,5,19,119,17,0,0,0,0,,,,,1,2,38,17,,,,,,up,0.6171258532303909,2070.710959834898,None,001,55,2019_Oct_23_1404,ACPT_experiment_5_30_19,3.1.0,59.92650397374263,
,,,C,U,y,n,R,G,g,R,c ,,,,,5,19,119,17,0,0,0,0,,,,,1,3,39,7,,,,,,up,0.6671655320424179,2072.612400618076,None,001,55,2019_Oct_23_1404,ACPT_experiment_5_30_19,3.1.0,59.92650397374263,
,,,C,U,y,n,R,D,d,L,c,,,,,5,19,119,17,0,0,0,0,,,,,1,4,40,0,,,,,,up,0.5003844120947178,2074.5639067377306,None,001,55,2019_Oct_23_1404,ACPT_experiment_5_30_19,3.1.0,59.92650397374263,
,,,C,U,y,n,R,D,d,R,c ,,,,,5,19,119,17,0,0,0,0,,,,,1,5,41,1,,,,,,up,0.6001899874172523,2076.3488366968522,None,001,55,2019_Oct_23_1404,ACPT_experiment_5_30_19,3.1.0,59.92650397374263,
,,,C,U,y,n,L,D,d,R,c ,,,,,5,19,119,17,0,0,0,0,,,,,1,6,42,13,,,,,,up,0.5003810916969087,2078.233330143732,None,001,55,2019_Oct_23_1404,ACPT_experiment_5_30_19,3.1.0,59.92650397374263,
,,,C,U,y,n,R,G,y,R,y,,,,,5,19,119,17,0,0,0,0,,,,,1,7,43,29,,,,,,down,0.6171883371753211,2080.0179986965886,None,001,55,2019_Oct_23_1404,ACPT_experiment_5_30_19,3.1.0,59.92650397374263,
,,,C,U,y,n,L,D,y,L,y,,,,,5,19,119,17,0,0,0,0,,,,,1,8,44,32,,,,,,down,0.5504108092973183,2081.9194669485587,None,001,55,2019_Oct_23_1404,ACPT_experiment_5_30_19,3.1.0,59.92650397374263,
,,,C,U,y,n,L,G,y,R,y,,,,,5,19,119,17,0,0,0,0,,,,,1,9,45,35,,,,,,down,0.5837766322729294,2083.754184839585,None,001,55,2019_Oct_23_1404,ACPT_experiment_5_30_19,3.1.0,59.92650397374263,
,,,C,U,y,n,R,G,d,L,i,,,,,5,19,119,17,0,0,0,0,,,,,1,10,46,4,,,,,,up,0.5837745192875445,2085.6222736851123,None,001,55,2019_Oct_23_1404,ACPT_experiment_5_30_19,3.1.0,59.92650397374263,
,,,C,U,y,n,R,G,d,R,i,,,,,5,19,119,17,0,0,0,0,,,,,1,11,47,5,,,,,,up,0.7839486291413778,2087.4736805247194,None,001,55,2019_Oct_23_1404,ACPT_experiment_5_30_19,3.1.0,59.92650397374263,
,,,C,U,y,n,L,G,y,L,y,,,,,5,19,119,17,0,0,0,0,,,,,1,12,48,34,,,,,,down,0.7334271900544991,2089.5590284621903,None,001,55,2019_Oct_23_1404,ACPT_experiment_5_30_19,3.1.0,59.92650397374263,
,,,C,U,y,n,L,U,y,R,u,,,,,5,19,119,17,0,0,0,0,,,,,1,13,49,25,,,,,,down,0.7839293104334502,2091.576797447273,None,001,55,2019_Oct_23_1404,ACPT_experiment_5_30_19,3.1.0,59.92650397374263,
,,,C,U,y,n,L,U,d,R,u,,,,,5,19,119,17,0,0,0,0,,,,,1,14,50,21,,,,,,up,0.6171333996026078,2093.6450350468513,None,001,55,2019_Oct_23_1404,ACPT_experiment_5_30_19,3.1.0,59.92650397374263,
,,,C,U,y,n,R,D,y,R,y,,,,,5,19,119,17,0,0,0,0,,,,,1,15,51,27,,,,,,down,0.7172507909344858,2095.5464749244675,None,001,55,2019_Oct_23_1404,ACPT_experiment_5_30_19,3.1.0,59.92650397374263,
,,,C,U,y,n,R,D,g,L,i,,,,,5,19,119,17,0,0,0,0,,,,,1,16,52,2,,,,,,up,0.6838535750648589,2097.5479926504377,None,001,55,2019_Oct_23_1404,ACPT_experiment_5_30_19,3.1.0,59.92650397374263,
,,,C,U,y,n,L,D,g,L,i,,,,,5,19,119,17,0,0,0,0,,,,,1,17,53,14,,,,,,up,0.5504168463958194,2099.51615421279,None,001,55,2019_Oct_23_1404,ACPT_experiment_5_30_19,3.1.0,59.92650397374263,
,,,C,U,y,n,L,D,g,R,i,,,,,5,19,119,17,0,0,0,0,,,,,1,18,54,15,,,,,,up,0.6505031466840592,2101.3341970405563,None,001,55,2019_Oct_23_1404,ACPT_experiment_5_30_19,3.1.0,59.92650397374263,
,,,C,U,y,n,R,D,y,L,y,,,,,5,19,119,17,0,0,0,0,,,,,1,19,55,26,,,,,,down,0.6170138650959416,2103.269009985659,None,001,55,2019_Oct_23_1404,ACPT_experiment_5_30_19,3.1.0,59.92650397374263,
,,,C,U,y,n,R,U,d,R,u,,,,,5,19,119,17,0,0,0,0,,,,,1,20,56,9,,,,,,up,0.7171994756172353,2105.1704534855307,None,001,55,2019_Oct_23_1404,ACPT_experiment_5_30_19,3.1.0,59.92650397374263,
,,,C,U,y,n,R,U,g,L,u,,,,,5,19,119,17,0,0,0,0,,,,,1,21,57,10,,,,,,up,1.0174324169711326,2107.1719733244863,None,001,55,2019_Oct_23_1404,ACPT_experiment_5_30_19,3.1.0,59.92650397374263,
,,,C,U,y,n,R,U,d,L,u,,,,,5,19,119,17,0,0,0,0,,,,,1,22,58,8,,,,,,up,0.5837838767874928,2109.4570271950033,None,001,55,2019_Oct_23_1404,ACPT_experiment_5_30_19,3.1.0,59.92650397374263,
,,,C,U,y,n,R,D,g,R,i,,,,,5,19,119,17,0,0,0,0,,,,,1,23,59,3,,,,,,up,0.7505671097169397,2111.325123586903,None,001,55,2019_Oct_23_1404,ACPT_experiment_5_30_19,3.1.0,59.92650397374263,
,,,C,U,y,n,L,U,d,L,u,,,,,5,19,119,17,0,0,0,0,,,,,1,24,60,20,,,,,,up,0.6338075572966773,2113.3600014006042,None,001,55,2019_Oct_23_1404,ACPT_experiment_5_30_19,3.1.0,59.92650397374263,
,,,C,U,y,n,R,G,g,L,c ,,,,,5,19,119,17,0,0,0,0,,,,,1,25,61,6,,,,,,up,0.5504162426877883,2115.2781223785787,None,001,55,2019_Oct_23_1404,ACPT_experiment_5_30_19,3.1.0,59.92650397374263,
,,,C,U,y,n,L,D,y,R,y,,,,,5,19,119,17,0,0,0,0,,,,,1,26,62,33,,,,,,down,0.6671718709949346,2117.112848419685,None,001,55,2019_Oct_23_1404,ACPT_experiment_5_30_19,3.1.0,59.92650397374263,
,,,C,U,y,n,L,G,d,L,i,,,,,5,19,119,17,0,0,0,0,,,,,1,27,63,16,,,,,,up,0.56708345772131,2119.06434397442,None,001,55,2019_Oct_23_1404,ACPT_experiment_5_30_19,3.1.0,59.92650397374263,
,,,C,U,y,n,L,U,g,L,u,,,,,5,19,119,17,0,0,0,0,,,,,1,28,64,22,,,,,,up,0.6333505491202231,2120.9328511907115,None,001,55,2019_Oct_23_1404,ACPT_experiment_5_30_19,3.1.0,59.92650397374263,
,,,C,U,y,n,L,U,g,R,u,,,,,5,19,119,17,0,0,0,0,,,,,1,29,65,23,,,,,,up,0.7173359139887907,2122.833722675725,None,001,55,2019_Oct_23_1404,ACPT_experiment_5_30_19,3.1.0,59.92650397374263,
,,,C,U,y,n,R,G,y,L,y,,,,,5,19,119,17,0,0,0,0,,,,,1,30,66,28,,,,,,down,0.6838496509481047,2124.852059751556,None,001,55,2019_Oct_23_1404,ACPT_experiment_5_30_19,3.1.0,59.92650397374263,
,,,C,U,y,n,R,U,g,R,u,,,,,5,19,119,17,0,0,0,0,,,,,1,31,67,11,,,,,,up,0.7338784629937436,2126.8369009049893,None,001,55,2019_Oct_23_1404,ACPT_experiment_5_30_19,3.1.0,59.92650397374263,
,,,C,U,y,n,L,D,d,L,c ,,,,,5,19,119,17,0,0,0,0,,,,,1,32,68,12,,,,,,up,0.6004447528721357,2128.855103051723,None,001,55,2019_Oct_23_1404,ACPT_experiment_5_30_19,3.1.0,59.92650397374263,
,,,C,U,y,n,R,U,y,R,u,,,,,5,19,119,17,0,0,0,0,,,,,1,33,69,31,,,,,,down,0.7339092521833663,2130.7398358694663,None,001,55,2019_Oct_23_1404,ACPT_experiment_5_30_19,3.1.0,59.92650397374263,
,,,C,U,y,n,L,G,g,R,c ,,,,,5,19,119,17,0,0,0,0,,,,,1,34,70,19,,,,,,up,0.7338863112163381,2132.7580657868384,None,001,55,2019_Oct_23_1404,ACPT_experiment_5_30_19,3.1.0,59.92650397374263,
,,,C,U,y,n,L,U,y,L,u,,,,,5,19,119,17,0,0,0,0,,,,,1,35,71,24,,,,,,down,0.6838273136927455,2134.7762833281668,None,001,55,2019_Oct_23_1404,ACPT_experiment_5_30_19,3.1.0,59.92650397374263,
,,,C,U,y,n,,,,,,,,,,5,19,119,17,1,0,1,0,0,0,0,0,,,,,,,,,,,,,,001,55,2019_Oct_23_1404,ACPT_experiment_5_30_19,3.1.0,59.92650397374263,
,,,C,U,y,n,R,U,d,L,u,,,,,5,19,119,17,1,0,1,0,,,,,0,0,0,8,,,,,,up,0.5135848246718524,2168.3385180921214,None,001,55,2019_Oct_23_1404,ACPT_experiment_5_30_19,3.1.0,59.92650397374263,
,,,C,U,y,n,L,D,d,R,c ,,,,,5,19,119,17,1,0,1,0,,,,,0,1,1,13,,,,,,up,0.5003765638721234,2170.119757876222,None,001,55,2019_Oct_23_1404,ACPT_experiment_5_30_19,3.1.0,59.92650397374263,
,,,C,U,y,n,R,D,d,L,c,,,,,5,19,119,17,1,0,1,0,,,,,0,2,2,0,,,,,,up,0.43366031252298853,2171.9044517848815,None,001,55,2019_Oct_23_1404,ACPT_experiment_5_30_19,3.1.0,59.92650397374263,
,,,C,U,y,n,R,U,g,R,u,,,,,5,19,119,17,1,0,1,0,,,,,0,3,3,11,,,,,,up,0.5004127864485781,2173.622418877276,None,001,55,2019_Oct_23_1404,ACPT_experiment_5_30_19,3.1.0,59.92650397374263,
,,,C,U,y,n,R,G,y,R,y,,,,,5,19,119,17,1,0,1,0,,,,,0,4,4,29,,,,,,down,0.583503453672165,2175.42405861296,None,001,55,2019_Oct_23_1404,ACPT_experiment_5_30_19,3.1.0,59.92650397374263,
,,,C,U,y,n,L,G,y,R,y,,,,,5,19,119,17,1,0,1,0,,,,,0,5,5,35,,,,,,down,0.5670867781263951,2177.291876694726,None,001,55,2019_Oct_23_1404,ACPT_experiment_5_30_19,3.1.0,59.92650397374263,
,,,C,U,y,n,R,U,y,L,u,,,,,5,19,119,17,1,0,1,0,,,,,0,6,6,30,,,,,,down,0.6004737309340271,2179.143289571428,None,001,55,2019_Oct_23_1404,ACPT_experiment_5_30_19,3.1.0,59.92650397374263,
,,,C,U,y,n,R,D,d,R,c ,,,,,5,19,119,17,1,0,1,0,,,,,0,7,7,1,,,,,,up,0.6004519973866991,2181.0280435190107,None,001,55,2019_Oct_23_1404,ACPT_experiment_5_30_19,3.1.0,59.92650397374263,
,,,C,U,y,n,L,G,d,L,i,,,,,5,19,119,17,1,0,1,0,,,,,0,8,8,16,,,,,,up,0.6004565252078464,2182.912809540783,None,001,55,2019_Oct_23_1404,ACPT_experiment_5_30_19,3.1.0,59.92650397374263,
,,,C,U,y,n,L,U,d,R,u,,,,,5,19,119,17,1,0,1,0,,,,,0,9,9,21,,,,,,up,0.4837178007692273,2184.797569525461,None,001,55,2019_Oct_23_1404,ACPT_experiment_5_30_19,3.1.0,59.92650397374263,
,,,C,U,y,n,L,D,y,R,y,,,,,5,19,119,17,1,0,1,0,,,,,0,10,10,33,,,,,,down,0.6171252495187218,2186.5655841448934,None,001,55,2019_Oct_23_1404,ACPT_experiment_5_30_19,3.1.0,59.92650397374263,
,,,C,U,y,n,L,D,g,L,i,,,,,5,19,119,17,1,0,1,0,,,,,0,11,11,14,,,,,,up,0.5637636585524888,2188.487033072117,None,001,55,2019_Oct_23_1404,ACPT_experiment_5_30_19,3.1.0,59.92650397374263,
,,,C,U,y,n,L,D,d,L,c ,,,,,5,19,119,17,1,0,1,0,,,,,0,12,12,12,,,,,,up,0.6336309722355509,2190.335162674084,None,001,55,2019_Oct_23_1404,ACPT_experiment_5_30_19,3.1.0,59.92650397374263,
,,,C,U,y,n,R,D,y,L,y,,,,,5,19,119,17,1,0,1,0,,,,,0,13,13,26,,,,,,down,0.6671760969620664,2192.253230223756,None,001,55,2019_Oct_23_1404,ACPT_experiment_5_30_19,3.1.0,59.92650397374263,
,,,C,U,y,n,L,D,g,R,i,,,,,5,19,119,17,1,0,1,0,,,,,0,14,14,15,,,,,,up,0.5670780243381159,2194.204728797038,None,001,55,2019_Oct_23_1404,ACPT_experiment_5_30_19,3.1.0,59.92650397374263,
,,,C,U,y,n,R,D,g,L,i,,,,,5,19,119,17,1,0,1,0,,,,,0,15,15,2,,,,,,up,0.5670988523197593,2196.056122053178,None,001,55,2019_Oct_23_1404,ACPT_experiment_5_30_19,3.1.0,59.92650397374263,
,,,C,U,y,n,R,G,d,R,i,,,,,5,19,119,17,1,0,1,0,,,,,0,16,16,5,,,,,,up,0.6504919780563796,2197.907523761256,None,001,55,2019_Oct_23_1404,ACPT_experiment_5_30_19,3.1.0,59.92650397374263,
,,,C,U,y,n,R,G,g,L,c ,,,,,5,19,119,17,1,0,1,0,,,,,0,17,17,6,,,,,,up,0.5837696896123816,2199.8423433471653,None,001,55,2019_Oct_23_1404,ACPT_experiment_5_30_19,3.1.0,59.92650397374263,
,,,C,U,y,n,R,D,y,R,y,,,,,5,19,119,17,1,0,1,0,,,,,0,18,18,27,,,,,,down,0.6836597842775518,2201.7439302280727,None,001,55,2019_Oct_23_1404,ACPT_experiment_5_30_19,3.1.0,59.92650397374263,
,,,C,U,y,n,L,G,g,L,c ,,,,,5,19,119,17,1,0,1,0,,,,,0,19,19,18,,,,,,up,0.5837893101743248,2203.7286147188643,None,001,55,2019_Oct_23_1404,ACPT_experiment_5_30_19,3.1.0,59.92650397374263,
,,,C,U,y,n,R,D,g,R,i,,,,,5,19,119,17,1,0,1,0,,,,,0,20,20,3,,,,,,up,0.7005361846931919,2205.5966905846362,None,001,55,2019_Oct_23_1404,ACPT_experiment_5_30_19,3.1.0,59.92650397374263,
,,,C,U,y,n,L,U,y,R,u,,,,,5,19,119,17,1,0,1,0,,,,,0,21,21,25,,,,,,down,0.6671588912395237,2207.5815444159707,None,001,55,2019_Oct_23_1404,ACPT_experiment_5_30_19,3.1.0,59.92650397374263,
,,,C,U,y,n,R,U,y,R,u,,,,,5,19,119,17,1,0,1,0,,,,,0,22,22,31,,,,,,down,0.6835731519458932,2209.5332920194705,None,001,55,2019_Oct_23_1404,ACPT_experiment_5_30_19,3.1.0,59.92650397374263,
,,,C,U,y,n,L,U,g,L,u,,,,,5,19,119,17,1,0,1,0,,,,,0,23,23,22,,,,,,up,0.56708345772131,2211.5011906662876,None,001,55,2019_Oct_23_1404,ACPT_experiment_5_30_19,3.1.0,59.92650397374263,
,,,C,U,y,n,L,G,y,L,y,,,,,5,19,119,17,1,0,1,0,,,,,0,24,24,34,,,,,,down,0.7172082294055144,2213.3525851298473,None,001,55,2019_Oct_23_1404,ACPT_experiment_5_30_19,3.1.0,59.92650397374263,
,,,C,U,y,n,R,G,d,L,i,,,,,5,19,119,17,1,0,1,0,,,,,0,25,25,4,,,,,,up,0.6504747723338369,2215.3541179485583,None,001,55,2019_Oct_23_1404,ACPT_experiment_5_30_19,3.1.0,59.92650397374263,
,,,C,U,y,n,R,G,y,L,y,,,,,5,19,119,17,1,0,1,0,,,,,0,26,26,28,,,,,,down,1.1008303723901918,2217.272209042905,None,001,55,2019_Oct_23_1404,ACPT_experiment_5_30_19,3.1.0,59.92650397374263,
,,,C,U,y,n,L,U,g,R,u,,,,,5,19,119,17,1,0,1,0,,,,,0,27,27,23,,,,,,up,0.6838571973203216,2219.65736913613,None,001,55,2019_Oct_23_1404,ACPT_experiment_5_30_19,3.1.0,59.92650397374263,
,,,C,U,y,n,R,U,g,L,u,,,,,5,19,119,17,1,0,1,0,,,,,0,28,28,10,,,,,,up,0.5837871971889399,2221.6255376411427,None,001,55,2019_Oct_23_1404,ACPT_experiment_5_30_19,3.1.0,59.92650397374263,
,,,C,U,y,n,R,G,g,R,c ,,,,,5,19,119,17,1,0,1,0,,,,,0,29,29,7,,,,,,up,0.5504551819576591,2223.4936092809476,None,001,55,2019_Oct_23_1404,ACPT_experiment_5_30_19,3.1.0,59.92650397374263,
,,,C,U,y,n,L,U,y,L,u,,,,,5,19,119,17,1,0,1,0,,,,,0,30,30,24,,,,,,down,0.6838511602254584,2225.328340151729,None,001,55,2019_Oct_23_1404,ACPT_experiment_5_30_19,3.1.0,59.92650397374263,
,,,C,U,y,n,L,G,g,R,c ,,,,,5,19,119,17,1,0,1,0,,,,,0,31,31,19,,,,,,up,0.5837763304189139,2227.2965107697273,None,001,55,2019_Oct_23_1404,ACPT_experiment_5_30_19,3.1.0,59.92650397374263,
,,,C,U,y,n,L,D,y,L,y,,,,,5,19,119,17,1,0,1,0,,,,,0,32,32,32,,,,,,down,0.6171131753289956,2229.16460172824,None,001,55,2019_Oct_23_1404,ACPT_experiment_5_30_19,3.1.0,59.92650397374263,
,,,C,U,y,n,L,U,d,L,u,,,,,5,19,119,17,1,0,1,0,,,,,0,33,33,20,,,,,,up,0.6171285699238069,2231.06603375763,None,001,55,2019_Oct_23_1404,ACPT_experiment_5_30_19,3.1.0,59.92650397374263,
,,,C,U,y,n,L,G,d,R,i,,,,,5,19,119,17,1,0,1,0,,,,,0,34,34,17,,,,,,up,0.6338024257638608,2232.9674784649214,None,001,55,2019_Oct_23_1404,ACPT_experiment_5_30_19,3.1.0,59.92650397374263,
,,,C,U,y,n,R,U,d,R,u,,,,,5,19,119,17,1,0,1,0,,,,,0,35,35,9,,,,,,up,0.5170304972962185,2234.902295937849,None,001,55,2019_Oct_23_1404,ACPT_experiment_5_30_19,3.1.0,59.92650397374263,
,,,C,U,y,n,L,D,g,L,i,,,,,5,19,119,17,1,0,1,0,,,,,1,0,36,14,,,,,,up,0.6838285211124457,2236.7036627967864,None,001,55,2019_Oct_23_1404,ACPT_experiment_5_30_19,3.1.0,59.92650397374263,
,,,C,U,y,n,L,G,g,R,c ,,,,,5,19,119,17,1,0,1,0,,,,,1,1,37,19,,,,,,up,0.5003605655656429,2238.6718255665583,None,001,55,2019_Oct_23_1404,ACPT_experiment_5_30_19,3.1.0,59.92650397374263,
,,,C,U,y,n,R,U,y,L,u,,,,,5,19,119,17,1,0,1,0,,,,,1,2,38,30,,,,,,down,0.683851462079474,2240.4564911008674,None,001,55,2019_Oct_23_1404,ACPT_experiment_5_30_19,3.1.0,59.92650397374263,
,,,C,U,y,n,L,G,y,R,y,,,,,5,19,119,17,1,0,1,0,,,,,1,3,39,35,,,,,,down,0.850645561786223,2242.4246532669276,None,001,55,2019_Oct_23_1404,ACPT_experiment_5_30_19,3.1.0,59.92650397374263,
,,,C,U,y,n,L,G,d,L,i,,,,,5,19,119,17,1,0,1,0,,,,,1,4,40,16,,,,,,up,0.6171170994421118,2244.559621908742,None,001,55,2019_Oct_23_1404,ACPT_experiment_5_30_19,3.1.0,59.92650397374263,
,,,C,U,y,n,R,G,d,L,i,,,,,5,19,119,17,1,0,1,0,,,,,1,5,41,4,,,,,,up,0.5671163598963176,2246.461030091603,None,001,55,2019_Oct_23_1404,ACPT_experiment_5_30_19,3.1.0,59.92650397374263,
,,,C,U,y,n,R,U,d,R,u,,,,,5,19,119,17,1,0,1,0,,,,,1,6,42,9,,,,,,up,0.617126456938422,2248.312464399998,None,001,55,2019_Oct_23_1404,ACPT_experiment_5_30_19,3.1.0,59.92650397374263,
,,,C,U,y,n,L,U,y,R,u,,,,,5,19,119,17,1,0,1,0,,,,,1,7,43,25,,,,,,down,0.8006067885326047,2250.2139024664866,None,001,55,2019_Oct_23_1404,ACPT_experiment_5_30_19,3.1.0,59.92650397374263,
,,,C,U,y,n,L,D,d,L,c ,,,,,5,19,119,17,1,0,1,0,,,,,1,8,44,12,,,,,,up,0.5003783750034927,2252.298819355292,None,001,55,2019_Oct_23_1404,ACPT_experiment_5_30_19,3.1.0,59.92650397374263,
,,,C,U,y,n,R,G,g,R,c ,,,,,5,19,119,17,1,0,1,0,,,,,1,9,45,7,,,,,,up,0.5835043592378497,2254.1004663354906,None,001,55,2019_Oct_23_1404,ACPT_experiment_5_30_19,3.1.0,59.92650397374263,
,,,C,U,y,n,R,D,y,R,y,,,,,5,19,119,17,1,0,1,0,,,,,1,10,46,27,,,,,,down,0.667166135754087,2255.9682741541947,None,001,55,2019_Oct_23_1404,ACPT_experiment_5_30_19,3.1.0,59.92650397374263,
,,,C,U,y,n,L,D,d,R,c ,,,,,5,19,119,17,1,0,1,0,,,,,1,11,47,13,,,,,,up,0.6338087647163775,2257.919752805061,None,001,55,2019_Oct_23_1404,ACPT_experiment_5_30_19,3.1.0,59.92650397374263,
,,,C,U,y,n,R,G,y,L,y,,,,,5,19,119,17,1,0,1,0,,,,,1,12,48,28,,,,,,down,0.550408998173225,2259.837875896017,None,001,55,2019_Oct_23_1404,ACPT_experiment_5_30_19,3.1.0,59.92650397374263,
,,,C,U,y,n,R,U,y,R,u,,,,,5,19,119,17,1,0,1,0,,,,,1,13,49,31,,,,,,down,0.7338935557309014,2261.672601333412,None,001,55,2019_Oct_23_1404,ACPT_experiment_5_30_19,3.1.0,59.92650397374263,
,,,C,U,y,n,R,U,g,R,u,,,,,5,19,119,17,1,0,1,0,,,,,1,14,50,11,,,,,,up,0.717232981500274,2263.6740982314004,None,001,55,2019_Oct_23_1404,ACPT_experiment_5_30_19,3.1.0,59.92650397374263,
,,,C,U,y,n,R,D,y,L,y,,,,,5,19,119,17,1,0,1,0,,,,,1,15,51,26,,,,,,down,0.5337475183732749,2265.675641916885,None,001,55,2019_Oct_23_1404,ACPT_experiment_5_30_19,3.1.0,59.92650397374263,
,,,C,U,y,n,R,G,d,R,i,,,,,5,19,119,17,1,0,1,0,,,,,1,16,52,5,,,,,,up,0.6166890693239111,2267.510777574964,None,001,55,2019_Oct_23_1404,ACPT_experiment_5_30_19,3.1.0,59.92650397374263,
,,,C,U,y,n,R,D,d,L,c,,,,,5,19,119,17,1,0,1,0,,,,,1,17,53,0,,,,,,up,0.8840264774989919,2269.39510530356,None,001,55,2019_Oct_23_1404,ACPT_experiment_5_30_19,3.1.0,59.92650397374263,
,,,C,U,y,n,L,U,d,R,u,,,,,5,19,119,17,1,0,1,0,,,,,1,18,54,21,,,,,,up,0.6839501686008589,2271.5634430887476,None,001,55,2019_Oct_23_1404,ACPT_experiment_5_30_19,3.1.0,59.92650397374263,
,,,C,U,y,n,R,D,g,L,i,,,,,5,19,119,17,1,0,1,0,,,,,1,19,55,2,,,,,,up,0.5003729416166607,2273.531607367793,None,001,55,2019_Oct_23_1404,ACPT_experiment_5_30_19,3.1.0,59.92650397374263,
,,,C,U,y,n,L,G,g,L,c ,,,,,5,19,119,17,1,0,1,0,,,,,1,20,56,18,,,,,,up,0.5004369348353066,2275.3163048987117,None,001,55,2019_Oct_23_1404,ACPT_experiment_5_30_19,3.1.0,59.92650397374263,
,,,C,U,y,n,L,D,g,R,i,,,,,5,19,119,17,1,0,1,0,,,,,1,21,57,15,,,,,,up,0.5337297089427011,2277.1009840164843,None,001,55,2019_Oct_23_1404,ACPT_experiment_5_30_19,3.1.0,59.92650397374263,
,,,C,U,y,n,L,D,y,R,y,,,,,5,19,119,17,1,0,1,0,,,,,1,22,58,33,,,,,,down,0.5170721532595053,2278.9356834943683,None,001,55,2019_Oct_23_1404,ACPT_experiment_5_30_19,3.1.0,59.92650397374263,
,,,C,U,y,n,R,D,d,R,c ,,,,,5,19,119,17,1,0,1,0,,,,,1,23,59,1,,,,,,up,0.6168837656732649,2280.7706742621376,None,001,55,2019_Oct_23_1404,ACPT_experiment_5_30_19,3.1.0,59.92650397374263,
,,,C,U,y,n,R,U,g,L,u,,,,,5,19,119,17,1,0,1,0,,,,,1,24,60,10,,,,,,up,0.5504114130089874,2282.6718823152623,None,001,55,2019_Oct_23_1404,ACPT_experiment_5_30_19,3.1.0,59.92650397374263,
,,,C,U,y,n,L,U,d,L,u,,,,,5,19,119,17,1,0,1,0,,,,,1,25,61,20,,,,,,up,0.5671085116737231,2284.506602922982,None,001,55,2019_Oct_23_1404,ACPT_experiment_5_30_19,3.1.0,59.92650397374263,
,,,C,U,y,n,R,U,d,L,u,,,,,5,19,119,17,1,0,1,0,,,,,1,26,62,8,,,,,,up,0.550417148249835,2286.3580082533153,None,001,55,2019_Oct_23_1404,ACPT_experiment_5_30_19,3.1.0,59.92650397374263,
,,,C,U,y,n,R,G,g,L,c ,,,,,5,19,119,17,1,0,1,0,,,,,1,27,63,6,,,,,,up,0.5666400330082979,2288.209842217475,None,001,55,2019_Oct_23_1404,ACPT_experiment_5_30_19,3.1.0,59.92650397374263,
,,,C,U,y,n,L,G,y,L,y,,,,,5,19,119,17,1,0,1,0,,,,,1,28,64,34,,,,,,down,0.6836443896791025,2290.0776636196424,None,001,55,2019_Oct_23_1404,ACPT_experiment_5_30_19,3.1.0,59.92650397374263,
,,,C,U,y,n,L,G,d,R,i,,,,,5,19,119,17,1,0,1,0,,,,,1,29,65,17,,,,,,up,0.5337239737018535,2292.0623456955946,None,001,55,2019_Oct_23_1404,ACPT_experiment_5_30_19,3.1.0,59.92650397374263,
,,,C,U,y,n,L,U,g,R,u,,,,,5,19,119,17,1,0,1,0,,,,,1,30,66,23,,,,,,up,0.5337315200704325,2293.880389730777,None,001,55,2019_Oct_23_1404,ACPT_experiment_5_30_19,3.1.0,59.92650397374263,
,,,C,U,y,n,R,D,g,R,i,,,,,5,19,119,17,1,0,1,0,,,,,1,31,67,3,,,,,,up,0.5003741490363609,2295.6984343696713,None,001,55,2019_Oct_23_1404,ACPT_experiment_5_30_19,3.1.0,59.92650397374263,
,,,C,U,y,n,L,U,y,L,u,,,,,5,19,119,17,1,0,1,0,,,,,1,32,68,24,,,,,,down,0.6002606214387924,2297.4999600042393,None,001,55,2019_Oct_23_1404,ACPT_experiment_5_30_19,3.1.0,59.92650397374263,
,,,C,U,y,n,L,D,y,L,y,,,,,5,19,119,17,1,0,1,0,,,,,1,33,69,32,,,,,,down,0.6504768853155838,2299.401254689692,None,001,55,2019_Oct_23_1404,ACPT_experiment_5_30_19,3.1.0,59.92650397374263,
,,,C,U,y,n,L,U,g,L,u,,,,,5,19,119,17,1,0,1,0,,,,,1,34,70,22,,,,,,up,0.550151214163634,2301.352996859805,None,001,55,2019_Oct_23_1404,ACPT_experiment_5_30_19,3.1.0,59.92650397374263,
,,,C,U,y,n,R,G,y,R,y,,,,,5,19,119,17,1,0,1,0,,,,,1,35,71,29,,,,,,down,0.5671130394948705,2303.187426177632,None,001,55,2019_Oct_23_1404,ACPT_experiment_5_30_19,3.1.0,59.92650397374263,
,,,C,U,y,n,,,,,,,,,,5,19,119,17,2,0,2,0,0,0,0,0,,,,,,,,,,,,,,001,55,2019_Oct_23_1404,ACPT_experiment_5_30_19,3.1.0,59.92650397374263,
,,,C,U,y,n,L,G,y,L,y,,,,,5,19,119,17,2,0,2,0,,,,,0,0,0,34,,,,,,down,0.6836356358908233,2320.0338104551047,None,001,55,2019_Oct_23_1404,ACPT_experiment_5_30_19,3.1.0,59.92650397374263,
,,,C,U,y,n,R,D,g,L,i,,,,,5,19,119,17,2,0,2,0,,,,,0,1,1,2,,,,,,up,0.48369214311242104,2322.0017389855457,None,001,55,2019_Oct_23_1404,ACPT_experiment_5_30_19,3.1.0,59.92650397374263,
,,,C,U,y,n,R,G,d,L,i,,,,,5,19,119,17,2,0,2,0,,,,,0,2,2,4,,,,,,up,0.5837630488058494,2323.7697608494927,None,001,55,2019_Oct_23_1404,ACPT_experiment_5_30_19,3.1.0,59.92650397374263,
,,,C,U,y,n,R,D,g,R,i,,,,,5,19,119,17,2,0,2,0,,,,,0,3,3,3,,,,,,up,0.6171385311317863,2325.637827659619,None,001,55,2019_Oct_23_1404,ACPT_experiment_5_30_19,3.1.0,59.92650397374263,
,,,C,U,y,n,L,D,g,L,i,,,,,5,19,119,17,2,0,2,0,,,,,0,4,4,14,,,,,,up,0.5837648599335807,2327.539272970622,None,001,55,2019_Oct_23_1404,ACPT_experiment_5_30_19,3.1.0,59.92650397374263,
,,,C,U,y,n,L,D,g,R,i,,,,,5,19,119,17,2,0,2,0,,,,,0,5,5,15,,,,,,up,0.6838517639334896,2329.390680112083,None,001,55,2019_Oct_23_1404,ACPT_experiment_5_30_19,3.1.0,59.92650397374263,
,,,C,U,y,n,R,G,y,R,y,,,,,5,19,119,17,2,0,2,0,,,,,0,6,6,29,,,,,,down,0.6171249476683442,2331.35884499484,None,001,55,2019_Oct_23_1404,ACPT_experiment_5_30_19,3.1.0,59.92650397374263,
,,,C,U,y,n,L,G,g,R,c ,,,,,5,19,119,17,2,0,2,0,,,,,0,7,7,19,,,,,,up,0.633566979013267,2333.2772056455287,None,001,55,2019_Oct_23_1404,ACPT_experiment_5_30_19,3.1.0,59.92650397374263,
,,,C,U,y,n,R,U,g,R,u,,,,,5,19,119,17,2,0,2,0,,,,,0,8,8,11,,,,,,up,0.6838698752217169,2335.178382003898,None,001,55,2019_Oct_23_1404,ACPT_experiment_5_30_19,3.1.0,59.92650397374263,
,,,C,U,y,n,R,D,d,L,c,,,,,5,19,119,17,2,0,2,0,,,,,0,9,9,0,,,,,,up,0.4336557847018412,2337.1465710350385,None,001,55,2019_Oct_23_1404,ACPT_experiment_5_30_19,3.1.0,59.92650397374263,
,,,C,U,y,n,R,U,y,L,u,,,,,5,19,119,17,2,0,2,0,,,,,0,10,10,30,,,,,,down,0.6505013355563278,2338.864533599608,None,001,55,2019_Oct_23_1404,ACPT_experiment_5_30_19,3.1.0,59.92650397374263,
,,,C,U,y,n,L,D,y,R,y,,,,,5,19,119,17,2,0,2,0,,,,,0,11,11,33,,,,,,down,0.6004544122260995,2340.799338998342,None,001,55,2019_Oct_23_1404,ACPT_experiment_5_30_19,3.1.0,59.92650397374263,
,,,C,U,y,n,L,U,g,L,u,,,,,5,19,119,17,2,0,2,0,,,,,0,12,12,22,,,,,,up,0.5837745192911825,2342.6841053219723,None,001,55,2019_Oct_23_1404,ACPT_experiment_5_30_19,3.1.0,59.92650397374263,
,,,C,U,y,n,L,U,d,L,u,,,,,5,19,119,17,2,0,2,0,,,,,0,13,13,20,,,,,,up,0.5170507215698308,2344.5521854137114,None,001,55,2019_Oct_23_1404,ACPT_experiment_5_30_19,3.1.0,59.92650397374263,
,,,C,U,y,n,R,U,y,R,u,,,,,5,19,119,17,2,0,2,0,,,,,0,14,14,31,,,,,,down,0.700509621470701,2346.370252993569,None,001,55,2019_Oct_23_1404,ACPT_experiment_5_30_19,3.1.0,59.92650397374263,
,,,C,U,y,n,R,G,g,R,c ,,,,,5,19,119,17,2,0,2,0,,,,,0,15,15,7,,,,,,up,0.7672545490277116,2348.3550718097504,None,001,55,2019_Oct_23_1404,ACPT_experiment_5_30_19,3.1.0,59.92650397374263,
,,,C,U,y,n,L,U,d,R,u,,,,,5,19,119,17,2,0,2,0,,,,,0,16,16,21,,,,,,up,0.8005886772443773,2350.4066430998537,None,001,55,2019_Oct_23_1404,ACPT_experiment_5_30_19,3.1.0,59.92650397374263,
,,,C,U,y,n,L,G,y,R,y,,,,,5,19,119,17,2,0,2,0,,,,,0,17,17,35,,,,,,down,0.7503983728820458,2352.508365755053,None,001,55,2019_Oct_23_1404,ACPT_experiment_5_30_19,3.1.0,59.92650397374263,
,,,C,U,y,n,L,U,g,R,u,,,,,5,19,119,17,2,0,2,0,,,,,0,18,18,23,,,,,,up,0.6671703617212188,2354.543107130383,None,001,55,2019_Oct_23_1404,ACPT_experiment_5_30_19,3.1.0,59.92650397374263,
,,,C,U,y,n,R,U,d,L,u,,,,,5,19,119,17,2,0,2,0,,,,,0,19,19,8,,,,,,up,0.7338995928257646,2356.494580951574,None,001,55,2019_Oct_23_1404,ACPT_experiment_5_30_19,3.1.0,59.92650397374263,
,,,C,U,y,n,R,U,g,L,u,,,,,5,19,119,17,2,0,2,0,,,,,0,20,20,10,,,,,,up,0.5837856879152241,2358.496095357139,None,001,55,2019_Oct_23_1404,ACPT_experiment_5_30_19,3.1.0,59.92650397374263,
,,,C,U,y,n,L,G,g,L,c ,,,,,5,19,119,17,2,0,2,0,,,,,0,21,21,18,,,,,,up,0.5337423868440965,2360.364188126783,None,001,55,2019_Oct_23_1404,ACPT_experiment_5_30_19,3.1.0,59.92650397374263,
,,,C,U,y,n,R,D,y,R,y,,,,,5,19,119,17,2,0,2,0,,,,,0,22,22,27,,,,,,down,0.7672427766920009,2362.1989208086925,None,001,55,2019_Oct_23_1404,ACPT_experiment_5_30_19,3.1.0,59.92650397374263,
,,,C,U,y,n,L,D,d,R,c ,,,,,5,19,119,17,2,0,2,0,,,,,0,23,23,13,,,,,,up,0.9006764868099708,2364.267153578592,None,001,55,2019_Oct_23_1404,ACPT_experiment_5_30_19,3.1.0,59.92650397374263,
,,,C,U,y,n,L,U,y,L,u,,,,,5,19,119,17,2,0,2,0,,,,,0,24,24,24,,,,,,down,0.7337018779289792,2366.4689806453716,None,001,55,2019_Oct_23_1404,ACPT_experiment_5_30_19,3.1.0,59.92650397374263,
,,,C,U,y,n,L,U,y,R,u,,,,,5,19,119,17,2,0,2,0,,,,,0,25,25,25,,,,,,down,0.7172148702120467,2368.5036999853,None,001,55,2019_Oct_23_1404,ACPT_experiment_5_30_19,3.1.0,59.92650397374263,
,,,C,U,y,n,R,G,y,L,y,,,,,5,19,119,17,2,0,2,0,,,,,0,26,26,28,,,,,,down,1.1675469255933422,2370.5219036413037,None,001,55,2019_Oct_23_1404,ACPT_experiment_5_30_19,3.1.0,59.92650397374263,
,,,C,U,y,n,R,D,d,R,c ,,,,,5,19,119,17,2,0,2,0,,,,,0,27,27,1,,,,,,up,0.583766067353281,2372.9904465972068,None,001,55,2019_Oct_23_1404,ACPT_experiment_5_30_19,3.1.0,59.92650397374263,
,,,C,U,y,n,R,D,y,L,y,,,,,5,19,119,17,2,0,2,0,,,,,0,28,28,26,,,,,,down,1.3843511223421956,2374.858531820475,None,001,55,2019_Oct_23_1404,ACPT_experiment_5_30_19,3.1.0,59.92650397374263,
,,,C,U,y,n,R,G,d,R,i,,,,,5,19,119,17,2,0,2,0,,,,,0,29,29,5,,,,,,up,0.5337297089427011,2377.5272223230095,None,001,55,2019_Oct_23_1404,ACPT_experiment_5_30_19,3.1.0,59.92650397374263,
,,,C,U,y,n,L,G,d,L,i,,,,,5,19,119,17,2,0,2,0,,,,,0,30,30,16,,,,,,up,0.5337342367674864,2379.3452669619,None,001,55,2019_Oct_23_1404,ACPT_experiment_5_30_19,3.1.0,59.92650397374263,
,,,C,U,y,n,L,D,y,L,y,,,,,5,19,119,17,2,0,2,0,,,,,0,31,31,32,,,,,,down,0.7172278499710956,2381.163293489506,None,001,55,2019_Oct_23_1404,ACPT_experiment_5_30_19,3.1.0,59.92650397374263,
,,,C,U,y,n,R,G,g,L,c ,,,,,5,19,119,17,2,0,2,0,,,,,0,32,32,6,,,,,,up,0.5504207705089357,2383.164831439746,None,001,55,2019_Oct_23_1404,ACPT_experiment_5_30_19,3.1.0,59.92650397374263,
,,,C,U,y,n,L,G,d,R,i,,,,,5,19,119,17,2,0,2,0,,,,,0,33,33,17,,,,,,up,0.8173247151789838,2384.9995357473053,None,001,55,2019_Oct_23_1404,ACPT_experiment_5_30_19,3.1.0,59.92650397374263,
,,,C,U,y,n,L,D,d,L,c ,,,,,5,19,119,17,2,0,2,0,,,,,0,34,34,12,,,,,,up,0.7172124553762842,2387.1011497347754,None,001,55,2019_Oct_23_1404,ACPT_experiment_5_30_19,3.1.0,59.92650397374263,
,,,C,U,y,n,R,U,d,R,u,,,,,5,19,119,17,2,0,2,0,,,,,0,35,35,9,,,,,,up,0.7839223677729024,2389.119353692633,None,001,55,2019_Oct_23_1404,ACPT_experiment_5_30_19,3.1.0,59.92650397374263,
,,,C,U,y,n,L,D,d,R,c ,,,,,5,19,119,17,2,0,2,0,,,,,1,0,36,13,,,,,,up,0.683862328853138,2391.187568049394,None,001,55,2019_Oct_23_1404,ACPT_experiment_5_30_19,3.1.0,59.92650397374263,
,,,C,U,y,n,R,G,d,L,i,,,,,5,19,119,17,2,0,2,0,,,,,1,1,37,4,,,,,,up,0.6004414324706886,2393.155755269403,None,001,55,2019_Oct_23_1404,ACPT_experiment_5_30_19,3.1.0,59.92650397374263,
,,,C,U,y,n,L,U,d,R,u,,,,,5,19,119,17,2,0,2,0,,,,,1,2,38,21,,,,,,up,0.6004399231969728,2395.04052702642,None,001,55,2019_Oct_23_1404,ACPT_experiment_5_30_19,3.1.0,59.92650397374263,
,,,C,U,y,n,L,G,y,L,y,,,,,5,19,119,17,2,0,2,0,,,,,1,3,39,34,,,,,,down,0.6171373237120861,2396.9252770498897,None,001,55,2019_Oct_23_1404,ACPT_experiment_5_30_19,3.1.0,59.92650397374263,
,,,C,U,y,n,L,G,d,L,i,,,,,5,19,119,17,2,0,2,0,,,,,1,4,40,16,,,,,,up,0.6136134706939629,2398.8468929028204,None,001,55,2019_Oct_23_1404,ACPT_experiment_5_30_19,3.1.0,59.92650397374263,
,,,C,U,y,n,R,U,g,L,u,,,,,5,19,119,17,2,0,2,0,,,,,1,5,41,10,,,,,,up,0.5003955807260354,2400.7448445462833,None,001,55,2019_Oct_23_1404,ACPT_experiment_5_30_19,3.1.0,59.92650397374263,
,,,C,U,y,n,R,D,y,R,y,,,,,5,19,119,17,2,0,2,0,,,,,1,6,42,27,,,,,,down,0.8006101089376898,2402.529530908574,None,001,55,2019_Oct_23_1404,ACPT_experiment_5_30_19,3.1.0,59.92650397374263,
,,,C,U,y,n,R,D,y,L,y,,,,,5,19,119,17,2,0,2,0,,,,,1,7,43,26,,,,,,down,0.6506389813475835,2404.597618788168,None,001,55,2019_Oct_23_1404,ACPT_experiment_5_30_19,3.1.0,59.92650397374263,
,,,C,U,y,n,R,G,y,L,y,,,,,5,19,119,17,2,0,2,0,,,,,1,8,44,28,,,,,,down,0.7505662041548931,2406.5325745105947,None,001,55,2019_Oct_23_1404,ACPT_experiment_5_30_19,3.1.0,59.92650397374263,
,,,C,U,y,n,L,D,g,L,i,,,,,5,19,119,17,2,0,2,0,,,,,1,9,45,14,,,,,,up,0.5837781415466452,2408.5674393445406,None,001,55,2019_Oct_23_1404,ACPT_experiment_5_30_19,3.1.0,59.92650397374263,
,,,C,U,y,n,R,D,d,L,c,,,,,5,19,119,17,2,0,2,0,,,,,1,10,46,0,,,,,,up,0.6171080437961791,2410.435561394097,None,001,55,2019_Oct_23_1404,ACPT_experiment_5_30_19,3.1.0,59.92650397374263,
,,,C,U,y,n,L,D,g,R,i,,,,,5,19,119,17,2,0,2,0,,,,,1,11,47,15,,,,,,up,0.6337978979427135,2412.336992216071,None,001,55,2019_Oct_23_1404,ACPT_experiment_5_30_19,3.1.0,59.92650397374263,
,,,C,U,y,n,L,G,d,R,i,,,,,5,19,119,17,2,0,2,0,,,,,1,12,48,17,,,,,,up,0.6004538085180684,2414.2551038365455,None,001,55,2019_Oct_23_1404,ACPT_experiment_5_30_19,3.1.0,59.92650397374263,
,,,C,U,y,n,R,G,y,R,y,,,,,5,19,119,17,2,0,2,0,,,,,1,13,49,29,,,,,,down,0.6504986188629118,2416.1398623119494,None,001,55,2019_Oct_23_1404,ACPT_experiment_5_30_19,3.1.0,59.92650397374263,
,,,C,U,y,n,L,D,y,L,y,,,,,5,19,119,17,2,0,2,0,,,,,1,14,50,32,,,,,,down,0.6335434343418456,2418.0749357577515,None,001,55,2019_Oct_23_1404,ACPT_experiment_5_30_19,3.1.0,59.92650397374263,
,,,C,U,y,n,R,U,g,R,u,,,,,5,19,119,17,2,0,2,0,,,,,1,15,51,11,,,,,,up,0.5670662519987673,2419.9928206852637,None,001,55,2019_Oct_23_1404,ACPT_experiment_5_30_19,3.1.0,59.92650397374263,
,,,C,U,y,n,L,G,g,R,c ,,,,,5,19,119,17,2,0,2,0,,,,,1,16,52,19,,,,,,up,0.5504093000272405,2421.8441988486666,None,001,55,2019_Oct_23_1404,ACPT_experiment_5_30_19,3.1.0,59.92650397374263,
,,,C,U,y,n,R,U,d,L,u,,,,,5,19,119,17,2,0,2,0,,,,,1,17,53,8,,,,,,up,0.46682479833907564,2423.6790779301555,None,001,55,2019_Oct_23_1404,ACPT_experiment_5_30_19,3.1.0,59.92650397374263,
,,,C,U,y,n,L,D,d,L,c ,,,,,5,19,119,17,2,0,2,0,,,,,1,18,54,12,,,,,,up,0.36693953334906837,2425.4302728978764,None,001,55,2019_Oct_23_1404,ACPT_experiment_5_30_19,3.1.0,59.92650397374263,
,,,C,U,y,n,R,G,g,L,c ,,,,,5,19,119,17,2,0,2,0,,,,,1,19,55,6,,,,,,up,0.4837165933495271,2427.081484799648,None,001,55,2019_Oct_23_1404,ACPT_experiment_5_30_19,3.1.0,59.92650397374263,
,,,C,U,y,n,L,U,d,L,u,,,,,5,19,119,17,2,0,2,0,,,,,1,20,56,20,,,,,,up,0.4503039828814508,2428.8495383583504,None,001,55,2019_Oct_23_1404,ACPT_experiment_5_30_19,3.1.0,59.92650397374263,
,,,C,U,y,n,R,D,d,R,c ,,,,,5,19,119,17,2,0,2,0,,,,,1,21,57,1,,,,,,up,0.5670837595789635,2430.6008582939576,None,001,55,2019_Oct_23_1404,ACPT_experiment_5_30_19,3.1.0,59.92650397374263,
,,,C,U,y,n,R,G,d,R,i,,,,,5,19,119,17,2,0,2,0,,,,,1,22,58,5,,,,,,up,0.6338138962491939,2432.45224853155,None,001,55,2019_Oct_23_1404,ACPT_experiment_5_30_19,3.1.0,59.92650397374263,
,,,C,U,y,n,L,G,y,R,y,,,,,5,19,119,17,2,0,2,0,,,,,1,23,59,35,,,,,,down,0.8005980347443256,2434.3703843004114,None,001,55,2019_Oct_23_1404,ACPT_experiment_5_30_19,3.1.0,59.92650397374263,
,,,C,U,y,n,L,G,g,L,c ,,,,,5,19,119,17,2,0,2,0,,,,,1,24,60,18,,,,,,up,0.5837542950175703,2436.455300283651,None,001,55,2019_Oct_23_1404,ACPT_experiment_5_30_19,3.1.0,59.92650397374263,
,,,C,U,y,n,R,D,g,L,i,,,,,5,19,119,17,2,0,2,0,,,,,1,25,61,2,,,,,,up,0.733888424198085,2438.32336950862,None,001,55,2019_Oct_23_1404,ACPT_experiment_5_30_19,3.1.0,59.92650397374263,
,,,C,U,y,n,R,U,d,R,u,,,,,5,19,119,17,2,0,2,0,,,,,1,26,62,9,,,,,,up,0.5670910040935269,2440.3415698442222,None,001,55,2019_Oct_23_1404,ACPT_experiment_5_30_19,3.1.0,59.92650397374263,
,,,C,U,y,n,R,D,g,R,i,,,,,5,19,119,17,2,0,2,0,,,,,1,27,63,3,,,,,,up,0.5170793977777066,2442.192955252136,None,001,55,2019_Oct_23_1404,ACPT_experiment_5_30_19,3.1.0,59.92650397374263,
,,,C,U,y,n,L,D,y,R,y,,,,,5,19,119,17,2,0,2,0,,,,,1,28,64,33,,,,,,down,0.6838538769152365,2443.9943396186536,None,001,55,2019_Oct_23_1404,ACPT_experiment_5_30_19,3.1.0,59.92650397374263,
,,,C,U,y,n,R,G,g,R,c ,,,,,5,19,119,17,2,0,2,0,,,,,1,29,65,7,,,,,,up,0.6004664864194638,2445.9625026902795,None,001,55,2019_Oct_23_1404,ACPT_experiment_5_30_19,3.1.0,59.92650397374263,
,,,C,U,y,n,L,U,g,R,u,,,,,5,19,119,17,2,0,2,0,,,,,1,30,66,23,,,,,,up,0.5504129222863412,2447.847273843585,None,001,55,2019_Oct_23_1404,ACPT_experiment_5_30_19,3.1.0,59.92650397374263,
,,,C,U,y,n,L,U,g,L,u,,,,,5,19,119,17,2,0,2,0,,,,,1,31,67,22,,,,,,up,0.5837847823531774,2449.681996866144,None,001,55,2019_Oct_23_1404,ACPT_experiment_5_30_19,3.1.0,59.92650397374263,
,,,C,U,y,n,L,U,y,R,u,,,,,5,19,119,17,2,0,2,0,,,,,1,32,68,25,,,,,,down,0.8006098070836742,2451.5500784671567,None,001,55,2019_Oct_23_1404,ACPT_experiment_5_30_19,3.1.0,59.92650397374263,
,,,C,U,y,n,L,U,y,L,u,,,,,5,19,119,17,2,0,2,0,,,,,1,33,69,24,,,,,,down,0.8506449580745539,2453.634998676367,None,001,55,2019_Oct_23_1404,ACPT_experiment_5_30_19,3.1.0,59.92650397374263,
,,,C,U,y,n,R,U,y,R,u,,,,,5,19,119,17,2,0,2,0,,,,,1,34,70,31,,,,,,down,0.7505665060089086,2455.7699576588275,None,001,55,2019_Oct_23_1404,ACPT_experiment_5_30_19,3.1.0,59.92650397374263,
,,,C,U,y,n,R,U,y,L,u,,,,,5,19,119,17,2,0,2,0,,,,,1,35,71,30,,,,,,down,0.8507841131395253,2457.7880022373465,None,001,55,2019_Oct_23_1404,ACPT_experiment_5_30_19,3.1.0,59.92650397374263,
,,,C,U,y,n,,,,,,,,,,5,19,119,17,3,0,3,0,0,0,0,0,,,,,,,,,,,,,,001,55,2019_Oct_23_1404,ACPT_experiment_5_30_19,3.1.0,59.92650397374263,
,,,C,U,y,n,L,D,y,L,y,,,,,5,19,119,17,3,0,3,0,,,,,0,0,0,32,,,,,,down,0.6669500077150587,2472.5662799202255,None,001,55,2019_Oct_23_1404,ACPT_experiment_5_30_19,3.1.0,59.92650397374263,
,,,C,U,y,n,L,G,y,R,y,,,,,5,19,119,17,3,0,3,0,,,,,0,1,1,35,,,,,,down,0.5504080926075403,2474.5175195020856,None,001,55,2019_Oct_23_1404,ACPT_experiment_5_30_19,3.1.0,59.92650397374263,
,,,C,U,y,n,L,U,d,L,u,,,,,5,19,119,17,3,0,3,0,,,,,0,2,2,20,,,,,,up,0.5003572451641958,2476.352257919236,None,001,55,2019_Oct_23_1404,ACPT_experiment_5_30_19,3.1.0,59.92650397374263,
,,,C,U,y,n,R,U,y,L,u,,,,,5,19,119,17,3,0,3,0,,,,,0,3,3,30,,,,,,down,0.3502554144433816,2478.1369355277384,None,001,55,2019_Oct_23_1404,ACPT_experiment_5_30_19,3.1.0,59.92650397374263,
,,,C,U,y,n,L,D,g,L,i,,,,,5,19,119,17,3,0,3,0,,,,,0,4,4,14,,,,,,up,0.43340584891848266,2479.7884381156873,None,001,55,2019_Oct_23_1404,ACPT_experiment_5_30_19,3.1.0,59.92650397374263,
,,,C,U,y,n,L,G,d,R,i,,,,,5,19,119,17,3,0,3,0,,,,,0,5,5,17,,,,,,up,0.500374752744392,2481.506156177864,None,001,55,2019_Oct_23_1404,ACPT_experiment_5_30_19,3.1.0,59.92650397374263,
,,,C,U,y,n,R,U,g,R,u,,,,,5,19,119,17,3,0,3,0,,,,,0,6,6,11,,,,,,up,0.4003020359232323,2483.2908425401547,None,001,55,2019_Oct_23_1404,ACPT_experiment_5_30_19,3.1.0,59.92650397374263,
,,,C,U,y,n,R,U,d,R,u,,,,,5,19,119,17,3,0,3,0,,,,,0,7,7,9,,,,,,up,0.35039426765797543,2484.958755464704,None,001,55,2019_Oct_23_1404,ACPT_experiment_5_30_19,3.1.0,59.92650397374263,
,,,C,U,y,n,L,U,g,L,u,,,,,5,19,119,17,3,0,3,0,,,,,0,8,8,22,,,,,,down,0.5334565303419367,2486.6103123865214,None,001,55,2019_Oct_23_1404,ACPT_experiment_5_30_19,3.1.0,59.92650397374263,
,,,C,U,y,n,R,D,d,R,c ,,,,,5,19,119,17,3,0,3,0,,,,,0,9,9,1,,,,,,up,0.633798199800367,2488.428088374636,None,001,55,2019_Oct_23_1404,ACPT_experiment_5_30_19,3.1.0,59.92650397374263,
,,,C,U,y,n,R,G,g,L,c ,,,,,5,19,119,17,3,0,3,0,,,,,0,10,10,6,,,,,,up,0.3836206337073236,2490.346202711804,None,001,55,2019_Oct_23_1404,ACPT_experiment_5_30_19,3.1.0,59.92650397374263,
,,,C,U,y,n,L,G,g,L,c ,,,,,5,19,119,17,3,0,3,0,,,,,0,11,11,18,,,,,,up,0.4169888715186971,2492.0141301253825,None,001,55,2019_Oct_23_1404,ACPT_experiment_5_30_19,3.1.0,59.92650397374263,
,,,C,U,y,n,R,U,g,L,u,,,,,5,19,119,17,3,0,3,0,,,,,0,12,12,10,,,,,,up,0.4332561289338628,2493.7324730270084,None,001,55,2019_Oct_23_1404,ACPT_experiment_5_30_19,3.1.0,59.92650397374263,
,,,C,U,y,n,R,G,d,R,i,,,,,5,19,119,17,3,0,3,0,,,,,0,13,13,5,,,,,,up,0.5670879855424573,2495.450079402908,None,001,55,2019_Oct_23_1404,ACPT_experiment_5_30_19,3.1.0,59.92650397374263,
,,,C,U,y,n,L,U,y,R,u,,,,,5,19,119,17,3,0,3,0,,,,,0,14,14,25,,,,,,down,0.7505456780272652,2497.30150163711,None,001,55,2019_Oct_23_1404,ACPT_experiment_5_30_19,3.1.0,59.92650397374263,
,,,C,U,y,n,L,G,d,L,i,,,,,5,19,119,17,3,0,3,0,,,,,0,15,15,16,,,,,,up,0.6337936719755817,2499.3363679803297,None,001,55,2019_Oct_23_1404,ACPT_experiment_5_30_19,3.1.0,59.92650397374263,
,,,C,U,y,n,L,G,y,L,y,,,,,5,19,119,17,3,0,3,0,,,,,0,16,16,34,,,,,,down,0.7839501384150935,2501.2377918596394,None,001,55,2019_Oct_23_1404,ACPT_experiment_5_30_19,3.1.0,59.92650397374263,
,,,C,U,y,n,R,G,y,R,y,,,,,5,19,119,17,3,0,3,0,,,,,0,17,17,29,,,,,,down,0.8839893493568525,2503.30604787236,None,001,55,2019_Oct_23_1404,ACPT_experiment_5_30_19,3.1.0,59.92650397374263,
,,,C,U,y,n,R,G,y,L,y,,,,,5,19,119,17,3,0,3,0,,,,,0,18,18,28,,,,,,down,0.5003750545984076,2505.4743533590845,None,001,55,2019_Oct_23_1404,ACPT_experiment_5_30_19,3.1.0,59.92650397374263,
,,,C,U,y,n,L,D,d,L,c ,,,,,5,19,119,17,3,0,3,0,,,,,0,19,19,12,,,,,,up,0.5003819972589554,2507.2590394195213,None,001,55,2019_Oct_23_1404,ACPT_experiment_5_30_19,3.1.0,59.92650397374263,
,,,C,U,y,n,L,U,g,R,u,,,,,5,19,119,17,3,0,3,0,,,,,0,20,20,23,,,,,,up,0.6838463305502955,2509.043729705925,None,001,55,2019_Oct_23_1404,ACPT_experiment_5_30_19,3.1.0,59.92650397374263,
,,,C,U,y,n,L,G,g,R,c ,,,,,5,19,119,17,3,0,3,0,,,,,0,21,21,19,,,,,,up,0.4336563884098723,2511.0118918719854,None,001,55,2019_Oct_23_1404,ACPT_experiment_5_30_19,3.1.0,59.92650397374263,
,,,C,U,y,n,R,D,g,L,i,,,,,5,19,119,17,3,0,3,0,,,,,0,22,22,2,,,,,,up,0.5501693254554993,2512.7467821522914,None,001,55,2019_Oct_23_1404,ACPT_experiment_5_30_19,3.1.0,59.92650397374263,
,,,C,U,y,n,L,D,y,R,y,,,,,5,19,119,17,3,0,3,0,,,,,0,23,23,33,,,,,,down,0.567091607801558,2514.581265502129,None,001,55,2019_Oct_23_1404,ACPT_experiment_5_30_19,3.1.0,59.92650397374263,
,,,C,U,y,n,R,D,g,R,i,,,,,5,19,119,17,3,0,3,0,,,,,0,24,24,3,,,,,,up,0.6004526010983682,2516.4326705306084,None,001,55,2019_Oct_23_1404,ACPT_experiment_5_30_19,3.1.0,59.92650397374263,
,,,C,U,y,n,L,U,d,R,u,,,,,5,19,119,17,3,0,3,0,,,,,0,25,25,21,,,,,,up,0.8339454445740557,2518.317453154399,None,001,55,2019_Oct_23_1404,ACPT_experiment_5_30_19,3.1.0,59.92650397374263,
,,,C,U,y,n,L,D,g,R,i,,,,,5,19,119,17,3,0,3,0,,,,,0,26,26,15,,,,,,up,0.5837684821926814,2520.4357126233554,None,001,55,2019_Oct_23_1404,ACPT_experiment_5_30_19,3.1.0,59.92650397374263,
,,,C,U,y,n,R,U,d,L,u,,,,,5,19,119,17,3,0,3,0,,,,,0,27,27,8,,,,,,up,0.5170413640698825,2522.303808713401,None,001,55,2019_Oct_23_1404,ACPT_experiment_5_30_19,3.1.0,59.92650397374263,
,,,C,U,y,n,R,G,g,R,c ,,,,,5,19,119,17,3,0,3,0,,,,,0,28,28,7,,,,,,up,0.5170513252814999,2524.1051644037107,None,001,55,2019_Oct_23_1404,ACPT_experiment_5_30_19,3.1.0,59.92650397374263,
,,,C,U,y,n,L,D,d,R,c ,,,,,5,19,119,17,3,0,3,0,,,,,0,29,29,13,,,,,,up,0.5636211830824323,2525.9266550170832,None,001,55,2019_Oct_23_1404,ACPT_experiment_5_30_19,3.1.0,59.92650397374263,
,,,C,U,y,n,R,D,d,L,c,,,,,5,19,119,17,3,0,3,0,,,,,0,30,30,0,,,,,,up,0.45032269788134727,2527.7579504783025,None,001,55,2019_Oct_23_1404,ACPT_experiment_5_30_19,3.1.0,59.92650397374263,
,,,C,U,y,n,R,G,d,L,i,,,,,5,19,119,17,3,0,3,0,,,,,0,31,31,4,,,,,,up,0.4503432240089751,2529.492580257909,None,001,55,2019_Oct_23_1404,ACPT_experiment_5_30_19,3.1.0,59.92650397374263,
,,,C,U,y,n,R,D,y,L,y,,,,,5,19,119,17,3,0,3,0,,,,,0,32,32,26,,,,,,down,0.5837678784846503,2531.24391106029,None,001,55,2019_Oct_23_1404,ACPT_experiment_5_30_19,3.1.0,59.92650397374263,
,,,C,U,y,n,R,D,y,R,y,,,,,5,19,119,17,3,0,3,0,,,,,0,33,33,27,,,,,,down,0.6803937152617436,2533.148808081016,None,001,55,2019_Oct_23_1404,ACPT_experiment_5_30_19,3.1.0,59.92650397374263,
,,,C,U,y,n,L,U,y,L,u,,,,,5,19,119,17,3,0,3,0,,,,,0,34,34,24,,,,,,down,0.5504077907498868,2535.1135218577583,None,001,55,2019_Oct_23_1404,ACPT_experiment_5_30_19,3.1.0,59.92650397374263,
,,,C,U,y,n,R,U,y,R,u,,,,,5,19,119,17,3,0,3,0,,,,,0,35,35,31,,,,,,down,0.8839941790320154,2536.9649280936574,None,001,55,2019_Oct_23_1404,ACPT_experiment_5_30_19,3.1.0,59.92650397374263,
,,,C,U,y,n,L,U,d,L,u,,,,,5,19,119,17,3,0,3,0,,,,,1,0,36,20,,,,,,up,0.517065512452973,2539.149930679043,None,001,55,2019_Oct_23_1404,ACPT_experiment_5_30_19,3.1.0,59.92650397374263,
,,,C,U,y,n,L,G,y,L,y,,,,,5,19,119,17,3,0,3,0,,,,,1,1,37,34,,,,,,down,0.6504850353958318,2540.967967771565,None,001,55,2019_Oct_23_1404,ACPT_experiment_5_30_19,3.1.0,59.92650397374263,
,,,C,U,y,n,L,U,y,L,u,,,,,5,19,119,17,3,0,3,0,,,,,1,2,38,24,,,,,,down,0.5337402738623496,2542.902767435058,None,001,55,2019_Oct_23_1404,ACPT_experiment_5_30_19,3.1.0,59.92650397374263,
,,,C,U,y,n,R,D,d,R,c ,,,,,5,19,119,17,3,0,3,0,,,,,1,3,39,1,,,,,,up,0.6004320749707404,2544.737507965194,None,001,55,2019_Oct_23_1404,ACPT_experiment_5_30_19,3.1.0,59.92650397374263,
,,,C,U,y,n,L,U,y,R,u,,,,,5,19,119,17,3,0,3,0,,,,,1,4,40,25,,,,,,down,0.6504581703193253,2546.622256781244,None,001,55,2019_Oct_23_1404,ACPT_experiment_5_30_19,3.1.0,59.92650397374263,
,,,C,U,y,n,L,D,y,L,y,,,,,5,19,119,17,3,0,3,0,,,,,1,5,41,32,,,,,,down,0.5337227662821533,2548.5570612744123,None,001,55,2019_Oct_23_1404,ACPT_experiment_5_30_19,3.1.0,59.92650397374263,
,,,C,U,y,n,R,U,d,L,u,,,,,5,19,119,17,3,0,3,0,,,,,1,6,42,8,,,,,,up,0.5504074888995092,2550.375105309595,None,001,55,2019_Oct_23_1404,ACPT_experiment_5_30_19,3.1.0,59.92650397374263,
,,,C,U,y,n,L,D,d,L,c ,,,,,5,19,119,17,3,0,3,0,,,,,1,7,43,12,,,,,,up,1.0174224557631533,2552.2265230159755,None,001,55,2019_Oct_23_1404,ACPT_experiment_5_30_19,3.1.0,59.92650397374263,
,,,C,U,y,n,R,D,y,R,y,,,,,5,19,119,17,3,0,3,0,,,,,1,8,44,27,,,,,,down,0.6838466324006731,2554.52826160911,None,001,55,2019_Oct_23_1404,ACPT_experiment_5_30_19,3.1.0,59.92650397374263,
,,,C,U,y,n,R,G,y,L,y,,,,,5,19,119,17,3,0,3,0,,,,,1,9,45,28,,,,,,down,0.5670885892541264,2556.5130991402875,None,001,55,2019_Oct_23_1404,ACPT_experiment_5_30_19,3.1.0,59.92650397374263,
,,,C,U,y,n,L,U,g,L,u,,,,,5,19,119,17,3,0,3,0,,,,,1,10,46,22,,,,,,up,0.6338516280993645,2558.381162026304,None,001,55,2019_Oct_23_1404,ACPT_experiment_5_30_19,3.1.0,59.92650397374263,
,,,C,U,y,n,R,G,g,R,c ,,,,,5,19,119,17,3,0,3,0,,,,,1,11,47,7,,,,,,up,0.7339644916100951,2560.29929719145,None,001,55,2019_Oct_23_1404,ACPT_experiment_5_30_19,3.1.0,59.92650397374263,
,,,C,U,y,n,R,G,d,L,i,,,,,5,19,119,17,3,0,3,0,,,,,1,12,48,4,,,,,,up,0.583793234287441,2562.300801635811,None,001,55,2019_Oct_23_1404,ACPT_experiment_5_30_19,3.1.0,59.92650397374263,
,,,C,U,y,n,R,G,g,L,c ,,,,,5,19,119,17,3,0,3,0,,,,,1,13,49,6,,,,,,up,0.5504126204286877,2564.1522196440455,None,001,55,2019_Oct_23_1404,ACPT_experiment_5_30_19,3.1.0,59.92650397374263,
,,,C,U,y,n,L,G,d,L,i,,,,,5,19,119,17,3,0,3,0,,,,,1,14,50,16,,,,,,up,0.5836220826095087,2565.9871117052935,None,001,55,2019_Oct_23_1404,ACPT_experiment_5_30_19,3.1.0,59.92650397374263,
,,,C,U,y,n,R,G,y,R,y,,,,,5,19,119,17,3,0,3,0,,,,,1,15,51,29,,,,,,down,0.6838662529662543,2567.8550191360846,None,001,55,2019_Oct_23_1404,ACPT_experiment_5_30_19,3.1.0,59.92650397374263,
,,,C,U,y,n,R,U,y,R,u,,,,,5,19,119,17,3,0,3,0,,,,,1,16,52,31,,,,,,down,0.7338497867822298,2569.823236843433,None,001,55,2019_Oct_23_1404,ACPT_experiment_5_30_19,3.1.0,59.92650397374263,
,,,C,U,y,n,L,D,y,R,y,,,,,5,19,119,17,3,0,3,0,,,,,1,17,53,33,,,,,,down,0.5837536913059012,2571.858092319879,None,001,55,2019_Oct_23_1404,ACPT_experiment_5_30_19,3.1.0,59.92650397374263,
,,,C,U,y,n,L,D,d,R,c ,,,,,5,19,119,17,3,0,3,0,,,,,1,18,54,13,,,,,,up,0.5837621432401647,2573.742845965604,None,001,55,2019_Oct_23_1404,ACPT_experiment_5_30_19,3.1.0,59.92650397374263,
,,,C,U,y,n,L,G,g,L,c ,,,,,5,19,119,17,3,0,3,0,,,,,1,19,55,18,,,,,,down,0.4336968369570968,2575.6109142850073,None,001,55,2019_Oct_23_1404,ACPT_experiment_5_30_19,3.1.0,59.92650397374263,
,,,C,U,y,n,L,U,g,R,u,,,,,5,19,119,17,3,0,3,0,,,,,1,20,56,23,,,,,,up,0.647001027213264,2577.365736038235,None,001,55,2019_Oct_23_1404,ACPT_experiment_5_30_19,3.1.0,59.92650397374263,
,,,C,U,y,n,L,G,d,R,i,,,,,5,19,119,17,3,0,3,0,,,,,1,21,57,17,,,,,,up,0.5670852688526793,2579.297072219666,None,001,55,2019_Oct_23_1404,ACPT_experiment_5_30_19,3.1.0,59.92650397374263,
,,,C,U,y,n,R,D,y,L,y,,,,,5,19,119,17,3,0,3,0,,,,,1,22,58,26,,,,,,down,0.6338172166506411,2581.1484627591162,None,001,55,2019_Oct_23_1404,ACPT_experiment_5_30_19,3.1.0,59.92650397374263,
,,,C,U,y,n,L,D,g,R,i,,,,,5,19,119,17,3,0,3,0,,,,,1,23,59,15,,,,,,up,0.6171352107303392,2583.066588566766,None,001,55,2019_Oct_23_1404,ACPT_experiment_5_30_19,3.1.0,59.92650397374263,
,,,C,U,y,n,R,D,g,L,i,,,,,5,19,119,17,3,0,3,0,,,,,1,24,60,2,,,,,,up,0.7172079275514989,2584.968028142528,None,001,55,2019_Oct_23_1404,ACPT_experiment_5_30_19,3.1.0,59.92650397374263,
,,,C,U,y,n,L,G,g,R,c ,,,,,5,19,119,17,3,0,3,0,,,,,1,25,61,19,,,,,,up,0.6838538769152365,2586.9528659755597,None,001,55,2019_Oct_23_1404,ACPT_experiment_5_30_19,3.1.0,59.92650397374263,
,,,C,U,y,n,R,G,d,R,i,,,,,5,19,119,17,3,0,3,0,,,,,1,26,62,5,,,,,,up,0.6171137790370267,2588.9210486677475,None,001,55,2019_Oct_23_1404,ACPT_experiment_5_30_19,3.1.0,59.92650397374263,
,,,C,U,y,n,R,D,d,L,c,,,,,5,19,119,17,3,0,3,0,,,,,1,27,63,0,,,,,,up,0.6171617739491921,2590.805795068958,None,001,55,2019_Oct_23_1404,ACPT_experiment_5_30_19,3.1.0,59.92650397374263,
,,,C,U,y,n,L,U,d,R,u,,,,,5,19,119,17,3,0,3,0,,,,,1,28,64,21,,,,,,up,0.9507191841694294,2592.7072334373006,None,001,55,2019_Oct_23_1404,ACPT_experiment_5_30_19,3.1.0,59.92650397374263,
,,,C,U,y,n,L,G,y,R,y,,,,,5,19,119,17,3,0,3,0,,,,,1,29,65,35,,,,,,down,0.8006007514377416,2594.942266042148,None,001,55,2019_Oct_23_1404,ACPT_experiment_5_30_19,3.1.0,59.92650397374263,
,,,C,U,y,n,L,D,g,L,i,,,,,5,19,119,17,3,0,3,0,,,,,1,30,66,14,,,,,,up,0.6671724747029657,2597.027183534665,None,001,55,2019_Oct_23_1404,ACPT_experiment_5_30_19,3.1.0,59.92650397374263,
,,,C,U,y,n,R,U,g,L,u,,,,,5,19,119,17,3,0,3,0,,,,,1,31,67,10,,,,,,up,0.7172308685185271,2598.961963577596,None,001,55,2019_Oct_23_1404,ACPT_experiment_5_30_19,3.1.0,59.92650397374263,
,,,C,U,y,n,R,U,d,R,u,,,,,5,19,119,17,3,0,3,0,,,,,1,32,68,9,,,,,,up,0.650502542976028,2600.963489151789,None,001,55,2019_Oct_23_1404,ACPT_experiment_5_30_19,3.1.0,59.92650397374263,
,,,C,U,y,n,R,U,y,L,u,,,,,5,19,119,17,3,0,3,0,,,,,1,33,69,30,,,,,,down,1.5845451546119875,2602.8983168877785,None,001,55,2019_Oct_23_1404,ACPT_experiment_5_30_19,3.1.0,59.92650397374263,
,,,C,U,y,n,R,U,g,R,u,,,,,5,19,119,17,3,0,3,0,,,,,1,34,70,11,,,,,,up,0.750541753914149,2605.767171840809,None,001,55,2019_Oct_23_1404,ACPT_experiment_5_30_19,3.1.0,59.92650397374263,
,,,C,U,y,n,R,D,g,R,i,,,,,5,19,119,17,3,0,3,0,,,,,1,35,71,3,,,,,,up,0.6505055615234596,2607.8020158467734,None,001,55,2019_Oct_23_1404,ACPT_experiment_5_30_19,3.1.0,59.92650397374263,
,,,C,U,y,n,,,,,,,,,,5,19,119,17,4,0,4,0,0,0,0,0,,,,,,,,,,,,,,001,55,2019_Oct_23_1404,ACPT_experiment_5_30_19,3.1.0,59.92650397374263,
,,,C,U,y,n,R,U,d,L,u,,,,,5,19,119,17,4,0,4,0,,,,,0,0,0,8,,,,,,up,0.45006913984616403,2642.1450439515684,None,001,55,2019_Oct_23_1404,ACPT_experiment_5_30_19,3.1.0,59.92650397374263,
,,,C,U,y,n,L,G,g,R,c ,,,,,5,19,119,17,4,0,4,0,,,,,0,1,1,19,,,,,,up,0.6004402250509884,2643.879431341764,None,001,55,2019_Oct_23_1404,ACPT_experiment_5_30_19,3.1.0,59.92650397374263,
,,,C,U,y,n,R,U,d,R,u,,,,,5,19,119,17,4,0,4,0,,,,,0,2,2,9,,,,,,up,0.5337233699901844,2645.7641958542663,None,001,55,2019_Oct_23_1404,ACPT_experiment_5_30_19,3.1.0,59.92650397374263,
,,,C,U,y,n,L,D,g,R,i,,,,,5,19,119,17,4,0,4,0,,,,,0,3,3,15,,,,,,up,0.5170525326975621,2647.5822326449343,None,001,55,2019_Oct_23_1404,ACPT_experiment_5_30_19,3.1.0,59.92650397374263,
,,,C,U,y,n,L,G,y,L,y,,,,,5,19,119,17,4,0,4,0,,,,,0,4,4,34,,,,,,down,0.4834533759567421,2649.4005211825097,None,001,55,2019_Oct_23_1404,ACPT_experiment_5_30_19,3.1.0,59.92650397374263,
,,,C,U,y,n,R,D,g,R,i,,,,,5,19,119,17,4,0,4,0,,,,,0,5,5,3,,,,,,up,0.5003792805655394,2651.168287979144,None,001,55,2019_Oct_23_1404,ACPT_experiment_5_30_19,3.1.0,59.92650397374263,
,,,C,U,y,n,R,G,g,R,c ,,,,,5,19,119,17,4,0,4,0,,,,,0,6,6,7,,,,,,up,0.5337315200704325,2652.9529764544204,None,001,55,2019_Oct_23_1404,ACPT_experiment_5_30_19,3.1.0,59.92650397374263,
,,,C,U,y,n,R,D,g,L,i,,,,,5,19,119,17,4,0,4,0,,,,,0,7,7,2,,,,,,up,0.4836882189993048,2654.7710271304095,None,001,55,2019_Oct_23_1404,ACPT_experiment_5_30_19,3.1.0,59.92650397374263,
,,,C,U,y,n,L,U,d,R,u,,,,,5,19,119,17,4,0,4,0,,,,,0,8,8,21,,,,,,up,0.7472448957087181,2656.5590459697705,None,001,55,2019_Oct_23_1404,ACPT_experiment_5_30_19,3.1.0,59.92650397374263,
,,,C,U,y,n,R,U,g,R,u,,,,,5,19,119,17,4,0,4,0,,,,,0,9,9,11,,,,,,up,0.5337327274901327,2658.590590098982,None,001,55,2019_Oct_23_1404,ACPT_experiment_5_30_19,3.1.0,59.92650397374263,
,,,C,U,y,n,R,D,y,L,y,,,,,5,19,119,17,4,0,4,0,,,,,0,10,10,26,,,,,,down,0.6671655320460559,2660.4086386619856,None,001,55,2019_Oct_23_1404,ACPT_experiment_5_30_19,3.1.0,59.92650397374263,
,,,C,U,y,n,L,D,y,R,y,,,,,5,19,119,17,4,0,4,0,,,,,0,11,11,33,,,,,,down,0.7338841982345912,2662.3934710616304,None,001,55,2019_Oct_23_1404,ACPT_experiment_5_30_19,3.1.0,59.92650397374263,
,,,C,U,y,n,R,G,d,L,i,,,,,5,19,119,17,4,0,4,0,,,,,0,12,12,4,,,,,,up,0.6004701086749265,2664.4283298584814,None,001,55,2019_Oct_23_1404,ACPT_experiment_5_30_19,3.1.0,59.92650397374263,
,,,C,U,y,n,L,D,g,L,i,,,,,5,19,119,17,4,0,4,0,,,,,0,13,13,14,,,,,,up,0.5670937207869429,2666.313119424929,None,001,55,2019_Oct_23_1404,ACPT_experiment_5_30_19,3.1.0,59.92650397374263,
,,,C,U,y,n,L,G,d,L,i,,,,,5,19,119,17,4,0,4,0,,,,,0,14,14,16,,,,,,up,0.5503027452796232,2668.164521736715,None,001,55,2019_Oct_23_1404,ACPT_experiment_5_30_19,3.1.0,59.92650397374263,
,,,C,U,y,n,R,G,y,L,y,,,,,5,19,119,17,4,0,4,0,,,,,0,15,15,28,,,,,,down,1.234257743555645,2669.999254720482,None,001,55,2019_Oct_23_1404,ACPT_experiment_5_30_19,3.1.0,59.92650397374263,
,,,C,U,y,n,R,U,y,L,u,,,,,5,19,119,17,4,0,4,0,,,,,0,16,16,30,,,,,,down,0.7005244123538432,2672.5178319218103,None,001,55,2019_Oct_23_1404,ACPT_experiment_5_30_19,3.1.0,59.92650397374263,
,,,C,U,y,n,L,G,y,R,y,,,,,5,19,119,17,4,0,4,0,,,,,0,17,17,35,,,,,,down,1.2340681787391077,2674.519515366068,None,001,55,2019_Oct_23_1404,ACPT_experiment_5_30_19,3.1.0,59.92650397374263,
,,,C,U,y,n,R,D,y,R,y,,,,,5,19,119,17,4,0,4,0,,,,,0,18,18,27,,,,,,down,0.7338890279097541,2677.0546254570436,None,001,55,2019_Oct_23_1404,ACPT_experiment_5_30_19,3.1.0,59.92650397374263,
,,,C,U,y,n,R,G,g,L,c ,,,,,5,19,119,17,4,0,4,0,,,,,0,19,19,6,,,,,,up,0.5670982486080902,2679.0728034553904,None,001,55,2019_Oct_23_1404,ACPT_experiment_5_30_19,3.1.0,59.92650397374263,
,,,C,U,y,n,R,U,g,L,u,,,,,5,19,119,17,4,0,4,0,,,,,0,20,20,10,,,,,,up,0.5170570605187095,2680.924211502417,None,001,55,2019_Oct_23_1404,ACPT_experiment_5_30_19,3.1.0,59.92650397374263,
,,,C,U,y,n,L,D,y,L,y,,,,,5,19,119,17,4,0,4,0,,,,,0,21,21,32,,,,,,down,0.5334839991301124,2682.74251090677,None,001,55,2019_Oct_23_1404,ACPT_experiment_5_30_19,3.1.0,59.92650397374263,
,,,C,U,y,n,R,D,d,L,c,,,,,5,19,119,17,4,0,4,0,,,,,0,22,22,0,,,,,,up,0.6338123869754781,2684.5603013839136,None,001,55,2019_Oct_23_1404,ACPT_experiment_5_30_19,3.1.0,59.92650397374263,
,,,C,U,y,n,R,D,d,R,c ,,,,,5,19,119,17,4,0,4,0,,,,,0,23,23,1,,,,,,up,0.767269943622523,2686.4617252632233,None,001,55,2019_Oct_23_1404,ACPT_experiment_5_30_19,3.1.0,59.92650397374263,
,,,C,U,y,n,R,U,y,R,u,,,,,5,19,119,17,4,0,4,0,,,,,0,24,24,31,,,,,,down,0.8172770221171959,2688.513317683166,None,001,55,2019_Oct_23_1404,ACPT_experiment_5_30_19,3.1.0,59.92650397374263,
,,,C,U,y,n,R,G,y,R,y,,,,,5,19,119,17,4,0,4,0,,,,,0,25,25,29,,,,,,down,0.8672092406195588,2690.598221290362,None,001,55,2019_Oct_23_1404,ACPT_experiment_5_30_19,3.1.0,59.92650397374263,
,,,C,U,y,n,L,D,d,L,c ,,,,,5,19,119,17,4,0,4,0,,,,,0,26,26,12,,,,,,up,0.7172106442449149,2692.749854732374,None,001,55,2019_Oct_23_1404,ACPT_experiment_5_30_19,3.1.0,59.92650397374263,
,,,C,U,y,n,R,G,d,R,i,,,,,5,19,119,17,4,0,4,0,,,,,0,27,27,5,,,,,,up,0.9840644810174126,2694.751387249231,None,001,55,2019_Oct_23_1404,ACPT_experiment_5_30_19,3.1.0,59.92650397374263,
,,,C,U,y,n,L,U,g,L,u,,,,,5,19,119,17,4,0,4,0,,,,,0,28,28,22,,,,,,up,0.7005180734049645,2697.0197748102764,None,001,55,2019_Oct_23_1404,ACPT_experiment_5_30_19,3.1.0,59.92650397374263,
,,,C,U,y,n,L,G,g,L,c ,,,,,5,19,119,17,4,0,4,0,,,,,0,29,29,18,,,,,,up,0.5337390664426493,2699.00460388952,None,001,55,2019_Oct_23_1404,ACPT_experiment_5_30_19,3.1.0,59.92650397374263,
,,,C,U,y,n,L,U,y,L,u,,,,,5,19,119,17,4,0,4,0,,,,,0,30,30,24,,,,,,down,0.617104723394732,2700.8226772046182,None,001,55,2019_Oct_23_1404,ACPT_experiment_5_30_19,3.1.0,59.92650397374263,
,,,C,U,y,n,L,G,d,R,i,,,,,5,19,119,17,4,0,4,0,,,,,0,31,31,17,,,,,,up,0.7504336898928159,2702.7242009978727,None,001,55,2019_Oct_23_1404,ACPT_experiment_5_30_19,3.1.0,59.92650397374263,
,,,C,U,y,n,L,U,g,R,u,,,,,5,19,119,17,4,0,4,0,,,,,0,32,32,23,,,,,,up,0.617158453547745,2704.758945089892,None,001,55,2019_Oct_23_1404,ACPT_experiment_5_30_19,3.1.0,59.92650397374263,
,,,C,U,y,n,L,D,d,R,c ,,,,,5,19,119,17,4,0,4,0,,,,,0,33,33,13,,,,,,up,0.7672542471736961,2706.6604169641178,None,001,55,2019_Oct_23_1404,ACPT_experiment_5_30_19,3.1.0,59.92650397374263,
,,,C,U,y,n,L,U,y,R,u,,,,,5,19,119,17,4,0,4,0,,,,,0,34,34,25,,,,,,down,0.5835849544710072,2708.7621607491565,None,001,55,2019_Oct_23_1404,ACPT_experiment_5_30_19,3.1.0,59.92650397374263,
,,,C,U,y,n,L,U,d,L,u,,,,,5,19,119,17,4,0,4,0,,,,,0,35,35,20,,,,,,up,0.583790517590387,2710.646773730543,None,001,55,2019_Oct_23_1404,ACPT_experiment_5_30_19,3.1.0,59.92650397374263,
,,,C,U,y,n,L,G,d,L,i,,,,,5,19,119,17,4,0,4,0,,,,,1,0,36,16,,,,,,up,0.43368506461774814,2712.514836314702,None,001,55,2019_Oct_23_1404,ACPT_experiment_5_30_19,3.1.0,59.92650397374263,
,,,C,U,y,n,R,G,g,R,c ,,,,,5,19,119,17,4,0,4,0,,,,,1,1,37,7,,,,,,up,0.6838421045795258,2714.2328405352346,None,001,55,2019_Oct_23_1404,ACPT_experiment_5_30_19,3.1.0,59.92650397374263,
,,,C,U,y,n,L,D,y,L,y,,,,,5,19,119,17,4,0,4,0,,,,,1,2,38,32,,,,,,down,0.3499870655214181,2716.2179424912247,None,001,55,2019_Oct_23_1404,ACPT_experiment_5_30_19,3.1.0,59.92650397374263,
,,,C,U,y,n,R,G,d,L,i,,,,,5,19,119,17,4,0,4,0,,,,,1,3,39,4,,,,,,up,0.5170543438252935,2717.8522402607305,None,001,55,2019_Oct_23_1404,ACPT_experiment_5_30_19,3.1.0,59.92650397374263,
,,,C,U,y,n,L,U,g,L,u,,,,,5,19,119,17,4,0,4,0,,,,,1,4,40,22,,,,,,up,0.4169813251501182,2719.653605912248,None,001,55,2019_Oct_23_1404,ACPT_experiment_5_30_19,3.1.0,59.92650397374263,
,,,C,U,y,n,L,G,y,L,y,,,,,5,19,119,17,4,0,4,0,,,,,1,5,41,34,,,,,,down,0.6505109949102916,2721.354902167346,None,001,55,2019_Oct_23_1404,ACPT_experiment_5_30_19,3.1.0,59.92650397374263,
,,,C,U,y,n,L,G,y,R,y,,,,,5,19,119,17,4,0,4,0,,,,,1,6,42,35,,,,,,up,0.4137046912146616,2723.3097166156876,None,001,55,2019_Oct_23_1404,ACPT_experiment_5_30_19,3.1.0,59.92650397374263,
,,,C,U,y,n,R,D,g,R,i,,,,,5,19,119,17,4,0,4,0,,,,,1,7,43,3,,,,,,up,0.7672518323342956,2725.007673451055,None,001,55,2019_Oct_23_1404,ACPT_experiment_5_30_19,3.1.0,59.92650397374263,
,,,C,U,y,n,L,G,d,R,i,,,,,5,19,119,17,4,0,4,0,,,,,1,8,44,17,,,,,,up,0.6671573819658079,2727.05924534487,None,001,55,2019_Oct_23_1404,ACPT_experiment_5_30_19,3.1.0,59.92650397374263,
,,,C,U,y,n,L,U,y,L,u,,,,,5,19,119,17,4,0,4,0,,,,,1,9,45,24,,,,,,down,1.017458678339608,2729.0106895842873,None,001,55,2019_Oct_23_1404,ACPT_experiment_5_30_19,3.1.0,59.92650397374263,
,,,C,U,y,n,R,U,g,L,u,,,,,5,19,119,17,4,0,4,0,,,,,1,10,46,10,,,,,,up,0.5670913059475424,2731.3124616833047,None,001,55,2019_Oct_23_1404,ACPT_experiment_5_30_19,3.1.0,59.92650397374263,
,,,C,U,y,n,R,D,g,L,i,,,,,5,19,119,17,4,0,4,0,,,,,1,11,47,2,,,,,,up,0.6171306829091918,2733.1471889318273,None,001,55,2019_Oct_23_1404,ACPT_experiment_5_30_19,3.1.0,59.92650397374263,
,,,C,U,y,n,L,D,d,L,c ,,,,,5,19,119,17,4,0,4,0,,,,,1,12,48,12,,,,,,up,0.5337312182164169,2735.0486330354106,None,001,55,2019_Oct_23_1404,ACPT_experiment_5_30_19,3.1.0,59.92650397374263,
,,,C,U,y,n,R,U,y,L,u,,,,,5,19,119,17,4,0,4,0,,,,,1,13,49,30,,,,,,down,0.6838747049005178,2736.8666640908377,None,001,55,2019_Oct_23_1404,ACPT_experiment_5_30_19,3.1.0,59.92650397374263,
,,,C,U,y,n,L,D,g,L,i,,,,,5,19,119,17,4,0,4,0,,,,,1,14,50,14,,,,,,up,0.7672717547502543,2738.8348129752885,None,001,55,2019_Oct_23_1404,ACPT_experiment_5_30_19,3.1.0,59.92650397374263,
,,,C,U,y,n,R,G,y,L,y,,,,,5,19,119,17,4,0,4,0,,,,,1,15,51,28,,,,,,down,0.6338042368952301,2740.886405998943,None,001,55,2019_Oct_23_1404,ACPT_experiment_5_30_19,3.1.0,59.92650397374263,
,,,C,U,y,n,L,U,y,R,u,,,,,5,19,119,17,4,0,4,0,,,,,1,16,52,25,,,,,,down,1.617800498723227,2742.8045182231253,None,001,55,2019_Oct_23_1404,ACPT_experiment_5_30_19,3.1.0,59.92650397374263,
,,,C,U,y,n,R,U,g,R,u,,,,,5,19,119,17,4,0,4,0,,,,,1,17,53,11,,,,,,up,0.8840017254005943,2745.706723302679,None,001,55,2019_Oct_23_1404,ACPT_experiment_5_30_19,3.1.0,59.92650397374263,
,,,C,U,y,n,R,G,d,R,i,,,,,5,19,119,17,4,0,4,0,,,,,1,18,54,5,,,,,,up,0.8336897735498496,2747.891990916585,None,001,55,2019_Oct_23_1404,ACPT_experiment_5_30_19,3.1.0,59.92650397374263,
,,,C,U,y,n,R,U,d,L,u,,,,,5,19,119,17,4,0,4,0,,,,,1,19,55,8,,,,,,up,1.3343358937672747,2750.009992299685,None,001,55,2019_Oct_23_1404,ACPT_experiment_5_30_19,3.1.0,59.92650397374263,
,,,C,U,y,n,L,D,d,R,c ,,,,,5,19,119,17,4,0,4,0,,,,,1,20,56,13,,,,,,up,0.7338881223477074,2752.6286419159806,None,001,55,2019_Oct_23_1404,ACPT_experiment_5_30_19,3.1.0,59.92650397374263,
,,,C,U,y,n,L,U,d,L,u,,,,,5,19,119,17,4,0,4,0,,,,,1,21,57,20,,,,,,up,0.5670813447395631,2754.6468525146447,None,001,55,2019_Oct_23_1404,ACPT_experiment_5_30_19,3.1.0,59.92650397374263,
,,,C,U,y,n,R,G,g,L,c ,,,,,5,19,119,17,4,0,4,0,,,,,1,22,58,6,,,,,,up,0.6504759797535371,2756.4982647876386,None,001,55,2019_Oct_23_1404,ACPT_experiment_5_30_19,3.1.0,59.92650397374263,
,,,C,U,y,n,R,D,d,L,c,,,,,5,19,119,17,4,0,4,0,,,,,1,23,59,0,,,,,,up,0.6002002504792472,2758.450005750332,None,001,55,2019_Oct_23_1404,ACPT_experiment_5_30_19,3.1.0,59.92650397374263,
,,,C,U,y,n,R,D,d,R,c ,,,,,5,19,119,17,4,0,4,0,,,,,1,24,60,1,,,,,,up,0.6505149190197699,2760.3177903262185,None,001,55,2019_Oct_23_1404,ACPT_experiment_5_30_19,3.1.0,59.92650397374263,
,,,C,U,y,n,R,D,y,L,y,,,,,5,19,119,17,4,0,4,0,,,,,1,25,61,26,,,,,,down,0.7338902353294543,2762.2526135343833,None,001,55,2019_Oct_23_1404,ACPT_experiment_5_30_19,3.1.0,59.92650397374263,
,,,C,U,y,n,R,D,y,R,y,,,,,5,19,119,17,4,0,4,0,,,,,1,26,62,27,,,,,,down,0.8005980347443256,2764.2708126625657,None,001,55,2019_Oct_23_1404,ACPT_experiment_5_30_19,3.1.0,59.92650397374263,
,,,C,U,y,n,L,D,y,R,y,,,,,5,19,119,17,4,0,4,0,,,,,1,27,63,33,,,,,,down,0.9006795053574024,2766.3557262309696,None,001,55,2019_Oct_23_1404,ACPT_experiment_5_30_19,3.1.0,59.92650397374263,
,,,C,U,y,n,R,U,y,R,u,,,,,5,19,119,17,4,0,4,0,,,,,1,28,64,31,,,,,,down,1.0341243841030519,2768.54071462918,None,001,55,2019_Oct_23_1404,ACPT_experiment_5_30_19,3.1.0,59.92650397374263,
,,,C,U,y,n,R,U,d,R,u,,,,,5,19,119,17,4,0,4,0,,,,,1,29,65,9,,,,,,up,1.8147139729480841,2770.87916238913,None,001,55,2019_Oct_23_1404,ACPT_experiment_5_30_19,3.1.0,59.92650397374263,
,,,C,U,y,n,R,G,y,R,y,,,,,5,19,119,17,4,0,4,0,,,,,1,30,66,29,,,,,,down,0.6838484435320424,2773.9781822363875,None,001,55,2019_Oct_23_1404,ACPT_experiment_5_30_19,3.1.0,59.92650397374263,
,,,C,U,y,n,L,G,g,R,c ,,,,,5,19,119,17,4,0,4,0,,,,,1,31,67,19,,,,,,up,0.5670940226409584,2775.9463410820463,None,001,55,2019_Oct_23_1404,ACPT_experiment_5_30_19,3.1.0,59.92650397374263,
,,,C,U,y,n,L,U,g,R,u,,,,,5,19,119,17,4,0,4,0,,,,,1,32,68,23,,,,,,up,0.7839528551085095,2777.7977234714126,None,001,55,2019_Oct_23_1404,ACPT_experiment_5_30_19,3.1.0,59.92650397374263,
,,,C,U,y,n,L,U,d,R,u,,,,,5,19,119,17,4,0,4,0,,,,,1,33,69,21,,,,,,up,0.8505770407427917,2779.8660359309833,None,001,55,2019_Oct_23_1404,ACPT_experiment_5_30_19,3.1.0,59.92650397374263,
,,,C,U,y,n,L,D,g,R,i,,,,,5,19,119,17,4,0,4,0,,,,,1,34,70,15,,,,,,up,0.5671124357832014,2782.0009182423237,None,001,55,2019_Oct_23_1404,ACPT_experiment_5_30_19,3.1.0,59.92650397374263,
,,,C,U,y,n,L,G,g,L,c ,,,,,5,19,119,17,4,0,4,0,,,,,1,35,71,18,,,,,,up,0.7005464477588248,2783.8523247800767,None,001,55,2019_Oct_23_1404,ACPT_experiment_5_30_19,3.1.0,59.92650397374263,
,,,C,U,y,n,,,,,,,,,,5,19,119,17,5,0,5,0,0,0,0,0,,,,,,,,,,,,,,001,55,2019_Oct_23_1404,ACPT_experiment_5_30_19,3.1.0,59.92650397374263,
,,,C,U,y,n,L,D,d,L,c ,,,,,5,19,119,17,5,0,5,0,,,,,0,0,0,12,,,,,,up,0.6335398120827449,2802.53346528413,None,001,55,2019_Oct_23_1404,ACPT_experiment_5_30_19,3.1.0,59.92650397374263,
,,,C,U,y,n,R,D,d,R,c ,,,,,5,19,119,17,5,0,5,0,,,,,0,1,1,1,,,,,,up,0.5337595925702772,2804.451287727701,None,001,55,2019_Oct_23_1404,ACPT_experiment_5_30_19,3.1.0,59.92650397374263,
,,,C,U,y,n,L,U,g,L,u,,,,,5,19,119,17,5,0,5,0,,,,,0,2,2,22,,,,,,up,0.4670080242030963,2806.2860433505775,None,001,55,2019_Oct_23_1404,ACPT_experiment_5_30_19,3.1.0,59.92650397374263,
,,,C,U,y,n,R,D,g,L,i,,,,,5,19,119,17,5,0,5,0,,,,,0,3,3,2,,,,,,up,0.40030052664587856,2808.0373744548124,None,001,55,2019_Oct_23_1404,ACPT_experiment_5_30_19,3.1.0,59.92650397374263,
,,,C,U,y,n,L,U,d,L,u,,,,,5,19,119,17,5,0,5,0,,,,,0,4,4,20,,,,,,up,0.43336238182746456,2809.738959283106,None,001,55,2019_Oct_23_1404,ACPT_experiment_5_30_19,3.1.0,59.92650397374263,
,,,C,U,y,n,R,U,g,R,u,,,,,5,19,119,17,5,0,5,0,,,,,0,5,5,11,,,,,,up,0.5003687156458909,2811.456636896739,None,001,55,2019_Oct_23_1404,ACPT_experiment_5_30_19,3.1.0,59.92650397374263,
,,,C,U,y,n,L,U,y,L,u,,,,,5,19,119,17,5,0,5,0,,,,,0,6,6,24,,,,,,down,0.40030414890134125,2813.2413202404823,None,001,55,2019_Oct_23_1404,ACPT_experiment_5_30_19,3.1.0,59.92650397374263,
,,,C,U,y,n,L,G,y,L,y,,,,,5,19,119,17,5,0,5,0,,,,,0,7,7,34,,,,,,down,0.500374752744392,2814.9259326785286,None,001,55,2019_Oct_23_1404,ACPT_experiment_5_30_19,3.1.0,59.92650397374263,
,,,C,U,y,n,L,D,g,L,i,,,,,5,19,119,17,5,0,5,0,,,,,0,8,8,14,,,,,,up,0.5668465016970003,2816.727542228731,None,001,55,2019_Oct_23_1404,ACPT_experiment_5_30_19,3.1.0,59.92650397374263,
,,,C,U,y,n,L,D,g,R,i,,,,,5,19,119,17,5,0,5,0,,,,,0,9,9,15,,,,,,up,0.6338298945520364,2818.5787081882045,None,001,55,2019_Oct_23_1404,ACPT_experiment_5_30_19,3.1.0,59.92650397374263,
,,,C,U,y,n,R,D,g,R,i,,,,,5,19,119,17,5,0,5,0,,,,,0,10,10,3,,,,,,up,0.6004529029523837,2820.496830071741,None,001,55,2019_Oct_23_1404,ACPT_experiment_5_30_19,3.1.0,59.92650397374263,
,,,C,U,y,n,R,U,d,R,u,,,,,5,19,119,17,5,0,5,0,,,,,0,11,11,9,,,,,,up,0.5337266903916316,2822.381598206499,None,001,55,2019_Oct_23_1404,ACPT_experiment_5_30_19,3.1.0,59.92650397374263,
,,,C,U,y,n,R,G,g,R,c ,,,,,5,19,119,17,5,0,5,0,,,,,0,12,12,7,,,,,,up,0.5170292898801563,2824.199666993776,None,001,55,2019_Oct_23_1404,ACPT_experiment_5_30_19,3.1.0,59.92650397374263,
,,,C,U,y,n,R,G,d,L,i,,,,,5,19,119,17,5,0,5,0,,,,,0,13,13,4,,,,,,up,0.41698253256618045,2825.984325585425,None,001,55,2019_Oct_23_1404,ACPT_experiment_5_30_19,3.1.0,59.92650397374263,
,,,C,U,y,n,L,G,y,R,y,,,,,5,19,119,17,5,0,5,0,,,,,0,14,14,35,,,,,,down,0.6838529713531898,2827.6856185201214,None,001,55,2019_Oct_23_1404,ACPT_experiment_5_30_19,3.1.0,59.92650397374263,
,,,C,U,y,n,R,U,g,L,u,,,,,5,19,119,17,5,0,5,0,,,,,0,15,15,10,,,,,,up,0.45007336580965784,2829.6707391911077,None,001,55,2019_Oct_23_1404,ACPT_experiment_5_30_19,3.1.0,59.92650397374263,
,,,C,U,y,n,L,G,g,R,c ,,,,,5,19,119,17,5,0,5,0,,,,,0,16,16,19,,,,,,up,0.6671763988160819,2831.4051051496135,None,001,55,2019_Oct_23_1404,ACPT_experiment_5_30_19,3.1.0,59.92650397374263,
,,,C,U,y,n,R,D,y,R,y,,,,,5,19,119,17,5,0,5,0,,,,,0,17,17,27,,,,,,down,0.6504814131403691,2833.3566043266037,None,001,55,2019_Oct_23_1404,ACPT_experiment_5_30_19,3.1.0,59.92650397374263,
,,,C,U,y,n,L,D,d,R,c ,,,,,5,19,119,17,5,0,5,0,,,,,0,18,18,13,,,,,,up,0.6004447528757737,2835.291404291951,None,001,55,2019_Oct_23_1404,ACPT_experiment_5_30_19,3.1.0,59.92650397374263,
,,,C,U,y,n,L,G,d,R,i,,,,,5,19,119,17,5,0,5,0,,,,,0,19,19,17,,,,,,up,0.7172118516646151,2837.159479554015,None,001,55,2019_Oct_23_1404,ACPT_experiment_5_30_19,3.1.0,59.92650397374263,
,,,C,U,y,n,R,D,y,L,y,,,,,5,19,119,17,5,0,5,0,,,,,0,20,20,26,,,,,,down,0.6838520657911431,2839.161010259744,None,001,55,2019_Oct_23_1404,ACPT_experiment_5_30_19,3.1.0,59.92650397374263,
,,,C,U,y,n,R,D,d,L,c,,,,,5,19,119,17,5,0,5,0,,,,,0,21,21,0,,,,,,up,0.6670061527074722,2841.129293771435,None,001,55,2019_Oct_23_1404,ACPT_experiment_5_30_19,3.1.0,59.92650397374263,
,,,C,U,y,n,L,U,y,R,u,,,,,5,19,119,17,5,0,5,0,,,,,0,22,22,25,,,,,,down,0.6171506053251505,2843.080620287481,None,001,55,2019_Oct_23_1404,ACPT_experiment_5_30_19,3.1.0,59.92650397374263,
,,,C,U,y,n,R,U,y,R,u,,,,,5,19,119,17,5,0,5,0,,,,,0,23,23,31,,,,,,down,0.6671703617212188,2844.9654014019943,None,001,55,2019_Oct_23_1404,ACPT_experiment_5_30_19,3.1.0,59.92650397374263,
,,,C,U,y,n,L,U,g,R,u,,,,,5,19,119,17,5,0,5,0,,,,,0,24,24,23,,,,,,up,0.6338096702820621,2846.916886995521,None,001,55,2019_Oct_23_1404,ACPT_experiment_5_30_19,3.1.0,59.92650397374263,
,,,C,U,y,n,R,U,y,L,u,,,,,5,19,119,17,5,0,5,0,,,,,0,25,25,30,,,,,,down,0.6001809317713196,2848.851962252451,None,001,55,2019_Oct_23_1404,ACPT_experiment_5_30_19,3.1.0,59.92650397374263,
,,,C,U,y,n,L,D,y,R,y,,,,,5,19,119,17,5,0,5,0,,,,,0,26,26,33,,,,,,down,0.6671670413197717,2850.7364541900606,None,001,55,2019_Oct_23_1404,ACPT_experiment_5_30_19,3.1.0,59.92650397374263,
,,,C,U,y,n,L,G,g,L,c ,,,,,5,19,119,17,5,0,5,0,,,,,0,27,27,18,,,,,,up,0.5504123185710341,2852.6879298223794,None,001,55,2019_Oct_23_1404,ACPT_experiment_5_30_19,3.1.0,59.92650397374263,
,,,C,U,y,n,L,G,d,L,i,,,,,5,19,119,17,5,0,5,0,,,,,0,28,28,16,,,,,,up,0.4503556000563549,2854.5059611796605,None,001,55,2019_Oct_23_1404,ACPT_experiment_5_30_19,3.1.0,59.92650397374263,
,,,C,U,y,n,R,U,d,L,u,,,,,5,19,119,17,5,0,5,0,,,,,0,29,29,8,,,,,,up,0.5504313354285841,2856.2406229558765,None,001,55,2019_Oct_23_1404,ACPT_experiment_5_30_19,3.1.0,59.92650397374263,
,,,C,U,y,n,R,G,d,R,i,,,,,5,19,119,17,5,0,5,0,,,,,0,30,30,5,,,,,,up,0.5837784434006608,2858.0753613730267,None,001,55,2019_Oct_23_1404,ACPT_experiment_5_30_19,3.1.0,59.92650397374263,
,,,C,U,y,n,R,G,y,R,y,,,,,5,19,119,17,5,0,5,0,,,,,0,31,31,29,,,,,,up,0.5337671389388561,2859.926740743849,None,001,55,2019_Oct_23_1404,ACPT_experiment_5_30_19,3.1.0,59.92650397374263,
,,,C,U,y,n,R,G,y,L,y,,,,,5,19,119,17,5,0,5,0,,,,,0,32,32,28,,,,,,down,0.4636830935050966,2861.764813751055,None,001,55,2019_Oct_23_1404,ACPT_experiment_5_30_19,3.1.0,59.92650397374263,
,,,C,U,y,n,R,G,g,L,c ,,,,,5,19,119,17,5,0,5,0,,,,,0,33,33,6,,,,,,up,0.517060079069779,2863.5128084541066,None,001,55,2019_Oct_23_1404,ACPT_experiment_5_30_19,3.1.0,59.92650397374263,
,,,C,U,y,n,L,U,d,R,u,,,,,5,19,119,17,5,0,5,0,,,,,0,34,34,21,,,,,,up,1.1341768766542373,2865.314194028044,None,001,55,2019_Oct_23_1404,ACPT_experiment_5_30_19,3.1.0,59.92650397374263,
,,,C,U,y,n,L,D,y,L,y,,,,,5,19,119,17,5,0,5,0,,,,,0,35,35,32,,,,,,down,0.5504050740564708,2867.7326879476313,None,001,55,2019_Oct_23_1404,ACPT_experiment_5_30_19,3.1.0,59.92650397374263,
,,,C,U,y,n,R,D,g,L,i,,,,,5,19,119,17,5,0,5,0,,,,,1,0,36,2,,,,,,up,0.567094324498612,2869.5674354204275,None,001,55,2019_Oct_23_1404,ACPT_experiment_5_30_19,3.1.0,59.92650397374263,
,,,C,U,y,n,R,G,d,R,i,,,,,5,19,119,17,5,0,5,0,,,,,1,1,37,5,,,,,,up,0.6671585893855081,2871.418827167294,None,001,55,2019_Oct_23_1404,ACPT_experiment_5_30_19,3.1.0,59.92650397374263,
,,,C,U,y,n,R,D,d,R,c ,,,,,5,19,119,17,5,0,5,0,,,,,1,2,38,1,,,,,,up,0.7338920464571856,2873.3702928384046,None,001,55,2019_Oct_23_1404,ACPT_experiment_5_30_19,3.1.0,59.92650397374263,
,,,C,U,y,n,L,G,d,R,i,,,,,5,19,119,17,5,0,5,0,,,,,1,3,39,17,,,,,,up,0.6170772546065564,2875.3885456967437,None,001,55,2019_Oct_23_1404,ACPT_experiment_5_30_19,3.1.0,59.92650397374263,
,,,C,U,y,n,L,U,g,R,u,,,,,5,19,119,17,5,0,5,0,,,,,1,4,40,23,,,,,,up,0.5504053759141243,2877.289952974039,None,001,55,2019_Oct_23_1404,ACPT_experiment_5_30_19,3.1.0,59.92650397374263,
,,,C,U,y,n,R,D,d,L,c,,,,,5,19,119,17,5,0,5,0,,,,,1,5,41,0,,,,,,up,0.9173587945842883,2879.1246684502257,None,001,55,2019_Oct_23_1404,ACPT_experiment_5_30_19,3.1.0,59.92650397374263,
,,,C,U,y,n,R,U,g,R,u,,,,,5,19,119,17,5,0,5,0,,,,,1,6,42,11,,,,,,up,0.6171403422631556,2881.326335835809,None,001,55,2019_Oct_23_1404,ACPT_experiment_5_30_19,3.1.0,59.92650397374263,
,,,C,U,y,n,L,U,d,R,u,,,,,5,19,119,17,5,0,5,0,,,,,1,7,43,21,,,,,,up,0.583760633966449,2883.2277926172937,None,001,55,2019_Oct_23_1404,ACPT_experiment_5_30_19,3.1.0,59.92650397374263,
,,,C,U,y,n,L,D,d,L,c ,,,,,5,19,119,17,5,0,5,0,,,,,1,8,44,12,,,,,,up,0.6671721728489501,2885.0958648608103,None,001,55,2019_Oct_23_1404,ACPT_experiment_5_30_19,3.1.0,59.92650397374263,
,,,C,U,y,n,R,G,g,R,c ,,,,,5,19,119,17,5,0,5,0,,,,,1,9,45,7,,,,,,up,0.5804568331004702,2887.0673459204772,None,001,55,2019_Oct_23_1404,ACPT_experiment_5_30_19,3.1.0,59.92650397374263,
,,,C,U,y,n,L,U,y,R,u,,,,,5,19,119,17,5,0,5,0,,,,,1,10,46,25,,,,,,down,0.9674039067867852,2888.9321071186096,None,001,55,2019_Oct_23_1404,ACPT_experiment_5_30_19,3.1.0,59.92650397374263,
,,,C,U,y,n,R,D,y,R,y,,,,,5,19,119,17,5,0,5,0,,,,,1,11,47,27,,,,,,down,0.8506464673482697,2891.1837960717203,None,001,55,2019_Oct_23_1404,ACPT_experiment_5_30_19,3.1.0,59.92650397374263,
,,,C,U,y,n,L,U,d,L,u,,,,,5,19,119,17,5,0,5,0,,,,,1,12,48,20,,,,,,up,0.6338148018112406,2893.318767430228,None,001,55,2019_Oct_23_1404,ACPT_experiment_5_30_19,3.1.0,59.92650397374263,
,,,C,U,y,n,R,D,y,L,y,,,,,5,19,119,17,5,0,5,0,,,,,1,13,49,26,,,,,,down,0.6171321921792696,2895.236895954571,None,001,55,2019_Oct_23_1404,ACPT_experiment_5_30_19,3.1.0,59.92650397374263,
,,,C,U,y,n,L,U,g,L,u,,,,,5,19,119,17,5,0,5,0,,,,,1,14,50,22,,,,,,up,0.5837718025941285,2897.138341265574,None,001,55,2019_Oct_23_1404,ACPT_experiment_5_30_19,3.1.0,59.92650397374263,
,,,C,U,y,n,R,G,d,L,i,,,,,5,19,119,17,5,0,5,0,,,,,1,15,51,4,,,,,,up,1.1175105671791243,2899.0064292055395,None,001,55,2019_Oct_23_1404,ACPT_experiment_5_30_19,3.1.0,59.92650397374263,
,,,C,U,y,n,L,D,g,R,i,,,,,5,19,119,17,5,0,5,0,,,,,1,16,52,15,,,,,,up,0.9006795053574024,2901.4082474581555,None,001,55,2019_Oct_23_1404,ACPT_experiment_5_30_19,3.1.0,59.92650397374263,
,,,C,U,y,n,R,U,d,L,u,,,,,5,19,119,17,5,0,5,0,,,,,1,17,53,8,,,,,,up,0.6004544122297375,2903.5932367619316,None,001,55,2019_Oct_23_1404,ACPT_experiment_5_30_19,3.1.0,59.92650397374263,
,,,C,U,y,n,R,G,y,R,y,,,,,5,19,119,17,5,0,5,0,,,,,1,18,54,29,,,,,,down,0.7339008002491028,2905.4779855779816,None,001,55,2019_Oct_23_1404,ACPT_experiment_5_30_19,3.1.0,59.92650397374263,
,,,C,U,y,n,R,G,y,L,y,,,,,5,19,119,17,5,0,5,0,,,,,1,19,55,28,,,,,,down,0.6504895632206171,2907.496199798905,None,001,55,2019_Oct_23_1404,ACPT_experiment_5_30_19,3.1.0,59.92650397374263,
,,,C,U,y,n,R,U,y,L,u,,,,,5,19,119,17,5,0,5,0,,,,,1,20,56,30,,,,,,down,0.6169465514758485,2909.4311612565725,None,001,55,2019_Oct_23_1404,ACPT_experiment_5_30_19,3.1.0,59.92650397374263,
,,,C,U,y,n,L,G,y,L,y,,,,,5,19,119,17,5,0,5,0,,,,,1,21,57,34,,,,,,down,0.600483993996022,2911.332419417595,None,001,55,2019_Oct_23_1404,ACPT_experiment_5_30_19,3.1.0,59.92650397374263,
,,,C,U,y,n,L,G,d,L,i,,,,,5,19,119,17,5,0,5,0,,,,,1,22,58,16,,,,,,up,0.6171315884712385,2913.217211398882,None,001,55,2019_Oct_23_1404,ACPT_experiment_5_30_19,3.1.0,59.92650397374263,
,,,C,U,y,n,L,G,g,R,c ,,,,,5,19,119,17,5,0,5,0,,,,,1,23,59,19,,,,,,up,0.8339880060993892,2915.1019502537238,None,001,55,2019_Oct_23_1404,ACPT_experiment_5_30_19,3.1.0,59.92650397374263,
,,,C,U,y,n,L,G,y,R,y,,,,,5,19,119,17,5,0,5,0,,,,,1,24,60,35,,,,,,down,0.8339964580336527,2917.2369324790016,None,001,55,2019_Oct_23_1404,ACPT_experiment_5_30_19,3.1.0,59.92650397374263,
,,,C,U,y,n,R,U,d,R,u,,,,,5,19,119,17,5,0,5,0,,,,,1,25,61,9,,,,,,up,0.7338805759754905,2919.371885726221,None,001,55,2019_Oct_23_1404,ACPT_experiment_5_30_19,3.1.0,59.92650397374263,
,,,C,U,y,n,R,G,g,L,c ,,,,,5,19,119,17,5,0,5,0,,,,,1,26,62,6,,,,,,up,0.83396566884403,2921.3900800247284,None,001,55,2019_Oct_23_1404,ACPT_experiment_5_30_19,3.1.0,59.92650397374263,
,,,C,U,y,n,R,U,g,L,u,,,,,5,19,119,17,5,0,5,0,,,,,1,27,63,10,,,,,,up,0.5504071870418557,2923.5083627365057,None,001,55,2019_Oct_23_1404,ACPT_experiment_5_30_19,3.1.0,59.92650397374263,
