facing_vig,person_vig,text_vig,facing_train,person_train,food_train,correct_key_train,facing_exp,person_exp,food_exp,showL_R,consistent,vig_random.thisRepN,vig_random.thisTrialN,vig_random.thisN,vig_random.thisIndex,trainTrials.thisRepN,trainTrials.thisTrialN,trainTrials.thisN,trainTrials.thisIndex,expBlock.thisRepN,expBlock.thisTrialN,expBlock.thisN,expBlock.thisIndex,breakLoop.thisRepN,breakLoop.thisTrialN,breakLoop.thisN,breakLoop.thisIndex,expTrials.thisRepN,expTrials.thisTrialN,expTrials.thisN,expTrials.thisIndex,train_resp.keys,train_resp.corr,train_resp.rt,train_resp.started,train_resp.stopped,exp_resp.keys,exp_resp.rt,exp_resp.started,exp_resp.stopped,session,participant,date,expName,psychopyVersion,frameRate,
C,U,"did not report her food preferences, so her food preferences are unknown.",,,,,,,,,,0,0,0,2,,,,,,,,,,,,,,,,,,,,,,,,,,001,56,2019_Oct_23_1555,ACPT_experiment_5_30_19,3.1.0,59.97000459874934,
C,G,"cannot eat dairy products because she is lactose intolerant. She enjoys eating wheat products. She thinks eating insects, like crickets, is disgusting.",,,,,,,,,,0,1,1,0,,,,,,,,,,,,,,,,,,,,,,,,,,001,56,2019_Oct_23_1555,ACPT_experiment_5_30_19,3.1.0,59.97000459874934,
C,D,"is allergic to gluten, meaning she can’t eat wheat products. She enjoys eating dairy products. She thinks eating insects, like crickets, is disgusting.",,,,,,,,,,0,2,2,1,,,,,,,,,,,,,,,,,,,,,,,,,,001,56,2019_Oct_23_1555,ACPT_experiment_5_30_19,3.1.0,59.97000459874934,
,,,C,G,y,b,,,,,,,,,,0,0,0,5,,,,,,,,,,,,,b,1,3.335890446021949,573.822841111778,None,,,,,001,56,2019_Oct_23_1555,ACPT_experiment_5_30_19,3.1.0,59.97000459874934,
,,,C,G,g,v,,,,,,,,,,0,1,1,13,,,,,,,,,,,,,v,1,4.987158492789604,580.4278508149036,None,,,,,001,56,2019_Oct_23_1555,ACPT_experiment_5_30_19,3.1.0,59.97000459874934,
,,,C,D,d,v,,,,,,,,,,0,2,2,9,,,,,,,,,,,,,v,1,4.536791724109207,588.7008271727282,None,,,,,001,56,2019_Oct_23_1555,ACPT_experiment_5_30_19,3.1.0,59.97000459874934,
,,,C,U,y,n,,,,,,,,,,0,3,3,8,,,,,,,,,,,,,n,1,2.3517945721068827,596.523438874854,None,,,,,001,56,2019_Oct_23_1555,ACPT_experiment_5_30_19,3.1.0,59.97000459874934,
,,,C,G,d,b,,,,,,,,,,0,4,4,12,,,,,,,,,,,,,b,1,8.573217449258664,602.161035011839,None,,,,,001,56,2019_Oct_23_1555,ACPT_experiment_5_30_19,3.1.0,59.97000459874934,
,,,C,U,g,n,,,,,,,,,,0,5,5,16,,,,,,,,,,,,,n,1,1.4177407918432436,614.0200645908917,None,,,,,001,56,2019_Oct_23_1555,ACPT_experiment_5_30_19,3.1.0,59.97000459874934,
,,,C,D,g,b,,,,,,,,,,0,6,6,10,,,,,,,,,,,,,v,0,7.939000878697698,618.7407015890531,None,,,,,001,56,2019_Oct_23_1555,ACPT_experiment_5_30_19,3.1.0,59.97000459874934,
,,,C,U,y,n,,,,,,,,,,0,7,7,17,,,,,,,,,,,,,n,1,1.5178527497919276,629.9655263698842,None,,,,,001,56,2019_Oct_23_1555,ACPT_experiment_5_30_19,3.1.0,59.97000459874934,
,,,C,D,d,v,,,,,,,,,,0,8,8,18,,,,,,,,,,,,,b,0,5.470842787675792,634.7691755530213,None,,,,,001,56,2019_Oct_23_1555,ACPT_experiment_5_30_19,3.1.0,59.97000459874934,
,,,C,U,g,n,,,,,,,,,,0,9,9,7,,,,,,,,,,,,,n,1,1.3677180168997438,643.5258334890386,None,,,,,001,56,2019_Oct_23_1555,ACPT_experiment_5_30_19,3.1.0,59.97000459874934,
,,,C,U,d,n,,,,,,,,,,0,10,10,6,,,,,,,,,,,,,n,1,1.1508987274100946,648.1793835581484,None,,,,,001,56,2019_Oct_23_1555,ACPT_experiment_5_30_19,3.1.0,59.97000459874934,
,,,C,G,y,b,,,,,,,,,,0,11,11,14,,,,,,,,,,,,,b,1,1.7847050772907096,652.6160787189037,None,,,,,001,56,2019_Oct_23_1555,ACPT_experiment_5_30_19,3.1.0,59.97000459874934,
,,,C,D,d,v,,,,,,,,,,0,12,12,0,,,,,,,,,,,,,v,1,1.6846528865899018,657.6866010575177,None,,,,,001,56,2019_Oct_23_1555,ACPT_experiment_5_30_19,3.1.0,59.97000459874934,
,,,C,G,g,v,,,,,,,,,,0,13,13,4,,,,,,,,,,,,,v,1,1.3176792436497635,662.6570491700368,None,,,,,001,56,2019_Oct_23_1555,ACPT_experiment_5_30_19,3.1.0,59.97000459874934,
,,,C,U,d,n,,,,,,,,,,0,14,14,15,,,,,,,,,,,,,n,1,1.1671047083000303,667.2776548054826,None,,,,,001,56,2019_Oct_23_1555,ACPT_experiment_5_30_19,3.1.0,59.97000459874934,
,,,C,D,y,b,,,,,,,,,,0,15,15,11,,,,,,,,,,,,,b,1,1.7177865832163661,671.7307726788786,None,,,,,001,56,2019_Oct_23_1555,ACPT_experiment_5_30_19,3.1.0,59.97000459874934,
,,,C,G,d,b,,,,,,,,,,0,16,16,3,,,,,,,,,,,,,b,1,1.3510396332312666,676.7344124441443,None,,,,,001,56,2019_Oct_23_1555,ACPT_experiment_5_30_19,3.1.0,59.97000459874934,
,,,C,D,g,b,,,,,,,,,,0,17,17,1,,,,,,,,,,,,,b,1,2.218085268548748,681.388233277019,None,,,,,001,56,2019_Oct_23_1555,ACPT_experiment_5_30_19,3.1.0,59.97000459874934,
,,,C,D,y,b,,,,,,,,,,0,18,18,2,,,,,,,,,,,,,b,1,1.200978251057677,686.8921342976173,None,,,,,001,56,2019_Oct_23_1555,ACPT_experiment_5_30_19,3.1.0,59.97000459874934,
,,,C,G,g,v,,,,,,,,,,0,19,19,19,,,,,,,,,,,,,v,1,3.14895387688739,691.4323668646721,None,,,,,001,56,2019_Oct_23_1555,ACPT_experiment_5_30_19,3.1.0,59.97000459874934,
,,,C,U,g,n,,,,,,,,,,1,0,20,7,,,,,,,,,,,,,n,1,1.3843942875791981,697.8671476622403,None,,,,,001,56,2019_Oct_23_1555,ACPT_experiment_5_30_19,3.1.0,59.97000459874934,
,,,C,D,g,b,,,,,,,,,,1,1,21,1,,,,,,,,,,,,,b,1,1.3172478931264777,702.5544450987982,None,,,,,001,56,2019_Oct_23_1555,ACPT_experiment_5_30_19,3.1.0,59.97000459874934,
,,,C,D,d,v,,,,,,,,,,1,2,22,18,,,,,,,,,,,,,v,1,1.2008907131639717,707.1408931461156,None,,,,,001,56,2019_Oct_23_1555,ACPT_experiment_5_30_19,3.1.0,59.97000459874934,
,,,C,G,g,v,,,,,,,,,,1,3,23,4,,,,,,,,,,,,,v,1,2.684934215270914,711.6447072325318,None,,,,,001,56,2019_Oct_23_1555,ACPT_experiment_5_30_19,3.1.0,59.97000459874934,
,,,C,G,g,v,,,,,,,,,,1,4,24,13,,,,,,,,,,,,,v,1,1.267641979669861,717.5988225851397,None,,,,,001,56,2019_Oct_23_1555,ACPT_experiment_5_30_19,3.1.0,59.97000459874934,
,,,C,G,y,b,,,,,,,,,,1,5,25,14,,,,,,,,,,,,,b,1,0.9974408749440045,722.1722791034081,None,,,,,001,56,2019_Oct_23_1555,ACPT_experiment_5_30_19,3.1.0,59.97000459874934,
,,,C,D,d,v,,,,,,,,,,1,6,26,9,,,,,,,,,,,,,v,1,1.0841939465426549,726.4555188265331,None,,,,,001,56,2019_Oct_23_1555,ACPT_experiment_5_30_19,3.1.0,59.97000459874934,
,,,C,G,d,b,,,,,,,,,,1,7,27,12,,,,,,,,,,,,,b,1,0.9340598173621402,730.8255288269829,None,,,,,001,56,2019_Oct_23_1555,ACPT_experiment_5_30_19,3.1.0,59.97000459874934,
,,,C,D,y,b,,,,,,,,,,1,8,28,2,,,,,,,,,,,,,b,1,1.3509726214651891,735.0454671821935,None,,,,,001,56,2019_Oct_23_1555,ACPT_experiment_5_30_19,3.1.0,59.97000459874934,
,,,C,D,d,v,,,,,,,,,,1,9,29,0,,,,,,,,,,,,,v,1,1.2309714502698625,739.7022658127389,None,,,,,001,56,2019_Oct_23_1555,ACPT_experiment_5_30_19,3.1.0,59.97000459874934,
,,,C,G,g,v,,,,,,,,,,1,10,30,19,,,,,,,,,,,,,v,1,1.5178304125365685,744.2190448649817,None,,,,,001,56,2019_Oct_23_1555,ACPT_experiment_5_30_19,3.1.0,59.97000459874934,
,,,C,D,y,b,,,,,,,,,,1,11,31,11,,,,,,,,,,,,,b,1,1.0674844718341774,749.0226958592466,None,,,,,001,56,2019_Oct_23_1555,ACPT_experiment_5_30_19,3.1.0,59.97000459874934,
,,,C,U,d,n,,,,,,,,,,1,12,32,6,,,,,,,,,,,,,n,1,1.5340789549554756,753.3930937431251,None,,,,,001,56,2019_Oct_23_1555,ACPT_experiment_5_30_19,3.1.0,59.97000459874934,
,,,C,U,g,n,,,,,,,,,,1,13,33,16,,,,,,,,,,,,,n,1,0.9174239952262724,758.1963052367901,None,,,,,001,56,2019_Oct_23_1555,ACPT_experiment_5_30_19,3.1.0,59.97000459874934,
,,,C,U,y,n,,,,,,,,,,1,14,34,8,,,,,,,,,,,,,n,1,1.0672321212150564,762.416481453587,None,,,,,001,56,2019_Oct_23_1555,ACPT_experiment_5_30_19,3.1.0,59.97000459874934,
,,,C,U,y,n,,,,,,,,,,1,15,35,17,,,,,,,,,,,,,n,1,0.9506947339323233,766.7695392880632,None,,,,,001,56,2019_Oct_23_1555,ACPT_experiment_5_30_19,3.1.0,59.97000459874934,
,,,C,G,y,b,,,,,,,,,,1,16,36,5,,,,,,,,,,,,,b,1,1.050566113597597,771.0229877528436,None,,,,,001,56,2019_Oct_23_1555,ACPT_experiment_5_30_19,3.1.0,59.97000459874934,
,,,C,D,g,b,,,,,,,,,,1,17,37,10,,,,,,,,,,,,,v,0,1.7179782610219263,775.3593841075271,None,,,,,001,56,2019_Oct_23_1555,ACPT_experiment_5_30_19,3.1.0,59.97000459874934,
,,,C,G,d,b,,,,,,,,,,1,18,38,3,,,,,,,,,,,,,b,1,1.4344369849386567,780.3631832521278,None,,,,,001,56,2019_Oct_23_1555,ACPT_experiment_5_30_19,3.1.0,59.97000459874934,
,,,C,U,d,n,,,,,,,,,,1,19,39,15,,,,,,,,,,,,,n,1,1.2509853295523499,785.0834429317838,None,,,,,001,56,2019_Oct_23_1555,ACPT_experiment_5_30_19,3.1.0,59.97000459874934,
,,,C,U,y,n,,,,,,,,,,2,0,40,17,,,,,,,,,,,,,n,1,1.083925899474707,789.6204861009464,None,,,,,001,56,2019_Oct_23_1555,ACPT_experiment_5_30_19,3.1.0,59.97000459874934,
,,,C,D,d,v,,,,,,,,,,2,1,41,18,,,,,,,,,,,,,v,1,0.9674123587210488,793.9901984725548,None,,,,,001,56,2019_Oct_23_1555,ACPT_experiment_5_30_19,3.1.0,59.97000459874934,
,,,C,U,d,n,,,,,,,,,,2,2,42,6,,,,,,,,,,,,,n,1,1.0838926954456838,798.2603832771238,None,,,,,001,56,2019_Oct_23_1555,ACPT_experiment_5_30_19,3.1.0,59.97000459874934,
,,,C,G,y,b,,,,,,,,,,2,3,43,5,,,,,,,,,,,,,b,1,1.1842992636848066,802.6300757263161,None,,,,,001,56,2019_Oct_23_1555,ACPT_experiment_5_30_19,3.1.0,59.97000459874934,
,,,C,U,d,n,,,,,,,,,,2,4,44,15,,,,,,,,,,,,,n,1,0.9504843411341426,807.1170931019842,None,,,,,001,56,2019_Oct_23_1555,ACPT_experiment_5_30_19,3.1.0,59.97000459874934,
,,,C,G,y,b,,,,,,,,,,2,5,45,14,,,,,,,,,,,,,b,1,1.3176759232446784,811.3533947044416,None,,,,,001,56,2019_Oct_23_1555,ACPT_experiment_5_30_19,3.1.0,59.97000459874934,
,,,C,D,g,b,,,,,,,,,,2,6,46,1,,,,,,,,,,,,,b,1,1.7508816424306133,815.9740078862596,None,,,,,001,56,2019_Oct_23_1555,ACPT_experiment_5_30_19,3.1.0,59.97000459874934,
,,,C,U,g,n,,,,,,,,,,2,7,47,16,,,,,,,,,,,,,n,1,1.301023499094299,821.0107052807398,None,,,,,001,56,2019_Oct_23_1555,ACPT_experiment_5_30_19,3.1.0,59.97000459874934,
,,,C,G,g,v,,,,,,,,,,2,8,48,13,,,,,,,,,,,,,v,1,1.3340811283123912,825.6145060553572,None,,,,,001,56,2019_Oct_23_1555,ACPT_experiment_5_30_19,3.1.0,59.97000459874934,
,,,C,D,y,b,,,,,,,,,,2,9,49,2,,,,,,,,,,,,,b,1,2.0515731012346805,830.2344050487045,None,,,,,001,56,2019_Oct_23_1555,ACPT_experiment_5_30_19,3.1.0,59.97000459874934,
,,,C,D,y,b,,,,,,,,,,2,10,50,11,,,,,,,,,,,,,b,1,0.9342303653247654,835.5549651946312,None,,,,,001,56,2019_Oct_23_1555,ACPT_experiment_5_30_19,3.1.0,59.97000459874934,
,,,C,G,g,v,,,,,,,,,,2,11,51,4,,,,,,,,,,,,,v,1,1.0503904340985173,839.7920540344239,None,,,,,001,56,2019_Oct_23_1555,ACPT_experiment_5_30_19,3.1.0,59.97000459874934,
,,,C,U,g,n,,,,,,,,,,2,12,52,7,,,,,,,,,,,,,n,1,1.0008122912877297,844.1282919153309,None,,,,,001,56,2019_Oct_23_1555,ACPT_experiment_5_30_19,3.1.0,59.97000459874934,
,,,C,D,d,v,,,,,,,,,,2,13,53,9,,,,,,,,,,,,,v,1,1.167559301640722,848.4148876602048,None,,,,,001,56,2019_Oct_23_1555,ACPT_experiment_5_30_19,3.1.0,59.97000459874934,
,,,C,G,d,b,,,,,,,,,,2,14,54,3,,,,,,,,,,,,,b,1,2.1516443087857624,852.868271467687,None,,,,,001,56,2019_Oct_23_1555,ACPT_experiment_5_30_19,3.1.0,59.97000459874934,
,,,C,D,d,v,,,,,,,,,,2,15,55,0,,,,,,,,,,,,,v,1,1.167570772122417,858.305732735942,None,,,,,001,56,2019_Oct_23_1555,ACPT_experiment_5_30_19,3.1.0,59.97000459874934,
,,,C,U,y,n,,,,,,,,,,2,16,56,8,,,,,,,,,,,,,n,1,1.0670842123581679,862.7761698307586,None,,,,,001,56,2019_Oct_23_1555,ACPT_experiment_5_30_19,3.1.0,59.97000459874934,
,,,C,D,g,b,,,,,,,,,,2,17,57,10,,,,,,,,,,,,,v,0,1.6846390012688062,867.1291060177464,None,,,,,001,56,2019_Oct_23_1555,ACPT_experiment_5_30_19,3.1.0,59.97000459874934,
,,,C,G,d,b,,,,,,,,,,2,18,58,12,,,,,,,,,,,,,b,1,1.31767894179211,872.0995444709115,None,,,,,001,56,2019_Oct_23_1555,ACPT_experiment_5_30_19,3.1.0,59.97000459874934,
,,,C,G,g,v,,,,,,,,,,2,19,59,19,,,,,,,,,,,,,v,1,1.1506521120354591,876.703315965613,None,,,,,001,56,2019_Oct_23_1555,ACPT_experiment_5_30_19,3.1.0,59.97000459874934,
,,,C,U,d,n,,,,,,,,,,3,0,60,6,,,,,,,,,,,,,n,1,1.2843242874478165,881.1397388533333,None,,,,,001,56,2019_Oct_23_1555,ACPT_experiment_5_30_19,3.1.0,59.97000459874934,
,,,C,U,y,n,,,,,,,,,,3,1,61,17,,,,,,,,,,,,,n,1,0.9337721497286111,885.7268443404173,None,,,,,001,56,2019_Oct_23_1555,ACPT_experiment_5_30_19,3.1.0,59.97000459874934,
,,,C,U,g,n,,,,,,,,,,3,2,62,16,,,,,,,,,,,,,n,1,0.9841613764074282,889.9297342379723,None,,,,,001,56,2019_Oct_23_1555,ACPT_experiment_5_30_19,3.1.0,59.97000459874934,
,,,C,D,y,b,,,,,,,,,,3,3,63,11,,,,,,,,,,,,,b,1,1.1840360462956596,894.2165916909653,None,,,,,001,56,2019_Oct_23_1555,ACPT_experiment_5_30_19,3.1.0,59.97000459874934,
,,,C,U,d,n,,,,,,,,,,3,4,64,15,,,,,,,,,,,,,n,1,1.0841854946083913,898.6864154168106,None,,,,,001,56,2019_Oct_23_1555,ACPT_experiment_5_30_19,3.1.0,59.97000459874934,
,,,C,D,d,v,,,,,,,,,,3,5,65,0,,,,,,,,,,,,,v,1,0.800764356739819,903.056399155892,None,,,,,001,56,2019_Oct_23_1555,ACPT_experiment_5_30_19,3.1.0,59.97000459874934,
,,,C,G,y,b,,,,,,,,,,3,6,66,14,,,,,,,,,,,,,b,1,1.167567451717332,907.1428346762368,None,,,,,001,56,2019_Oct_23_1555,ACPT_experiment_5_30_19,3.1.0,59.97000459874934,
,,,C,G,g,v,,,,,,,,,,3,7,67,4,,,,,,,,,,,,,v,1,1.214309668619535,911.6162151572753,None,,,,,001,56,2019_Oct_23_1555,ACPT_experiment_5_30_19,3.1.0,59.97000459874934,
,,,C,G,g,v,,,,,,,,,,3,8,68,13,,,,,,,,,,,,,v,1,0.884016214433359,916.0996401588854,None,,,,,001,56,2019_Oct_23_1555,ACPT_experiment_5_30_19,3.1.0,59.97000459874934,
,,,C,G,g,v,,,,,,,,,,3,9,69,19,,,,,,,,,,,,,v,1,0.7169474268521299,920.2697419835677,None,,,,,001,56,2019_Oct_23_1555,ACPT_experiment_5_30_19,3.1.0,59.97000459874934,
,,,C,U,g,n,,,,,,,,,,3,10,70,7,,,,,,,,,,,,,n,1,0.8673354159291193,924.2725102940021,None,,,,,001,56,2019_Oct_23_1555,ACPT_experiment_5_30_19,3.1.0,59.97000459874934,
,,,C,D,g,b,,,,,,,,,,3,11,71,1,,,,,,,,,,,,,b,1,0.9338276910129935,928.4426178539288,None,,,,,001,56,2019_Oct_23_1555,ACPT_experiment_5_30_19,3.1.0,59.97000459874934,
,,,C,U,y,n,,,,,,,,,,3,12,72,8,,,,,,,,,,,,,n,1,1.0341527584532741,932.6622006241741,None,,,,,001,56,2019_Oct_23_1555,ACPT_experiment_5_30_19,3.1.0,59.97000459874934,
,,,C,D,y,b,,,,,,,,,,3,13,73,2,,,,,,,,,,,,,b,1,1.0838745841574564,936.999136393395,None,,,,,001,56,2019_Oct_23_1555,ACPT_experiment_5_30_19,3.1.0,59.97000459874934,
,,,C,D,d,v,,,,,,,,,,3,14,74,18,,,,,,,,,,,,,v,1,1.0007956892732182,941.3688080146057,None,,,,,001,56,2019_Oct_23_1555,ACPT_experiment_5_30_19,3.1.0,59.97000459874934,
,,,C,G,d,b,,,,,,,,,,3,15,75,3,,,,,,,,,,,,,b,1,1.0841622517873475,945.6554279078664,None,,,,,001,56,2019_Oct_23_1555,ACPT_experiment_5_30_19,3.1.0,59.97000459874934,
,,,C,G,d,b,,,,,,,,,,3,16,76,12,,,,,,,,,,,,,b,1,3.352574564927636,950.0087305465895,None,,,,,001,56,2019_Oct_23_1555,ACPT_experiment_5_30_19,3.1.0,59.97000459874934,
,,,C,D,d,v,,,,,,,,,,3,17,77,9,,,,,,,,,,,,,v,1,0.9340785323583987,956.6304011257962,None,,,,,001,56,2019_Oct_23_1555,ACPT_experiment_5_30_19,3.1.0,59.97000459874934,
,,,C,G,y,b,,,,,,,,,,3,18,78,5,,,,,,,,,,,,,b,1,1.2338417876308085,960.8674054462463,None,,,,,001,56,2019_Oct_23_1555,ACPT_experiment_5_30_19,3.1.0,59.97000459874934,
,,,C,D,g,b,,,,,,,,,,3,19,79,10,,,,,,,,,,,,,b,1,1.3843945894332137,965.3870705322988,None,,,,,001,56,2019_Oct_23_1555,ACPT_experiment_5_30_19,3.1.0,59.97000459874934,
,,,C,G,d,b,,,,,,,,,,4,0,80,12,,,,,,,,,,,,,b,1,1.1007081211901095,970.0740769808253,None,,,,,001,56,2019_Oct_23_1555,ACPT_experiment_5_30_19,3.1.0,59.97000459874934,
,,,C,U,y,n,,,,,,,,,,4,1,81,8,,,,,,,,,,,,,n,1,1.0007546370179625,974.4606494526925,None,,,,,001,56,2019_Oct_23_1555,ACPT_experiment_5_30_19,3.1.0,59.97000459874934,
,,,C,D,g,b,,,,,,,,,,4,2,82,1,,,,,,,,,,,,,b,1,1.5842988410877297,978.7641551038687,None,,,,,001,56,2019_Oct_23_1555,ACPT_experiment_5_30_19,3.1.0,59.97000459874934,
,,,C,U,y,n,,,,,,,,,,4,3,83,17,,,,,,,,,,,,,n,1,0.9840940627873351,983.634273319265,None,,,,,001,56,2019_Oct_23_1555,ACPT_experiment_5_30_19,3.1.0,59.97000459874934,
,,,C,D,y,b,,,,,,,,,,4,4,84,2,,,,,,,,,,,,,b,1,1.100407171947154,987.921270531031,None,,,,,001,56,2019_Oct_23_1555,ACPT_experiment_5_30_19,3.1.0,59.97000459874934,
,,,C,U,g,n,,,,,,,,,,4,5,85,16,,,,,,,,,,,,,n,1,0.9340450264717219,992.3075511093011,None,,,,,001,56,2019_Oct_23_1555,ACPT_experiment_5_30_19,3.1.0,59.97000459874934,
,,,C,D,d,v,,,,,,,,,,4,6,86,18,,,,,,,,,,,,,v,1,0.9338113908561354,996.5443272275152,None,,,,,001,56,2019_Oct_23_1555,ACPT_experiment_5_30_19,3.1.0,59.97000459874934,
,,,C,G,g,v,,,,,,,,,,4,7,87,19,,,,,,,,,,,,,v,1,1.4177522623249388,1000.7639528611471,None,,,,,001,56,2019_Oct_23_1555,ACPT_experiment_5_30_19,3.1.0,59.97000459874934,
,,,C,G,g,v,,,,,,,,,,4,8,88,13,,,,,,,,,,,,,v,1,1.5845520972725353,1005.4675220829449,None,,,,,001,56,2019_Oct_23_1555,ACPT_experiment_5_30_19,3.1.0,59.97000459874934,
,,,C,G,g,v,,,,,,,,,,4,9,89,4,,,,,,,,,,,,,v,1,1.0174755822081352,1010.3211831742519,None,,,,,001,56,2019_Oct_23_1555,ACPT_experiment_5_30_19,3.1.0,59.97000459874934,
,,,C,G,y,b,,,,,,,,,,4,10,90,14,,,,,,,,,,,,,b,1,1.0338810891298635,1014.6413998094104,None,,,,,001,56,2019_Oct_23_1555,ACPT_experiment_5_30_19,3.1.0,59.97000459874934,
,,,C,U,g,n,,,,,,,,,,4,11,91,7,,,,,,,,,,,,,n,1,1.1342227585846558,1018.9610969524438,None,,,,,001,56,2019_Oct_23_1555,ACPT_experiment_5_30_19,3.1.0,59.97000459874934,
,,,C,U,d,n,,,,,,,,,,4,12,92,6,,,,,,,,,,,,,n,1,2.7184684732274036,1023.3813986804707,None,,,,,001,56,2019_Oct_23_1555,ACPT_experiment_5_30_19,3.1.0,59.97000459874934,
,,,C,D,y,b,,,,,,,,,,4,13,93,11,,,,,,,,,,,,,b,1,1.5178201494745736,1029.3856886409922,None,,,,,001,56,2019_Oct_23_1555,ACPT_experiment_5_30_19,3.1.0,59.97000459874934,
,,,C,G,y,b,,,,,,,,,,4,14,94,5,,,,,,,,,,,,,b,1,1.4177579975657864,1034.1893329944505,None,,,,,001,56,2019_Oct_23_1555,ACPT_experiment_5_30_19,3.1.0,59.97000459874934,
,,,C,D,d,v,,,,,,,,,,4,15,95,0,,,,,,,,,,,,,v,1,1.1172718000270834,1038.9098401950469,None,,,,,001,56,2019_Oct_23_1555,ACPT_experiment_5_30_19,3.1.0,59.97000459874934,
,,,C,G,d,b,,,,,,,,,,4,16,96,3,,,,,,,,,,,,,b,1,1.2175983767483558,1043.312933180514,None,,,,,001,56,2019_Oct_23_1555,ACPT_experiment_5_30_19,3.1.0,59.97000459874934,
,,,C,D,d,v,,,,,,,,,,4,17,97,9,,,,,,,,,,,,,v,1,0.8502317188431334,1047.8334618731715,None,,,,,001,56,2019_Oct_23_1555,ACPT_experiment_5_30_19,3.1.0,59.97000459874934,
,,,C,U,d,n,,,,,,,,,,4,18,98,15,,,,,,,,,,,,,n,1,1.1175283766169741,1051.9695075329364,None,,,,,001,56,2019_Oct_23_1555,ACPT_experiment_5_30_19,3.1.0,59.97000459874934,
,,,C,D,g,b,,,,,,,,,,4,19,99,10,,,,,,,,,,,,,b,1,1.4842291428140015,1056.3897730383906,None,,,,,001,56,2019_Oct_23_1555,ACPT_experiment_5_30_19,3.1.0,59.97000459874934,
,,,C,U,y,n,,,,,,,,,,5,0,100,17,,,,,,,,,,,,,n,1,0.950760236424685,1061.1598170276884,None,,,,,001,56,2019_Oct_23_1555,ACPT_experiment_5_30_19,3.1.0,59.97000459874934,
,,,C,U,d,n,,,,,,,,,,5,1,101,6,,,,,,,,,,,,,n,1,0.8638194111372286,1065.416533372616,None,,,,,001,56,2019_Oct_23_1555,ACPT_experiment_5_30_19,3.1.0,59.97000459874934,
,,,C,D,d,v,,,,,,,,,,5,2,102,18,,,,,,,,,,,,,v,1,1.4511389132821932,1069.5662077769266,None,,,,,001,56,2019_Oct_23_1555,ACPT_experiment_5_30_19,3.1.0,59.97000459874934,
,,,C,U,y,n,,,,,,,,,,5,3,103,8,,,,,,,,,,,,,n,1,1.0341274026504834,1074.3031355771818,None,,,,,001,56,2019_Oct_23_1555,ACPT_experiment_5_30_19,3.1.0,59.97000459874934,
,,,C,D,y,b,,,,,,,,,,5,4,104,11,,,,,,,,,,,,,b,1,2.3180248674034374,1078.6401453008293,None,,,,,001,56,2019_Oct_23_1555,ACPT_experiment_5_30_19,3.1.0,59.97000459874934,
,,,C,G,y,b,,,,,,,,,,5,5,105,14,,,,,,,,,,,,,b,1,1.26762084983784,1084.2440378393112,None,,,,,001,56,2019_Oct_23_1555,ACPT_experiment_5_30_19,3.1.0,59.97000459874934,
,,,C,D,g,b,,,,,,,,,,5,6,106,10,,,,,,,,,,,,,b,1,1.6345984168910945,1088.7974608577315,None,,,,,001,56,2019_Oct_23_1555,ACPT_experiment_5_30_19,3.1.0,59.97000459874934,
,,,C,G,g,v,,,,,,,,,,5,7,107,13,,,,,,,,,,,,,v,1,1.584574132673879,1093.7178783470808,None,,,,,001,56,2019_Oct_23_1555,ACPT_experiment_5_30_19,3.1.0,59.97000459874934,
,,,C,D,d,v,,,,,,,,,,5,8,108,0,,,,,,,,,,,,,v,1,1.000786935481301,1098.5882211424541,None,,,,,001,56,2019_Oct_23_1555,ACPT_experiment_5_30_19,3.1.0,59.97000459874934,
,,,C,G,y,b,,,,,,,,,,5,9,109,5,,,,,,,,,,,,,b,1,1.7010568842342764,1102.8917551679806,None,,,,,001,56,2019_Oct_23_1555,ACPT_experiment_5_30_19,3.1.0,59.97000459874934,
,,,C,U,d,n,,,,,,,,,,5,10,110,15,,,,,,,,,,,,,n,1,2.3017639489371504,1107.8786329358009,None,,,,,001,56,2019_Oct_23_1555,ACPT_experiment_5_30_19,3.1.0,59.97000459874934,
,,,C,D,d,v,,,,,,,,,,5,11,111,9,,,,,,,,,,,,,v,1,2.101590744649002,1113.4662213905794,None,,,,,001,56,2019_Oct_23_1555,ACPT_experiment_5_30_19,3.1.0,59.97000459874934,
,,,C,U,g,n,,,,,,,,,,5,12,112,7,,,,,,,,,,,,,n,1,1.1508887662021152,1118.8536348299385,None,,,,,001,56,2019_Oct_23_1555,ACPT_experiment_5_30_19,3.1.0,59.97000459874934,
,,,C,D,y,b,,,,,,,,,,5,13,113,2,,,,,,,,,,,,,b,1,1.467414924485638,1123.3074155764916,None,,,,,001,56,2019_Oct_23_1555,ACPT_experiment_5_30_19,3.1.0,59.97000459874934,
,,,C,G,g,v,,,,,,,,,,5,14,114,19,,,,,,,,,,,,,v,1,1.117544073065801,1128.060629349162,None,,,,,001,56,2019_Oct_23_1555,ACPT_experiment_5_30_19,3.1.0,59.97000459874934,
,,,C,G,d,b,,,,,,,,,,5,15,115,12,,,,,,,,,,,,,b,1,1.1172609332534194,1132.4642433360277,None,,,,,001,56,2019_Oct_23_1555,ACPT_experiment_5_30_19,3.1.0,59.97000459874934,
,,,C,D,g,b,,,,,,,,,,5,16,116,1,,,,,,,,,,,,,b,1,1.9681730328338745,1136.8673148898051,None,,,,,001,56,2019_Oct_23_1555,ACPT_experiment_5_30_19,3.1.0,59.97000459874934,
,,,C,G,d,b,,,,,,,,,,5,17,117,3,,,,,,,,,,,,,b,1,2.0182275025326817,1142.1212816392908,None,,,,,001,56,2019_Oct_23_1555,ACPT_experiment_5_30_19,3.1.0,59.97000459874934,
,,,C,G,g,v,,,,,,,,,,5,18,118,4,,,,,,,,,,,,,v,1,1.0508305384100822,1147.4253384773401,None,,,,,001,56,2019_Oct_23_1555,ACPT_experiment_5_30_19,3.1.0,59.97000459874934,
,,,C,U,g,n,,,,,,,,,,5,19,119,16,0,0,0,0,0,0,0,0,,,,,n,1,0.9836584863005555,1151.7790449977983,None,,,,,001,56,2019_Oct_23_1555,ACPT_experiment_5_30_19,3.1.0,59.97000459874934,
,,,C,U,g,n,L,G,g,R,c ,,,,,5,19,119,16,0,0,0,0,,,,,0,0,0,19,,,,,,up,2.952214572884259,1190.558112634706,None,001,56,2019_Oct_23_1555,ACPT_experiment_5_30_19,3.1.0,59.97000459874934,
,,,C,U,g,n,L,G,y,R,y,,,,,5,19,119,16,0,0,0,0,,,,,0,1,1,35,,,,,,down,1.1842515706266568,1194.7946427412535,None,001,56,2019_Oct_23_1555,ACPT_experiment_5_30_19,3.1.0,59.97000459874934,
,,,C,U,g,n,L,U,d,L,u,,,,,5,19,119,16,0,0,0,0,,,,,0,2,2,20,,,,,,up,3.2858314484983566,1197.2631838860252,None,001,56,2019_Oct_23_1555,ACPT_experiment_5_30_19,3.1.0,59.97000459874934,
,,,C,U,g,n,R,U,y,L,u,,,,,5,19,119,16,0,0,0,0,,,,,0,3,3,30,,,,,,down,1.8180467518795922,1201.8333224162525,None,001,56,2019_Oct_23_1555,ACPT_experiment_5_30_19,3.1.0,59.97000459874934,
,,,C,U,g,n,L,D,d,R,c ,,,,,5,19,119,16,0,0,0,0,,,,,0,4,4,13,,,,,,down,1.9347492537381186,1204.9357287725907,None,001,56,2019_Oct_23_1555,ACPT_experiment_5_30_19,3.1.0,59.97000459874934,
,,,C,U,g,n,L,U,g,L,u,,,,,5,19,119,16,0,0,0,0,,,,,0,5,5,22,,,,,,up,2.8688649142386566,1208.1547935599883,None,001,56,2019_Oct_23_1555,ACPT_experiment_5_30_19,3.1.0,59.97000459874934,
,,,C,U,g,n,R,G,d,L,i,,,,,5,19,119,16,0,0,0,0,,,,,0,6,6,4,,,,,,up,1.4010587859193038,1212.3079453316786,None,001,56,2019_Oct_23_1555,ACPT_experiment_5_30_19,3.1.0,59.97000459874934,
,,,C,U,g,n,R,D,y,L,y,,,,,5,19,119,16,0,0,0,0,,,,,0,7,7,26,,,,,,down,1.23430875701888,1214.993291578765,None,001,56,2019_Oct_23_1555,ACPT_experiment_5_30_19,3.1.0,59.97000459874934,
,,,C,U,g,n,R,U,g,R,u,,,,,5,19,119,16,0,0,0,0,,,,,0,8,8,11,,,,,,up,1.2342683084752935,1217.5118953433157,None,001,56,2019_Oct_23_1555,ACPT_experiment_5_30_19,3.1.0,59.97000459874934,
,,,C,U,g,n,R,D,d,L,c,,,,,5,19,119,16,0,0,0,0,,,,,0,9,9,0,,,,,,down,1.1008484836784191,1220.0304547352134,None,001,56,2019_Oct_23_1555,ACPT_experiment_5_30_19,3.1.0,59.97000459874934,
,,,C,U,g,n,R,U,y,R,u,,,,,5,19,119,16,0,0,0,0,,,,,0,10,10,31,,,,,,down,0.9674525054106198,1222.4155952078727,None,001,56,2019_Oct_23_1555,ACPT_experiment_5_30_19,3.1.0,59.97000459874934,
,,,C,U,g,n,L,D,d,L,c ,,,,,5,19,119,16,0,0,0,0,,,,,0,11,11,12,,,,,,up,1.0007531277442467,1224.6673315521875,None,001,56,2019_Oct_23_1555,ACPT_experiment_5_30_19,3.1.0,59.97000459874934,
,,,C,U,g,n,R,G,g,L,c ,,,,,5,19,119,16,0,0,0,0,,,,,0,12,12,6,,,,,,up,1.1675765073632647,1226.9523953839162,None,001,56,2019_Oct_23_1555,ACPT_experiment_5_30_19,3.1.0,59.97000459874934,
,,,C,U,g,n,L,U,g,R,u,,,,,5,19,119,16,0,0,0,0,,,,,0,13,13,23,,,,,,up,1.167551755268505,1229.4042620691362,None,001,56,2019_Oct_23_1555,ACPT_experiment_5_30_19,3.1.0,59.97000459874934,
,,,C,U,g,n,R,G,d,R,i,,,,,5,19,119,16,0,0,0,0,,,,,0,14,14,5,,,,,,up,0.9674126605750644,1231.8561233209693,None,001,56,2019_Oct_23_1555,ACPT_experiment_5_30_19,3.1.0,59.97000459874934,
,,,C,U,g,n,L,G,g,L,c ,,,,,5,19,119,16,0,0,0,0,,,,,0,15,15,18,,,,,,up,1.0007301867772185,1234.1078521189156,None,001,56,2019_Oct_23_1555,ACPT_experiment_5_30_19,3.1.0,59.97000459874934,
,,,C,U,g,n,L,G,d,L,i,,,,,5,19,119,16,0,0,0,0,,,,,0,16,16,16,,,,,,up,1.1175072467813152,1236.3929026690312,None,001,56,2019_Oct_23_1555,ACPT_experiment_5_30_19,3.1.0,59.97000459874934,
,,,C,U,g,n,L,D,y,R,y,,,,,5,19,119,16,0,0,0,0,,,,,0,17,17,33,,,,,,down,1.4177954275655793,1238.7947242420487,None,001,56,2019_Oct_23_1555,ACPT_experiment_5_30_19,3.1.0,59.97000459874934,
,,,C,U,g,n,L,G,d,R,i,,,,,5,19,119,16,0,0,0,0,,,,,0,18,18,17,,,,,,down,0.9840708199662913,1241.49677724715,None,001,56,2019_Oct_23_1555,ACPT_experiment_5_30_19,3.1.0,59.97000459874934,
,,,C,U,g,n,L,D,y,L,y,,,,,5,19,119,16,0,0,0,0,,,,,0,19,19,32,,,,,,down,1.4010859528534638,1243.7818425881524,None,001,56,2019_Oct_23_1555,ACPT_experiment_5_30_19,3.1.0,59.97000459874934,
,,,C,U,g,n,L,D,g,L,i,,,,,5,19,119,16,0,0,0,0,,,,,0,20,20,14,,,,,,up,1.0674784347393143,1246.483894989542,None,001,56,2019_Oct_23_1555,ACPT_experiment_5_30_19,3.1.0,59.97000459874934,
,,,C,U,g,n,R,D,g,R,i,,,,,5,19,119,16,0,0,0,0,,,,,0,21,21,3,,,,,,up,0.9507197878810985,1248.8356871468095,None,001,56,2019_Oct_23_1555,ACPT_experiment_5_30_19,3.1.0,59.97000459874934,
,,,C,U,g,n,L,U,y,L,u,,,,,5,19,119,16,0,0,0,0,,,,,0,22,22,24,,,,,,down,1.017480411886936,1251.070717638675,None,001,56,2019_Oct_23_1555,ACPT_experiment_5_30_19,3.1.0,59.97000459874934,
,,,C,U,g,n,R,G,y,R,y,,,,,5,19,119,16,0,0,0,0,,,,,0,23,23,29,,,,,,down,0.9507448418298736,1253.3891430674048,None,001,56,2019_Oct_23_1555,ACPT_experiment_5_30_19,3.1.0,59.97000459874934,
,,,C,U,g,n,R,D,d,R,c ,,,,,5,19,119,16,0,0,0,0,,,,,0,24,24,1,,,,,,up,1.2176122620694514,1255.6408262852747,None,001,56,2019_Oct_23_1555,ACPT_experiment_5_30_19,3.1.0,59.97000459874934,
,,,C,U,g,n,R,D,g,L,i,,,,,5,19,119,16,0,0,0,0,,,,,0,25,25,2,,,,,,up,0.9340598173621402,1258.126051548952,None,001,56,2019_Oct_23_1555,ACPT_experiment_5_30_19,3.1.0,59.97000459874934,
,,,C,U,g,n,R,D,y,R,y,,,,,5,19,119,16,0,0,0,0,,,,,0,26,26,27,,,,,,down,0.8006025625654729,1260.3444229758607,None,001,56,2019_Oct_23_1555,ACPT_experiment_5_30_19,3.1.0,59.97000459874934,
,,,C,U,g,n,L,U,d,R,u,,,,,5,19,119,16,0,0,0,0,,,,,0,27,27,21,,,,,,down,1.401019242941402,1262.4293842373227,None,001,56,2019_Oct_23_1555,ACPT_experiment_5_30_19,3.1.0,59.97000459874934,
,,,C,U,g,n,L,D,g,R,i,,,,,5,19,119,16,0,0,0,0,,,,,0,28,28,15,,,,,,up,0.667160702367255,1265.1147159953762,None,001,56,2019_Oct_23_1555,ACPT_experiment_5_30_19,3.1.0,59.97000459874934,
,,,C,U,g,n,L,U,y,R,u,,,,,5,19,119,16,0,0,0,0,,,,,0,29,29,25,,,,,,down,0.6671905859911931,1267.0661741201147,None,001,56,2019_Oct_23_1555,ACPT_experiment_5_30_19,3.1.0,59.97000459874934,
,,,C,U,g,n,R,U,g,L,u,,,,,5,19,119,16,0,0,0,0,,,,,0,30,30,10,,,,,,up,0.9006801090654335,1269.0176787304954,None,001,56,2019_Oct_23_1555,ACPT_experiment_5_30_19,3.1.0,59.97000459874934,
,,,C,U,g,n,R,U,d,L,u,,,,,5,19,119,16,0,0,0,0,,,,,0,31,31,8,,,,,,down,1.000759768550779,1271.2026622990306,None,001,56,2019_Oct_23_1555,ACPT_experiment_5_30_19,3.1.0,59.97000459874934,
,,,C,U,g,n,R,G,y,L,y,,,,,5,19,119,16,0,0,0,0,,,,,0,32,32,28,,,,,,down,0.8006294276456174,1273.4877119435805,None,001,56,2019_Oct_23_1555,ACPT_experiment_5_30_19,3.1.0,59.97000459874934,
,,,C,U,g,n,R,G,g,R,c ,,,,,5,19,119,16,0,0,0,0,,,,,0,33,33,7,,,,,,up,0.7672445878197323,1275.5726523770609,None,001,56,2019_Oct_23_1555,ACPT_experiment_5_30_19,3.1.0,59.97000459874934,
,,,C,U,g,n,L,G,y,L,y,,,,,5,19,119,16,0,0,0,0,,,,,0,34,34,34,,,,,,down,0.8006049774048734,1277.6242128003942,None,001,56,2019_Oct_23_1555,ACPT_experiment_5_30_19,3.1.0,59.97000459874934,
,,,C,U,g,n,R,U,d,R,u,,,,,5,19,119,16,0,0,0,0,,,,,0,35,35,9,,,,,,up,1.2508344021516677,1279.7091281799258,None,001,56,2019_Oct_23_1555,ACPT_experiment_5_30_19,3.1.0,59.97000459874934,
,,,C,U,g,n,R,G,g,R,c ,,,,,5,19,119,16,0,0,0,0,,,,,1,0,36,7,,,,,,up,0.66719813236341,1282.244387085324,None,001,56,2019_Oct_23_1555,ACPT_experiment_5_30_19,3.1.0,59.97000459874934,
,,,C,U,g,n,R,U,y,R,u,,,,,5,19,119,16,0,0,0,0,,,,,1,1,37,31,,,,,,down,0.9837632299204415,1284.2128849139299,None,001,56,2019_Oct_23_1555,ACPT_experiment_5_30_19,3.1.0,59.97000459874934,
,,,C,U,g,n,L,D,d,R,c ,,,,,5,19,119,16,0,0,0,0,,,,,1,2,38,13,,,,,,down,0.884021647816553,1286.480914777032,None,001,56,2019_Oct_23_1555,ACPT_experiment_5_30_19,3.1.0,59.97000459874934,
,,,C,U,g,n,L,U,d,R,u,,,,,5,19,119,16,0,0,0,0,,,,,1,3,39,21,,,,,,up,1.8180615427590965,1288.6492299231104,None,001,56,2019_Oct_23_1555,ACPT_experiment_5_30_19,3.1.0,59.97000459874934,
,,,C,U,g,n,L,G,g,R,c ,,,,,5,19,119,16,0,0,0,0,,,,,1,4,40,19,,,,,,up,1.0007609759668412,1291.751606697675,None,001,56,2019_Oct_23_1555,ACPT_experiment_5_30_19,3.1.0,59.97000459874934,
,,,C,U,g,n,R,D,d,R,c ,,,,,5,19,119,16,0,0,0,0,,,,,1,5,41,1,,,,,,up,0.9340426116359595,1294.0366729442394,None,001,56,2019_Oct_23_1555,ACPT_experiment_5_30_19,3.1.0,59.97000459874934,
,,,C,U,g,n,L,G,d,R,i,,,,,5,19,119,16,0,0,0,0,,,,,1,6,42,17,,,,,,up,0.8006025625654729,1296.25502505244,None,001,56,2019_Oct_23_1555,ACPT_experiment_5_30_19,3.1.0,59.97000459874934,
,,,C,U,g,n,L,D,d,L,c ,,,,,5,19,119,16,0,0,0,0,,,,,1,7,43,12,,,,,,up,1.6345691369751876,1298.3399449597964,None,001,56,2019_Oct_23_1555,ACPT_experiment_5_30_19,3.1.0,59.97000459874934,
,,,C,U,g,n,L,D,g,R,i,,,,,5,19,119,16,0,0,0,0,,,,,1,8,44,15,,,,,,up,0.8840002161268785,1301.2588208766392,None,001,56,2019_Oct_23_1555,ACPT_experiment_5_30_19,3.1.0,59.97000459874934,
,,,C,U,g,n,R,G,d,R,i,,,,,5,19,119,16,0,0,0,0,,,,,1,9,45,5,,,,,,up,0.7338763500083587,1303.427148398765,None,001,56,2019_Oct_23_1555,ACPT_experiment_5_30_19,3.1.0,59.97000459874934,
,,,C,U,g,n,R,G,g,L,c ,,,,,5,19,119,16,0,0,0,0,,,,,1,10,46,6,,,,,,up,1.3677080556917645,1305.4286528431257,None,001,56,2019_Oct_23_1555,ACPT_experiment_5_30_19,3.1.0,59.97000459874934,
,,,C,U,g,n,R,G,y,R,y,,,,,5,19,119,16,0,0,0,0,,,,,1,11,47,29,,,,,,down,0.8339623484425829,1308.0806749231997,None,001,56,2019_Oct_23_1555,ACPT_experiment_5_30_19,3.1.0,59.97000459874934,
,,,C,U,g,n,L,G,d,L,i,,,,,5,19,119,16,0,0,0,0,,,,,1,12,48,16,,,,,,up,0.800624296112801,1310.198946164499,None,001,56,2019_Oct_23_1555,ACPT_experiment_5_30_19,3.1.0,59.97000459874934,
,,,C,U,g,n,R,D,g,R,i,,,,,5,19,119,16,0,0,0,0,,,,,1,13,49,3,,,,,,up,0.8673616773012327,1312.2838621477385,None,001,56,2019_Oct_23_1555,ACPT_experiment_5_30_19,3.1.0,59.97000459874934,
,,,C,U,g,n,L,D,y,L,y,,,,,5,19,119,16,0,0,0,0,,,,,1,14,50,32,,,,,,down,0.8172836629237281,1314.435498910152,None,001,56,2019_Oct_23_1555,ACPT_experiment_5_30_19,3.1.0,59.97000459874934,
,,,C,U,g,n,R,D,y,R,y,,,,,5,19,119,16,0,0,0,0,,,,,1,15,51,27,,,,,,down,0.8170711571401625,1316.5539473402205,None,001,56,2019_Oct_23_1555,ACPT_experiment_5_30_19,3.1.0,59.97000459874934,
,,,C,U,g,n,R,U,d,L,u,,,,,5,19,119,16,0,0,0,0,,,,,1,16,52,8,,,,,,up,0.8673369252028351,1318.6720507502469,None,001,56,2019_Oct_23_1555,ACPT_experiment_5_30_19,3.1.0,59.97000459874934,
,,,C,U,g,n,L,U,g,R,u,,,,,5,19,119,16,0,0,0,0,,,,,1,17,53,23,,,,,,up,1.034146117646742,1320.8236546104854,None,001,56,2019_Oct_23_1555,ACPT_experiment_5_30_19,3.1.0,59.97000459874934,
,,,C,U,g,n,R,U,g,L,u,,,,,5,19,119,16,0,0,0,0,,,,,1,18,54,10,,,,,,up,1.2509488051255175,1323.142107809861,None,001,56,2019_Oct_23_1555,ACPT_experiment_5_30_19,3.1.0,59.97000459874934,
,,,C,U,g,n,L,D,g,L,i,,,,,5,19,119,16,0,0,0,0,,,,,1,19,55,14,,,,,,up,0.7505776746365882,1325.6773685263834,None,001,56,2019_Oct_23_1555,ACPT_experiment_5_30_19,3.1.0,59.97000459874934,
,,,C,U,g,n,L,G,y,R,y,,,,,5,19,119,16,0,0,0,0,,,,,1,20,56,35,,,,,,down,0.9674274514618446,1327.7122188713001,None,001,56,2019_Oct_23_1555,ACPT_experiment_5_30_19,3.1.0,59.97000459874934,
,,,C,U,g,n,R,D,g,L,i,,,,,5,19,119,16,0,0,0,0,,,,,1,21,57,2,,,,,,up,0.8005898846640775,1329.963965780531,None,001,56,2019_Oct_23_1555,ACPT_experiment_5_30_19,3.1.0,59.97000459874934,
,,,C,U,g,n,R,U,g,R,u,,,,,5,19,119,16,0,0,0,0,,,,,1,22,58,11,,,,,,up,1.050791297286196,1332.0488790470808,None,001,56,2019_Oct_23_1555,ACPT_experiment_5_30_19,3.1.0,59.97000459874934,
,,,C,U,g,n,L,D,y,R,y,,,,,5,19,119,16,0,0,0,0,,,,,1,23,59,33,,,,,,down,1.0172371169137477,1334.400821226187,None,001,56,2019_Oct_23_1555,ACPT_experiment_5_30_19,3.1.0,59.97000459874934,
,,,C,U,g,n,L,G,g,L,c ,,,,,5,19,119,16,0,0,0,0,,,,,1,24,60,18,,,,,,up,0.8504046816487971,1336.736002917125,None,001,56,2019_Oct_23_1555,ACPT_experiment_5_30_19,3.1.0,59.97000459874934,
,,,C,U,g,n,L,U,d,L,u,,,,,5,19,119,16,0,0,0,0,,,,,1,25,61,20,,,,,,up,0.9006849387405964,1338.8707195101742,None,001,56,2019_Oct_23_1555,ACPT_experiment_5_30_19,3.1.0,59.97000459874934,
,,,C,U,g,n,R,U,y,L,u,,,,,5,19,119,16,0,0,0,0,,,,,1,26,62,30,,,,,,down,0.9507448418298736,1341.0723751234218,None,001,56,2019_Oct_23_1555,ACPT_experiment_5_30_19,3.1.0,59.97000459874934,
,,,C,U,g,n,R,U,d,R,u,,,,,5,19,119,16,0,0,0,0,,,,,1,27,63,9,,,,,,down,1.1175295840366744,1343.32407645258,None,001,56,2019_Oct_23_1555,ACPT_experiment_5_30_19,3.1.0,59.97000459874934,
,,,C,U,g,n,R,D,y,L,y,,,,,5,19,119,16,0,0,0,0,,,,,1,28,64,26,,,,,,down,1.1842482502252096,1345.725905270112,None,001,56,2019_Oct_23_1555,ACPT_experiment_5_30_19,3.1.0,59.97000459874934,
,,,C,U,g,n,R,G,d,L,i,,,,,5,19,119,16,0,0,0,0,,,,,1,29,65,4,,,,,,up,0.7837750626276829,1348.1945849662407,None,001,56,2019_Oct_23_1555,ACPT_experiment_5_30_19,3.1.0,59.97000459874934,
,,,C,U,g,n,R,D,d,L,c,,,,,5,19,119,16,0,0,0,0,,,,,1,30,66,0,,,,,,down,0.8670447297517967,1350.2796558010014,None,001,56,2019_Oct_23_1555,ACPT_experiment_5_30_19,3.1.0,59.97000459874934,
,,,C,U,g,n,L,U,y,R,u,,,,,5,19,119,16,0,0,0,0,,,,,1,31,67,25,,,,,,down,0.9007036537404929,1352.430991312318,None,001,56,2019_Oct_23_1555,ACPT_experiment_5_30_19,3.1.0,59.97000459874934,
,,,C,U,g,n,L,U,y,L,u,,,,,5,19,119,16,0,0,0,0,,,,,1,32,68,24,,,,,,down,0.8172957371134544,1354.6160065756048,None,001,56,2019_Oct_23_1555,ACPT_experiment_5_30_19,3.1.0,59.97000459874934,
,,,C,U,g,n,L,U,g,L,u,,,,,5,19,119,16,0,0,0,0,,,,,1,33,69,22,,,,,,up,0.833699734757829,1356.7178720081283,None,001,56,2019_Oct_23_1555,ACPT_experiment_5_30_19,3.1.0,59.97000459874934,
,,,C,U,g,n,R,G,y,L,y,,,,,5,19,119,16,0,0,0,0,,,,,1,34,70,28,,,,,,down,0.7672711510422232,1358.8358785227574,None,001,56,2019_Oct_23_1555,ACPT_experiment_5_30_19,3.1.0,59.97000459874934,
,,,C,U,g,n,L,G,y,L,y,,,,,5,19,119,16,0,0,0,0,,,,,1,35,71,34,,,,,,down,0.6837349461238773,1360.8874383423827,None,001,56,2019_Oct_23_1555,ACPT_experiment_5_30_19,3.1.0,59.97000459874934,
,,,C,U,g,n,,,,,,,,,,5,19,119,16,1,0,1,0,0,0,0,0,,,,,,,,,,,,,,001,56,2019_Oct_23_1555,ACPT_experiment_5_30_19,3.1.0,59.97000459874934,
,,,C,U,g,n,L,U,g,R,u,,,,,5,19,119,16,1,0,1,0,,,,,0,0,0,23,,,,,,up,0.850363931247557,1369.961277159764,None,001,56,2019_Oct_23_1555,ACPT_experiment_5_30_19,3.1.0,59.97000459874934,
,,,C,U,g,n,R,D,g,L,i,,,,,5,19,119,16,1,0,1,0,,,,,0,1,1,2,,,,,,up,0.833946651990118,1372.095965680317,None,001,56,2019_Oct_23_1555,ACPT_experiment_5_30_19,3.1.0,59.97000459874934,
,,,C,U,g,n,L,U,g,L,u,,,,,5,19,119,16,1,0,1,0,,,,,0,2,2,22,,,,,,up,0.7339300801613717,1374.2142227344375,None,001,56,2019_Oct_23_1555,ACPT_experiment_5_30_19,3.1.0,59.97000459874934,
,,,C,U,g,n,L,D,d,L,c ,,,,,5,19,119,16,1,0,1,0,,,,,0,3,3,12,,,,,,up,0.6838475379663578,1376.2324239756017,None,001,56,2019_Oct_23_1555,ACPT_experiment_5_30_19,3.1.0,59.97000459874934,
,,,C,U,g,n,R,G,y,R,y,,,,,5,19,119,16,1,0,1,0,,,,,0,4,4,29,,,,,,down,0.7839214622072177,1378.2172651290384,None,001,56,2019_Oct_23_1555,ACPT_experiment_5_30_19,3.1.0,59.97000459874934,
,,,C,U,g,n,R,U,d,L,u,,,,,5,19,119,16,1,0,1,0,,,,,0,5,5,8,,,,,,up,0.7672463989474636,1380.3021811122817,None,001,56,2019_Oct_23_1555,ACPT_experiment_5_30_19,3.1.0,59.97000459874934,
,,,C,U,g,n,L,G,g,R,c ,,,,,5,19,119,16,1,0,1,0,,,,,0,6,6,19,,,,,,up,0.7839338382545975,1382.3537385170675,None,001,56,2019_Oct_23_1555,ACPT_experiment_5_30_19,3.1.0,59.97000459874934,
,,,C,U,g,n,R,D,y,L,y,,,,,5,19,119,16,1,0,1,0,,,,,0,7,7,26,,,,,,down,0.6004628641603631,1384.4219890964014,None,001,56,2019_Oct_23_1555,ACPT_experiment_5_30_19,3.1.0,59.97000459874934,
,,,C,U,g,n,R,U,g,L,u,,,,,5,19,119,16,1,0,1,0,,,,,0,8,8,10,,,,,,up,0.7672687362064607,1386.3067415347068,None,001,56,2019_Oct_23_1555,ACPT_experiment_5_30_19,3.1.0,59.97000459874934,
,,,C,U,g,n,L,D,g,R,i,,,,,5,19,119,16,1,0,1,0,,,,,0,9,9,15,,,,,,up,0.9673894177540205,1388.35831131554,None,001,56,2019_Oct_23_1555,ACPT_experiment_5_30_19,3.1.0,59.97000459874934,
,,,C,U,g,n,R,D,g,R,i,,,,,5,19,119,16,1,0,1,0,,,,,0,10,10,3,,,,,,up,1.1842401001413236,1390.6100072113113,None,001,56,2019_Oct_23_1555,ACPT_experiment_5_30_19,3.1.0,59.97000459874934,
,,,C,U,g,n,R,D,y,R,y,,,,,5,19,119,16,1,0,1,0,,,,,0,11,11,27,,,,,,down,0.9340166521214996,1393.0785700896304,None,001,56,2019_Oct_23_1555,ACPT_experiment_5_30_19,3.1.0,59.97000459874934,
,,,C,U,g,n,L,D,y,R,y,,,,,5,19,119,16,1,0,1,0,,,,,0,12,12,33,,,,,,down,0.7672500212065643,1395.2969010679917,None,001,56,2019_Oct_23_1555,ACPT_experiment_5_30_19,3.1.0,59.97000459874934,
,,,C,U,g,n,R,G,g,L,c ,,,,,5,19,119,16,1,0,1,0,,,,,0,13,13,6,,,,,,up,0.7672506249145954,1397.3484587746316,None,001,56,2019_Oct_23_1555,ACPT_experiment_5_30_19,3.1.0,59.97000459874934,
,,,C,U,g,n,R,D,d,L,c,,,,,5,19,119,16,1,0,1,0,,,,,0,14,14,0,,,,,,up,0.733912874442467,1399.4000185942568,None,001,56,2019_Oct_23_1555,ACPT_experiment_5_30_19,3.1.0,59.97000459874934,
,,,C,U,g,n,R,G,d,L,i,,,,,5,19,119,16,1,0,1,0,,,,,0,15,15,4,,,,,,up,1.0841580258238537,1401.418218929859,None,001,56,2019_Oct_23_1555,ACPT_experiment_5_30_19,3.1.0,59.97000459874934,
,,,C,U,g,n,L,D,d,R,c ,,,,,5,19,119,16,1,0,1,0,,,,,0,16,16,13,,,,,,up,1.2175893211024231,1403.7866822262768,None,001,56,2019_Oct_23_1555,ACPT_experiment_5_30_19,3.1.0,59.97000459874934,
,,,C,U,g,n,R,U,y,R,u,,,,,5,19,119,16,1,0,1,0,,,,,0,17,17,31,,,,,,down,0.7672385507212311,1406.2885837606336,None,001,56,2019_Oct_23_1555,ACPT_experiment_5_30_19,3.1.0,59.97000459874934,
,,,C,U,g,n,L,G,y,R,y,,,,,5,19,119,16,1,0,1,0,,,,,0,18,18,35,,,,,,down,1.1508748808810196,1408.3234564428058,None,001,56,2019_Oct_23_1555,ACPT_experiment_5_30_19,3.1.0,59.97000459874934,
,,,C,U,g,n,L,D,g,L,i,,,,,5,19,119,16,1,0,1,0,,,,,0,19,19,14,,,,,,up,0.633849213259964,1410.7586178792844,None,001,56,2019_Oct_23_1555,ACPT_experiment_5_30_19,3.1.0,59.97000459874934,
,,,C,U,g,n,L,G,d,R,i,,,,,5,19,119,16,1,0,1,0,,,,,0,20,20,17,,,,,,up,1.1675448126115953,1412.67677296685,None,001,56,2019_Oct_23_1555,ACPT_experiment_5_30_19,3.1.0,59.97000459874934,
,,,C,U,g,n,L,G,d,L,i,,,,,5,19,119,16,1,0,1,0,,,,,0,21,21,16,,,,,,down,0.7505831080270582,1415.1286049387672,None,001,56,2019_Oct_23_1555,ACPT_experiment_5_30_19,3.1.0,59.97000459874934,
,,,C,U,g,n,L,U,d,R,u,,,,,5,19,119,16,1,0,1,0,,,,,0,22,22,21,,,,,,down,0.8673695255238272,1417.16350478787,None,001,56,2019_Oct_23_1555,ACPT_experiment_5_30_19,3.1.0,59.97000459874934,
,,,C,U,g,n,R,G,g,R,c ,,,,,5,19,119,16,1,0,1,0,,,,,0,23,23,7,,,,,,up,0.7338796704098058,1419.3151448706885,None,001,56,2019_Oct_23_1555,ACPT_experiment_5_30_19,3.1.0,59.97000459874934,
,,,C,U,g,n,L,U,y,L,u,,,,,5,19,119,16,1,0,1,0,,,,,0,24,24,24,,,,,,down,0.850664578636497,1421.3333135115354,None,001,56,2019_Oct_23_1555,ACPT_experiment_5_30_19,3.1.0,59.97000459874934,
,,,C,U,g,n,L,G,g,L,c ,,,,,5,19,119,16,1,0,1,0,,,,,0,25,25,18,,,,,,up,0.7005757276747318,1423.4682697773023,None,001,56,2019_Oct_23_1555,ACPT_experiment_5_30_19,3.1.0,59.97000459874934,
,,,C,U,g,n,R,U,g,R,u,,,,,5,19,119,16,1,0,1,0,,,,,0,26,26,11,,,,,,up,0.8167297593536205,1425.4702137222594,None,001,56,2019_Oct_23_1555,ACPT_experiment_5_30_19,3.1.0,59.97000459874934,
,,,C,U,g,n,R,U,d,R,u,,,,,5,19,119,16,1,0,1,0,,,,,0,27,27,9,,,,,,up,1.2342722325884097,1427.571405716706,None,001,56,2019_Oct_23_1555,ACPT_experiment_5_30_19,3.1.0,59.97000459874934,
,,,C,U,g,n,L,U,d,L,u,,,,,5,19,119,16,1,0,1,0,,,,,0,28,28,20,,,,,,up,0.9173992431315128,1430.0899874458592,None,001,56,2019_Oct_23_1555,ACPT_experiment_5_30_19,3.1.0,59.97000459874934,
,,,C,U,g,n,L,G,y,L,y,,,,,5,19,119,16,1,0,1,0,,,,,0,29,29,34,,,,,,down,0.8840195348348061,1432.2916343053148,None,001,56,2019_Oct_23_1555,ACPT_experiment_5_30_19,3.1.0,59.97000459874934,
,,,C,U,g,n,R,U,y,L,u,,,,,5,19,119,16,1,0,1,0,,,,,0,30,30,30,,,,,,down,0.9507496715050365,1434.4599729960682,None,001,56,2019_Oct_23_1555,ACPT_experiment_5_30_19,3.1.0,59.97000459874934,
,,,C,U,g,n,L,U,y,R,u,,,,,5,19,119,16,1,0,1,0,,,,,0,31,31,25,,,,,,down,0.817368785981671,1436.711684890146,None,001,56,2019_Oct_23_1555,ACPT_experiment_5_30_19,3.1.0,59.97000459874934,
,,,C,U,g,n,R,G,y,L,y,,,,,5,19,119,16,1,0,1,0,,,,,0,32,32,28,,,,,,down,0.8005941106312093,1438.8132849922913,None,001,56,2019_Oct_23_1555,ACPT_experiment_5_30_19,3.1.0,59.97000459874934,
,,,C,U,g,n,R,G,d,R,i,,,,,5,19,119,16,1,0,1,0,,,,,0,33,33,5,,,,,,up,1.2009079188901524,1440.9148718128272,None,001,56,2019_Oct_23_1555,ACPT_experiment_5_30_19,3.1.0,59.97000459874934,
,,,C,U,g,n,R,D,d,R,c ,,,,,5,19,119,16,1,0,1,0,,,,,0,34,34,1,,,,,,up,0.884000517984532,1443.4000946616688,None,001,56,2019_Oct_23_1555,ACPT_experiment_5_30_19,3.1.0,59.97000459874934,
,,,C,U,g,n,L,D,y,L,y,,,,,5,19,119,16,1,0,1,0,,,,,0,35,35,32,,,,,,down,1.0508060881693382,1445.568402563229,None,001,56,2019_Oct_23_1555,ACPT_experiment_5_30_19,3.1.0,59.97000459874934,
,,,C,U,g,n,R,U,d,R,u,,,,,5,19,119,16,1,0,1,0,,,,,1,0,36,9,,,,,,up,0.8006101089376898,1447.9035127145762,None,001,56,2019_Oct_23_1555,ACPT_experiment_5_30_19,3.1.0,59.97000459874934,
,,,C,U,g,n,L,D,d,R,c ,,,,,5,19,119,16,1,0,1,0,,,,,1,1,37,13,,,,,,down,0.9173832448250323,1449.9884036438707,None,001,56,2019_Oct_23_1555,ACPT_experiment_5_30_19,3.1.0,59.97000459874934,
,,,C,U,g,n,R,U,g,L,u,,,,,5,19,119,16,1,0,1,0,,,,,1,2,38,10,,,,,,up,0.6671757951080508,1452.190094875983,None,001,56,2019_Oct_23_1555,ACPT_experiment_5_30_19,3.1.0,59.97000459874934,
,,,C,U,g,n,R,D,g,R,i,,,,,5,19,119,16,1,0,1,0,,,,,1,3,39,3,,,,,,up,0.9341060011429363,1454.141558735966,None,001,56,2019_Oct_23_1555,ACPT_experiment_5_30_19,3.1.0,59.97000459874934,
,,,C,U,g,n,L,U,d,L,u,,,,,5,19,119,16,1,0,1,0,,,,,1,4,40,20,,,,,,up,1.2676280943524034,1456.3599346906958,None,001,56,2019_Oct_23_1555,ACPT_experiment_5_30_19,3.1.0,59.97000459874934,
,,,C,U,g,n,R,U,g,R,u,,,,,5,19,119,16,1,0,1,0,,,,,1,5,41,11,,,,,,up,0.6171358144383703,1458.9118695649158,None,001,56,2019_Oct_23_1555,ACPT_experiment_5_30_19,3.1.0,59.97000459874934,
,,,C,U,g,n,R,G,g,R,c ,,,,,5,19,119,16,1,0,1,0,,,,,1,6,42,7,,,,,,up,0.5837763304152759,1460.8133118573714,None,001,56,2019_Oct_23_1555,ACPT_experiment_5_30_19,3.1.0,59.97000459874934,
,,,C,U,g,n,R,G,g,L,c ,,,,,5,19,119,16,1,0,1,0,,,,,1,7,43,6,,,,,,up,0.7839265937400341,1462.681398589917,None,001,56,2019_Oct_23_1555,ACPT_experiment_5_30_19,3.1.0,59.97000459874934,
,,,C,U,g,n,L,G,d,L,i,,,,,5,19,119,16,1,0,1,0,,,,,1,8,44,16,,,,,,down,0.6171433608069492,1464.74961656893,None,001,56,2019_Oct_23_1555,ACPT_experiment_5_30_19,3.1.0,59.97000459874934,
,,,C,U,g,n,L,D,g,L,i,,,,,5,19,119,16,1,0,1,0,,,,,1,9,45,14,,,,,,up,0.6838315396635153,1466.6510962913817,None,001,56,2019_Oct_23_1555,ACPT_experiment_5_30_19,3.1.0,59.97000459874934,
,,,C,U,g,n,R,G,d,L,i,,,,,5,19,119,16,1,0,1,0,,,,,1,10,46,4,,,,,,up,0.9340377819607966,1468.6192442702668,None,001,56,2019_Oct_23_1555,ACPT_experiment_5_30_19,3.1.0,59.97000459874934,
,,,C,U,g,n,L,G,d,R,i,,,,,5,19,119,16,1,0,1,0,,,,,1,11,47,17,,,,,,up,1.0174414726170653,1470.8375909450806,None,001,56,2019_Oct_23_1555,ACPT_experiment_5_30_19,3.1.0,59.97000459874934,
,,,C,U,g,n,L,U,y,L,u,,,,,5,19,119,16,1,0,1,0,,,,,1,12,48,24,,,,,,down,0.7005352791311452,1473.1393328586164,None,001,56,2019_Oct_23_1555,ACPT_experiment_5_30_19,3.1.0,59.97000459874934,
,,,C,U,g,n,R,D,y,R,y,,,,,5,19,119,16,1,0,1,0,,,,,1,13,49,27,,,,,,down,0.7172254351316951,1475.1408403215246,None,001,56,2019_Oct_23_1555,ACPT_experiment_5_30_19,3.1.0,59.97000459874934,
,,,C,U,g,n,R,D,y,L,y,,,,,5,19,119,16,1,0,1,0,,,,,1,14,50,26,,,,,,down,0.833936388928123,1477.1590877464769,None,001,56,2019_Oct_23_1555,ACPT_experiment_5_30_19,3.1.0,59.97000459874934,
,,,C,U,g,n,L,D,y,R,y,,,,,5,19,119,16,1,0,1,0,,,,,1,15,51,33,,,,,,down,0.6338196314900415,1479.2773285004369,None,001,56,2019_Oct_23_1555,ACPT_experiment_5_30_19,3.1.0,59.97000459874934,
,,,C,U,g,n,L,U,g,R,u,,,,,5,19,119,16,1,0,1,0,,,,,1,16,52,23,,,,,,up,0.583776934126945,1481.1954594396193,None,001,56,2019_Oct_23_1555,ACPT_experiment_5_30_19,3.1.0,59.97000459874934,
,,,C,U,g,n,L,U,y,R,u,,,,,5,19,119,16,1,0,1,0,,,,,1,17,53,25,,,,,,down,0.5971161999150354,1483.0835552217723,None,001,56,2019_Oct_23_1555,ACPT_experiment_5_30_19,3.1.0,59.97000459874934,
,,,C,U,g,n,L,U,g,L,u,,,,,5,19,119,16,1,0,1,0,,,,,1,18,54,22,,,,,,up,0.5504032629287394,1484.9650177445365,None,001,56,2019_Oct_23_1555,ACPT_experiment_5_30_19,3.1.0,59.97000459874934,
,,,C,U,g,n,L,G,y,R,y,,,,,5,19,119,16,1,0,1,0,,,,,1,19,55,35,,,,,,down,0.6671555708380765,1486.7997277873365,None,001,56,2019_Oct_23_1555,ACPT_experiment_5_30_19,3.1.0,59.97000459874934,
,,,C,U,g,n,L,D,y,L,y,,,,,5,19,119,16,1,0,1,0,,,,,1,20,56,32,,,,,,down,0.6838457268386264,1488.7512010048158,None,001,56,2019_Oct_23_1555,ACPT_experiment_5_30_19,3.1.0,59.97000459874934,
,,,C,U,g,n,L,G,g,R,c ,,,,,5,19,119,16,1,0,1,0,,,,,1,21,57,19,,,,,,up,0.5504080926039023,1490.7193613597483,None,001,56,2019_Oct_23_1555,ACPT_experiment_5_30_19,3.1.0,59.97000459874934,
,,,C,U,g,n,R,G,y,L,y,,,,,5,19,119,16,1,0,1,0,,,,,1,22,58,28,,,,,,down,0.5004704407147074,1492.5540870989971,None,001,56,2019_Oct_23_1555,ACPT_experiment_5_30_19,3.1.0,59.97000459874934,
,,,C,U,g,n,L,G,y,L,y,,,,,5,19,119,16,1,0,1,0,,,,,1,23,59,34,,,,,,down,0.5504093000272405,1494.338773461288,None,001,56,2019_Oct_23_1555,ACPT_experiment_5_30_19,3.1.0,59.97000459874934,
,,,C,U,g,n,R,D,d,R,c ,,,,,5,19,119,16,1,0,1,0,,,,,1,24,60,1,,,,,,down,0.7005011695364374,1496.1901890546833,None,001,56,2019_Oct_23_1555,ACPT_experiment_5_30_19,3.1.0,59.97000459874934,
,,,C,U,g,n,L,U,d,R,u,,,,,5,19,119,16,1,0,1,0,,,,,1,25,61,21,,,,,,down,1.0174535468067916,1498.174996702237,None,001,56,2019_Oct_23_1555,ACPT_experiment_5_30_19,3.1.0,59.97000459874934,
,,,C,U,g,n,L,D,d,L,c ,,,,,5,19,119,16,1,0,1,0,,,,,1,26,62,12,,,,,,up,0.717205814569752,1500.476770612382,None,001,56,2019_Oct_23_1555,ACPT_experiment_5_30_19,3.1.0,59.97000459874934,
,,,C,U,g,n,L,D,g,R,i,,,,,5,19,119,16,1,0,1,0,,,,,1,27,63,15,,,,,,up,0.7672705473341921,1502.4615939563846,None,001,56,2019_Oct_23_1555,ACPT_experiment_5_30_19,3.1.0,59.97000459874934,
,,,C,U,g,n,L,G,g,L,c ,,,,,5,19,119,16,1,0,1,0,,,,,1,28,64,18,,,,,,up,0.600451393678668,1504.5131655483456,None,001,56,2019_Oct_23_1555,ACPT_experiment_5_30_19,3.1.0,59.97000459874934,
,,,C,U,g,n,R,G,y,R,y,,,,,5,19,119,16,1,0,1,0,,,,,1,29,65,29,,,,,,down,0.6671658339000714,1506.3979388146327,None,001,56,2019_Oct_23_1555,ACPT_experiment_5_30_19,3.1.0,59.97000459874934,
,,,C,U,g,n,R,D,d,L,c,,,,,5,19,119,16,1,0,1,0,,,,,1,30,66,0,,,,,,up,1.0174490189856442,1508.3494222951776,None,001,56,2019_Oct_23_1555,ACPT_experiment_5_30_19,3.1.0,59.97000459874934,
,,,C,U,g,n,R,G,d,R,i,,,,,5,19,119,16,1,0,1,0,,,,,1,31,67,5,,,,,,up,1.9014498388241918,1510.6511599827463,None,001,56,2019_Oct_23_1555,ACPT_experiment_5_30_19,3.1.0,59.97000459874934,
,,,C,U,g,n,R,U,y,R,u,,,,,5,19,119,16,1,0,1,0,,,,,1,32,68,31,,,,,,down,0.7503470575647953,1513.8537715701677,None,001,56,2019_Oct_23_1555,ACPT_experiment_5_30_19,3.1.0,59.97000459874934,
,,,C,U,g,n,R,D,g,L,i,,,,,5,19,119,16,1,0,1,0,,,,,1,33,69,2,,,,,,up,0.7505381316586863,1515.905169293761,None,001,56,2019_Oct_23_1555,ACPT_experiment_5_30_19,3.1.0,59.97000459874934,
,,,C,U,g,n,R,U,y,L,u,,,,,5,19,119,16,1,0,1,0,,,,,1,34,70,30,,,,,,down,0.5671088135277387,1517.940006357061,None,001,56,2019_Oct_23_1555,ACPT_experiment_5_30_19,3.1.0,59.97000459874934,
,,,C,U,g,n,R,U,d,L,u,,,,,5,19,119,16,1,0,1,0,,,,,1,35,71,8,,,,,,up,0.5670940226409584,1519.791432515376,None,001,56,2019_Oct_23_1555,ACPT_experiment_5_30_19,3.1.0,59.97000459874934,
,,,C,U,g,n,,,,,,,,,,5,19,119,16,2,0,2,0,0,0,0,0,,,,,,,,,,,,,,001,56,2019_Oct_23_1555,ACPT_experiment_5_30_19,3.1.0,59.97000459874934,
,,,C,U,g,n,R,D,y,R,y,,,,,5,19,119,16,2,0,2,0,,,,,0,0,0,27,,,,,,down,0.7503129479700874,1530.5498741114534,None,001,56,2019_Oct_23_1555,ACPT_experiment_5_30_19,3.1.0,59.97000459874934,
,,,C,U,g,n,R,U,g,L,u,,,,,5,19,119,16,2,0,2,0,,,,,0,1,1,10,,,,,,up,0.7505652985928464,1532.5844805576817,None,001,56,2019_Oct_23_1555,ACPT_experiment_5_30_19,3.1.0,59.97000459874934,
,,,C,U,g,n,L,G,g,R,c ,,,,,5,19,119,16,2,0,2,0,,,,,0,2,2,19,,,,,,up,0.5504201667972666,1534.6193538435618,None,001,56,2019_Oct_23_1555,ACPT_experiment_5_30_19,3.1.0,59.97000459874934,
,,,C,U,g,n,R,G,g,L,c ,,,,,5,19,119,16,2,0,2,0,,,,,0,3,3,6,,,,,,up,0.617177470401657,1536.4540801865223,None,001,56,2019_Oct_23_1555,ACPT_experiment_5_30_19,3.1.0,59.97000459874934,
,,,C,U,g,n,L,U,d,L,u,,,,,5,19,119,16,2,0,2,0,,,,,0,4,4,20,,,,,,down,0.7172293592411734,1538.3555046695437,None,001,56,2019_Oct_23_1555,ACPT_experiment_5_30_19,3.1.0,59.97000459874934,
,,,C,U,g,n,R,D,y,L,y,,,,,5,19,119,16,2,0,2,0,,,,,0,5,5,26,,,,,,down,0.6838493490977271,1540.3570471476087,None,001,56,2019_Oct_23_1555,ACPT_experiment_5_30_19,3.1.0,59.97000459874934,
,,,C,U,g,n,L,U,d,R,u,,,,,5,19,119,16,2,0,2,0,,,,,0,6,6,21,,,,,,up,0.7672684343488072,1542.3251857689938,None,001,56,2019_Oct_23_1555,ACPT_experiment_5_30_19,3.1.0,59.97000459874934,
,,,C,U,g,n,L,D,y,R,y,,,,,5,19,119,16,2,0,2,0,,,,,0,7,7,33,,,,,,down,0.567116058042302,1544.376745890473,None,001,56,2019_Oct_23_1555,ACPT_experiment_5_30_19,3.1.0,59.97000459874934,
,,,C,U,g,n,L,U,g,L,u,,,,,5,19,119,16,2,0,2,0,,,,,0,8,8,22,,,,,,up,1.0507958251073433,1546.2281750673355,None,001,56,2019_Oct_23_1555,ACPT_experiment_5_30_19,3.1.0,59.97000459874934,
,,,C,U,g,n,R,D,g,L,i,,,,,5,19,119,16,2,0,2,0,,,,,0,9,9,2,,,,,,up,0.833962952154252,1548.5466038164705,None,001,56,2019_Oct_23_1555,ACPT_experiment_5_30_19,3.1.0,59.97000459874934,
,,,C,U,g,n,R,D,d,R,c ,,,,,5,19,119,16,2,0,2,0,,,,,0,10,10,1,,,,,,up,0.8673468864108145,1550.6481731294298,None,001,56,2019_Oct_23_1555,ACPT_experiment_5_30_19,3.1.0,59.97000459874934,
,,,C,U,g,n,L,U,y,R,u,,,,,5,19,119,16,2,0,2,0,,,,,0,11,11,25,,,,,,down,0.7339062336359348,1552.799808080712,None,001,56,2019_Oct_23_1555,ACPT_experiment_5_30_19,3.1.0,59.97000459874934,
,,,C,U,g,n,R,D,g,R,i,,,,,5,19,119,16,2,0,2,0,,,,,0,12,12,3,,,,,,up,0.7672451915277634,1554.8180289424417,None,001,56,2019_Oct_23_1555,ACPT_experiment_5_30_19,3.1.0,59.97000459874934,
,,,C,U,g,n,R,U,y,R,u,,,,,5,19,119,16,2,0,2,0,,,,,0,13,13,31,,,,,,down,0.800592299503478,1556.8695963084356,None,001,56,2019_Oct_23_1555,ACPT_experiment_5_30_19,3.1.0,59.97000459874934,
,,,C,U,g,n,L,G,g,L,c ,,,,,5,19,119,16,2,0,2,0,,,,,0,14,14,18,,,,,,up,0.650529106198519,1558.9545047453103,None,001,56,2019_Oct_23_1555,ACPT_experiment_5_30_19,3.1.0,59.97000459874934,
,,,C,U,g,n,R,U,d,R,u,,,,,5,19,119,16,2,0,2,0,,,,,0,15,15,9,,,,,,up,1.000795085561549,1560.8892838826723,None,001,56,2019_Oct_23_1555,ACPT_experiment_5_30_19,3.1.0,59.97000459874934,
,,,C,U,g,n,L,G,d,L,i,,,,,5,19,119,16,2,0,2,0,,,,,0,16,16,16,,,,,,down,0.7839371586596826,1563.1743564681892,None,001,56,2019_Oct_23_1555,ACPT_experiment_5_30_19,3.1.0,59.97000459874934,
,,,C,U,g,n,L,G,y,L,y,,,,,5,19,119,16,2,0,2,0,,,,,0,17,17,34,,,,,,down,0.7672992235384299,1565.259270036593,None,001,56,2019_Oct_23_1555,ACPT_experiment_5_30_19,3.1.0,59.97000459874934,
,,,C,U,g,n,L,D,d,R,c ,,,,,5,19,119,16,2,0,2,0,,,,,0,18,18,13,,,,,,up,0.5003738471787074,1567.3275393309268,None,001,56,2019_Oct_23_1555,ACPT_experiment_5_30_19,3.1.0,59.97000459874934,
,,,C,U,g,n,L,D,d,L,c ,,,,,5,19,119,16,2,0,2,0,,,,,0,19,19,12,,,,,,up,0.6671691543015186,1569.112214222736,None,001,56,2019_Oct_23_1555,ACPT_experiment_5_30_19,3.1.0,59.97000459874934,
,,,C,U,g,n,R,G,d,R,i,,,,,5,19,119,16,2,0,2,0,,,,,0,20,20,5,,,,,,up,0.500380186131224,1571.0470187159044,None,001,56,2019_Oct_23_1555,ACPT_experiment_5_30_19,3.1.0,59.97000459874934,
,,,C,U,g,n,R,G,g,R,c ,,,,,5,19,119,16,2,0,2,0,,,,,0,21,21,7,,,,,,up,0.7339484933072526,1572.815004659129,None,001,56,2019_Oct_23_1555,ACPT_experiment_5_30_19,3.1.0,59.97000459874934,
,,,C,U,g,n,L,D,g,L,i,,,,,5,19,119,16,2,0,2,0,,,,,0,22,22,14,,,,,,up,0.7172100405332458,1574.8332282375522,None,001,56,2019_Oct_23_1555,ACPT_experiment_5_30_19,3.1.0,59.97000459874934,
,,,C,U,g,n,R,G,y,R,y,,,,,5,19,119,16,2,0,2,0,,,,,0,23,23,29,,,,,,down,0.7005443347770779,1576.8347263429605,None,001,56,2019_Oct_23_1555,ACPT_experiment_5_30_19,3.1.0,59.97000459874934,
,,,C,U,g,n,L,G,y,R,y,,,,,5,19,119,16,2,0,2,0,,,,,0,24,24,35,,,,,,down,0.7839413846268144,1578.8362449744964,None,001,56,2019_Oct_23_1555,ACPT_experiment_5_30_19,3.1.0,59.97000459874934,
,,,C,U,g,n,L,U,y,L,u,,,,,5,19,119,16,2,0,2,0,,,,,0,25,25,24,,,,,,down,2.3851570746774087,1580.9211808801556,None,001,56,2019_Oct_23_1555,ACPT_experiment_5_30_19,3.1.0,59.97000459874934,
,,,C,U,g,n,R,U,y,L,u,,,,,5,19,119,16,2,0,2,0,,,,,0,26,26,30,,,,,,down,0.9174022616789443,1584.590637490186,None,001,56,2019_Oct_23_1555,ACPT_experiment_5_30_19,3.1.0,59.97000459874934,
,,,C,U,g,n,R,D,d,L,c,,,,,5,19,119,16,2,0,2,0,,,,,0,27,27,0,,,,,,down,1.6846051935317519,1586.7923100073021,None,001,56,2019_Oct_23_1555,ACPT_experiment_5_30_19,3.1.0,59.97000459874934,
,,,C,U,g,n,R,G,d,L,i,,,,,5,19,119,16,2,0,2,0,,,,,0,28,28,4,,,,,,up,0.7005781425104942,1589.7612023601432,None,001,56,2019_Oct_23_1555,ACPT_experiment_5_30_19,3.1.0,59.97000459874934,
,,,C,U,g,n,L,U,g,R,u,,,,,5,19,119,16,2,0,2,0,,,,,0,29,29,23,,,,,,up,1.0507931084139273,1591.7460685675287,None,001,56,2019_Oct_23_1555,ACPT_experiment_5_30_19,3.1.0,59.97000459874934,
,,,C,U,g,n,L,D,g,R,i,,,,,5,19,119,16,2,0,2,0,,,,,0,30,30,15,,,,,,up,0.8172869833251752,1594.08116966323,None,001,56,2019_Oct_23_1555,ACPT_experiment_5_30_19,3.1.0,59.97000459874934,
,,,C,U,g,n,R,U,d,L,u,,,,,5,19,119,16,2,0,2,0,,,,,0,31,31,8,,,,,,up,1.1175150950039097,1596.1827730857804,None,001,56,2019_Oct_23_1555,ACPT_experiment_5_30_19,3.1.0,59.97000459874934,
,,,C,U,g,n,L,D,y,L,y,,,,,5,19,119,16,2,0,2,0,,,,,0,32,32,32,,,,,,down,0.9005478966610099,1598.6013660137432,None,001,56,2019_Oct_23_1555,ACPT_experiment_5_30_19,3.1.0,59.97000459874934,
,,,C,U,g,n,R,G,y,L,y,,,,,5,19,119,16,2,0,2,0,,,,,0,33,33,28,,,,,,down,0.8005995440180413,1600.8029482762722,None,001,56,2019_Oct_23_1555,ACPT_experiment_5_30_19,3.1.0,59.97000459874934,
,,,C,U,g,n,R,U,g,R,u,,,,,5,19,119,16,2,0,2,0,,,,,0,34,34,11,,,,,,up,0.9674072271882324,1602.8878591279827,None,001,56,2019_Oct_23_1555,ACPT_experiment_5_30_19,3.1.0,59.97000459874934,
,,,C,U,g,n,L,G,d,R,i,,,,,5,19,119,16,2,0,2,0,,,,,0,35,35,17,,,,,,up,1.7179704127956938,1605.1395719276225,None,001,56,2019_Oct_23_1555,ACPT_experiment_5_30_19,3.1.0,59.97000459874934,
,,,C,U,g,n,L,U,g,R,u,,,,,5,19,119,16,2,0,2,0,,,,,1,0,36,23,,,,,,up,0.6504965058811649,1608.14184670545,None,001,56,2019_Oct_23_1555,ACPT_experiment_5_30_19,3.1.0,59.97000459874934,
,,,C,U,g,n,R,D,d,L,c,,,,,5,19,119,16,2,0,2,0,,,,,1,1,37,0,,,,,,up,1.067474510626198,1610.0766551227316,None,001,56,2019_Oct_23_1555,ACPT_experiment_5_30_19,3.1.0,59.97000459874934,
,,,C,U,g,n,R,U,g,R,u,,,,,5,19,119,16,2,0,2,0,,,,,1,2,38,11,,,,,,up,1.1842681726411683,1612.4284204149226,None,001,56,2019_Oct_23_1555,ACPT_experiment_5_30_19,3.1.0,59.97000459874934,
,,,C,U,g,n,L,U,y,R,u,,,,,5,19,119,16,2,0,2,0,,,,,1,3,39,25,,,,,,down,0.6338148018148786,1614.8969787654205,None,001,56,2019_Oct_23_1555,ACPT_experiment_5_30_19,3.1.0,59.97000459874934,
,,,C,U,g,n,R,D,y,R,y,,,,,5,19,119,16,2,0,2,0,,,,,1,4,40,27,,,,,,down,0.6171659999199619,1616.8151187602452,None,001,56,2019_Oct_23_1555,ACPT_experiment_5_30_19,3.1.0,59.97000459874934,
,,,C,U,g,n,R,D,y,L,y,,,,,5,19,119,16,2,0,2,0,,,,,1,5,41,26,,,,,,down,0.6172822140179051,1618.6997193655843,None,001,56,2019_Oct_23_1555,ACPT_experiment_5_30_19,3.1.0,59.97000459874934,
,,,C,U,g,n,L,G,g,R,c ,,,,,5,19,119,16,2,0,2,0,,,,,1,6,42,19,,,,,,up,0.5501723440029309,1620.618234867794,None,001,56,2019_Oct_23_1555,ACPT_experiment_5_30_19,3.1.0,59.97000459874934,
,,,C,U,g,n,R,U,g,L,u,,,,,5,19,119,16,2,0,2,0,,,,,1,7,43,10,,,,,,up,1.5345118147488392,1622.4527176139236,None,001,56,2019_Oct_23_1555,ACPT_experiment_5_30_19,3.1.0,59.97000459874934,
,,,C,U,g,n,R,G,y,L,y,,,,,5,19,119,16,2,0,2,0,,,,,1,8,44,28,,,,,,down,0.7004990565546905,1625.2882272701063,None,001,56,2019_Oct_23_1555,ACPT_experiment_5_30_19,3.1.0,59.97000459874934,
,,,C,U,g,n,L,G,d,L,i,,,,,5,19,119,16,2,0,2,0,,,,,1,9,45,16,,,,,,up,0.9173636242630892,1627.2897208476934,None,001,56,2019_Oct_23_1555,ACPT_experiment_5_30_19,3.1.0,59.97000459874934,
,,,C,U,g,n,R,D,g,R,i,,,,,5,19,119,16,2,0,2,0,,,,,1,10,46,3,,,,,,up,0.8172845684894128,1629.4913945722292,None,001,56,2019_Oct_23_1555,ACPT_experiment_5_30_19,3.1.0,59.97000459874934,
,,,C,U,g,n,R,U,y,R,u,,,,,5,19,119,16,2,0,2,0,,,,,1,11,47,31,,,,,,down,0.6171569442740292,1631.5929883354256,None,001,56,2019_Oct_23_1555,ACPT_experiment_5_30_19,3.1.0,59.97000459874934,
,,,C,U,g,n,L,G,d,R,i,,,,,5,19,119,16,2,0,2,0,,,,,1,12,48,17,,,,,,up,1.0674751143378671,1633.494433344571,None,001,56,2019_Oct_23_1555,ACPT_experiment_5_30_19,3.1.0,59.97000459874934,
,,,C,U,g,n,R,G,d,L,i,,,,,5,19,119,16,2,0,2,0,,,,,1,13,49,4,,,,,,up,0.7672838289436186,1635.846220974021,None,001,56,2019_Oct_23_1555,ACPT_experiment_5_30_19,3.1.0,59.97000459874934,
,,,C,U,g,n,L,D,d,R,c ,,,,,5,19,119,16,2,0,2,0,,,,,1,14,50,13,,,,,,up,0.7672623972503061,1637.881086411675,None,001,56,2019_Oct_23_1555,ACPT_experiment_5_30_19,3.1.0,59.97000459874934,
,,,C,U,g,n,R,U,d,L,u,,,,,5,19,119,16,2,0,2,0,,,,,1,15,51,8,,,,,,up,0.6171349088726856,1639.91597509215,None,001,56,2019_Oct_23_1555,ACPT_experiment_5_30_19,3.1.0,59.97000459874934,
,,,C,U,g,n,L,U,y,L,u,,,,,5,19,119,16,2,0,2,0,,,,,1,16,52,24,,,,,,down,0.7672391544329002,1641.8341063331864,None,001,56,2019_Oct_23_1555,ACPT_experiment_5_30_19,3.1.0,59.97000459874934,
,,,C,U,g,n,L,D,y,L,y,,,,,5,19,119,16,2,0,2,0,,,,,1,17,53,32,,,,,,down,0.7172190961791785,1643.9023403105057,None,001,56,2019_Oct_23_1555,ACPT_experiment_5_30_19,3.1.0,59.97000459874934,
,,,C,U,g,n,R,G,g,L,c ,,,,,5,19,119,16,2,0,2,0,,,,,1,18,54,6,,,,,,up,0.6171288717778225,1645.9038580364759,None,001,56,2019_Oct_23_1555,ACPT_experiment_5_30_19,3.1.0,59.97000459874934,
,,,C,U,g,n,L,G,y,R,y,,,,,5,19,119,16,2,0,2,0,,,,,1,19,55,35,,,,,,down,0.6672002453451569,1647.8053009326395,None,001,56,2019_Oct_23_1555,ACPT_experiment_5_30_19,3.1.0,59.97000459874934,
,,,C,U,g,n,L,D,y,R,y,,,,,5,19,119,16,2,0,2,0,,,,,1,20,56,33,,,,,,down,1.1504196838322969,1649.7738838843034,None,001,56,2019_Oct_23_1555,ACPT_experiment_5_30_19,3.1.0,59.97000459874934,
,,,C,U,g,n,R,G,g,R,c ,,,,,5,19,119,16,2,0,2,0,,,,,1,21,57,7,,,,,,up,0.650491676206002,1652.2086450613097,None,001,56,2019_Oct_23_1555,ACPT_experiment_5_30_19,3.1.0,59.97000459874934,
,,,C,U,g,n,R,U,y,L,u,,,,,5,19,119,16,2,0,2,0,,,,,1,22,58,30,,,,,,down,0.7339279671832628,1654.160108921289,None,001,56,2019_Oct_23_1555,ACPT_experiment_5_30_19,3.1.0,59.97000459874934,
,,,C,U,g,n,L,D,g,L,i,,,,,5,19,119,16,2,0,2,0,,,,,1,23,59,14,,,,,,up,0.6504802057206689,1656.2116962096989,None,001,56,2019_Oct_23_1555,ACPT_experiment_5_30_19,3.1.0,59.97000459874934,
,,,C,U,g,n,R,D,g,L,i,,,,,5,19,119,16,2,0,2,0,,,,,1,24,60,2,,,,,,up,0.950717373041698,1658.1298069246113,None,001,56,2019_Oct_23_1555,ACPT_experiment_5_30_19,3.1.0,59.97000459874934,
,,,C,U,g,n,L,U,d,R,u,,,,,5,19,119,16,2,0,2,0,,,,,1,25,61,21,,,,,,up,0.667171569140919,1660.3648356053454,None,001,56,2019_Oct_23_1555,ACPT_experiment_5_30_19,3.1.0,59.97000459874934,
,,,C,U,g,n,L,D,g,R,i,,,,,5,19,119,16,2,0,2,0,,,,,1,26,62,15,,,,,,up,0.6671344409987796,1662.3163329712079,None,001,56,2019_Oct_23_1555,ACPT_experiment_5_30_19,3.1.0,59.97000459874934,
,,,C,U,g,n,R,U,d,R,u,,,,,5,19,119,16,2,0,2,0,,,,,1,27,63,9,,,,,,up,0.6002406990228337,1664.2847396396646,None,001,56,2019_Oct_23_1555,ACPT_experiment_5_30_19,3.1.0,59.97000459874934,
,,,C,U,g,n,R,D,d,R,c ,,,,,5,19,119,16,2,0,2,0,,,,,1,28,64,1,,,,,,up,0.5837325614702422,1666.1692714221062,None,001,56,2019_Oct_23_1555,ACPT_experiment_5_30_19,3.1.0,59.97000459874934,
,,,C,U,g,n,R,G,y,R,y,,,,,5,19,119,16,2,0,2,0,,,,,1,29,65,29,,,,,,down,0.8172936241317075,1668.0373131782871,None,001,56,2019_Oct_23_1555,ACPT_experiment_5_30_19,3.1.0,59.97000459874934,
,,,C,U,g,n,L,U,d,L,u,,,,,5,19,119,16,2,0,2,0,,,,,1,30,66,20,,,,,,up,0.7005156585655641,1670.1389371269652,None,001,56,2019_Oct_23_1555,ACPT_experiment_5_30_19,3.1.0,59.97000459874934,
,,,C,U,g,n,L,U,g,L,u,,,,,5,19,119,16,2,0,2,0,,,,,1,31,67,22,,,,,,up,0.7172574317410181,1672.1070645797226,None,001,56,2019_Oct_23_1555,ACPT_experiment_5_30_19,3.1.0,59.97000459874934,
,,,C,U,g,n,L,G,y,L,y,,,,,5,19,119,16,2,0,2,0,,,,,1,32,68,34,,,,,,down,0.650512806038023,1674.1085826075505,None,001,56,2019_Oct_23_1555,ACPT_experiment_5_30_19,3.1.0,59.97000459874934,
,,,C,U,g,n,L,G,g,L,c ,,,,,5,19,119,16,2,0,2,0,,,,,1,33,69,18,,,,,,up,0.6338102739900933,1676.0434097398283,None,001,56,2019_Oct_23_1555,ACPT_experiment_5_30_19,3.1.0,59.97000459874934,
,,,C,U,g,n,L,D,d,L,c ,,,,,5,19,119,16,2,0,2,0,,,,,1,34,70,12,,,,,,up,0.5837564080029551,1677.9615639218318,None,001,56,2019_Oct_23_1555,ACPT_experiment_5_30_19,3.1.0,59.97000459874934,
,,,C,U,g,n,R,G,d,R,i,,,,,5,19,119,16,2,0,2,0,,,,,1,35,71,5,,,,,,down,0.8339614428768982,1679.8296180540565,None,001,56,2019_Oct_23_1555,ACPT_experiment_5_30_19,3.1.0,59.97000459874934,
,,,C,U,g,n,,,,,,,,,,5,19,119,16,3,0,3,0,0,0,0,0,,,,,,,,,,,,,,001,56,2019_Oct_23_1555,ACPT_experiment_5_30_19,3.1.0,59.97000459874934,
,,,C,U,g,n,L,U,d,R,u,,,,,5,19,119,16,3,0,3,0,,,,,0,0,0,21,,,,,,up,0.9006629033392528,1693.9903856225355,None,001,56,2019_Oct_23_1555,ACPT_experiment_5_30_19,3.1.0,59.97000459874934,
,,,C,U,g,n,L,D,d,R,c ,,,,,5,19,119,16,3,0,3,0,,,,,0,1,1,13,,,,,,up,0.633851929957018,1696.1753601354249,None,001,56,2019_Oct_23_1555,ACPT_experiment_5_30_19,3.1.0,59.97000459874934,
,,,C,U,g,n,L,G,g,L,c ,,,,,5,19,119,16,3,0,3,0,,,,,0,2,2,18,,,,,,up,0.6338021239098452,1698.0934937913007,None,001,56,2019_Oct_23_1555,ACPT_experiment_5_30_19,3.1.0,59.97000459874934,
,,,C,U,g,n,L,D,g,L,i,,,,,5,19,119,16,3,0,3,0,,,,,0,3,3,14,,,,,,up,0.833943935296702,1700.01162080637,None,001,56,2019_Oct_23_1555,ACPT_experiment_5_30_19,3.1.0,59.97000459874934,
,,,C,U,g,n,R,G,g,L,c ,,,,,5,19,119,16,3,0,3,0,,,,,0,4,4,6,,,,,,up,0.6171309847632074,1702.1298835957314,None,001,56,2019_Oct_23_1555,ACPT_experiment_5_30_19,3.1.0,59.97000459874934,
,,,C,U,g,n,R,D,y,R,y,,,,,5,19,119,16,3,0,3,0,,,,,0,5,5,27,,,,,,down,0.5837956491268415,1704.0313276993147,None,001,56,2019_Oct_23_1555,ACPT_experiment_5_30_19,3.1.0,59.97000459874934,
,,,C,U,g,n,L,U,d,L,u,,,,,5,19,119,16,3,0,3,0,,,,,0,6,6,20,,,,,,up,0.7672554545933963,1705.8994111114553,None,001,56,2019_Oct_23_1555,ACPT_experiment_5_30_19,3.1.0,59.97000459874934,
,,,C,U,g,n,L,D,y,L,y,,,,,5,19,119,16,3,0,3,0,,,,,0,7,7,32,,,,,,down,0.8671138545032591,1707.967818957146,None,001,56,2019_Oct_23_1555,ACPT_experiment_5_30_19,3.1.0,59.97000459874934,
,,,C,U,g,n,R,D,y,L,y,,,,,5,19,119,16,3,0,3,0,,,,,0,8,8,26,,,,,,down,0.68384059530581,1710.1359671775172,None,001,56,2019_Oct_23_1555,ACPT_experiment_5_30_19,3.1.0,59.97000459874934,
,,,C,U,g,n,R,D,d,L,c,,,,,5,19,119,16,3,0,3,0,,,,,0,9,9,0,,,,,,up,0.5837708970320818,1712.1041230046285,None,001,56,2019_Oct_23_1555,ACPT_experiment_5_30_19,3.1.0,59.97000459874934,
,,,C,U,g,n,L,D,g,R,i,,,,,5,19,119,16,3,0,3,0,,,,,0,10,10,15,,,,,,up,0.8339717059425311,1713.9722091334625,None,001,56,2019_Oct_23_1555,ACPT_experiment_5_30_19,3.1.0,59.97000459874934,
,,,C,U,g,n,R,U,y,L,u,,,,,5,19,119,16,3,0,3,0,,,,,0,11,11,30,,,,,,down,0.7338854056506534,1716.0904852044368,None,001,56,2019_Oct_23_1555,ACPT_experiment_5_30_19,3.1.0,59.97000459874934,
,,,C,U,g,n,R,D,d,R,c ,,,,,5,19,119,16,3,0,3,0,,,,,0,12,12,1,,,,,,up,0.7839247826123028,1718.1086970105207,None,001,56,2019_Oct_23_1555,ACPT_experiment_5_30_19,3.1.0,59.97000459874934,
,,,C,U,g,n,L,U,y,R,u,,,,,5,19,119,16,3,0,3,0,,,,,0,13,13,25,,,,,,down,0.8006025625654729,1720.1769047264715,None,001,56,2019_Oct_23_1555,ACPT_experiment_5_30_19,3.1.0,59.97000459874934,
,,,C,U,g,n,L,D,y,R,y,,,,,5,19,119,16,3,0,3,0,,,,,0,14,14,33,,,,,,down,0.6171862241899362,1722.2451574187908,None,001,56,2019_Oct_23_1555,ACPT_experiment_5_30_19,3.1.0,59.97000459874934,
,,,C,U,g,n,L,G,y,R,y,,,,,5,19,119,16,3,0,3,0,,,,,0,15,15,35,,,,,,down,0.8005980347443256,1724.1466054464872,None,001,56,2019_Oct_23_1555,ACPT_experiment_5_30_19,3.1.0,59.97000459874934,
,,,C,U,g,n,R,U,g,L,u,,,,,5,19,119,16,3,0,3,0,,,,,0,16,16,10,,,,,,up,0.6171291736318381,1726.2315229390042,None,001,56,2019_Oct_23_1555,ACPT_experiment_5_30_19,3.1.0,59.97000459874934,
,,,C,U,g,n,R,D,g,R,i,,,,,5,19,119,16,3,0,3,0,,,,,0,17,17,3,,,,,,up,0.8172918130039761,1728.1329528554124,None,001,56,2019_Oct_23_1555,ACPT_experiment_5_30_19,3.1.0,59.97000459874934,
,,,C,U,g,n,L,G,g,R,c ,,,,,5,19,119,16,3,0,3,0,,,,,0,18,18,19,,,,,,up,0.9840364085212059,1730.2345982357801,None,001,56,2019_Oct_23_1555,ACPT_experiment_5_30_19,3.1.0,59.97000459874934,
,,,C,U,g,n,L,U,g,R,u,,,,,5,19,119,16,3,0,3,0,,,,,0,19,19,23,,,,,,up,0.8339614428805362,1732.5029474612638,None,001,56,2019_Oct_23_1555,ACPT_experiment_5_30_19,3.1.0,59.97000459874934,
,,,C,U,g,n,L,U,g,L,u,,,,,5,19,119,16,3,0,3,0,,,,,0,20,20,22,,,,,,up,1.7847093032542034,1734.621219608125,None,001,56,2019_Oct_23_1555,ACPT_experiment_5_30_19,3.1.0,59.97000459874934,
,,,C,U,g,n,R,G,y,L,y,,,,,5,19,119,16,3,0,3,0,,,,,0,21,21,28,,,,,,down,3.0690230257896474,1737.690194337145,None,001,56,2019_Oct_23_1555,ACPT_experiment_5_30_19,3.1.0,59.97000459874934,
,,,C,U,g,n,L,G,y,L,y,,,,,5,19,119,16,3,0,3,0,,,,,0,22,22,34,,,,,,down,0.7172067201354366,1742.0435250483642,None,001,56,2019_Oct_23_1555,ACPT_experiment_5_30_19,3.1.0,59.97000459874934,
,,,C,U,g,n,R,D,g,L,i,,,,,5,19,119,16,3,0,3,0,,,,,0,23,23,2,,,,,,up,0.8172806443726586,1744.0450442836081,None,001,56,2019_Oct_23_1555,ACPT_experiment_5_30_19,3.1.0,59.97000459874934,
,,,C,U,g,n,R,U,g,R,u,,,,,5,19,119,16,3,0,3,0,,,,,0,24,24,11,,,,,,up,1.2009329728389275,1746.129956644596,None,001,56,2019_Oct_23_1555,ACPT_experiment_5_30_19,3.1.0,59.97000459874934,
,,,C,U,g,n,L,G,d,R,i,,,,,5,19,119,16,3,0,3,0,,,,,0,25,25,17,,,,,,down,1.1342073639898445,1748.6151592691604,None,001,56,2019_Oct_23_1555,ACPT_experiment_5_30_19,3.1.0,59.97000459874934,
,,,C,U,g,n,R,U,y,R,u,,,,,5,19,119,16,3,0,3,0,,,,,0,26,26,31,,,,,,down,0.7005558052551351,1751.0336577165726,None,001,56,2019_Oct_23_1555,ACPT_experiment_5_30_19,3.1.0,59.97000459874934,
,,,C,U,g,n,R,G,y,R,y,,,,,5,19,119,16,3,0,3,0,,,,,0,27,27,29,,,,,,down,0.7839217640648712,1753.018520301699,None,001,56,2019_Oct_23_1555,ACPT_experiment_5_30_19,3.1.0,59.97000459874934,
,,,C,U,g,n,R,G,d,L,i,,,,,5,19,119,16,3,0,3,0,,,,,0,28,28,4,,,,,,up,1.1675740925275022,1755.0700608026127,None,001,56,2019_Oct_23_1555,ACPT_experiment_5_30_19,3.1.0,59.97000459874934,
,,,C,U,g,n,R,G,g,R,c ,,,,,5,19,119,16,3,0,3,0,,,,,0,29,29,7,,,,,,up,1.4009697387518827,1757.5052382373979,None,001,56,2019_Oct_23_1555,ACPT_experiment_5_30_19,3.1.0,59.97000459874934,
,,,C,U,g,n,R,U,d,L,u,,,,,5,19,119,16,3,0,3,0,,,,,0,30,30,8,,,,,,up,0.8840005179808941,1760.1906354979437,None,001,56,2019_Oct_23_1555,ACPT_experiment_5_30_19,3.1.0,59.97000459874934,
,,,C,U,g,n,R,U,d,R,u,,,,,5,19,119,16,3,0,3,0,,,,,0,31,31,9,,,,,,up,1.1508932940269005,1762.3422481119742,None,001,56,2019_Oct_23_1555,ACPT_experiment_5_30_19,3.1.0,59.97000459874934,
,,,C,U,g,n,L,U,y,L,u,,,,,5,19,119,16,3,0,3,0,,,,,0,32,32,24,,,,,,down,0.80060588296692,1764.7774524118358,None,001,56,2019_Oct_23_1555,ACPT_experiment_5_30_19,3.1.0,59.97000459874934,
,,,C,U,g,n,R,G,d,R,i,,,,,5,19,119,16,3,0,3,0,,,,,0,33,33,5,,,,,,up,1.3844139081411413,1766.86236477282,None,001,56,2019_Oct_23_1555,ACPT_experiment_5_30_19,3.1.0,59.97000459874934,
,,,C,U,g,n,L,G,d,L,i,,,,,5,19,119,16,3,0,3,0,,,,,0,34,34,16,,,,,,up,1.0007600704047945,1769.5143835324925,None,001,56,2019_Oct_23_1555,ACPT_experiment_5_30_19,3.1.0,59.97000459874934,
,,,C,U,g,n,L,D,d,L,c ,,,,,5,19,119,16,3,0,3,0,,,,,0,35,35,12,,,,,,up,0.9340417060702748,1771.7994509864766,None,001,56,2019_Oct_23_1555,ACPT_experiment_5_30_19,3.1.0,59.97000459874934,
,,,C,U,g,n,R,G,d,L,i,,,,,5,19,119,16,3,0,3,0,,,,,1,0,36,4,,,,,,up,1.2175890192447696,1774.0178021891115,None,001,56,2019_Oct_23_1555,ACPT_experiment_5_30_19,3.1.0,59.97000459874934,
,,,C,U,g,n,L,U,g,R,u,,,,,5,19,119,16,3,0,3,0,,,,,1,1,37,23,,,,,,up,0.7005467496128404,1776.5196868195999,None,001,56,2019_Oct_23_1555,ACPT_experiment_5_30_19,3.1.0,59.97000459874934,
,,,C,U,g,n,R,D,d,R,c ,,,,,5,19,119,16,3,0,3,0,,,,,1,2,38,1,,,,,,up,0.800603166277142,1778.5045418583577,None,001,56,2019_Oct_23_1555,ACPT_experiment_5_30_19,3.1.0,59.97000459874934,
,,,C,U,g,n,R,U,y,R,u,,,,,5,19,119,16,3,0,3,0,,,,,1,3,39,31,,,,,,down,0.6838783271559805,1780.589457841601,None,001,56,2019_Oct_23_1555,ACPT_experiment_5_30_19,3.1.0,59.97000459874934,
,,,C,U,g,n,R,G,y,R,y,,,,,5,19,119,16,3,0,3,0,,,,,1,4,40,29,,,,,,down,1.0839563868103141,1782.5744550539712,None,001,56,2019_Oct_23_1555,ACPT_experiment_5_30_19,3.1.0,59.97000459874934,
,,,C,U,g,n,L,D,y,L,y,,,,,5,19,119,16,3,0,3,0,,,,,1,5,41,32,,,,,,down,0.8673266621408402,1784.959439769551,None,001,56,2019_Oct_23_1555,ACPT_experiment_5_30_19,3.1.0,59.97000459874934,
,,,C,U,g,n,L,G,d,R,i,,,,,5,19,119,16,3,0,3,0,,,,,1,6,42,17,,,,,,up,0.7005382976785768,1787.1110759282565,None,001,56,2019_Oct_23_1555,ACPT_experiment_5_30_19,3.1.0,59.97000459874934,
,,,C,U,g,n,L,U,d,R,u,,,,,5,19,119,16,3,0,3,0,,,,,1,7,43,21,,,,,,up,0.683854178769252,1789.095889311051,None,001,56,2019_Oct_23_1555,ACPT_experiment_5_30_19,3.1.0,59.97000459874934,
,,,C,U,g,n,L,D,d,R,c ,,,,,5,19,119,16,3,0,3,0,,,,,1,8,44,13,,,,,,up,0.7672494174948952,1791.0640783421877,None,001,56,2019_Oct_23_1555,ACPT_experiment_5_30_19,3.1.0,59.97000459874934,
,,,C,U,g,n,L,U,y,L,u,,,,,5,19,119,16,3,0,3,0,,,,,1,9,45,24,,,,,,down,0.8340024951285159,1793.115627898751,None,001,56,2019_Oct_23_1555,ACPT_experiment_5_30_19,3.1.0,59.97000459874934,
,,,C,U,g,n,L,D,g,R,i,,,,,5,19,119,16,3,0,3,0,,,,,1,10,46,15,,,,,,up,2.6686974451913557,1795.2338891788386,None,001,56,2019_Oct_23_1555,ACPT_experiment_5_30_19,3.1.0,59.97000459874934,
,,,C,U,g,n,L,G,g,L,c ,,,,,5,19,119,16,3,0,3,0,,,,,1,11,47,18,,,,,,up,0.9507161656256358,1799.1869139300252,None,001,56,2019_Oct_23_1555,ACPT_experiment_5_30_19,3.1.0,59.97000459874934,
,,,C,U,g,n,L,G,g,R,c ,,,,,5,19,119,16,3,0,3,0,,,,,1,12,48,19,,,,,,up,1.4344237033292302,1801.4219426107593,None,001,56,2019_Oct_23_1555,ACPT_experiment_5_30_19,3.1.0,59.97000459874934,
,,,C,U,g,n,L,D,y,R,y,,,,,5,19,119,16,3,0,3,0,,,,,1,13,49,33,,,,,,down,0.9173639261171047,1804.1406703772664,None,001,56,2019_Oct_23_1555,ACPT_experiment_5_30_19,3.1.0,59.97000459874934,
,,,C,U,g,n,R,G,y,L,y,,,,,5,19,119,16,3,0,3,0,,,,,1,14,50,28,,,,,,down,0.9507116378008504,1806.3590215799013,None,001,56,2019_Oct_23_1555,ACPT_experiment_5_30_19,3.1.0,59.97000459874934,
,,,C,U,g,n,R,D,g,R,i,,,,,5,19,119,16,3,0,3,0,,,,,1,15,51,3,,,,,,up,0.7505831080234202,1808.6107111367237,None,001,56,2019_Oct_23_1555,ACPT_experiment_5_30_19,3.1.0,59.97000459874934,
,,,C,U,g,n,R,D,d,L,c,,,,,5,19,119,16,3,0,3,0,,,,,1,16,52,0,,,,,,up,0.6672506551003607,1810.628907246355,None,001,56,2019_Oct_23_1555,ACPT_experiment_5_30_19,3.1.0,59.97000459874934,
,,,C,U,g,n,L,U,y,R,u,,,,,5,19,119,16,3,0,3,0,,,,,1,17,53,25,,,,,,down,1.4177598086935177,1812.5803946510132,None,001,56,2019_Oct_23_1555,ACPT_experiment_5_30_19,3.1.0,59.97000459874934,
,,,C,U,g,n,L,D,d,L,c ,,,,,5,19,119,16,3,0,3,0,,,,,1,18,54,12,,,,,,up,2.2517438906834286,1815.2824681822385,None,001,56,2019_Oct_23_1555,ACPT_experiment_5_30_19,3.1.0,59.97000459874934,
,,,C,U,g,n,R,D,g,L,i,,,,,5,19,119,16,3,0,3,0,,,,,1,19,55,2,,,,,,up,0.717232981503912,1818.818457274414,None,001,56,2019_Oct_23_1555,ACPT_experiment_5_30_19,3.1.0,59.97000459874934,
,,,C,U,g,n,L,G,y,L,y,,,,,5,19,119,16,3,0,3,0,,,,,1,20,56,34,,,,,,down,1.0841556109844532,1820.8200045821577,None,001,56,2019_Oct_23_1555,ACPT_experiment_5_30_19,3.1.0,59.97000459874934,
,,,C,U,g,n,L,U,d,L,u,,,,,5,19,119,16,3,0,3,0,,,,,1,21,57,20,,,,,,down,0.9674057179145166,1823.1884730101046,None,001,56,2019_Oct_23_1555,ACPT_experiment_5_30_19,3.1.0,59.97000459874934,
,,,C,U,g,n,R,D,y,L,y,,,,,5,19,119,16,3,0,3,0,,,,,1,22,58,26,,,,,,down,0.7672436822540476,1825.4401797726496,None,001,56,2019_Oct_23_1555,ACPT_experiment_5_30_19,3.1.0,59.97000459874934,
,,,C,U,g,n,R,G,g,R,c ,,,,,5,19,119,16,3,0,3,0,,,,,1,23,59,7,,,,,,up,0.9173621149893734,1827.4917404978369,None,001,56,2019_Oct_23_1555,ACPT_experiment_5_30_19,3.1.0,59.97000459874934,
,,,C,U,g,n,R,G,d,R,i,,,,,5,19,119,16,3,0,3,0,,,,,1,24,60,5,,,,,,up,0.9841103629441932,1829.6767153125802,None,001,56,2019_Oct_23_1555,ACPT_experiment_5_30_19,3.1.0,59.97000459874934,
,,,C,U,g,n,L,D,g,L,i,,,,,5,19,119,16,3,0,3,0,,,,,1,25,61,14,,,,,,up,1.050796730673028,1831.9451170608045,None,001,56,2019_Oct_23_1555,ACPT_experiment_5_30_19,3.1.0,59.97000459874934,
,,,C,U,g,n,R,U,g,R,u,,,,,5,19,119,16,3,0,3,0,,,,,1,26,62,11,,,,,,up,2.56861657828631,1834.2802247973123,None,001,56,2019_Oct_23_1555,ACPT_experiment_5_30_19,3.1.0,59.97000459874934,
,,,C,U,g,n,R,U,g,L,u,,,,,5,19,119,16,3,0,3,0,,,,,1,27,63,10,,,,,,up,2.635329811091651,1838.1331481554698,None,001,56,2019_Oct_23_1555,ACPT_experiment_5_30_19,3.1.0,59.97000459874934,
,,,C,U,g,n,L,U,g,L,u,,,,,5,19,119,16,3,0,3,0,,,,,1,28,64,22,,,,,,up,1.1508999348297948,1842.0527953113487,None,001,56,2019_Oct_23_1555,ACPT_experiment_5_30_19,3.1.0,59.97000459874934,
,,,C,U,g,n,L,G,d,L,i,,,,,5,19,119,16,3,0,3,0,,,,,1,29,65,16,,,,,,up,0.5504319391366153,1844.4879549366997,None,001,56,2019_Oct_23_1555,ACPT_experiment_5_30_19,3.1.0,59.97000459874934,
,,,C,U,g,n,R,U,d,L,u,,,,,5,19,119,16,3,0,3,0,,,,,1,30,66,8,,,,,,down,1.117546789759217,1846.3226782611127,None,001,56,2019_Oct_23_1555,ACPT_experiment_5_30_19,3.1.0,59.97000459874934,
,,,C,U,g,n,R,U,y,L,u,,,,,5,19,119,16,3,0,3,0,,,,,1,31,67,30,,,,,,down,0.7839253863203339,1848.7411954235176,None,001,56,2019_Oct_23_1555,ACPT_experiment_5_30_19,3.1.0,59.97000459874934,
,,,C,U,g,n,R,G,g,L,c ,,,,,5,19,119,16,3,0,3,0,,,,,1,32,68,6,,,,,,up,0.8340073248109547,1850.8261207642608,None,001,56,2019_Oct_23_1555,ACPT_experiment_5_30_19,3.1.0,59.97000459874934,
,,,C,U,g,n,R,U,d,R,u,,,,,5,19,119,16,3,0,3,0,,,,,1,33,69,9,,,,,,up,1.1840837393538095,1852.9445685906176,None,001,56,2019_Oct_23_1555,ACPT_experiment_5_30_19,3.1.0,59.97000459874934,
,,,C,U,g,n,R,D,y,R,y,,,,,5,19,119,16,3,0,3,0,,,,,1,34,70,27,,,,,,down,0.7505692227023246,1855.4129358670216,None,001,56,2019_Oct_23_1555,ACPT_experiment_5_30_19,3.1.0,59.97000459874934,
,,,C,U,g,n,L,G,y,R,y,,,,,5,19,119,16,3,0,3,0,,,,,1,35,71,35,,,,,,down,0.8172924167120073,1857.4478094547558,None,001,56,2019_Oct_23_1555,ACPT_experiment_5_30_19,3.1.0,59.97000459874934,
,,,C,U,g,n,,,,,,,,,,5,19,119,16,4,0,4,0,0,0,0,0,,,,,,,,,,,,,,001,56,2019_Oct_23_1555,ACPT_experiment_5_30_19,3.1.0,59.97000459874934,
,,,C,U,g,n,R,G,y,R,y,,,,,5,19,119,16,4,0,4,0,,,,,0,0,0,29,,,,,,down,0.8505619480019959,1892.991547763544,None,001,56,2019_Oct_23_1555,ACPT_experiment_5_30_19,3.1.0,59.97000459874934,
,,,C,U,g,n,R,U,g,R,u,,,,,5,19,119,16,4,0,4,0,,,,,0,1,1,11,,,,,,up,2.5519342705119925,1895.1431105715274,None,001,56,2019_Oct_23_1555,ACPT_experiment_5_30_19,3.1.0,59.97000459874934,
,,,C,U,g,n,L,U,d,L,u,,,,,5,19,119,16,4,0,4,0,,,,,0,2,2,20,,,,,,up,1.7179731294891099,1898.9793492070712,None,001,56,2019_Oct_23_1555,ACPT_experiment_5_30_19,3.1.0,59.97000459874934,
,,,C,U,g,n,R,G,d,L,i,,,,,5,19,119,16,4,0,4,0,,,,,0,3,3,4,,,,,,up,0.9840699144042446,1901.9816499444132,None,001,56,2019_Oct_23_1555,ACPT_experiment_5_30_19,3.1.0,59.97000459874934,
,,,C,U,g,n,R,U,y,R,u,,,,,5,19,119,16,4,0,4,0,,,,,0,4,4,31,,,,,,down,0.8673511123779463,1904.2500202997362,None,001,56,2019_Oct_23_1555,ACPT_experiment_5_30_19,3.1.0,59.97000459874934,
,,,C,U,g,n,L,D,d,L,c ,,,,,5,19,119,16,4,0,4,0,,,,,0,5,5,12,,,,,,up,1.0174378503579646,1906.4016543454563,None,001,56,2019_Oct_23_1555,ACPT_experiment_5_30_19,3.1.0,59.97000459874934,
,,,C,U,g,n,L,U,g,R,u,,,,,5,19,119,16,4,0,4,0,,,,,0,6,6,23,,,,,,up,1.2009317654192273,1908.7034062202001,None,001,56,2019_Oct_23_1555,ACPT_experiment_5_30_19,3.1.0,59.97000459874934,
,,,C,U,g,n,R,D,d,R,c ,,,,,5,19,119,16,4,0,4,0,,,,,0,7,7,1,,,,,,up,0.6340399854998395,1911.1886022039616,None,001,56,2019_Oct_23_1555,ACPT_experiment_5_30_19,3.1.0,59.97000459874934,
,,,C,U,g,n,R,G,g,R,c ,,,,,5,19,119,16,4,0,4,0,,,,,0,8,8,7,,,,,,up,0.6171279662121378,1913.106748537739,None,001,56,2019_Oct_23_1555,ACPT_experiment_5_30_19,3.1.0,59.97000459874934,
,,,C,U,g,n,R,G,d,R,i,,,,,5,19,119,16,4,0,4,0,,,,,0,9,9,5,,,,,,up,0.7672675287831225,1914.9914886000006,None,001,56,2019_Oct_23_1555,ACPT_experiment_5_30_19,3.1.0,59.97000459874934,
,,,C,U,g,n,L,D,y,R,y,,,,,5,19,119,16,4,0,4,0,,,,,0,10,10,33,,,,,,down,0.8840198366888217,1917.0430490233339,None,001,56,2019_Oct_23_1555,ACPT_experiment_5_30_19,3.1.0,59.97000459874934,
,,,C,U,g,n,L,D,d,R,c ,,,,,5,19,119,16,4,0,4,0,,,,,0,11,11,13,,,,,,up,0.8006055811129045,1919.2113840918282,None,001,56,2019_Oct_23_1555,ACPT_experiment_5_30_19,3.1.0,59.97000459874934,
,,,C,U,g,n,L,G,d,L,i,,,,,5,19,119,16,4,0,4,0,,,,,0,12,12,16,,,,,,up,1.2342652899278619,1921.296303093619,None,001,56,2019_Oct_23_1555,ACPT_experiment_5_30_19,3.1.0,59.97000459874934,
,,,C,U,g,n,L,D,g,L,i,,,,,5,19,119,16,4,0,4,0,,,,,0,13,13,14,,,,,,up,1.0007525240362156,1923.8148805968049,None,001,56,2019_Oct_23_1555,ACPT_experiment_5_30_19,3.1.0,59.97000459874934,
,,,C,U,g,n,R,G,g,L,c ,,,,,5,19,119,16,4,0,4,0,,,,,0,14,14,6,,,,,,up,1.4676823678455548,1926.0999441266758,None,001,56,2019_Oct_23_1555,ACPT_experiment_5_30_19,3.1.0,59.97000459874934,
,,,C,U,g,n,L,G,d,R,i,,,,,5,19,119,16,4,0,4,0,,,,,0,15,15,17,,,,,,up,2.4018270064043463,1928.8520337920418,None,001,56,2019_Oct_23_1555,ACPT_experiment_5_30_19,3.1.0,59.97000459874934,
,,,C,U,g,n,R,U,d,R,u,,,,,5,19,119,16,4,0,4,0,,,,,0,16,16,9,,,,,,up,2.3018062086084683,1932.5214683666745,None,001,56,2019_Oct_23_1555,ACPT_experiment_5_30_19,3.1.0,59.97000459874934,
,,,C,U,g,n,R,G,y,L,y,,,,,5,19,119,16,4,0,4,0,,,,,0,17,17,28,,,,,,down,0.8673677143924579,1936.1075460381398,None,001,56,2019_Oct_23_1555,ACPT_experiment_5_30_19,3.1.0,59.97000459874934,
,,,C,U,g,n,L,G,g,L,c ,,,,,5,19,119,16,4,0,4,0,,,,,0,18,18,18,,,,,,up,1.4676419193019683,1938.2592018174073,None,001,56,2019_Oct_23_1555,ACPT_experiment_5_30_19,3.1.0,59.97000459874934,
,,,C,U,g,n,R,D,y,R,y,,,,,5,19,119,16,4,0,4,0,,,,,0,19,19,27,,,,,,down,0.7004507597812335,1941.028013031675,None,001,56,2019_Oct_23_1555,ACPT_experiment_5_30_19,3.1.0,59.97000459874934,
,,,C,U,g,n,L,D,y,L,y,,,,,5,19,119,16,4,0,4,0,,,,,0,20,20,32,,,,,,down,1.4177060785405047,1943.012816151404,None,001,56,2019_Oct_23_1555,ACPT_experiment_5_30_19,3.1.0,59.97000459874934,
,,,C,U,g,n,L,U,y,R,u,,,,,5,19,119,16,4,0,4,0,,,,,0,21,21,25,,,,,,down,0.6504847335418162,1945.7315188639623,None,001,56,2019_Oct_23_1555,ACPT_experiment_5_30_19,3.1.0,59.97000459874934,
,,,C,U,g,n,R,U,y,L,u,,,,,5,19,119,16,4,0,4,0,,,,,0,22,22,30,,,,,,down,1.3844051543528622,1947.6663007180214,None,001,56,2019_Oct_23_1555,ACPT_experiment_5_30_19,3.1.0,59.97000459874934,
,,,C,U,g,n,L,G,g,R,c ,,,,,5,19,119,16,4,0,4,0,,,,,0,23,23,19,,,,,,up,0.900672260842839,1950.335025632001,None,001,56,2019_Oct_23_1555,ACPT_experiment_5_30_19,3.1.0,59.97000459874934,
,,,C,U,g,n,L,G,y,R,y,,,,,5,19,119,16,4,0,4,0,,,,,0,24,24,35,,,,,,down,0.7339098558913975,1952.5199808261823,None,001,56,2019_Oct_23_1555,ACPT_experiment_5_30_19,3.1.0,59.97000459874934,
,,,C,U,g,n,L,G,y,L,y,,,,,5,19,119,16,4,0,4,0,,,,,0,25,25,34,,,,,,down,0.9507164674760133,1954.5382089324266,None,001,56,2019_Oct_23_1555,ACPT_experiment_5_30_19,3.1.0,59.97000459874934,
,,,C,U,g,n,R,D,d,L,c,,,,,5,19,119,16,4,0,4,0,,,,,0,26,26,0,,,,,,up,4.003033640812646,1956.7732412354198,None,001,56,2019_Oct_23_1555,ACPT_experiment_5_30_19,3.1.0,59.97000459874934,
,,,C,U,g,n,L,U,g,L,u,,,,,5,19,119,16,4,0,4,0,,,,,0,27,27,22,,,,,,up,0.8006605186892557,1962.0605590169907,None,001,56,2019_Oct_23_1555,ACPT_experiment_5_30_19,3.1.0,59.97000459874934,
,,,C,U,g,n,R,D,g,L,i,,,,,5,19,119,16,4,0,4,0,,,,,0,28,28,2,,,,,,up,1.651254161446559,1964.1454994504747,None,001,56,2019_Oct_23_1555,ACPT_experiment_5_30_19,3.1.0,59.97000459874934,
,,,C,U,g,n,R,D,y,L,y,,,,,5,19,119,16,4,0,4,0,,,,,0,29,29,26,,,,,,down,0.8840479091886664,1967.0810480157415,None,001,56,2019_Oct_23_1555,ACPT_experiment_5_30_19,3.1.0,59.97000459874934,
,,,C,U,g,n,R,U,d,L,u,,,,,5,19,119,16,4,0,4,0,,,,,0,30,30,8,,,,,,down,0.9340906065517629,1969.2493553135973,None,001,56,2019_Oct_23_1555,ACPT_experiment_5_30_19,3.1.0,59.97000459874934,
,,,C,U,g,n,L,D,g,R,i,,,,,5,19,119,16,4,0,4,0,,,,,0,31,31,15,,,,,,up,1.1341792914899997,1971.467741229535,None,001,56,2019_Oct_23_1555,ACPT_experiment_5_30_19,3.1.0,59.97000459874934,
,,,C,U,g,n,L,U,d,R,u,,,,,5,19,119,16,4,0,4,0,,,,,0,32,32,21,,,,,,down,0.9507152600563131,1973.8862357528305,None,001,56,2019_Oct_23_1555,ACPT_experiment_5_30_19,3.1.0,59.97000459874934,
,,,C,U,g,n,R,U,g,L,u,,,,,5,19,119,16,4,0,4,0,,,,,0,33,33,10,,,,,,up,0.917357587164588,1976.121263226145,None,001,56,2019_Oct_23_1555,ACPT_experiment_5_30_19,3.1.0,59.97000459874934,
,,,C,U,g,n,R,D,g,R,i,,,,,5,19,119,16,4,0,4,0,,,,,0,34,34,3,,,,,,up,0.934064043329272,1978.32291250044,None,001,56,2019_Oct_23_1555,ACPT_experiment_5_30_19,3.1.0,59.97000459874934,
,,,C,U,g,n,L,U,y,L,u,,,,,5,19,119,16,4,0,4,0,,,,,0,35,35,24,,,,,,down,1.0841776463821589,1980.5412612882392,None,001,56,2019_Oct_23_1555,ACPT_experiment_5_30_19,3.1.0,59.97000459874934,
,,,C,U,g,n,R,G,d,L,i,,,,,5,19,119,16,4,0,4,0,,,,,1,0,36,4,,,,,,up,0.9340474413111224,1982.9097423940875,None,001,56,2019_Oct_23_1555,ACPT_experiment_5_30_19,3.1.0,59.97000459874934,
,,,C,U,g,n,R,G,y,R,y,,,,,5,19,119,16,4,0,4,0,,,,,1,1,37,29,,,,,,down,1.6846549995752866,1985.111398309189,None,001,56,2019_Oct_23_1555,ACPT_experiment_5_30_19,3.1.0,59.97000459874934,
,,,C,U,g,n,R,D,y,R,y,,,,,5,19,119,16,4,0,4,0,,,,,1,2,38,27,,,,,,down,0.9840759514991078,1988.0636632918286,None,001,56,2019_Oct_23_1555,ACPT_experiment_5_30_19,3.1.0,59.97000459874934,
,,,C,U,g,n,R,G,d,R,i,,,,,5,19,119,16,4,0,4,0,,,,,1,3,39,5,,,,,,down,0.9173772077265312,1990.3320285156187,None,001,56,2019_Oct_23_1555,ACPT_experiment_5_30_19,3.1.0,59.97000459874934,
,,,C,U,g,n,L,U,g,R,u,,,,,5,19,119,16,4,0,4,0,,,,,1,4,40,23,,,,,,up,0.7672868474910501,1992.533699221607,None,001,56,2019_Oct_23_1555,ACPT_experiment_5_30_19,3.1.0,59.97000459874934,
,,,C,U,g,n,R,U,d,R,u,,,,,5,19,119,16,4,0,4,0,,,,,1,5,41,9,,,,,,up,0.9340435171980062,1994.5852792655023,None,001,56,2019_Oct_23_1555,ACPT_experiment_5_30_19,3.1.0,59.97000459874934,
,,,C,U,g,n,R,D,g,L,i,,,,,5,19,119,16,4,0,4,0,,,,,1,6,42,2,,,,,,up,1.3676132732798578,1996.8036075271739,None,001,56,2019_Oct_23_1555,ACPT_experiment_5_30_19,3.1.0,59.97000459874934,
,,,C,U,g,n,L,D,d,R,c ,,,,,5,19,119,16,4,0,4,0,,,,,1,7,43,13,,,,,,up,0.8173120372775884,1999.4556446999886,None,001,56,2019_Oct_23_1555,ACPT_experiment_5_30_19,3.1.0,59.97000459874934,
,,,C,U,g,n,R,U,g,L,u,,,,,5,19,119,16,4,0,4,0,,,,,1,8,44,10,,,,,,up,1.5845587380790676,2001.5572417835865,None,001,56,2019_Oct_23_1555,ACPT_experiment_5_30_19,3.1.0,59.97000459874934,
,,,C,U,g,n,R,D,g,R,i,,,,,5,19,119,16,4,0,4,0,,,,,1,9,45,3,,,,,,up,1.4511271409428446,2004.4260638344422,None,001,56,2019_Oct_23_1555,ACPT_experiment_5_30_19,3.1.0,59.97000459874934,
,,,C,U,g,n,R,U,d,L,u,,,,,5,19,119,16,4,0,4,0,,,,,1,10,46,8,,,,,,down,0.9507877052128606,2007.1614778328403,None,001,56,2019_Oct_23_1555,ACPT_experiment_5_30_19,3.1.0,59.97000459874934,
,,,C,U,g,n,L,G,y,R,y,,,,,5,19,119,16,4,0,4,0,,,,,1,11,47,35,,,,,,down,0.86736620512238,2009.3965080228481,None,001,56,2019_Oct_23_1555,ACPT_experiment_5_30_19,3.1.0,59.97000459874934,
,,,C,U,g,n,L,U,y,R,u,,,,,5,19,119,16,4,0,4,0,,,,,1,12,48,25,,,,,,down,0.7172212091645633,2011.5481616891302,None,001,56,2019_Oct_23_1555,ACPT_experiment_5_30_19,3.1.0,59.97000459874934,
,,,C,U,g,n,R,D,y,L,y,,,,,5,19,119,16,4,0,4,0,,,,,1,13,49,26,,,,,,down,1.0507985418007593,2013.5496827355055,None,001,56,2019_Oct_23_1555,ACPT_experiment_5_30_19,3.1.0,59.97000459874934,
,,,C,U,g,n,R,G,y,L,y,,,,,5,19,119,16,4,0,4,0,,,,,1,14,50,28,,,,,,down,0.9340824564678769,2015.8847708514513,None,001,56,2019_Oct_23_1555,ACPT_experiment_5_30_19,3.1.0,59.97000459874934,
,,,C,U,g,n,L,G,g,R,c ,,,,,5,19,119,16,4,0,4,0,,,,,1,15,51,19,,,,,,up,0.884064511203178,2018.103137146827,None,001,56,2019_Oct_23_1555,ACPT_experiment_5_30_19,3.1.0,59.97000459874934,
,,,C,U,g,n,L,U,y,L,u,,,,,5,19,119,16,4,0,4,0,,,,,1,16,52,24,,,,,,down,0.9174110154672235,2020.27145017992,None,001,56,2019_Oct_23_1555,ACPT_experiment_5_30_19,3.1.0,59.97000459874934,
,,,C,U,g,n,L,D,y,L,y,,,,,5,19,119,16,4,0,4,0,,,,,1,17,53,32,,,,,,down,1.784753072202875,2022.4731021709085,None,001,56,2019_Oct_23_1555,ACPT_experiment_5_30_19,3.1.0,59.97000459874934,
,,,C,U,g,n,L,D,y,R,y,,,,,5,19,119,16,4,0,4,0,,,,,1,18,54,33,,,,,,down,0.7340837242627458,2025.5252901503882,None,001,56,2019_Oct_23_1555,ACPT_experiment_5_30_19,3.1.0,59.97000459874934,
,,,C,U,g,n,L,G,d,L,i,,,,,5,19,119,16,4,0,4,0,,,,,1,19,55,16,,,,,,up,0.7672451915277634,2027.543641111537,None,001,56,2019_Oct_23_1555,ACPT_experiment_5_30_19,3.1.0,59.97000459874934,
,,,C,U,g,n,R,U,y,R,u,,,,,5,19,119,16,4,0,4,0,,,,,1,20,56,31,,,,,,down,2.7187404444084677,2029.5951970070491,None,001,56,2019_Oct_23_1555,ACPT_experiment_5_30_19,3.1.0,59.97000459874934,
,,,C,U,g,n,L,U,d,R,u,,,,,5,19,119,16,4,0,4,0,,,,,1,21,57,21,,,,,,up,0.6004547140837531,2033.5982553999565,None,001,56,2019_Oct_23_1555,ACPT_experiment_5_30_19,3.1.0,59.97000459874934,
,,,C,U,g,n,L,U,d,L,u,,,,,5,19,119,16,4,0,4,0,,,,,1,22,58,20,,,,,,up,0.8674960026874032,2035.4661670567148,None,001,56,2019_Oct_23_1555,ACPT_experiment_5_30_19,3.1.0,59.97000459874934,
,,,C,U,g,n,L,U,g,L,u,,,,,5,19,119,16,4,0,4,0,,,,,1,23,59,22,,,,,,up,0.5837911213020561,2037.6179571613684,None,001,56,2019_Oct_23_1555,ACPT_experiment_5_30_19,3.1.0,59.97000459874934,
,,,C,U,g,n,L,D,g,L,i,,,,,5,19,119,16,4,0,4,0,,,,,1,24,60,14,,,,,,up,0.5837772359809605,2039.4860360456914,None,001,56,2019_Oct_23_1555,ACPT_experiment_5_30_19,3.1.0,59.97000459874934,
,,,C,U,g,n,L,G,y,L,y,,,,,5,19,119,16,4,0,4,0,,,,,1,25,61,34,,,,,,down,0.9340371782491275,2041.3541267023465,None,001,56,2019_Oct_23_1555,ACPT_experiment_5_30_19,3.1.0,59.97000459874934,
,,,C,U,g,n,L,G,g,L,c ,,,,,5,19,119,16,4,0,4,0,,,,,1,26,62,18,,,,,,up,0.617155736857967,2043.5724733771603,None,001,56,2019_Oct_23_1555,ACPT_experiment_5_30_19,3.1.0,59.97000459874934,
,,,C,U,g,n,R,G,g,R,c ,,,,,5,19,119,16,4,0,4,0,,,,,1,27,63,7,,,,,,up,0.8336964143563819,2045.474187338943,None,001,56,2019_Oct_23_1555,ACPT_experiment_5_30_19,3.1.0,59.97000459874934,
,,,C,U,g,n,L,D,d,L,c ,,,,,5,19,119,16,4,0,4,0,,,,,1,28,64,12,,,,,,up,0.8339369926397922,2047.5922376225208,None,001,56,2019_Oct_23_1555,ACPT_experiment_5_30_19,3.1.0,59.97000459874934,
,,,C,U,g,n,R,D,d,L,c,,,,,5,19,119,16,4,0,4,0,,,,,1,29,65,0,,,,,,up,0.817288492598891,2049.710469320835,None,001,56,2019_Oct_23_1555,ACPT_experiment_5_30_19,3.1.0,59.97000459874934,
,,,C,U,g,n,R,G,g,L,c ,,,,,5,19,119,16,4,0,4,0,,,,,1,30,66,6,,,,,,up,0.6138030355141382,2051.8320715299305,None,001,56,2019_Oct_23_1555,ACPT_experiment_5_30_19,3.1.0,59.97000459874934,
,,,C,U,g,n,L,D,g,R,i,,,,,5,19,119,16,4,0,4,0,,,,,1,31,67,15,,,,,,up,0.717256828032987,2053.730182250878,None,001,56,2019_Oct_23_1555,ACPT_experiment_5_30_19,3.1.0,59.97000459874934,
,,,C,U,g,n,R,U,y,L,u,,,,,5,19,119,16,4,0,4,0,,,,,1,32,68,30,,,,,,down,0.6171291736318381,2055.7317138621693,None,001,56,2019_Oct_23_1555,ACPT_experiment_5_30_19,3.1.0,59.97000459874934,
,,,C,U,g,n,L,G,d,R,i,,,,,5,19,119,16,4,0,4,0,,,,,1,33,69,17,,,,,,up,0.6171358144383703,2057.633151324946,None,001,56,2019_Oct_23_1555,ACPT_experiment_5_30_19,3.1.0,59.97000459874934,
,,,C,U,g,n,R,D,d,R,c ,,,,,5,19,119,16,4,0,4,0,,,,,1,34,70,1,,,,,,up,0.9507457473955583,2059.5345721857084,None,001,56,2019_Oct_23_1555,ACPT_experiment_5_30_19,3.1.0,59.97000459874934,
,,,C,U,g,n,R,U,g,R,u,,,,,5,19,119,16,4,0,4,0,,,,,1,35,71,11,,,,,,up,0.8506706157313602,2061.769603281282,None,001,56,2019_Oct_23_1555,ACPT_experiment_5_30_19,3.1.0,59.97000459874934,
,,,C,U,g,n,,,,,,,,,,5,19,119,16,5,0,5,0,0,0,0,0,,,,,,,,,,,,,,001,56,2019_Oct_23_1555,ACPT_experiment_5_30_19,3.1.0,59.97000459874934,
,,,C,U,g,n,R,D,d,R,c ,,,,,5,19,119,16,5,0,5,0,,,,,0,0,0,1,,,,,,down,1.0341189507162198,2081.2677578919174,None,001,56,2019_Oct_23_1555,ACPT_experiment_5_30_19,3.1.0,59.97000459874934,
,,,C,U,g,n,L,G,d,R,i,,,,,5,19,119,16,5,0,5,0,,,,,0,1,1,17,,,,,,down,0.5170800014857377,2083.58616822791,None,001,56,2019_Oct_23_1555,ACPT_experiment_5_30_19,3.1.0,59.97000459874934,
,,,C,U,g,n,R,U,d,L,u,,,,,5,19,119,16,5,0,5,0,,,,,0,2,2,8,,,,,,up,0.5504358632497315,2085.3875631593437,None,001,56,2019_Oct_23_1555,ACPT_experiment_5_30_19,3.1.0,59.97000459874934,
,,,C,U,g,n,R,D,g,R,i,,,,,5,19,119,16,5,0,5,0,,,,,0,3,3,3,,,,,,up,0.934051063570223,2087.222313650691,None,001,56,2019_Oct_23_1555,ACPT_experiment_5_30_19,3.1.0,59.97000459874934,
,,,C,U,g,n,R,U,y,L,u,,,,,5,19,119,16,5,0,5,0,,,,,0,4,4,30,,,,,,down,0.6004507899706368,2089.440641006793,None,001,56,2019_Oct_23_1555,ACPT_experiment_5_30_19,3.1.0,59.97000459874934,
,,,C,U,g,n,R,U,g,L,u,,,,,5,19,119,16,5,0,5,0,,,,,0,5,5,10,,,,,,up,0.9841082499624463,2091.3253783523614,None,001,56,2019_Oct_23_1555,ACPT_experiment_5_30_19,3.1.0,59.97000459874934,
,,,C,U,g,n,L,U,d,R,u,,,,,5,19,119,16,5,0,5,0,,,,,0,6,6,21,,,,,,up,0.6670438845576427,2093.6107473593,None,001,56,2019_Oct_23_1555,ACPT_experiment_5_30_19,3.1.0,59.97000459874934,
,,,C,U,g,n,L,G,y,R,y,,,,,5,19,119,16,5,0,5,0,,,,,0,7,7,35,,,,,,down,0.934061326635856,2095.5619546426933,None,001,56,2019_Oct_23_1555,ACPT_experiment_5_30_19,3.1.0,59.97000459874934,
,,,C,U,g,n,R,G,g,R,c ,,,,,5,19,119,16,5,0,5,0,,,,,0,8,8,7,,,,,,up,1.3510462740377989,2097.7803055434742,None,001,56,2019_Oct_23_1555,ACPT_experiment_5_30_19,3.1.0,59.97000459874934,
,,,C,U,g,n,L,D,g,R,i,,,,,5,19,119,16,5,0,5,0,,,,,0,9,9,15,,,,,,up,0.5170775866463373,2100.4156157340003,None,001,56,2019_Oct_23_1555,ACPT_experiment_5_30_19,3.1.0,59.97000459874934,
,,,C,U,g,n,L,D,g,L,i,,,,,5,19,119,16,5,0,5,0,,,,,0,10,10,14,,,,,,up,1.50115021774036,2102.217008250598,None,001,56,2019_Oct_23_1555,ACPT_experiment_5_30_19,3.1.0,59.97000459874934,
,,,C,U,g,n,L,U,g,R,u,,,,,5,19,119,16,5,0,5,0,,,,,0,11,11,23,,,,,,up,0.5670991541701369,2105.002458305549,None,001,56,2019_Oct_23_1555,ACPT_experiment_5_30_19,3.1.0,59.97000459874934,
,,,C,U,g,n,R,D,y,R,y,,,,,5,19,119,16,5,0,5,0,,,,,0,12,12,27,,,,,,down,1.000791765160102,2106.8705420195474,None,001,56,2019_Oct_23_1555,ACPT_experiment_5_30_19,3.1.0,59.97000459874934,
,,,C,U,g,n,R,D,y,L,y,,,,,5,19,119,16,5,0,5,0,,,,,0,13,13,26,,,,,,down,2.385178506367083,2109.172293894291,None,001,56,2019_Oct_23_1555,ACPT_experiment_5_30_19,3.1.0,59.97000459874934,
,,,C,U,g,n,R,G,y,L,y,,,,,5,19,119,16,5,0,5,0,,,,,0,14,14,28,,,,,,down,0.6838897976376757,2112.858395985815,None,001,56,2019_Oct_23_1555,ACPT_experiment_5_30_19,3.1.0,59.97000459874934,
,,,C,U,g,n,R,D,d,L,c,,,,,5,19,119,16,5,0,5,0,,,,,0,15,15,0,,,,,,up,1.0007588629850943,2114.8265804891307,None,001,56,2019_Oct_23_1555,ACPT_experiment_5_30_19,3.1.0,59.97000459874934,
,,,C,U,g,n,R,U,d,R,u,,,,,5,19,119,16,5,0,5,0,,,,,0,16,16,9,,,,,,up,0.850648278476001,2117.1116488486805,None,001,56,2019_Oct_23_1555,ACPT_experiment_5_30_19,3.1.0,59.97000459874934,
,,,C,U,g,n,L,G,d,L,i,,,,,5,19,119,16,5,0,5,0,,,,,0,17,17,16,,,,,,up,1.1842301389369823,2119.2466051144474,None,001,56,2019_Oct_23_1555,ACPT_experiment_5_30_19,3.1.0,59.97000459874934,
,,,C,U,g,n,R,D,g,L,i,,,,,5,19,119,16,5,0,5,0,,,,,0,18,18,2,,,,,,up,0.9674090383159637,2121.715147164785,None,001,56,2019_Oct_23_1555,ACPT_experiment_5_30_19,3.1.0,59.97000459874934,
,,,C,U,g,n,L,D,y,L,y,,,,,5,19,119,16,5,0,5,0,,,,,0,19,19,32,,,,,,down,0.6834119614832161,2123.9839355890144,None,001,56,2019_Oct_23_1555,ACPT_experiment_5_30_19,3.1.0,59.97000459874934,
,,,C,U,g,n,R,G,d,R,i,,,,,5,19,119,16,5,0,5,0,,,,,0,20,20,5,,,,,,up,0.9340097094609519,2125.951727077372,None,001,56,2019_Oct_23_1555,ACPT_experiment_5_30_19,3.1.0,59.97000459874934,
,,,C,U,g,n,R,U,g,R,u,,,,,5,19,119,16,5,0,5,0,,,,,0,21,21,11,,,,,,up,1.334342534573807,2128.170030888803,None,001,56,2019_Oct_23_1555,ACPT_experiment_5_30_19,3.1.0,59.97000459874934,
,,,C,U,g,n,L,U,g,L,u,,,,,5,19,119,16,5,0,5,0,,,,,0,22,22,22,,,,,,up,0.9841176074623945,2130.77200061216,None,001,56,2019_Oct_23_1555,ACPT_experiment_5_30_19,3.1.0,59.97000459874934,
,,,C,U,g,n,L,G,y,L,y,,,,,5,19,119,16,5,0,5,0,,,,,0,23,23,34,,,,,,down,0.8339961561796372,2133.040408397479,None,001,56,2019_Oct_23_1555,ACPT_experiment_5_30_19,3.1.0,59.97000459874934,
,,,C,U,g,n,R,G,g,L,c ,,,,,5,19,119,16,5,0,5,0,,,,,0,24,24,6,,,,,,up,0.8339828745702107,2135.1586850721615,None,001,56,2019_Oct_23_1555,ACPT_experiment_5_30_19,3.1.0,59.97000459874934,
,,,C,U,g,n,L,D,y,R,y,,,,,5,19,119,16,5,0,5,0,,,,,0,25,25,33,,,,,,down,0.9173569834565569,2137.293666693735,None,001,56,2019_Oct_23_1555,ACPT_experiment_5_30_19,3.1.0,59.97000459874934,
,,,C,U,g,n,L,U,d,L,u,,,,,5,19,119,16,5,0,5,0,,,,,0,26,26,20,,,,,,up,0.7505662041548931,2139.5119819756474,None,001,56,2019_Oct_23_1555,ACPT_experiment_5_30_19,3.1.0,59.97000459874934,
,,,C,U,g,n,R,G,y,R,y,,,,,5,19,119,16,5,0,5,0,,,,,0,27,27,29,,,,,,down,0.5835888785841234,2141.563700269042,None,001,56,2019_Oct_23_1555,ACPT_experiment_5_30_19,3.1.0,59.97000459874934,
,,,C,U,g,n,L,G,g,L,c ,,,,,5,19,119,16,5,0,5,0,,,,,0,28,28,18,,,,,,up,0.43367268857036834,2143.448328041315,None,001,56,2019_Oct_23_1555,ACPT_experiment_5_30_19,3.1.0,59.97000459874934,
,,,C,U,g,n,L,D,d,R,c ,,,,,5,19,119,16,5,0,5,0,,,,,0,29,29,13,,,,,,up,0.8006095052260207,2145.1662863799174,None,001,56,2019_Oct_23_1555,ACPT_experiment_5_30_19,3.1.0,59.97000459874934,
,,,C,U,g,n,R,U,y,R,u,,,,,5,19,119,16,5,0,5,0,,,,,0,30,30,31,,,,,,down,0.566917437579832,2147.2680380131787,None,001,56,2019_Oct_23_1555,ACPT_experiment_5_30_19,3.1.0,59.97000459874934,
,,,C,U,g,n,R,G,d,L,i,,,,,5,19,119,16,5,0,5,0,,,,,0,31,31,4,,,,,,up,0.6004547140801151,2149.135969290499,None,001,56,2019_Oct_23_1555,ACPT_experiment_5_30_19,3.1.0,59.97000459874934,
,,,C,U,g,n,L,D,d,L,c ,,,,,5,19,119,16,5,0,5,0,,,,,0,32,32,12,,,,,,up,0.5003756583100767,2151.020736821549,None,001,56,2019_Oct_23_1555,ACPT_experiment_5_30_19,3.1.0,59.97000459874934,
,,,C,U,g,n,L,G,g,R,c ,,,,,5,19,119,16,5,0,5,0,,,,,0,33,33,19,,,,,,up,0.7338848019426223,2152.805426202387,None,001,56,2019_Oct_23_1555,ACPT_experiment_5_30_19,3.1.0,59.97000459874934,
,,,C,U,g,n,L,U,y,R,u,,,,,5,19,119,16,5,0,5,0,,,,,0,34,34,25,,,,,,down,0.6002618288621306,2154.85713181788,None,001,56,2019_Oct_23_1555,ACPT_experiment_5_30_19,3.1.0,59.97000459874934,
,,,C,U,g,n,L,U,y,L,u,,,,,5,19,119,16,5,0,5,0,,,,,0,35,35,24,,,,,,down,0.8006276165142481,2156.7584228810774,None,001,56,2019_Oct_23_1555,ACPT_experiment_5_30_19,3.1.0,59.97000459874934,
,,,C,U,g,n,R,G,y,R,y,,,,,5,19,119,16,5,0,5,0,,,,,1,0,36,29,,,,,,down,0.5670928152212582,2158.84334399585,None,001,56,2019_Oct_23_1555,ACPT_experiment_5_30_19,3.1.0,59.97000459874934,
,,,C,U,g,n,R,U,y,L,u,,,,,5,19,119,16,5,0,5,0,,,,,1,1,37,30,,,,,,down,0.6671637209183245,2160.711426804286,None,001,56,2019_Oct_23_1555,ACPT_experiment_5_30_19,3.1.0,59.97000459874934,
,,,C,U,g,n,L,U,y,L,u,,,,,5,19,119,16,5,0,5,0,,,,,1,2,38,24,,,,,,down,0.5837684821926814,2162.6795880647805,None,001,56,2019_Oct_23_1555,ACPT_experiment_5_30_19,3.1.0,59.97000459874934,
,,,C,U,g,n,R,U,d,L,u,,,,,5,19,119,16,5,0,5,0,,,,,1,3,39,8,,,,,,up,0.8172951334054233,2164.5476711750707,None,001,56,2019_Oct_23_1555,ACPT_experiment_5_30_19,3.1.0,59.97000459874934,
,,,C,U,g,n,L,G,y,R,y,,,,,5,19,119,16,5,0,5,0,,,,,1,4,40,35,,,,,,down,0.4836963690795528,2166.649285162537,None,001,56,2019_Oct_23_1555,ACPT_experiment_5_30_19,3.1.0,59.97000459874934,
,,,C,U,g,n,R,U,d,R,u,,,,,5,19,119,16,5,0,5,0,,,,,1,5,41,9,,,,,,up,0.747233425227023,2168.4372867961756,None,001,56,2019_Oct_23_1555,ACPT_experiment_5_30_19,3.1.0,59.97000459874934,
,,,C,U,g,n,L,G,d,L,i,,,,,5,19,119,16,5,0,5,0,,,,,1,6,42,16,,,,,,up,0.7338863112163381,2170.468835151354,None,001,56,2019_Oct_23_1555,ACPT_experiment_5_30_19,3.1.0,59.97000459874934,
,,,C,U,g,n,L,U,g,L,u,,,,,5,19,119,16,5,0,5,0,,,,,1,7,43,22,,,,,,up,0.6171560387083446,2172.487007716314,None,001,56,2019_Oct_23_1555,ACPT_experiment_5_30_19,3.1.0,59.97000459874934,
,,,C,U,g,n,L,G,y,L,y,,,,,5,19,119,16,5,0,5,0,,,,,1,8,44,34,,,,,,down,0.517054645679309,2174.3884801942513,None,001,56,2019_Oct_23_1555,ACPT_experiment_5_30_19,3.1.0,59.97000459874934,
,,,C,U,g,n,L,G,d,R,i,,,,,5,19,119,16,5,0,5,0,,,,,1,9,45,17,,,,,,up,1.0674790384473454,2176.1898431290756,None,001,56,2019_Oct_23_1555,ACPT_experiment_5_30_19,3.1.0,59.97000459874934,
,,,C,U,g,n,L,U,d,L,u,,,,,5,19,119,16,5,0,5,0,,,,,1,10,46,20,,,,,,up,1.0007525240325776,2178.5416331733613,None,001,56,2019_Oct_23_1555,ACPT_experiment_5_30_19,3.1.0,59.97000459874934,
,,,C,U,g,n,R,U,y,R,u,,,,,5,19,119,16,5,0,5,0,,,,,1,11,47,31,,,,,,down,0.7639238830852264,2180.846703036146,None,001,56,2019_Oct_23_1555,ACPT_experiment_5_30_19,3.1.0,59.97000459874934,
,,,C,U,g,n,R,D,g,R,i,,,,,5,19,119,16,5,0,5,0,,,,,1,12,48,3,,,,,,up,0.6171312866172229,2182.8949349065188,None,001,56,2019_Oct_23_1555,ACPT_experiment_5_30_19,3.1.0,59.97000459874934,
,,,C,U,g,n,L,G,g,R,c ,,,,,5,19,119,16,5,0,5,0,,,,,1,13,49,19,,,,,,up,0.5170531364055932,2184.779729000791,None,001,56,2019_Oct_23_1555,ACPT_experiment_5_30_19,3.1.0,59.97000459874934,
,,,C,U,g,n,R,U,g,R,u,,,,,5,19,119,16,5,0,5,0,,,,,1,14,50,11,,,,,,up,0.650491676202364,2186.5810671835243,None,001,56,2019_Oct_23_1555,ACPT_experiment_5_30_19,3.1.0,59.97000459874934,
,,,C,U,g,n,L,D,g,L,i,,,,,5,19,119,16,5,0,5,0,,,,,1,15,51,14,,,,,,up,0.7505704301220248,2188.515871072981,None,001,56,2019_Oct_23_1555,ACPT_experiment_5_30_19,3.1.0,59.97000459874934,
,,,C,U,g,n,L,U,y,R,u,,,,,5,19,119,16,5,0,5,0,,,,,1,16,52,25,,,,,,down,0.6671748895423661,2190.550751301522,None,001,56,2019_Oct_23_1555,ACPT_experiment_5_30_19,3.1.0,59.97000459874934,
,,,C,U,g,n,R,G,g,R,c ,,,,,5,19,119,16,5,0,5,0,,,,,1,17,53,7,,,,,,up,0.7672463989474636,2192.5022320653734,None,001,56,2019_Oct_23_1555,ACPT_experiment_5_30_19,3.1.0,59.97000459874934,
,,,C,U,g,n,R,G,d,R,i,,,,,5,19,119,16,5,0,5,0,,,,,1,18,54,5,,,,,,down,0.5003750545984076,2194.5537891683016,None,001,56,2019_Oct_23_1555,ACPT_experiment_5_30_19,3.1.0,59.97000459874934,
,,,C,U,g,n,L,D,y,R,y,,,,,5,19,119,16,5,0,5,0,,,,,1,19,55,33,,,,,,down,0.7172335852119431,2196.3384749268844,None,001,56,2019_Oct_23_1555,ACPT_experiment_5_30_19,3.1.0,59.97000459874934,
,,,C,U,g,n,L,D,d,R,c ,,,,,5,19,119,16,5,0,5,0,,,,,1,20,56,13,,,,,,up,1.0007751631455903,2198.323298270887,None,001,56,2019_Oct_23_1555,ACPT_experiment_5_30_19,3.1.0,59.97000459874934,
,,,C,U,g,n,R,D,y,R,y,,,,,5,19,119,16,5,0,5,0,,,,,1,21,57,27,,,,,,down,0.6004550159377686,2200.6083832324475,None,001,56,2019_Oct_23_1555,ACPT_experiment_5_30_19,3.1.0,59.97000459874934,
,,,C,U,g,n,R,U,g,L,u,,,,,5,19,119,16,5,0,5,0,,,,,1,22,58,10,,,,,,up,0.6171481904857501,2202.493148650512,None,001,56,2019_Oct_23_1555,ACPT_experiment_5_30_19,3.1.0,59.97000459874934,
,,,C,U,g,n,R,G,d,L,i,,,,,5,19,119,16,5,0,5,0,,,,,1,23,59,4,,,,,,up,0.5837871971925779,2204.394594263369,None,001,56,2019_Oct_23_1555,ACPT_experiment_5_30_19,3.1.0,59.97000459874934,
,,,C,U,g,n,R,G,y,L,y,,,,,5,19,119,16,5,0,5,0,,,,,1,24,60,28,,,,,,down,0.7169392767755198,2206.262951457822,None,001,56,2019_Oct_23_1555,ACPT_experiment_5_30_19,3.1.0,59.97000459874934,
,,,C,U,g,n,L,G,g,L,c ,,,,,5,19,119,16,5,0,5,0,,,,,1,25,61,18,,,,,,up,0.6505034485380747,2208.264217738739,None,001,56,2019_Oct_23_1555,ACPT_experiment_5_30_19,3.1.0,59.97000459874934,
,,,C,U,g,n,R,G,g,L,c ,,,,,5,19,119,16,5,0,5,0,,,,,1,26,62,6,,,,,,up,0.900674977536255,2210.1823284536476,None,001,56,2019_Oct_23_1555,ACPT_experiment_5_30_19,3.1.0,59.97000459874934,
,,,C,U,g,n,L,U,g,R,u,,,,,5,19,119,16,5,0,5,0,,,,,1,27,63,23,,,,,,up,0.9340389893804968,2212.3673195685515,None,001,56,2019_Oct_23_1555,ACPT_experiment_5_30_19,3.1.0,59.97000459874934,
