facing_vig,person_vig,text_vig,facing_train,person_train,food_train,correct_key_train,facing_exp,person_exp,food_exp,showL_R,consistent,vig_random.thisRepN,vig_random.thisTrialN,vig_random.thisN,vig_random.thisIndex,trainTrials.thisRepN,trainTrials.thisTrialN,trainTrials.thisN,trainTrials.thisIndex,expBlock.thisRepN,expBlock.thisTrialN,expBlock.thisN,expBlock.thisIndex,breakLoop.thisRepN,breakLoop.thisTrialN,breakLoop.thisN,breakLoop.thisIndex,expTrials.thisRepN,expTrials.thisTrialN,expTrials.thisN,expTrials.thisIndex,train_resp.keys,train_resp.corr,train_resp.rt,train_resp.started,train_resp.stopped,exp_resp.keys,exp_resp.rt,exp_resp.started,exp_resp.stopped,session,participant,date,expName,psychopyVersion,frameRate,
C,D,"is allergic to gluten, meaning she can’t eat wheat products. She enjoys eating dairy products. She thinks eating insects, like crickets, is disgusting.",,,,,,,,,,0,0,0,1,,,,,,,,,,,,,,,,,,,,,,,,,,001,57,2019_Oct_23_1704,ACPT_experiment_5_30_19,3.1.0,59.96957036398898,
C,U,"did not report her food preferences, so her food preferences are unknown.",,,,,,,,,,0,1,1,2,,,,,,,,,,,,,,,,,,,,,,,,,,001,57,2019_Oct_23_1704,ACPT_experiment_5_30_19,3.1.0,59.96957036398898,
C,G,"cannot eat dairy products because she is lactose intolerant. She enjoys eating wheat products. She thinks eating insects, like crickets, is disgusting.",,,,,,,,,,0,2,2,0,,,,,,,,,,,,,,,,,,,,,,,,,,001,57,2019_Oct_23_1704,ACPT_experiment_5_30_19,3.1.0,59.96957036398898,
,,,C,U,g,n,,,,,,,,,,0,0,0,16,,,,,,,,,,,,,v,0,5.837791074816778,1866.6738006025626,None,,,,,001,57,2019_Oct_23_1704,ACPT_experiment_5_30_19,3.1.0,59.96957036398898,
,,,C,D,d,v,,,,,,,,,,0,1,1,9,,,,,,,,,,,,,n,0,3.6194277979921026,1875.7974125609617,None,,,,,001,57,2019_Oct_23_1704,ACPT_experiment_5_30_19,3.1.0,59.96957036398898,
,,,C,G,y,b,,,,,,,,,,0,2,2,5,,,,,,,,,,,,,n,0,2.918923911762249,1882.7026636573755,None,,,,,001,57,2019_Oct_23_1704,ACPT_experiment_5_30_19,3.1.0,59.96957036398898,
,,,C,G,d,b,,,,,,,,,,0,3,3,3,,,,,,,,,,,,,b,1,2.0348986416829575,1888.8906947520409,None,,,,,001,57,2019_Oct_23_1704,ACPT_experiment_5_30_19,3.1.0,59.96957036398898,
,,,C,G,d,b,,,,,,,,,,0,4,4,12,,,,,,,,,,,,,b,1,1.3844078710462782,1894.1947298565465,None,,,,,001,57,2019_Oct_23_1704,ACPT_experiment_5_30_19,3.1.0,59.96957036398898,
,,,C,D,d,v,,,,,,,,,,0,5,5,18,,,,,,,,,,,,,n,0,2.3318018226564163,1898.8849604162679,None,,,,,001,57,2019_Oct_23_1704,ACPT_experiment_5_30_19,3.1.0,59.96957036398898,
,,,C,U,y,n,,,,,,,,,,0,6,6,17,,,,,,,,,,,,,b,0,3.235852140645875,1904.5025444850944,None,,,,,001,57,2019_Oct_23_1704,ACPT_experiment_5_30_19,3.1.0,59.96957036398898,
,,,C,U,g,n,,,,,,,,,,0,7,7,7,,,,,,,,,,,,,v,0,3.4360042151020025,1911.0074914326033,None,,,,,001,57,2019_Oct_23_1704,ACPT_experiment_5_30_19,3.1.0,59.96957036398898,
,,,C,G,g,v,,,,,,,,,,0,8,8,4,,,,,,,,,,,,,b,0,1.10084787996675,1917.7292917791929,None,,,,,001,57,2019_Oct_23_1704,ACPT_experiment_5_30_19,3.1.0,59.96957036398898,
,,,C,U,y,n,,,,,,,,,,0,9,9,8,,,,,,,,,,,,,v,0,2.0179419478881755,1922.132913614285,None,,,,,001,57,2019_Oct_23_1704,ACPT_experiment_5_30_19,3.1.0,59.96957036398898,
,,,C,D,y,b,,,,,,,,,,0,10,10,11,,,,,,,,,,,,,n,0,0.7172142665040155,1927.43667433277,None,,,,,001,57,2019_Oct_23_1704,ACPT_experiment_5_30_19,3.1.0,59.96957036398898,
,,,C,D,y,b,,,,,,,,,,0,11,11,2,,,,,,,,,,,,,b,1,1.500906017205125,1931.4733176952395,None,,,,,001,57,2019_Oct_23_1704,ACPT_experiment_5_30_19,3.1.0,59.96957036398898,
,,,C,D,d,v,,,,,,,,,,0,12,12,0,,,,,,,,,,,,,b,0,3.118935623726429,1936.2433453843805,None,,,,,001,57,2019_Oct_23_1704,ACPT_experiment_5_30_19,3.1.0,59.96957036398898,
,,,C,G,g,v,,,,,,,,,,0,13,13,19,,,,,,,,,,,,,b,0,2.4852391489985166,1942.6482325948236,None,,,,,001,57,2019_Oct_23_1704,ACPT_experiment_5_30_19,3.1.0,59.96957036398898,
,,,C,G,g,v,,,,,,,,,,0,14,14,13,,,,,,,,,,,,,v,1,1.7179864110985363,1948.402612130758,None,,,,,001,57,2019_Oct_23_1704,ACPT_experiment_5_30_19,3.1.0,59.96957036398898,
,,,C,D,g,b,,,,,,,,,,0,15,15,10,,,,,,,,,,,,,b,1,2.3018086234478687,1953.4064284810847,None,,,,,001,57,2019_Oct_23_1704,ACPT_experiment_5_30_19,3.1.0,59.96957036398898,
,,,C,D,g,b,,,,,,,,,,0,16,16,1,,,,,,,,,,,,,b,1,2.9689641942859453,1958.977301725914,None,,,,,001,57,2019_Oct_23_1704,ACPT_experiment_5_30_19,3.1.0,59.96957036398898,
,,,C,G,y,b,,,,,,,,,,0,17,17,14,,,,,,,,,,,,,b,1,2.585334504932689,1965.2320542034613,None,,,,,001,57,2019_Oct_23_1704,ACPT_experiment_5_30_19,3.1.0,59.96957036398898,
,,,C,U,d,n,,,,,,,,,,0,18,18,6,,,,,,,,,,,,,v,0,2.8522082641175075,1971.1031842361735,None,,,,,001,57,2019_Oct_23_1704,ACPT_experiment_5_30_19,3.1.0,59.96957036398898,
,,,C,U,d,n,,,,,,,,,,0,19,19,15,,,,,,,,,,,,,b,0,1.2677965293332818,1977.2243741116035,None,,,,,001,57,2019_Oct_23_1704,ACPT_experiment_5_30_19,3.1.0,59.96957036398898,
,,,C,U,d,n,,,,,,,,,,1,0,20,15,,,,,,,,,,,,,v,0,1.1339420336116746,1981.778255647474,None,,,,,001,57,2019_Oct_23_1704,ACPT_experiment_5_30_19,3.1.0,59.96957036398898,
,,,C,U,y,n,,,,,,,,,,1,1,21,17,,,,,,,,,,,,,n,1,1.5345492447449942,1986.1813175418974,None,,,,,001,57,2019_Oct_23_1704,ACPT_experiment_5_30_19,3.1.0,59.96957036398898,
,,,C,G,d,b,,,,,,,,,,1,2,22,12,,,,,,,,,,,,,b,1,2.134968641814339,1991.001672577484,None,,,,,001,57,2019_Oct_23_1704,ACPT_experiment_5_30_19,3.1.0,59.96957036398898,
,,,C,D,y,b,,,,,,,,,,1,3,23,2,,,,,,,,,,,,,n,0,2.935594447197218,1996.4224479157056,None,,,,,001,57,2019_Oct_23_1704,ACPT_experiment_5_30_19,3.1.0,59.96957036398898,
,,,C,D,y,b,,,,,,,,,,1,4,24,11,,,,,,,,,,,,,n,0,1.434462642602739,2002.6271543754883,None,,,,,001,57,2019_Oct_23_1704,ACPT_experiment_5_30_19,3.1.0,59.96957036398898,
,,,C,U,g,n,,,,,,,,,,1,5,25,7,,,,,,,,,,,,,n,1,2.18500560393295,2007.3474324682866,None,,,,,001,57,2019_Oct_23_1704,ACPT_experiment_5_30_19,3.1.0,59.96957036398898,
,,,C,D,d,v,,,,,,,,,,1,6,26,0,,,,,,,,,,,,,b,0,2.28510548768827,2012.8182399389516,None,,,,,001,57,2019_Oct_23_1704,ACPT_experiment_5_30_19,3.1.0,59.96957036398898,
,,,C,G,g,v,,,,,,,,,,1,7,27,13,,,,,,,,,,,,,v,1,4.3700199616614555,2018.3891666120799,None,,,,,001,57,2019_Oct_23_1704,ACPT_experiment_5_30_19,3.1.0,59.96957036398898,
,,,C,U,y,n,,,,,,,,,,1,8,28,8,,,,,,,,,,,,,n,1,2.0849561299291963,2026.044983007083,None,,,,,001,57,2019_Oct_23_1704,ACPT_experiment_5_30_19,3.1.0,59.96957036398898,
,,,C,U,g,n,,,,,,,,,,1,9,29,16,,,,,,,,,,,,,n,1,3.4859998231113423,2031.399054469999,None,,,,,001,57,2019_Oct_23_1704,ACPT_experiment_5_30_19,3.1.0,59.96957036398898,
,,,C,D,g,b,,,,,,,,,,1,10,30,1,,,,,,,,,,,,,v,0,3.3525688296867884,2038.1708676303278,None,,,,,001,57,2019_Oct_23_1704,ACPT_experiment_5_30_19,3.1.0,59.96957036398898,
,,,C,G,y,b,,,,,,,,,,1,11,31,5,,,,,,,,,,,,,b,1,3.2858374856004957,2044.8092618714181,None,,,,,001,57,2019_Oct_23_1704,ACPT_experiment_5_30_19,3.1.0,59.96957036398898,
,,,C,G,g,v,,,,,,,,,,1,12,32,4,,,,,,,,,,,,,v,1,2.7187718373097596,2051.3642131807283,None,,,,,001,57,2019_Oct_23_1704,ACPT_experiment_5_30_19,3.1.0,59.96957036398898,
,,,C,D,d,v,,,,,,,,,,1,13,33,18,,,,,,,,,,,,,v,1,3.2524861516540113,2057.368801977511,None,,,,,001,57,2019_Oct_23_1704,ACPT_experiment_5_30_19,3.1.0,59.96957036398898,
,,,C,U,d,n,,,,,,,,,,1,14,34,6,,,,,,,,,,,,,n,1,2.218389840050804,2063.9071108238786,None,,,,,001,57,2019_Oct_23_1704,ACPT_experiment_5_30_19,3.1.0,59.96957036398898,
,,,C,G,d,b,,,,,,,,,,1,15,35,3,,,,,,,,,,,,,b,1,5.08722819106697,2069.411291965742,None,,,,,001,57,2019_Oct_23_1704,ACPT_experiment_5_30_19,3.1.0,59.96957036398898,
,,,C,G,y,b,,,,,,,,,,1,16,36,14,,,,,,,,,,,,,b,1,1.9515006862675364,2077.767641526887,None,,,,,001,57,2019_Oct_23_1704,ACPT_experiment_5_30_19,3.1.0,59.96957036398898,
,,,C,D,d,v,,,,,,,,,,1,17,37,9,,,,,,,,,,,,,v,1,2.1850409209437203,2083.004952833675,None,,,,,001,57,2019_Oct_23_1704,ACPT_experiment_5_30_19,3.1.0,59.96957036398898,
,,,C,G,g,v,,,,,,,,,,1,18,38,19,,,,,,,,,,,,,v,1,2.0349095084566216,2088.475784150869,None,,,,,001,57,2019_Oct_23_1704,ACPT_experiment_5_30_19,3.1.0,59.96957036398898,
,,,C,D,g,b,,,,,,,,,,1,19,39,10,,,,,,,,,,,,,v,0,3.8362691228794574,2093.7964925075103,None,,,,,001,57,2019_Oct_23_1704,ACPT_experiment_5_30_19,3.1.0,59.96957036398898,
,,,C,G,g,v,,,,,,,,,,2,0,40,4,,,,,,,,,,,,,n,0,2.785469977370667,2100.9185773824393,None,,,,,001,57,2019_Oct_23_1704,ACPT_experiment_5_30_19,3.1.0,59.96957036398898,
,,,C,D,g,b,,,,,,,,,,2,1,41,10,,,,,,,,,,,,,v,0,2.8355310878760065,2106.9898625081514,None,,,,,001,57,2019_Oct_23_1704,ACPT_experiment_5_30_19,3.1.0,59.96957036398898,
,,,C,D,y,b,,,,,,,,,,2,2,42,2,,,,,,,,,,,,,b,1,1.5845545121119358,2113.0944983640948,None,,,,,001,57,2019_Oct_23_1704,ACPT_experiment_5_30_19,3.1.0,59.96957036398898,
,,,C,U,d,n,,,,,,,,,,2,3,43,15,,,,,,,,,,,,,n,1,1.0007709371784586,2117.964873457935,None,,,,,001,57,2019_Oct_23_1704,ACPT_experiment_5_30_19,3.1.0,59.96957036398898,
,,,C,D,g,b,,,,,,,,,,2,4,44,1,,,,,,,,,,,,,b,1,3.919658022652584,2122.2514664861155,None,,,,,001,57,2019_Oct_23_1704,ACPT_experiment_5_30_19,3.1.0,59.96957036398898,
,,,C,G,g,v,,,,,,,,,,2,5,45,19,,,,,,,,,,,,,v,1,3.7862496683374047,2129.456936638562,None,,,,,001,57,2019_Oct_23_1704,ACPT_experiment_5_30_19,3.1.0,59.96957036398898,
,,,C,D,d,v,,,,,,,,,,2,6,46,9,,,,,,,,,,,,,v,1,2.585291641549702,2136.5289945125805,None,,,,,001,57,2019_Oct_23_1704,ACPT_experiment_5_30_19,3.1.0,59.96957036398898,
,,,C,G,d,b,,,,,,,,,,2,7,47,3,,,,,,,,,,,,,b,1,1.6012365180322377,2142.4001076414243,None,,,,,001,57,2019_Oct_23_1704,ACPT_experiment_5_30_19,3.1.0,59.96957036398898,
,,,C,U,y,n,,,,,,,,,,2,8,48,8,,,,,,,,,,,,,n,1,0.8006469352221757,2147.287135763123,None,,,,,001,57,2019_Oct_23_1704,ACPT_experiment_5_30_19,3.1.0,59.96957036398898,
,,,C,G,g,v,,,,,,,,,,2,9,49,13,,,,,,,,,,,,,v,1,2.818590392384067,2151.3905143937955,None,,,,,001,57,2019_Oct_23_1704,ACPT_experiment_5_30_19,3.1.0,59.96957036398898,
,,,C,U,g,n,,,,,,,,,,2,10,50,16,,,,,,,,,,,,,n,1,0.8673592624581943,2157.4948942768606,None,,,,,001,57,2019_Oct_23_1704,ACPT_experiment_5_30_19,3.1.0,59.96957036398898,
,,,C,D,y,b,,,,,,,,,,2,11,51,11,,,,,,,,,,,,,b,1,2.1513946748564194,2161.6650030442033,None,,,,,001,57,2019_Oct_23_1704,ACPT_experiment_5_30_19,3.1.0,59.96957036398898,
,,,C,D,d,v,,,,,,,,,,2,12,52,18,,,,,,,,,,,,,v,1,2.7021028111412306,2167.0855181835796,None,,,,,001,57,2019_Oct_23_1704,ACPT_experiment_5_30_19,3.1.0,59.96957036398898,
,,,C,U,y,n,,,,,,,,,,2,13,53,17,,,,,,,,,,,,,n,1,0.9840687069809064,2173.0734482172593,None,,,,,001,57,2019_Oct_23_1704,ACPT_experiment_5_30_19,3.1.0,59.96957036398898,
,,,C,G,d,b,,,,,,,,,,2,14,54,12,,,,,,,,,,,,,v,0,3.602519702817517,2177.360269447672,None,,,,,001,57,2019_Oct_23_1704,ACPT_experiment_5_30_19,3.1.0,59.96957036398898,
,,,C,U,g,n,,,,,,,,,,2,15,55,7,,,,,,,,,,,,,n,1,0.7672907716041664,2184.248583470853,None,,,,,001,57,2019_Oct_23_1704,ACPT_experiment_5_30_19,3.1.0,59.96957036398898,
,,,C,G,y,b,,,,,,,,,,2,16,56,5,,,,,,,,,,,,,b,1,3.5858328672184143,2188.3185836006487,None,,,,,001,57,2019_Oct_23_1704,ACPT_experiment_5_30_19,3.1.0,59.96957036398898,
,,,C,G,y,b,,,,,,,,,,2,17,57,14,,,,,,,,,,,,,b,1,4.036570313604898,2195.1734007958694,None,,,,,001,57,2019_Oct_23_1704,ACPT_experiment_5_30_19,3.1.0,59.96957036398898,
,,,C,D,d,v,,,,,,,,,,2,18,58,0,,,,,,,,,,,,,v,1,3.085709861385112,2202.495761203867,None,,,,,001,57,2019_Oct_23_1704,ACPT_experiment_5_30_19,3.1.0,59.96957036398898,
,,,C,U,d,n,,,,,,,,,,2,19,59,6,,,,,,,,,,,,,n,1,0.6505218616839556,2208.8672738375462,None,,,,,001,57,2019_Oct_23_1704,ACPT_experiment_5_30_19,3.1.0,59.96957036398898,
,,,C,D,g,b,,,,,,,,,,3,0,60,1,,,,,,,,,,,,,b,1,1.5509206420720147,2212.820572672903,None,,,,,001,57,2019_Oct_23_1704,ACPT_experiment_5_30_19,3.1.0,59.96957036398898,
,,,C,U,y,n,,,,,,,,,,3,1,61,8,,,,,,,,,,,,,n,1,1.034154267730628,2217.6572849186377,None,,,,,001,57,2019_Oct_23_1704,ACPT_experiment_5_30_19,3.1.0,59.96957036398898,
,,,C,D,y,b,,,,,,,,,,3,2,62,11,,,,,,,,,,,,,b,1,1.8011362418619683,2221.9941775226216,None,,,,,001,57,2019_Oct_23_1704,ACPT_experiment_5_30_19,3.1.0,59.96957036398898,
,,,C,G,g,v,,,,,,,,,,3,3,63,19,,,,,,,,,,,,,v,1,3.719510174167226,2227.081131327668,None,,,,,001,57,2019_Oct_23_1704,ACPT_experiment_5_30_19,3.1.0,59.96957036398898,
,,,C,D,y,b,,,,,,,,,,3,4,64,2,,,,,,,,,,,,,b,1,0.9507394084430416,2234.086456046469,None,,,,,001,57,2019_Oct_23_1704,ACPT_experiment_5_30_19,3.1.0,59.96957036398898,
,,,C,G,d,b,,,,,,,,,,3,5,65,3,,,,,,,,,,,,,b,1,2.118462315389479,2238.323024186717,None,,,,,001,57,2019_Oct_23_1704,ACPT_experiment_5_30_19,3.1.0,59.96957036398898,
,,,C,G,y,b,,,,,,,,,,3,6,66,14,,,,,,,,,,,,,b,1,0.683867762236332,2243.710434607532,None,,,,,001,57,2019_Oct_23_1704,ACPT_experiment_5_30_19,3.1.0,59.96957036398898,
,,,C,G,d,b,,,,,,,,,,3,7,67,12,,,,,,,,,,,,,b,1,4.166523637799401,2247.700125360301,None,,,,,001,57,2019_Oct_23_1704,ACPT_experiment_5_30_19,3.1.0,59.96957036398898,
,,,C,D,d,v,,,,,,,,,,3,8,68,9,,,,,,,,,,,,,v,1,1.6679811437352328,2255.152465957566,None,,,,,001,57,2019_Oct_23_1704,ACPT_experiment_5_30_19,3.1.0,59.96957036398898,
,,,C,U,y,n,,,,,,,,,,3,9,69,17,,,,,,,,,,,,,n,1,1.2676196424181398,2260.106251684727,None,,,,,001,57,2019_Oct_23_1704,ACPT_experiment_5_30_19,3.1.0,59.96957036398898,
,,,C,U,g,n,,,,,,,,,,3,10,70,16,,,,,,,,,,,,,n,1,1.7344214997901872,2264.676611172672,None,,,,,001,57,2019_Oct_23_1704,ACPT_experiment_5_30_19,3.1.0,59.96957036398898,
,,,C,D,g,b,,,,,,,,,,3,11,71,10,,,,,,,,,,,,,b,1,0.9673906251737208,2269.696879817413,None,,,,,001,57,2019_Oct_23_1704,ACPT_experiment_5_30_19,3.1.0,59.96957036398898,
,,,C,D,d,v,,,,,,,,,,3,12,72,18,,,,,,,,,,,,,v,1,1.2006552664170158,2273.9503569584012,None,,,,,001,57,2019_Oct_23_1704,ACPT_experiment_5_30_19,3.1.0,59.96957036398898,
,,,C,G,g,v,,,,,,,,,,3,13,73,13,,,,,,,,,,,,,b,0,4.887040497746057,2278.4368527289625,None,,,,,001,57,2019_Oct_23_1704,ACPT_experiment_5_30_19,3.1.0,59.96957036398898,
,,,C,G,g,v,,,,,,,,,,3,14,74,4,,,,,,,,,,,,,v,1,0.5837935361414566,2286.5930182190496,None,,,,,001,57,2019_Oct_23_1704,ACPT_experiment_5_30_19,3.1.0,59.96957036398898,
,,,C,U,d,n,,,,,,,,,,3,15,75,15,,,,,,,,,,,,,n,1,1.6843582763031009,2290.479579673218,None,,,,,001,57,2019_Oct_23_1704,ACPT_experiment_5_30_19,3.1.0,59.96957036398898,
,,,C,D,d,v,,,,,,,,,,3,16,76,0,,,,,,,,,,,,,b,0,2.1516542699937418,2295.449741929231,None,,,,,001,57,2019_Oct_23_1704,ACPT_experiment_5_30_19,3.1.0,59.96957036398898,
,,,C,U,d,n,,,,,,,,,,3,17,77,6,,,,,,,,,,,,,n,1,0.6505049578154285,2300.887218290227,None,,,,,001,57,2019_Oct_23_1704,ACPT_experiment_5_30_19,3.1.0,59.96957036398898,
,,,C,G,y,b,,,,,,,,,,3,18,78,5,,,,,,,,,,,,,b,1,1.000778181693022,2304.823537188964,None,,,,,001,57,2019_Oct_23_1704,ACPT_experiment_5_30_19,3.1.0,59.96957036398898,
,,,C,U,g,n,,,,,,,,,,3,19,79,7,,,,,,,,,,,,,n,1,1.1175220376644575,2309.1101308208526,None,,,,,001,57,2019_Oct_23_1704,ACPT_experiment_5_30_19,3.1.0,59.96957036398898,
,,,C,G,g,v,,,,,,,,,,4,0,80,13,,,,,,,,,,,,,b,0,3.3325905692690867,2313.533481282433,None,,,,,001,57,2019_Oct_23_1704,ACPT_experiment_5_30_19,3.1.0,59.96957036398898,
,,,C,D,g,b,,,,,,,,,,4,1,81,10,,,,,,,,,,,,,v,0,2.08493590566286,2320.1518462496497,None,,,,,001,57,2019_Oct_23_1704,ACPT_experiment_5_30_19,3.1.0,59.96957036398898,
,,,C,U,g,n,,,,,,,,,,4,2,82,16,,,,,,,,,,,,,n,1,0.8506838973444246,2325.522579192362,None,,,,,001,57,2019_Oct_23_1704,ACPT_experiment_5_30_19,3.1.0,59.96957036398898,
,,,C,D,y,b,,,,,,,,,,4,3,83,11,,,,,,,,,,,,,b,1,1.2171938913015765,2329.6761493348167,None,,,,,001,57,2019_Oct_23_1704,ACPT_experiment_5_30_19,3.1.0,59.96957036398898,
,,,C,D,d,v,,,,,,,,,,4,4,84,0,,,,,,,,,,,,,b,0,1.8847777941118693,2334.162496290959,None,,,,,001,57,2019_Oct_23_1704,ACPT_experiment_5_30_19,3.1.0,59.96957036398898,
,,,C,G,g,v,,,,,,,,,,4,5,85,4,,,,,,,,,,,,,v,1,4.036422404751647,2339.3330955723613,None,,,,,001,57,2019_Oct_23_1704,ACPT_experiment_5_30_19,3.1.0,59.96957036398898,
,,,C,U,d,n,,,,,,,,,,4,6,86,15,,,,,,,,,,,,,n,1,1.5178304125365685,2346.655324371666,None,,,,,001,57,2019_Oct_23_1704,ACPT_experiment_5_30_19,3.1.0,59.96957036398898,
,,,C,U,g,n,,,,,,,,,,4,7,87,7,,,,,,,,,,,,,n,1,0.934061326632218,2351.4589729510917,None,,,,,001,57,2019_Oct_23_1704,ACPT_experiment_5_30_19,3.1.0,59.96957036398898,
,,,C,D,g,b,,,,,,,,,,4,8,88,1,,,,,,,,,,,,,b,1,1.1339891229654313,2355.6957689917217,None,,,,,001,57,2019_Oct_23_1704,ACPT_experiment_5_30_19,3.1.0,59.96957036398898,
,,,C,G,g,v,,,,,,,,,,4,9,89,19,,,,,,,,,,,,,v,1,2.0348947175698413,2360.1155521331893,None,,,,,001,57,2019_Oct_23_1704,ACPT_experiment_5_30_19,3.1.0,59.96957036398898,
,,,C,G,d,b,,,,,,,,,,4,10,90,12,,,,,,,,,,,,,b,1,0.8840147051596432,2365.4195815024577,None,,,,,001,57,2019_Oct_23_1704,ACPT_experiment_5_30_19,3.1.0,59.96957036398898,
,,,C,G,y,b,,,,,,,,,,4,11,91,14,,,,,,,,,,,,,b,1,0.8673541309290158,2369.572723614794,None,,,,,001,57,2019_Oct_23_1704,ACPT_experiment_5_30_19,3.1.0,59.96957036398898,
,,,C,G,d,b,,,,,,,,,,4,12,92,3,,,,,,,,,,,,,b,1,1.584537306385755,2373.7092311124143,None,,,,,001,57,2019_Oct_23_1704,ACPT_experiment_5_30_19,3.1.0,59.96957036398898,
,,,C,D,y,b,,,,,,,,,,4,13,93,2,,,,,,,,,,,,,b,1,0.7172142665040155,2378.5795826615795,None,,,,,001,57,2019_Oct_23_1704,ACPT_experiment_5_30_19,3.1.0,59.96957036398898,
,,,C,U,y,n,,,,,,,,,,4,14,94,17,,,,,,,,,,,,,n,1,0.6002403971688182,2382.616202781228,None,,,,,001,57,2019_Oct_23_1704,ACPT_experiment_5_30_19,3.1.0,59.96957036398898,
,,,C,G,y,b,,,,,,,,,,4,15,95,5,,,,,,,,,,,,,b,1,0.6505073726548289,2386.502265269399,None,,,,,001,57,2019_Oct_23_1704,ACPT_experiment_5_30_19,3.1.0,59.96957036398898,
,,,C,D,d,v,,,,,,,,,,4,16,96,18,,,,,,,,,,,,,v,1,1.06713854622285,2390.455587045719,None,,,,,001,57,2019_Oct_23_1704,ACPT_experiment_5_30_19,3.1.0,59.96957036398898,
,,,C,U,y,n,,,,,,,,,,4,17,97,8,,,,,,,,,,,,,n,1,1.034148834343796,2394.8085522107685,None,,,,,001,57,2019_Oct_23_1704,ACPT_experiment_5_30_19,3.1.0,59.96957036398898,
,,,C,U,d,n,,,,,,,,,,4,18,98,6,,,,,,,,,,,,,n,1,1.0308157535619102,2399.148526148623,None,,,,,001,57,2019_Oct_23_1704,ACPT_experiment_5_30_19,3.1.0,59.96957036398898,
,,,C,D,d,v,,,,,,,,,,4,19,99,9,,,,,,,,,,,,,v,1,1.0508432163114776,2403.4651247520633,None,,,,,001,57,2019_Oct_23_1704,ACPT_experiment_5_30_19,3.1.0,59.96957036398898,
,,,C,U,d,n,,,,,,,,,,5,0,100,6,,,,,,,,,,,,,n,1,0.9171067458228208,2407.8187280381753,None,,,,,001,57,2019_Oct_23_1704,ACPT_experiment_5_30_19,3.1.0,59.96957036398898,
,,,C,G,y,b,,,,,,,,,,5,1,101,14,,,,,,,,,,,,,b,1,1.1842748134440626,2412.0216562712885,None,,,,,001,57,2019_Oct_23_1704,ACPT_experiment_5_30_19,3.1.0,59.96957036398898,
,,,C,U,g,n,,,,,,,,,,5,2,102,16,,,,,,,,,,,,,n,1,0.6169631534867221,2416.508639537362,None,,,,,001,57,2019_Oct_23_1704,ACPT_experiment_5_30_19,3.1.0,59.96957036398898,
,,,C,G,d,b,,,,,,,,,,5,3,103,3,,,,,,,,,,,,,b,1,1.1675870722829131,2420.411355355249,None,,,,,001,57,2019_Oct_23_1704,ACPT_experiment_5_30_19,3.1.0,59.96957036398898,
,,,C,G,g,v,,,,,,,,,,5,4,104,19,,,,,,,,,,,,,v,1,1.0141397847364715,2424.884750023466,None,,,,,001,57,2019_Oct_23_1704,ACPT_experiment_5_30_19,3.1.0,59.96957036398898,
,,,C,G,d,b,,,,,,,,,,5,5,105,12,,,,,,,,,,,,,b,1,1.3510375202495197,2429.16801208385,None,,,,,001,57,2019_Oct_23_1704,ACPT_experiment_5_30_19,3.1.0,59.96957036398898,
,,,C,D,y,b,,,,,,,,,,5,6,106,11,,,,,,,,,,,,,b,1,1.701063223186793,2433.8218075609184,None,,,,,001,57,2019_Oct_23_1704,ACPT_experiment_5_30_19,3.1.0,59.96957036398898,
,,,C,D,d,v,,,,,,,,,,5,7,107,9,,,,,,,,,,,,,v,1,1.3176867900183424,2438.7919827966907,None,,,,,001,57,2019_Oct_23_1704,ACPT_experiment_5_30_19,3.1.0,59.96957036398898,
,,,C,U,g,n,,,,,,,,,,5,8,108,7,,,,,,,,,,,,,n,1,0.9170979920309037,2443.4124456548125,None,,,,,001,57,2019_Oct_23_1704,ACPT_experiment_5_30_19,3.1.0,59.96957036398898,
,,,C,G,g,v,,,,,,,,,,5,9,109,4,,,,,,,,,,,,,v,1,1.9014842502729152,2447.615369963816,None,,,,,001,57,2019_Oct_23_1704,ACPT_experiment_5_30_19,3.1.0,59.96957036398898,
,,,C,D,y,b,,,,,,,,,,5,10,110,2,,,,,,,,,,,,,b,1,1.3009912006309605,2452.8026500437227,None,,,,,001,57,2019_Oct_23_1704,ACPT_experiment_5_30_19,3.1.0,59.96957036398898,
,,,C,D,d,v,,,,,,,,,,5,11,111,18,,,,,,,,,,,,,v,1,1.1175181135513412,2457.3894554871295,None,,,,,001,57,2019_Oct_23_1704,ACPT_experiment_5_30_19,3.1.0,59.96957036398898,
,,,C,D,d,v,,,,,,,,,,5,12,112,0,,,,,,,,,,,,,v,1,1.084189116867492,2461.7927691284603,None,,,,,001,57,2019_Oct_23_1704,ACPT_experiment_5_30_19,3.1.0,59.96957036398898,
,,,C,D,g,b,,,,,,,,,,5,13,113,10,,,,,,,,,,,,,v,0,1.801128997351043,2466.1797044298073,None,,,,,001,57,2019_Oct_23_1704,ACPT_experiment_5_30_19,3.1.0,59.96957036398898,
,,,C,U,y,n,,,,,,,,,,5,14,114,17,,,,,,,,,,,,,n,1,0.9007193501893198,2471.2666310679197,None,,,,,001,57,2019_Oct_23_1704,ACPT_experiment_5_30_19,3.1.0,59.96957036398898,
,,,C,D,g,b,,,,,,,,,,5,15,115,1,,,,,,,,,,,,,b,1,1.0504317882114265,2475.4702185519345,None,,,,,001,57,2019_Oct_23_1704,ACPT_experiment_5_30_19,3.1.0,59.96957036398898,
,,,C,G,y,b,,,,,,,,,,5,16,116,5,,,,,,,,,,,,,b,1,0.8172706831646792,2479.8065050314653,None,,,,,001,57,2019_Oct_23_1704,ACPT_experiment_5_30_19,3.1.0,59.96957036398898,
,,,C,G,g,v,,,,,,,,,,5,17,117,13,,,,,,,,,,,,,v,1,1.9848791871409048,2483.909601427891,None,,,,,001,57,2019_Oct_23_1704,ACPT_experiment_5_30_19,3.1.0,59.96957036398898,
,,,C,U,y,n,,,,,,,,,,5,18,118,8,,,,,,,,,,,,,n,1,0.6672382790529809,2489.1802664834577,None,,,,,001,57,2019_Oct_23_1704,ACPT_experiment_5_30_19,3.1.0,59.96957036398898,
,,,C,U,d,n,,,,,,,,,,5,19,119,15,,,,,,,,,,,,,n,1,0.6502260439701786,2493.150216837399,None,,,,,001,57,2019_Oct_23_1704,ACPT_experiment_5_30_19,3.1.0,59.96957036398898,
,,,C,D,d,v,,,,,,,,,,6,0,120,18,,,,,,,,,,,,,v,1,1.6345887575371307,2497.0862676890683,None,,,,,001,57,2019_Oct_23_1704,ACPT_experiment_5_30_19,3.1.0,59.96957036398898,
,,,C,U,g,n,,,,,,,,,,6,1,121,7,,,,,,,,,,,,,n,1,0.9340761175189982,2502.0066489558376,None,,,,,001,57,2019_Oct_23_1704,ACPT_experiment_5_30_19,3.1.0,59.96957036398898,
,,,C,D,d,v,,,,,,,,,,6,2,122,0,,,,,,,,,,,,,v,1,0.817164732128731,2506.2433263675302,None,,,,,001,57,2019_Oct_23_1704,ACPT_experiment_5_30_19,3.1.0,59.96957036398898,
,,,C,G,d,b,,,,,,,,,,6,3,123,12,,,,,,,,,,,,,b,1,1.6679409970456618,2510.346348205818,None,,,,,001,57,2019_Oct_23_1704,ACPT_experiment_5_30_19,3.1.0,59.96957036398898,
,,,C,U,d,n,,,,,,,,,,6,4,124,6,,,,,,,,,,,,,n,1,1.4844956806082337,2515.300081108384,None,,,,,001,57,2019_Oct_23_1704,ACPT_experiment_5_30_19,3.1.0,59.96957036398898,
,,,C,D,g,b,,,,,,,,,,6,5,125,1,,,,,,,,,,,,,b,1,1.4677967708194046,2520.0703922391913,None,,,,,001,57,2019_Oct_23_1704,ACPT_experiment_5_30_19,3.1.0,59.96957036398898,
,,,C,D,g,b,,,,,,,,,,6,6,126,10,,,,,,,,,,,,,b,1,2.56878531512848,2524.8071742435714,None,,,,,001,57,2019_Oct_23_1704,ACPT_experiment_5_30_19,3.1.0,59.96957036398898,
,,,C,D,y,b,,,,,,,,,,6,7,127,2,,,,,,,,,,,,,b,1,1.2342852123438206,2530.661771990348,None,,,,,001,57,2019_Oct_23_1704,ACPT_experiment_5_30_19,3.1.0,59.96957036398898,
,,,C,U,d,n,,,,,,,,,,6,8,128,15,,,,,,,,,,,,,n,1,0.7169754993519746,2535.215477846723,None,,,,,001,57,2019_Oct_23_1704,ACPT_experiment_5_30_19,3.1.0,59.96957036398898,
,,,C,G,g,v,,,,,,,,,,6,9,129,19,,,,,,,,,,,,,v,1,2.6020364332725876,2539.218270909256,None,,,,,001,57,2019_Oct_23_1704,ACPT_experiment_5_30_19,3.1.0,59.96957036398898,
,,,C,U,g,n,,,,,,,,,,6,10,130,16,,,,,,,,,,,,,n,1,0.7506075582641643,2545.1060524605527,None,,,,,001,57,2019_Oct_23_1704,ACPT_experiment_5_30_19,3.1.0,59.96957036398898,
,,,C,U,y,n,,,,,,,,,,6,11,131,8,,,,,,,,,,,,,n,1,0.5804456644764286,2549.1624911594263,None,,,,,001,57,2019_Oct_23_1704,ACPT_experiment_5_30_19,3.1.0,59.96957036398898,
,,,C,D,d,v,,,,,,,,,,6,12,132,9,,,,,,,,,,,,,v,1,0.7339122707271599,2553.0287468407114,None,,,,,001,57,2019_Oct_23_1704,ACPT_experiment_5_30_19,3.1.0,59.96957036398898,
,,,C,G,y,b,,,,,,,,,,6,13,133,14,,,,,,,,,,,,,b,1,0.6668567345768679,2557.082149785787,None,,,,,001,57,2019_Oct_23_1704,ACPT_experiment_5_30_19,3.1.0,59.96957036398898,
,,,C,G,d,b,,,,,,,,,,6,14,134,3,,,,,,,,,,,,,b,1,0.8840144033056276,2561.034838572574,None,,,,,001,57,2019_Oct_23_1704,ACPT_experiment_5_30_19,3.1.0,59.96957036398898,
,,,C,G,g,v,,,,,,,,,,6,15,135,13,,,,,,,,,,,,,v,1,1.4173142710023967,2565.221780273245,None,,,,,001,57,2019_Oct_23_1704,ACPT_experiment_5_30_19,3.1.0,59.96957036398898,
,,,C,G,y,b,,,,,,,,,,6,16,136,5,,,,,,,,,,,,,b,1,0.7672639065276599,2569.9082470053727,None,,,,,001,57,2019_Oct_23_1704,ACPT_experiment_5_30_19,3.1.0,59.96957036398898,
,,,C,G,g,v,,,,,,,,,,6,17,137,4,,,,,,,,,,,,,v,1,1.5178310162445996,2573.9446543173835,None,,,,,001,57,2019_Oct_23_1704,ACPT_experiment_5_30_19,3.1.0,59.96957036398898,
,,,C,U,y,n,,,,,,,,,,6,18,138,17,0,0,0,0,0,0,0,0,,,,,n,1,0.9507608401363541,2578.748299576404,None,,,,,001,57,2019_Oct_23_1704,ACPT_experiment_5_30_19,3.1.0,59.96957036398898,
,,,C,U,y,n,R,U,y,R,u,,,,,6,18,138,17,0,0,0,0,,,,,0,0,0,31,,,,,,down,3.03564392120461,2615.626310087595,None,001,57,2019_Oct_23_1704,ACPT_experiment_5_30_19,3.1.0,59.96957036398898,
,,,C,U,y,n,R,D,d,L,c,,,,,6,18,138,17,0,0,0,0,,,,,0,1,1,0,,,,,,up,1.9347999653437,2619.9462601849555,None,001,57,2019_Oct_23_1704,ACPT_experiment_5_30_19,3.1.0,59.96957036398898,
,,,C,U,y,n,L,U,d,R,u,,,,,6,18,138,17,0,0,0,0,,,,,0,2,2,21,,,,,,down,2.351788233154366,2623.1653699487215,None,001,57,2019_Oct_23_1704,ACPT_experiment_5_30_19,3.1.0,59.96957036398898,
,,,C,U,y,n,R,G,d,L,i,,,,,6,18,138,17,0,0,0,0,,,,,0,3,3,4,,,,,,down,2.485254543593328,2626.801469187718,None,001,57,2019_Oct_23_1704,ACPT_experiment_5_30_19,3.1.0,59.96957036398898,
,,,C,U,y,n,R,G,g,L,c ,,,,,6,18,138,17,0,0,0,0,,,,,0,4,4,6,,,,,,up,1.284330022692302,2630.5542959825216,None,001,57,2019_Oct_23_1704,ACPT_experiment_5_30_19,3.1.0,59.96957036398898,
,,,C,U,y,n,R,U,g,R,u,,,,,6,18,138,17,0,0,0,0,,,,,0,5,5,11,,,,,,down,1.75132868939545,2633.122933388793,None,001,57,2019_Oct_23_1704,ACPT_experiment_5_30_19,3.1.0,59.96957036398898,
,,,C,U,y,n,L,U,g,L,u,,,,,6,18,138,17,0,0,0,0,,,,,0,6,6,22,,,,,,down,2.802115157006483,2636.1585854600744,None,001,57,2019_Oct_23_1704,ACPT_experiment_5_30_19,3.1.0,59.96957036398898,
,,,C,U,y,n,L,G,d,R,i,,,,,6,18,138,17,0,0,0,0,,,,,0,7,7,17,,,,,,down,2.68538850675759,2640.2449932097734,None,001,57,2019_Oct_23_1704,ACPT_experiment_5_30_19,3.1.0,59.96957036398898,
,,,C,U,y,n,L,D,g,R,i,,,,,6,18,138,17,0,0,0,0,,,,,0,8,8,15,,,,,,down,1.6512523503188277,2644.2146921186613,None,001,57,2019_Oct_23_1704,ACPT_experiment_5_30_19,3.1.0,59.96957036398898,
,,,C,U,y,n,L,G,g,R,c ,,,,,6,18,138,17,0,0,0,0,,,,,0,9,9,19,,,,,,up,2.1349638121391763,2647.1502509469938,None,001,57,2019_Oct_23_1704,ACPT_experiment_5_30_19,3.1.0,59.96957036398898,
,,,C,U,y,n,L,G,d,L,i,,,,,6,18,138,17,0,0,0,0,,,,,0,10,10,16,,,,,,down,1.0174601876133238,2650.552818403241,None,001,57,2019_Oct_23_1704,ACPT_experiment_5_30_19,3.1.0,59.96957036398898,
,,,C,U,y,n,R,G,d,R,i,,,,,6,18,138,17,0,0,0,0,,,,,0,11,11,5,,,,,,down,0.9674063216261857,2652.8545865781452,None,001,57,2019_Oct_23_1704,ACPT_experiment_5_30_19,3.1.0,59.96957036398898,
,,,C,U,y,n,L,G,y,R,y,,,,,6,18,138,17,0,0,0,0,,,,,0,12,12,35,,,,,,down,1.167549038578727,2655.106303905606,None,001,57,2019_Oct_23_1704,ACPT_experiment_5_30_19,3.1.0,59.96957036398898,
,,,C,U,y,n,L,D,d,R,c ,,,,,6,18,138,17,0,0,0,0,,,,,0,13,13,13,,,,,,up,0.8005983366019791,2657.5581630444576,None,001,57,2019_Oct_23_1704,ACPT_experiment_5_30_19,3.1.0,59.96957036398898,
,,,C,U,y,n,R,G,y,R,y,,,,,6,18,138,17,0,0,0,0,,,,,0,14,14,29,,,,,,down,1.3343817756976932,2659.6430666516535,None,001,57,2019_Oct_23_1704,ACPT_experiment_5_30_19,3.1.0,59.96957036398898,
,,,C,U,y,n,L,D,d,L,c ,,,,,6,18,138,17,0,0,0,0,,,,,0,15,15,12,,,,,,up,1.1508866532203683,2662.2617310588357,None,001,57,2019_Oct_23_1704,ACPT_experiment_5_30_19,3.1.0,59.96957036398898,
,,,C,U,y,n,R,G,g,R,c ,,,,,6,18,138,17,0,0,0,0,,,,,0,16,16,7,,,,,,up,1.1842298370793287,2664.69691362515,None,001,57,2019_Oct_23_1704,ACPT_experiment_5_30_19,3.1.0,59.96957036398898,
,,,C,U,y,n,L,G,g,L,c ,,,,,6,18,138,17,0,0,0,0,,,,,0,17,17,18,,,,,,up,0.8339904209387896,2667.165429414119,None,001,57,2019_Oct_23_1704,ACPT_experiment_5_30_19,3.1.0,59.96957036398898,
,,,C,U,y,n,R,D,y,L,y,,,,,6,18,138,17,0,0,0,0,,,,,0,18,18,26,,,,,,down,0.8506947641180886,2669.2837106166226,None,001,57,2019_Oct_23_1704,ACPT_experiment_5_30_19,3.1.0,59.96957036398898,
,,,C,U,y,n,L,D,y,R,y,,,,,6,18,138,17,0,0,0,0,,,,,0,19,19,33,,,,,,down,1.284314326243475,2671.4186840881157,None,001,57,2019_Oct_23_1704,ACPT_experiment_5_30_19,3.1.0,59.96957036398898,
,,,C,U,y,n,R,G,y,L,y,,,,,6,18,138,17,0,0,0,0,,,,,0,20,20,28,,,,,,down,0.9006948999485758,2673.987315457289,None,001,57,2019_Oct_23_1704,ACPT_experiment_5_30_19,3.1.0,59.96957036398898,
,,,C,U,y,n,R,D,g,L,i,,,,,6,18,138,17,0,0,0,0,,,,,0,21,21,2,,,,,,down,1.0507656396257516,2676.172326796466,None,001,57,2019_Oct_23_1704,ACPT_experiment_5_30_19,3.1.0,59.96957036398898,
,,,C,U,y,n,R,D,d,R,c ,,,,,6,18,138,17,0,0,0,0,,,,,0,22,22,1,,,,,,up,0.8673221343196929,2678.5074043474924,None,001,57,2019_Oct_23_1704,ACPT_experiment_5_30_19,3.1.0,59.96957036398898,
,,,C,U,y,n,L,U,g,R,u,,,,,6,18,138,17,0,0,0,0,,,,,0,23,23,23,,,,,,down,1.4344466442962585,2680.6590145466835,None,001,57,2019_Oct_23_1704,ACPT_experiment_5_30_19,3.1.0,59.96957036398898,
,,,C,U,y,n,L,D,g,L,i,,,,,6,18,138,17,0,0,0,0,,,,,0,24,24,14,,,,,,down,1.3009912006309605,2683.377768876413,None,001,57,2019_Oct_23_1704,ACPT_experiment_5_30_19,3.1.0,59.96957036398898,
,,,C,U,y,n,L,U,d,L,u,,,,,6,18,138,17,0,0,0,0,,,,,0,25,25,20,,,,,,down,1.1008756506089412,2685.963039991835,None,001,57,2019_Oct_23_1704,ACPT_experiment_5_30_19,3.1.0,59.96957036398898,
,,,C,U,y,n,R,U,d,L,u,,,,,6,18,138,17,0,0,0,0,,,,,0,26,26,8,,,,,,down,1.5511446183336375,2688.3482417410232,None,001,57,2019_Oct_23_1704,ACPT_experiment_5_30_19,3.1.0,59.96957036398898,
,,,C,U,y,n,L,D,y,L,y,,,,,6,18,138,17,0,0,0,0,,,,,0,27,27,32,,,,,,down,1.0508223883298342,2691.1836701982647,None,001,57,2019_Oct_23_1704,ACPT_experiment_5_30_19,3.1.0,59.96957036398898,
,,,C,U,y,n,R,U,d,R,u,,,,,6,18,138,17,0,0,0,0,,,,,0,28,28,9,,,,,,down,0.6671757951080508,2693.5188023850133,None,001,57,2019_Oct_23_1704,ACPT_experiment_5_30_19,3.1.0,59.96957036398898,
,,,C,U,y,n,L,U,y,R,u,,,,,6,18,138,17,0,0,0,0,,,,,0,29,29,25,,,,,,down,1.768005865640589,2695.4869687770442,None,001,57,2019_Oct_23_1704,ACPT_experiment_5_30_19,3.1.0,59.96957036398898,
,,,C,U,y,n,R,U,g,L,u,,,,,6,18,138,17,0,0,0,0,,,,,0,30,30,10,,,,,,down,1.0841495738859521,2698.555964032188,None,001,57,2019_Oct_23_1704,ACPT_experiment_5_30_19,3.1.0,59.96957036398898,
,,,C,U,y,n,L,G,y,L,y,,,,,6,18,138,17,0,0,0,0,,,,,0,31,31,34,,,,,,down,1.0007805965324224,2700.924428234168,None,001,57,2019_Oct_23_1704,ACPT_experiment_5_30_19,3.1.0,59.96957036398898,
,,,C,U,y,n,R,D,y,R,y,,,,,6,18,138,17,0,0,0,0,,,,,0,32,32,27,,,,,,down,1.7680279010419326,2703.2261755810905,None,001,57,2019_Oct_23_1704,ACPT_experiment_5_30_19,3.1.0,59.96957036398898,
,,,C,U,y,n,R,U,y,L,u,,,,,6,18,138,17,0,0,0,0,,,,,0,33,33,30,,,,,,down,0.9507360880415945,2706.278493961847,None,001,57,2019_Oct_23_1704,ACPT_experiment_5_30_19,3.1.0,59.96957036398898,
,,,C,U,y,n,R,D,g,R,i,,,,,6,18,138,17,0,0,0,0,,,,,0,34,34,3,,,,,,down,1.501133917583502,2708.5302070633406,None,001,57,2019_Oct_23_1704,ACPT_experiment_5_30_19,3.1.0,59.96957036398898,
,,,C,U,y,n,L,U,y,L,u,,,,,6,18,138,17,0,0,0,0,,,,,0,35,35,24,,,,,,down,0.7005262234852125,2711.315654703456,None,001,57,2019_Oct_23_1704,ACPT_experiment_5_30_19,3.1.0,59.96957036398898,
,,,C,U,y,n,R,G,y,R,y,,,,,6,18,138,17,0,0,0,0,,,,,1,0,36,29,,,,,,down,2.0849350000971754,2713.3171739387,None,001,57,2019_Oct_23_1704,ACPT_experiment_5_30_19,3.1.0,59.96957036398898,
,,,C,U,y,n,R,U,g,R,u,,,,,6,18,138,17,0,0,0,0,,,,,1,1,37,11,,,,,,down,1.0674542863525858,2716.7030998375703,None,001,57,2019_Oct_23_1704,ACPT_experiment_5_30_19,3.1.0,59.96957036398898,
,,,C,U,y,n,R,U,d,R,u,,,,,6,18,138,17,0,0,0,0,,,,,1,2,38,9,,,,,,down,0.8672336908603029,2719.038164106987,None,001,57,2019_Oct_23_1704,ACPT_experiment_5_30_19,3.1.0,59.96957036398898,
,,,C,U,y,n,R,D,d,R,c ,,,,,6,18,138,17,0,0,0,0,,,,,1,3,39,1,,,,,,up,1.1341983083439118,2721.1898207918166,None,001,57,2019_Oct_23_1704,ACPT_experiment_5_30_19,3.1.0,59.96957036398898,
,,,C,U,y,n,L,D,g,L,i,,,,,6,18,138,17,0,0,0,0,,,,,1,4,40,14,,,,,,down,1.501150821452029,2723.608328596725,None,001,57,2019_Oct_23_1704,ACPT_experiment_5_30_19,3.1.0,59.96957036398898,
,,,C,U,y,n,L,G,y,L,y,,,,,6,18,138,17,0,0,0,0,,,,,1,5,41,34,,,,,,down,0.700531355018029,2726.393774727567,None,001,57,2019_Oct_23_1704,ACPT_experiment_5_30_19,3.1.0,59.96957036398898,
,,,C,U,y,n,R,U,d,L,u,,,,,6,18,138,17,0,0,0,0,,,,,1,6,42,8,,,,,,down,1.2509343160927529,2728.378628558905,None,001,57,2019_Oct_23_1704,ACPT_experiment_5_30_19,3.1.0,59.96957036398898,
,,,C,U,y,n,L,D,y,L,y,,,,,6,18,138,17,0,0,0,0,,,,,1,7,43,32,,,,,,down,0.9006789016457333,2730.913875390106,None,001,57,2019_Oct_23_1704,ACPT_experiment_5_30_19,3.1.0,59.96957036398898,
,,,C,U,y,n,R,G,d,L,i,,,,,6,18,138,17,0,0,0,0,,,,,1,8,44,4,,,,,,down,1.2175896229564387,2733.098864693882,None,001,57,2019_Oct_23_1704,ACPT_experiment_5_30_19,3.1.0,59.96957036398898,
,,,C,U,y,n,L,G,g,L,c ,,,,,6,18,138,17,0,0,0,0,,,,,1,9,45,18,,,,,,up,0.9507122415088816,2735.6007680393705,None,001,57,2019_Oct_23_1704,ACPT_experiment_5_30_19,3.1.0,59.96957036398898,
,,,C,U,y,n,L,U,y,R,u,,,,,6,18,138,17,0,0,0,0,,,,,1,10,46,25,,,,,,down,0.8673302843963029,2737.8357970219586,None,001,57,2019_Oct_23_1704,ACPT_experiment_5_30_19,3.1.0,59.96957036398898,
,,,C,U,y,n,L,G,g,R,c ,,,,,6,18,138,17,0,0,0,0,,,,,1,11,47,19,,,,,,up,1.3176656601826835,2739.9874307658247,None,001,57,2019_Oct_23_1704,ACPT_experiment_5_30_19,3.1.0,59.96957036398898,
,,,C,U,y,n,L,G,d,L,i,,,,,6,18,138,17,0,0,0,0,,,,,1,12,48,16,,,,,,down,1.7346738504093082,2742.5727070127796,None,001,57,2019_Oct_23_1704,ACPT_experiment_5_30_19,3.1.0,59.96957036398898,
,,,C,U,y,n,L,D,g,R,i,,,,,6,18,138,17,0,0,0,0,,,,,1,13,49,15,,,,,,down,1.184124187897396,2745.591684624509,None,001,57,2019_Oct_23_1704,ACPT_experiment_5_30_19,3.1.0,59.96957036398898,
,,,C,U,y,n,L,D,d,R,c ,,,,,6,18,138,17,0,0,0,0,,,,,1,14,50,13,,,,,,up,0.6671712672869035,2748.0602312026676,None,001,57,2019_Oct_23_1704,ACPT_experiment_5_30_19,3.1.0,59.96957036398898,
,,,C,U,y,n,R,U,y,R,u,,,,,6,18,138,17,0,0,0,0,,,,,1,15,51,31,,,,,,down,0.7839290085794346,2750.028390350184,None,001,57,2019_Oct_23_1704,ACPT_experiment_5_30_19,3.1.0,59.96957036398898,
,,,C,U,y,n,L,U,g,R,u,,,,,6,18,138,17,0,0,0,0,,,,,1,16,52,23,,,,,,down,0.9173823392593476,2752.0966330812917,None,001,57,2019_Oct_23_1704,ACPT_experiment_5_30_19,3.1.0,59.96957036398898,
,,,C,U,y,n,L,U,d,L,u,,,,,6,18,138,17,0,0,0,0,,,,,1,17,53,20,,,,,,down,0.46704545420288923,2754.2815982366847,None,001,57,2019_Oct_23_1704,ACPT_experiment_5_30_19,3.1.0,59.96957036398898,
,,,C,U,y,n,R,G,d,R,i,,,,,6,18,138,17,0,0,0,0,,,,,1,18,54,5,,,,,,down,0.8506461654906161,2756.0329474522077,None,001,57,2019_Oct_23_1704,ACPT_experiment_5_30_19,3.1.0,59.96957036398898,
,,,C,U,y,n,L,U,g,L,u,,,,,6,18,138,17,0,0,0,0,,,,,1,19,55,22,,,,,,down,0.9674422423486249,2758.167883493701,None,001,57,2019_Oct_23_1704,ACPT_experiment_5_30_19,3.1.0,59.96957036398898,
,,,C,U,y,n,L,G,y,R,y,,,,,6,18,138,17,0,0,0,0,,,,,1,20,56,35,,,,,,down,0.967427149607829,2760.419613197213,None,001,57,2019_Oct_23_1704,ACPT_experiment_5_30_19,3.1.0,59.96957036398898,
,,,C,U,y,n,R,U,g,L,u,,,,,6,18,138,17,0,0,0,0,,,,,1,21,57,10,,,,,,down,0.7005630497733364,2762.671336863623,None,001,57,2019_Oct_23_1704,ACPT_experiment_5_30_19,3.1.0,59.96957036398898,
,,,C,U,y,n,R,G,y,L,y,,,,,6,18,138,17,0,0,0,0,,,,,1,22,58,28,,,,,,down,0.7505788820562884,2764.672844326531,None,001,57,2019_Oct_23_1704,ACPT_experiment_5_30_19,3.1.0,59.96957036398898,
,,,C,U,y,n,L,D,y,R,y,,,,,6,18,138,17,0,0,0,0,,,,,1,23,59,33,,,,,,down,0.73386457766901,2766.7244270871197,None,001,57,2019_Oct_23_1704,ACPT_experiment_5_30_19,3.1.0,59.96957036398898,
,,,C,U,y,n,R,D,g,R,i,,,,,6,18,138,17,0,0,0,0,,,,,1,24,60,3,,,,,,down,1.1675493404327426,2768.7426084058716,None,001,57,2019_Oct_23_1704,ACPT_experiment_5_30_19,3.1.0,59.96957036398898,
,,,C,U,y,n,R,U,y,L,u,,,,,6,18,138,17,0,0,0,0,,,,,1,25,61,30,,,,,,down,0.6171364181464014,2771.1944660354457,None,001,57,2019_Oct_23_1704,ACPT_experiment_5_30_19,3.1.0,59.96957036398898,
,,,C,U,y,n,R,D,y,L,y,,,,,6,18,138,17,0,0,0,0,,,,,1,26,62,26,,,,,,down,1.2342915512963373,2773.095885990646,None,001,57,2019_Oct_23_1704,ACPT_experiment_5_30_19,3.1.0,59.96957036398898,
,,,C,U,y,n,R,G,g,R,c ,,,,,6,18,138,17,0,0,0,0,,,,,1,27,63,7,,,,,,up,1.117669342809677,2775.614463191974,None,001,57,2019_Oct_23_1704,ACPT_experiment_5_30_19,3.1.0,59.96957036398898,
,,,C,U,y,n,L,U,y,L,u,,,,,6,18,138,17,0,0,0,0,,,,,1,28,64,24,,,,,,down,0.783753932792024,2778.0331297725097,None,001,57,2019_Oct_23_1704,ACPT_experiment_5_30_19,3.1.0,59.96957036398898,
,,,C,U,y,n,R,G,g,L,c ,,,,,6,18,138,17,0,0,0,0,,,,,1,29,65,6,,,,,,up,1.034109291362256,2780.117912939637,None,001,57,2019_Oct_23_1704,ACPT_experiment_5_30_19,3.1.0,59.96957036398898,
,,,C,U,y,n,L,D,d,L,c ,,,,,6,18,138,17,0,0,0,0,,,,,1,30,66,12,,,,,,up,0.7338854056506534,2782.436339273936,None,001,57,2019_Oct_23_1704,ACPT_experiment_5_30_19,3.1.0,59.96957036398898,
,,,C,U,y,n,R,D,d,L,c,,,,,6,18,138,17,0,0,0,0,,,,,1,31,67,0,,,,,,up,0.6171807908067422,2784.4545103296223,None,001,57,2019_Oct_23_1704,ACPT_experiment_5_30_19,3.1.0,59.96957036398898,
,,,C,U,y,n,R,D,g,L,i,,,,,6,18,138,17,0,0,0,0,,,,,1,32,68,2,,,,,,down,0.7835368991836731,2786.3897129692814,None,001,57,2019_Oct_23_1704,ACPT_experiment_5_30_19,3.1.0,59.96957036398898,
,,,C,U,y,n,L,U,d,R,u,,,,,6,18,138,17,0,0,0,0,,,,,1,33,69,21,,,,,,down,0.9840916479479347,2788.4575759670442,None,001,57,2019_Oct_23_1704,ACPT_experiment_5_30_19,3.1.0,59.96957036398898,
,,,C,U,y,n,R,D,y,R,y,,,,,6,18,138,17,0,0,0,0,,,,,1,34,70,27,,,,,,down,0.7172360000477056,2790.7259417945425,None,001,57,2019_Oct_23_1704,ACPT_experiment_5_30_19,3.1.0,59.96957036398898,
,,,C,U,y,n,L,G,d,R,i,,,,,6,18,138,17,0,0,0,0,,,,,1,35,71,17,,,,,,down,0.783931423418835,2792.7274839707534,None,001,57,2019_Oct_23_1704,ACPT_experiment_5_30_19,3.1.0,59.96957036398898,
,,,C,U,y,n,,,,,,,,,,6,18,138,17,1,0,1,0,0,0,0,0,,,,,,,,,,,,,,001,57,2019_Oct_23_1704,ACPT_experiment_5_30_19,3.1.0,59.96957036398898,
,,,C,U,y,n,R,G,g,L,c ,,,,,6,18,138,17,1,0,1,0,,,,,0,0,0,6,,,,,,up,2.14834020606213,2821.3692354410123,None,001,57,2019_Oct_23_1704,ACPT_experiment_5_30_19,3.1.0,59.96957036398898,
,,,C,U,y,n,R,D,y,L,y,,,,,6,18,138,17,1,0,1,0,,,,,0,1,1,26,,,,,,down,0.7505942766510998,2824.80182356526,None,001,57,2019_Oct_23_1704,ACPT_experiment_5_30_19,3.1.0,59.96957036398898,
,,,C,U,y,n,R,U,y,L,u,,,,,6,18,138,17,1,0,1,0,,,,,0,2,2,30,,,,,,down,2.385120248392923,2826.8200740087595,None,001,57,2019_Oct_23_1704,ACPT_experiment_5_30_19,3.1.0,59.96957036398898,
,,,C,U,y,n,R,G,y,L,y,,,,,6,18,138,17,1,0,1,0,,,,,0,3,3,28,,,,,,down,3.285834467049426,2830.4728190311,None,001,57,2019_Oct_23_1704,ACPT_experiment_5_30_19,3.1.0,59.96957036398898,
,,,C,U,y,n,R,U,y,R,u,,,,,6,18,138,17,1,0,1,0,,,,,0,4,4,31,,,,,,down,7.422309062498243,2835.0429554483417,None,001,57,2019_Oct_23_1704,ACPT_experiment_5_30_19,3.1.0,59.96957036398898,
,,,C,U,y,n,L,D,y,L,y,,,,,6,18,138,17,1,0,1,0,,,,,0,5,5,32,,,,,,down,0.7339041206505499,2843.7495767240944,None,001,57,2019_Oct_23_1704,ACPT_experiment_5_30_19,3.1.0,59.96957036398898,
,,,C,U,y,n,R,D,g,R,i,,,,,6,18,138,17,1,0,1,0,,,,,0,6,6,3,,,,,,down,1.1342164196357771,2845.7677680040542,None,001,57,2019_Oct_23_1704,ACPT_experiment_5_30_19,3.1.0,59.96957036398898,
,,,C,U,y,n,R,G,y,R,y,,,,,6,18,138,17,1,0,1,0,,,,,0,7,7,29,,,,,,down,0.8506223189615412,2848.1862875812985,None,001,57,2019_Oct_23_1704,ACPT_experiment_5_30_19,3.1.0,59.96957036398898,
,,,C,U,y,n,R,G,d,L,i,,,,,6,18,138,17,1,0,1,0,,,,,0,8,8,4,,,,,,down,1.2009009762296046,2850.321232980292,None,001,57,2019_Oct_23_1704,ACPT_experiment_5_30_19,3.1.0,59.96957036398898,
,,,C,U,y,n,L,D,d,L,c ,,,,,6,18,138,17,1,0,1,0,,,,,0,9,9,12,,,,,,up,0.833971102230862,2852.80645311244,None,001,57,2019_Oct_23_1704,ACPT_experiment_5_30_19,3.1.0,59.96957036398898,
,,,C,U,y,n,L,U,d,L,u,,,,,6,18,138,17,1,0,1,0,,,,,0,10,10,20,,,,,,down,3.1690942333370913,2854.9247026201883,None,001,57,2019_Oct_23_1704,ACPT_experiment_5_30_19,3.1.0,59.96957036398898,
,,,C,U,y,n,R,U,g,R,u,,,,,6,18,138,17,1,0,1,0,,,,,0,11,11,11,,,,,,down,1.200910937437584,2859.3781063500865,None,001,57,2019_Oct_23_1704,ACPT_experiment_5_30_19,3.1.0,59.96957036398898,
,,,C,U,y,n,R,U,g,L,u,,,,,6,18,138,17,1,0,1,0,,,,,0,12,12,10,,,,,,down,0.7340432757155213,2861.8464971711655,None,001,57,2019_Oct_23_1704,ACPT_experiment_5_30_19,3.1.0,59.96957036398898,
,,,C,U,y,n,R,U,d,R,u,,,,,6,18,138,17,1,0,1,0,,,,,0,13,13,9,,,,,,down,0.7172347926316434,2863.848145902124,None,001,57,2019_Oct_23_1704,ACPT_experiment_5_30_19,3.1.0,59.96957036398898,
,,,C,U,y,n,R,D,g,L,i,,,,,6,18,138,17,1,0,1,0,,,,,0,14,14,2,,,,,,down,0.8506666916218819,2865.849665741076,None,001,57,2019_Oct_23_1704,ACPT_experiment_5_30_19,3.1.0,59.96957036398898,
,,,C,U,y,n,L,G,y,R,y,,,,,6,18,138,17,1,0,1,0,,,,,0,15,15,35,,,,,,down,0.7672581712868123,2867.9846440422443,None,001,57,2019_Oct_23_1704,ACPT_experiment_5_30_19,3.1.0,59.96957036398898,
,,,C,U,y,n,R,G,g,R,c ,,,,,6,18,138,17,1,0,1,0,,,,,0,16,16,7,,,,,,up,1.0841628554990166,2870.0361999377565,None,001,57,2019_Oct_23_1704,ACPT_experiment_5_30_19,3.1.0,59.96957036398898,
,,,C,U,y,n,L,G,g,L,c ,,,,,6,18,138,17,1,0,1,0,,,,,0,17,17,18,,,,,,up,0.6671694561555341,2872.4046680638494,None,001,57,2019_Oct_23_1704,ACPT_experiment_5_30_19,3.1.0,59.96957036398898,
,,,C,U,y,n,L,U,g,R,u,,,,,6,18,138,17,1,0,1,0,,,,,0,18,18,23,,,,,,down,0.8172984538105084,2874.3394674254887,None,001,57,2019_Oct_23_1704,ACPT_experiment_5_30_19,3.1.0,59.96957036398898,
,,,C,U,y,n,L,D,g,R,i,,,,,6,18,138,17,1,0,1,0,,,,,0,19,19,15,,,,,,down,1.2509469939941482,2876.441071149893,None,001,57,2019_Oct_23_1704,ACPT_experiment_5_30_19,3.1.0,59.96957036398898,
,,,C,U,y,n,R,D,y,R,y,,,,,6,18,138,17,1,0,1,0,,,,,0,20,20,27,,,,,,down,0.5837926305757719,2878.9762998698097,None,001,57,2019_Oct_23_1704,ACPT_experiment_5_30_19,3.1.0,59.96957036398898,
,,,C,U,y,n,L,U,g,L,u,,,,,6,18,138,17,1,0,1,0,,,,,0,21,21,22,,,,,,down,0.6838526694955362,2880.8444071284794,None,001,57,2019_Oct_23_1704,ACPT_experiment_5_30_19,3.1.0,59.96957036398898,
,,,C,U,y,n,L,G,y,L,y,,,,,6,18,138,17,1,0,1,0,,,,,0,22,22,34,,,,,,down,0.8173041890513559,2882.829229265062,None,001,57,2019_Oct_23_1704,ACPT_experiment_5_30_19,3.1.0,59.96957036398898,
,,,C,U,y,n,R,D,d,R,c ,,,,,6,18,138,17,1,0,1,0,,,,,0,23,23,1,,,,,,up,1.0341138191870414,2884.947525862164,None,001,57,2019_Oct_23_1704,ACPT_experiment_5_30_19,3.1.0,59.96957036398898,
,,,C,U,y,n,L,G,g,R,c ,,,,,6,18,138,17,1,0,1,0,,,,,0,24,24,19,,,,,,up,1.46779586525372,2887.2659537057334,None,001,57,2019_Oct_23_1704,ACPT_experiment_5_30_19,3.1.0,59.96957036398898,
,,,C,U,y,n,L,G,d,L,i,,,,,6,18,138,17,1,0,1,0,,,,,0,25,25,16,,,,,,down,0.7171840810224239,2890.0180687269058,None,001,57,2019_Oct_23_1704,ACPT_experiment_5_30_19,3.1.0,59.96957036398898,
,,,C,U,y,n,L,U,d,R,u,,,,,6,18,138,17,1,0,1,0,,,,,0,26,26,21,,,,,,down,0.867344471571414,2892.0195457024747,None,001,57,2019_Oct_23_1704,ACPT_experiment_5_30_19,3.1.0,59.96957036398898,
,,,C,U,y,n,L,D,g,L,i,,,,,6,18,138,17,1,0,1,0,,,,,0,27,27,14,,,,,,down,0.800603166277142,2894.1711999724685,None,001,57,2019_Oct_23_1704,ACPT_experiment_5_30_19,3.1.0,59.96957036398898,
,,,C,U,y,n,R,D,d,L,c,,,,,6,18,138,17,1,0,1,0,,,,,0,28,28,0,,,,,,up,0.6171246458106907,2896.2561235020803,None,001,57,2019_Oct_23_1704,ACPT_experiment_5_30_19,3.1.0,59.96957036398898,
,,,C,U,y,n,R,U,d,L,u,,,,,6,18,138,17,1,0,1,0,,,,,0,29,29,8,,,,,,down,0.7839033509189903,2898.1575763594556,None,001,57,2019_Oct_23_1704,ACPT_experiment_5_30_19,3.1.0,59.96957036398898,
,,,C,U,y,n,L,D,d,R,c ,,,,,6,18,138,17,1,0,1,0,,,,,0,30,30,13,,,,,,up,0.7839290085794346,2900.2257934329064,None,001,57,2019_Oct_23_1704,ACPT_experiment_5_30_19,3.1.0,59.96957036398898,
,,,C,U,y,n,R,G,d,R,i,,,,,6,18,138,17,1,0,1,0,,,,,0,31,31,5,,,,,,down,0.9173621149857354,2902.294034956598,None,001,57,2019_Oct_23_1704,ACPT_experiment_5_30_19,3.1.0,59.96957036398898,
,,,C,U,y,n,L,D,y,R,y,,,,,6,18,138,17,1,0,1,0,,,,,0,32,32,33,,,,,,down,0.7172341889199743,2904.5123837443934,None,001,57,2019_Oct_23_1704,ACPT_experiment_5_30_19,3.1.0,59.96957036398898,
,,,C,U,y,n,L,U,y,L,u,,,,,6,18,138,17,1,0,1,0,,,,,0,33,33,24,,,,,,down,1.3510139755744603,2906.530603096846,None,001,57,2019_Oct_23_1704,ACPT_experiment_5_30_19,3.1.0,59.96957036398898,
,,,C,U,y,n,L,U,y,R,u,,,,,6,18,138,17,1,0,1,0,,,,,0,34,34,25,,,,,,down,0.6669005035255395,2909.199549874109,None,001,57,2019_Oct_23_1704,ACPT_experiment_5_30_19,3.1.0,59.96957036398898,
,,,C,U,y,n,L,G,d,R,i,,,,,6,18,138,17,1,0,1,0,,,,,0,35,35,17,,,,,,down,0.7672663213634223,2911.1841211693463,None,001,57,2019_Oct_23_1704,ACPT_experiment_5_30_19,3.1.0,59.96957036398898,
,,,C,U,y,n,L,G,g,L,c ,,,,,6,18,138,17,1,0,1,0,,,,,1,0,36,18,,,,,,up,0.7672799048341403,2913.2356610665556,None,001,57,2019_Oct_23_1704,ACPT_experiment_5_30_19,3.1.0,59.96957036398898,
,,,C,U,y,n,R,D,d,L,c,,,,,6,18,138,17,1,0,1,0,,,,,1,1,37,0,,,,,,up,0.617121023555228,2915.2872465438377,None,001,57,2019_Oct_23_1704,ACPT_experiment_5_30_19,3.1.0,59.96957036398898,
,,,C,U,y,n,R,D,d,R,c ,,,,,6,18,138,17,1,0,1,0,,,,,1,2,38,1,,,,,,up,0.7839763997835689,2917.1719784560155,None,001,57,2019_Oct_23_1704,ACPT_experiment_5_30_19,3.1.0,59.96957036398898,
,,,C,U,y,n,R,G,d,R,i,,,,,6,18,138,17,1,0,1,0,,,,,1,3,39,5,,,,,,down,0.6004707123865956,2919.2402359780135,None,001,57,2019_Oct_23_1704,ACPT_experiment_5_30_19,3.1.0,59.96957036398898,
,,,C,U,y,n,R,U,d,R,u,,,,,6,18,138,17,1,0,1,0,,,,,1,4,40,9,,,,,,down,0.9507366917496256,2921.124983888498,None,001,57,2019_Oct_23_1704,ACPT_experiment_5_30_19,3.1.0,59.96957036398898,
,,,C,U,y,n,L,G,y,R,y,,,,,6,18,138,17,1,0,1,0,,,,,1,5,41,35,,,,,,down,0.7005564089668042,2923.3600080414108,None,001,57,2019_Oct_23_1704,ACPT_experiment_5_30_19,3.1.0,59.96957036398898,
,,,C,U,y,n,L,D,d,R,c ,,,,,6,18,138,17,1,0,1,0,,,,,1,6,42,13,,,,,,up,0.9006792034997488,2925.3448836062926,None,001,57,2019_Oct_23_1704,ACPT_experiment_5_30_19,3.1.0,59.96957036398898,
,,,C,U,y,n,L,D,d,L,c ,,,,,6,18,138,17,1,0,1,0,,,,,1,7,43,12,,,,,,up,0.9507840829537599,2927.513161322375,None,001,57,2019_Oct_23_1704,ACPT_experiment_5_30_19,3.1.0,59.96957036398898,
,,,C,U,y,n,L,G,d,R,i,,,,,6,18,138,17,1,0,1,0,,,,,1,8,44,17,,,,,,down,0.8506766528262233,2929.748216566335,None,001,57,2019_Oct_23_1704,ACPT_experiment_5_30_19,3.1.0,59.96957036398898,
,,,C,U,y,n,L,U,d,R,u,,,,,6,18,138,17,1,0,1,0,,,,,1,9,45,21,,,,,,down,0.6338184240703413,2931.8831722283903,None,001,57,2019_Oct_23_1704,ACPT_experiment_5_30_19,3.1.0,59.96957036398898,
,,,C,U,y,n,R,U,d,L,u,,,,,6,18,138,17,1,0,1,0,,,,,1,10,46,8,,,,,,down,0.8506473729139543,2933.801292904507,None,001,57,2019_Oct_23_1704,ACPT_experiment_5_30_19,3.1.0,59.96957036398898,
,,,C,U,y,n,R,G,g,L,c ,,,,,6,18,138,17,1,0,1,0,,,,,1,11,47,6,,,,,,up,1.467782885498309,2935.9362479628544,None,001,57,2019_Oct_23_1704,ACPT_experiment_5_30_19,3.1.0,59.96957036398898,
,,,C,U,y,n,L,U,d,L,u,,,,,6,18,138,17,1,0,1,0,,,,,1,12,48,20,,,,,,down,0.7839344419626286,2938.6883361189466,None,001,57,2019_Oct_23_1704,ACPT_experiment_5_30_19,3.1.0,59.96957036398898,
,,,C,U,y,n,L,D,y,L,y,,,,,6,18,138,17,1,0,1,0,,,,,1,13,49,32,,,,,,down,0.8006122219194367,2940.7565710018316,None,001,57,2019_Oct_23_1704,ACPT_experiment_5_30_19,3.1.0,59.96957036398898,
,,,C,U,y,n,R,G,y,L,y,,,,,6,18,138,17,1,0,1,0,,,,,1,14,50,28,,,,,,down,0.683644691536756,2942.858343764932,None,001,57,2019_Oct_23_1704,ACPT_experiment_5_30_19,3.1.0,59.96957036398898,
,,,C,U,y,n,L,D,g,R,i,,,,,6,18,138,17,1,0,1,0,,,,,1,15,51,15,,,,,,down,1.034112008055672,2944.8430146722567,None,001,57,2019_Oct_23_1704,ACPT_experiment_5_30_19,3.1.0,59.96957036398898,
,,,C,U,y,n,R,G,y,R,y,,,,,6,18,138,17,1,0,1,0,,,,,1,16,52,29,,,,,,down,0.6338335168074991,2947.161417160023,None,001,57,2019_Oct_23_1704,ACPT_experiment_5_30_19,3.1.0,59.96957036398898,
,,,C,U,y,n,R,G,g,R,c ,,,,,6,18,138,17,1,0,1,0,,,,,1,17,53,7,,,,,,up,0.7505713356840715,2949.07956621049,None,001,57,2019_Oct_23_1704,ACPT_experiment_5_30_19,3.1.0,59.96957036398898,
,,,C,U,y,n,R,U,y,R,u,,,,,6,18,138,17,1,0,1,0,,,,,1,18,54,31,,,,,,down,0.6338298945520364,2951.131103391006,None,001,57,2019_Oct_23_1704,ACPT_experiment_5_30_19,3.1.0,59.96957036398898,
,,,C,U,y,n,L,G,d,L,i,,,,,6,18,138,17,1,0,1,0,,,,,1,19,55,16,,,,,,down,1.0675013757027045,2953.0659000359483,None,001,57,2019_Oct_23_1704,ACPT_experiment_5_30_19,3.1.0,59.96957036398898,
,,,C,U,y,n,R,D,g,R,i,,,,,6,18,138,17,1,0,1,0,,,,,1,20,56,3,,,,,,down,0.6838535750648589,2955.4177063803945,None,001,57,2019_Oct_23_1704,ACPT_experiment_5_30_19,3.1.0,59.96957036398898,
,,,C,U,y,n,R,G,d,L,i,,,,,6,18,138,17,1,0,1,0,,,,,1,21,57,4,,,,,,down,0.934061326632218,2957.3858498314585,None,001,57,2019_Oct_23_1704,ACPT_experiment_5_30_19,3.1.0,59.96957036398898,
,,,C,U,y,n,R,D,y,R,y,,,,,6,18,138,17,1,0,1,0,,,,,1,22,58,27,,,,,,down,0.7005262234852125,2959.6042429919107,None,001,57,2019_Oct_23_1704,ACPT_experiment_5_30_19,3.1.0,59.96957036398898,
,,,C,U,y,n,L,D,g,L,i,,,,,6,18,138,17,1,0,1,0,,,,,1,23,59,14,,,,,,down,1.0007772761273372,2961.5890455079316,None,001,57,2019_Oct_23_1704,ACPT_experiment_5_30_19,3.1.0,59.96957036398898,
,,,C,U,y,n,R,D,y,L,y,,,,,6,18,138,17,1,0,1,0,,,,,1,24,60,26,,,,,,down,0.7005301475946908,2963.8741322806236,None,001,57,2019_Oct_23_1704,ACPT_experiment_5_30_19,3.1.0,59.96957036398898,
,,,C,U,y,n,R,D,g,L,i,,,,,6,18,138,17,1,0,1,0,,,,,1,25,61,2,,,,,,down,1.0841821742069442,2965.8422715057204,None,001,57,2019_Oct_23_1704,ACPT_experiment_5_30_19,3.1.0,59.96957036398898,
,,,C,U,y,n,R,U,y,L,u,,,,,6,18,138,17,1,0,1,0,,,,,1,26,62,30,,,,,,down,0.5504530689722742,2968.210740537379,None,001,57,2019_Oct_23_1704,ACPT_experiment_5_30_19,3.1.0,59.96957036398898,
,,,C,U,y,n,L,U,y,L,u,,,,,6,18,138,17,1,0,1,0,,,,,1,27,63,24,,,,,,down,0.5837690859043505,2970.0454865009015,None,001,57,2019_Oct_23_1704,ACPT_experiment_5_30_19,3.1.0,59.96957036398898,
,,,C,U,y,n,L,U,y,R,u,,,,,6,18,138,17,1,0,1,0,,,,,1,28,64,25,,,,,,down,0.5171418817226368,2971.9135768557026,None,001,57,2019_Oct_23_1704,ACPT_experiment_5_30_19,3.1.0,59.96957036398898,
,,,C,U,y,n,L,D,y,R,y,,,,,6,18,138,17,1,0,1,0,,,,,1,29,65,33,,,,,,down,0.5004061456420459,2973.714913831016,None,001,57,2019_Oct_23_1704,ACPT_experiment_5_30_19,3.1.0,59.96957036398898,
,,,C,U,y,n,L,G,g,R,c ,,,,,6,18,138,17,1,0,1,0,,,,,1,30,66,19,,,,,,up,0.7169854605599539,2975.5165517555724,None,001,57,2019_Oct_23_1704,ACPT_experiment_5_30_19,3.1.0,59.96957036398898,
,,,C,U,y,n,R,U,g,L,u,,,,,6,18,138,17,1,0,1,0,,,,,1,31,67,10,,,,,,down,0.850621111541841,2977.501176177255,None,001,57,2019_Oct_23_1704,ACPT_experiment_5_30_19,3.1.0,59.96957036398898,
,,,C,U,y,n,L,U,g,L,u,,,,,6,18,138,17,1,0,1,0,,,,,1,32,68,22,,,,,,down,0.5339219904562924,2979.63610346496,None,001,57,2019_Oct_23_1704,ACPT_experiment_5_30_19,3.1.0,59.96957036398898,
,,,C,U,y,n,L,U,g,R,u,,,,,6,18,138,17,1,0,1,0,,,,,1,33,69,23,,,,,,down,0.43364793647560873,2981.4541650077226,None,001,57,2019_Oct_23_1704,ACPT_experiment_5_30_19,3.1.0,59.96957036398898,
,,,C,U,y,n,L,G,y,L,y,,,,,6,18,138,17,1,0,1,0,,,,,1,34,70,34,,,,,,down,0.8172616275223845,2983.205493395264,None,001,57,2019_Oct_23_1704,ACPT_experiment_5_30_19,3.1.0,59.96957036398898,
,,,C,U,y,n,R,U,g,R,u,,,,,6,18,138,17,1,0,1,0,,,,,1,35,71,11,,,,,,down,0.6004456584378204,2985.3237619198662,None,001,57,2019_Oct_23_1704,ACPT_experiment_5_30_19,3.1.0,59.96957036398898,
,,,C,U,y,n,,,,,,,,,,6,18,138,17,2,0,2,0,0,0,0,0,,,,,,,,,,,,,,001,57,2019_Oct_23_1704,ACPT_experiment_5_30_19,3.1.0,59.96957036398898,
,,,C,U,y,n,R,U,d,L,u,,,,,6,18,138,17,2,0,2,0,,,,,0,0,0,8,,,,,,down,1.9179054536398326,3020.700842567323,None,001,57,2019_Oct_23_1704,ACPT_experiment_5_30_19,3.1.0,59.96957036398898,
,,,C,U,y,n,R,D,d,L,c,,,,,6,18,138,17,2,0,2,0,,,,,0,1,1,0,,,,,,up,0.6505188431365241,3023.9030300487393,None,001,57,2019_Oct_23_1704,ACPT_experiment_5_30_19,3.1.0,59.96957036398898,
,,,C,U,y,n,R,G,d,L,i,,,,,6,18,138,17,2,0,2,0,,,,,0,2,2,4,,,,,,down,0.8006399925616279,3025.8211803066297,None,001,57,2019_Oct_23_1704,ACPT_experiment_5_30_19,3.1.0,59.96957036398898,
,,,C,U,y,n,R,D,y,R,y,,,,,6,18,138,17,2,0,2,0,,,,,0,3,3,27,,,,,,down,0.6505149190234079,3027.9060754618877,None,001,57,2019_Oct_23_1704,ACPT_experiment_5_30_19,3.1.0,59.96957036398898,
,,,C,U,y,n,L,G,y,L,y,,,,,6,18,138,17,2,0,2,0,,,,,0,4,4,34,,,,,,down,0.6336243314290186,3029.874412401885,None,001,57,2019_Oct_23_1704,ACPT_experiment_5_30_19,3.1.0,59.96957036398898,
,,,C,U,y,n,R,D,g,L,i,,,,,6,18,138,17,2,0,2,0,,,,,0,5,5,2,,,,,,down,0.7339225337927928,3031.8090605342622,None,001,57,2019_Oct_23_1704,ACPT_experiment_5_30_19,3.1.0,59.96957036398898,
,,,C,U,y,n,R,G,y,L,y,,,,,6,18,138,17,2,0,2,0,,,,,0,6,6,28,,,,,,down,0.6338184240703413,3033.827258153171,None,001,57,2019_Oct_23_1704,ACPT_experiment_5_30_19,3.1.0,59.96957036398898,
,,,C,U,y,n,L,G,y,R,y,,,,,6,18,138,17,2,0,2,0,,,,,0,7,7,35,,,,,,down,0.5170377418144199,3035.7454026758205,None,001,57,2019_Oct_23_1704,ACPT_experiment_5_30_19,3.1.0,59.96957036398898,
,,,C,U,y,n,L,G,d,R,i,,,,,6,18,138,17,2,0,2,0,,,,,0,8,8,17,,,,,,down,0.8506461654942541,3037.5467520271814,None,001,57,2019_Oct_23_1704,ACPT_experiment_5_30_19,3.1.0,59.96957036398898,
,,,C,U,y,n,R,G,g,L,c ,,,,,6,18,138,17,2,0,2,0,,,,,0,9,9,6,,,,,,up,0.5504102055929252,3039.6817134244775,None,001,57,2019_Oct_23_1704,ACPT_experiment_5_30_19,3.1.0,59.96957036398898,
,,,C,U,y,n,R,G,d,R,i,,,,,6,18,138,17,2,0,2,0,,,,,0,10,10,5,,,,,,down,0.833968385537446,3041.5164328247774,None,001,57,2019_Oct_23_1704,ACPT_experiment_5_30_19,3.1.0,59.96957036398898,
,,,C,U,y,n,L,D,d,L,c ,,,,,6,18,138,17,2,0,2,0,,,,,0,11,11,12,,,,,,up,0.7171943440880568,3043.6347251959087,None,001,57,2019_Oct_23_1704,ACPT_experiment_5_30_19,3.1.0,59.96957036398898,
,,,C,U,y,n,L,U,y,L,u,,,,,6,18,138,17,2,0,2,0,,,,,0,12,12,24,,,,,,down,1.0007848224995541,3045.636207906722,None,001,57,2019_Oct_23_1704,ACPT_experiment_5_30_19,3.1.0,59.96957036398898,
,,,C,U,y,n,R,U,y,R,u,,,,,6,18,138,17,2,0,2,0,,,,,0,13,13,31,,,,,,down,0.5337523480520758,3047.9212868311915,None,001,57,2019_Oct_23_1704,ACPT_experiment_5_30_19,3.1.0,59.96957036398898,
,,,C,U,y,n,R,U,g,L,u,,,,,6,18,138,17,2,0,2,0,,,,,0,14,14,10,,,,,,down,1.250951823672949,3049.739346562823,None,001,57,2019_Oct_23_1704,ACPT_experiment_5_30_19,3.1.0,59.96957036398898,
,,,C,U,y,n,L,D,y,R,y,,,,,6,18,138,17,2,0,2,0,,,,,0,15,15,33,,,,,,down,0.61712102355159,3052.274626899911,None,001,57,2019_Oct_23_1704,ACPT_experiment_5_30_19,3.1.0,59.96957036398898,
,,,C,U,y,n,R,D,g,R,i,,,,,6,18,138,17,2,0,2,0,,,,,0,16,16,3,,,,,,down,0.5837733118678443,3054.1760553070453,None,001,57,2019_Oct_23_1704,ACPT_experiment_5_30_19,3.1.0,59.96957036398898,
,,,C,U,y,n,R,D,d,R,c ,,,,,6,18,138,17,2,0,2,0,,,,,0,17,17,1,,,,,,up,0.5838098363019526,3056.0274337722985,None,001,57,2019_Oct_23_1704,ACPT_experiment_5_30_19,3.1.0,59.96957036398898,
,,,C,U,y,n,L,D,y,L,y,,,,,6,18,138,17,2,0,2,0,,,,,0,18,18,32,,,,,,down,0.6504892613629636,3057.8955443513732,None,001,57,2019_Oct_23_1704,ACPT_experiment_5_30_19,3.1.0,59.96957036398898,
,,,C,U,y,n,L,G,d,L,i,,,,,6,18,138,17,2,0,2,0,,,,,0,19,19,16,,,,,,down,0.7505662041548931,3059.830346429706,None,001,57,2019_Oct_23_1704,ACPT_experiment_5_30_19,3.1.0,59.96957036398898,
,,,C,U,y,n,L,G,g,L,c ,,,,,6,18,138,17,2,0,2,0,,,,,0,20,20,18,,,,,,up,0.7002509319027013,3061.8655049683766,None,001,57,2019_Oct_23_1704,ACPT_experiment_5_30_19,3.1.0,59.96957036398898,
,,,C,U,y,n,L,D,g,R,i,,,,,6,18,138,17,2,0,2,0,,,,,0,21,21,15,,,,,,down,1.3010156508717046,3063.850032796523,None,001,57,2019_Oct_23_1704,ACPT_experiment_5_30_19,3.1.0,59.96957036398898,
,,,C,U,y,n,L,D,g,L,i,,,,,6,18,138,17,2,0,2,0,,,,,0,22,22,14,,,,,,down,0.9840955720610509,3066.4186665805355,None,001,57,2019_Oct_23_1704,ACPT_experiment_5_30_19,3.1.0,59.96957036398898,
,,,C,U,y,n,R,D,y,L,y,,,,,6,18,138,17,2,0,2,0,,,,,0,23,23,26,,,,,,down,0.6338126888294937,3068.7037482216947,None,001,57,2019_Oct_23_1704,ACPT_experiment_5_30_19,3.1.0,59.96957036398898,
,,,C,U,y,n,L,U,g,L,u,,,,,6,18,138,17,2,0,2,0,,,,,0,24,24,22,,,,,,down,0.6671619097869552,3070.6385584501077,None,001,57,2019_Oct_23_1704,ACPT_experiment_5_30_19,3.1.0,59.96957036398898,
,,,C,U,y,n,L,U,y,R,u,,,,,6,18,138,17,2,0,2,0,,,,,0,25,25,25,,,,,,down,0.5671154543342709,3072.5733339652143,None,001,57,2019_Oct_23_1704,ACPT_experiment_5_30_19,3.1.0,59.96957036398898,
,,,C,U,y,n,R,G,y,R,y,,,,,6,18,138,17,2,0,2,0,,,,,0,26,26,29,,,,,,down,0.5671299433633976,3074.441420999614,None,001,57,2019_Oct_23_1704,ACPT_experiment_5_30_19,3.1.0,59.96957036398898,
,,,C,U,y,n,R,G,g,R,c ,,,,,6,18,138,17,2,0,2,0,,,,,0,27,27,7,,,,,,up,0.9006725626968546,3076.309527654579,None,001,57,2019_Oct_23_1704,ACPT_experiment_5_30_19,3.1.0,59.96957036398898,
,,,C,U,y,n,L,D,d,R,c ,,,,,6,18,138,17,2,0,2,0,,,,,0,28,28,13,,,,,,up,0.9173609075696731,3078.494519071337,None,001,57,2019_Oct_23_1704,ACPT_experiment_5_30_19,3.1.0,59.96957036398898,
,,,C,U,y,n,L,U,g,R,u,,,,,6,18,138,17,2,0,2,0,,,,,0,29,29,23,,,,,,down,0.7338863112163381,3080.696188569902,None,001,57,2019_Oct_23_1704,ACPT_experiment_5_30_19,3.1.0,59.96957036398898,
,,,C,U,y,n,L,U,d,L,u,,,,,6,18,138,17,2,0,2,0,,,,,0,30,30,20,,,,,,down,0.8339898172307585,3082.697686675314,None,001,57,2019_Oct_23_1704,ACPT_experiment_5_30_19,3.1.0,59.96957036398898,
,,,C,U,y,n,R,U,g,R,u,,,,,6,18,138,17,2,0,2,0,,,,,0,31,31,11,,,,,,down,1.3009848616784438,3084.815989309507,None,001,57,2019_Oct_23_1704,ACPT_experiment_5_30_19,3.1.0,59.96957036398898,
,,,C,U,y,n,R,U,d,R,u,,,,,6,18,138,17,2,0,2,0,,,,,0,32,32,9,,,,,,down,0.3502877129103581,3087.384577815301,None,001,57,2019_Oct_23_1704,ACPT_experiment_5_30_19,3.1.0,59.96957036398898,
,,,C,U,y,n,L,G,g,R,c ,,,,,6,18,138,17,2,0,2,0,,,,,0,33,33,19,,,,,,up,0.7339008002454648,3089.019175628484,None,001,57,2019_Oct_23_1704,ACPT_experiment_5_30_19,3.1.0,59.96957036398898,
,,,C,U,y,n,L,U,d,R,u,,,,,6,18,138,17,2,0,2,0,,,,,0,34,34,21,,,,,,down,0.7005370902588766,3091.03736690844,None,001,57,2019_Oct_23_1704,ACPT_experiment_5_30_19,3.1.0,59.96957036398898,
,,,C,U,y,n,R,U,y,L,u,,,,,6,18,138,17,2,0,2,0,,,,,0,35,35,30,,,,,,down,0.6838553861925902,3093.0222153063914,None,001,57,2019_Oct_23_1704,ACPT_experiment_5_30_19,3.1.0,59.96957036398898,
,,,C,U,y,n,R,G,y,R,y,,,,,6,18,138,17,2,0,2,0,,,,,1,0,36,29,,,,,,down,2.718729275780788,3094.9903807928567,None,001,57,2019_Oct_23_1704,ACPT_experiment_5_30_19,3.1.0,59.96957036398898,
,,,C,U,y,n,R,G,d,R,i,,,,,6,18,138,17,2,0,2,0,,,,,1,1,37,5,,,,,,down,1.5511935188151256,3098.976724881377,None,001,57,2019_Oct_23_1704,ACPT_experiment_5_30_19,3.1.0,59.96957036398898,
,,,C,U,y,n,R,G,g,L,c ,,,,,6,18,138,17,2,0,2,0,,,,,1,2,38,6,,,,,,up,0.6171536238725821,3101.79552868511,None,001,57,2019_Oct_23_1704,ACPT_experiment_5_30_19,3.1.0,59.96957036398898,
,,,C,U,y,n,L,D,y,L,y,,,,,6,18,138,17,2,0,2,0,,,,,1,3,39,32,,,,,,down,0.8003994142818556,3103.7138410390326,None,001,57,2019_Oct_23_1704,ACPT_experiment_5_30_19,3.1.0,59.96957036398898,
,,,C,U,y,n,L,U,d,R,u,,,,,6,18,138,17,2,0,2,0,,,,,1,4,40,21,,,,,,down,1.0674443251446064,3105.83199878292,None,001,57,2019_Oct_23_1704,ACPT_experiment_5_30_19,3.1.0,59.96957036398898,
,,,C,U,y,n,L,D,y,R,y,,,,,6,18,138,17,2,0,2,0,,,,,1,5,41,33,,,,,,down,4.837027080302505,3108.18371125052,None,001,57,2019_Oct_23_1704,ACPT_experiment_5_30_19,3.1.0,59.96957036398898,
,,,C,U,y,n,R,D,y,R,y,,,,,6,18,138,17,2,0,2,0,,,,,1,6,42,27,,,,,,down,0.9840789700465393,3114.3050490348032,None,001,57,2019_Oct_23_1704,ACPT_experiment_5_30_19,3.1.0,59.96957036398898,
,,,C,U,y,n,R,D,d,R,c ,,,,,6,18,138,17,2,0,2,0,,,,,1,7,43,1,,,,,,up,0.6504871483812167,3116.573444444075,None,001,57,2019_Oct_23_1704,ACPT_experiment_5_30_19,3.1.0,59.96957036398898,
,,,C,U,y,n,R,D,g,L,i,,,,,6,18,138,17,2,0,2,0,,,,,1,8,44,2,,,,,,down,1.084153799853084,3118.508242296437,None,001,57,2019_Oct_23_1704,ACPT_experiment_5_30_19,3.1.0,59.96957036398898,
,,,C,U,y,n,R,D,d,L,c,,,,,6,18,138,17,2,0,2,0,,,,,1,9,45,0,,,,,,up,0.7839296122911037,3120.8767010650336,None,001,57,2019_Oct_23_1704,ACPT_experiment_5_30_19,3.1.0,59.96957036398898,
,,,C,U,y,n,L,G,g,L,c ,,,,,6,18,138,17,2,0,2,0,,,,,1,10,46,18,,,,,,up,0.7172215110185789,3122.9449302126777,None,001,57,2019_Oct_23_1704,ACPT_experiment_5_30_19,3.1.0,59.96957036398898,
,,,C,U,y,n,R,G,g,R,c ,,,,,6,18,138,17,2,0,2,0,,,,,1,11,47,7,,,,,,up,0.8840056495137105,3124.9464639369507,None,001,57,2019_Oct_23_1704,ACPT_experiment_5_30_19,3.1.0,59.96957036398898,
,,,C,U,y,n,R,U,d,R,u,,,,,6,18,138,17,2,0,2,0,,,,,1,12,48,9,,,,,,down,0.8006040718428267,3127.1147814978685,None,001,57,2019_Oct_23_1704,ACPT_experiment_5_30_19,3.1.0,59.96957036398898,
,,,C,U,y,n,R,D,y,L,y,,,,,6,18,138,17,2,0,2,0,,,,,1,13,49,26,,,,,,down,0.6671628153490019,3129.1996956699804,None,001,57,2019_Oct_23_1704,ACPT_experiment_5_30_19,3.1.0,59.96957036398898,
,,,C,U,y,n,L,U,g,L,u,,,,,6,18,138,17,2,0,2,0,,,,,1,14,50,22,,,,,,down,1.1175202265367261,3131.151171604153,None,001,57,2019_Oct_23_1704,ACPT_experiment_5_30_19,3.1.0,59.96957036398898,
,,,C,U,y,n,R,U,d,L,u,,,,,6,18,138,17,2,0,2,0,,,,,1,15,51,8,,,,,,down,2.668694426643924,3133.5529967994335,None,001,57,2019_Oct_23_1704,ACPT_experiment_5_30_19,3.1.0,59.96957036398898,
,,,C,U,y,n,L,D,g,R,i,,,,,6,18,138,17,2,0,2,0,,,,,1,16,52,15,,,,,,down,0.7672639065240219,3137.506003741186,None,001,57,2019_Oct_23_1704,ACPT_experiment_5_30_19,3.1.0,59.96957036398898,
,,,C,U,y,n,L,G,g,R,c ,,,,,6,18,138,17,2,0,2,0,,,,,1,17,53,19,,,,,,up,0.8506633712167968,3139.5575605422637,None,001,57,2019_Oct_23_1704,ACPT_experiment_5_30_19,3.1.0,59.96957036398898,
,,,C,U,y,n,L,G,d,R,i,,,,,6,18,138,17,2,0,2,0,,,,,1,18,54,17,,,,,,down,0.8506697101693135,3141.6758130685594,None,001,57,2019_Oct_23_1704,ACPT_experiment_5_30_19,3.1.0,59.96957036398898,
,,,C,U,y,n,L,G,y,R,y,,,,,6,18,138,17,2,0,2,0,,,,,1,19,55,35,,,,,,down,0.8340103433583863,3143.794091252519,None,001,57,2019_Oct_23_1704,ACPT_experiment_5_30_19,3.1.0,59.96957036398898,
,,,C,U,y,n,L,D,d,L,c ,,,,,6,18,138,17,2,0,2,0,,,,,1,20,56,12,,,,,,up,1.300985465390113,3145.9123857366358,None,001,57,2019_Oct_23_1704,ACPT_experiment_5_30_19,3.1.0,59.96957036398898,
,,,C,U,y,n,L,U,y,L,u,,,,,6,18,138,17,2,0,2,0,,,,,1,21,57,24,,,,,,down,1.0007428646822518,3148.497694583908,None,001,57,2019_Oct_23_1704,ACPT_experiment_5_30_19,3.1.0,59.96957036398898,
,,,C,U,y,n,R,U,y,R,u,,,,,6,18,138,17,2,0,2,0,,,,,1,22,58,31,,,,,,down,0.5670940226409584,3150.7827508692644,None,001,57,2019_Oct_23_1704,ACPT_experiment_5_30_19,3.1.0,59.96957036398898,
,,,C,U,y,n,R,U,g,L,u,,,,,6,18,138,17,2,0,2,0,,,,,1,23,59,10,,,,,,down,0.8006067885326047,3152.634154690324,None,001,57,2019_Oct_23_1704,ACPT_experiment_5_30_19,3.1.0,59.96957036398898,
,,,C,U,y,n,L,G,d,L,i,,,,,6,18,138,17,2,0,2,0,,,,,1,24,60,16,,,,,,down,0.800605882970558,3154.7190712772754,None,001,57,2019_Oct_23_1704,ACPT_experiment_5_30_19,3.1.0,59.96957036398898,
,,,C,U,y,n,L,D,g,L,i,,,,,6,18,138,17,2,0,2,0,,,,,1,25,61,14,,,,,,down,0.7839262918823806,3156.803990882774,None,001,57,2019_Oct_23_1704,ACPT_experiment_5_30_19,3.1.0,59.96957036398898,
,,,C,U,y,n,L,G,y,L,y,,,,,6,18,138,17,2,0,2,0,,,,,1,26,62,34,,,,,,down,0.583822514203348,3158.8721992024366,None,001,57,2019_Oct_23_1704,ACPT_experiment_5_30_19,3.1.0,59.96957036398898,
,,,C,U,y,n,R,D,g,R,i,,,,,6,18,138,17,2,0,2,0,,,,,1,27,63,3,,,,,,down,0.7672470026554947,3160.740315214898,None,001,57,2019_Oct_23_1704,ACPT_experiment_5_30_19,3.1.0,59.96957036398898,
,,,C,U,y,n,L,U,y,R,u,,,,,6,18,138,17,2,0,2,0,,,,,1,28,64,25,,,,,,down,0.4837060284335166,3162.7918705067023,None,001,57,2019_Oct_23_1704,ACPT_experiment_5_30_19,3.1.0,59.96957036398898,
,,,C,U,y,n,R,G,y,L,y,,,,,6,18,138,17,2,0,2,0,,,,,1,29,65,28,,,,,,down,0.6336847023922019,3164.5766480291422,None,001,57,2019_Oct_23_1704,ACPT_experiment_5_30_19,3.1.0,59.96957036398898,
,,,C,U,y,n,L,U,d,L,u,,,,,6,18,138,17,2,0,2,0,,,,,1,30,66,20,,,,,,down,0.5337206533004064,3166.5113680029644,None,001,57,2019_Oct_23_1704,ACPT_experiment_5_30_19,3.1.0,59.96957036398898,
,,,C,U,y,n,L,D,d,R,c ,,,,,6,18,138,17,2,0,2,0,,,,,1,31,67,13,,,,,,up,1.0004871936616837,3168.346360280011,None,001,57,2019_Oct_23_1704,ACPT_experiment_5_30_19,3.1.0,59.96957036398898,
,,,C,U,y,n,R,G,d,L,i,,,,,6,18,138,17,2,0,2,0,,,,,1,32,68,4,,,,,,down,0.46702251323949895,3170.6311539516864,None,001,57,2019_Oct_23_1704,ACPT_experiment_5_30_19,3.1.0,59.96957036398898,
,,,C,U,y,n,L,U,g,R,u,,,,,6,18,138,17,2,0,2,0,,,,,1,33,69,23,,,,,,down,0.8506793695196393,3172.382456983425,None,001,57,2019_Oct_23_1704,ACPT_experiment_5_30_19,3.1.0,59.96957036398898,
,,,C,U,y,n,R,U,y,L,u,,,,,6,18,138,17,2,0,2,0,,,,,1,34,70,30,,,,,,down,0.5003777712918236,3174.534120912773,None,001,57,2019_Oct_23_1704,ACPT_experiment_5_30_19,3.1.0,59.96957036398898,
,,,C,U,y,n,R,U,g,R,u,,,,,6,18,138,17,2,0,2,0,,,,,1,35,71,11,,,,,,down,0.9340085020448896,3176.335521277593,None,001,57,2019_Oct_23_1704,ACPT_experiment_5_30_19,3.1.0,59.96957036398898,
,,,C,U,y,n,,,,,,,,,,6,18,138,17,3,0,3,0,0,0,0,0,,,,,,,,,,,,,,001,57,2019_Oct_23_1704,ACPT_experiment_5_30_19,3.1.0,59.96957036398898,
,,,C,U,y,n,L,G,g,R,c ,,,,,6,18,138,17,3,0,3,0,,,,,0,0,0,19,,,,,,up,0.8670779337771819,3196.4176749874932,None,001,57,2019_Oct_23_1704,ACPT_experiment_5_30_19,3.1.0,59.96957036398898,
,,,C,U,y,n,R,G,g,L,c ,,,,,6,18,138,17,3,0,3,0,,,,,0,1,1,6,,,,,,up,0.6338383464863,3198.5690367601783,None,001,57,2019_Oct_23_1704,ACPT_experiment_5_30_19,3.1.0,59.96957036398898,
,,,C,U,y,n,R,D,y,L,y,,,,,6,18,138,17,3,0,3,0,,,,,0,2,2,26,,,,,,down,0.7339104596030666,3200.4871420417003,None,001,57,2019_Oct_23_1704,ACPT_experiment_5_30_19,3.1.0,59.96957036398898,
,,,C,U,y,n,R,G,d,L,i,,,,,6,18,138,17,3,0,3,0,,,,,0,3,3,4,,,,,,down,1.2342260488003376,3202.5054021445576,None,001,57,2019_Oct_23_1704,ACPT_experiment_5_30_19,3.1.0,59.96957036398898,
,,,C,U,y,n,L,U,y,R,u,,,,,6,18,138,17,3,0,3,0,,,,,0,4,4,25,,,,,,down,0.4670339837175561,3205.0239195786344,None,001,57,2019_Oct_23_1704,ACPT_experiment_5_30_19,3.1.0,59.96957036398898,
,,,C,U,y,n,R,D,g,L,i,,,,,6,18,138,17,3,0,3,0,,,,,0,5,5,2,,,,,,down,2.2850991487393912,3206.775247362468,None,001,57,2019_Oct_23_1704,ACPT_experiment_5_30_19,3.1.0,59.96957036398898,
,,,C,U,y,n,L,G,g,L,c ,,,,,6,18,138,17,3,0,3,0,,,,,0,6,6,18,,,,,,up,0.6838354637729935,3210.3446548003485,None,001,57,2019_Oct_23_1704,ACPT_experiment_5_30_19,3.1.0,59.96957036398898,
,,,C,U,y,n,R,U,g,L,u,,,,,6,18,138,17,3,0,3,0,,,,,0,7,7,10,,,,,,down,0.6338123869718402,3212.296135866054,None,001,57,2019_Oct_23_1704,ACPT_experiment_5_30_19,3.1.0,59.96957036398898,
,,,C,U,y,n,L,U,g,L,u,,,,,6,18,138,17,3,0,3,0,,,,,0,8,8,22,,,,,,down,4.153142414194008,3214.2142704274956,None,001,57,2019_Oct_23_1704,ACPT_experiment_5_30_19,3.1.0,59.96957036398898,
,,,C,U,y,n,L,U,d,R,u,,,,,6,18,138,17,3,0,3,0,,,,,0,9,9,21,,,,,,down,0.7839534588165407,3219.6350131653962,None,001,57,2019_Oct_23_1704,ACPT_experiment_5_30_19,3.1.0,59.96957036398898,
,,,C,U,y,n,R,D,d,L,c,,,,,6,18,138,17,3,0,3,0,,,,,0,10,10,0,,,,,,up,0.867312474965729,3221.686596227839,None,001,57,2019_Oct_23_1704,ACPT_experiment_5_30_19,3.1.0,59.96957036398898,
,,,C,U,y,n,R,U,d,R,u,,,,,6,18,138,17,3,0,3,0,,,,,0,11,11,9,,,,,,down,0.8006019588574418,3223.83823329211,None,001,57,2019_Oct_23_1704,ACPT_experiment_5_30_19,3.1.0,59.96957036398898,
,,,C,U,y,n,L,U,g,R,u,,,,,6,18,138,17,3,0,3,0,,,,,0,12,12,23,,,,,,down,0.4836909356927208,3225.923151690189,None,001,57,2019_Oct_23_1704,ACPT_experiment_5_30_19,3.1.0,59.96957036398898,
,,,C,U,y,n,L,G,y,L,y,,,,,6,18,138,17,3,0,3,0,,,,,0,13,13,34,,,,,,down,0.7336795406736201,3227.7080119208476,None,001,57,2019_Oct_23_1704,ACPT_experiment_5_30_19,3.1.0,59.96957036398898,
,,,C,U,y,n,R,D,g,R,i,,,,,6,18,138,17,3,0,3,0,,,,,0,14,14,3,,,,,,down,0.8172815499419812,3229.7427185828747,None,001,57,2019_Oct_23_1704,ACPT_experiment_5_30_19,3.1.0,59.96957036398898,
,,,C,U,y,n,R,U,y,L,u,,,,,6,18,138,17,3,0,3,0,,,,,0,15,15,30,,,,,,down,0.633838346489938,3231.844285179137,None,001,57,2019_Oct_23_1704,ACPT_experiment_5_30_19,3.1.0,59.96957036398898,
,,,C,U,y,n,L,D,d,R,c ,,,,,6,18,138,17,3,0,3,0,,,,,0,16,16,13,,,,,,up,0.8840008198349096,3233.7624384555747,None,001,57,2019_Oct_23_1704,ACPT_experiment_5_30_19,3.1.0,59.96957036398898,
,,,C,U,y,n,R,U,y,R,u,,,,,6,18,138,17,3,0,3,0,,,,,0,17,17,31,,,,,,down,0.5670991541701369,3235.930748470124,None,001,57,2019_Oct_23_1704,ACPT_experiment_5_30_19,3.1.0,59.96957036398898,
,,,C,U,y,n,L,D,d,L,c ,,,,,6,18,138,17,3,0,3,0,,,,,0,18,18,12,,,,,,up,0.9340350652673806,3237.7821640635193,None,001,57,2019_Oct_23_1704,ACPT_experiment_5_30_19,3.1.0,59.96957036398898,
,,,C,U,y,n,L,U,y,L,u,,,,,6,18,138,17,3,0,3,0,,,,,0,19,19,24,,,,,,down,0.6171663017739775,3240.0005047012346,None,001,57,2019_Oct_23_1704,ACPT_experiment_5_30_19,3.1.0,59.96957036398898,
,,,C,U,y,n,R,G,g,R,c ,,,,,6,18,138,17,3,0,3,0,,,,,0,20,20,7,,,,,,up,0.7667948241542035,3241.9190567278747,None,001,57,2019_Oct_23_1704,ACPT_experiment_5_30_19,3.1.0,59.96957036398898,
,,,C,U,y,n,R,G,y,R,y,,,,,6,18,138,17,3,0,3,0,,,,,0,21,21,29,,,,,,down,0.6004604493246006,3243.95350590775,None,001,57,2019_Oct_23_1704,ACPT_experiment_5_30_19,3.1.0,59.96957036398898,
,,,C,U,y,n,L,D,g,L,i,,,,,6,18,138,17,3,0,3,0,,,,,0,22,22,14,,,,,,down,0.7839268955940497,3245.8382716276683,None,001,57,2019_Oct_23_1704,ACPT_experiment_5_30_19,3.1.0,59.96957036398898,
,,,C,U,y,n,R,D,d,R,c ,,,,,6,18,138,17,3,0,3,0,,,,,0,23,23,1,,,,,,up,0.6004776550471433,3247.9064896066848,None,001,57,2019_Oct_23_1704,ACPT_experiment_5_30_19,3.1.0,59.96957036398898,
,,,C,U,y,n,L,D,y,L,y,,,,,6,18,138,17,3,0,3,0,,,,,0,24,24,32,,,,,,down,0.5504150352680881,3249.791274343457,None,001,57,2019_Oct_23_1704,ACPT_experiment_5_30_19,3.1.0,59.96957036398898,
,,,C,U,y,n,R,U,d,L,u,,,,,6,18,138,17,3,0,3,0,,,,,0,25,25,8,,,,,,down,0.5502994248781761,3251.6260024975454,None,001,57,2019_Oct_23_1704,ACPT_experiment_5_30_19,3.1.0,59.96957036398898,
,,,C,U,y,n,L,D,y,R,y,,,,,6,18,138,17,3,0,3,0,,,,,0,26,26,33,,,,,,down,0.6504952984578267,3253.460724312681,None,001,57,2019_Oct_23_1704,ACPT_experiment_5_30_19,3.1.0,59.96957036398898,
,,,C,U,y,n,R,G,d,R,i,,,,,6,18,138,17,3,0,3,0,,,,,0,27,27,5,,,,,,down,2.4351783403508307,3255.3955285039956,None,001,57,2019_Oct_23_1704,ACPT_experiment_5_30_19,3.1.0,59.96957036398898,
,,,C,U,y,n,R,U,g,R,u,,,,,6,18,138,17,3,0,3,0,,,,,0,28,28,11,,,,,,down,1.2509394476219313,3259.115036263327,None,001,57,2019_Oct_23_1704,ACPT_experiment_5_30_19,3.1.0,59.96957036398898,
,,,C,U,y,n,R,G,y,L,y,,,,,6,18,138,17,3,0,3,0,,,,,0,29,29,28,,,,,,down,1.0674775291736296,3261.6502809815465,None,001,57,2019_Oct_23_1704,ACPT_experiment_5_30_19,3.1.0,59.96957036398898,
,,,C,U,y,n,L,G,d,R,i,,,,,6,18,138,17,3,0,3,0,,,,,0,30,30,17,,,,,,down,0.934040196796559,3264.002067101719,None,001,57,2019_Oct_23_1704,ACPT_experiment_5_30_19,3.1.0,59.96957036398898,
,,,C,U,y,n,L,D,g,R,i,,,,,6,18,138,17,3,0,3,0,,,,,0,31,31,15,,,,,,down,0.9507225045745145,3266.220419511774,None,001,57,2019_Oct_23_1704,ACPT_experiment_5_30_19,3.1.0,59.96957036398898,
,,,C,U,y,n,R,D,y,R,y,,,,,6,18,138,17,3,0,3,0,,,,,0,32,32,27,,,,,,down,0.5837745192911825,3268.455444872103,None,001,57,2019_Oct_23_1704,ACPT_experiment_5_30_19,3.1.0,59.96957036398898,
,,,C,U,y,n,L,G,d,L,i,,,,,6,18,138,17,3,0,3,0,,,,,0,33,33,16,,,,,,down,0.7172344907739898,3270.323510172959,None,001,57,2019_Oct_23_1704,ACPT_experiment_5_30_19,3.1.0,59.96957036398898,
,,,C,U,y,n,L,G,y,R,y,,,,,6,18,138,17,3,0,3,0,,,,,0,34,34,35,,,,,,down,0.683684838226327,3272.341869284188,None,001,57,2019_Oct_23_1704,ACPT_experiment_5_30_19,3.1.0,59.96957036398898,
,,,C,U,y,n,L,U,d,L,u,,,,,6,18,138,17,3,0,3,0,,,,,0,35,35,20,,,,,,down,0.9007130112404411,3274.32655136014,None,001,57,2019_Oct_23_1704,ACPT_experiment_5_30_19,3.1.0,59.96957036398898,
,,,C,U,y,n,L,G,g,L,c ,,,,,6,18,138,17,3,0,3,0,,,,,1,0,36,18,,,,,,up,0.783947119867662,3276.511541267624,None,001,57,2019_Oct_23_1704,ACPT_experiment_5_30_19,3.1.0,59.96957036398898,
,,,C,U,y,n,R,U,g,L,u,,,,,6,18,138,17,3,0,3,0,,,,,1,1,37,10,,,,,,down,0.6838466324006731,3278.5798036192973,None,001,57,2019_Oct_23_1704,ACPT_experiment_5_30_19,3.1.0,59.96957036398898,
,,,C,U,y,n,R,U,d,L,u,,,,,6,18,138,17,3,0,3,0,,,,,1,2,38,8,,,,,,down,0.9006831276128651,3280.547961861248,None,001,57,2019_Oct_23_1704,ACPT_experiment_5_30_19,3.1.0,59.96957036398898,
,,,C,U,y,n,L,G,y,L,y,,,,,6,18,138,17,3,0,3,0,,,,,1,3,39,34,,,,,,down,0.6171330977449543,3282.732957805827,None,001,57,2019_Oct_23_1704,ACPT_experiment_5_30_19,3.1.0,59.96957036398898,
,,,C,U,y,n,L,G,y,R,y,,,,,6,18,138,17,3,0,3,0,,,,,1,4,40,35,,,,,,down,0.7505822024577355,3284.6343819869944,None,001,57,2019_Oct_23_1704,ACPT_experiment_5_30_19,3.1.0,59.96957036398898,
,,,C,U,y,n,L,D,d,R,c ,,,,,6,18,138,17,3,0,3,0,,,,,1,5,41,13,,,,,,up,0.6671930008305935,3286.6692558765826,None,001,57,2019_Oct_23_1704,ACPT_experiment_5_30_19,3.1.0,59.96957036398898,
,,,C,U,y,n,R,G,y,L,y,,,,,6,18,138,17,3,0,3,0,,,,,1,6,42,28,,,,,,down,0.6505173338591703,3288.6207351311605,None,001,57,2019_Oct_23_1704,ACPT_experiment_5_30_19,3.1.0,59.96957036398898,
,,,C,U,y,n,R,G,d,L,i,,,,,6,18,138,17,3,0,3,0,,,,,1,7,43,4,,,,,,down,0.7505652985928464,3290.5555652819858,None,001,57,2019_Oct_23_1704,ACPT_experiment_5_30_19,3.1.0,59.96957036398898,
,,,C,U,y,n,R,G,d,R,i,,,,,6,18,138,17,3,0,3,0,,,,,1,8,44,5,,,,,,down,0.884021647820191,3292.5737429784785,None,001,57,2019_Oct_23_1704,ACPT_experiment_5_30_19,3.1.0,59.96957036398898,
,,,C,U,y,n,L,U,y,R,u,,,,,6,18,138,17,3,0,3,0,,,,,1,9,45,25,,,,,,down,0.6836259765368595,3294.775685655648,None,001,57,2019_Oct_23_1704,ACPT_experiment_5_30_19,3.1.0,59.96957036398898,
,,,C,U,y,n,R,U,y,R,u,,,,,6,18,138,17,3,0,3,0,,,,,1,10,46,31,,,,,,down,1.0507897880088422,3296.7602753640276,None,001,57,2019_Oct_23_1704,ACPT_experiment_5_30_19,3.1.0,59.96957036398898,
,,,C,U,y,n,R,G,g,R,c ,,,,,6,18,138,17,3,0,3,0,,,,,1,11,47,7,,,,,,up,1.3343527976358018,3299.095380383842,None,001,57,2019_Oct_23_1704,ACPT_experiment_5_30_19,3.1.0,59.96957036398898,
,,,C,U,y,n,R,D,g,R,i,,,,,6,18,138,17,3,0,3,0,,,,,1,12,48,3,,,,,,down,0.7505695245563402,3301.7140387539293,None,001,57,2019_Oct_23_1704,ACPT_experiment_5_30_19,3.1.0,59.96957036398898,
,,,C,U,y,n,L,D,g,L,i,,,,,6,18,138,17,3,0,3,0,,,,,1,13,49,14,,,,,,down,4.303254206119163,3303.748918378762,None,001,57,2019_Oct_23_1704,ACPT_experiment_5_30_19,3.1.0,59.96957036398898,
,,,C,U,y,n,L,U,y,L,u,,,,,6,18,138,17,3,0,3,0,,,,,1,14,50,24,,,,,,down,2.702062966309313,3309.3364950612013,None,001,57,2019_Oct_23_1704,ACPT_experiment_5_30_19,3.1.0,59.96957036398898,
,,,C,U,y,n,L,D,d,L,c ,,,,,6,18,138,17,3,0,3,0,,,,,1,15,51,12,,,,,,up,0.8339653669936524,3313.322849714641,None,001,57,2019_Oct_23_1704,ACPT_experiment_5_30_19,3.1.0,59.96957036398898,
,,,C,U,y,n,L,U,d,R,u,,,,,6,18,138,17,3,0,3,0,,,,,1,16,52,21,,,,,,down,3.052314154789201,3315.441128804163,None,001,57,2019_Oct_23_1704,ACPT_experiment_5_30_19,3.1.0,59.96957036398898,
,,,C,U,y,n,R,U,g,R,u,,,,,6,18,138,17,3,0,3,0,,,,,1,17,53,11,,,,,,down,3.769556795643439,3319.777730721966,None,001,57,2019_Oct_23_1704,ACPT_experiment_5_30_19,3.1.0,59.96957036398898,
,,,C,U,y,n,L,G,d,R,i,,,,,6,18,138,17,3,0,3,0,,,,,1,18,54,17,,,,,,down,1.584548173159419,3324.8316069753782,None,001,57,2019_Oct_23_1704,ACPT_experiment_5_30_19,3.1.0,59.96957036398898,
,,,C,U,y,n,R,D,d,L,c,,,,,6,18,138,17,3,0,3,0,,,,,1,19,55,0,,,,,,up,0.917344003701146,3327.7004540801863,None,001,57,2019_Oct_23_1704,ACPT_experiment_5_30_19,3.1.0,59.96957036398898,
,,,C,U,y,n,R,U,d,R,u,,,,,6,18,138,17,3,0,3,0,,,,,1,20,56,9,,,,,,down,1.6012123696491471,3329.902111202704,None,001,57,2019_Oct_23_1704,ACPT_experiment_5_30_19,3.1.0,59.96957036398898,
,,,C,U,y,n,R,D,y,L,y,,,,,6,18,138,17,3,0,3,0,,,,,1,21,57,26,,,,,,down,0.7005292420326441,3332.78763397448,None,001,57,2019_Oct_23_1704,ACPT_experiment_5_30_19,3.1.0,59.96957036398898,
,,,C,U,y,n,L,U,g,L,u,,,,,6,18,138,17,3,0,3,0,,,,,1,22,58,22,,,,,,down,1.334364268117497,3334.7724515832415,None,001,57,2019_Oct_23_1704,ACPT_experiment_5_30_19,3.1.0,59.96957036398898,
,,,C,U,y,n,R,G,y,R,y,,,,,6,18,138,17,3,0,3,0,,,,,1,23,59,29,,,,,,down,0.9674078308962635,3337.391132290584,None,001,57,2019_Oct_23_1704,ACPT_experiment_5_30_19,3.1.0,59.96957036398898,
,,,C,U,y,n,L,U,g,R,u,,,,,6,18,138,17,3,0,3,0,,,,,1,24,60,23,,,,,,down,2.251712195931759,3339.642840864257,None,001,57,2019_Oct_23_1704,ACPT_experiment_5_30_19,3.1.0,59.96957036398898,
,,,C,U,y,n,L,D,g,R,i,,,,,6,18,138,17,3,0,3,0,,,,,1,25,61,15,,,,,,down,0.7672470026554947,3343.178858934494,None,001,57,2019_Oct_23_1704,ACPT_experiment_5_30_19,3.1.0,59.96957036398898,
,,,C,U,y,n,R,U,y,L,u,,,,,6,18,138,17,3,0,3,0,,,,,1,26,62,30,,,,,,down,0.5337342367638485,3345.23041905597,None,001,57,2019_Oct_23_1704,ACPT_experiment_5_30_19,3.1.0,59.96957036398898,
,,,C,U,y,n,L,G,g,R,c ,,,,,6,18,138,17,3,0,3,0,,,,,1,27,63,19,,,,,,up,0.7005669738828146,3347.0484425650284,None,001,57,2019_Oct_23_1704,ACPT_experiment_5_30_19,3.1.0,59.96957036398898,
,,,C,U,y,n,L,G,d,L,i,,,,,6,18,138,17,3,0,3,0,,,,,1,28,64,16,,,,,,down,0.9006891647113662,3349.033303640881,None,001,57,2019_Oct_23_1704,ACPT_experiment_5_30_19,3.1.0,59.96957036398898,
,,,C,U,y,n,R,G,g,L,c ,,,,,6,18,138,17,3,0,3,0,,,,,1,29,65,6,,,,,,up,2.4518630629645486,3351.2182959632046,None,001,57,2019_Oct_23_1704,ACPT_experiment_5_30_19,3.1.0,59.96957036398898,
,,,C,U,y,n,R,D,g,L,i,,,,,6,18,138,17,3,0,3,0,,,,,1,30,66,2,,,,,,down,0.6171512090331817,3354.937767499956,None,001,57,2019_Oct_23_1704,ACPT_experiment_5_30_19,3.1.0,59.96957036398898,
,,,C,U,y,n,L,D,y,R,y,,,,,6,18,138,17,3,0,3,0,,,,,1,31,67,33,,,,,,down,0.6838556880466058,3356.8392318278093,None,001,57,2019_Oct_23_1704,ACPT_experiment_5_30_19,3.1.0,59.96957036398898,
,,,C,U,y,n,L,D,y,L,y,,,,,6,18,138,17,3,0,3,0,,,,,1,32,68,32,,,,,,down,0.5505656608147547,3358.7905628716762,None,001,57,2019_Oct_23_1704,ACPT_experiment_5_30_19,3.1.0,59.96957036398898,
,,,C,U,y,n,R,D,y,R,y,,,,,6,18,138,17,3,0,3,0,,,,,1,33,69,27,,,,,,down,0.6335618474840885,3360.6423729893068,None,001,57,2019_Oct_23_1704,ACPT_experiment_5_30_19,3.1.0,59.96957036398898,
,,,C,U,y,n,L,U,d,L,u,,,,,6,18,138,17,3,0,3,0,,,,,1,34,70,20,,,,,,down,0.8172887944565446,3362.5602413148044,None,001,57,2019_Oct_23_1704,ACPT_experiment_5_30_19,3.1.0,59.96957036398898,
,,,C,U,y,n,R,D,d,R,c ,,,,,6,18,138,17,3,0,3,0,,,,,1,35,71,1,,,,,,up,1.501136634276918,3364.661842624373,None,001,57,2019_Oct_23_1704,ACPT_experiment_5_30_19,3.1.0,59.96957036398898,
,,,C,U,y,n,,,,,,,,,,6,18,138,17,4,0,4,0,0,0,0,0,,,,,,,,,,,,,,001,57,2019_Oct_23_1704,ACPT_experiment_5_30_19,3.1.0,59.96957036398898,
,,,C,U,y,n,L,U,g,R,u,,,,,6,18,138,17,4,0,4,0,,,,,0,0,0,23,,,,,,down,1.0839186549601436,3371.3171247363643,None,001,57,2019_Oct_23_1704,ACPT_experiment_5_30_19,3.1.0,59.96957036398898,
,,,C,U,y,n,R,G,d,L,i,,,,,6,18,138,17,4,0,4,0,,,,,0,1,1,4,,,,,,down,0.8338304378921748,3373.6854573296514,None,001,57,2019_Oct_23_1704,ACPT_experiment_5_30_19,3.1.0,59.96957036398898,
,,,C,U,y,n,L,U,y,R,u,,,,,6,18,138,17,4,0,4,0,,,,,0,2,2,25,,,,,,down,0.7171979663435195,3375.8203239445393,None,001,57,2019_Oct_23_1704,ACPT_experiment_5_30_19,3.1.0,59.96957036398898,
,,,C,U,y,n,R,G,g,L,c ,,,,,6,18,138,17,4,0,4,0,,,,,0,3,3,6,,,,,,up,0.8173087168725033,3377.838506168853,None,001,57,2019_Oct_23_1704,ACPT_experiment_5_30_19,3.1.0,59.96957036398898,
,,,C,U,y,n,L,G,g,R,c ,,,,,6,18,138,17,4,0,4,0,,,,,0,4,4,19,,,,,,up,1.267660392815742,3379.9234040408082,None,001,57,2019_Oct_23_1704,ACPT_experiment_5_30_19,3.1.0,59.96957036398898,
,,,C,U,y,n,R,G,y,L,y,,,,,6,18,138,17,4,0,4,0,,,,,0,5,5,28,,,,,,down,0.567097041192028,3382.4753642708347,None,001,57,2019_Oct_23_1704,ACPT_experiment_5_30_19,3.1.0,59.96957036398898,
,,,C,U,y,n,L,U,y,L,u,,,,,6,18,138,17,4,0,4,0,,,,,0,6,6,24,,,,,,down,0.583768784046697,3384.3267735252775,None,001,57,2019_Oct_23_1704,ACPT_experiment_5_30_19,3.1.0,59.96957036398898,
,,,C,U,y,n,L,G,d,L,i,,,,,6,18,138,17,4,0,4,0,,,,,0,7,7,16,,,,,,down,0.8840273830610386,3386.1948391279875,None,001,57,2019_Oct_23_1704,ACPT_experiment_5_30_19,3.1.0,59.96957036398898,
,,,C,U,y,n,R,G,y,R,y,,,,,6,18,138,17,4,0,4,0,,,,,0,8,8,29,,,,,,down,0.5336011187937402,3388.379984490697,None,001,57,2019_Oct_23_1704,ACPT_experiment_5_30_19,3.1.0,59.96957036398898,
,,,C,U,y,n,R,U,y,R,u,,,,,6,18,138,17,4,0,4,0,,,,,0,9,9,31,,,,,,down,0.5170470993107301,3390.2146115234245,None,001,57,2019_Oct_23_1704,ACPT_experiment_5_30_19,3.1.0,59.96957036398898,
,,,C,U,y,n,R,D,y,L,y,,,,,6,18,138,17,4,0,4,0,,,,,0,10,10,26,,,,,,down,0.667190585994831,3392.0159267651907,None,001,57,2019_Oct_23_1704,ACPT_experiment_5_30_19,3.1.0,59.96957036398898,
,,,C,U,y,n,R,U,d,L,u,,,,,6,18,138,17,4,0,4,0,,,,,0,11,11,8,,,,,,down,0.7339062336322968,3393.9674072271882,None,001,57,2019_Oct_23_1704,ACPT_experiment_5_30_19,3.1.0,59.96957036398898,
,,,C,U,y,n,L,D,y,R,y,,,,,6,18,138,17,4,0,4,0,,,,,0,12,12,33,,,,,,down,0.5837989695282886,3395.9856018275495,None,001,57,2019_Oct_23_1704,ACPT_experiment_5_30_19,3.1.0,59.96957036398898,
,,,C,U,y,n,R,D,y,R,y,,,,,6,18,138,17,4,0,4,0,,,,,0,13,13,27,,,,,,down,0.48345307410272653,3397.8706380093754,None,001,57,2019_Oct_23_1704,ACPT_experiment_5_30_19,3.1.0,59.96957036398898,
,,,C,U,y,n,L,D,g,L,i,,,,,6,18,138,17,4,0,4,0,,,,,0,14,14,14,,,,,,down,0.7839199529335019,3399.638402994882,None,001,57,2019_Oct_23_1704,ACPT_experiment_5_30_19,3.1.0,59.96957036398898,
,,,C,U,y,n,R,G,d,R,i,,,,,6,18,138,17,4,0,4,0,,,,,0,15,15,5,,,,,,down,0.7005983667841065,3401.7066233887344,None,001,57,2019_Oct_23_1704,ACPT_experiment_5_30_19,3.1.0,59.96957036398898,
,,,C,U,y,n,L,U,g,L,u,,,,,6,18,138,17,4,0,4,0,,,,,0,16,16,22,,,,,,down,0.6671984342174255,3403.6914726922514,None,001,57,2019_Oct_23_1704,ACPT_experiment_5_30_19,3.1.0,59.96957036398898,
,,,C,U,y,n,L,U,d,R,u,,,,,6,18,138,17,4,0,4,0,,,,,0,17,17,21,,,,,,down,0.4169807214384491,3405.642960096906,None,001,57,2019_Oct_23_1704,ACPT_experiment_5_30_19,3.1.0,59.96957036398898,
,,,C,U,y,n,R,D,g,L,i,,,,,6,18,138,17,4,0,4,0,,,,,0,18,18,2,,,,,,down,0.6004565252114844,3407.3442497111973,None,001,57,2019_Oct_23_1704,ACPT_experiment_5_30_19,3.1.0,59.96957036398898,
,,,C,U,y,n,L,G,g,L,c ,,,,,6,18,138,17,4,0,4,0,,,,,0,19,19,18,,,,,,up,0.6338132925375248,3409.2290196570866,None,001,57,2019_Oct_23_1704,ACPT_experiment_5_30_19,3.1.0,59.96957036398898,
,,,C,U,y,n,L,D,y,L,y,,,,,6,18,138,17,4,0,4,0,,,,,0,20,20,32,,,,,,down,0.5501321973133599,3411.164101252969,None,001,57,2019_Oct_23_1704,ACPT_experiment_5_30_19,3.1.0,59.96957036398898,
,,,C,U,y,n,L,G,y,R,y,,,,,6,18,138,17,4,0,4,0,,,,,0,21,21,35,,,,,,down,0.5170748699529213,3412.998529665234,None,001,57,2019_Oct_23_1704,ACPT_experiment_5_30_19,3.1.0,59.96957036398898,
,,,C,U,y,n,L,G,d,R,i,,,,,6,18,138,17,4,0,4,0,,,,,0,22,22,17,,,,,,down,0.5337330293441482,3414.799917050299,None,001,57,2019_Oct_23_1704,ACPT_experiment_5_30_19,3.1.0,59.96957036398898,
,,,C,U,y,n,L,D,g,R,i,,,,,6,18,138,17,4,0,4,0,,,,,0,23,23,15,,,,,,down,0.7505960877788311,3416.617960783624,None,001,57,2019_Oct_23_1704,ACPT_experiment_5_30_19,3.1.0,59.96957036398898,
,,,C,U,y,n,R,U,g,L,u,,,,,6,18,138,17,4,0,4,0,,,,,0,24,24,10,,,,,,down,0.6671754932503973,3418.652841314022,None,001,57,2019_Oct_23_1704,ACPT_experiment_5_30_19,3.1.0,59.96957036398898,
,,,C,U,y,n,L,D,d,L,c ,,,,,6,18,138,17,4,0,4,0,,,,,0,25,25,12,,,,,,down,0.6338163110849564,3420.604322983436,None,001,57,2019_Oct_23_1704,ACPT_experiment_5_30_19,3.1.0,59.96957036398898,
,,,C,U,y,n,R,D,d,L,c,,,,,6,18,138,17,4,0,4,0,,,,,0,26,26,0,,,,,,up,0.6671694561591721,3422.5224527151986,None,001,57,2019_Oct_23_1704,ACPT_experiment_5_30_19,3.1.0,59.96957036398898,
,,,C,U,y,n,R,G,g,R,c ,,,,,6,18,138,17,4,0,4,0,,,,,0,27,27,7,,,,,,up,1.050770167450537,3424.490627861014,None,001,57,2019_Oct_23_1704,ACPT_experiment_5_30_19,3.1.0,59.96957036398898,
,,,C,U,y,n,R,U,d,R,u,,,,,6,18,138,17,4,0,4,0,,,,,0,28,28,9,,,,,,down,0.7672506249145954,3426.8257138639783,None,001,57,2019_Oct_23_1704,ACPT_experiment_5_30_19,3.1.0,59.96957036398898,
,,,C,U,y,n,L,G,y,L,y,,,,,6,18,138,17,4,0,4,0,,,,,0,29,29,34,,,,,,down,0.6004516955326835,3428.877277305859,None,001,57,2019_Oct_23_1704,ACPT_experiment_5_30_19,3.1.0,59.96957036398898,
,,,C,U,y,n,L,U,d,L,u,,,,,6,18,138,17,4,0,4,0,,,,,0,30,30,20,,,,,,down,0.7505323964178388,3430.762072607551,None,001,57,2019_Oct_23_1704,ACPT_experiment_5_30_19,3.1.0,59.96957036398898,
,,,C,U,y,n,R,U,y,L,u,,,,,6,18,138,17,4,0,4,0,,,,,0,31,31,30,,,,,,down,0.5671145487685862,3432.8135747729066,None,001,57,2019_Oct_23_1704,ACPT_experiment_5_30_19,3.1.0,59.96957036398898,
,,,C,U,y,n,L,D,d,R,c ,,,,,6,18,138,17,4,0,4,0,,,,,0,32,32,13,,,,,,up,0.6338135943951784,3434.681681729722,None,001,57,2019_Oct_23_1704,ACPT_experiment_5_30_19,3.1.0,59.96957036398898,
,,,C,U,y,n,R,D,d,R,c ,,,,,6,18,138,17,4,0,4,0,,,,,0,33,33,1,,,,,,down,0.683848745386058,3436.5998048206784,None,001,57,2019_Oct_23_1704,ACPT_experiment_5_30_19,3.1.0,59.96957036398898,
,,,C,U,y,n,R,U,g,R,u,,,,,6,18,138,17,4,0,4,0,,,,,0,34,34,11,,,,,,down,2.184953986761684,3438.5680083408515,None,001,57,2019_Oct_23_1704,ACPT_experiment_5_30_19,3.1.0,59.96957036398898,
,,,C,U,y,n,R,D,g,R,i,,,,,6,18,138,17,4,0,4,0,,,,,0,35,35,3,,,,,,down,2.8521560432382103,3442.0372654852254,None,001,57,2019_Oct_23_1704,ACPT_experiment_5_30_19,3.1.0,59.96957036398898,
,,,C,U,y,n,L,G,d,L,i,,,,,6,18,138,17,4,0,4,0,,,,,1,0,36,16,,,,,,down,0.9340395930885279,3446.1737440047837,None,001,57,2019_Oct_23_1704,ACPT_experiment_5_30_19,3.1.0,59.96957036398898,
,,,C,U,y,n,R,U,y,R,u,,,,,6,18,138,17,4,0,4,0,,,,,1,1,37,31,,,,,,down,0.8840125921742583,3448.3920888684697,None,001,57,2019_Oct_23_1704,ACPT_experiment_5_30_19,3.1.0,59.96957036398898,
,,,C,U,y,n,R,D,y,L,y,,,,,6,18,138,17,4,0,4,0,,,,,1,2,38,26,,,,,,down,0.6338338186651526,3450.5604079386576,None,001,57,2019_Oct_23_1704,ACPT_experiment_5_30_19,3.1.0,59.96957036398898,
,,,C,U,y,n,R,U,y,L,u,,,,,6,18,138,17,4,0,4,0,,,,,1,3,39,30,,,,,,down,0.5838291550098802,3452.478508692362,None,001,57,2019_Oct_23_1704,ACPT_experiment_5_30_19,3.1.0,59.96957036398898,
,,,C,U,y,n,L,U,d,R,u,,,,,6,18,138,17,4,0,4,0,,,,,1,4,40,21,,,,,,down,0.6838418027255102,3454.346619271437,None,001,57,2019_Oct_23_1704,ACPT_experiment_5_30_19,3.1.0,59.96957036398898,
,,,C,U,y,n,R,D,d,R,c ,,,,,6,18,138,17,4,0,4,0,,,,,1,5,41,1,,,,,,up,0.767240663706616,3456.314776909676,None,001,57,2019_Oct_23_1704,ACPT_experiment_5_30_19,3.1.0,59.96957036398898,
,,,C,U,y,n,L,U,y,L,u,,,,,6,18,138,17,4,0,4,0,,,,,1,6,42,24,,,,,,down,0.5835879730184388,3458.3998580074986,None,001,57,2019_Oct_23_1704,ACPT_experiment_5_30_19,3.1.0,59.96957036398898,
,,,C,U,y,n,L,D,d,R,c ,,,,,6,18,138,17,4,0,4,0,,,,,1,7,43,13,,,,,,up,0.6004577326311846,3460.284454085013,None,001,57,2019_Oct_23_1704,ACPT_experiment_5_30_19,3.1.0,59.96957036398898,
,,,C,U,y,n,R,U,g,L,u,,,,,6,18,138,17,4,0,4,0,,,,,1,8,44,10,,,,,,down,0.8172727961500641,3462.1692364069495,None,001,57,2019_Oct_23_1704,ACPT_experiment_5_30_19,3.1.0,59.96957036398898,
,,,C,U,y,n,L,G,g,R,c ,,,,,6,18,138,17,4,0,4,0,,,,,1,9,45,19,,,,,,up,0.6504774890272529,3464.270830773854,None,001,57,2019_Oct_23_1704,ACPT_experiment_5_30_19,3.1.0,59.96957036398898,
,,,C,U,y,n,L,D,g,L,i,,,,,6,18,138,17,4,0,4,0,,,,,1,10,46,14,,,,,,down,0.7335092945613724,3466.2226734616197,None,001,57,2019_Oct_23_1704,ACPT_experiment_5_30_19,3.1.0,59.96957036398898,
,,,C,U,y,n,R,U,g,R,u,,,,,6,18,138,17,4,0,4,0,,,,,1,11,47,11,,,,,,down,1.1675535663998744,3468.2404988935486,None,001,57,2019_Oct_23_1704,ACPT_experiment_5_30_19,3.1.0,59.96957036398898,
,,,C,U,y,n,L,U,y,R,u,,,,,6,18,138,17,4,0,4,0,,,,,1,12,48,25,,,,,,down,0.6004444510181202,3470.7090436605795,None,001,57,2019_Oct_23_1704,ACPT_experiment_5_30_19,3.1.0,59.96957036398898,
,,,C,U,y,n,L,D,d,L,c ,,,,,6,18,138,17,4,0,4,0,,,,,1,13,49,12,,,,,,up,0.5337949095810472,3472.6104612009403,None,001,57,2019_Oct_23_1704,ACPT_experiment_5_30_19,3.1.0,59.96957036398898,
,,,C,U,y,n,R,D,g,L,i,,,,,6,18,138,17,4,0,4,0,,,,,1,14,50,2,,,,,,down,0.917360303858004,3474.428534817893,None,001,57,2019_Oct_23_1704,ACPT_experiment_5_30_19,3.1.0,59.96957036398898,
,,,C,U,y,n,L,U,d,L,u,,,,,6,18,138,17,4,0,4,0,,,,,1,15,51,20,,,,,,down,0.884032514593855,3476.630197675655,None,001,57,2019_Oct_23_1704,ACPT_experiment_5_30_19,3.1.0,59.96957036398898,
,,,C,U,y,n,L,G,y,L,y,,,,,6,18,138,17,4,0,4,0,,,,,1,16,52,34,,,,,,down,0.6504454924179299,3478.8152902137736,None,001,57,2019_Oct_23_1704,ACPT_experiment_5_30_19,3.1.0,59.96957036398898,
,,,C,U,y,n,L,D,g,R,i,,,,,6,18,138,17,4,0,4,0,,,,,1,17,53,15,,,,,,down,1.4344043846213026,3480.78337419944,None,001,57,2019_Oct_23_1704,ACPT_experiment_5_30_19,3.1.0,59.96957036398898,
,,,C,U,y,n,R,G,d,R,i,,,,,6,18,138,17,4,0,4,0,,,,,1,18,54,5,,,,,,up,0.9673966622722219,3483.502091702885,None,001,57,2019_Oct_23_1704,ACPT_experiment_5_30_19,3.1.0,59.96957036398898,
,,,C,U,y,n,R,G,y,L,y,,,,,6,18,138,17,4,0,4,0,,,,,1,19,55,28,,,,,,down,0.6004749383537273,3485.7537773355907,None,001,57,2019_Oct_23_1704,ACPT_experiment_5_30_19,3.1.0,59.96957036398898,
,,,C,U,y,n,L,G,d,R,i,,,,,6,18,138,17,4,0,4,0,,,,,1,20,56,17,,,,,,down,0.6503775750861678,3487.6552434745754,None,001,57,2019_Oct_23_1704,ACPT_experiment_5_30_19,3.1.0,59.96957036398898,
,,,C,U,y,n,R,G,y,R,y,,,,,6,18,138,17,4,0,4,0,,,,,1,21,57,29,,,,,,down,0.5504150352644501,3489.6067275588284,None,001,57,2019_Oct_23_1704,ACPT_experiment_5_30_19,3.1.0,59.96957036398898,
,,,C,U,y,n,R,G,g,L,c ,,,,,6,18,138,17,4,0,4,0,,,,,1,22,58,6,,,,,,up,0.7505674115745933,3491.458132587308,None,001,57,2019_Oct_23_1704,ACPT_experiment_5_30_19,3.1.0,59.96957036398898,
,,,C,U,y,n,L,U,g,R,u,,,,,6,18,138,17,4,0,4,0,,,,,1,23,59,23,,,,,,down,0.7672457952357945,3493.4763383562968,None,001,57,2019_Oct_23_1704,ACPT_experiment_5_30_19,3.1.0,59.96957036398898,
,,,C,U,y,n,R,D,d,L,c,,,,,6,18,138,17,4,0,4,0,,,,,1,24,60,0,,,,,,up,0.6338129906835093,3495.5278867054367,None,001,57,2019_Oct_23_1704,ACPT_experiment_5_30_19,3.1.0,59.96957036398898,
,,,C,U,y,n,L,D,y,L,y,,,,,6,18,138,17,4,0,4,0,,,,,1,25,61,32,,,,,,down,0.6504838279797696,3497.4626978394117,None,001,57,2019_Oct_23_1704,ACPT_experiment_5_30_19,3.1.0,59.96957036398898,
,,,C,U,y,n,L,G,y,R,y,,,,,6,18,138,17,4,0,4,0,,,,,1,26,62,35,,,,,,down,1.417740489989228,3499.4141740754385,None,001,57,2019_Oct_23_1704,ACPT_experiment_5_30_19,3.1.0,59.96957036398898,
,,,C,U,y,n,R,U,d,L,u,,,,,6,18,138,17,4,0,4,0,,,,,1,27,63,8,,,,,,down,0.4837156877874804,3502.1162053469925,None,001,57,2019_Oct_23_1704,ACPT_experiment_5_30_19,3.1.0,59.96957036398898,
,,,C,U,y,n,L,G,g,L,c ,,,,,6,18,138,17,4,0,4,0,,,,,1,28,64,18,,,,,,up,0.7005310531603754,3503.884233851746,None,001,57,2019_Oct_23_1704,ACPT_experiment_5_30_19,3.1.0,59.96957036398898,
,,,C,U,y,n,L,U,g,L,u,,,,,6,18,138,17,4,0,4,0,,,,,1,29,65,22,,,,,,down,0.600467693839164,3505.8690725903434,None,001,57,2019_Oct_23_1704,ACPT_experiment_5_30_19,3.1.0,59.96957036398898,
,,,C,U,y,n,R,U,d,R,u,,,,,6,18,138,17,4,0,4,0,,,,,1,30,66,9,,,,,,down,0.7005280346129439,3507.7538386121196,None,001,57,2019_Oct_23_1704,ACPT_experiment_5_30_19,3.1.0,59.96957036398898,
,,,C,U,y,n,R,G,g,R,c ,,,,,6,18,138,17,4,0,4,0,,,,,1,31,67,7,,,,,,up,0.6504895632169791,3509.738683689666,None,001,57,2019_Oct_23_1704,ACPT_experiment_5_30_19,3.1.0,59.96957036398898,
,,,C,U,y,n,R,D,y,R,y,,,,,6,18,138,17,4,0,4,0,,,,,1,32,68,27,,,,,,down,0.9340661563110189,3511.673509010816,None,001,57,2019_Oct_23_1704,ACPT_experiment_5_30_19,3.1.0,59.96957036398898,
,,,C,U,y,n,R,D,g,R,i,,,,,6,18,138,17,4,0,4,0,,,,,1,33,69,3,,,,,,down,0.7171852884421241,3513.891850554097,None,001,57,2019_Oct_23_1704,ACPT_experiment_5_30_19,3.1.0,59.96957036398898,
,,,C,U,y,n,R,G,d,L,i,,,,,6,18,138,17,4,0,4,0,,,,,1,34,70,4,,,,,,down,0.9006849387442344,3515.893354092892,None,001,57,2019_Oct_23_1704,ACPT_experiment_5_30_19,3.1.0,59.96957036398898,
,,,C,U,y,n,L,D,y,R,y,,,,,6,18,138,17,4,0,4,0,,,,,1,35,71,33,,,,,,down,0.6171330977485923,3518.0950287229934,None,001,57,2019_Oct_23_1704,ACPT_experiment_5_30_19,3.1.0,59.96957036398898,
,,,C,U,y,n,,,,,,,,,,6,18,138,17,5,0,5,0,0,0,0,0,,,,,,,,,,,,,,001,57,2019_Oct_23_1704,ACPT_experiment_5_30_19,3.1.0,59.96957036398898,
,,,C,U,y,n,L,D,d,R,c ,,,,,6,18,138,17,5,0,5,0,,,,,0,0,0,13,,,,,,up,0.7338866130703536,3521.214063958807,None,001,57,2019_Oct_23_1704,ACPT_experiment_5_30_19,3.1.0,59.96957036398898,
,,,C,U,y,n,R,G,d,L,i,,,,,6,18,138,17,5,0,5,0,,,,,0,1,1,4,,,,,,down,1.0841767408201122,3523.23226067215,None,001,57,2019_Oct_23_1704,ACPT_experiment_5_30_19,3.1.0,59.96957036398898,
,,,C,U,y,n,L,G,g,L,c ,,,,,6,18,138,17,5,0,5,0,,,,,0,2,2,18,,,,,,up,0.7839281030137499,3525.600727892681,None,001,57,2019_Oct_23_1704,ACPT_experiment_5_30_19,3.1.0,59.96957036398898,
,,,C,U,y,n,L,G,d,L,i,,,,,6,18,138,17,5,0,5,0,,,,,0,3,3,16,,,,,,down,1.2509841221362876,3527.6689657941133,None,001,57,2019_Oct_23_1704,ACPT_experiment_5_30_19,3.1.0,59.96957036398898,
,,,C,U,y,n,R,D,d,L,c,,,,,6,18,138,17,5,0,5,0,,,,,0,4,4,0,,,,,,up,0.6838526694991742,3530.204224699508,None,001,57,2019_Oct_23_1704,ACPT_experiment_5_30_19,3.1.0,59.96957036398898,
,,,C,U,y,n,R,D,d,R,c ,,,,,6,18,138,17,5,0,5,0,,,,,0,5,5,1,,,,,,up,0.8172712868763483,3532.1557021429544,None,001,57,2019_Oct_23_1704,ACPT_experiment_5_30_19,3.1.0,59.96957036398898,
,,,C,U,y,n,L,G,y,R,y,,,,,6,18,138,17,5,0,5,0,,,,,0,6,6,35,,,,,,down,0.6671863600276993,3534.2739610082062,None,001,57,2019_Oct_23_1704,ACPT_experiment_5_30_19,3.1.0,59.96957036398898,
,,,C,U,y,n,L,D,g,L,i,,,,,6,18,138,17,5,0,5,0,,,,,0,7,7,14,,,,,,down,0.7005235067917965,3536.242145511522,None,001,57,2019_Oct_23_1704,ACPT_experiment_5_30_19,3.1.0,59.96957036398898,
,,,C,U,y,n,R,G,y,L,y,,,,,6,18,138,17,5,0,5,0,,,,,0,8,8,28,,,,,,down,0.583776934126945,3538.226979722298,None,001,57,2019_Oct_23_1704,ACPT_experiment_5_30_19,3.1.0,59.96957036398898,
,,,C,U,y,n,L,D,g,R,i,,,,,6,18,138,17,5,0,5,0,,,,,0,9,9,15,,,,,,down,0.7002856452054402,3540.111996283562,None,001,57,2019_Oct_23_1704,ACPT_experiment_5_30_19,3.1.0,59.96957036398898,
,,,C,U,y,n,R,G,g,R,c ,,,,,6,18,138,17,5,0,5,0,,,,,0,10,10,7,,,,,,up,0.7839392716414295,3542.096584482668,None,001,57,2019_Oct_23_1704,ACPT_experiment_5_30_19,3.1.0,59.96957036398898,
,,,C,U,y,n,L,D,y,R,y,,,,,6,18,138,17,5,0,5,0,,,,,0,11,11,33,,,,,,down,0.5170806051937689,3544.1648012542646,None,001,57,2019_Oct_23_1704,ACPT_experiment_5_30_19,3.1.0,59.96957036398898,
,,,C,U,y,n,L,U,g,L,u,,,,,6,18,138,17,5,0,5,0,,,,,0,12,12,22,,,,,,down,0.7672518323342956,3545.966185922636,None,001,57,2019_Oct_23_1704,ACPT_experiment_5_30_19,3.1.0,59.96957036398898,
,,,C,U,y,n,R,U,y,L,u,,,,,6,18,138,17,5,0,5,0,,,,,0,13,13,30,,,,,,down,0.5504123185710341,3548.0177520812103,None,001,57,2019_Oct_23_1704,ACPT_experiment_5_30_19,3.1.0,59.96957036398898,
,,,C,U,y,n,R,D,y,R,y,,,,,6,18,138,17,5,0,5,0,,,,,0,14,14,27,,,,,,down,0.5504174501038506,3549.852478726025,None,001,57,2019_Oct_23_1704,ACPT_experiment_5_30_19,3.1.0,59.96957036398898,
,,,C,U,y,n,R,G,d,R,i,,,,,6,18,138,17,5,0,5,0,,,,,0,15,15,5,,,,,,down,0.6838556880466058,3551.68719208923,None,001,57,2019_Oct_23_1704,ACPT_experiment_5_30_19,3.1.0,59.96957036398898,
,,,C,U,y,n,L,D,d,L,c ,,,,,6,18,138,17,5,0,5,0,,,,,0,16,16,12,,,,,,up,0.7005533904157346,3553.6553409736807,None,001,57,2019_Oct_23_1704,ACPT_experiment_5_30_19,3.1.0,59.96957036398898,
,,,C,U,y,n,R,U,g,L,u,,,,,6,18,138,17,5,0,5,0,,,,,0,17,17,10,,,,,,down,0.3836363301561505,3555.640215632997,None,001,57,2019_Oct_23_1704,ACPT_experiment_5_30_19,3.1.0,59.96957036398898,
,,,C,U,y,n,L,G,g,R,c ,,,,,6,18,138,17,5,0,5,0,,,,,0,18,18,19,,,,,,down,0.46702673920299276,3557.2914592295274,None,001,57,2019_Oct_23_1704,ACPT_experiment_5_30_19,3.1.0,59.96957036398898,
,,,C,U,y,n,R,U,d,R,u,,,,,6,18,138,17,5,0,5,0,,,,,0,19,19,9,,,,,,down,0.8001543081772979,3559.059894030848,None,001,57,2019_Oct_23_1704,ACPT_experiment_5_30_19,3.1.0,59.96957036398898,
,,,C,U,y,n,R,U,g,R,u,,,,,6,18,138,17,5,0,5,0,,,,,0,20,20,11,,,,,,down,0.8340157767452183,3561.1276824704764,None,001,57,2019_Oct_23_1704,ACPT_experiment_5_30_19,3.1.0,59.96957036398898,
,,,C,U,y,n,R,D,y,L,y,,,,,6,18,138,17,5,0,5,0,,,,,0,21,21,26,,,,,,down,1.1006371853109158,3563.262822867673,None,001,57,2019_Oct_23_1704,ACPT_experiment_5_30_19,3.1.0,59.96957036398898,
,,,C,U,y,n,R,D,g,L,i,,,,,6,18,138,17,5,0,5,0,,,,,0,22,22,2,,,,,,down,0.9674039067867852,3565.6644847595016,None,001,57,2019_Oct_23_1704,ACPT_experiment_5_30_19,3.1.0,59.96957036398898,
,,,C,U,y,n,R,G,y,R,y,,,,,6,18,138,17,5,0,5,0,,,,,0,23,23,29,,,,,,down,0.6337988035083981,3567.9328868095763,None,001,57,2019_Oct_23_1704,ACPT_experiment_5_30_19,3.1.0,59.96957036398898,
,,,C,U,y,n,L,G,d,R,i,,,,,6,18,138,17,5,0,5,0,,,,,0,24,24,17,,,,,,down,0.8006019588574418,3569.8676765118616,None,001,57,2019_Oct_23_1704,ACPT_experiment_5_30_19,3.1.0,59.96957036398898,
,,,C,U,y,n,L,U,d,R,u,,,,,6,18,138,17,5,0,5,0,,,,,0,25,25,21,,,,,,down,0.5837775378349761,3571.952593098813,None,001,57,2019_Oct_23_1704,ACPT_experiment_5_30_19,3.1.0,59.96957036398898,
,,,C,U,y,n,R,U,y,R,u,,,,,6,18,138,17,5,0,5,0,,,,,0,26,26,31,,,,,,down,0.550430731716915,3573.8206753035374,None,001,57,2019_Oct_23_1704,ACPT_experiment_5_30_19,3.1.0,59.96957036398898,
,,,C,U,y,n,L,U,y,R,u,,,,,6,18,138,17,5,0,5,0,,,,,0,27,27,25,,,,,,down,0.4834944282156357,3575.6723263436834,None,001,57,2019_Oct_23_1704,ACPT_experiment_5_30_19,3.1.0,59.96957036398898,
,,,C,U,y,n,L,U,d,L,u,,,,,6,18,138,17,5,0,5,0,,,,,0,28,28,20,,,,,,down,0.5838004788020044,3577.423390910124,None,001,57,2019_Oct_23_1704,ACPT_experiment_5_30_19,3.1.0,59.96957036398898,
,,,C,U,y,n,L,U,g,R,u,,,,,6,18,138,17,5,0,5,0,,,,,0,29,29,23,,,,,,down,0.4169958141792449,3579.274803786826,None,001,57,2019_Oct_23_1704,ACPT_experiment_5_30_19,3.1.0,59.96957036398898,
,,,C,U,y,n,R,D,g,R,i,,,,,6,18,138,17,5,0,5,0,,,,,0,30,30,3,,,,,,down,0.8005862624049769,3580.9761341515186,None,001,57,2019_Oct_23_1704,ACPT_experiment_5_30_19,3.1.0,59.96957036398898,
,,,C,U,y,n,R,G,g,L,c ,,,,,6,18,138,17,5,0,5,0,,,,,0,31,31,6,,,,,,up,0.7005310531603754,3583.044351828681,None,001,57,2019_Oct_23_1704,ACPT_experiment_5_30_19,3.1.0,59.96957036398898,
,,,C,U,y,n,L,D,y,L,y,,,,,6,18,138,17,5,0,5,0,,,,,0,32,32,32,,,,,,down,0.6171306829055538,3585.0291947932456,None,001,57,2019_Oct_23_1704,ACPT_experiment_5_30_19,3.1.0,59.96957036398898,
,,,C,U,y,n,R,U,d,L,u,,,,,6,18,138,17,5,0,5,0,,,,,0,33,33,8,,,,,,down,0.6171364181500394,3586.930637689409,None,001,57,2019_Oct_23_1704,ACPT_experiment_5_30_19,3.1.0,59.96957036398898,
,,,C,U,y,n,L,U,y,L,u,,,,,6,18,138,17,5,0,5,0,,,,,0,34,34,24,,,,,,down,0.41696261015022174,3588.848772250847,None,001,57,2019_Oct_23_1704,ACPT_experiment_5_30_19,3.1.0,59.96957036398898,
,,,C,U,y,n,L,G,y,L,y,,,,,6,18,138,17,5,0,5,0,,,,,0,35,35,34,,,,,,down,0.7672500212029263,3590.550049790949,None,001,57,2019_Oct_23_1704,ACPT_experiment_5_30_19,3.1.0,59.96957036398898,
,,,C,U,y,n,R,U,d,L,u,,,,,6,18,138,17,5,0,5,0,,,,,1,0,36,8,,,,,,down,0.6004483751312364,3592.6016400979097,None,001,57,2019_Oct_23_1704,ACPT_experiment_5_30_19,3.1.0,59.96957036398898,
,,,C,U,y,n,L,D,g,R,i,,,,,6,18,138,17,5,0,5,0,,,,,1,1,37,15,,,,,,down,1.0841604406596161,3594.486374726781,None,001,57,2019_Oct_23_1704,ACPT_experiment_5_30_19,3.1.0,59.96957036398898,
,,,C,U,y,n,R,U,g,L,u,,,,,6,18,138,17,5,0,5,0,,,,,1,2,38,10,,,,,,down,0.7172468668250076,3596.8381318688917,None,001,57,2019_Oct_23_1704,ACPT_experiment_5_30_19,3.1.0,59.96957036398898,
,,,C,U,y,n,R,G,g,L,c ,,,,,6,18,138,17,5,0,5,0,,,,,1,3,39,6,,,,,,up,0.700531355018029,3598.839682798891,None,001,57,2019_Oct_23_1704,ACPT_experiment_5_30_19,3.1.0,59.96957036398898,
,,,C,U,y,n,L,D,d,L,c ,,,,,6,18,138,17,5,0,5,0,,,,,1,4,40,12,,,,,,up,0.6838384823240631,3600.8245333098275,None,001,57,2019_Oct_23_1704,ACPT_experiment_5_30_19,3.1.0,59.96957036398898,
,,,C,U,y,n,R,D,g,L,i,,,,,6,18,138,17,5,0,5,0,,,,,1,5,41,2,,,,,,down,0.733885707508307,3602.7926824961323,None,001,57,2019_Oct_23_1704,ACPT_experiment_5_30_19,3.1.0,59.96957036398898,
,,,C,U,y,n,L,D,y,L,y,,,,,6,18,138,17,5,0,5,0,,,,,1,6,42,32,,,,,,down,0.617136720004055,3604.810879813187,None,001,57,2019_Oct_23_1704,ACPT_experiment_5_30_19,3.1.0,59.96957036398898,
,,,C,U,y,n,R,D,y,R,y,,,,,6,18,138,17,5,0,5,0,,,,,1,7,43,27,,,,,,down,0.5671124357832014,3606.7289799631762,None,001,57,2019_Oct_23_1704,ACPT_experiment_5_30_19,3.1.0,59.96957036398898,
,,,C,U,y,n,R,G,y,L,y,,,,,6,18,138,17,5,0,5,0,,,,,1,8,44,28,,,,,,down,0.6171321921829076,3608.5970908441086,None,001,57,2019_Oct_23_1704,ACPT_experiment_5_30_19,3.1.0,59.96957036398898,
,,,C,U,y,n,L,G,d,L,i,,,,,6,18,138,17,5,0,5,0,,,,,1,9,45,16,,,,,,down,0.6505061652314907,3610.498519854951,None,001,57,2019_Oct_23_1704,ACPT_experiment_5_30_19,3.1.0,59.96957036398898,
