facing_vig,person_vig,text_vig,facing_train,person_train,food_train,correct_key_train,facing_exp,person_exp,food_exp,showL_R,consistent,vig_random.thisRepN,vig_random.thisTrialN,vig_random.thisN,vig_random.thisIndex,trainTrials.thisRepN,trainTrials.thisTrialN,trainTrials.thisN,trainTrials.thisIndex,expBlock.thisRepN,expBlock.thisTrialN,expBlock.thisN,expBlock.thisIndex,breakLoop.thisRepN,breakLoop.thisTrialN,breakLoop.thisN,breakLoop.thisIndex,expTrials.thisRepN,expTrials.thisTrialN,expTrials.thisN,expTrials.thisIndex,train_resp.keys,train_resp.corr,train_resp.rt,train_resp.started,train_resp.stopped,exp_resp.keys,exp_resp.rt,exp_resp.started,exp_resp.stopped,session,participant,date,expName,psychopyVersion,frameRate,
C,G,"cannot eat dairy products because she is lactose intolerant. She enjoys eating wheat products. She thinks eating insects, like crickets, is disgusting.",,,,,,,,,,0,0,0,0,,,,,,,,,,,,,,,,,,,,,,,,,,001,58,2019_Oct_24_1005,ACPT_experiment_5_30_19,3.1.0,59.927460465041285,
C,D,"is allergic to gluten, meaning she can’t eat wheat products. She enjoys eating dairy products. She thinks eating insects, like crickets, is disgusting.",,,,,,,,,,0,1,1,1,,,,,,,,,,,,,,,,,,,,,,,,,,001,58,2019_Oct_24_1005,ACPT_experiment_5_30_19,3.1.0,59.927460465041285,
C,U,"did not report her food preferences, so her food preferences are unknown.",,,,,,,,,,0,2,2,2,,,,,,,,,,,,,,,,,,,,,,,,,,001,58,2019_Oct_24_1005,ACPT_experiment_5_30_19,3.1.0,59.927460465041285,
,,,C,D,y,b,,,,,,,,,,0,0,0,11,,,,,,,,,,,,,b,1,4.436787347991412,1379.4144579120639,None,,,,,001,58,2019_Oct_24_1005,ACPT_experiment_5_30_19,3.1.0,59.927460465041285,
,,,C,D,d,v,,,,,,,,,,0,1,1,0,,,,,,,,,,,,,b,0,1.918161725331629,1387.1204412458092,None,,,,,001,58,2019_Oct_24_1005,ACPT_experiment_5_30_19,3.1.0,59.927460465041285,
,,,C,G,g,v,,,,,,,,,,0,2,2,13,,,,,,,,,,,,,v,1,3.9363961383742208,1392.3244712482065,None,,,,,001,58,2019_Oct_24_1005,ACPT_experiment_5_30_19,3.1.0,59.927460465041285,
,,,C,U,y,n,,,,,,,,,,0,3,3,8,,,,,,,,,,,,,n,1,2.2017129306250354,1399.5467368710833,None,,,,,001,58,2019_Oct_24_1005,ACPT_experiment_5_30_19,3.1.0,59.927460465041285,
,,,C,D,y,b,,,,,,,,,,0,4,4,2,,,,,,,,,,,,,b,1,3.119098575767566,1405.0343195880705,None,,,,,001,58,2019_Oct_24_1005,ACPT_experiment_5_30_19,3.1.0,59.927460465041285,
,,,C,U,y,n,,,,,,,,,,0,5,5,17,,,,,,,,,,,,,n,1,3.302552944607669,1411.4393108915056,None,,,,,001,58,2019_Oct_24_1005,ACPT_experiment_5_30_19,3.1.0,59.927460465041285,
,,,C,U,d,n,,,,,,,,,,0,6,6,15,,,,,,,,,,,,,n,1,1.718031442868778,1418.0277215481037,None,,,,,001,58,2019_Oct_24_1005,ACPT_experiment_5_30_19,3.1.0,59.927460465041285,
,,,C,U,g,n,,,,,,,,,,0,7,7,7,,,,,,,,,,,,,n,1,0.7005525835838853,1423.031601647186,None,,,,,001,58,2019_Oct_24_1005,ACPT_experiment_5_30_19,3.1.0,59.927460465041285,
,,,C,U,g,n,,,,,,,,,,0,8,8,16,,,,,,,,,,,,,n,1,0.700304757120648,1427.0182902570086,None,,,,,001,58,2019_Oct_24_1005,ACPT_experiment_5_30_19,3.1.0,59.927460465041285,
,,,C,G,d,b,,,,,,,,,,0,9,9,3,,,,,,,,,,,,,b,1,3.536052864010344,1431.0044753655666,None,,,,,001,58,2019_Oct_24_1005,ACPT_experiment_5_30_19,3.1.0,59.927460465041285,
,,,C,D,d,v,,,,,,,,,,0,10,10,9,,,,,,,,,,,,,v,1,2.2851338534565,1437.826379602524,None,,,,,001,58,2019_Oct_24_1005,ACPT_experiment_5_30_19,3.1.0,59.927460465041285,
,,,C,U,d,n,,,,,,,,,,0,11,11,6,,,,,,,,,,,,,n,1,1.5345372286055863,1443.3973820349056,None,,,,,001,58,2019_Oct_24_1005,ACPT_experiment_5_30_19,3.1.0,59.927460465041285,
,,,C,G,g,v,,,,,,,,,,0,12,12,4,,,,,,,,,,,,,v,1,5.037252150897984,1448.2177860312813,None,,,,,001,58,2019_Oct_24_1005,ACPT_experiment_5_30_19,3.1.0,59.927460465041285,
,,,C,D,d,v,,,,,,,,,,0,13,13,18,,,,,,,,,,,,,v,1,3.085728335106978,1456.5409073648225,None,,,,,001,58,2019_Oct_24_1005,ACPT_experiment_5_30_19,3.1.0,59.927460465041285,
,,,C,G,y,b,,,,,,,,,,0,14,14,5,,,,,,,,,,,,,b,1,1.8848204631603949,1462.9125103160404,None,,,,,001,58,2019_Oct_24_1005,ACPT_experiment_5_30_19,3.1.0,59.927460465041285,
,,,C,G,y,b,,,,,,,,,,0,15,15,14,,,,,,,,,,,,,b,1,1.3844721175610175,1468.0831842651633,None,,,,,001,58,2019_Oct_24_1005,ACPT_experiment_5_30_19,3.1.0,59.927460465041285,
,,,C,G,g,v,,,,,,,,,,0,16,16,19,,,,,,,,,,,,,v,1,1.8815208394580623,1472.7734685018904,None,,,,,001,58,2019_Oct_24_1005,ACPT_experiment_5_30_19,3.1.0,59.927460465041285,
,,,C,D,g,b,,,,,,,,,,0,17,17,10,,,,,,,,,,,,,b,1,3.202496859154053,1477.940818980428,None,,,,,001,58,2019_Oct_24_1005,ACPT_experiment_5_30_19,3.1.0,59.927460465041285,
,,,C,D,g,b,,,,,,,,,,0,18,18,1,,,,,,,,,,,,,b,1,1.3343800806687796,1484.4125003546842,None,,,,,001,58,2019_Oct_24_1005,ACPT_experiment_5_30_19,3.1.0,59.927460465041285,
,,,C,G,d,b,,,,,,,,,,0,19,19,12,,,,,,,,,,,,,b,1,1.8176585862966022,1489.0498336453547,None,,,,,001,58,2019_Oct_24_1005,ACPT_experiment_5_30_19,3.1.0,59.927460465041285,
,,,C,D,d,v,,,,,,,,,,1,0,20,9,,,,,,,,,,,,,v,1,2.0515983146597137,1494.1533870723333,None,,,,,001,58,2019_Oct_24_1005,ACPT_experiment_5_30_19,3.1.0,59.927460465041285,
,,,C,D,g,b,,,,,,,,,,1,1,21,1,,,,,,,,,,,,,b,1,2.8188639103691457,1499.4741750337025,None,,,,,001,58,2019_Oct_24_1005,ACPT_experiment_5_30_19,3.1.0,59.927460465041285,
,,,C,G,g,v,,,,,,,,,,1,2,22,13,,,,,,,,,,,,,v,1,2.018263089674292,1505.5789048062634,None,,,,,001,58,2019_Oct_24_1005,ACPT_experiment_5_30_19,3.1.0,59.927460465041285,
,,,C,D,d,v,,,,,,,,,,1,3,23,0,,,,,,,,,,,,,v,1,5.287438247139107,1510.8830201744622,None,,,,,001,58,2019_Oct_24_1005,ACPT_experiment_5_30_19,3.1.0,59.927460465041285,
,,,C,D,y,b,,,,,,,,,,1,4,24,11,,,,,,,,,,,,,b,1,2.0516206522452194,1519.4396498794677,None,,,,,001,58,2019_Oct_24_1005,ACPT_experiment_5_30_19,3.1.0,59.927460465041285,
,,,C,D,d,v,,,,,,,,,,1,5,25,18,,,,,,,,,,,,,b,0,1.8180836041519797,1524.7771222065185,None,,,,,001,58,2019_Oct_24_1005,ACPT_experiment_5_30_19,3.1.0,59.927460465041285,
,,,C,G,g,v,,,,,,,,,,1,6,26,4,,,,,,,,,,,,,v,1,2.4852991515945178,1529.8810740877361,None,,,,,001,58,2019_Oct_24_1005,ACPT_experiment_5_30_19,3.1.0,59.927460465041285,
,,,C,G,y,b,,,,,,,,,,1,7,27,5,,,,,,,,,,,,,b,1,1.434455485114995,1535.6355369261428,None,,,,,001,58,2019_Oct_24_1005,ACPT_experiment_5_30_19,3.1.0,59.927460465041285,
,,,C,U,y,n,,,,,,,,,,1,8,28,17,,,,,,,,,,,,,n,1,1.2173800305599798,1540.372786541423,None,,,,,001,58,2019_Oct_24_1005,ACPT_experiment_5_30_19,3.1.0,59.927460465041285,
,,,C,U,d,n,,,,,,,,,,1,9,29,15,,,,,,,,,,,,,n,1,1.7847281545955411,1544.85934927593,None,,,,,001,58,2019_Oct_24_1005,ACPT_experiment_5_30_19,3.1.0,59.927460465041285,
,,,C,D,g,b,,,,,,,,,,1,10,30,10,,,,,,,,,,,,,b,1,5.554323500166902,1549.9299448020138,None,,,,,001,58,2019_Oct_24_1005,ACPT_experiment_5_30_19,3.1.0,59.927460465041285,
,,,C,G,y,b,,,,,,,,,,1,11,31,14,,,,,,,,,,,,,b,1,1.784721513691693,1558.7701305420605,None,,,,,001,58,2019_Oct_24_1005,ACPT_experiment_5_30_19,3.1.0,59.927460465041285,
,,,C,D,y,b,,,,,,,,,,1,12,32,2,,,,,,,,,,,,,b,1,1.1008596348347055,1563.8407260681442,None,,,,,001,58,2019_Oct_24_1005,ACPT_experiment_5_30_19,3.1.0,59.927460465041285,
,,,C,U,d,n,,,,,,,,,,1,13,33,6,,,,,,,,,,,,,n,1,1.6677287082056864,1568.2443807387217,None,,,,,001,58,2019_Oct_24_1005,ACPT_experiment_5_30_19,3.1.0,59.927460465041285,
,,,C,U,g,n,,,,,,,,,,1,14,34,16,,,,,,,,,,,,,n,1,3.2692545464533396,1573.1813015085118,None,,,,,001,58,2019_Oct_24_1005,ACPT_experiment_5_30_19,3.1.0,59.927460465041285,
,,,C,U,g,n,,,,,,,,,,1,15,35,7,,,,,,,,,,,,,n,1,1.2009609991782781,1579.7196992153467,None,,,,,001,58,2019_Oct_24_1005,ACPT_experiment_5_30_19,3.1.0,59.927460465041285,
,,,C,G,g,v,,,,,,,,,,1,16,36,19,,,,,,,,,,,,,v,1,4.13653306174092,1584.2065218506868,None,,,,,001,58,2019_Oct_24_1005,ACPT_experiment_5_30_19,3.1.0,59.927460465041285,
,,,C,G,d,b,,,,,,,,,,1,17,37,12,,,,,,,,,,,,,b,1,1.6846823323576245,1591.6122460684337,None,,,,,001,58,2019_Oct_24_1005,ACPT_experiment_5_30_19,3.1.0,59.927460465041285,
,,,C,U,y,n,,,,,,,,,,1,18,38,8,,,,,,,,,,,,,n,1,1.6514271000796725,1596.5827667937892,None,,,,,001,58,2019_Oct_24_1005,ACPT_experiment_5_30_19,3.1.0,59.927460465041285,
,,,C,G,d,b,,,,,,,,,,1,19,39,3,,,,,,,,,,,,,b,1,2.9356312269792397,1601.519904902255,None,,,,,001,58,2019_Oct_24_1005,ACPT_experiment_5_30_19,3.1.0,59.927460465041285,
,,,C,U,y,n,,,,,,,,,,2,0,40,17,,,,,,,,,,,,,n,1,1.1842835762599861,1607.7414053118782,None,,,,,001,58,2019_Oct_24_1005,ACPT_experiment_5_30_19,3.1.0,59.927460465041285,
,,,C,G,g,v,,,,,,,,,,2,1,41,13,,,,,,,,,,,,,v,1,2.0178166398118265,1612.228623684724,None,,,,,001,58,2019_Oct_24_1005,ACPT_experiment_5_30_19,3.1.0,59.927460465041285,
,,,C,U,y,n,,,,,,,,,,2,2,42,8,,,,,,,,,,,,,n,1,1.6846418832155905,1617.532334561498,None,,,,,001,58,2019_Oct_24_1005,ACPT_experiment_5_30_19,3.1.0,59.927460465041285,
,,,C,G,d,b,,,,,,,,,,2,3,43,12,,,,,,,,,,,,,b,1,5.387521499926152,1622.5028459292162,None,,,,,001,58,2019_Oct_24_1005,ACPT_experiment_5_30_19,3.1.0,59.927460465041285,
,,,C,D,d,v,,,,,,,,,,2,4,44,0,,,,,,,,,,,,,v,1,2.568700755433383,1631.1762317820385,None,,,,,001,58,2019_Oct_24_1005,ACPT_experiment_5_30_19,3.1.0,59.927460465041285,
,,,C,D,g,b,,,,,,,,,,2,5,45,10,,,,,,,,,,,,,v,0,5.804514728016329,1637.030766704439,None,,,,,001,58,2019_Oct_24_1005,ACPT_experiment_5_30_19,3.1.0,59.927460465041285,
,,,C,D,d,v,,,,,,,,,,2,6,46,9,,,,,,,,,,,,,v,1,3.6361620766947453,1646.104465645698,None,,,,,001,58,2019_Oct_24_1005,ACPT_experiment_5_30_19,3.1.0,59.927460465041285,
,,,C,G,y,b,,,,,,,,,,2,7,47,5,,,,,,,,,,,,,b,1,1.734689244934998,1653.0264926790069,None,,,,,001,58,2019_Oct_24_1005,ACPT_experiment_5_30_19,3.1.0,59.927460465041285,
,,,C,G,g,v,,,,,,,,,,2,8,48,19,,,,,,,,,,,,,v,1,5.120657377047792,1658.0303712687928,None,,,,,001,58,2019_Oct_24_1005,ACPT_experiment_5_30_19,3.1.0,59.927460465041285,
,,,C,D,d,v,,,,,,,,,,2,9,49,18,,,,,,,,,,,,,v,1,2.318477228642223,1666.4368872634104,None,,,,,001,58,2019_Oct_24_1005,ACPT_experiment_5_30_19,3.1.0,59.927460465041285,
,,,C,U,d,n,,,,,,,,,,2,10,50,6,,,,,,,,,,,,,n,1,1.551192917656408,1672.0412463527855,None,,,,,001,58,2019_Oct_24_1005,ACPT_experiment_5_30_19,3.1.0,59.927460465041285,
,,,C,U,d,n,,,,,,,,,,2,11,51,15,,,,,,,,,,,,,n,1,1.5513695053314223,1676.8614731577682,None,,,,,001,58,2019_Oct_24_1005,ACPT_experiment_5_30_19,3.1.0,59.927460465041285,
,,,C,G,y,b,,,,,,,,,,2,12,52,14,,,,,,,,,,,,,b,1,1.5178486368940867,1681.6987100345868,None,,,,,001,58,2019_Oct_24_1005,ACPT_experiment_5_30_19,3.1.0,59.927460465041285,
,,,C,U,g,n,,,,,,,,,,2,13,53,7,,,,,,,,,,,,,n,1,1.351056598010473,1686.5024281559836,None,,,,,001,58,2019_Oct_24_1005,ACPT_experiment_5_30_19,3.1.0,59.927460465041285,
,,,C,U,g,n,,,,,,,,,,2,14,54,16,,,,,,,,,,,,,n,1,1.0808596469087206,1691.1593533208443,None,,,,,001,58,2019_Oct_24_1005,ACPT_experiment_5_30_19,3.1.0,59.927460465041285,
,,,C,D,g,b,,,,,,,,,,2,15,55,1,,,,,,,,,,,,,b,1,3.83631560232061,1695.526086980146,None,,,,,001,58,2019_Oct_24_1005,ACPT_experiment_5_30_19,3.1.0,59.927460465041285,
,,,C,G,g,v,,,,,,,,,,2,16,56,4,,,,,,,,,,,,,v,1,2.1683514438827842,1702.6482720669692,None,,,,,001,58,2019_Oct_24_1005,ACPT_experiment_5_30_19,3.1.0,59.927460465041285,
,,,C,G,d,b,,,,,,,,,,2,17,57,3,,,,,,,,,,,,,b,1,1.6012417886731782,1708.1025011455558,None,,,,,001,58,2019_Oct_24_1005,ACPT_experiment_5_30_19,3.1.0,59.927460465041285,
,,,C,D,y,b,,,,,,,,,,2,18,58,2,,,,,,,,,,,,,b,1,2.168387666995841,1712.989598533205,None,,,,,001,58,2019_Oct_24_1005,ACPT_experiment_5_30_19,3.1.0,59.927460465041285,
,,,C,D,y,b,,,,,,,,,,2,19,59,11,,,,,,,,,,,,,b,1,3.5362213014841473,1718.4270185782307,None,,,,,001,58,2019_Oct_24_1005,ACPT_experiment_5_30_19,3.1.0,59.927460465041285,
,,,C,U,g,n,,,,,,,,,,3,0,60,7,,,,,,,,,,,,,n,1,0.967420026914624,1725.2491141939663,None,,,,,001,58,2019_Oct_24_1005,ACPT_experiment_5_30_19,3.1.0,59.927460465041285,
,,,C,D,y,b,,,,,,,,,,3,1,61,2,,,,,,,,,,,,,b,1,1.6011249691346165,1729.502404610961,None,,,,,001,58,2019_Oct_24_1005,ACPT_experiment_5_30_19,3.1.0,59.927460465041285,
,,,C,U,y,n,,,,,,,,,,3,2,62,17,,,,,,,,,,,,,n,1,1.7347254680471451,1734.3895264492112,None,,,,,001,58,2019_Oct_24_1005,ACPT_experiment_5_30_19,3.1.0,59.927460465041285,
,,,C,U,d,n,,,,,,,,,,3,3,63,6,,,,,,,,,,,,,n,1,2.368510402976426,1739.3934002092492,None,,,,,001,58,2019_Oct_24_1005,ACPT_experiment_5_30_19,3.1.0,59.927460465041285,
,,,C,G,g,v,,,,,,,,,,3,4,64,13,,,,,,,,,,,,,v,1,6.788601009055128,1745.0477807004463,None,,,,,001,58,2019_Oct_24_1005,ACPT_experiment_5_30_19,3.1.0,59.927460465041285,
,,,C,D,d,v,,,,,,,,,,3,5,65,18,,,,,,,,,,,,,v,1,11.54231161415646,1755.1222463642562,None,,,,,001,58,2019_Oct_24_1005,ACPT_experiment_5_30_19,3.1.0,59.927460465041285,
,,,C,U,y,n,,,,,,,,,,3,6,66,8,,,,,,,,,,,,,n,1,1.0841982104575436,1769.9504099550777,None,,,,,001,58,2019_Oct_24_1005,ACPT_experiment_5_30_19,3.1.0,59.927460465041285,
,,,C,D,d,v,,,,,,,,,,3,7,67,0,,,,,,,,,,,,,v,1,2.635384789069576,1774.320451991999,None,,,,,001,58,2019_Oct_24_1005,ACPT_experiment_5_30_19,3.1.0,59.927460465041285,
,,,C,D,y,b,,,,,,,,,,3,8,68,11,,,,,,,,,,,,,b,1,4.403419220345313,1780.2250212961717,None,,,,,001,58,2019_Oct_24_1005,ACPT_experiment_5_30_19,3.1.0,59.927460465041285,
,,,C,D,g,b,,,,,,,,,,3,9,69,10,,,,,,,,,,,,,b,1,13.210260679629755,1787.8976325781014,None,,,,,001,58,2019_Oct_24_1005,ACPT_experiment_5_30_19,3.1.0,59.927460465041285,
,,,C,D,g,b,,,,,,,,,,3,10,70,1,,,,,,,,,,,,,b,1,3.319265986919163,1804.37706298173,None,,,,,001,58,2019_Oct_24_1005,ACPT_experiment_5_30_19,3.1.0,59.927460465041285,
,,,C,G,d,b,,,,,,,,,,3,11,71,12,,,,,,,,,,,,,b,1,2.852243508667925,1810.9821791341592,None,,,,,001,58,2019_Oct_24_1005,ACPT_experiment_5_30_19,3.1.0,59.927460465041285,
,,,C,U,d,n,,,,,,,,,,3,12,72,15,,,,,,,,,,,,,n,1,1.651320845616283,1817.1202625451206,None,,,,,001,58,2019_Oct_24_1005,ACPT_experiment_5_30_19,3.1.0,59.927460465041285,
,,,C,G,y,b,,,,,,,,,,3,13,73,5,,,,,,,,,,,,,b,1,9.423971007020555,1822.0574205762978,None,,,,,001,58,2019_Oct_24_1005,ACPT_experiment_5_30_19,3.1.0,59.927460465041285,
,,,C,G,g,v,,,,,,,,,,3,14,74,4,,,,,,,,,,,,,v,1,14.361129340057232,1834.7672649919914,None,,,,,001,58,2019_Oct_24_1005,ACPT_experiment_5_30_19,3.1.0,59.927460465041285,
,,,C,G,y,b,,,,,,,,,,3,15,75,14,,,,,,,,,,,,,b,1,2.9523246484395713,1852.397584582477,None,,,,,001,58,2019_Oct_24_1005,ACPT_experiment_5_30_19,3.1.0,59.927460465041285,
,,,C,G,g,v,,,,,,,,,,3,16,76,19,,,,,,,,,,,,,v,1,6.42167717841312,1858.6190469578323,None,,,,,001,58,2019_Oct_24_1005,ACPT_experiment_5_30_19,3.1.0,59.927460465041285,
,,,C,G,d,b,,,,,,,,,,3,17,77,3,,,,,,,,,,,,,b,1,4.553544099527244,1868.3099017085842,None,,,,,001,58,2019_Oct_24_1005,ACPT_experiment_5_30_19,3.1.0,59.927460465041285,
,,,C,U,g,n,,,,,,,,,,3,18,78,16,,,,,,,,,,,,,n,1,1.684647920401403,1876.1493128777392,None,,,,,001,58,2019_Oct_24_1005,ACPT_experiment_5_30_19,3.1.0,59.927460465041285,
,,,C,D,d,v,,,,,,,,,,3,19,79,9,,,,,,,,,,,,,v,1,3.7195787734981423,1881.1198121710868,None,,,,,001,58,2019_Oct_24_1005,ACPT_experiment_5_30_19,3.1.0,59.927460465041285,
,,,C,D,g,b,,,,,,,,,,4,0,80,10,,,,,,,,,,,,,b,1,2.9689730928685094,1888.108577270842,None,,,,,001,58,2019_Oct_24_1005,ACPT_experiment_5_30_19,3.1.0,59.927460465041285,
,,,C,G,d,b,,,,,,,,,,4,1,81,12,,,,,,,,,,,,,b,1,7.1055127955132775,1894.3634207537907,None,,,,,001,58,2019_Oct_24_1005,ACPT_experiment_5_30_19,3.1.0,59.927460465041285,
,,,C,U,g,n,,,,,,,,,,4,2,82,16,,,,,,,,,,,,,n,1,0.6171497723071298,1904.7547942798874,None,,,,,001,58,2019_Oct_24_1005,ACPT_experiment_5_30_19,3.1.0,59.927460465041285,
,,,C,D,g,b,,,,,,,,,,4,3,83,1,,,,,,,,,,,,,b,1,2.918548105199079,1908.6748933380259,None,,,,,001,58,2019_Oct_24_1005,ACPT_experiment_5_30_19,3.1.0,59.927460465041285,
,,,C,G,d,b,,,,,,,,,,4,4,84,3,,,,,,,,,,,,,b,1,2.3518444507089953,1914.8793085128536,None,,,,,001,58,2019_Oct_24_1005,ACPT_experiment_5_30_19,3.1.0,59.927460465041285,
,,,C,U,y,n,,,,,,,,,,4,5,85,17,,,,,,,,,,,,,n,1,1.017486405768068,1920.5169798859097,None,,,,,001,58,2019_Oct_24_1005,ACPT_experiment_5_30_19,3.1.0,59.927460465041285,
,,,C,D,d,v,,,,,,,,,,4,6,86,0,,,,,,,,,,,,,v,1,4.953654942250978,1924.8371925035062,None,,,,,001,58,2019_Oct_24_1005,ACPT_experiment_5_30_19,3.1.0,59.927460465041285,
,,,C,G,y,b,,,,,,,,,,4,7,87,5,,,,,,,,,,,,,b,1,1.8514713526492415,1933.076712100512,None,,,,,001,58,2019_Oct_24_1005,ACPT_experiment_5_30_19,3.1.0,59.927460465041285,
,,,C,U,d,n,,,,,,,,,,4,8,88,6,,,,,,,,,,,,,n,1,0.8673476410604053,1938.214039052138,None,,,,,001,58,2019_Oct_24_1005,ACPT_experiment_5_30_19,3.1.0,59.927460465041285,
,,,C,D,d,v,,,,,,,,,,4,9,89,9,,,,,,,,,,,,,v,1,4.236660989699885,1942.3672567814192,None,,,,,001,58,2019_Oct_24_1005,ACPT_experiment_5_30_19,3.1.0,59.927460465041285,
,,,C,U,y,n,,,,,,,,,,4,10,90,8,,,,,,,,,,,,,n,1,1.7180296317137618,1949.8897250726122,None,,,,,001,58,2019_Oct_24_1005,ACPT_experiment_5_30_19,3.1.0,59.927460465041285,
,,,C,G,g,v,,,,,,,,,,4,11,91,19,,,,,,,,,,,,,v,1,1.9181605178937389,1954.8936241888287,None,,,,,001,58,2019_Oct_24_1005,ACPT_experiment_5_30_19,3.1.0,59.927460465041285,
,,,C,U,g,n,,,,,,,,,,4,12,92,7,,,,,,,,,,,,,n,1,1.234323995216073,1960.0976496633366,None,,,,,001,58,2019_Oct_24_1005,ACPT_experiment_5_30_19,3.1.0,59.927460465041285,
,,,C,G,g,v,,,,,,,,,,4,13,93,4,,,,,,,,,,,,,v,1,2.7351885201705954,1964.6347714110289,None,,,,,001,58,2019_Oct_24_1005,ACPT_experiment_5_30_19,3.1.0,59.927460465041285,
,,,C,D,y,b,,,,,,,,,,4,14,94,2,,,,,,,,,,,,,b,1,1.4678918329564112,1970.6558019465092,None,,,,,001,58,2019_Oct_24_1005,ACPT_experiment_5_30_19,3.1.0,59.927460465041285,
,,,C,D,y,b,,,,,,,,,,4,15,95,11,,,,,,,,,,,,,b,1,1.3343728360459863,1975.4095089292987,None,,,,,001,58,2019_Oct_24_1005,ACPT_experiment_5_30_19,3.1.0,59.927460465041285,
,,,C,U,d,n,,,,,,,,,,4,16,96,15,,,,,,,,,,,,,n,1,1.3176803201640723,1980.0464425582932,None,,,,,001,58,2019_Oct_24_1005,ACPT_experiment_5_30_19,3.1.0,59.927460465041285,
,,,C,G,g,v,,,,,,,,,,4,17,97,13,,,,,,,,,,,,,v,1,1.8181225439975606,1984.6499947778348,None,,,,,001,58,2019_Oct_24_1005,ACPT_experiment_5_30_19,3.1.0,59.927460465041285,
,,,C,G,y,b,,,,,,,,,,4,18,98,14,,,,,,,,,,,,,b,1,1.2676595220600575,1989.7372671231178,None,,,,,001,58,2019_Oct_24_1005,ACPT_experiment_5_30_19,3.1.0,59.927460465041285,
,,,C,D,d,v,,,,,,,,,,4,19,99,18,,,,,,,,,,,,,v,1,3.0356737287647775,1994.290816656112,None,,,,,001,58,2019_Oct_24_1005,ACPT_experiment_5_30_19,3.1.0,59.927460465041285,
,,,C,U,d,n,,,,,,,,,,5,0,100,15,,,,,,,,,,,,,n,1,1.100880161265195,2000.6123562470684,None,,,,,001,58,2019_Oct_24_1005,ACPT_experiment_5_30_19,3.1.0,59.927460465041285,
,,,C,U,y,n,,,,,,,,,,5,1,101,17,,,,,,,,,,,,,n,1,1.6343774846791348,2005.0160365756847,None,,,,,001,58,2019_Oct_24_1005,ACPT_experiment_5_30_19,3.1.0,59.927460465041285,
,,,C,U,g,n,,,,,,,,,,5,2,102,16,,,,,,,,,,,,,n,1,5.4208850996828915,2009.919552692856,None,,,,,001,58,2019_Oct_24_1005,ACPT_experiment_5_30_19,3.1.0,59.927460465041285,
,,,C,D,g,b,,,,,,,,,,5,3,103,1,,,,,,,,,,,,,b,1,5.75446706443654,2018.6263033528712,None,,,,,001,58,2019_Oct_24_1005,ACPT_experiment_5_30_19,3.1.0,59.927460465041285,
,,,C,D,y,b,,,,,,,,,,5,4,104,11,,,,,,,,,,,,,b,1,1.6012405812361976,2027.6666417129672,None,,,,,001,58,2019_Oct_24_1005,ACPT_experiment_5_30_19,3.1.0,59.927460465041285,
,,,C,U,y,n,,,,,,,,,,5,5,105,8,,,,,,,,,,,,,n,1,4.503496134088891,2032.5537550991576,None,,,,,001,58,2019_Oct_24_1005,ACPT_experiment_5_30_19,3.1.0,59.927460465041285,
,,,C,G,y,b,,,,,,,,,,5,6,106,14,,,,,,,,,,,,,b,1,8.539985486606383,2040.3430926448364,None,,,,,001,58,2019_Oct_24_1005,ACPT_experiment_5_30_19,3.1.0,59.927460465041285,
,,,C,G,g,v,,,,,,,,,,5,7,107,19,,,,,,,,,,,,,v,1,4.386760512701585,2052.152259627952,None,,,,,001,58,2019_Oct_24_1005,ACPT_experiment_5_30_19,3.1.0,59.927460465041285,
,,,C,D,d,v,,,,,,,,,,5,8,108,0,,,,,,,,,,,,,v,1,7.6226200660348695,2059.824865778275,None,,,,,001,58,2019_Oct_24_1005,ACPT_experiment_5_30_19,3.1.0,59.927460465041285,
,,,C,D,d,v,,,,,,,,,,5,9,109,9,,,,,,,,,,,,,v,1,1.8514432797373956,2070.7166326270026,None,,,,,001,58,2019_Oct_24_1005,ACPT_experiment_5_30_19,3.1.0,59.927460465041285,
,,,C,D,g,b,,,,,,,,,,5,10,110,10,,,,,,,,,,,,,b,1,1.4010725663647463,2075.8372863817394,None,,,,,001,58,2019_Oct_24_1005,ACPT_experiment_5_30_19,3.1.0,59.927460465041285,
,,,C,D,d,v,,,,,,,,,,5,11,111,18,,,,,,,,,,,,,v,1,3.5358080561409224,2080.524498294797,None,,,,,001,58,2019_Oct_24_1005,ACPT_experiment_5_30_19,3.1.0,59.927460465041285,
,,,C,G,d,b,,,,,,,,,,5,12,112,12,,,,,,,,,,,,,b,1,7.422436052622288,2087.3461704019737,None,,,,,001,58,2019_Oct_24_1005,ACPT_experiment_5_30_19,3.1.0,59.927460465041285,
,,,C,G,g,v,,,,,,,,,,5,13,113,13,,,,,,,,,,,,,v,1,13.89412225662727,2098.0377846306537,None,,,,,001,58,2019_Oct_24_1005,ACPT_experiment_5_30_19,3.1.0,59.927460465041285,
,,,C,G,y,b,,,,,,,,,,5,14,114,5,,,,,,,,,,,,,b,1,2.6020498659445366,2115.2010506513825,None,,,,,001,58,2019_Oct_24_1005,ACPT_experiment_5_30_19,3.1.0,59.927460465041285,
,,,C,U,d,n,,,,,,,,,,5,15,115,6,,,,,,,,,,,,,n,1,3.4193447118177573,2121.0889672850954,None,,,,,001,58,2019_Oct_24_1005,ACPT_experiment_5_30_19,3.1.0,59.927460465041285,
,,,C,U,g,n,,,,,,,,,,5,16,116,7,,,,,,,,,,,,,n,1,1.4344533721005064,2127.794158540112,None,,,,,001,58,2019_Oct_24_1005,ACPT_experiment_5_30_19,3.1.0,59.927460465041285,
,,,C,G,g,v,,,,,,,,,,5,17,117,4,,,,,,,,,,,,,v,1,1.4008591518595495,2132.5313972884587,None,,,,,001,58,2019_Oct_24_1005,ACPT_experiment_5_30_19,3.1.0,59.927460465041285,
,,,C,G,d,b,,,,,,,,,,5,18,118,3,,,,,,,,,,,,,b,1,1.6012532593249489,2137.201441860999,None,,,,,001,58,2019_Oct_24_1005,ACPT_experiment_5_30_19,3.1.0,59.927460465041285,
,,,C,D,y,b,,,,,,,,,,5,19,119,2,0,0,0,0,0,0,0,0,,,,,b,1,1.5678860372581767,2142.0885603787974,None,,,,,001,58,2019_Oct_24_1005,ACPT_experiment_5_30_19,3.1.0,59.927460465041285,
,,,C,D,y,b,L,U,d,L,u,,,,,5,19,119,2,0,0,0,0,,,,,0,0,0,20,,,,,,up,1.1842582200806646,2177.499303006941,None,001,58,2019_Oct_24_1005,ACPT_experiment_5_30_19,3.1.0,59.927460465041285,
,,,C,D,y,b,R,D,g,L,i,,,,,5,19,119,2,0,0,0,0,,,,,0,1,1,2,,,,,,up,0.7339083349979774,2179.967882475318,None,001,58,2019_Oct_24_1005,ACPT_experiment_5_30_19,3.1.0,59.927460465041285,
,,,C,D,y,b,R,G,g,L,c ,,,,,5,19,119,2,0,0,0,0,,,,,0,2,2,6,,,,,,up,0.7505791170133307,2181.9861168883617,None,001,58,2019_Oct_24_1005,ACPT_experiment_5_30_19,3.1.0,59.927460465041285,
,,,C,D,y,b,R,D,y,L,y,,,,,5,19,119,2,0,0,0,0,,,,,0,3,3,26,,,,,,down,0.9171006899905478,2184.0379745001364,None,001,58,2019_Oct_24_1005,ACPT_experiment_5_30_19,3.1.0,59.927460465041285,
,,,C,D,y,b,R,D,y,R,y,,,,,5,19,119,2,0,0,0,0,,,,,0,4,4,27,,,,,,down,0.8006237619993044,2186.239407607216,None,001,58,2019_Oct_24_1005,ACPT_experiment_5_30_19,3.1.0,59.927460465041285,
,,,C,D,y,b,R,G,g,R,c ,,,,,5,19,119,2,0,0,0,0,,,,,0,5,5,7,,,,,,up,0.8339767966817817,2188.324353221231,None,001,58,2019_Oct_24_1005,ACPT_experiment_5_30_19,3.1.0,59.927460465041285,
,,,C,D,y,b,R,D,d,R,c ,,,,,5,19,119,2,0,0,0,0,,,,,0,6,6,1,,,,,,up,0.7670062985953336,2190.459609116391,None,001,58,2019_Oct_24_1005,ACPT_experiment_5_30_19,3.1.0,59.927460465041285,
,,,C,D,y,b,L,G,g,R,c ,,,,,5,19,119,2,0,0,0,0,,,,,0,7,7,19,,,,,,up,0.7505700612355213,2192.510932135395,None,001,58,2019_Oct_24_1005,ACPT_experiment_5_30_19,3.1.0,59.927460465041285,
,,,C,D,y,b,L,G,d,L,i,,,,,5,19,119,2,0,0,0,0,,,,,0,8,8,16,,,,,,down,0.9841182781219686,2194.5291348532146,None,001,58,2019_Oct_24_1005,ACPT_experiment_5_30_19,3.1.0,59.927460465041285,
,,,C,D,y,b,L,U,g,L,u,,,,,5,19,119,2,0,0,0,0,,,,,0,9,9,22,,,,,,up,0.7839125308428265,2196.7976087915913,None,001,58,2019_Oct_24_1005,ACPT_experiment_5_30_19,3.1.0,59.927460465041285,
,,,C,D,y,b,L,D,d,R,c ,,,,,5,19,119,2,0,0,0,0,,,,,0,10,10,13,,,,,,up,0.7672613696804547,2198.865862795301,None,001,58,2019_Oct_24_1005,ACPT_experiment_5_30_19,3.1.0,59.927460465041285,
,,,C,D,y,b,R,U,y,L,u,,,,,5,19,119,2,0,0,0,0,,,,,0,11,11,30,,,,,,down,0.8673533763867454,2200.91744058353,None,001,58,2019_Oct_24_1005,ACPT_experiment_5_30_19,3.1.0,59.927460465041285,
,,,C,D,y,b,R,D,g,R,i,,,,,5,19,119,2,0,0,0,0,,,,,0,12,12,3,,,,,,up,0.8006174229549288,2203.06910434128,None,001,58,2019_Oct_24_1005,ACPT_experiment_5_30_19,3.1.0,59.927460465041285,
,,,C,D,y,b,R,D,d,L,c,,,,,5,19,119,2,0,0,0,0,,,,,0,13,13,0,,,,,,up,0.7505543645529542,2205.1540535776057,None,001,58,2019_Oct_24_1005,ACPT_experiment_5_30_19,3.1.0,59.927460465041285,
,,,C,D,y,b,L,D,y,R,y,,,,,5,19,119,2,0,0,0,0,,,,,0,14,14,33,,,,,,down,1.0506752290057193,2207.2057445630617,None,001,58,2019_Oct_24_1005,ACPT_experiment_5_30_19,3.1.0,59.927460465041285,
,,,C,D,y,b,R,U,y,R,u,,,,,5,19,119,2,0,0,0,0,,,,,0,15,15,31,,,,,,down,0.6671726834265428,2209.5574637421732,None,001,58,2019_Oct_24_1005,ACPT_experiment_5_30_19,3.1.0,59.927460465041285,
,,,C,D,y,b,R,G,d,L,i,,,,,5,19,119,2,0,0,0,0,,,,,0,16,16,4,,,,,,up,0.6835911110902089,2211.5259206556866,None,001,58,2019_Oct_24_1005,ACPT_experiment_5_30_19,3.1.0,59.927460465041285,
,,,C,D,y,b,L,G,y,R,y,,,,,5,19,119,2,0,0,0,0,,,,,0,17,17,35,,,,,,down,0.8506892352761497,2213.5105040989474,None,001,58,2019_Oct_24_1005,ACPT_experiment_5_30_19,3.1.0,59.927460465041285,
,,,C,D,y,b,L,G,d,R,i,,,,,5,19,119,2,0,0,0,0,,,,,0,18,18,17,,,,,,up,1.2843197390002388,2215.6621932128755,None,001,58,2019_Oct_24_1005,ACPT_experiment_5_30_19,3.1.0,59.927460465041285,
,,,C,D,y,b,L,U,d,R,u,,,,,5,19,119,2,0,0,0,0,,,,,0,19,19,21,,,,,,up,0.6171340756254722,2218.23084748198,None,001,58,2019_Oct_24_1005,ACPT_experiment_5_30_19,3.1.0,59.927460465041285,
,,,C,D,y,b,R,U,d,R,u,,,,,5,19,119,2,0,0,0,0,,,,,0,20,20,9,,,,,,up,0.8673506596533116,2220.132296466858,None,001,58,2019_Oct_24_1005,ACPT_experiment_5_30_19,3.1.0,59.927460465041285,
,,,C,D,y,b,L,U,g,R,u,,,,,5,19,119,2,0,0,0,0,,,,,0,21,21,23,,,,,,up,0.8673509615127841,2222.283984977068,None,001,58,2019_Oct_24_1005,ACPT_experiment_5_30_19,3.1.0,59.927460465041285,
,,,C,D,y,b,L,G,y,L,y,,,,,5,19,119,2,0,0,0,0,,,,,0,22,22,34,,,,,,down,0.5671012031507416,2224.43564752738,None,001,58,2019_Oct_24_1005,ACPT_experiment_5_30_19,3.1.0,59.927460465041285,
,,,C,D,y,b,R,G,y,L,y,,,,,5,19,119,2,0,0,0,0,,,,,0,23,23,28,,,,,,down,1.034145415270359,2226.3037455905906,None,001,58,2019_Oct_24_1005,ACPT_experiment_5_30_19,3.1.0,59.927460465041285,
,,,C,D,y,b,R,U,d,L,u,,,,,5,19,119,2,0,0,0,0,,,,,0,24,24,8,,,,,,up,0.6337970092990872,2228.63892590019,None,001,58,2019_Oct_24_1005,ACPT_experiment_5_30_19,3.1.0,59.927460465041285,
,,,C,D,y,b,L,G,g,L,c ,,,,,5,19,119,2,0,0,0,0,,,,,0,25,25,18,,,,,,up,0.6171404146698478,2230.55705894889,None,001,58,2019_Oct_24_1005,ACPT_experiment_5_30_19,3.1.0,59.927460465041285,
,,,C,D,y,b,L,D,y,L,y,,,,,5,19,119,2,0,0,0,0,,,,,0,26,26,32,,,,,,down,0.5838166603371064,2232.4585275546196,None,001,58,2019_Oct_24_1005,ACPT_experiment_5_30_19,3.1.0,59.927460465041285,
,,,C,D,y,b,L,U,y,R,u,,,,,5,19,119,2,0,0,0,0,,,,,0,27,27,25,,,,,,up,0.6669918697225512,2234.3434787228452,None,001,58,2019_Oct_24_1005,ACPT_experiment_5_30_19,3.1.0,59.927460465041285,
,,,C,D,y,b,L,D,g,R,i,,,,,5,19,119,2,0,0,0,0,,,,,0,28,28,15,,,,,,up,0.8172700934137538,2236.3115341635266,None,001,58,2019_Oct_24_1005,ACPT_experiment_5_30_19,3.1.0,59.927460465041285,
,,,C,D,y,b,R,U,g,L,u,,,,,5,19,119,2,0,0,0,0,,,,,0,29,29,10,,,,,,up,0.7506053787701603,2238.396431480058,None,001,58,2019_Oct_24_1005,ACPT_experiment_5_30_19,3.1.0,59.927460465041285,
,,,C,D,y,b,R,G,d,R,i,,,,,5,19,119,2,0,0,0,0,,,,,0,30,30,5,,,,,,down,1.2342811311991682,2240.431370483355,None,001,58,2019_Oct_24_1005,ACPT_experiment_5_30_19,3.1.0,59.927460465041285,
,,,C,D,y,b,L,D,g,L,i,,,,,5,19,119,2,0,0,0,0,,,,,0,31,31,14,,,,,,up,0.7672272595818868,2242.9500075766673,None,001,58,2019_Oct_24_1005,ACPT_experiment_5_30_19,3.1.0,59.927460465041285,
,,,C,D,y,b,R,U,g,R,u,,,,,5,19,119,2,0,0,0,0,,,,,0,32,32,11,,,,,,up,0.8006213471253432,2245.0015717812294,None,001,58,2019_Oct_24_1005,ACPT_experiment_5_30_19,3.1.0,59.927460465041285,
,,,C,D,y,b,L,U,y,L,u,,,,,5,19,119,2,0,0,0,0,,,,,0,33,33,24,,,,,,down,0.6171869009976945,2247.086495661377,None,001,58,2019_Oct_24_1005,ACPT_experiment_5_30_19,3.1.0,59.927460465041285,
,,,C,D,y,b,L,D,d,L,c ,,,,,5,19,119,2,0,0,0,0,,,,,0,34,34,12,,,,,,up,0.7339231261030363,2248.987970606151,None,001,58,2019_Oct_24_1005,ACPT_experiment_5_30_19,3.1.0,59.927460465041285,
,,,C,D,y,b,R,G,y,R,y,,,,,5,19,119,2,0,0,0,0,,,,,0,35,35,29,,,,,,down,0.6505000902552638,2251.006218904722,None,001,58,2019_Oct_24_1005,ACPT_experiment_5_30_19,3.1.0,59.927460465041285,
,,,C,D,y,b,R,U,d,R,u,,,,,5,19,119,2,0,0,0,0,,,,,1,0,36,9,,,,,,up,0.5837686647137161,2252.9410713347797,None,001,58,2019_Oct_24_1005,ACPT_experiment_5_30_19,3.1.0,59.927460465041285,
,,,C,D,y,b,L,U,g,L,u,,,,,5,19,119,2,0,0,0,0,,,,,1,1,37,22,,,,,,up,0.6171428295447186,2254.8091627570857,None,001,58,2019_Oct_24_1005,ACPT_experiment_5_30_19,3.1.0,59.927460465041285,
,,,C,D,y,b,L,D,y,R,y,,,,,5,19,119,2,0,0,0,0,,,,,1,2,38,33,,,,,,down,0.7172384585610416,2256.727315124779,None,001,58,2019_Oct_24_1005,ACPT_experiment_5_30_19,3.1.0,59.927460465041285,
,,,C,D,y,b,R,G,d,L,i,,,,,5,19,119,2,0,0,0,0,,,,,1,3,39,4,,,,,,up,0.5837888892847332,2258.7455483303866,None,001,58,2019_Oct_24_1005,ACPT_experiment_5_30_19,3.1.0,59.927460465041285,
,,,C,D,y,b,L,D,y,L,y,,,,,5,19,119,2,0,0,0,0,,,,,1,4,40,32,,,,,,down,0.7002999273727255,2260.6305758690078,None,001,58,2019_Oct_24_1005,ACPT_experiment_5_30_19,3.1.0,59.927460465041285,
,,,C,D,y,b,L,D,g,L,i,,,,,5,19,119,2,0,0,0,0,,,,,1,5,41,14,,,,,,up,0.5504512494253504,2262.6152266268855,None,001,58,2019_Oct_24_1005,ACPT_experiment_5_30_19,3.1.0,59.927460465041285,
,,,C,D,y,b,L,G,y,L,y,,,,,5,19,119,2,0,0,0,0,,,,,1,6,42,34,,,,,,down,0.5504331378688221,2264.466621005421,None,001,58,2019_Oct_24_1005,ACPT_experiment_5_30_19,3.1.0,59.927460465041285,
,,,C,D,y,b,L,G,g,R,c ,,,,,5,19,119,2,0,0,0,0,,,,,1,7,43,19,,,,,,up,0.9173947009203403,2266.318049795913,None,001,58,2019_Oct_24_1005,ACPT_experiment_5_30_19,3.1.0,59.927460465041285,
,,,C,D,y,b,R,G,y,R,y,,,,,5,19,119,2,0,0,0,0,,,,,1,8,44,29,,,,,,down,0.7672758589251316,2268.519780536235,None,001,58,2019_Oct_24_1005,ACPT_experiment_5_30_19,3.1.0,59.927460465041285,
,,,C,D,y,b,R,D,g,L,i,,,,,5,19,119,2,0,0,0,0,,,,,1,9,45,2,,,,,,up,0.5504192523430902,2270.571366776523,None,001,58,2019_Oct_24_1005,ACPT_experiment_5_30_19,3.1.0,59.927460465041285,
,,,C,D,y,b,L,U,y,R,u,,,,,5,19,119,2,0,0,0,0,,,,,1,10,46,25,,,,,,down,0.6838802922720788,2272.4060997306815,None,001,58,2019_Oct_24_1005,ACPT_experiment_5_30_19,3.1.0,59.927460465041285,
,,,C,D,y,b,R,G,d,R,i,,,,,5,19,119,2,0,0,0,0,,,,,1,11,47,5,,,,,,up,0.633814215277198,2274.374319382807,None,001,58,2019_Oct_24_1005,ACPT_experiment_5_30_19,3.1.0,59.927460465041285,
,,,C,D,y,b,R,U,y,L,u,,,,,5,19,119,2,0,0,0,0,,,,,1,12,48,30,,,,,,down,0.6838763681016644,2276.292466015174,None,001,58,2019_Oct_24_1005,ACPT_experiment_5_30_19,3.1.0,59.927460465041285,
,,,C,D,y,b,L,D,d,L,c ,,,,,5,19,119,2,0,0,0,0,,,,,1,13,49,12,,,,,,up,0.60043944672816,2278.2606657445876,None,001,58,2019_Oct_24_1005,ACPT_experiment_5_30_19,3.1.0,59.927460465041285,
,,,C,D,y,b,L,D,g,R,i,,,,,5,19,119,2,0,0,0,0,,,,,1,14,50,15,,,,,,up,0.683862482575023,2280.1454484753394,None,001,58,2019_Oct_24_1005,ACPT_experiment_5_30_19,3.1.0,59.927460465041285,
,,,C,D,y,b,R,G,g,R,c ,,,,,5,19,119,2,0,0,0,0,,,,,1,15,51,7,,,,,,up,1.9682172372513378,2282.113638243396,None,001,58,2019_Oct_24_1005,ACPT_experiment_5_30_19,3.1.0,59.927460465041285,
,,,C,D,y,b,L,G,d,L,i,,,,,5,19,119,2,0,0,0,0,,,,,1,16,52,16,,,,,,down,1.017446258484597,2285.3661598248254,None,001,58,2019_Oct_24_1005,ACPT_experiment_5_30_19,3.1.0,59.927460465041285,
,,,C,D,y,b,R,D,g,R,i,,,,,5,19,119,2,0,0,0,0,,,,,1,17,53,3,,,,,,up,0.5837849651134093,2287.6679339725106,None,001,58,2019_Oct_24_1005,ACPT_experiment_5_30_19,3.1.0,59.927460465041285,
,,,C,D,y,b,R,D,y,L,y,,,,,5,19,119,2,0,0,0,0,,,,,1,18,54,26,,,,,,down,0.6838648974489843,2289.536050147277,None,001,58,2019_Oct_24_1005,ACPT_experiment_5_30_19,3.1.0,59.927460465041285,
,,,C,D,y,b,R,G,g,L,c ,,,,,5,19,119,2,0,0,0,0,,,,,1,19,55,6,,,,,,up,0.6505393319612267,2291.5208959062447,None,001,58,2019_Oct_24_1005,ACPT_experiment_5_30_19,3.1.0,59.927460465041285,
,,,C,D,y,b,R,U,g,L,u,,,,,5,19,119,2,0,0,0,0,,,,,1,20,56,10,,,,,,up,0.4670390805131319,2293.4557522604728,None,001,58,2019_Oct_24_1005,ACPT_experiment_5_30_19,3.1.0,59.927460465041285,
,,,C,D,y,b,L,U,d,R,u,,,,,5,19,119,2,0,0,0,0,,,,,1,21,57,21,,,,,,up,0.5837982469220151,2295.207106552097,None,001,58,2019_Oct_24_1005,ACPT_experiment_5_30_19,3.1.0,59.927460465041285,
,,,C,D,y,b,R,U,y,R,u,,,,,5,19,119,2,0,0,0,0,,,,,1,22,58,31,,,,,,down,0.6000518594228197,2297.092279285028,None,001,58,2019_Oct_24_1005,ACPT_experiment_5_30_19,3.1.0,59.927460465041285,
,,,C,D,y,b,R,D,y,R,y,,,,,5,19,119,2,0,0,0,0,,,,,1,23,59,27,,,,,,down,0.6003860176369926,2298.9934327496785,None,001,58,2019_Oct_24_1005,ACPT_experiment_5_30_19,3.1.0,59.927460465041285,
,,,C,D,y,b,R,D,d,L,c,,,,,5,19,119,2,0,0,0,0,,,,,1,24,60,0,,,,,,up,0.5837734944616386,2300.8948609062663,None,001,58,2019_Oct_24_1005,ACPT_experiment_5_30_19,3.1.0,59.927460465041285,
,,,C,D,y,b,L,G,y,R,y,,,,,5,19,119,2,0,0,0,0,,,,,1,25,61,35,,,,,,down,0.6505299743239448,2302.7629550453057,None,001,58,2019_Oct_24_1005,ACPT_experiment_5_30_19,3.1.0,59.927460465041285,
,,,C,D,y,b,L,G,d,R,i,,,,,5,19,119,2,0,0,0,0,,,,,1,26,62,17,,,,,,up,0.5671205221433411,2304.6810880940066,None,001,58,2019_Oct_24_1005,ACPT_experiment_5_30_19,3.1.0,59.927460465041285,
,,,C,D,y,b,L,U,d,L,u,,,,,5,19,119,2,0,0,0,0,,,,,1,27,63,20,,,,,,up,0.5504162337501839,2306.5325654838407,None,001,58,2019_Oct_24_1005,ACPT_experiment_5_30_19,3.1.0,59.927460465041285,
,,,C,D,y,b,L,U,y,L,u,,,,,5,19,119,2,0,0,0,0,,,,,1,28,64,24,,,,,,down,0.5504132151581871,2308.3839770683544,None,001,58,2019_Oct_24_1005,ACPT_experiment_5_30_19,3.1.0,59.927460465041285,
,,,C,D,y,b,L,G,g,L,c ,,,,,5,19,119,2,0,0,0,0,,,,,1,29,65,18,,,,,,up,0.5337333773650244,2310.252100185885,None,001,58,2019_Oct_24_1005,ACPT_experiment_5_30_19,3.1.0,59.927460465041285,
,,,C,D,y,b,R,U,g,R,u,,,,,5,19,119,2,0,0,0,0,,,,,1,30,66,11,,,,,,up,0.717236949265498,2312.070146963205,None,001,58,2019_Oct_24_1005,ACPT_experiment_5_30_19,3.1.0,59.927460465041285,
,,,C,D,y,b,R,U,d,L,u,,,,,5,19,119,2,0,0,0,0,,,,,1,31,67,8,,,,,,down,0.9007088259431839,2314.055016267196,None,001,58,2019_Oct_24_1005,ACPT_experiment_5_30_19,3.1.0,59.927460465041285,
,,,C,D,y,b,L,D,d,R,c ,,,,,5,19,119,2,0,0,0,0,,,,,1,32,68,13,,,,,,up,0.650507334878057,2316.2400605288212,None,001,58,2019_Oct_24_1005,ACPT_experiment_5_30_19,3.1.0,59.927460465041285,
,,,C,D,y,b,R,G,y,L,y,,,,,5,19,119,2,0,0,0,0,,,,,1,33,69,28,,,,,,down,0.5504216672170514,2318.1748894138555,None,001,58,2019_Oct_24_1005,ACPT_experiment_5_30_19,3.1.0,59.927460465041285,
,,,C,D,y,b,R,D,d,R,c ,,,,,5,19,119,2,0,0,0,0,,,,,1,34,70,1,,,,,,up,0.5670824878761778,2320.0096631190154,None,001,58,2019_Oct_24_1005,ACPT_experiment_5_30_19,3.1.0,59.927460465041285,
,,,C,D,y,b,L,U,g,R,u,,,,,5,19,119,2,0,0,0,0,,,,,1,35,71,23,,,,,,up,0.5504207616386338,2321.8610810425735,None,001,58,2019_Oct_24_1005,ACPT_experiment_5_30_19,3.1.0,59.927460465041285,
,,,C,D,y,b,,,,,,,,,,5,19,119,2,1,0,1,0,0,0,0,0,,,,,,,,,,,,,,001,58,2019_Oct_24_1005,ACPT_experiment_5_30_19,3.1.0,59.927460465041285,
,,,C,D,y,b,R,U,y,L,u,,,,,5,19,119,2,1,0,1,0,,,,,0,0,0,30,,,,,,down,0.7670165618110332,2399.6381969100476,None,001,58,2019_Oct_24_1005,ACPT_experiment_5_30_19,3.1.0,59.927460465041285,
,,,C,D,y,b,L,D,g,R,i,,,,,5,19,119,2,1,0,1,0,,,,,0,1,1,15,,,,,,up,0.7005393017752795,2401.6895464926665,None,001,58,2019_Oct_24_1005,ACPT_experiment_5_30_19,3.1.0,59.927460465041285,
,,,C,D,y,b,R,D,g,R,i,,,,,5,19,119,2,1,0,1,0,,,,,0,2,2,3,,,,,,up,0.5504180449061096,2403.6744170040947,None,001,58,2019_Oct_24_1005,ACPT_experiment_5_30_19,3.1.0,59.927460465041285,
,,,C,D,y,b,R,U,y,R,u,,,,,5,19,119,2,1,0,1,0,,,,,0,3,3,31,,,,,,down,0.6004584638621964,2405.509171390261,None,001,58,2019_Oct_24_1005,ACPT_experiment_5_30_19,3.1.0,59.927460465041285,
,,,C,D,y,b,L,D,y,L,y,,,,,5,19,119,2,1,0,1,0,,,,,0,4,4,32,,,,,,down,0.7672740477692059,2407.3939417447828,None,001,58,2019_Oct_24_1005,ACPT_experiment_5_30_19,3.1.0,59.927460465041285,
,,,C,D,y,b,L,D,g,L,i,,,,,5,19,119,2,1,0,1,0,,,,,0,5,5,14,,,,,,up,0.5003743054967345,2409.4455536431096,None,001,58,2019_Oct_24_1005,ACPT_experiment_5_30_19,3.1.0,59.927460465041285,
,,,C,D,y,b,R,U,g,L,u,,,,,5,19,119,2,1,0,1,0,,,,,0,6,6,10,,,,,,up,0.5838320551611105,2411.2302654973037,None,001,58,2019_Oct_24_1005,ACPT_experiment_5_30_19,3.1.0,59.927460465041285,
,,,C,D,y,b,L,U,y,L,u,,,,,5,19,119,2,1,0,1,0,,,,,0,7,7,24,,,,,,down,0.6338015371884467,2413.0983901241307,None,001,58,2019_Oct_24_1005,ACPT_experiment_5_30_19,3.1.0,59.927460465041285,
,,,C,D,y,b,L,D,d,L,c ,,,,,5,19,119,2,1,0,1,0,,,,,0,8,8,12,,,,,,up,0.5504171393286015,2415.01653192675,None,001,58,2019_Oct_24_1005,ACPT_experiment_5_30_19,3.1.0,59.927460465041285,
,,,C,D,y,b,R,D,y,R,y,,,,,5,19,119,2,1,0,1,0,,,,,0,9,9,27,,,,,,down,0.8173283522528436,2416.851281181308,None,001,58,2019_Oct_24_1005,ACPT_experiment_5_30_19,3.1.0,59.927460465041285,
,,,C,D,y,b,R,D,g,L,i,,,,,5,19,119,2,1,0,1,0,,,,,0,10,10,2,,,,,,up,0.7806228684967209,2418.972903602449,None,001,58,2019_Oct_24_1005,ACPT_experiment_5_30_19,3.1.0,59.927460465041285,
,,,C,D,y,b,L,G,g,L,c ,,,,,5,19,119,2,1,0,1,0,,,,,0,11,11,18,,,,,,up,0.5337834860038129,2421.037858888035,None,001,58,2019_Oct_24_1005,ACPT_experiment_5_30_19,3.1.0,59.927460465041285,
,,,C,D,y,b,R,U,g,R,u,,,,,5,19,119,2,1,0,1,0,,,,,0,12,12,11,,,,,,up,0.7005368869013182,2422.8559295122377,None,001,58,2019_Oct_24_1005,ACPT_experiment_5_30_19,3.1.0,59.927460465041285,
,,,C,D,y,b,L,D,y,R,y,,,,,5,19,119,2,1,0,1,0,,,,,0,13,13,33,,,,,,down,0.6838543323747217,2424.8408039478363,None,001,58,2019_Oct_24_1005,ACPT_experiment_5_30_19,3.1.0,59.927460465041285,
,,,C,D,y,b,R,U,d,L,u,,,,,5,19,119,2,1,0,1,0,,,,,0,14,14,8,,,,,,up,0.6838591621226442,2426.8089928103154,None,001,58,2019_Oct_24_1005,ACPT_experiment_5_30_19,3.1.0,59.927460465041285,
,,,C,D,y,b,L,G,g,R,c ,,,,,5,19,119,2,1,0,1,0,,,,,0,15,15,19,,,,,,up,0.5337237178682699,2428.7772049159594,None,001,58,2019_Oct_24_1005,ACPT_experiment_5_30_19,3.1.0,59.927460465041285,
,,,C,D,y,b,L,G,y,L,y,,,,,5,19,119,2,1,0,1,0,,,,,0,16,16,34,,,,,,down,0.6171349812029803,2430.595266786243,None,001,58,2019_Oct_24_1005,ACPT_experiment_5_30_19,3.1.0,59.927460465041285,
,,,C,D,y,b,R,G,y,L,y,,,,,5,19,119,2,1,0,1,0,,,,,0,17,17,28,,,,,,down,0.6171497723080392,2432.5134088907216,None,001,58,2019_Oct_24_1005,ACPT_experiment_5_30_19,3.1.0,59.927460465041285,
,,,C,D,y,b,L,G,d,R,i,,,,,5,19,119,2,1,0,1,0,,,,,0,18,18,17,,,,,,up,0.6338154227141786,2434.431561258415,None,001,58,2019_Oct_24_1005,ACPT_experiment_5_30_19,3.1.0,59.927460465041285,
,,,C,D,y,b,L,U,g,R,u,,,,,5,19,119,2,1,0,1,0,,,,,0,19,19,23,,,,,,up,0.5504192523421807,2436.349689477367,None,001,58,2019_Oct_24_1005,ACPT_experiment_5_30_19,3.1.0,59.927460465041285,
,,,C,D,y,b,L,U,g,L,u,,,,,5,19,119,2,1,0,1,0,,,,,0,20,20,22,,,,,,up,0.5167927331604005,2438.1847372707452,None,001,58,2019_Oct_24_1005,ACPT_experiment_5_30_19,3.1.0,59.927460465041285,
,,,C,D,y,b,L,U,y,R,u,,,,,5,19,119,2,1,0,1,0,,,,,0,21,21,25,,,,,,down,0.6838537286557766,2440.0025416550698,None,001,58,2019_Oct_24_1005,ACPT_experiment_5_30_19,3.1.0,59.927460465041285,
,,,C,D,y,b,R,G,y,R,y,,,,,5,19,119,2,1,0,1,0,,,,,0,22,22,29,,,,,,down,0.7172091782122152,2441.9874100534835,None,001,58,2019_Oct_24_1005,ACPT_experiment_5_30_19,3.1.0,59.927460465041285,
,,,C,D,y,b,L,G,d,L,i,,,,,5,19,119,2,1,0,1,0,,,,,0,23,23,16,,,,,,up,0.48369688257844246,2443.9889546673785,None,001,58,2019_Oct_24_1005,ACPT_experiment_5_30_19,3.1.0,59.927460465041285,
,,,C,D,y,b,R,D,d,L,c,,,,,5,19,119,2,1,0,1,0,,,,,0,24,24,0,,,,,,up,0.5003863798683597,2445.756990306091,None,001,58,2019_Oct_24_1005,ACPT_experiment_5_30_19,3.1.0,59.927460465041285,
,,,C,D,y,b,R,G,g,L,c ,,,,,5,19,119,2,1,0,1,0,,,,,0,25,25,6,,,,,,up,0.4836914491124844,2447.541714234657,None,001,58,2019_Oct_24_1005,ACPT_experiment_5_30_19,3.1.0,59.927460465041285,
,,,C,D,y,b,R,U,d,R,u,,,,,5,19,119,2,1,0,1,0,,,,,0,26,26,9,,,,,,up,0.567115088677383,2449.3097595328663,None,001,58,2019_Oct_24_1005,ACPT_experiment_5_30_19,3.1.0,59.927460465041285,
,,,C,D,y,b,L,U,d,L,u,,,,,5,19,119,2,1,0,1,0,,,,,0,27,27,20,,,,,,down,0.7002887585795179,2451.1781214210814,None,001,58,2019_Oct_24_1005,ACPT_experiment_5_30_19,3.1.0,59.927460465041285,
,,,C,D,y,b,R,G,g,R,c ,,,,,5,19,119,2,1,0,1,0,,,,,0,28,28,7,,,,,,up,0.5337351885200405,2453.1627284093647,None,001,58,2019_Oct_24_1005,ACPT_experiment_5_30_19,3.1.0,59.927460465041285,
,,,C,D,y,b,R,G,d,R,i,,,,,5,19,119,2,1,0,1,0,,,,,0,29,29,5,,,,,,up,0.6171645634121887,2454.96409625447,None,001,58,2019_Oct_24_1005,ACPT_experiment_5_30_19,3.1.0,59.927460465041285,
,,,C,D,y,b,R,G,d,L,i,,,,,5,19,119,2,1,0,1,0,,,,,0,30,30,4,,,,,,up,0.6339748044101725,2456.8487606563867,None,001,58,2019_Oct_24_1005,ACPT_experiment_5_30_19,3.1.0,59.927460465041285,
,,,C,D,y,b,R,D,y,L,y,,,,,5,19,119,2,1,0,1,0,,,,,0,31,31,26,,,,,,down,0.8172933365776771,2458.767063651857,None,001,58,2019_Oct_24_1005,ACPT_experiment_5_30_19,3.1.0,59.927460465041285,
,,,C,D,y,b,R,D,d,R,c ,,,,,5,19,119,2,1,0,1,0,,,,,0,32,32,1,,,,,,down,0.9173732689123426,2460.852011077028,None,001,58,2019_Oct_24_1005,ACPT_experiment_5_30_19,3.1.0,59.927460465041285,
,,,C,D,y,b,L,U,d,R,u,,,,,5,19,119,2,1,0,1,0,,,,,0,33,33,21,,,,,,up,0.7005371887607907,2463.053713140719,None,001,58,2019_Oct_24_1005,ACPT_experiment_5_30_19,3.1.0,59.927460465041285,
,,,C,D,y,b,L,D,d,R,c ,,,,,5,19,119,2,1,0,1,0,,,,,0,34,34,13,,,,,,up,0.8173404266244688,2465.03856191828,None,001,58,2019_Oct_24_1005,ACPT_experiment_5_30_19,3.1.0,59.927460465041285,
,,,C,D,y,b,L,G,y,R,y,,,,,5,19,119,2,1,0,1,0,,,,,0,35,35,35,,,,,,down,0.6338211580405186,2467.14020699094,None,001,58,2019_Oct_24_1005,ACPT_experiment_5_30_19,3.1.0,59.927460465041285,
,,,C,D,y,b,L,D,d,R,c ,,,,,5,19,119,2,1,0,1,0,,,,,1,0,36,13,,,,,,up,0.5837771167725805,2469.058362075367,None,001,58,2019_Oct_24_1005,ACPT_experiment_5_30_19,3.1.0,59.927460465041285,
,,,C,D,y,b,R,U,g,L,u,,,,,5,19,119,2,1,0,1,0,,,,,1,1,37,10,,,,,,up,0.6168657227326548,2470.9434279501156,None,001,58,2019_Oct_24_1005,ACPT_experiment_5_30_19,3.1.0,59.927460465041285,
,,,C,D,y,b,L,U,g,L,u,,,,,5,19,119,2,1,0,1,0,,,,,1,2,38,22,,,,,,up,0.617117473365397,2472.8446532572725,None,001,58,2019_Oct_24_1005,ACPT_experiment_5_30_19,3.1.0,59.927460465041285,
,,,C,D,y,b,L,D,y,L,y,,,,,5,19,119,2,1,0,1,0,,,,,1,3,39,32,,,,,,down,0.6672055860872206,2474.7627808725065,None,001,58,2019_Oct_24_1005,ACPT_experiment_5_30_19,3.1.0,59.927460465041285,
,,,C,D,y,b,R,D,g,L,i,,,,,5,19,119,2,1,0,1,0,,,,,1,4,40,2,,,,,,up,0.6338018390470097,2476.730987846542,None,001,58,2019_Oct_24_1005,ACPT_experiment_5_30_19,3.1.0,59.927460465041285,
,,,C,D,y,b,R,U,y,R,u,,,,,5,19,119,2,1,0,1,0,,,,,1,5,41,31,,,,,,down,0.717222460020821,2478.6491218008196,None,001,58,2019_Oct_24_1005,ACPT_experiment_5_30_19,3.1.0,59.927460465041285,
,,,C,D,y,b,R,G,d,R,i,,,,,5,19,119,2,1,0,1,0,,,,,1,6,42,5,,,,,,up,0.5670972789803272,2480.6506682258705,None,001,58,2019_Oct_24_1005,ACPT_experiment_5_30_19,3.1.0,59.927460465041285,
,,,C,D,y,b,R,U,g,R,u,,,,,5,19,119,2,1,0,1,0,,,,,1,7,43,11,,,,,,up,0.5504358546031654,2482.5021015442517,None,001,58,2019_Oct_24_1005,ACPT_experiment_5_30_19,3.1.0,59.927460465041285,
,,,C,D,y,b,L,G,g,L,c ,,,,,5,19,119,2,1,0,1,0,,,,,1,8,44,18,,,,,,up,0.5668334539759599,2484.3371245851695,None,001,58,2019_Oct_24_1005,ACPT_experiment_5_30_19,3.1.0,59.927460465041285,
,,,C,D,y,b,R,U,d,L,u,,,,,5,19,119,2,1,0,1,0,,,,,1,9,45,8,,,,,,down,0.7339080331394143,2486.1882874376433,None,001,58,2019_Oct_24_1005,ACPT_experiment_5_30_19,3.1.0,59.927460465041285,
,,,C,D,y,b,R,D,g,R,i,,,,,5,19,119,2,1,0,1,0,,,,,1,10,46,3,,,,,,up,0.6171446406997347,2488.206514002346,None,001,58,2019_Oct_24_1005,ACPT_experiment_5_30_19,3.1.0,59.927460465041285,
,,,C,D,y,b,R,G,y,L,y,,,,,5,19,119,2,1,0,1,0,,,,,1,11,47,28,,,,,,down,0.8840141970449622,2490.107990154558,None,001,58,2019_Oct_24_1005,ACPT_experiment_5_30_19,3.1.0,59.927460465041285,
,,,C,D,y,b,L,U,d,L,u,,,,,5,19,119,2,1,0,1,0,,,,,1,12,48,20,,,,,,up,0.5838063971223164,2492.2763340519596,None,001,58,2019_Oct_24_1005,ACPT_experiment_5_30_19,3.1.0,59.927460465041285,
,,,C,D,y,b,L,U,g,R,u,,,,,5,19,119,2,1,0,1,0,,,,,1,13,49,23,,,,,,up,0.5504331378697316,2494.127783368882,None,001,58,2019_Oct_24_1005,ACPT_experiment_5_30_19,3.1.0,59.927460465041285,
,,,C,D,y,b,L,G,y,R,y,,,,,5,19,119,2,1,0,1,0,,,,,1,14,50,35,,,,,,down,0.6004539359728369,2495.96252054907,None,001,58,2019_Oct_24_1005,ACPT_experiment_5_30_19,3.1.0,59.927460465041285,
,,,C,D,y,b,R,U,y,L,u,,,,,5,19,119,2,1,0,1,0,,,,,1,15,51,30,,,,,,down,0.6338440993449694,2497.847286073843,None,001,58,2019_Oct_24_1005,ACPT_experiment_5_30_19,3.1.0,59.927460465041285,
,,,C,D,y,b,L,D,y,R,y,,,,,5,19,119,2,1,0,1,0,,,,,1,16,52,33,,,,,,down,0.7339013922355662,2499.7654637977157,None,001,58,2019_Oct_24_1005,ACPT_experiment_5_30_19,3.1.0,59.927460465041285,
,,,C,D,y,b,R,G,y,R,y,,,,,5,19,119,2,1,0,1,0,,,,,1,17,53,29,,,,,,down,0.6338317231147812,2501.7836903624184,None,001,58,2019_Oct_24_1005,ACPT_experiment_5_30_19,3.1.0,59.927460465041285,
,,,C,D,y,b,R,D,y,R,y,,,,,5,19,119,2,1,0,1,0,,,,,1,18,54,27,,,,,,down,0.5835123861916145,2503.702110177427,None,001,58,2019_Oct_24_1005,ACPT_experiment_5_30_19,3.1.0,59.927460465041285,
,,,C,D,y,b,R,G,g,L,c ,,,,,5,19,119,2,1,0,1,0,,,,,1,19,55,6,,,,,,up,0.7839499613919543,2505.5699622253305,None,001,58,2019_Oct_24_1005,ACPT_experiment_5_30_19,3.1.0,59.927460465041285,
,,,C,D,y,b,L,G,d,R,i,,,,,5,19,119,2,1,0,1,0,,,,,1,20,56,17,,,,,,up,0.55039751847562,2507.6382261903973,None,001,58,2019_Oct_24_1005,ACPT_experiment_5_30_19,3.1.0,59.927460465041285,
,,,C,D,y,b,L,G,g,R,c ,,,,,5,19,119,2,1,0,1,0,,,,,1,21,57,19,,,,,,up,0.4503794672909862,2509.456270854703,None,001,58,2019_Oct_24_1005,ACPT_experiment_5_30_19,3.1.0,59.927460465041285,
,,,C,D,y,b,L,D,g,R,i,,,,,5,19,119,2,1,0,1,0,,,,,1,22,58,15,,,,,,up,0.500404491424888,2511.1909757963194,None,001,58,2019_Oct_24_1005,ACPT_experiment_5_30_19,3.1.0,59.927460465041285,
,,,C,D,y,b,L,G,d,L,i,,,,,5,19,119,2,1,0,1,0,,,,,1,23,59,16,,,,,,up,0.6838540305161587,2512.9756927821218,None,001,58,2019_Oct_24_1005,ACPT_experiment_5_30_19,3.1.0,59.927460465041285,
,,,C,D,y,b,L,D,g,L,i,,,,,5,19,119,2,1,0,1,0,,,,,1,24,60,14,,,,,,up,0.5004002653940915,2514.943858401438,None,001,58,2019_Oct_24_1005,ACPT_experiment_5_30_19,3.1.0,59.927460465041285,
,,,C,D,y,b,R,D,d,R,c ,,,,,5,19,119,2,1,0,1,0,,,,,1,25,61,1,,,,,,down,0.9139163765294143,2516.748705174653,None,001,58,2019_Oct_24_1005,ACPT_experiment_5_30_19,3.1.0,59.927460465041285,
,,,C,D,y,b,R,G,d,L,i,,,,,5,19,119,2,1,0,1,0,,,,,1,26,62,4,,,,,,up,0.5503960091791669,2518.9469995490226,None,001,58,2019_Oct_24_1005,ACPT_experiment_5_30_19,3.1.0,59.927460465041285,
,,,C,D,y,b,L,G,y,L,y,,,,,5,19,119,2,1,0,1,0,,,,,1,27,63,34,,,,,,down,0.6338211580405186,2520.798408416802,None,001,58,2019_Oct_24_1005,ACPT_experiment_5_30_19,3.1.0,59.927460465041285,
,,,C,D,y,b,L,D,d,L,c ,,,,,5,19,119,2,1,0,1,0,,,,,1,28,64,12,,,,,,up,0.5338236332872839,2522.7332448483185,None,001,58,2019_Oct_24_1005,ACPT_experiment_5_30_19,3.1.0,59.927460465041285,
,,,C,D,y,b,R,U,d,R,u,,,,,5,19,119,2,1,0,1,0,,,,,1,29,65,9,,,,,,up,0.6171428295438091,2524.551316378099,None,001,58,2019_Oct_24_1005,ACPT_experiment_5_30_19,3.1.0,59.927460465041285,
,,,C,D,y,b,L,U,y,R,u,,,,,5,19,119,2,1,0,1,0,,,,,1,30,66,25,,,,,,down,0.6338217617594637,2526.4527861912666,None,001,58,2019_Oct_24_1005,ACPT_experiment_5_30_19,3.1.0,59.927460465041285,
,,,C,D,y,b,R,D,d,L,c,,,,,5,19,119,2,1,0,1,0,,,,,1,31,67,0,,,,,,up,0.5337258308827586,2528.37095093519,None,001,58,2019_Oct_24_1005,ACPT_experiment_5_30_19,3.1.0,59.927460465041285,
,,,C,D,y,b,R,D,y,L,y,,,,,5,19,119,2,1,0,1,0,,,,,1,32,68,26,,,,,,down,0.5170628972091436,2530.1723341751185,None,001,58,2019_Oct_24_1005,ACPT_experiment_5_30_19,3.1.0,59.927460465041285,
,,,C,D,y,b,L,U,d,R,u,,,,,5,19,119,2,1,0,1,0,,,,,1,33,69,21,,,,,,up,0.583802472951902,2531.973729791276,None,001,58,2019_Oct_24_1005,ACPT_experiment_5_30_19,3.1.0,59.927460465041285,
,,,C,D,y,b,R,G,g,R,c ,,,,,5,19,119,2,1,0,1,0,,,,,1,34,70,7,,,,,,up,0.7172149135385553,2533.8418423437315,None,001,58,2019_Oct_24_1005,ACPT_experiment_5_30_19,3.1.0,59.927460465041285,
,,,C,D,y,b,L,U,y,L,u,,,,,5,19,119,2,1,0,1,0,,,,,1,35,71,24,,,,,,down,0.6504762433733049,2535.876766857784,None,001,58,2019_Oct_24_1005,ACPT_experiment_5_30_19,3.1.0,59.927460465041285,
,,,C,D,y,b,,,,,,,,,,5,19,119,2,2,0,2,0,0,0,0,0,,,,,,,,,,,,,,001,58,2019_Oct_24_1005,ACPT_experiment_5_30_19,3.1.0,59.927460465041285,
,,,C,D,y,b,L,G,g,R,c ,,,,,5,19,119,2,2,0,2,0,,,,,0,0,0,19,,,,,,up,0.8172996756220527,2541.7145990010877,None,001,58,2019_Oct_24_1005,ACPT_experiment_5_30_19,3.1.0,59.927460465041285,
,,,C,D,y,b,R,D,g,L,i,,,,,5,19,119,2,2,0,2,0,,,,,0,1,1,2,,,,,,up,0.5003848705719065,2543.8162310937987,None,001,58,2019_Oct_24_1005,ACPT_experiment_5_30_19,3.1.0,59.927460465041285,
,,,C,D,y,b,R,U,d,R,u,,,,,5,19,119,2,2,0,2,0,,,,,0,2,2,9,,,,,,up,0.6004533322548014,2545.6009447591496,None,001,58,2019_Oct_24_1005,ACPT_experiment_5_30_19,3.1.0,59.927460465041285,
,,,C,D,y,b,L,U,g,R,u,,,,,5,19,119,2,2,0,2,0,,,,,0,3,3,23,,,,,,up,0.5337433387203419,2547.485735941961,None,001,58,2019_Oct_24_1005,ACPT_experiment_5_30_19,3.1.0,59.927460465041285,
,,,C,D,y,b,L,U,g,L,u,,,,,5,19,119,2,2,0,2,0,,,,,0,4,4,22,,,,,,up,0.5671407467152676,2549.2871043907844,None,001,58,2019_Oct_24_1005,ACPT_experiment_5_30_19,3.1.0,59.927460465041285,
,,,C,D,y,b,L,U,y,R,u,,,,,5,19,119,2,2,0,2,0,,,,,0,5,5,25,,,,,,down,0.6672083028206544,2551.1385621597665,None,001,58,2019_Oct_24_1005,ACPT_experiment_5_30_19,3.1.0,59.927460465041285,
,,,C,D,y,b,R,D,d,L,c,,,,,5,19,119,2,2,0,2,0,,,,,0,6,6,0,,,,,,up,0.5503114885832474,2553.0900763160607,None,001,58,2019_Oct_24_1005,ACPT_experiment_5_30_19,3.1.0,59.927460465041285,
,,,C,D,y,b,L,D,d,R,c ,,,,,5,19,119,2,2,0,2,0,,,,,0,7,7,13,,,,,,up,0.4836832989112736,2554.9415198976576,None,001,58,2019_Oct_24_1005,ACPT_experiment_5_30_19,3.1.0,59.927460465041285,
,,,C,D,y,b,R,D,d,R,c ,,,,,5,19,119,2,2,0,2,0,,,,,0,8,8,1,,,,,,up,0.5003749092156795,2556.692866340941,None,001,58,2019_Oct_24_1005,ACPT_experiment_5_30_19,3.1.0,59.927460465041285,
,,,C,D,y,b,L,U,y,L,u,,,,,5,19,119,2,2,0,2,0,,,,,0,9,9,24,,,,,,down,1.5845788549995632,2558.477554951971,None,001,58,2019_Oct_24_1005,ACPT_experiment_5_30_19,3.1.0,59.927460465041285,
,,,C,D,y,b,R,G,g,R,c ,,,,,5,19,119,2,2,0,2,0,,,,,0,10,10,7,,,,,,up,0.5501904430147988,2561.3633821158037,None,001,58,2019_Oct_24_1005,ACPT_experiment_5_30_19,3.1.0,59.927460465041285,
,,,C,D,y,b,R,D,y,R,y,,,,,5,19,119,2,2,0,2,0,,,,,0,11,11,27,,,,,,down,1.26764956070474,2563.197894410834,None,001,58,2019_Oct_24_1005,ACPT_experiment_5_30_19,3.1.0,59.927460465041285,
,,,C,D,y,b,R,G,g,L,c ,,,,,5,19,119,2,2,0,2,0,,,,,0,12,12,6,,,,,,up,0.567094562245984,2565.7498772942063,None,001,58,2019_Oct_24_1005,ACPT_experiment_5_30_19,3.1.0,59.927460465041285,
,,,C,D,y,b,R,G,d,R,i,,,,,5,19,119,2,2,0,2,0,,,,,0,13,13,5,,,,,,up,0.6338453067828596,2567.584604814897,None,001,58,2019_Oct_24_1005,ACPT_experiment_5_30_19,3.1.0,59.927460465041285,
,,,C,D,y,b,L,D,g,R,i,,,,,5,19,119,2,2,0,2,0,,,,,0,14,14,15,,,,,,up,0.46705417347584444,2569.502776501584,None,001,58,2019_Oct_24_1005,ACPT_experiment_5_30_19,3.1.0,59.927460465041285,
,,,C,D,y,b,R,U,d,L,u,,,,,5,19,119,2,2,0,2,0,,,,,0,15,15,8,,,,,,up,0.6671778150339378,2571.2541380378298,None,001,58,2019_Oct_24_1005,ACPT_experiment_5_30_19,3.1.0,59.927460465041285,
,,,C,D,y,b,R,U,g,L,u,,,,,5,19,119,2,2,0,2,0,,,,,0,16,16,10,,,,,,up,0.7005338683084119,2573.205646156939,None,001,58,2019_Oct_24_1005,ACPT_experiment_5_30_19,3.1.0,59.927460465041285,
,,,C,D,y,b,R,G,d,L,i,,,,,5,19,119,2,2,0,2,0,,,,,0,17,17,4,,,,,,up,0.5668283223685648,2575.2074648590524,None,001,58,2019_Oct_24_1005,ACPT_experiment_5_30_19,3.1.0,59.927460465041285,
,,,C,D,y,b,R,G,y,R,y,,,,,5,19,119,2,2,0,2,0,,,,,0,18,18,29,,,,,,down,0.8506889334166772,2577.0586026572064,None,001,58,2019_Oct_24_1005,ACPT_experiment_5_30_19,3.1.0,59.927460465041285,
,,,C,D,y,b,L,D,g,L,i,,,,,5,19,119,2,2,0,2,0,,,,,0,19,19,14,,,,,,up,0.6504925437739075,2579.193617366809,None,001,58,2019_Oct_24_1005,ACPT_experiment_5_30_19,3.1.0,59.927460465041285,
,,,C,D,y,b,L,G,d,R,i,,,,,5,19,119,2,2,0,2,0,,,,,0,20,20,17,,,,,,up,0.6338362510041406,2581.1284205938055,None,001,58,2019_Oct_24_1005,ACPT_experiment_5_30_19,3.1.0,59.927460465041285,
,,,C,D,y,b,L,D,y,R,y,,,,,5,19,119,2,2,0,2,0,,,,,0,21,21,33,,,,,,down,0.8006150080809675,2583.063273023863,None,001,58,2019_Oct_24_1005,ACPT_experiment_5_30_19,3.1.0,59.927460465041285,
,,,C,D,y,b,L,G,g,L,c ,,,,,5,19,119,2,2,0,2,0,,,,,0,22,22,18,,,,,,up,1.100819789410707,2585.164922322553,None,001,58,2019_Oct_24_1005,ACPT_experiment_5_30_19,3.1.0,59.927460465041285,
,,,C,D,y,b,L,D,y,L,y,,,,,5,19,119,2,2,0,2,0,,,,,0,23,23,32,,,,,,down,0.6004617843145752,2587.550076642069,None,001,58,2019_Oct_24_1005,ACPT_experiment_5_30_19,3.1.0,59.927460465041285,
,,,C,D,y,b,L,U,d,R,u,,,,,5,19,119,2,2,0,2,0,,,,,0,24,24,21,,,,,,up,0.7505776077168775,2589.434871749051,None,001,58,2019_Oct_24_1005,ACPT_experiment_5_30_19,3.1.0,59.927460465041285,
,,,C,D,y,b,R,U,g,R,u,,,,,5,19,119,2,2,0,2,0,,,,,0,25,25,11,,,,,,up,0.5337357922389856,2591.4697820757174,None,001,58,2019_Oct_24_1005,ACPT_experiment_5_30_19,3.1.0,59.927460465041285,
,,,C,D,y,b,R,G,y,L,y,,,,,5,19,119,2,2,0,2,0,,,,,0,26,26,28,,,,,,down,0.8840054431266253,2593.2878656798684,None,001,58,2019_Oct_24_1005,ACPT_experiment_5_30_19,3.1.0,59.927460465041285,
,,,C,D,y,b,L,G,y,R,y,,,,,5,19,119,2,2,0,2,0,,,,,0,27,27,35,,,,,,down,0.817297562607564,2595.4728842834556,None,001,58,2019_Oct_24_1005,ACPT_experiment_5_30_19,3.1.0,59.927460465041285,
,,,C,D,y,b,R,U,y,R,u,,,,,5,19,119,2,2,0,2,0,,,,,0,28,28,31,,,,,,down,0.6838507100628703,2597.591188969338,None,001,58,2019_Oct_24_1005,ACPT_experiment_5_30_19,3.1.0,59.927460465041285,
,,,C,D,y,b,R,D,y,L,y,,,,,5,19,119,2,2,0,2,0,,,,,0,29,29,26,,,,,,down,0.6504726210614535,2599.5760742718703,None,001,58,2019_Oct_24_1005,ACPT_experiment_5_30_19,3.1.0,59.927460465041285,
,,,C,D,y,b,L,D,d,L,c ,,,,,5,19,119,2,2,0,2,0,,,,,0,30,30,12,,,,,,up,0.6505194092496822,2601.527566090578,None,001,58,2019_Oct_24_1005,ACPT_experiment_5_30_19,3.1.0,59.927460465041285,
,,,C,D,y,b,L,G,y,L,y,,,,,5,19,119,2,2,0,2,0,,,,,0,31,31,34,,,,,,down,0.6337858405058796,2603.4791056030517,None,001,58,2019_Oct_24_1005,ACPT_experiment_5_30_19,3.1.0,59.927460465041285,
,,,C,D,y,b,R,D,g,R,i,,,,,5,19,119,2,2,0,2,0,,,,,0,32,32,3,,,,,,up,0.8506596530669412,2605.413907622611,None,001,58,2019_Oct_24_1005,ACPT_experiment_5_30_19,3.1.0,59.927460465041285,
,,,C,D,y,b,L,U,d,L,u,,,,,5,19,119,2,2,0,2,0,,,,,0,33,33,20,,,,,,up,0.4970613999867055,2607.5688945490856,None,001,58,2019_Oct_24_1005,ACPT_experiment_5_30_19,3.1.0,59.927460465041285,
,,,C,D,y,b,R,U,y,L,u,,,,,5,19,119,2,2,0,2,0,,,,,0,34,34,30,,,,,,down,0.6504828842771531,2609.3669724299853,None,001,58,2019_Oct_24_1005,ACPT_experiment_5_30_19,3.1.0,59.927460465041285,
,,,C,D,y,b,L,G,d,L,i,,,,,5,19,119,2,2,0,2,0,,,,,0,35,35,16,,,,,,up,0.6004575582846883,2611.318479643516,None,001,58,2019_Oct_24_1005,ACPT_experiment_5_30_19,3.1.0,59.927460465041285,
,,,C,D,y,b,R,U,g,R,u,,,,,5,19,119,2,2,0,2,0,,,,,1,0,36,11,,,,,,up,0.6839011205620409,2613.2032699207502,None,001,58,2019_Oct_24_1005,ACPT_experiment_5_30_19,3.1.0,59.927460465041285,
,,,C,D,y,b,L,G,g,L,c ,,,,,5,19,119,2,2,0,2,0,,,,,1,1,37,18,,,,,,up,0.6338637201979509,2615.1714349363465,None,001,58,2019_Oct_24_1005,ACPT_experiment_5_30_19,3.1.0,59.927460465041285,
,,,C,D,y,b,R,G,y,L,y,,,,,5,19,119,2,2,0,2,0,,,,,1,2,38,28,,,,,,down,0.6671735890040509,2617.0896141695157,None,001,58,2019_Oct_24_1005,ACPT_experiment_5_30_19,3.1.0,59.927460465041285,
,,,C,D,y,b,L,D,y,L,y,,,,,5,19,119,2,2,0,2,0,,,,,1,3,39,32,,,,,,down,0.5837737963211111,2619.0411280239505,None,001,58,2019_Oct_24_1005,ACPT_experiment_5_30_19,3.1.0,59.927460465041285,
,,,C,D,y,b,L,D,g,R,i,,,,,5,19,119,2,2,0,2,0,,,,,1,4,40,15,,,,,,up,0.6638401570635324,2620.929254751718,None,001,58,2019_Oct_24_1005,ACPT_experiment_5_30_19,3.1.0,59.927460465041285,
,,,C,D,y,b,R,G,d,R,i,,,,,5,19,119,2,2,0,2,0,,,,,1,5,41,5,,,,,,up,0.5170707455508818,2622.8774158552187,None,001,58,2019_Oct_24_1005,ACPT_experiment_5_30_19,3.1.0,59.927460465041285,
,,,C,D,y,b,R,D,d,R,c ,,,,,5,19,119,2,2,0,2,0,,,,,1,6,42,1,,,,,,up,0.5837807390844318,2624.678822338311,None,001,58,2019_Oct_24_1005,ACPT_experiment_5_30_19,3.1.0,59.927460465041285,
,,,C,D,y,b,L,U,g,R,u,,,,,5,19,119,2,2,0,2,0,,,,,1,7,43,23,,,,,,up,0.4837002030308213,2626.5469300610175,None,001,58,2019_Oct_24_1005,ACPT_experiment_5_30_19,3.1.0,59.927460465041285,
,,,C,D,y,b,L,G,y,R,y,,,,,5,19,119,2,2,0,2,0,,,,,1,8,44,35,,,,,,down,0.6171144547724907,2628.331664856517,None,001,58,2019_Oct_24_1005,ACPT_experiment_5_30_19,3.1.0,59.927460465041285,
,,,C,D,y,b,L,G,d,L,i,,,,,5,19,119,2,2,0,2,0,,,,,1,9,45,16,,,,,,up,0.5170650102236323,2630.2497957922023,None,001,58,2019_Oct_24_1005,ACPT_experiment_5_30_19,3.1.0,59.927460465041285,
,,,C,D,y,b,R,U,y,L,u,,,,,5,19,119,2,2,0,2,0,,,,,1,10,46,30,,,,,,down,0.5671256537525551,2632.051166354041,None,001,58,2019_Oct_24_1005,ACPT_experiment_5_30_19,3.1.0,59.927460465041285,
,,,C,D,y,b,L,G,d,R,i,,,,,5,19,119,2,2,0,2,0,,,,,1,11,47,17,,,,,,up,0.4667779722421983,2633.9195457500928,None,001,58,2019_Oct_24_1005,ACPT_experiment_5_30_19,3.1.0,59.927460465041285,
,,,C,D,y,b,R,U,d,L,u,,,,,5,19,119,2,2,0,2,0,,,,,1,12,48,8,,,,,,down,0.7339566324817497,2635.6706633840477,None,001,58,2019_Oct_24_1005,ACPT_experiment_5_30_19,3.1.0,59.927460465041285,
,,,C,D,y,b,L,U,y,R,u,,,,,5,19,119,2,2,0,2,0,,,,,1,13,49,25,,,,,,down,0.7005420185087132,2637.688888439454,None,001,58,2019_Oct_24_1005,ACPT_experiment_5_30_19,3.1.0,59.927460465041285,
,,,C,D,y,b,R,D,g,R,i,,,,,5,19,119,2,2,0,2,0,,,,,1,14,50,3,,,,,,up,0.5837750037580918,2639.6737646862084,None,001,58,2019_Oct_24_1005,ACPT_experiment_5_30_19,3.1.0,59.927460465041285,
,,,C,D,y,b,L,U,y,L,u,,,,,5,19,119,2,2,0,2,0,,,,,1,15,51,24,,,,,,down,0.6138247924263851,2641.5618678689516,None,001,58,2019_Oct_24_1005,ACPT_experiment_5_30_19,3.1.0,59.927460465041285,
,,,C,D,y,b,L,D,g,L,i,,,,,5,19,119,2,2,0,2,0,,,,,1,16,52,14,,,,,,up,0.6171431314032816,2643.460022663594,None,001,58,2019_Oct_24_1005,ACPT_experiment_5_30_19,3.1.0,59.927460465041285,
,,,C,D,y,b,L,D,d,L,c ,,,,,5,19,119,2,2,0,2,0,,,,,1,17,53,12,,,,,,up,0.5504189504836177,2645.361497608369,None,001,58,2019_Oct_24_1005,ACPT_experiment_5_30_19,3.1.0,59.927460465041285,
,,,C,D,y,b,L,G,g,R,c ,,,,,5,19,119,2,2,0,2,0,,,,,1,18,54,19,,,,,,up,0.567099391994816,2647.1962483722236,None,001,58,2019_Oct_24_1005,ACPT_experiment_5_30_19,3.1.0,59.927460465041285,
,,,C,D,y,b,L,U,g,L,u,,,,,5,19,119,2,2,0,2,0,,,,,1,19,55,22,,,,,,up,0.4836965807189699,2649.0476859166347,None,001,58,2019_Oct_24_1005,ACPT_experiment_5_30_19,3.1.0,59.927460465041285,
,,,C,D,y,b,R,U,g,L,u,,,,,5,19,119,2,2,0,2,0,,,,,1,20,56,10,,,,,,up,0.5337357922380761,2650.81571642374,None,001,58,2019_Oct_24_1005,ACPT_experiment_5_30_19,3.1.0,59.927460465041285,
,,,C,D,y,b,L,D,y,R,y,,,,,5,19,119,2,2,0,2,0,,,,,1,21,57,33,,,,,,down,0.8172930347182046,2652.633794594425,None,001,58,2019_Oct_24_1005,ACPT_experiment_5_30_19,3.1.0,59.927460465041285,
,,,C,D,y,b,L,U,d,L,u,,,,,5,19,119,2,2,0,2,0,,,,,1,22,58,20,,,,,,up,0.5170785938917106,2654.7521047137743,None,001,58,2019_Oct_24_1005,ACPT_experiment_5_30_19,3.1.0,59.927460465041285,
,,,C,D,y,b,L,U,d,R,u,,,,,5,19,119,2,2,0,2,0,,,,,1,23,59,21,,,,,,up,0.4837503116696098,2656.5534945946056,None,001,58,2019_Oct_24_1005,ACPT_experiment_5_30_19,3.1.0,59.927460465041285,
,,,C,D,y,b,R,G,y,R,y,,,,,5,19,119,2,2,0,2,0,,,,,1,24,60,29,,,,,,down,0.7670615388424267,2658.3383628119036,None,001,58,2019_Oct_24_1005,ACPT_experiment_5_30_19,3.1.0,59.927460465041285,
,,,C,D,y,b,R,D,d,L,c,,,,,5,19,119,2,2,0,2,0,,,,,1,25,61,0,,,,,,up,0.5004060007204316,2660.406496675624,None,001,58,2019_Oct_24_1005,ACPT_experiment_5_30_19,3.1.0,59.927460465041285,
,,,C,D,y,b,R,D,y,L,y,,,,,5,19,119,2,2,0,2,0,,,,,1,26,62,26,,,,,,down,1.1008572199607443,2662.191190116403,None,001,58,2019_Oct_24_1005,ACPT_experiment_5_30_19,3.1.0,59.927460465041285,
,,,C,D,y,b,R,G,g,L,c ,,,,,5,19,119,2,2,0,2,0,,,,,1,27,63,6,,,,,,up,0.5504298174173528,2664.576365867927,None,001,58,2019_Oct_24_1005,ACPT_experiment_5_30_19,3.1.0,59.927460465041285,
,,,C,D,y,b,R,G,d,L,i,,,,,5,19,119,2,2,0,2,0,,,,,1,28,64,4,,,,,,up,0.4837104662456113,2666.394441321878,None,001,58,2019_Oct_24_1005,ACPT_experiment_5_30_19,3.1.0,59.927460465041285,
,,,C,D,y,b,R,G,g,R,c ,,,,,5,19,119,2,2,0,2,0,,,,,1,29,65,7,,,,,,up,0.5837734944625481,2668.145800141391,None,001,58,2019_Oct_24_1005,ACPT_experiment_5_30_19,3.1.0,59.927460465041285,
,,,C,D,y,b,L,G,y,L,y,,,,,5,19,119,2,2,0,2,0,,,,,1,30,66,34,,,,,,down,0.5337409238463806,2670.0306040022915,None,001,58,2019_Oct_24_1005,ACPT_experiment_5_30_19,3.1.0,59.927460465041285,
,,,C,D,y,b,R,U,d,R,u,,,,,5,19,119,2,2,0,2,0,,,,,1,31,67,9,,,,,,up,0.4836881286601056,2671.882028868613,None,001,58,2019_Oct_24_1005,ACPT_experiment_5_30_19,3.1.0,59.927460465041285,
,,,C,D,y,b,R,D,y,R,y,,,,,5,19,119,2,2,0,2,0,,,,,1,32,68,27,,,,,,down,0.6671684573966559,2673.666750684164,None,001,58,2019_Oct_24_1005,ACPT_experiment_5_30_19,3.1.0,59.927460465041285,
,,,C,D,y,b,R,U,y,R,u,,,,,5,19,119,2,2,0,2,0,,,,,1,33,69,31,,,,,,down,0.7673507200242966,2675.6182717832216,None,001,58,2019_Oct_24_1005,ACPT_experiment_5_30_19,3.1.0,59.927460465041285,
,,,C,D,y,b,L,D,d,R,c ,,,,,5,19,119,2,2,0,2,0,,,,,1,34,70,13,,,,,,up,0.5170659158011404,2677.669838704516,None,001,58,2019_Oct_24_1005,ACPT_experiment_5_30_19,3.1.0,59.927460465041285,
,,,C,D,y,b,R,D,g,L,i,,,,,5,19,119,2,2,0,2,0,,,,,1,35,71,2,,,,,,up,0.6004611805956301,2679.4712285853484,None,001,58,2019_Oct_24_1005,ACPT_experiment_5_30_19,3.1.0,59.927460465041285,
,,,C,D,y,b,,,,,,,,,,5,19,119,2,3,0,3,0,0,0,0,0,,,,,,,,,,,,,,001,58,2019_Oct_24_1005,ACPT_experiment_5_30_19,3.1.0,59.927460465041285,
,,,C,D,y,b,L,D,y,R,y,,,,,5,19,119,2,3,0,3,0,,,,,0,0,0,33,,,,,,down,0.7172354399690448,2683.140738565118,None,001,58,2019_Oct_24_1005,ACPT_experiment_5_30_19,3.1.0,59.927460465041285,
,,,C,D,y,b,L,G,d,R,i,,,,,5,19,119,2,3,0,3,0,,,,,0,1,1,17,,,,,,up,0.5004069062988492,2685.1422635581603,None,001,58,2019_Oct_24_1005,ACPT_experiment_5_30_19,3.1.0,59.927460465041285,
,,,C,D,y,b,L,G,g,L,c ,,,,,5,19,119,2,3,0,3,0,,,,,0,2,2,18,,,,,,up,0.5001083674787878,2686.927274856753,None,001,58,2019_Oct_24_1005,ACPT_experiment_5_30_19,3.1.0,59.927460465041285,
,,,C,D,y,b,L,U,g,R,u,,,,,5,19,119,2,3,0,3,0,,,,,0,3,3,23,,,,,,up,0.5170595767567647,2688.7117192636324,None,001,58,2019_Oct_24_1005,ACPT_experiment_5_30_19,3.1.0,59.927460465041285,
,,,C,D,y,b,R,G,g,R,c ,,,,,5,19,119,2,3,0,3,0,,,,,0,4,4,7,,,,,,up,0.5003839649943984,2690.5131224262723,None,001,58,2019_Oct_24_1005,ACPT_experiment_5_30_19,3.1.0,59.927460465041285,
,,,C,D,y,b,L,D,y,L,y,,,,,5,19,119,2,3,0,3,0,,,,,0,5,5,32,,,,,,down,0.5504337415877671,2692.297808924288,None,001,58,2019_Oct_24_1005,ACPT_experiment_5_30_19,3.1.0,59.927460465041285,
,,,C,D,y,b,L,U,y,R,u,,,,,5,19,119,2,3,0,3,0,,,,,0,6,6,25,,,,,,down,0.8337054251960581,2694.149530820134,None,001,58,2019_Oct_24_1005,ACPT_experiment_5_30_19,3.1.0,59.927460465041285,
,,,C,D,y,b,L,D,g,L,i,,,,,5,19,119,2,3,0,3,0,,,,,0,7,7,14,,,,,,up,0.5170465968085409,2696.267585868398,None,001,58,2019_Oct_24_1005,ACPT_experiment_5_30_19,3.1.0,59.927460465041285,
,,,C,D,y,b,L,D,g,R,i,,,,,5,19,119,2,3,0,3,0,,,,,0,8,8,15,,,,,,up,0.6171687894411662,2698.0522545567164,None,001,58,2019_Oct_24_1005,ACPT_experiment_5_30_19,3.1.0,59.927460465041285,
,,,C,D,y,b,R,U,g,R,u,,,,,5,19,119,2,3,0,3,0,,,,,0,9,9,11,,,,,,up,0.5504222709359965,2699.9537527446555,None,001,58,2019_Oct_24_1005,ACPT_experiment_5_30_19,3.1.0,59.927460465041285,
,,,C,D,y,b,L,U,d,L,u,,,,,5,19,119,2,3,0,3,0,,,,,0,10,10,20,,,,,,up,0.4837204276018383,2701.7885032066506,None,001,58,2019_Oct_24_1005,ACPT_experiment_5_30_19,3.1.0,59.927460465041285,
,,,C,D,y,b,L,G,y,L,y,,,,,5,19,119,2,3,0,3,0,,,,,0,11,11,34,,,,,,down,0.6671838522197504,2703.556541863957,None,001,58,2019_Oct_24_1005,ACPT_experiment_5_30_19,3.1.0,59.927460465041285,
,,,C,D,y,b,R,G,y,L,y,,,,,5,19,119,2,3,0,3,0,,,,,0,12,12,28,,,,,,down,0.6504910344783639,2705.5080517942215,None,001,58,2019_Oct_24_1005,ACPT_experiment_5_30_19,3.1.0,59.927460465041285,
,,,C,D,y,b,L,D,d,R,c ,,,,,5,19,119,2,3,0,3,0,,,,,0,13,13,13,,,,,,down,0.9171015955680559,2707.459830379238,None,001,58,2019_Oct_24_1005,ACPT_experiment_5_30_19,3.1.0,59.927460465041285,
,,,C,D,y,b,R,D,d,L,c,,,,,5,19,119,2,3,0,3,0,,,,,0,14,14,0,,,,,,down,0.7172173284125165,2709.644589383851,None,001,58,2019_Oct_24_1005,ACPT_experiment_5_30_19,3.1.0,59.927460465041285,
,,,C,D,y,b,R,U,d,R,u,,,,,5,19,119,2,3,0,3,0,,,,,0,15,15,9,,,,,,down,0.6171355849219253,2711.6294565748267,None,001,58,2019_Oct_24_1005,ACPT_experiment_5_30_19,3.1.0,59.927460465041285,
,,,C,D,y,b,R,D,g,R,i,,,,,5,19,119,2,3,0,3,0,,,,,0,16,16,3,,,,,,up,0.6004684252184234,2713.5309257842755,None,001,58,2019_Oct_24_1005,ACPT_experiment_5_30_19,3.1.0,59.927460465041285,
,,,C,D,y,b,L,U,y,L,u,,,,,5,19,119,2,3,0,3,0,,,,,0,17,17,24,,,,,,down,0.8172794510510357,2715.4157308526137,None,001,58,2019_Oct_24_1005,ACPT_experiment_5_30_19,3.1.0,59.927460465041285,
,,,C,D,y,b,L,G,g,R,c ,,,,,5,19,119,2,3,0,3,0,,,,,0,18,18,19,,,,,,up,0.6505206166857533,2717.5173218924647,None,001,58,2019_Oct_24_1005,ACPT_experiment_5_30_19,3.1.0,59.927460465041285,
,,,C,D,y,b,R,D,y,L,y,,,,,5,19,119,2,3,0,3,0,,,,,0,19,19,26,,,,,,down,0.6338220636180267,2719.452180359707,None,001,58,2019_Oct_24_1005,ACPT_experiment_5_30_19,3.1.0,59.927460465041285,
,,,C,D,y,b,R,G,d,R,i,,,,,5,19,119,2,3,0,3,0,,,,,0,20,20,5,,,,,,up,0.5504316285732784,2721.3703345385566,None,001,58,2019_Oct_24_1005,ACPT_experiment_5_30_19,3.1.0,59.927460465041285,
,,,C,D,y,b,R,D,g,L,i,,,,,5,19,119,2,3,0,3,0,,,,,0,21,21,2,,,,,,up,0.5004066044393767,2723.205060248092,None,001,58,2019_Oct_24_1005,ACPT_experiment_5_30_19,3.1.0,59.927460465041285,
,,,C,D,y,b,R,U,y,R,u,,,,,5,19,119,2,3,0,3,0,,,,,0,22,22,31,,,,,,down,0.7005332645894669,2724.989800175199,None,001,58,2019_Oct_24_1005,ACPT_experiment_5_30_19,3.1.0,59.927460465041285,
,,,C,D,y,b,L,U,d,R,u,,,,,5,19,119,2,3,0,3,0,,,,,0,23,23,21,,,,,,down,0.6838552379522298,2726.9746640457233,None,001,58,2019_Oct_24_1005,ACPT_experiment_5_30_19,3.1.0,59.927460465041285,
,,,C,D,y,b,R,G,g,L,c ,,,,,5,19,119,2,3,0,3,0,,,,,0,24,24,6,,,,,,up,0.6338386658781019,2728.942842946847,None,001,58,2019_Oct_24_1005,ACPT_experiment_5_30_19,3.1.0,59.927460465041285,
,,,C,D,y,b,R,G,y,R,y,,,,,5,19,119,2,3,0,3,0,,,,,0,25,25,29,,,,,,down,0.6671971340274467,2730.8609977294145,None,001,58,2019_Oct_24_1005,ACPT_experiment_5_30_19,3.1.0,59.927460465041285,
,,,C,D,y,b,R,G,d,L,i,,,,,5,19,119,2,3,0,3,0,,,,,0,26,26,4,,,,,,down,0.6471859773091637,2732.8325142885087,None,001,58,2019_Oct_24_1005,ACPT_experiment_5_30_19,3.1.0,59.927460465041285,
,,,C,D,y,b,R,U,d,L,u,,,,,5,19,119,2,3,0,3,0,,,,,0,27,27,8,,,,,,up,0.6338290063822569,2734.764026042003,None,001,58,2019_Oct_24_1005,ACPT_experiment_5_30_19,3.1.0,59.927460465041285,
,,,C,D,y,b,R,U,g,L,u,,,,,5,19,119,2,3,0,3,0,,,,,0,28,28,10,,,,,,up,0.6338631164790058,2736.665496458889,None,001,58,2019_Oct_24_1005,ACPT_experiment_5_30_19,3.1.0,59.927460465041285,
,,,C,D,y,b,R,U,y,L,u,,,,,5,19,119,2,3,0,3,0,,,,,0,29,29,30,,,,,,down,0.6171373960769415,2738.5836563730645,None,001,58,2019_Oct_24_1005,ACPT_experiment_5_30_19,3.1.0,59.927460465041285,
,,,C,D,y,b,L,D,d,L,c ,,,,,5,19,119,2,3,0,3,0,,,,,0,30,30,12,,,,,,up,0.6171772415018495,2740.4851029430674,None,001,58,2019_Oct_24_1005,ACPT_experiment_5_30_19,3.1.0,59.927460465041285,
,,,C,D,y,b,L,G,y,R,y,,,,,5,19,119,2,3,0,3,0,,,,,0,31,31,35,,,,,,down,0.6171449425592073,2742.3865944901027,None,001,58,2019_Oct_24_1005,ACPT_experiment_5_30_19,3.1.0,59.927460465041285,
,,,C,D,y,b,R,D,y,R,y,,,,,5,19,119,2,3,0,3,0,,,,,0,32,32,27,,,,,,down,0.5837783242104706,2744.2880703404553,None,001,58,2019_Oct_24_1005,ACPT_experiment_5_30_19,3.1.0,59.927460465041285,
,,,C,D,y,b,L,U,g,L,u,,,,,5,19,119,2,3,0,3,0,,,,,0,33,33,22,,,,,,up,0.7338911290198666,2746.156181987333,None,001,58,2019_Oct_24_1005,ACPT_experiment_5_30_19,3.1.0,59.927460465041285,
,,,C,D,y,b,L,G,d,L,i,,,,,5,19,119,2,3,0,3,0,,,,,0,34,34,16,,,,,,up,0.6004500118024225,2748.1744188152506,None,001,58,2019_Oct_24_1005,ACPT_experiment_5_30_19,3.1.0,59.927460465041285,
,,,C,D,y,b,R,D,d,R,c ,,,,,5,19,119,2,3,0,3,0,,,,,0,35,35,1,,,,,,up,0.4670236856891279,2750.059200640425,None,001,58,2019_Oct_24_1005,ACPT_experiment_5_30_19,3.1.0,59.927460465041285,
,,,C,D,y,b,L,G,g,L,c ,,,,,5,19,119,2,3,0,3,0,,,,,1,0,36,18,,,,,,up,2.068278756170912,2751.810557346923,None,001,58,2019_Oct_24_1005,ACPT_experiment_5_30_19,3.1.0,59.927460465041285,
,,,C,D,y,b,R,U,y,L,u,,,,,5,19,119,2,3,0,3,0,,,,,1,1,37,30,,,,,,down,0.5504141207356952,2755.1631585588275,None,001,58,2019_Oct_24_1005,ACPT_experiment_5_30_19,3.1.0,59.927460465041285,
,,,C,D,y,b,R,D,g,L,i,,,,,5,19,119,2,3,0,3,0,,,,,1,2,38,2,,,,,,up,0.6171524890405635,2756.9979035873557,None,001,58,2019_Oct_24_1005,ACPT_experiment_5_30_19,3.1.0,59.927460465041285,
,,,C,D,y,b,R,G,d,L,i,,,,,5,19,119,2,3,0,3,0,,,,,1,3,39,4,,,,,,up,0.5337403201274356,2758.8993800414273,None,001,58,2019_Oct_24_1005,ACPT_experiment_5_30_19,3.1.0,59.927460465041285,
,,,C,D,y,b,R,G,d,R,i,,,,,5,19,119,2,3,0,3,0,,,,,1,4,40,5,,,,,,up,0.5838272254122785,2760.700746980954,None,001,58,2019_Oct_24_1005,ACPT_experiment_5_30_19,3.1.0,59.927460465041285,
,,,C,D,y,b,L,G,y,R,y,,,,,5,19,119,2,3,0,3,0,,,,,1,5,41,35,,,,,,down,0.6505239371390417,2762.5688565148175,None,001,58,2019_Oct_24_1005,ACPT_experiment_5_30_19,3.1.0,59.927460465041285,
,,,C,D,y,b,R,D,d,L,c,,,,,5,19,119,2,3,0,3,0,,,,,1,6,42,0,,,,,,up,0.7172185358494971,2764.503713774623,None,001,58,2019_Oct_24_1005,ACPT_experiment_5_30_19,3.1.0,59.927460465041285,
,,,C,D,y,b,L,U,d,L,u,,,,,5,19,119,2,3,0,3,0,,,,,1,7,43,20,,,,,,down,0.7639366916591825,2766.525262602474,None,001,58,2019_Oct_24_1005,ACPT_experiment_5_30_19,3.1.0,59.927460465041285,
,,,C,D,y,b,L,G,y,L,y,,,,,5,19,119,2,3,0,3,0,,,,,1,8,44,34,,,,,,down,0.567095165964929,2768.573544389312,None,001,58,2019_Oct_24_1005,ACPT_experiment_5_30_19,3.1.0,59.927460465041285,
,,,C,D,y,b,L,U,y,R,u,,,,,5,19,119,2,3,0,3,0,,,,,1,9,45,25,,,,,,down,0.6505012976931539,2770.4249632184474,None,001,58,2019_Oct_24_1005,ACPT_experiment_5_30_19,3.1.0,59.927460465041285,
,,,C,D,y,b,R,D,d,R,c ,,,,,5,19,119,2,3,0,3,0,,,,,1,10,46,1,,,,,,down,0.7505739854059357,2772.3597999518233,None,001,58,2019_Oct_24_1005,ACPT_experiment_5_30_19,3.1.0,59.927460465041285,
,,,C,D,y,b,R,G,g,R,c ,,,,,5,19,119,2,3,0,3,0,,,,,1,11,47,7,,,,,,up,0.5504213653575789,2774.3947039394443,None,001,58,2019_Oct_24_1005,ACPT_experiment_5_30_19,3.1.0,59.927460465041285,
,,,C,D,y,b,R,G,g,L,c ,,,,,5,19,119,2,3,0,3,0,,,,,1,12,48,6,,,,,,up,0.6171567150713599,2776.229461042344,None,001,58,2019_Oct_24_1005,ACPT_experiment_5_30_19,3.1.0,59.927460465041285,
,,,C,D,y,b,R,U,d,R,u,,,,,5,19,119,2,3,0,3,0,,,,,1,13,49,9,,,,,,up,0.5170894608254457,2778.1309024807397,None,001,58,2019_Oct_24_1005,ACPT_experiment_5_30_19,3.1.0,59.927460465041285,
,,,C,D,y,b,L,D,d,L,c ,,,,,5,19,119,2,3,0,3,0,,,,,1,14,50,12,,,,,,up,0.5004017746905447,2779.932325566092,None,001,58,2019_Oct_24_1005,ACPT_experiment_5_30_19,3.1.0,59.927460465041285,
,,,C,D,y,b,L,D,y,L,y,,,,,5,19,119,2,3,0,3,0,,,,,1,15,51,32,,,,,,down,0.7172124986636845,2781.7170401370204,None,001,58,2019_Oct_24_1005,ACPT_experiment_5_30_19,3.1.0,59.927460465041285,
,,,C,D,y,b,L,U,g,R,u,,,,,5,19,119,2,3,0,3,0,,,,,1,16,52,23,,,,,,up,0.7338905253018311,2783.735269116597,None,001,58,2019_Oct_24_1005,ACPT_experiment_5_30_19,3.1.0,59.927460465041285,
,,,C,D,y,b,L,D,g,L,i,,,,,5,19,119,2,3,0,3,0,,,,,1,17,53,14,,,,,,up,0.5666583755992178,2785.7705860477026,None,001,58,2019_Oct_24_1005,ACPT_experiment_5_30_19,3.1.0,59.927460465041285,
,,,C,D,y,b,R,D,y,L,y,,,,,5,19,119,2,3,0,3,0,,,,,1,18,54,26,,,,,,down,0.6338371565825582,2787.621610044911,None,001,58,2019_Oct_24_1005,ACPT_experiment_5_30_19,3.1.0,59.927460465041285,
,,,C,D,y,b,L,D,y,R,y,,,,,5,19,119,2,3,0,3,0,,,,,1,19,55,33,,,,,,down,0.6504985809597201,2789.5564374206488,None,001,58,2019_Oct_24_1005,ACPT_experiment_5_30_19,3.1.0,59.927460465041285,
,,,C,D,y,b,R,G,y,L,y,,,,,5,19,119,2,3,0,3,0,,,,,1,20,56,28,,,,,,down,0.6004711419518571,2791.491273550306,None,001,58,2019_Oct_24_1005,ACPT_experiment_5_30_19,3.1.0,59.927460465041285,
,,,C,D,y,b,L,G,d,L,i,,,,,5,19,119,2,3,0,3,0,,,,,1,21,57,16,,,,,,down,0.7005124363004143,2793.392756645281,None,001,58,2019_Oct_24_1005,ACPT_experiment_5_30_19,3.1.0,59.927460465041285,
,,,C,D,y,b,L,G,g,R,c ,,,,,5,19,119,2,3,0,3,0,,,,,1,22,58,19,,,,,,up,0.884047703424585,2795.3609062660553,None,001,58,2019_Oct_24_1005,ACPT_experiment_5_30_19,3.1.0,59.927460465041285,
,,,C,D,y,b,L,U,d,R,u,,,,,5,19,119,2,3,0,3,0,,,,,1,23,59,21,,,,,,up,0.5670978826983628,2797.5292782363695,None,001,58,2019_Oct_24_1005,ACPT_experiment_5_30_19,3.1.0,59.927460465041285,
,,,C,D,y,b,R,G,y,R,y,,,,,5,19,119,2,3,0,3,0,,,,,1,24,60,29,,,,,,down,0.6838585584046086,2799.380710649172,None,001,58,2019_Oct_24_1005,ACPT_experiment_5_30_19,3.1.0,59.927460465041285,
,,,C,D,y,b,L,D,d,R,c ,,,,,5,19,119,2,3,0,3,0,,,,,1,25,61,13,,,,,,up,0.6504967698037945,2801.3489004172297,None,001,58,2019_Oct_24_1005,ACPT_experiment_5_30_19,3.1.0,59.927460465041285,
,,,C,D,y,b,R,D,y,R,y,,,,,5,19,119,2,3,0,3,0,,,,,1,26,62,27,,,,,,down,0.6004823107450648,2803.3004166865394,None,001,58,2019_Oct_24_1005,ACPT_experiment_5_30_19,3.1.0,59.927460465041285,
,,,C,D,y,b,R,U,d,L,u,,,,,5,19,119,2,3,0,3,0,,,,,1,27,63,8,,,,,,up,0.633819648744975,2805.2018792550834,None,001,58,2019_Oct_24_1005,ACPT_experiment_5_30_19,3.1.0,59.927460465041285,
,,,C,D,y,b,R,U,y,R,u,,,,,5,19,119,2,3,0,3,0,,,,,1,28,64,31,,,,,,down,0.6338437974854969,2807.1033315604136,None,001,58,2019_Oct_24_1005,ACPT_experiment_5_30_19,3.1.0,59.927460465041285,
,,,C,D,y,b,L,U,y,L,u,,,,,5,19,119,2,3,0,3,0,,,,,1,29,65,24,,,,,,down,0.5337306606315906,2809.021518943782,None,001,58,2019_Oct_24_1005,ACPT_experiment_5_30_19,3.1.0,59.927460465041285,
,,,C,D,y,b,L,D,g,R,i,,,,,5,19,119,2,3,0,3,0,,,,,1,30,66,15,,,,,,up,0.600225428504018,2810.8564945927947,None,001,58,2019_Oct_24_1005,ACPT_experiment_5_30_19,3.1.0,59.927460465041285,
,,,C,D,y,b,R,D,g,R,i,,,,,5,19,119,2,3,0,3,0,,,,,1,31,67,3,,,,,,up,0.6004578601432513,2812.741052740248,None,001,58,2019_Oct_24_1005,ACPT_experiment_5_30_19,3.1.0,59.927460465041285,
,,,C,D,y,b,R,U,g,R,u,,,,,5,19,119,2,3,0,3,0,,,,,1,32,68,11,,,,,,up,0.5170650102236323,2814.625844828637,None,001,58,2019_Oct_24_1005,ACPT_experiment_5_30_19,3.1.0,59.927460465041285,
,,,C,D,y,b,R,U,g,L,u,,,,,5,19,119,2,3,0,3,0,,,,,1,33,69,10,,,,,,up,0.5504361564626379,2816.4105391749945,None,001,58,2019_Oct_24_1005,ACPT_experiment_5_30_19,3.1.0,59.927460465041285,
,,,C,D,y,b,L,G,d,R,i,,,,,5,19,119,2,3,0,3,0,,,,,1,34,70,17,,,,,,up,0.5671024105877223,2818.2453098615615,None,001,58,2019_Oct_24_1005,ACPT_experiment_5_30_19,3.1.0,59.927460465041285,
,,,C,D,y,b,L,U,g,L,u,,,,,5,19,119,2,3,0,3,0,,,,,1,35,71,22,,,,,,up,0.46701432805275545,2820.0967474059726,None,001,58,2019_Oct_24_1005,ACPT_experiment_5_30_19,3.1.0,59.927460465041285,
,,,C,D,y,b,,,,,,,,,,5,19,119,2,4,0,4,0,0,0,0,0,,,,,,,,,,,,,,001,58,2019_Oct_24_1005,ACPT_experiment_5_30_19,3.1.0,59.927460465041285,
,,,C,D,y,b,L,U,d,R,u,,,,,5,19,119,2,4,0,4,0,,,,,0,0,0,21,,,,,,down,0.7503204236172678,2823.3828915824124,None,001,58,2019_Oct_24_1005,ACPT_experiment_5_30_19,3.1.0,59.927460465041285,
,,,C,D,y,b,R,U,g,L,u,,,,,5,19,119,2,4,0,4,0,,,,,0,1,1,10,,,,,,up,0.5837728907436031,2825.4175314431714,None,001,58,2019_Oct_24_1005,ACPT_experiment_5_30_19,3.1.0,59.927460465041285,
,,,C,D,y,b,R,D,y,L,y,,,,,5,19,119,2,4,0,4,0,,,,,0,2,2,26,,,,,,down,0.5504458159584829,2827.2856406751744,None,001,58,2019_Oct_24_1005,ACPT_experiment_5_30_19,3.1.0,59.927460465041285,
,,,C,D,y,b,L,G,g,L,c ,,,,,5,19,119,2,4,0,4,0,,,,,0,3,3,18,,,,,,up,0.6004563508467982,2829.1203971743553,None,001,58,2019_Oct_24_1005,ACPT_experiment_5_30_19,3.1.0,59.927460465041285,
,,,C,D,y,b,R,G,y,L,y,,,,,5,19,119,2,4,0,4,0,,,,,0,4,4,28,,,,,,down,0.5837855688323543,2831.0051892627453,None,001,58,2019_Oct_24_1005,ACPT_experiment_5_30_19,3.1.0,59.927460465041285,
,,,C,D,y,b,R,U,y,R,u,,,,,5,19,119,2,4,0,4,0,,,,,0,5,5,31,,,,,,down,0.6337109794067146,2832.8732972873113,None,001,58,2019_Oct_24_1005,ACPT_experiment_5_30_19,3.1.0,59.927460465041285,
,,,C,D,y,b,R,D,d,L,c,,,,,5,19,119,2,4,0,4,0,,,,,0,6,6,0,,,,,,up,0.48370382534176315,2834.791453579175,None,001,58,2019_Oct_24_1005,ACPT_experiment_5_30_19,3.1.0,59.927460465041285,
,,,C,D,y,b,R,D,d,R,c ,,,,,5,19,119,2,4,0,4,0,,,,,0,7,7,1,,,,,,up,0.5835386479484441,2836.559756061485,None,001,58,2019_Oct_24_1005,ACPT_experiment_5_30_19,3.1.0,59.927460465041285,
,,,C,D,y,b,L,U,g,R,u,,,,,5,19,119,2,4,0,4,0,,,,,0,8,8,23,,,,,,up,0.5670987882758709,2838.4275984498927,None,001,58,2019_Oct_24_1005,ACPT_experiment_5_30_19,3.1.0,59.927460465041285,
,,,C,D,y,b,R,U,d,R,u,,,,,5,19,119,2,4,0,4,0,,,,,0,9,9,9,,,,,,up,0.6171893158716557,2840.279007921391,None,001,58,2019_Oct_24_1005,ACPT_experiment_5_30_19,3.1.0,59.927460465041285,
,,,C,D,y,b,L,G,g,R,c ,,,,,5,19,119,2,4,0,4,0,,,,,0,10,10,19,,,,,,up,0.550422572795469,2842.1805033925966,None,001,58,2019_Oct_24_1005,ACPT_experiment_5_30_19,3.1.0,59.927460465041285,
,,,C,D,y,b,R,G,g,R,c ,,,,,5,19,119,2,4,0,4,0,,,,,0,11,11,7,,,,,,up,0.43365525618446554,2844.0152635140885,None,001,58,2019_Oct_24_1005,ACPT_experiment_5_30_19,3.1.0,59.927460465041285,
,,,C,D,y,b,R,U,d,L,u,,,,,5,19,119,2,4,0,4,0,,,,,0,12,12,8,,,,,,down,0.7672532194801533,2845.7332584319856,None,001,58,2019_Oct_24_1005,ACPT_experiment_5_30_19,3.1.0,59.927460465041285,
,,,C,D,y,b,L,U,y,L,u,,,,,5,19,119,2,4,0,4,0,,,,,0,13,13,24,,,,,,down,0.6171340756254722,2847.8015199821784,None,001,58,2019_Oct_24_1005,ACPT_experiment_5_30_19,3.1.0,59.927460465041285,
,,,C,D,y,b,L,U,d,L,u,,,,,5,19,119,2,4,0,4,0,,,,,0,14,14,20,,,,,,up,0.48025417758071853,2849.739798514973,None,001,58,2019_Oct_24_1005,ACPT_experiment_5_30_19,3.1.0,59.927460465041285,
,,,C,D,y,b,R,U,y,L,u,,,,,5,19,119,2,4,0,4,0,,,,,0,15,15,30,,,,,,down,0.6171298495955853,2851.5210679660304,None,001,58,2019_Oct_24_1005,ACPT_experiment_5_30_19,3.1.0,59.927460465041285,
,,,C,D,y,b,L,D,y,R,y,,,,,5,19,119,2,4,0,4,0,,,,,0,16,16,33,,,,,,down,0.7005338683084119,2853.4392224467383,None,001,58,2019_Oct_24_1005,ACPT_experiment_5_30_19,3.1.0,59.927460465041285,
,,,C,D,y,b,R,D,g,R,i,,,,,5,19,119,2,4,0,4,0,,,,,0,17,17,3,,,,,,up,0.5837728907426936,2855.424092656307,None,001,58,2019_Oct_24_1005,ACPT_experiment_5_30_19,3.1.0,59.927460465041285,
,,,C,D,y,b,L,D,d,L,c ,,,,,5,19,119,2,4,0,4,0,,,,,0,18,18,12,,,,,,down,0.6004578601432513,2857.2922009827334,None,001,58,2019_Oct_24_1005,ACPT_experiment_5_30_19,3.1.0,59.927460465041285,
,,,C,D,y,b,R,D,g,L,i,,,,,5,19,119,2,4,0,4,0,,,,,0,19,19,2,,,,,,up,0.683837730115556,2859.1770329165465,None,001,58,2019_Oct_24_1005,ACPT_experiment_5_30_19,3.1.0,59.927460465041285,
,,,C,D,y,b,L,U,g,L,u,,,,,5,19,119,2,4,0,4,0,,,,,0,20,20,22,,,,,,up,0.567095165964929,2861.145183442898,None,001,58,2019_Oct_24_1005,ACPT_experiment_5_30_19,3.1.0,59.927460465041285,
,,,C,D,y,b,L,G,y,L,y,,,,,5,19,119,2,4,0,4,0,,,,,0,21,21,34,,,,,,down,0.550132486034272,2863.0135821579433,None,001,58,2019_Oct_24_1005,ACPT_experiment_5_30_19,3.1.0,59.927460465041285,
,,,C,D,y,b,L,G,d,L,i,,,,,5,19,119,2,4,0,4,0,,,,,0,22,22,16,,,,,,up,0.5003718906227732,2864.8313826180975,None,001,58,2019_Oct_24_1005,ACPT_experiment_5_30_19,3.1.0,59.927460465041285,
,,,C,D,y,b,R,G,g,L,c ,,,,,5,19,119,2,4,0,4,0,,,,,0,23,23,6,,,,,,up,0.5337460554537756,2866.616084510937,None,001,58,2019_Oct_24_1005,ACPT_experiment_5_30_19,3.1.0,59.927460465041285,
,,,C,D,y,b,L,D,g,R,i,,,,,5,19,119,2,4,0,4,0,,,,,0,24,24,15,,,,,,up,0.7172158191160634,2868.417480428954,None,001,58,2019_Oct_24_1005,ACPT_experiment_5_30_19,3.1.0,59.927460465041285,
,,,C,D,y,b,L,D,y,L,y,,,,,5,19,119,2,4,0,4,0,,,,,0,25,25,32,,,,,,down,0.5504379676176541,2870.4190331930495,None,001,58,2019_Oct_24_1005,ACPT_experiment_5_30_19,3.1.0,59.927460465041285,
,,,C,D,y,b,R,G,d,R,i,,,,,5,19,119,2,4,0,4,0,,,,,0,26,26,5,,,,,,up,0.583811830589184,2872.2537782215777,None,001,58,2019_Oct_24_1005,ACPT_experiment_5_30_19,3.1.0,59.927460465041285,
,,,C,D,y,b,R,U,g,R,u,,,,,5,19,119,2,4,0,4,0,,,,,0,27,27,11,,,,,,up,0.633815120854706,2874.1218965093594,None,001,58,2019_Oct_24_1005,ACPT_experiment_5_30_19,3.1.0,59.927460465041285,
,,,C,D,y,b,R,G,d,L,i,,,,,5,19,119,2,4,0,4,0,,,,,0,28,28,4,,,,,,up,0.5304313387887305,2876.060045846386,None,001,58,2019_Oct_24_1005,ACPT_experiment_5_30_19,3.1.0,59.927460465041285,
,,,C,D,y,b,L,U,y,R,u,,,,,5,19,119,2,4,0,4,0,,,,,0,29,29,25,,,,,,down,0.6505019014111895,2877.8747911888486,None,001,58,2019_Oct_24_1005,ACPT_experiment_5_30_19,3.1.0,59.927460465041285,
,,,C,D,y,b,R,G,y,R,y,,,,,5,19,119,2,4,0,4,0,,,,,0,30,30,29,,,,,,down,0.7005350757453925,2879.8263125897656,None,001,58,2019_Oct_24_1005,ACPT_experiment_5_30_19,3.1.0,59.927460465041285,
,,,C,D,y,b,L,G,d,R,i,,,,,5,19,119,2,4,0,4,0,,,,,0,31,31,17,,,,,,up,0.9007124482541258,2881.827858712956,None,001,58,2019_Oct_24_1005,ACPT_experiment_5_30_19,3.1.0,59.927460465041285,
,,,C,D,y,b,L,D,d,R,c ,,,,,5,19,119,2,4,0,4,0,,,,,0,32,32,13,,,,,,up,0.6838579546856636,2884.0128860704626,None,001,58,2019_Oct_24_1005,ACPT_experiment_5_30_19,3.1.0,59.927460465041285,
,,,C,D,y,b,L,D,g,L,i,,,,,5,19,119,2,4,0,4,0,,,,,0,33,33,14,,,,,,up,0.884022649104736,2885.9643815114814,None,001,58,2019_Oct_24_1005,ACPT_experiment_5_30_19,3.1.0,59.927460465041285,
,,,C,D,y,b,L,G,y,R,y,,,,,5,19,119,2,4,0,4,0,,,,,0,34,34,35,,,,,,down,0.7670313529151827,2888.149609907263,None,001,58,2019_Oct_24_1005,ACPT_experiment_5_30_19,3.1.0,59.927460465041285,
,,,C,D,y,b,R,D,y,R,y,,,,,5,19,119,2,4,0,4,0,,,,,0,35,35,27,,,,,,down,0.7673051392748675,2890.20100567435,None,001,58,2019_Oct_24_1005,ACPT_experiment_5_30_19,3.1.0,59.927460465041285,
,,,C,D,y,b,R,D,g,L,i,,,,,5,19,119,2,4,0,4,0,,,,,1,0,36,2,,,,,,up,0.7171729550991586,2892.269314314589,None,001,58,2019_Oct_24_1005,ACPT_experiment_5_30_19,3.1.0,59.927460465041285,
,,,C,D,y,b,L,U,g,L,u,,,,,5,19,119,2,4,0,4,0,,,,,1,1,37,22,,,,,,up,0.7672571436514772,2894.2708224035123,None,001,58,2019_Oct_24_1005,ACPT_experiment_5_30_19,3.1.0,59.927460465041285,
,,,C,D,y,b,R,D,d,L,c,,,,,5,19,119,2,4,0,4,0,,,,,1,2,38,0,,,,,,up,0.6504913363369269,2896.322412567971,None,001,58,2019_Oct_24_1005,ACPT_experiment_5_30_19,3.1.0,59.927460465041285,
,,,C,D,y,b,R,U,g,L,u,,,,,5,19,119,2,4,0,4,0,,,,,1,3,39,10,,,,,,up,0.6338078762328223,2898.257249603206,None,001,58,2019_Oct_24_1005,ACPT_experiment_5_30_19,3.1.0,59.927460465041285,
,,,C,D,y,b,R,G,d,R,i,,,,,5,19,119,2,4,0,4,0,,,,,1,4,40,5,,,,,,up,0.6004623880326108,2900.17538506678,None,001,58,2019_Oct_24_1005,ACPT_experiment_5_30_19,3.1.0,59.927460465041285,
,,,C,D,y,b,R,U,d,L,u,,,,,5,19,119,2,4,0,4,0,,,,,1,5,41,8,,,,,,down,0.7139004987320732,2902.0801828784215,None,001,58,2019_Oct_24_1005,ACPT_experiment_5_30_19,3.1.0,59.927460465041285,
,,,C,D,y,b,L,D,d,R,c ,,,,,5,19,119,2,4,0,4,0,,,,,1,6,42,13,,,,,,up,0.5671012031507416,2904.078413681228,None,001,58,2019_Oct_24_1005,ACPT_experiment_5_30_19,3.1.0,59.927460465041285,
,,,C,D,y,b,L,D,y,L,y,,,,,5,19,119,2,4,0,4,0,,,,,1,7,43,32,,,,,,down,0.600464802906572,2905.9298460940317,None,001,58,2019_Oct_24_1005,ACPT_experiment_5_30_19,3.1.0,59.927460465041285,
,,,C,D,y,b,R,G,g,L,c ,,,,,5,19,119,2,4,0,4,0,,,,,1,8,44,6,,,,,,up,0.5671117682250042,2907.8146378805613,None,001,58,2019_Oct_24_1005,ACPT_experiment_5_30_19,3.1.0,59.927460465041285,
,,,C,D,y,b,R,U,g,R,u,,,,,5,19,119,2,4,0,4,0,,,,,1,9,45,11,,,,,,up,0.8006125932060968,2909.6660748212544,None,001,58,2019_Oct_24_1005,ACPT_experiment_5_30_19,3.1.0,59.927460465041285,
,,,C,D,y,b,L,U,y,R,u,,,,,5,19,119,2,4,0,4,0,,,,,1,10,46,25,,,,,,down,0.6003736414068044,2911.7509953809495,None,001,58,2019_Oct_24_1005,ACPT_experiment_5_30_19,3.1.0,59.927460465041285,
,,,C,D,y,b,L,U,g,R,u,,,,,5,19,119,2,4,0,4,0,,,,,1,11,47,23,,,,,,up,0.7005223976557318,2913.6358155422513,None,001,58,2019_Oct_24_1005,ACPT_experiment_5_30_19,3.1.0,59.927460465041285,
,,,C,D,y,b,L,U,d,R,u,,,,,5,19,119,2,4,0,4,0,,,,,1,12,48,21,,,,,,down,0.6005094780794025,2915.6039787466925,None,001,58,2019_Oct_24_1005,ACPT_experiment_5_30_19,3.1.0,59.927460465041285,
,,,C,D,y,b,R,D,g,R,i,,,,,5,19,119,2,4,0,4,0,,,,,1,13,49,3,,,,,,up,0.5170604823351823,2917.488795587542,None,001,58,2019_Oct_24_1005,ACPT_experiment_5_30_19,3.1.0,59.927460465041285,
,,,C,D,y,b,R,G,g,R,c ,,,,,5,19,119,2,4,0,4,0,,,,,1,14,50,7,,,,,,up,0.5504129132978051,2919.2901905999815,None,001,58,2019_Oct_24_1005,ACPT_experiment_5_30_19,3.1.0,59.927460465041285,
,,,C,D,y,b,L,G,y,R,y,,,,,5,19,119,2,4,0,4,0,,,,,1,15,51,35,,,,,,down,0.5168117502944369,2921.141871141106,None,001,58,2019_Oct_24_1005,ACPT_experiment_5_30_19,3.1.0,59.927460465041285,
,,,C,D,y,b,R,U,d,R,u,,,,,5,19,119,2,4,0,4,0,,,,,1,16,52,9,,,,,,down,0.6004578601432513,2922.943016214069,None,001,58,2019_Oct_24_1005,ACPT_experiment_5_30_19,3.1.0,59.927460465041285,
,,,C,D,y,b,L,G,g,L,c ,,,,,5,19,119,2,4,0,4,0,,,,,1,17,53,18,,,,,,up,0.5504144225942582,2924.8278161507997,None,001,58,2019_Oct_24_1005,ACPT_experiment_5_30_19,3.1.0,59.927460465041285,
,,,C,D,y,b,L,D,d,L,c ,,,,,5,19,119,2,4,0,4,0,,,,,1,18,54,12,,,,,,down,0.6004578601432513,2926.6625835169143,None,001,58,2019_Oct_24_1005,ACPT_experiment_5_30_19,3.1.0,59.927460465041285,
,,,C,D,y,b,R,G,y,R,y,,,,,5,19,119,2,4,0,4,0,,,,,1,19,55,29,,,,,,down,0.6337698419647495,2928.5473964335933,None,001,58,2019_Oct_24_1005,ACPT_experiment_5_30_19,3.1.0,59.927460465041285,
,,,C,D,y,b,L,G,d,L,i,,,,,5,19,119,2,4,0,4,0,,,,,1,20,56,16,,,,,,up,0.7839599227481813,2930.46548088295,None,001,58,2019_Oct_24_1005,ACPT_experiment_5_30_19,3.1.0,59.927460465041285,
,,,C,D,y,b,L,U,y,L,u,,,,,5,19,119,2,4,0,4,0,,,,,1,21,57,24,,,,,,down,0.6670308095690416,2932.5506021790616,None,001,58,2019_Oct_24_1005,ACPT_experiment_5_30_19,3.1.0,59.927460465041285,
,,,C,D,y,b,L,D,g,L,i,,,,,5,19,119,2,4,0,4,0,,,,,1,22,58,14,,,,,,up,0.6004482006474063,2934.535328099899,None,001,58,2019_Oct_24_1005,ACPT_experiment_5_30_19,3.1.0,59.927460465041285,
,,,C,D,y,b,R,U,y,R,u,,,,,5,19,119,2,4,0,4,0,,,,,1,23,59,31,,,,,,down,0.5671087496320979,2936.4201120380876,None,001,58,2019_Oct_24_1005,ACPT_experiment_5_30_19,3.1.0,59.927460465041285,
,,,C,D,y,b,R,D,y,R,y,,,,,5,19,119,2,4,0,4,0,,,,,1,24,60,27,,,,,,down,0.700559224486824,2938.254844388527,None,001,58,2019_Oct_24_1005,ACPT_experiment_5_30_19,3.1.0,59.927460465041285,
,,,C,D,y,b,L,D,g,R,i,,,,,5,19,119,2,4,0,4,0,,,,,1,25,61,15,,,,,,up,0.6505055237230408,2940.239741161711,None,001,58,2019_Oct_24_1005,ACPT_experiment_5_30_19,3.1.0,59.927460465041285,
,,,C,D,y,b,L,D,y,R,y,,,,,5,19,119,2,4,0,4,0,,,,,1,26,62,33,,,,,,down,0.6502531693713536,2942.1748365884832,None,001,58,2019_Oct_24_1005,ACPT_experiment_5_30_19,3.1.0,59.927460465041285,
,,,C,D,y,b,R,G,y,L,y,,,,,5,19,119,2,4,0,4,0,,,,,1,27,63,28,,,,,,down,0.6338489290938014,2944.109398629921,None,001,58,2019_Oct_24_1005,ACPT_experiment_5_30_19,3.1.0,59.927460465041285,
,,,C,D,y,b,R,D,d,R,c ,,,,,5,19,119,2,4,0,4,0,,,,,1,28,64,1,,,,,,up,0.8339888710524974,2946.027551299474,None,001,58,2019_Oct_24_1005,ACPT_experiment_5_30_19,3.1.0,59.927460465041285,
,,,C,D,y,b,L,U,d,L,u,,,,,5,19,119,2,4,0,4,0,,,,,1,29,65,20,,,,,,down,0.7505773058583145,2948.145855683497,None,001,58,2019_Oct_24_1005,ACPT_experiment_5_30_19,3.1.0,59.927460465041285,
,,,C,D,y,b,R,G,d,L,i,,,,,5,19,119,2,4,0,4,0,,,,,1,30,66,4,,,,,,up,0.967424856661637,2950.180785027297,None,001,58,2019_Oct_24_1005,ACPT_experiment_5_30_19,3.1.0,59.927460465041285,
,,,C,D,y,b,L,G,y,L,y,,,,,5,19,119,2,4,0,4,0,,,,,1,31,67,34,,,,,,down,0.5170689343940467,2952.432505776077,None,001,58,2019_Oct_24_1005,ACPT_experiment_5_30_19,3.1.0,59.927460465041285,
,,,C,D,y,b,L,G,g,R,c ,,,,,5,19,119,2,4,0,4,0,,,,,1,32,68,19,,,,,,up,0.7172079707752346,2954.2339137684658,None,001,58,2019_Oct_24_1005,ACPT_experiment_5_30_19,3.1.0,59.927460465041285,
,,,C,D,y,b,R,D,y,L,y,,,,,5,19,119,2,4,0,4,0,,,,,1,33,69,26,,,,,,down,0.5170647083650692,2956.235451741456,None,001,58,2019_Oct_24_1005,ACPT_experiment_5_30_19,3.1.0,59.927460465041285,
,,,C,D,y,b,R,U,y,L,u,,,,,5,19,119,2,4,0,4,0,,,,,1,34,70,30,,,,,,down,0.6169650344327238,2958.053663333939,None,001,58,2019_Oct_24_1005,ACPT_experiment_5_30_19,3.1.0,59.927460465041285,
,,,C,D,y,b,L,G,d,R,i,,,,,5,19,119,2,4,0,4,0,,,,,1,35,71,17,,,,,,up,0.7839312461173904,2959.988359099035,None,001,58,2019_Oct_24_1005,ACPT_experiment_5_30_19,3.1.0,59.927460465041285,
,,,C,D,y,b,,,,,,,,,,5,19,119,2,5,0,5,0,0,0,0,0,,,,,,,,,,,,,,001,58,2019_Oct_24_1005,ACPT_experiment_5_30_19,3.1.0,59.927460465041285,
,,,C,D,y,b,L,U,g,R,u,,,,,5,19,119,2,5,0,5,0,,,,,0,0,0,23,,,,,,up,0.5837750037580918,2966.1097617666255,None,001,58,2019_Oct_24_1005,ACPT_experiment_5_30_19,3.1.0,59.927460465041285,
,,,C,D,y,b,L,U,d,R,u,,,,,5,19,119,2,5,0,5,0,,,,,0,1,1,21,,,,,,up,0.5170882533884651,2967.9778764320954,None,001,58,2019_Oct_24_1005,ACPT_experiment_5_30_19,3.1.0,59.927460465041285,
,,,C,D,y,b,R,G,d,L,i,,,,,5,19,119,2,5,0,5,0,,,,,0,2,2,4,,,,,,up,0.6504874121665125,2969.7792783872983,None,001,58,2019_Oct_24_1005,ACPT_experiment_5_30_19,3.1.0,59.927460465041285,
,,,C,D,y,b,L,G,d,L,i,,,,,5,19,119,2,5,0,5,0,,,,,0,3,3,16,,,,,,up,0.4503513943791404,2971.7140951979627,None,001,58,2019_Oct_24_1005,ACPT_experiment_5_30_19,3.1.0,59.927460465041285,
,,,C,D,y,b,R,D,d,L,c,,,,,5,19,119,2,5,0,5,0,,,,,0,4,4,0,,,,,,down,0.6835886962153381,2973.4657238796644,None,001,58,2019_Oct_24_1005,ACPT_experiment_5_30_19,3.1.0,59.927460465041285,
,,,C,D,y,b,R,U,d,L,u,,,,,5,19,119,2,5,0,5,0,,,,,0,5,5,8,,,,,,up,0.5337819767073597,2975.4336401632218,None,001,58,2019_Oct_24_1005,ACPT_experiment_5_30_19,3.1.0,59.927460465041285,
,,,C,D,y,b,R,D,y,R,y,,,,,5,19,119,2,5,0,5,0,,,,,0,6,6,27,,,,,,down,0.6171413202482654,2977.251717730187,None,001,58,2019_Oct_24_1005,ACPT_experiment_5_30_19,3.1.0,59.927460465041285,
,,,C,D,y,b,L,U,g,L,u,,,,,5,19,119,2,5,0,5,0,,,,,0,7,7,22,,,,,,up,0.6505411431171524,2979.1531896563692,None,001,58,2019_Oct_24_1005,ACPT_experiment_5_30_19,3.1.0,59.927460465041285,
,,,C,D,y,b,R,G,g,L,c ,,,,,5,19,119,2,5,0,5,0,,,,,0,8,8,6,,,,,,up,0.6672288292511439,2981.0713157623068,None,001,58,2019_Oct_24_1005,ACPT_experiment_5_30_19,3.1.0,59.927460465041285,
,,,C,D,y,b,R,U,g,R,u,,,,,5,19,119,2,5,0,5,0,,,,,0,9,9,11,,,,,,up,0.5337493759061545,2983.022853161765,None,001,58,2019_Oct_24_1005,ACPT_experiment_5_30_19,3.1.0,59.927460465041285,
,,,C,D,y,b,L,D,g,R,i,,,,,5,19,119,2,5,0,5,0,,,,,0,10,10,15,,,,,,up,0.45037373196464614,2984.8242173845583,None,001,58,2019_Oct_24_1005,ACPT_experiment_5_30_19,3.1.0,59.927460465041285,
,,,C,D,y,b,R,G,y,R,y,,,,,5,19,119,2,5,0,5,0,,,,,0,11,11,29,,,,,,down,0.6503014668551259,2986.5924425908943,None,001,58,2019_Oct_24_1005,ACPT_experiment_5_30_19,3.1.0,59.927460465041285,
,,,C,D,y,b,L,U,d,L,u,,,,,5,19,119,2,5,0,5,0,,,,,0,12,12,20,,,,,,up,0.6004557471287626,2988.5437943469005,None,001,58,2019_Oct_24_1005,ACPT_experiment_5_30_19,3.1.0,59.927460465041285,
,,,C,D,y,b,R,G,y,L,y,,,,,5,19,119,2,5,0,5,0,,,,,0,13,13,28,,,,,,down,0.617147659292641,2990.4285852278526,None,001,58,2019_Oct_24_1005,ACPT_experiment_5_30_19,3.1.0,59.927460465041285,
,,,C,D,y,b,L,G,d,R,i,,,,,5,19,119,2,5,0,5,0,,,,,0,14,14,17,,,,,,up,0.5837710795876774,2992.330051116849,None,001,58,2019_Oct_24_1005,ACPT_experiment_5_30_19,3.1.0,59.927460465041285,
,,,C,D,y,b,L,G,g,R,c ,,,,,5,19,119,2,5,0,5,0,,,,,0,15,15,19,,,,,,up,0.533475287686997,2994.1984308147603,None,001,58,2019_Oct_24_1005,ACPT_experiment_5_30_19,3.1.0,59.927460465041285,
,,,C,D,y,b,R,G,d,R,i,,,,,5,19,119,2,5,0,5,0,,,,,0,16,16,5,,,,,,up,0.4670270061415067,2996.0162460660194,None,001,58,2019_Oct_24_1005,ACPT_experiment_5_30_19,3.1.0,59.927460465041285,
,,,C,D,y,b,R,U,g,L,u,,,,,5,19,119,2,5,0,5,0,,,,,0,17,17,10,,,,,,up,0.5337451498762675,2997.767597037191,None,001,58,2019_Oct_24_1005,ACPT_experiment_5_30_19,3.1.0,59.927460465041285,
,,,C,D,y,b,L,D,g,L,i,,,,,5,19,119,2,5,0,5,0,,,,,0,18,18,14,,,,,,up,0.4837101643870483,2999.568986012445,None,001,58,2019_Oct_24_1005,ACPT_experiment_5_30_19,3.1.0,59.927460465041285,
,,,C,D,y,b,R,D,y,L,y,,,,,5,19,119,2,5,0,5,0,,,,,0,19,19,26,,,,,,down,0.6502365671121879,3001.353979199481,None,001,58,2019_Oct_24_1005,ACPT_experiment_5_30_19,3.1.0,59.927460465041285,
,,,C,D,y,b,R,G,g,R,c ,,,,,5,19,119,2,5,0,5,0,,,,,0,20,20,7,,,,,,up,0.600464501048009,3003.288533996297,None,001,58,2019_Oct_24_1005,ACPT_experiment_5_30_19,3.1.0,59.927460465041285,
,,,C,D,y,b,L,U,y,L,u,,,,,5,19,119,2,5,0,5,0,,,,,0,21,21,24,,,,,,down,0.6338238747739524,3005.173326688405,None,001,58,2019_Oct_24_1005,ACPT_experiment_5_30_19,3.1.0,59.927460465041285,
,,,C,D,y,b,R,D,g,L,i,,,,,5,19,119,2,5,0,5,0,,,,,0,22,22,2,,,,,,up,0.51708764966952,3007.0914799616758,None,001,58,2019_Oct_24_1005,ACPT_experiment_5_30_19,3.1.0,59.927460465041285,
,,,C,D,y,b,R,U,y,R,u,,,,,5,19,119,2,5,0,5,0,,,,,0,23,23,31,,,,,,up,0.45033871628947963,3008.9095566230644,None,001,58,2019_Oct_24_1005,ACPT_experiment_5_30_19,3.1.0,59.927460465041285,
,,,C,D,y,b,R,D,d,R,c ,,,,,5,19,119,2,5,0,5,0,,,,,0,24,24,1,,,,,,up,0.6838636900120036,3010.6609060849396,None,001,58,2019_Oct_24_1005,ACPT_experiment_5_30_19,3.1.0,59.927460465041285,
,,,C,D,y,b,R,D,g,R,i,,,,,5,19,119,2,5,0,5,0,,,,,0,25,25,3,,,,,,up,0.5337644688697765,3012.612400620381,None,001,58,2019_Oct_24_1005,ACPT_experiment_5_30_19,3.1.0,59.927460465041285,
,,,C,D,y,b,R,U,d,R,u,,,,,5,19,119,2,5,0,5,0,,,,,0,26,26,9,,,,,,up,0.6002637646315634,3014.447334310955,None,001,58,2019_Oct_24_1005,ACPT_experiment_5_30_19,3.1.0,59.927460465041285,
,,,C,D,y,b,L,G,y,R,y,,,,,5,19,119,2,5,0,5,0,,,,,0,27,27,35,,,,,,down,0.5337584316839639,3016.3319483023733,None,001,58,2019_Oct_24_1005,ACPT_experiment_5_30_19,3.1.0,59.927460465041285,
,,,C,D,y,b,R,U,y,L,u,,,,,5,19,119,2,5,0,5,0,,,,,0,28,28,30,,,,,,down,0.6004801977296665,3018.1500162098428,None,001,58,2019_Oct_24_1005,ACPT_experiment_5_30_19,3.1.0,59.927460465041285,
,,,C,D,y,b,L,D,y,L,y,,,,,5,19,119,2,5,0,5,0,,,,,0,29,29,32,,,,,,down,0.5003984542390754,3020.034815240995,None,001,58,2019_Oct_24_1005,ACPT_experiment_5_30_19,3.1.0,59.927460465041285,
,,,C,D,y,b,L,D,d,R,c ,,,,,5,19,119,2,5,0,5,0,,,,,0,30,30,13,,,,,,up,0.5837855688323543,3021.8195400751392,None,001,58,2019_Oct_24_1005,ACPT_experiment_5_30_19,3.1.0,59.927460465041285,
,,,C,D,y,b,L,U,y,R,u,,,,,5,19,119,2,5,0,5,0,,,,,0,31,31,25,,,,,,down,0.617146753715133,3023.687657759202,None,001,58,2019_Oct_24_1005,ACPT_experiment_5_30_19,3.1.0,59.927460465041285,
,,,C,D,y,b,L,G,g,L,c ,,,,,5,19,119,2,5,0,5,0,,,,,0,32,32,18,,,,,,up,0.6171603373813923,3025.5891088570943,None,001,58,2019_Oct_24_1005,ACPT_experiment_5_30_19,3.1.0,59.927460465041285,
,,,C,D,y,b,L,D,y,R,y,,,,,5,19,119,2,5,0,5,0,,,,,0,33,33,33,,,,,,down,0.6337964055801422,3027.5239751726785,None,001,58,2019_Oct_24_1005,ACPT_experiment_5_30_19,3.1.0,59.927460465041285,
,,,C,D,y,b,L,G,y,L,y,,,,,5,19,119,2,5,0,5,0,,,,,0,34,34,34,,,,,,down,0.6838570491081555,3029.442112145549,None,001,58,2019_Oct_24_1005,ACPT_experiment_5_30_19,3.1.0,59.927460465041285,
,,,C,D,y,b,L,D,d,L,c ,,,,,5,19,119,2,5,0,5,0,,,,,0,35,35,12,,,,,,up,0.6171401128103753,3031.426983864414,None,001,58,2019_Oct_24_1005,ACPT_experiment_5_30_19,3.1.0,59.927460465041285,
,,,C,D,y,b,L,D,d,L,c ,,,,,5,19,119,2,5,0,5,0,,,,,1,0,36,12,,,,,,up,0.5504138188762226,3033.3284585073297,None,001,58,2019_Oct_24_1005,ACPT_experiment_5_30_19,3.1.0,59.927460465041285,
,,,C,D,y,b,L,D,y,L,y,,,,,5,19,119,2,5,0,5,0,,,,,1,1,37,32,,,,,,down,0.516822617228172,3035.180123653632,None,001,58,2019_Oct_24_1005,ACPT_experiment_5_30_19,3.1.0,59.927460465041285,
,,,C,D,y,b,L,D,d,R,c ,,,,,5,19,119,2,5,0,5,0,,,,,1,2,38,13,,,,,,up,0.5837804372249593,3036.981279291669,None,001,58,2019_Oct_24_1005,ACPT_experiment_5_30_19,3.1.0,59.927460465041285,
,,,C,D,y,b,L,D,g,R,i,,,,,5,19,119,2,5,0,5,0,,,,,1,3,39,15,,,,,,up,0.4837062402157244,3038.832714421206,None,001,58,2019_Oct_24_1005,ACPT_experiment_5_30_19,3.1.0,59.927460465041285,
,,,C,D,y,b,R,G,g,R,c ,,,,,5,19,119,2,5,0,5,0,,,,,1,4,40,7,,,,,,up,0.5003996616769655,3040.600742211578,None,001,58,2019_Oct_24_1005,ACPT_experiment_5_30_19,3.1.0,59.927460465041285,
,,,C,D,y,b,R,G,g,L,c ,,,,,5,19,119,2,5,0,5,0,,,,,1,5,41,6,,,,,,up,0.583412168913128,3042.3857245316804,None,001,58,2019_Oct_24_1005,ACPT_experiment_5_30_19,3.1.0,59.927460465041285,
,,,C,D,y,b,L,G,d,R,i,,,,,5,19,119,2,5,0,5,0,,,,,1,6,42,17,,,,,,up,0.6171337737659996,3044.2535753721468,None,001,58,2019_Oct_24_1005,ACPT_experiment_5_30_19,3.1.0,59.927460465041285,
,,,C,D,y,b,L,U,g,R,u,,,,,5,19,119,2,5,0,5,0,,,,,1,7,43,23,,,,,,up,0.4670215726746392,3046.155047298329,None,001,58,2019_Oct_24_1005,ACPT_experiment_5_30_19,3.1.0,59.927460465041285,
,,,C,D,y,b,L,D,y,R,y,,,,,5,19,119,2,5,0,5,0,,,,,1,8,44,33,,,,,,down,0.5670966752622917,3047.9064061178424,None,001,58,2019_Oct_24_1005,ACPT_experiment_5_30_19,3.1.0,59.927460465041285,
,,,C,D,y,b,R,G,d,L,i,,,,,5,19,119,2,5,0,5,0,,,,,1,9,45,4,,,,,,up,0.5504198560611258,3049.757839134364,None,001,58,2019_Oct_24_1005,ACPT_experiment_5_30_19,3.1.0,59.927460465041285,
,,,C,D,y,b,R,G,d,R,i,,,,,5,19,119,2,5,0,5,0,,,,,1,10,46,5,,,,,,up,0.5337246234448685,3051.5926052930417,None,001,58,2019_Oct_24_1005,ACPT_experiment_5_30_19,3.1.0,59.927460465041285,
,,,C,D,y,b,L,G,g,R,c ,,,,,5,19,119,2,5,0,5,0,,,,,1,11,47,19,,,,,,up,0.4669971220737352,3053.4106885953342,None,001,58,2019_Oct_24_1005,ACPT_experiment_5_30_19,3.1.0,59.927460465041285,
,,,C,D,y,b,R,U,g,R,u,,,,,5,19,119,2,5,0,5,0,,,,,1,12,48,11,,,,,,up,0.48345509330192726,3055.1789488173454,None,001,58,2019_Oct_24_1005,ACPT_experiment_5_30_19,3.1.0,59.927460465041285,
,,,C,D,y,b,L,U,d,R,u,,,,,5,19,119,2,5,0,5,0,,,,,1,13,49,21,,,,,,up,0.46705145674332016,3056.9467345165813,None,001,58,2019_Oct_24_1005,ACPT_experiment_5_30_19,3.1.0,59.927460465041285,
,,,C,D,y,b,L,U,d,L,u,,,,,5,19,119,2,5,0,5,0,,,,,1,14,50,20,,,,,,down,1.034130624167119,3058.69808669519,None,001,58,2019_Oct_24_1005,ACPT_experiment_5_30_19,3.1.0,59.927460465041285,
,,,C,D,y,b,L,U,y,L,u,,,,,5,19,119,2,5,0,5,0,,,,,1,15,51,24,,,,,,down,0.7005586207687884,3060.9998493722233,None,001,58,2019_Oct_24_1005,ACPT_experiment_5_30_19,3.1.0,59.927460465041285,
,,,C,D,y,b,R,D,d,R,c ,,,,,5,19,119,2,5,0,5,0,,,,,1,16,52,1,,,,,,up,0.633814818996143,3062.9847437305334,None,001,58,2019_Oct_24_1005,ACPT_experiment_5_30_19,3.1.0,59.927460465041285,
,,,C,D,y,b,R,U,d,R,u,,,,,5,19,119,2,5,0,5,0,,,,,1,17,53,9,,,,,,up,0.6171398109518123,3064.90289489079,None,001,58,2019_Oct_24_1005,ACPT_experiment_5_30_19,3.1.0,59.927460465041285,
,,,C,D,y,b,L,G,g,L,c ,,,,,5,19,119,2,5,0,5,0,,,,,1,18,54,18,,,,,,up,0.6004657084849896,3066.804387645262,None,001,58,2019_Oct_24_1005,ACPT_experiment_5_30_19,3.1.0,59.927460465041285,
,,,C,D,y,b,L,G,y,L,y,,,,,5,19,119,2,5,0,5,0,,,,,1,19,55,34,,,,,,down,0.6672016619168062,3068.672455824405,None,001,58,2019_Oct_24_1005,ACPT_experiment_5_30_19,3.1.0,59.927460465041285,
,,,C,D,y,b,L,G,d,L,i,,,,,5,19,119,2,5,0,5,0,,,,,1,20,56,16,,,,,,up,1.284352339801444,3070.6072838038617,None,001,58,2019_Oct_24_1005,ACPT_experiment_5_30_19,3.1.0,59.927460465041285,
,,,C,D,y,b,R,D,g,R,i,,,,,5,19,119,2,5,0,5,0,,,,,1,21,57,3,,,,,,up,0.5504225727945595,3073.175966749597,None,001,58,2019_Oct_24_1005,ACPT_experiment_5_30_19,3.1.0,59.927460465041285,
,,,C,D,y,b,L,D,g,L,i,,,,,5,19,119,2,5,0,5,0,,,,,1,22,58,14,,,,,,up,0.5671528210859833,3075.010691855414,None,001,58,2019_Oct_24_1005,ACPT_experiment_5_30_19,3.1.0,59.927460465041285,
,,,C,D,y,b,L,G,y,R,y,,,,,5,19,119,2,5,0,5,0,,,,,1,23,59,35,,,,,,down,0.7672619733993997,3076.8621463039444,None,001,58,2019_Oct_24_1005,ACPT_experiment_5_30_19,3.1.0,59.927460465041285,
,,,C,D,y,b,R,G,y,L,y,,,,,5,19,119,2,5,0,5,0,,,,,1,24,60,28,,,,,,down,0.7006168796078782,3078.9304362289085,None,001,58,2019_Oct_24_1005,ACPT_experiment_5_30_19,3.1.0,59.927460465041285,
,,,C,D,y,b,R,D,y,L,y,,,,,5,19,119,2,5,0,5,0,,,,,1,25,61,26,,,,,,down,0.6004623880335203,3080.931970579588,None,001,58,2019_Oct_24_1005,ACPT_experiment_5_30_19,3.1.0,59.927460465041285,
,,,C,D,y,b,R,U,y,R,u,,,,,5,19,119,2,5,0,5,0,,,,,1,26,62,31,,,,,,down,0.7339025996725468,3082.816756027073,None,001,58,2019_Oct_24_1005,ACPT_experiment_5_30_19,3.1.0,59.927460465041285,
