facing_vig,person_vig,text_vig,facing_train,person_train,food_train,correct_key_train,facing_exp,person_exp,food_exp,showL_R,consistent,vig_random.thisRepN,vig_random.thisTrialN,vig_random.thisN,vig_random.thisIndex,trainTrials.thisRepN,trainTrials.thisTrialN,trainTrials.thisN,trainTrials.thisIndex,expBlock.thisRepN,expBlock.thisTrialN,expBlock.thisN,expBlock.thisIndex,breakLoop.thisRepN,breakLoop.thisTrialN,breakLoop.thisN,breakLoop.thisIndex,expTrials.thisRepN,expTrials.thisTrialN,expTrials.thisN,expTrials.thisIndex,train_resp.keys,train_resp.corr,train_resp.rt,train_resp.started,train_resp.stopped,exp_resp.keys,exp_resp.rt,exp_resp.started,exp_resp.stopped,session,participant,date,expName,psychopyVersion,frameRate,
C,D,"is allergic to gluten, meaning she can’t eat wheat products. She enjoys eating dairy products. She thinks eating insects, like crickets, is disgusting.",,,,,,,,,,0,0,0,1,,,,,,,,,,,,,,,,,,,,,,,,,,001,59,2019_Oct_24_0901,ACPT_experiment_5_30_19,3.1.0,59.95305538162308,
C,U,"did not report her food preferences, so her food preferences are unknown.",,,,,,,,,,0,1,1,2,,,,,,,,,,,,,,,,,,,,,,,,,,001,59,2019_Oct_24_0901,ACPT_experiment_5_30_19,3.1.0,59.95305538162308,
C,G,"cannot eat dairy products because she is lactose intolerant. She enjoys eating wheat products. She thinks eating insects, like crickets, is disgusting.",,,,,,,,,,0,2,2,0,,,,,,,,,,,,,,,,,,,,,,,,,,001,59,2019_Oct_24_0901,ACPT_experiment_5_30_19,3.1.0,59.95305538162308,
,,,C,G,d,b,,,,,,,,,,0,0,0,12,,,,,,,,,,,,,b,1,6.755294762560538,725.0201509175616,None,,,,,001,59,2019_Oct_24_0901,ACPT_experiment_5_30_19,3.1.0,59.95305538162308,
,,,C,G,g,v,,,,,,,,,,0,1,1,19,,,,,,,,,,,,,v,1,1.8848050683378688,734.5608841095845,None,,,,,001,59,2019_Oct_24_0901,ACPT_experiment_5_30_19,3.1.0,59.95305538162308,
,,,C,D,g,b,,,,,,,,,,0,2,2,10,,,,,,,,,,,,,b,1,8.973666400829302,739.2478225381415,None,,,,,001,59,2019_Oct_24_0901,ACPT_experiment_5_30_19,3.1.0,59.95305538162308,
,,,C,U,y,n,,,,,,,,,,0,3,3,8,,,,,,,,,,,,,n,1,2.3184772286421094,750.5232519178629,None,,,,,001,59,2019_Oct_24_0901,ACPT_experiment_5_30_19,3.1.0,59.95305538162308,
,,,C,D,y,b,,,,,,,,,,0,4,4,11,,,,,,,,,,,,,b,1,4.603573349690123,755.94412283016,None,,,,,001,59,2019_Oct_24_0901,ACPT_experiment_5_30_19,3.1.0,59.95305538162308,
,,,C,D,g,b,,,,,,,,,,0,5,5,1,,,,,,,,,,,,,b,1,5.0038870418454735,762.5659200278194,None,,,,,001,59,2019_Oct_24_0901,ACPT_experiment_5_30_19,3.1.0,59.95305538162308,
,,,C,U,d,n,,,,,,,,,,0,6,6,6,,,,,,,,,,,,,n,1,1.3844177828921147,769.4712711475061,None,,,,,001,59,2019_Oct_24_0901,ACPT_experiment_5_30_19,3.1.0,59.95305538162308,
,,,C,D,y,b,,,,,,,,,,0,7,7,2,,,,,,,,,,,,,n,0,1.4176500738649338,772.8071910123213,None,,,,,001,59,2019_Oct_24_0901,ACPT_experiment_5_30_19,3.1.0,59.95305538162308,
,,,C,D,d,v,,,,,,,,,,0,8,8,18,,,,,,,,,,,,,v,1,3.7028648256068664,776.1598091283452,None,,,,,001,59,2019_Oct_24_0901,ACPT_experiment_5_30_19,3.1.0,59.95305538162308,
,,,C,G,y,b,,,,,,,,,,0,9,9,14,,,,,,,,,,,,,n,0,1.9181638383461177,781.7140927830881,None,,,,,001,59,2019_Oct_24_0901,ACPT_experiment_5_30_19,3.1.0,59.95305538162308,
,,,C,D,d,v,,,,,,,,,,0,10,10,9,,,,,,,,,,,,,v,1,7.305679904805629,786.9181215780479,None,,,,,001,59,2019_Oct_24_0901,ACPT_experiment_5_30_19,3.1.0,59.95305538162308,
,,,C,D,d,v,,,,,,,,,,0,11,11,0,,,,,,,,,,,,,v,1,6.20486041725394,796.0752166896784,None,,,,,001,59,2019_Oct_24_0901,ACPT_experiment_5_30_19,3.1.0,59.95305538162308,
,,,C,U,g,n,,,,,,,,,,0,12,12,7,,,,,,,,,,,,,n,1,2.9022624956155596,804.2148604112169,None,,,,,001,59,2019_Oct_24_0901,ACPT_experiment_5_30_19,3.1.0,59.95305538162308,
,,,C,U,g,n,,,,,,,,,,0,13,13,16,,,,,,,,,,,,,n,1,1.4511383415008368,809.2187368879879,None,,,,,001,59,2019_Oct_24_0901,ACPT_experiment_5_30_19,3.1.0,59.95305538162308,
,,,C,G,d,b,,,,,,,,,,0,14,14,3,,,,,,,,,,,,,b,1,4.136562643949219,812.5880170321075,None,,,,,001,59,2019_Oct_24_0901,ACPT_experiment_5_30_19,3.1.0,59.95305538162308,
,,,C,G,g,v,,,,,,,,,,0,15,15,13,,,,,,,,,,,,,v,1,4.636931817838786,818.7094335852248,None,,,,,001,59,2019_Oct_24_0901,ACPT_experiment_5_30_19,3.1.0,59.95305538162308,
,,,C,G,g,v,,,,,,,,,,0,16,16,4,,,,,,,,,,,,,v,1,5.387522405504342,825.3645868361587,None,,,,,001,59,2019_Oct_24_0901,ACPT_experiment_5_30_19,3.1.0,59.95305538162308,
,,,C,U,d,n,,,,,,,,,,0,17,17,15,,,,,,,,,,,,,n,1,1.651305450793643,832.7369610378164,None,,,,,001,59,2019_Oct_24_0901,ACPT_experiment_5_30_19,3.1.0,59.95305538162308,
,,,C,G,y,b,,,,,,,,,,0,18,18,5,,,,,,,,,,,,,b,1,1.8681197970781795,836.3063974242953,None,,,,,001,59,2019_Oct_24_0901,ACPT_experiment_5_30_19,3.1.0,59.95305538162308,
,,,C,U,y,n,,,,,,,,,,0,19,19,17,,,,,,,,,,,,,n,1,1.3176996391573539,839.9925869399983,None,,,,,001,59,2019_Oct_24_0901,ACPT_experiment_5_30_19,3.1.0,59.95305538162308,
,,,C,U,d,n,,,,,,,,,,1,0,20,6,,,,,,,,,,,,,n,1,2.0015732905255845,843.2117307342849,None,,,,,001,59,2019_Oct_24_0901,ACPT_experiment_5_30_19,3.1.0,59.95305538162308,
,,,C,D,d,v,,,,,,,,,,1,1,21,0,,,,,,,,,,,,,v,1,3.5027719736947347,847.0980692477244,None,,,,,001,59,2019_Oct_24_0901,ACPT_experiment_5_30_19,3.1.0,59.95305538162308,
,,,C,U,g,n,,,,,,,,,,1,2,22,16,,,,,,,,,,,,,n,1,2.351841130257526,853.8866865571804,None,,,,,001,59,2019_Oct_24_0901,ACPT_experiment_5_30_19,3.1.0,59.95305538162308,
,,,C,U,d,n,,,,,,,,,,1,3,23,15,,,,,,,,,,,,,n,1,1.1008641627238376,858.039913040381,None,,,,,001,59,2019_Oct_24_0901,ACPT_experiment_5_30_19,3.1.0,59.95305538162308,
,,,C,D,y,b,,,,,,,,,,1,4,24,11,,,,,,,,,,,,,b,1,2.5519880149795426,861.7427754511136,None,,,,,001,59,2019_Oct_24_0901,ACPT_experiment_5_30_19,3.1.0,59.95305538162308,
,,,C,U,g,n,,,,,,,,,,1,5,25,7,,,,,,,,,,,,,n,1,1.9181810443244558,866.7466365330617,None,,,,,001,59,2019_Oct_24_0901,ACPT_experiment_5_30_19,3.1.0,59.95305538162308,
,,,C,G,y,b,,,,,,,,,,1,6,26,5,,,,,,,,,,,,,b,1,3.1691269203531647,870.8331557394617,None,,,,,001,59,2019_Oct_24_0901,ACPT_experiment_5_30_19,3.1.0,59.95305538162308,
,,,C,U,y,n,,,,,,,,,,1,7,27,8,,,,,,,,,,,,,n,1,1.5011684972419062,876.4041397584281,None,,,,,001,59,2019_Oct_24_0901,ACPT_experiment_5_30_19,3.1.0,59.95305538162308,
,,,C,D,d,v,,,,,,,,,,1,8,28,9,,,,,,,,,,,,,v,1,11.27541972022459,879.8901712206164,None,,,,,001,59,2019_Oct_24_0901,ACPT_experiment_5_30_19,3.1.0,59.95305538162308,
,,,C,G,d,b,,,,,,,,,,1,9,29,12,,,,,,,,,,,,,b,1,6.588448992725944,892.9836555278582,None,,,,,001,59,2019_Oct_24_0901,ACPT_experiment_5_30_19,3.1.0,59.95305538162308,
,,,C,D,y,b,,,,,,,,,,1,10,30,2,,,,,,,,,,,,,b,1,2.3851881277539633,901.4902538696849,None,,,,,001,59,2019_Oct_24_0901,ACPT_experiment_5_30_19,3.1.0,59.95305538162308,
,,,C,D,d,v,,,,,,,,,,1,11,31,18,,,,,,,,,,,,,v,1,9.157134353336005,906.0937919018402,None,,,,,001,59,2019_Oct_24_0901,ACPT_experiment_5_30_19,3.1.0,59.95305538162308,
,,,C,G,g,v,,,,,,,,,,1,12,32,19,,,,,,,,,,,,,v,1,2.034888894657797,917.5193552165206,None,,,,,001,59,2019_Oct_24_0901,ACPT_experiment_5_30_19,3.1.0,59.95305538162308,
,,,C,U,y,n,,,,,,,,,,1,13,33,17,,,,,,,,,,,,,n,1,1.2509606671330857,921.4724148922876,None,,,,,001,59,2019_Oct_24_0901,ACPT_experiment_5_30_19,3.1.0,59.95305538162308,
,,,C,G,y,b,,,,,,,,,,1,14,34,14,,,,,,,,,,,,,b,1,2.3851977872507177,925.0251506126838,None,,,,,001,59,2019_Oct_24_0901,ACPT_experiment_5_30_19,3.1.0,59.95305538162308,
,,,C,G,d,b,,,,,,,,,,1,15,35,3,,,,,,,,,,,,,b,1,5.4875981118098025,929.3118058368716,None,,,,,001,59,2019_Oct_24_0901,ACPT_experiment_5_30_19,3.1.0,59.95305538162308,
,,,C,D,g,b,,,,,,,,,,1,16,36,10,,,,,,,,,,,,,b,1,2.0849604051193182,936.901019137274,None,,,,,001,59,2019_Oct_24_0901,ACPT_experiment_5_30_19,3.1.0,59.95305538162308,
,,,C,G,g,v,,,,,,,,,,1,17,37,13,,,,,,,,,,,,,v,1,1.5012119649770739,940.8707562359598,None,,,,,001,59,2019_Oct_24_0901,ACPT_experiment_5_30_19,3.1.0,59.95305538162308,
,,,C,D,g,b,,,,,,,,,,1,18,38,1,,,,,,,,,,,,,b,1,2.3685424000589137,944.2066576873594,None,,,,,001,59,2019_Oct_24_0901,ACPT_experiment_5_30_19,3.1.0,59.95305538162308,
,,,C,G,g,v,,,,,,,,,,1,19,39,4,,,,,,,,,,,,,v,1,3.9530738631526674,948.4599752716883,None,,,,,001,59,2019_Oct_24_0901,ACPT_experiment_5_30_19,3.1.0,59.95305538162308,
,,,C,D,d,v,,,,,,,,,,2,0,40,9,,,,,,,,,,,,,v,1,6.78862183734509,954.5813848820424,None,,,,,001,59,2019_Oct_24_0901,ACPT_experiment_5_30_19,3.1.0,59.95305538162308,
,,,C,U,g,n,,,,,,,,,,2,1,41,7,,,,,,,,,,,,,n,1,1.6679979666757845,963.6050186518844,None,,,,,001,59,2019_Oct_24_0901,ACPT_experiment_5_30_19,3.1.0,59.95305538162308,
,,,C,D,d,v,,,,,,,,,,2,2,42,0,,,,,,,,,,,,,v,1,3.6695244690145046,967.6248239405795,None,,,,,001,59,2019_Oct_24_0901,ACPT_experiment_5_30_19,3.1.0,59.95305538162308,
,,,C,U,y,n,,,,,,,,,,2,3,43,8,,,,,,,,,,,,,n,1,1.3510572017282811,974.5802169885192,None,,,,,001,59,2019_Oct_24_0901,ACPT_experiment_5_30_19,3.1.0,59.95305538162308,
,,,C,G,y,b,,,,,,,,,,2,4,44,5,,,,,,,,,,,,,b,1,1.8681161747670103,978.0662632418116,None,,,,,001,59,2019_Oct_24_0901,ACPT_experiment_5_30_19,3.1.0,59.95305538162308,
,,,C,U,d,n,,,,,,,,,,2,5,45,15,,,,,,,,,,,,,n,1,6.60516867594265,981.8525172950269,None,,,,,001,59,2019_Oct_24_0901,ACPT_experiment_5_30_19,3.1.0,59.95305538162308,
,,,C,U,d,n,,,,,,,,,,2,6,46,6,,,,,,,,,,,,,n,1,1.134230781073029,990.3424261395639,None,,,,,001,59,2019_Oct_24_0901,ACPT_experiment_5_30_19,3.1.0,59.95305538162308,
,,,C,U,y,n,,,,,,,,,,2,7,47,17,,,,,,,,,,,,,n,1,1.1842633516885144,993.3781101315442,None,,,,,001,59,2019_Oct_24_0901,ACPT_experiment_5_30_19,3.1.0,59.95305538162308,
,,,C,U,g,n,,,,,,,,,,2,8,48,16,,,,,,,,,,,,,n,1,0.9841237115892909,996.430459170213,None,,,,,001,59,2019_Oct_24_0901,ACPT_experiment_5_30_19,3.1.0,59.95305538162308,
,,,C,G,g,v,,,,,,,,,,2,9,49,19,,,,,,,,,,,,,v,1,5.4041998284230885,999.2493312307829,None,,,,,001,59,2019_Oct_24_0901,ACPT_experiment_5_30_19,3.1.0,59.95305538162308,
,,,C,G,g,v,,,,,,,,,,2,10,50,13,,,,,,,,,,,,,v,1,2.018245279977691,1006.5216288205575,None,,,,,001,59,2019_Oct_24_0901,ACPT_experiment_5_30_19,3.1.0,59.95305538162308,
,,,C,D,d,v,,,,,,,,,,2,11,51,18,,,,,,,,,,,,,v,1,2.852248640275093,1010.391269686507,None,,,,,001,59,2019_Oct_24_0901,ACPT_experiment_5_30_19,3.1.0,59.95305538162308,
,,,C,D,y,b,,,,,,,,,,2,12,52,2,,,,,,,,,,,,,n,0,1.1511424467867073,1015.6286838150907,None,,,,,001,59,2019_Oct_24_0901,ACPT_experiment_5_30_19,3.1.0,59.95305538162308,
,,,C,G,d,b,,,,,,,,,,2,13,53,12,,,,,,,,,,,,,b,1,7.422433939607572,1018.6143288974108,None,,,,,001,59,2019_Oct_24_0901,ACPT_experiment_5_30_19,3.1.0,59.95305538162308,
,,,C,G,d,b,,,,,,,,,,2,14,54,3,,,,,,,,,,,,,v,0,4.870604702605306,1028.6719725477103,None,,,,,001,59,2019_Oct_24_0901,ACPT_experiment_5_30_19,3.1.0,59.95305538162308,
,,,C,G,g,v,,,,,,,,,,2,15,55,4,,,,,,,,,,,,,v,1,5.037242189542212,1036.811765387729,None,,,,,001,59,2019_Oct_24_0901,ACPT_experiment_5_30_19,3.1.0,59.95305538162308,
,,,C,D,g,b,,,,,,,,,,2,16,56,1,,,,,,,,,,,,,b,1,2.48527107868199,1044.300899359515,None,,,,,001,59,2019_Oct_24_0901,ACPT_experiment_5_30_19,3.1.0,59.95305538162308,
,,,C,D,g,b,,,,,,,,,,2,17,57,10,,,,,,,,,,,,,b,1,2.38534811316822,1048.65411817549,None,,,,,001,59,2019_Oct_24_0901,ACPT_experiment_5_30_19,3.1.0,59.95305538162308,
,,,C,D,y,b,,,,,,,,,,2,18,58,11,,,,,,,,,,,,,b,1,1.868118891500444,1052.8742158450762,None,,,,,001,59,2019_Oct_24_0901,ACPT_experiment_5_30_19,3.1.0,59.95305538162308,
,,,C,G,y,b,,,,,,,,,,2,19,59,14,,,,,,,,,,,,,b,1,1.167586834347503,1056.6771488305067,None,,,,,001,59,2019_Oct_24_0901,ACPT_experiment_5_30_19,3.1.0,59.95305538162308,
,,,C,D,d,v,,,,,,,,,,3,0,60,18,,,,,,,,,,,,,v,1,3.719564586111801,1060.2799394591043,None,,,,,001,59,2019_Oct_24_0901,ACPT_experiment_5_30_19,3.1.0,59.95305538162308,
,,,C,G,d,b,,,,,,,,,,3,1,61,3,,,,,,,,,,,,,b,1,1.6179140799843026,1065.8843048875242,None,,,,,001,59,2019_Oct_24_0901,ACPT_experiment_5_30_19,3.1.0,59.95305538162308,
,,,C,G,g,v,,,,,,,,,,3,2,62,19,,,,,,,,,,,,,v,1,3.9030328404776355,1069.5037557330622,None,,,,,001,59,2019_Oct_24_0901,ACPT_experiment_5_30_19,3.1.0,59.95305538162308,
,,,C,U,d,n,,,,,,,,,,3,3,63,15,,,,,,,,,,,,,n,1,2.2350741155069045,1075.3249306780183,None,,,,,001,59,2019_Oct_24_0901,ACPT_experiment_5_30_19,3.1.0,59.95305538162308,
,,,C,U,g,n,,,,,,,,,,3,4,64,16,,,,,,,,,,,,,n,1,1.1175645269472625,1079.4614471374987,None,,,,,001,59,2019_Oct_24_0901,ACPT_experiment_5_30_19,3.1.0,59.95305538162308,
,,,C,U,g,n,,,,,,,,,,3,5,65,7,,,,,,,,,,,,,n,1,0.934046767660675,1082.4304872431253,None,,,,,001,59,2019_Oct_24_0901,ACPT_experiment_5_30_19,3.1.0,59.95305538162308,
,,,C,G,y,b,,,,,,,,,,3,6,66,5,,,,,,,,,,,,,b,1,2.318464852412035,1085.2159253707284,None,,,,,001,59,2019_Oct_24_0901,ACPT_experiment_5_30_19,3.1.0,59.95305538162308,
,,,C,G,y,b,,,,,,,,,,3,7,67,14,,,,,,,,,,,,,b,1,1.1008421269968949,1089.4025169629817,None,,,,,001,59,2019_Oct_24_0901,ACPT_experiment_5_30_19,3.1.0,59.95305538162308,
,,,C,D,y,b,,,,,,,,,,3,8,68,2,,,,,,,,,,,,,b,1,1.0174610495887464,1092.4048301105831,None,,,,,001,59,2019_Oct_24_0901,ACPT_experiment_5_30_19,3.1.0,59.95305538162308,
,,,C,D,d,v,,,,,,,,,,3,9,69,9,,,,,,,,,,,,,v,1,3.1524866261247553,1095.3404088140492,None,,,,,001,59,2019_Oct_24_0901,ACPT_experiment_5_30_19,3.1.0,59.95305538162308,
,,,C,U,d,n,,,,,,,,,,3,10,70,6,,,,,,,,,,,,,n,1,1.0508243474857863,1100.4610637762232,None,,,,,001,59,2019_Oct_24_0901,ACPT_experiment_5_30_19,3.1.0,59.95305538162308,
,,,C,D,y,b,,,,,,,,,,3,11,71,11,,,,,,,,,,,,,b,1,1.4011241843008975,1103.3966506298898,None,,,,,001,59,2019_Oct_24_0901,ACPT_experiment_5_30_19,3.1.0,59.95305538162308,
,,,C,G,g,v,,,,,,,,,,3,12,72,13,,,,,,,,,,,,,v,1,2.5520169934695787,1106.6491909265933,None,,,,,001,59,2019_Oct_24_0901,ACPT_experiment_5_30_19,3.1.0,59.95305538162308,
,,,C,G,g,v,,,,,,,,,,3,13,73,4,,,,,,,,,,,,,v,1,3.385964811661097,1111.1860355674744,None,,,,,001,59,2019_Oct_24_0901,ACPT_experiment_5_30_19,3.1.0,59.95305538162308,
,,,C,U,y,n,,,,,,,,,,3,14,74,8,,,,,,,,,,,,,n,1,1.017469199789275,1116.907135107984,None,,,,,001,59,2019_Oct_24_0901,ACPT_experiment_5_30_19,3.1.0,59.95305538162308,
,,,C,G,d,b,,,,,,,,,,3,15,75,12,,,,,,,,,,,,,b,1,4.470139175236,1120.059576153359,None,,,,,001,59,2019_Oct_24_0901,ACPT_experiment_5_30_19,3.1.0,59.95305538162308,
,,,C,D,g,b,,,,,,,,,,3,16,76,1,,,,,,,,,,,,,b,1,3.3526027212008103,1126.7814535852128,None,,,,,001,59,2019_Oct_24_0901,ACPT_experiment_5_30_19,3.1.0,59.95305538162308,
,,,C,D,g,b,,,,,,,,,,3,17,77,10,,,,,,,,,,,,,b,1,2.318508923865693,1131.968799825646,None,,,,,001,59,2019_Oct_24_0901,ACPT_experiment_5_30_19,3.1.0,59.95305538162308,
,,,C,U,y,n,,,,,,,,,,3,18,78,17,,,,,,,,,,,,,n,1,1.2009365485773742,1136.5556860929207,None,,,,,001,59,2019_Oct_24_0901,ACPT_experiment_5_30_19,3.1.0,59.95305538162308,
,,,C,D,d,v,,,,,,,,,,3,19,79,0,,,,,,,,,,,,,v,1,1.5845749308289214,1140.041726610887,None,,,,,001,59,2019_Oct_24_0901,ACPT_experiment_5_30_19,3.1.0,59.95305538162308,
,,,C,G,g,v,,,,,,,,,,4,0,80,4,,,,,,,,,,,,,v,1,4.05314775830243,1143.4610338921552,None,,,,,001,59,2019_Oct_24_0901,ACPT_experiment_5_30_19,3.1.0,59.95305538162308,
,,,C,D,y,b,,,,,,,,,,4,1,81,11,,,,,,,,,,,,,b,1,4.003140845725056,1149.749212600089,None,,,,,001,59,2019_Oct_24_0901,ACPT_experiment_5_30_19,3.1.0,59.95305538162308,
,,,C,D,d,v,,,,,,,,,,4,2,82,9,,,,,,,,,,,,,v,1,3.3192164819993195,1155.570445200166,None,,,,,001,59,2019_Oct_24_0901,ACPT_experiment_5_30_19,3.1.0,59.95305538162308,
,,,C,G,d,b,,,,,,,,,,4,3,83,12,,,,,,,,,,,,,b,1,1.5845725159547328,1160.707725967323,None,,,,,001,59,2019_Oct_24_0901,ACPT_experiment_5_30_19,3.1.0,59.95305538162308,
,,,C,D,y,b,,,,,,,,,,4,4,84,2,,,,,,,,,,,,,b,1,1.7347481074932602,1164.2938132131048,None,,,,,001,59,2019_Oct_24_0901,ACPT_experiment_5_30_19,3.1.0,59.95305538162308,
,,,C,U,y,n,,,,,,,,,,4,5,85,17,,,,,,,,,,,,,n,1,1.451144982404685,1167.846583345458,None,,,,,001,59,2019_Oct_24_0901,ACPT_experiment_5_30_19,3.1.0,59.95305538162308,
,,,C,G,d,b,,,,,,,,,,4,6,86,3,,,,,,,,,,,,,b,1,5.904590736180353,1171.149145043984,None,,,,,001,59,2019_Oct_24_0901,ACPT_experiment_5_30_19,3.1.0,59.95305538162308,
,,,C,D,d,v,,,,,,,,,,4,7,87,0,,,,,,,,,,,,,v,1,2.2017373812259393,1178.8717722942692,None,,,,,001,59,2019_Oct_24_0901,ACPT_experiment_5_30_19,3.1.0,59.95305538162308,
,,,C,G,y,b,,,,,,,,,,4,8,88,5,,,,,,,,,,,,,b,1,1.5178673521691053,1183.3752605800166,None,,,,,001,59,2019_Oct_24_0901,ACPT_experiment_5_30_19,3.1.0,59.95305538162308,
,,,C,G,g,v,,,,,,,,,,4,9,89,13,,,,,,,,,,,,,v,1,3.0190255861955393,1187.2282629628937,None,,,,,001,59,2019_Oct_24_0901,ACPT_experiment_5_30_19,3.1.0,59.95305538162308,
,,,C,D,g,b,,,,,,,,,,4,10,90,10,,,,,,,,,,,,,b,1,1.367737945098952,1192.2488165607242,None,,,,,001,59,2019_Oct_24_0901,ACPT_experiment_5_30_19,3.1.0,59.95305538162308,
,,,C,U,d,n,,,,,,,,,,4,11,91,6,,,,,,,,,,,,,n,1,1.6846367516077407,1195.6347997858006,None,,,,,001,59,2019_Oct_24_0901,ACPT_experiment_5_30_19,3.1.0,59.95305538162308,
,,,C,G,g,v,,,,,,,,,,4,12,92,19,,,,,,,,,,,,,v,1,3.0690551382183457,1199.287603062302,None,,,,,001,59,2019_Oct_24_0901,ACPT_experiment_5_30_19,3.1.0,59.95305538162308,
,,,C,U,g,n,,,,,,,,,,4,13,93,7,,,,,,,,,,,,,n,1,1.284337548697522,1204.2747990975615,None,,,,,001,59,2019_Oct_24_0901,ACPT_experiment_5_30_19,3.1.0,59.95305538162308,
,,,C,D,d,v,,,,,,,,,,4,14,94,18,,,,,,,,,,,,,b,0,2.0015584994212077,1207.610716849362,None,,,,,001,59,2019_Oct_24_0901,ACPT_experiment_5_30_19,3.1.0,59.95305538162308,
,,,C,U,g,n,,,,,,,,,,4,15,95,16,,,,,,,,,,,,,n,1,1.1008665775980262,1212.8647827428263,None,,,,,001,59,2019_Oct_24_0901,ACPT_experiment_5_30_19,3.1.0,59.95305538162308,
,,,C,G,y,b,,,,,,,,,,4,16,96,14,,,,,,,,,,,,,b,1,1.0675056945751749,1215.8003886136269,None,,,,,001,59,2019_Oct_24_0901,ACPT_experiment_5_30_19,3.1.0,59.95305538162308,
,,,C,U,d,n,,,,,,,,,,4,17,97,15,,,,,,,,,,,,,n,1,1.2676673704011137,1219.1196177737154,None,,,,,001,59,2019_Oct_24_0901,ACPT_experiment_5_30_19,3.1.0,59.95305538162308,
,,,C,D,g,b,,,,,,,,,,4,18,98,1,,,,,,,,,,,,,b,1,2.1516842841799644,1222.222039530283,None,,,,,001,59,2019_Oct_24_0901,ACPT_experiment_5_30_19,3.1.0,59.95305538162308,
,,,C,U,y,n,,,,,,,,,,4,19,99,8,,,,,,,,,,,,,n,1,1.251000210697839,1226.2251320785244,None,,,,,001,59,2019_Oct_24_0901,ACPT_experiment_5_30_19,3.1.0,59.95305538162308,
,,,C,G,d,b,,,,,,,,,,5,0,100,12,,,,,,,,,,,,,b,1,3.135776300545558,1229.3608920786694,None,,,,,001,59,2019_Oct_24_0901,ACPT_experiment_5_30_19,3.1.0,59.95305538162308,
,,,C,D,d,v,,,,,,,,,,5,1,101,9,,,,,,,,,,,,,v,1,1.251005342305234,1234.431460135559,None,,,,,001,59,2019_Oct_24_0901,ACPT_experiment_5_30_19,3.1.0,59.95305538162308,
,,,C,D,d,v,,,,,,,,,,5,2,102,18,,,,,,,,,,,,,v,1,1.5345803944817362,1237.8174388327463,None,,,,,001,59,2019_Oct_24_0901,ACPT_experiment_5_30_19,3.1.0,59.95305538162308,
,,,C,G,d,b,,,,,,,,,,5,3,103,3,,,,,,,,,,,,,b,1,1.3844289516848676,1241.5536603153464,None,,,,,001,59,2019_Oct_24_0901,ACPT_experiment_5_30_19,3.1.0,59.95305538162308,
,,,C,G,g,v,,,,,,,,,,5,4,104,19,,,,,,,,,,,,,v,1,1.3510710872549225,1244.922925064643,None,,,,,001,59,2019_Oct_24_0901,ACPT_experiment_5_30_19,3.1.0,59.95305538162308,
,,,C,U,g,n,,,,,,,,,,5,5,105,16,,,,,,,,,,,,,n,1,1.1342045193164267,1248.4423463883443,None,,,,,001,59,2019_Oct_24_0901,ACPT_experiment_5_30_19,3.1.0,59.95305538162308,
,,,C,D,y,b,,,,,,,,,,5,6,106,2,,,,,,,,,,,,,b,1,1.5845752326881666,1251.7115290922911,None,,,,,001,59,2019_Oct_24_0901,ACPT_experiment_5_30_19,3.1.0,59.95305538162308,
,,,C,G,y,b,,,,,,,,,,5,7,107,14,,,,,,,,,,,,,b,1,2.0349190805850412,1255.1308499572265,None,,,,,001,59,2019_Oct_24_0901,ACPT_experiment_5_30_19,3.1.0,59.95305538162308,
,,,C,U,y,n,,,,,,,,,,5,8,108,8,,,,,,,,,,,,,n,1,1.2843496230682376,1259.6676955036853,None,,,,,001,59,2019_Oct_24_0901,ACPT_experiment_5_30_19,3.1.0,59.95305538162308,
,,,C,G,y,b,,,,,,,,,,5,9,109,5,,,,,,,,,,,,,b,1,1.9015398445185383,1263.1870633982955,None,,,,,001,59,2019_Oct_24_0901,ACPT_experiment_5_30_19,3.1.0,59.95305538162308,
,,,C,G,g,v,,,,,,,,,,5,10,110,4,,,,,,,,,,,,,v,1,4.887153835333265,1267.2902367844501,None,,,,,001,59,2019_Oct_24_0901,ACPT_experiment_5_30_19,3.1.0,59.95305538162308,
,,,C,U,d,n,,,,,,,,,,5,11,111,15,,,,,,,,,,,,,n,1,1.267691821002245,1274.1956042045374,None,,,,,001,59,2019_Oct_24_0901,ACPT_experiment_5_30_19,3.1.0,59.95305538162308,
,,,C,U,d,n,,,,,,,,,,5,12,112,6,,,,,,,,,,,,,n,1,1.3345237656822064,1277.3812591274698,None,,,,,001,59,2019_Oct_24_0901,ACPT_experiment_5_30_19,3.1.0,59.95305538162308,
,,,C,D,g,b,,,,,,,,,,5,13,113,1,,,,,,,,,,,,,b,1,2.1683668387063335,1280.6005553606885,None,,,,,001,59,2019_Oct_24_0901,ACPT_experiment_5_30_19,3.1.0,59.95305538162308,
,,,C,D,g,b,,,,,,,,,,5,14,114,10,,,,,,,,,,,,,b,1,1.0841816081974684,1284.620344348983,None,,,,,001,59,2019_Oct_24_0901,ACPT_experiment_5_30_19,3.1.0,59.95305538162308,
,,,C,D,d,v,,,,,,,,,,5,15,115,0,,,,,,,,,,,,,v,1,1.2510005125570842,1287.6059673955763,None,,,,,001,59,2019_Oct_24_0901,ACPT_experiment_5_30_19,3.1.0,59.95305538162308,
,,,C,D,y,b,,,,,,,,,,5,16,116,11,,,,,,,,,,,,,b,1,1.4678387057240343,1291.0753208311273,None,,,,,001,59,2019_Oct_24_0901,ACPT_experiment_5_30_19,3.1.0,59.95305538162308,
,,,C,U,y,n,,,,,,,,,,5,17,117,17,,,,,,,,,,,,,n,1,2.2851106102930316,1294.8449312696623,None,,,,,001,59,2019_Oct_24_0901,ACPT_experiment_5_30_19,3.1.0,59.95305538162308,
,,,C,U,g,n,,,,,,,,,,5,18,118,7,,,,,,,,,,,,,n,1,1.1008626534276118,1298.9481070706913,None,,,,,001,59,2019_Oct_24_0901,ACPT_experiment_5_30_19,3.1.0,59.95305538162308,
,,,C,G,g,v,,,,,,,,,,5,19,119,13,0,0,0,0,0,0,0,0,,,,,v,1,2.6354068247965188,1302.1839240618667,None,,,,,001,59,2019_Oct_24_0901,ACPT_experiment_5_30_19,3.1.0,59.95305538162308,
,,,C,G,g,v,R,G,y,L,y,,,,,5,19,119,13,0,0,0,0,,,,,0,0,0,28,,,,,,down,1.617963283045583,1427.8645889491736,None,001,59,2019_Oct_24_0901,ACPT_experiment_5_30_19,3.1.0,59.95305538162308,
,,,C,G,g,v,R,D,y,R,y,,,,,5,19,119,13,0,0,0,0,,,,,0,1,1,27,,,,,,down,1.1675442721902982,1430.766851444789,None,001,59,2019_Oct_24_0901,ACPT_experiment_5_30_19,3.1.0,59.95305538162308,
,,,C,G,g,v,L,U,y,R,u,,,,,5,19,119,13,0,0,0,0,,,,,0,2,2,25,,,,,,down,1.5511953325312788,1433.20205493718,None,001,59,2019_Oct_24_0901,ACPT_experiment_5_30_19,3.1.0,59.95305538162308,
,,,C,G,g,v,L,G,d,L,i,,,,,5,19,119,13,0,0,0,0,,,,,0,3,3,16,,,,,,up,1.301011349304872,1436.037588120268,None,001,59,2019_Oct_24_0901,ACPT_experiment_5_30_19,3.1.0,59.95305538162308,
,,,C,G,g,v,L,G,d,R,i,,,,,5,19,119,13,0,0,0,0,,,,,0,4,4,17,,,,,,up,0.8673216811628208,1438.6229412443001,None,001,59,2019_Oct_24_0901,ACPT_experiment_5_30_19,3.1.0,59.95305538162308,
,,,C,G,g,v,R,G,y,R,y,,,,,5,19,119,13,0,0,0,0,,,,,0,5,5,29,,,,,,down,1.0174565216998417,1440.7745959462716,None,001,59,2019_Oct_24_0901,ACPT_experiment_5_30_19,3.1.0,59.95305538162308,
,,,C,G,g,v,R,D,y,L,y,,,,,5,19,119,13,0,0,0,0,,,,,0,6,6,26,,,,,,down,0.9173648168530235,1443.093046913157,None,001,59,2019_Oct_24_0901,ACPT_experiment_5_30_19,3.1.0,59.95305538162308,
,,,C,G,g,v,L,D,y,L,y,,,,,5,19,119,13,0,0,0,0,,,,,0,7,7,32,,,,,,down,0.8673331518152736,1445.311427909063,None,001,59,2019_Oct_24_0901,ACPT_experiment_5_30_19,3.1.0,59.95305538162308,
,,,C,G,g,v,L,G,g,L,c ,,,,,5,19,119,13,0,0,0,0,,,,,0,8,8,18,,,,,,up,0.9173602889638914,1447.4631058541984,None,001,59,2019_Oct_24_0901,ACPT_experiment_5_30_19,3.1.0,59.95305538162308,
,,,C,G,g,v,L,D,d,L,c ,,,,,5,19,119,13,0,0,0,0,,,,,0,9,9,12,,,,,,up,0.7839369814435031,1449.6647979565334,None,001,59,2019_Oct_24_0901,ACPT_experiment_5_30_19,3.1.0,59.95305538162308,
,,,C,G,g,v,L,G,y,R,y,,,,,5,19,119,13,0,0,0,0,,,,,0,10,10,35,,,,,,down,0.9006934311196346,1451.7330721848152,None,001,59,2019_Oct_24_0901,ACPT_experiment_5_30_19,3.1.0,59.95305538162308,
,,,C,G,g,v,R,U,y,R,u,,,,,5,19,119,13,0,0,0,0,,,,,0,11,11,31,,,,,,down,0.9173708540383814,1453.9014079320164,None,001,59,2019_Oct_24_0901,ACPT_experiment_5_30_19,3.1.0,59.95305538162308,
,,,C,G,g,v,R,G,d,R,i,,,,,5,19,119,13,0,0,0,0,,,,,0,12,12,5,,,,,,up,1.1008499753381784,1456.103099430633,None,001,59,2019_Oct_24_0901,ACPT_experiment_5_30_19,3.1.0,59.95305538162308,
,,,C,G,g,v,R,U,d,L,u,,,,,5,19,119,13,0,0,0,0,,,,,0,13,13,8,,,,,,up,0.9674100655577149,1458.4882941992912,None,001,59,2019_Oct_24_0901,ACPT_experiment_5_30_19,3.1.0,59.95305538162308,
,,,C,G,g,v,L,G,y,L,y,,,,,5,19,119,13,0,0,0,0,,,,,0,14,14,34,,,,,,down,0.9674158008838276,1460.7400363800796,None,001,59,2019_Oct_24_0901,ACPT_experiment_5_30_19,3.1.0,59.95305538162308,
,,,C,G,g,v,R,U,d,R,u,,,,,5,19,119,13,0,0,0,0,,,,,0,15,15,9,,,,,,up,0.8673334536747461,1462.9917960687055,None,001,59,2019_Oct_24_0901,ACPT_experiment_5_30_19,3.1.0,59.95305538162308,
,,,C,G,g,v,R,D,d,L,c,,,,,5,19,119,13,0,0,0,0,,,,,0,16,16,0,,,,,,up,0.850658445630188,1465.1434444316321,None,001,59,2019_Oct_24_0901,ACPT_experiment_5_30_19,3.1.0,59.95305538162308,
,,,C,G,g,v,R,U,y,L,u,,,,,5,19,119,13,0,0,0,0,,,,,0,17,17,30,,,,,,down,0.8006231582810415,1467.2784259367147,None,001,59,2019_Oct_24_0901,ACPT_experiment_5_30_19,3.1.0,59.95305538162308,
,,,C,G,g,v,L,D,g,L,i,,,,,5,19,119,13,0,0,0,0,,,,,0,18,18,14,,,,,,up,0.8506569363335075,1469.3633778897743,None,001,59,2019_Oct_24_0901,ACPT_experiment_5_30_19,3.1.0,59.95305538162308,
,,,C,G,g,v,L,D,d,R,c ,,,,,5,19,119,13,0,0,0,0,,,,,0,19,19,13,,,,,,up,0.8506602567856589,1471.498364224605,None,001,59,2019_Oct_24_0901,ACPT_experiment_5_30_19,3.1.0,59.95305538162308,
,,,C,G,g,v,R,G,g,R,c ,,,,,5,19,119,13,0,0,0,0,,,,,0,20,20,7,,,,,,up,1.01744203245471,1473.6333611245102,None,001,59,2019_Oct_24_0901,ACPT_experiment_5_30_19,3.1.0,59.95305538162308,
,,,C,G,g,v,L,D,g,R,i,,,,,5,19,119,13,0,0,0,0,,,,,0,21,21,15,,,,,,up,0.6171458481369427,1475.9184478879208,None,001,59,2019_Oct_24_0901,ACPT_experiment_5_30_19,3.1.0,59.95305538162308,
,,,C,G,g,v,R,D,d,R,c ,,,,,5,19,119,13,0,0,0,0,,,,,0,22,22,1,,,,,,up,0.4836893360968588,1477.8199358126444,None,001,59,2019_Oct_24_0901,ACPT_experiment_5_30_19,3.1.0,59.95305538162308,
,,,C,G,g,v,R,D,g,L,i,,,,,5,19,119,13,0,0,0,0,,,,,0,23,23,2,,,,,,up,0.6338099892477658,1479.5712813503494,None,001,59,2019_Oct_24_0901,ACPT_experiment_5_30_19,3.1.0,59.95305538162308,
,,,C,G,g,v,R,G,d,L,i,,,,,5,19,119,13,0,0,0,0,,,,,0,24,24,4,,,,,,up,0.667178116893183,1481.4894334161836,None,001,59,2019_Oct_24_0901,ACPT_experiment_5_30_19,3.1.0,59.95305538162308,
,,,C,G,g,v,L,U,d,R,u,,,,,5,19,119,13,0,0,0,0,,,,,0,25,25,21,,,,,,up,0.5001391571242948,1483.4578921408524,None,001,59,2019_Oct_24_0901,ACPT_experiment_5_30_19,3.1.0,59.95305538162308,
,,,C,G,g,v,L,G,g,R,c ,,,,,5,19,119,13,0,0,0,0,,,,,0,26,26,19,,,,,,up,0.6504988828189653,1485.2423368495913,None,001,59,2019_Oct_24_0901,ACPT_experiment_5_30_19,3.1.0,59.95305538162308,
,,,C,G,g,v,R,U,g,R,u,,,,,5,19,119,13,0,0,0,0,,,,,0,27,27,11,,,,,,up,0.7172291009242144,1487.1604843875366,None,001,59,2019_Oct_24_0901,ACPT_experiment_5_30_19,3.1.0,59.95305538162308,
,,,C,G,g,v,L,U,y,L,u,,,,,5,19,119,13,0,0,0,0,,,,,0,28,28,24,,,,,,down,1.034136359492777,1489.1620386609281,None,001,59,2019_Oct_24_0901,ACPT_experiment_5_30_19,3.1.0,59.95305538162308,
,,,C,G,g,v,R,U,g,L,u,,,,,5,19,119,13,0,0,0,0,,,,,0,29,29,10,,,,,,up,0.6004687270776685,1491.4804986835918,None,001,59,2019_Oct_24_0901,ACPT_experiment_5_30_19,3.1.0,59.95305538162308,
,,,C,G,g,v,L,U,d,L,u,,,,,5,19,119,13,0,0,0,0,,,,,0,30,30,20,,,,,,up,0.6838600677008344,1493.3652913756994,None,001,59,2019_Oct_24_0901,ACPT_experiment_5_30_19,3.1.0,59.95305538162308,
,,,C,G,g,v,L,D,y,R,y,,,,,5,19,119,13,0,0,0,0,,,,,0,31,31,33,,,,,,down,0.9340467676609023,1495.3501615852683,None,001,59,2019_Oct_24_0901,ACPT_experiment_5_30_19,3.1.0,59.95305538162308,
,,,C,G,g,v,R,G,g,L,c ,,,,,5,19,119,13,0,0,0,0,,,,,0,32,32,6,,,,,,up,0.7172529478066281,1497.5852251357007,None,001,59,2019_Oct_24_0901,ACPT_experiment_5_30_19,3.1.0,59.95305538162308,
,,,C,G,g,v,L,U,g,R,u,,,,,5,19,119,13,0,0,0,0,,,,,0,33,33,23,,,,,,up,0.8506339950290567,1499.5701170791372,None,001,59,2019_Oct_24_0901,ACPT_experiment_5_30_19,3.1.0,59.95305538162308,
,,,C,G,g,v,R,D,g,R,i,,,,,5,19,119,13,0,0,0,0,,,,,0,34,34,3,,,,,,up,0.7338953550499809,1501.7050856042708,None,001,59,2019_Oct_24_0901,ACPT_experiment_5_30_19,3.1.0,59.95305538162308,
,,,C,G,g,v,L,U,g,L,u,,,,,5,19,119,13,0,0,0,0,,,,,0,35,35,22,,,,,,up,1.100881368702403,1503.7233061317881,None,001,59,2019_Oct_24_0901,ACPT_experiment_5_30_19,3.1.0,59.95305538162308,
,,,C,G,g,v,L,D,g,L,i,,,,,5,19,119,13,0,0,0,0,,,,,1,0,36,14,,,,,,up,0.7338817713825847,1506.1084876186383,None,001,59,2019_Oct_24_0901,ACPT_experiment_5_30_19,3.1.0,59.95305538162308,
,,,C,G,g,v,L,G,g,L,c ,,,,,5,19,119,13,0,0,0,0,,,,,1,1,37,18,,,,,,up,0.6505456710058297,1508.126713277763,None,001,59,2019_Oct_24_0901,ACPT_experiment_5_30_19,3.1.0,59.95305538162308,
,,,C,G,g,v,R,D,g,L,i,,,,,5,19,119,13,0,0,0,0,,,,,1,2,38,2,,,,,,up,0.5835054434282938,1510.0784991074022,None,001,59,2019_Oct_24_0901,ACPT_experiment_5_30_19,3.1.0,59.95305538162308,
,,,C,G,g,v,R,U,g,L,u,,,,,5,19,119,13,0,0,0,0,,,,,1,3,39,10,,,,,,up,0.6171479611518862,1511.9463363642017,None,001,59,2019_Oct_24_0901,ACPT_experiment_5_30_19,3.1.0,59.95305538162308,
,,,C,G,g,v,R,D,y,R,y,,,,,5,19,119,13,0,0,0,0,,,,,1,4,40,27,,,,,,down,1.3510484478094895,1513.8478082903837,None,001,59,2019_Oct_24_0901,ACPT_experiment_5_30_19,3.1.0,59.95305538162308,
,,,C,G,g,v,L,U,g,L,u,,,,,5,19,119,13,0,0,0,0,,,,,1,5,41,22,,,,,,up,0.8670669119373997,1516.5001394589838,None,001,59,2019_Oct_24_0901,ACPT_experiment_5_30_19,3.1.0,59.95305538162308,
,,,C,G,g,v,L,U,g,R,u,,,,,5,19,119,13,0,0,0,0,,,,,1,6,42,23,,,,,,up,0.6839029317177392,1518.6348290661501,None,001,59,2019_Oct_24_0901,ACPT_experiment_5_30_19,3.1.0,59.95305538162308,
,,,C,G,g,v,L,D,d,L,c ,,,,,5,19,119,13,0,0,0,0,,,,,1,7,43,12,,,,,,up,0.5836711641686634,1520.603119353345,None,001,59,2019_Oct_24_0901,ACPT_experiment_5_30_19,3.1.0,59.95305538162308,
,,,C,G,g,v,L,D,y,R,y,,,,,5,19,119,13,0,0,0,0,,,,,1,8,44,33,,,,,,down,0.7005531873019208,1522.4711594595753,None,001,59,2019_Oct_24_0901,ACPT_experiment_5_30_19,3.1.0,59.95305538162308,
,,,C,G,g,v,R,G,g,R,c ,,,,,5,19,119,13,0,0,0,0,,,,,1,9,45,7,,,,,,up,1.4511205318035536,1524.4560212170845,None,001,59,2019_Oct_24_0901,ACPT_experiment_5_30_19,3.1.0,59.95305538162308,
,,,C,G,g,v,L,G,d,L,i,,,,,5,19,119,13,0,0,0,0,,,,,1,10,46,16,,,,,,up,1.4011115062112367,1527.1914482060806,None,001,59,2019_Oct_24_0901,ACPT_experiment_5_30_19,3.1.0,59.95305538162308,
,,,C,G,g,v,R,D,d,L,c,,,,,5,19,119,13,0,0,0,0,,,,,1,11,47,0,,,,,,up,0.7172215544424034,1529.8768797531516,None,001,59,2019_Oct_24_0901,ACPT_experiment_5_30_19,3.1.0,59.95305538162308,
,,,C,G,g,v,R,U,d,R,u,,,,,5,19,119,13,0,0,0,0,,,,,1,12,48,9,,,,,,up,0.7338971662056792,1531.8784467046326,None,001,59,2019_Oct_24_0901,ACPT_experiment_5_30_19,3.1.0,59.95305538162308,
,,,C,G,g,v,R,D,d,R,c ,,,,,5,19,119,13,0,0,0,0,,,,,1,13,49,1,,,,,,up,1.217591633909933,1533.89667538235,None,001,59,2019_Oct_24_0901,ACPT_experiment_5_30_19,3.1.0,59.95305538162308,
,,,C,G,g,v,R,U,g,R,u,,,,,5,19,119,13,0,0,0,0,,,,,1,14,50,11,,,,,,up,0.6672037749315223,1536.398599735209,None,001,59,2019_Oct_24_0901,ACPT_experiment_5_30_19,3.1.0,59.95305538162308,
,,,C,G,g,v,R,D,g,R,i,,,,,5,19,119,13,0,0,0,0,,,,,1,15,51,3,,,,,,up,1.5678383434928946,1538.350148907179,None,001,59,2019_Oct_24_0901,ACPT_experiment_5_30_19,3.1.0,59.95305538162308,
,,,C,G,g,v,R,G,g,L,c ,,,,,5,19,119,13,0,0,0,0,,,,,1,16,52,6,,,,,,up,0.6004605768771398,1541.2023202714802,None,001,59,2019_Oct_24_0901,ACPT_experiment_5_30_19,3.1.0,59.95305538162308,
,,,C,G,g,v,L,U,d,L,u,,,,,5,19,119,13,0,0,0,0,,,,,1,17,53,20,,,,,,up,0.7005353776048651,1543.0871126617287,None,001,59,2019_Oct_24_0901,ACPT_experiment_5_30_19,3.1.0,59.95305538162308,
,,,C,G,g,v,R,G,y,R,y,,,,,5,19,119,13,0,0,0,0,,,,,1,18,54,29,,,,,,down,0.8006128950657967,1545.0719798527048,None,001,59,2019_Oct_24_0901,ACPT_experiment_5_30_19,3.1.0,59.95305538162308,
,,,C,G,g,v,L,U,d,R,u,,,,,5,19,119,13,0,0,0,0,,,,,1,19,55,21,,,,,,up,1.100844843730556,1547.1569287871716,None,001,59,2019_Oct_24_0901,ACPT_experiment_5_30_19,3.1.0,59.95305538162308,
,,,C,G,g,v,L,D,d,R,c ,,,,,5,19,119,13,0,0,0,0,,,,,1,20,56,13,,,,,,up,0.7005359813235827,1549.5421075572883,None,001,59,2019_Oct_24_0901,ACPT_experiment_5_30_19,3.1.0,59.95305538162308,
,,,C,G,g,v,L,G,g,R,c ,,,,,5,19,119,13,0,0,0,0,,,,,1,21,57,19,,,,,,up,0.5671066366173818,1551.526979879872,None,001,59,2019_Oct_24_0901,ACPT_experiment_5_30_19,3.1.0,59.95305538162308,
,,,C,G,g,v,L,U,y,R,u,,,,,5,19,119,13,0,0,0,0,,,,,1,22,58,25,,,,,,down,0.6838706327755517,1553.3784086703643,None,001,59,2019_Oct_24_0901,ACPT_experiment_5_30_19,3.1.0,59.95305538162308,
,,,C,G,g,v,R,D,y,L,y,,,,,5,19,119,13,0,0,0,0,,,,,1,23,59,26,,,,,,down,1.2008994198870369,1555.3466207760077,None,001,59,2019_Oct_24_0901,ACPT_experiment_5_30_19,3.1.0,59.95305538162308,
,,,C,G,g,v,R,G,y,L,y,,,,,5,19,119,13,0,0,0,0,,,,,1,24,60,28,,,,,,down,0.8339614018584598,1557.848540902837,None,001,59,2019_Oct_24_0901,ACPT_experiment_5_30_19,3.1.0,59.95305538162308,
,,,C,G,g,v,R,G,d,L,i,,,,,5,19,119,13,0,0,0,0,,,,,1,25,61,4,,,,,,up,0.5671048254619109,1559.9835257283714,None,001,59,2019_Oct_24_0901,ACPT_experiment_5_30_19,3.1.0,59.95305538162308,
,,,C,G,g,v,L,G,y,L,y,,,,,5,19,119,13,0,0,0,0,,,,,1,26,62,34,,,,,,down,0.7339122591690739,1561.8349348980107,None,001,59,2019_Oct_24_0901,ACPT_experiment_5_30_19,3.1.0,59.95305538162308,
,,,C,G,g,v,L,G,d,R,i,,,,,5,19,119,13,0,0,0,0,,,,,1,27,63,17,,,,,,up,1.000771854158529,1563.8531874226107,None,001,59,2019_Oct_24_0901,ACPT_experiment_5_30_19,3.1.0,59.95305538162308,
,,,C,G,g,v,L,G,y,R,y,,,,,5,19,119,13,0,0,0,0,,,,,1,28,64,35,,,,,,down,0.8506418433701128,1566.1382953161703,None,001,59,2019_Oct_24_0901,ACPT_experiment_5_30_19,3.1.0,59.95305538162308,
,,,C,G,g,v,R,U,y,R,u,,,,,5,19,119,13,0,0,0,0,,,,,1,29,65,31,,,,,,down,0.8673328499560284,1568.2899518292975,None,001,59,2019_Oct_24_0901,ACPT_experiment_5_30_19,3.1.0,59.95305538162308,
,,,C,G,g,v,R,U,y,L,u,,,,,5,19,119,13,0,0,0,0,,,,,1,30,66,30,,,,,,down,0.8173102406965427,1570.4582776151426,None,001,59,2019_Oct_24_0901,ACPT_experiment_5_30_19,3.1.0,59.95305538162308,
,,,C,G,g,v,L,D,g,R,i,,,,,5,19,119,13,0,0,0,0,,,,,1,31,67,15,,,,,,up,1.1842446364134958,1572.576603431174,None,001,59,2019_Oct_24_0901,ACPT_experiment_5_30_19,3.1.0,59.95305538162308,
,,,C,G,g,v,L,U,y,L,u,,,,,5,19,119,13,0,0,0,0,,,,,1,32,68,24,,,,,,down,0.8671807128830551,1575.0620139688397,None,001,59,2019_Oct_24_0901,ACPT_experiment_5_30_19,3.1.0,59.95305538162308,
,,,C,G,g,v,L,D,y,L,y,,,,,5,19,119,13,0,0,0,0,,,,,1,33,69,32,,,,,,down,0.9007236170468786,1577.2135234765012,None,001,59,2019_Oct_24_0901,ACPT_experiment_5_30_19,3.1.0,59.95305538162308,
,,,C,G,g,v,R,U,d,L,u,,,,,5,19,119,13,0,0,0,0,,,,,1,34,70,8,,,,,,up,0.6671744945820137,1579.415229766222,None,001,59,2019_Oct_24_0901,ACPT_experiment_5_30_19,3.1.0,59.95305538162308,
,,,C,G,g,v,R,G,d,R,i,,,,,5,19,119,13,0,0,0,0,,,,,1,35,71,5,,,,,,up,1.4678302536642605,1581.3667451299534,None,001,59,2019_Oct_24_0901,ACPT_experiment_5_30_19,3.1.0,59.95305538162308,
,,,C,G,g,v,,,,,,,,,,5,19,119,13,1,0,1,0,0,0,0,0,,,,,,,,,,,,,,001,59,2019_Oct_24_0901,ACPT_experiment_5_30_19,3.1.0,59.95305538162308,
,,,C,G,g,v,R,D,d,L,c,,,,,5,19,119,13,1,0,1,0,,,,,0,0,0,0,,,,,,up,0.9504799864282631,1600.8987968493136,None,001,59,2019_Oct_24_0901,ACPT_experiment_5_30_19,3.1.0,59.95305538162308,
,,,C,G,g,v,R,D,y,L,y,,,,,5,19,119,13,1,0,1,0,,,,,0,1,1,26,,,,,,down,1.2009235686286956,1603.150269167913,None,001,59,2019_Oct_24_0901,ACPT_experiment_5_30_19,3.1.0,59.95305538162308,
,,,C,G,g,v,R,D,d,R,c ,,,,,5,19,119,13,1,0,1,0,,,,,0,2,2,1,,,,,,up,0.8172966570293738,1605.6355233424756,None,001,59,2019_Oct_24_0901,ACPT_experiment_5_30_19,3.1.0,59.95305538162308,
,,,C,G,g,v,R,G,d,R,i,,,,,5,19,119,13,1,0,1,0,,,,,0,3,3,5,,,,,,up,0.5837834558178656,1607.7371454738316,None,001,59,2019_Oct_24_0901,ACPT_experiment_5_30_19,3.1.0,59.95305538162308,
,,,C,G,g,v,L,G,y,R,y,,,,,5,19,119,13,1,0,1,0,,,,,0,4,4,35,,,,,,down,0.6171706005973192,1609.6052691950802,None,001,59,2019_Oct_24_0901,ACPT_experiment_5_30_19,3.1.0,59.95305538162308,
,,,C,G,g,v,R,U,y,R,u,,,,,5,19,119,13,1,0,1,0,,,,,0,5,5,31,,,,,,down,0.6004756698407618,1611.5067266320173,None,001,59,2019_Oct_24_0901,ACPT_experiment_5_30_19,3.1.0,59.95305538162308,
,,,C,G,g,v,R,U,y,L,u,,,,,5,19,119,13,1,0,1,0,,,,,0,6,6,30,,,,,,down,0.7672592566655112,1613.391531398496,None,001,59,2019_Oct_24_0901,ACPT_experiment_5_30_19,3.1.0,59.95305538162308,
,,,C,G,g,v,R,D,y,R,y,,,,,5,19,119,13,1,0,1,0,,,,,0,7,7,27,,,,,,down,0.5470930650246828,1615.463128795503,None,001,59,2019_Oct_24_0901,ACPT_experiment_5_30_19,3.1.0,59.95305538162308,
,,,C,G,g,v,L,G,y,L,y,,,,,5,19,119,13,1,0,1,0,,,,,0,8,8,34,,,,,,down,0.6171449425592073,1617.2945515608842,None,001,59,2019_Oct_24_0901,ACPT_experiment_5_30_19,3.1.0,59.95305538162308,
,,,C,G,g,v,R,G,d,L,i,,,,,5,19,119,13,1,0,1,0,,,,,0,9,9,4,,,,,,up,0.8673376797041783,1619.1960240907847,None,001,59,2019_Oct_24_0901,ACPT_experiment_5_30_19,3.1.0,59.95305538162308,
,,,C,G,g,v,L,D,d,L,c ,,,,,5,19,119,13,1,0,1,0,,,,,0,10,10,12,,,,,,up,0.5837777204915255,1621.3476914708456,None,001,59,2019_Oct_24_0901,ACPT_experiment_5_30_19,3.1.0,59.95305538162308,
,,,C,G,g,v,R,G,g,L,c ,,,,,5,19,119,13,1,0,1,0,,,,,0,11,11,6,,,,,,up,0.6671808336266167,1623.2157991935528,None,001,59,2019_Oct_24_0901,ACPT_experiment_5_30_19,3.1.0,59.95305538162308,
,,,C,G,g,v,L,U,y,L,u,,,,,5,19,119,13,1,0,1,0,,,,,0,12,12,24,,,,,,down,0.6170661572891731,1625.1672816546236,None,001,59,2019_Oct_24_0901,ACPT_experiment_5_30_19,3.1.0,59.95305538162308,
,,,C,G,g,v,L,G,g,R,c ,,,,,5,19,119,13,1,0,1,0,,,,,0,13,13,19,,,,,,up,0.717216422834781,1627.0687834648736,None,001,59,2019_Oct_24_0901,ACPT_experiment_5_30_19,3.1.0,59.95305538162308,
,,,C,G,g,v,R,U,d,L,u,,,,,5,19,119,13,1,0,1,0,,,,,0,14,14,8,,,,,,up,0.6504949586483235,1629.0703295880646,None,001,59,2019_Oct_24_0901,ACPT_experiment_5_30_19,3.1.0,59.95305538162308,
,,,C,G,g,v,R,G,y,R,y,,,,,5,19,119,13,1,0,1,0,,,,,0,15,15,29,,,,,,down,0.6505215222643983,1631.0051620954105,None,001,59,2019_Oct_24_0901,ACPT_experiment_5_30_19,3.1.0,59.95305538162308,
,,,C,G,g,v,L,G,d,R,i,,,,,5,19,119,13,1,0,1,0,,,,,0,16,16,17,,,,,,up,0.7505939081174802,1632.9399722651701,None,001,59,2019_Oct_24_0901,ACPT_experiment_5_30_19,3.1.0,59.95305538162308,
,,,C,G,g,v,L,U,g,R,u,,,,,5,19,119,13,1,0,1,0,,,,,0,17,17,23,,,,,,up,0.6505142776416051,1634.9748807806805,None,001,59,2019_Oct_24_0901,ACPT_experiment_5_30_19,3.1.0,59.95305538162308,
,,,C,G,g,v,R,U,g,R,u,,,,,5,19,119,13,1,0,1,0,,,,,0,18,18,11,,,,,,up,0.8506563326152445,1636.909734116316,None,001,59,2019_Oct_24_0901,ACPT_experiment_5_30_19,3.1.0,59.95305538162308,
,,,C,G,g,v,L,D,g,L,i,,,,,5,19,119,13,1,0,1,0,,,,,0,19,19,14,,,,,,up,0.7505884746506126,1639.0447210548652,None,001,59,2019_Oct_24_0901,ACPT_experiment_5_30_19,3.1.0,59.95305538162308,
,,,C,G,g,v,R,G,y,L,y,,,,,5,19,119,13,1,0,1,0,,,,,0,20,20,28,,,,,,down,0.7669921112099019,1641.0965789684985,None,001,59,2019_Oct_24_0901,ACPT_experiment_5_30_19,3.1.0,59.95305538162308,
,,,C,G,g,v,L,G,d,L,i,,,,,5,19,119,13,1,0,1,0,,,,,0,21,21,16,,,,,,up,0.8006141025030047,1643.1478974596128,None,001,59,2019_Oct_24_0901,ACPT_experiment_5_30_19,3.1.0,59.95305538162308,
,,,C,G,g,v,L,D,g,R,i,,,,,5,19,119,13,1,0,1,0,,,,,0,22,22,15,,,,,,up,0.9841161651074799,1645.2328210379007,None,001,59,2019_Oct_24_0901,ACPT_experiment_5_30_19,3.1.0,59.95305538162308,
,,,C,G,g,v,L,U,g,L,u,,,,,5,19,119,13,1,0,1,0,,,,,0,23,23,22,,,,,,up,0.713891442953809,1647.5212702117421,None,001,59,2019_Oct_24_0901,ACPT_experiment_5_30_19,3.1.0,59.95305538162308,
,,,C,G,g,v,R,D,g,L,i,,,,,5,19,119,13,1,0,1,0,,,,,0,24,24,2,,,,,,up,0.6671986433236725,1649.519472036059,None,001,59,2019_Oct_24_0901,ACPT_experiment_5_30_19,3.1.0,59.95305538162308,
,,,C,G,g,v,L,D,y,R,y,,,,,5,19,119,13,1,0,1,0,,,,,0,25,25,33,,,,,,down,0.8673349629709719,1651.4876853491394,None,001,59,2019_Oct_24_0901,ACPT_experiment_5_30_19,3.1.0,59.95305538162308,
,,,C,G,g,v,R,U,d,R,u,,,,,5,19,119,13,1,0,1,0,,,,,0,26,26,9,,,,,,up,1.0174504845144838,1653.6560271335263,None,001,59,2019_Oct_24_0901,ACPT_experiment_5_30_19,3.1.0,59.95305538162308,
,,,C,G,g,v,L,G,g,L,c ,,,,,5,19,119,13,1,0,1,0,,,,,0,27,27,18,,,,,,up,0.7005251143896203,1655.95782271322,None,001,59,2019_Oct_24_0901,ACPT_experiment_5_30_19,3.1.0,59.95305538162308,
,,,C,G,g,v,R,D,g,R,i,,,,,5,19,119,13,1,0,1,0,,,,,0,28,28,3,,,,,,up,0.6671980396051822,1657.9426847725883,None,001,59,2019_Oct_24_0901,ACPT_experiment_5_30_19,3.1.0,59.95305538162308,
,,,C,G,g,v,R,G,g,R,c ,,,,,5,19,119,13,1,0,1,0,,,,,0,29,29,7,,,,,,up,0.7005365850420731,1659.89419168426,None,001,59,2019_Oct_24_0901,ACPT_experiment_5_30_19,3.1.0,59.95305538162308,
,,,C,G,g,v,L,D,y,L,y,,,,,5,19,119,13,1,0,1,0,,,,,0,30,30,32,,,,,,down,0.6171386035143769,1661.879059780814,None,001,59,2019_Oct_24_0901,ACPT_experiment_5_30_19,3.1.0,59.95305538162308,
,,,C,G,g,v,L,D,d,R,c ,,,,,5,19,119,13,1,0,1,0,,,,,0,31,31,13,,,,,,up,0.8673627340237999,1663.7805268772477,None,001,59,2019_Oct_24_0901,ACPT_experiment_5_30_19,3.1.0,59.95305538162308,
,,,C,G,g,v,L,U,d,R,u,,,,,5,19,119,13,1,0,1,0,,,,,0,32,32,21,,,,,,up,0.5670960715428919,1665.9322018037903,None,001,59,2019_Oct_24_0901,ACPT_experiment_5_30_19,3.1.0,59.95305538162308,
,,,C,G,g,v,L,U,d,L,u,,,,,5,19,119,13,1,0,1,0,,,,,0,33,33,20,,,,,,up,0.41698719090368286,1667.7836296887047,None,001,59,2019_Oct_24_0901,ACPT_experiment_5_30_19,3.1.0,59.95305538162308,
,,,C,G,g,v,R,U,g,L,u,,,,,5,19,119,13,1,0,1,0,,,,,0,34,34,10,,,,,,up,0.5170810087654445,1669.4849257516748,None,001,59,2019_Oct_24_0901,ACPT_experiment_5_30_19,3.1.0,59.95305538162308,
,,,C,G,g,v,L,U,y,R,u,,,,,5,19,119,13,1,0,1,0,,,,,0,35,35,25,,,,,,down,0.650481978699645,1671.2863503463232,None,001,59,2019_Oct_24_0901,ACPT_experiment_5_30_19,3.1.0,59.95305538162308,
,,,C,G,g,v,L,G,d,L,i,,,,,5,19,119,13,1,0,1,0,,,,,1,0,36,16,,,,,,up,0.7336221724087864,1673.238125912747,None,001,59,2019_Oct_24_0901,ACPT_experiment_5_30_19,3.1.0,59.95305538162308,
,,,C,G,g,v,L,U,y,L,u,,,,,5,19,119,13,1,0,1,0,,,,,1,1,37,24,,,,,,down,0.5671042217434206,1675.2560792948084,None,001,59,2019_Oct_24_0901,ACPT_experiment_5_30_19,3.1.0,59.95305538162308,
,,,C,G,g,v,R,U,y,R,u,,,,,5,19,119,13,1,0,1,0,,,,,1,2,38,31,,,,,,down,0.7005821657919569,1677.1074878607294,None,001,59,2019_Oct_24_0901,ACPT_experiment_5_30_19,3.1.0,59.95305538162308,
,,,C,G,g,v,L,U,y,R,u,,,,,5,19,119,13,1,0,1,0,,,,,1,3,39,25,,,,,,down,0.600484725619026,1679.0923574665796,None,001,59,2019_Oct_24_0901,ACPT_experiment_5_30_19,3.1.0,59.95305538162308,
,,,C,G,g,v,R,G,y,R,y,,,,,5,19,119,13,1,0,1,0,,,,,1,4,40,29,,,,,,down,0.8506563326150172,1680.9771715906957,None,001,59,2019_Oct_24_0901,ACPT_experiment_5_30_19,3.1.0,59.95305538162308,
,,,C,G,g,v,R,U,g,R,u,,,,,5,19,119,13,1,0,1,0,,,,,1,5,41,11,,,,,,up,0.6671769094562023,1683.112161849697,None,001,59,2019_Oct_24_0901,ACPT_experiment_5_30_19,3.1.0,59.95305538162308,
,,,C,G,g,v,R,U,y,L,u,,,,,5,19,119,13,1,0,1,0,,,,,1,6,42,30,,,,,,down,0.6672221883470684,1685.063673591117,None,001,59,2019_Oct_24_0901,ACPT_experiment_5_30_19,3.1.0,59.95305538162308,
,,,C,G,g,v,L,G,y,R,y,,,,,5,19,119,13,1,0,1,0,,,,,1,7,43,35,,,,,,down,0.6504997883967008,1687.0151826158037,None,001,59,2019_Oct_24_0901,ACPT_experiment_5_30_19,3.1.0,59.95305538162308,
,,,C,G,g,v,R,U,g,L,u,,,,,5,19,119,13,1,0,1,0,,,,,1,8,44,10,,,,,,up,0.7005435278051664,1688.9500084822455,None,001,59,2019_Oct_24_0901,ACPT_experiment_5_30_19,3.1.0,59.95305538162308,
,,,C,G,g,v,R,D,d,L,c,,,,,5,19,119,13,1,0,1,0,,,,,1,9,45,0,,,,,,up,0.7672622752581901,1690.9348780880957,None,001,59,2019_Oct_24_0901,ACPT_experiment_5_30_19,3.1.0,59.95305538162308,
,,,C,G,g,v,L,U,d,L,u,,,,,5,19,119,13,1,0,1,0,,,,,1,10,46,20,,,,,,up,1.0342287284297527,1692.98644531125,None,001,59,2019_Oct_24_0901,ACPT_experiment_5_30_19,3.1.0,59.95305538162308,
,,,C,G,g,v,R,D,y,R,y,,,,,5,19,119,13,1,0,1,0,,,,,1,11,47,27,,,,,,down,0.7505748909834438,1695.3049303882333,None,001,59,2019_Oct_24_0901,ACPT_experiment_5_30_19,3.1.0,59.95305538162308,
,,,C,G,g,v,R,G,y,L,y,,,,,5,19,119,13,1,0,1,0,,,,,1,12,48,28,,,,,,down,0.6671726834263154,1697.35652145827,None,001,59,2019_Oct_24_0901,ACPT_experiment_5_30_19,3.1.0,59.95305538162308,
,,,C,G,g,v,R,G,d,R,i,,,,,5,19,119,13,1,0,1,0,,,,,1,13,49,5,,,,,,up,0.6004762735592521,1699.3247060947199,None,001,59,2019_Oct_24_0901,ACPT_experiment_5_30_19,3.1.0,59.95305538162308,
,,,C,G,g,v,R,U,d,R,u,,,,,5,19,119,13,1,0,1,0,,,,,1,14,50,9,,,,,,up,0.7172170265534987,1701.209499088687,None,001,59,2019_Oct_24_0901,ACPT_experiment_5_30_19,3.1.0,59.95305538162308,
,,,C,G,g,v,L,G,g,L,c ,,,,,5,19,119,13,1,0,1,0,,,,,1,15,51,18,,,,,,up,0.4670182522227151,1703.211050645345,None,001,59,2019_Oct_24_0901,ACPT_experiment_5_30_19,3.1.0,59.95305538162308,
,,,C,G,g,v,L,D,y,R,y,,,,,5,19,119,13,1,0,1,0,,,,,1,16,52,33,,,,,,down,0.7503095566833053,1704.9793582592622,None,001,59,2019_Oct_24_0901,ACPT_experiment_5_30_19,3.1.0,59.95305538162308,
,,,C,G,g,v,L,G,g,R,c ,,,,,5,19,119,13,1,0,1,0,,,,,1,17,53,19,,,,,,up,0.7339077312799418,1707.0139941958498,None,001,59,2019_Oct_24_0901,ACPT_experiment_5_30_19,3.1.0,59.95305538162308,
,,,C,G,g,v,L,U,g,R,u,,,,,5,19,119,13,1,0,1,0,,,,,1,18,54,23,,,,,,up,0.6338413826119904,1709.0155216037663,None,001,59,2019_Oct_24_0901,ACPT_experiment_5_30_19,3.1.0,59.95305538162308,
,,,C,G,g,v,R,G,d,L,i,,,,,5,19,119,13,1,0,1,0,,,,,1,19,55,4,,,,,,up,0.5837834558176382,1710.9337005350758,None,001,59,2019_Oct_24_0901,ACPT_experiment_5_30_19,3.1.0,59.95305538162308,
,,,C,G,g,v,L,D,d,L,c ,,,,,5,19,119,13,1,0,1,0,,,,,1,20,56,12,,,,,,up,0.5504237802317675,1712.8018070503458,None,001,59,2019_Oct_24_0901,ACPT_experiment_5_30_19,3.1.0,59.95305538162308,
,,,C,G,g,v,R,D,d,R,c ,,,,,5,19,119,13,1,0,1,0,,,,,1,21,57,1,,,,,,up,0.7172577775550053,1714.6365375896296,None,001,59,2019_Oct_24_0901,ACPT_experiment_5_30_19,3.1.0,59.95305538162308,
,,,C,G,g,v,L,D,y,L,y,,,,,5,19,119,13,1,0,1,0,,,,,1,22,58,32,,,,,,down,0.6505124664861341,1716.6380882407097,None,001,59,2019_Oct_24_0901,ACPT_experiment_5_30_19,3.1.0,59.95305538162308,
,,,C,G,g,v,L,D,g,L,i,,,,,5,19,119,13,1,0,1,0,,,,,1,23,59,14,,,,,,up,0.5504210634985611,1718.572942481923,None,001,59,2019_Oct_24_0901,ACPT_experiment_5_30_19,3.1.0,59.95305538162308,
,,,C,G,g,v,R,D,g,L,i,,,,,5,19,119,13,1,0,1,0,,,,,1,24,60,2,,,,,,up,0.8340087937644967,1720.4076651728658,None,001,59,2019_Oct_24_0901,ACPT_experiment_5_30_19,3.1.0,59.95305538162308,
,,,C,G,g,v,R,G,g,L,c ,,,,,5,19,119,13,1,0,1,0,,,,,1,25,61,6,,,,,,up,0.6505000902559459,1722.5093223198971,None,001,59,2019_Oct_24_0901,ACPT_experiment_5_30_19,3.1.0,59.95305538162308,
,,,C,G,g,v,L,D,g,R,i,,,,,5,19,119,13,1,0,1,0,,,,,1,26,62,15,,,,,,up,0.6338268933670861,1724.4274713671387,None,001,59,2019_Oct_24_0901,ACPT_experiment_5_30_19,3.1.0,59.95305538162308,
,,,C,G,g,v,R,U,d,L,u,,,,,5,19,119,13,1,0,1,0,,,,,1,27,63,8,,,,,,up,0.6839144023699646,1726.34562464041,None,001,59,2019_Oct_24_0901,ACPT_experiment_5_30_19,3.1.0,59.95305538162308,
,,,C,G,g,v,L,U,d,R,u,,,,,5,19,119,13,1,0,1,0,,,,,1,28,64,21,,,,,,up,0.6171624503970179,1728.3137902597257,None,001,59,2019_Oct_24_0901,ACPT_experiment_5_30_19,3.1.0,59.95305538162308,
,,,C,G,g,v,R,D,y,L,y,,,,,5,19,119,13,1,0,1,0,,,,,1,29,65,26,,,,,,down,0.5835006136796892,1730.2322408643802,None,001,59,2019_Oct_24_0901,ACPT_experiment_5_30_19,3.1.0,59.95305538162308,
,,,C,G,g,v,R,G,g,R,c ,,,,,5,19,119,13,1,0,1,0,,,,,1,30,66,7,,,,,,up,0.6505239371383595,1732.1000775174612,None,001,59,2019_Oct_24_0901,ACPT_experiment_5_30_19,3.1.0,59.95305538162308,
,,,C,G,g,v,L,U,g,L,u,,,,,5,19,119,13,1,0,1,0,,,,,1,31,67,22,,,,,,up,0.45034022558547804,1734.0349079117918,None,001,59,2019_Oct_24_0901,ACPT_experiment_5_30_19,3.1.0,59.95305538162308,
,,,C,G,g,v,L,G,d,R,i,,,,,5,19,119,13,1,0,1,0,,,,,1,32,68,17,,,,,,up,0.6171358867809431,1735.7695865916526,None,001,59,2019_Oct_24_0901,ACPT_experiment_5_30_19,3.1.0,59.95305538162308,
,,,C,G,g,v,R,D,g,R,i,,,,,5,19,119,13,1,0,1,0,,,,,1,33,69,3,,,,,,up,0.5170903664029538,1737.6710313505002,None,001,59,2019_Oct_24_0901,ACPT_experiment_5_30_19,3.1.0,59.95305538162308,
,,,C,G,g,v,L,G,y,L,y,,,,,5,19,119,13,1,0,1,0,,,,,1,34,70,34,,,,,,down,0.6338133096996899,1739.4724544358521,None,001,59,2019_Oct_24_0901,ACPT_experiment_5_30_19,3.1.0,59.95305538162308,
,,,C,G,g,v,L,D,d,R,c ,,,,,5,19,119,13,1,0,1,0,,,,,1,35,71,13,,,,,,up,0.6171407165293203,1741.390602577516,None,001,59,2019_Oct_24_0901,ACPT_experiment_5_30_19,3.1.0,59.95305538162308,
,,,C,G,g,v,,,,,,,,,,5,19,119,13,2,0,2,0,0,0,0,0,,,,,,,,,,,,,,001,59,2019_Oct_24_0901,ACPT_experiment_5_30_19,3.1.0,59.95305538162308,
,,,C,G,g,v,L,U,y,L,u,,,,,5,19,119,13,2,0,2,0,,,,,0,0,0,24,,,,,,down,0.6835914129489993,1775.5339652052855,None,001,59,2019_Oct_24_0901,ACPT_experiment_5_30_19,3.1.0,59.95305538162308,
,,,C,G,g,v,R,G,y,L,y,,,,,5,19,119,13,2,0,2,0,,,,,0,1,1,28,,,,,,down,0.9340365044456576,1777.5019011096952,None,001,59,2019_Oct_24_0901,ACPT_experiment_5_30_19,3.1.0,59.95305538162308,
,,,C,G,g,v,R,D,y,L,y,,,,,5,19,119,13,2,0,2,0,,,,,0,2,2,26,,,,,,down,0.6505079385970021,1779.720268521934,None,001,59,2019_Oct_24_0901,ACPT_experiment_5_30_19,3.1.0,59.95305538162308,
,,,C,G,g,v,R,U,y,L,u,,,,,5,19,119,13,2,0,2,0,,,,,0,3,3,30,,,,,,down,0.5170571618828035,1781.6717826782283,None,001,59,2019_Oct_24_0901,ACPT_experiment_5_30_19,3.1.0,59.95305538162308,
,,,C,G,g,v,R,G,d,R,i,,,,,5,19,119,13,2,0,2,0,,,,,0,4,4,5,,,,,,up,0.5669886096420669,1783.4898557173053,None,001,59,2019_Oct_24_0901,ACPT_experiment_5_30_19,3.1.0,59.95305538162308,
,,,C,G,g,v,L,G,y,R,y,,,,,5,19,119,13,2,0,2,0,,,,,0,5,5,35,,,,,,down,0.8339761929628366,1785.34128752639,None,001,59,2019_Oct_24_0901,ACPT_experiment_5_30_19,3.1.0,59.95305538162308,
,,,C,G,g,v,L,U,d,L,u,,,,,5,19,119,13,2,0,2,0,,,,,0,6,6,20,,,,,,up,0.7172019335898767,1787.4596121349844,None,001,59,2019_Oct_24_0901,ACPT_experiment_5_30_19,3.1.0,59.95305538162308,
,,,C,G,g,v,L,G,d,L,i,,,,,5,19,119,13,2,0,2,0,,,,,0,7,7,16,,,,,,up,0.6838552379526845,1789.4444681571674,None,001,59,2019_Oct_24_0901,ACPT_experiment_5_30_19,3.1.0,59.95305538162308,
,,,C,G,g,v,L,U,y,R,u,,,,,5,19,119,13,2,0,2,0,,,,,0,8,8,25,,,,,,down,0.8673304350818398,1791.4126712070326,None,001,59,2019_Oct_24_0901,ACPT_experiment_5_30_19,3.1.0,59.95305538162308,
,,,C,G,g,v,R,G,y,R,y,,,,,5,19,119,13,2,0,2,0,,,,,0,9,9,29,,,,,,down,0.633849230953274,1793.5643180606628,None,001,59,2019_Oct_24_0901,ACPT_experiment_5_30_19,3.1.0,59.95305538162308,
,,,C,G,g,v,R,U,d,R,u,,,,,5,19,119,13,2,0,2,0,,,,,0,10,10,9,,,,,,up,0.8673156439776903,1795.4991692832834,None,001,59,2019_Oct_24_0901,ACPT_experiment_5_30_19,3.1.0,59.95305538162308,
,,,C,G,g,v,R,U,g,L,u,,,,,5,19,119,13,2,0,2,0,,,,,0,11,11,10,,,,,,up,0.6171370942183785,1797.6508191555065,None,001,59,2019_Oct_24_0901,ACPT_experiment_5_30_19,3.1.0,59.95305538162308,
,,,C,G,g,v,L,U,g,R,u,,,,,5,19,119,13,2,0,2,0,,,,,0,12,12,23,,,,,,up,0.7339273521324685,1799.5522853463624,None,001,59,2019_Oct_24_0901,ACPT_experiment_5_30_19,3.1.0,59.95305538162308,
,,,C,G,g,v,L,U,d,R,u,,,,,5,19,119,13,2,0,2,0,,,,,0,13,13,21,,,,,,up,0.6838778773976628,1801.5538160747308,None,001,59,2019_Oct_24_0901,ACPT_experiment_5_30_19,3.1.0,59.95305538162308,
,,,C,G,g,v,R,U,y,R,u,,,,,5,19,119,13,2,0,2,0,,,,,0,14,14,31,,,,,,down,0.8840157063418701,1803.5220260673593,None,001,59,2019_Oct_24_0901,ACPT_experiment_5_30_19,3.1.0,59.95305538162308,
,,,C,G,g,v,R,D,d,R,c ,,,,,5,19,119,13,2,0,2,0,,,,,0,15,15,1,,,,,,up,0.6338969247181012,1805.6903482308933,None,001,59,2019_Oct_24_0901,ACPT_experiment_5_30_19,3.1.0,59.95305538162308,
,,,C,G,g,v,R,D,d,L,c,,,,,5,19,119,13,2,0,2,0,,,,,0,16,16,0,,,,,,up,0.8840489108615657,1807.591819855216,None,001,59,2019_Oct_24_0901,ACPT_experiment_5_30_19,3.1.0,59.95305538162308,
,,,C,G,g,v,L,D,y,R,y,,,,,5,19,119,13,2,0,2,0,,,,,0,17,17,33,,,,,,down,0.6838537286562314,1809.776868342871,None,001,59,2019_Oct_24_0901,ACPT_experiment_5_30_19,3.1.0,59.95305538162308,
,,,C,G,g,v,L,D,g,R,i,,,,,5,19,119,13,2,0,2,0,,,,,0,18,18,15,,,,,,up,0.667192002419597,1811.7617412691732,None,001,59,2019_Oct_24_0901,ACPT_experiment_5_30_19,3.1.0,59.95305538162308,
,,,C,G,g,v,L,G,y,L,y,,,,,5,19,119,13,2,0,2,0,,,,,0,19,19,34,,,,,,down,0.8001978385668735,1813.730317417099,None,001,59,2019_Oct_24_0901,ACPT_experiment_5_30_19,3.1.0,59.95305538162308,
,,,C,G,g,v,L,U,g,L,u,,,,,5,19,119,13,2,0,2,0,,,,,0,20,20,22,,,,,,up,0.600469632655404,1815.814896875817,None,001,59,2019_Oct_24_0901,ACPT_experiment_5_30_19,3.1.0,59.95305538162308,
,,,C,G,g,v,L,D,d,R,c ,,,,,5,19,119,13,2,0,2,0,,,,,0,21,21,13,,,,,,up,0.7172058577602911,1817.6996681359162,None,001,59,2019_Oct_24_0901,ACPT_experiment_5_30_19,3.1.0,59.95305538162308,
,,,C,G,g,v,R,G,g,R,c ,,,,,5,19,119,13,2,0,2,0,,,,,0,22,22,7,,,,,,up,0.61717724150094,1819.7012136553892,None,001,59,2019_Oct_24_0901,ACPT_experiment_5_30_19,3.1.0,59.95305538162308,
,,,C,G,g,v,R,U,g,R,u,,,,,5,19,119,13,2,0,2,0,,,,,0,23,23,11,,,,,,up,0.5337412257053984,1821.5860069512153,None,001,59,2019_Oct_24_0901,ACPT_experiment_5_30_19,3.1.0,59.95305538162308,
,,,C,G,g,v,R,G,d,L,i,,,,,5,19,119,13,2,0,2,0,,,,,0,24,24,4,,,,,,up,0.6504901288999463,1823.404082103307,None,001,59,2019_Oct_24_0901,ACPT_experiment_5_30_19,3.1.0,59.95305538162308,
,,,C,G,g,v,L,D,d,L,c ,,,,,5,19,119,13,2,0,2,0,,,,,0,25,25,12,,,,,,up,0.7005441315236567,1825.3389260813053,None,001,59,2019_Oct_24_0901,ACPT_experiment_5_30_19,3.1.0,59.95305538162308,
,,,C,G,g,v,L,D,y,L,y,,,,,5,19,119,13,2,0,2,0,,,,,0,26,26,32,,,,,,down,0.550442193647541,1827.3070817392647,None,001,59,2019_Oct_24_0901,ACPT_experiment_5_30_19,3.1.0,59.95305538162308,
,,,C,G,g,v,L,G,g,R,c ,,,,,5,19,119,13,2,0,2,0,,,,,0,27,27,19,,,,,,up,1.0508110656778626,1829.1418521239723,None,001,59,2019_Oct_24_0901,ACPT_experiment_5_30_19,3.1.0,59.95305538162308,
,,,C,G,g,v,L,D,g,L,i,,,,,5,19,119,13,2,0,2,0,,,,,0,28,28,14,,,,,,up,0.6171334719065271,1831.4770085866887,None,001,59,2019_Oct_24_0901,ACPT_experiment_5_30_19,3.1.0,59.95305538162308,
,,,C,G,g,v,R,D,g,R,i,,,,,5,19,119,13,2,0,2,0,,,,,0,29,29,3,,,,,,up,0.6004666140624977,1833.3784678347818,None,001,59,2019_Oct_24_0901,ACPT_experiment_5_30_19,3.1.0,59.95305538162308,
,,,C,G,g,v,R,U,d,L,u,,,,,5,19,119,13,2,0,2,0,,,,,0,30,30,8,,,,,,up,0.56710271244674,1835.2632617343263,None,001,59,2019_Oct_24_0901,ACPT_experiment_5_30_19,3.1.0,59.95305538162308,
,,,C,G,g,v,R,D,y,R,y,,,,,5,19,119,13,2,0,2,0,,,,,0,31,31,27,,,,,,down,0.6669882474111546,1837.1315288387293,None,001,59,2019_Oct_24_0901,ACPT_experiment_5_30_19,3.1.0,59.95305538162308,
,,,C,G,g,v,L,G,d,R,i,,,,,5,19,119,13,2,0,2,0,,,,,0,32,32,17,,,,,,up,0.7505836449026901,1839.1162514391142,None,001,59,2019_Oct_24_0901,ACPT_experiment_5_30_19,3.1.0,59.95305538162308,
,,,C,G,g,v,R,D,g,L,i,,,,,5,19,119,13,2,0,2,0,,,,,0,33,33,2,,,,,,up,0.7005266236860734,1841.151159652765,None,001,59,2019_Oct_24_0901,ACPT_experiment_5_30_19,3.1.0,59.95305538162308,
,,,C,G,g,v,L,G,g,L,c ,,,,,5,19,119,13,2,0,2,0,,,,,0,34,34,18,,,,,,up,1.200946811792619,1843.1360202028375,None,001,59,2019_Oct_24_0901,ACPT_experiment_5_30_19,3.1.0,59.95305538162308,
,,,C,G,g,v,R,G,g,L,c ,,,,,5,19,119,13,2,0,2,0,,,,,0,35,35,6,,,,,,up,1.250985117734217,1845.6212816220225,None,001,59,2019_Oct_24_0901,ACPT_experiment_5_30_19,3.1.0,59.95305538162308,
,,,C,G,g,v,R,U,g,L,u,,,,,5,19,119,13,2,0,2,0,,,,,1,0,36,10,,,,,,up,0.7839412074731626,1848.1565713857938,None,001,59,2019_Oct_24_0901,ACPT_experiment_5_30_19,3.1.0,59.95305538162308,
,,,C,G,g,v,L,D,g,R,i,,,,,5,19,119,13,2,0,2,0,,,,,1,1,37,15,,,,,,up,0.650502203270662,1850.224841991764,None,001,59,2019_Oct_24_0901,ACPT_experiment_5_30_19,3.1.0,59.95305538162308,
,,,C,G,g,v,L,U,y,L,u,,,,,5,19,119,13,2,0,2,0,,,,,1,2,38,24,,,,,,down,0.6671781168929556,1852.1596732916726,None,001,59,2019_Oct_24_0901,ACPT_experiment_5_30_19,3.1.0,59.95305538162308,
,,,C,G,g,v,L,D,y,L,y,,,,,5,19,119,13,2,0,2,0,,,,,1,3,39,32,,,,,,down,0.6004629917515558,1854.1111814107815,None,001,59,2019_Oct_24_0901,ACPT_experiment_5_30_19,3.1.0,59.95305538162308,
,,,C,G,g,v,L,D,d,R,c ,,,,,5,19,119,13,2,0,2,0,,,,,1,4,40,13,,,,,,up,0.8339547609543843,1855.9959931200235,None,001,59,2019_Oct_24_0901,ACPT_experiment_5_30_19,3.1.0,59.95305538162308,
,,,C,G,g,v,R,G,d,L,i,,,,,5,19,119,13,2,0,2,0,,,,,1,5,41,4,,,,,,up,0.6171645634121887,1858.1142815055052,None,001,59,2019_Oct_24_0901,ACPT_experiment_5_30_19,3.1.0,59.95305538162308,
,,,C,G,g,v,L,U,d,R,u,,,,,5,19,119,13,2,0,2,0,,,,,1,6,42,21,,,,,,up,0.6669085565631576,1860.0160245013133,None,001,59,2019_Oct_24_0901,ACPT_experiment_5_30_19,3.1.0,59.95305538162308,
,,,C,G,g,v,L,G,g,L,c ,,,,,5,19,119,13,2,0,2,0,,,,,1,7,43,18,,,,,,up,0.48370774951217754,1861.9672618526554,None,001,59,2019_Oct_24_0901,ACPT_experiment_5_30_19,3.1.0,59.95305538162308,
,,,C,G,g,v,R,G,g,R,c ,,,,,5,19,119,13,2,0,2,0,,,,,1,8,44,7,,,,,,up,0.6505043162856055,1863.7186176535754,None,001,59,2019_Oct_24_0901,ACPT_experiment_5_30_19,3.1.0,59.95305538162308,
,,,C,G,g,v,R,D,d,R,c ,,,,,5,19,119,13,2,0,2,0,,,,,1,9,45,1,,,,,,up,0.834009397482987,1865.6534507646395,None,001,59,2019_Oct_24_0901,ACPT_experiment_5_30_19,3.1.0,59.95305538162308,
,,,C,G,g,v,R,D,g,R,i,,,,,5,19,119,13,2,0,2,0,,,,,1,10,46,3,,,,,,up,0.6505384263837186,1867.7550523695652,None,001,59,2019_Oct_24_0901,ACPT_experiment_5_30_19,3.1.0,59.95305538162308,
,,,C,G,g,v,L,U,g,L,u,,,,,5,19,119,13,2,0,2,0,,,,,1,11,47,22,,,,,,up,0.5504243839504852,1869.6899051014823,None,001,59,2019_Oct_24_0901,ACPT_experiment_5_30_19,3.1.0,59.95305538162308,
,,,C,G,g,v,R,U,y,R,u,,,,,5,19,119,13,2,0,2,0,,,,,1,12,48,31,,,,,,down,0.8006270824516832,1871.5246588839298,None,001,59,2019_Oct_24_0901,ACPT_experiment_5_30_19,3.1.0,59.95305538162308,
,,,C,G,g,v,R,D,y,R,y,,,,,5,19,119,13,2,0,2,0,,,,,1,13,49,27,,,,,,down,0.8006219508438335,1873.6096108369895,None,001,59,2019_Oct_24_0901,ACPT_experiment_5_30_19,3.1.0,59.95305538162308,
,,,C,G,g,v,L,D,g,L,i,,,,,5,19,119,13,2,0,2,0,,,,,1,14,50,14,,,,,,up,0.6671850596562763,1875.69455403613,None,001,59,2019_Oct_24_0901,ACPT_experiment_5_30_19,3.1.0,59.95305538162308,
,,,C,G,g,v,R,U,d,L,u,,,,,5,19,119,13,2,0,2,0,,,,,1,15,51,8,,,,,,up,0.5837852669733365,1877.6460651738319,None,001,59,2019_Oct_24_0901,ACPT_experiment_5_30_19,3.1.0,59.95305538162308,
,,,C,G,g,v,R,D,g,L,i,,,,,5,19,119,13,2,0,2,0,,,,,1,16,52,2,,,,,,up,0.6671657406627673,1879.5141910080954,None,001,59,2019_Oct_24_0901,ACPT_experiment_5_30_19,3.1.0,59.95305538162308,
,,,C,G,g,v,L,U,g,R,u,,,,,5,19,119,13,2,0,2,0,,,,,1,17,53,23,,,,,,up,0.7172206488648953,1881.4656873546926,None,001,59,2019_Oct_24_0901,ACPT_experiment_5_30_19,3.1.0,59.95305538162308,
,,,C,G,g,v,R,G,g,L,c ,,,,,5,19,119,13,2,0,2,0,,,,,1,18,54,6,,,,,,up,0.6171932400425248,1883.4505291894895,None,001,59,2019_Oct_24_0901,ACPT_experiment_5_30_19,3.1.0,59.95305538162308,
,,,C,G,g,v,R,G,y,L,y,,,,,5,19,119,13,2,0,2,0,,,,,1,19,55,28,,,,,,down,0.713881481597582,1885.3720415527398,None,001,59,2019_Oct_24_0901,ACPT_experiment_5_30_19,3.1.0,59.95305538162308,
,,,C,G,g,v,L,U,d,L,u,,,,,5,19,119,13,2,0,2,0,,,,,1,20,56,20,,,,,,up,0.7505579868638961,1887.370282618762,None,001,59,2019_Oct_24_0901,ACPT_experiment_5_30_19,3.1.0,59.95305538162308,
,,,C,G,g,v,L,U,y,R,u,,,,,5,19,119,13,2,0,2,0,,,,,1,21,57,25,,,,,,down,0.7504939926984662,1889.4051666836715,None,001,59,2019_Oct_24_0901,ACPT_experiment_5_30_19,3.1.0,59.95305538162308,
,,,C,G,g,v,R,U,g,R,u,,,,,5,19,119,13,2,0,2,0,,,,,1,22,58,11,,,,,,up,0.6338133097001446,1891.440086367975,None,001,59,2019_Oct_24_0901,ACPT_experiment_5_30_19,3.1.0,59.95305538162308,
,,,C,G,g,v,L,G,y,L,y,,,,,5,19,119,13,2,0,2,0,,,,,1,23,59,34,,,,,,down,0.6838618788565327,1893.3582257557198,None,001,59,2019_Oct_24_0901,ACPT_experiment_5_30_19,3.1.0,59.95305538162308,
,,,C,G,g,v,R,G,d,R,i,,,,,5,19,119,13,2,0,2,0,,,,,1,24,60,5,,,,,,up,0.7170748508360703,1895.3264438985486,None,001,59,2019_Oct_24_0901,ACPT_experiment_5_30_19,3.1.0,59.95305538162308,
,,,C,G,g,v,R,U,y,L,u,,,,,5,19,119,13,2,0,2,0,,,,,1,25,61,30,,,,,,down,0.6338471179378757,1897.3279393093824,None,001,59,2019_Oct_24_0901,ACPT_experiment_5_30_19,3.1.0,59.95305538162308,
,,,C,G,g,v,L,D,d,L,c ,,,,,5,19,119,13,2,0,2,0,,,,,1,26,62,12,,,,,,up,0.5504231765130498,1899.2461143165212,None,001,59,2019_Oct_24_0901,ACPT_experiment_5_30_19,3.1.0,59.95305538162308,
,,,C,G,g,v,R,G,y,R,y,,,,,5,19,119,13,2,0,2,0,,,,,1,27,63,29,,,,,,down,0.6503959488072724,1901.0808575338945,None,001,59,2019_Oct_24_0901,ACPT_experiment_5_30_19,3.1.0,59.95305538162308,
,,,C,G,g,v,L,G,d,R,i,,,,,5,19,119,13,2,0,2,0,,,,,1,28,64,17,,,,,,up,0.6672067935242012,1903.0156997007368,None,001,59,2019_Oct_24_0901,ACPT_experiment_5_30_19,3.1.0,59.95305538162308,
,,,C,G,g,v,R,D,y,L,y,,,,,5,19,119,13,2,0,2,0,,,,,1,29,65,26,,,,,,down,0.5670981845582901,1904.9672102347197,None,001,59,2019_Oct_24_0901,ACPT_experiment_5_30_19,3.1.0,59.95305538162308,
,,,C,G,g,v,L,G,d,L,i,,,,,5,19,119,13,2,0,2,0,,,,,1,30,66,16,,,,,,up,0.6338640220574234,1906.8186206117964,None,001,59,2019_Oct_24_0901,ACPT_experiment_5_30_19,3.1.0,59.95305538162308,
,,,C,G,g,v,R,U,d,R,u,,,,,5,19,119,13,2,0,2,0,,,,,1,31,67,9,,,,,,up,1.184246145709949,1908.7367965245132,None,001,59,2019_Oct_24_0901,ACPT_experiment_5_30_19,3.1.0,59.95305538162308,
,,,C,G,g,v,L,G,y,R,y,,,,,5,19,119,13,2,0,2,0,,,,,1,32,68,35,,,,,,down,0.7005755248878813,1911.2053687482683,None,001,59,2019_Oct_24_0901,ACPT_experiment_5_30_19,3.1.0,59.95305538162308,
,,,C,G,g,v,R,D,d,L,c,,,,,5,19,119,13,2,0,2,0,,,,,1,33,69,0,,,,,,up,0.7172200451459503,1913.190239259696,None,001,59,2019_Oct_24_0901,ACPT_experiment_5_30_19,3.1.0,59.95305538162308,
,,,C,G,g,v,L,D,y,R,y,,,,,5,19,119,13,2,0,2,0,,,,,1,34,70,33,,,,,,down,0.683889348050343,1915.1917597248491,None,001,59,2019_Oct_24_0901,ACPT_experiment_5_30_19,3.1.0,59.95305538162308,
,,,C,G,g,v,L,G,g,R,c ,,,,,5,19,119,13,2,0,2,0,,,,,1,35,71,19,,,,,,up,0.7172209507239131,1917.1599739435076,None,001,59,2019_Oct_24_0901,ACPT_experiment_5_30_19,3.1.0,59.95305538162308,
,,,C,G,g,v,,,,,,,,,,5,19,119,13,3,0,3,0,0,0,0,0,,,,,,,,,,,,,,001,59,2019_Oct_24_0901,ACPT_experiment_5_30_19,3.1.0,59.95305538162308,
,,,C,G,g,v,R,G,y,L,y,,,,,5,19,119,13,3,0,3,0,,,,,0,0,0,28,,,,,,down,2.3349533114264887,1944.3812902189745,None,001,59,2019_Oct_24_0901,ACPT_experiment_5_30_19,3.1.0,59.95305538162308,
,,,C,G,g,v,L,U,d,R,u,,,,,5,19,119,13,3,0,3,0,,,,,0,1,1,21,,,,,,up,0.9841158632480074,1948.00048931388,None,001,59,2019_Oct_24_0901,ACPT_experiment_5_30_19,3.1.0,59.95305538162308,
,,,C,G,g,v,R,U,g,R,u,,,,,5,19,119,13,3,0,3,0,,,,,0,2,2,11,,,,,,up,0.7505706649535568,1950.2689427258254,None,001,59,2019_Oct_24_0901,ACPT_experiment_5_30_19,3.1.0,59.95305538162308,
,,,C,G,g,v,L,U,g,R,u,,,,,5,19,119,13,3,0,3,0,,,,,0,3,3,23,,,,,,up,0.7839270200875035,1952.303856071084,None,001,59,2019_Oct_24_0901,ACPT_experiment_5_30_19,3.1.0,59.95305538162308,
,,,C,G,g,v,R,D,d,L,c,,,,,5,19,119,13,3,0,3,0,,,,,0,4,4,0,,,,,,up,0.7505764002798969,1954.372113697106,None,001,59,2019_Oct_24_0901,ACPT_experiment_5_30_19,3.1.0,59.95305538162308,
,,,C,G,g,v,L,U,y,R,u,,,,,5,19,119,13,3,0,3,0,,,,,0,5,5,25,,,,,,down,0.7338986755021324,1956.4070231181943,None,001,59,2019_Oct_24_0901,ACPT_experiment_5_30_19,3.1.0,59.95305538162308,
,,,C,G,g,v,L,G,y,R,y,,,,,5,19,119,13,3,0,3,0,,,,,0,6,6,35,,,,,,down,0.46702066709667633,1958.4252723223424,None,001,59,2019_Oct_24_0901,ACPT_experiment_5_30_19,3.1.0,59.95305538162308,
,,,C,G,g,v,R,G,g,L,c ,,,,,5,19,119,13,3,0,3,0,,,,,0,7,7,6,,,,,,up,0.7172224600203663,1960.1766082005504,None,001,59,2019_Oct_24_0901,ACPT_experiment_5_30_19,3.1.0,59.95305538162308,
,,,C,G,g,v,R,G,d,L,i,,,,,5,19,119,13,3,0,3,0,,,,,0,8,8,4,,,,,,up,0.9173823246906068,1962.1781531163044,None,001,59,2019_Oct_24_0901,ACPT_experiment_5_30_19,3.1.0,59.95305538162308,
,,,C,G,g,v,L,U,d,L,u,,,,,5,19,119,13,3,0,3,0,,,,,0,9,9,20,,,,,,up,0.50039724680164,1964.3798385777357,None,001,59,2019_Oct_24_0901,ACPT_experiment_5_30_19,3.1.0,59.95305538162308,
,,,C,G,g,v,L,U,y,L,u,,,,,5,19,119,13,3,0,3,0,,,,,0,10,10,24,,,,,,down,0.6004306928093683,1966.1646074833327,None,001,59,2019_Oct_24_0901,ACPT_experiment_5_30_19,3.1.0,59.95305538162308,
,,,C,G,g,v,R,U,d,L,u,,,,,5,19,119,13,3,0,3,0,,,,,0,11,11,8,,,,,,up,0.8504193730868792,1968.0662864849758,None,001,59,2019_Oct_24_0901,ACPT_experiment_5_30_19,3.1.0,59.95305538162308,
,,,C,G,g,v,R,G,y,R,y,,,,,5,19,119,13,3,0,3,0,,,,,0,12,12,29,,,,,,down,0.7839342647102967,1970.2177111701815,None,001,59,2019_Oct_24_0901,ACPT_experiment_5_30_19,3.1.0,59.95305538162308,
,,,C,G,g,v,L,U,g,L,u,,,,,5,19,119,13,3,0,3,0,,,,,0,13,13,22,,,,,,up,0.8172930347177498,1972.3026640288192,None,001,59,2019_Oct_24_0901,ACPT_experiment_5_30_19,3.1.0,59.95305538162308,
,,,C,G,g,v,R,G,g,R,c ,,,,,5,19,119,13,3,0,3,0,,,,,0,14,14,7,,,,,,up,0.7339261446954879,1974.3876063223822,None,001,59,2019_Oct_24_0901,ACPT_experiment_5_30_19,3.1.0,59.95305538162308,
,,,C,G,g,v,R,D,y,L,y,,,,,5,19,119,13,3,0,3,0,,,,,0,15,15,26,,,,,,down,1.5678896595691185,1976.4225069895513,None,001,59,2019_Oct_24_0901,ACPT_experiment_5_30_19,3.1.0,59.95305538162308,
,,,C,G,g,v,R,U,y,L,u,,,,,5,19,119,13,3,0,3,0,,,,,0,16,16,30,,,,,,down,0.7172076689162168,1979.2914010556622,None,001,59,2019_Oct_24_0901,ACPT_experiment_5_30_19,3.1.0,59.95305538162308,
,,,C,G,g,v,L,D,g,R,i,,,,,5,19,119,13,3,0,3,0,,,,,0,17,17,15,,,,,,up,0.7005697895615413,1981.2929459714162,None,001,59,2019_Oct_24_0901,ACPT_experiment_5_30_19,3.1.0,59.95305538162308,
,,,C,G,g,v,L,G,g,L,c ,,,,,5,19,119,13,3,0,3,0,,,,,0,18,18,18,,,,,,up,0.6338314212562182,1983.2778210107333,None,001,59,2019_Oct_24_0901,ACPT_experiment_5_30_19,3.1.0,59.95305538162308,
,,,C,G,g,v,L,G,d,R,i,,,,,5,19,119,13,3,0,3,0,,,,,0,19,19,17,,,,,,up,0.767309667164227,1985.1959688505378,None,001,59,2019_Oct_24_0901,ACPT_experiment_5_30_19,3.1.0,59.95305538162308,
,,,C,G,g,v,R,G,d,R,i,,,,,5,19,119,13,3,0,3,0,,,,,0,20,20,5,,,,,,up,0.6004608787366124,1987.2475587131378,None,001,59,2019_Oct_24_0901,ACPT_experiment_5_30_19,3.1.0,59.95305538162308,
,,,C,G,g,v,R,U,g,L,u,,,,,5,19,119,13,3,0,3,0,,,,,0,21,21,10,,,,,,up,0.6004681233589508,1989.1323544238383,None,001,59,2019_Oct_24_0901,ACPT_experiment_5_30_19,3.1.0,59.95305538162308,
,,,C,G,g,v,L,D,d,R,c ,,,,,5,19,119,13,3,0,3,0,,,,,0,22,22,13,,,,,,up,0.5003730980602086,1991.0338245388646,None,001,59,2019_Oct_24_0901,ACPT_experiment_5_30_19,3.1.0,59.95305538162308,
,,,C,G,g,v,L,G,y,L,y,,,,,5,19,119,13,3,0,3,0,,,,,0,23,23,34,,,,,,down,0.7840163704322549,1992.8352156271337,None,001,59,2019_Oct_24_0901,ACPT_experiment_5_30_19,3.1.0,59.95305538162308,
,,,C,G,g,v,R,D,g,L,i,,,,,5,19,119,13,3,0,3,0,,,,,0,24,24,2,,,,,,up,0.6505136739233421,1994.90348381823,None,001,59,2019_Oct_24_0901,ACPT_experiment_5_30_19,3.1.0,59.95305538162308,
,,,C,G,g,v,L,D,g,L,i,,,,,5,19,119,13,3,0,3,0,,,,,0,25,25,14,,,,,,up,0.517100327758726,1996.8382951954266,None,001,59,2019_Oct_24_0901,ACPT_experiment_5_30_19,3.1.0,59.95305538162308,
,,,C,G,g,v,R,D,d,R,c ,,,,,5,19,119,13,3,0,3,0,,,,,0,26,26,1,,,,,,up,0.5838015673739392,1998.639690811585,None,001,59,2019_Oct_24_0901,ACPT_experiment_5_30_19,3.1.0,59.95305538162308,
,,,C,G,g,v,R,D,y,R,y,,,,,5,19,119,13,3,0,3,0,,,,,0,27,27,27,,,,,,down,0.7505767021389147,2000.5078244941894,None,001,59,2019_Oct_24_0901,ACPT_experiment_5_30_19,3.1.0,59.95305538162308,
,,,C,G,g,v,L,G,g,R,c ,,,,,5,19,119,13,3,0,3,0,,,,,0,28,28,19,,,,,,up,0.6505088441745102,2002.5427336134187,None,001,59,2019_Oct_24_0901,ACPT_experiment_5_30_19,3.1.0,59.95305538162308,
,,,C,G,g,v,R,D,g,R,i,,,,,5,19,119,13,3,0,3,0,,,,,0,29,29,3,,,,,,up,0.9006967515715587,2004.4775631021714,None,001,59,2019_Oct_24_0901,ACPT_experiment_5_30_19,3.1.0,59.95305538162308,
,,,C,G,g,v,L,D,y,R,y,,,,,5,19,119,13,3,0,3,0,,,,,0,30,30,33,,,,,,down,0.8506557288965269,2006.6625838187736,None,001,59,2019_Oct_24_0901,ACPT_experiment_5_30_19,3.1.0,59.95305538162308,
,,,C,G,g,v,L,D,d,L,c ,,,,,5,19,119,13,3,0,3,0,,,,,0,31,31,12,,,,,,up,0.5671292760625875,2008.780866770788,None,001,59,2019_Oct_24_0901,ACPT_experiment_5_30_19,3.1.0,59.95305538162308,
,,,C,G,g,v,L,G,d,L,i,,,,,5,19,119,13,3,0,3,0,,,,,0,32,32,16,,,,,,up,0.5837635331058664,2010.632346575497,None,001,59,2019_Oct_24_0901,ACPT_experiment_5_30_19,3.1.0,59.95305538162308,
,,,C,G,g,v,L,D,y,L,y,,,,,5,19,119,13,3,0,3,0,,,,,0,33,33,32,,,,,,down,0.6838582565455908,2012.5004376959444,None,001,59,2019_Oct_24_0901,ACPT_experiment_5_30_19,3.1.0,59.95305538162308,
,,,C,G,g,v,R,U,y,R,u,,,,,5,19,119,13,3,0,3,0,,,,,0,34,34,31,,,,,,down,1.2176112547626872,2014.4686268602834,None,001,59,2019_Oct_24_0901,ACPT_experiment_5_30_19,3.1.0,59.95305538162308,
,,,C,G,g,v,R,U,d,R,u,,,,,5,19,119,13,3,0,3,0,,,,,0,35,35,9,,,,,,up,0.8339988324082697,2016.9705379313343,None,001,59,2019_Oct_24_0901,ACPT_experiment_5_30_19,3.1.0,59.95305538162308,
,,,C,G,g,v,L,G,d,R,i,,,,,5,19,119,13,3,0,3,0,,,,,1,0,36,17,,,,,,up,0.5837807390844318,2019.088871897566,None,001,59,2019_Oct_24_0901,ACPT_experiment_5_30_19,3.1.0,59.95305538162308,
,,,C,G,g,v,L,G,y,R,y,,,,,5,19,119,13,3,0,3,0,,,,,1,1,37,35,,,,,,down,0.9007163724245402,2020.940284991376,None,001,59,2019_Oct_24_0901,ACPT_experiment_5_30_19,3.1.0,59.95305538162308,
,,,C,G,g,v,L,D,d,R,c ,,,,,5,19,119,13,3,0,3,0,,,,,1,2,38,13,,,,,,up,0.7339185982141316,2023.1253038968223,None,001,59,2019_Oct_24_0901,ACPT_experiment_5_30_19,3.1.0,59.95305538162308,
,,,C,G,g,v,L,U,g,L,u,,,,,5,19,119,13,3,0,3,0,,,,,1,3,39,22,,,,,,up,0.6171410183887929,2025.1435552139849,None,001,59,2019_Oct_24_0901,ACPT_experiment_5_30_19,3.1.0,59.95305538162308,
,,,C,G,g,v,L,U,y,L,u,,,,,5,19,119,13,3,0,3,0,,,,,1,4,40,24,,,,,,down,1.0007637039580004,2027.0450328754935,None,001,59,2019_Oct_24_0901,ACPT_experiment_5_30_19,3.1.0,59.95305538162308,
,,,C,G,g,v,R,G,d,R,i,,,,,5,19,119,13,3,0,3,0,,,,,1,5,41,5,,,,,,up,0.7672498990277745,2029.3468154752384,None,001,59,2019_Oct_24_0901,ACPT_experiment_5_30_19,3.1.0,59.95305538162308,
,,,C,G,g,v,R,D,g,R,i,,,,,5,19,119,13,3,0,3,0,,,,,1,6,42,3,,,,,,up,1.4177545171733072,2031.3984017155265,None,001,59,2019_Oct_24_0901,ACPT_experiment_5_30_19,3.1.0,59.95305538162308,
,,,C,G,g,v,L,D,g,R,i,,,,,5,19,119,13,3,0,3,0,,,,,1,7,43,15,,,,,,up,0.6004623880330655,2034.1004898572266,None,001,59,2019_Oct_24_0901,ACPT_experiment_5_30_19,3.1.0,59.95305538162308,
,,,C,G,g,v,R,D,y,L,y,,,,,5,19,119,13,3,0,3,0,,,,,1,8,44,26,,,,,,down,0.9006967515720135,2035.9852822474752,None,001,59,2019_Oct_24_0901,ACPT_experiment_5_30_19,3.1.0,59.95305538162308,
,,,C,G,g,v,R,G,y,R,y,,,,,5,19,119,13,3,0,3,0,,,,,1,9,45,29,,,,,,down,0.9007227114693706,2038.1703077938253,None,001,59,2019_Oct_24_0901,ACPT_experiment_5_30_19,3.1.0,59.95305538162308,
,,,C,G,g,v,R,G,y,L,y,,,,,5,19,119,13,3,0,3,0,,,,,1,10,46,28,,,,,,down,0.8840181212158313,2040.3553276048494,None,001,59,2019_Oct_24_0901,ACPT_experiment_5_30_19,3.1.0,59.95305538162308,
,,,C,G,g,v,R,U,y,L,u,,,,,5,19,119,13,3,0,3,0,,,,,1,11,47,30,,,,,,down,1.1675548372645608,2042.5236856896365,None,001,59,2019_Oct_24_0901,ACPT_experiment_5_30_19,3.1.0,59.95305538162308,
,,,C,G,g,v,R,D,g,L,i,,,,,5,19,119,13,3,0,3,0,,,,,1,12,48,2,,,,,,up,0.7839357740067499,2044.975568114243,None,001,59,2019_Oct_24_0901,ACPT_experiment_5_30_19,3.1.0,59.95305538162308,
,,,C,G,g,v,R,D,d,R,c ,,,,,5,19,119,13,3,0,3,0,,,,,1,13,49,1,,,,,,up,0.6671799280488813,2047.027159486139,None,001,59,2019_Oct_24_0901,ACPT_experiment_5_30_19,3.1.0,59.95305538162308,
,,,C,G,g,v,L,D,y,L,y,,,,,5,19,119,13,3,0,3,0,,,,,1,14,50,32,,,,,,down,0.9838239653322489,2048.9956203238225,None,001,59,2019_Oct_24_0901,ACPT_experiment_5_30_19,3.1.0,59.95305538162308,
,,,C,G,g,v,L,G,g,L,c ,,,,,5,19,119,13,3,0,3,0,,,,,1,15,51,18,,,,,,up,0.9006970534305765,2051.2637700653404,None,001,59,2019_Oct_24_0901,ACPT_experiment_5_30_19,3.1.0,59.95305538162308,
,,,C,G,g,v,L,U,d,L,u,,,,,5,19,119,13,3,0,3,0,,,,,1,16,52,20,,,,,,up,0.5004017746909994,2053.448797422846,None,001,59,2019_Oct_24_0901,ACPT_experiment_5_30_19,3.1.0,59.95305538162308,
,,,C,G,g,v,R,U,y,R,u,,,,,5,19,119,13,3,0,3,0,,,,,1,17,53,31,,,,,,down,0.8840181212158313,2055.23350988076,None,001,59,2019_Oct_24_0901,ACPT_experiment_5_30_19,3.1.0,59.95305538162308,
,,,C,G,g,v,R,U,g,L,u,,,,,5,19,119,13,3,0,3,0,,,,,1,18,54,10,,,,,,up,0.5004041895649607,2057.401858607909,None,001,59,2019_Oct_24_0901,ACPT_experiment_5_30_19,3.1.0,59.95305538162308,
,,,C,G,g,v,L,U,g,R,u,,,,,5,19,119,13,3,0,3,0,,,,,1,19,55,23,,,,,,up,0.617142527685246,2059.1698885112964,None,001,59,2019_Oct_24_0901,ACPT_experiment_5_30_19,3.1.0,59.95305538162308,
,,,C,G,g,v,L,D,g,L,i,,,,,5,19,119,13,3,0,3,0,,,,,1,20,56,14,,,,,,up,0.5337662800252474,2061.0713393073293,None,001,59,2019_Oct_24_0901,ACPT_experiment_5_30_19,3.1.0,59.95305538162308,
,,,C,G,g,v,R,U,d,R,u,,,,,5,19,119,13,3,0,3,0,,,,,1,21,57,9,,,,,,up,0.8840129896079816,2062.8894334765555,None,001,59,2019_Oct_24_0901,ACPT_experiment_5_30_19,3.1.0,59.95305538162308,
,,,C,G,g,v,R,D,y,R,y,,,,,5,19,119,13,3,0,3,0,,,,,1,22,58,27,,,,,,down,0.8339737780888754,2065.057782807424,None,001,59,2019_Oct_24_0901,ACPT_experiment_5_30_19,3.1.0,59.95305538162308,
,,,C,G,g,v,R,G,g,L,c ,,,,,5,19,119,13,3,0,3,0,,,,,1,23,59,6,,,,,,up,0.6171660727081871,2067.1760865877286,None,001,59,2019_Oct_24_0901,ACPT_experiment_5_30_19,3.1.0,59.95305538162308,
,,,C,G,g,v,L,D,d,L,c ,,,,,5,19,119,13,3,0,3,0,,,,,1,24,60,12,,,,,,up,0.5504111021423341,2069.0775594194884,None,001,59,2019_Oct_24_0901,ACPT_experiment_5_30_19,3.1.0,59.95305538162308,
,,,C,G,g,v,L,G,g,R,c ,,,,,5,19,119,13,3,0,3,0,,,,,1,25,61,19,,,,,,up,0.5671286723440971,2070.9123110889213,None,001,59,2019_Oct_24_0901,ACPT_experiment_5_30_19,3.1.0,59.95305538162308,
,,,C,G,g,v,R,G,d,L,i,,,,,5,19,119,13,3,0,3,0,,,,,1,26,62,4,,,,,,up,0.5003857761494146,2072.7637425961466,None,001,59,2019_Oct_24_0901,ACPT_experiment_5_30_19,3.1.0,59.95305538162308,
,,,C,G,g,v,R,U,d,L,u,,,,,5,19,119,13,3,0,3,0,,,,,1,27,63,8,,,,,,up,0.5504104984238438,2074.56515270155,None,001,59,2019_Oct_24_0901,ACPT_experiment_5_30_19,3.1.0,59.95305538162308,
,,,C,G,g,v,R,D,d,L,c,,,,,5,19,119,13,3,0,3,0,,,,,1,28,64,0,,,,,,up,0.533742131283816,2076.399893504049,None,001,59,2019_Oct_24_0901,ACPT_experiment_5_30_19,3.1.0,59.95305538162308,
,,,C,G,g,v,L,G,y,L,y,,,,,5,19,119,13,3,0,3,0,,,,,1,29,65,34,,,,,,down,0.7172245730353097,2078.2179632226735,None,001,59,2019_Oct_24_0901,ACPT_experiment_5_30_19,3.1.0,59.95305538162308,
,,,C,G,g,v,L,D,y,R,y,,,,,5,19,119,13,3,0,3,0,,,,,1,30,66,33,,,,,,down,0.8506575400519978,2080.219513571895,None,001,59,2019_Oct_24_0901,ACPT_experiment_5_30_19,3.1.0,59.95305538162308,
,,,C,G,g,v,L,U,y,R,u,,,,,5,19,119,13,3,0,3,0,,,,,1,31,67,25,,,,,,down,0.8173023923554865,2082.3711863854223,None,001,59,2019_Oct_24_0901,ACPT_experiment_5_30_19,3.1.0,59.95305538162308,
,,,C,G,g,v,L,U,d,R,u,,,,,5,19,119,13,3,0,3,0,,,,,1,32,68,21,,,,,,up,0.6004684252184234,2084.489480204371,None,001,59,2019_Oct_24_0901,ACPT_experiment_5_30_19,3.1.0,59.95305538162308,
,,,C,G,g,v,R,G,g,R,c ,,,,,5,19,119,13,3,0,3,0,,,,,1,33,69,7,,,,,,up,0.8506499935701868,2086.3742816503973,None,001,59,2019_Oct_24_0901,ACPT_experiment_5_30_19,3.1.0,59.95305538162308,
,,,C,G,g,v,R,U,g,R,u,,,,,5,19,119,13,3,0,3,0,,,,,1,34,70,11,,,,,,up,0.7505770039983872,2088.5092634573393,None,001,59,2019_Oct_24_0901,ACPT_experiment_5_30_19,3.1.0,59.95305538162308,
,,,C,G,g,v,L,G,d,L,i,,,,,5,19,119,13,3,0,3,0,,,,,1,35,71,16,,,,,,up,0.5504264969654287,2090.5441743877236,None,001,59,2019_Oct_24_0901,ACPT_experiment_5_30_19,3.1.0,59.95305538162308,
,,,C,G,g,v,,,,,,,,,,5,19,119,13,4,0,4,0,0,0,0,0,,,,,,,,,,,,,,001,59,2019_Oct_24_0901,ACPT_experiment_5_30_19,3.1.0,59.95305538162308,
,,,C,G,g,v,L,G,y,L,y,,,,,5,19,119,13,4,0,4,0,,,,,0,0,0,34,,,,,,down,0.9640859912547057,2108.7782762145152,None,001,59,2019_Oct_24_0901,ACPT_experiment_5_30_19,3.1.0,59.95305538162308,
,,,C,G,g,v,L,U,g,R,u,,,,,5,19,119,13,4,0,4,0,,,,,0,1,1,23,,,,,,up,0.5671081459140623,2111.0266903968304,None,001,59,2019_Oct_24_0901,ACPT_experiment_5_30_19,3.1.0,59.95305538162308,
,,,C,G,g,v,L,D,d,R,c ,,,,,5,19,119,13,4,0,4,0,,,,,0,2,2,13,,,,,,up,0.5337493759061545,2112.8781237152116,None,001,59,2019_Oct_24_0901,ACPT_experiment_5_30_19,3.1.0,59.95305538162308,
,,,C,G,g,v,L,U,d,R,u,,,,,5,19,119,13,4,0,4,0,,,,,0,3,3,21,,,,,,up,0.5003830594164356,2114.679519935088,None,001,59,2019_Oct_24_0901,ACPT_experiment_5_30_19,3.1.0,59.95305538162308,
,,,C,G,g,v,R,U,y,L,u,,,,,5,19,119,13,4,0,4,0,,,,,0,4,4,30,,,,,,down,0.8006207434073076,2116.464229374409,None,001,59,2019_Oct_24_0901,ACPT_experiment_5_30_19,3.1.0,59.95305538162308,
,,,C,G,g,v,L,D,d,L,c ,,,,,5,19,119,13,4,0,4,0,,,,,0,5,5,12,,,,,,up,0.5004078118763573,2118.549157178727,None,001,59,2019_Oct_24_0901,ACPT_experiment_5_30_19,3.1.0,59.95305538162308,
,,,C,G,g,v,R,D,y,L,y,,,,,5,19,119,13,4,0,4,0,,,,,0,6,6,26,,,,,,down,1.1675877399252386,2120.333873258951,None,001,59,2019_Oct_24_0901,ACPT_experiment_5_30_19,3.1.0,59.95305538162308,
,,,C,G,g,v,L,D,y,L,y,,,,,5,19,119,13,4,0,4,0,,,,,0,7,7,32,,,,,,down,0.9173717596163442,2122.769114483751,None,001,59,2019_Oct_24_0901,ACPT_experiment_5_30_19,3.1.0,59.95305538162308,
,,,C,G,g,v,L,G,d,R,i,,,,,5,19,119,13,4,0,4,0,,,,,0,8,8,17,,,,,,up,0.6671781168929556,2124.970817754879,None,001,59,2019_Oct_24_0901,ACPT_experiment_5_30_19,3.1.0,59.95305538162308,
,,,C,G,g,v,R,D,g,R,i,,,,,5,19,119,13,4,0,4,0,,,,,0,9,9,3,,,,,,up,0.5504325341507865,2126.9223436836855,None,001,59,2019_Oct_24_0901,ACPT_experiment_5_30_19,3.1.0,59.95305538162308,
,,,C,G,g,v,R,G,y,R,y,,,,,5,19,119,13,4,0,4,0,,,,,0,10,10,29,,,,,,down,0.6671760038784669,2128.7570805620135,None,001,59,2019_Oct_24_0901,ACPT_experiment_5_30_19,3.1.0,59.95305538162308,
,,,C,G,g,v,R,U,d,L,u,,,,,5,19,119,13,4,0,4,0,,,,,0,11,11,8,,,,,,up,0.5003740036381714,2130.70859381273,None,001,59,2019_Oct_24_0901,ACPT_experiment_5_30_19,3.1.0,59.95305538162308,
,,,C,G,g,v,R,U,g,L,u,,,,,5,19,119,13,4,0,4,0,,,,,0,12,12,10,,,,,,up,0.8172933365772224,2132.49331170411,None,001,59,2019_Oct_24_0901,ACPT_experiment_5_30_19,3.1.0,59.95305538162308,
,,,C,G,g,v,L,D,y,R,y,,,,,5,19,119,13,4,0,4,0,,,,,0,13,13,33,,,,,,down,1.0508137824117512,2134.6116139751184,None,001,59,2019_Oct_24_0901,ACPT_experiment_5_30_19,3.1.0,59.95305538162308,
,,,C,G,g,v,R,U,y,R,u,,,,,5,19,119,13,4,0,4,0,,,,,0,14,14,31,,,,,,down,0.8173002793405431,2136.963417674826,None,001,59,2019_Oct_24_0901,ACPT_experiment_5_30_19,3.1.0,59.95305538162308,
,,,C,G,g,v,L,D,g,R,i,,,,,5,19,119,13,4,0,4,0,,,,,0,15,15,15,,,,,,up,0.7505767021389147,2139.065059125176,None,001,59,2019_Oct_24_0901,ACPT_experiment_5_30_19,3.1.0,59.95305538162308,
,,,C,G,g,v,R,G,d,R,i,,,,,5,19,119,13,4,0,4,0,,,,,0,16,16,5,,,,,,up,1.6679557063780521,2141.0999694518414,None,001,59,2019_Oct_24_0901,ACPT_experiment_5_30_19,3.1.0,59.95305538162308,
,,,C,G,g,v,R,G,g,L,c ,,,,,5,19,119,13,4,0,4,0,,,,,0,17,17,6,,,,,,up,1.1508864701240782,2144.0355741152052,None,001,59,2019_Oct_24_0901,ACPT_experiment_5_30_19,3.1.0,59.95305538162308,
,,,C,G,g,v,R,G,d,L,i,,,,,5,19,119,13,4,0,4,0,,,,,0,18,18,4,,,,,,up,0.7839798454601805,2146.454090223321,None,001,59,2019_Oct_24_0901,ACPT_experiment_5_30_19,3.1.0,59.95305538162308,
,,,C,G,g,v,R,D,y,R,y,,,,,5,19,119,13,4,0,4,0,,,,,0,19,19,27,,,,,,down,1.6512976024528143,2148.5223590181367,None,001,59,2019_Oct_24_0901,ACPT_experiment_5_30_19,3.1.0,59.95305538162308,
,,,C,G,g,v,L,G,g,L,c ,,,,,5,19,119,13,4,0,4,0,,,,,0,20,20,18,,,,,,up,0.7672550306356243,2151.4579893395376,None,001,59,2019_Oct_24_0901,ACPT_experiment_5_30_19,3.1.0,59.95305538162308,
,,,C,G,g,v,R,D,g,L,i,,,,,5,19,119,13,4,0,4,0,,,,,0,21,21,2,,,,,,up,0.917409793884417,2153.509547506914,None,001,59,2019_Oct_24_0901,ACPT_experiment_5_30_19,3.1.0,59.95305538162308,
,,,C,G,g,v,R,G,g,R,c ,,,,,5,19,119,13,4,0,4,0,,,,,0,22,22,7,,,,,,up,0.43364921899956244,2155.694615011703,None,001,59,2019_Oct_24_0901,ACPT_experiment_5_30_19,3.1.0,59.95305538162308,
,,,C,G,g,v,L,U,y,L,u,,,,,5,19,119,13,4,0,4,0,,,,,0,23,23,24,,,,,,down,0.6334888109827261,2157.4295185767214,None,001,59,2019_Oct_24_0901,ACPT_experiment_5_30_19,3.1.0,59.95305538162308,
,,,C,G,g,v,L,G,d,L,i,,,,,5,19,119,13,4,0,4,0,,,,,0,24,24,16,,,,,,up,0.5837852669733365,2159.3474249291085,None,001,59,2019_Oct_24_0901,ACPT_experiment_5_30_19,3.1.0,59.95305538162308,
,,,C,G,g,v,L,U,y,R,u,,,,,5,19,119,13,4,0,4,0,,,,,0,25,25,25,,,,,,down,0.6338220636184815,2161.2155392927198,None,001,59,2019_Oct_24_0901,ACPT_experiment_5_30_19,3.1.0,59.95305538162308,
,,,C,G,g,v,R,D,d,L,c,,,,,5,19,119,13,4,0,4,0,,,,,0,26,26,0,,,,,,up,0.6004575582842335,2163.133707960814,None,001,59,2019_Oct_24_0901,ACPT_experiment_5_30_19,3.1.0,59.95305538162308,
,,,C,G,g,v,L,D,g,L,i,,,,,5,19,119,13,4,0,4,0,,,,,0,27,27,14,,,,,,up,0.6838615769975149,2165.018478617195,None,001,59,2019_Oct_24_0901,ACPT_experiment_5_30_19,3.1.0,59.95305538162308,
,,,C,G,g,v,R,U,g,R,u,,,,,5,19,119,13,4,0,4,0,,,,,0,28,28,11,,,,,,up,0.9006997701640103,2166.9866665740965,None,001,59,2019_Oct_24_0901,ACPT_experiment_5_30_19,3.1.0,59.95305538162308,
,,,C,G,g,v,L,G,g,R,c ,,,,,5,19,119,13,4,0,4,0,,,,,0,29,29,19,,,,,,up,0.6504892233224382,2169.171722608233,None,001,59,2019_Oct_24_0901,ACPT_experiment_5_30_19,3.1.0,59.95305538162308,
,,,C,G,g,v,L,G,y,R,y,,,,,5,19,119,13,4,0,4,0,,,,,0,30,30,35,,,,,,down,1.1675702320876553,2171.1065249296516,None,001,59,2019_Oct_24_0901,ACPT_experiment_5_30_19,3.1.0,59.95305538162308,
,,,C,G,g,v,R,D,d,R,c ,,,,,5,19,119,13,4,0,4,0,,,,,0,31,31,1,,,,,,up,0.7839200773246375,2173.5584200323474,None,001,59,2019_Oct_24_0901,ACPT_experiment_5_30_19,3.1.0,59.95305538162308,
,,,C,G,g,v,L,U,g,L,u,,,,,5,19,119,13,4,0,4,0,,,,,0,32,32,22,,,,,,up,0.5337436405798144,2175.626688223443,None,001,59,2019_Oct_24_0901,ACPT_experiment_5_30_19,3.1.0,59.95305538162308,
,,,C,G,g,v,R,G,y,L,y,,,,,5,19,119,13,4,0,4,0,,,,,0,33,33,28,,,,,,down,0.6505206166862081,2177.444764281113,None,001,59,2019_Oct_24_0901,ACPT_experiment_5_30_19,3.1.0,59.95305538162308,
,,,C,G,g,v,R,U,d,R,u,,,,,5,19,119,13,4,0,4,0,,,,,0,34,34,9,,,,,,up,0.5504132151572776,2179.379597995896,None,001,59,2019_Oct_24_0901,ACPT_experiment_5_30_19,3.1.0,59.95305538162308,
,,,C,G,g,v,L,U,d,L,u,,,,,5,19,119,13,4,0,4,0,,,,,0,35,35,20,,,,,,up,0.5170665195200854,2181.214346043017,None,001,59,2019_Oct_24_0901,ACPT_experiment_5_30_19,3.1.0,59.95305538162308,
,,,C,G,g,v,R,D,g,L,i,,,,,5,19,119,13,4,0,4,0,,,,,1,0,36,2,,,,,,up,0.7005857881031261,2183.0157153974187,None,001,59,2019_Oct_24_0901,ACPT_experiment_5_30_19,3.1.0,59.95305538162308,
,,,C,G,g,v,R,U,d,L,u,,,,,5,19,119,13,4,0,4,0,,,,,1,1,37,8,,,,,,up,1.0841647040783755,2185.0006130761813,None,001,59,2019_Oct_24_0901,ACPT_experiment_5_30_19,3.1.0,59.95305538162308,
,,,C,G,g,v,R,D,g,R,i,,,,,5,19,119,13,4,0,4,0,,,,,1,2,38,3,,,,,,up,0.5004150564991505,2187.369083935593,None,001,59,2019_Oct_24_0901,ACPT_experiment_5_30_19,3.1.0,59.95305538162308,
,,,C,G,g,v,R,U,y,R,u,,,,,5,19,119,13,4,0,4,0,,,,,1,3,39,31,,,,,,down,0.767250200887247,2189.170505511648,None,001,59,2019_Oct_24_0901,ACPT_experiment_5_30_19,3.1.0,59.95305538162308,
,,,C,G,g,v,R,D,y,R,y,,,,,5,19,119,13,4,0,4,0,,,,,1,4,40,27,,,,,,down,0.8673491503564037,2191.2387703822924,None,001,59,2019_Oct_24_0901,ACPT_experiment_5_30_19,3.1.0,59.95305538162308,
,,,C,G,g,v,R,G,y,L,y,,,,,5,19,119,13,4,0,4,0,,,,,1,5,41,28,,,,,,down,0.667180229907899,2193.3904386679314,None,001,59,2019_Oct_24_0901,ACPT_experiment_5_30_19,3.1.0,59.95305538162308,
,,,C,G,g,v,L,U,d,R,u,,,,,5,19,119,13,4,0,4,0,,,,,1,6,42,21,,,,,,up,0.5170496154014472,2195.3419636911594,None,001,59,2019_Oct_24_0901,ACPT_experiment_5_30_19,3.1.0,59.95305538162308,
,,,C,G,g,v,R,G,g,L,c ,,,,,5,19,119,13,4,0,4,0,,,,,1,7,43,6,,,,,,up,0.6671461198106954,2197.1433683630958,None,001,59,2019_Oct_24_0901,ACPT_experiment_5_30_19,3.1.0,59.95305538162308,
,,,C,G,g,v,L,D,g,L,i,,,,,5,19,119,13,4,0,4,0,,,,,1,8,44,14,,,,,,up,0.3837056968691286,2199.0948544464773,None,001,59,2019_Oct_24_0901,ACPT_experiment_5_30_19,3.1.0,59.95305538162308,
,,,C,G,g,v,L,G,d,R,i,,,,,5,19,119,13,4,0,4,0,,,,,1,9,45,17,,,,,,up,0.4834282278266073,2200.779763173289,None,001,59,2019_Oct_24_0901,ACPT_experiment_5_30_19,3.1.0,59.95305538162308,
,,,C,G,g,v,L,D,y,R,y,,,,,5,19,119,13,4,0,4,0,,,,,1,10,46,33,,,,,,down,0.5170967054473294,2202.547498462027,None,001,59,2019_Oct_24_0901,ACPT_experiment_5_30_19,3.1.0,59.95305538162308,
,,,C,G,g,v,R,U,d,R,u,,,,,5,19,119,13,4,0,4,0,,,,,1,11,47,9,,,,,,up,0.7505927006809543,2204.348922151097,None,001,59,2019_Oct_24_0901,ACPT_experiment_5_30_19,3.1.0,59.95305538162308,
,,,C,G,g,v,R,U,y,L,u,,,,,5,19,119,13,4,0,4,0,,,,,1,12,48,30,,,,,,down,0.7839892030979172,2206.3671453953484,None,001,59,2019_Oct_24_0901,ACPT_experiment_5_30_19,3.1.0,59.95305538162308,
,,,C,G,g,v,L,U,d,L,u,,,,,5,19,119,13,4,0,4,0,,,,,1,13,49,20,,,,,,up,0.6170540829184574,2208.4354126808666,None,001,59,2019_Oct_24_0901,ACPT_experiment_5_30_19,3.1.0,59.95305538162308,
,,,C,G,g,v,R,G,d,R,i,,,,,5,19,119,13,4,0,4,0,,,,,1,14,50,5,,,,,,up,0.8172924309997143,2210.3202059766927,None,001,59,2019_Oct_24_0901,ACPT_experiment_5_30_19,3.1.0,59.95305538162308,
,,,C,G,g,v,L,G,y,R,y,,,,,5,19,119,13,4,0,4,0,,,,,1,15,51,35,,,,,,down,0.7172140079605924,2212.4218356545307,None,001,59,2019_Oct_24_0901,ACPT_experiment_5_30_19,3.1.0,59.95305538162308,
,,,C,G,g,v,R,D,d,L,c,,,,,5,19,119,13,4,0,4,0,,,,,1,16,52,0,,,,,,up,0.7673057429933579,2214.4233817777213,None,001,59,2019_Oct_24_0901,ACPT_experiment_5_30_19,3.1.0,59.95305538162308,
,,,C,G,g,v,R,U,g,L,u,,,,,5,19,119,13,4,0,4,0,,,,,1,17,53,10,,,,,,up,0.617147659292641,2216.474970432884,None,001,59,2019_Oct_24_0901,ACPT_experiment_5_30_19,3.1.0,59.95305538162308,
,,,C,G,g,v,L,D,d,L,c ,,,,,5,19,119,13,4,0,4,0,,,,,1,18,54,12,,,,,,up,0.4169793425626267,2218.376443868363,None,001,59,2019_Oct_24_0901,ACPT_experiment_5_30_19,3.1.0,59.95305538162308,
,,,C,G,g,v,L,G,d,L,i,,,,,5,19,119,13,4,0,4,0,,,,,1,19,55,16,,,,,,up,0.7472487036652637,2220.097763162423,None,001,59,2019_Oct_24_0901,ACPT_experiment_5_30_19,3.1.0,59.95305538162308,
,,,C,G,g,v,L,U,g,R,u,,,,,5,19,119,13,4,0,4,0,,,,,1,20,56,23,,,,,,up,0.6338211580409734,2222.129343981319,None,001,59,2019_Oct_24_0901,ACPT_experiment_5_30_19,3.1.0,59.95305538162308,
,,,C,G,g,v,L,G,g,R,c ,,,,,5,19,119,13,4,0,4,0,,,,,1,21,57,19,,,,,,up,0.5671250500331553,2224.047495443434,None,001,59,2019_Oct_24_0901,ACPT_experiment_5_30_19,3.1.0,59.95305538162308,
,,,C,G,g,v,R,U,g,R,u,,,,,5,19,119,13,4,0,4,0,,,,,1,22,58,11,,,,,,up,0.800632515918096,2225.8989284599566,None,001,59,2019_Oct_24_0901,ACPT_experiment_5_30_19,3.1.0,59.95305538162308,
,,,C,G,g,v,L,D,d,R,c ,,,,,5,19,119,13,4,0,4,0,,,,,1,23,59,13,,,,,,up,0.5838027748113745,2227.983875583268,None,001,59,2019_Oct_24_0901,ACPT_experiment_5_30_19,3.1.0,59.95305538162308,
,,,C,G,g,v,L,G,g,L,c ,,,,,5,19,119,13,4,0,4,0,,,,,1,24,60,18,,,,,,up,0.6004581620027238,2229.8519893431603,None,001,59,2019_Oct_24_0901,ACPT_experiment_5_30_19,3.1.0,59.95305538162308,
,,,C,G,g,v,L,U,y,R,u,,,,,5,19,119,13,4,0,4,0,,,,,1,25,61,25,,,,,,down,1.3343664970020654,2231.7367826389864,None,001,59,2019_Oct_24_0901,ACPT_experiment_5_30_19,3.1.0,59.95305538162308,
,,,C,G,g,v,L,D,y,L,y,,,,,5,19,119,13,4,0,4,0,,,,,1,26,62,32,,,,,,down,0.8006310066220976,2234.3721586741376,None,001,59,2019_Oct_24_0901,ACPT_experiment_5_30_19,3.1.0,59.95305538162308,
,,,C,G,g,v,R,G,d,L,i,,,,,5,19,119,13,4,0,4,0,,,,,1,27,63,4,,,,,,up,1.1675820045993532,2236.4737820129303,None,001,59,2019_Oct_24_0901,ACPT_experiment_5_30_19,3.1.0,59.95305538162308,
,,,C,G,g,v,L,G,y,L,y,,,,,5,19,119,13,4,0,4,0,,,,,1,28,64,34,,,,,,down,0.6504976753817573,2238.9256780212036,None,001,59,2019_Oct_24_0901,ACPT_experiment_5_30_19,3.1.0,59.95305538162308,
,,,C,G,g,v,L,U,g,L,u,,,,,5,19,119,13,4,0,4,0,,,,,1,29,65,22,,,,,,up,0.8339777022592898,2240.8605111322677,None,001,59,2019_Oct_24_0901,ACPT_experiment_5_30_19,3.1.0,59.95305538162308,
,,,C,G,g,v,R,G,y,R,y,,,,,5,19,119,13,4,0,4,0,,,,,1,30,66,29,,,,,,down,0.9507263035943652,2242.995495655943,None,001,59,2019_Oct_24_0901,ACPT_experiment_5_30_19,3.1.0,59.95305538162308,
,,,C,G,g,v,R,D,d,R,c ,,,,,5,19,119,13,4,0,4,0,,,,,1,31,67,1,,,,,,up,0.6505076367379843,2245.247243270199,None,001,59,2019_Oct_24_0901,ACPT_experiment_5_30_19,3.1.0,59.95305538162308,
,,,C,G,g,v,R,G,g,R,c ,,,,,5,19,119,13,4,0,4,0,,,,,1,32,68,7,,,,,,up,0.6671784187524281,2247.182070947796,None,001,59,2019_Oct_24_0901,ACPT_experiment_5_30_19,3.1.0,59.95305538162308,
,,,C,G,g,v,L,D,g,R,i,,,,,5,19,119,13,4,0,4,0,,,,,1,33,69,15,,,,,,up,0.6838546342341942,2249.133578161327,None,001,59,2019_Oct_24_0901,ACPT_experiment_5_30_19,3.1.0,59.95305538162308,
,,,C,G,g,v,R,D,y,L,y,,,,,5,19,119,13,4,0,4,0,,,,,1,34,70,26,,,,,,down,0.9674342142993737,2251.101768834962,None,001,59,2019_Oct_24_0901,ACPT_experiment_5_30_19,3.1.0,59.95305538162308,
,,,C,G,g,v,L,U,y,L,u,,,,,5,19,119,13,4,0,4,0,,,,,1,35,71,24,,,,,,down,0.6338431937674613,2253.3534850558526,None,001,59,2019_Oct_24_0901,ACPT_experiment_5_30_19,3.1.0,59.95305538162308,
,,,C,G,g,v,,,,,,,,,,5,19,119,13,5,0,5,0,0,0,0,0,,,,,,,,,,,,,,001,59,2019_Oct_24_0901,ACPT_experiment_5_30_19,3.1.0,59.95305538162308,
,,,C,G,g,v,R,U,y,R,u,,,,,5,19,119,13,5,0,5,0,,,,,0,0,0,31,,,,,,down,0.8337331962488861,2276.2381337610877,None,001,59,2019_Oct_24_0901,ACPT_experiment_5_30_19,3.1.0,59.95305538162308,
,,,C,G,g,v,L,D,g,L,i,,,,,5,19,119,13,5,0,5,0,,,,,0,1,1,14,,,,,,up,0.5003833612749986,2278.3561966576935,None,001,59,2019_Oct_24_0901,ACPT_experiment_5_30_19,3.1.0,59.95305538162308,
,,,C,G,g,v,R,D,y,L,y,,,,,5,19,119,13,5,0,5,0,,,,,0,2,2,26,,,,,,down,0.500271975204214,2280.140910021185,None,001,59,2019_Oct_24_0901,ACPT_experiment_5_30_19,3.1.0,59.95305538162308,
,,,C,G,g,v,R,G,y,R,y,,,,,5,19,119,13,5,0,5,0,,,,,0,3,3,29,,,,,,down,0.617134981203435,2281.9256245921124,None,001,59,2019_Oct_24_0901,ACPT_experiment_5_30_19,3.1.0,59.95305538162308,
,,,C,G,g,v,R,U,d,L,u,,,,,5,19,119,13,5,0,5,0,,,,,0,4,4,8,,,,,,up,0.9006683768002404,2283.827120667037,None,001,59,2019_Oct_24_0901,ACPT_experiment_5_30_19,3.1.0,59.95305538162308,
,,,C,G,g,v,R,D,d,R,c ,,,,,5,19,119,13,5,0,5,0,,,,,0,5,5,1,,,,,,up,0.6504886196034931,2286.0121265925336,None,001,59,2019_Oct_24_0901,ACPT_experiment_5_30_19,3.1.0,59.95305538162308,
,,,C,G,g,v,L,U,g,L,u,,,,,5,19,119,13,5,0,5,0,,,,,0,6,6,22,,,,,,up,0.6171349812029803,2287.9469542701318,None,001,59,2019_Oct_24_0901,ACPT_experiment_5_30_19,3.1.0,59.95305538162308,
,,,C,G,g,v,R,G,g,R,c ,,,,,5,19,119,13,5,0,5,0,,,,,0,7,7,7,,,,,,up,0.6671838522192957,2289.8484198572687,None,001,59,2019_Oct_24_0901,ACPT_experiment_5_30_19,3.1.0,59.95305538162308,
,,,C,G,g,v,R,G,d,R,i,,,,,5,19,119,13,5,0,5,0,,,,,0,8,8,5,,,,,,up,0.7839982588757266,2291.783231536325,None,001,59,2019_Oct_24_0901,ACPT_experiment_5_30_19,3.1.0,59.95305538162308,
,,,C,G,g,v,L,U,g,R,u,,,,,5,19,119,13,5,0,5,0,,,,,0,9,9,23,,,,,,up,0.5838163584785434,2293.8515205557105,None,001,59,2019_Oct_24_0901,ACPT_experiment_5_30_19,3.1.0,59.95305538162308,
,,,C,G,g,v,L,D,y,L,y,,,,,5,19,119,13,5,0,5,0,,,,,0,10,10,32,,,,,,down,0.6338453067824048,2295.7196131854544,None,001,59,2019_Oct_24_0901,ACPT_experiment_5_30_19,3.1.0,59.95305538162308,
,,,C,G,g,v,L,G,y,L,y,,,,,5,19,119,13,5,0,5,0,,,,,0,11,11,34,,,,,,down,0.7338968643462067,2297.6377894000307,None,001,59,2019_Oct_24_0901,ACPT_experiment_5_30_19,3.1.0,59.95305538162308,
,,,C,G,g,v,R,D,g,L,i,,,,,5,19,119,13,5,0,5,0,,,,,0,12,12,2,,,,,,up,0.7505764002798969,2299.656016266593,None,001,59,2019_Oct_24_0901,ACPT_experiment_5_30_19,3.1.0,59.95305538162308,
,,,C,G,g,v,L,U,d,R,u,,,,,5,19,119,13,5,0,5,0,,,,,0,13,13,21,,,,,,up,0.5838030766703923,2301.690912405873,None,001,59,2019_Oct_24_0901,ACPT_experiment_5_30_19,3.1.0,59.95305538162308,
,,,C,G,g,v,L,G,d,L,i,,,,,5,19,119,13,5,0,5,0,,,,,0,14,14,16,,,,,,up,0.533742131283816,2303.5590349196846,None,001,59,2019_Oct_24_0901,ACPT_experiment_5_30_19,3.1.0,59.95305538162308,
,,,C,G,g,v,L,G,g,R,c ,,,,,5,19,119,13,5,0,5,0,,,,,0,15,15,19,,,,,,up,1.3010430445283419,2305.360409103834,None,001,59,2019_Oct_24_0901,ACPT_experiment_5_30_19,3.1.0,59.95305538162308,
,,,C,G,g,v,R,G,g,L,c ,,,,,5,19,119,13,5,0,5,0,,,,,0,16,16,6,,,,,,up,0.8673717898022915,2307.9457649445994,None,001,59,2019_Oct_24_0901,ACPT_experiment_5_30_19,3.1.0,59.95305538162308,
,,,C,G,g,v,R,U,d,R,u,,,,,5,19,119,13,5,0,5,0,,,,,0,17,17,9,,,,,,up,0.7339339930367714,2310.0974277967716,None,001,59,2019_Oct_24_0901,ACPT_experiment_5_30_19,3.1.0,59.95305538162308,
,,,C,G,g,v,R,D,y,R,y,,,,,5,19,119,13,5,0,5,0,,,,,0,18,18,27,,,,,,down,0.9673889354089624,2312.132356536853,None,001,59,2019_Oct_24_0901,ACPT_experiment_5_30_19,3.1.0,59.95305538162308,
,,,C,G,g,v,L,U,d,L,u,,,,,5,19,119,13,5,0,5,0,,,,,0,19,19,20,,,,,,up,0.8172954495921658,2314.400762556893,None,001,59,2019_Oct_24_0901,ACPT_experiment_5_30_19,3.1.0,59.95305538162308,
,,,C,G,g,v,R,U,g,R,u,,,,,5,19,119,13,5,0,5,0,,,,,0,20,20,11,,,,,,up,1.9014658889968814,2316.502388612419,None,001,59,2019_Oct_24_0901,ACPT_experiment_5_30_19,3.1.0,59.95305538162308,
,,,C,G,g,v,R,U,y,L,u,,,,,5,19,119,13,5,0,5,0,,,,,0,21,21,30,,,,,,down,0.6505025051301345,2319.68818540921,None,001,59,2019_Oct_24_0901,ACPT_experiment_5_30_19,3.1.0,59.95305538162308,
,,,C,G,g,v,R,G,d,L,i,,,,,5,19,119,13,5,0,5,0,,,,,0,22,22,4,,,,,,up,0.8840114803119832,2321.6230188221334,None,001,59,2019_Oct_24_0901,ACPT_experiment_5_30_19,3.1.0,59.95305538162308,
,,,C,G,g,v,L,U,y,L,u,,,,,5,19,119,13,5,0,5,0,,,,,0,23,23,24,,,,,,down,0.7005444333826745,2323.7913587953644,None,001,59,2019_Oct_24_0901,ACPT_experiment_5_30_19,3.1.0,59.95305538162308,
,,,C,G,g,v,L,U,y,R,u,,,,,5,19,119,13,5,0,5,0,,,,,0,24,24,25,,,,,,down,1.2342781126067166,2325.7929127668967,None,001,59,2019_Oct_24_0901,ACPT_experiment_5_30_19,3.1.0,59.95305538162308,
,,,C,G,g,v,L,D,d,R,c ,,,,,5,19,119,13,5,0,5,0,,,,,0,25,25,13,,,,,,up,0.683862482575023,2328.328200719512,None,001,59,2019_Oct_24_0901,ACPT_experiment_5_30_19,3.1.0,59.95305538162308,
,,,C,G,g,v,R,U,g,L,u,,,,,5,19,119,13,5,0,5,0,,,,,0,26,26,10,,,,,,up,0.5504264969654287,2330.296396222895,None,001,59,2019_Oct_24_0901,ACPT_experiment_5_30_19,3.1.0,59.95305538162308,
,,,C,G,g,v,L,D,g,R,i,,,,,5,19,119,13,5,0,5,0,,,,,0,27,27,15,,,,,,up,0.6671518551365807,2332.1311817005662,None,001,59,2019_Oct_24_0901,ACPT_experiment_5_30_19,3.1.0,59.95305538162308,
,,,C,G,g,v,L,G,g,L,c ,,,,,5,19,119,13,5,0,5,0,,,,,0,28,28,18,,,,,,up,0.5837861725512994,2334.0826602374664,None,001,59,2019_Oct_24_0901,ACPT_experiment_5_30_19,3.1.0,59.95305538162308,
,,,C,G,g,v,L,G,y,R,y,,,,,5,19,119,13,5,0,5,0,,,,,0,29,29,35,,,,,,down,0.7506222828892533,2335.934070010825,None,001,59,2019_Oct_24_0901,ACPT_experiment_5_30_19,3.1.0,59.95305538162308,
,,,C,G,g,v,R,G,y,L,y,,,,,5,19,119,13,5,0,5,0,,,,,0,30,30,28,,,,,,down,0.7338941476127729,2337.985683720307,None,001,59,2019_Oct_24_0901,ACPT_experiment_5_30_19,3.1.0,59.95305538162308,
,,,C,G,g,v,L,D,d,L,c ,,,,,5,19,119,13,5,0,5,0,,,,,0,31,31,12,,,,,,up,0.7338736211822834,2340.020607328781,None,001,59,2019_Oct_24_0901,ACPT_experiment_5_30_19,3.1.0,59.95305538162308,
,,,C,G,g,v,L,D,y,R,y,,,,,5,19,119,13,5,0,5,0,,,,,0,32,32,33,,,,,,down,0.7672517101837002,2342.0221462073496,None,001,59,2019_Oct_24_0901,ACPT_experiment_5_30_19,3.1.0,59.95305538162308,
,,,C,G,g,v,R,D,g,R,i,,,,,5,19,119,13,5,0,5,0,,,,,0,33,33,3,,,,,,up,0.650497071663267,2344.0737300327637,None,001,59,2019_Oct_24_0901,ACPT_experiment_5_30_19,3.1.0,59.95305538162308,
,,,C,G,g,v,R,D,d,L,c,,,,,5,19,119,13,5,0,5,0,,,,,0,34,34,0,,,,,,up,0.6838821034280045,2345.9918570442787,None,001,59,2019_Oct_24_0901,ACPT_experiment_5_30_19,3.1.0,59.95305538162308,
,,,C,G,g,v,L,G,d,R,i,,,,,5,19,119,13,5,0,5,0,,,,,0,35,35,17,,,,,,up,0.7672495971687567,2347.960076092685,None,001,59,2019_Oct_24_0901,ACPT_experiment_5_30_19,3.1.0,59.95305538162308,
,,,C,G,g,v,R,U,d,R,u,,,,,5,19,119,13,5,0,5,0,,,,,1,0,36,9,,,,,,up,0.6838591621230989,2349.9949755524176,None,001,59,2019_Oct_24_0901,ACPT_experiment_5_30_19,3.1.0,59.95305538162308,
,,,C,G,g,v,R,G,y,L,y,,,,,5,19,119,13,5,0,5,0,,,,,1,1,37,28,,,,,,down,0.6338187431665574,2351.96316713163,None,001,59,2019_Oct_24_0901,ACPT_experiment_5_30_19,3.1.0,59.95305538162308,
,,,C,G,g,v,L,U,d,L,u,,,,,5,19,119,13,5,0,5,0,,,,,1,2,38,20,,,,,,up,0.6505142776418325,2353.8813273476653,None,001,59,2019_Oct_24_0901,ACPT_experiment_5_30_19,3.1.0,59.95305538162308,
,,,C,G,g,v,R,D,y,R,y,,,,,5,19,119,13,5,0,5,0,,,,,1,3,39,27,,,,,,down,0.633819950603538,2355.8161468750623,None,001,59,2019_Oct_24_0901,ACPT_experiment_5_30_19,3.1.0,59.95305538162308,
,,,C,G,g,v,R,U,d,L,u,,,,,5,19,119,13,5,0,5,0,,,,,1,4,40,8,,,,,,up,0.6505012976931539,2357.7342977334592,None,001,59,2019_Oct_24_0901,ACPT_experiment_5_30_19,3.1.0,59.95305538162308,
,,,C,G,g,v,L,D,y,L,y,,,,,5,19,119,13,5,0,5,0,,,,,1,5,41,32,,,,,,down,0.6838564453896652,2359.6691260147754,None,001,59,2019_Oct_24_0901,ACPT_experiment_5_30_19,3.1.0,59.95305538162308,
,,,C,G,g,v,L,D,g,L,i,,,,,5,19,119,13,5,0,5,0,,,,,1,6,42,14,,,,,,up,0.8306445721777891,2361.657332373018,None,001,59,2019_Oct_24_0901,ACPT_experiment_5_30_19,3.1.0,59.95305538162308,
,,,C,G,g,v,R,G,g,L,c ,,,,,5,19,119,13,5,0,5,0,,,,,1,7,43,6,,,,,,up,0.867331944378293,2363.772306041834,None,001,59,2019_Oct_24_0901,ACPT_experiment_5_30_19,3.1.0,59.95305538162308,
,,,C,G,g,v,L,G,y,R,y,,,,,5,19,119,13,5,0,5,0,,,,,1,8,44,35,,,,,,down,0.6838582565455908,2365.9239697995836,None,001,59,2019_Oct_24_0901,ACPT_experiment_5_30_19,3.1.0,59.95305538162308,
,,,C,G,g,v,R,G,d,L,i,,,,,5,19,119,13,5,0,5,0,,,,,1,9,45,4,,,,,,up,0.600467217780988,2367.8921556434707,None,001,59,2019_Oct_24_0901,ACPT_experiment_5_30_19,3.1.0,59.95305538162308,
,,,C,G,g,v,R,U,g,R,u,,,,,5,19,119,13,5,0,5,0,,,,,1,10,46,11,,,,,,up,0.5837816446619399,2369.7769513541707,None,001,59,2019_Oct_24_0901,ACPT_experiment_5_30_19,3.1.0,59.95305538162308,
,,,C,G,g,v,R,G,g,R,c ,,,,,5,19,119,13,5,0,5,0,,,,,1,11,47,7,,,,,,up,0.9507311333427424,2371.6283879930043,None,001,59,2019_Oct_24_0901,ACPT_experiment_5_30_19,3.1.0,59.95305538162308,
,,,C,G,g,v,L,D,d,L,c ,,,,,5,19,119,13,5,0,5,0,,,,,1,12,48,12,,,,,,up,0.6338157245736511,2373.8634512415774,None,001,59,2019_Oct_24_0901,ACPT_experiment_5_30_19,3.1.0,59.95305538162308,
,,,C,G,g,v,L,U,d,R,u,,,,,5,19,119,13,5,0,5,0,,,,,1,13,49,21,,,,,,up,0.7172106875086683,2375.7816099483152,None,001,59,2019_Oct_24_0901,ACPT_experiment_5_30_19,3.1.0,59.95305538162308,
,,,C,G,g,v,R,U,y,R,u,,,,,5,19,119,13,5,0,5,0,,,,,1,14,50,31,,,,,,down,0.8173214094895229,2377.783123168846,None,001,59,2019_Oct_24_0901,ACPT_experiment_5_30_19,3.1.0,59.95305538162308,
,,,C,G,g,v,R,U,g,L,u,,,,,5,19,119,13,5,0,5,0,,,,,1,15,51,10,,,,,,up,0.8173301634087693,2379.884771863818,None,001,59,2019_Oct_24_0901,ACPT_experiment_5_30_19,3.1.0,59.95305538162308,
,,,C,G,g,v,L,U,y,R,u,,,,,5,19,119,13,5,0,5,0,,,,,1,16,52,25,,,,,,down,0.867337679704633,2381.9864030509516,None,001,59,2019_Oct_24_0901,ACPT_experiment_5_30_19,3.1.0,59.95305538162308,
,,,C,G,g,v,R,D,d,R,c ,,,,,5,19,119,13,5,0,5,0,,,,,1,17,53,1,,,,,,up,0.6004608787361576,2384.1380668087013,None,001,59,2019_Oct_24_0901,ACPT_experiment_5_30_19,3.1.0,59.95305538162308,
,,,C,G,g,v,L,G,g,R,c ,,,,,5,19,119,13,5,0,5,0,,,,,1,18,54,19,,,,,,up,1.034166243560776,2386.022855576639,None,001,59,2019_Oct_24_0901,ACPT_experiment_5_30_19,3.1.0,59.95305538162308,
,,,C,G,g,v,L,D,g,R,i,,,,,5,19,119,13,5,0,5,0,,,,,1,19,55,15,,,,,,up,0.5504213653580337,2388.341315599302,None,001,59,2019_Oct_24_0901,ACPT_experiment_5_30_19,3.1.0,59.95305538162308,
,,,C,G,g,v,L,G,d,L,i,,,,,5,19,119,13,5,0,5,0,,,,,1,20,56,16,,,,,,up,0.6672025674943143,2390.1760527794904,None,001,59,2019_Oct_24_0901,ACPT_experiment_5_30_19,3.1.0,59.95305538162308,
,,,C,G,g,v,L,G,g,L,c ,,,,,5,19,119,13,5,0,5,0,,,,,1,21,57,18,,,,,,up,0.5337463573132482,2392.1275814250293,None,001,59,2019_Oct_24_0901,ACPT_experiment_5_30_19,3.1.0,59.95305538162308,
,,,C,G,g,v,L,D,y,R,y,,,,,5,19,119,13,5,0,5,0,,,,,1,22,58,33,,,,,,down,0.7170244403378092,2393.962497004047,None,001,59,2019_Oct_24_0901,ACPT_experiment_5_30_19,3.1.0,59.95305538162308,
,,,C,G,g,v,L,G,y,L,y,,,,,5,19,119,13,5,0,5,0,,,,,1,23,59,34,,,,,,down,0.6505254464345853,2395.9805557349937,None,001,59,2019_Oct_24_0901,ACPT_experiment_5_30_19,3.1.0,59.95305538162308,
,,,C,G,g,v,R,D,g,R,i,,,,,5,19,119,13,5,0,5,0,,,,,1,24,60,3,,,,,,up,0.6671814373453344,2397.9153912609327,None,001,59,2019_Oct_24_0901,ACPT_experiment_5_30_19,3.1.0,59.95305538162308,
,,,C,G,g,v,L,G,d,R,i,,,,,5,19,119,13,5,0,5,0,,,,,1,25,61,17,,,,,,up,0.8006141025025499,2399.8669075302414,None,001,59,2019_Oct_24_0901,ACPT_experiment_5_30_19,3.1.0,59.95305538162308,
,,,C,G,g,v,R,D,g,L,i,,,,,5,19,119,13,5,0,5,0,,,,,1,26,62,2,,,,,,up,0.6004569545657432,2401.9518570684277,None,001,59,2019_Oct_24_0901,ACPT_experiment_5_30_19,3.1.0,59.95305538162308,
,,,C,G,g,v,L,U,g,R,u,,,,,5,19,119,13,5,0,5,0,,,,,1,27,63,23,,,,,,up,0.5337421312833612,2403.8366434214904,None,001,59,2019_Oct_24_0901,ACPT_experiment_5_30_19,3.1.0,59.95305538162308,
