facing_vig,person_vig,text_vig,facing_train,person_train,food_train,correct_key_train,facing_exp,person_exp,food_exp,showL_R,consistent,vig_random.thisRepN,vig_random.thisTrialN,vig_random.thisN,vig_random.thisIndex,trainTrials.thisRepN,trainTrials.thisTrialN,trainTrials.thisN,trainTrials.thisIndex,expBlock.thisRepN,expBlock.thisTrialN,expBlock.thisN,expBlock.thisIndex,breakLoop.thisRepN,breakLoop.thisTrialN,breakLoop.thisN,breakLoop.thisIndex,expTrials.thisRepN,expTrials.thisTrialN,expTrials.thisN,expTrials.thisIndex,train_resp.keys,train_resp.corr,train_resp.rt,train_resp.started,train_resp.stopped,exp_resp.keys,exp_resp.rt,exp_resp.started,exp_resp.stopped,session,participant,date,expName,psychopyVersion,frameRate,
C,G,"cannot eat dairy products because she is lactose intolerant. She enjoys eating wheat products. She thinks eating insects, like crickets, is disgusting.",,,,,,,,,,0,0,0,0,,,,,,,,,,,,,,,,,,,,,,,,,,001,5,2019_Jun_04_1628,ACPT_experiment_5_30_19,3.1.0,59.94857123177912,
C,D,"is allergic to gluten, meaning she can’t eat wheat products. She enjoys eating dairy products. She thinks eating insects, like crickets, is disgusting.",,,,,,,,,,0,1,1,1,,,,,,,,,,,,,,,,,,,,,,,,,,001,5,2019_Jun_04_1628,ACPT_experiment_5_30_19,3.1.0,59.94857123177912,
C,U,"did not report her food preferences, so her food preferences are unknown.",,,,,,,,,,0,2,2,2,,,,,,,,,,,,,,,,,,,,,,,,,,001,5,2019_Jun_04_1628,ACPT_experiment_5_30_19,3.1.0,59.94857123177912,
,,,C,D,g,b,,,,,,,,,,0,0,0,10,,,,,,,,,,,,,v,0,5.037249019867886,931.3505070616739,None,,,,,001,5,2019_Jun_04_1628,ACPT_experiment_5_30_19,3.1.0,59.94857123177912,
,,,C,U,d,n,,,,,,,,,,0,1,1,6,,,,,,,,,,,,,b,0,3.4026793551820447,939.6736032711779,None,,,,,001,5,2019_Jun_04_1628,ACPT_experiment_5_30_19,3.1.0,59.94857123177912,
,,,C,G,d,b,,,,,,,,,,0,2,2,3,,,,,,,,,,,,,b,1,1.284336388540396,946.3620996301615,None,,,,,001,5,2019_Jun_04_1628,ACPT_experiment_5_30_19,3.1.0,59.94857123177912,
,,,C,G,d,b,,,,,,,,,,0,3,3,12,,,,,,,,,,,,,b,1,2.218144283466245,950.9492165568081,None,,,,,001,5,2019_Jun_04_1628,ACPT_experiment_5_30_19,3.1.0,59.94857123177912,
,,,C,D,y,b,,,,,,,,,,0,4,4,2,,,,,,,,,,,,,n,0,3.002334874418011,956.4532219153989,None,,,,,001,5,2019_Jun_04_1628,ACPT_experiment_5_30_19,3.1.0,59.94857123177912,
,,,C,U,y,n,,,,,,,,,,0,5,5,17,,,,,,,,,,,,,n,1,1.7179906375604332,962.7414205816676,None,,,,,001,5,2019_Jun_04_1628,ACPT_experiment_5_30_19,3.1.0,59.94857123177912,
,,,C,U,y,n,,,,,,,,,,0,6,6,8,,,,,,,,,,,,,v,0,3.7695887964655412,967.7452680683346,None,,,,,001,5,2019_Jun_04_1628,ACPT_experiment_5_30_19,3.1.0,59.94857123177912,
,,,C,G,g,v,,,,,,,,,,0,7,7,13,,,,,,,,,,,,,v,1,1.1342225275693636,974.8007161287751,None,,,,,001,5,2019_Jun_04_1628,ACPT_experiment_5_30_19,3.1.0,59.94857123177912,
,,,C,G,g,v,,,,,,,,,,0,8,8,4,,,,,,,,,,,,,b,0,1.8511774890939705,979.2210614426658,None,,,,,001,5,2019_Jun_04_1628,ACPT_experiment_5_30_19,3.1.0,59.94857123177912,
,,,C,G,g,v,,,,,,,,,,0,9,9,19,,,,,,,,,,,,,v,1,1.4177764992382436,984.3414105599695,None,,,,,001,5,2019_Jun_04_1628,ACPT_experiment_5_30_19,3.1.0,59.94857123177912,
,,,C,G,y,b,,,,,,,,,,0,10,10,14,,,,,,,,,,,,,n,0,1.384140422094788,989.0453167882733,None,,,,,001,5,2019_Jun_04_1628,ACPT_experiment_5_30_19,3.1.0,59.94857123177912,
,,,C,U,g,n,,,,,,,,,,0,11,11,16,,,,,,,,,,,,,b,0,5.8544079772691475,993.7153134557593,None,,,,,001,5,2019_Jun_04_1628,ACPT_experiment_5_30_19,3.1.0,59.94857123177912,
,,,C,D,d,v,,,,,,,,,,0,12,12,18,,,,,,,,,,,,,v,1,2.18503404358853,1002.8557032514982,None,,,,,001,5,2019_Jun_04_1628,ACPT_experiment_5_30_19,3.1.0,59.94857123177912,
,,,C,D,y,b,,,,,,,,,,0,13,13,11,,,,,,,,,,,,,b,1,2.3518512369555538,1008.3098877932098,None,,,,,001,5,2019_Jun_04_1628,ACPT_experiment_5_30_19,3.1.0,59.94857123177912,
,,,C,D,d,v,,,,,,,,,,0,14,14,0,,,,,,,,,,,,,v,1,4.353395846188505,1013.9308970747516,None,,,,,001,5,2019_Jun_04_1628,ACPT_experiment_5_30_19,3.1.0,59.94857123177912,
,,,C,G,y,b,,,,,,,,,,0,15,15,5,,,,,,,,,,,,,b,1,1.7346867253545497,1021.5701446384519,None,,,,,001,5,2019_Jun_04_1628,ACPT_experiment_5_30_19,3.1.0,59.94857123177912,
,,,C,U,d,n,,,,,,,,,,0,16,16,15,,,,,,,,,,,,,v,0,3.319243289388396,1026.5906903259201,None,,,,,001,5,2019_Jun_04_1628,ACPT_experiment_5_30_19,3.1.0,59.94857123177912,
,,,C,U,g,n,,,,,,,,,,0,17,17,7,,,,,,,,,,,,,n,1,2.4519103408201772,1033.1791073565291,None,,,,,001,5,2019_Jun_04_1628,ACPT_experiment_5_30_19,3.1.0,59.94857123177912,
,,,C,D,g,b,,,,,,,,,,0,18,18,1,,,,,,,,,,,,,b,1,3.252529874920583,1038.9168669999963,None,,,,,001,5,2019_Jun_04_1628,ACPT_experiment_5_30_19,3.1.0,59.94857123177912,
,,,C,D,d,v,,,,,,,,,,0,19,19,9,,,,,,,,,,,,,v,1,1.7013368099360378,1045.4385579380905,None,,,,,001,5,2019_Jun_04_1628,ACPT_experiment_5_30_19,3.1.0,59.94857123177912,
,,,C,G,g,v,,,,,,,,,,1,0,20,19,,,,,,,,,,,,,v,1,2.001559098433063,1050.4257537101403,None,,,,,001,5,2019_Jun_04_1628,ACPT_experiment_5_30_19,3.1.0,59.94857123177912,
,,,C,G,y,b,,,,,,,,,,1,1,21,5,,,,,,,,,,,,,n,0,1.1342448650866572,1055.7131835431646,None,,,,,001,5,2019_Jun_04_1628,ACPT_experiment_5_30_19,3.1.0,59.94857123177912,
,,,C,U,d,n,,,,,,,,,,1,2,22,6,,,,,,,,,,,,,n,1,3.0990834976437327,1060.1699378051017,None,,,,,001,5,2019_Jun_04_1628,ACPT_experiment_5_30_19,3.1.0,59.94857123177912,
,,,C,G,g,v,,,,,,,,,,1,3,23,4,,,,,,,,,,,,,v,1,1.83478808939617,1066.5548476641598,None,,,,,001,5,2019_Jun_04_1628,ACPT_experiment_5_30_19,3.1.0,59.94857123177912,
,,,C,D,g,b,,,,,,,,,,1,4,24,1,,,,,,,,,,,,,b,1,2.368512309181824,1071.6754871692065,None,,,,,001,5,2019_Jun_04_1628,ACPT_experiment_5_30_19,3.1.0,59.94857123177912,
,,,C,D,g,b,,,,,,,,,,1,5,25,10,,,,,,,,,,,,,b,1,2.118316101248638,1077.3131750307584,None,,,,,001,5,2019_Jun_04_1628,ACPT_experiment_5_30_19,3.1.0,59.94857123177912,
,,,C,U,y,n,,,,,,,,,,1,6,26,8,,,,,,,,,,,,,n,1,0.583788032643497,1082.717350697836,None,,,,,001,5,2019_Jun_04_1628,ACPT_experiment_5_30_19,3.1.0,59.94857123177912,
,,,C,D,y,b,,,,,,,,,,1,7,27,2,,,,,,,,,,,,,n,0,0.9838424275185389,1086.6039533785806,None,,,,,001,5,2019_Jun_04_1628,ACPT_experiment_5_30_19,3.1.0,59.94857123177912,
,,,C,U,d,n,,,,,,,,,,1,8,28,15,,,,,,,,,,,,,n,1,1.8014028565448825,1090.8736448068885,None,,,,,001,5,2019_Jun_04_1628,ACPT_experiment_5_30_19,3.1.0,59.94857123177912,
,,,C,G,d,b,,,,,,,,,,1,9,29,3,,,,,,,,,,,,,b,1,2.7020974930055672,1095.960905719974,None,,,,,001,5,2019_Jun_04_1628,ACPT_experiment_5_30_19,3.1.0,59.94857123177912,
,,,C,G,d,b,,,,,,,,,,1,10,30,12,,,,,,,,,,,,,b,1,0.81745749532638,1101.9320287417431,None,,,,,001,5,2019_Jun_04_1628,ACPT_experiment_5_30_19,3.1.0,59.94857123177912,
,,,C,G,g,v,,,,,,,,,,1,11,31,13,,,,,,,,,,,,,v,1,1.0508057807055593,1106.0353602921023,None,,,,,001,5,2019_Jun_04_1628,ACPT_experiment_5_30_19,3.1.0,59.94857123177912,
,,,C,D,d,v,,,,,,,,,,1,12,32,18,,,,,,,,,,,,,v,1,2.4852659915486583,1110.3720268460747,None,,,,,001,5,2019_Jun_04_1628,ACPT_experiment_5_30_19,3.1.0,59.94857123177912,
,,,C,D,d,v,,,,,,,,,,1,13,33,0,,,,,,,,,,,,,v,1,0.884174833947327,1116.126316555241,None,,,,,001,5,2019_Jun_04_1628,ACPT_experiment_5_30_19,3.1.0,59.94857123177912,
,,,C,G,y,b,,,,,,,,,,1,14,34,14,,,,,,,,,,,,,b,1,1.317700491305004,1120.31304372237,None,,,,,001,5,2019_Jun_04_1628,ACPT_experiment_5_30_19,3.1.0,59.94857123177912,
,,,C,U,y,n,,,,,,,,,,1,15,35,17,,,,,,,,,,,,,n,1,1.5512006114440737,1124.9165874791543,None,,,,,001,5,2019_Jun_04_1628,ACPT_experiment_5_30_19,3.1.0,59.94857123177912,
,,,C,D,y,b,,,,,,,,,,1,16,36,11,,,,,,,,,,,,,b,1,1.301010742532526,1129.7536561084635,None,,,,,001,5,2019_Jun_04_1628,ACPT_experiment_5_30_19,3.1.0,59.94857123177912,
,,,C,U,g,n,,,,,,,,,,1,17,37,7,,,,,,,,,,,,,v,0,3.152172233134479,1134.357480593524,None,,,,,001,5,2019_Jun_04_1628,ACPT_experiment_5_30_19,3.1.0,59.94857123177912,
,,,C,D,d,v,,,,,,,,,,1,18,38,9,,,,,,,,,,,,,v,1,2.034912938011985,1140.7955151092174,None,,,,,001,5,2019_Jun_04_1628,ACPT_experiment_5_30_19,3.1.0,59.94857123177912,
,,,C,U,g,n,,,,,,,,,,1,19,39,16,,,,,,,,,,,,,n,1,0.9340674931154354,1146.116277651734,None,,,,,001,5,2019_Jun_04_1628,ACPT_experiment_5_30_19,3.1.0,59.94857123177912,
,,,C,U,y,n,,,,,,,,,,2,0,40,8,,,,,,,,,,,,,n,1,0.763937706095021,1150.3562158069944,None,,,,,001,5,2019_Jun_04_1628,ACPT_experiment_5_30_19,3.1.0,59.94857123177912,
,,,C,U,y,n,,,,,,,,,,2,1,41,17,,,,,,,,,,,,,n,1,0.6506569041666808,1154.3891814567178,None,,,,,001,5,2019_Jun_04_1628,ACPT_experiment_5_30_19,3.1.0,59.94857123177912,
,,,C,G,y,b,,,,,,,,,,2,2,42,5,,,,,,,,,,,,,b,1,1.4008187002436898,1158.3426530089819,None,,,,,001,5,2019_Jun_04_1628,ACPT_experiment_5_30_19,3.1.0,59.94857123177912,
,,,C,D,g,b,,,,,,,,,,2,3,43,10,,,,,,,,,,,,,b,1,2.4352411184190714,1163.0293176914347,None,,,,,001,5,2019_Jun_04_1628,ACPT_experiment_5_30_19,3.1.0,59.94857123177912,
,,,C,U,d,n,,,,,,,,,,2,4,44,15,,,,,,,,,,,,,n,1,1.0007742666930426,1168.7504183756864,None,,,,,001,5,2019_Jun_04_1628,ACPT_experiment_5_30_19,3.1.0,59.94857123177912,
,,,C,G,d,b,,,,,,,,,,2,5,45,12,,,,,,,,,,,,,b,1,3.6828682098494028,1173.0570599840867,None,,,,,001,5,2019_Jun_04_1628,ACPT_experiment_5_30_19,3.1.0,59.94857123177912,
,,,C,D,y,b,,,,,,,,,,2,6,46,2,,,,,,,,,,,,,b,1,1.2509837563993642,1180.025779307729,None,,,,,001,5,2019_Jun_04_1628,ACPT_experiment_5_30_19,3.1.0,59.94857123177912,
,,,C,D,g,b,,,,,,,,,,2,7,47,1,,,,,,,,,,,,,b,1,2.301787122240057,1184.5459458610967,None,,,,,001,5,2019_Jun_04_1628,ACPT_experiment_5_30_19,3.1.0,59.94857123177912,
,,,C,G,g,v,,,,,,,,,,2,8,48,4,,,,,,,,,,,,,v,1,2.4352371942622995,1190.1335789655423,None,,,,,001,5,2019_Jun_04_1628,ACPT_experiment_5_30_19,3.1.0,59.94857123177912,
,,,C,U,d,n,,,,,,,,,,2,9,49,6,,,,,,,,,,,,,n,1,1.3843994165690674,1195.854677234929,None,,,,,001,5,2019_Jun_04_1628,ACPT_experiment_5_30_19,3.1.0,59.94857123177912,
,,,C,G,y,b,,,,,,,,,,2,10,50,14,,,,,,,,,,,,,b,1,1.0839392636844423,1200.5418695657936,None,,,,,001,5,2019_Jun_04_1628,ACPT_experiment_5_30_19,3.1.0,59.94857123177912,
,,,C,D,d,v,,,,,,,,,,2,11,51,18,,,,,,,,,,,,,v,1,2.051597555189801,1204.9116496800889,None,,,,,001,5,2019_Jun_04_1628,ACPT_experiment_5_30_19,3.1.0,59.94857123177912,
,,,C,D,d,v,,,,,,,,,,2,12,52,0,,,,,,,,,,,,,v,1,1.9349000184738543,1210.2490790301417,None,,,,,001,5,2019_Jun_04_1628,ACPT_experiment_5_30_19,3.1.0,59.94857123177912,
,,,C,D,y,b,,,,,,,,,,2,13,53,11,,,,,,,,,,,,,b,1,0.9674171066762938,1215.4697987691397,None,,,,,001,5,2019_Jun_04_1628,ACPT_experiment_5_30_19,3.1.0,59.94857123177912,
,,,C,G,g,v,,,,,,,,,,2,14,54,13,,,,,,,,,,,,,v,1,1.584549017574318,1219.7397706238662,None,,,,,001,5,2019_Jun_04_1628,ACPT_experiment_5_30_19,3.1.0,59.94857123177912,
,,,C,U,g,n,,,,,,,,,,2,15,55,7,,,,,,,,,,,,,n,1,1.4678122392688238,1224.6101822258534,None,,,,,001,5,2019_Jun_04_1628,ACPT_experiment_5_30_19,3.1.0,59.94857123177912,
,,,C,D,d,v,,,,,,,,,,2,16,56,9,,,,,,,,,,,,,v,1,2.0015645318853785,1229.363849503079,None,,,,,001,5,2019_Jun_04_1628,ACPT_experiment_5_30_19,3.1.0,59.94857123177912,
,,,C,G,d,b,,,,,,,,,,2,17,57,3,,,,,,,,,,,,,b,1,0.8840097174252151,1234.6512796379611,None,,,,,001,5,2019_Jun_04_1628,ACPT_experiment_5_30_19,3.1.0,59.94857123177912,
,,,C,U,g,n,,,,,,,,,,2,18,58,16,,,,,,,,,,,,,n,1,1.0672335164199467,1238.8380961551702,None,,,,,001,5,2019_Jun_04_1628,ACPT_experiment_5_30_19,3.1.0,59.94857123177912,
,,,C,G,g,v,,,,,,,,,,2,19,59,19,,,,,,,,,,,,,v,1,1.601270159611886,1243.191160259019,None,,,,,001,5,2019_Jun_04_1628,ACPT_experiment_5_30_19,3.1.0,59.94857123177912,
,,,C,D,d,v,,,,,,,,,,3,0,60,18,,,,,,,,,,,,,v,1,3.7695815518673044,1248.078288475168,None,,,,,001,5,2019_Jun_04_1628,ACPT_experiment_5_30_19,3.1.0,59.94857123177912,
,,,C,G,d,b,,,,,,,,,,3,1,61,12,,,,,,,,,,,,,b,1,3.085735019070853,1255.1337317058715,None,,,,,001,5,2019_Jun_04_1628,ACPT_experiment_5_30_19,3.1.0,59.94857123177912,
,,,C,U,g,n,,,,,,,,,,3,2,62,7,,,,,,,,,,,,,n,1,0.9674243512745306,1261.505314518301,None,,,,,001,5,2019_Jun_04_1628,ACPT_experiment_5_30_19,3.1.0,59.94857123177912,
,,,C,G,y,b,,,,,,,,,,3,3,63,14,,,,,,,,,,,,,b,1,0.8170602497229993,1265.7755221244042,None,,,,,001,5,2019_Jun_04_1628,ACPT_experiment_5_30_19,3.1.0,59.94857123177912,
,,,C,D,d,v,,,,,,,,,,3,4,64,0,,,,,,,,,,,,,v,1,1.8681214026037196,1269.8784371102229,None,,,,,001,5,2019_Jun_04_1628,ACPT_experiment_5_30_19,3.1.0,59.94857123177912,
,,,C,D,y,b,,,,,,,,,,3,5,65,11,,,,,,,,,,,,,b,1,0.867351060067449,1275.0157364800652,None,,,,,001,5,2019_Jun_04_1628,ACPT_experiment_5_30_19,3.1.0,59.94857123177912,
,,,C,U,d,n,,,,,,,,,,3,6,66,15,,,,,,,,,,,,,n,1,0.9836981392254529,1279.185995764321,None,,,,,001,5,2019_Jun_04_1628,ACPT_experiment_5_30_19,3.1.0,59.94857123177912,
,,,C,D,g,b,,,,,,,,,,3,7,67,1,,,,,,,,,,,,,b,1,1.6679793480579974,1283.4555800329144,None,,,,,001,5,2019_Jun_04_1628,ACPT_experiment_5_30_19,3.1.0,59.94857123177912,
,,,C,D,y,b,,,,,,,,,,3,8,68,2,,,,,,,,,,,,,b,1,0.7839506135569536,1288.3927228590073,None,,,,,001,5,2019_Jun_04_1628,ACPT_experiment_5_30_19,3.1.0,59.94857123177912,
,,,C,G,y,b,,,,,,,,,,3,9,69,5,,,,,,,,,,,,,b,1,0.8339697513765714,1292.479226409465,None,,,,,001,5,2019_Jun_04_1628,ACPT_experiment_5_30_19,3.1.0,59.94857123177912,
,,,C,D,g,b,,,,,,,,,,3,10,70,10,,,,,,,,,,,,,b,1,3.385952779692161,1296.5990575378237,None,,,,,001,5,2019_Jun_04_1628,ACPT_experiment_5_30_19,3.1.0,59.94857123177912,
,,,C,G,g,v,,,,,,,,,,3,11,71,19,,,,,,,,,,,,,v,1,1.0674967369086517,1303.270871694498,None,,,,,001,5,2019_Jun_04_1628,ACPT_experiment_5_30_19,3.1.0,59.94857123177912,
,,,C,U,d,n,,,,,,,,,,3,12,72,6,,,,,,,,,,,,,n,1,0.5003685690571729,1307.6409219720263,None,,,,,001,5,2019_Jun_04_1628,ACPT_experiment_5_30_19,3.1.0,59.94857123177912,
,,,C,G,d,b,,,,,,,,,,3,13,73,3,,,,,,,,,,,,,b,1,2.5686652306249016,1311.4271585589522,None,,,,,001,5,2019_Jun_04_1628,ACPT_experiment_5_30_19,3.1.0,59.94857123177912,
,,,C,G,g,v,,,,,,,,,,3,14,74,4,,,,,,,,,,,,,v,1,0.9674243512781686,1317.2649999456662,None,,,,,001,5,2019_Jun_04_1628,ACPT_experiment_5_30_19,3.1.0,59.94857123177912,
,,,C,U,y,n,,,,,,,,,,3,15,75,17,,,,,,,,,,,,,n,1,1.1171162142600224,1321.5353542549346,None,,,,,001,5,2019_Jun_04_1628,ACPT_experiment_5_30_19,3.1.0,59.94857123177912,
,,,C,D,d,v,,,,,,,,,,3,16,76,9,,,,,,,,,,,,,v,1,2.1350049444408796,1325.938357202278,None,,,,,001,5,2019_Jun_04_1628,ACPT_experiment_5_30_19,3.1.0,59.94857123177912,
,,,C,G,g,v,,,,,,,,,,3,17,77,13,,,,,,,,,,,,,v,1,1.1675814987393096,1331.3591981675963,None,,,,,001,5,2019_Jun_04_1628,ACPT_experiment_5_30_19,3.1.0,59.94857123177912,
,,,C,U,g,n,,,,,,,,,,3,18,78,16,,,,,,,,,,,,,n,1,0.8837676270195516,1335.829566543467,None,,,,,001,5,2019_Jun_04_1628,ACPT_experiment_5_30_19,3.1.0,59.94857123177912,
,,,C,U,y,n,,,,,,,,,,3,19,79,8,,,,,,,,,,,,,n,1,0.5337519907552633,1339.9825187786082,None,,,,,001,5,2019_Jun_04_1628,ACPT_experiment_5_30_19,3.1.0,59.94857123177912,
,,,C,G,y,b,,,,,,,,,,4,0,80,5,,,,,,,,,,,,,b,1,0.883783625515207,1343.819051911185,None,,,,,001,5,2019_Jun_04_1628,ACPT_experiment_5_30_19,3.1.0,59.94857123177912,
,,,C,G,y,b,,,,,,,,,,4,1,81,14,,,,,,,,,,,,,b,1,0.7005706934178306,1347.9719920719908,None,,,,,001,5,2019_Jun_04_1628,ACPT_experiment_5_30_19,3.1.0,59.94857123177912,
,,,C,G,g,v,,,,,,,,,,4,2,82,13,,,,,,,,,,,,,v,1,1.3143709935866354,1351.978440672152,None,,,,,001,5,2019_Jun_04_1628,ACPT_experiment_5_30_19,3.1.0,59.94857123177912,
,,,C,D,d,v,,,,,,,,,,4,3,83,9,,,,,,,,,,,,,v,1,1.4845007806070498,1356.5786540256413,None,,,,,001,5,2019_Jun_04_1628,ACPT_experiment_5_30_19,3.1.0,59.94857123177912,
,,,C,D,d,v,,,,,,,,,,4,4,84,18,,,,,,,,,,,,,v,1,1.4513066241015622,1361.3321676569612,None,,,,,001,5,2019_Jun_04_1628,ACPT_experiment_5_30_19,3.1.0,59.94857123177912,
,,,C,D,g,b,,,,,,,,,,4,5,85,1,,,,,,,,,,,,,b,1,1.6178005271649454,1366.0693060759259,None,,,,,001,5,2019_Jun_04_1628,ACPT_experiment_5_30_19,3.1.0,59.94857123177912,
,,,C,U,y,n,,,,,,,,,,4,6,86,8,,,,,,,,,,,,,n,1,0.4003055410357774,1370.9730998921768,None,,,,,001,5,2019_Jun_04_1628,ACPT_experiment_5_30_19,3.1.0,59.94857123177912,
,,,C,G,d,b,,,,,,,,,,4,7,87,12,,,,,,,,,,,,,b,1,1.8845527606172254,1374.6761904991872,None,,,,,001,5,2019_Jun_04_1628,ACPT_experiment_5_30_19,3.1.0,59.94857123177912,
,,,C,G,g,v,,,,,,,,,,4,8,88,4,,,,,,,,,,,,,v,1,1.1008599340966612,1379.8299233400503,None,,,,,001,5,2019_Jun_04_1628,ACPT_experiment_5_30_19,3.1.0,59.94857123177912,
,,,C,U,g,n,,,,,,,,,,4,9,89,16,,,,,,,,,,,,,n,1,0.90031429492592,1384.233689083474,None,,,,,001,5,2019_Jun_04_1628,ACPT_experiment_5_30_19,3.1.0,59.94857123177912,
,,,C,U,y,n,,,,,,,,,,4,10,90,17,,,,,,,,,,,,,n,1,0.9674213326943573,1388.4031961366964,None,,,,,001,5,2019_Jun_04_1628,ACPT_experiment_5_30_19,3.1.0,59.94857123177912,
,,,C,D,d,v,,,,,,,,,,4,11,91,0,,,,,,,,,,,,,v,1,1.3843988128501223,1392.6731737267291,None,,,,,001,5,2019_Jun_04_1628,ACPT_experiment_5_30_19,3.1.0,59.94857123177912,
,,,C,U,d,n,,,,,,,,,,4,12,92,6,,,,,,,,,,,,,n,1,1.167576669002301,1397.3434281812551,None,,,,,001,5,2019_Jun_04_1628,ACPT_experiment_5_30_19,3.1.0,59.94857123177912,
,,,C,D,y,b,,,,,,,,,,4,13,93,11,,,,,,,,,,,,,b,1,0.8006424753366446,1401.7968662272397,None,,,,,001,5,2019_Jun_04_1628,ACPT_experiment_5_30_19,3.1.0,59.94857123177912,
,,,C,G,g,v,,,,,,,,,,4,14,94,19,,,,,,,,,,,,,v,1,1.3010140629776288,1405.8833450253114,None,,,,,001,5,2019_Jun_04_1628,ACPT_experiment_5_30_19,3.1.0,59.94857123177912,
,,,C,U,g,n,,,,,,,,,,4,15,95,7,,,,,,,,,,,,,n,1,1.6510133988886082,1410.4871692085144,None,,,,,001,5,2019_Jun_04_1628,ACPT_experiment_5_30_19,3.1.0,59.94857123177912,
,,,C,G,d,b,,,,,,,,,,4,16,96,3,,,,,,,,,,,,,b,1,1.3010185908497078,1415.4240364379257,None,,,,,001,5,2019_Jun_04_1628,ACPT_experiment_5_30_19,3.1.0,59.94857123177912,
,,,C,D,g,b,,,,,,,,,,4,17,97,10,,,,,,,,,,,,,v,0,5.020551422778226,1420.0109127834585,None,,,,,001,5,2019_Jun_04_1628,ACPT_experiment_5_30_19,3.1.0,59.94857123177912,
,,,C,D,y,b,,,,,,,,,,4,18,98,2,,,,,,,,,,,,,b,1,0.8173068680007418,1428.3006376455996,None,,,,,001,5,2019_Jun_04_1628,ACPT_experiment_5_30_19,3.1.0,59.94857123177912,
,,,C,U,d,n,,,,,,,,,,4,19,99,15,,,,,,,,,,,,,n,1,0.46677686509065097,1432.4207368241841,None,,,,,001,5,2019_Jun_04_1628,ACPT_experiment_5_30_19,3.1.0,59.94857123177912,
,,,C,U,g,n,,,,,,,,,,5,0,100,16,,,,,,,,,,,,,n,1,1.0675012647843687,1436.1566943732396,None,,,,,001,5,2019_Jun_04_1628,ACPT_experiment_5_30_19,3.1.0,59.94857123177912,
,,,C,G,d,b,,,,,,,,,,5,1,101,3,,,,,,,,,,,,,b,1,1.8848030011977244,1440.5100546001377,None,,,,,001,5,2019_Jun_04_1628,ACPT_experiment_5_30_19,3.1.0,59.94857123177912,
,,,C,G,g,v,,,,,,,,,,5,2,102,4,,,,,,,,,,,,,v,1,0.8339890703136916,1445.6640292295488,None,,,,,001,5,2019_Jun_04_1628,ACPT_experiment_5_30_19,3.1.0,59.94857123177912,
,,,C,D,d,v,,,,,,,,,,5,3,103,0,,,,,,,,,,,,,v,1,1.2509756062245287,1449.7838724322391,None,,,,,001,5,2019_Jun_04_1628,ACPT_experiment_5_30_19,3.1.0,59.94857123177912,
,,,C,D,d,v,,,,,,,,,,5,4,104,18,,,,,,,,,,,,,v,1,1.317704415461776,1454.304022081542,None,,,,,001,5,2019_Jun_04_1628,ACPT_experiment_5_30_19,3.1.0,59.94857123177912,
,,,C,G,y,b,,,,,,,,,,5,5,105,5,,,,,,,,,,,,,b,1,1.6177190254056768,1458.9244285519344,None,,,,,001,5,2019_Jun_04_1628,ACPT_experiment_5_30_19,3.1.0,59.94857123177912,
,,,C,U,g,n,,,,,,,,,,5,6,106,7,,,,,,,,,,,,,n,1,1.167576669005939,1463.8280376308685,None,,,,,001,5,2019_Jun_04_1628,ACPT_experiment_5_30_19,3.1.0,59.94857123177912,
,,,C,U,y,n,,,,,,,,,,5,7,107,8,,,,,,,,,,,,,n,1,0.6502376229036599,1468.281743425221,None,,,,,001,5,2019_Jun_04_1628,ACPT_experiment_5_30_19,3.1.0,59.94857123177912,
,,,C,U,d,n,,,,,,,,,,5,8,108,6,,,,,,,,,,,,,n,1,0.7339085345010972,1472.201158713502,None,,,,,001,5,2019_Jun_04_1628,ACPT_experiment_5_30_19,3.1.0,59.94857123177912,
,,,C,D,y,b,,,,,,,,,,5,9,109,11,,,,,,,,,,,,,b,1,0.9005518574558664,1476.2209343602954,None,,,,,001,5,2019_Jun_04_1628,ACPT_experiment_5_30_19,3.1.0,59.94857123177912,
,,,C,U,y,n,,,,,,,,,,5,10,110,17,,,,,,,,,,,,,n,1,1.0007963023563207,1480.4074822235598,None,,,,,001,5,2019_Jun_04_1628,ACPT_experiment_5_30_19,3.1.0,59.94857123177912,
,,,C,D,y,b,,,,,,,,,,5,11,111,2,,,,,,,,,,,,,b,1,1.3174553823155293,1484.7110524231357,None,,,,,001,5,2019_Jun_04_1628,ACPT_experiment_5_30_19,3.1.0,59.94857123177912,
,,,C,D,g,b,,,,,,,,,,5,12,112,1,,,,,,,,,,,,,b,1,3.0190062098299677,1489.297679131807,None,,,,,001,5,2019_Jun_04_1628,ACPT_experiment_5_30_19,3.1.0,59.94857123177912,
,,,C,D,d,v,,,,,,,,,,5,13,113,9,,,,,,,,,,,,,b,0,0.8673432117502671,1495.585858177281,None,,,,,001,5,2019_Jun_04_1628,ACPT_experiment_5_30_19,3.1.0,59.94857123177912,
,,,C,G,d,b,,,,,,,,,,5,14,114,12,,,,,,,,,,,,,b,1,1.417376536912343,1499.7561657588776,None,,,,,001,5,2019_Jun_04_1628,ACPT_experiment_5_30_19,3.1.0,59.94857123177912,
,,,C,D,g,b,,,,,,,,,,5,15,115,10,,,,,,,,,,,,,v,0,1.167580593162711,1504.4593704683502,None,,,,,001,5,2019_Jun_04_1628,ACPT_experiment_5_30_19,3.1.0,59.94857123177912,
,,,C,G,g,v,,,,,,,,,,5,16,116,13,,,,,,,,,,,,,v,1,1.5345422559439612,1508.9127891954013,None,,,,,001,5,2019_Jun_04_1628,ACPT_experiment_5_30_19,3.1.0,59.94857123177912,
,,,C,G,y,b,,,,,,,,,,5,17,117,14,,,,,,,,,,,,,b,1,1.0341685552921263,1513.7331858855869,None,,,,,001,5,2019_Jun_04_1628,ACPT_experiment_5_30_19,3.1.0,59.94857123177912,
,,,C,G,g,v,,,,,,,,,,5,18,118,19,,,,,,,,,,,,,v,1,1.7344392015002086,1518.0701078117308,None,,,,,001,5,2019_Jun_04_1628,ACPT_experiment_5_30_19,3.1.0,59.94857123177912,
,,,C,U,d,n,,,,,,,,,,5,19,119,15,0,0,0,0,0,0,0,0,,,,,n,1,0.9507083408279868,1523.0904418964892,None,,,,,001,5,2019_Jun_04_1628,ACPT_experiment_5_30_19,3.1.0,59.94857123177912,
,,,C,U,d,n,L,U,y,L,u,,,,,5,19,119,15,0,0,0,0,,,,,0,0,0,24,,,,,,down,1.6979070952402253,1566.844238670954,None,001,5,2019_Jun_04_1628,ACPT_experiment_5_30_19,3.1.0,59.94857123177912,
,,,C,U,d,n,L,D,g,R,i,,,,,5,19,119,15,0,0,0,0,,,,,0,1,1,15,,,,,,down,2.068076908679359,1569.8266089352474,None,001,5,2019_Jun_04_1628,ACPT_experiment_5_30_19,3.1.0,59.94857123177912,
,,,C,U,d,n,L,U,y,R,u,,,,,5,19,119,15,0,0,0,0,,,,,0,2,2,25,,,,,,down,1.9681940900991322,1573.1790318919375,None,001,5,2019_Jun_04_1628,ACPT_experiment_5_30_19,3.1.0,59.94857123177912,
,,,C,U,d,n,R,G,g,R,c ,,,,,5,19,119,15,0,0,0,0,,,,,0,3,3,7,,,,,,up,2.568648628413939,1576.4315385237678,None,001,5,2019_Jun_04_1628,ACPT_experiment_5_30_19,3.1.0,59.94857123177912,
,,,C,U,d,n,L,G,y,R,y,,,,,5,19,119,15,0,0,0,0,,,,,0,4,4,35,,,,,,down,1.1175182896004117,1580.2845099570986,None,001,5,2019_Jun_04_1628,ACPT_experiment_5_30_19,3.1.0,59.94857123177912,
,,,C,U,d,n,R,G,y,R,y,,,,,5,19,119,15,0,0,0,0,,,,,0,5,5,29,,,,,,down,0.917380461072753,1582.6863576924989,None,001,5,2019_Jun_04_1628,ACPT_experiment_5_30_19,3.1.0,59.94857123177912,
,,,C,U,d,n,L,U,g,R,u,,,,,5,19,119,15,0,0,0,0,,,,,0,6,6,23,,,,,,down,1.250959909586527,1584.8880633733497,None,001,5,2019_Jun_04_1628,ACPT_experiment_5_30_19,3.1.0,59.94857123177912,
,,,C,U,d,n,R,U,y,L,u,,,,,5,19,119,15,0,0,0,0,,,,,0,7,7,30,,,,,,down,1.75137375740087,1587.423346691572,None,001,5,2019_Jun_04_1628,ACPT_experiment_5_30_19,3.1.0,59.94857123177912,
,,,C,U,d,n,R,D,d,L,c,,,,,5,19,119,15,0,0,0,0,,,,,0,8,8,0,,,,,,up,2.3684984236970195,1590.4590188033617,None,001,5,2019_Jun_04_1628,ACPT_experiment_5_30_19,3.1.0,59.94857123177912,
,,,C,U,d,n,R,D,y,R,y,,,,,5,19,119,15,0,0,0,0,,,,,0,9,9,27,,,,,,down,0.9007163702626713,1594.0951373032913,None,001,5,2019_Jun_04_1628,ACPT_experiment_5_30_19,3.1.0,59.94857123177912,
,,,C,U,d,n,R,G,d,L,i,,,,,5,19,119,15,0,0,0,0,,,,,0,10,10,4,,,,,,down,2.185012611640559,1596.2801797989123,None,001,5,2019_Jun_04_1628,ACPT_experiment_5_30_19,3.1.0,59.94857123177912,
,,,C,U,d,n,R,D,g,R,i,,,,,5,19,119,15,0,0,0,0,,,,,0,11,11,3,,,,,,down,1.984862708781293,1599.7495161210463,None,001,5,2019_Jun_04_1628,ACPT_experiment_5_30_19,3.1.0,59.94857123177912,
,,,C,U,d,n,L,D,g,L,i,,,,,5,19,119,15,0,0,0,0,,,,,0,12,12,14,,,,,,down,3.48602124116951,1603.018705860759,None,001,5,2019_Jun_04_1628,ACPT_experiment_5_30_19,3.1.0,59.94857123177912,
,,,C,U,d,n,L,G,y,L,y,,,,,5,19,119,15,0,0,0,0,,,,,0,13,13,34,,,,,,down,0.8172941899501893,1607.78904930313,None,001,5,2019_Jun_04_1628,ACPT_experiment_5_30_19,3.1.0,59.94857123177912,
,,,C,U,d,n,L,U,d,L,u,,,,,5,19,119,15,0,0,0,0,,,,,0,14,14,20,,,,,,down,1.1008523876407708,1609.8906717314458,None,001,5,2019_Jun_04_1628,ACPT_experiment_5_30_19,3.1.0,59.94857123177912,
,,,C,U,d,n,R,U,g,L,u,,,,,5,19,119,15,0,0,0,0,,,,,0,15,15,10,,,,,,down,1.0174492244077555,1612.2758460184268,None,001,5,2019_Jun_04_1628,ACPT_experiment_5_30_19,3.1.0,59.94857123177912,
,,,C,U,d,n,L,G,d,L,i,,,,,5,19,119,15,0,0,0,0,,,,,0,16,16,16,,,,,,down,1.8514228999410989,1614.5776213681893,None,001,5,2019_Jun_04_1628,ACPT_experiment_5_30_19,3.1.0,59.94857123177912,
,,,C,U,d,n,L,U,g,L,u,,,,,5,19,119,15,0,0,0,0,,,,,0,17,17,22,,,,,,down,0.9674080509248597,1617.7133703934887,None,001,5,2019_Jun_04_1628,ACPT_experiment_5_30_19,3.1.0,59.94857123177912,
,,,C,U,d,n,R,D,y,L,y,,,,,5,19,119,15,0,0,0,0,,,,,0,18,18,26,,,,,,down,0.9507237356046971,1619.981788885092,None,001,5,2019_Jun_04_1628,ACPT_experiment_5_30_19,3.1.0,59.94857123177912,
,,,C,U,d,n,L,G,d,R,i,,,,,5,19,119,15,0,0,0,0,,,,,0,19,19,17,,,,,,down,1.5845505268625857,1622.2335215520834,None,001,5,2019_Jun_04_1628,ACPT_experiment_5_30_19,3.1.0,59.94857123177912,
,,,C,U,d,n,R,D,g,L,i,,,,,5,19,119,15,0,0,0,0,,,,,0,20,20,2,,,,,,down,1.4511230942189286,1625.1023979024467,None,001,5,2019_Jun_04_1628,ACPT_experiment_5_30_19,3.1.0,59.94857123177912,
,,,C,U,d,n,R,U,d,R,u,,,,,5,19,119,15,0,0,0,0,,,,,0,21,21,9,,,,,,down,0.7839427652397717,1627.837835047685,None,001,5,2019_Jun_04_1628,ACPT_experiment_5_30_19,3.1.0,59.94857123177912,
,,,C,U,d,n,L,D,y,L,y,,,,,5,19,119,15,0,0,0,0,,,,,0,22,22,32,,,,,,down,0.9840896495188645,1629.9061000141264,None,001,5,2019_Jun_04_1628,ACPT_experiment_5_30_19,3.1.0,59.94857123177912,
,,,C,U,d,n,L,U,d,R,u,,,,,5,19,119,15,0,0,0,0,,,,,0,23,23,21,,,,,,down,0.8673314392726752,1632.1745212224523,None,001,5,2019_Jun_04_1628,ACPT_experiment_5_30_19,3.1.0,59.94857123177912,
,,,C,U,d,n,R,D,d,R,c ,,,,,5,19,119,15,0,0,0,0,,,,,0,24,24,1,,,,,,up,1.367712988241692,1634.326178183368,None,001,5,2019_Jun_04_1628,ACPT_experiment_5_30_19,3.1.0,59.94857123177912,
,,,C,U,d,n,L,G,g,L,c ,,,,,5,19,119,15,0,0,0,0,,,,,0,25,25,18,,,,,,up,1.1675956860817678,1636.9781955631624,None,001,5,2019_Jun_04_1628,ACPT_experiment_5_30_19,3.1.0,59.94857123177912,
,,,C,U,d,n,L,G,g,R,c ,,,,,5,19,119,15,0,0,0,0,,,,,0,26,26,19,,,,,,up,1.0174812213917903,1639.4134095143345,None,001,5,2019_Jun_04_1628,ACPT_experiment_5_30_19,3.1.0,59.94857123177912,
,,,C,U,d,n,L,D,d,R,c ,,,,,5,19,119,15,0,0,0,0,,,,,0,27,27,13,,,,,,up,0.9173714053213189,1641.7152087109062,None,001,5,2019_Jun_04_1628,ACPT_experiment_5_30_19,3.1.0,59.94857123177912,
,,,C,U,d,n,R,U,d,L,u,,,,,5,19,119,15,0,0,0,0,,,,,0,28,28,8,,,,,,down,0.8840196787496097,1643.9169050341516,None,001,5,2019_Jun_04_1628,ACPT_experiment_5_30_19,3.1.0,59.94857123177912,
,,,C,U,d,n,R,G,y,L,y,,,,,5,19,119,15,0,0,0,0,,,,,0,29,29,28,,,,,,down,1.000760984927183,1646.1019251922517,None,001,5,2019_Jun_04_1628,ACPT_experiment_5_30_19,3.1.0,59.94857123177912,
,,,C,U,d,n,L,D,d,L,c ,,,,,5,19,119,15,0,0,0,0,,,,,0,30,30,12,,,,,,up,2.468569300035597,1648.4036993345835,None,001,5,2019_Jun_04_1628,ACPT_experiment_5_30_19,3.1.0,59.94857123177912,
,,,C,U,d,n,R,G,d,R,i,,,,,5,19,119,15,0,0,0,0,,,,,0,31,31,5,,,,,,down,1.1342107550917717,1652.156594759981,None,001,5,2019_Jun_04_1628,ACPT_experiment_5_30_19,3.1.0,59.94857123177912,
,,,C,U,d,n,L,D,y,R,y,,,,,5,19,119,15,0,0,0,0,,,,,0,32,32,33,,,,,,down,1.084166261171049,1654.5918023721242,None,001,5,2019_Jun_04_1628,ACPT_experiment_5_30_19,3.1.0,59.94857123177912,
,,,C,U,d,n,R,U,g,R,u,,,,,5,19,119,15,0,0,0,0,,,,,0,33,33,11,,,,,,down,0.6171328164709848,1656.9769826962693,None,001,5,2019_Jun_04_1628,ACPT_experiment_5_30_19,3.1.0,59.94857123177912,
,,,C,U,d,n,R,U,y,R,u,,,,,5,19,119,15,0,0,0,0,,,,,0,34,34,31,,,,,,down,0.7339015917605138,1658.878441336241,None,001,5,2019_Jun_04_1628,ACPT_experiment_5_30_19,3.1.0,59.94857123177912,
,,,C,U,d,n,R,G,g,L,c ,,,,,5,19,119,15,0,0,0,0,,,,,0,35,35,6,,,,,,up,1.1842507211404154,1660.8966630161922,None,001,5,2019_Jun_04_1628,ACPT_experiment_5_30_19,3.1.0,59.94857123177912,
,,,C,U,d,n,R,U,g,L,u,,,,,5,19,119,15,0,0,0,0,,,,,1,0,36,10,,,,,,down,0.9507373192318482,1663.3652350329576,None,001,5,2019_Jun_04_1628,ACPT_experiment_5_30_19,3.1.0,59.94857123177912,
,,,C,U,d,n,L,U,d,L,u,,,,,5,19,119,15,0,0,0,0,,,,,1,1,37,20,,,,,,down,0.8173026419826783,1665.6002903273693,None,001,5,2019_Jun_04_1628,ACPT_experiment_5_30_19,3.1.0,59.94857123177912,
,,,C,U,d,n,L,D,d,R,c ,,,,,5,19,119,15,0,0,0,0,,,,,1,2,38,13,,,,,,down,3.6194640685898776,1667.7019088315283,None,001,5,2019_Jun_04_1628,ACPT_experiment_5_30_19,3.1.0,59.94857123177912,
,,,C,U,d,n,L,U,y,R,u,,,,,5,19,119,15,0,0,0,0,,,,,1,3,39,25,,,,,,down,0.7339018936181674,1672.6056929883125,None,001,5,2019_Jun_04_1628,ACPT_experiment_5_30_19,3.1.0,59.94857123177912,
,,,C,U,d,n,R,U,y,R,u,,,,,5,19,119,15,0,0,0,0,,,,,1,4,40,31,,,,,,down,0.8673263076816511,1674.6405995872992,None,001,5,2019_Jun_04_1628,ACPT_experiment_5_30_19,3.1.0,59.94857123177912,
,,,C,U,d,n,R,U,d,R,u,,,,,5,19,119,15,0,0,0,0,,,,,1,5,41,9,,,,,,down,0.5003788322428591,1676.8089366375134,None,001,5,2019_Jun_04_1628,ACPT_experiment_5_30_19,3.1.0,59.94857123177912,
,,,C,U,d,n,R,G,g,R,c ,,,,,5,19,119,15,0,0,0,0,,,,,1,6,42,7,,,,,,up,0.95046323184215,1678.6105930550839,None,001,5,2019_Jun_04_1628,ACPT_experiment_5_30_19,3.1.0,59.94857123177912,
,,,C,U,d,n,R,D,y,L,y,,,,,5,19,119,15,0,0,0,0,,,,,1,7,43,26,,,,,,down,0.8172875490636216,1680.8453866382988,None,001,5,2019_Jun_04_1628,ACPT_experiment_5_30_19,3.1.0,59.94857123177912,
,,,C,U,d,n,R,D,d,R,c ,,,,,5,19,119,15,0,0,0,0,,,,,1,8,44,1,,,,,,up,0.9674162010996952,1682.9469945774144,None,001,5,2019_Jun_04_1628,ACPT_experiment_5_30_19,3.1.0,59.94857123177912,
,,,C,U,d,n,L,D,g,L,i,,,,,5,19,119,15,0,0,0,0,,,,,1,9,45,14,,,,,,down,1.150879071919917,1685.1987420354671,None,001,5,2019_Jun_04_1628,ACPT_experiment_5_30_19,3.1.0,59.94857123177912,
,,,C,U,d,n,L,G,g,L,c ,,,,,5,19,119,15,0,0,0,0,,,,,1,10,46,18,,,,,,up,1.0341305211404688,1687.6339481383184,None,001,5,2019_Jun_04_1628,ACPT_experiment_5_30_19,3.1.0,59.94857123177912,
,,,C,U,d,n,L,D,d,L,c ,,,,,5,19,119,15,0,0,0,0,,,,,1,11,47,12,,,,,,up,1.1675679151121585,1689.952398445792,None,001,5,2019_Jun_04_1628,ACPT_experiment_5_30_19,3.1.0,59.94857123177912,
,,,C,U,d,n,R,U,g,R,u,,,,,5,19,119,15,0,0,0,0,,,,,1,12,48,11,,,,,,down,0.8006165155129565,1692.4042915806858,None,001,5,2019_Jun_04_1628,ACPT_experiment_5_30_19,3.1.0,59.94857123177912,
,,,C,U,d,n,L,G,d,R,i,,,,,5,19,119,15,0,0,0,0,,,,,1,13,49,17,,,,,,down,1.5511960835683567,1694.489234825276,None,001,5,2019_Jun_04_1628,ACPT_experiment_5_30_19,3.1.0,59.94857123177912,
,,,C,U,d,n,R,D,y,R,y,,,,,5,19,119,15,0,0,0,0,,,,,1,14,50,27,,,,,,down,0.8673447210421728,1697.3414286714724,None,001,5,2019_Jun_04_1628,ACPT_experiment_5_30_19,3.1.0,59.94857123177912,
,,,C,U,d,n,L,D,y,R,y,,,,,5,19,119,15,0,0,0,0,,,,,1,15,51,33,,,,,,down,0.6505331422376912,1699.5097729662884,None,001,5,2019_Jun_04_1628,ACPT_experiment_5_30_19,3.1.0,59.94857123177912,
,,,C,U,d,n,R,G,d,R,i,,,,,5,19,119,15,0,0,0,0,,,,,1,16,52,5,,,,,,down,1.5178697131013905,1701.4445727677848,None,001,5,2019_Jun_04_1628,ACPT_experiment_5_30_19,3.1.0,59.94857123177912,
,,,C,U,d,n,L,G,g,R,c ,,,,,5,19,119,15,0,0,0,0,,,,,1,17,53,19,,,,,,up,0.9340810767389485,1704.2467571356283,None,001,5,2019_Jun_04_1628,ACPT_experiment_5_30_19,3.1.0,59.94857123177912,
,,,C,U,d,n,R,U,d,L,u,,,,,5,19,119,15,0,0,0,0,,,,,1,18,54,8,,,,,,down,0.7005429224482214,1706.4651302277343,None,001,5,2019_Jun_04_1628,ACPT_experiment_5_30_19,3.1.0,59.94857123177912,
,,,C,U,d,n,L,G,y,R,y,,,,,5,19,119,15,0,0,0,0,,,,,1,19,55,35,,,,,,down,0.8673260058203596,1708.4666784592664,None,001,5,2019_Jun_04_1628,ACPT_experiment_5_30_19,3.1.0,59.94857123177912,
,,,C,U,d,n,R,G,y,R,y,,,,,5,19,119,15,0,0,0,0,,,,,1,20,56,29,,,,,,down,0.617138551780954,1710.6350197354986,None,001,5,2019_Jun_04_1628,ACPT_experiment_5_30_19,3.1.0,59.94857123177912,
,,,C,U,d,n,R,D,g,L,i,,,,,5,19,119,15,0,0,0,0,,,,,1,21,57,2,,,,,,up,1.2509408925106982,1712.536488034937,None,001,5,2019_Jun_04_1628,ACPT_experiment_5_30_19,3.1.0,59.94857123177912,
,,,C,U,d,n,R,G,g,L,c ,,,,,5,19,119,15,0,0,0,0,,,,,1,22,58,6,,,,,,up,0.9003979096924013,1715.0887427357775,None,001,5,2019_Jun_04_1628,ACPT_experiment_5_30_19,3.1.0,59.94857123177912,
,,,C,U,d,n,L,U,d,R,u,,,,,5,19,119,15,0,0,0,0,,,,,1,23,59,21,,,,,,down,0.8006177229508467,1717.2734679782589,None,001,5,2019_Jun_04_1628,ACPT_experiment_5_30_19,3.1.0,59.94857123177912,
,,,C,U,d,n,R,G,d,L,i,,,,,5,19,119,15,0,0,0,0,,,,,1,24,60,4,,,,,,down,1.134209849518811,1719.358408204269,None,001,5,2019_Jun_04_1628,ACPT_experiment_5_30_19,3.1.0,59.94857123177912,
,,,C,U,d,n,L,U,g,R,u,,,,,5,19,119,15,0,0,0,0,,,,,1,25,61,23,,,,,,down,0.6504981266662071,1721.7769426698505,None,001,5,2019_Jun_04_1628,ACPT_experiment_5_30_19,3.1.0,59.94857123177912,
,,,C,U,d,n,L,G,y,L,y,,,,,5,19,119,15,0,0,0,0,,,,,1,26,62,34,,,,,,down,0.9340527020540321,1723.7117672237364,None,001,5,2019_Jun_04_1628,ACPT_experiment_5_30_19,3.1.0,59.94857123177912,
,,,C,U,d,n,R,D,g,R,i,,,,,5,19,119,15,0,0,0,0,,,,,1,27,63,3,,,,,,down,1.4677995612182713,1725.9301424288496,None,001,5,2019_Jun_04_1628,ACPT_experiment_5_30_19,3.1.0,59.94857123177912,
,,,C,U,d,n,R,U,y,L,u,,,,,5,19,119,15,0,0,0,0,,,,,1,28,64,30,,,,,,down,1.0338884307348053,1728.6991878802655,None,001,5,2019_Jun_04_1628,ACPT_experiment_5_30_19,3.1.0,59.94857123177912,
,,,C,U,d,n,L,D,y,L,y,,,,,5,19,119,15,0,0,0,0,,,,,1,29,65,32,,,,,,down,0.8673456266151334,1731.0173873434396,None,001,5,2019_Jun_04_1628,ACPT_experiment_5_30_19,3.1.0,59.94857123177912,
,,,C,U,d,n,R,G,y,L,y,,,,,5,19,119,15,0,0,0,0,,,,,1,30,66,28,,,,,,down,0.7839557451479777,1733.1690361541769,None,001,5,2019_Jun_04_1628,ACPT_experiment_5_30_19,3.1.0,59.94857123177912,
,,,C,U,d,n,L,U,y,L,u,,,,,5,19,119,15,0,0,0,0,,,,,1,31,67,24,,,,,,down,0.5337797617248725,1735.2373156098183,None,001,5,2019_Jun_04_1628,ACPT_experiment_5_30_19,3.1.0,59.94857123177912,
,,,C,U,d,n,L,U,g,L,u,,,,,5,19,119,15,0,0,0,0,,,,,1,32,68,22,,,,,,down,1.1476002864037582,1737.07539486092,None,001,5,2019_Jun_04_1628,ACPT_experiment_5_30_19,3.1.0,59.94857123177912,
,,,C,U,d,n,R,D,d,L,c,,,,,5,19,119,15,0,0,0,0,,,,,1,33,69,0,,,,,,up,1.6512868825629994,1739.5072708623375,None,001,5,2019_Jun_04_1628,ACPT_experiment_5_30_19,3.1.0,59.94857123177912,
,,,C,U,d,n,L,G,d,L,i,,,,,5,19,119,15,0,0,0,0,,,,,1,34,70,16,,,,,,down,1.0174486206888105,1742.4428760219416,None,001,5,2019_Jun_04_1628,ACPT_experiment_5_30_19,3.1.0,59.94857123177912,
,,,C,U,d,n,L,D,g,R,i,,,,,5,19,119,15,0,0,0,0,,,,,1,35,71,15,,,,,,down,1.334361865388928,1744.7446489568356,None,001,5,2019_Jun_04_1628,ACPT_experiment_5_30_19,3.1.0,59.94857123177912,
,,,C,U,d,n,,,,,,,,,,5,19,119,15,1,0,1,0,0,0,0,0,,,,,,,,,,,,,,001,5,2019_Jun_04_1628,ACPT_experiment_5_30_19,3.1.0,59.94857123177912,
,,,C,U,d,n,L,D,g,R,i,,,,,5,19,119,15,1,0,1,0,,,,,0,0,0,15,,,,,,down,2.515288220398361,1756.6905182062837,None,001,5,2019_Jun_04_1628,ACPT_experiment_5_30_19,3.1.0,59.94857123177912,
,,,C,U,d,n,R,G,d,L,i,,,,,5,19,119,15,1,0,1,0,,,,,0,1,1,4,,,,,,down,1.8847882101363211,1760.4901210814241,None,001,5,2019_Jun_04_1628,ACPT_experiment_5_30_19,3.1.0,59.94857123177912,
,,,C,U,d,n,R,U,g,R,u,,,,,5,19,119,15,1,0,1,0,,,,,0,2,2,11,,,,,,down,0.6671878754386853,1763.659233002054,None,001,5,2019_Jun_04_1628,ACPT_experiment_5_30_19,3.1.0,59.94857123177912,
,,,C,U,d,n,L,G,y,R,y,,,,,5,19,119,15,1,0,1,0,,,,,0,3,3,35,,,,,,down,0.884030545654241,1765.6107144021444,None,001,5,2019_Jun_04_1628,ACPT_experiment_5_30_19,3.1.0,59.94857123177912,
,,,C,U,d,n,L,D,y,L,y,,,,,5,19,119,15,1,0,1,0,,,,,0,4,4,32,,,,,,down,1.4344650405764696,1767.7790526597928,None,001,5,2019_Jun_04_1628,ACPT_experiment_5_30_19,3.1.0,59.94857123177912,
,,,C,U,d,n,L,D,y,R,y,,,,,5,19,119,15,1,0,1,0,,,,,0,5,5,33,,,,,,down,0.7338946490199305,1770.4978408071438,None,001,5,2019_Jun_04_1628,ACPT_experiment_5_30_19,3.1.0,59.94857123177912,
,,,C,U,d,n,R,D,y,R,y,,,,,5,19,119,15,1,0,1,0,,,,,0,6,6,27,,,,,,down,1.3343615635276365,1772.516061883376,None,001,5,2019_Jun_04_1628,ACPT_experiment_5_30_19,3.1.0,59.94857123177912,
,,,C,U,d,n,L,G,g,R,c ,,,,,5,19,119,15,1,0,1,0,,,,,0,7,7,19,,,,,,up,0.9840959885441407,1775.1347453462477,None,001,5,2019_Jun_04_1628,ACPT_experiment_5_30_19,3.1.0,59.94857123177912,
,,,C,U,d,n,L,G,d,L,i,,,,,5,19,119,15,1,0,1,0,,,,,0,8,8,16,,,,,,down,0.8673525693557167,1777.3864617128893,None,001,5,2019_Jun_04_1628,ACPT_experiment_5_30_19,3.1.0,59.94857123177912,
,,,C,U,d,n,R,G,y,R,y,,,,,5,19,119,15,1,0,1,0,,,,,0,9,9,29,,,,,,down,0.7338952527315996,1779.5381416150376,None,001,5,2019_Jun_04_1628,ACPT_experiment_5_30_19,3.1.0,59.94857123177912,
,,,C,U,d,n,R,G,d,R,i,,,,,5,19,119,15,1,0,1,0,,,,,0,10,10,5,,,,,,down,0.8840145471585856,1781.556366011715,None,001,5,2019_Jun_04_1628,ACPT_experiment_5_30_19,3.1.0,59.94857123177912,
,,,C,U,d,n,R,U,g,L,u,,,,,5,19,119,15,1,0,1,0,,,,,0,11,11,10,,,,,,down,0.7005396020067565,1783.7247033637868,None,001,5,2019_Jun_04_1628,ACPT_experiment_5_30_19,3.1.0,59.94857123177912,
,,,C,U,d,n,L,U,g,L,u,,,,,5,19,119,15,1,0,1,0,,,,,0,12,12,22,,,,,,down,0.567125451125321,1785.6928663624712,None,001,5,2019_Jun_04_1628,ACPT_experiment_5_30_19,3.1.0,59.94857123177912,
,,,C,U,d,n,R,D,y,L,y,,,,,5,19,119,15,1,0,1,0,,,,,0,13,13,26,,,,,,down,1.0007944912067614,1787.5443149203747,None,001,5,2019_Jun_04_1628,ACPT_experiment_5_30_19,3.1.0,59.94857123177912,
,,,C,U,d,n,L,U,d,R,u,,,,,5,19,119,15,1,0,1,0,,,,,0,14,14,21,,,,,,down,0.5170640531359822,1789.829408067828,None,001,5,2019_Jun_04_1628,ACPT_experiment_5_30_19,3.1.0,59.94857123177912,
,,,C,U,d,n,R,D,g,R,i,,,,,5,19,119,15,1,0,1,0,,,,,0,15,15,3,,,,,,down,2.001537062773423,1791.630802774198,None,001,5,2019_Jun_04_1628,ACPT_experiment_5_30_19,3.1.0,59.94857123177912,
,,,C,U,d,n,L,D,g,L,i,,,,,5,19,119,15,1,0,1,0,,,,,0,16,16,14,,,,,,down,1.3176847946706403,1794.916668075337,None,001,5,2019_Jun_04_1628,ACPT_experiment_5_30_19,3.1.0,59.94857123177912,
,,,C,U,d,n,R,D,g,L,i,,,,,5,19,119,15,1,0,1,0,,,,,0,17,17,2,,,,,,down,0.850540266095777,1797.5186720526253,None,001,5,2019_Jun_04_1628,ACPT_experiment_5_30_19,3.1.0,59.94857123177912,
,,,C,U,d,n,R,D,d,L,c,,,,,5,19,119,15,1,0,1,0,,,,,0,18,18,0,,,,,,up,0.7839527265678043,1799.636955855025,None,001,5,2019_Jun_04_1628,ACPT_experiment_5_30_19,3.1.0,59.94857123177912,
,,,C,U,d,n,R,G,y,L,y,,,,,5,19,119,15,1,0,1,0,,,,,0,19,19,28,,,,,,down,0.7505843977851328,1801.7219232482857,None,001,5,2019_Jun_04_1628,ACPT_experiment_5_30_19,3.1.0,59.94857123177912,
,,,C,U,d,n,L,U,g,R,u,,,,,5,19,119,15,1,0,1,0,,,,,0,20,20,23,,,,,,down,0.6171370424890483,1803.77349906967,None,001,5,2019_Jun_04_1628,ACPT_experiment_5_30_19,3.1.0,59.94857123177912,
,,,C,U,d,n,R,D,d,R,c ,,,,,5,19,119,15,1,0,1,0,,,,,0,21,21,1,,,,,,up,1.3010025923576904,1805.6749586152182,None,001,5,2019_Jun_04_1628,ACPT_experiment_5_30_19,3.1.0,59.94857123177912,
,,,C,U,d,n,L,U,y,L,u,,,,,5,19,119,15,1,0,1,0,,,,,0,22,22,24,,,,,,down,0.6338186410830531,1808.2602897478027,None,001,5,2019_Jun_04_1628,ACPT_experiment_5_30_19,3.1.0,59.94857123177912,
,,,C,U,d,n,L,G,g,L,c ,,,,,5,19,119,15,1,0,1,0,,,,,0,23,23,18,,,,,,up,0.8673365708636993,1810.178431193799,None,001,5,2019_Jun_04_1628,ACPT_experiment_5_30_19,3.1.0,59.94857123177912,
,,,C,U,d,n,L,G,y,L,y,,,,,5,19,119,15,1,0,1,0,,,,,0,24,24,34,,,,,,down,0.7336924039154837,1812.3636170721402,None,001,5,2019_Jun_04_1628,ACPT_experiment_5_30_19,3.1.0,59.94857123177912,
,,,C,U,d,n,L,U,d,L,u,,,,,5,19,119,15,1,0,1,0,,,,,0,25,25,20,,,,,,down,1.084158412853867,1814.4150365308997,None,001,5,2019_Jun_04_1628,ACPT_experiment_5_30_19,3.1.0,59.94857123177912,
,,,C,U,d,n,L,U,y,R,u,,,,,5,19,119,15,1,0,1,0,,,,,0,26,26,25,,,,,,down,0.7672542239051836,1816.7835274081335,None,001,5,2019_Jun_04_1628,ACPT_experiment_5_30_19,3.1.0,59.94857123177912,
,,,C,U,d,n,L,D,d,L,c ,,,,,5,19,119,15,1,0,1,0,,,,,0,27,27,12,,,,,,up,1.184234722648398,1818.835118624298,None,001,5,2019_Jun_04_1628,ACPT_experiment_5_30_19,3.1.0,59.94857123177912,
,,,C,U,d,n,L,D,d,R,c ,,,,,5,19,119,15,1,0,1,0,,,,,0,28,28,13,,,,,,up,0.6338246782506758,1821.3036776611516,None,001,5,2019_Jun_04_1628,ACPT_experiment_5_30_19,3.1.0,59.94857123177912,
,,,C,U,d,n,L,G,d,R,i,,,,,5,19,119,15,1,0,1,0,,,,,0,29,29,17,,,,,,down,0.700561335808743,1823.2051239249304,None,001,5,2019_Jun_04_1628,ACPT_experiment_5_30_19,3.1.0,59.94857123177912,
,,,C,U,d,n,R,G,g,R,c ,,,,,5,19,119,15,1,0,1,0,,,,,0,30,30,7,,,,,,up,0.7839364262144954,1825.190008065656,None,001,5,2019_Jun_04_1628,ACPT_experiment_5_30_19,3.1.0,59.94857123177912,
,,,C,U,d,n,R,U,y,L,u,,,,,5,19,119,15,1,0,1,0,,,,,0,31,31,30,,,,,,down,0.5337504814633576,1827.2582682023603,None,001,5,2019_Jun_04_1628,ACPT_experiment_5_30_19,3.1.0,59.94857123177912,
,,,C,U,d,n,R,U,d,L,u,,,,,5,19,119,15,1,0,1,0,,,,,0,32,32,8,,,,,,down,0.583788032647135,1829.0763360552883,None,001,5,2019_Jun_04_1628,ACPT_experiment_5_30_19,3.1.0,59.94857123177912,
,,,C,U,d,n,R,U,y,R,u,,,,,5,19,119,15,1,0,1,0,,,,,0,33,33,31,,,,,,down,0.650509899143799,1830.9444351203747,None,001,5,2019_Jun_04_1628,ACPT_experiment_5_30_19,3.1.0,59.94857123177912,
,,,C,U,d,n,R,U,d,R,u,,,,,5,19,119,15,1,0,1,0,,,,,0,34,34,9,,,,,,down,0.6171418722224189,1832.8959488193104,None,001,5,2019_Jun_04_1628,ACPT_experiment_5_30_19,3.1.0,59.94857123177912,
,,,C,U,d,n,R,G,g,L,c ,,,,,5,19,119,15,1,0,1,0,,,,,0,35,35,6,,,,,,up,0.8506495388210169,1834.7974128927308,None,001,5,2019_Jun_04_1628,ACPT_experiment_5_30_19,3.1.0,59.94857123177912,
,,,C,U,d,n,R,D,g,R,i,,,,,5,19,119,15,1,0,1,0,,,,,1,0,36,3,,,,,,down,1.034131728574721,1836.9323903680597,None,001,5,2019_Jun_04_1628,ACPT_experiment_5_30_19,3.1.0,59.94857123177912,
,,,C,U,d,n,L,D,g,L,i,,,,,5,19,119,15,1,0,1,0,,,,,1,1,37,14,,,,,,down,1.4843607183283893,1839.250850938719,None,001,5,2019_Jun_04_1628,ACPT_experiment_5_30_19,3.1.0,59.94857123177912,
,,,C,U,d,n,R,U,d,L,u,,,,,5,19,119,15,1,0,1,0,,,,,1,2,38,8,,,,,,down,0.7005685804069799,1842.0196458476967,None,001,5,2019_Jun_04_1628,ACPT_experiment_5_30_19,3.1.0,59.94857123177912,
,,,C,U,d,n,L,D,d,L,c ,,,,,5,19,119,15,1,0,1,0,,,,,1,3,39,12,,,,,,up,1.4845062140557275,1843.9878112612496,None,001,5,2019_Jun_04_1628,ACPT_experiment_5_30_19,3.1.0,59.94857123177912,
,,,C,U,d,n,L,G,y,L,y,,,,,5,19,119,15,1,0,1,0,,,,,1,4,40,34,,,,,,down,0.7338964601694897,1846.7566351486275,None,001,5,2019_Jun_04_1628,ACPT_experiment_5_30_19,3.1.0,59.94857123177912,
,,,C,U,d,n,R,U,g,R,u,,,,,5,19,119,15,1,0,1,0,,,,,1,5,41,11,,,,,,down,0.5337402182776714,1848.774857432294,None,001,5,2019_Jun_04_1628,ACPT_experiment_5_30_19,3.1.0,59.94857123177912,
,,,C,U,d,n,R,D,y,R,y,,,,,5,19,119,15,1,0,1,0,,,,,1,6,42,27,,,,,,down,0.7505590416876657,1850.609614128418,None,001,5,2019_Jun_04_1628,ACPT_experiment_5_30_19,3.1.0,59.94857123177912,
,,,C,U,d,n,L,G,g,R,c ,,,,,5,19,119,15,1,0,1,0,,,,,1,7,43,19,,,,,,up,0.6671839512782753,1852.6611857237876,None,001,5,2019_Jun_04_1628,ACPT_experiment_5_30_19,3.1.0,59.94857123177912,
,,,C,U,d,n,R,G,y,L,y,,,,,5,19,119,15,1,0,1,0,,,,,1,8,44,28,,,,,,down,0.8170940578565933,1854.6295404025332,None,001,5,2019_Jun_04_1628,ACPT_experiment_5_30_19,3.1.0,59.94857123177912,
,,,C,U,d,n,R,D,g,L,i,,,,,5,19,119,15,1,0,1,0,,,,,1,9,45,2,,,,,,down,1.2843185788988194,1856.7476726720379,None,001,5,2019_Jun_04_1628,ACPT_experiment_5_30_19,3.1.0,59.94857123177912,
,,,C,U,d,n,R,U,d,R,u,,,,,5,19,119,15,1,0,1,0,,,,,1,10,46,9,,,,,,down,0.6504857504769461,1859.316329148769,None,001,5,2019_Jun_04_1628,ACPT_experiment_5_30_19,3.1.0,59.94857123177912,
,,,C,U,d,n,R,G,y,R,y,,,,,5,19,119,15,1,0,1,0,,,,,1,11,47,29,,,,,,down,1.034127200695366,1861.2511476654872,None,001,5,2019_Jun_04_1628,ACPT_experiment_5_30_19,3.1.0,59.94857123177912,
,,,C,U,d,n,R,D,d,L,c,,,,,5,19,119,15,1,0,1,0,,,,,1,12,48,0,,,,,,up,1.2009477145111305,1863.5695735224326,None,001,5,2019_Jun_04_1628,ACPT_experiment_5_30_19,3.1.0,59.94857123177912,
,,,C,U,d,n,R,D,y,L,y,,,,,5,19,119,15,1,0,1,0,,,,,1,13,49,26,,,,,,down,0.7005338666967873,1866.0548485697327,None,001,5,2019_Jun_04_1628,ACPT_experiment_5_30_19,3.1.0,59.94857123177912,
,,,C,U,d,n,L,D,y,L,y,,,,,5,19,119,15,1,0,1,0,,,,,1,14,50,32,,,,,,down,0.5337381052740966,1868.0397106747987,None,001,5,2019_Jun_04_1628,ACPT_experiment_5_30_19,3.1.0,59.94857123177912,
,,,C,U,d,n,R,G,g,L,c ,,,,,5,19,119,15,1,0,1,0,,,,,1,15,51,6,,,,,,up,1.4678046928092954,1869.8577785277266,None,001,5,2019_Jun_04_1628,ACPT_experiment_5_30_19,3.1.0,59.94857123177912,
,,,C,U,d,n,L,D,d,R,c ,,,,,5,19,119,15,1,0,1,0,,,,,1,16,52,13,,,,,,up,1.2342858574556885,1872.609901497577,None,001,5,2019_Jun_04_1628,ACPT_experiment_5_30_19,3.1.0,59.94857123177912,
,,,C,U,d,n,R,D,d,R,c ,,,,,5,19,119,15,1,0,1,0,,,,,1,17,53,1,,,,,,up,0.7839738566544838,1875.1118041108275,None,001,5,2019_Jun_04_1628,ACPT_experiment_5_30_19,3.1.0,59.94857123177912,
,,,C,U,d,n,L,U,g,R,u,,,,,5,19,119,15,1,0,1,0,,,,,1,18,54,23,,,,,,down,0.6171421740800724,1877.1800905092095,None,001,5,2019_Jun_04_1628,ACPT_experiment_5_30_19,3.1.0,59.94857123177912,
,,,C,U,d,n,R,G,d,L,i,,,,,5,19,119,15,1,0,1,0,,,,,1,19,55,4,,,,,,down,1.5845472064247588,1879.0982385960924,None,001,5,2019_Jun_04_1628,ACPT_experiment_5_30_19,3.1.0,59.94857123177912,
,,,C,U,d,n,R,U,g,L,u,,,,,5,19,119,15,1,0,1,0,,,,,1,20,56,10,,,,,,down,2.7020805889369512,1881.9671176631819,None,001,5,2019_Jun_04_1628,ACPT_experiment_5_30_19,3.1.0,59.94857123177912,
,,,C,U,d,n,L,G,g,L,c ,,,,,5,19,119,15,1,0,1,0,,,,,1,21,57,18,,,,,,up,1.0841913154145004,1885.9535237737582,None,001,5,2019_Jun_04_1628,ACPT_experiment_5_30_19,3.1.0,59.94857123177912,
,,,C,U,d,n,L,G,d,L,i,,,,,5,19,119,15,1,0,1,0,,,,,1,22,58,16,,,,,,down,1.0007926800572022,1888.3053179594863,None,001,5,2019_Jun_04_1628,ACPT_experiment_5_30_19,3.1.0,59.94857123177912,
,,,C,U,d,n,R,U,y,R,u,,,,,5,19,119,15,1,0,1,0,,,,,1,23,59,31,,,,,,down,0.5837822973371658,1890.5904301240153,None,001,5,2019_Jun_04_1628,ACPT_experiment_5_30_19,3.1.0,59.94857123177912,
,,,C,U,d,n,L,U,g,L,u,,,,,5,19,119,15,1,0,1,0,,,,,1,24,60,22,,,,,,down,0.783962687892199,1892.4585119831718,None,001,5,2019_Jun_04_1628,ACPT_experiment_5_30_19,3.1.0,59.94857123177912,
,,,C,U,d,n,L,U,y,R,u,,,,,5,19,119,15,1,0,1,0,,,,,1,25,61,25,,,,,,down,0.6838839632291638,1894.510096256592,None,001,5,2019_Jun_04_1628,ACPT_experiment_5_30_19,3.1.0,59.94857123177912,
,,,C,U,d,n,L,U,y,L,u,,,,,5,19,119,15,1,0,1,0,,,,,1,26,62,24,,,,,,down,0.44702083909578505,1896.49830717831,None,001,5,2019_Jun_04_1628,ACPT_experiment_5_30_19,3.1.0,59.94857123177912,
,,,C,U,d,n,R,G,d,R,i,,,,,5,19,119,15,1,0,1,0,,,,,1,27,63,5,,,,,,down,1.1341944547421008,1898.2296656133803,None,001,5,2019_Jun_04_1628,ACPT_experiment_5_30_19,3.1.0,59.94857123177912,
,,,C,U,d,n,R,G,g,R,c ,,,,,5,19,119,15,1,0,1,0,,,,,1,28,64,7,,,,,,up,0.6338542603662063,1900.6314852759533,None,001,5,2019_Jun_04_1628,ACPT_experiment_5_30_19,3.1.0,59.94857123177912,
,,,C,U,d,n,L,G,d,R,i,,,,,5,19,119,15,1,0,1,0,,,,,1,29,65,17,,,,,,down,0.783928276036022,1902.5496520780507,None,001,5,2019_Jun_04_1628,ACPT_experiment_5_30_19,3.1.0,59.94857123177912,
,,,C,U,d,n,R,U,y,L,u,,,,,5,19,119,15,1,0,1,0,,,,,1,30,66,30,,,,,,down,0.5003595133093768,1904.617936061568,None,001,5,2019_Jun_04_1628,ACPT_experiment_5_30_19,3.1.0,59.94857123177912,
,,,C,U,d,n,L,D,y,R,y,,,,,5,19,119,15,1,0,1,0,,,,,1,31,67,33,,,,,,down,0.833975184828887,1906.4026220020933,None,001,5,2019_Jun_04_1628,ACPT_experiment_5_30_19,3.1.0,59.94857123177912,
,,,C,U,d,n,L,U,d,L,u,,,,,5,19,119,15,1,0,1,0,,,,,1,32,68,20,,,,,,down,0.7005365834229451,1908.520922406704,None,001,5,2019_Jun_04_1628,ACPT_experiment_5_30_19,3.1.0,59.94857123177912,
,,,C,U,d,n,L,G,y,R,y,,,,,5,19,119,15,1,0,1,0,,,,,1,33,69,35,,,,,,down,0.6671927051684179,1910.5057697207085,None,001,5,2019_Jun_04_1628,ACPT_experiment_5_30_19,3.1.0,59.94857123177912,
,,,C,U,d,n,L,U,d,R,u,,,,,5,19,119,15,1,0,1,0,,,,,1,34,70,21,,,,,,down,0.40031067262316355,1912.457288853093,None,001,5,2019_Jun_04_1628,ACPT_experiment_5_30_19,3.1.0,59.94857123177912,
,,,C,U,d,n,L,D,g,R,i,,,,,5,19,119,15,1,0,1,0,,,,,1,35,71,15,,,,,,down,1.38440545373669,1914.1419217269176,None,001,5,2019_Jun_04_1628,ACPT_experiment_5_30_19,3.1.0,59.94857123177912,
,,,C,U,d,n,,,,,,,,,,5,19,119,15,2,0,2,0,0,0,0,0,,,,,,,,,,,,,,001,5,2019_Jun_04_1628,ACPT_experiment_5_30_19,3.1.0,59.94857123177912,
,,,C,U,d,n,L,U,g,L,u,,,,,5,19,119,15,2,0,2,0,,,,,0,0,0,22,,,,,,down,0.8503989963828644,1929.7708928245847,None,001,5,2019_Jun_04_1628,ACPT_experiment_5_30_19,3.1.0,59.94857123177912,
,,,C,U,d,n,L,G,y,R,y,,,,,5,19,119,15,2,0,2,0,,,,,0,1,1,35,,,,,,down,0.7839279741820064,1931.9056203611908,None,001,5,2019_Jun_04_1628,ACPT_experiment_5_30_19,3.1.0,59.94857123177912,
,,,C,U,d,n,R,U,g,R,u,,,,,5,19,119,15,2,0,2,0,,,,,0,2,2,11,,,,,,down,1.4844796505203703,1933.973876875596,None,001,5,2019_Jun_04_1628,ACPT_experiment_5_30_19,3.1.0,59.94857123177912,
,,,C,U,d,n,L,D,d,R,c ,,,,,5,19,119,15,2,0,2,0,,,,,0,3,3,13,,,,,,up,1.3510911576013314,1936.7426566916547,None,001,5,2019_Jun_04_1628,ACPT_experiment_5_30_19,3.1.0,59.94857123177912,
,,,C,U,d,n,R,U,y,L,u,,,,,5,19,119,15,2,0,2,0,,,,,0,4,4,30,,,,,,down,0.7839267667477543,1939.3947271985235,None,001,5,2019_Jun_04_1628,ACPT_experiment_5_30_19,3.1.0,59.94857123177912,
,,,C,U,d,n,R,D,y,L,y,,,,,5,19,119,15,2,0,2,0,,,,,0,5,5,26,,,,,,down,0.8339703550955164,1941.479665915238,None,001,5,2019_Jun_04_1628,ACPT_experiment_5_30_19,3.1.0,59.94857123177912,
,,,C,U,d,n,R,G,y,L,y,,,,,5,19,119,15,2,0,2,0,,,,,0,6,6,28,,,,,,down,0.5671372236029129,1943.5812871361231,None,001,5,2019_Jun_04_1628,ACPT_experiment_5_30_19,3.1.0,59.94857123177912,
,,,C,U,d,n,L,G,g,R,c ,,,,,5,19,119,15,2,0,2,0,,,,,0,7,7,19,,,,,,up,1.2509674560460553,1945.4327142620823,None,001,5,2019_Jun_04_1628,ACPT_experiment_5_30_19,3.1.0,59.94857123177912,
,,,C,U,d,n,L,G,d,R,i,,,,,5,19,119,15,2,0,2,0,,,,,0,8,8,17,,,,,,down,0.6338261875389435,1947.967999089593,None,001,5,2019_Jun_04_1628,ACPT_experiment_5_30_19,3.1.0,59.94857123177912,
,,,C,U,d,n,R,G,d,L,i,,,,,5,19,119,15,2,0,2,0,,,,,0,9,9,4,,,,,,down,0.7672590536385542,1949.8861474783334,None,001,5,2019_Jun_04_1628,ACPT_experiment_5_30_19,3.1.0,59.94857123177912,
,,,C,U,d,n,R,G,g,R,c ,,,,,5,19,119,15,2,0,2,0,,,,,0,10,10,7,,,,,,up,0.9507596567491419,1951.9210269100695,None,001,5,2019_Jun_04_1628,ACPT_experiment_5_30_19,3.1.0,59.94857123177912,
,,,C,U,d,n,R,D,d,R,c ,,,,,5,19,119,15,2,0,2,0,,,,,0,11,11,1,,,,,,up,1.1342297721676005,1954.1560864304993,None,001,5,2019_Jun_04_1628,ACPT_experiment_5_30_19,3.1.0,59.94857123177912,
,,,C,U,d,n,L,U,d,L,u,,,,,5,19,119,15,2,0,2,0,,,,,0,12,12,20,,,,,,down,1.284336388540396,1956.5746371964342,None,001,5,2019_Jun_04_1628,ACPT_experiment_5_30_19,3.1.0,59.94857123177912,
,,,C,U,d,n,R,G,g,L,c ,,,,,5,19,119,15,2,0,2,0,,,,,0,13,13,6,,,,,,up,1.1842474006989505,1959.1432861267094,None,001,5,2019_Jun_04_1628,ACPT_experiment_5_30_19,3.1.0,59.94857123177912,
,,,C,U,d,n,L,D,y,L,y,,,,,5,19,119,15,2,0,2,0,,,,,0,14,14,32,,,,,,down,0.7172049002474523,1961.6285391383499,None,001,5,2019_Jun_04_1628,ACPT_experiment_5_30_19,3.1.0,59.94857123177912,
,,,C,U,d,n,R,D,g,R,i,,,,,5,19,119,15,2,0,2,0,,,,,0,15,15,3,,,,,,down,1.0674949257627304,1963.6467577997173,None,001,5,2019_Jun_04_1628,ACPT_experiment_5_30_19,3.1.0,59.94857123177912,
,,,C,U,d,n,R,D,g,L,i,,,,,5,19,119,15,2,0,2,0,,,,,0,16,16,2,,,,,,down,0.7672789762909815,1965.9818712924243,None,001,5,2019_Jun_04_1628,ACPT_experiment_5_30_19,3.1.0,59.94857123177912,
,,,C,U,d,n,R,G,d,R,i,,,,,5,19,119,15,2,0,2,0,,,,,0,17,17,5,,,,,,down,1.0341275025566574,1968.0334733754862,None,001,5,2019_Jun_04_1628,ACPT_experiment_5_30_19,3.1.0,59.94857123177912,
,,,C,U,d,n,L,U,y,L,u,,,,,5,19,119,15,2,0,2,0,,,,,0,18,18,24,,,,,,down,0.5170498657935241,1970.3519442093311,None,001,5,2019_Jun_04_1628,ACPT_experiment_5_30_19,3.1.0,59.94857123177912,
,,,C,U,d,n,L,D,g,R,i,,,,,5,19,119,15,2,0,2,0,,,,,0,19,19,15,,,,,,down,1.6012170325375337,1972.153335595256,None,001,5,2019_Jun_04_1628,ACPT_experiment_5_30_19,3.1.0,59.94857123177912,
,,,C,U,d,n,L,U,y,R,u,,,,,5,19,119,15,2,0,2,0,,,,,0,20,20,25,,,,,,down,0.5170646568549273,1975.0388751308528,None,001,5,2019_Jun_04_1628,ACPT_experiment_5_30_19,3.1.0,59.94857123177912,
,,,C,U,d,n,L,G,g,L,c ,,,,,5,19,119,15,2,0,2,0,,,,,0,21,21,18,,,,,,up,1.451173504563485,1976.8402619889093,None,001,5,2019_Jun_04_1628,ACPT_experiment_5_30_19,3.1.0,59.94857123177912,
,,,C,U,d,n,L,G,d,L,i,,,,,5,19,119,15,2,0,2,0,,,,,0,22,22,16,,,,,,down,0.733915175384027,1979.5590033482113,None,001,5,2019_Jun_04_1628,ACPT_experiment_5_30_19,3.1.0,59.94857123177912,
,,,C,U,d,n,R,G,y,R,y,,,,,5,19,119,15,2,0,2,0,,,,,0,23,23,29,,,,,,down,0.6171258737304015,1981.5772582325808,None,001,5,2019_Jun_04_1628,ACPT_experiment_5_30_19,3.1.0,59.94857123177912,
,,,C,U,d,n,R,U,y,R,u,,,,,5,19,119,15,2,0,2,0,,,,,0,24,24,31,,,,,,down,0.5670940578602313,1983.4787241171543,None,001,5,2019_Jun_04_1628,ACPT_experiment_5_30_19,3.1.0,59.94857123177912,
,,,C,U,d,n,R,U,d,R,u,,,,,5,19,119,15,2,0,2,0,,,,,0,25,25,9,,,,,,down,0.35027251772771706,1985.3134557590347,None,001,5,2019_Jun_04_1628,ACPT_experiment_5_30_19,3.1.0,59.94857123177912,
,,,C,U,d,n,L,G,y,L,y,,,,,5,19,119,15,2,0,2,0,,,,,0,26,26,34,,,,,,down,0.7172528957271425,1986.9480577225622,None,001,5,2019_Jun_04_1628,ACPT_experiment_5_30_19,3.1.0,59.94857123177912,
,,,C,U,d,n,L,U,d,R,u,,,,,5,19,119,15,2,0,2,0,,,,,0,27,27,21,,,,,,down,1.5511960835683567,1988.9496008225033,None,001,5,2019_Jun_04_1628,ACPT_experiment_5_30_19,3.1.0,59.94857123177912,
,,,C,U,d,n,L,D,y,R,y,,,,,5,19,119,15,2,0,2,0,,,,,0,28,28,33,,,,,,down,0.6338132076307375,1991.7851239370066,None,001,5,2019_Jun_04_1628,ACPT_experiment_5_30_19,3.1.0,59.94857123177912,
,,,C,U,d,n,R,U,g,L,u,,,,,5,19,119,15,2,0,2,0,,,,,0,29,29,10,,,,,,down,0.800616213658941,1993.7032656848605,None,001,5,2019_Jun_04_1628,ACPT_experiment_5_30_19,3.1.0,59.94857123177912,
,,,C,U,d,n,L,D,g,L,i,,,,,5,19,119,15,2,0,2,0,,,,,0,30,30,14,,,,,,down,1.5178377161137178,1995.7882010811336,None,001,5,2019_Jun_04_1628,ACPT_experiment_5_30_19,3.1.0,59.94857123177912,
,,,C,U,d,n,R,D,d,L,c,,,,,5,19,119,15,2,0,2,0,,,,,0,31,31,0,,,,,,up,0.7172215024584148,1998.5903634133174,None,001,5,2019_Jun_04_1628,ACPT_experiment_5_30_19,3.1.0,59.94857123177912,
,,,C,U,d,n,R,D,y,R,y,,,,,5,19,119,15,2,0,2,0,,,,,0,32,32,27,,,,,,down,0.6504948062247422,2000.5919128522837,None,001,5,2019_Jun_04_1628,ACPT_experiment_5_30_19,3.1.0,59.94857123177912,
,,,C,U,d,n,L,U,g,R,u,,,,,5,19,119,15,2,0,2,0,,,,,0,33,33,23,,,,,,down,0.9006907123002748,2002.5434111564427,None,001,5,2019_Jun_04_1628,ACPT_experiment_5_30_19,3.1.0,59.94857123177912,
,,,C,U,d,n,L,D,d,L,c ,,,,,5,19,119,15,2,0,2,0,,,,,0,34,34,12,,,,,,down,0.7338979694577574,2004.7284285978203,None,001,5,2019_Jun_04_1628,ACPT_experiment_5_30_19,3.1.0,59.94857123177912,
,,,C,U,d,n,R,U,d,L,u,,,,,5,19,119,15,2,0,2,0,,,,,0,35,35,8,,,,,,down,0.5170543936692411,2006.7466620502455,None,001,5,2019_Jun_04_1628,ACPT_experiment_5_30_19,3.1.0,59.94857123177912,
,,,C,U,d,n,L,G,g,L,c ,,,,,5,19,119,15,2,0,2,0,,,,,1,0,36,18,,,,,,down,0.9173762350510515,2008.5480362302478,None,001,5,2019_Jun_04_1628,ACPT_experiment_5_30_19,3.1.0,59.94857123177912,
,,,C,U,d,n,R,D,d,R,c ,,,,,5,19,119,15,2,0,2,0,,,,,1,1,37,1,,,,,,up,1.3510184097358433,2010.7497564003024,None,001,5,2019_Jun_04_1628,ACPT_experiment_5_30_19,3.1.0,59.94857123177912,
,,,C,U,d,n,R,G,g,R,c ,,,,,5,19,119,15,2,0,2,0,,,,,1,2,38,7,,,,,,up,0.833975184828887,2013.3851033502651,None,001,5,2019_Jun_04_1628,ACPT_experiment_5_30_19,3.1.0,59.94857123177912,
,,,C,U,d,n,R,U,d,L,u,,,,,5,19,119,15,2,0,2,0,,,,,1,3,39,8,,,,,,down,0.9340840953227598,2015.5033750783296,None,001,5,2019_Jun_04_1628,ACPT_experiment_5_30_19,3.1.0,59.94857123177912,
,,,C,U,d,n,R,U,d,R,u,,,,,5,19,119,15,2,0,2,0,,,,,1,4,40,9,,,,,,down,1.0176049833171419,2017.704948243365,None,001,5,2019_Jun_04_1628,ACPT_experiment_5_30_19,3.1.0,59.94857123177912,
,,,C,U,d,n,R,D,d,L,c,,,,,5,19,119,15,2,0,2,0,,,,,1,5,41,0,,,,,,up,1.634595926359907,2019.9901953385815,None,001,5,2019_Jun_04_1628,ACPT_experiment_5_30_19,3.1.0,59.94857123177912,
,,,C,U,d,n,L,D,d,L,c ,,,,,5,19,119,15,2,0,2,0,,,,,1,6,42,12,,,,,,up,1.06748224770854,2022.909114371716,None,001,5,2019_Jun_04_1628,ACPT_experiment_5_30_19,3.1.0,59.94857123177912,
,,,C,U,d,n,L,D,g,R,i,,,,,5,19,119,15,2,0,2,0,,,,,1,7,43,15,,,,,,down,0.7839635934651596,2025.2442239402662,None,001,5,2019_Jun_04_1628,ACPT_experiment_5_30_19,3.1.0,59.94857123177912,
,,,C,U,d,n,R,D,y,L,y,,,,,5,19,119,15,2,0,2,0,,,,,1,8,44,26,,,,,,down,0.6671788196836133,2027.3125085274987,None,001,5,2019_Jun_04_1628,ACPT_experiment_5_30_19,3.1.0,59.94857123177912,
,,,C,U,d,n,R,G,y,L,y,,,,,5,19,119,15,2,0,2,0,,,,,1,9,45,28,,,,,,down,0.5504191001455183,2029.2806920525509,None,001,5,2019_Jun_04_1628,ACPT_experiment_5_30_19,3.1.0,59.94857123177912,
,,,C,U,d,n,L,U,y,L,u,,,,,5,19,119,15,2,0,2,0,,,,,1,10,46,24,,,,,,down,0.43366119176062057,2031.1321194803677,None,001,5,2019_Jun_04_1628,ACPT_experiment_5_30_19,3.1.0,59.94857123177912,
,,,C,U,d,n,R,U,y,L,u,,,,,5,19,119,15,2,0,2,0,,,,,1,11,47,30,,,,,,down,0.4169862340531836,2032.8501095142128,None,001,5,2019_Jun_04_1628,ACPT_experiment_5_30_19,3.1.0,59.94857123177912,
,,,C,U,d,n,L,G,d,R,i,,,,,5,19,119,15,2,0,2,0,,,,,1,12,48,17,,,,,,down,0.8170898318421678,2034.5682773426306,None,001,5,2019_Jun_04_1628,ACPT_experiment_5_30_19,3.1.0,59.94857123177912,
,,,C,U,d,n,L,U,d,R,u,,,,,5,19,119,15,2,0,2,0,,,,,1,13,49,21,,,,,,down,0.4837056856813433,2036.6697189577899,None,001,5,2019_Jun_04_1628,ACPT_experiment_5_30_19,3.1.0,59.94857123177912,
,,,C,U,d,n,R,G,d,R,i,,,,,5,19,119,15,2,0,2,0,,,,,1,14,50,5,,,,,,down,0.7672566387736879,2038.437749561399,None,001,5,2019_Jun_04_1628,ACPT_experiment_5_30_19,3.1.0,59.94857123177912,
,,,C,U,d,n,R,G,y,R,y,,,,,5,19,119,15,2,0,2,0,,,,,1,15,51,29,,,,,,down,0.5837816936218587,2040.472654349236,None,001,5,2019_Jun_04_1628,ACPT_experiment_5_30_19,3.1.0,59.94857123177912,
,,,C,U,d,n,L,D,g,L,i,,,,,5,19,119,15,2,0,2,0,,,,,1,16,52,14,,,,,,down,0.9006922215921804,2042.3407603570595,None,001,5,2019_Jun_04_1628,ACPT_experiment_5_30_19,3.1.0,59.94857123177912,
,,,C,U,d,n,L,G,y,L,y,,,,,5,19,119,15,2,0,2,0,,,,,1,17,53,34,,,,,,down,0.6171500223972544,2044.5424633211878,None,001,5,2019_Jun_04_1628,ACPT_experiment_5_30_19,3.1.0,59.94857123177912,
,,,C,U,d,n,L,D,d,R,c ,,,,,5,19,119,15,2,0,2,0,,,,,1,18,54,13,,,,,,up,1.1008267296783742,2046.4606092950635,None,001,5,2019_Jun_04_1628,ACPT_experiment_5_30_19,3.1.0,59.94857123177912,
,,,C,U,d,n,R,D,g,L,i,,,,,5,19,119,15,2,0,2,0,,,,,1,19,55,2,,,,,,down,1.5011509859323269,2048.8457793560265,None,001,5,2019_Jun_04_1628,ACPT_experiment_5_30_19,3.1.0,59.94857123177912,
,,,C,U,d,n,L,D,y,R,y,,,,,5,19,119,15,2,0,2,0,,,,,1,20,56,33,,,,,,down,0.5837895419354027,2051.631258278463,None,001,5,2019_Jun_04_1628,ACPT_experiment_5_30_19,3.1.0,59.94857123177912,
,,,C,U,d,n,L,U,y,R,u,,,,,5,19,119,15,2,0,2,0,,,,,1,21,57,25,,,,,,down,0.6003579436437576,2053.516044979311,None,001,5,2019_Jun_04_1628,ACPT_experiment_5_30_19,3.1.0,59.94857123177912,
,,,C,U,d,n,L,G,g,R,c ,,,,,5,19,119,15,2,0,2,0,,,,,1,22,58,19,,,,,,up,0.7505759457526437,2055.4175090527315,None,001,5,2019_Jun_04_1628,ACPT_experiment_5_30_19,3.1.0,59.94857123177912,
,,,C,U,d,n,R,U,g,L,u,,,,,5,19,119,15,2,0,2,0,,,,,1,23,59,10,,,,,,down,0.5337335773947416,2057.452414444284,None,001,5,2019_Jun_04_1628,ACPT_experiment_5_30_19,3.1.0,59.94857123177912,
,,,C,U,d,n,L,U,g,L,u,,,,,5,19,119,15,2,0,2,0,,,,,1,24,60,22,,,,,,down,0.3836197164200712,2059.2704901455327,None,001,5,2019_Jun_04_1628,ACPT_experiment_5_30_19,3.1.0,59.94857123177912,
,,,C,U,d,n,R,G,g,L,c ,,,,,5,19,119,15,2,0,2,0,,,,,1,25,61,6,,,,,,up,1.6009830923103436,2060.955379598963,None,001,5,2019_Jun_04_1628,ACPT_experiment_5_30_19,3.1.0,59.94857123177912,
,,,C,U,d,n,R,D,y,R,y,,,,,5,19,119,15,2,0,2,0,,,,,1,26,62,27,,,,,,down,0.41698230989277363,2063.840667988403,None,001,5,2019_Jun_04_1628,ACPT_experiment_5_30_19,3.1.0,59.94857123177912,
,,,C,U,d,n,R,U,y,R,u,,,,,5,19,119,15,2,0,2,0,,,,,1,27,63,31,,,,,,down,0.5170703921612585,2065.558660738974,None,001,5,2019_Jun_04_1628,ACPT_experiment_5_30_19,3.1.0,59.94857123177912,
,,,C,U,d,n,R,G,d,L,i,,,,,5,19,119,15,2,0,2,0,,,,,1,28,64,4,,,,,,down,0.7505382134586398,2067.3934397726152,None,001,5,2019_Jun_04_1628,ACPT_experiment_5_30_19,3.1.0,59.94857123177912,
,,,C,U,d,n,L,G,d,L,i,,,,,5,19,119,15,2,0,2,0,,,,,1,29,65,16,,,,,,down,0.6505515555982129,2069.4283089411656,None,001,5,2019_Jun_04_1628,ACPT_experiment_5_30_19,3.1.0,59.94857123177912,
,,,C,U,d,n,L,G,y,R,y,,,,,5,19,119,15,2,0,2,0,,,,,1,30,66,35,,,,,,down,0.6171922825706133,2071.363107837089,None,001,5,2019_Jun_04_1628,ACPT_experiment_5_30_19,3.1.0,59.94857123177912,
,,,C,U,d,n,R,U,g,R,u,,,,,5,19,119,15,2,0,2,0,,,,,1,31,67,11,,,,,,down,0.8006430790519516,2073.264601190771,None,001,5,2019_Jun_04_1628,ACPT_experiment_5_30_19,3.1.0,59.94857123177912,
,,,C,U,d,n,L,U,g,R,u,,,,,5,19,119,15,2,0,2,0,,,,,1,32,68,23,,,,,,down,0.40003356664965395,2075.3664925748853,None,001,5,2019_Jun_04_1628,ACPT_experiment_5_30_19,3.1.0,59.94857123177912,
,,,C,U,d,n,R,D,g,R,i,,,,,5,19,119,15,2,0,2,0,,,,,1,33,69,3,,,,,,down,1.0841710909044195,2077.050855889196,None,001,5,2019_Jun_04_1628,ACPT_experiment_5_30_19,3.1.0,59.94857123177912,
,,,C,U,d,n,L,D,y,L,y,,,,,5,19,119,15,2,0,2,0,,,,,1,34,70,32,,,,,,down,0.5337396145623643,2079.4360292706006,None,001,5,2019_Jun_04_1628,ACPT_experiment_5_30_19,3.1.0,59.94857123177912,
,,,C,U,d,n,L,U,d,L,u,,,,,5,19,119,15,2,0,2,0,,,,,1,35,71,20,,,,,,down,1.1842389486628235,2081.2707772128306,None,001,5,2019_Jun_04_1628,ACPT_experiment_5_30_19,3.1.0,59.94857123177912,
,,,C,U,d,n,,,,,,,,,,5,19,119,15,3,0,3,0,0,0,0,0,,,,,,,,,,,,,,001,5,2019_Jun_04_1628,ACPT_experiment_5_30_19,3.1.0,59.94857123177912,
,,,C,U,d,n,L,U,y,R,u,,,,,5,19,119,15,3,0,3,0,,,,,0,0,0,25,,,,,,down,0.6672002516279463,2085.2905211644975,None,001,5,2019_Jun_04_1628,ACPT_experiment_5_30_19,3.1.0,59.94857123177912,
,,,C,U,d,n,L,G,y,L,y,,,,,5,19,119,15,3,0,3,0,,,,,0,1,1,34,,,,,,down,0.5838070497193257,2087.2420221853827,None,001,5,2019_Jun_04_1628,ACPT_experiment_5_30_19,3.1.0,59.94857123177912,
,,,C,U,d,n,R,D,y,L,y,,,,,5,19,119,15,3,0,3,0,,,,,0,2,2,26,,,,,,down,0.48369874294076,2089.126832129321,None,001,5,2019_Jun_04_1628,ACPT_experiment_5_30_19,3.1.0,59.94857123177912,
,,,C,U,d,n,R,U,y,L,u,,,,,5,19,119,15,3,0,3,0,,,,,0,3,3,30,,,,,,down,0.500382152684324,2090.91154312409,None,001,5,2019_Jun_04_1628,ACPT_experiment_5_30_19,3.1.0,59.94857123177912,
,,,C,U,d,n,L,G,d,L,i,,,,,5,19,119,15,3,0,3,0,,,,,0,4,4,16,,,,,,down,0.8339694495189178,2092.6962535151397,None,001,5,2019_Jun_04_1628,ACPT_experiment_5_30_19,3.1.0,59.94857123177912,
,,,C,U,d,n,R,U,y,R,u,,,,,5,19,119,15,3,0,3,0,,,,,0,5,5,31,,,,,,down,0.4503470163726888,2094.8145493918746,None,001,5,2019_Jun_04_1628,ACPT_experiment_5_30_19,3.1.0,59.94857123177912,
,,,C,U,d,n,L,G,y,R,y,,,,,5,19,119,15,3,0,3,0,,,,,0,6,6,35,,,,,,down,0.5003727950752364,2096.5492249484705,None,001,5,2019_Jun_04_1628,ACPT_experiment_5_30_19,3.1.0,59.94857123177912,
,,,C,U,d,n,L,D,g,R,i,,,,,5,19,119,15,3,0,3,0,,,,,0,7,7,15,,,,,,down,1.1008300501198391,2098.3339468101403,None,001,5,2019_Jun_04_1628,ACPT_experiment_5_30_19,3.1.0,59.94857123177912,
,,,C,U,d,n,L,D,g,L,i,,,,,5,19,119,15,3,0,3,0,,,,,0,8,8,14,,,,,,down,0.7669819476614066,2100.7193722432785,None,001,5,2019_Jun_04_1628,ACPT_experiment_5_30_19,3.1.0,59.94857123177912,
,,,C,U,d,n,L,D,y,R,y,,,,,5,19,119,15,3,0,3,0,,,,,0,9,9,33,,,,,,down,0.6338228671011166,2102.7706800144406,None,001,5,2019_Jun_04_1628,ACPT_experiment_5_30_19,3.1.0,59.94857123177912,
,,,C,U,d,n,L,G,g,L,c ,,,,,5,19,119,15,3,0,3,0,,,,,0,10,10,18,,,,,,up,0.9173686885951611,2104.6888287050388,None,001,5,2019_Jun_04_1628,ACPT_experiment_5_30_19,3.1.0,59.94857123177912,
,,,C,U,d,n,R,G,g,L,c ,,,,,5,19,119,15,3,0,3,0,,,,,0,11,11,6,,,,,,up,0.6338207540902658,2106.8905244245652,None,001,5,2019_Jun_04_1628,ACPT_experiment_5_30_19,3.1.0,59.94857123177912,
,,,C,U,d,n,R,D,g,R,i,,,,,5,19,119,15,3,0,3,0,,,,,0,12,12,3,,,,,,down,0.8673374764402979,2108.8086691910066,None,001,5,2019_Jun_04_1628,ACPT_experiment_5_30_19,3.1.0,59.94857123177912,
,,,C,U,d,n,L,G,g,R,c ,,,,,5,19,119,15,3,0,3,0,,,,,0,13,13,19,,,,,,up,1.0007956986410136,2110.9603306797944,None,001,5,2019_Jun_04_1628,ACPT_experiment_5_30_19,3.1.0,59.94857123177912,
,,,C,U,d,n,L,U,g,R,u,,,,,5,19,119,15,3,0,3,0,,,,,0,14,14,23,,,,,,down,0.7169528485173942,2113.262374985359,None,001,5,2019_Jun_04_1628,ACPT_experiment_5_30_19,3.1.0,59.94857123177912,
,,,C,U,d,n,R,U,g,L,u,,,,,5,19,119,15,3,0,3,0,,,,,0,15,15,10,,,,,,down,0.3669471735811385,2115.263648223925,None,001,5,2019_Jun_04_1628,ACPT_experiment_5_30_19,3.1.0,59.94857123177912,
,,,C,U,d,n,R,D,g,L,i,,,,,5,19,119,15,3,0,3,0,,,,,0,16,16,2,,,,,,down,1.7013117556925863,2116.914921522861,None,001,5,2019_Jun_04_1628,ACPT_experiment_5_30_19,3.1.0,59.94857123177912,
,,,C,U,d,n,R,D,d,L,c,,,,,5,19,119,15,3,0,3,0,,,,,0,17,17,0,,,,,,up,0.9340735302830581,2119.9005588001964,None,001,5,2019_Jun_04_1628,ACPT_experiment_5_30_19,3.1.0,59.94857123177912,
,,,C,U,d,n,L,G,d,R,i,,,,,5,19,119,15,3,0,3,0,,,,,0,18,18,17,,,,,,down,0.6671646323411551,2122.1189472870756,None,001,5,2019_Jun_04_1628,ACPT_experiment_5_30_19,3.1.0,59.94857123177912,
,,,C,U,d,n,L,U,g,L,u,,,,,5,19,119,15,3,0,3,0,,,,,0,19,19,22,,,,,,down,0.5337474628795462,2124.0704374410598,None,001,5,2019_Jun_04_1628,ACPT_experiment_5_30_19,3.1.0,59.94857123177912,
,,,C,U,d,n,R,D,d,R,c ,,,,,5,19,119,15,3,0,3,0,,,,,0,20,20,1,,,,,,up,1.1172547672467772,2125.90545856511,None,001,5,2019_Jun_04_1628,ACPT_experiment_5_30_19,3.1.0,59.94857123177912,
,,,C,U,d,n,L,U,d,R,u,,,,,5,19,119,15,3,0,3,0,,,,,0,21,21,21,,,,,,down,0.5170806553469447,2128.3070168183403,None,001,5,2019_Jun_04_1628,ACPT_experiment_5_30_19,3.1.0,59.94857123177912,
,,,C,U,d,n,L,D,y,L,y,,,,,5,19,119,15,3,0,3,0,,,,,0,22,22,32,,,,,,down,0.5504157797076914,2130.108429334352,None,001,5,2019_Jun_04_1628,ACPT_experiment_5_30_19,3.1.0,59.94857123177912,
,,,C,U,d,n,R,G,d,L,i,,,,,5,19,119,15,3,0,3,0,,,,,0,23,23,4,,,,,,down,1.2342758961276559,2131.943182106319,None,001,5,2019_Jun_04_1628,ACPT_experiment_5_30_19,3.1.0,59.94857123177912,
,,,C,U,d,n,R,G,y,L,y,,,,,5,19,119,15,3,0,3,0,,,,,0,24,24,28,,,,,,down,0.5337356904055923,2134.461785637097,None,001,5,2019_Jun_04_1628,ACPT_experiment_5_30_19,3.1.0,59.94857123177912,
,,,C,U,d,n,R,G,d,R,i,,,,,5,19,119,15,3,0,3,0,,,,,0,25,25,5,,,,,,down,0.7339194014057284,2136.279825719055,None,001,5,2019_Jun_04_1628,ACPT_experiment_5_30_19,3.1.0,59.94857123177912,
,,,C,U,d,n,L,D,d,R,c ,,,,,5,19,119,15,3,0,3,0,,,,,0,26,26,13,,,,,,up,0.8005987058713799,2138.3147646168873,None,001,5,2019_Jun_04_1628,ACPT_experiment_5_30_19,3.1.0,59.94857123177912,
,,,C,U,d,n,R,D,y,R,y,,,,,5,19,119,15,3,0,3,0,,,,,0,27,27,27,,,,,,down,0.6004669145113439,2140.3996933722774,None,001,5,2019_Jun_04_1628,ACPT_experiment_5_30_19,3.1.0,59.94857123177912,
,,,C,U,d,n,L,U,d,L,u,,,,,5,19,119,15,3,0,3,0,,,,,0,28,28,20,,,,,,down,0.5671031136080273,2142.284479167545,None,001,5,2019_Jun_04_1628,ACPT_experiment_5_30_19,3.1.0,59.94857123177912,
,,,C,U,d,n,R,U,d,L,u,,,,,5,19,119,15,3,0,3,0,,,,,0,29,29,8,,,,,,down,0.5170643549936358,2144.135905387928,None,001,5,2019_Jun_04_1628,ACPT_experiment_5_30_19,3.1.0,59.94857123177912,
,,,C,U,d,n,R,U,g,R,u,,,,,5,19,119,15,3,0,3,0,,,,,0,30,30,11,,,,,,down,0.550310732996877,2145.9372931515572,None,001,5,2019_Jun_04_1628,ACPT_experiment_5_30_19,3.1.0,59.94857123177912,
,,,C,U,d,n,R,G,y,R,y,,,,,5,19,119,15,3,0,3,0,,,,,0,31,31,29,,,,,,down,0.6672186649884679,2147.7720438105134,None,001,5,2019_Jun_04_1628,ACPT_experiment_5_30_19,3.1.0,59.94857123177912,
,,,C,U,d,n,L,D,d,L,c ,,,,,5,19,119,15,3,0,3,0,,,,,0,32,32,12,,,,,,up,0.8173095847268996,2149.7235448313986,None,001,5,2019_Jun_04_1628,ACPT_experiment_5_30_19,3.1.0,59.94857123177912,
,,,C,U,d,n,R,G,g,R,c ,,,,,5,19,119,15,3,0,3,0,,,,,0,33,33,7,,,,,,up,1.0341350490161858,2151.8251630337,None,001,5,2019_Jun_04_1628,ACPT_experiment_5_30_19,3.1.0,59.94857123177912,
,,,C,U,d,n,R,U,d,R,u,,,,,5,19,119,15,3,0,3,0,,,,,0,34,34,9,,,,,,down,0.6338234708164237,2154.14361907648,None,001,5,2019_Jun_04_1628,ACPT_experiment_5_30_19,3.1.0,59.94857123177912,
,,,C,U,d,n,L,U,y,L,u,,,,,5,19,119,15,3,0,3,0,,,,,0,35,35,24,,,,,,down,0.6004379361111205,2156.0617888971647,None,001,5,2019_Jun_04_1628,ACPT_experiment_5_30_19,3.1.0,59.94857123177912,
,,,C,U,d,n,R,G,d,R,i,,,,,5,19,119,15,3,0,3,0,,,,,1,0,36,5,,,,,,down,0.7839297853279277,2157.9465617125243,None,001,5,2019_Jun_04_1628,ACPT_experiment_5_30_19,3.1.0,59.94857123177912,
,,,C,U,d,n,L,D,g,R,i,,,,,5,19,119,15,3,0,3,0,,,,,1,1,37,15,,,,,,down,0.9340496834702208,2160.0148161139223,None,001,5,2019_Jun_04_1628,ACPT_experiment_5_30_19,3.1.0,59.94857123177912,
,,,C,U,d,n,L,U,y,R,u,,,,,5,19,119,15,3,0,3,0,,,,,1,2,38,25,,,,,,down,0.533733275537088,2162.249872012053,None,001,5,2019_Jun_04_1628,ACPT_experiment_5_30_19,3.1.0,59.94857123177912,
,,,C,U,d,n,L,U,g,R,u,,,,,5,19,119,15,3,0,3,0,,,,,1,3,39,23,,,,,,down,0.4169777820170566,2164.0846193505677,None,001,5,2019_Jun_04_1628,ACPT_experiment_5_30_19,3.1.0,59.94857123177912,
,,,C,U,d,n,R,D,y,R,y,,,,,5,19,119,15,3,0,3,0,,,,,1,4,40,27,,,,,,down,0.41698653590719914,2165.7859295969683,None,001,5,2019_Jun_04_1628,ACPT_experiment_5_30_19,3.1.0,59.94857123177912,
,,,C,U,d,n,R,G,y,L,y,,,,,5,19,119,15,3,0,3,0,,,,,1,5,41,28,,,,,,down,0.7505765494679508,2167.487243465672,None,001,5,2019_Jun_04_1628,ACPT_experiment_5_30_19,3.1.0,59.94857123177912,
,,,C,U,d,n,R,G,d,L,i,,,,,5,19,119,15,3,0,3,0,,,,,1,6,42,4,,,,,,down,0.8003469559989753,2169.522413285147,None,001,5,2019_Jun_04_1628,ACPT_experiment_5_30_19,3.1.0,59.94857123177912,
,,,C,U,d,n,R,G,g,R,c ,,,,,5,19,119,15,3,0,3,0,,,,,1,7,43,7,,,,,,up,0.8506742912068148,2171.5903848452617,None,001,5,2019_Jun_04_1628,ACPT_experiment_5_30_19,3.1.0,59.94857123177912,
,,,C,U,d,n,L,G,y,R,y,,,,,5,19,119,15,3,0,3,0,,,,,1,8,44,35,,,,,,down,0.5170643549936358,2173.7253825451007,None,001,5,2019_Jun_04_1628,ACPT_experiment_5_30_19,3.1.0,59.94857123177912,
,,,C,U,d,n,R,D,d,R,c ,,,,,5,19,119,15,3,0,3,0,,,,,1,9,45,1,,,,,,up,1.2176241815104731,2175.526771214303,None,001,5,2019_Jun_04_1628,ACPT_experiment_5_30_19,3.1.0,59.94857123177912,
,,,C,U,d,n,R,U,y,R,u,,,,,5,19,119,15,3,0,3,0,,,,,1,10,46,31,,,,,,down,0.4670271056747879,2178.0287006929466,None,001,5,2019_Jun_04_1628,ACPT_experiment_5_30_19,3.1.0,59.94857123177912,
,,,C,U,d,n,R,G,g,L,c ,,,,,5,19,119,15,3,0,3,0,,,,,1,11,47,6,,,,,,up,0.8006165155129565,2179.780053018403,None,001,5,2019_Jun_04_1628,ACPT_experiment_5_30_19,3.1.0,59.94857123177912,
,,,C,U,d,n,L,D,y,L,y,,,,,5,19,119,15,3,0,3,0,,,,,1,12,48,32,,,,,,down,0.48345544510084437,2181.881920857566,None,001,5,2019_Jun_04_1628,ACPT_experiment_5_30_19,3.1.0,59.94857123177912,
,,,C,U,d,n,L,G,g,L,c ,,,,,5,19,119,15,3,0,3,0,,,,,1,13,49,18,,,,,,up,0.8506486332444183,2183.6497027298865,None,001,5,2019_Jun_04_1628,ACPT_experiment_5_30_19,3.1.0,59.94857123177912,
,,,C,U,d,n,L,G,y,L,y,,,,,5,19,119,15,3,0,3,0,,,,,1,14,50,34,,,,,,down,0.5170625438440766,2185.7846786959235,None,001,5,2019_Jun_04_1628,ACPT_experiment_5_30_19,3.1.0,59.94857123177912,
,,,C,U,d,n,L,D,d,R,c ,,,,,5,19,119,15,3,0,3,0,,,,,1,15,51,13,,,,,,up,1.4511224904999835,2187.586067365126,None,001,5,2019_Jun_04_1628,ACPT_experiment_5_30_19,3.1.0,59.94857123177912,
,,,C,U,d,n,L,G,g,R,c ,,,,,5,19,119,15,3,0,3,0,,,,,1,16,52,19,,,,,,up,1.1842757753838669,2190.321513867977,None,001,5,2019_Jun_04_1628,ACPT_experiment_5_30_19,3.1.0,59.94857123177912,
,,,C,U,d,n,L,D,y,R,y,,,,,5,19,119,15,3,0,3,0,,,,,1,17,53,33,,,,,,down,0.5337368978362065,2192.790085582881,None,001,5,2019_Jun_04_1628,ACPT_experiment_5_30_19,3.1.0,59.94857123177912,
,,,C,U,d,n,R,U,g,L,u,,,,,5,19,119,15,3,0,3,0,,,,,1,18,54,10,,,,,,down,0.6171479093864036,2194.6081486060757,None,001,5,2019_Jun_04_1628,ACPT_experiment_5_30_19,3.1.0,59.94857123177912,
,,,C,U,d,n,L,U,g,L,u,,,,,5,19,119,15,3,0,3,0,,,,,1,19,55,22,,,,,,down,0.3669453624279413,2196.5096172073754,None,001,5,2019_Jun_04_1628,ACPT_experiment_5_30_19,3.1.0,59.94857123177912,
,,,C,U,d,n,R,D,g,L,i,,,,,5,19,119,15,3,0,3,0,,,,,1,20,56,2,,,,,,down,1.1508914481091779,2198.1608844691436,None,001,5,2019_Jun_04_1628,ACPT_experiment_5_30_19,3.1.0,59.94857123177912,
,,,C,U,d,n,R,D,g,R,i,,,,,5,19,119,15,3,0,3,0,,,,,1,21,57,3,,,,,,down,0.8339945037660073,2200.5793965972116,None,001,5,2019_Jun_04_1628,ACPT_experiment_5_30_19,3.1.0,59.94857123177912,
,,,C,U,d,n,L,G,d,R,i,,,,,5,19,119,15,3,0,3,0,,,,,1,22,58,17,,,,,,down,0.833703512304055,2202.714669893732,None,001,5,2019_Jun_04_1628,ACPT_experiment_5_30_19,3.1.0,59.94857123177912,
,,,C,U,d,n,R,U,y,L,u,,,,,5,19,119,15,3,0,3,0,,,,,1,23,59,30,,,,,,down,0.5337465573065856,2204.832697116526,None,001,5,2019_Jun_04_1628,ACPT_experiment_5_30_19,3.1.0,59.94857123177912,
,,,C,U,d,n,R,D,d,L,c,,,,,5,19,119,15,3,0,3,0,,,,,1,24,60,0,,,,,,up,1.1175279490635148,2206.6507664787496,None,001,5,2019_Jun_04_1628,ACPT_experiment_5_30_19,3.1.0,59.94857123177912,
,,,C,U,d,n,R,D,y,L,y,,,,,5,19,119,15,3,0,3,0,,,,,1,25,61,26,,,,,,up,0.5501682558497123,2209.102900496615,None,001,5,2019_Jun_04_1628,ACPT_experiment_5_30_19,3.1.0,59.94857123177912,
,,,C,U,d,n,L,D,d,L,c ,,,,,5,19,119,15,3,0,3,0,,,,,1,26,62,12,,,,,,up,0.8673314392726752,2210.9540852303107,None,001,5,2019_Jun_04_1628,ACPT_experiment_5_30_19,3.1.0,59.94857123177912,
,,,C,U,d,n,L,D,g,L,i,,,,,5,19,119,15,3,0,3,0,,,,,1,27,63,14,,,,,,down,0.9841174204884737,2213.0890590833405,None,001,5,2019_Jun_04_1628,ACPT_experiment_5_30_19,3.1.0,59.94857123177912,
,,,C,U,d,n,R,U,d,L,u,,,,,5,19,119,15,3,0,3,0,,,,,1,28,64,8,,,,,,down,0.7839445763893309,2215.357481197243,None,001,5,2019_Jun_04_1628,ACPT_experiment_5_30_19,3.1.0,59.94857123177912,
,,,C,U,d,n,L,U,d,R,u,,,,,5,19,119,15,3,0,3,0,,,,,1,29,65,21,,,,,,down,0.8006204396733665,2217.425738919079,None,001,5,2019_Jun_04_1628,ACPT_experiment_5_30_19,3.1.0,59.94857123177912,
,,,C,U,d,n,L,G,d,L,i,,,,,5,19,119,15,3,0,3,0,,,,,1,30,66,16,,,,,,down,1.150893259262375,2219.51067854137,None,001,5,2019_Jun_04_1628,ACPT_experiment_5_30_19,3.1.0,59.94857123177912,
,,,C,U,d,n,R,G,y,R,y,,,,,5,19,119,15,3,0,3,0,,,,,1,31,67,29,,,,,,down,0.7505611546948785,2221.945910000326,None,001,5,2019_Jun_04_1628,ACPT_experiment_5_30_19,3.1.0,59.94857123177912,
,,,C,U,d,n,L,U,d,L,u,,,,,5,19,119,15,3,0,3,0,,,,,1,32,68,20,,,,,,down,0.5670874169736635,2223.980815693736,None,001,5,2019_Jun_04_1628,ACPT_experiment_5_30_19,3.1.0,59.94857123177912,
,,,C,U,d,n,R,U,g,R,u,,,,,5,19,119,15,3,0,3,0,,,,,1,33,69,11,,,,,,down,0.6671758010998019,2225.832222293324,None,001,5,2019_Jun_04_1628,ACPT_experiment_5_30_19,3.1.0,59.94857123177912,
,,,C,U,d,n,L,U,y,L,u,,,,,5,19,119,15,3,0,3,0,,,,,1,34,70,24,,,,,,down,0.43366028618765995,2227.7837278420848,None,001,5,2019_Jun_04_1628,ACPT_experiment_5_30_19,3.1.0,59.94857123177912,
,,,C,U,d,n,R,U,d,R,u,,,,,5,19,119,15,3,0,3,0,,,,,1,35,71,9,,,,,,down,0.6671736880962271,2229.5017181777876,None,001,5,2019_Jun_04_1628,ACPT_experiment_5_30_19,3.1.0,59.94857123177912,
,,,C,U,d,n,,,,,,,,,,5,19,119,15,4,0,4,0,0,0,0,0,,,,,,,,,,,,,,001,5,2019_Jun_04_1628,ACPT_experiment_5_30_19,3.1.0,59.94857123177912,
,,,C,U,d,n,L,D,y,L,y,,,,,5,19,119,15,4,0,4,0,,,,,0,0,0,32,,,,,,down,0.5837783731767558,2233.321330036233,None,001,5,2019_Jun_04_1628,ACPT_experiment_5_30_19,3.1.0,59.94857123177912,
,,,C,U,d,n,R,U,g,R,u,,,,,5,19,119,15,4,0,4,0,,,,,0,1,1,11,,,,,,down,1.0005116499196447,2235.2063715055374,None,001,5,2019_Jun_04_1628,ACPT_experiment_5_30_19,3.1.0,59.94857123177912,
,,,C,U,d,n,L,D,d,L,c ,,,,,5,19,119,15,4,0,4,0,,,,,0,2,2,12,,,,,,up,0.867342608031322,2237.4912041492244,None,001,5,2019_Jun_04_1628,ACPT_experiment_5_30_19,3.1.0,59.94857123177912,
,,,C,U,d,n,L,G,y,L,y,,,,,5,19,119,15,4,0,4,0,,,,,0,3,3,34,,,,,,down,0.6838622294308152,2239.6428641287202,None,001,5,2019_Jun_04_1628,ACPT_experiment_5_30_19,3.1.0,59.94857123177912,
,,,C,U,d,n,R,U,d,L,u,,,,,5,19,119,15,4,0,4,0,,,,,0,4,4,8,,,,,,down,0.7503266107451054,2241.6279803985235,None,001,5,2019_Jun_04_1628,ACPT_experiment_5_30_19,3.1.0,59.94857123177912,
,,,C,U,d,n,L,D,g,R,i,,,,,5,19,119,15,4,0,4,0,,,,,0,5,5,15,,,,,,down,1.0174616006006545,2243.6626310216197,None,001,5,2019_Jun_04_1628,ACPT_experiment_5_30_19,3.1.0,59.94857123177912,
,,,C,U,d,n,R,G,d,L,i,,,,,5,19,119,15,4,0,4,0,,,,,0,6,6,4,,,,,,down,1.1175065171228198,2245.9644066732435,None,001,5,2019_Jun_04_1628,ACPT_experiment_5_30_19,3.1.0,59.94857123177912,
,,,C,U,d,n,L,G,y,R,y,,,,,5,19,119,15,4,0,4,0,,,,,0,7,7,35,,,,,,down,0.7505747383183916,2248.3662604458077,None,001,5,2019_Jun_04_1628,ACPT_experiment_5_30_19,3.1.0,59.94857123177912,
,,,C,U,d,n,R,U,g,L,u,,,,,5,19,119,15,4,0,4,0,,,,,0,8,8,10,,,,,,down,1.851428635251068,2250.4011667429368,None,001,5,2019_Jun_04_1628,ACPT_experiment_5_30_19,3.1.0,59.94857123177912,
,,,C,U,d,n,R,U,y,L,u,,,,,5,19,119,15,4,0,4,0,,,,,0,9,9,30,,,,,,down,0.6504993341004592,2253.5369127496524,None,001,5,2019_Jun_04_1628,ACPT_experiment_5_30_19,3.1.0,59.94857123177912,
,,,C,U,d,n,L,U,d,L,u,,,,,5,19,119,15,4,0,4,0,,,,,0,10,10,20,,,,,,down,0.4169811024585215,2255.4717409258337,None,001,5,2019_Jun_04_1628,ACPT_experiment_5_30_19,3.1.0,59.94857123177912,
,,,C,U,d,n,R,D,y,L,y,,,,,5,19,119,15,4,0,4,0,,,,,0,11,11,26,,,,,,down,0.4169856303342385,2257.173048455512,None,001,5,2019_Jun_04_1628,ACPT_experiment_5_30_19,3.1.0,59.94857123177912,
,,,C,U,d,n,R,D,y,R,y,,,,,5,19,119,15,4,0,4,0,,,,,0,12,12,27,,,,,,down,0.6838592108470039,2258.87436081492,None,001,5,2019_Jun_04_1628,ACPT_experiment_5_30_19,3.1.0,59.94857123177912,
,,,C,U,d,n,L,U,y,L,u,,,,,5,19,119,15,4,0,4,0,,,,,0,13,13,24,,,,,,down,0.5337408219966164,2260.8425479622747,None,001,5,2019_Jun_04_1628,ACPT_experiment_5_30_19,3.1.0,59.94857123177912,
,,,C,U,d,n,L,G,d,R,i,,,,,5,19,119,15,4,0,4,0,,,,,0,14,14,17,,,,,,down,1.0007637016533408,2262.660617022637,None,001,5,2019_Jun_04_1628,ACPT_experiment_5_30_19,3.1.0,59.94857123177912,
,,,C,U,d,n,R,D,d,L,c,,,,,5,19,119,15,4,0,4,0,,,,,0,15,15,0,,,,,,up,0.8339782034126983,2264.945707151506,None,001,5,2019_Jun_04_1628,ACPT_experiment_5_30_19,3.1.0,59.94857123177912,
,,,C,U,d,n,L,D,d,R,c ,,,,,5,19,119,15,4,0,4,0,,,,,0,16,16,13,,,,,,down,1.117530363935657,2267.064007556117,None,001,5,2019_Jun_04_1628,ACPT_experiment_5_30_19,3.1.0,59.94857123177912,
,,,C,U,d,n,R,U,y,R,u,,,,,5,19,119,15,4,0,4,0,,,,,0,17,17,31,,,,,,down,0.5502213829204265,2269.4827095530927,None,001,5,2019_Jun_04_1628,ACPT_experiment_5_30_19,3.1.0,59.94857123177912,
,,,C,U,d,n,L,G,g,R,c ,,,,,5,19,119,15,4,0,4,0,,,,,0,18,18,19,,,,,,up,0.7672439607194974,2271.3339748829676,None,001,5,2019_Jun_04_1628,ACPT_experiment_5_30_19,3.1.0,59.94857123177912,
,,,C,U,d,n,R,G,y,L,y,,,,,5,19,119,15,4,0,4,0,,,,,0,19,19,28,,,,,,down,0.6338041518793034,2273.4022344159566,None,001,5,2019_Jun_04_1628,ACPT_experiment_5_30_19,3.1.0,59.94857123177912,
,,,C,U,d,n,L,G,d,L,i,,,,,5,19,119,15,4,0,4,0,,,,,0,20,20,16,,,,,,down,0.8673302318384231,2275.337052630817,None,001,5,2019_Jun_04_1628,ACPT_experiment_5_30_19,3.1.0,59.94857123177912,
,,,C,U,d,n,L,U,y,R,u,,,,,5,19,119,15,4,0,4,0,,,,,0,21,21,25,,,,,,down,0.6671758011034399,2277.488715628897,None,001,5,2019_Jun_04_1628,ACPT_experiment_5_30_19,3.1.0,59.94857123177912,
,,,C,U,d,n,R,G,g,R,c ,,,,,5,19,119,15,4,0,4,0,,,,,0,22,22,7,,,,,,up,0.7172118429916736,2279.4402184609316,None,001,5,2019_Jun_04_1628,ACPT_experiment_5_30_19,3.1.0,59.94857123177912,
,,,C,U,d,n,R,G,y,R,y,,,,,5,19,119,15,4,0,4,0,,,,,0,23,23,29,,,,,,down,0.5170604308368638,2281.4250787548444,None,001,5,2019_Jun_04_1628,ACPT_experiment_5_30_19,3.1.0,59.94857123177912,
,,,C,U,d,n,R,G,d,R,i,,,,,5,19,119,15,4,0,4,0,,,,,0,24,24,5,,,,,,down,0.7172184838746034,2283.226465009182,None,001,5,2019_Jun_04_1628,ACPT_experiment_5_30_19,3.1.0,59.94857123177912,
,,,C,U,d,n,R,U,d,R,u,,,,,5,19,119,15,4,0,4,0,,,,,0,25,25,9,,,,,,down,0.8172797007500776,2285.228019881597,None,001,5,2019_Jun_04_1628,ACPT_experiment_5_30_19,3.1.0,59.94857123177912,
,,,C,U,d,n,L,G,g,L,c ,,,,,5,19,119,15,4,0,4,0,,,,,0,26,26,18,,,,,,up,0.8172929825159372,2287.3296329523073,None,001,5,2019_Jun_04_1628,ACPT_experiment_5_30_19,3.1.0,59.94857123177912,
,,,C,U,d,n,L,U,d,R,u,,,,,5,19,119,15,4,0,4,0,,,,,0,27,27,21,,,,,,down,0.6171400610728597,2289.4312514564663,None,001,5,2019_Jun_04_1628,ACPT_experiment_5_30_19,3.1.0,59.94857123177912,
,,,C,U,d,n,R,D,g,L,i,,,,,5,19,119,15,4,0,4,0,,,,,0,28,28,2,,,,,,up,0.7672602610728063,2291.3327128131605,None,001,5,2019_Jun_04_1628,ACPT_experiment_5_30_19,3.1.0,59.94857123177912,
,,,C,U,d,n,L,U,g,L,u,,,,,5,19,119,15,4,0,4,0,,,,,0,29,29,22,,,,,,down,1.0341365583080915,2293.384294671716,None,001,5,2019_Jun_04_1628,ACPT_experiment_5_30_19,3.1.0,59.94857123177912,
,,,C,U,d,n,R,G,g,L,c ,,,,,5,19,119,15,4,0,4,0,,,,,0,30,30,6,,,,,,up,1.4344605127007526,2295.7027543367985,None,001,5,2019_Jun_04_1628,ACPT_experiment_5_30_19,3.1.0,59.94857123177912,
,,,C,U,d,n,L,D,g,L,i,,,,,5,19,119,15,4,0,4,0,,,,,0,31,31,14,,,,,,down,0.9507324894984777,2298.4215177317637,None,001,5,2019_Jun_04_1628,ACPT_experiment_5_30_19,3.1.0,59.94857123177912,
,,,C,U,d,n,R,D,d,R,c ,,,,,5,19,119,15,4,0,4,0,,,,,0,32,32,1,,,,,,up,1.2009247732748918,2300.6565700075953,None,001,5,2019_Jun_04_1628,ACPT_experiment_5_30_19,3.1.0,59.94857123177912,
,,,C,U,d,n,L,U,g,R,u,,,,,5,19,119,15,4,0,4,0,,,,,0,33,33,23,,,,,,down,0.5504242317401804,2303.1418136616267,None,001,5,2019_Jun_04_1628,ACPT_experiment_5_30_19,3.1.0,59.94857123177912,
,,,C,U,d,n,R,D,g,R,i,,,,,5,19,119,15,4,0,4,0,,,,,0,34,34,3,,,,,,up,0.7839403503749054,2304.976568546601,None,001,5,2019_Jun_04_1628,ACPT_experiment_5_30_19,3.1.0,59.94857123177912,
,,,C,U,d,n,L,D,y,R,y,,,,,5,19,119,15,4,0,4,0,,,,,0,35,35,33,,,,,,down,0.4169539352078573,2307.0615296008327,None,001,5,2019_Jun_04_1628,ACPT_experiment_5_30_19,3.1.0,59.94857123177912,
,,,C,U,d,n,L,D,y,L,y,,,,,5,19,119,15,4,0,4,0,,,,,1,0,36,32,,,,,,down,0.5837726378667867,2308.779500013883,None,001,5,2019_Jun_04_1628,ACPT_experiment_5_30_19,3.1.0,59.94857123177912,
,,,C,U,d,n,L,U,g,L,u,,,,,5,19,119,15,4,0,4,0,,,,,1,1,37,22,,,,,,down,0.7838241349018062,2310.6476069272867,None,001,5,2019_Jun_04_1628,ACPT_experiment_5_30_19,3.1.0,59.94857123177912,
,,,C,U,d,n,R,G,g,L,c ,,,,,5,19,119,15,4,0,4,0,,,,,1,2,38,6,,,,,,up,2.6351558736205334,2312.732793469717,None,001,5,2019_Jun_04_1628,ACPT_experiment_5_30_19,3.1.0,59.94857123177912,
,,,C,U,d,n,L,D,d,R,c ,,,,,5,19,119,15,4,0,4,0,,,,,1,3,39,13,,,,,,up,0.9173738201861852,2316.6522395475513,None,001,5,2019_Jun_04_1628,ACPT_experiment_5_30_19,3.1.0,59.94857123177912,
,,,C,U,d,n,R,D,g,R,i,,,,,5,19,119,15,4,0,4,0,,,,,1,4,40,3,,,,,,down,0.6838637387227209,2318.8539316447786,None,001,5,2019_Jun_04_1628,ACPT_experiment_5_30_19,3.1.0,59.94857123177912,
,,,C,U,d,n,L,G,g,L,c ,,,,,5,19,119,15,4,0,4,0,,,,,1,5,41,18,,,,,,up,0.8506531611201353,2320.82211879213,None,001,5,2019_Jun_04_1628,ACPT_experiment_5_30_19,3.1.0,59.94857123177912,
,,,C,U,d,n,L,D,g,L,i,,,,,5,19,119,15,4,0,4,0,,,,,1,6,42,14,,,,,,down,0.8673362690060458,2322.95709656932,None,001,5,2019_Jun_04_1628,ACPT_experiment_5_30_19,3.1.0,59.94857123177912,
,,,C,U,d,n,L,D,y,R,y,,,,,5,19,119,15,4,0,4,0,,,,,1,7,43,33,,,,,,down,0.6338243763930222,2325.1087520209403,None,001,5,2019_Jun_04_1628,ACPT_experiment_5_30_19,3.1.0,59.94857123177912,
,,,C,U,d,n,R,D,d,R,c ,,,,,5,19,119,15,4,0,4,0,,,,,1,8,44,1,,,,,,up,0.8339715625297686,2327.026901617115,None,001,5,2019_Jun_04_1628,ACPT_experiment_5_30_19,3.1.0,59.94857123177912,
,,,C,U,d,n,R,D,d,L,c,,,,,5,19,119,15,4,0,4,0,,,,,1,9,45,0,,,,,,up,1.3343570356519194,2329.1285195175587,None,001,5,2019_Jun_04_1628,ACPT_experiment_5_30_19,3.1.0,59.94857123177912,
,,,C,U,d,n,L,U,y,L,u,,,,,5,19,119,15,4,0,4,0,,,,,1,10,46,24,,,,,,down,0.5337447461570264,2331.747205395295,None,001,5,2019_Jun_04_1628,ACPT_experiment_5_30_19,3.1.0,59.94857123177912,
,,,C,U,d,n,L,U,d,R,u,,,,,5,19,119,15,4,0,4,0,,,,,1,11,47,21,,,,,,down,0.8506830451005953,2333.5652460809724,None,001,5,2019_Jun_04_1628,ACPT_experiment_5_30_19,3.1.0,59.94857123177912,
,,,C,U,d,n,R,G,y,R,y,,,,,5,19,119,15,4,0,4,0,,,,,1,12,48,29,,,,,,down,0.8004607565999322,2335.7170754030085,None,001,5,2019_Jun_04_1628,ACPT_experiment_5_30_19,3.1.0,59.94857123177912,
,,,C,U,d,n,R,D,g,L,i,,,,,5,19,119,15,4,0,4,0,,,,,1,13,49,2,,,,,,down,0.9674017118995835,2337.818559580199,None,001,5,2019_Jun_04_1628,ACPT_experiment_5_30_19,3.1.0,59.94857123177912,
,,,C,U,d,n,R,U,g,L,u,,,,,5,19,119,15,4,0,4,0,,,,,1,14,50,10,,,,,,down,0.6004705368104624,2340.053604913286,None,001,5,2019_Jun_04_1628,ACPT_experiment_5_30_19,3.1.0,59.94857123177912,
,,,C,U,d,n,L,G,g,R,c ,,,,,5,19,119,15,4,0,4,0,,,,,1,15,51,19,,,,,,up,0.6671800271215034,2341.9383979531594,None,001,5,2019_Jun_04_1628,ACPT_experiment_5_30_19,3.1.0,59.94857123177912,
,,,C,U,d,n,L,D,g,R,i,,,,,5,19,119,15,4,0,4,0,,,,,1,16,52,15,,,,,,down,0.9173789517772093,2343.8898977666104,None,001,5,2019_Jun_04_1628,ACPT_experiment_5_30_19,3.1.0,59.94857123177912,
,,,C,U,d,n,R,U,d,R,u,,,,,5,19,119,15,4,0,4,0,,,,,1,17,53,9,,,,,,down,0.7172212006007612,2346.0915974102973,None,001,5,2019_Jun_04_1628,ACPT_experiment_5_30_19,3.1.0,59.94857123177912,
,,,C,U,d,n,R,G,d,L,i,,,,,5,19,119,15,4,0,4,0,,,,,1,18,54,4,,,,,,down,2.7854686592545477,2348.1098323720144,None,001,5,2019_Jun_04_1628,ACPT_experiment_5_30_19,3.1.0,59.94857123177912,
,,,C,U,d,n,R,U,y,L,u,,,,,5,19,119,15,4,0,4,0,,,,,1,19,55,30,,,,,,down,0.633843393468851,2352.1796045172487,None,001,5,2019_Jun_04_1628,ACPT_experiment_5_30_19,3.1.0,59.94857123177912,
,,,C,U,d,n,L,G,y,L,y,,,,,5,19,119,15,4,0,4,0,,,,,1,20,56,34,,,,,,down,0.7672566387700499,2354.0977686026235,None,001,5,2019_Jun_04_1628,ACPT_experiment_5_30_19,3.1.0,59.94857123177912,
,,,C,U,d,n,R,U,g,R,u,,,,,5,19,119,15,4,0,4,0,,,,,1,21,57,11,,,,,,down,0.6171436833719781,2356.1493507630366,None,001,5,2019_Jun_04_1628,ACPT_experiment_5_30_19,3.1.0,59.94857123177912,
,,,C,U,d,n,L,D,d,L,c ,,,,,5,19,119,15,4,0,4,0,,,,,1,22,58,12,,,,,,up,1.1506116254095105,2358.0677699187254,None,001,5,2019_Jun_04_1628,ACPT_experiment_5_30_19,3.1.0,59.94857123177912,
,,,C,U,d,n,L,U,d,L,u,,,,,5,19,119,15,4,0,4,0,,,,,1,23,59,20,,,,,,down,0.717207013258303,2360.5027079713545,None,001,5,2019_Jun_04_1628,ACPT_experiment_5_30_19,3.1.0,59.94857123177912,
,,,C,U,d,n,R,D,y,L,y,,,,,5,19,119,15,4,0,4,0,,,,,1,24,60,26,,,,,,down,1.0508347591094207,2362.504224205899,None,001,5,2019_Jun_04_1628,ACPT_experiment_5_30_19,3.1.0,59.94857123177912,
,,,C,U,d,n,R,G,g,R,c ,,,,,5,19,119,15,4,0,4,0,,,,,1,25,61,7,,,,,,up,1.4678243136040692,2364.8393844866514,None,001,5,2019_Jun_04_1628,ACPT_experiment_5_30_19,3.1.0,59.94857123177912,
,,,C,U,d,n,R,G,y,L,y,,,,,5,19,119,15,4,0,4,0,,,,,1,26,62,28,,,,,,down,0.8506579908571439,2367.5915053434946,None,001,5,2019_Jun_04_1628,ACPT_experiment_5_30_19,3.1.0,59.94857123177912,
,,,C,U,d,n,R,D,y,R,y,,,,,5,19,119,15,4,0,4,0,,,,,1,27,63,27,,,,,,down,0.8838123020577768,2369.7433274209325,None,001,5,2019_Jun_04_1628,ACPT_experiment_5_30_19,3.1.0,59.94857123177912,
,,,C,U,d,n,L,U,g,R,u,,,,,5,19,119,15,4,0,4,0,,,,,1,28,64,23,,,,,,down,0.700561335808743,2371.9281571064093,None,001,5,2019_Jun_04_1628,ACPT_experiment_5_30_19,3.1.0,59.94857123177912,
,,,C,U,d,n,L,U,y,R,u,,,,,5,19,119,15,4,0,4,0,,,,,1,29,65,25,,,,,,down,0.43366602149399114,2373.913045775007,None,001,5,2019_Jun_04_1628,ACPT_experiment_5_30_19,3.1.0,59.94857123177912,
,,,C,U,d,n,R,U,y,R,u,,,,,5,19,119,15,4,0,4,0,,,,,1,30,66,31,,,,,,down,0.4003076540429902,2375.6310339977026,None,001,5,2019_Jun_04_1628,ACPT_experiment_5_30_19,3.1.0,59.94857123177912,
,,,C,U,d,n,L,G,y,R,y,,,,,5,19,119,15,4,0,4,0,,,,,1,31,67,35,,,,,,down,0.6504923913562379,2377.3323505831286,None,001,5,2019_Jun_04_1628,ACPT_experiment_5_30_19,3.1.0,59.94857123177912,
,,,C,U,d,n,L,G,d,R,i,,,,,5,19,119,15,4,0,4,0,,,,,1,32,68,17,,,,,,down,0.8170158765424276,2379.31748556815,None,001,5,2019_Jun_04_1628,ACPT_experiment_5_30_19,3.1.0,59.94857123177912,
,,,C,U,d,n,L,G,d,L,i,,,,,5,19,119,15,4,0,4,0,,,,,1,33,69,16,,,,,,down,0.7172181820133119,2381.41883119235,None,001,5,2019_Jun_04_1628,ACPT_experiment_5_30_19,3.1.0,59.94857123177912,
,,,C,U,d,n,R,G,d,R,i,,,,,5,19,119,15,4,0,4,0,,,,,1,34,70,5,,,,,,down,0.6171373443467019,2383.4203739904333,None,001,5,2019_Jun_04_1628,ACPT_experiment_5_30_19,3.1.0,59.94857123177912,
,,,C,U,d,n,R,U,d,L,u,,,,,5,19,119,15,4,0,4,0,,,,,1,35,71,8,,,,,,down,0.75058228477792,2385.3218386675726,None,001,5,2019_Jun_04_1628,ACPT_experiment_5_30_19,3.1.0,59.94857123177912,
,,,C,U,d,n,,,,,,,,,,5,19,119,15,5,0,5,0,0,0,0,0,,,,,,,,,,,,,,001,5,2019_Jun_04_1628,ACPT_experiment_5_30_19,3.1.0,59.94857123177912,
,,,C,U,d,n,L,G,y,L,y,,,,,5,19,119,15,5,0,5,0,,,,,0,0,0,34,,,,,,down,0.5837708267172275,2389.2415374008524,None,001,5,2019_Jun_04_1628,ACPT_experiment_5_30_19,3.1.0,59.94857123177912,
,,,C,U,d,n,R,G,y,L,y,,,,,5,19,119,15,5,0,5,0,,,,,0,1,1,28,,,,,,down,0.5004023771944048,2391.1096289194793,None,001,5,2019_Jun_04_1628,ACPT_experiment_5_30_19,3.1.0,59.94857123177912,
,,,C,U,d,n,R,G,d,L,i,,,,,5,19,119,15,5,0,5,0,,,,,0,2,2,4,,,,,,down,0.6838830576562032,2392.8943199915957,None,001,5,2019_Jun_04_1628,ACPT_experiment_5_30_19,3.1.0,59.94857123177912,
,,,C,U,d,n,L,U,g,L,u,,,,,5,19,119,15,5,0,5,0,,,,,0,3,3,22,,,,,,down,0.717227841483691,2394.8625261560264,None,001,5,2019_Jun_04_1628,ACPT_experiment_5_30_19,3.1.0,59.94857123177912,
,,,C,U,d,n,L,U,y,R,u,,,,,5,19,119,15,5,0,5,0,,,,,0,4,4,25,,,,,,down,0.4169856303342385,2396.8640731801243,None,001,5,2019_Jun_04_1628,ACPT_experiment_5_30_19,3.1.0,59.94857123177912,
,,,C,U,d,n,R,U,y,R,u,,,,,5,19,119,15,5,0,5,0,,,,,0,5,5,31,,,,,,down,0.31688547373050824,2398.5820804198956,None,001,5,2019_Jun_04_1628,ACPT_experiment_5_30_19,3.1.0,59.94857123177912,
,,,C,U,d,n,L,G,g,R,c ,,,,,5,19,119,15,5,0,5,0,,,,,0,6,6,19,,,,,,up,0.9006916178768734,2400.1832998673017,None,001,5,2019_Jun_04_1628,ACPT_experiment_5_30_19,3.1.0,59.94857123177912,
,,,C,U,d,n,R,G,g,R,c ,,,,,5,19,119,15,5,0,5,0,,,,,0,7,7,7,,,,,,up,0.7172163708637527,2402.3683142900954,None,001,5,2019_Jun_04_1628,ACPT_experiment_5_30_19,3.1.0,59.94857123177912,
,,,C,U,d,n,R,D,g,L,i,,,,,5,19,119,15,5,0,5,0,,,,,0,8,8,2,,,,,,down,1.0508389851274842,2404.3698344488002,None,001,5,2019_Jun_04_1628,ACPT_experiment_5_30_19,3.1.0,59.94857123177912,
,,,C,U,d,n,R,D,d,L,c,,,,,5,19,119,15,5,0,5,0,,,,,0,9,9,0,,,,,,up,0.6504948062247422,2406.704992918403,None,001,5,2019_Jun_04_1628,ACPT_experiment_5_30_19,3.1.0,59.94857123177912,
,,,C,U,d,n,R,U,d,L,u,,,,,5,19,119,15,5,0,5,0,,,,,0,10,10,8,,,,,,down,0.7839309927658178,2408.639817774143,None,001,5,2019_Jun_04_1628,ACPT_experiment_5_30_19,3.1.0,59.94857123177912,
,,,C,U,d,n,L,U,d,L,u,,,,,5,19,119,15,5,0,5,0,,,,,0,11,11,20,,,,,,down,0.517066166146833,2410.708070666249,None,001,5,2019_Jun_04_1628,ACPT_experiment_5_30_19,3.1.0,59.94857123177912,
,,,C,U,d,n,R,G,g,L,c ,,,,,5,19,119,15,5,0,5,0,,,,,0,12,12,6,,,,,,up,0.7839189184305724,2412.509479258104,None,001,5,2019_Jun_04_1628,ACPT_experiment_5_30_19,3.1.0,59.94857123177912,
,,,C,U,d,n,L,G,y,R,y,,,,,5,19,119,15,5,0,5,0,,,,,0,13,13,35,,,,,,down,0.5837792787497165,2414.5777297353416,None,001,5,2019_Jun_04_1628,ACPT_experiment_5_30_19,3.1.0,59.94857123177912,
,,,C,U,d,n,R,U,d,R,u,,,,,5,19,119,15,5,0,5,0,,,,,0,14,14,9,,,,,,down,0.40030312616363517,2416.4458384598947,None,001,5,2019_Jun_04_1628,ACPT_experiment_5_30_19,3.1.0,59.94857123177912,
,,,C,U,d,n,R,D,g,R,i,,,,,5,19,119,15,5,0,5,0,,,,,0,15,15,3,,,,,,down,1.414418928692612,2418.150482430032,None,001,5,2019_Jun_04_1628,ACPT_experiment_5_30_19,3.1.0,59.94857123177912,
,,,C,U,d,n,R,D,d,R,c ,,,,,5,19,119,15,5,0,5,0,,,,,0,16,16,1,,,,,,down,0.9841195334956865,2420.8325259628364,None,001,5,2019_Jun_04_1628,ACPT_experiment_5_30_19,3.1.0,59.94857123177912,
,,,C,U,d,n,L,U,y,L,u,,,,,5,19,119,15,5,0,5,0,,,,,0,17,17,24,,,,,,down,0.7338949508739461,2423.117645673825,None,001,5,2019_Jun_04_1628,ACPT_experiment_5_30_19,3.1.0,59.94857123177912,
,,,C,U,d,n,R,U,g,R,u,,,,,5,19,119,15,5,0,5,0,,,,,0,18,18,11,,,,,,down,0.600459066194162,2425.1525468393593,None,001,5,2019_Jun_04_1628,ACPT_experiment_5_30_19,3.1.0,59.94857123177912,
,,,C,U,d,n,R,G,d,R,i,,,,,5,19,119,15,5,0,5,0,,,,,0,19,19,5,,,,,,down,0.9170991290775419,2427.0542895280487,None,001,5,2019_Jun_04_1628,ACPT_experiment_5_30_19,3.1.0,59.94857123177912,
,,,C,U,d,n,L,D,y,R,y,,,,,5,19,119,15,5,0,5,0,,,,,0,20,20,33,,,,,,down,0.8006430790519516,2429.2556848985078,None,001,5,2019_Jun_04_1628,ACPT_experiment_5_30_19,3.1.0,59.94857123177912,
,,,C,U,d,n,L,D,g,R,i,,,,,5,19,119,15,5,0,5,0,,,,,0,21,21,15,,,,,,down,0.950730980206572,2431.3406507824766,None,001,5,2019_Jun_04_1628,ACPT_experiment_5_30_19,3.1.0,59.94857123177912,
,,,C,U,d,n,L,U,d,R,u,,,,,5,19,119,15,5,0,5,0,,,,,0,22,22,21,,,,,,down,0.9004256806620106,2433.592654216416,None,001,5,2019_Jun_04_1628,ACPT_experiment_5_30_19,3.1.0,59.94857123177912,
,,,C,U,d,n,R,D,y,R,y,,,,,5,19,119,15,5,0,5,0,,,,,0,23,23,27,,,,,,down,0.583800408836396,2435.777383986777,None,001,5,2019_Jun_04_1628,ACPT_experiment_5_30_19,3.1.0,59.94857123177912,
,,,C,U,d,n,R,D,y,L,y,,,,,5,19,119,15,5,0,5,0,,,,,0,24,24,26,,,,,,down,0.6336136792560865,2437.662365084405,None,001,5,2019_Jun_04_1628,ACPT_experiment_5_30_19,3.1.0,59.94857123177912,
,,,C,U,d,n,L,U,g,R,u,,,,,5,19,119,15,5,0,5,0,,,,,0,25,25,23,,,,,,down,0.7005362815616536,2439.597016673448,None,001,5,2019_Jun_04_1628,ACPT_experiment_5_30_19,3.1.0,59.94857123177912,
,,,C,U,d,n,L,G,d,R,i,,,,,5,19,119,15,5,0,5,0,,,,,0,26,26,17,,,,,,down,0.9173593309860735,2441.581889947269,None,001,5,2019_Jun_04_1628,ACPT_experiment_5_30_19,3.1.0,59.94857123177912,
,,,C,U,d,n,L,D,g,L,i,,,,,5,19,119,15,5,0,5,0,,,,,0,27,27,14,,,,,,down,0.7839297853279277,2443.7835735924637,None,001,5,2019_Jun_04_1628,ACPT_experiment_5_30_19,3.1.0,59.94857123177912,
,,,C,U,d,n,L,D,d,L,c ,,,,,5,19,119,15,5,0,5,0,,,,,0,28,28,12,,,,,,up,0.9004516404784226,2445.8520815548836,None,001,5,2019_Jun_04_1628,ACPT_experiment_5_30_19,3.1.0,59.94857123177912,
,,,C,U,d,n,L,G,g,L,c ,,,,,5,19,119,15,5,0,5,0,,,,,0,29,29,18,,,,,,up,0.9840935736792744,2448.036852981695,None,001,5,2019_Jun_04_1628,ACPT_experiment_5_30_19,3.1.0,59.94857123177912,
,,,C,U,d,n,R,U,y,L,u,,,,,5,19,119,15,5,0,5,0,,,,,0,30,30,30,,,,,,down,0.6504996359581128,2450.3052699640066,None,001,5,2019_Jun_04_1628,ACPT_experiment_5_30_19,3.1.0,59.94857123177912,
,,,C,U,d,n,R,G,y,R,y,,,,,5,19,119,15,5,0,5,0,,,,,0,31,31,29,,,,,,down,0.7503335534893267,2452.2570151883046,None,001,5,2019_Jun_04_1628,ACPT_experiment_5_30_19,3.1.0,59.94857123177912,
,,,C,U,d,n,R,U,g,L,u,,,,,5,19,119,15,5,0,5,0,,,,,0,32,32,10,,,,,,down,0.48370085594797274,2454.2916757727253,None,001,5,2019_Jun_04_1628,ACPT_experiment_5_30_19,3.1.0,59.94857123177912,
,,,C,U,d,n,L,D,y,L,y,,,,,5,19,119,15,5,0,5,0,,,,,0,33,33,32,,,,,,down,0.5837844103443786,2456.0597084893416,None,001,5,2019_Jun_04_1628,ACPT_experiment_5_30_19,3.1.0,59.94857123177912,
,,,C,U,d,n,L,G,d,L,i,,,,,5,19,119,15,5,0,5,0,,,,,0,34,34,16,,,,,,down,0.767295578501944,2457.9278132897343,None,001,5,2019_Jun_04_1628,ACPT_experiment_5_30_19,3.1.0,59.94857123177912,
,,,C,U,d,n,L,D,d,R,c ,,,,,5,19,119,15,5,0,5,0,,,,,0,35,35,13,,,,,,up,1.0674931146131712,2459.979394846432,None,001,5,2019_Jun_04_1628,ACPT_experiment_5_30_19,3.1.0,59.94857123177912,
,,,C,U,d,n,R,D,d,R,c ,,,,,5,19,119,15,5,0,5,0,,,,,1,0,36,1,,,,,,up,0.6838601164199645,2462.3312086529513,None,001,5,2019_Jun_04_1628,ACPT_experiment_5_30_19,3.1.0,59.94857123177912,
,,,C,U,d,n,R,G,y,L,y,,,,,5,19,119,15,5,0,5,0,,,,,1,1,37,28,,,,,,down,0.6171373443467019,2464.2993951965873,None,001,5,2019_Jun_04_1628,ACPT_experiment_5_30_19,3.1.0,59.94857123177912,
,,,C,U,d,n,R,D,d,L,c,,,,,5,19,119,15,5,0,5,0,,,,,1,2,38,0,,,,,,up,0.850646218379552,2466.20087043877,None,001,5,2019_Jun_04_1628,ACPT_experiment_5_30_19,3.1.0,59.94857123177912,
,,,C,U,d,n,L,U,y,L,u,,,,,5,19,119,15,5,0,5,0,,,,,1,3,39,24,,,,,,down,0.4503467145113973,2468.3358388583474,None,001,5,2019_Jun_04_1628,ACPT_experiment_5_30_19,3.1.0,59.94857123177912,
,,,C,U,d,n,R,U,d,L,u,,,,,5,19,119,15,5,0,5,0,,,,,1,4,40,8,,,,,,down,0.7835099003495998,2470.0875926554218,None,001,5,2019_Jun_04_1628,ACPT_experiment_5_30_19,3.1.0,59.94857123177912,
,,,C,U,d,n,R,D,g,R,i,,,,,5,19,119,15,5,0,5,0,,,,,1,5,41,3,,,,,,down,1.1508950704082963,2472.1554467926326,None,001,5,2019_Jun_04_1628,ACPT_experiment_5_30_19,3.1.0,59.94857123177912,
,,,C,U,d,n,R,U,y,L,u,,,,,5,19,119,15,5,0,5,0,,,,,1,6,42,30,,,,,,down,0.46702408709097654,2474.59066134752,None,001,5,2019_Jun_04_1628,ACPT_experiment_5_30_19,3.1.0,59.94857123177912,
,,,C,U,d,n,L,G,g,L,c ,,,,,5,19,119,15,5,0,5,0,,,,,1,7,43,18,,,,,,up,0.7672563369123964,2476.342012465542,None,001,5,2019_Jun_04_1628,ACPT_experiment_5_30_19,3.1.0,59.94857123177912,
,,,C,U,d,n,R,U,d,R,u,,,,,5,19,119,15,5,0,5,0,,,,,1,8,44,9,,,,,,down,0.767266298240429,2478.393589192503,None,001,5,2019_Jun_04_1628,ACPT_experiment_5_30_19,3.1.0,59.94857123177912,
,,,C,U,d,n,R,U,y,R,u,,,,,5,19,119,15,5,0,5,0,,,,,1,9,45,31,,,,,,down,0.4503458089384367,2480.4451782956567,None,001,5,2019_Jun_04_1628,ACPT_experiment_5_30_19,3.1.0,59.94857123177912,
,,,C,U,d,n,L,D,y,R,y,,,,,5,19,119,15,5,0,5,0,,,,,1,10,46,33,,,,,,down,0.4336657196363376,2482.1798457020777,None,001,5,2019_Jun_04_1628,ACPT_experiment_5_30_19,3.1.0,59.94857123177912,
,,,C,U,d,n,L,G,y,L,y,,,,,5,19,119,15,5,0,5,0,,,,,1,11,47,34,,,,,,down,0.5504200057221169,2483.8978321136237,None,001,5,2019_Jun_04_1628,ACPT_experiment_5_30_19,3.1.0,59.94857123177912,
,,,C,U,d,n,L,G,d,L,i,,,,,5,19,119,15,5,0,5,0,,,,,1,12,48,16,,,,,,down,0.9007154646860727,2485.7158782327497,None,001,5,2019_Jun_04_1628,ACPT_experiment_5_30_19,3.1.0,59.94857123177912,
,,,C,U,d,n,L,U,g,L,u,,,,,5,19,119,15,5,0,5,0,,,,,1,13,49,22,,,,,,down,0.6671875735773938,2487.9009186153635,None,001,5,2019_Jun_04_1628,ACPT_experiment_5_30_19,3.1.0,59.94857123177912,
,,,C,U,d,n,L,D,d,L,c ,,,,,5,19,119,15,5,0,5,0,,,,,1,14,50,12,,,,,,up,1.0175065774928953,2489.852429597573,None,001,5,2019_Jun_04_1628,ACPT_experiment_5_30_19,3.1.0,59.94857123177912,
,,,C,U,d,n,L,G,y,R,y,,,,,5,19,119,15,5,0,5,0,,,,,1,15,51,35,,,,,,down,0.7005435261635284,2492.1541998157445,None,001,5,2019_Jun_04_1628,ACPT_experiment_5_30_19,3.1.0,59.94857123177912,
,,,C,U,d,n,R,G,d,R,i,,,,,5,19,119,15,5,0,5,0,,,,,1,16,52,5,,,,,,down,1.1342059253584011,2494.139066146825,None,001,5,2019_Jun_04_1628,ACPT_experiment_5_30_19,3.1.0,59.94857123177912,
,,,C,U,d,n,L,U,d,R,u,,,,,5,19,119,15,5,0,5,0,,,,,1,17,53,21,,,,,,down,0.6004557457563351,2496.5575975938264,None,001,5,2019_Jun_04_1628,ACPT_experiment_5_30_19,3.1.0,59.94857123177912,
,,,C,U,d,n,L,U,g,R,u,,,,,5,19,119,15,5,0,5,0,,,,,1,18,54,23,,,,,,down,0.4003360287279065,2498.4256758306838,None,001,5,2019_Jun_04_1628,ACPT_experiment_5_30_19,3.1.0,59.94857123177912,
,,,C,U,d,n,L,D,d,R,c ,,,,,5,19,119,15,5,0,5,0,,,,,1,19,55,13,,,,,,up,0.7839376336487476,2500.110329532734,None,001,5,2019_Jun_04_1628,ACPT_experiment_5_30_19,3.1.0,59.94857123177912,
,,,C,U,d,n,R,U,g,L,u,,,,,5,19,119,15,5,0,5,0,,,,,1,20,56,10,,,,,,down,0.48370689311559545,2502.1785899712995,None,001,5,2019_Jun_04_1628,ACPT_experiment_5_30_19,3.1.0,59.94857123177912,
,,,C,U,d,n,L,D,g,L,i,,,,,5,19,119,15,5,0,5,0,,,,,1,21,57,14,,,,,,down,1.0341335397242801,2503.9466193674743,None,001,5,2019_Jun_04_1628,ACPT_experiment_5_30_19,3.1.0,59.94857123177912,
,,,C,U,d,n,L,G,g,R,c ,,,,,5,19,119,15,5,0,5,0,,,,,1,22,58,19,,,,,,up,1.18424257096558,2506.2650766176885,None,001,5,2019_Jun_04_1628,ACPT_experiment_5_30_19,3.1.0,59.94857123177912,
,,,C,U,d,n,R,G,d,L,i,,,,,5,19,119,15,5,0,5,0,,,,,1,23,59,4,,,,,,down,2.134963891705411,2508.7336468233007,None,001,5,2019_Jun_04_1628,ACPT_experiment_5_30_19,3.1.0,59.94857123177912,
,,,C,U,d,n,L,D,y,L,y,,,,,5,19,119,15,5,0,5,0,,,,,1,24,60,32,,,,,,down,0.6171397592152061,2512.1529498202726,None,001,5,2019_Jun_04_1628,ACPT_experiment_5_30_19,3.1.0,59.94857123177912,
,,,C,U,d,n,R,D,g,L,i,,,,,5,19,119,15,5,0,5,0,,,,,1,25,61,2,,,,,,down,0.8339718643874221,2514.054419629003,None,001,5,2019_Jun_04_1628,ACPT_experiment_5_30_19,3.1.0,59.94857123177912,
,,,C,U,d,n,R,G,y,R,y,,,,,5,19,119,15,5,0,5,0,,,,,1,26,62,29,,,,,,down,0.6338198485136672,2516.172713996446,None,001,5,2019_Jun_04_1628,ACPT_experiment_5_30_19,3.1.0,59.94857123177912,
,,,C,U,d,n,L,U,y,R,u,,,,,5,19,119,15,5,0,5,0,,,,,1,27,63,25,,,,,,down,0.4667575461571687,2518.1077866779015,None,001,5,2019_Jun_04_1628,ACPT_experiment_5_30_19,3.1.0,59.94857123177912,
,,,C,U,d,n,L,D,g,R,i,,,,,5,19,119,15,5,0,5,0,,,,,1,28,64,15,,,,,,down,1.0508057807091973,2519.8588899702117,None,001,5,2019_Jun_04_1628,ACPT_experiment_5_30_19,3.1.0,59.94857123177912,
