facing_vig,person_vig,text_vig,facing_train,person_train,food_train,correct_key_train,facing_exp,person_exp,food_exp,showL_R,consistent,vig_random.thisRepN,vig_random.thisTrialN,vig_random.thisN,vig_random.thisIndex,trainTrials.thisRepN,trainTrials.thisTrialN,trainTrials.thisN,trainTrials.thisIndex,expBlock.thisRepN,expBlock.thisTrialN,expBlock.thisN,expBlock.thisIndex,breakLoop.thisRepN,breakLoop.thisTrialN,breakLoop.thisN,breakLoop.thisIndex,expTrials.thisRepN,expTrials.thisTrialN,expTrials.thisN,expTrials.thisIndex,train_resp.keys,train_resp.corr,train_resp.rt,train_resp.started,train_resp.stopped,exp_resp.keys,exp_resp.rt,exp_resp.started,exp_resp.stopped,session,participant,date,expName,psychopyVersion,frameRate,
C,D,"is allergic to gluten, meaning she can’t eat wheat products. She enjoys eating dairy products. She thinks eating insects, like crickets, is disgusting.",,,,,,,,,,0,0,0,1,,,,,,,,,,,,,,,,,,,,,,,,,,001,60,2019_Oct_24_1201,ACPT_experiment_5_30_19,3.1.0,59.95338088102197,
C,U,"did not report her food preferences, so her food preferences are unknown.",,,,,,,,,,0,1,1,2,,,,,,,,,,,,,,,,,,,,,,,,,,001,60,2019_Oct_24_1201,ACPT_experiment_5_30_19,3.1.0,59.95338088102197,
C,G,"cannot eat dairy products because she is lactose intolerant. She enjoys eating wheat products. She thinks eating insects, like crickets, is disgusting.",,,,,,,,,,0,2,2,0,,,,,,,,,,,,,,,,,,,,,,,,,,001,60,2019_Oct_24_1201,ACPT_experiment_5_30_19,3.1.0,59.95338088102197,
,,,C,D,g,b,,,,,,,,,,0,0,0,1,,,,,,,,,,,,,b,1,3.5861264874874905,1629.4200133301056,None,,,,,001,60,2019_Oct_24_1201,ACPT_experiment_5_30_19,3.1.0,59.95338088102197,
,,,C,G,y,b,,,,,,,,,,0,1,1,14,,,,,,,,,,,,,b,1,2.0182706361556484,1636.2919848514957,None,,,,,001,60,2019_Oct_24_1201,ACPT_experiment_5_30_19,3.1.0,59.95338088102197,
,,,C,D,d,v,,,,,,,,,,0,2,2,18,,,,,,,,,,,,,v,1,1.7013410400031717,1641.5961050494425,None,,,,,001,60,2019_Oct_24_1201,ACPT_experiment_5_30_19,3.1.0,59.95338088102197,
,,,C,D,y,b,,,,,,,,,,0,3,3,11,,,,,,,,,,,,,b,1,1.2343040725045284,1646.583317083243,None,,,,,001,60,2019_Oct_24_1201,ACPT_experiment_5_30_19,3.1.0,59.95338088102197,
,,,C,D,d,v,,,,,,,,,,0,4,4,0,,,,,,,,,,,,,v,1,1.8011366209029802,1651.103772576811,None,,,,,001,60,2019_Oct_24_1201,ACPT_experiment_5_30_19,3.1.0,59.95338088102197,
,,,C,G,y,b,,,,,,,,,,0,5,5,5,,,,,,,,,,,,,b,1,1.301024329253778,1656.1907650985486,None,,,,,001,60,2019_Oct_24_1201,ACPT_experiment_5_30_19,3.1.0,59.95338088102197,
,,,C,U,d,n,,,,,,,,,,0,6,6,6,,,,,,,,,,,,,b,0,1.7010904968065006,1660.7945793319377,None,,,,,001,60,2019_Oct_24_1201,ACPT_experiment_5_30_19,3.1.0,59.95338088102197,
,,,C,G,d,b,,,,,,,,,,0,7,7,12,,,,,,,,,,,,,b,1,1.8181246570129588,1665.781515466364,None,,,,,001,60,2019_Oct_24_1201,ACPT_experiment_5_30_19,3.1.0,59.95338088102197,
,,,C,D,g,b,,,,,,,,,,0,8,8,10,,,,,,,,,,,,,b,1,1.4010970169674692,1670.8854854591373,None,,,,,001,60,2019_Oct_24_1201,ACPT_experiment_5_30_19,3.1.0,59.95338088102197,
,,,C,U,y,n,,,,,,,,,,0,9,9,8,,,,,,,,,,,,,b,0,1.4177768547579035,1675.5724507531704,None,,,,,001,60,2019_Oct_24_1201,ACPT_experiment_5_30_19,3.1.0,59.95338088102197,
,,,C,U,y,n,,,,,,,,,,0,10,10,17,,,,,,,,,,,,,b,0,2.101672843713459,1680.2594214806686,None,,,,,001,60,2019_Oct_24_1201,ACPT_experiment_5_30_19,3.1.0,59.95338088102197,
,,,C,U,g,n,,,,,,,,,,0,11,11,7,,,,,,,,,,,,,b,0,1.0508678152218636,1685.630227221549,None,,,,,001,60,2019_Oct_24_1201,ACPT_experiment_5_30_19,3.1.0,59.95338088102197,
,,,C,D,d,v,,,,,,,,,,0,12,12,9,,,,,,,,,,,,,v,1,0.900434737723117,1689.9838967134165,None,,,,,001,60,2019_Oct_24_1201,ACPT_experiment_5_30_19,3.1.0,59.95338088102197,
,,,C,G,g,v,,,,,,,,,,0,13,13,4,,,,,,,,,,,,,v,1,1.3010348943280405,1694.170183729666,None,,,,,001,60,2019_Oct_24_1201,ACPT_experiment_5_30_19,3.1.0,59.95338088102197,
,,,C,U,g,n,,,,,,,,,,0,14,14,16,,,,,,,,,,,,,b,0,0.9841309562125389,1698.7570832787478,None,,,,,001,60,2019_Oct_24_1201,ACPT_experiment_5_30_19,3.1.0,59.95338088102197,
,,,C,U,d,n,,,,,,,,,,0,15,15,15,,,,,,,,,,,,,b,0,1.0675225986942678,1703.0103833552384,None,,,,,001,60,2019_Oct_24_1201,ACPT_experiment_5_30_19,3.1.0,59.95338088102197,
,,,C,G,g,v,,,,,,,,,,0,16,16,19,,,,,,,,,,,,,b,0,0.7169897265212057,1707.3806880097272,None,,,,,001,60,2019_Oct_24_1201,ACPT_experiment_5_30_19,3.1.0,59.95338088102197,
,,,C,G,g,v,,,,,,,,,,0,17,17,13,,,,,,,,,,,,,b,0,0.8340157365273626,1711.3668604401955,None,,,,,001,60,2019_Oct_24_1201,ACPT_experiment_5_30_19,3.1.0,59.95338088102197,
,,,C,G,d,b,,,,,,,,,,0,18,18,3,,,,,,,,,,,,,v,0,0.34990379744886013,1715.4870698580853,None,,,,,001,60,2019_Oct_24_1201,ACPT_experiment_5_30_19,3.1.0,59.95338088102197,
,,,C,D,y,b,,,,,,,,,,0,19,19,2,,,,,,,,,,,,,b,1,1.4678477615034353,1719.1228467623496,None,,,,,001,60,2019_Oct_24_1201,ACPT_experiment_5_30_19,3.1.0,59.95338088102197,
,,,C,G,y,b,,,,,,,,,,1,0,20,14,,,,,,,,,,,,,b,1,2.018265202688781,1723.8765338224257,None,,,,,001,60,2019_Oct_24_1201,ACPT_experiment_5_30_19,3.1.0,59.95338088102197,
,,,C,U,y,n,,,,,,,,,,1,1,21,8,,,,,,,,,,,,,v,0,1.7847296638919943,1729.1806670003225,None,,,,,001,60,2019_Oct_24_1201,ACPT_experiment_5_30_19,3.1.0,59.95338088102197,
,,,C,U,d,n,,,,,,,,,,1,2,22,6,,,,,,,,,,,,,b,0,1.050842459042542,1734.2345669919305,None,,,,,001,60,2019_Oct_24_1201,ACPT_experiment_5_30_19,3.1.0,59.95338088102197,
,,,C,D,g,b,,,,,,,,,,1,3,23,10,,,,,,,,,,,,,v,0,1.3174258527978964,1738.5882473507336,None,,,,,001,60,2019_Oct_24_1201,ACPT_experiment_5_30_19,3.1.0,59.95338088102197,
,,,C,D,y,b,,,,,,,,,,1,4,24,11,,,,,,,,,,,,,n,0,1.0008068698334682,1743.1748251178324,None,,,,,001,60,2019_Oct_24_1201,ACPT_experiment_5_30_19,3.1.0,59.95338088102197,
,,,C,G,d,b,,,,,,,,,,1,5,25,3,,,,,,,,,,,,,b,1,0.9506203509899933,1747.4782794142247,None,,,,,001,60,2019_Oct_24_1201,ACPT_experiment_5_30_19,3.1.0,59.95338088102197,
,,,C,U,g,n,,,,,,,,,,1,6,26,16,,,,,,,,,,,,,b,0,1.768070352529321,1751.7147758906212,None,,,,,001,60,2019_Oct_24_1201,ACPT_experiment_5_30_19,3.1.0,59.95338088102197,
,,,C,G,y,b,,,,,,,,,,1,7,27,5,,,,,,,,,,,,,v,0,0.9841031851574371,1756.768722368557,None,,,,,001,60,2019_Oct_24_1201,ACPT_experiment_5_30_19,3.1.0,59.95338088102197,
,,,C,G,g,v,,,,,,,,,,1,8,28,19,,,,,,,,,,,,,v,1,1.6012378645027638,1761.0387001698273,None,,,,,001,60,2019_Oct_24_1201,ACPT_experiment_5_30_19,3.1.0,59.95338088102197,
,,,C,D,d,v,,,,,,,,,,1,9,29,18,,,,,,,,,,,,,v,1,1.6846741821573232,1765.92583710104,None,,,,,001,60,2019_Oct_24_1201,ACPT_experiment_5_30_19,3.1.0,59.95338088102197,
,,,C,U,g,n,,,,,,,,,,1,10,30,7,,,,,,,,,,,,,b,0,10.124535664974246,1770.8963321683586,None,,,,,001,60,2019_Oct_24_1201,ACPT_experiment_5_30_19,3.1.0,59.95338088102197,
,,,C,D,y,b,,,,,,,,,,1,11,31,2,,,,,,,,,,,,,b,1,1.2009465099326917,1784.3067258471838,None,,,,,001,60,2019_Oct_24_1201,ACPT_experiment_5_30_19,3.1.0,59.95338088102197,
,,,C,U,y,n,,,,,,,,,,1,12,32,17,,,,,,,,,,,,,n,1,0.8006436847117584,1788.7935364081532,None,,,,,001,60,2019_Oct_24_1201,ACPT_experiment_5_30_19,3.1.0,59.95338088102197,
,,,C,U,d,n,,,,,,,,,,1,13,33,15,,,,,,,,,,,,,n,1,1.2509996069784393,1792.8800571238498,None,,,,,001,60,2019_Oct_24_1201,ACPT_experiment_5_30_19,3.1.0,59.95338088102197,
,,,C,D,g,b,,,,,,,,,,1,14,34,1,,,,,,,,,,,,,b,1,1.2007044187957945,1797.4338058839621,None,,,,,001,60,2019_Oct_24_1201,ACPT_experiment_5_30_19,3.1.0,59.95338088102197,
,,,C,G,g,v,,,,,,,,,,1,15,35,4,,,,,,,,,,,,,v,1,1.0341460189902136,1801.9203785798254,None,,,,,001,60,2019_Oct_24_1201,ACPT_experiment_5_30_19,3.1.0,59.95338088102197,
,,,C,G,g,v,,,,,,,,,,1,16,36,13,,,,,,,,,,,,,v,1,0.9838435861838661,1806.2406609269146,None,,,,,001,60,2019_Oct_24_1201,ACPT_experiment_5_30_19,3.1.0,59.95338088102197,
,,,C,D,d,v,,,,,,,,,,1,17,37,0,,,,,,,,,,,,,b,0,1.0173774345694255,1810.5103438116748,None,,,,,001,60,2019_Oct_24_1201,ACPT_experiment_5_30_19,3.1.0,59.95338088102197,
,,,C,G,d,b,,,,,,,,,,1,18,38,12,,,,,,,,,,,,,v,0,1.4507320389202505,1814.8307604861384,None,,,,,001,60,2019_Oct_24_1201,ACPT_experiment_5_30_19,3.1.0,59.95338088102197,
,,,C,D,d,v,,,,,,,,,,1,19,39,9,,,,,,,,,,,,,v,1,0.93407423685494,1819.5673837434297,None,,,,,001,60,2019_Oct_24_1201,ACPT_experiment_5_30_19,3.1.0,59.95338088102197,
,,,C,U,d,n,,,,,,,,,,2,0,40,15,,,,,,,,,,,,,b,0,0.6171582243678131,1823.787322333179,None,,,,,001,60,2019_Oct_24_1201,ACPT_experiment_5_30_19,3.1.0,59.95338088102197,
,,,C,G,y,b,,,,,,,,,,2,1,41,5,,,,,,,,,,,,,b,1,1.0008696565619175,1827.690330119338,None,,,,,001,60,2019_Oct_24_1201,ACPT_experiment_5_30_19,3.1.0,59.95338088102197,
,,,C,D,d,v,,,,,,,,,,2,2,42,9,,,,,,,,,,,,,b,0,1.7179891825708182,1831.9937074416157,None,,,,,001,60,2019_Oct_24_1201,ACPT_experiment_5_30_19,3.1.0,59.95338088102197,
,,,C,D,y,b,,,,,,,,,,2,3,43,2,,,,,,,,,,,,,n,0,0.6838769718197,1836.9975606752232,None,,,,,001,60,2019_Oct_24_1201,ACPT_experiment_5_30_19,3.1.0,59.95338088102197,
,,,C,U,g,n,,,,,,,,,,2,4,44,16,,,,,,,,,,,,,v,0,0.6171482630106766,1840.9673059241104,None,,,,,001,60,2019_Oct_24_1201,ACPT_experiment_5_30_19,3.1.0,59.95338088102197,
,,,C,U,g,n,,,,,,,,,,2,5,45,7,,,,,,,,,,,,,n,1,1.1508964314798504,1844.8536553044833,None,,,,,001,60,2019_Oct_24_1201,ACPT_experiment_5_30_19,3.1.0,59.95338088102197,
,,,C,D,d,v,,,,,,,,,,2,6,46,0,,,,,,,,,,,,,b,0,2.4850000090555113,1849.3073727316041,None,,,,,001,60,2019_Oct_24_1201,ACPT_experiment_5_30_19,3.1.0,59.95338088102197,
,,,C,G,d,b,,,,,,,,,,2,7,47,12,,,,,,,,,,,,,b,1,0.8506919520095835,1855.0782521865185,None,,,,,001,60,2019_Oct_24_1201,ACPT_experiment_5_30_19,3.1.0,59.95338088102197,
,,,C,U,d,n,,,,,,,,,,2,8,48,6,,,,,,,,,,,,,n,1,1.3176936019735876,1859.2147804185097,None,,,,,001,60,2019_Oct_24_1201,ACPT_experiment_5_30_19,3.1.0,59.95338088102197,
,,,C,D,g,b,,,,,,,,,,2,9,49,1,,,,,,,,,,,,,b,1,2.0182434688231297,1863.8183398826732,None,,,,,001,60,2019_Oct_24_1201,ACPT_experiment_5_30_19,3.1.0,59.95338088102197,
,,,C,G,y,b,,,,,,,,,,2,10,50,14,,,,,,,,,,,,,b,1,1.2510002106973843,1869.1224555527315,None,,,,,001,60,2019_Oct_24_1201,ACPT_experiment_5_30_19,3.1.0,59.95338088102197,
,,,C,G,g,v,,,,,,,,,,2,11,51,19,,,,,,,,,,,,,b,0,2.048267901311192,1873.67932070797,None,,,,,001,60,2019_Oct_24_1201,ACPT_experiment_5_30_19,3.1.0,59.95338088102197,
,,,C,D,y,b,,,,,,,,,,2,12,52,11,,,,,,,,,,,,,n,0,1.5011678935243253,1879.0134544714729,None,,,,,001,60,2019_Oct_24_1201,ACPT_experiment_5_30_19,3.1.0,59.95338088102197,
,,,C,U,y,n,,,,,,,,,,2,13,53,17,,,,,,,,,,,,,n,1,0.867349754076713,1883.800486416032,None,,,,,001,60,2019_Oct_24_1201,ACPT_experiment_5_30_19,3.1.0,59.95338088102197,
,,,C,U,y,n,,,,,,,,,,2,14,54,8,,,,,,,,,,,,,b,0,2.1983740652158303,1887.973730998714,None,,,,,001,60,2019_Oct_24_1201,ACPT_experiment_5_30_19,3.1.0,59.95338088102197,
,,,C,D,d,v,,,,,,,,,,2,15,55,18,,,,,,,,,,,,,v,1,1.9181680643760046,1893.4579730391379,None,,,,,001,60,2019_Oct_24_1201,ACPT_experiment_5_30_19,3.1.0,59.95338088102197,
,,,C,G,g,v,,,,,,,,,,2,16,56,4,,,,,,,,,,,,,v,1,2.435229452286876,1898.6620105880174,None,,,,,001,60,2019_Oct_24_1201,ACPT_experiment_5_30_19,3.1.0,59.95338088102197,
,,,C,G,d,b,,,,,,,,,,2,17,57,3,,,,,,,,,,,,,b,1,1.3510801430329593,1904.3664043308363,None,,,,,001,60,2019_Oct_24_1201,ACPT_experiment_5_30_19,3.1.0,59.95338088102197,
,,,C,G,g,v,,,,,,,,,,2,18,58,13,,,,,,,,,,,,,v,1,1.1673103312532476,1909.0036244242801,None,,,,,001,60,2019_Oct_24_1201,ACPT_experiment_5_30_19,3.1.0,59.95338088102197,
,,,C,D,g,b,,,,,,,,,,2,19,59,10,,,,,,,,,,,,,b,1,2.835553709517626,1913.456803636318,None,,,,,001,60,2019_Oct_24_1201,ACPT_experiment_5_30_19,3.1.0,59.95338088102197,
,,,C,U,d,n,,,,,,,,,,3,0,60,15,,,,,,,,,,,,,n,1,2.034922702894619,1919.5782171708433,None,,,,,001,60,2019_Oct_24_1201,ACPT_experiment_5_30_19,3.1.0,59.95338088102197,
,,,C,G,y,b,,,,,,,,,,3,1,61,5,,,,,,,,,,,,,b,1,1.3510529756986216,1924.8990045284936,None,,,,,001,60,2019_Oct_24_1201,ACPT_experiment_5_30_19,3.1.0,59.95338088102197,
,,,C,U,y,n,,,,,,,,,,3,2,62,8,,,,,,,,,,,,,n,1,1.2173444111667777,1929.5528794054098,None,,,,,001,60,2019_Oct_24_1201,ACPT_experiment_5_30_19,3.1.0,59.95338088102197,
,,,C,G,d,b,,,,,,,,,,3,3,63,12,,,,,,,,,,,,,b,1,2.418569537207077,1934.0560712653532,None,,,,,001,60,2019_Oct_24_1201,ACPT_experiment_5_30_19,3.1.0,59.95338088102197,
,,,C,G,g,v,,,,,,,,,,3,4,64,4,,,,,,,,,,,,,v,1,2.7521533131166507,1939.7605163242479,None,,,,,001,60,2019_Oct_24_1201,ACPT_experiment_5_30_19,3.1.0,59.95338088102197,
,,,C,D,y,b,,,,,,,,,,3,5,65,11,,,,,,,,,,,,,b,1,1.1008686906116054,1945.7985167842817,None,,,,,001,60,2019_Oct_24_1201,ACPT_experiment_5_30_19,3.1.0,59.95338088102197,
,,,C,U,g,n,,,,,,,,,,3,6,66,16,,,,,,,,,,,,,n,1,0.9838900725117128,1950.202175077171,None,,,,,001,60,2019_Oct_24_1201,ACPT_experiment_5_30_19,3.1.0,59.95338088102197,
,,,C,G,y,b,,,,,,,,,,3,7,67,14,,,,,,,,,,,,,b,1,1.1008883114664059,1954.471904448259,None,,,,,001,60,2019_Oct_24_1201,ACPT_experiment_5_30_19,3.1.0,59.95338088102197,
,,,C,U,y,n,,,,,,,,,,3,8,68,17,,,,,,,,,,,,,n,1,1.7344483612378099,1958.8755591188365,None,,,,,001,60,2019_Oct_24_1201,ACPT_experiment_5_30_19,3.1.0,59.95338088102197,
,,,C,D,g,b,,,,,,,,,,3,9,69,1,,,,,,,,,,,,,b,1,2.2517678388248896,1963.8958636827683,None,,,,,001,60,2019_Oct_24_1201,ACPT_experiment_5_30_19,3.1.0,59.95338088102197,
,,,C,U,d,n,,,,,,,,,,3,10,70,6,,,,,,,,,,,,,n,1,1.3176954131267848,1969.4334994968012,None,,,,,001,60,2019_Oct_24_1201,ACPT_experiment_5_30_19,3.1.0,59.95338088102197,
,,,C,D,d,v,,,,,,,,,,3,11,71,9,,,,,,,,,,,,,v,1,2.384835556124017,1974.054078390438,None,,,,,001,60,2019_Oct_24_1201,ACPT_experiment_5_30_19,3.1.0,59.95338088102197,
,,,C,G,g,v,,,,,,,,,,3,12,72,19,,,,,,,,,,,,,v,1,1.8180914524928085,1979.7248036556375,None,,,,,001,60,2019_Oct_24_1201,ACPT_experiment_5_30_19,3.1.0,59.95338088102197,
,,,C,G,g,v,,,,,,,,,,3,13,73,13,,,,,,,,,,,,,v,1,2.118510855763816,1984.8119274861583,None,,,,,001,60,2019_Oct_24_1201,ACPT_experiment_5_30_19,3.1.0,59.95338088102197,
,,,C,G,d,b,,,,,,,,,,3,14,74,3,,,,,,,,,,,,,b,1,1.5512840791579947,1990.1995630888905,None,,,,,001,60,2019_Oct_24_1201,ACPT_experiment_5_30_19,3.1.0,59.95338088102197,
,,,C,U,g,n,,,,,,,,,,3,15,75,7,,,,,,,,,,,,,n,1,2.585349501721794,1995.0366647327555,None,,,,,001,60,2019_Oct_24_1201,ACPT_experiment_5_30_19,3.1.0,59.95338088102197,
,,,C,D,y,b,,,,,,,,,,3,16,76,2,,,,,,,,,,,,,b,1,1.1509060909756954,2000.9078734557643,None,,,,,001,60,2019_Oct_24_1201,ACPT_experiment_5_30_19,3.1.0,59.95338088102197,
,,,C,D,g,b,,,,,,,,,,3,17,77,10,,,,,,,,,,,,,b,1,2.0179672675876645,2005.3449173841364,None,,,,,001,60,2019_Oct_24_1201,ACPT_experiment_5_30_19,3.1.0,59.95338088102197,
,,,C,D,d,v,,,,,,,,,,3,18,78,18,,,,,,,,,,,,,v,1,1.4344609185827721,2010.6320749021525,None,,,,,001,60,2019_Oct_24_1201,ACPT_experiment_5_30_19,3.1.0,59.95338088102197,
,,,C,D,d,v,,,,,,,,,,3,19,79,0,,,,,,,,,,,,,v,1,2.268164230763432,2015.3526688283819,None,,,,,001,60,2019_Oct_24_1201,ACPT_experiment_5_30_19,3.1.0,59.95338088102197,
,,,C,U,g,n,,,,,,,,,,4,0,80,16,,,,,,,,,,,,,n,1,2.2684253390325466,2020.9067125050042,None,,,,,001,60,2019_Oct_24_1201,ACPT_experiment_5_30_19,3.1.0,59.95338088102197,
,,,C,D,y,b,,,,,,,,,,4,1,81,2,,,,,,,,,,,,,b,1,2.4352348857555626,2026.4610018950734,None,,,,,001,60,2019_Oct_24_1201,ACPT_experiment_5_30_19,3.1.0,59.95338088102197,
,,,C,U,d,n,,,,,,,,,,4,2,82,6,,,,,,,,,,,,,n,1,1.2676558997482061,2032.1821059634713,None,,,,,001,60,2019_Oct_24_1201,ACPT_experiment_5_30_19,3.1.0,59.95338088102197,
,,,C,U,g,n,,,,,,,,,,4,3,83,7,,,,,,,,,,,,,n,1,1.8181177142487286,2036.7356385923467,None,,,,,001,60,2019_Oct_24_1201,ACPT_experiment_5_30_19,3.1.0,59.95338088102197,
,,,C,G,g,v,,,,,,,,,,4,4,84,13,,,,,,,,,,,,,v,1,2.0682893212451745,2041.8395820215046,None,,,,,001,60,2019_Oct_24_1201,ACPT_experiment_5_30_19,3.1.0,59.95338088102197,
,,,C,D,d,v,,,,,,,,,,4,5,85,0,,,,,,,,,,,,,v,1,1.3510798411734868,2047.1937046041403,None,,,,,001,60,2019_Oct_24_1201,ACPT_experiment_5_30_19,3.1.0,59.95338088102197,
,,,C,U,y,n,,,,,,,,,,4,6,86,8,,,,,,,,,,,,,b,0,0.8503291171637102,2051.8476513235637,None,,,,,001,60,2019_Oct_24_1201,ACPT_experiment_5_30_19,3.1.0,59.95338088102197,
,,,C,G,g,v,,,,,,,,,,4,7,87,4,,,,,,,,,,,,,b,0,2.235058720685629,2055.983888563216,None,,,,,001,60,2019_Oct_24_1201,ACPT_experiment_5_30_19,3.1.0,59.95338088102197,
,,,C,D,y,b,,,,,,,,,,4,8,88,11,,,,,,,,,,,,,b,1,1.3844316684189835,2061.5048095237817,None,,,,,001,60,2019_Oct_24_1201,ACPT_experiment_5_30_19,3.1.0,59.95338088102197,
,,,C,G,d,b,,,,,,,,,,4,9,89,3,,,,,,,,,,,,,b,1,3.7529224505415186,2066.1917678750506,None,,,,,001,60,2019_Oct_24_1201,ACPT_experiment_5_30_19,3.1.0,59.95338088102197,
,,,C,G,y,b,,,,,,,,,,4,10,90,14,,,,,,,,,,,,,b,1,0.6505139757828147,2073.2305564896433,None,,,,,001,60,2019_Oct_24_1201,ACPT_experiment_5_30_19,3.1.0,59.95338088102197,
,,,C,U,d,n,,,,,,,,,,4,11,91,15,,,,,,,,,,,,,n,1,1.1173239451072732,2077.200516662331,None,,,,,001,60,2019_Oct_24_1201,ACPT_experiment_5_30_19,3.1.0,59.95338088102197,
,,,C,G,d,b,,,,,,,,,,4,12,92,12,,,,,,,,,,,,,b,1,1.9348780880973209,2081.6036877543556,None,,,,,001,60,2019_Oct_24_1201,ACPT_experiment_5_30_19,3.1.0,59.95338088102197,
,,,C,D,d,v,,,,,,,,,,4,13,93,18,,,,,,,,,,,,,v,1,1.651277679740815,2086.8244314027834,None,,,,,001,60,2019_Oct_24_1201,ACPT_experiment_5_30_19,3.1.0,59.95338088102197,
,,,C,U,y,n,,,,,,,,,,4,14,94,17,,,,,,,,,,,,,n,1,1.3343800806687796,2091.7615782651665,None,,,,,001,60,2019_Oct_24_1201,ACPT_experiment_5_30_19,3.1.0,59.95338088102197,
,,,C,G,y,b,,,,,,,,,,4,15,95,5,,,,,,,,,,,,,b,1,1.097525297316679,2096.4018356666056,None,,,,,001,60,2019_Oct_24_1201,ACPT_experiment_5_30_19,3.1.0,59.95338088102197,
,,,C,D,g,b,,,,,,,,,,4,16,96,1,,,,,,,,,,,,,v,0,2.7020857268253167,2100.7852521822915,None,,,,,001,60,2019_Oct_24_1201,ACPT_experiment_5_30_19,3.1.0,59.95338088102197,
,,,C,D,g,b,,,,,,,,,,4,17,97,10,,,,,,,,,,,,,v,0,4.136557512341824,2106.756515783316,None,,,,,001,60,2019_Oct_24_1201,ACPT_experiment_5_30_19,3.1.0,59.95338088102197,
,,,C,D,d,v,,,,,,,,,,4,18,98,9,,,,,,,,,,,,,v,1,2.318502282962072,2114.162255999605,None,,,,,001,60,2019_Oct_24_1201,ACPT_experiment_5_30_19,3.1.0,59.95338088102197,
,,,C,G,g,v,,,,,,,,,,4,19,99,19,,,,,,,,,,,,,v,1,2.101659863765235,2119.7665734324,None,,,,,001,60,2019_Oct_24_1201,ACPT_experiment_5_30_19,3.1.0,59.95338088102197,
,,,C,U,g,n,,,,,,,,,,5,0,100,7,,,,,,,,,,,,,n,1,1.134243761020116,2125.1540786319256,None,,,,,001,60,2019_Oct_24_1201,ACPT_experiment_5_30_19,3.1.0,59.95338088102197,
,,,C,G,y,b,,,,,,,,,,5,1,101,14,,,,,,,,,,,,,b,1,0.9504724399466795,2129.5911427848696,None,,,,,001,60,2019_Oct_24_1201,ACPT_experiment_5_30_19,3.1.0,59.95338088102197,
,,,C,U,y,n,,,,,,,,,,5,2,102,17,,,,,,,,,,,,,n,1,0.9674354217368091,2133.8274937650967,None,,,,,001,60,2019_Oct_24_1201,ACPT_experiment_5_30_19,3.1.0,59.95338088102197,
,,,C,G,g,v,,,,,,,,,,5,3,103,13,,,,,,,,,,,,,v,1,2.068080132770774,2138.097714261221,None,,,,,001,60,2019_Oct_24_1201,ACPT_experiment_5_30_19,3.1.0,59.95338088102197,
,,,C,U,d,n,,,,,,,,,,5,4,104,6,,,,,,,,,,,,,n,1,1.284352641661826,2143.4515941490026,None,,,,,001,60,2019_Oct_24_1201,ACPT_experiment_5_30_19,3.1.0,59.95338088102197,
,,,C,G,y,b,,,,,,,,,,5,5,105,5,,,,,,,,,,,,,b,1,1.0005104440278956,2148.03876506957,None,,,,,001,60,2019_Oct_24_1201,ACPT_experiment_5_30_19,3.1.0,59.95338088102197,
,,,C,G,d,b,,,,,,,,,,5,6,106,3,,,,,,,,,,,,,b,1,4.18660125174938,2152.308445841316,None,,,,,001,60,2019_Oct_24_1201,ACPT_experiment_5_30_19,3.1.0,59.95338088102197,
,,,C,G,g,v,,,,,,,,,,5,7,107,4,,,,,,,,,,,,,v,1,1.8014116147005552,2159.764238249072,None,,,,,001,60,2019_Oct_24_1201,ACPT_experiment_5_30_19,3.1.0,59.95338088102197,
,,,C,D,d,v,,,,,,,,,,5,8,108,18,,,,,,,,,,,,,v,1,2.435257223340159,2164.851488256769,None,,,,,001,60,2019_Oct_24_1201,ACPT_experiment_5_30_19,3.1.0,59.95338088102197,
,,,C,D,d,v,,,,,,,,,,5,9,109,0,,,,,,,,,,,,,v,1,1.634775033340702,2170.5557697079403,None,,,,,001,60,2019_Oct_24_1201,ACPT_experiment_5_30_19,3.1.0,59.95338088102197,
,,,C,D,g,b,,,,,,,,,,5,10,110,1,,,,,,,,,,,,,b,1,1.3177047707649763,2175.47640275513,None,,,,,001,60,2019_Oct_24_1201,ACPT_experiment_5_30_19,3.1.0,59.95338088102197,
,,,C,D,g,b,,,,,,,,,,5,11,111,10,,,,,,,,,,,,,b,1,0.783942113052035,2180.079979727132,None,,,,,001,60,2019_Oct_24_1201,ACPT_experiment_5_30_19,3.1.0,59.95338088102197,
,,,C,G,d,b,,,,,,,,,,5,12,112,12,,,,,,,,,,,,,b,1,2.518683277781747,2184.1497605350396,None,,,,,001,60,2019_Oct_24_1201,ACPT_experiment_5_30_19,3.1.0,59.95338088102197,
,,,C,U,g,n,,,,,,,,,,5,13,113,16,,,,,,,,,,,,,n,1,1.6179309841045324,2189.9542822058193,None,,,,,001,60,2019_Oct_24_1201,ACPT_experiment_5_30_19,3.1.0,59.95338088102197,
,,,C,D,y,b,,,,,,,,,,5,14,114,11,,,,,,,,,,,,,b,1,1.2843354356828058,2194.8581028989975,None,,,,,001,60,2019_Oct_24_1201,ACPT_experiment_5_30_19,3.1.0,59.95338088102197,
,,,C,U,y,n,,,,,,,,,,5,15,115,8,,,,,,,,,,,,,n,1,0.7503548355743987,2199.445194128717,None,,,,,001,60,2019_Oct_24_1201,ACPT_experiment_5_30_19,3.1.0,59.95338088102197,
,,,C,D,d,v,,,,,,,,,,5,16,116,9,,,,,,,,,,,,,v,1,1.7513926277515566,2203.481398827942,None,,,,,001,60,2019_Oct_24_1201,ACPT_experiment_5_30_19,3.1.0,59.95338088102197,
,,,C,D,y,b,,,,,,,,,,5,17,117,2,,,,,,,,,,,,,b,1,1.4511633958209131,2208.50195333135,None,,,,,001,60,2019_Oct_24_1201,ACPT_experiment_5_30_19,3.1.0,59.95338088102197,
,,,C,G,g,v,,,,,,,,,,5,18,118,19,,,,,,,,,,,,,v,1,1.4010988281224854,2213.2389765521766,None,,,,,001,60,2019_Oct_24_1201,ACPT_experiment_5_30_19,3.1.0,59.95338088102197,
,,,C,U,d,n,,,,,,,,,,5,19,119,15,,,,,,,,,,,,,n,1,1.3010176883490203,2217.925940638772,None,,,,,001,60,2019_Oct_24_1201,ACPT_experiment_5_30_19,3.1.0,59.95338088102197,
,,,C,D,d,v,,,,,,,,,,6,0,120,9,,,,,,,,,,,,,v,1,3.719284158847586,2222.5297790209024,None,,,,,001,60,2019_Oct_24_1201,ACPT_experiment_5_30_19,3.1.0,59.95338088102197,
,,,C,U,g,n,,,,,,,,,,6,1,121,16,,,,,,,,,,,,,n,1,1.0175072340571205,2229.5349006671695,None,,,,,001,60,2019_Oct_24_1201,ACPT_experiment_5_30_19,3.1.0,59.95338088102197,
,,,C,D,d,v,,,,,,,,,,6,2,122,18,,,,,,,,,,,,,v,1,1.3007882753026934,2233.8551884477256,None,,,,,001,60,2019_Oct_24_1201,ACPT_experiment_5_30_19,3.1.0,59.95338088102197,
,,,C,G,g,v,,,,,,,,,,6,3,123,13,,,,,,,,,,,,,v,1,1.7346820003131143,2238.441840774065,None,,,,,001,60,2019_Oct_24_1201,ACPT_experiment_5_30_19,3.1.0,59.95338088102197,
,,,C,G,d,b,,,,,,,,,,6,4,124,3,,,,,,,,,,,,,b,1,1.0675002611096716,2243.445703365309,None,,,,,001,60,2019_Oct_24_1201,ACPT_experiment_5_30_19,3.1.0,59.95338088102197,
,,,C,D,g,b,,,,,,,,,,6,5,125,10,,,,,,,,,,,,,v,0,1.000503803124957,2247.816029753665,None,,,,,001,60,2019_Oct_24_1201,ACPT_experiment_5_30_19,3.1.0,59.95338088102197,
,,,C,D,d,v,,,,,,,,,,6,6,126,0,,,,,,,,,,,,,v,1,3.302570754303815,2252.085722297923,None,,,,,001,60,2019_Oct_24_1201,ACPT_experiment_5_30_19,3.1.0,59.95338088102197,
,,,C,D,y,b,,,,,,,,,,6,7,127,2,,,,,,,,,,,,,b,1,1.0508415534641244,2258.674161027433,None,,,,,001,60,2019_Oct_24_1201,ACPT_experiment_5_30_19,3.1.0,59.95338088102197,
,,,C,G,g,v,,,,,,,,,,6,8,128,4,,,,,,,,,,,,,v,1,1.367585506166506,2263.044351880977,None,,,,,001,60,2019_Oct_24_1201,ACPT_experiment_5_30_19,3.1.0,59.95338088102197,
,,,C,U,g,n,,,,,,,,,,6,9,129,7,,,,,,,,,,,,,n,1,1.3677412655506487,2267.6978083809427,None,,,,,001,60,2019_Oct_24_1201,ACPT_experiment_5_30_19,3.1.0,59.95338088102197,
,,,C,G,y,b,,,,,,,,,,6,10,130,14,,,,,,,,,,,,,b,1,1.7176100473243423,2272.36846361479,None,,,,,001,60,2019_Oct_24_1201,ACPT_experiment_5_30_19,3.1.0,59.95338088102197,
,,,C,U,d,n,,,,,,,,,,6,11,131,6,,,,,,,,,,,,,n,1,1.0341426985378348,2277.3719682009378,None,,,,,001,60,2019_Oct_24_1201,ACPT_experiment_5_30_19,3.1.0,59.95338088102197,
,,,C,U,y,n,,,,,,,,,,6,12,132,17,,,,,,,,,,,,,n,1,0.9006958459940506,2281.691990647192,None,,,,,001,60,2019_Oct_24_1201,ACPT_experiment_5_30_19,3.1.0,59.95338088102197,
,,,C,U,y,n,,,,,,,,,,6,13,133,8,,,,,,,,,,,,,n,1,0.9507595081140607,2285.878559298142,None,,,,,001,60,2019_Oct_24_1201,ACPT_experiment_5_30_19,3.1.0,59.95338088102197,
,,,C,D,g,b,,,,,,,,,,6,14,134,1,,,,,,,,,,,,,b,1,2.401627987424945,2290.1320827504933,None,,,,,001,60,2019_Oct_24_1201,ACPT_experiment_5_30_19,3.1.0,59.95338088102197,
,,,C,U,d,n,,,,,,,,,,6,15,135,15,,,,,,,,,,,,,n,1,0.9340654829356936,2295.8195856558905,None,,,,,001,60,2019_Oct_24_1201,ACPT_experiment_5_30_19,3.1.0,59.95338088102197,
,,,C,G,y,b,,,,,,,,,,6,16,136,5,,,,,,,,,,,,,b,1,1.3010013879484177,2300.056211328054,None,,,,,001,60,2019_Oct_24_1201,ACPT_experiment_5_30_19,3.1.0,59.95338088102197,
,,,C,D,y,b,,,,,,,,,,6,17,137,11,,,,,,,,,,,,,b,1,1.0175005931541818,2304.643080389351,None,,,,,001,60,2019_Oct_24_1201,ACPT_experiment_5_30_19,3.1.0,59.95338088102197,
,,,C,G,d,b,,,,,,,,,,6,18,138,12,,,,,,,,,,,,,b,1,1.4173373476587585,2308.96350793075,None,,,,,001,60,2019_Oct_24_1201,ACPT_experiment_5_30_19,3.1.0,59.95338088102197,
,,,C,G,g,v,,,,,,,,,,6,19,139,19,,,,,,,,,,,,,v,1,1.7180299335741438,2313.650031604666,None,,,,,001,60,2019_Oct_24_1201,ACPT_experiment_5_30_19,3.1.0,59.95338088102197,
,,,C,D,y,b,,,,,,,,,,7,0,140,11,,,,,,,,,,,,,b,1,1.3010433463878144,2318.6539020442524,None,,,,,001,60,2019_Oct_24_1201,ACPT_experiment_5_30_19,3.1.0,59.95338088102197,
,,,C,D,g,b,,,,,,,,,,7,1,141,1,,,,,,,,,,,,,b,1,2.43193073416478,2323.260824824425,None,,,,,001,60,2019_Oct_24_1201,ACPT_experiment_5_30_19,3.1.0,59.95338088102197,
,,,C,U,d,n,,,,,,,,,,7,2,142,6,,,,,,,,,,,,,n,1,1.1341945579588355,2328.9786030073647,None,,,,,001,60,2019_Oct_24_1201,ACPT_experiment_5_30_19,3.1.0,59.95338088102197,
,,,C,U,y,n,,,,,,,,,,7,3,143,17,,,,,,,,,,,,,n,1,0.9507576969572256,2333.382010455198,None,,,,,001,60,2019_Oct_24_1201,ACPT_experiment_5_30_19,3.1.0,59.95338088102197,
,,,C,G,d,b,,,,,,,,,,7,4,144,12,,,,,,,,,,,,,b,1,1.6846527501493256,2337.6352890996804,None,,,,,001,60,2019_Oct_24_1201,ACPT_experiment_5_30_19,3.1.0,59.95338088102197,
,,,C,U,g,n,,,,,,,,,,7,5,145,7,,,,,,,,,,,,,n,1,0.9341001967532065,2342.6058046934286,None,,,,,001,60,2019_Oct_24_1201,ACPT_experiment_5_30_19,3.1.0,59.95338088102197,
,,,C,G,g,v,,,,,,,,,,7,6,146,13,,,,,,,,,,,,,v,1,3.499389640552181,2346.845750817587,None,,,,,001,60,2019_Oct_24_1201,ACPT_experiment_5_30_19,3.1.0,59.95338088102197,
,,,C,D,d,v,,,,,,,,,,7,7,147,18,,,,,,,,,,,,,v,1,1.5011721195533028,2353.6310090370644,None,,,,,001,60,2019_Oct_24_1201,ACPT_experiment_5_30_19,3.1.0,59.95338088102197,
,,,C,G,d,b,,,,,,,,,,7,8,148,3,,,,,,,,,,,,,b,1,2.218412691128833,2358.4180255867996,None,,,,,001,60,2019_Oct_24_1201,ACPT_experiment_5_30_19,3.1.0,59.95338088102197,
,,,C,G,y,b,,,,,,,,,,7,9,149,5,,,,,,,,,,,,,b,1,0.9507631304259121,2363.9223104791654,None,,,,,001,60,2019_Oct_24_1201,ACPT_experiment_5_30_19,3.1.0,59.95338088102197,
,,,C,G,g,v,,,,,,,,,,7,10,150,19,,,,,,,,,,,,,v,1,1.1975997961853864,2368.1789403652874,None,,,,,001,60,2019_Oct_24_1201,ACPT_experiment_5_30_19,3.1.0,59.95338088102197,
,,,C,D,g,b,,,,,,,,,,7,11,151,10,0,0,0,0,0,0,0,0,,,,,b,1,2.084965838586868,2372.6624060236627,None,,,,,001,60,2019_Oct_24_1201,ACPT_experiment_5_30_19,3.1.0,59.95338088102197,
,,,C,D,g,b,R,D,g,L,i,,,,,7,11,151,10,0,0,0,0,,,,,0,0,0,2,,,,,,up,0.7839496595333912,2426.9878036779755,None,001,60,2019_Oct_24_1201,ACPT_experiment_5_30_19,3.1.0,59.95338088102197,
,,,C,D,g,b,L,D,y,L,y,,,,,7,11,151,10,0,0,0,0,,,,,0,1,1,32,,,,,,down,0.6171760340639594,2429.056070359775,None,001,60,2019_Oct_24_1201,ACPT_experiment_5_30_19,3.1.0,59.95338088102197,
,,,C,D,g,b,R,G,g,L,c ,,,,,7,11,151,10,0,0,0,0,,,,,0,2,2,6,,,,,,up,0.6171684875826031,2430.9575181372147,None,001,60,2019_Oct_24_1201,ACPT_experiment_5_30_19,3.1.0,59.95338088102197,
,,,C,D,g,b,R,U,g,L,u,,,,,7,11,151,10,0,0,0,0,,,,,0,3,3,10,,,,,,up,0.667200152620353,2432.859018136309,None,001,60,2019_Oct_24_1201,ACPT_experiment_5_30_19,3.1.0,59.95338088102197,
,,,C,D,g,b,R,U,g,R,u,,,,,7,11,151,10,0,0,0,0,,,,,0,4,4,11,,,,,,up,0.9507395854016067,2434.7938394748617,None,001,60,2019_Oct_24_1201,ACPT_experiment_5_30_19,3.1.0,59.95338088102197,
,,,C,D,g,b,L,D,g,L,i,,,,,7,11,151,10,0,0,0,0,,,,,0,5,5,14,,,,,,up,0.5337523944999703,2437.012229828406,None,001,60,2019_Oct_24_1201,ACPT_experiment_5_30_19,3.1.0,59.95338088102197,
,,,C,D,g,b,L,U,y,L,u,,,,,7,11,151,10,0,0,0,0,,,,,0,6,6,24,,,,,,down,0.5171096853973722,2438.830285359645,None,001,60,2019_Oct_24_1201,ACPT_experiment_5_30_19,3.1.0,59.95338088102197,
,,,C,D,g,b,L,D,d,R,c ,,,,,7,11,151,10,0,0,0,0,,,,,0,7,7,13,,,,,,up,0.7005661672501446,2440.631695163189,None,001,60,2019_Oct_24_1201,ACPT_experiment_5_30_19,3.1.0,59.95338088102197,
,,,C,D,g,b,L,U,d,L,u,,,,,7,11,151,10,0,0,0,0,,,,,0,8,8,20,,,,,,up,0.5671235407371569,2442.5998689327043,None,001,60,2019_Oct_24_1201,ACPT_experiment_5_30_19,3.1.0,59.95338088102197,
,,,C,D,g,b,R,U,y,L,u,,,,,7,11,151,10,0,0,0,0,,,,,0,9,9,30,,,,,,down,0.6337179221700353,2444.468069326209,None,001,60,2019_Oct_24_1201,ACPT_experiment_5_30_19,3.1.0,59.95338088102197,
,,,C,D,g,b,R,D,y,L,y,,,,,7,11,151,10,0,0,0,0,,,,,0,10,10,26,,,,,,down,0.5337626577129413,2446.402809766476,None,001,60,2019_Oct_24_1201,ACPT_experiment_5_30_19,3.1.0,59.95338088102197,
,,,C,D,g,b,L,U,g,R,u,,,,,7,11,151,10,0,0,0,0,,,,,0,11,11,23,,,,,,up,0.6171334719074366,2448.2209126896214,None,001,60,2019_Oct_24_1201,ACPT_experiment_5_30_19,3.1.0,59.95338088102197,
,,,C,D,g,b,L,U,g,L,u,,,,,7,11,151,10,0,0,0,0,,,,,0,12,12,22,,,,,,up,0.48385384940047516,2450.105551131641,None,001,60,2019_Oct_24_1201,ACPT_experiment_5_30_19,3.1.0,59.95338088102197,
,,,C,D,g,b,L,D,d,L,c ,,,,,7,11,151,10,0,0,0,0,,,,,0,13,13,12,,,,,,up,0.6171277365810965,2451.8904250842643,None,001,60,2019_Oct_24_1201,ACPT_experiment_5_30_19,3.1.0,59.95338088102197,
,,,C,D,g,b,L,G,y,L,y,,,,,7,11,151,10,0,0,0,0,,,,,0,14,14,34,,,,,,down,0.5337659781653201,2453.7918650133633,None,001,60,2019_Oct_24_1201,ACPT_experiment_5_30_19,3.1.0,59.95338088102197,
,,,C,D,g,b,R,G,d,R,i,,,,,7,11,151,10,0,0,0,0,,,,,0,15,15,5,,,,,,up,0.6338277989452763,2455.609958277013,None,001,60,2019_Oct_24_1201,ACPT_experiment_5_30_19,3.1.0,59.95338088102197,
,,,C,D,g,b,R,G,g,R,c ,,,,,7,11,151,10,0,0,0,0,,,,,0,16,16,7,,,,,,up,0.7005399054942245,2457.5281142670174,None,001,60,2019_Oct_24_1201,ACPT_experiment_5_30_19,3.1.0,59.95338088102197,
,,,C,D,g,b,R,D,g,R,i,,,,,7,11,151,10,0,0,0,0,,,,,0,17,17,3,,,,,,up,0.4336679342741263,2459.4962995071855,None,001,60,2019_Oct_24_1201,ACPT_experiment_5_30_19,3.1.0,59.95338088102197,
,,,C,D,g,b,R,U,d,R,u,,,,,7,11,151,10,0,0,0,0,,,,,0,18,18,9,,,,,,up,0.33366256117915327,2461.2142968399567,None,001,60,2019_Oct_24_1201,ACPT_experiment_5_30_19,3.1.0,59.95338088102197,
,,,C,D,g,b,R,U,y,R,u,,,,,7,11,151,10,0,0,0,0,,,,,0,19,19,31,,,,,,down,0.7839641487789777,2462.8155162910443,None,001,60,2019_Oct_24_1201,ACPT_experiment_5_30_19,3.1.0,59.95338088102197,
,,,C,D,g,b,L,D,y,R,y,,,,,7,11,151,10,0,0,0,0,,,,,0,20,20,33,,,,,,down,0.5168512938598724,2464.9007335784027,None,001,60,2019_Oct_24_1201,ACPT_experiment_5_30_19,3.1.0,59.95338088102197,
,,,C,D,g,b,L,G,d,R,i,,,,,7,11,151,10,0,0,0,0,,,,,0,21,21,17,,,,,,up,0.6671817392034427,2466.7018801606628,None,001,60,2019_Oct_24_1201,ACPT_experiment_5_30_19,3.1.0,59.95338088102197,
,,,C,D,g,b,L,G,y,R,y,,,,,7,11,151,10,0,0,0,0,,,,,0,22,22,35,,,,,,down,0.6004931776787998,2468.636692443437,None,001,60,2019_Oct_24_1201,ACPT_experiment_5_30_19,3.1.0,59.95338088102197,
,,,C,D,g,b,R,D,d,R,c ,,,,,7,11,151,10,0,0,0,0,,,,,0,23,23,1,,,,,,up,0.41699986899220676,2470.5214884559973,None,001,60,2019_Oct_24_1201,ACPT_experiment_5_30_19,3.1.0,59.95338088102197,
,,,C,D,g,b,L,G,d,L,i,,,,,7,11,151,10,0,0,0,0,,,,,0,24,24,16,,,,,,up,0.567124748173228,2472.222797800774,None,001,60,2019_Oct_24_1201,ACPT_experiment_5_30_19,3.1.0,59.95338088102197,
,,,C,D,g,b,R,G,d,L,i,,,,,7,11,151,10,0,0,0,0,,,,,0,25,25,4,,,,,,up,0.4670466269944882,2474.0575603371417,None,001,60,2019_Oct_24_1201,ACPT_experiment_5_30_19,3.1.0,59.95338088102197,
,,,C,D,g,b,L,G,g,L,c ,,,,,7,11,151,10,0,0,0,0,,,,,0,26,26,18,,,,,,up,0.5670815822977602,2475.8089535686104,None,001,60,2019_Oct_24_1201,ACPT_experiment_5_30_19,3.1.0,59.95338088102197,
,,,C,D,g,b,L,U,d,R,u,,,,,7,11,151,10,0,0,0,0,,,,,0,27,27,21,,,,,,up,0.7503334035664011,2477.677316362404,None,001,60,2019_Oct_24_1201,ACPT_experiment_5_30_19,3.1.0,59.95338088102197,
,,,C,D,g,b,L,U,y,R,u,,,,,7,11,151,10,0,0,0,0,,,,,0,28,28,25,,,,,,down,0.5504494382694247,2479.6952522366264,None,001,60,2019_Oct_24_1201,ACPT_experiment_5_30_19,3.1.0,59.95338088102197,
,,,C,D,g,b,R,G,y,L,y,,,,,7,11,151,10,0,0,0,0,,,,,0,29,29,28,,,,,,down,0.7172345343897177,2481.5300235269115,None,001,60,2019_Oct_24_1201,ACPT_experiment_5_30_19,3.1.0,59.95338088102197,
,,,C,D,g,b,R,G,y,R,y,,,,,7,11,151,10,0,0,0,0,,,,,0,30,30,29,,,,,,down,0.4837463874991954,2483.5315744798518,None,001,60,2019_Oct_24_1201,ACPT_experiment_5_30_19,3.1.0,59.95338088102197,
,,,C,D,g,b,R,D,y,R,y,,,,,7,11,151,10,0,0,0,0,,,,,0,31,31,27,,,,,,down,0.7505513459600479,2485.2996309468544,None,001,60,2019_Oct_24_1201,ACPT_experiment_5_30_19,3.1.0,59.95338088102197,
,,,C,D,g,b,L,G,g,R,c ,,,,,7,11,151,10,0,0,0,0,,,,,0,32,32,19,,,,,,up,0.5838079064178601,2487.3345216526686,None,001,60,2019_Oct_24_1201,ACPT_experiment_5_30_19,3.1.0,59.95338088102197,
,,,C,D,g,b,R,U,d,L,u,,,,,7,11,151,10,0,0,0,0,,,,,0,33,33,8,,,,,,up,0.7505824374638905,2489.2026296772347,None,001,60,2019_Oct_24_1201,ACPT_experiment_5_30_19,3.1.0,59.95338088102197,
,,,C,D,g,b,R,D,d,L,c,,,,,7,11,151,10,0,0,0,0,,,,,0,34,34,0,,,,,,up,0.8340021528601937,2491.2375170625965,None,001,60,2019_Oct_24_1201,ACPT_experiment_5_30_19,3.1.0,59.95338088102197,
,,,C,D,g,b,L,D,g,R,i,,,,,7,11,151,10,0,0,0,0,,,,,0,35,35,15,,,,,,up,0.6338211580405186,2493.3558474065157,None,001,60,2019_Oct_24_1201,ACPT_experiment_5_30_19,3.1.0,59.95338088102197,
,,,C,D,g,b,L,U,g,L,u,,,,,7,11,151,10,0,0,0,0,,,,,1,0,36,22,,,,,,up,0.5003933226307709,2495.2740006797885,None,001,60,2019_Oct_24_1201,ACPT_experiment_5_30_19,3.1.0,59.95338088102197,
,,,C,D,g,b,L,U,d,R,u,,,,,7,11,151,10,0,0,0,0,,,,,1,1,37,21,,,,,,up,0.5168165800441784,2497.0589881314972,None,001,60,2019_Oct_24_1201,ACPT_experiment_5_30_19,3.1.0,59.95338088102197,
,,,C,D,g,b,R,G,g,L,c ,,,,,7,11,151,10,0,0,0,0,,,,,1,2,38,6,,,,,,up,0.3836163465239224,2498.860111168733,None,001,60,2019_Oct_24_1201,ACPT_experiment_5_30_19,3.1.0,59.95338088102197,
,,,C,D,g,b,L,D,d,L,c ,,,,,7,11,151,10,0,0,0,0,,,,,1,3,39,12,,,,,,up,0.5504207616395433,2500.528065667675,None,001,60,2019_Oct_24_1201,ACPT_experiment_5_30_19,3.1.0,59.95338088102197,
,,,C,D,g,b,L,G,g,L,c ,,,,,7,11,151,10,0,0,0,0,,,,,1,4,40,18,,,,,,up,0.45034475347347325,2502.362822166855,None,001,60,2019_Oct_24_1201,ACPT_experiment_5_30_19,3.1.0,59.95338088102197,
,,,C,D,g,b,L,D,y,R,y,,,,,7,11,151,10,0,0,0,0,,,,,1,5,41,33,,,,,,down,0.5335851644613285,2504.11439591017,None,001,60,2019_Oct_24_1201,ACPT_experiment_5_30_19,3.1.0,59.95338088102197,
,,,C,D,g,b,R,G,y,L,y,,,,,7,11,151,10,0,0,0,0,,,,,1,6,42,28,,,,,,down,0.6838799904126063,2505.948909714496,None,001,60,2019_Oct_24_1201,ACPT_experiment_5_30_19,3.1.0,59.95338088102197,
,,,C,D,g,b,L,G,d,L,i,,,,,7,11,151,10,0,0,0,0,,,,,1,7,43,16,,,,,,up,0.5003622311269282,2507.9338164490364,None,001,60,2019_Oct_24_1201,ACPT_experiment_5_30_19,3.1.0,59.95338088102197,
,,,C,D,g,b,R,U,g,R,u,,,,,7,11,151,10,0,0,0,0,,,,,1,8,44,11,,,,,,up,0.6838169018246845,2509.7185554705666,None,001,60,2019_Oct_24_1201,ACPT_experiment_5_30_19,3.1.0,59.95338088102197,
,,,C,D,g,b,R,D,g,R,i,,,,,7,11,151,10,0,0,0,0,,,,,1,9,45,3,,,,,,up,0.5004126416242798,2511.6866815463163,None,001,60,2019_Oct_24_1201,ACPT_experiment_5_30_19,3.1.0,59.95338088102197,
,,,C,D,g,b,L,D,g,R,i,,,,,7,11,151,10,0,0,0,0,,,,,1,10,46,15,,,,,,up,0.3836311376289814,2513.4714100027722,None,001,60,2019_Oct_24_1201,ACPT_experiment_5_30_19,3.1.0,59.95338088102197,
,,,C,D,g,b,R,D,g,L,i,,,,,7,11,151,10,0,0,0,0,,,,,1,11,47,2,,,,,,up,0.6505163906567759,2515.1393762742246,None,001,60,2019_Oct_24_1201,ACPT_experiment_5_30_19,3.1.0,59.95338088102197,
,,,C,D,g,b,L,G,g,R,c ,,,,,7,11,151,10,0,0,0,0,,,,,1,12,48,19,,,,,,up,0.5333261692048836,2517.0912768103863,None,001,60,2019_Oct_24_1201,ACPT_experiment_5_30_19,3.1.0,59.95338088102197,
,,,C,D,g,b,R,U,y,L,u,,,,,7,11,151,10,0,0,0,0,,,,,1,13,49,30,,,,,,down,0.5003993598165835,2518.9089444524616,None,001,60,2019_Oct_24_1201,ACPT_experiment_5_30_19,3.1.0,59.95338088102197,
,,,C,D,g,b,L,U,y,R,u,,,,,7,11,151,10,0,0,0,0,,,,,1,14,50,25,,,,,,down,0.633819648744975,2520.6936771349465,None,001,60,2019_Oct_24_1201,ACPT_experiment_5_30_19,3.1.0,59.95338088102197,
,,,C,D,g,b,L,U,y,L,u,,,,,7,11,151,10,0,0,0,0,,,,,1,15,51,24,,,,,,down,0.5837994543599052,2522.611825880327,None,001,60,2019_Oct_24_1201,ACPT_experiment_5_30_19,3.1.0,59.95338088102197,
,,,C,D,g,b,L,G,d,R,i,,,,,7,11,151,10,0,0,0,0,,,,,1,16,52,17,,,,,,up,0.5671039198841754,2524.479941753236,None,001,60,2019_Oct_24_1201,ACPT_experiment_5_30_19,3.1.0,59.95338088102197,
,,,C,D,g,b,R,G,g,R,c ,,,,,7,11,151,10,0,0,0,0,,,,,1,17,53,7,,,,,,up,0.45034203674185846,2526.331371449305,None,001,60,2019_Oct_24_1201,ACPT_experiment_5_30_19,3.1.0,59.95338088102197,
,,,C,D,g,b,R,D,d,L,c,,,,,7,11,151,10,0,0,0,0,,,,,1,18,54,0,,,,,,up,0.5337451498762675,2528.066051336604,None,001,60,2019_Oct_24_1201,ACPT_experiment_5_30_19,3.1.0,59.95338088102197,
,,,C,D,g,b,R,U,d,L,u,,,,,7,11,151,10,0,0,0,0,,,,,1,19,55,8,,,,,,up,0.4834991647549032,2529.900969934213,None,001,60,2019_Oct_24_1201,ACPT_experiment_5_30_19,3.1.0,59.95338088102197,
,,,C,D,g,b,R,U,y,R,u,,,,,7,11,151,10,0,0,0,0,,,,,1,20,56,31,,,,,,down,0.5504430992259586,2531.6688184201776,None,001,60,2019_Oct_24_1201,ACPT_experiment_5_30_19,3.1.0,59.95338088102197,
,,,C,D,g,b,R,D,y,R,y,,,,,7,11,151,10,0,0,0,0,,,,,1,21,57,27,,,,,,down,0.517067425098503,2533.4869116838254,None,001,60,2019_Oct_24_1201,ACPT_experiment_5_30_19,3.1.0,59.95338088102197,
,,,C,D,g,b,L,D,y,L,y,,,,,7,11,151,10,0,0,0,0,,,,,1,22,58,32,,,,,,down,0.6004614824560122,2535.2883088092804,None,001,60,2019_Oct_24_1201,ACPT_experiment_5_30_19,3.1.0,59.95338088102197,
,,,C,D,g,b,R,D,d,R,c ,,,,,7,11,151,10,0,0,0,0,,,,,1,23,59,1,,,,,,up,0.44994509179923625,2537.1901761711088,None,001,60,2019_Oct_24_1201,ACPT_experiment_5_30_19,3.1.0,59.95338088102197,
,,,C,D,g,b,R,D,y,L,y,,,,,7,11,151,10,0,0,0,0,,,,,1,24,60,26,,,,,,down,0.8006101783321355,2538.941137743819,None,001,60,2019_Oct_24_1201,ACPT_experiment_5_30_19,3.1.0,59.95338088102197,
,,,C,D,g,b,L,U,g,R,u,,,,,7,11,151,10,0,0,0,0,,,,,1,25,61,23,,,,,,up,0.5337216048537812,2541.042782816481,None,001,60,2019_Oct_24_1201,ACPT_experiment_5_30_19,3.1.0,59.95338088102197,
,,,C,D,g,b,L,G,y,R,y,,,,,7,11,151,10,0,0,0,0,,,,,1,26,62,35,,,,,,down,0.5504470233954635,2542.86083381983,None,001,60,2019_Oct_24_1201,ACPT_experiment_5_30_19,3.1.0,59.95338088102197,
,,,C,D,g,b,L,U,d,L,u,,,,,7,11,151,10,0,0,0,0,,,,,1,27,63,20,,,,,,up,0.5337409238454711,2544.695587904138,None,001,60,2019_Oct_24_1201,ACPT_experiment_5_30_19,3.1.0,59.95338088102197,
,,,C,D,g,b,L,G,y,L,y,,,,,7,11,151,10,0,0,0,0,,,,,1,28,64,34,,,,,,down,0.5003788333870034,2546.5136651692446,None,001,60,2019_Oct_24_1201,ACPT_experiment_5_30_19,3.1.0,59.95338088102197,
,,,C,D,g,b,L,D,d,R,c ,,,,,7,11,151,10,0,0,0,0,,,,,1,29,65,13,,,,,,up,0.567099693853379,2548.298379136453,None,001,60,2019_Oct_24_1201,ACPT_experiment_5_30_19,3.1.0,59.95338088102197,
,,,C,D,g,b,R,G,y,R,y,,,,,7,11,151,10,0,0,0,0,,,,,1,30,66,29,,,,,,down,0.533550148786162,2550.166710235022,None,001,60,2019_Oct_24_1201,ACPT_experiment_5_30_19,3.1.0,59.95338088102197,
,,,C,D,g,b,R,U,g,L,u,,,,,7,11,151,10,0,0,0,0,,,,,1,31,67,10,,,,,,up,0.5671123719439493,2551.9845644261277,None,001,60,2019_Oct_24_1201,ACPT_experiment_5_30_19,3.1.0,59.95338088102197,
,,,C,D,g,b,R,G,d,R,i,,,,,7,11,151,10,0,0,0,0,,,,,1,32,68,5,,,,,,up,0.6004657084849896,2553.8359956314926,None,001,60,2019_Oct_24_1201,ACPT_experiment_5_30_19,3.1.0,59.95338088102197,
,,,C,D,g,b,L,D,g,L,i,,,,,7,11,151,10,0,0,0,0,,,,,1,33,69,14,,,,,,up,0.5671434634477919,2555.7207638729997,None,001,60,2019_Oct_24_1201,ACPT_experiment_5_30_19,3.1.0,59.95338088102197,
,,,C,D,g,b,R,U,d,R,u,,,,,7,11,151,10,0,0,0,0,,,,,1,34,70,9,,,,,,up,0.4837334075509716,2557.572223754998,None,001,60,2019_Oct_24_1201,ACPT_experiment_5_30_19,3.1.0,59.95338088102197,
,,,C,D,g,b,R,G,d,L,i,,,,,7,11,151,10,0,0,0,0,,,,,1,35,71,4,,,,,,up,0.46700919644536043,2559.3402904852155,None,001,60,2019_Oct_24_1201,ACPT_experiment_5_30_19,3.1.0,59.95338088102197,
,,,C,D,g,b,,,,,,,,,,7,11,151,10,1,0,1,0,0,0,0,0,,,,,,,,,,,,,,001,60,2019_Oct_24_1201,ACPT_experiment_5_30_19,3.1.0,59.95338088102197,
,,,C,D,g,b,R,G,g,L,c ,,,,,7,11,151,10,1,0,1,0,,,,,0,0,0,6,,,,,,up,0.5168084298420581,2564.6612945778234,None,001,60,2019_Oct_24_1201,ACPT_experiment_5_30_19,3.1.0,59.95338088102197,
,,,C,D,g,b,L,D,g,R,i,,,,,7,11,151,10,1,0,1,0,,,,,0,1,1,15,,,,,,up,0.5003881910233758,2566.4624342173192,None,001,60,2019_Oct_24_1201,ACPT_experiment_5_30_19,3.1.0,59.95338088102197,
,,,C,D,g,b,R,D,y,R,y,,,,,7,11,151,10,1,0,1,0,,,,,0,2,2,27,,,,,,down,0.5170852347946493,2568.2471315822677,None,001,60,2019_Oct_24_1201,ACPT_experiment_5_30_19,3.1.0,59.95338088102197,
,,,C,D,g,b,R,G,y,R,y,,,,,7,11,151,10,1,0,1,0,,,,,0,3,3,29,,,,,,down,0.4503375088515895,2570.048547422997,None,001,60,2019_Oct_24_1201,ACPT_experiment_5_30_19,3.1.0,59.95338088102197,
,,,C,D,g,b,R,D,g,R,i,,,,,7,11,151,10,1,0,1,0,,,,,0,4,4,3,,,,,,up,0.43338660143308516,2571.8001739916854,None,001,60,2019_Oct_24_1201,ACPT_experiment_5_30_19,3.1.0,59.95338088102197,
,,,C,D,g,b,R,D,d,L,c,,,,,7,11,151,10,1,0,1,0,,,,,0,5,5,0,,,,,,up,0.6838962908132089,2573.5011980794516,None,001,60,2019_Oct_24_1201,ACPT_experiment_5_30_19,3.1.0,59.95338088102197,
,,,C,D,g,b,R,G,d,R,i,,,,,7,11,151,10,1,0,1,0,,,,,0,6,6,5,,,,,,up,0.7005386980563344,2575.452730649162,None,001,60,2019_Oct_24_1201,ACPT_experiment_5_30_19,3.1.0,59.95338088102197,
,,,C,D,g,b,R,U,d,L,u,,,,,7,11,151,10,1,0,1,0,,,,,0,7,7,8,,,,,,up,0.4503344902586832,2577.4209192097805,None,001,60,2019_Oct_24_1201,ACPT_experiment_5_30_19,3.1.0,59.95338088102197,
,,,C,D,g,b,L,G,y,R,y,,,,,7,11,151,10,1,0,1,0,,,,,0,8,8,35,,,,,,down,0.45008787123333605,2579.1725481933427,None,001,60,2019_Oct_24_1201,ACPT_experiment_5_30_19,3.1.0,59.95338088102197,
,,,C,D,g,b,R,D,d,R,c ,,,,,7,11,151,10,1,0,1,0,,,,,0,9,9,1,,,,,,up,0.5170650102245418,2580.906949464532,None,001,60,2019_Oct_24_1201,ACPT_experiment_5_30_19,3.1.0,59.95338088102197,
,,,C,D,g,b,L,D,d,R,c ,,,,,7,11,151,10,1,0,1,0,,,,,0,10,10,13,,,,,,up,0.4169902094963618,2582.6916661484756,None,001,60,2019_Oct_24_1201,ACPT_experiment_5_30_19,3.1.0,59.95338088102197,
,,,C,D,g,b,R,U,g,R,u,,,,,7,11,151,10,1,0,1,0,,,,,0,11,11,11,,,,,,up,0.4003028252209333,2584.39298153044,None,001,60,2019_Oct_24_1201,ACPT_experiment_5_30_19,3.1.0,59.95338088102197,
,,,C,D,g,b,R,G,d,L,i,,,,,7,11,151,10,1,0,1,0,,,,,0,12,12,4,,,,,,up,0.6304910465514695,2586.0976264201727,None,001,60,2019_Oct_24_1201,ACPT_experiment_5_30_19,3.1.0,59.95338088102197,
,,,C,D,g,b,L,D,y,R,y,,,,,7,11,151,10,1,0,1,0,,,,,0,13,13,33,,,,,,down,0.5337590354029089,2588.0124489782374,None,001,60,2019_Oct_24_1201,ACPT_experiment_5_30_19,3.1.0,59.95338088102197,
,,,C,D,g,b,L,D,d,L,c ,,,,,7,11,151,10,1,0,1,0,,,,,0,14,14,12,,,,,,up,0.5337348866614775,2589.830535299123,None,001,60,2019_Oct_24_1201,ACPT_experiment_5_30_19,3.1.0,59.95338088102197,
,,,C,D,g,b,R,D,g,L,i,,,,,7,11,151,10,1,0,1,0,,,,,0,15,15,2,,,,,,up,0.41700288758511306,2591.648606828903,None,001,60,2019_Oct_24_1201,ACPT_experiment_5_30_19,3.1.0,59.95338088102197,
,,,C,D,g,b,L,D,g,L,i,,,,,7,11,151,10,1,0,1,0,,,,,0,16,16,14,,,,,,up,0.4500664392253384,2593.3668752313006,None,001,60,2019_Oct_24_1201,ACPT_experiment_5_30_19,3.1.0,59.95338088102197,
,,,C,D,g,b,L,G,d,R,i,,,,,7,11,151,10,1,0,1,0,,,,,0,17,17,17,,,,,,up,0.5837870781288075,2595.1012689560084,None,001,60,2019_Oct_24_1201,ACPT_experiment_5_30_19,3.1.0,59.95338088102197,
,,,C,D,g,b,R,U,d,R,u,,,,,7,11,151,10,1,0,1,0,,,,,0,18,18,9,,,,,,up,0.41698598346556537,2596.969385432634,None,001,60,2019_Oct_24_1201,ACPT_experiment_5_30_19,3.1.0,59.95338088102197,
,,,C,D,g,b,R,G,g,R,c ,,,,,7,11,151,10,1,0,1,0,,,,,0,19,19,7,,,,,,up,0.3669727318447258,2598.6707068517844,None,001,60,2019_Oct_24_1201,ACPT_experiment_5_30_19,3.1.0,59.95338088102197,
,,,C,D,g,b,L,G,g,L,c ,,,,,7,11,151,10,1,0,1,0,,,,,0,20,20,18,,,,,,up,0.6333481445617508,2600.3391020652616,None,001,60,2019_Oct_24_1201,ACPT_experiment_5_30_19,3.1.0,59.95338088102197,
,,,C,D,g,b,L,G,g,R,c ,,,,,7,11,151,10,1,0,1,0,,,,,0,21,21,19,,,,,,up,0.4170122452233045,2602.256809492388,None,001,60,2019_Oct_24_1201,ACPT_experiment_5_30_19,3.1.0,59.95338088102197,
,,,C,D,g,b,L,U,y,L,u,,,,,7,11,151,10,1,0,1,0,,,,,0,22,22,24,,,,,,down,0.617202597681171,2603.9581254780696,None,001,60,2019_Oct_24_1201,ACPT_experiment_5_30_19,3.1.0,59.95338088102197,
,,,C,D,g,b,L,G,d,L,i,,,,,7,11,151,10,1,0,1,0,,,,,0,23,23,16,,,,,,up,0.5504237802324496,2605.859601026563,None,001,60,2019_Oct_24_1201,ACPT_experiment_5_30_19,3.1.0,59.95338088102197,
,,,C,D,g,b,L,U,y,R,u,,,,,7,11,151,10,1,0,1,0,,,,,0,24,24,25,,,,,,up,0.48369809001633257,2607.7278584714695,None,001,60,2019_Oct_24_1201,ACPT_experiment_5_30_19,3.1.0,59.95338088102197,
,,,C,D,g,b,R,U,g,L,u,,,,,7,11,151,10,1,0,1,0,,,,,0,25,25,10,,,,,,up,0.6170909097509139,2609.512471315824,None,001,60,2019_Oct_24_1201,ACPT_experiment_5_30_19,3.1.0,59.95338088102197,
,,,C,D,g,b,L,U,d,R,u,,,,,7,11,151,10,1,0,1,0,,,,,0,26,26,21,,,,,,up,0.5003809464014921,2611.4139006798487,None,001,60,2019_Oct_24_1201,ACPT_experiment_5_30_19,3.1.0,59.95338088102197,
,,,C,D,g,b,R,U,y,L,u,,,,,7,11,151,10,1,0,1,0,,,,,0,27,27,30,,,,,,down,0.5337460554528661,2613.1986155526356,None,001,60,2019_Oct_24_1201,ACPT_experiment_5_30_19,3.1.0,59.95338088102197,
,,,C,D,g,b,L,D,y,L,y,,,,,7,11,151,10,1,0,1,0,,,,,0,28,28,32,,,,,,down,0.5470942724623455,2615.036701861447,None,001,60,2019_Oct_24_1201,ACPT_experiment_5_30_19,3.1.0,59.95338088102197,
,,,C,D,g,b,L,U,g,R,u,,,,,7,11,151,10,1,0,1,0,,,,,0,29,29,23,,,,,,up,0.45034475347529224,2616.8681219100945,None,001,60,2019_Oct_24_1201,ACPT_experiment_5_30_19,3.1.0,59.95338088102197,
,,,C,D,g,b,L,U,d,L,u,,,,,7,11,151,10,1,0,1,0,,,,,0,30,30,20,,,,,,up,0.4836754505704448,2618.6028190033703,None,001,60,2019_Oct_24_1201,ACPT_experiment_5_30_19,3.1.0,59.95338088102197,
,,,C,D,g,b,R,D,y,L,y,,,,,7,11,151,10,1,0,1,0,,,,,0,31,31,26,,,,,,down,0.5670915436530777,2620.3875169720377,None,001,60,2019_Oct_24_1201,ACPT_experiment_5_30_19,3.1.0,59.95338088102197,
,,,C,D,g,b,R,U,y,R,u,,,,,7,11,151,10,1,0,1,0,,,,,0,32,32,31,,,,,,down,0.7505818337467645,2622.2723211347984,None,001,60,2019_Oct_24_1201,ACPT_experiment_5_30_19,3.1.0,59.95338088102197,
,,,C,D,g,b,R,G,y,L,y,,,,,7,11,151,10,1,0,1,0,,,,,0,33,33,28,,,,,,down,0.7172188377080602,2624.3072100294557,None,001,60,2019_Oct_24_1201,ACPT_experiment_5_30_19,3.1.0,59.95338088102197,
,,,C,D,g,b,L,U,g,L,u,,,,,7,11,151,10,1,0,1,0,,,,,0,34,34,22,,,,,,down,0.600464802908391,2626.3087612842555,None,001,60,2019_Oct_24_1201,ACPT_experiment_5_30_19,3.1.0,59.95338088102197,
,,,C,D,g,b,L,G,y,L,y,,,,,7,11,151,10,1,0,1,0,,,,,0,35,35,34,,,,,,down,0.6338142152781074,2628.1935624284215,None,001,60,2019_Oct_24_1201,ACPT_experiment_5_30_19,3.1.0,59.95338088102197,
,,,C,D,g,b,R,G,y,L,y,,,,,7,11,151,10,1,0,1,0,,,,,1,0,36,28,,,,,,down,0.5170716511274804,2630.1116994012937,None,001,60,2019_Oct_24_1201,ACPT_experiment_5_30_19,3.1.0,59.95338088102197,
,,,C,D,g,b,L,G,y,R,y,,,,,7,11,151,10,1,0,1,0,,,,,1,1,37,35,,,,,,down,0.8006171210963657,2631.913098639763,None,001,60,2019_Oct_24_1201,ACPT_experiment_5_30_19,3.1.0,59.95338088102197,
,,,C,D,g,b,L,D,d,L,c ,,,,,7,11,151,10,1,0,1,0,,,,,1,2,38,12,,,,,,up,0.450342338601331,2633.9980469705115,None,001,60,2019_Oct_24_1201,ACPT_experiment_5_30_19,3.1.0,59.95338088102197,
,,,C,D,g,b,L,D,d,R,c ,,,,,7,11,151,10,1,0,1,0,,,,,1,3,39,13,,,,,,up,0.7004556867577776,2635.71602438057,None,001,60,2019_Oct_24_1201,ACPT_experiment_5_30_19,3.1.0,59.95338088102197,
,,,C,D,g,b,L,U,g,R,u,,,,,7,11,151,10,1,0,1,0,,,,,1,4,40,23,,,,,,up,0.45034203674185846,2637.7009139091333,None,001,60,2019_Oct_24_1201,ACPT_experiment_5_30_19,3.1.0,59.95338088102197,
,,,C,D,g,b,L,U,d,R,u,,,,,7,11,151,10,1,0,1,0,,,,,1,5,41,21,,,,,,up,0.4170110377854144,2639.435563610503,None,001,60,2019_Oct_24_1201,ACPT_experiment_5_30_19,3.1.0,59.95338088102197,
,,,C,D,g,b,L,U,y,L,u,,,,,7,11,151,10,1,0,1,0,,,,,1,6,42,24,,,,,,down,0.533499436427519,2641.1538265794334,None,001,60,2019_Oct_24_1201,ACPT_experiment_5_30_19,3.1.0,59.95338088102197,
,,,C,D,g,b,R,G,g,L,c ,,,,,7,11,151,10,1,0,1,0,,,,,1,7,43,6,,,,,,up,0.617132566330838,2642.9716614515455,None,001,60,2019_Oct_24_1201,ACPT_experiment_5_30_19,3.1.0,59.95338088102197,
,,,C,D,g,b,R,D,y,L,y,,,,,7,11,151,10,1,0,1,0,,,,,1,8,44,26,,,,,,down,0.600464802908391,2644.8731270386834,None,001,60,2019_Oct_24_1201,ACPT_experiment_5_30_19,3.1.0,59.95338088102197,
,,,C,D,g,b,R,U,g,L,u,,,,,7,11,151,10,1,0,1,0,,,,,1,9,45,10,,,,,,down,0.46702428940807295,2646.757923051242,None,001,60,2019_Oct_24_1201,ACPT_experiment_5_30_19,3.1.0,59.95338088102197,
,,,C,D,g,b,L,D,y,R,y,,,,,7,11,151,10,1,0,1,0,,,,,1,10,46,33,,,,,,down,0.5668886942239624,2648.5261983662167,None,001,60,2019_Oct_24_1201,ACPT_experiment_5_30_19,3.1.0,59.95338088102197,
,,,C,D,g,b,L,G,y,L,y,,,,,7,11,151,10,1,0,1,0,,,,,1,11,47,34,,,,,,down,0.6004620861731382,2650.377390800899,None,001,60,2019_Oct_24_1201,ACPT_experiment_5_30_19,3.1.0,59.95338088102197,
,,,C,D,g,b,R,D,y,R,y,,,,,7,11,151,10,1,0,1,0,,,,,1,12,48,27,,,,,,down,0.5170915738399344,2652.262175644666,None,001,60,2019_Oct_24_1201,ACPT_experiment_5_30_19,3.1.0,59.95338088102197,
,,,C,D,g,b,L,G,g,L,c ,,,,,7,11,151,10,1,0,1,0,,,,,1,13,49,18,,,,,,up,0.4670279117199243,2654.063575788714,None,001,60,2019_Oct_24_1201,ACPT_experiment_5_30_19,3.1.0,59.95338088102197,
,,,C,D,g,b,R,D,g,L,i,,,,,7,11,151,10,1,0,1,0,,,,,1,14,50,2,,,,,,up,0.40006526197430503,2655.8152050741337,None,001,60,2019_Oct_24_1201,ACPT_experiment_5_30_19,3.1.0,59.95338088102197,
,,,C,D,g,b,R,G,d,R,i,,,,,7,11,151,10,1,0,1,0,,,,,1,15,51,5,,,,,,up,0.517097611025747,2657.4995695486796,None,001,60,2019_Oct_24_1201,ACPT_experiment_5_30_19,3.1.0,59.95338088102197,
,,,C,D,g,b,R,G,d,L,i,,,,,7,11,151,10,1,0,1,0,,,,,1,16,52,4,,,,,,up,0.48372465363172523,2659.284264498754,None,001,60,2019_Oct_24_1201,ACPT_experiment_5_30_19,3.1.0,59.95338088102197,
,,,C,D,g,b,R,U,y,R,u,,,,,7,11,151,10,1,0,1,0,,,,,1,17,53,31,,,,,,down,0.5003912096162821,2661.052314324854,None,001,60,2019_Oct_24_1201,ACPT_experiment_5_30_19,3.1.0,59.95338088102197,
,,,C,D,g,b,R,D,d,R,c ,,,,,7,11,151,10,1,0,1,0,,,,,1,18,54,1,,,,,,up,0.6834238810515672,2662.8541201677617,None,001,60,2019_Oct_24_1201,ACPT_experiment_5_30_19,3.1.0,59.95338088102197,
,,,C,D,g,b,R,D,g,R,i,,,,,7,11,151,10,1,0,1,0,,,,,1,19,55,3,,,,,,up,0.38365106034143537,2664.8052020615796,None,001,60,2019_Oct_24_1201,ACPT_experiment_5_30_19,3.1.0,59.95338088102197,
,,,C,D,g,b,L,G,d,L,i,,,,,7,11,151,10,1,0,1,0,,,,,1,20,56,16,,,,,,up,0.6338226673360623,2666.4731816148396,None,001,60,2019_Oct_24_1201,ACPT_experiment_5_30_19,3.1.0,59.95338088102197,
,,,C,D,g,b,L,U,g,L,u,,,,,7,11,151,10,1,0,1,0,,,,,1,21,57,22,,,,,,up,0.4503495832232147,2668.391332171377,None,001,60,2019_Oct_24_1201,ACPT_experiment_5_30_19,3.1.0,59.95338088102197,
,,,C,D,g,b,R,G,y,R,y,,,,,7,11,151,10,1,0,1,0,,,,,1,22,58,29,,,,,,down,0.549962237406362,2670.1431181217595,None,001,60,2019_Oct_24_1201,ACPT_experiment_5_30_19,3.1.0,59.95338088102197,
,,,C,D,g,b,R,U,d,R,u,,,,,7,11,151,10,1,0,1,0,,,,,1,23,59,9,,,,,,up,0.6171431314032816,2671.977440547307,None,001,60,2019_Oct_24_1201,ACPT_experiment_5_30_19,3.1.0,59.95338088102197,
,,,C,D,g,b,L,U,d,L,u,,,,,7,11,151,10,1,0,1,0,,,,,1,24,60,20,,,,,,up,0.5170882533893746,2673.862235654289,None,001,60,2019_Oct_24_1201,ACPT_experiment_5_30_19,3.1.0,59.95338088102197,
,,,C,D,g,b,R,U,y,L,u,,,,,7,11,151,10,1,0,1,0,,,,,1,25,61,30,,,,,,down,0.6671584960404289,2675.6636427410995,None,001,60,2019_Oct_24_1201,ACPT_experiment_5_30_19,3.1.0,59.95338088102197,
,,,C,D,g,b,R,U,g,R,u,,,,,7,11,151,10,1,0,1,0,,,,,1,26,62,11,,,,,,up,0.5671012031507416,2677.6151427100085,None,001,60,2019_Oct_24_1201,ACPT_experiment_5_30_19,3.1.0,59.95338088102197,
,,,C,D,g,b,R,U,d,L,u,,,,,7,11,151,10,1,0,1,0,,,,,1,27,63,8,,,,,,up,0.6672037749303854,2679.4498711362776,None,001,60,2019_Oct_24_1201,ACPT_experiment_5_30_19,3.1.0,59.95338088102197,
,,,C,D,g,b,R,G,g,R,c ,,,,,7,11,151,10,1,0,1,0,,,,,1,28,64,7,,,,,,up,0.6338187431665574,2681.4014052152834,None,001,60,2019_Oct_24_1201,ACPT_experiment_5_30_19,3.1.0,59.95338088102197,
,,,C,D,g,b,L,D,g,R,i,,,,,7,11,151,10,1,0,1,0,,,,,1,29,65,15,,,,,,up,0.4834264166711364,2683.336515735018,None,001,60,2019_Oct_24_1201,ACPT_experiment_5_30_19,3.1.0,59.95338088102197,
,,,C,D,g,b,L,G,d,R,i,,,,,7,11,151,10,1,0,1,0,,,,,1,30,66,17,,,,,,up,0.41699866155613563,2685.1042718520457,None,001,60,2019_Oct_24_1201,ACPT_experiment_5_30_19,3.1.0,59.95338088102197,
,,,C,D,g,b,L,U,y,R,u,,,,,7,11,151,10,1,0,1,0,,,,,1,31,67,25,,,,,,down,0.5670990901362529,2686.80558723401,None,001,60,2019_Oct_24_1201,ACPT_experiment_5_30_19,3.1.0,59.95338088102197,
,,,C,D,g,b,R,D,d,L,c,,,,,7,11,151,10,1,0,1,0,,,,,1,32,68,0,,,,,,up,0.5003924170541723,2688.657022061687,None,001,60,2019_Oct_24_1201,ACPT_experiment_5_30_19,3.1.0,59.95338088102197,
,,,C,D,g,b,L,G,g,R,c ,,,,,7,11,151,10,1,0,1,0,,,,,1,33,69,19,,,,,,up,0.5835063490067114,2690.4586929735015,None,001,60,2019_Oct_24_1201,ACPT_experiment_5_30_19,3.1.0,59.95338088102197,
,,,C,D,g,b,L,D,g,L,i,,,,,7,11,151,10,1,0,1,0,,,,,1,34,70,14,,,,,,up,0.43367125472650514,2692.3265260042717,None,001,60,2019_Oct_24_1201,ACPT_experiment_5_30_19,3.1.0,59.95338088102197,
,,,C,D,g,b,L,D,y,L,y,,,,,7,11,151,10,1,0,1,0,,,,,1,35,71,32,,,,,,down,0.5504252895279933,2694.0445242426213,None,001,60,2019_Oct_24_1201,ACPT_experiment_5_30_19,3.1.0,59.95338088102197,
,,,C,D,g,b,,,,,,,,,,7,11,151,10,2,0,2,0,0,0,0,0,,,,,,,,,,,,,,001,60,2019_Oct_24_1201,ACPT_experiment_5_30_19,3.1.0,59.95338088102197,
,,,C,D,g,b,R,D,d,L,c,,,,,7,11,151,10,2,0,2,0,,,,,0,0,0,0,,,,,,up,0.5501726333168335,2698.2480474233,None,001,60,2019_Oct_24_1201,ACPT_experiment_5_30_19,3.1.0,59.95338088102197,
,,,C,D,g,b,L,D,g,L,i,,,,,7,11,151,10,2,0,2,0,,,,,0,1,1,14,,,,,,up,0.4336778956294438,2700.0825298342625,None,001,60,2019_Oct_24_1201,ACPT_experiment_5_30_19,3.1.0,59.95338088102197,
,,,C,D,g,b,L,D,d,L,c ,,,,,7,11,151,10,2,0,2,0,,,,,0,2,2,12,,,,,,up,0.41700168014904193,2701.800500603418,None,001,60,2019_Oct_24_1201,ACPT_experiment_5_30_19,3.1.0,59.95338088102197,
,,,C,D,g,b,R,U,d,R,u,,,,,7,11,151,10,2,0,2,0,,,,,0,3,3,9,,,,,,up,0.6671747964410315,2703.501845567589,None,001,60,2019_Oct_24_1201,ACPT_experiment_5_30_19,3.1.0,59.95338088102197,
,,,C,D,g,b,R,U,g,R,u,,,,,7,11,151,10,2,0,2,0,,,,,0,4,4,11,,,,,,up,0.46675925696763443,2705.453623850746,None,001,60,2019_Oct_24_1201,ACPT_experiment_5_30_19,3.1.0,59.95338088102197,
,,,C,D,g,b,R,D,d,R,c ,,,,,7,11,151,10,2,0,2,0,,,,,0,5,5,1,,,,,,up,0.4003037307993509,2707.2047103931964,None,001,60,2019_Oct_24_1201,ACPT_experiment_5_30_19,3.1.0,59.95338088102197,
,,,C,D,g,b,R,U,g,L,u,,,,,7,11,151,10,2,0,2,0,,,,,0,6,6,10,,,,,,up,0.5504352508833108,2708.8893465410856,None,001,60,2019_Oct_24_1201,ACPT_experiment_5_30_19,3.1.0,59.95338088102197,
,,,C,D,g,b,R,D,g,R,i,,,,,7,11,151,10,2,0,2,0,,,,,0,7,7,3,,,,,,up,0.45034475347347325,2710.7241018328295,None,001,60,2019_Oct_24_1201,ACPT_experiment_5_30_19,3.1.0,59.95338088102197,
,,,C,D,g,b,R,D,g,L,i,,,,,7,11,151,10,2,0,2,0,,,,,0,8,8,2,,,,,,up,0.48343003898116876,2712.459048865583,None,001,60,2019_Oct_24_1201,ACPT_experiment_5_30_19,3.1.0,59.95338088102197,
,,,C,D,g,b,L,U,d,R,u,,,,,7,11,151,10,2,0,2,0,,,,,0,9,9,21,,,,,,up,0.4336718584454502,2714.226813132811,None,001,60,2019_Oct_24_1201,ACPT_experiment_5_30_19,3.1.0,59.95338088102197,
,,,C,D,g,b,R,D,y,R,y,,,,,7,11,151,10,2,0,2,0,,,,,0,10,10,27,,,,,,down,0.7505902858065383,2715.944806239553,None,001,60,2019_Oct_24_1201,ACPT_experiment_5_30_19,3.1.0,59.95338088102197,
,,,C,D,g,b,L,U,g,L,u,,,,,7,11,151,10,2,0,2,0,,,,,0,11,11,22,,,,,,up,0.4837035234813811,2717.979722301545,None,001,60,2019_Oct_24_1201,ACPT_experiment_5_30_19,3.1.0,59.95338088102197,
,,,C,D,g,b,R,U,y,R,u,,,,,7,11,151,10,2,0,2,0,,,,,0,12,12,31,,,,,,down,0.6304943670038483,2719.7677609467755,None,001,60,2019_Oct_24_1201,ACPT_experiment_5_30_19,3.1.0,59.95338088102197,
,,,C,D,g,b,L,G,g,L,c ,,,,,7,11,151,10,2,0,2,0,,,,,0,13,13,18,,,,,,up,0.4169814555771154,2721.6825922587595,None,001,60,2019_Oct_24_1201,ACPT_experiment_5_30_19,3.1.0,59.95338088102197,
,,,C,D,g,b,L,D,d,R,c ,,,,,7,11,151,10,2,0,2,0,,,,,0,14,14,13,,,,,,up,0.4336670286957087,2723.383897679367,None,001,60,2019_Oct_24_1201,ACPT_experiment_5_30_19,3.1.0,59.95338088102197,
,,,C,D,g,b,R,G,g,R,c ,,,,,7,11,151,10,2,0,2,0,,,,,0,15,15,7,,,,,,up,0.4003046363759495,2725.1018965214353,None,001,60,2019_Oct_24_1201,ACPT_experiment_5_30_19,3.1.0,59.95338088102197,
,,,C,D,g,b,R,G,y,R,y,,,,,7,11,151,10,2,0,2,0,,,,,0,16,16,29,,,,,,down,0.4167185361511656,2726.786801324077,None,001,60,2019_Oct_24_1201,ACPT_experiment_5_30_19,3.1.0,59.95338088102197,
,,,C,D,g,b,L,U,y,L,u,,,,,7,11,151,10,2,0,2,0,,,,,0,17,17,24,,,,,,down,0.5671027124481043,2728.4878525791773,None,001,60,2019_Oct_24_1201,ACPT_experiment_5_30_19,3.1.0,59.95338088102197,
,,,C,D,g,b,R,U,d,L,u,,,,,7,11,151,10,2,0,2,0,,,,,0,18,18,8,,,,,,up,0.5003830594159808,2730.3392852938396,None,001,60,2019_Oct_24_1201,ACPT_experiment_5_30_19,3.1.0,59.95338088102197,
,,,C,D,g,b,L,D,y,R,y,,,,,7,11,151,10,2,0,2,0,,,,,0,19,19,33,,,,,,down,0.617157016929923,2732.123979036478,None,001,60,2019_Oct_24_1201,ACPT_experiment_5_30_19,3.1.0,59.95338088102197,
,,,C,D,g,b,L,D,y,L,y,,,,,7,11,151,10,2,0,2,0,,,,,0,20,20,32,,,,,,down,0.5470903482928406,2734.0454817402315,None,001,60,2019_Oct_24_1201,ACPT_experiment_5_30_19,3.1.0,59.95338088102197,
,,,C,D,g,b,R,D,y,L,y,,,,,7,11,151,10,2,0,2,0,,,,,0,21,21,26,,,,,,down,0.5670972789812367,2735.893584645264,None,001,60,2019_Oct_24_1201,ACPT_experiment_5_30_19,3.1.0,59.95338088102197,
,,,C,D,g,b,L,G,d,R,i,,,,,7,11,151,10,2,0,2,0,,,,,0,22,22,17,,,,,,up,0.4837255592101428,2737.761673652698,None,001,60,2019_Oct_24_1201,ACPT_experiment_5_30_19,3.1.0,59.95338088102197,
,,,C,D,g,b,R,G,d,L,i,,,,,7,11,151,10,2,0,2,0,,,,,0,23,23,4,,,,,,up,0.46705719206875074,2739.5297029523663,None,001,60,2019_Oct_24_1201,ACPT_experiment_5_30_19,3.1.0,59.95338088102197,
,,,C,D,g,b,R,U,y,L,u,,,,,7,11,151,10,2,0,2,0,,,,,0,24,24,30,,,,,,down,0.4667532197818218,2741.2980368280387,None,001,60,2019_Oct_24_1201,ACPT_experiment_5_30_19,3.1.0,59.95338088102197,
,,,C,D,g,b,L,G,d,L,i,,,,,7,11,151,10,2,0,2,0,,,,,0,25,25,16,,,,,,up,0.5337382071120373,2743.0491245779267,None,001,60,2019_Oct_24_1201,ACPT_experiment_5_30_19,3.1.0,59.95338088102197,
,,,C,D,g,b,L,U,d,L,u,,,,,7,11,151,10,2,0,2,0,,,,,0,26,26,20,,,,,,up,0.48373884101783915,2744.867175279416,None,001,60,2019_Oct_24_1201,ACPT_experiment_5_30_19,3.1.0,59.95338088102197,
,,,C,D,g,b,L,G,g,R,c ,,,,,7,11,151,10,2,0,2,0,,,,,0,27,27,19,,,,,,up,0.6671850596558215,2746.6352296334044,None,001,60,2019_Oct_24_1201,ACPT_experiment_5_30_19,3.1.0,59.95338088102197,
,,,C,D,g,b,L,U,y,R,u,,,,,7,11,151,10,2,0,2,0,,,,,0,28,28,25,,,,,,down,0.716987613506717,2748.6036672279242,None,001,60,2019_Oct_24_1201,ACPT_experiment_5_30_19,3.1.0,59.95338088102197,
,,,C,D,g,b,L,D,g,R,i,,,,,7,11,151,10,2,0,2,0,,,,,0,29,29,15,,,,,,up,0.5003664571559057,2750.6049736748537,None,001,60,2019_Oct_24_1201,ACPT_experiment_5_30_19,3.1.0,59.95338088102197,
,,,C,D,g,b,L,G,y,R,y,,,,,7,11,151,10,2,0,2,0,,,,,0,30,30,35,,,,,,down,0.4670215726746392,2752.3896828123143,None,001,60,2019_Oct_24_1201,ACPT_experiment_5_30_19,3.1.0,59.95338088102197,
,,,C,D,g,b,R,G,g,L,c ,,,,,7,11,151,10,2,0,2,0,,,,,0,31,31,6,,,,,,up,0.5170885552470281,2754.141044952279,None,001,60,2019_Oct_24_1201,ACPT_experiment_5_30_19,3.1.0,59.95338088102197,
,,,C,D,g,b,L,G,y,L,y,,,,,7,11,151,10,2,0,2,0,,,,,0,32,32,34,,,,,,down,0.517067425098503,2755.9424342293933,None,001,60,2019_Oct_24_1201,ACPT_experiment_5_30_19,3.1.0,59.95338088102197,
,,,C,D,g,b,L,U,g,R,u,,,,,7,11,151,10,2,0,2,0,,,,,0,33,33,23,,,,,,up,0.41698296487265907,2757.7438283362553,None,001,60,2019_Oct_24_1201,ACPT_experiment_5_30_19,3.1.0,59.95338088102197,
,,,C,D,g,b,R,G,d,R,i,,,,,7,11,151,10,2,0,2,0,,,,,0,34,34,5,,,,,,up,0.4837285778030491,2759.4451201731954,None,001,60,2019_Oct_24_1201,ACPT_experiment_5_30_19,3.1.0,59.95338088102197,
,,,C,D,g,b,R,G,y,L,y,,,,,7,11,151,10,2,0,2,0,,,,,0,35,35,28,,,,,,down,0.41701858426677063,2761.21318026251,None,001,60,2019_Oct_24_1201,ACPT_experiment_5_30_19,3.1.0,59.95338088102197,
,,,C,D,g,b,R,D,g,L,i,,,,,7,11,151,10,2,0,2,0,,,,,1,0,36,2,,,,,,up,0.5337626577147603,2762.9144986630654,None,001,60,2019_Oct_24_1201,ACPT_experiment_5_30_19,3.1.0,59.95338088102197,
,,,C,D,g,b,L,G,d,L,i,,,,,7,11,151,10,2,0,2,0,,,,,1,1,37,16,,,,,,up,0.4169844741700217,2764.732571098424,None,001,60,2019_Oct_24_1201,ACPT_experiment_5_30_19,3.1.0,59.95338088102197,
,,,C,D,g,b,L,U,d,L,u,,,,,7,11,151,10,2,0,2,0,,,,,1,2,38,20,,,,,,up,0.4836941658450087,2766.433893423151,None,001,60,2019_Oct_24_1201,ACPT_experiment_5_30_19,3.1.0,59.95338088102197,
,,,C,D,g,b,L,G,g,L,c ,,,,,7,11,151,10,2,0,2,0,,,,,1,3,39,18,,,,,,up,0.5003703813254106,2768.2186131256876,None,001,60,2019_Oct_24_1201,ACPT_experiment_5_30_19,3.1.0,59.95338088102197,
,,,C,D,g,b,L,D,d,L,c ,,,,,7,11,151,10,2,0,2,0,,,,,1,4,40,12,,,,,,up,0.4670218745341117,2770.0033207538527,None,001,60,2019_Oct_24_1201,ACPT_experiment_5_30_19,3.1.0,59.95338088102197,
,,,C,D,g,b,L,G,y,L,y,,,,,7,11,151,10,2,0,2,0,,,,,1,5,41,34,,,,,,down,0.6004916683814372,2771.7546530097497,None,001,60,2019_Oct_24_1201,ACPT_experiment_5_30_19,3.1.0,59.95338088102197,
,,,C,D,g,b,L,U,d,R,u,,,,,7,11,151,10,2,0,2,0,,,,,1,6,42,21,,,,,,up,0.46701825222226034,2773.639467737583,None,001,60,2019_Oct_24_1201,ACPT_experiment_5_30_19,3.1.0,59.95338088102197,
,,,C,D,g,b,L,D,d,R,c ,,,,,7,11,151,10,2,0,2,0,,,,,1,7,43,13,,,,,,up,0.6001858849394921,2775.407780181249,None,001,60,2019_Oct_24_1201,ACPT_experiment_5_30_19,3.1.0,59.95338088102197,
,,,C,D,g,b,R,G,g,L,c ,,,,,7,11,151,10,2,0,2,0,,,,,1,8,44,6,,,,,,up,0.4837095606690127,2777.292291540516,None,001,60,2019_Oct_24_1201,ACPT_experiment_5_30_19,3.1.0,59.95338088102197,
,,,C,D,g,b,L,D,y,L,y,,,,,7,11,151,10,2,0,2,0,,,,,1,9,45,32,,,,,,down,0.6171479611512041,2779.0603232550584,None,001,60,2019_Oct_24_1201,ACPT_experiment_5_30_19,3.1.0,59.95338088102197,
,,,C,D,g,b,R,G,g,R,c ,,,,,7,11,151,10,2,0,2,0,,,,,1,10,46,7,,,,,,up,0.4670436084015819,2780.9617767678246,None,001,60,2019_Oct_24_1201,ACPT_experiment_5_30_19,3.1.0,59.95338088102197,
,,,C,D,g,b,L,D,g,R,i,,,,,7,11,151,10,2,0,2,0,,,,,1,11,47,15,,,,,,up,0.43339626092893013,2782.7134214480684,None,001,60,2019_Oct_24_1201,ACPT_experiment_5_30_19,3.1.0,59.95338088102197,
,,,C,D,g,b,R,D,d,R,c ,,,,,7,11,151,10,2,0,2,0,,,,,1,12,48,1,,,,,,up,0.43367125472650514,2784.4311465037754,None,001,60,2019_Oct_24_1201,ACPT_experiment_5_30_19,3.1.0,59.95338088102197,
,,,C,D,g,b,R,U,g,R,u,,,,,7,11,151,10,2,0,2,0,,,,,1,13,49,11,,,,,,up,0.41697179608127044,2786.1491598350894,None,001,60,2019_Oct_24_1201,ACPT_experiment_5_30_19,3.1.0,59.95338088102197,
,,,C,D,g,b,R,U,g,L,u,,,,,7,11,151,10,2,0,2,0,,,,,1,14,50,10,,,,,,up,0.8173256355203193,2787.8337633821775,None,001,60,2019_Oct_24_1201,ACPT_experiment_5_30_19,3.1.0,59.95338088102197,
,,,C,D,g,b,L,U,g,L,u,,,,,7,11,151,10,2,0,2,0,,,,,1,15,51,22,,,,,,up,0.4333977702262928,2789.952359965975,None,001,60,2019_Oct_24_1201,ACPT_experiment_5_30_19,3.1.0,59.95338088102197,
,,,C,D,g,b,R,D,y,R,y,,,,,7,11,151,10,2,0,2,0,,,,,1,16,52,27,,,,,,down,0.7171989149974252,2791.6701161131878,None,001,60,2019_Oct_24_1201,ACPT_experiment_5_30_19,3.1.0,59.95338088102197,
,,,C,D,g,b,L,U,y,L,u,,,,,7,11,151,10,2,0,2,0,,,,,1,17,53,24,,,,,,down,0.46702519498649053,2793.6716408043703,None,001,60,2019_Oct_24_1201,ACPT_experiment_5_30_19,3.1.0,59.95338088102197,
,,,C,D,g,b,L,U,g,R,u,,,,,7,11,151,10,2,0,2,0,,,,,1,18,54,23,,,,,,up,0.4836881286591961,2795.4230153205663,None,001,60,2019_Oct_24_1201,ACPT_experiment_5_30_19,3.1.0,59.95338088102197,
,,,C,D,g,b,R,G,y,L,y,,,,,7,11,151,10,2,0,2,0,,,,,1,19,55,28,,,,,,up,0.5001379496861773,2797.207950248763,None,001,60,2019_Oct_24_1201,ACPT_experiment_5_30_19,3.1.0,59.95338088102197,
,,,C,D,g,b,L,D,g,L,i,,,,,7,11,151,10,2,0,2,0,,,,,1,20,56,14,,,,,,up,0.5671437653072644,2798.992424237851,None,001,60,2019_Oct_24_1201,ACPT_experiment_5_30_19,3.1.0,59.95338088102197,
,,,C,D,g,b,L,G,d,R,i,,,,,7,11,151,10,2,0,2,0,,,,,1,21,57,17,,,,,,up,0.5337403201265261,2800.8438575562323,None,001,60,2019_Oct_24_1201,ACPT_experiment_5_30_19,3.1.0,59.95338088102197,
,,,C,D,g,b,L,U,y,R,u,,,,,7,11,151,10,2,0,2,0,,,,,1,22,58,25,,,,,,down,0.6004705382329121,2802.695291176473,None,001,60,2019_Oct_24_1201,ACPT_experiment_5_30_19,3.1.0,59.95338088102197,
,,,C,D,g,b,R,G,y,R,y,,,,,7,11,151,10,2,0,2,0,,,,,1,23,59,29,,,,,,down,0.5003607218313846,2804.613462259442,None,001,60,2019_Oct_24_1201,ACPT_experiment_5_30_19,3.1.0,59.95338088102197,
,,,C,D,g,b,R,U,d,R,u,,,,,7,11,151,10,2,0,2,0,,,,,1,24,60,9,,,,,,down,0.4003058438138396,2806.398159020673,None,001,60,2019_Oct_24_1201,ACPT_experiment_5_30_19,3.1.0,59.95338088102197,
,,,C,D,g,b,R,G,d,R,i,,,,,7,11,151,10,2,0,2,0,,,,,1,25,61,5,,,,,,up,0.5504252895279933,2808.082796074139,None,001,60,2019_Oct_24_1201,ACPT_experiment_5_30_19,3.1.0,59.95338088102197,
,,,C,D,g,b,R,D,y,L,y,,,,,7,11,151,10,2,0,2,0,,,,,1,26,62,26,,,,,,down,0.6004880460714048,2809.917520274379,None,001,60,2019_Oct_24_1201,ACPT_experiment_5_30_19,3.1.0,59.95338088102197,
,,,C,D,g,b,L,D,y,R,y,,,,,7,11,151,10,2,0,2,0,,,,,1,27,63,33,,,,,,down,0.6171283403000416,2811.8357076577486,None,001,60,2019_Oct_24_1201,ACPT_experiment_5_30_19,3.1.0,59.95338088102197,
,,,C,D,g,b,R,U,y,R,u,,,,,7,11,151,10,2,0,2,0,,,,,1,28,64,31,,,,,,down,0.500379738963602,2813.753851271522,None,001,60,2019_Oct_24_1201,ACPT_experiment_5_30_19,3.1.0,59.95338088102197,
,,,C,D,g,b,R,D,g,R,i,,,,,7,11,151,10,2,0,2,0,,,,,1,29,65,3,,,,,,up,0.5504219690756145,2815.5385649368727,None,001,60,2019_Oct_24_1201,ACPT_experiment_5_30_19,3.1.0,59.95338088102197,
,,,C,D,g,b,R,U,y,L,u,,,,,7,11,151,10,2,0,2,0,,,,,1,30,66,30,,,,,,down,0.6338220636189362,2817.3733172100237,None,001,60,2019_Oct_24_1201,ACPT_experiment_5_30_19,3.1.0,59.95338088102197,
,,,C,D,g,b,R,U,d,L,u,,,,,7,11,151,10,2,0,2,0,,,,,1,31,67,8,,,,,,up,0.73362519100192,2819.29173853433,None,001,60,2019_Oct_24_1201,ACPT_experiment_5_30_19,3.1.0,59.95338088102197,
,,,C,D,g,b,L,G,y,R,y,,,,,7,11,151,10,2,0,2,0,,,,,1,32,68,35,,,,,,down,0.8172051936689968,2821.3263536426275,None,001,60,2019_Oct_24_1201,ACPT_experiment_5_30_19,3.1.0,59.95338088102197,
,,,C,D,g,b,R,G,d,L,i,,,,,7,11,151,10,2,0,2,0,,,,,1,33,69,4,,,,,,up,0.7672616715408367,2823.4446710065986,None,001,60,2019_Oct_24_1201,ACPT_experiment_5_30_19,3.1.0,59.95338088102197,
,,,C,D,g,b,L,G,g,R,c ,,,,,7,11,151,10,2,0,2,0,,,,,1,34,70,19,,,,,,up,0.8006020281318342,2825.496290451407,None,001,60,2019_Oct_24_1201,ACPT_experiment_5_30_19,3.1.0,59.95338088102197,
,,,C,D,g,b,R,D,d,L,c,,,,,7,11,151,10,2,0,2,0,,,,,1,35,71,0,,,,,,up,0.6005478142069478,2827.5811932014058,None,001,60,2019_Oct_24_1201,ACPT_experiment_5_30_19,3.1.0,59.95338088102197,
,,,C,D,g,b,,,,,,,,,,7,11,151,10,3,0,3,0,0,0,0,0,,,,,,,,,,,,,,001,60,2019_Oct_24_1201,ACPT_experiment_5_30_19,3.1.0,59.95338088102197,
,,,C,D,g,b,L,G,g,R,c ,,,,,7,11,151,10,3,0,3,0,,,,,0,0,0,19,,,,,,up,0.5671531229454558,2830.783677986188,None,001,60,2019_Oct_24_1201,ACPT_experiment_5_30_19,3.1.0,59.95338088102197,
,,,C,D,g,b,L,G,y,R,y,,,,,7,11,151,10,3,0,3,0,,,,,0,1,1,35,,,,,,down,0.5971259375000955,2832.6551469118895,None,001,60,2019_Oct_24_1201,ACPT_experiment_5_30_19,3.1.0,59.95338088102197,
,,,C,D,g,b,R,D,d,L,c,,,,,7,11,151,10,3,0,3,0,,,,,0,2,2,0,,,,,,up,0.48369869373345864,2834.536603153465,None,001,60,2019_Oct_24_1201,ACPT_experiment_5_30_19,3.1.0,59.95338088102197,
,,,C,D,g,b,L,U,y,R,u,,,,,7,11,151,10,3,0,3,0,,,,,0,3,3,25,,,,,,down,0.4837095606671937,2836.3046369810218,None,001,60,2019_Oct_24_1201,ACPT_experiment_5_30_19,3.1.0,59.95338088102197,
,,,C,D,g,b,R,G,g,R,c ,,,,,7,11,151,10,3,0,3,0,,,,,0,4,4,7,,,,,,up,0.5838091138557502,2838.0726475654155,None,001,60,2019_Oct_24_1201,ACPT_experiment_5_30_19,3.1.0,59.95338088102197,
,,,C,D,g,b,L,G,d,L,i,,,,,7,11,151,10,3,0,3,0,,,,,0,5,5,16,,,,,,up,0.500349553036358,2839.9574967052067,None,001,60,2019_Oct_24_1201,ACPT_experiment_5_30_19,3.1.0,59.95338088102197,
,,,C,D,g,b,R,D,g,R,i,,,,,7,11,151,10,3,0,3,0,,,,,0,6,6,3,,,,,,up,0.4336857439720916,2841.7421563377466,None,001,60,2019_Oct_24_1201,ACPT_experiment_5_30_19,3.1.0,59.95338088102197,
,,,C,D,g,b,L,G,g,L,c ,,,,,7,11,151,10,3,0,3,0,,,,,0,7,7,18,,,,,,up,0.3836495510440727,2843.460176611823,None,001,60,2019_Oct_24_1201,ACPT_experiment_5_30_19,3.1.0,59.95338088102197,
,,,C,D,g,b,L,G,y,L,y,,,,,7,11,151,10,3,0,3,0,,,,,0,8,8,34,,,,,,down,0.6171657708491693,2845.128108471319,None,001,60,2019_Oct_24_1201,ACPT_experiment_5_30_19,3.1.0,59.95338088102197,
,,,C,D,g,b,R,U,d,L,u,,,,,7,11,151,10,3,0,3,0,,,,,0,9,9,8,,,,,,up,0.5669659701961791,2847.063098247345,None,001,60,2019_Oct_24_1201,ACPT_experiment_5_30_19,3.1.0,59.95338088102197,
,,,C,D,g,b,R,D,d,R,c ,,,,,7,11,151,10,3,0,3,0,,,,,0,10,10,1,,,,,,up,0.6505290687455272,2848.9143990495068,None,001,60,2019_Oct_24_1201,ACPT_experiment_5_30_19,3.1.0,59.95338088102197,
,,,C,D,g,b,R,U,y,R,u,,,,,7,11,151,10,3,0,3,0,,,,,0,11,11,31,,,,,,down,0.5670978826983628,2850.849229745696,None,001,60,2019_Oct_24_1201,ACPT_experiment_5_30_19,3.1.0,59.95338088102197,
,,,C,D,g,b,L,U,g,R,u,,,,,7,11,151,10,3,0,3,0,,,,,0,12,12,23,,,,,,up,0.6504937512108881,2852.700663064077,None,001,60,2019_Oct_24_1201,ACPT_experiment_5_30_19,3.1.0,59.95338088102197,
,,,C,D,g,b,R,D,g,L,i,,,,,7,11,151,10,3,0,3,0,,,,,0,13,13,2,,,,,,up,0.5504506457054958,2854.6187879625777,None,001,60,2019_Oct_24_1201,ACPT_experiment_5_30_19,3.1.0,59.95338088102197,
,,,C,D,g,b,L,U,g,L,u,,,,,7,11,151,10,3,0,3,0,,,,,0,14,14,22,,,,,,up,0.5337463573123387,2856.453564988189,None,001,60,2019_Oct_24_1201,ACPT_experiment_5_30_19,3.1.0,59.95338088102197,
,,,C,D,g,b,L,D,y,R,y,,,,,7,11,151,10,3,0,3,0,,,,,0,15,15,33,,,,,,down,0.5671005994317966,2858.2716383291245,None,001,60,2019_Oct_24_1201,ACPT_experiment_5_30_19,3.1.0,59.95338088102197,
,,,C,D,g,b,L,D,g,L,i,,,,,7,11,151,10,3,0,3,0,,,,,0,16,16,14,,,,,,up,0.48037250641573337,2860.1430858228177,None,001,60,2019_Oct_24_1201,ACPT_experiment_5_30_19,3.1.0,59.95338088102197,
,,,C,D,g,b,R,U,d,R,u,,,,,7,11,151,10,3,0,3,0,,,,,0,17,17,9,,,,,,up,0.6338250822118425,2861.9077889351684,None,001,60,2019_Oct_24_1201,ACPT_experiment_5_30_19,3.1.0,59.95338088102197,
,,,C,D,g,b,L,D,d,R,c ,,,,,7,11,151,10,3,0,3,0,,,,,0,18,18,13,,,,,,up,0.4503532055332471,2863.8092620687876,None,001,60,2019_Oct_24_1201,ACPT_experiment_5_30_19,3.1.0,59.95338088102197,
,,,C,D,g,b,L,U,d,R,u,,,,,7,11,151,10,3,0,3,0,,,,,0,19,19,21,,,,,,up,0.4670348544823355,2865.5439371263365,None,001,60,2019_Oct_24_1201,ACPT_experiment_5_30_19,3.1.0,59.95338088102197,
,,,C,D,g,b,L,D,d,L,c ,,,,,7,11,151,10,3,0,3,0,,,,,0,20,20,12,,,,,,up,0.5501557291991048,2867.2955579596983,None,001,60,2019_Oct_24_1201,ACPT_experiment_5_30_19,3.1.0,59.95338088102197,
,,,C,D,g,b,R,G,y,R,y,,,,,7,11,151,10,3,0,3,0,,,,,0,21,21,29,,,,,,down,0.5504138188771321,2869.1300545580452,None,001,60,2019_Oct_24_1201,ACPT_experiment_5_30_19,3.1.0,59.95338088102197,
,,,C,D,g,b,R,G,y,L,y,,,,,7,11,151,10,3,0,3,0,,,,,0,22,22,28,,,,,,down,0.6171440369798802,2870.964796266122,None,001,60,2019_Oct_24_1201,ACPT_experiment_5_30_19,3.1.0,59.95338088102197,
,,,C,D,g,b,R,D,y,R,y,,,,,7,11,151,10,3,0,3,0,,,,,0,23,23,27,,,,,,down,0.4336618970901327,2872.8662721164746,None,001,60,2019_Oct_24_1201,ACPT_experiment_5_30_19,3.1.0,59.95338088102197,
,,,C,D,g,b,L,U,y,L,u,,,,,7,11,151,10,3,0,3,0,,,,,0,24,24,24,,,,,,up,0.46675050304838805,2874.6012200548066,None,001,60,2019_Oct_24_1201,ACPT_experiment_5_30_19,3.1.0,59.95338088102197,
,,,C,D,g,b,L,U,d,L,u,,,,,7,11,151,10,3,0,3,0,,,,,0,25,25,20,,,,,,up,0.4170040950211842,2876.3356035162997,None,001,60,2019_Oct_24_1201,ACPT_experiment_5_30_19,3.1.0,59.95338088102197,
,,,C,D,g,b,L,D,g,R,i,,,,,7,11,151,10,3,0,3,0,,,,,0,26,26,15,,,,,,up,0.5003927189118258,2878.0369382172557,None,001,60,2019_Oct_24_1201,ACPT_experiment_5_30_19,3.1.0,59.95338088102197,
,,,C,D,g,b,R,G,d,R,i,,,,,7,11,151,10,3,0,3,0,,,,,0,27,27,5,,,,,,up,0.4670261005649081,2879.821653391902,None,001,60,2019_Oct_24_1201,ACPT_experiment_5_30_19,3.1.0,59.95338088102197,
,,,C,D,g,b,R,D,y,L,y,,,,,7,11,151,10,3,0,3,0,,,,,0,28,28,26,,,,,,down,0.6138193589595176,2881.5930121993406,None,001,60,2019_Oct_24_1201,ACPT_experiment_5_30_19,3.1.0,59.95338088102197,
,,,C,D,g,b,L,D,y,L,y,,,,,7,11,151,10,3,0,3,0,,,,,0,29,29,32,,,,,,down,0.5337348866614775,2883.4911748423237,None,001,60,2019_Oct_24_1201,ACPT_experiment_5_30_19,3.1.0,59.95338088102197,
,,,C,D,g,b,R,U,y,L,u,,,,,7,11,151,10,3,0,3,0,,,,,0,30,30,30,,,,,,down,0.40030735311120225,2885.309231581001,None,001,60,2019_Oct_24_1201,ACPT_experiment_5_30_19,3.1.0,59.95338088102197,
,,,C,D,g,b,R,G,d,L,i,,,,,7,11,151,10,3,0,3,0,,,,,0,31,31,4,,,,,,up,0.416972097938924,2886.99389640552,None,001,60,2019_Oct_24_1201,ACPT_experiment_5_30_19,3.1.0,59.95338088102197,
,,,C,D,g,b,R,U,g,R,u,,,,,7,11,151,10,3,0,3,0,,,,,0,32,32,11,,,,,,up,0.43034265253299964,2888.7151903434024,None,001,60,2019_Oct_24_1201,ACPT_experiment_5_30_19,3.1.0,59.95338088102197,
,,,C,D,g,b,R,G,g,L,c ,,,,,7,11,151,10,3,0,3,0,,,,,0,33,33,6,,,,,,up,0.36693439571718045,2890.4298741669445,None,001,60,2019_Oct_24_1201,ACPT_experiment_5_30_19,3.1.0,59.95338088102197,
,,,C,D,g,b,L,G,d,R,i,,,,,7,11,151,10,3,0,3,0,,,,,0,34,34,17,,,,,,up,0.500390002178392,2892.081139470454,None,001,60,2019_Oct_24_1201,ACPT_experiment_5_30_19,3.1.0,59.95338088102197,
,,,C,D,g,b,R,U,g,L,u,,,,,7,11,151,10,3,0,3,0,,,,,0,35,35,10,,,,,,up,0.45036286503091105,2893.8658790957033,None,001,60,2019_Oct_24_1201,ACPT_experiment_5_30_19,3.1.0,59.95338088102197,
,,,C,D,g,b,L,D,g,L,i,,,,,7,11,151,10,3,0,3,0,,,,,1,0,36,14,,,,,,up,0.3833993097086932,2895.617462498514,None,001,60,2019_Oct_24_1201,ACPT_experiment_5_30_19,3.1.0,59.95338088102197,
,,,C,D,g,b,L,G,d,L,i,,,,,7,11,151,10,3,0,3,0,,,,,1,1,37,16,,,,,,up,0.4670508530252846,2897.2851444185326,None,001,60,2019_Oct_24_1201,ACPT_experiment_5_30_19,3.1.0,59.95338088102197,
,,,C,D,g,b,L,U,d,L,u,,,,,7,11,151,10,3,0,3,0,,,,,1,2,38,20,,,,,,up,0.6171597336633567,2899.0365029361856,None,001,60,2019_Oct_24_1201,ACPT_experiment_5_30_19,3.1.0,59.95338088102197,
,,,C,D,g,b,L,D,y,R,y,,,,,7,11,151,10,3,0,3,0,,,,,1,3,39,33,,,,,,down,0.5837747018995287,2900.9546776414663,None,001,60,2019_Oct_24_1201,ACPT_experiment_5_30_19,3.1.0,59.95338088102197,
,,,C,D,g,b,R,U,g,L,u,,,,,7,11,151,10,3,0,3,0,,,,,1,4,40,10,,,,,,down,0.43364740784454625,2902.856163755034,None,001,60,2019_Oct_24_1201,ACPT_experiment_5_30_19,3.1.0,59.95338088102197,
,,,C,D,g,b,R,D,g,L,i,,,,,7,11,151,10,3,0,3,0,,,,,1,5,41,2,,,,,,up,0.40034025577188004,2904.5741441836853,None,001,60,2019_Oct_24_1201,ACPT_experiment_5_30_19,3.1.0,59.95338088102197,
,,,C,D,g,b,R,D,d,L,c,,,,,7,11,151,10,3,0,3,0,,,,,1,6,42,0,,,,,,up,0.40032848325972736,2906.242108945842,None,001,60,2019_Oct_24_1201,ACPT_experiment_5_30_19,3.1.0,59.95338088102197,
,,,C,D,g,b,R,U,g,R,u,,,,,7,11,151,10,3,0,3,0,,,,,1,7,43,11,,,,,,up,0.7005426222276583,2907.9267432825745,None,001,60,2019_Oct_24_1201,ACPT_experiment_5_30_19,3.1.0,59.95338088102197,
,,,C,D,g,b,R,G,d,L,i,,,,,7,11,151,10,3,0,3,0,,,,,1,8,44,4,,,,,,up,0.48037914731867204,2909.931624950723,None,001,60,2019_Oct_24_1201,ACPT_experiment_5_30_19,3.1.0,59.95338088102197,
,,,C,D,g,b,R,G,y,L,y,,,,,7,11,151,10,3,0,3,0,,,,,1,9,45,28,,,,,,down,0.5171130058479321,2911.6962966697083,None,001,60,2019_Oct_24_1201,ACPT_experiment_5_30_19,3.1.0,59.95338088102197,
,,,C,D,g,b,L,U,g,R,u,,,,,7,11,151,10,3,0,3,0,,,,,1,10,46,23,,,,,,up,0.6004584638612869,2913.4977215662148,None,001,60,2019_Oct_24_1201,ACPT_experiment_5_30_19,3.1.0,59.95338088102197,
,,,C,D,g,b,R,G,y,R,y,,,,,7,11,151,10,3,0,3,0,,,,,1,11,47,29,,,,,,down,0.5170562563052954,2915.382515163901,None,001,60,2019_Oct_24_1201,ACPT_experiment_5_30_19,3.1.0,59.95338088102197,
,,,C,D,g,b,L,U,d,R,u,,,,,7,11,151,10,3,0,3,0,,,,,1,12,48,21,,,,,,up,0.4333881107286288,2917.2008625930557,None,001,60,2019_Oct_24_1201,ACPT_experiment_5_30_19,3.1.0,59.95338088102197,
,,,C,D,g,b,R,D,y,L,y,,,,,7,11,151,10,3,0,3,0,,,,,1,13,49,26,,,,,,down,0.5003851724304695,2918.9185788948453,None,001,60,2019_Oct_24_1201,ACPT_experiment_5_30_19,3.1.0,59.95338088102197,
,,,C,D,g,b,R,U,y,R,u,,,,,7,11,151,10,3,0,3,0,,,,,1,14,50,31,,,,,,down,0.5170683306769206,2920.703292560196,None,001,60,2019_Oct_24_1201,ACPT_experiment_5_30_19,3.1.0,59.95338088102197,
,,,C,D,g,b,L,D,g,R,i,,,,,7,11,151,10,3,0,3,0,,,,,1,15,51,15,,,,,,up,0.43366733055700024,2922.5046869689177,None,001,60,2019_Oct_24_1201,ACPT_experiment_5_30_19,3.1.0,59.95338088102197,
,,,C,D,g,b,R,G,g,L,c ,,,,,7,11,151,10,3,0,3,0,,,,,1,16,52,6,,,,,,up,0.4667508049078606,2924.2396421518715,None,001,60,2019_Oct_24_1201,ACPT_experiment_5_30_19,3.1.0,59.95338088102197,
,,,C,D,g,b,L,G,g,L,c ,,,,,7,11,151,10,3,0,3,0,,,,,1,17,53,18,,,,,,up,0.38362177999260894,2925.9907223552764,None,001,60,2019_Oct_24_1201,ACPT_experiment_5_30_19,3.1.0,59.95338088102197,
,,,C,D,g,b,L,U,y,R,u,,,,,7,11,151,10,3,0,3,0,,,,,1,18,54,25,,,,,,down,0.5337705060555891,2927.658657535223,None,001,60,2019_Oct_24_1201,ACPT_experiment_5_30_19,3.1.0,59.95338088102197,
,,,C,D,g,b,L,U,y,L,u,,,,,7,11,151,10,3,0,3,0,,,,,1,19,55,24,,,,,,down,0.5670375108456938,2929.4935057996227,None,001,60,2019_Oct_24_1201,ACPT_experiment_5_30_19,3.1.0,59.95338088102197,
,,,C,D,g,b,L,G,y,L,y,,,,,7,11,151,10,3,0,3,0,,,,,1,20,56,34,,,,,,down,0.48367695986598847,2931.3615745824845,None,001,60,2019_Oct_24_1201,ACPT_experiment_5_30_19,3.1.0,59.95338088102197,
,,,C,D,g,b,L,G,y,R,y,,,,,7,11,151,10,3,0,3,0,,,,,1,21,57,35,,,,,,down,0.5004020765500172,2933.146271947433,None,001,60,2019_Oct_24_1201,ACPT_experiment_5_30_19,3.1.0,59.95338088102197,
,,,C,D,g,b,R,G,g,R,c ,,,,,7,11,151,10,3,0,3,0,,,,,1,22,58,7,,,,,,up,0.483737029861004,2934.930975953288,None,001,60,2019_Oct_24_1201,ACPT_experiment_5_30_19,3.1.0,59.95338088102197,
,,,C,D,g,b,R,U,d,R,u,,,,,7,11,151,10,3,0,3,0,,,,,1,23,59,9,,,,,,up,0.4670245912675455,2936.6990127994377,None,001,60,2019_Oct_24_1201,ACPT_experiment_5_30_19,3.1.0,59.95338088102197,
,,,C,D,g,b,R,G,d,R,i,,,,,7,11,151,10,3,0,3,0,,,,,1,24,60,5,,,,,,up,0.43038159237949003,2938.470376436624,None,001,60,2019_Oct_24_1201,ACPT_experiment_5_30_19,3.1.0,59.95338088102197,
,,,C,D,g,b,L,G,d,R,i,,,,,7,11,151,10,3,0,3,0,,,,,1,25,61,17,,,,,,up,0.5671039198841754,2940.1850445634846,None,001,60,2019_Oct_24_1201,ACPT_experiment_5_30_19,3.1.0,59.95338088102197,
,,,C,D,g,b,R,U,d,L,u,,,,,7,11,151,10,3,0,3,0,,,,,1,26,62,8,,,,,,down,0.48370593835716136,2942.0364754669918,None,001,60,2019_Oct_24_1201,ACPT_experiment_5_30_19,3.1.0,59.95338088102197,
,,,C,D,g,b,L,G,g,R,c ,,,,,7,11,151,10,3,0,3,0,,,,,1,27,63,19,,,,,,up,0.400319729340481,2943.804512615001,None,001,60,2019_Oct_24_1201,ACPT_experiment_5_30_19,3.1.0,59.95338088102197,
,,,C,D,g,b,L,D,d,R,c ,,,,,7,11,151,10,3,0,3,0,,,,,1,28,64,13,,,,,,up,0.7336306244687876,2945.506099368451,None,001,60,2019_Oct_24_1201,ACPT_experiment_5_30_19,3.1.0,59.95338088102197,
,,,C,D,g,b,R,D,y,R,y,,,,,7,11,151,10,3,0,3,0,,,,,1,29,65,27,,,,,,down,0.5836267908562149,2947.5408910644237,None,001,60,2019_Oct_24_1201,ACPT_experiment_5_30_19,3.1.0,59.95338088102197,
,,,C,D,g,b,L,D,d,L,c ,,,,,7,11,151,10,3,0,3,0,,,,,1,30,66,12,,,,,,up,0.6838498044853623,2949.425537354784,None,001,60,2019_Oct_24_1201,ACPT_experiment_5_30_19,3.1.0,59.95338088102197,
,,,C,D,g,b,L,D,y,L,y,,,,,7,11,151,10,3,0,3,0,,,,,1,31,67,32,,,,,,down,0.5504497401288972,2951.3770180046995,None,001,60,2019_Oct_24_1201,ACPT_experiment_5_30_19,3.1.0,59.95338088102197,
,,,C,D,g,b,R,D,d,R,c ,,,,,7,11,151,10,3,0,3,0,,,,,1,32,68,1,,,,,,up,0.7338926383163198,2953.211799860059,None,001,60,2019_Oct_24_1201,ACPT_experiment_5_30_19,3.1.0,59.95338088102197,
,,,C,D,g,b,R,D,g,R,i,,,,,7,11,151,10,3,0,3,0,,,,,1,33,69,3,,,,,,up,0.5337702041961165,2955.213318815915,None,001,60,2019_Oct_24_1201,ACPT_experiment_5_30_19,3.1.0,59.95338088102197,
,,,C,D,g,b,R,U,y,L,u,,,,,7,11,151,10,3,0,3,0,,,,,1,34,70,30,,,,,,down,0.617012426338988,2957.048101576853,None,001,60,2019_Oct_24_1201,ACPT_experiment_5_30_19,3.1.0,59.95338088102197,
,,,C,D,g,b,L,U,g,L,u,,,,,7,11,151,10,3,0,3,0,,,,,1,35,71,22,,,,,,up,0.58379764320307,2958.9662270790723,None,001,60,2019_Oct_24_1201,ACPT_experiment_5_30_19,3.1.0,59.95338088102197,
,,,C,D,g,b,,,,,,,,,,7,11,151,10,4,0,4,0,0,0,0,0,,,,,,,,,,,,,,001,60,2019_Oct_24_1201,ACPT_experiment_5_30_19,3.1.0,59.95338088102197,
,,,C,D,g,b,L,U,y,L,u,,,,,7,11,151,10,4,0,4,0,,,,,0,0,0,24,,,,,,down,0.7836701378473663,2966.639123316154,None,001,60,2019_Oct_24_1201,ACPT_experiment_5_30_19,3.1.0,59.95338088102197,
,,,C,D,g,b,R,G,y,L,y,,,,,7,11,151,10,4,0,4,0,,,,,0,1,1,28,,,,,,down,0.6004726512492198,2968.7071210413433,None,001,60,2019_Oct_24_1201,ACPT_experiment_5_30_19,3.1.0,59.95338088102197,
,,,C,D,g,b,L,G,g,L,c ,,,,,7,11,151,10,4,0,4,0,,,,,0,2,2,18,,,,,,up,0.6004645010470995,2970.5919125260134,None,001,60,2019_Oct_24_1201,ACPT_experiment_5_30_19,3.1.0,59.95338088102197,
,,,C,D,g,b,R,U,d,R,u,,,,,7,11,151,10,4,0,4,0,,,,,0,3,3,9,,,,,,up,0.5671141830989654,2972.4766895214398,None,001,60,2019_Oct_24_1201,ACPT_experiment_5_30_19,3.1.0,59.95338088102197,
,,,C,D,g,b,R,D,d,R,c ,,,,,7,11,151,10,4,0,4,0,,,,,0,4,4,1,,,,,,up,0.41698296487265907,2974.3281385365026,None,001,60,2019_Oct_24_1201,ACPT_experiment_5_30_19,3.1.0,59.95338088102197,
,,,C,D,g,b,L,U,y,R,u,,,,,7,11,151,10,4,0,4,0,,,,,0,5,5,25,,,,,,down,0.46693554278317606,2976.029431279021,None,001,60,2019_Oct_24_1201,ACPT_experiment_5_30_19,3.1.0,59.95338088102197,
,,,C,D,g,b,R,G,d,L,i,,,,,7,11,151,10,4,0,4,0,,,,,0,6,6,4,,,,,,up,0.3836305339100363,2977.7808097193865,None,001,60,2019_Oct_24_1201,ACPT_experiment_5_30_19,3.1.0,59.95338088102197,
,,,C,D,g,b,L,D,y,L,y,,,,,7,11,151,10,4,0,4,0,,,,,0,7,7,32,,,,,,up,0.3969754304653179,2979.46877778992,None,001,60,2019_Oct_24_1201,ACPT_experiment_5_30_19,3.1.0,59.95338088102197,
,,,C,D,g,b,L,G,g,R,c ,,,,,7,11,151,10,4,0,4,0,,,,,0,8,8,19,,,,,,up,0.500409924892665,2981.1500632998905,None,001,60,2019_Oct_24_1201,ACPT_experiment_5_30_19,3.1.0,59.95338088102197,
,,,C,D,g,b,R,U,y,L,u,,,,,7,11,151,10,4,0,4,0,,,,,0,9,9,30,,,,,,down,0.533744848016795,2982.9348002084043,None,001,60,2019_Oct_24_1201,ACPT_experiment_5_30_19,3.1.0,59.95338088102197,
,,,C,D,g,b,L,U,g,R,u,,,,,7,11,151,10,4,0,4,0,,,,,0,10,10,23,,,,,,up,0.4837035234832001,2984.7528759642155,None,001,60,2019_Oct_24_1201,ACPT_experiment_5_30_19,3.1.0,59.95338088102197,
,,,C,D,g,b,L,D,d,R,c ,,,,,7,11,151,10,4,0,4,0,,,,,0,11,11,13,,,,,,up,0.48343215199747647,2986.537861604769,None,001,60,2019_Oct_24_1201,ACPT_experiment_5_30_19,3.1.0,59.95338088102197,
,,,C,D,g,b,L,G,y,R,y,,,,,7,11,151,10,4,0,4,0,,,,,0,12,12,35,,,,,,down,0.4670236856891279,2988.3056243626997,None,001,60,2019_Oct_24_1201,ACPT_experiment_5_30_19,3.1.0,59.95338088102197,
,,,C,D,g,b,R,U,y,R,u,,,,,7,11,151,10,4,0,4,0,,,,,0,13,13,31,,,,,,down,0.3836694737565267,2990.056980163621,None,001,60,2019_Oct_24_1201,ACPT_experiment_5_30_19,3.1.0,59.95338088102197,
,,,C,D,g,b,R,G,g,R,c ,,,,,7,11,151,10,4,0,4,0,,,,,0,14,14,7,,,,,,up,0.4169841723123682,2991.724937681154,None,001,60,2019_Oct_24_1201,ACPT_experiment_5_30_19,3.1.0,59.95338088102197,
,,,C,D,g,b,L,D,g,L,i,,,,,7,11,151,10,4,0,4,0,,,,,0,15,15,14,,,,,,up,0.6168986253924231,2993.44318193481,None,001,60,2019_Oct_24_1201,ACPT_experiment_5_30_19,3.1.0,59.95338088102197,
,,,C,D,g,b,L,G,y,L,y,,,,,7,11,151,10,4,0,4,0,,,,,0,16,16,34,,,,,,down,0.517062897210053,2995.344407845685,None,001,60,2019_Oct_24_1201,ACPT_experiment_5_30_19,3.1.0,59.95338088102197,
,,,C,D,g,b,R,D,g,L,i,,,,,7,11,151,10,4,0,4,0,,,,,0,17,17,2,,,,,,up,0.5170559544458229,2997.1458149324953,None,001,60,2019_Oct_24_1201,ACPT_experiment_5_30_19,3.1.0,59.95338088102197,
,,,C,D,g,b,L,G,d,L,i,,,,,7,11,151,10,4,0,4,0,,,,,0,18,18,16,,,,,,up,0.41701496195673826,2998.9471797590086,None,001,60,2019_Oct_24_1201,ACPT_experiment_5_30_19,3.1.0,59.95338088102197,
,,,C,D,g,b,L,U,d,L,u,,,,,7,11,151,10,4,0,4,0,,,,,0,19,19,20,,,,,,up,0.366669966995687,3000.665468989695,None,001,60,2019_Oct_24_1201,ACPT_experiment_5_30_19,3.1.0,59.95338088102197,
,,,C,D,g,b,L,G,d,R,i,,,,,7,11,151,10,4,0,4,0,,,,,0,20,20,17,,,,,,up,0.500434979210695,3002.3164701663427,None,001,60,2019_Oct_24_1201,ACPT_experiment_5_30_19,3.1.0,59.95338088102197,
,,,C,D,g,b,L,U,d,R,u,,,,,7,11,151,10,4,0,4,0,,,,,0,21,21,21,,,,,,up,0.4169841723105492,3004.0845088236492,None,001,60,2019_Oct_24_1201,ACPT_experiment_5_30_19,3.1.0,59.95338088102197,
,,,C,D,g,b,R,D,d,L,c,,,,,7,11,151,10,4,0,4,0,,,,,0,22,22,0,,,,,,up,0.5837831539574836,3005.7858229981757,None,001,60,2019_Oct_24_1201,ACPT_experiment_5_30_19,3.1.0,59.95338088102197,
,,,C,D,g,b,R,U,d,L,u,,,,,7,11,151,10,4,0,4,0,,,,,0,23,23,8,,,,,,up,0.7305721863249346,3007.6739388590086,None,001,60,2019_Oct_24_1201,ACPT_experiment_5_30_19,3.1.0,59.95338088102197,
,,,C,D,g,b,R,D,y,R,y,,,,,7,11,151,10,4,0,4,0,,,,,0,24,24,27,,,,,,down,0.4503471683492535,3009.6888452735784,None,001,60,2019_Oct_24_1201,ACPT_experiment_5_30_19,3.1.0,59.95338088102197,
,,,C,D,g,b,L,U,g,L,u,,,,,7,11,151,10,4,0,4,0,,,,,0,25,25,22,,,,,,up,0.43366551940016507,3011.4235206329868,None,001,60,2019_Oct_24_1201,ACPT_experiment_5_30_19,3.1.0,59.95338088102197,
,,,C,D,g,b,R,U,g,R,u,,,,,7,11,151,10,4,0,4,0,,,,,0,26,26,11,,,,,,up,0.43368936628212396,3013.1248118662097,None,001,60,2019_Oct_24_1201,ACPT_experiment_5_30_19,3.1.0,59.95338088102197,
,,,C,D,g,b,R,G,d,R,i,,,,,7,11,151,10,4,0,4,0,,,,,0,27,27,5,,,,,,up,0.4167103859508643,3014.859787575593,None,001,60,2019_Oct_24_1201,ACPT_experiment_5_30_19,3.1.0,59.95338088102197,
,,,C,D,g,b,R,G,y,R,y,,,,,7,11,151,10,4,0,4,0,,,,,0,28,28,29,,,,,,down,0.5504452122404473,3016.5441279013958,None,001,60,2019_Oct_24_1201,ACPT_experiment_5_30_19,3.1.0,59.95338088102197,
,,,C,D,g,b,L,D,d,L,c ,,,,,7,11,151,10,4,0,4,0,,,,,0,29,29,12,,,,,,up,0.45036588362381735,3018.378877457815,None,001,60,2019_Oct_24_1201,ACPT_experiment_5_30_19,3.1.0,59.95338088102197,
,,,C,D,g,b,R,U,g,L,u,,,,,7,11,151,10,4,0,4,0,,,,,0,30,30,10,,,,,,up,0.4503613557353674,3020.1135570432525,None,001,60,2019_Oct_24_1201,ACPT_experiment_5_30_19,3.1.0,59.95338088102197,
,,,C,D,g,b,R,D,y,L,y,,,,,7,11,151,10,4,0,4,0,,,,,0,31,31,26,,,,,,down,0.4834255110927188,3021.8652128922895,None,001,60,2019_Oct_24_1201,ACPT_experiment_5_30_19,3.1.0,59.95338088102197,
,,,C,D,g,b,L,D,g,R,i,,,,,7,11,151,10,4,0,4,0,,,,,0,32,32,15,,,,,,up,0.4169814555771154,3023.6329729334866,None,001,60,2019_Oct_24_1201,ACPT_experiment_5_30_19,3.1.0,59.95338088102197,
,,,C,D,g,b,L,D,y,R,y,,,,,7,11,151,10,4,0,4,0,,,,,0,33,33,33,,,,,,down,0.5003842668538709,3025.3342855987175,None,001,60,2019_Oct_24_1201,ACPT_experiment_5_30_19,3.1.0,59.95338088102197,
,,,C,D,g,b,R,D,g,R,i,,,,,7,11,151,10,4,0,4,0,,,,,0,34,34,3,,,,,,up,0.3669407347624656,3027.119008017986,None,001,60,2019_Oct_24_1201,ACPT_experiment_5_30_19,3.1.0,59.95338088102197,
,,,C,D,g,b,R,G,g,L,c ,,,,,7,11,151,10,4,0,4,0,,,,,0,35,35,6,,,,,,up,0.38334889921134163,3028.787238416302,None,001,60,2019_Oct_24_1201,ACPT_experiment_5_30_19,3.1.0,59.95338088102197,
,,,C,D,g,b,L,D,y,L,y,,,,,7,11,151,10,4,0,4,0,,,,,1,0,36,32,,,,,,down,0.5337415275662352,3030.454915808432,None,001,60,2019_Oct_24_1201,ACPT_experiment_5_30_19,3.1.0,59.95338088102197,
,,,C,D,g,b,L,U,g,R,u,,,,,7,11,151,10,4,0,4,0,,,,,1,1,37,23,,,,,,up,0.3836353636579588,3032.2729918661007,None,001,60,2019_Oct_24_1201,ACPT_experiment_5_30_19,3.1.0,59.95338088102197,
,,,C,D,g,b,R,D,d,L,c,,,,,7,11,151,10,4,0,4,0,,,,,1,2,38,0,,,,,,up,0.4503510925187584,3033.9409454594643,None,001,60,2019_Oct_24_1201,ACPT_experiment_5_30_19,3.1.0,59.95338088102197,
,,,C,D,g,b,L,U,d,R,u,,,,,7,11,151,10,4,0,4,0,,,,,1,3,39,21,,,,,,up,0.597130767248018,3035.6956358997613,None,001,60,2019_Oct_24_1201,ACPT_experiment_5_30_19,3.1.0,59.95338088102197,
,,,C,D,g,b,L,U,y,R,u,,,,,7,11,151,10,4,0,4,0,,,,,1,4,40,25,,,,,,down,0.7339261446959426,3037.5603950975637,None,001,60,2019_Oct_24_1201,ACPT_experiment_5_30_19,3.1.0,59.95338088102197,
,,,C,D,g,b,L,G,d,R,i,,,,,7,11,151,10,4,0,4,0,,,,,1,5,41,17,,,,,,up,0.633844703064824,3039.578620756689,None,001,60,2019_Oct_24_1201,ACPT_experiment_5_30_19,3.1.0,59.95338088102197,
,,,C,D,g,b,R,G,y,L,y,,,,,7,11,151,10,4,0,4,0,,,,,1,6,42,28,,,,,,down,0.5337997864044155,3041.496774633679,None,001,60,2019_Oct_24_1201,ACPT_experiment_5_30_19,3.1.0,59.95338088102197,
,,,C,D,g,b,L,U,g,L,u,,,,,7,11,151,10,4,0,4,0,,,,,1,7,43,22,,,,,,up,0.4503845988983812,3043.314873632653,None,001,60,2019_Oct_24_1201,ACPT_experiment_5_30_19,3.1.0,59.95338088102197,
,,,C,D,g,b,R,G,y,R,y,,,,,7,11,151,10,4,0,4,0,,,,,1,8,44,29,,,,,,down,0.6837218161545024,3045.06633085829,None,001,60,2019_Oct_24_1201,ACPT_experiment_5_30_19,3.1.0,59.95338088102197,
,,,C,D,g,b,L,G,y,R,y,,,,,7,11,151,10,4,0,4,0,,,,,1,9,45,35,,,,,,down,0.4169935299487406,3047.0510851538984,None,001,60,2019_Oct_24_1201,ACPT_experiment_5_30_19,3.1.0,59.95338088102197,
,,,C,D,g,b,R,U,d,R,u,,,,,7,11,151,10,4,0,4,0,,,,,1,10,46,9,,,,,,up,0.5971398230249179,3048.772420748359,None,001,60,2019_Oct_24_1201,ACPT_experiment_5_30_19,3.1.0,59.95338088102197,
,,,C,D,g,b,R,G,g,L,c ,,,,,7,11,151,10,4,0,4,0,,,,,1,11,47,6,,,,,,up,0.5504216672161419,3050.6538860457113,None,001,60,2019_Oct_24_1201,ACPT_experiment_5_30_19,3.1.0,59.95338088102197,
,,,C,D,g,b,R,G,d,R,i,,,,,7,11,151,10,4,0,4,0,,,,,1,12,48,5,,,,,,up,0.4503842970389087,3052.4719397657936,None,001,60,2019_Oct_24_1201,ACPT_experiment_5_30_19,3.1.0,59.95338088102197,
,,,C,D,g,b,L,D,d,L,c ,,,,,7,11,151,10,4,0,4,0,,,,,1,13,49,12,,,,,,up,0.4837183145864401,3054.206626293995,None,001,60,2019_Oct_24_1201,ACPT_experiment_5_30_19,3.1.0,59.95338088102197,
,,,C,D,g,b,R,D,g,L,i,,,,,7,11,151,10,4,0,4,0,,,,,1,14,50,2,,,,,,up,0.4500857582206663,3055.9916252163584,None,001,60,2019_Oct_24_1201,ACPT_experiment_5_30_19,3.1.0,59.95338088102197,
,,,C,D,g,b,R,D,g,R,i,,,,,7,11,151,10,4,0,4,0,,,,,1,15,51,3,,,,,,up,0.3670705342483416,3057.7092271134843,None,001,60,2019_Oct_24_1201,ACPT_experiment_5_30_19,3.1.0,59.95338088102197,
,,,C,D,g,b,L,G,y,L,y,,,,,7,11,151,10,4,0,4,0,,,,,1,16,52,34,,,,,,down,0.5170861403730669,3059.36062674437,None,001,60,2019_Oct_24_1201,ACPT_experiment_5_30_19,3.1.0,59.95338088102197,
,,,C,D,g,b,R,U,y,R,u,,,,,7,11,151,10,4,0,4,0,,,,,1,17,53,31,,,,,,down,0.5337424331428338,3061.1620202475133,None,001,60,2019_Oct_24_1201,ACPT_experiment_5_30_19,3.1.0,59.95338088102197,
,,,C,D,g,b,R,G,d,L,i,,,,,7,11,151,10,4,0,4,0,,,,,1,18,54,4,,,,,,up,0.4000380946399673,3062.9970429865716,None,001,60,2019_Oct_24_1201,ACPT_experiment_5_30_19,3.1.0,59.95338088102197,
,,,C,D,g,b,L,G,g,R,c ,,,,,7,11,151,10,4,0,4,0,,,,,1,19,55,19,,,,,,up,0.4503695059356687,3064.681410177851,None,001,60,2019_Oct_24_1201,ACPT_experiment_5_30_19,3.1.0,59.95338088102197,
,,,C,D,g,b,L,U,d,L,u,,,,,7,11,151,10,4,0,4,0,,,,,1,20,56,20,,,,,,up,0.4169896057774167,3066.4160888577117,None,001,60,2019_Oct_24_1201,ACPT_experiment_5_30_19,3.1.0,59.95338088102197,
,,,C,D,g,b,R,G,g,R,c ,,,,,7,11,151,10,4,0,4,0,,,,,1,21,57,7,,,,,,up,0.5837713814471499,3068.1174178233414,None,001,60,2019_Oct_24_1201,ACPT_experiment_5_30_19,3.1.0,59.95338088102197,
,,,C,D,g,b,L,D,y,R,y,,,,,7,11,151,10,4,0,4,0,,,,,1,22,58,33,,,,,,down,0.6669785879148549,3070.0190439996113,None,001,60,2019_Oct_24_1201,ACPT_experiment_5_30_19,3.1.0,59.95338088102197,
,,,C,D,g,b,R,U,g,R,u,,,,,7,11,151,10,4,0,4,0,,,,,1,23,59,11,,,,,,up,0.6004925739598548,3071.9870381628607,None,001,60,2019_Oct_24_1201,ACPT_experiment_5_30_19,3.1.0,59.95338088102197,
,,,C,D,g,b,L,D,d,R,c ,,,,,7,11,151,10,4,0,4,0,,,,,1,24,60,13,,,,,,up,0.450352601816121,3073.87184685351,None,001,60,2019_Oct_24_1201,ACPT_experiment_5_30_19,3.1.0,59.95338088102197,
,,,C,D,g,b,R,D,y,L,y,,,,,7,11,151,10,4,0,4,0,,,,,1,25,61,26,,,,,,down,0.5670948641054565,3075.606544248645,None,001,60,2019_Oct_24_1201,ACPT_experiment_5_30_19,3.1.0,59.95338088102197,
,,,C,D,g,b,L,G,g,L,c ,,,,,7,11,151,10,4,0,4,0,,,,,1,26,62,18,,,,,,up,0.6502296243488672,3077.4749209279653,None,001,60,2019_Oct_24_1201,ACPT_experiment_5_30_19,3.1.0,59.95338088102197,
,,,C,D,g,b,R,D,d,R,c ,,,,,7,11,151,10,4,0,4,0,,,,,1,27,63,1,,,,,,up,0.5504062723939569,3079.4094941381954,None,001,60,2019_Oct_24_1201,ACPT_experiment_5_30_19,3.1.0,59.95338088102197,
,,,C,D,g,b,L,G,d,L,i,,,,,7,11,151,10,4,0,4,0,,,,,1,28,64,16,,,,,,up,0.4336688398525439,3081.244234035117,None,001,60,2019_Oct_24_1201,ACPT_experiment_5_30_19,3.1.0,59.95338088102197,
,,,C,D,g,b,L,D,g,L,i,,,,,7,11,151,10,4,0,4,0,,,,,1,29,65,14,,,,,,up,0.36696246862993576,3082.9622099358803,None,001,60,2019_Oct_24_1201,ACPT_experiment_5_30_19,3.1.0,59.95338088102197,
,,,C,D,g,b,R,U,d,L,u,,,,,7,11,151,10,4,0,4,0,,,,,1,30,66,8,,,,,,up,0.7169673889347905,3084.6304575401737,None,001,60,2019_Oct_24_1201,ACPT_experiment_5_30_19,3.1.0,59.95338088102197,
,,,C,D,g,b,R,U,y,L,u,,,,,7,11,151,10,4,0,4,0,,,,,1,31,67,30,,,,,,down,0.5671135793800204,3086.615041889012,None,001,60,2019_Oct_24_1201,ACPT_experiment_5_30_19,3.1.0,59.95338088102197,
,,,C,D,g,b,L,U,y,L,u,,,,,7,11,151,10,4,0,4,0,,,,,1,32,68,24,,,,,,down,0.5837955301885813,3088.483146291268,None,001,60,2019_Oct_24_1201,ACPT_experiment_5_30_19,3.1.0,59.95338088102197,
,,,C,D,g,b,R,U,g,L,u,,,,,7,11,151,10,4,0,4,0,,,,,1,33,69,10,,,,,,up,0.5170511246960814,3090.367975810206,None,001,60,2019_Oct_24_1201,ACPT_experiment_5_30_19,3.1.0,59.95338088102197,
,,,C,D,g,b,R,D,y,R,y,,,,,7,11,151,10,4,0,4,0,,,,,1,34,70,27,,,,,,down,0.6671850596558215,3092.169348183201,None,001,60,2019_Oct_24_1201,ACPT_experiment_5_30_19,3.1.0,59.95338088102197,
,,,C,D,g,b,L,D,g,R,i,,,,,7,11,151,10,4,0,4,0,,,,,1,35,71,15,,,,,,up,0.517057765602658,3094.1208662636654,None,001,60,2019_Oct_24_1201,ACPT_experiment_5_30_19,3.1.0,59.95338088102197,
,,,C,D,g,b,,,,,,,,,,7,11,151,10,5,0,5,0,0,0,0,0,,,,,,,,,,,,,,001,60,2019_Oct_24_1201,ACPT_experiment_5_30_19,3.1.0,59.95338088102197,
,,,C,D,g,b,R,D,y,L,y,,,,,7,11,151,10,5,0,5,0,,,,,0,0,0,26,,,,,,down,0.6838452765969123,3098.907917527218,None,001,60,2019_Oct_24_1201,ACPT_experiment_5_30_19,3.1.0,59.95338088102197,
,,,C,D,g,b,R,G,g,L,c ,,,,,7,11,151,10,5,0,5,0,,,,,0,1,1,6,,,,,,up,0.4336628026667313,3100.892775058697,None,001,60,2019_Oct_24_1201,ACPT_experiment_5_30_19,3.1.0,59.95338088102197,
,,,C,D,g,b,L,D,g,R,i,,,,,7,11,151,10,5,0,5,0,,,,,0,2,2,15,,,,,,up,0.6004720475284557,3102.6107621282536,None,001,60,2019_Oct_24_1201,ACPT_experiment_5_30_19,3.1.0,59.95338088102197,
,,,C,D,g,b,L,G,y,R,y,,,,,7,11,151,10,5,0,5,0,,,,,0,3,3,35,,,,,,down,0.4837104662456113,3104.49555934825,None,001,60,2019_Oct_24_1201,ACPT_experiment_5_30_19,3.1.0,59.95338088102197,
,,,C,D,g,b,R,D,g,R,i,,,,,7,11,151,10,5,0,5,0,,,,,0,4,4,3,,,,,,up,0.46702821357939683,3106.263595892542,None,001,60,2019_Oct_24_1201,ACPT_experiment_5_30_19,3.1.0,59.95338088102197,
,,,C,D,g,b,R,U,y,L,u,,,,,7,11,151,10,5,0,5,0,,,,,0,5,5,30,,,,,,down,0.6338281008029298,3108.0149529008977,None,001,60,2019_Oct_24_1201,ACPT_experiment_5_30_19,3.1.0,59.95338088102197,
,,,C,D,g,b,L,U,d,R,u,,,,,7,11,151,10,5,0,5,0,,,,,0,6,6,21,,,,,,up,0.6171485648701491,3109.9331173429637,None,001,60,2019_Oct_24_1201,ACPT_experiment_5_30_19,3.1.0,59.95338088102197,
,,,C,D,g,b,L,G,d,R,i,,,,,7,11,151,10,5,0,5,0,,,,,0,7,7,17,,,,,,up,0.45007308013009606,3111.834846151385,None,001,60,2019_Oct_24_1201,ACPT_experiment_5_30_19,3.1.0,59.95338088102197,
,,,C,D,g,b,R,U,d,R,u,,,,,7,11,151,10,5,0,5,0,,,,,0,8,8,9,,,,,,up,0.5171000258997083,3113.5692271980042,None,001,60,2019_Oct_24_1201,ACPT_experiment_5_30_19,3.1.0,59.95338088102197,
,,,C,D,g,b,R,G,g,R,c ,,,,,7,11,151,10,5,0,5,0,,,,,0,9,9,7,,,,,,up,0.4670215726746392,3115.37064424617,None,001,60,2019_Oct_24_1201,ACPT_experiment_5_30_19,3.1.0,59.95338088102197,
,,,C,D,g,b,L,U,g,L,u,,,,,7,11,151,10,5,0,5,0,,,,,0,10,10,22,,,,,,up,0.5504234783729771,3117.121999141513,None,001,60,2019_Oct_24_1201,ACPT_experiment_5_30_19,3.1.0,59.95338088102197,
,,,C,D,g,b,R,D,d,L,c,,,,,7,11,151,10,5,0,5,0,,,,,0,11,11,0,,,,,,up,0.43346116067186813,3118.973603614102,None,001,60,2019_Oct_24_1201,ACPT_experiment_5_30_19,3.1.0,59.95338088102197,
,,,C,D,g,b,R,U,g,R,u,,,,,7,11,151,10,5,0,5,0,,,,,0,12,12,11,,,,,,up,0.5671159942558006,3120.6914306982435,None,001,60,2019_Oct_24_1201,ACPT_experiment_5_30_19,3.1.0,59.95338088102197,
,,,C,D,g,b,L,U,y,R,u,,,,,7,11,151,10,5,0,5,0,,,,,0,13,13,25,,,,,,down,0.5003881910233758,3122.542888165366,None,001,60,2019_Oct_24_1201,ACPT_experiment_5_30_19,3.1.0,59.95338088102197,
,,,C,D,g,b,L,D,d,L,c ,,,,,7,11,151,10,5,0,5,0,,,,,0,14,14,12,,,,,,up,0.4670188559430244,3124.327583417302,None,001,60,2019_Oct_24_1201,ACPT_experiment_5_30_19,3.1.0,59.95338088102197,
,,,C,D,g,b,R,D,g,L,i,,,,,7,11,151,10,5,0,5,0,,,,,0,15,15,2,,,,,,up,0.4335420589595742,3126.095626602497,None,001,60,2019_Oct_24_1201,ACPT_experiment_5_30_19,3.1.0,59.95338088102197,
,,,C,D,g,b,R,G,y,L,y,,,,,7,11,151,10,5,0,5,0,,,,,0,16,16,28,,,,,,down,0.5838202826489578,3127.8136088423034,None,001,60,2019_Oct_24_1201,ACPT_experiment_5_30_19,3.1.0,59.95338088102197,
,,,C,D,g,b,R,D,d,R,c ,,,,,7,11,151,10,5,0,5,0,,,,,0,17,17,1,,,,,,up,0.5671256537516456,3129.681700264611,None,001,60,2019_Oct_24_1201,ACPT_experiment_5_30_19,3.1.0,59.95338088102197,
,,,C,D,g,b,R,U,d,L,u,,,,,7,11,151,10,5,0,5,0,,,,,0,18,18,8,,,,,,down,0.5838540908880532,3131.533152901986,None,001,60,2019_Oct_24_1201,ACPT_experiment_5_30_19,3.1.0,59.95338088102197,
,,,C,D,g,b,R,G,y,R,y,,,,,7,11,151,10,5,0,5,0,,,,,0,19,19,29,,,,,,down,0.58349246348007,3133.4182414161787,None,001,60,2019_Oct_24_1201,ACPT_experiment_5_30_19,3.1.0,59.95338088102197,
,,,C,D,g,b,R,D,y,R,y,,,,,7,11,151,10,5,0,5,0,,,,,0,20,20,27,,,,,,down,0.6336122714237717,3135.3029094404083,None,001,60,2019_Oct_24_1201,ACPT_experiment_5_30_19,3.1.0,59.95338088102197,
,,,C,D,g,b,R,G,d,R,i,,,,,7,11,151,10,5,0,5,0,,,,,0,21,21,5,,,,,,up,0.5504207616395433,3137.254253046214,None,001,60,2019_Oct_24_1201,ACPT_experiment_5_30_19,3.1.0,59.95338088102197,
,,,C,D,g,b,L,D,y,R,y,,,,,7,11,151,10,5,0,5,0,,,,,0,22,22,33,,,,,,down,0.5004494684562815,3139.088979963186,None,001,60,2019_Oct_24_1201,ACPT_experiment_5_30_19,3.1.0,59.95338088102197,
,,,C,D,g,b,L,G,y,L,y,,,,,7,11,151,10,5,0,5,0,,,,,0,23,23,34,,,,,,up,0.6838585584046086,3140.873716267981,None,001,60,2019_Oct_24_1201,ACPT_experiment_5_30_19,3.1.0,59.95338088102197,
,,,C,D,g,b,L,U,y,L,u,,,,,7,11,151,10,5,0,5,0,,,,,0,24,24,24,,,,,,down,0.8006391568214895,3142.8419105639277,None,001,60,2019_Oct_24_1201,ACPT_experiment_5_30_19,3.1.0,59.95338088102197,
,,,C,D,g,b,L,G,g,R,c ,,,,,7,11,151,10,5,0,5,0,,,,,0,25,25,19,,,,,,up,0.617137697936414,3144.9268585928166,None,001,60,2019_Oct_24_1201,ACPT_experiment_5_30_19,3.1.0,59.95338088102197,
,,,C,D,g,b,L,D,d,R,c ,,,,,7,11,151,10,5,0,5,0,,,,,0,26,26,13,,,,,,up,0.4503453571924183,3146.828327500407,None,001,60,2019_Oct_24_1201,ACPT_experiment_5_30_19,3.1.0,59.95338088102197,
,,,C,D,g,b,L,D,g,L,i,,,,,7,11,151,10,5,0,5,0,,,,,0,27,27,14,,,,,,up,0.7171092627941107,3148.5630028598152,None,001,60,2019_Oct_24_1201,ACPT_experiment_5_30_19,3.1.0,59.95338088102197,
,,,C,D,g,b,R,U,y,R,u,,,,,7,11,151,10,5,0,5,0,,,,,0,28,28,31,,,,,,down,0.5504503438478423,3150.5645538127555,None,001,60,2019_Oct_24_1201,ACPT_experiment_5_30_19,3.1.0,59.95338088102197,
,,,C,D,g,b,R,G,d,L,i,,,,,7,11,151,10,5,0,5,0,,,,,0,29,29,4,,,,,,up,0.4500706652543158,3152.4162675583993,None,001,60,2019_Oct_24_1201,ACPT_experiment_5_30_19,3.1.0,59.95338088102197,
,,,C,D,g,b,R,U,g,L,u,,,,,7,11,151,10,5,0,5,0,,,,,0,30,30,10,,,,,,up,0.5504841520851187,3154.150664905419,None,001,60,2019_Oct_24_1201,ACPT_experiment_5_30_19,3.1.0,59.95338088102197,
,,,C,D,g,b,L,G,g,L,c ,,,,,7,11,151,10,5,0,5,0,,,,,0,31,31,18,,,,,,up,0.4837083532311226,3155.985414159977,None,001,60,2019_Oct_24_1201,ACPT_experiment_5_30_19,3.1.0,59.95338088102197,
,,,C,D,g,b,L,U,d,L,u,,,,,7,11,151,10,5,0,5,0,,,,,0,32,32,20,,,,,,up,0.5838145473226177,3157.753451609846,None,001,60,2019_Oct_24_1201,ACPT_experiment_5_30_19,3.1.0,59.95338088102197,
,,,C,D,g,b,L,D,y,L,y,,,,,7,11,151,10,5,0,5,0,,,,,0,33,33,32,,,,,,down,0.5500887164398591,3159.655219056256,None,001,60,2019_Oct_24_1201,ACPT_experiment_5_30_19,3.1.0,59.95338088102197,
,,,C,D,g,b,L,U,g,R,u,,,,,7,11,151,10,5,0,5,0,,,,,0,34,34,23,,,,,,up,0.5671084477744444,3161.5063565525506,None,001,60,2019_Oct_24_1201,ACPT_experiment_5_30_19,3.1.0,59.95338088102197,
