facing_vig,person_vig,text_vig,facing_train,person_train,food_train,correct_key_train,facing_exp,person_exp,food_exp,showL_R,consistent,vig_random.thisRepN,vig_random.thisTrialN,vig_random.thisN,vig_random.thisIndex,trainTrials.thisRepN,trainTrials.thisTrialN,trainTrials.thisN,trainTrials.thisIndex,expBlock.thisRepN,expBlock.thisTrialN,expBlock.thisN,expBlock.thisIndex,breakLoop.thisRepN,breakLoop.thisTrialN,breakLoop.thisN,breakLoop.thisIndex,expTrials.thisRepN,expTrials.thisTrialN,expTrials.thisN,expTrials.thisIndex,train_resp.keys,train_resp.corr,train_resp.rt,train_resp.started,train_resp.stopped,exp_resp.keys,exp_resp.rt,exp_resp.started,exp_resp.stopped,session,participant,date,expName,psychopyVersion,frameRate,
C,G,"cannot eat dairy products because she is lactose intolerant. She enjoys eating wheat products. She thinks eating insects, like crickets, is disgusting.",,,,,,,,,,0,0,0,0,,,,,,,,,,,,,,,,,,,,,,,,,,001,61,2019_Oct_24_1304,ACPT_experiment_5_30_19,3.1.0,59.95023453117353,
C,U,"did not report her food preferences, so her food preferences are unknown.",,,,,,,,,,0,1,1,2,,,,,,,,,,,,,,,,,,,,,,,,,,001,61,2019_Oct_24_1304,ACPT_experiment_5_30_19,3.1.0,59.95023453117353,
C,D,"is allergic to gluten, meaning she can’t eat wheat products. She enjoys eating dairy products. She thinks eating insects, like crickets, is disgusting.",,,,,,,,,,0,2,2,1,,,,,,,,,,,,,,,,,,,,,,,,,,001,61,2019_Oct_24_1304,ACPT_experiment_5_30_19,3.1.0,59.95023453117353,
,,,C,D,y,b,,,,,,,,,,0,0,0,2,,,,,,,,,,,,,n,0,1.584582175451942,1522.022925004272,None,,,,,001,61,2019_Oct_24_1304,ACPT_experiment_5_30_19,3.1.0,59.95023453117353,
,,,C,D,g,b,,,,,,,,,,0,1,1,1,,,,,,,,,,,,,v,0,1.2343239952169824,1526.8766744888471,None,,,,,001,61,2019_Oct_24_1304,ACPT_experiment_5_30_19,3.1.0,59.95023453117353,
,,,C,D,d,v,,,,,,,,,,0,2,2,0,,,,,,,,,,,,,v,1,1.0005210091021581,1531.413814348096,None,,,,,001,61,2019_Oct_24_1304,ACPT_experiment_5_30_19,3.1.0,59.95023453117353,
,,,C,U,y,n,,,,,,,,,,0,3,3,8,,,,,,,,,,,,,b,0,1.7680501279592136,1535.7168816609028,None,,,,,001,61,2019_Oct_24_1304,ACPT_experiment_5_30_19,3.1.0,59.95023453117353,
,,,C,G,g,v,,,,,,,,,,0,4,4,19,,,,,,,,,,,,,v,1,1.6179397380219598,1540.770797047333,None,,,,,001,61,2019_Oct_24_1304,ACPT_experiment_5_30_19,3.1.0,59.95023453117353,
,,,C,G,d,b,,,,,,,,,,0,5,5,12,,,,,,,,,,,,,v,0,1.1342283661997499,1545.6579140558351,None,,,,,001,61,2019_Oct_24_1304,ACPT_experiment_5_30_19,3.1.0,59.95023453117353,
,,,C,G,g,v,,,,,,,,,,0,6,6,13,,,,,,,,,,,,,v,1,1.5676596428038465,1550.078278750134,None,,,,,001,61,2019_Oct_24_1304,ACPT_experiment_5_30_19,3.1.0,59.95023453117353,
,,,C,G,y,b,,,,,,,,,,0,7,7,14,,,,,,,,,,,,,b,1,1.2676492588452675,1554.9484545107134,None,,,,,001,61,2019_Oct_24_1304,ACPT_experiment_5_30_19,3.1.0,59.95023453117353,
,,,C,G,g,v,,,,,,,,,,0,8,8,4,,,,,,,,,,,,,b,0,1.21719257595214,1559.5190500367971,None,,,,,001,61,2019_Oct_24_1304,ACPT_experiment_5_30_19,3.1.0,59.95023453117353,
,,,C,D,y,b,,,,,,,,,,0,9,9,11,,,,,,,,,,,,,b,1,1.2676423160828563,1564.0221603947357,None,,,,,001,61,2019_Oct_24_1304,ACPT_experiment_5_30_19,3.1.0,59.95023453117353,
,,,C,D,g,b,,,,,,,,,,0,10,10,10,,,,,,,,,,,,,b,1,1.9179250676606898,1568.5926083116337,None,,,,,001,61,2019_Oct_24_1304,ACPT_experiment_5_30_19,3.1.0,59.95023453117353,
,,,C,U,d,n,,,,,,,,,,0,11,11,6,,,,,,,,,,,,,b,0,1.9682232744380599,1573.7963901857092,None,,,,,001,61,2019_Oct_24_1304,ACPT_experiment_5_30_19,3.1.0,59.95023453117353,
,,,C,D,d,v,,,,,,,,,,0,12,12,9,,,,,,,,,,,,,v,1,2.251750934707161,1579.0504690591224,None,,,,,001,61,2019_Oct_24_1304,ACPT_experiment_5_30_19,3.1.0,59.95023453117353,
,,,C,U,y,n,,,,,,,,,,0,13,13,17,,,,,,,,,,,,,n,1,1.134218706702086,1584.5880891764737,None,,,,,001,61,2019_Oct_24_1304,ACPT_experiment_5_30_19,3.1.0,59.95023453117353,
,,,C,U,g,n,,,,,,,,,,0,14,14,16,,,,,,,,,,,,,n,1,1.5679029413786338,1589.008192460642,None,,,,,001,61,2019_Oct_24_1304,ACPT_experiment_5_30_19,3.1.0,59.95023453117353,
,,,C,G,d,b,,,,,,,,,,0,15,15,3,,,,,,,,,,,,,b,1,1.7680365442902257,1593.8619534158697,None,,,,,001,61,2019_Oct_24_1304,ACPT_experiment_5_30_19,3.1.0,59.95023453117353,
,,,C,U,d,n,,,,,,,,,,0,16,16,15,,,,,,,,,,,,,n,1,1.5512185756961117,1598.9158537093372,None,,,,,001,61,2019_Oct_24_1304,ACPT_experiment_5_30_19,3.1.0,59.95023453117353,
,,,C,U,g,n,,,,,,,,,,0,17,17,7,,,,,,,,,,,,,n,1,1.7013283619126014,1603.7362598187283,None,,,,,001,61,2019_Oct_24_1304,ACPT_experiment_5_30_19,3.1.0,59.95023453117353,
,,,C,D,d,v,,,,,,,,,,0,18,18,18,,,,,,,,,,,,,v,1,1.2343327491362288,1608.7234295922299,None,,,,,001,61,2019_Oct_24_1304,ACPT_experiment_5_30_19,3.1.0,59.95023453117353,
,,,C,G,y,b,,,,,,,,,,0,19,19,5,,,,,,,,,,,,,b,1,1.3841753898959723,1613.2605492269086,None,,,,,001,61,2019_Oct_24_1304,ACPT_experiment_5_30_19,3.1.0,59.95023453117353,
,,,C,G,y,b,,,,,,,,,,1,0,20,5,,,,,,,,,,,,,b,1,2.58537757463273,1617.930594101308,None,,,,,001,61,2019_Oct_24_1304,ACPT_experiment_5_30_19,3.1.0,59.95023453117353,
,,,C,D,d,v,,,,,,,,,,1,1,21,0,,,,,,,,,,,,,v,1,1.234293507430266,1623.8018091633603,None,,,,,001,61,2019_Oct_24_1304,ACPT_experiment_5_30_19,3.1.0,59.95023453117353,
,,,C,U,y,n,,,,,,,,,,1,2,22,8,,,,,,,,,,,,,n,1,0.8506726330160745,1628.3219803054944,None,,,,,001,61,2019_Oct_24_1304,ACPT_experiment_5_30_19,3.1.0,59.95023453117353,
,,,C,G,d,b,,,,,,,,,,1,3,23,12,,,,,,,,,,,,,b,1,1.6179406436003774,1632.4585021984403,None,,,,,001,61,2019_Oct_24_1304,ACPT_experiment_5_30_19,3.1.0,59.95023453117353,
,,,C,G,g,v,,,,,,,,,,1,4,24,4,,,,,,,,,,,,,v,1,1.2509805898444029,1637.345634903626,None,,,,,001,61,2019_Oct_24_1304,ACPT_experiment_5_30_19,3.1.0,59.95023453117353,
,,,C,D,y,b,,,,,,,,,,1,5,25,11,,,,,,,,,,,,,n,0,1.0005490820167324,1641.8994017752939,None,,,,,001,61,2019_Oct_24_1304,ACPT_experiment_5_30_19,3.1.0,59.95023453117353,
,,,C,G,d,b,,,,,,,,,,1,6,26,3,,,,,,,,,,,,,b,1,1.56791048785999,1646.185815813924,None,,,,,001,61,2019_Oct_24_1304,ACPT_experiment_5_30_19,3.1.0,59.95023453117353,
,,,C,U,d,n,,,,,,,,,,1,7,27,6,,,,,,,,,,,,,n,1,1.5011763455840992,1651.039581900759,None,,,,,001,61,2019_Oct_24_1304,ACPT_experiment_5_30_19,3.1.0,59.95023453117353,
,,,C,D,d,v,,,,,,,,,,1,8,28,9,,,,,,,,,,,,,v,1,3.6862320778600406,1655.8099183108443,None,,,,,001,61,2019_Oct_24_1304,ACPT_experiment_5_30_19,3.1.0,59.95023453117353,
,,,C,D,g,b,,,,,,,,,,1,9,29,10,,,,,,,,,,,,,b,1,1.0341487357236474,1662.765329772199,None,,,,,001,61,2019_Oct_24_1304,ACPT_experiment_5_30_19,3.1.0,59.95023453117353,
,,,C,D,d,v,,,,,,,,,,1,10,30,18,,,,,,,,,,,,,v,1,1.0141312399591698,1667.1053561305507,None,,,,,001,61,2019_Oct_24_1304,ACPT_experiment_5_30_19,3.1.0,59.95023453117353,
,,,C,U,d,n,,,,,,,,,,1,11,31,15,,,,,,,,,,,,,n,1,0.7339080331403238,1671.4053586661685,None,,,,,001,61,2019_Oct_24_1304,ACPT_experiment_5_30_19,3.1.0,59.95023453117353,
,,,C,G,y,b,,,,,,,,,,1,12,32,14,,,,,,,,,,,,,n,0,1.500895012741239,1675.4420958451483,None,,,,,001,61,2019_Oct_24_1304,ACPT_experiment_5_30_19,3.1.0,59.95023453117353,
,,,C,G,g,v,,,,,,,,,,1,13,33,19,,,,,,,,,,,,,v,1,1.0007863434038882,1680.2121808064585,None,,,,,001,61,2019_Oct_24_1304,ACPT_experiment_5_30_19,3.1.0,59.95023453117353,
,,,C,U,g,n,,,,,,,,,,1,14,34,16,,,,,,,,,,,,,n,1,0.9336286925681634,1684.515927604487,None,,,,,001,61,2019_Oct_24_1304,ACPT_experiment_5_30_19,3.1.0,59.95023453117353,
,,,C,D,g,b,,,,,,,,,,1,15,35,1,,,,,,,,,,,,,b,1,1.334539160505301,1688.7354550619075,None,,,,,001,61,2019_Oct_24_1304,ACPT_experiment_5_30_19,3.1.0,59.95023453117353,
,,,C,G,g,v,,,,,,,,,,1,16,36,13,,,,,,,,,,,,,v,1,0.8837965565107879,1693.372623537416,None,,,,,001,61,2019_Oct_24_1304,ACPT_experiment_5_30_19,3.1.0,59.95023453117353,
,,,C,U,y,n,,,,,,,,,,1,17,37,17,,,,,,,,,,,,,n,1,0.717222761879384,1697.5422772021993,None,,,,,001,61,2019_Oct_24_1304,ACPT_experiment_5_30_19,3.1.0,59.95023453117353,
,,,C,D,y,b,,,,,,,,,,1,18,38,2,,,,,,,,,,,,,v,0,1.8845973891584435,1701.5622249684711,None,,,,,001,61,2019_Oct_24_1304,ACPT_experiment_5_30_19,3.1.0,59.95023453117353,
,,,C,U,g,n,,,,,,,,,,1,19,39,7,,,,,,,,,,,,,b,0,1.117541283783794,1706.732725348511,None,,,,,001,61,2019_Oct_24_1304,ACPT_experiment_5_30_19,3.1.0,59.95023453117353,
,,,C,U,g,n,,,,,,,,,,2,0,40,16,,,,,,,,,,,,,n,1,1.1673030866331828,1711.136412318032,None,,,,,001,61,2019_Oct_24_1304,ACPT_experiment_5_30_19,3.1.0,59.95023453117353,
,,,C,G,d,b,,,,,,,,,,2,1,41,3,,,,,,,,,,,,,b,1,0.984137295256005,1715.5895613441426,None,,,,,001,61,2019_Oct_24_1304,ACPT_experiment_5_30_19,3.1.0,59.95023453117353,
,,,C,D,y,b,,,,,,,,,,2,2,42,2,,,,,,,,,,,,,n,0,0.9838638107557927,1719.8764831100689,None,,,,,001,61,2019_Oct_24_1304,ACPT_experiment_5_30_19,3.1.0,59.95023453117353,
,,,C,G,g,v,,,,,,,,,,2,3,43,13,,,,,,,,,,,,,v,1,0.8339888710524974,1724.1462164053264,None,,,,,001,61,2019_Oct_24_1304,ACPT_experiment_5_30_19,3.1.0,59.95023453117353,
,,,C,U,d,n,,,,,,,,,,2,4,44,15,,,,,,,,,,,,,n,1,0.9505536400902201,1728.282920319416,None,,,,,001,61,2019_Oct_24_1304,ACPT_experiment_5_30_19,3.1.0,59.95023453117353,
,,,C,D,d,v,,,,,,,,,,2,5,45,9,,,,,,,,,,,,,v,1,2.185036715143724,1732.5193669890323,None,,,,,001,61,2019_Oct_24_1304,ACPT_experiment_5_30_19,3.1.0,59.95023453117353,
,,,C,U,y,n,,,,,,,,,,2,6,46,17,,,,,,,,,,,,,n,1,0.9841068074692885,1737.9902722831011,None,,,,,001,61,2019_Oct_24_1304,ACPT_experiment_5_30_19,3.1.0,59.95023453117353,
,,,C,U,g,n,,,,,,,,,,2,7,47,7,,,,,,,,,,,,,n,1,1.2310110897051345,1742.2802494685766,None,,,,,001,61,2019_Oct_24_1304,ACPT_experiment_5_30_19,3.1.0,59.95023453117353,
,,,C,G,y,b,,,,,,,,,,2,8,48,5,,,,,,,,,,,,,v,0,2.0349196843035315,1746.797098649422,None,,,,,001,61,2019_Oct_24_1304,ACPT_experiment_5_30_19,3.1.0,59.95023453117353,
,,,C,D,y,b,,,,,,,,,,2,9,49,11,,,,,,,,,,,,,v,0,1.267684878239379,1752.1178829884793,None,,,,,001,61,2019_Oct_24_1304,ACPT_experiment_5_30_19,3.1.0,59.95023453117353,
,,,C,D,d,v,,,,,,,,,,2,10,50,18,,,,,,,,,,,,,v,1,1.0005472708598973,1756.6883290942224,None,,,,,001,61,2019_Oct_24_1304,ACPT_experiment_5_30_19,3.1.0,59.95023453117353,
,,,C,G,y,b,,,,,,,,,,2,11,51,14,,,,,,,,,,,,,b,1,1.4845239769838372,1760.9747491700382,None,,,,,001,61,2019_Oct_24_1304,ACPT_experiment_5_30_19,3.1.0,59.95023453117353,
,,,C,G,g,v,,,,,,,,,,2,12,52,19,,,,,,,,,,,,,v,1,0.9007082222233294,1765.7284223445895,None,,,,,001,61,2019_Oct_24_1304,ACPT_experiment_5_30_19,3.1.0,59.95023453117353,
,,,C,G,g,v,,,,,,,,,,2,13,53,4,,,,,,,,,,,,,v,1,1.7844610091397044,1769.9152674986308,None,,,,,001,61,2019_Oct_24_1304,ACPT_experiment_5_30_19,3.1.0,59.95023453117353,
,,,C,U,y,n,,,,,,,,,,2,14,54,8,,,,,,,,,,,,,n,1,1.1509015630872454,1774.9855928606667,None,,,,,001,61,2019_Oct_24_1304,ACPT_experiment_5_30_19,3.1.0,59.95023453117353,
,,,C,D,g,b,,,,,,,,,,2,15,55,10,,,,,,,,,,,,,b,1,2.7517189376249007,1779.439452161645,None,,,,,001,61,2019_Oct_24_1304,ACPT_experiment_5_30_19,3.1.0,59.95023453117353,
,,,C,D,g,b,,,,,,,,,,2,16,56,1,,,,,,,,,,,,,b,1,1.000789060137322,1785.4603679906013,None,,,,,001,61,2019_Oct_24_1304,ACPT_experiment_5_30_19,3.1.0,59.95023453117353,
,,,C,G,d,b,,,,,,,,,,2,17,57,12,,,,,,,,,,,,,b,1,1.1341015853049612,1789.7638307390534,None,,,,,001,61,2019_Oct_24_1304,ACPT_experiment_5_30_19,3.1.0,59.95023453117353,
,,,C,U,d,n,,,,,,,,,,2,18,58,6,,,,,,,,,,,,,n,1,1.834758310336838,1794.183798790269,None,,,,,001,61,2019_Oct_24_1304,ACPT_experiment_5_30_19,3.1.0,59.95023453117353,
,,,C,D,d,v,,,,,,,,,,2,19,59,0,,,,,,,,,,,,,v,1,2.1516707005121134,1799.3044422817911,None,,,,,001,61,2019_Oct_24_1304,ACPT_experiment_5_30_19,3.1.0,59.95023453117353,
,,,C,U,g,n,,,,,,,,,,3,0,60,16,,,,,,,,,,,,,n,1,1.0007830229515093,1804.7419767314805,None,,,,,001,61,2019_Oct_24_1304,ACPT_experiment_5_30_19,3.1.0,59.95023453117353,
,,,C,U,d,n,,,,,,,,,,3,1,61,6,,,,,,,,,,,,,n,1,0.9174010399656254,1809.0119346100364,None,,,,,001,61,2019_Oct_24_1304,ACPT_experiment_5_30_19,3.1.0,59.95023453117353,
,,,C,G,y,b,,,,,,,,,,3,2,62,14,,,,,,,,,,,,,b,1,1.2509600634130038,1813.2152012103343,None,,,,,001,61,2019_Oct_24_1304,ACPT_experiment_5_30_19,3.1.0,59.95023453117353,
,,,C,U,y,n,,,,,,,,,,3,3,63,17,,,,,,,,,,,,,n,1,0.7670337677900534,1817.768967478285,None,,,,,001,61,2019_Oct_24_1304,ACPT_experiment_5_30_19,3.1.0,59.95023453117353,
,,,C,G,g,v,,,,,,,,,,3,4,64,4,,,,,,,,,,,,,v,1,1.1842856892744749,1821.821862278519,None,,,,,001,61,2019_Oct_24_1304,ACPT_experiment_5_30_19,3.1.0,59.95023453117353,
,,,C,U,g,n,,,,,,,,,,3,5,65,7,,,,,,,,,,,,,n,1,0.8837497683234687,1826.308951455596,None,,,,,001,61,2019_Oct_24_1304,ACPT_experiment_5_30_19,3.1.0,59.95023453117353,
,,,C,D,d,v,,,,,,,,,,3,6,66,0,,,,,,,,,,,,,v,1,1.2843351338233333,1830.478571915859,None,,,,,001,61,2019_Oct_24_1304,ACPT_experiment_5_30_19,3.1.0,59.95023453117353,
,,,C,D,d,v,,,,,,,,,,3,7,67,9,,,,,,,,,,,,,v,1,0.6838661048877839,1835.0487792509175,None,,,,,001,61,2019_Oct_24_1304,ACPT_experiment_5_30_19,3.1.0,59.95023453117353,
,,,C,U,d,n,,,,,,,,,,3,8,68,15,,,,,,,,,,,,,n,1,0.8673440187485539,1839.0185184626189,None,,,,,001,61,2019_Oct_24_1304,ACPT_experiment_5_30_19,3.1.0,59.95023453117353,
,,,C,G,d,b,,,,,,,,,,3,9,69,3,,,,,,,,,,,,,b,1,1.0672678294686193,1843.1886551022362,None,,,,,001,61,2019_Oct_24_1304,ACPT_experiment_5_30_19,3.1.0,59.95023453117353,
,,,C,G,d,b,,,,,,,,,,3,10,70,12,,,,,,,,,,,,,b,1,1.8347688754111005,1847.5417833604297,None,,,,,001,61,2019_Oct_24_1304,ACPT_experiment_5_30_19,3.1.0,59.95023453117353,
,,,C,D,g,b,,,,,,,,,,3,11,71,10,,,,,,,,,,,,,v,0,0.800624667577722,1852.6624217203444,None,,,,,001,61,2019_Oct_24_1304,ACPT_experiment_5_30_19,3.1.0,59.95023453117353,
,,,C,U,y,n,,,,,,,,,,3,12,72,8,,,,,,,,,,,,,n,1,0.667169362974164,1856.765614727352,None,,,,,001,61,2019_Oct_24_1304,ACPT_experiment_5_30_19,3.1.0,59.95023453117353,
,,,C,G,y,b,,,,,,,,,,3,13,73,5,,,,,,,,,,,,,n,0,0.7005471501161082,1860.7186584045776,None,,,,,001,61,2019_Oct_24_1304,ACPT_experiment_5_30_19,3.1.0,59.95023453117353,
,,,C,G,g,v,,,,,,,,,,3,14,74,19,,,,,,,,,,,,,v,1,1.2673872449959163,1864.705351240431,None,,,,,001,61,2019_Oct_24_1304,ACPT_experiment_5_30_19,3.1.0,59.95023453117353,
,,,C,G,g,v,,,,,,,,,,3,15,75,13,,,,,,,,,,,,,v,1,0.7338992792210774,1869.241932961886,None,,,,,001,61,2019_Oct_24_1304,ACPT_experiment_5_30_19,3.1.0,59.95023453117353,
,,,C,D,y,b,,,,,,,,,,3,16,76,11,,,,,,,,,,,,,b,1,1.33414010254819,1873.278627276848,None,,,,,001,61,2019_Oct_24_1304,ACPT_experiment_5_30_19,3.1.0,59.95023453117353,
,,,C,D,g,b,,,,,,,,,,3,17,77,1,,,,,,,,,,,,,v,0,1.1175337373024377,1877.8986269025427,None,,,,,001,61,2019_Oct_24_1304,ACPT_experiment_5_30_19,3.1.0,59.95023453117353,
,,,C,D,d,v,,,,,,,,,,3,18,78,18,,,,,,,,,,,,,v,1,0.8840126877494185,1882.285370812986,None,,,,,001,61,2019_Oct_24_1304,ACPT_experiment_5_30_19,3.1.0,59.95023453117353,
,,,C,D,y,b,,,,,,,,,,3,19,79,2,,,,,,,,,,,,,n,0,0.9841294469151762,1886.4385532247325,None,,,,,001,61,2019_Oct_24_1304,ACPT_experiment_5_30_19,3.1.0,59.95023453117353,
,,,C,D,g,b,,,,,,,,,,4,0,80,10,,,,,,,,,,,,,b,1,0.9640917265805911,1890.7285584831207,None,,,,,001,61,2019_Oct_24_1304,ACPT_experiment_5_30_19,3.1.0,59.95023453117353,
,,,C,U,d,n,,,,,,,,,,4,1,81,15,,,,,,,,,,,,,n,1,1.1508994500727567,1894.9785221090788,None,,,,,001,61,2019_Oct_24_1304,ACPT_experiment_5_30_19,3.1.0,59.95023453117353,
,,,C,U,g,n,,,,,,,,,,4,2,82,7,,,,,,,,,,,,,n,1,1.1005970172682282,1899.4155578872505,None,,,,,001,61,2019_Oct_24_1304,ACPT_experiment_5_30_19,3.1.0,59.95023453117353,
,,,C,G,d,b,,,,,,,,,,4,3,83,3,,,,,,,,,,,,,b,1,2.818865419665599,1903.8020195592726,None,,,,,001,61,2019_Oct_24_1304,ACPT_experiment_5_30_19,3.1.0,59.95023453117353,
,,,C,D,d,v,,,,,,,,,,4,4,84,18,,,,,,,,,,,,,v,1,0.884077285632884,1909.9067236737956,None,,,,,001,61,2019_Oct_24_1304,ACPT_experiment_5_30_19,3.1.0,59.95023453117353,
,,,C,G,g,v,,,,,,,,,,4,5,85,4,,,,,,,,,,,,,v,1,0.8670789863081154,1914.0936083714023,None,,,,,001,61,2019_Oct_24_1304,ACPT_experiment_5_30_19,3.1.0,59.95023453117353,
,,,C,D,d,v,,,,,,,,,,4,6,86,0,,,,,,,,,,,,,v,1,1.3343782695119444,1918.246539032516,None,,,,,001,61,2019_Oct_24_1304,ACPT_experiment_5_30_19,3.1.0,59.95023453117353,
,,,C,G,y,b,,,,,,,,,,4,7,87,5,,,,,,,,,,,,,b,1,1.2340245508185035,1922.8837373920924,None,,,,,001,61,2019_Oct_24_1304,ACPT_experiment_5_30_19,3.1.0,59.95023453117353,
,,,C,G,y,b,,,,,,,,,,4,8,88,14,,,,,,,,,,,,,b,1,0.7340622832271038,1927.3867949246596,None,,,,,001,61,2019_Oct_24_1304,ACPT_experiment_5_30_19,3.1.0,59.95023453117353,
,,,C,G,g,v,,,,,,,,,,4,9,89,19,,,,,,,,,,,,,v,1,0.7169595405939617,1931.4069956490002,None,,,,,001,61,2019_Oct_24_1304,ACPT_experiment_5_30_19,3.1.0,59.95023453117353,
,,,C,G,g,v,,,,,,,,,,4,10,90,13,,,,,,,,,,,,,v,1,0.6171591299444117,1935.3931415158531,None,,,,,001,61,2019_Oct_24_1304,ACPT_experiment_5_30_19,3.1.0,59.95023453117353,
,,,C,U,y,n,,,,,,,,,,4,11,91,17,,,,,,,,,,,,,n,1,0.7503337054240546,1939.313105944757,None,,,,,001,61,2019_Oct_24_1304,ACPT_experiment_5_30_19,3.1.0,59.95023453117353,
,,,C,G,d,b,,,,,,,,,,4,12,92,12,,,,,,,,,,,,,b,1,1.2843852424630313,1943.34930702167,None,,,,,001,61,2019_Oct_24_1304,ACPT_experiment_5_30_19,3.1.0,59.95023453117353,
,,,C,D,d,v,,,,,,,,,,4,13,93,9,,,,,,,,,,,,,v,1,0.8340030584367923,1947.919499867483,None,,,,,001,61,2019_Oct_24_1304,ACPT_experiment_5_30_19,3.1.0,59.95023453117353,
,,,C,U,y,n,,,,,,,,,,4,14,94,8,,,,,,,,,,,,,n,1,0.817311749991859,1952.0393669769583,None,,,,,001,61,2019_Oct_24_1304,ACPT_experiment_5_30_19,3.1.0,59.95023453117353,
,,,C,U,d,n,,,,,,,,,,4,15,95,6,,,,,,,,,,,,,n,1,1.0674915071904252,1956.1258783350168,None,,,,,001,61,2019_Oct_24_1304,ACPT_experiment_5_30_19,3.1.0,59.95023453117353,
,,,C,U,g,n,,,,,,,,,,4,16,96,16,,,,,,,,,,,,,n,1,0.9340570308759197,1960.4625613000717,None,,,,,001,61,2019_Oct_24_1304,ACPT_experiment_5_30_19,3.1.0,59.95023453117353,
,,,C,D,g,b,,,,,,,,,,4,17,97,1,,,,,,,,,,,,,b,1,1.1839877541733586,1964.6994447600555,None,,,,,001,61,2019_Oct_24_1304,ACPT_experiment_5_30_19,3.1.0,59.95023453117353,
,,,C,D,y,b,,,,,,,,,,4,18,98,2,,,,,,,,,,,,,b,1,1.2843562639718584,1969.1693007912945,None,,,,,001,61,2019_Oct_24_1304,ACPT_experiment_5_30_19,3.1.0,59.95023453117353,
,,,C,D,y,b,,,,,,,,,,4,19,99,11,,,,,,,,,,,,,b,1,0.6335881226841593,1973.7564318664372,None,,,,,001,61,2019_Oct_24_1304,ACPT_experiment_5_30_19,3.1.0,59.95023453117353,
,,,C,G,g,v,,,,,,,,,,5,0,100,4,,,,,,,,,,,,,v,1,1.067499355531254,1977.675888266187,None,,,,,001,61,2019_Oct_24_1304,ACPT_experiment_5_30_19,3.1.0,59.95023453117353,
,,,C,G,y,b,,,,,,,,,,5,1,101,5,,,,,,,,,,,,,b,1,0.8640462062030565,1982.0492604145984,None,,,,,001,61,2019_Oct_24_1304,ACPT_experiment_5_30_19,3.1.0,59.95023453117353,
,,,C,G,d,b,,,,,,,,,,5,2,102,3,,,,,,,,,,,,,b,1,1.6346117274733842,1986.1824703076127,None,,,,,001,61,2019_Oct_24_1304,ACPT_experiment_5_30_19,3.1.0,59.95023453117353,
,,,C,U,g,n,,,,,,,,,,5,3,103,7,,,,,,,,,,,,,n,1,0.6671920024182327,1991.1029481991372,None,,,,,001,61,2019_Oct_24_1304,ACPT_experiment_5_30_19,3.1.0,59.95023453117353,
,,,C,G,g,v,,,,,,,,,,5,4,104,13,,,,,,,,,,,,,v,1,1.267223637270945,1995.073095826434,None,,,,,001,61,2019_Oct_24_1304,ACPT_experiment_5_30_19,3.1.0,59.95023453117353,
,,,C,D,d,v,,,,,,,,,,5,5,105,18,,,,,,,,,,,,,v,1,1.4844892631681432,1999.6262170211194,None,,,,,001,61,2019_Oct_24_1304,ACPT_experiment_5_30_19,3.1.0,59.95023453117353,
,,,C,U,d,n,,,,,,,,,,5,6,106,6,,,,,,,,,,,,,n,1,0.6837498890672578,2004.3965748632127,None,,,,,001,61,2019_Oct_24_1304,ACPT_experiment_5_30_19,3.1.0,59.95023453117353,
,,,C,D,y,b,,,,,,,,,,5,7,107,2,,,,,,,,,,,,,n,0,0.8170334357437241,2008.3832704157994,None,,,,,001,61,2019_Oct_24_1304,ACPT_experiment_5_30_19,3.1.0,59.95023453117353,
,,,C,G,d,b,,,,,,,,,,5,8,108,12,,,,,,,,,,,,,b,1,1.3010578356334008,2012.486166091423,None,,,,,001,61,2019_Oct_24_1304,ACPT_experiment_5_30_19,3.1.0,59.95023453117353,
,,,C,D,d,v,,,,,,,,,,5,9,109,0,,,,,,,,,,,,,v,1,0.967179746934562,2017.0899842489835,None,,,,,001,61,2019_Oct_24_1304,ACPT_experiment_5_30_19,3.1.0,59.95023453117353,
,,,C,U,g,n,,,,,,,,,,5,10,110,16,,,,,,,,,,,,,n,1,0.7672704254582641,2021.343025632079,None,,,,,001,61,2019_Oct_24_1304,ACPT_experiment_5_30_19,3.1.0,59.95023453117353,
,,,C,D,d,v,,,,,,,,,,5,11,111,9,,,,,,,,,,,,,v,1,1.784447727330189,2025.413122486645,None,,,,,001,61,2019_Oct_24_1304,ACPT_experiment_5_30_19,3.1.0,59.95023453117353,
,,,C,U,y,n,,,,,,,,,,5,12,112,17,,,,,,,,,,,,,n,1,0.6838851220200013,2030.4834393966194,None,,,,,001,61,2019_Oct_24_1304,ACPT_experiment_5_30_19,3.1.0,59.95023453117353,
,,,C,G,y,b,,,,,,,,,,5,13,113,14,,,,,,,,,,,,,n,0,1.1339491463713784,2034.470135552925,None,,,,,001,61,2019_Oct_24_1304,ACPT_experiment_5_30_19,3.1.0,59.95023453117353,
,,,C,D,g,b,,,,,,,,,,5,14,114,1,,,,,,,,,,,,,b,1,1.16758502319135,2038.8899430150068,None,,,,,001,61,2019_Oct_24_1304,ACPT_experiment_5_30_19,3.1.0,59.95023453117353,
,,,C,G,g,v,,,,,,,,,,5,15,115,19,,,,,,,,,,,,,v,1,0.8502645192802447,2043.3604709849842,None,,,,,001,61,2019_Oct_24_1304,ACPT_experiment_5_30_19,3.1.0,59.95023453117353,
,,,C,U,d,n,,,,,,,,,,5,16,116,15,,,,,,,,,,,,,n,1,1.3176860554904124,2047.4966209873091,None,,,,,001,61,2019_Oct_24_1304,ACPT_experiment_5_30_19,3.1.0,59.95023453117353,
,,,C,D,g,b,,,,,,,,,,5,17,117,10,,,,,,,,,,,,,b,1,1.0174532012479176,2052.1001858849395,None,,,,,001,61,2019_Oct_24_1304,ACPT_experiment_5_30_19,3.1.0,59.95023453117353,
,,,C,U,y,n,,,,,,,,,,5,18,118,8,,,,,,,,,,,,,n,1,0.5504397787735797,2056.4035022316457,None,,,,,001,61,2019_Oct_24_1304,ACPT_experiment_5_30_19,3.1.0,59.95023453117353,
,,,C,D,y,b,,,,,,,,,,5,19,119,11,,,,,,,,,,,,,n,0,0.44703124424631824,2060.2598123884254,None,,,,,001,61,2019_Oct_24_1304,ACPT_experiment_5_30_19,3.1.0,59.95023453117353,
,,,C,G,d,b,,,,,,,,,,6,0,120,3,,,,,,,,,,,,,v,0,0.8673464336243342,2063.9927155320474,None,,,,,001,61,2019_Oct_24_1304,ACPT_experiment_5_30_19,3.1.0,59.95023453117353,
,,,C,G,g,v,,,,,,,,,,6,1,121,13,,,,,,,,,,,,,v,1,1.1005930930969043,2068.1462025197998,None,,,,,001,61,2019_Oct_24_1304,ACPT_experiment_5_30_19,3.1.0,59.95023453117353,
,,,C,G,g,v,,,,,,,,,,6,2,122,19,,,,,,,,,,,,,v,1,0.7173824454348505,2072.515827689069,None,,,,,001,61,2019_Oct_24_1304,ACPT_experiment_5_30_19,3.1.0,59.95023453117353,
,,,C,D,y,b,,,,,,,,,,6,3,123,2,,,,,,,,,,,,,b,1,0.8838161773619504,2076.536004264668,None,,,,,001,61,2019_Oct_24_1304,ACPT_experiment_5_30_19,3.1.0,59.95023453117353,
,,,C,U,g,n,,,,,,,,,,6,4,124,7,,,,,,,,,,,,,n,1,1.5345357193091331,2080.7056537034205,None,,,,,001,61,2019_Oct_24_1304,ACPT_experiment_5_30_19,3.1.0,59.95023453117353,
,,,C,G,g,v,,,,,,,,,,6,5,125,4,,,,,,,,,,,,,v,1,1.3844198959068308,2085.526047134721,None,,,,,001,61,2019_Oct_24_1304,ACPT_experiment_5_30_19,3.1.0,59.95023453117353,
,,,C,G,y,b,,,,,,,,,,6,6,126,5,,,,,,,,,,,,,b,1,1.1172702141575428,2090.196605471743,None,,,,,001,61,2019_Oct_24_1304,ACPT_experiment_5_30_19,3.1.0,59.95023453117353,
,,,C,D,g,b,,,,,,,,,,6,7,127,10,,,,,,,,,,,,,v,0,0.9007121463946532,2094.59973822764,None,,,,,001,61,2019_Oct_24_1304,ACPT_experiment_5_30_19,3.1.0,59.95023453117353,
,,,C,U,d,n,,,,,,,,,,6,8,128,15,,,,,,,,,,,,,n,1,0.63382478035237,2098.7863210659743,None,,,,,001,61,2019_Oct_24_1304,ACPT_experiment_5_30_19,3.1.0,59.95023453117353,
,,,C,U,y,n,,,,,,,,,,6,9,129,17,,,,,,,,,,,,,n,1,0.4503773542746785,2102.689314362886,None,,,,,001,61,2019_Oct_24_1304,ACPT_experiment_5_30_19,3.1.0,59.95023453117353,
,,,C,U,d,n,,,,,,,,,,6,10,130,6,,,,,,,,,,,,,n,1,0.447023697764962,2106.445569339792,None,,,,,001,61,2019_Oct_24_1304,ACPT_experiment_5_30_19,3.1.0,59.95023453117353,
,,,C,U,g,n,,,,,,,,,,6,11,131,16,,,,,,,,,,,,,n,1,0.5003984542381659,2110.161788419591,None,,,,,001,61,2019_Oct_24_1304,ACPT_experiment_5_30_19,3.1.0,59.95023453117353,
,,,C,D,d,v,,,,,,,,,,6,12,132,0,,,,,,,,,,,,,v,1,1.5342423120982858,2113.965021754997,None,,,,,001,61,2019_Oct_24_1304,ACPT_experiment_5_30_19,3.1.0,59.95023453117353,
,,,C,G,d,b,,,,,,,,,,6,13,133,12,,,,,,,,,,,,,b,1,1.2176305737557414,2118.7851308348636,None,,,,,001,61,2019_Oct_24_1304,ACPT_experiment_5_30_19,3.1.0,59.95023453117353,
,,,C,D,g,b,,,,,,,,,,6,14,134,1,,,,,,,,,,,,,b,1,0.6169426968481275,2123.305543162556,None,,,,,001,61,2019_Oct_24_1304,ACPT_experiment_5_30_19,3.1.0,59.95023453117353,
,,,C,D,y,b,,,,,,,,,,6,15,135,11,,,,,,,,,,,,,b,1,1.0508451757759758,2127.1916175491315,None,,,,,001,61,2019_Oct_24_1304,ACPT_experiment_5_30_19,3.1.0,59.95023453117353,
,,,C,U,y,n,,,,,,,,,,6,16,136,8,,,,,,,,,,,,,n,1,0.967399500483225,2131.5450310643373,None,,,,,001,61,2019_Oct_24_1304,ACPT_experiment_5_30_19,3.1.0,59.95023453117353,
,,,C,D,d,v,,,,,,,,,,6,17,137,18,,,,,,,,,,,,,v,1,1.2676872931133403,2135.7983027660575,None,,,,,001,61,2019_Oct_24_1304,ACPT_experiment_5_30_19,3.1.0,59.95023453117353,
,,,C,D,d,v,,,,,,,,,,6,18,138,9,,,,,,,,,,,,,v,1,0.6835844701854512,2140.368790226521,None,,,,,001,61,2019_Oct_24_1304,ACPT_experiment_5_30_19,3.1.0,59.95023453117353,
,,,C,G,y,b,,,,,,,,,,6,19,139,14,,,,,,,,,,,,,n,0,0.7505936062589171,2144.338245388646,None,,,,,001,61,2019_Oct_24_1304,ACPT_experiment_5_30_19,3.1.0,59.95023453117353,
,,,C,U,y,n,,,,,,,,,,7,0,140,17,,,,,,,,,,,,,n,1,0.9507510560542869,2148.3747039515183,None,,,,,001,61,2019_Oct_24_1304,ACPT_experiment_5_30_19,3.1.0,59.95023453117353,
,,,C,G,g,v,,,,,,,,,,7,1,141,4,,,,,,,,,,,,,v,1,0.7839587153121101,2152.6113106065495,None,,,,,001,61,2019_Oct_24_1304,ACPT_experiment_5_30_19,3.1.0,59.95023453117353,
,,,C,G,y,b,,,,,,,,,,7,2,142,14,,,,,,,,,,,,,n,0,0.7003002292331075,2156.6980601315736,None,,,,,001,61,2019_Oct_24_1304,ACPT_experiment_5_30_19,3.1.0,59.95023453117353,
,,,C,U,d,n,,,,,,,,,,7,3,143,6,,,,,,,,,,,,,n,1,0.6505012976922444,2160.7009205500362,None,,,,,001,61,2019_Oct_24_1304,ACPT_experiment_5_30_19,3.1.0,59.95023453117353,
,,,C,G,g,v,,,,,,,,,,7,4,144,13,,,,,,,,,,,,,v,1,0.9503553185495548,2164.654348494114,None,,,,,001,61,2019_Oct_24_1304,ACPT_experiment_5_30_19,3.1.0,59.95023453117353,
,,,C,G,g,v,,,,,,,,,,7,5,145,19,,,,,,,,,,,,,v,1,0.7672728403340443,2168.8739055337446,None,,,,,001,61,2019_Oct_24_1304,ACPT_experiment_5_30_19,3.1.0,59.95023453117353,
,,,C,D,d,v,,,,,,,,,,7,6,146,9,,,,,,,,,,,,,v,1,1.4175299338749028,2172.9439806544433,None,,,,,001,61,2019_Oct_24_1304,ACPT_experiment_5_30_19,3.1.0,59.95023453117353,
,,,C,D,g,b,,,,,,,,,,7,7,147,10,,,,,,,,,,,,,v,0,0.9340633699212049,2177.6306812178937,None,,,,,001,61,2019_Oct_24_1304,ACPT_experiment_5_30_19,3.1.0,59.95023453117353,
,,,C,U,g,n,,,,,,,,,,7,8,148,7,,,,,,,,,,,,,n,1,1.0837511568752234,2181.867706551735,None,,,,,001,61,2019_Oct_24_1304,ACPT_experiment_5_30_19,3.1.0,59.95023453117353,
,,,C,G,d,b,,,,,,,,,,7,9,149,12,,,,,,,,,,,,,b,1,1.6012958214832906,2186.2373214577874,None,,,,,001,61,2019_Oct_24_1304,ACPT_experiment_5_30_19,3.1.0,59.95023453117353,
,,,C,U,y,n,,,,,,,,,,7,10,150,8,,,,,,,,,,,,,n,1,0.7339013922355662,2191.1244683503573,None,,,,,001,61,2019_Oct_24_1304,ACPT_experiment_5_30_19,3.1.0,59.95023453117353,
,,,C,D,g,b,,,,,,,,,,7,11,151,1,,,,,,,,,,,,,v,0,1.2338793565086235,2195.161330499075,None,,,,,001,61,2019_Oct_24_1304,ACPT_experiment_5_30_19,3.1.0,59.95023453117353,
,,,C,D,d,v,,,,,,,,,,7,12,152,18,,,,,,,,,,,,,v,1,0.6004804995900486,2199.664407350636,None,,,,,001,61,2019_Oct_24_1304,ACPT_experiment_5_30_19,3.1.0,59.95023453117353,
,,,C,G,d,b,,,,,,,,,,7,13,153,3,,,,,,,,,,,,,b,1,0.7839578097318736,2203.5507413361865,None,,,,,001,61,2019_Oct_24_1304,ACPT_experiment_5_30_19,3.1.0,59.95023453117353,
,,,C,U,d,n,,,,,,,,,,7,14,154,15,,,,,,,,,,,,,n,1,0.7505869653541595,2207.620570441577,None,,,,,001,61,2019_Oct_24_1304,ACPT_experiment_5_30_19,3.1.0,59.95023453117353,
,,,C,D,y,b,,,,,,,,,,7,15,155,11,,,,,,,,,,,,,n,0,0.6001892053900519,2211.6739847416175,None,,,,,001,61,2019_Oct_24_1304,ACPT_experiment_5_30_19,3.1.0,59.95023453117353,
,,,C,D,d,v,,,,,,,,,,7,16,156,0,,,,,,,,,,,,,v,1,1.0675059964341926,2215.543365103016,None,,,,,001,61,2019_Oct_24_1304,ACPT_experiment_5_30_19,3.1.0,59.95023453117353,
,,,C,D,y,b,,,,,,,,,,7,17,157,2,,,,,,,,,,,,,b,1,0.8337202163002075,2219.8970086349855,None,,,,,001,61,2019_Oct_24_1304,ACPT_experiment_5_30_19,3.1.0,59.95023453117353,
,,,C,G,y,b,,,,,,,,,,7,18,158,5,,,,,,,,,,,,,b,1,1.1675835138939874,2224.016591393027,None,,,,,001,61,2019_Oct_24_1304,ACPT_experiment_5_30_19,3.1.0,59.95023453117353,
,,,C,U,g,n,,,,,,,,,,7,19,159,16,,,,,,,,,,,,,n,1,0.9505017202973249,2228.486965414775,None,,,,,001,61,2019_Oct_24_1304,ACPT_experiment_5_30_19,3.1.0,59.95023453117353,
,,,C,D,g,b,,,,,,,,,,8,0,160,1,,,,,,,,,,,,,v,0,1.0007833248109819,2232.723335412138,None,,,,,001,61,2019_Oct_24_1304,ACPT_experiment_5_30_19,3.1.0,59.95023453117353,
,,,C,G,y,b,,,,,,,,,,8,1,161,5,,,,,,,,,,,,,b,1,0.7669969409580517,2237.0269388270117,None,,,,,001,61,2019_Oct_24_1304,ACPT_experiment_5_30_19,3.1.0,59.95023453117353,
,,,C,U,g,n,,,,,,,,,,8,2,162,16,,,,,,,,,,,,,n,1,0.6838908573463414,2241.079778688856,None,,,,,001,61,2019_Oct_24_1304,ACPT_experiment_5_30_19,3.1.0,59.95023453117353,
,,,C,U,d,n,,,,,,,,,,8,3,163,6,,,,,,,,,,,,,n,1,0.5667549705667625,2245.066564497365,None,,,,,001,61,2019_Oct_24_1304,ACPT_experiment_5_30_19,3.1.0,59.95023453117353,
,,,C,G,g,v,,,,,,,,,,8,4,164,4,,,,,,,,,,,,,v,1,1.0508279697969556,2248.9192046491153,None,,,,,001,61,2019_Oct_24_1304,ACPT_experiment_5_30_19,3.1.0,59.95023453117353,
,,,C,U,y,n,,,,,,,,,,8,5,165,17,,,,,,,,,,,,,n,1,0.8335840777672274,2253.2729517188163,None,,,,,001,61,2019_Oct_24_1304,ACPT_experiment_5_30_19,3.1.0,59.95023453117353,
,,,C,U,g,n,,,,,,,,,,8,6,166,7,,,,,,,,,,,,,n,1,0.7172505329326668,2257.3757296693257,None,,,,,001,61,2019_Oct_24_1304,ACPT_experiment_5_30_19,3.1.0,59.95023453117353,
,,,C,G,d,b,,,,,,,,,,8,7,167,3,,,,,,,,,,,,,v,0,0.8837533906353201,2261.3958011978975,None,,,,,001,61,2019_Oct_24_1304,ACPT_experiment_5_30_19,3.1.0,59.95023453117353,
,,,C,D,d,v,,,,,,,,,,8,8,168,18,,,,,,,,,,,,,v,1,2.5686651360392716,2265.5654258841914,None,,,,,001,61,2019_Oct_24_1304,ACPT_experiment_5_30_19,3.1.0,59.95023453117353,
,,,C,U,d,n,,,,,,,,,,8,9,169,15,,,,,,,,,,,,,n,1,0.9173883618768741,2271.4199556749845,None,,,,,001,61,2019_Oct_24_1304,ACPT_experiment_5_30_19,3.1.0,59.95023453117353,
,,,C,D,d,v,,,,,,,,,,8,10,170,9,,,,,,,,,,,,,v,1,0.8006301010445895,2275.623211106489,None,,,,,001,61,2019_Oct_24_1304,ACPT_experiment_5_30_19,3.1.0,59.95023453117353,
,,,C,D,d,v,,,,,,,,,,8,11,171,0,,,,,,,,,,,,,v,1,0.5172301272450568,2279.6928766041565,None,,,,,001,61,2019_Oct_24_1304,ACPT_experiment_5_30_19,3.1.0,59.95023453117353,
,,,C,G,g,v,,,,,,,,,,8,12,172,19,,,,,,,,,,,,,b,0,0.7336574899436528,2283.5129002578487,None,,,,,001,61,2019_Oct_24_1304,ACPT_experiment_5_30_19,3.1.0,59.95023453117353,
,,,C,D,y,b,,,,,,,,,,8,13,173,11,,,,,,,,,,,,,b,1,0.717227289769653,2287.532430250887,None,,,,,001,61,2019_Oct_24_1304,ACPT_experiment_5_30_19,3.1.0,59.95023453117353,
,,,C,G,d,b,,,,,,,,,,8,14,174,12,,,,,,,,,,,,,b,1,1.1673474599447218,2291.5524646507693,None,,,,,001,61,2019_Oct_24_1304,ACPT_experiment_5_30_19,3.1.0,59.95023453117353,
,,,C,D,y,b,,,,,,,,,,8,15,175,2,,,,,,,,,,,,,b,1,0.9841062037521624,2296.005655031602,None,,,,,001,61,2019_Oct_24_1304,ACPT_experiment_5_30_19,3.1.0,59.95023453117353,
,,,C,G,y,b,,,,,,,,,,8,16,176,14,,,,,,,,,,,,,b,1,2.9186981292587006,2300.2925514413473,None,,,,,001,61,2019_Oct_24_1304,ACPT_experiment_5_30_19,3.1.0,59.95023453117353,
,,,C,G,g,v,,,,,,,,,,8,17,177,13,,,,,,,,,,,,,v,1,1.4344615222998982,2306.480427746663,None,,,,,001,61,2019_Oct_24_1304,ACPT_experiment_5_30_19,3.1.0,59.95023453117353,
,,,C,D,g,b,,,,,,,,,,8,18,178,10,,,,,,,,,,,,,v,0,1.1838277687584196,2311.2178346306246,None,,,,,001,61,2019_Oct_24_1304,ACPT_experiment_5_30_19,3.1.0,59.95023453117353,
,,,C,U,y,n,,,,,,,,,,8,19,179,8,,,,,,,,,,,,,n,1,0.9340805759002251,2315.687558447502,None,,,,,001,61,2019_Oct_24_1304,ACPT_experiment_5_30_19,3.1.0,59.95023453117353,
,,,C,G,d,b,,,,,,,,,,9,0,180,3,,,,,,,,,,,,,b,1,1.5676191936618125,2319.957790414277,None,,,,,001,61,2019_Oct_24_1304,ACPT_experiment_5_30_19,3.1.0,59.95023453117353,
,,,C,G,d,b,,,,,,,,,,9,1,181,12,,,,,,,,,,,,,b,1,0.6838697271978162,2324.811286035205,None,,,,,001,61,2019_Oct_24_1304,ACPT_experiment_5_30_19,3.1.0,59.95023453117353,
,,,C,D,d,v,,,,,,,,,,9,2,182,9,,,,,,,,,,,,,v,1,0.7170914530961454,2328.797817678207,None,,,,,001,61,2019_Oct_24_1304,ACPT_experiment_5_30_19,3.1.0,59.95023453117353,
,,,C,G,g,v,,,,,,,,,,9,3,183,4,,,,,,,,,,,,,b,0,0.8673518670893827,2332.800806688718,None,,,,,001,61,2019_Oct_24_1304,ACPT_experiment_5_30_19,3.1.0,59.95023453117353,
,,,C,D,g,b,,,,,,,,,,9,4,184,1,,,,,,,,,,,,,b,1,0.8003774448334298,2336.9709460450704,None,,,,,001,61,2019_Oct_24_1304,ACPT_experiment_5_30_19,3.1.0,59.95023453117353,
,,,C,G,y,b,,,,,,,,,,9,5,185,14,,,,,,,,,,,,,b,1,1.1008777463903243,2341.057174259131,None,,,,,001,61,2019_Oct_24_1304,ACPT_experiment_5_30_19,3.1.0,59.95023453117353,
,,,C,D,g,b,,,,,,,,,,9,6,186,10,,,,,,,,,,,,,b,1,1.1308831617461692,2345.480620332879,None,,,,,001,61,2019_Oct_24_1304,ACPT_experiment_5_30_19,3.1.0,59.95023453117353,
,,,C,D,y,b,,,,,,,,,,9,7,187,11,,,,,,,,,,,,,b,1,0.6505157869378309,2349.8806931413346,None,,,,,001,61,2019_Oct_24_1304,ACPT_experiment_5_30_19,3.1.0,59.95023453117353,
,,,C,D,y,b,,,,,,,,,,9,8,188,2,,,,,,,,,,,,,b,1,0.6338320249760727,2353.817075394183,None,,,,,001,61,2019_Oct_24_1304,ACPT_experiment_5_30_19,3.1.0,59.95023453117353,
,,,C,G,y,b,,,,,,,,,,9,9,189,5,,,,,,,,,,,,,b,1,0.6338250822118425,2357.7367784129565,None,,,,,001,61,2019_Oct_24_1304,ACPT_experiment_5_30_19,3.1.0,59.95023453117353,
,,,C,U,y,n,,,,,,,,,,9,10,190,8,,,,,,,,,,,,,n,1,1.1006244864620385,2361.6734332447268,None,,,,,001,61,2019_Oct_24_1304,ACPT_experiment_5_30_19,3.1.0,59.95023453117353,
,,,C,G,g,v,,,,,,,,,,9,11,191,19,,,,,,,,,,,,,v,1,1.1842564089256484,2366.0598867665503,None,,,,,001,61,2019_Oct_24_1304,ACPT_experiment_5_30_19,3.1.0,59.95023453117353,
,,,C,D,d,v,,,,,,,,,,9,12,192,0,,,,,,,,,,,,,v,1,0.8504196749472612,2370.5469418335288,None,,,,,001,61,2019_Oct_24_1304,ACPT_experiment_5_30_19,3.1.0,59.95023453117353,
,,,C,U,y,n,,,,,,,,,,9,13,193,17,,,,,,,,,,,,,n,1,0.7505933043976256,2374.683224955792,None,,,,,001,61,2019_Oct_24_1304,ACPT_experiment_5_30_19,3.1.0,59.95023453117353,
,,,C,U,d,n,,,,,,,,,,9,14,194,15,,,,,,,,,,,,,n,1,0.6838633881525311,2378.7030145478057,None,,,,,001,61,2019_Oct_24_1304,ACPT_experiment_5_30_19,3.1.0,59.95023453117353,
,,,C,U,d,n,,,,,,,,,,9,15,195,6,,,,,,,,,,,,,n,1,0.9842571333865635,2382.6559148418764,None,,,,,001,61,2019_Oct_24_1304,ACPT_experiment_5_30_19,3.1.0,59.95023453117353,
,,,C,U,g,n,,,,,,,,,,9,16,196,16,,,,,,,,,,,,,n,1,0.5835184233765176,2386.9263137368307,None,,,,,001,61,2019_Oct_24_1304,ACPT_experiment_5_30_19,3.1.0,59.95023453117353,
,,,C,G,g,v,,,,,,,,,,9,17,197,13,,,,,,,,,,,,,v,1,0.8173120518513315,2390.795698022399,None,,,,,001,61,2019_Oct_24_1304,ACPT_experiment_5_30_19,3.1.0,59.95023453117353,
,,,C,D,d,v,,,,,,,,,,9,18,198,18,,,,,,,,,,,,,v,1,0.6335854059507255,2394.9158048081354,None,,,,,001,61,2019_Oct_24_1304,ACPT_experiment_5_30_19,3.1.0,59.95023453117353,
,,,C,U,g,n,,,,,,,,,,9,19,199,7,,,,,,,,,,,,,n,1,0.817311749993678,2398.8352569818544,None,,,,,001,61,2019_Oct_24_1304,ACPT_experiment_5_30_19,3.1.0,59.95023453117353,
,,,C,D,g,b,,,,,,,,,,10,0,200,10,,,,,,,,,,,,,b,1,1.0005158774947631,2402.955387010754,None,,,,,001,61,2019_Oct_24_1304,ACPT_experiment_5_30_19,3.1.0,59.95023453117353,
,,,C,U,y,n,,,,,,,,,,10,1,201,17,,,,,,,,,,,,,n,1,0.5337391126886359,2407.241777806221,None,,,,,001,61,2019_Oct_24_1304,ACPT_experiment_5_30_19,3.1.0,59.95023453117353,
,,,C,U,y,n,,,,,,,,,,10,2,202,8,,,,,,,,,,,,,n,1,0.517066821379558,2411.0447210548646,None,,,,,001,61,2019_Oct_24_1304,ACPT_experiment_5_30_19,3.1.0,59.95023453117353,
,,,C,D,g,b,,,,,,,,,,10,3,203,1,,,,,,,,,,,,,b,1,1.0008029456621443,2414.8476492105456,None,,,,,001,61,2019_Oct_24_1304,ACPT_experiment_5_30_19,3.1.0,59.95023453117353,
,,,C,U,d,n,,,,,,,,,,10,4,204,6,,,,,,,,,,,,,n,1,1.200508813988563,2419.151395404855,None,,,,,001,61,2019_Oct_24_1304,ACPT_experiment_5_30_19,3.1.0,59.95023453117353,
,,,C,G,y,b,,,,,,,,,,10,5,205,5,,,,,,,,,,,,,b,1,1.0508294790924992,2423.637783966564,None,,,,,001,61,2019_Oct_24_1304,ACPT_experiment_5_30_19,3.1.0,59.95023453117353,
,,,C,D,d,v,,,,,,,,,,10,6,206,18,,,,,,,,,,,,,v,1,0.9004667348053772,2427.991403651651,None,,,,,001,61,2019_Oct_24_1304,ACPT_experiment_5_30_19,3.1.0,59.95023453117353,
,,,C,G,g,v,,,,,,,,,,10,7,207,4,,,,,,,,,,,,,v,1,1.434455183254613,2432.177734437495,None,,,,,001,61,2019_Oct_24_1304,ACPT_experiment_5_30_19,3.1.0,59.95023453117353,
,,,C,G,g,v,,,,,,,,,,10,8,208,13,,,,,,,,,,,,,v,1,0.6669242532443604,2436.898327458146,None,,,,,001,61,2019_Oct_24_1304,ACPT_experiment_5_30_19,3.1.0,59.95023453117353,
,,,C,D,d,v,,,,,,,,,,10,9,209,0,,,,,,,,,,,,,v,1,0.7505866634965059,2440.8511178754434,None,,,,,001,61,2019_Oct_24_1304,ACPT_experiment_5_30_19,3.1.0,59.95023453117353,
,,,C,U,g,n,,,,,,,,,,10,10,210,7,,,,,,,,,,,,,n,1,0.8504441255463462,2444.904497159807,None,,,,,001,61,2019_Oct_24_1304,ACPT_experiment_5_30_19,3.1.0,59.95023453117353,
,,,C,D,d,v,,,,,,,,,,10,11,211,9,,,,,,,,,,,,,v,1,1.267653484872426,2449.0407914508633,None,,,,,001,61,2019_Oct_24_1304,ACPT_experiment_5_30_19,3.1.0,59.95023453117353,
,,,C,U,d,n,,,,,,,,,,10,12,212,15,,,,,,,,,,,,,n,1,1.0006607699469896,2453.5943141183798,None,,,,,001,61,2019_Oct_24_1304,ACPT_experiment_5_30_19,3.1.0,59.95023453117353,
,,,C,D,y,b,,,,,,,,,,10,13,213,11,,,,,,,,,,,,,b,1,0.8340136235128739,2457.880943986389,None,,,,,001,61,2019_Oct_24_1304,ACPT_experiment_5_30_19,3.1.0,59.95023453117353,
,,,C,D,y,b,,,,,,,,,,10,14,214,2,,,,,,,,,,,,,b,1,0.8506527103018016,2462.000839168775,None,,,,,001,61,2019_Oct_24_1304,ACPT_experiment_5_30_19,3.1.0,59.95023453117353,
,,,C,U,g,n,,,,,,,,,,10,15,215,16,,,,,,,,,,,,,n,1,0.8507206286376459,2466.137360458006,None,,,,,001,61,2019_Oct_24_1304,ACPT_experiment_5_30_19,3.1.0,59.95023453117353,
,,,C,G,g,v,,,,,,,,,,10,16,216,19,,,,,,,,,,,,,v,1,0.7305746011988958,2470.2939037708875,None,,,,,001,61,2019_Oct_24_1304,ACPT_experiment_5_30_19,3.1.0,59.95023453117353,
,,,C,G,d,b,,,,,,,,,,10,17,217,3,,,,,,,,,,,,,b,1,0.9174022474035155,2474.29367043367,None,,,,,001,61,2019_Oct_24_1304,ACPT_experiment_5_30_19,3.1.0,59.95023453117353,
,,,C,G,y,b,,,,,,,,,,10,18,218,14,,,,,,,,,,,,,b,1,0.716981878180377,2478.5138465866676,None,,,,,001,61,2019_Oct_24_1304,ACPT_experiment_5_30_19,3.1.0,59.95023453117353,
,,,C,G,d,b,,,,,,,,,,10,19,219,12,,,,,,,,,,,,,b,1,1.1342217252931732,2482.516705495831,None,,,,,001,61,2019_Oct_24_1304,ACPT_experiment_5_30_19,3.1.0,59.95023453117353,
,,,C,G,y,b,,,,,,,,,,11,0,220,14,,,,,,,,,,,,,b,1,0.783532791876496,2486.9538605084144,None,,,,,001,61,2019_Oct_24_1304,ACPT_experiment_5_30_19,3.1.0,59.95023453117353,
,,,C,U,d,n,,,,,,,,,,11,1,221,6,,,,,,,,,,,,,n,1,0.9173895693129452,2491.0232911595685,None,,,,,001,61,2019_Oct_24_1304,ACPT_experiment_5_30_19,3.1.0,59.95023453117353,
,,,C,D,y,b,,,,,,,,,,11,2,222,11,,,,,,,,,,,,,b,1,0.7503409500459384,2495.2434754627666,None,,,,,001,61,2019_Oct_24_1304,ACPT_experiment_5_30_19,3.1.0,59.95023453117353,
,,,C,G,g,v,,,,,,,,,,11,3,223,4,,,,,,,,,,,,,v,1,0.9841086186243047,2499.279678954552,None,,,,,001,61,2019_Oct_24_1304,ACPT_experiment_5_30_19,3.1.0,59.95023453117353,
,,,C,U,y,n,,,,,,,,,,11,4,224,17,,,,,,,,,,,,,n,1,0.8003783504136663,2503.5665777791746,None,,,,,001,61,2019_Oct_24_1304,ACPT_experiment_5_30_19,3.1.0,59.95023453117353,
,,,C,D,g,b,,,,,,,,,,11,5,225,10,,,,,,,,,,,,,v,0,0.9507438114342222,2507.652831651272,None,,,,,001,61,2019_Oct_24_1304,ACPT_experiment_5_30_19,3.1.0,59.95023453117353,
,,,C,D,d,v,,,,,,,,,,11,6,226,9,,,,,,,,,,,,,v,1,0.6805417287250748,2511.90945097232,None,,,,,001,61,2019_Oct_24_1304,ACPT_experiment_5_30_19,3.1.0,59.95023453117353,
,,,C,D,d,v,,,,,,,,,,11,7,227,18,,,,,,,,,,,,,v,1,0.6505151832207048,2515.859179932877,None,,,,,001,61,2019_Oct_24_1304,ACPT_experiment_5_30_19,3.1.0,59.95023453117353,
,,,C,D,y,b,,,,,,,,,,11,8,228,2,,,,,,,,,,,,,b,1,0.6335606534885301,2519.795837179523,None,,,,,001,61,2019_Oct_24_1304,ACPT_experiment_5_30_19,3.1.0,59.95023453117353,
,,,C,U,g,n,,,,,,,,,,11,9,229,7,,,,,,,,,,,,,n,1,0.8506696144213493,2523.7152627896266,None,,,,,001,61,2019_Oct_24_1304,ACPT_experiment_5_30_19,3.1.0,59.95023453117353,
,,,C,G,g,v,,,,,,,,,,11,10,230,13,,,,,,,,,,,,,v,1,0.7169538052694406,2527.868757022001,None,,,,,001,61,2019_Oct_24_1304,ACPT_experiment_5_30_19,3.1.0,59.95023453117353,
,,,C,U,g,n,,,,,,,,,,11,11,231,16,,,,,,,,,,,,,n,1,0.7006217093548912,2531.871557068609,None,,,,,001,61,2019_Oct_24_1304,ACPT_experiment_5_30_19,3.1.0,59.95023453117353,
,,,C,D,g,b,,,,,,,,,,11,12,232,1,,,,,,,,,,,,,b,1,1.2340227396634873,2535.874956909587,None,,,,,001,61,2019_Oct_24_1304,ACPT_experiment_5_30_19,3.1.0,59.95023453117353,
,,,C,G,d,b,,,,,,,,,,11,13,233,3,,,,,,,,,,,,,b,1,1.117547019108315,2540.3948455114423,None,,,,,001,61,2019_Oct_24_1304,ACPT_experiment_5_30_19,3.1.0,59.95023453117353,
,,,C,G,y,b,,,,,,,,,,11,14,234,5,,,,,,,,,,,,,b,1,0.7169592387326702,2544.798527349356,None,,,,,001,61,2019_Oct_24_1304,ACPT_experiment_5_30_19,3.1.0,59.95023453117353,
,,,C,G,g,v,,,,,,,,,,11,15,235,19,,,,,,,,,,,,,b,0,1.0341520561778452,2548.7846704994754,None,,,,,001,61,2019_Oct_24_1304,ACPT_experiment_5_30_19,3.1.0,59.95023453117353,
,,,C,G,d,b,,,,,,,,,,11,16,236,12,,,,,,,,,,,,,b,1,0.9004368507376057,2553.1049516391267,None,,,,,001,61,2019_Oct_24_1304,ACPT_experiment_5_30_19,3.1.0,59.95023453117353,
,,,C,U,y,n,,,,,,,,,,11,17,237,8,,,,,,,,,,,,,n,1,0.8673573005580693,2557.291258578085,None,,,,,001,61,2019_Oct_24_1304,ACPT_experiment_5_30_19,3.1.0,59.95023453117353,
,,,C,U,d,n,,,,,,,,,,11,18,238,15,,,,,,,,,,,,,n,1,1.1809598038162221,2561.464484747352,None,,,,,001,61,2019_Oct_24_1304,ACPT_experiment_5_30_19,3.1.0,59.95023453117353,
,,,C,D,d,v,,,,,,,,,,11,19,239,0,,,,,,,,,,,,,v,1,0.8673518670875637,2565.931279925573,None,,,,,001,61,2019_Oct_24_1304,ACPT_experiment_5_30_19,3.1.0,59.95023453117353,
,,,C,U,d,n,,,,,,,,,,12,0,240,6,,,,,,,,,,,,,n,1,0.7837341320155247,2570.101352571024,None,,,,,001,61,2019_Oct_24_1304,ACPT_experiment_5_30_19,3.1.0,59.95023453117353,
,,,C,D,d,v,,,,,,,,,,12,1,241,18,,,,,,,,,,,,,v,1,1.0007709485798841,2574.1710032775864,None,,,,,001,61,2019_Oct_24_1304,ACPT_experiment_5_30_19,3.1.0,59.95023453117353,
,,,C,D,d,v,,,,,,,,,,12,2,242,0,,,,,,,,,,,,,v,1,0.5668440190493129,2578.4579132710005,None,,,,,001,61,2019_Oct_24_1304,ACPT_experiment_5_30_19,3.1.0,59.95023453117353,
,,,C,D,y,b,,,,,,,,,,12,3,243,2,,,,,,,,,,,,,b,1,0.6838987056871701,2582.293919467569,None,,,,,001,61,2019_Oct_24_1304,ACPT_experiment_5_30_19,3.1.0,59.95023453117353,
,,,C,D,g,b,,,,,,,,,,12,4,244,10,,,,,,,,,,,,,b,1,0.7639406158268685,2586.283693381012,None,,,,,001,61,2019_Oct_24_1304,ACPT_experiment_5_30_19,3.1.0,59.95023453117353,
,,,C,G,g,v,,,,,,,,,,12,5,245,4,,,,,,,,,,,,,v,1,0.783947244657611,2590.3335052924976,None,,,,,001,61,2019_Oct_24_1304,ACPT_experiment_5_30_19,3.1.0,59.95023453117353,
,,,C,G,y,b,,,,,,,,,,12,6,246,14,,,,,,,,,,,,,b,1,0.8640196425840259,2594.4233422341586,None,,,,,001,61,2019_Oct_24_1304,ACPT_experiment_5_30_19,3.1.0,59.95023453117353,
,,,C,U,d,n,,,,,,,,,,12,7,247,15,,,,,,,,,,,,,b,0,1.1675789860055374,2598.573217173862,None,,,,,001,61,2019_Oct_24_1304,ACPT_experiment_5_30_19,3.1.0,59.95023453117353,
,,,C,G,y,b,,,,,,,,,,12,8,248,5,,,,,,,,,,,,,b,1,0.8337081419304013,2603.0436153443534,None,,,,,001,61,2019_Oct_24_1304,ACPT_experiment_5_30_19,3.1.0,59.95023453117353,
,,,C,G,g,v,,,,,,,,,,12,9,249,19,,,,,,,,,,,,,v,1,0.6671941154345404,2607.1465182646007,None,,,,,001,61,2019_Oct_24_1304,ACPT_experiment_5_30_19,3.1.0,59.95023453117353,
,,,C,U,g,n,,,,,,,,,,12,10,250,16,,,,,,,,,,,,,n,1,0.7168040830692917,2611.116665590036,None,,,,,001,61,2019_Oct_24_1304,ACPT_experiment_5_30_19,3.1.0,59.95023453117353,
,,,C,G,g,v,,,,,,,,,,12,11,251,13,,,,,,,,,,,,,b,0,0.7172251767515263,2615.119359382179,None,,,,,001,61,2019_Oct_24_1304,ACPT_experiment_5_30_19,3.1.0,59.95023453117353,
,,,C,U,g,n,,,,,,,,,,12,12,252,7,,,,,,,,,,,,,n,1,0.833994304517546,2619.1224525341404,None,,,,,001,61,2019_Oct_24_1304,ACPT_experiment_5_30_19,3.1.0,59.95023453117353,
,,,C,G,d,b,,,,,,,,,,12,13,253,3,,,,,,,,,,,,,b,1,1.3677400581109396,2623.242312398992,None,,,,,001,61,2019_Oct_24_1304,ACPT_experiment_5_30_19,3.1.0,59.95023453117353,
,,,C,U,y,n,,,,,,,,,,12,14,254,8,,,,,,,,,,,,,n,1,0.7835312825845904,2627.912988159269,None,,,,,001,61,2019_Oct_24_1304,ACPT_experiment_5_30_19,3.1.0,59.95023453117353,
,,,C,G,d,b,,,,,,,,,,12,15,255,12,,,,,,,,,,,,,b,1,1.2009362467179017,2631.982414282533,None,,,,,001,61,2019_Oct_24_1304,ACPT_experiment_5_30_19,3.1.0,59.95023453117353,
,,,C,D,d,v,,,,,,,,,,12,16,256,9,,,,,,,,,,,,,v,1,1.4811633777098905,2636.489233887203,None,,,,,001,61,2019_Oct_24_1304,ACPT_experiment_5_30_19,3.1.0,59.95023453117353,
,,,C,D,g,b,,,,,,,,,,12,17,257,1,,,,,,,,,,,,,b,1,0.9173925879040326,2641.239574837253,None,,,,,001,61,2019_Oct_24_1304,ACPT_experiment_5_30_19,3.1.0,59.95023453117353,
,,,C,D,y,b,,,,,,,,,,12,18,258,11,,,,,,,,,,,,,n,0,0.9807760922631132,2645.462841727336,None,,,,,001,61,2019_Oct_24_1304,ACPT_experiment_5_30_19,3.1.0,59.95023453117353,
,,,C,U,y,n,,,,,,,,,,12,19,259,17,,,,,,,,,,,,,n,1,0.4670481362918508,2649.7294906245534,None,,,,,001,61,2019_Oct_24_1304,ACPT_experiment_5_30_19,3.1.0,59.95023453117353,
,,,C,D,d,v,,,,,,,,,,13,0,260,0,,,,,,,,,,,,,v,1,0.9171743436527322,2653.5159906930767,None,,,,,001,61,2019_Oct_24_1304,ACPT_experiment_5_30_19,3.1.0,59.95023453117353,
,,,C,D,d,v,,,,,,,,,,13,1,261,18,,,,,,,,,,,,,v,1,0.5504394769159262,2657.7023187621835,None,,,,,001,61,2019_Oct_24_1304,ACPT_experiment_5_30_19,3.1.0,59.95023453117353,
,,,C,D,d,v,,,,,,,,,,13,2,262,9,,,,,,,,,,,,,v,1,0.55016206824439,2661.5388987932256,None,,,,,001,61,2019_Oct_24_1304,ACPT_experiment_5_30_19,3.1.0,59.95023453117353,
,,,C,G,y,b,,,,,,,,,,13,3,263,14,,,,,,,,,,,,,n,0,0.6671989451824629,2665.3749282329572,None,,,,,001,61,2019_Oct_24_1304,ACPT_experiment_5_30_19,3.1.0,59.95023453117353,
,,,C,U,y,n,,,,,,,,,,13,4,264,8,,,,,,,,,,,,,n,1,0.5500401170975238,2669.3450749546773,None,,,,,001,61,2019_Oct_24_1304,ACPT_experiment_5_30_19,3.1.0,59.95023453117353,
,,,C,D,y,b,,,,,,,,,,13,5,265,11,,,,,,,,,,,,,b,1,0.8006258750137931,2673.180973085624,None,,,,,001,61,2019_Oct_24_1304,ACPT_experiment_5_30_19,3.1.0,59.95023453117353,
,,,C,G,d,b,,,,,,,,,,13,6,266,12,,,,,,,,,,,,,b,1,0.9003487078334729,2677.3178460409054,None,,,,,001,61,2019_Oct_24_1304,ACPT_experiment_5_30_19,3.1.0,59.95023453117353,
,,,C,U,y,n,,,,,,,,,,13,7,267,17,,,,,,,,,,,,,n,1,0.5504373639014375,2681.520766106756,None,,,,,001,61,2019_Oct_24_1304,ACPT_experiment_5_30_19,3.1.0,59.95023453117353,
,,,C,D,g,b,,,,,,,,,,13,8,268,10,0,0,0,0,0,0,0,0,,,,,b,1,1.6179243431979557,2685.3737564152634,None,,,,,001,61,2019_Oct_24_1304,ACPT_experiment_5_30_19,3.1.0,59.95023453117353,
,,,C,D,g,b,L,U,y,L,u,,,,,13,8,268,10,0,0,0,0,,,,,0,0,0,24,,,,,,down,0.9976630055134592,2746.1072077353256,None,001,61,2019_Oct_24_1304,ACPT_experiment_5_30_19,3.1.0,59.95023453117353,
,,,C,D,g,b,L,G,g,L,c ,,,,,13,8,268,10,0,0,0,0,,,,,0,1,1,18,,,,,,up,0.6504979772398656,2748.3891986300423,None,001,61,2019_Oct_24_1304,ACPT_experiment_5_30_19,3.1.0,59.95023453117353,
,,,C,D,g,b,R,U,g,R,u,,,,,13,8,268,10,0,0,0,0,,,,,0,2,2,11,,,,,,up,0.6337936888485274,2750.3240513619585,None,001,61,2019_Oct_24_1304,ACPT_experiment_5_30_19,3.1.0,59.95023453117353,
,,,C,D,g,b,R,D,g,L,i,,,,,13,8,268,10,0,0,0,0,,,,,0,3,3,2,,,,,,up,0.5170586711792566,2752.2421880329694,None,001,61,2019_Oct_24_1304,ACPT_experiment_5_30_19,3.1.0,59.95023453117353,
,,,C,D,g,b,R,D,y,R,y,,,,,13,8,268,10,0,0,0,0,,,,,0,4,4,27,,,,,,down,0.7172097819275223,2754.043581837972,None,001,61,2019_Oct_24_1304,ACPT_experiment_5_30_19,3.1.0,59.95023453117353,
,,,C,D,g,b,L,D,g,R,i,,,,,13,8,268,10,0,0,0,0,,,,,0,5,5,15,,,,,,up,0.5170746697185677,2756.0451303760365,None,001,61,2019_Oct_24_1304,ACPT_experiment_5_30_19,3.1.0,59.95023453117353,
,,,C,D,g,b,L,D,y,R,y,,,,,13,8,268,10,0,0,0,0,,,,,0,6,6,33,,,,,,down,0.7505782114349131,2757.8465226717435,None,001,61,2019_Oct_24_1304,ACPT_experiment_5_30_19,3.1.0,59.95023453117353,
,,,C,D,g,b,L,U,d,L,u,,,,,13,8,268,10,0,0,0,0,,,,,0,7,7,20,,,,,,up,0.5837774186329625,2759.8814336021296,None,001,61,2019_Oct_24_1304,ACPT_experiment_5_30_19,3.1.0,59.95023453117353,
,,,C,D,g,b,L,U,g,L,u,,,,,13,8,268,10,0,0,0,0,,,,,0,8,8,22,,,,,,up,0.5838079064160411,2761.7328409606143,None,001,61,2019_Oct_24_1304,ACPT_experiment_5_30_19,3.1.0,59.95023453117353,
,,,C,D,g,b,R,G,d,L,i,,,,,13,8,268,10,0,0,0,0,,,,,0,9,9,4,,,,,,up,0.5003878891620843,2763.6009740395,None,001,61,2019_Oct_24_1304,ACPT_experiment_5_30_19,3.1.0,59.95023453117353,
,,,C,D,g,b,R,G,y,L,y,,,,,13,8,268,10,0,0,0,0,,,,,0,10,10,28,,,,,,down,0.6669151974674605,2765.385957868899,None,001,61,2019_Oct_24_1304,ACPT_experiment_5_30_19,3.1.0,59.95023453117353,
,,,C,D,g,b,L,G,y,R,y,,,,,13,8,268,10,0,0,0,0,,,,,0,11,11,35,,,,,,down,0.600460275018122,2767.337203974157,None,001,61,2019_Oct_24_1304,ACPT_experiment_5_30_19,3.1.0,59.95023453117353,
,,,C,D,g,b,R,U,d,L,u,,,,,13,8,268,10,0,0,0,0,,,,,0,12,12,8,,,,,,up,0.6004587657189404,2769.221997873703,None,001,61,2019_Oct_24_1304,ACPT_experiment_5_30_19,3.1.0,59.95023453117353,
,,,C,D,g,b,L,U,y,R,u,,,,,13,8,268,10,0,0,0,0,,,,,0,13,13,25,,,,,,up,0.4169893039179442,2771.106786943501,None,001,61,2019_Oct_24_1304,ACPT_experiment_5_30_19,3.1.0,59.95023453117353,
,,,C,D,g,b,L,G,d,L,i,,,,,13,8,268,10,0,0,0,0,,,,,0,14,14,16,,,,,,up,0.7339303707267391,2772.80810443848,None,001,61,2019_Oct_24_1304,ACPT_experiment_5_30_19,3.1.0,59.95023453117353,
,,,C,D,g,b,R,U,y,R,u,,,,,13,8,268,10,0,0,0,0,,,,,0,15,15,31,,,,,,down,0.6505003921156458,2774.8263376440864,None,001,61,2019_Oct_24_1304,ACPT_experiment_5_30_19,3.1.0,59.95023453117353,
,,,C,D,g,b,R,U,y,L,u,,,,,13,8,268,10,0,0,0,0,,,,,0,16,16,30,,,,,,down,0.58377258888504,2776.761167736555,None,001,61,2019_Oct_24_1304,ACPT_experiment_5_30_19,3.1.0,59.95023453117353,
,,,C,D,g,b,R,G,g,R,c ,,,,,13,8,268,10,0,0,0,0,,,,,0,17,17,7,,,,,,up,1.0174344859733537,2778.6626517371096,None,001,61,2019_Oct_24_1304,ACPT_experiment_5_30_19,3.1.0,59.95023453117353,
,,,C,D,g,b,L,D,y,L,y,,,,,13,8,268,10,0,0,0,0,,,,,0,18,18,32,,,,,,down,0.7005661672483257,2780.9643920765575,None,001,61,2019_Oct_24_1304,ACPT_experiment_5_30_19,3.1.0,59.95023453117353,
,,,C,D,g,b,R,D,d,R,c ,,,,,13,8,268,10,0,0,0,0,,,,,0,19,19,1,,,,,,down,0.700529944137088,2782.9492991129573,None,001,61,2019_Oct_24_1304,ACPT_experiment_5_30_19,3.1.0,59.95023453117353,
,,,C,D,g,b,R,D,d,L,c,,,,,13,8,268,10,0,0,0,0,,,,,0,20,20,0,,,,,,up,0.63382930824082,2784.917472278752,None,001,61,2019_Oct_24_1304,ACPT_experiment_5_30_19,3.1.0,59.95023453117353,
,,,C,D,g,b,L,D,d,R,c ,,,,,13,8,268,10,0,0,0,0,,,,,0,21,21,13,,,,,,up,0.6338178375881398,2786.835632494787,None,001,61,2019_Oct_24_1304,ACPT_experiment_5_30_19,3.1.0,59.95023453117353,
,,,C,D,g,b,R,G,g,L,c ,,,,,13,8,268,10,0,0,0,0,,,,,0,22,22,6,,,,,,up,0.7338950531921,2788.7537866736366,None,001,61,2019_Oct_24_1304,ACPT_experiment_5_30_19,3.1.0,59.95023453117353,
,,,C,D,g,b,R,G,d,R,i,,,,,13,8,268,10,0,0,0,0,,,,,0,23,23,5,,,,,,up,0.5170791976088367,2790.755313175976,None,001,61,2019_Oct_24_1304,ACPT_experiment_5_30_19,3.1.0,59.95023453117353,
,,,C,D,g,b,L,G,g,R,c ,,,,,13,8,268,10,0,0,0,0,,,,,0,24,24,19,,,,,,up,0.6338036502020259,2792.556742902232,None,001,61,2019_Oct_24_1304,ACPT_experiment_5_30_19,3.1.0,59.95023453117353,
,,,C,D,g,b,L,G,y,L,y,,,,,13,8,268,10,0,0,0,0,,,,,0,25,25,34,,,,,,down,0.6671805317673716,2794.474880780681,None,001,61,2019_Oct_24_1304,ACPT_experiment_5_30_19,3.1.0,59.95023453117353,
,,,C,D,g,b,L,G,d,R,i,,,,,13,8,268,10,0,0,0,0,,,,,0,26,26,17,,,,,,up,0.6003503982428811,2796.4263882960713,None,001,61,2019_Oct_24_1304,ACPT_experiment_5_30_19,3.1.0,59.95023453117353,
,,,C,D,g,b,L,D,g,L,i,,,,,13,8,268,10,0,0,0,0,,,,,0,27,27,14,,,,,,up,0.5170671232372115,2798.311180686318,None,001,61,2019_Oct_24_1304,ACPT_experiment_5_30_19,3.1.0,59.95023453117353,
,,,C,D,g,b,R,D,y,L,y,,,,,13,8,268,10,0,0,0,0,,,,,0,28,28,26,,,,,,down,0.817327748536627,2800.1125518518766,None,001,61,2019_Oct_24_1304,ACPT_experiment_5_30_19,3.1.0,59.95023453117353,
,,,C,D,g,b,R,U,g,L,u,,,,,13,8,268,10,0,0,0,0,,,,,0,29,29,10,,,,,,up,0.6504979772435036,2802.2142059803136,None,001,61,2019_Oct_24_1304,ACPT_experiment_5_30_19,3.1.0,59.95023453117353,
,,,C,D,g,b,L,D,d,L,c ,,,,,13,8,268,10,0,0,0,0,,,,,0,30,30,12,,,,,,up,0.48038035475838115,2804.169041192321,None,001,61,2019_Oct_24_1304,ACPT_experiment_5_30_19,3.1.0,59.95023453117353,
,,,C,D,g,b,R,G,y,R,y,,,,,13,8,268,10,0,0,0,0,,,,,0,31,31,29,,,,,,down,0.5837716833048034,2805.9337642273804,None,001,61,2019_Oct_24_1304,ACPT_experiment_5_30_19,3.1.0,59.95023453117353,
,,,C,D,g,b,L,U,g,R,u,,,,,13,8,268,10,0,0,0,0,,,,,0,32,32,23,,,,,,up,0.6671684573957464,2807.8018767798367,None,001,61,2019_Oct_24_1304,ACPT_experiment_5_30_19,3.1.0,59.95023453117353,
,,,C,D,g,b,R,U,d,R,u,,,,,13,8,268,10,0,0,0,0,,,,,0,33,33,9,,,,,,up,0.6004804995900486,2809.7533773524647,None,001,61,2019_Oct_24_1304,ACPT_experiment_5_30_19,3.1.0,59.95023453117353,
,,,C,D,g,b,R,D,g,R,i,,,,,13,8,268,10,0,0,0,0,,,,,0,34,34,3,,,,,,up,0.5504252895298123,2811.6381655166824,None,001,61,2019_Oct_24_1304,ACPT_experiment_5_30_19,3.1.0,59.95023453117353,
,,,C,D,g,b,L,U,d,R,u,,,,,13,8,268,10,0,0,0,0,,,,,0,35,35,21,,,,,,up,0.5170619916316355,2813.4729196009885,None,001,61,2019_Oct_24_1304,ACPT_experiment_5_30_19,3.1.0,59.95023453117353,
,,,C,D,g,b,R,G,g,L,c ,,,,,13,8,268,10,0,0,0,0,,,,,1,0,36,6,,,,,,up,0.5671012031489227,2815.2743125004145,None,001,61,2019_Oct_24_1304,ACPT_experiment_5_30_19,3.1.0,59.95023453117353,
,,,C,D,g,b,R,D,y,L,y,,,,,13,8,268,10,0,0,0,0,,,,,1,1,37,26,,,,,,down,1.0141179581514734,2817.1457599941077,None,001,61,2019_Oct_24_1304,ACPT_experiment_5_30_19,3.1.0,59.95023453117353,
,,,C,D,g,b,R,G,d,R,i,,,,,13,8,268,10,0,0,0,0,,,,,1,2,38,5,,,,,,up,1.150821570379776,2819.4442474980406,None,001,61,2019_Oct_24_1304,ACPT_experiment_5_30_19,3.1.0,59.95023453117353,
,,,C,D,g,b,L,G,g,R,c ,,,,,13,8,268,10,0,0,0,0,,,,,1,3,39,19,,,,,,up,0.9505892594825127,2821.8795400389154,None,001,61,2019_Oct_24_1304,ACPT_experiment_5_30_19,3.1.0,59.95023453117353,
,,,C,D,g,b,R,D,g,R,i,,,,,13,8,268,10,0,0,0,0,,,,,1,4,40,3,,,,,,up,0.5003767203743337,2824.1144909958402,None,001,61,2019_Oct_24_1304,ACPT_experiment_5_30_19,3.1.0,59.95023453117353,
,,,C,D,g,b,L,D,y,R,y,,,,,13,8,268,10,0,0,0,0,,,,,1,5,41,33,,,,,,down,0.8840084617222601,2825.899207679782,None,001,61,2019_Oct_24_1304,ACPT_experiment_5_30_19,3.1.0,59.95023453117353,
,,,C,D,g,b,R,U,d,R,u,,,,,13,8,268,10,0,0,0,0,,,,,1,6,42,9,,,,,,up,0.8840102728754573,2828.067551275324,None,001,61,2019_Oct_24_1304,ACPT_experiment_5_30_19,3.1.0,59.95023453117353,
,,,C,D,g,b,L,U,d,L,u,,,,,13,8,268,10,0,0,0,0,,,,,1,7,43,20,,,,,,up,0.6335473716826527,2830.236170166523,None,001,61,2019_Oct_24_1304,ACPT_experiment_5_30_19,3.1.0,59.95023453117353,
,,,C,D,g,b,R,U,g,L,u,,,,,13,8,268,10,0,0,0,0,,,,,1,8,44,10,,,,,,up,0.8006171210981847,2832.1540499552957,None,001,61,2019_Oct_24_1304,ACPT_experiment_5_30_19,3.1.0,59.95023453117353,
,,,C,D,g,b,L,G,g,L,c ,,,,,13,8,268,10,0,0,0,0,,,,,1,9,45,18,,,,,,up,0.4670218745341117,2834.238991946999,None,001,61,2019_Oct_24_1304,ACPT_experiment_5_30_19,3.1.0,59.95023453117353,
,,,C,D,g,b,L,D,d,R,c ,,,,,13,8,268,10,0,0,0,0,,,,,1,10,46,13,,,,,,up,0.834014830950764,2835.9903519739473,None,001,61,2019_Oct_24_1304,ACPT_experiment_5_30_19,3.1.0,59.95023453117353,
,,,C,D,g,b,L,G,y,R,y,,,,,13,8,268,10,0,0,0,0,,,,,1,11,47,35,,,,,,down,0.6672025674924953,2838.10863251109,None,001,61,2019_Oct_24_1304,ACPT_experiment_5_30_19,3.1.0,59.95023453117353,
,,,C,D,g,b,L,U,g,R,u,,,,,13,8,268,10,0,0,0,0,,,,,1,12,48,23,,,,,,up,0.6838597658424987,2840.060163571501,None,001,61,2019_Oct_24_1304,ACPT_experiment_5_30_19,3.1.0,59.95023453117353,
,,,C,D,g,b,R,U,y,L,u,,,,,13,8,268,10,0,0,0,0,,,,,1,13,49,30,,,,,,down,0.8339607981397421,2842.028372658553,None,001,61,2019_Oct_24_1304,ACPT_experiment_5_30_19,3.1.0,59.95023453117353,
,,,C,D,g,b,R,G,g,R,c ,,,,,13,8,268,10,0,0,0,0,,,,,1,14,50,7,,,,,,up,0.6004632936092094,2844.1466616477537,None,001,61,2019_Oct_24_1304,ACPT_experiment_5_30_19,3.1.0,59.95023453117353,
,,,C,D,g,b,L,D,g,R,i,,,,,13,8,268,10,0,0,0,0,,,,,1,15,51,15,,,,,,up,0.7839520744055335,2846.031452528705,None,001,61,2019_Oct_24_1304,ACPT_experiment_5_30_19,3.1.0,59.95023453117353,
,,,C,D,g,b,R,U,y,R,u,,,,,13,8,268,10,0,0,0,0,,,,,1,16,52,31,,,,,,down,0.5170641046497622,2848.099724040252,None,001,61,2019_Oct_24_1304,ACPT_experiment_5_30_19,3.1.0,59.95023453117353,
,,,C,D,g,b,L,U,y,L,u,,,,,13,8,268,10,0,0,0,0,,,,,1,17,53,24,,,,,,down,0.667189285686618,2849.884430460983,None,001,61,2019_Oct_24_1304,ACPT_experiment_5_30_19,3.1.0,59.95023453117353,
,,,C,D,g,b,L,D,d,L,c ,,,,,13,8,268,10,0,0,0,0,,,,,1,18,54,12,,,,,,up,0.6505025051301345,2851.8359506544602,None,001,61,2019_Oct_24_1304,ACPT_experiment_5_30_19,3.1.0,59.95023453117353,
,,,C,D,g,b,R,U,d,L,u,,,,,13,8,268,10,0,0,0,0,,,,,1,19,55,8,,,,,,up,0.5170785938935296,2853.770795236176,None,001,61,2019_Oct_24_1304,ACPT_experiment_5_30_19,3.1.0,59.95023453117353,
,,,C,D,g,b,R,G,d,L,i,,,,,13,8,268,10,0,0,0,0,,,,,1,20,56,4,,,,,,up,0.4836902416755038,2855.5888664641006,None,001,61,2019_Oct_24_1304,ACPT_experiment_5_30_19,3.1.0,59.95023453117353,
,,,C,D,g,b,R,G,y,L,y,,,,,13,8,268,10,0,0,0,0,,,,,1,21,57,28,,,,,,down,0.6504949586487783,2857.3568936507527,None,001,61,2019_Oct_24_1304,ACPT_experiment_5_30_19,3.1.0,59.95023453117353,
,,,C,D,g,b,L,D,g,L,i,,,,,13,8,268,10,0,0,0,0,,,,,1,22,58,14,,,,,,up,0.6338199506026285,2859.325084928105,None,001,61,2019_Oct_24_1304,ACPT_experiment_5_30_19,3.1.0,59.95023453117353,
,,,C,D,g,b,L,G,d,L,i,,,,,13,8,268,10,0,0,0,0,,,,,1,23,59,16,,,,,,up,0.6505091460348922,2861.243221900977,None,001,61,2019_Oct_24_1304,ACPT_experiment_5_30_19,3.1.0,59.95023453117353,
,,,C,D,g,b,L,G,y,L,y,,,,,13,8,268,10,0,0,0,0,,,,,1,24,60,34,,,,,,down,0.6338214599018102,2863.1780649733973,None,001,61,2019_Oct_24_1304,ACPT_experiment_5_30_19,3.1.0,59.95023453117353,
,,,C,D,g,b,L,D,y,L,y,,,,,13,8,268,10,0,0,0,0,,,,,1,25,61,32,,,,,,down,0.4169853797502583,2865.0962134169185,None,001,61,2019_Oct_24_1304,ACPT_experiment_5_30_19,3.1.0,59.95023453117353,
,,,C,D,g,b,R,D,d,L,c,,,,,13,8,268,10,0,0,0,0,,,,,1,26,62,0,,,,,,up,0.5670984864154889,2866.7975481178783,None,001,61,2019_Oct_24_1304,ACPT_experiment_5_30_19,3.1.0,59.95023453117353,
,,,C,D,g,b,L,U,d,R,u,,,,,13,8,268,10,0,0,0,0,,,,,1,27,63,21,,,,,,up,0.5170532377123891,2868.6656546331487,None,001,61,2019_Oct_24_1304,ACPT_experiment_5_30_19,3.1.0,59.95023453117353,
,,,C,D,g,b,L,G,d,R,i,,,,,13,8,268,10,0,0,0,0,,,,,1,28,64,17,,,,,,up,0.40029135457007214,2870.450370109653,None,001,61,2019_Oct_24_1304,ACPT_experiment_5_30_19,3.1.0,59.95023453117353,
,,,C,D,g,b,R,U,g,R,u,,,,,13,8,268,10,0,0,0,0,,,,,1,29,65,11,,,,,,up,0.5004123397666262,2872.1349993147796,None,001,61,2019_Oct_24_1304,ACPT_experiment_5_30_19,3.1.0,59.95023453117353,
,,,C,D,g,b,R,D,d,R,c ,,,,,13,8,268,10,0,0,0,0,,,,,1,30,66,1,,,,,,up,0.3502615006873384,2873.919714489426,None,001,61,2019_Oct_24_1304,ACPT_experiment_5_30_19,3.1.0,59.95023453117353,
,,,C,D,g,b,L,U,g,L,u,,,,,13,8,268,10,0,0,0,0,,,,,1,31,67,22,,,,,,up,0.5971404267475009,2875.574313526735,None,001,61,2019_Oct_24_1304,ACPT_experiment_5_30_19,3.1.0,59.95023453117353,
,,,C,D,g,b,R,D,y,R,y,,,,,13,8,268,10,0,0,0,0,,,,,1,32,68,27,,,,,,down,0.4169844741700217,2877.4557845594154,None,001,61,2019_Oct_24_1304,ACPT_experiment_5_30_19,3.1.0,59.95023453117353,
,,,C,D,g,b,R,G,y,R,y,,,,,13,8,268,10,0,0,0,0,,,,,1,33,69,29,,,,,,down,0.500384870570997,2879.1570948097706,None,001,61,2019_Oct_24_1304,ACPT_experiment_5_30_19,3.1.0,59.95023453117353,
,,,C,D,g,b,L,U,y,R,u,,,,,13,8,268,10,0,0,0,0,,,,,1,34,70,25,,,,,,down,0.45036316689220257,2880.9251153555215,None,001,61,2019_Oct_24_1304,ACPT_experiment_5_30_19,3.1.0,59.95023453117353,
,,,C,D,g,b,R,D,g,L,i,,,,,13,8,268,10,0,0,0,0,,,,,1,35,71,2,,,,,,up,0.5804509294539457,2882.679820586922,None,001,61,2019_Oct_24_1304,ACPT_experiment_5_30_19,3.1.0,59.95023453117353,
,,,C,D,g,b,,,,,,,,,,13,8,268,10,1,0,1,0,0,0,0,0,,,,,,,,,,,,,,001,61,2019_Oct_24_1304,ACPT_experiment_5_30_19,3.1.0,59.95023453117353,
,,,C,D,g,b,L,D,y,R,y,,,,,13,8,268,10,1,0,1,0,,,,,0,0,0,33,,,,,,down,0.6335313731397036,2896.987858616363,None,001,61,2019_Oct_24_1304,ACPT_experiment_5_30_19,3.1.0,59.95023453117353,
,,,C,D,g,b,R,D,y,R,y,,,,,13,8,268,10,1,0,1,0,,,,,0,1,1,27,,,,,,down,0.3669679020931653,2898.889018118198,None,001,61,2019_Oct_24_1304,ACPT_experiment_5_30_19,3.1.0,59.95023453117353,
,,,C,D,g,b,R,D,g,R,i,,,,,13,8,268,10,1,0,1,0,,,,,0,2,2,3,,,,,,up,0.5003984542418038,2900.52362229919,None,001,61,2019_Oct_24_1304,ACPT_experiment_5_30_19,3.1.0,59.95023453117353,
,,,C,D,g,b,L,U,d,L,u,,,,,13,8,268,10,1,0,1,0,,,,,0,3,3,20,,,,,,up,0.46700346111902036,2902.3083703764987,None,001,61,2019_Oct_24_1304,ACPT_experiment_5_30_19,3.1.0,59.95023453117353,
,,,C,D,g,b,L,U,d,R,u,,,,,13,8,268,10,1,0,1,0,,,,,0,4,4,21,,,,,,up,0.733649641602824,2904.0766348245397,None,001,61,2019_Oct_24_1304,ACPT_experiment_5_30_19,3.1.0,59.95023453117353,
,,,C,D,g,b,R,G,d,L,i,,,,,13,8,268,10,1,0,1,0,,,,,0,5,5,4,,,,,,up,0.5170635009271791,2906.0946153739333,None,001,61,2019_Oct_24_1304,ACPT_experiment_5_30_19,3.1.0,59.95023453117353,
,,,C,D,g,b,L,D,y,L,y,,,,,13,8,268,10,1,0,1,0,,,,,0,6,6,32,,,,,,up,0.43366008593147853,2907.896015517983,None,001,61,2019_Oct_24_1304,ACPT_experiment_5_30_19,3.1.0,59.95023453117353,
,,,C,D,g,b,L,U,g,L,u,,,,,13,8,268,10,1,0,1,0,,,,,0,7,7,22,,,,,,up,0.48369597700002487,2909.6140116433144,None,001,61,2019_Oct_24_1304,ACPT_experiment_5_30_19,3.1.0,59.95023453117353,
,,,C,D,g,b,R,U,g,R,u,,,,,13,8,268,10,1,0,1,0,,,,,0,8,8,11,,,,,,up,0.5668325483966328,2911.3989945671365,None,001,61,2019_Oct_24_1304,ACPT_experiment_5_30_19,3.1.0,59.95023453117353,
,,,C,D,g,b,R,D,d,L,c,,,,,13,8,268,10,1,0,1,0,,,,,0,9,9,0,,,,,,up,0.48372676664803294,2913.2501335727266,None,001,61,2019_Oct_24_1304,ACPT_experiment_5_30_19,3.1.0,59.95023453117353,
,,,C,D,g,b,L,G,g,R,c ,,,,,13,8,268,10,1,0,1,0,,,,,0,10,10,19,,,,,,up,0.45034505533476477,2915.018191850888,None,001,61,2019_Oct_24_1304,ACPT_experiment_5_30_19,3.1.0,59.95023453117353,
,,,C,D,g,b,R,G,g,L,c ,,,,,13,8,268,10,1,0,1,0,,,,,0,11,11,6,,,,,,up,0.46702006337727653,2916.7528726437613,None,001,61,2019_Oct_24_1304,ACPT_experiment_5_30_19,3.1.0,59.95023453117353,
,,,C,D,g,b,L,D,g,R,i,,,,,13,8,268,10,1,0,1,0,,,,,0,12,12,15,,,,,,up,0.40004654669974116,2918.521182974413,None,001,61,2019_Oct_24_1304,ACPT_experiment_5_30_19,3.1.0,59.95023453117353,
,,,C,D,g,b,R,U,d,R,u,,,,,13,8,268,10,1,0,1,0,,,,,0,13,13,9,,,,,,up,0.40030856055091135,2920.2055417136307,None,001,61,2019_Oct_24_1304,ACPT_experiment_5_30_19,3.1.0,59.95023453117353,
,,,C,D,g,b,L,D,d,R,c ,,,,,13,8,268,10,1,0,1,0,,,,,0,14,14,13,,,,,,up,0.4336606896504236,2921.8901817856913,None,001,61,2019_Oct_24_1304,ACPT_experiment_5_30_19,3.1.0,59.95023453117353,
,,,C,D,g,b,L,D,d,L,c ,,,,,13,8,268,10,1,0,1,0,,,,,0,15,15,12,,,,,,up,0.7172384585610416,2923.5914748300693,None,001,61,2019_Oct_24_1304,ACPT_experiment_5_30_19,3.1.0,59.95023453117353,
,,,C,D,g,b,R,G,g,R,c ,,,,,13,8,268,10,1,0,1,0,,,,,0,16,16,7,,,,,,up,0.45006402434955817,2925.6100044614814,None,001,61,2019_Oct_24_1304,ACPT_experiment_5_30_19,3.1.0,59.95023453117353,
,,,C,D,g,b,L,U,g,R,u,,,,,13,8,268,10,1,0,1,0,,,,,0,17,17,23,,,,,,up,0.4503495832250337,2927.3444030159353,None,001,61,2019_Oct_24_1304,ACPT_experiment_5_30_19,3.1.0,59.95023453117353,
,,,C,D,g,b,R,D,d,R,c ,,,,,13,8,268,10,1,0,1,0,,,,,0,18,18,1,,,,,,up,0.40030614567149314,2929.0790747530355,None,001,61,2019_Oct_24_1304,ACPT_experiment_5_30_19,3.1.0,59.95023453117353,
,,,C,D,g,b,L,G,d,L,i,,,,,13,8,268,10,1,0,1,0,,,,,0,19,19,16,,,,,,up,0.6171482630124956,2930.7470319687072,None,001,61,2019_Oct_24_1304,ACPT_experiment_5_30_19,3.1.0,59.95023453117353,
,,,C,D,g,b,R,U,g,L,u,,,,,13,8,268,10,1,0,1,0,,,,,0,20,20,10,,,,,,up,0.36666936327674193,2932.665459933918,None,001,61,2019_Oct_24_1304,ACPT_experiment_5_30_19,3.1.0,59.95023453117353,
,,,C,D,g,b,L,G,y,R,y,,,,,13,8,268,10,1,0,1,0,,,,,0,21,21,35,,,,,,down,0.6171407165275014,2934.316464732876,None,001,61,2019_Oct_24_1304,ACPT_experiment_5_30_19,3.1.0,59.95023453117353,
,,,C,D,g,b,L,G,g,L,c ,,,,,13,8,268,10,1,0,1,0,,,,,0,22,22,18,,,,,,up,0.4503616575966589,2936.21793514976,None,001,61,2019_Oct_24_1304,ACPT_experiment_5_30_19,3.1.0,59.95023453117353,
,,,C,D,g,b,R,U,y,R,u,,,,,13,8,268,10,1,0,1,0,,,,,0,23,23,31,,,,,,down,0.6671877763874363,2937.952615338918,None,001,61,2019_Oct_24_1304,ACPT_experiment_5_30_19,3.1.0,59.95023453117353,
,,,C,D,g,b,R,G,d,R,i,,,,,13,8,268,10,1,0,1,0,,,,,0,24,24,5,,,,,,up,0.5471157044703432,2939.9241312942922,None,001,61,2019_Oct_24_1304,ACPT_experiment_5_30_19,3.1.0,59.95023453117353,
,,,C,D,g,b,R,G,y,R,y,,,,,13,8,268,10,1,0,1,0,,,,,0,25,25,29,,,,,,down,0.9674151971667015,2941.7388778441946,None,001,61,2019_Oct_24_1304,ACPT_experiment_5_30_19,3.1.0,59.95023453117353,
,,,C,D,g,b,R,D,g,L,i,,,,,13,8,268,10,1,0,1,0,,,,,0,26,26,2,,,,,,up,0.5337430368635978,2943.990622137995,None,001,61,2019_Oct_24_1304,ACPT_experiment_5_30_19,3.1.0,59.95023453117353,
,,,C,D,g,b,L,D,g,L,i,,,,,13,8,268,10,1,0,1,0,,,,,0,27,27,14,,,,,,up,0.5504198560629447,2945.808699704963,None,001,61,2019_Oct_24_1304,ACPT_experiment_5_30_19,3.1.0,59.95023453117353,
,,,C,D,g,b,R,D,y,L,y,,,,,13,8,268,10,1,0,1,0,,,,,0,28,28,26,,,,,,down,0.5671033161670493,2947.6434483558023,None,001,61,2019_Oct_24_1304,ACPT_experiment_5_30_19,3.1.0,59.95023453117353,
,,,C,D,g,b,R,G,y,L,y,,,,,13,8,268,10,1,0,1,0,,,,,0,29,29,28,,,,,,down,0.5003815501186182,2949.494879561169,None,001,61,2019_Oct_24_1304,ACPT_experiment_5_30_19,3.1.0,59.95023453117353,
,,,C,D,g,b,R,U,d,L,u,,,,,13,8,268,10,1,0,1,0,,,,,0,30,30,8,,,,,,up,0.5170592748945637,2951.2795998674246,None,001,61,2019_Oct_24_1304,ACPT_experiment_5_30_19,3.1.0,59.95023453117353,
,,,C,D,g,b,L,G,d,R,i,,,,,13,8,268,10,1,0,1,0,,,,,0,31,31,17,,,,,,up,0.5304056807508459,2953.1010084514546,None,001,61,2019_Oct_24_1304,ACPT_experiment_5_30_19,3.1.0,59.95023453117353,
,,,C,D,g,b,R,U,y,L,u,,,,,13,8,268,10,1,0,1,0,,,,,0,32,32,30,,,,,,down,0.6671720797057787,2954.9157501716054,None,001,61,2019_Oct_24_1304,ACPT_experiment_5_30_19,3.1.0,59.95023453117353,
,,,C,D,g,b,L,U,y,L,u,,,,,13,8,268,10,1,0,1,0,,,,,0,33,33,24,,,,,,down,0.4336860458315641,2956.867252253529,None,001,61,2019_Oct_24_1304,ACPT_experiment_5_30_19,3.1.0,59.95023453117353,
,,,C,D,g,b,L,U,y,R,u,,,,,13,8,268,10,1,0,1,0,,,,,0,34,34,25,,,,,,down,0.6171431314032816,2958.585249586302,None,001,61,2019_Oct_24_1304,ACPT_experiment_5_30_19,3.1.0,59.95023453117353,
,,,C,D,g,b,L,G,y,L,y,,,,,13,8,268,10,1,0,1,0,,,,,0,35,35,34,,,,,,down,0.5004044914239785,2960.486723927357,None,001,61,2019_Oct_24_1304,ACPT_experiment_5_30_19,3.1.0,59.95023453117353,
,,,C,D,g,b,L,U,d,R,u,,,,,13,8,268,10,1,0,1,0,,,,,1,0,36,21,,,,,,up,0.4670067815713992,2962.2714563079844,None,001,61,2019_Oct_24_1304,ACPT_experiment_5_30_19,3.1.0,59.95023453117353,
,,,C,D,g,b,R,G,d,R,i,,,,,13,8,268,10,1,0,1,0,,,,,1,1,37,5,,,,,,up,0.7005577151903708,2964.022777998807,None,001,61,2019_Oct_24_1304,ACPT_experiment_5_30_19,3.1.0,59.95023453117353,
,,,C,D,g,b,L,U,g,R,u,,,,,13,8,268,10,1,0,1,0,,,,,1,2,38,23,,,,,,up,0.5137345968760201,2966.0276762692138,None,001,61,2019_Oct_24_1304,ACPT_experiment_5_30_19,3.1.0,59.95023453117353,
,,,C,D,g,b,L,D,d,L,c ,,,,,13,8,268,10,1,0,1,0,,,,,1,3,39,12,,,,,,up,0.5337445461591415,2967.8257393590084,None,001,61,2019_Oct_24_1304,ACPT_experiment_5_30_19,3.1.0,59.95023453117353,
,,,C,D,g,b,L,D,y,L,y,,,,,13,8,268,10,1,0,1,0,,,,,1,4,40,32,,,,,,up,0.46701734664748074,2969.6604940470334,None,001,61,2019_Oct_24_1304,ACPT_experiment_5_30_19,3.1.0,59.95023453117353,
,,,C,D,g,b,R,G,g,L,c ,,,,,13,8,268,10,1,0,1,0,,,,,1,5,41,6,,,,,,up,0.5671214277208492,2971.4285275727325,None,001,61,2019_Oct_24_1304,ACPT_experiment_5_30_19,3.1.0,59.95023453117353,
,,,C,D,g,b,R,D,g,R,i,,,,,13,8,268,10,1,0,1,0,,,,,1,6,42,3,,,,,,up,0.40002179424118367,2973.2969181375756,None,001,61,2019_Oct_24_1304,ACPT_experiment_5_30_19,3.1.0,59.95023453117353,
,,,C,D,g,b,R,G,y,R,y,,,,,13,8,268,10,1,0,1,0,,,,,1,7,43,29,,,,,,down,0.6171449425601168,2974.9812768767933,None,001,61,2019_Oct_24_1304,ACPT_experiment_5_30_19,3.1.0,59.95023453117353,
,,,C,D,g,b,R,D,d,L,c,,,,,13,8,268,10,1,0,1,0,,,,,1,8,44,0,,,,,,up,0.633819648744975,2976.8827500104144,None,001,61,2019_Oct_24_1304,ACPT_experiment_5_30_19,3.1.0,59.95023453117353,
,,,C,D,g,b,L,G,y,L,y,,,,,13,8,268,10,1,0,1,0,,,,,1,9,45,34,,,,,,down,0.5837907004388398,2978.800906905997,None,001,61,2019_Oct_24_1304,ACPT_experiment_5_30_19,3.1.0,59.95023453117353,
,,,C,D,g,b,R,G,g,R,c ,,,,,13,8,268,10,1,0,1,0,,,,,1,10,46,7,,,,,,up,0.5335127182370343,2980.6859190497944,None,001,61,2019_Oct_24_1304,ACPT_experiment_5_30_19,3.1.0,59.95023453117353,
,,,C,D,g,b,L,G,g,R,c ,,,,,13,8,268,10,1,0,1,0,,,,,1,11,47,19,,,,,,up,0.5003800408230745,2982.5037699204495,None,001,61,2019_Oct_24_1304,ACPT_experiment_5_30_19,3.1.0,59.95023453117353,
,,,C,D,g,b,L,U,y,L,u,,,,,13,8,268,10,1,0,1,0,,,,,1,12,48,24,,,,,,down,0.600444276475173,2984.288489924844,None,001,61,2019_Oct_24_1304,ACPT_experiment_5_30_19,3.1.0,59.95023453117353,
,,,C,D,g,b,L,D,g,L,i,,,,,13,8,268,10,1,0,1,0,,,,,1,13,49,14,,,,,,up,0.700439386357175,2986.1732735611713,None,001,61,2019_Oct_24_1304,ACPT_experiment_5_30_19,3.1.0,59.95023453117353,
,,,C,D,g,b,R,U,d,L,u,,,,,13,8,268,10,1,0,1,0,,,,,1,14,50,8,,,,,,up,0.5000947838125285,2988.1751203361982,None,001,61,2019_Oct_24_1304,ACPT_experiment_5_30_19,3.1.0,59.95023453117353,
,,,C,D,g,b,R,U,g,L,u,,,,,13,8,268,10,1,0,1,0,,,,,1,15,51,10,,,,,,up,0.5003921151946997,2989.9428580398107,None,001,61,2019_Oct_24_1304,ACPT_experiment_5_30_19,3.1.0,59.95023453117353,
,,,C,D,g,b,L,G,d,R,i,,,,,13,8,268,10,1,0,1,0,,,,,1,16,52,17,,,,,,up,0.45034958322139573,2991.727574421895,None,001,61,2019_Oct_24_1304,ACPT_experiment_5_30_19,3.1.0,59.95023453117353,
,,,C,D,g,b,L,U,y,R,u,,,,,13,8,268,10,1,0,1,0,,,,,1,17,53,25,,,,,,down,0.6670694475542405,2993.4622527998963,None,001,61,2019_Oct_24_1304,ACPT_experiment_5_30_19,3.1.0,59.95023453117353,
,,,C,D,g,b,R,U,y,L,u,,,,,13,8,268,10,1,0,1,0,,,,,1,18,54,30,,,,,,down,0.4469880783690314,2995.4337913947184,None,001,61,2019_Oct_24_1304,ACPT_experiment_5_30_19,3.1.0,59.95023453117353,
,,,C,D,g,b,R,D,y,L,y,,,,,13,8,268,10,1,0,1,0,,,,,1,19,55,26,,,,,,down,0.6671687592533999,2997.1817965577193,None,001,61,2019_Oct_24_1304,ACPT_experiment_5_30_19,3.1.0,59.95023453117353,
,,,C,D,g,b,L,U,d,L,u,,,,,13,8,268,10,1,0,1,0,,,,,1,20,56,20,,,,,,down,0.41697873884186265,2999.149991155524,None,001,61,2019_Oct_24_1304,ACPT_experiment_5_30_19,3.1.0,59.95023453117353,
,,,C,D,g,b,R,D,d,R,c ,,,,,13,8,268,10,1,0,1,0,,,,,1,21,57,1,,,,,,up,0.5671015050102142,3000.8513044244737,None,001,61,2019_Oct_24_1304,ACPT_experiment_5_30_19,3.1.0,59.95023453117353,
,,,C,D,g,b,R,U,y,R,u,,,,,13,8,268,10,1,0,1,0,,,,,1,22,58,31,,,,,,down,0.633819648744975,3002.752773332062,None,001,61,2019_Oct_24_1304,ACPT_experiment_5_30_19,3.1.0,59.95023453117353,
,,,C,D,g,b,R,G,d,L,i,,,,,13,8,268,10,1,0,1,0,,,,,1,23,59,4,,,,,,up,0.5170478042455215,3004.687611876592,None,001,61,2019_Oct_24_1304,ACPT_experiment_5_30_19,3.1.0,59.95023453117353,
,,,C,D,g,b,L,D,g,R,i,,,,,13,8,268,10,1,0,1,0,,,,,1,24,60,15,,,,,,up,0.4670206670962216,3006.4890065871714,None,001,61,2019_Oct_24_1304,ACPT_experiment_5_30_19,3.1.0,59.95023453117353,
,,,C,D,g,b,L,G,g,L,c ,,,,,13,8,268,10,1,0,1,0,,,,,1,25,61,18,,,,,,up,0.5170619916279975,3008.240359671361,None,001,61,2019_Oct_24_1304,ACPT_experiment_5_30_19,3.1.0,59.95023453117353,
,,,C,D,g,b,L,D,y,R,y,,,,,13,8,268,10,1,0,1,0,,,,,1,26,62,33,,,,,,down,0.5504144225960772,3010.0417574005314,None,001,61,2019_Oct_24_1304,ACPT_experiment_5_30_19,3.1.0,59.95023453117353,
,,,C,D,g,b,L,G,y,R,y,,,,,13,8,268,10,1,0,1,0,,,,,1,27,63,35,,,,,,down,0.5003824556952168,3011.859826817299,None,001,61,2019_Oct_24_1304,ACPT_experiment_5_30_19,3.1.0,59.95023453117353,
,,,C,D,g,b,R,D,y,R,y,,,,,13,8,268,10,1,0,1,0,,,,,1,28,64,27,,,,,,down,0.5003788333851844,3013.644547123551,None,001,61,2019_Oct_24_1304,ACPT_experiment_5_30_19,3.1.0,59.95023453117353,
,,,C,D,g,b,L,D,d,R,c ,,,,,13,8,268,10,1,0,1,0,,,,,1,29,65,13,,,,,,up,0.6669330071636068,3015.446177888085,None,001,61,2019_Oct_24_1304,ACPT_experiment_5_30_19,3.1.0,59.95023453117353,
,,,C,D,g,b,R,U,g,R,u,,,,,13,8,268,10,1,0,1,0,,,,,1,30,66,11,,,,,,up,1.0506734178488841,3017.3974574997246,None,001,61,2019_Oct_24_1304,ACPT_experiment_5_30_19,3.1.0,59.95023453117353,
,,,C,D,g,b,L,U,g,L,u,,,,,13,8,268,10,1,0,1,0,,,,,1,31,67,22,,,,,,up,0.5504243839495757,3019.7325870969635,None,001,61,2019_Oct_24_1304,ACPT_experiment_5_30_19,3.1.0,59.95023453117353,
,,,C,D,g,b,R,D,g,L,i,,,,,13,8,268,10,1,0,1,0,,,,,1,32,68,2,,,,,,up,0.4336646138217475,3021.567341483131,None,001,61,2019_Oct_24_1304,ACPT_experiment_5_30_19,3.1.0,59.95023453117353,
,,,C,D,g,b,R,U,d,R,u,,,,,13,8,268,10,1,0,1,0,,,,,1,33,69,9,,,,,,up,0.4003547450192855,3023.2853394196227,None,001,61,2019_Oct_24_1304,ACPT_experiment_5_30_19,3.1.0,59.95023453117353,
,,,C,D,g,b,R,G,y,L,y,,,,,13,8,268,10,1,0,1,0,,,,,1,34,70,28,,,,,,down,0.5670999957110325,3024.969976774946,None,001,61,2019_Oct_24_1304,ACPT_experiment_5_30_19,3.1.0,59.95023453117353,
,,,C,D,g,b,L,G,d,L,i,,,,,13,8,268,10,1,0,1,0,,,,,1,35,71,16,,,,,,up,0.7005719025764847,3026.8214097914697,None,001,61,2019_Oct_24_1304,ACPT_experiment_5_30_19,3.1.0,59.95023453117353,
,,,C,D,g,b,,,,,,,,,,13,8,268,10,2,0,2,0,0,0,0,0,,,,,,,,,,,,,,001,61,2019_Oct_24_1304,ACPT_experiment_5_30_19,3.1.0,59.95023453117353,
,,,C,D,g,b,L,U,g,L,u,,,,,13,8,268,10,2,0,2,0,,,,,0,0,0,22,,,,,,up,0.58349246348007,3039.998565564738,None,001,61,2019_Oct_24_1304,ACPT_experiment_5_30_19,3.1.0,59.95023453117353,
,,,C,D,g,b,R,G,d,R,i,,,,,13,8,268,10,2,0,2,0,,,,,0,1,1,5,,,,,,up,0.4503393200066057,3041.866391049027,None,001,61,2019_Oct_24_1304,ACPT_experiment_5_30_19,3.1.0,59.95023453117353,
,,,C,D,g,b,L,G,d,R,i,,,,,13,8,268,10,2,0,2,0,,,,,0,2,2,17,,,,,,up,0.4336618970883137,3043.601065804718,None,001,61,2019_Oct_24_1304,ACPT_experiment_5_30_19,3.1.0,59.95023453117353,
,,,C,D,g,b,R,U,g,R,u,,,,,13,8,268,10,2,0,2,0,,,,,0,3,3,11,,,,,,up,0.3836305339100363,3045.3190577040205,None,001,61,2019_Oct_24_1304,ACPT_experiment_5_30_19,3.1.0,59.95023453117353,
,,,C,D,g,b,R,D,d,R,c ,,,,,13,8,268,10,2,0,2,0,,,,,0,4,4,1,,,,,,up,0.3499916385007964,3047.003975486614,None,001,61,2019_Oct_24_1304,ACPT_experiment_5_30_19,3.1.0,59.95023453117353,
,,,C,D,g,b,L,G,y,R,y,,,,,13,8,268,10,2,0,2,0,,,,,0,5,5,35,,,,,,down,0.5670993919957255,3048.6382998440586,None,001,61,2019_Oct_24_1304,ACPT_experiment_5_30_19,3.1.0,59.95023453117353,
,,,C,D,g,b,R,U,y,R,u,,,,,13,8,268,10,2,0,2,0,,,,,0,6,6,31,,,,,,down,0.5169539260132296,3050.489735879173,None,001,61,2019_Oct_24_1304,ACPT_experiment_5_30_19,3.1.0,59.95023453117353,
,,,C,D,g,b,L,U,d,L,u,,,,,13,8,268,10,2,0,2,0,,,,,0,7,7,20,,,,,,up,0.9507456225874193,3052.2911308916136,None,001,61,2019_Oct_24_1304,ACPT_experiment_5_30_19,3.1.0,59.95023453117353,
,,,C,D,g,b,L,U,d,R,u,,,,,13,8,268,10,2,0,2,0,,,,,0,8,8,21,,,,,,up,0.7672770663630217,3054.509514604253,None,001,61,2019_Oct_24_1304,ACPT_experiment_5_30_19,3.1.0,59.95023453117353,
,,,C,D,g,b,R,G,g,L,c ,,,,,13,8,268,10,2,0,2,0,,,,,0,9,9,6,,,,,,up,0.5504204597818898,3056.561099938963,None,001,61,2019_Oct_24_1304,ACPT_experiment_5_30_19,3.1.0,59.95023453117353,
,,,C,D,g,b,L,D,y,R,y,,,,,13,8,268,10,2,0,2,0,,,,,0,10,10,33,,,,,,down,0.4670140261951019,3058.395857343721,None,001,61,2019_Oct_24_1304,ACPT_experiment_5_30_19,3.1.0,59.95023453117353,
,,,C,D,g,b,L,D,g,L,i,,,,,13,8,268,10,2,0,2,0,,,,,0,11,11,14,,,,,,up,0.6138329426248674,3060.167223395785,None,001,61,2019_Oct_24_1304,ACPT_experiment_5_30_19,3.1.0,59.95023453117353,
,,,C,D,g,b,R,G,y,L,y,,,,,13,8,268,10,2,0,2,0,,,,,0,12,12,28,,,,,,down,0.5504271006866475,3062.0653561546987,None,001,61,2019_Oct_24_1304,ACPT_experiment_5_30_19,3.1.0,59.95023453117353,
,,,C,D,g,b,R,G,d,L,i,,,,,13,8,268,10,2,0,2,0,,,,,0,13,13,4,,,,,,down,0.4503483757871436,3063.9001120501616,None,001,61,2019_Oct_24_1304,ACPT_experiment_5_30_19,3.1.0,59.95023453117353,
,,,C,D,g,b,L,D,y,L,y,,,,,13,8,268,10,2,0,2,0,,,,,0,14,14,32,,,,,,up,0.6338259877884411,3065.634783787258,None,001,61,2019_Oct_24_1304,ACPT_experiment_5_30_19,3.1.0,59.95023453117353,
,,,C,D,g,b,L,G,g,R,c ,,,,,13,8,268,10,2,0,2,0,,,,,0,15,15,19,,,,,,up,1.0841734579953481,3067.552941890279,None,001,61,2019_Oct_24_1304,ACPT_experiment_5_30_19,3.1.0,59.95023453117353,
,,,C,D,g,b,R,D,g,R,i,,,,,13,8,268,10,2,0,2,0,,,,,0,16,16,3,,,,,,up,0.5337354903786036,3069.921443539335,None,001,61,2019_Oct_24_1304,ACPT_experiment_5_30_19,3.1.0,59.95023453117353,
,,,C,D,g,b,R,D,d,L,c,,,,,13,8,268,10,2,0,2,0,,,,,0,17,17,0,,,,,,up,0.5003906058991561,3071.739516880274,None,001,61,2019_Oct_24_1304,ACPT_experiment_5_30_19,3.1.0,59.95023453117353,
,,,C,D,g,b,L,G,g,L,c ,,,,,13,8,268,10,2,0,2,0,,,,,0,18,18,18,,,,,,up,0.4499094724051247,3073.541316685996,None,001,61,2019_Oct_24_1304,ACPT_experiment_5_30_19,3.1.0,59.95023453117353,
,,,C,D,g,b,R,G,g,R,c ,,,,,13,8,268,10,2,0,2,0,,,,,0,19,19,7,,,,,,up,0.48370291976607405,3075.2755896669933,None,001,61,2019_Oct_24_1304,ACPT_experiment_5_30_19,3.1.0,59.95023453117353,
,,,C,D,g,b,R,U,d,L,u,,,,,13,8,268,10,2,0,2,0,,,,,0,20,20,8,,,,,,up,0.533769902336644,3077.043624701988,None,001,61,2019_Oct_24_1304,ACPT_experiment_5_30_19,3.1.0,59.95023453117353,
,,,C,D,g,b,R,D,y,L,y,,,,,13,8,268,10,2,0,2,0,,,,,0,21,21,26,,,,,,up,0.43366068965406157,3078.8783739565497,None,001,61,2019_Oct_24_1304,ACPT_experiment_5_30_19,3.1.0,59.95023453117353,
,,,C,D,g,b,R,D,g,L,i,,,,,13,8,268,10,2,0,2,0,,,,,0,22,22,2,,,,,,up,0.4802430087875109,3080.633178499649,None,001,61,2019_Oct_24_1304,ACPT_experiment_5_30_19,3.1.0,59.95023453117353,
,,,C,D,g,b,R,D,y,R,y,,,,,13,8,268,10,2,0,2,0,,,,,0,23,23,27,,,,,,down,0.4169965485416469,3082.3977533218113,None,001,61,2019_Oct_24_1304,ACPT_experiment_5_30_19,3.1.0,59.95023453117353,
,,,C,D,g,b,R,U,y,L,u,,,,,13,8,268,10,2,0,2,0,,,,,0,24,24,30,,,,,,down,0.4837041272003262,3084.099082891158,None,001,61,2019_Oct_24_1304,ACPT_experiment_5_30_19,3.1.0,59.95023453117353,
,,,C,D,g,b,L,U,y,L,u,,,,,13,8,268,10,2,0,2,0,,,,,0,25,25,24,,,,,,down,0.41698809648369206,3085.8671161149996,None,001,61,2019_Oct_24_1304,ACPT_experiment_5_30_19,3.1.0,59.95023453117353,
,,,C,D,g,b,R,U,d,R,u,,,,,13,8,268,10,2,0,2,0,,,,,0,26,26,9,,,,,,up,0.400054998761334,3087.5853718393064,None,001,61,2019_Oct_24_1304,ACPT_experiment_5_30_19,3.1.0,59.95023453117353,
,,,C,D,g,b,L,U,g,R,u,,,,,13,8,268,10,2,0,2,0,,,,,0,27,27,23,,,,,,up,0.40030644753278466,3089.2697523123916,None,001,61,2019_Oct_24_1304,ACPT_experiment_5_30_19,3.1.0,59.95023453117353,
,,,C,D,g,b,R,G,y,R,y,,,,,13,8,268,10,2,0,2,0,,,,,0,28,28,29,,,,,,down,0.583586945431307,3090.9712294909277,None,001,61,2019_Oct_24_1304,ACPT_experiment_5_30_19,3.1.0,59.95023453117353,
,,,C,D,g,b,L,U,y,R,u,,,,,13,8,268,10,2,0,2,0,,,,,0,29,29,25,,,,,,down,0.4670209689575131,3092.8558637069164,None,001,61,2019_Oct_24_1304,ACPT_experiment_5_30_19,3.1.0,59.95023453117353,
,,,C,D,g,b,L,D,g,R,i,,,,,13,8,268,10,2,0,2,0,,,,,0,30,30,15,,,,,,up,0.7837311134171614,3094.6241372107343,None,001,61,2019_Oct_24_1304,ACPT_experiment_5_30_19,3.1.0,59.95023453117353,
,,,C,D,g,b,L,G,d,L,i,,,,,13,8,268,10,2,0,2,0,,,,,0,31,31,16,,,,,,up,0.5169493981229607,3096.6922463219944,None,001,61,2019_Oct_24_1304,ACPT_experiment_5_30_19,3.1.0,59.95023453117353,
,,,C,D,g,b,R,U,g,L,u,,,,,13,8,268,10,2,0,2,0,,,,,0,32,32,10,,,,,,up,0.4169802481410443,3098.4935613417274,None,001,61,2019_Oct_24_1304,ACPT_experiment_5_30_19,3.1.0,59.95023453117353,
,,,C,D,g,b,L,D,d,R,c ,,,,,13,8,268,10,2,0,2,0,,,,,0,33,33,13,,,,,,up,0.4670309303110116,3100.194880647863,None,001,61,2019_Oct_24_1304,ACPT_experiment_5_30_19,3.1.0,59.95023453117353,
,,,C,D,g,b,L,D,d,L,c ,,,,,13,8,268,10,2,0,2,0,,,,,0,34,34,12,,,,,,up,0.40002269981778227,3101.9465060091115,None,001,61,2019_Oct_24_1304,ACPT_experiment_5_30_19,3.1.0,59.95023453117353,
,,,C,D,g,b,L,G,y,L,y,,,,,13,8,268,10,2,0,2,0,,,,,0,35,35,34,,,,,,down,0.5671015050102142,3103.630869578081,None,001,61,2019_Oct_24_1304,ACPT_experiment_5_30_19,3.1.0,59.95023453117353,
,,,C,D,g,b,R,U,d,L,u,,,,,13,8,268,10,2,0,2,0,,,,,1,0,36,8,,,,,,up,0.550417139325873,3105.4823074243486,None,001,61,2019_Oct_24_1304,ACPT_experiment_5_30_19,3.1.0,59.95023453117353,
,,,C,D,g,b,R,D,d,R,c ,,,,,13,8,268,10,2,0,2,0,,,,,1,1,37,1,,,,,,up,0.43367940492680646,3107.3003608425734,None,001,61,2019_Oct_24_1304,ACPT_experiment_5_30_19,3.1.0,59.95023453117353,
,,,C,D,g,b,L,D,y,L,y,,,,,13,8,268,10,2,0,2,0,,,,,1,2,38,32,,,,,,down,0.5668461320674396,3109.0519798647783,None,001,61,2019_Oct_24_1304,ACPT_experiment_5_30_19,3.1.0,59.95023453117353,
,,,C,D,g,b,R,D,y,L,y,,,,,13,8,268,10,2,0,2,0,,,,,1,3,39,26,,,,,,down,0.5671132775205479,3110.90314875444,None,001,61,2019_Oct_24_1304,ACPT_experiment_5_30_19,3.1.0,59.95023453117353,
,,,C,D,g,b,L,G,d,R,i,,,,,13,8,268,10,2,0,2,0,,,,,1,4,40,17,,,,,,up,0.4336896681415965,3112.771256175287,None,001,61,2019_Oct_24_1304,ACPT_experiment_5_30_19,3.1.0,59.95023453117353,
,,,C,D,g,b,L,U,y,R,u,,,,,13,8,268,10,2,0,2,0,,,,,1,5,41,25,,,,,,down,1.084171646842151,3114.489276751223,None,001,61,2019_Oct_24_1304,ACPT_experiment_5_30_19,3.1.0,59.95023453117353,
,,,C,D,g,b,R,U,y,R,u,,,,,13,8,268,10,2,0,2,0,,,,,1,6,42,31,,,,,,down,0.4503504888016323,3116.85776964636,None,001,61,2019_Oct_24_1304,ACPT_experiment_5_30_19,3.1.0,59.95023453117353,
,,,C,D,g,b,L,D,d,R,c ,,,,,13,8,268,10,2,0,2,0,,,,,1,7,43,13,,,,,,up,0.500379738965421,3118.5924555708425,None,001,61,2019_Oct_24_1304,ACPT_experiment_5_30_19,3.1.0,59.95023453117353,
,,,C,D,g,b,L,U,y,L,u,,,,,13,8,268,10,2,0,2,0,,,,,1,8,44,24,,,,,,down,0.6338238747739524,3120.377165915741,None,001,61,2019_Oct_24_1304,ACPT_experiment_5_30_19,3.1.0,59.95023453117353,
,,,C,D,g,b,L,U,d,L,u,,,,,13,8,268,10,2,0,2,0,,,,,1,9,45,20,,,,,,up,0.5470818962312478,3122.3153372884935,None,001,61,2019_Oct_24_1304,ACPT_experiment_5_30_19,3.1.0,59.95023453117353,
,,,C,D,g,b,R,G,d,R,i,,,,,13,8,268,10,2,0,2,0,,,,,1,10,46,5,,,,,,up,0.5504029519433971,3124.1301182503503,None,001,61,2019_Oct_24_1304,ACPT_experiment_5_30_19,3.1.0,59.95023453117353,
,,,C,D,g,b,R,D,y,R,y,,,,,13,8,268,10,2,0,2,0,,,,,1,11,47,27,,,,,,down,0.5670930529522593,3125.981508402858,None,001,61,2019_Oct_24_1304,ACPT_experiment_5_30_19,3.1.0,59.95023453117353,
,,,C,D,g,b,R,G,y,L,y,,,,,13,8,268,10,2,0,2,0,,,,,1,12,48,28,,,,,,down,0.5837795316474512,3127.832935382192,None,001,61,2019_Oct_24_1304,ACPT_experiment_5_30_19,3.1.0,59.95023453117353,
,,,C,D,g,b,L,G,g,R,c ,,,,,13,8,268,10,2,0,2,0,,,,,1,13,49,19,,,,,,up,0.617132566330838,3129.717733809628,None,001,61,2019_Oct_24_1304,ACPT_experiment_5_30_19,3.1.0,59.95023453117353,
,,,C,D,g,b,R,U,d,R,u,,,,,13,8,268,10,2,0,2,0,,,,,1,14,50,9,,,,,,up,0.7339179944938223,3131.6191806814877,None,001,61,2019_Oct_24_1304,ACPT_experiment_5_30_19,3.1.0,59.95023453117353,
,,,C,D,g,b,R,D,d,L,c,,,,,13,8,268,10,2,0,2,0,,,,,1,15,51,0,,,,,,up,0.4670254968441441,3133.6207515571423,None,001,61,2019_Oct_24_1304,ACPT_experiment_5_30_19,3.1.0,59.95023453117353,
,,,C,D,g,b,R,U,y,L,u,,,,,13,8,268,10,2,0,2,0,,,,,1,16,52,30,,,,,,down,0.6502205685719673,3135.3890664156806,None,001,61,2019_Oct_24_1304,ACPT_experiment_5_30_19,3.1.0,59.95023453117353,
,,,C,D,g,b,R,G,g,R,c ,,,,,13,8,268,10,2,0,2,0,,,,,1,17,53,7,,,,,,up,0.4336667268362362,3137.3236197032,None,001,61,2019_Oct_24_1304,ACPT_experiment_5_30_19,3.1.0,59.95023453117353,
,,,C,D,g,b,L,U,d,R,u,,,,,13,8,268,10,2,0,2,0,,,,,1,18,54,21,,,,,,up,0.5337475647502288,3139.041616130393,None,001,61,2019_Oct_24_1304,ACPT_experiment_5_30_19,3.1.0,59.95023453117353,
,,,C,D,g,b,L,U,g,L,u,,,,,13,8,268,10,2,0,2,0,,,,,1,19,55,22,,,,,,down,0.4003278795389633,3140.84298699409,None,001,61,2019_Oct_24_1304,ACPT_experiment_5_30_19,3.1.0,59.95023453117353,
,,,C,D,g,b,L,G,y,L,y,,,,,13,8,268,10,2,0,2,0,,,,,1,20,56,34,,,,,,down,0.7003120017434412,3142.5445532211106,None,001,61,2019_Oct_24_1304,ACPT_experiment_5_30_19,3.1.0,59.95023453117353,
,,,C,D,g,b,L,G,g,L,c ,,,,,13,8,268,10,2,0,2,0,,,,,1,21,57,18,,,,,,up,0.5837768149140175,3144.5291973380827,None,001,61,2019_Oct_24_1304,ACPT_experiment_5_30_19,3.1.0,59.95023453117353,
,,,C,D,g,b,R,G,d,L,i,,,,,13,8,268,10,2,0,2,0,,,,,1,22,58,4,,,,,,up,0.6171364904985239,3146.3973101924003,None,001,61,2019_Oct_24_1304,ACPT_experiment_5_30_19,3.1.0,59.95023453117353,
,,,C,D,g,b,L,G,d,L,i,,,,,13,8,268,10,2,0,2,0,,,,,1,23,59,16,,,,,,up,0.41698507788896677,3148.2987787981274,None,001,61,2019_Oct_24_1304,ACPT_experiment_5_30_19,3.1.0,59.95023453117353,
,,,C,D,g,b,R,G,g,L,c ,,,,,13,8,268,10,2,0,2,0,,,,,1,24,60,6,,,,,,up,0.4336637082451489,3150.0000923689386,None,001,61,2019_Oct_24_1304,ACPT_experiment_5_30_19,3.1.0,59.95023453117353,
,,,C,D,g,b,R,D,g,L,i,,,,,13,8,268,10,2,0,2,0,,,,,1,25,61,2,,,,,,up,0.6671657406623126,3151.7181108318564,None,001,61,2019_Oct_24_1304,ACPT_experiment_5_30_19,3.1.0,59.95023453117353,
,,,C,D,g,b,R,G,y,R,y,,,,,13,8,268,10,2,0,2,0,,,,,1,26,62,29,,,,,,up,0.4670158373482991,3153.66960566916,None,001,61,2019_Oct_24_1304,ACPT_experiment_5_30_19,3.1.0,59.95023453117353,
,,,C,D,g,b,L,D,g,L,i,,,,,13,8,268,10,2,0,2,0,,,,,1,27,63,14,,,,,,up,0.483482562496647,3155.43788611574,None,001,61,2019_Oct_24_1304,ACPT_experiment_5_30_19,3.1.0,59.95023453117353,
,,,C,D,g,b,L,U,g,R,u,,,,,13,8,268,10,2,0,2,0,,,,,1,28,64,23,,,,,,up,0.6837613597199379,3157.205676041007,None,001,61,2019_Oct_24_1304,ACPT_experiment_5_30_19,3.1.0,59.95023453117353,
,,,C,D,g,b,L,D,d,L,c ,,,,,13,8,268,10,2,0,2,0,,,,,1,29,65,12,,,,,,up,0.40030312708040583,3159.1738718462493,None,001,61,2019_Oct_24_1304,ACPT_experiment_5_30_19,3.1.0,59.95023453117353,
,,,C,D,g,b,L,D,g,R,i,,,,,13,8,268,10,2,0,2,0,,,,,1,30,66,15,,,,,,up,0.35028564942695084,3160.8418052150428,None,001,61,2019_Oct_24_1304,ACPT_experiment_5_30_19,3.1.0,59.95023453117353,
,,,C,D,g,b,R,U,g,L,u,,,,,13,8,268,10,2,0,2,0,,,,,1,31,67,10,,,,,,up,0.45009783258865355,3162.493348530943,None,001,61,2019_Oct_24_1304,ACPT_experiment_5_30_19,3.1.0,59.95023453117353,
,,,C,D,g,b,L,G,y,R,y,,,,,13,8,268,10,2,0,2,0,,,,,1,32,68,35,,,,,,down,0.683862180714641,3164.227775762027,None,001,61,2019_Oct_24_1304,ACPT_experiment_5_30_19,3.1.0,59.95023453117353,
,,,C,D,g,b,L,D,y,R,y,,,,,13,8,268,10,2,0,2,0,,,,,1,33,69,33,,,,,,down,0.6004651047660445,3166.1959670393826,None,001,61,2019_Oct_24_1304,ACPT_experiment_5_30_19,3.1.0,59.95023453117353,
,,,C,D,g,b,R,D,g,R,i,,,,,13,8,268,10,2,0,2,0,,,,,1,34,70,3,,,,,,up,0.5670963734010002,3168.0807627500817,None,001,61,2019_Oct_24_1304,ACPT_experiment_5_30_19,3.1.0,59.95023453117353,
,,,C,D,g,b,R,U,g,R,u,,,,,13,8,268,10,2,0,2,0,,,,,1,35,71,11,,,,,,up,0.35025999139179476,3169.915517739968,None,001,61,2019_Oct_24_1304,ACPT_experiment_5_30_19,3.1.0,59.95023453117353,
,,,C,D,g,b,,,,,,,,,,13,8,268,10,3,0,3,0,0,0,0,0,,,,,,,,,,,,,,001,61,2019_Oct_24_1304,ACPT_experiment_5_30_19,3.1.0,59.95023453117353,
,,,C,D,g,b,R,G,d,R,i,,,,,13,8,268,10,3,0,3,0,,,,,0,0,0,5,,,,,,up,0.5137394266239426,3188.3164197558453,None,001,61,2019_Oct_24_1304,ACPT_experiment_5_30_19,3.1.0,59.95023453117353,
,,,C,D,g,b,R,D,d,L,c,,,,,13,8,268,10,3,0,3,0,,,,,0,1,1,0,,,,,,up,0.6838495026277087,3190.1144934107124,None,001,61,2019_Oct_24_1304,ACPT_experiment_5_30_19,3.1.0,59.95023453117353,
,,,C,D,g,b,R,U,d,R,u,,,,,13,8,268,10,3,0,3,0,,,,,0,2,2,9,,,,,,up,0.3669416403390642,3192.0826792546013,None,001,61,2019_Oct_24_1304,ACPT_experiment_5_30_19,3.1.0,59.95023453117353,
,,,C,D,g,b,L,D,y,L,y,,,,,13,8,268,10,3,0,3,0,,,,,0,3,3,32,,,,,,up,0.5003824556988548,3193.7339572362016,None,001,61,2019_Oct_24_1304,ACPT_experiment_5_30_19,3.1.0,59.95023453117353,
,,,C,D,g,b,L,U,d,L,u,,,,,13,8,268,10,3,0,3,0,,,,,0,4,4,20,,,,,,up,0.45007700429778197,3195.535619394095,None,001,61,2019_Oct_24_1304,ACPT_experiment_5_30_19,3.1.0,59.95023453117353,
,,,C,D,g,b,L,D,y,R,y,,,,,13,8,268,10,3,0,3,0,,,,,0,5,5,33,,,,,,down,0.5337366978164937,3197.27002790991,None,001,61,2019_Oct_24_1304,ACPT_experiment_5_30_19,3.1.0,59.95023453117353,
,,,C,D,g,b,L,G,d,L,i,,,,,13,8,268,10,3,0,3,0,,,,,0,6,6,16,,,,,,up,0.6504964679443219,3199.08810336386,None,001,61,2019_Oct_24_1304,ACPT_experiment_5_30_19,3.1.0,59.95023453117353,
,,,C,D,g,b,L,D,d,R,c ,,,,,13,8,268,10,3,0,3,0,,,,,0,7,7,13,,,,,,up,0.48370593835716136,3201.022932248894,None,001,61,2019_Oct_24_1304,ACPT_experiment_5_30_19,3.1.0,59.95023453117353,
,,,C,D,g,b,L,U,y,R,u,,,,,13,8,268,10,3,0,3,0,,,,,0,8,8,25,,,,,,up,0.4670375712157693,3202.8410013638004,None,001,61,2019_Oct_24_1304,ACPT_experiment_5_30_19,3.1.0,59.95023453117353,
,,,C,D,g,b,R,U,g,L,u,,,,,13,8,268,10,3,0,3,0,,,,,0,9,9,10,,,,,,up,0.5338055217289366,3204.609042435981,None,001,61,2019_Oct_24_1304,ACPT_experiment_5_30_19,3.1.0,59.95023453117353,
,,,C,D,g,b,L,G,g,L,c ,,,,,13,8,268,10,3,0,3,0,,,,,0,10,10,18,,,,,,up,0.5003821538375632,3206.4271154750586,None,001,61,2019_Oct_24_1304,ACPT_experiment_5_30_19,3.1.0,59.95023453117353,
,,,C,D,g,b,R,U,d,L,u,,,,,13,8,268,10,3,0,3,0,,,,,0,11,11,8,,,,,,up,0.4003070512517297,3208.211828234829,None,001,61,2019_Oct_24_1304,ACPT_experiment_5_30_19,3.1.0,59.95023453117353,
,,,C,D,g,b,R,G,y,R,y,,,,,13,8,268,10,3,0,3,0,,,,,0,12,12,29,,,,,,down,0.6335404289166036,3209.9134267607897,None,001,61,2019_Oct_24_1304,ACPT_experiment_5_30_19,3.1.0,59.95023453117353,
,,,C,D,g,b,R,U,y,L,u,,,,,13,8,268,10,3,0,3,0,,,,,0,13,13,30,,,,,,down,0.5671362188259081,3211.831296588205,None,001,61,2019_Oct_24_1304,ACPT_experiment_5_30_19,3.1.0,59.95023453117353,
,,,C,D,g,b,L,U,d,R,u,,,,,13,8,268,10,3,0,3,0,,,,,0,14,14,21,,,,,,up,0.6171410183887929,3213.682731415882,None,001,61,2019_Oct_24_1304,ACPT_experiment_5_30_19,3.1.0,59.95023453117353,
,,,C,D,g,b,R,D,y,L,y,,,,,13,8,268,10,3,0,3,0,,,,,0,15,15,26,,,,,,down,0.7005399054942245,3215.5842030402073,None,001,61,2019_Oct_24_1304,ACPT_experiment_5_30_19,3.1.0,59.95023453117353,
,,,C,D,g,b,R,D,g,L,i,,,,,13,8,268,10,3,0,3,0,,,,,0,16,16,2,,,,,,up,0.7172097819311603,3217.5690771739446,None,001,61,2019_Oct_24_1304,ACPT_experiment_5_30_19,3.1.0,59.95023453117353,
,,,C,D,g,b,R,D,d,R,c ,,,,,13,8,268,10,3,0,3,0,,,,,0,17,17,1,,,,,,up,0.6504985809588106,3219.5706199766846,None,001,61,2019_Oct_24_1304,ACPT_experiment_5_30_19,3.1.0,59.95023453117353,
,,,C,D,g,b,L,U,y,L,u,,,,,13,8,268,10,3,0,3,0,,,,,0,18,18,24,,,,,,down,0.6171410183887929,3221.5054564082,None,001,61,2019_Oct_24_1304,ACPT_experiment_5_30_19,3.1.0,59.95023453117353,
,,,C,D,g,b,L,G,y,R,y,,,,,13,8,268,10,3,0,3,0,,,,,0,19,19,35,,,,,,down,0.733895053188462,3223.40692561765,None,001,61,2019_Oct_24_1304,ACPT_experiment_5_30_19,3.1.0,59.95023453117353,
,,,C,D,g,b,L,D,g,L,i,,,,,13,8,268,10,3,0,3,0,,,,,0,20,20,14,,,,,,up,0.6671763057383941,3225.425155502804,None,001,61,2019_Oct_24_1304,ACPT_experiment_5_30_19,3.1.0,59.95023453117353,
,,,C,D,g,b,L,D,d,L,c ,,,,,13,8,268,10,3,0,3,0,,,,,0,21,21,12,,,,,,up,0.5004063025808136,3227.3599644651276,None,001,61,2019_Oct_24_1304,ACPT_experiment_5_30_19,3.1.0,59.95023453117353,
,,,C,D,g,b,R,U,g,R,u,,,,,13,8,268,10,3,0,3,0,,,,,0,22,22,11,,,,,,up,0.5001068581841537,3229.161661336837,None,001,61,2019_Oct_24_1304,ACPT_experiment_5_30_19,3.1.0,59.95023453117353,
,,,C,D,g,b,L,U,g,L,u,,,,,13,8,268,10,3,0,3,0,,,,,0,23,23,22,,,,,,up,0.5504213653584884,3230.9460936693486,None,001,61,2019_Oct_24_1304,ACPT_experiment_5_30_19,3.1.0,59.95023453117353,
,,,C,D,g,b,R,G,g,L,c ,,,,,13,8,268,10,3,0,3,0,,,,,0,24,24,6,,,,,,up,0.48370382534267264,3232.780850470388,None,001,61,2019_Oct_24_1304,ACPT_experiment_5_30_19,3.1.0,59.95023453117353,
,,,C,D,g,b,L,G,y,L,y,,,,,13,8,268,10,3,0,3,0,,,,,0,25,25,34,,,,,,down,0.6838567472477735,3234.548888222116,None,001,61,2019_Oct_24_1304,ACPT_experiment_5_30_19,3.1.0,59.95023453117353,
,,,C,D,g,b,R,D,y,R,y,,,,,13,8,268,10,3,0,3,0,,,,,0,26,26,27,,,,,,up,0.5668784310073534,3236.5340101823185,None,001,61,2019_Oct_24_1304,ACPT_experiment_5_30_19,3.1.0,59.95023453117353,
,,,C,D,g,b,R,G,d,L,i,,,,,13,8,268,10,3,0,3,0,,,,,0,27,27,4,,,,,,up,0.48374367076394265,3238.3851908444867,None,001,61,2019_Oct_24_1304,ACPT_experiment_5_30_19,3.1.0,59.95023453117353,
,,,C,D,g,b,L,G,d,R,i,,,,,13,8,268,10,3,0,3,0,,,,,0,28,28,17,,,,,,down,0.5003806445420196,3240.15322195531,None,001,61,2019_Oct_24_1304,ACPT_experiment_5_30_19,3.1.0,59.95023453117353,
,,,C,D,g,b,L,G,g,R,c ,,,,,13,8,268,10,3,0,3,0,,,,,0,29,29,19,,,,,,up,0.5837753056184738,3241.937940148551,None,001,61,2019_Oct_24_1304,ACPT_experiment_5_30_19,3.1.0,59.95023453117353,
,,,C,D,g,b,R,D,g,R,i,,,,,13,8,268,10,3,0,3,0,,,,,0,30,30,3,,,,,,up,0.5001110842094931,3243.8230020991305,None,001,61,2019_Oct_24_1304,ACPT_experiment_5_30_19,3.1.0,59.95023453117353,
,,,C,D,g,b,L,U,g,R,u,,,,,13,8,268,10,3,0,3,0,,,,,0,31,31,23,,,,,,up,0.36697937274584547,3245.6074498264625,None,001,61,2019_Oct_24_1304,ACPT_experiment_5_30_19,3.1.0,59.95023453117353,
,,,C,D,g,b,R,G,g,R,c ,,,,,13,8,268,10,3,0,3,0,,,,,0,32,32,7,,,,,,up,0.4002937694422144,3247.2587293173583,None,001,61,2019_Oct_24_1304,ACPT_experiment_5_30_19,3.1.0,59.95023453117353,
,,,C,D,g,b,L,D,g,R,i,,,,,13,8,268,10,3,0,3,0,,,,,0,33,33,15,,,,,,up,0.3502871587261325,3248.9266666103194,None,001,61,2019_Oct_24_1304,ACPT_experiment_5_30_19,3.1.0,59.95023453117353,
,,,C,D,g,b,R,U,y,R,u,,,,,13,8,268,10,3,0,3,0,,,,,0,34,34,31,,,,,,down,0.516857331043866,3250.594808865726,None,001,61,2019_Oct_24_1304,ACPT_experiment_5_30_19,3.1.0,59.95023453117353,
,,,C,D,g,b,R,G,y,L,y,,,,,13,8,268,10,3,0,3,0,,,,,0,35,35,28,,,,,,down,0.6171666764275869,3252.396019140293,None,001,61,2019_Oct_24_1304,ACPT_experiment_5_30_19,3.1.0,59.95023453117353,
,,,C,D,g,b,R,U,g,L,u,,,,,13,8,268,10,3,0,3,0,,,,,1,0,36,10,,,,,,down,0.4169606272880628,3254.3142071273815,None,001,61,2019_Oct_24_1304,ACPT_experiment_5_30_19,3.1.0,59.95023453117353,
,,,C,D,g,b,R,U,d,L,u,,,,,13,8,268,10,3,0,3,0,,,,,1,1,37,8,,,,,,up,1.0841538371460047,3256.0155197926088,None,001,61,2019_Oct_24_1304,ACPT_experiment_5_30_19,3.1.0,59.95023453117353,
,,,C,D,g,b,R,U,y,L,u,,,,,13,8,268,10,3,0,3,0,,,,,1,2,38,30,,,,,,down,0.7005335664471204,3258.384011178454,None,001,61,2019_Oct_24_1304,ACPT_experiment_5_30_19,3.1.0,59.95023453117353,
,,,C,D,g,b,L,D,y,L,y,,,,,13,8,268,10,3,0,3,0,,,,,1,3,39,32,,,,,,down,0.733884789973672,3260.385554584909,None,001,61,2019_Oct_24_1304,ACPT_experiment_5_30_19,3.1.0,59.95023453117353,
,,,C,D,g,b,L,G,g,R,c ,,,,,13,8,268,10,3,0,3,0,,,,,1,4,40,19,,,,,,up,0.5337357922362571,3262.4204612892663,None,001,61,2019_Oct_24_1304,ACPT_experiment_5_30_19,3.1.0,59.95023453117353,
,,,C,D,g,b,L,D,y,R,y,,,,,13,8,268,10,3,0,3,0,,,,,1,5,41,33,,,,,,down,0.5501647849741857,3264.2554722558107,None,001,61,2019_Oct_24_1304,ACPT_experiment_5_30_19,3.1.0,59.95023453117353,
,,,C,D,g,b,L,G,d,R,i,,,,,13,8,268,10,3,0,3,0,,,,,1,6,42,17,,,,,,up,0.5837858706945553,3266.089967344864,None,001,61,2019_Oct_24_1304,ACPT_experiment_5_30_19,3.1.0,59.95023453117353,
,,,C,D,g,b,R,U,g,R,u,,,,,13,8,268,10,3,0,3,0,,,,,1,7,43,11,,,,,,up,0.4336588784972264,3267.9580838214915,None,001,61,2019_Oct_24_1304,ACPT_experiment_5_30_19,3.1.0,59.95023453117353,
,,,C,D,g,b,R,G,d,L,i,,,,,13,8,268,10,3,0,3,0,,,,,1,8,44,4,,,,,,up,0.7505803244494018,3269.6760772300895,None,001,61,2019_Oct_24_1304,ACPT_experiment_5_30_19,3.1.0,59.95023453117353,
,,,C,D,g,b,R,G,y,L,y,,,,,13,8,268,10,3,0,3,0,,,,,1,9,45,28,,,,,,down,0.6171401128121943,3271.7109911790667,None,001,61,2019_Oct_24_1304,ACPT_experiment_5_30_19,3.1.0,59.95023453117353,
,,,C,D,g,b,R,G,d,R,i,,,,,13,8,268,10,3,0,3,0,,,,,1,10,46,5,,,,,,up,0.7005317552939232,3273.6124661238446,None,001,61,2019_Oct_24_1304,ACPT_experiment_5_30_19,3.1.0,59.95023453117353,
,,,C,D,g,b,L,D,d,L,c ,,,,,13,8,268,10,3,0,3,0,,,,,1,11,47,12,,,,,,up,0.6505203148262808,3275.580625705972,None,001,61,2019_Oct_24_1304,ACPT_experiment_5_30_19,3.1.0,59.95023453117353,
,,,C,D,g,b,L,U,d,L,u,,,,,13,8,268,10,3,0,3,0,,,,,1,12,48,20,,,,,,up,0.433389921887283,3277.5324332694818,None,001,61,2019_Oct_24_1304,ACPT_experiment_5_30_19,3.1.0,59.95023453117353,
,,,C,D,g,b,R,G,y,R,y,,,,,13,8,268,10,3,0,3,0,,,,,1,13,49,29,,,,,,down,0.5337412257067626,3279.2501540991598,None,001,61,2019_Oct_24_1304,ACPT_experiment_5_30_19,3.1.0,59.95023453117353,
,,,C,D,g,b,R,D,d,R,c ,,,,,13,8,268,10,3,0,3,0,,,,,1,14,50,1,,,,,,up,0.4503432441779296,3281.0682325717007,None,001,61,2019_Oct_24_1304,ACPT_experiment_5_30_19,3.1.0,59.95023453117353,
,,,C,D,g,b,L,U,y,L,u,,,,,13,8,268,10,3,0,3,0,,,,,1,15,51,24,,,,,,down,1.3677113814846962,3282.8195947116674,None,001,61,2019_Oct_24_1304,ACPT_experiment_5_30_19,3.1.0,59.95023453117353,
,,,C,D,g,b,L,D,g,R,i,,,,,13,8,268,10,3,0,3,0,,,,,1,16,52,15,,,,,,up,0.5170523321357905,3285.5050024118555,None,001,61,2019_Oct_24_1304,ACPT_experiment_5_30_19,3.1.0,59.95023453117353,
,,,C,D,g,b,R,U,d,R,u,,,,,13,8,268,10,3,0,3,0,,,,,1,17,53,9,,,,,,up,0.40029950477037346,3287.3063947075625,None,001,61,2019_Oct_24_1304,ACPT_experiment_5_30_19,3.1.0,59.95023453117353,
,,,C,D,g,b,R,G,g,L,c ,,,,,13,8,268,10,3,0,3,0,,,,,1,18,54,6,,,,,,up,0.6671781168952293,3288.9910329684662,None,001,61,2019_Oct_24_1304,ACPT_experiment_5_30_19,3.1.0,59.95023453117353,
,,,C,D,g,b,R,D,y,R,y,,,,,13,8,268,10,3,0,3,0,,,,,1,19,55,27,,,,,,down,0.7004562904767226,3290.959293371592,None,001,61,2019_Oct_24_1304,ACPT_experiment_5_30_19,3.1.0,59.95023453117353,
,,,C,D,g,b,L,G,y,R,y,,,,,13,8,268,10,3,0,3,0,,,,,1,20,56,35,,,,,,down,0.38361695024286746,3292.9607751987587,None,001,61,2019_Oct_24_1304,ACPT_experiment_5_30_19,3.1.0,59.95023453117353,
,,,C,D,g,b,R,D,g,L,i,,,,,13,8,268,10,3,0,3,0,,,,,1,21,57,2,,,,,,up,0.650492543776636,3294.628733018153,None,001,61,2019_Oct_24_1304,ACPT_experiment_5_30_19,3.1.0,59.95023453117353,
,,,C,D,g,b,L,U,g,L,u,,,,,13,8,268,10,3,0,3,0,,,,,1,22,58,22,,,,,,up,0.46656576517489157,3296.5806737015973,None,001,61,2019_Oct_24_1304,ACPT_experiment_5_30_19,3.1.0,59.95023453117353,
,,,C,D,g,b,R,D,g,R,i,,,,,13,8,268,10,3,0,3,0,,,,,1,23,59,3,,,,,,up,0.5170683306751016,3298.331594523306,None,001,61,2019_Oct_24_1304,ACPT_experiment_5_30_19,3.1.0,59.95023453117353,
,,,C,D,g,b,R,U,y,R,u,,,,,13,8,268,10,3,0,3,0,,,,,1,24,60,31,,,,,,up,0.4670257987017976,3300.132991045042,None,001,61,2019_Oct_24_1304,ACPT_experiment_5_30_19,3.1.0,59.95023453117353,
,,,C,D,g,b,R,D,y,L,y,,,,,13,8,268,10,3,0,3,0,,,,,1,25,61,26,,,,,,down,0.6671805317673716,3301.8843480533997,None,001,61,2019_Oct_24_1304,ACPT_experiment_5_30_19,3.1.0,59.95023453117353,
,,,C,D,g,b,L,U,g,R,u,,,,,13,8,268,10,3,0,3,0,,,,,1,26,62,23,,,,,,up,0.5168217116515734,3303.8527793088742,None,001,61,2019_Oct_24_1304,ACPT_experiment_5_30_19,3.1.0,59.95023453117353,
,,,C,D,g,b,L,U,d,R,u,,,,,13,8,268,10,3,0,3,0,,,,,1,27,63,21,,,,,,up,0.5170879515280831,3305.6372267343486,None,001,61,2019_Oct_24_1304,ACPT_experiment_5_30_19,3.1.0,59.95023453117353,
,,,C,D,g,b,R,G,g,R,c ,,,,,13,8,268,10,3,0,3,0,,,,,1,28,64,7,,,,,,up,0.5170677269561565,3307.438644989952,None,001,61,2019_Oct_24_1304,ACPT_experiment_5_30_19,3.1.0,59.95023453117353,
,,,C,D,g,b,R,D,d,L,c,,,,,13,8,268,10,3,0,3,0,,,,,1,29,65,0,,,,,,up,0.7338914308820677,3309.240045133998,None,001,61,2019_Oct_24_1304,ACPT_experiment_5_30_19,3.1.0,59.95023453117353,
,,,C,D,g,b,L,U,y,R,u,,,,,13,8,268,10,3,0,3,0,,,,,1,30,66,25,,,,,,down,0.5671012031489227,3311.2749439900126,None,001,61,2019_Oct_24_1304,ACPT_experiment_5_30_19,3.1.0,59.95023453117353,
,,,C,D,g,b,L,D,d,R,c ,,,,,13,8,268,10,3,0,3,0,,,,,1,31,67,13,,,,,,up,0.5003842668556899,3313.1430610703555,None,001,61,2019_Oct_24_1304,ACPT_experiment_5_30_19,3.1.0,59.95023453117353,
,,,C,D,g,b,L,D,g,L,i,,,,,13,8,268,10,3,0,3,0,,,,,1,32,68,14,,,,,,up,0.5504449103791558,3314.9110773900775,None,001,61,2019_Oct_24_1304,ACPT_experiment_5_30_19,3.1.0,59.95023453117353,
,,,C,D,g,b,L,G,d,L,i,,,,,13,8,268,10,3,0,3,0,,,,,1,33,69,16,,,,,,up,0.5337312643496261,3316.7625381776506,None,001,61,2019_Oct_24_1304,ACPT_experiment_5_30_19,3.1.0,59.95023453117353,
,,,C,D,g,b,L,G,y,L,y,,,,,13,8,268,10,3,0,3,0,,,,,1,34,70,34,,,,,,down,0.7839155494330043,3318.5972982991425,None,001,61,2019_Oct_24_1304,ACPT_experiment_5_30_19,3.1.0,59.95023453117353,
,,,C,D,g,b,L,G,g,L,c ,,,,,13,8,268,10,3,0,3,0,,,,,1,35,71,18,,,,,,up,0.6672043786529684,3320.6822318387876,None,001,61,2019_Oct_24_1304,ACPT_experiment_5_30_19,3.1.0,59.95023453117353,
,,,C,D,g,b,,,,,,,,,,13,8,268,10,4,0,4,0,0,0,0,0,,,,,,,,,,,,,,001,61,2019_Oct_24_1304,ACPT_experiment_5_30_19,3.1.0,59.95023453117353,
,,,C,D,g,b,L,U,d,L,u,,,,,13,8,268,10,4,0,4,0,,,,,0,0,0,20,,,,,,up,0.6168666283119819,3329.0389742580464,None,001,61,2019_Oct_24_1304,ACPT_experiment_5_30_19,3.1.0,59.95023453117353,
,,,C,D,g,b,R,U,d,R,u,,,,,13,8,268,10,4,0,4,0,,,,,0,1,1,9,,,,,,up,0.4503363014155184,3330.9401733034447,None,001,61,2019_Oct_24_1304,ACPT_experiment_5_30_19,3.1.0,59.95023453117353,
