facing_vig,person_vig,text_vig,facing_train,person_train,food_train,correct_key_train,facing_exp,person_exp,food_exp,showL_R,consistent,vig_random.thisRepN,vig_random.thisTrialN,vig_random.thisN,vig_random.thisIndex,trainTrials.thisRepN,trainTrials.thisTrialN,trainTrials.thisN,trainTrials.thisIndex,expBlock.thisRepN,expBlock.thisTrialN,expBlock.thisN,expBlock.thisIndex,breakLoop.thisRepN,breakLoop.thisTrialN,breakLoop.thisN,breakLoop.thisIndex,expTrials.thisRepN,expTrials.thisTrialN,expTrials.thisN,expTrials.thisIndex,train_resp.keys,train_resp.corr,train_resp.rt,train_resp.started,train_resp.stopped,exp_resp.keys,exp_resp.rt,exp_resp.started,exp_resp.stopped,session,participant,date,expName,psychopyVersion,frameRate,
C,G,"cannot eat dairy products because she is lactose intolerant. She enjoys eating wheat products. She thinks eating insects, like crickets, is disgusting.",,,,,,,,,,0,0,0,0,,,,,,,,,,,,,,,,,,,,,,,,,,001,63,2019_Oct_25_1059,ACPT_experiment_5_30_19,3.1.0,59.94595015179194,
C,U,"did not report her food preferences, so her food preferences are unknown.",,,,,,,,,,0,1,1,2,,,,,,,,,,,,,,,,,,,,,,,,,,001,63,2019_Oct_25_1059,ACPT_experiment_5_30_19,3.1.0,59.94595015179194,
C,D,"is allergic to gluten, meaning she can’t eat wheat products. She enjoys eating dairy products. She thinks eating insects, like crickets, is disgusting.",,,,,,,,,,0,2,2,1,,,,,,,,,,,,,,,,,,,,,,,,,,001,63,2019_Oct_25_1059,ACPT_experiment_5_30_19,3.1.0,59.94595015179194,
,,,C,D,d,v,,,,,,,,,,0,0,0,0,,,,,,,,,,,,,b,0,1.7680622160858093,1639.9491276520666,None,,,,,001,63,2019_Oct_25_1059,ACPT_experiment_5_30_19,3.1.0,59.94595015179194,
,,,C,D,g,b,,,,,,,,,,0,1,1,1,,,,,,,,,,,,,v,0,3.2024618748680496,1645.002989579035,None,,,,,001,63,2019_Oct_25_1059,ACPT_experiment_5_30_19,3.1.0,59.94595015179194,
,,,C,G,d,b,,,,,,,,,,0,2,2,3,,,,,,,,,,,,,v,0,5.003897259180121,1651.4912719928302,None,,,,,001,63,2019_Oct_25_1059,ACPT_experiment_5_30_19,3.1.0,59.94595015179194,
,,,C,G,g,v,,,,,,,,,,0,3,3,19,,,,,,,,,,,,,v,1,3.8863178160377174,1659.7809270049484,None,,,,,001,63,2019_Oct_25_1059,ACPT_experiment_5_30_19,3.1.0,59.94595015179194,
,,,C,U,y,n,,,,,,,,,,0,4,4,8,,,,,,,,,,,,,n,1,3.1690974604575786,1666.9530704914603,None,,,,,001,63,2019_Oct_25_1059,ACPT_experiment_5_30_19,3.1.0,59.94595015179194,
,,,C,G,d,b,,,,,,,,,,0,5,5,12,,,,,,,,,,,,,v,0,2.1183005764537484,1673.4079866797108,None,,,,,001,63,2019_Oct_25_1059,ACPT_experiment_5_30_19,3.1.0,59.94595015179194,
,,,C,U,g,n,,,,,,,,,,0,6,6,16,,,,,,,,,,,,,n,1,2.8188120105976395,1678.8121331509722,None,,,,,001,63,2019_Oct_25_1059,ACPT_experiment_5_30_19,3.1.0,59.94595015179194,
,,,C,D,y,b,,,,,,,,,,0,7,7,11,,,,,,,,,,,,,b,1,2.0015301066364373,1684.9167844155515,None,,,,,001,63,2019_Oct_25_1059,ACPT_experiment_5_30_19,3.1.0,59.94595015179194,
,,,C,G,g,v,,,,,,,,,,0,8,8,13,,,,,,,,,,,,,b,0,4.553489587939794,1690.2041407963738,None,,,,,001,63,2019_Oct_25_1059,ACPT_experiment_5_30_19,3.1.0,59.94595015179194,
,,,C,G,g,v,,,,,,,,,,0,9,9,4,,,,,,,,,,,,,v,1,1.3510422021461181,1698.0267743003662,None,,,,,001,63,2019_Oct_25_1059,ACPT_experiment_5_30_19,3.1.0,59.94595015179194,
,,,C,U,d,n,,,,,,,,,,0,10,10,6,,,,,,,,,,,,,n,1,2.0679812281964587,1702.6805992198238,None,,,,,001,63,2019_Oct_25_1059,ACPT_experiment_5_30_19,3.1.0,59.94595015179194,
,,,C,G,y,b,,,,,,,,,,0,11,11,14,,,,,,,,,,,,,b,1,4.503475717669517,1708.0343877052958,None,,,,,001,63,2019_Oct_25_1059,ACPT_experiment_5_30_19,3.1.0,59.94595015179194,
,,,C,U,d,n,,,,,,,,,,0,12,12,15,,,,,,,,,,,,,n,1,1.918139747727082,1715.8236881878724,None,,,,,001,63,2019_Oct_25_1059,ACPT_experiment_5_30_19,3.1.0,59.94595015179194,
,,,C,D,g,b,,,,,,,,,,0,13,13,10,,,,,,,,,,,,,b,1,3.5694043269811573,1721.0276572283426,None,,,,,001,63,2019_Oct_25_1059,ACPT_experiment_5_30_19,3.1.0,59.94595015179194,
,,,C,D,y,b,,,,,,,,,,0,14,14,2,,,,,,,,,,,,,b,1,1.70131557777745,1727.866209093645,None,,,,,001,63,2019_Oct_25_1059,ACPT_experiment_5_30_19,3.1.0,59.94595015179194,
,,,C,U,g,n,,,,,,,,,,0,15,15,7,,,,,,,,,,,,,n,1,3.1023801021540294,1732.8533479270511,None,,,,,001,63,2019_Oct_25_1059,ACPT_experiment_5_30_19,3.1.0,59.94595015179194,
,,,C,U,y,n,,,,,,,,,,0,16,16,17,,,,,,,,,,,,,n,1,2.118316876662675,1739.2248523246362,None,,,,,001,63,2019_Oct_25_1059,ACPT_experiment_5_30_19,3.1.0,59.94595015179194,
,,,C,G,y,b,,,,,,,,,,0,17,17,5,,,,,,,,,,,,,b,1,2.785482007738892,1744.6289981921861,None,,,,,001,63,2019_Oct_25_1059,ACPT_experiment_5_30_19,3.1.0,59.94595015179194,
,,,C,D,d,v,,,,,,,,,,0,18,18,9,,,,,,,,,,,,,v,1,5.987782087941923,1750.7003034555537,None,,,,,001,63,2019_Oct_25_1059,ACPT_experiment_5_30_19,3.1.0,59.94595015179194,
,,,C,D,d,v,,,,,,,,,,0,19,19,18,,,,,,,,,,,,,v,1,1.3510506541063023,1759.974038898939,None,,,,,001,63,2019_Oct_25_1059,ACPT_experiment_5_30_19,3.1.0,59.94595015179194,
,,,C,G,g,v,,,,,,,,,,1,0,20,13,,,,,,,,,,,,,b,0,4.420063625148259,1764.610912808674,None,,,,,001,63,2019_Oct_25_1059,ACPT_experiment_5_30_19,3.1.0,59.94595015179194,
,,,C,G,g,v,,,,,,,,,,1,1,21,4,,,,,,,,,,,,,v,1,1.60141974818589,1772.2999597626326,None,,,,,001,63,2019_Oct_25_1059,ACPT_experiment_5_30_19,3.1.0,59.94595015179194,
,,,C,D,d,v,,,,,,,,,,1,2,22,0,,,,,,,,,,,,,v,1,1.851424200557858,1777.187176203144,None,,,,,001,63,2019_Oct_25_1059,ACPT_experiment_5_30_19,3.1.0,59.94595015179194,
,,,C,D,g,b,,,,,,,,,,1,3,23,1,,,,,,,,,,,,,v,0,1.567885690861658,1782.3077503568688,None,,,,,001,63,2019_Oct_25_1059,ACPT_experiment_5_30_19,3.1.0,59.94595015179194,
,,,C,U,y,n,,,,,,,,,,1,4,24,17,,,,,,,,,,,,,n,1,1.4177607678725508,1787.1614514551106,None,,,,,001,63,2019_Oct_25_1059,ACPT_experiment_5_30_19,3.1.0,59.94595015179194,
,,,C,D,y,b,,,,,,,,,,1,5,25,11,,,,,,,,,,,,,b,1,2.301520960408425,1791.8819668677127,None,,,,,001,63,2019_Oct_25_1059,ACPT_experiment_5_30_19,3.1.0,59.94595015179194,
,,,C,G,g,v,,,,,,,,,,1,6,26,19,,,,,,,,,,,,,v,1,1.7847083515327995,1797.469317120864,None,,,,,001,63,2019_Oct_25_1059,ACPT_experiment_5_30_19,3.1.0,59.94595015179194,
,,,C,D,d,v,,,,,,,,,,1,7,27,18,,,,,,,,,,,,,b,0,6.188093844527884,1802.5398288055478,None,,,,,001,63,2019_Oct_25_1059,ACPT_experiment_5_30_19,3.1.0,59.94595015179194,
,,,C,U,y,n,,,,,,,,,,1,8,28,8,,,,,,,,,,,,,n,1,1.0174623533093836,1812.0137757894206,None,,,,,001,63,2019_Oct_25_1059,ACPT_experiment_5_30_19,3.1.0,59.94595015179194,
,,,C,U,d,n,,,,,,,,,,1,9,29,6,,,,,,,,,,,,,n,1,4.269667937579925,1816.317299864376,None,,,,,001,63,2019_Oct_25_1059,ACPT_experiment_5_30_19,3.1.0,59.94595015179194,
,,,C,G,y,b,,,,,,,,,,1,10,30,5,,,,,,,,,,,,,b,1,1.6679686709985617,1823.8727765685103,None,,,,,001,63,2019_Oct_25_1059,ACPT_experiment_5_30_19,3.1.0,59.94595015179194,
,,,C,G,d,b,,,,,,,,,,1,11,31,3,,,,,,,,,,,,,b,1,5.0872779587068635,1828.8098698367955,None,,,,,001,63,2019_Oct_25_1059,ACPT_experiment_5_30_19,3.1.0,59.94595015179194,
,,,C,U,g,n,,,,,,,,,,1,12,32,7,,,,,,,,,,,,,n,1,1.1175477482920542,1837.1829478082407,None,,,,,001,63,2019_Oct_25_1059,ACPT_experiment_5_30_19,3.1.0,59.94595015179194,
,,,C,D,y,b,,,,,,,,,,1,13,33,2,,,,,,,,,,,,,b,1,1.5509899207356739,1841.6031575315567,None,,,,,001,63,2019_Oct_25_1059,ACPT_experiment_5_30_19,3.1.0,59.94595015179194,
,,,C,G,d,b,,,,,,,,,,1,14,34,12,,,,,,,,,,,,,b,1,1.8514121263290235,1846.4400226271046,None,,,,,001,63,2019_Oct_25_1059,ACPT_experiment_5_30_19,3.1.0,59.94595015179194,
,,,C,U,g,n,,,,,,,,,,1,15,35,16,,,,,,,,,,,,,n,1,1.2509676739693987,1851.5772613294753,None,,,,,001,63,2019_Oct_25_1059,ACPT_experiment_5_30_19,3.1.0,59.94595015179194,
,,,C,D,d,v,,,,,,,,,,1,16,36,9,,,,,,,,,,,,,v,1,2.0513088313020944,1856.1310102114771,None,,,,,001,63,2019_Oct_25_1059,ACPT_experiment_5_30_19,3.1.0,59.94595015179194,
,,,C,U,d,n,,,,,,,,,,1,17,37,15,,,,,,,,,,,,,n,1,1.0841694485186508,1861.4681426002635,None,,,,,001,63,2019_Oct_25_1059,ACPT_experiment_5_30_19,3.1.0,59.94595015179194,
,,,C,D,g,b,,,,,,,,,,1,18,38,10,,,,,,,,,,,,,b,1,1.5176049801364115,1865.8550422431986,None,,,,,001,63,2019_Oct_25_1059,ACPT_experiment_5_30_19,3.1.0,59.94595015179194,
,,,C,G,y,b,,,,,,,,,,1,19,39,14,,,,,,,,,,,,,b,1,2.2517008815093504,1870.6585118331968,None,,,,,001,63,2019_Oct_25_1059,ACPT_experiment_5_30_19,3.1.0,59.94595015179194,
,,,C,G,g,v,,,,,,,,,,2,0,40,19,,,,,,,,,,,,,v,1,1.7680308230910668,1876.179359649316,None,,,,,001,63,2019_Oct_25_1059,ACPT_experiment_5_30_19,3.1.0,59.94595015179194,
,,,C,D,g,b,,,,,,,,,,2,1,41,10,,,,,,,,,,,,,b,1,2.0182281612669613,1881.2332149354586,None,,,,,001,63,2019_Oct_25_1059,ACPT_experiment_5_30_19,3.1.0,59.94595015179194,
,,,C,U,g,n,,,,,,,,,,2,2,42,7,,,,,,,,,,,,,n,1,1.0841875598616753,1886.5372600133842,None,,,,,001,63,2019_Oct_25_1059,ACPT_experiment_5_30_19,3.1.0,59.94595015179194,
,,,C,D,g,b,,,,,,,,,,2,3,43,1,,,,,,,,,,,,,b,1,2.9852015234055216,1890.9243368456257,None,,,,,001,63,2019_Oct_25_1059,ACPT_experiment_5_30_19,3.1.0,59.94595015179194,
,,,C,D,d,v,,,,,,,,,,2,4,44,9,,,,,,,,,,,,,v,1,2.46862496570202,1897.1786937556012,None,,,,,001,63,2019_Oct_25_1059,ACPT_experiment_5_30_19,3.1.0,59.94595015179194,
,,,C,D,d,v,,,,,,,,,,2,5,45,18,,,,,,,,,,,,,v,1,0.9840882795160724,1902.9164312443609,None,,,,,001,63,2019_Oct_25_1059,ACPT_experiment_5_30_19,3.1.0,59.94595015179194,
,,,C,G,g,v,,,,,,,,,,2,6,46,13,,,,,,,,,,,,,b,0,1.0175378172389173,1907.1863349312566,None,,,,,001,63,2019_Oct_25_1059,ACPT_experiment_5_30_19,3.1.0,59.94595015179194,
,,,C,U,y,n,,,,,,,,,,2,7,47,8,,,,,,,,,,,,,n,1,2.218376312053806,1911.489626879165,None,,,,,001,63,2019_Oct_25_1059,ACPT_experiment_5_30_19,3.1.0,59.94595015179194,
,,,C,G,d,b,,,,,,,,,,2,8,48,12,,,,,,,,,,,,,b,1,1.9515126140977372,1916.9938237301458,None,,,,,001,63,2019_Oct_25_1059,ACPT_experiment_5_30_19,3.1.0,59.94595015179194,
,,,C,G,g,v,,,,,,,,,,2,9,49,4,,,,,,,,,,,,,v,1,3.736217041506279,1922.2144712046247,None,,,,,001,63,2019_Oct_25_1059,ACPT_experiment_5_30_19,3.1.0,59.94595015179194,
,,,C,U,g,n,,,,,,,,,,2,10,50,16,,,,,,,,,,,,,n,1,1.1676044820746938,1929.2364918811377,None,,,,,001,63,2019_Oct_25_1059,ACPT_experiment_5_30_19,3.1.0,59.94595015179194,
,,,C,G,y,b,,,,,,,,,,2,11,51,5,,,,,,,,,,,,,b,1,1.467796975465717,1933.689890338836,None,,,,,001,63,2019_Oct_25_1059,ACPT_experiment_5_30_19,3.1.0,59.94595015179194,
,,,C,U,d,n,,,,,,,,,,2,12,52,15,,,,,,,,,,,,,n,1,1.017462957020598,1938.443512381065,None,,,,,001,63,2019_Oct_25_1059,ACPT_experiment_5_30_19,3.1.0,59.94595015179194,
,,,C,U,d,n,,,,,,,,,,2,13,53,6,,,,,,,,,,,,,n,1,1.7844345683961365,1942.7470681508712,None,,,,,001,63,2019_Oct_25_1059,ACPT_experiment_5_30_19,3.1.0,59.94595015179194,
,,,C,G,d,b,,,,,,,,,,2,14,54,3,,,,,,,,,,,,,b,1,2.501937159072895,1947.817326880463,None,,,,,001,63,2019_Oct_25_1059,ACPT_experiment_5_30_19,3.1.0,59.94595015179194,
,,,C,D,y,b,,,,,,,,,,2,15,55,11,,,,,,,,,,,,,b,1,1.56787240920994,1953.605074617224,None,,,,,001,63,2019_Oct_25_1059,ACPT_experiment_5_30_19,3.1.0,59.94595015179194,
,,,C,D,y,b,,,,,,,,,,2,16,56,2,,,,,,,,,,,,,b,1,1.6012576516654917,1958.4420713218656,None,,,,,001,63,2019_Oct_25_1059,ACPT_experiment_5_30_19,3.1.0,59.94595015179194,
,,,C,U,y,n,,,,,,,,,,2,17,57,17,,,,,,,,,,,,,n,1,1.8181189498682215,1963.3291579644178,None,,,,,001,63,2019_Oct_25_1059,ACPT_experiment_5_30_19,3.1.0,59.94595015179194,
,,,C,D,d,v,,,,,,,,,,2,18,58,0,,,,,,,,,,,,,v,1,2.4685495017720314,1968.449736042267,None,,,,,001,63,2019_Oct_25_1059,ACPT_experiment_5_30_19,3.1.0,59.94595015179194,
,,,C,G,y,b,,,,,,,,,,2,19,59,14,,,,,,,,,,,,,b,1,1.2676482209681126,1974.204115138638,None,,,,,001,63,2019_Oct_25_1059,ACPT_experiment_5_30_19,3.1.0,59.94595015179194,
,,,C,G,g,v,,,,,,,,,,3,0,60,13,,,,,,,,,,,,,v,1,2.351541169648499,1978.757853757545,None,,,,,001,63,2019_Oct_25_1059,ACPT_experiment_5_30_19,3.1.0,59.94595015179194,
,,,C,D,y,b,,,,,,,,,,3,1,61,11,,,,,,,,,,,,,b,1,1.7513668781566594,1984.3952221069467,None,,,,,001,63,2019_Oct_25_1059,ACPT_experiment_5_30_19,3.1.0,59.94595015179194,
,,,C,D,g,b,,,,,,,,,,3,2,62,10,,,,,,,,,,,,,b,1,3.936347382805252,1989.4323950349562,None,,,,,001,63,2019_Oct_25_1059,ACPT_experiment_5_30_19,3.1.0,59.94595015179194,
,,,C,D,y,b,,,,,,,,,,3,3,63,2,,,,,,,,,,,,,b,1,1.067490410798655,1996.654565975246,None,,,,,001,63,2019_Oct_25_1059,ACPT_experiment_5_30_19,3.1.0,59.94595015179194,
,,,C,U,g,n,,,,,,,,,,3,4,64,16,,,,,,,,,,,,,n,1,0.7672490167806245,2001.0245767907363,None,,,,,001,63,2019_Oct_25_1059,ACPT_experiment_5_30_19,3.1.0,59.94595015179194,
,,,C,U,y,n,,,,,,,,,,3,5,65,8,,,,,,,,,,,,,n,1,1.0508134860679093,2005.0609760625398,None,,,,,001,63,2019_Oct_25_1059,ACPT_experiment_5_30_19,3.1.0,59.94595015179194,
,,,C,G,d,b,,,,,,,,,,3,6,66,12,,,,,,,,,,,,,b,1,4.203090942185554,2009.3976185394954,None,,,,,001,63,2019_Oct_25_1059,ACPT_experiment_5_30_19,3.1.0,59.94595015179194,
,,,C,U,y,n,,,,,,,,,,3,7,67,17,,,,,,,,,,,,,n,1,1.2176310302847924,2016.8866347645421,None,,,,,001,63,2019_Oct_25_1059,ACPT_experiment_5_30_19,3.1.0,59.94595015179194,
,,,C,D,d,v,,,,,,,,,,3,8,68,18,,,,,,,,,,,,,v,1,4.1365091170991946,2021.39009508757,None,,,,,001,63,2019_Oct_25_1059,ACPT_experiment_5_30_19,3.1.0,59.94595015179194,
,,,C,G,y,b,,,,,,,,,,3,9,69,14,,,,,,,,,,,,,b,1,1.334367390405987,2028.8124187064818,None,,,,,001,63,2019_Oct_25_1059,ACPT_experiment_5_30_19,3.1.0,59.94595015179194,
,,,C,G,g,v,,,,,,,,,,3,10,70,4,,,,,,,,,,,,,v,1,1.6676858321907275,2033.432878909673,None,,,,,001,63,2019_Oct_25_1059,ACPT_experiment_5_30_19,3.1.0,59.94595015179194,
,,,C,D,d,v,,,,,,,,,,3,11,71,0,,,,,,,,,,,,,v,1,1.3176986157805004,2038.3863671694476,None,,,,,001,63,2019_Oct_25_1059,ACPT_experiment_5_30_19,3.1.0,59.94595015179194,
,,,C,G,g,v,,,,,,,,,,3,12,72,19,,,,,,,,,,,,,v,1,1.651002266634805,2043.006846691405,None,,,,,001,63,2019_Oct_25_1059,ACPT_experiment_5_30_19,3.1.0,59.94595015179194,
,,,C,U,d,n,,,,,,,,,,3,13,73,15,,,,,,,,,,,,,n,1,1.2176059762605291,2047.943673119235,None,,,,,001,63,2019_Oct_25_1059,ACPT_experiment_5_30_19,3.1.0,59.94595015179194,
,,,C,G,y,b,,,,,,,,,,3,14,74,5,,,,,,,,,,,,,b,1,1.3673155457809116,2052.4642024775712,None,,,,,001,63,2019_Oct_25_1059,ACPT_experiment_5_30_19,3.1.0,59.94595015179194,
,,,C,D,g,b,,,,,,,,,,3,15,75,1,,,,,,,,,,,,,b,1,3.5527174410121916,2057.1173370530005,None,,,,,001,63,2019_Oct_25_1059,ACPT_experiment_5_30_19,3.1.0,59.94595015179194,
,,,C,D,d,v,,,,,,,,,,3,16,76,9,,,,,,,,,,,,,v,1,2.1182927282047785,2063.939201126767,None,,,,,001,63,2019_Oct_25_1059,ACPT_experiment_5_30_19,3.1.0,59.94595015179194,
,,,C,G,d,b,,,,,,,,,,3,17,77,3,,,,,,,,,,,,,b,1,1.5345152393369972,2069.3433237514264,None,,,,,001,63,2019_Oct_25_1059,ACPT_experiment_5_30_19,3.1.0,59.94595015179194,
,,,C,U,d,n,,,,,,,,,,3,18,78,6,,,,,,,,,,,,,n,1,1.0675190870915685,2074.1636371923673,None,,,,,001,63,2019_Oct_25_1059,ACPT_experiment_5_30_19,3.1.0,59.94595015179194,
,,,C,U,g,n,,,,,,,,,,3,19,79,7,,,,,,,,,,,,,n,1,1.1506468315260463,2078.517250601523,None,,,,,001,63,2019_Oct_25_1059,ACPT_experiment_5_30_19,3.1.0,59.94595015179194,
,,,C,U,y,n,,,,,,,,,,4,0,80,17,,,,,,,,,,,,,n,1,1.1842509193770638,2082.937019313634,None,,,,,001,63,2019_Oct_25_1059,ACPT_experiment_5_30_19,3.1.0,59.94595015179194,
,,,C,D,y,b,,,,,,,,,,4,1,81,11,,,,,,,,,,,,,b,1,1.0172217743015608,2087.424025481452,None,,,,,001,63,2019_Oct_25_1059,ACPT_experiment_5_30_19,3.1.0,59.94595015179194,
,,,C,D,d,v,,,,,,,,,,4,2,82,0,,,,,,,,,,,,,v,1,1.1508831845535497,2091.727055418597,None,,,,,001,63,2019_Oct_25_1059,ACPT_experiment_5_30_19,3.1.0,59.94595015179194,
,,,C,D,g,b,,,,,,,,,,4,3,83,10,,,,,,,,,,,,,b,1,1.8511455877296612,2096.1807270557206,None,,,,,001,63,2019_Oct_25_1059,ACPT_experiment_5_30_19,3.1.0,59.94595015179194,
,,,C,G,d,b,,,,,,,,,,4,4,84,3,,,,,,,,,,,,,b,1,1.584551748785998,2101.31769650279,None,,,,,001,63,2019_Oct_25_1059,ACPT_experiment_5_30_19,3.1.0,59.94595015179194,
,,,C,G,y,b,,,,,,,,,,4,5,85,5,,,,,,,,,,,,,b,1,0.9840928073517716,2106.1713991103106,None,,,,,001,63,2019_Oct_25_1059,ACPT_experiment_5_30_19,3.1.0,59.94595015179194,
,,,C,G,y,b,,,,,,,,,,4,6,86,14,,,,,,,,,,,,,b,1,0.9473989243674623,2110.461327905565,None,,,,,001,63,2019_Oct_25_1059,ACPT_experiment_5_30_19,3.1.0,59.94595015179194,
,,,C,D,d,v,,,,,,,,,,4,7,87,18,,,,,,,,,,,,,v,1,3.2692263226640534,2114.694561857934,None,,,,,001,63,2019_Oct_25_1059,ACPT_experiment_5_30_19,3.1.0,59.94595015179194,
,,,C,D,d,v,,,,,,,,,,4,8,88,9,,,,,,,,,,,,,v,1,1.0841709577971415,2121.2328777626212,None,,,,,001,63,2019_Oct_25_1059,ACPT_experiment_5_30_19,3.1.0,59.94595015179194,
,,,C,G,g,v,,,,,,,,,,4,9,89,4,,,,,,,,,,,,,b,0,1.4008477919710458,2125.6198039688593,None,,,,,001,63,2019_Oct_25_1059,ACPT_experiment_5_30_19,3.1.0,59.94595015179194,
,,,C,G,g,v,,,,,,,,,,4,10,90,19,,,,,,,,,,,,,v,1,1.1676506659996448,2130.2897833007983,None,,,,,001,63,2019_Oct_25_1059,ACPT_experiment_5_30_19,3.1.0,59.94595015179194,
,,,C,U,d,n,,,,,,,,,,4,11,91,6,,,,,,,,,,,,,n,1,1.2173327968353078,2134.760131862652,None,,,,,001,63,2019_Oct_25_1059,ACPT_experiment_5_30_19,3.1.0,59.94595015179194,
,,,C,U,g,n,,,,,,,,,,4,12,92,7,,,,,,,,,,,,,n,1,1.1341944874507135,2139.2466239701816,None,,,,,001,63,2019_Oct_25_1059,ACPT_experiment_5_30_19,3.1.0,59.94595015179194,
,,,C,U,y,n,,,,,,,,,,4,13,93,8,,,,,,,,,,,,,n,1,1.164227320296959,2143.6866559548134,None,,,,,001,63,2019_Oct_25_1059,ACPT_experiment_5_30_19,3.1.0,59.94595015179194,
,,,C,G,g,v,,,,,,,,,,4,14,94,13,,,,,,,,,,,,,v,1,1.5845544654875994,2148.1367219253807,None,,,,,001,63,2019_Oct_25_1059,ACPT_experiment_5_30_19,3.1.0,59.94595015179194,
,,,C,D,y,b,,,,,,,,,,4,15,95,2,,,,,,,,,,,,,b,1,0.9674189011789167,2153.007101155775,None,,,,,001,63,2019_Oct_25_1059,ACPT_experiment_5_30_19,3.1.0,59.94595015179194,
,,,C,G,d,b,,,,,,,,,,4,16,96,12,,,,,,,,,,,,,b,1,1.5511906547881154,2157.2770323115415,None,,,,,001,63,2019_Oct_25_1059,ACPT_experiment_5_30_19,3.1.0,59.94595015179194,
,,,C,D,g,b,,,,,,,,,,4,17,97,1,,,,,,,,,,,,,b,1,2.318544717358691,2162.114043505257,None,,,,,001,63,2019_Oct_25_1059,ACPT_experiment_5_30_19,3.1.0,59.94595015179194,
,,,C,U,d,n,,,,,,,,,,4,18,98,15,,,,,,,,,,,,,n,1,1.017453297637985,2167.7183133751364,None,,,,,001,63,2019_Oct_25_1059,ACPT_experiment_5_30_19,3.1.0,59.94595015179194,
,,,C,U,g,n,,,,,,,,,,4,19,99,16,,,,,,,,,,,,,n,1,0.8503827983290648,2172.021870956077,None,,,,,001,63,2019_Oct_25_1059,ACPT_experiment_5_30_19,3.1.0,59.94595015179194,
,,,C,G,g,v,,,,,,,,,,5,0,100,4,,,,,,,,,,,,,v,1,1.7346645975462707,2176.1580794248803,None,,,,,001,63,2019_Oct_25_1059,ACPT_experiment_5_30_19,3.1.0,59.94595015179194,
,,,C,D,y,b,,,,,,,,,,5,1,101,11,,,,,,,,,,,,,b,1,1.2841826697990655,2181.178578144861,None,,,,,001,63,2019_Oct_25_1059,ACPT_experiment_5_30_19,3.1.0,59.94595015179194,
,,,C,G,g,v,,,,,,,,,,5,2,102,19,,,,,,,,,,,,,v,1,1.2809836028955033,2185.785416203192,None,,,,,001,63,2019_Oct_25_1059,ACPT_experiment_5_30_19,3.1.0,59.94595015179194,
,,,C,U,g,n,,,,,,,,,,5,3,103,16,,,,,,,,,,,,,n,1,1.0007824100221114,2190.352233324811,None,,,,,001,63,2019_Oct_25_1059,ACPT_experiment_5_30_19,3.1.0,59.94595015179194,
,,,C,U,y,n,,,,,,,,,,5,4,104,17,,,,,,,,,,,,,n,1,1.0004515761547736,2194.6558301469945,None,,,,,001,63,2019_Oct_25_1059,ACPT_experiment_5_30_19,3.1.0,59.94595015179194,
,,,C,D,d,v,,,,,,,,,,5,5,105,0,,,,,,,,,,,,,v,1,2.3518557033071374,2198.942091093415,None,,,,,001,63,2019_Oct_25_1059,ACPT_experiment_5_30_19,3.1.0,59.94595015179194,
,,,C,U,g,n,,,,,,,,,,5,6,106,7,,,,,,,,,,,,,n,1,0.934058712748083,2204.5797434890474,None,,,,,001,63,2019_Oct_25_1059,ACPT_experiment_5_30_19,3.1.0,59.94595015179194,
,,,C,U,d,n,,,,,,,,,,5,7,107,15,,,,,,,,,,,,,n,1,0.8503930614238016,2208.7998977312827,None,,,,,001,63,2019_Oct_25_1059,ACPT_experiment_5_30_19,3.1.0,59.94595015179194,
,,,C,D,g,b,,,,,,,,,,5,8,108,10,,,,,,,,,,,,,b,1,2.4685549351752343,2212.936118274315,None,,,,,001,63,2019_Oct_25_1059,ACPT_experiment_5_30_19,3.1.0,59.94595015179194,
,,,C,G,d,b,,,,,,,,,,5,9,109,12,,,,,,,,,,,,,b,1,1.1008599567558122,2218.690500691099,None,,,,,001,63,2019_Oct_25_1059,ACPT_experiment_5_30_19,3.1.0,59.94595015179194,
,,,C,D,d,v,,,,,,,,,,5,10,110,18,,,,,,,,,,,,,v,1,1.0674934293556362,2223.0771781682247,None,,,,,001,63,2019_Oct_25_1059,ACPT_experiment_5_30_19,3.1.0,59.94595015179194,
,,,C,U,y,n,,,,,,,,,,5,11,111,8,,,,,,,,,,,,,n,1,0.9674376162333829,2227.4304897216616,None,,,,,001,63,2019_Oct_25_1059,ACPT_experiment_5_30_19,3.1.0,59.94595015179194,
,,,C,D,y,b,,,,,,,,,,5,12,112,2,,,,,,,,,,,,,b,1,1.0837356818515218,2231.7008244585236,None,,,,,001,63,2019_Oct_25_1059,ACPT_experiment_5_30_19,3.1.0,59.94595015179194,
,,,C,G,y,b,,,,,,,,,,5,13,113,14,,,,,,,,,,,,,b,1,1.1842681251532667,2236.070415996421,None,,,,,001,63,2019_Oct_25_1059,ACPT_experiment_5_30_19,3.1.0,59.94595015179194,
,,,C,U,d,n,,,,,,,,,,5,14,114,6,,,,,,,,,,,,,n,1,1.6510206798334366,2240.5574239753732,None,,,,,001,63,2019_Oct_25_1059,ACPT_experiment_5_30_19,3.1.0,59.94595015179194,
,,,C,G,y,b,,,,,,,,,,5,15,115,5,,,,,,,,,,,,,b,1,1.0341516541243436,2245.494244667945,None,,,,,001,63,2019_Oct_25_1059,ACPT_experiment_5_30_19,3.1.0,59.94595015179194,
,,,C,D,d,v,,,,,,,,,,5,16,116,9,,,,,,,,,,,,,v,1,1.100631150121444,2249.831148551953,None,,,,,001,63,2019_Oct_25_1059,ACPT_experiment_5_30_19,3.1.0,59.94595015179194,
,,,C,D,g,b,,,,,,,,,,5,17,117,1,,,,,,,,,,,,,b,1,0.9340535812011694,2254.200903393794,None,,,,,001,63,2019_Oct_25_1059,ACPT_experiment_5_30_19,3.1.0,59.94595015179194,
,,,C,G,g,v,,,,,,,,,,5,18,118,13,,,,,,,,,,,,,v,1,1.1642309425656094,2258.4407968870223,None,,,,,001,63,2019_Oct_25_1059,ACPT_experiment_5_30_19,3.1.0,59.94595015179194,
,,,C,G,d,b,,,,,,,,,,5,19,119,3,0,0,0,0,0,0,0,0,,,,,b,1,0.950735637478374,2262.874176273476,None,,,,,001,63,2019_Oct_25_1059,ACPT_experiment_5_30_19,3.1.0,59.94595015179194,
,,,C,G,d,b,R,U,y,R,u,,,,,5,19,119,3,0,0,0,0,,,,,0,0,0,31,,,,,,down,3.018733769595201,2299.1353991936226,None,001,63,2019_Oct_25_1059,ACPT_experiment_5_30_19,3.1.0,59.94595015179194,
,,,C,G,d,b,R,D,d,L,c,,,,,5,19,119,3,0,0,0,0,,,,,0,1,1,0,,,,,,up,1.3510518615294131,2303.4384297344786,None,001,63,2019_Oct_25_1059,ACPT_experiment_5_30_19,3.1.0,59.94595015179194,
,,,C,G,d,b,L,U,g,L,u,,,,,5,19,119,3,0,0,0,0,,,,,0,2,2,22,,,,,,down,2.8021278413298205,2306.0737786691243,None,001,63,2019_Oct_25_1059,ACPT_experiment_5_30_19,3.1.0,59.94595015179194,
,,,C,G,d,b,L,G,d,R,i,,,,,5,19,119,3,0,0,0,0,,,,,0,3,3,17,,,,,,down,1.868092069616523,2310.160223807904,None,001,63,2019_Oct_25_1059,ACPT_experiment_5_30_19,3.1.0,59.94595015179194,
,,,C,G,d,b,L,G,g,L,c ,,,,,5,19,119,3,0,0,0,0,,,,,0,4,4,18,,,,,,down,2.7020816875910896,2313.295923649822,None,001,63,2019_Oct_25_1059,ACPT_experiment_5_30_19,3.1.0,59.94595015179194,
,,,C,G,d,b,R,G,g,R,c ,,,,,5,19,119,3,0,0,0,0,,,,,0,5,5,7,,,,,,up,1.084160996558694,2317.2823193144495,None,001,63,2019_Oct_25_1059,ACPT_experiment_5_30_19,3.1.0,59.94595015179194,
,,,C,G,d,b,L,D,y,L,y,,,,,5,19,119,3,0,0,0,0,,,,,0,6,6,32,,,,,,down,1.0841576761458782,2319.6507918731986,None,001,63,2019_Oct_25_1059,ACPT_experiment_5_30_19,3.1.0,59.94595015179194,
,,,C,G,d,b,L,U,y,L,u,,,,,5,19,119,3,0,0,0,0,,,,,0,7,7,24,,,,,,down,1.0674768272911024,2322.01926503566,None,001,63,2019_Oct_25_1059,ACPT_experiment_5_30_19,3.1.0,59.94595015179194,
,,,C,G,d,b,L,U,g,R,u,,,,,5,19,119,3,0,0,0,0,,,,,0,8,8,23,,,,,,down,1.0507811875063453,2324.371075762465,None,001,63,2019_Oct_25_1059,ACPT_experiment_5_30_19,3.1.0,59.94595015179194,
,,,C,G,d,b,R,U,d,L,u,,,,,5,19,119,3,0,0,0,0,,,,,0,9,9,8,,,,,,down,1.6012461811478715,2326.706170021441,None,001,63,2019_Oct_25_1059,ACPT_experiment_5_30_19,3.1.0,59.94595015179194,
,,,C,G,d,b,L,D,d,L,c ,,,,,5,19,119,3,0,0,0,0,,,,,0,10,10,12,,,,,,up,0.9173618655408973,2329.5917042200335,None,001,63,2019_Oct_25_1059,ACPT_experiment_5_30_19,3.1.0,59.94595015179194,
,,,C,G,d,b,R,D,d,R,c ,,,,,5,19,119,3,0,0,0,0,,,,,0,11,11,1,,,,,,up,0.8672969816543628,2331.7933990795214,None,001,63,2019_Oct_25_1059,ACPT_experiment_5_30_19,3.1.0,59.94595015179194,
,,,C,G,d,b,L,G,y,R,y,,,,,5,19,119,3,0,0,0,0,,,,,0,12,12,35,,,,,,down,1.4510832243381628,2333.9450396200723,None,001,63,2019_Oct_25_1059,ACPT_experiment_5_30_19,3.1.0,59.94595015179194,
,,,C,G,d,b,R,U,g,L,u,,,,,5,19,119,3,0,0,0,0,,,,,0,13,13,10,,,,,,down,0.8506478276499365,2336.680436821447,None,001,63,2019_Oct_25_1059,ACPT_experiment_5_30_19,3.1.0,59.94595015179194,
,,,C,G,d,b,L,G,d,L,i,,,,,5,19,119,3,0,0,0,0,,,,,0,14,14,16,,,,,,down,1.3343456567945395,2338.8153998335565,None,001,63,2019_Oct_25_1059,ACPT_experiment_5_30_19,3.1.0,59.94595015179194,
,,,C,G,d,b,L,U,d,R,u,,,,,5,19,119,3,0,0,0,0,,,,,0,15,15,21,,,,,,down,0.9507184317026258,2341.434069730482,None,001,63,2019_Oct_25_1059,ACPT_experiment_5_30_19,3.1.0,59.94595015179194,
,,,C,G,d,b,L,U,y,R,u,,,,,5,19,119,3,0,0,0,0,,,,,0,16,16,25,,,,,,down,1.9014604081512516,2343.652398349332,None,001,63,2019_Oct_25_1059,ACPT_experiment_5_30_19,3.1.0,59.94595015179194,
,,,C,G,d,b,R,G,d,L,i,,,,,5,19,119,3,0,0,0,0,,,,,0,17,17,4,,,,,,down,1.9348308596759125,2346.8381772623557,None,001,63,2019_Oct_25_1059,ACPT_experiment_5_30_19,3.1.0,59.94595015179194,
,,,C,G,d,b,R,U,g,R,u,,,,,5,19,119,3,0,0,0,0,,,,,0,18,18,11,,,,,,down,1.3677245602793846,2350.057301271024,None,001,63,2019_Oct_25_1059,ACPT_experiment_5_30_19,3.1.0,59.94595015179194,
,,,C,G,d,b,L,D,g,R,i,,,,,5,19,119,3,0,0,0,0,,,,,0,19,19,15,,,,,,down,3.802875537944601,2352.709343732464,None,001,63,2019_Oct_25_1059,ACPT_experiment_5_30_19,3.1.0,59.94595015179194,
,,,C,G,d,b,R,D,y,R,y,,,,,5,19,119,3,0,0,0,0,,,,,0,20,20,27,,,,,,down,1.0005919390637246,2357.813370457562,None,001,63,2019_Oct_25_1059,ACPT_experiment_5_30_19,3.1.0,59.94595015179194,
,,,C,G,d,b,R,D,y,L,y,,,,,5,19,119,3,0,0,0,0,,,,,0,21,21,26,,,,,,down,1.0007724487832093,2360.114999482317,None,001,63,2019_Oct_25_1059,ACPT_experiment_5_30_19,3.1.0,59.94595015179194,
,,,C,G,d,b,R,G,y,L,y,,,,,5,19,119,3,0,0,0,0,,,,,0,22,22,28,,,,,,down,1.05078541348621,2362.40004485576,None,001,63,2019_Oct_25_1059,ACPT_experiment_5_30_19,3.1.0,59.94595015179194,
,,,C,G,d,b,L,U,d,L,u,,,,,5,19,119,3,0,0,0,0,,,,,0,23,23,20,,,,,,down,0.867323544957344,2364.7351530000988,None,001,63,2019_Oct_25_1059,ACPT_experiment_5_30_19,3.1.0,59.94595015179194,
,,,C,G,d,b,L,D,g,L,i,,,,,5,19,119,3,0,0,0,0,,,,,0,24,24,14,,,,,,down,1.1008376194331504,2366.8867896165257,None,001,63,2019_Oct_25_1059,ACPT_experiment_5_30_19,3.1.0,59.94595015179194,
,,,C,G,d,b,R,G,y,R,y,,,,,5,19,119,3,0,0,0,0,,,,,0,25,25,29,,,,,,down,0.7505416046224127,2369.2719717004225,None,001,63,2019_Oct_25_1059,ACPT_experiment_5_30_19,3.1.0,59.94595015179194,
,,,C,G,d,b,R,G,g,L,c ,,,,,5,19,119,3,0,0,0,0,,,,,0,26,26,6,,,,,,up,0.9507244688170431,2371.3068299987835,None,001,63,2019_Oct_25_1059,ACPT_experiment_5_30_19,3.1.0,59.94595015179194,
,,,C,G,d,b,R,U,y,L,u,,,,,5,19,119,3,0,0,0,0,,,,,0,27,27,30,,,,,,down,1.0174632588768873,2373.541859690821,None,001,63,2019_Oct_25_1059,ACPT_experiment_5_30_19,3.1.0,59.94595015179194,
,,,C,G,d,b,R,D,g,L,i,,,,,5,19,119,3,0,0,0,0,,,,,0,28,28,2,,,,,,down,1.2175923927529766,2375.8436191172473,None,001,63,2019_Oct_25_1059,ACPT_experiment_5_30_19,3.1.0,59.94595015179194,
,,,C,G,d,b,R,G,d,R,i,,,,,5,19,119,3,0,0,0,0,,,,,0,29,29,5,,,,,,down,1.834754822220475,2378.345530618584,None,001,63,2019_Oct_25_1059,ACPT_experiment_5_30_19,3.1.0,59.94595015179194,
,,,C,G,d,b,L,D,y,R,y,,,,,5,19,119,3,0,0,0,0,,,,,0,30,30,33,,,,,,down,1.1175254109693924,2381.464561987732,None,001,63,2019_Oct_25_1059,ACPT_experiment_5_30_19,3.1.0,59.94595015179194,
,,,C,G,d,b,L,G,y,L,y,,,,,5,19,119,3,0,0,0,0,,,,,0,31,31,34,,,,,,down,0.8003966987853346,2383.8832566971973,None,001,63,2019_Oct_25_1059,ACPT_experiment_5_30_19,3.1.0,59.94595015179194,
,,,C,G,d,b,R,U,d,R,u,,,,,5,19,119,3,0,0,0,0,,,,,0,32,32,9,,,,,,down,1.3677067507919674,2385.9846814260027,None,001,63,2019_Oct_25_1059,ACPT_experiment_5_30_19,3.1.0,59.94595015179194,
,,,C,G,d,b,R,D,g,R,i,,,,,5,19,119,3,0,0,0,0,,,,,0,33,33,3,,,,,,down,1.434429542498492,2388.6367009464084,None,001,63,2019_Oct_25_1059,ACPT_experiment_5_30_19,3.1.0,59.94595015179194,
,,,C,G,d,b,L,D,d,R,c ,,,,,5,19,119,3,0,0,0,0,,,,,0,34,34,13,,,,,,up,0.8840031863892364,2391.3554453715105,None,001,63,2019_Oct_25_1059,ACPT_experiment_5_30_19,3.1.0,59.94595015179194,
,,,C,G,d,b,L,G,g,R,c ,,,,,5,19,119,3,0,0,0,0,,,,,0,35,35,19,,,,,,up,1.2676322226147931,2393.523759516379,None,001,63,2019_Oct_25_1059,ACPT_experiment_5_30_19,3.1.0,59.94595015179194,
,,,C,G,d,b,R,G,y,L,y,,,,,5,19,119,3,0,0,0,0,,,,,1,0,36,28,,,,,,down,0.9507208465483927,2396.075705112319,None,001,63,2019_Oct_25_1059,ACPT_experiment_5_30_19,3.1.0,59.94595015179194,
,,,C,G,d,b,L,D,g,R,i,,,,,5,19,119,3,0,0,0,0,,,,,1,1,37,15,,,,,,down,1.9348036926612622,2398.3107414451824,None,001,63,2019_Oct_25_1059,ACPT_experiment_5_30_19,3.1.0,59.94595015179194,
,,,C,G,d,b,R,U,d,L,u,,,,,5,19,119,3,0,0,0,0,,,,,1,2,38,8,,,,,,down,1.300996335169657,2401.5299022802483,None,001,63,2019_Oct_25_1059,ACPT_experiment_5_30_19,3.1.0,59.94595015179194,
,,,C,G,d,b,R,U,d,R,u,,,,,5,19,119,3,0,0,0,0,,,,,1,3,39,9,,,,,,down,1.0841558650113257,2404.0984885782323,None,001,63,2019_Oct_25_1059,ACPT_experiment_5_30_19,3.1.0,59.94595015179194,
,,,C,G,d,b,R,G,d,R,i,,,,,5,19,119,3,0,0,0,0,,,,,1,4,40,5,,,,,,down,1.3343740312316186,2406.466955703579,None,001,63,2019_Oct_25_1059,ACPT_experiment_5_30_19,3.1.0,59.94595015179194,
,,,C,G,d,b,R,U,g,R,u,,,,,5,19,119,3,0,0,0,0,,,,,1,5,41,11,,,,,,down,1.417746580653784,2409.085621374524,None,001,63,2019_Oct_25_1059,ACPT_experiment_5_30_19,3.1.0,59.94595015179194,
,,,C,G,d,b,R,D,y,R,y,,,,,5,19,119,3,0,0,0,0,,,,,1,6,42,27,,,,,,down,0.8506568833217898,2411.7876810266475,None,001,63,2019_Oct_25_1059,ACPT_experiment_5_30_19,3.1.0,59.94595015179194,
,,,C,G,d,b,L,G,g,L,c ,,,,,5,19,119,3,0,0,0,0,,,,,1,7,43,18,,,,,,up,1.0507950728692776,2413.9226434350458,None,001,63,2019_Oct_25_1059,ACPT_experiment_5_30_19,3.1.0,59.94595015179194,
,,,C,G,d,b,L,U,g,R,u,,,,,5,19,119,3,0,0,0,0,,,,,1,8,44,23,,,,,,down,0.6671666403549352,2416.257759729489,None,001,63,2019_Oct_25_1059,ACPT_experiment_5_30_19,3.1.0,59.94595015179194,
,,,C,G,d,b,L,D,g,L,i,,,,,5,19,119,3,0,0,0,0,,,,,1,9,45,14,,,,,,down,1.2342641859358991,2418.2092457802833,None,001,63,2019_Oct_25_1059,ACPT_experiment_5_30_19,3.1.0,59.94595015179194,
,,,C,G,d,b,R,G,d,L,i,,,,,5,19,119,3,0,0,0,0,,,,,1,10,46,4,,,,,,down,1.0174665792892483,2420.7278284710915,None,001,63,2019_Oct_25_1059,ACPT_experiment_5_30_19,3.1.0,59.94595015179194,
,,,C,G,d,b,R,U,y,R,u,,,,,5,19,119,3,0,0,0,0,,,,,1,11,47,31,,,,,,down,0.7338900357731291,2423.029583369682,None,001,63,2019_Oct_25_1059,ACPT_experiment_5_30_19,3.1.0,59.94595015179194,
,,,C,G,d,b,L,G,g,R,c ,,,,,5,19,119,3,0,0,0,0,,,,,1,12,48,19,,,,,,up,1.4344352777570748,2425.047808210536,None,001,63,2019_Oct_25_1059,ACPT_experiment_5_30_19,3.1.0,59.94595015179194,
,,,C,G,d,b,L,G,d,L,i,,,,,5,19,119,3,0,0,0,0,,,,,1,13,49,16,,,,,,down,1.2175914871859277,2427.7498461290475,None,001,63,2019_Oct_25_1059,ACPT_experiment_5_30_19,3.1.0,59.94595015179194,
,,,C,G,d,b,L,U,d,L,u,,,,,5,19,119,3,0,0,0,0,,,,,1,14,50,20,,,,,,down,0.6671772053050518,2430.23507255555,None,001,63,2019_Oct_25_1059,ACPT_experiment_5_30_19,3.1.0,59.94595015179194,
,,,C,G,d,b,L,U,y,R,u,,,,,5,19,119,3,0,0,0,0,,,,,1,15,51,25,,,,,,down,0.7505944293734501,2432.1698554201666,None,001,63,2019_Oct_25_1059,ACPT_experiment_5_30_19,3.1.0,59.94595015179194,
,,,C,G,d,b,R,D,g,R,i,,,,,5,19,119,3,0,0,0,0,,,,,1,16,52,3,,,,,,down,0.9507459005731107,2434.2047426966765,None,001,63,2019_Oct_25_1059,ACPT_experiment_5_30_19,3.1.0,59.94595015179194,
,,,C,G,d,b,R,D,y,L,y,,,,,5,19,119,3,0,0,0,0,,,,,1,17,53,26,,,,,,down,0.8839530783398004,2436.439843324808,None,001,63,2019_Oct_25_1059,ACPT_experiment_5_30_19,3.1.0,59.94595015179194,
,,,C,G,d,b,R,U,y,L,u,,,,,5,19,119,3,0,0,0,0,,,,,1,18,54,30,,,,,,down,0.6838544318911772,2438.6081194358558,None,001,63,2019_Oct_25_1059,ACPT_experiment_5_30_19,3.1.0,59.94595015179194,
,,,C,G,d,b,L,G,d,R,i,,,,,5,19,119,3,0,0,0,0,,,,,1,19,55,17,,,,,,down,1.1508904290908504,2440.576290259629,None,001,63,2019_Oct_25_1059,ACPT_experiment_5_30_19,3.1.0,59.94595015179194,
,,,C,G,d,b,R,G,y,R,y,,,,,5,19,119,3,0,0,0,0,,,,,1,20,56,29,,,,,,down,0.7005515809541976,2443.0114786674035,None,001,63,2019_Oct_25_1059,ACPT_experiment_5_30_19,3.1.0,59.94595015179194,
,,,C,G,d,b,L,D,d,L,c ,,,,,5,19,119,3,0,0,0,0,,,,,1,21,57,12,,,,,,up,0.9674080343729656,2444.9963203787925,None,001,63,2019_Oct_25_1059,ACPT_experiment_5_30_19,3.1.0,59.94595015179194,
,,,C,G,d,b,L,U,g,L,u,,,,,5,19,119,3,0,0,0,0,,,,,1,22,58,22,,,,,,down,0.5671150532130014,2447.2480420883467,None,001,63,2019_Oct_25_1059,ACPT_experiment_5_30_19,3.1.0,59.94595015179194,
,,,C,G,d,b,L,G,y,R,y,,,,,5,19,119,3,0,0,0,0,,,,,1,23,59,35,,,,,,down,1.4344207886824734,2449.0994539128196,None,001,63,2019_Oct_25_1059,ACPT_experiment_5_30_19,3.1.0,59.94595015179194,
,,,C,G,d,b,L,U,d,R,u,,,,,5,19,119,3,0,0,0,0,,,,,1,24,60,21,,,,,,down,0.7005256213624307,2451.818194111942,None,001,63,2019_Oct_25_1059,ACPT_experiment_5_30_19,3.1.0,59.94595015179194,
,,,C,G,d,b,L,D,d,R,c ,,,,,5,19,119,3,0,0,0,0,,,,,1,25,61,13,,,,,,up,0.9006855445222754,2453.786353465198,None,001,63,2019_Oct_25_1059,ACPT_experiment_5_30_19,3.1.0,59.94595015179194,
,,,C,G,d,b,L,U,y,L,u,,,,,5,19,119,3,0,0,0,0,,,,,1,26,62,24,,,,,,down,0.6838462817863729,2455.9880365523127,None,001,63,2019_Oct_25_1059,ACPT_experiment_5_30_19,3.1.0,59.94595015179194,
,,,C,G,d,b,R,D,g,L,i,,,,,5,19,119,3,0,0,0,0,,,,,1,27,63,2,,,,,,down,1.0508177120482287,2457.9728574356573,None,001,63,2019_Oct_25_1059,ACPT_experiment_5_30_19,3.1.0,59.94595015179194,
,,,C,G,d,b,R,G,g,R,c ,,,,,5,19,119,3,0,0,0,0,,,,,1,28,64,7,,,,,,up,0.8840276367022852,2460.3079942562895,None,001,63,2019_Oct_25_1059,ACPT_experiment_5_30_19,3.1.0,59.94595015179194,
,,,C,G,d,b,R,G,g,L,c ,,,,,5,19,119,3,0,0,0,0,,,,,1,29,65,6,,,,,,up,0.81743071883011,2462.4594826615585,None,001,63,2019_Oct_25_1059,ACPT_experiment_5_30_19,3.1.0,59.94595015179194,
,,,C,G,d,b,R,D,d,R,c ,,,,,5,19,119,3,0,0,0,0,,,,,1,30,66,1,,,,,,up,1.2843444644645388,2464.561231583405,None,001,63,2019_Oct_25_1059,ACPT_experiment_5_30_19,3.1.0,59.94595015179194,
,,,C,G,d,b,R,D,d,L,c,,,,,5,19,119,3,0,0,0,0,,,,,1,31,67,0,,,,,,up,0.7339377289763434,2467.1131566531567,None,001,63,2019_Oct_25_1059,ACPT_experiment_5_30_19,3.1.0,59.94595015179194,
,,,C,G,d,b,L,D,y,L,y,,,,,5,19,119,3,0,0,0,0,,,,,1,32,68,32,,,,,,down,0.7672466019348576,2469.1313839088566,None,001,63,2019_Oct_25_1059,ACPT_experiment_5_30_19,3.1.0,59.94595015179194,
,,,C,G,d,b,L,D,y,R,y,,,,,5,19,119,3,0,0,0,0,,,,,1,33,69,33,,,,,,down,0.9340686739869852,2471.182959580614,None,001,63,2019_Oct_25_1059,ACPT_experiment_5_30_19,3.1.0,59.94595015179194,
,,,C,G,d,b,L,G,y,L,y,,,,,5,19,119,3,0,0,0,0,,,,,1,34,70,34,,,,,,down,0.8339684880743334,2473.4013069145185,None,001,63,2019_Oct_25_1059,ACPT_experiment_5_30_19,3.1.0,59.94595015179194,
,,,C,G,d,b,R,U,g,L,u,,,,,5,19,119,3,0,0,0,0,,,,,1,35,71,10,,,,,,down,1.317681711860132,2475.519577003545,None,001,63,2019_Oct_25_1059,ACPT_experiment_5_30_19,3.1.0,59.94595015179194,
,,,C,G,d,b,,,,,,,,,,5,19,119,3,1,0,1,0,0,0,0,0,,,,,,,,,,,,,,001,63,2019_Oct_25_1059,ACPT_experiment_5_30_19,3.1.0,59.94595015179194,
,,,C,G,d,b,L,G,y,L,y,,,,,5,19,119,3,1,0,1,0,,,,,0,0,0,34,,,,,,down,0.7503137035555483,2484.3265749850357,None,001,63,2019_Oct_25_1059,ACPT_experiment_5_30_19,3.1.0,59.94595015179194,
,,,C,G,d,b,L,D,y,L,y,,,,,5,19,119,3,1,0,1,0,,,,,0,1,1,32,,,,,,down,0.8506523554860905,2486.361183045006,None,001,63,2019_Oct_25_1059,ACPT_experiment_5_30_19,3.1.0,59.94595015179194,
,,,C,G,d,b,R,G,g,R,c ,,,,,5,19,119,3,1,0,1,0,,,,,0,2,2,7,,,,,,up,1.2843022046636179,2488.4961448496924,None,001,63,2019_Oct_25_1059,ACPT_experiment_5_30_19,3.1.0,59.94595015179194,
,,,C,G,d,b,R,U,d,R,u,,,,,5,19,119,3,1,0,1,0,,,,,0,3,3,9,,,,,,down,0.9006976187506552,2491.0647718981986,None,001,63,2019_Oct_25_1059,ACPT_experiment_5_30_19,3.1.0,59.94595015179194,
,,,C,G,d,b,L,D,g,L,i,,,,,5,19,119,3,1,0,1,0,,,,,0,4,4,14,,,,,,down,1.8847967650726787,2493.2497472713,None,001,63,2019_Oct_25_1059,ACPT_experiment_5_30_19,3.1.0,59.94595015179194,
,,,C,G,d,b,L,G,g,L,c ,,,,,5,19,119,3,1,0,1,0,,,,,0,5,5,18,,,,,,up,0.8506294144513049,2496.418873408051,None,001,63,2019_Oct_25_1059,ACPT_experiment_5_30_19,3.1.0,59.94595015179194,
,,,C,G,d,b,L,G,g,R,c ,,,,,5,19,119,3,1,0,1,0,,,,,0,6,6,19,,,,,,up,0.8339639602381794,2498.5538092531456,None,001,63,2019_Oct_25_1059,ACPT_experiment_5_30_19,3.1.0,59.94595015179194,
,,,C,G,d,b,L,G,d,L,i,,,,,5,19,119,3,1,0,1,0,,,,,0,7,7,16,,,,,,down,0.8172816021051403,2500.672090208978,None,001,63,2019_Oct_25_1059,ACPT_experiment_5_30_19,3.1.0,59.94595015179194,
,,,C,G,d,b,R,G,y,L,y,,,,,5,19,119,3,1,0,1,0,,,,,0,8,8,28,,,,,,down,0.8006131293350336,2502.773690617811,None,001,63,2019_Oct_25_1059,ACPT_experiment_5_30_19,3.1.0,59.94595015179194,
,,,C,G,d,b,L,U,d,L,u,,,,,5,19,119,3,1,0,1,0,,,,,0,9,9,20,,,,,,down,0.6838897490101772,2504.858590557168,None,001,63,2019_Oct_25_1059,ACPT_experiment_5_30_19,3.1.0,59.94595015179194,
,,,C,G,d,b,R,U,g,R,u,,,,,5,19,119,3,1,0,1,0,,,,,0,10,10,11,,,,,,down,0.8006215812952178,2506.826780397852,None,001,63,2019_Oct_25_1059,ACPT_experiment_5_30_19,3.1.0,59.94595015179194,
,,,C,G,d,b,R,U,y,L,u,,,,,5,19,119,3,1,0,1,0,,,,,0,11,11,30,,,,,,down,0.7334638154989079,2508.9454742923067,None,001,63,2019_Oct_25_1059,ACPT_experiment_5_30_19,3.1.0,59.94595015179194,
,,,C,G,d,b,R,D,g,R,i,,,,,5,19,119,3,1,0,1,0,,,,,0,12,12,3,,,,,,down,1.3343426382371035,2510.979948328338,None,001,63,2019_Oct_25_1059,ACPT_experiment_5_30_19,3.1.0,59.94595015179194,
,,,C,G,d,b,L,U,d,R,u,,,,,5,19,119,3,1,0,1,0,,,,,0,13,13,21,,,,,,down,0.7005271306411487,2513.5986103770147,None,001,63,2019_Oct_25_1059,ACPT_experiment_5_30_19,3.1.0,59.94595015179194,
,,,C,G,d,b,L,D,d,L,c ,,,,,5,19,119,3,1,0,1,0,,,,,0,14,14,12,,,,,,up,0.6671192490071007,2515.5835058187217,None,001,63,2019_Oct_25_1059,ACPT_experiment_5_30_19,3.1.0,59.94595015179194,
,,,C,G,d,b,L,D,y,R,y,,,,,5,19,119,3,1,0,1,0,,,,,0,15,15,33,,,,,,down,0.7005283380640321,2517.534946893014,None,001,63,2019_Oct_25_1059,ACPT_experiment_5_30_19,3.1.0,59.94595015179194,
,,,C,G,d,b,R,G,d,R,i,,,,,5,19,119,3,1,0,1,0,,,,,0,16,16,5,,,,,,down,0.9337610830102676,2519.536748971653,None,001,63,2019_Oct_25_1059,ACPT_experiment_5_30_19,3.1.0,59.94595015179194,
,,,C,G,d,b,L,G,y,R,y,,,,,5,19,119,3,1,0,1,0,,,,,0,17,17,35,,,,,,down,0.6671693570560819,2521.7548258428337,None,001,63,2019_Oct_25_1059,ACPT_experiment_5_30_19,3.1.0,59.94595015179194,
,,,C,G,d,b,R,D,y,L,y,,,,,5,19,119,3,1,0,1,0,,,,,0,18,18,26,,,,,,down,0.7839422417196147,2523.722987610936,None,001,63,2019_Oct_25_1059,ACPT_experiment_5_30_19,3.1.0,59.94595015179194,
,,,C,G,d,b,L,U,g,L,u,,,,,5,19,119,3,1,0,1,0,,,,,0,19,19,22,,,,,,down,1.3843882033579575,2525.8079116987506,None,001,63,2019_Oct_25_1059,ACPT_experiment_5_30_19,3.1.0,59.94595015179194,
,,,C,G,d,b,R,U,g,L,u,,,,,5,19,119,3,1,0,1,0,,,,,0,20,20,10,,,,,,down,0.617158203487179,2528.4766120680106,None,001,63,2019_Oct_25_1059,ACPT_experiment_5_30_19,3.1.0,59.94595015179194,
,,,C,G,d,b,R,D,d,R,c ,,,,,5,19,119,3,1,0,1,0,,,,,0,21,21,1,,,,,,up,0.9841335578739745,2530.3780643260575,None,001,63,2019_Oct_25_1059,ACPT_experiment_5_30_19,3.1.0,59.94595015179194,
,,,C,G,d,b,L,D,g,R,i,,,,,5,19,119,3,1,0,1,0,,,,,0,22,22,15,,,,,,down,0.6838486966321398,2532.646459941784,None,001,63,2019_Oct_25_1059,ACPT_experiment_5_30_19,3.1.0,59.94595015179194,
,,,C,G,d,b,R,U,y,R,u,,,,,5,19,119,3,1,0,1,0,,,,,0,23,23,31,,,,,,down,0.6171503552391187,2534.6146262377215,None,001,63,2019_Oct_25_1059,ACPT_experiment_5_30_19,3.1.0,59.94595015179194,
,,,C,G,d,b,L,U,y,R,u,,,,,5,19,119,3,1,0,1,0,,,,,0,24,24,25,,,,,,down,0.5670736989791294,2536.4994205879484,None,001,63,2019_Oct_25_1059,ACPT_experiment_5_30_19,3.1.0,59.94595015179194,
,,,C,G,d,b,L,U,y,L,u,,,,,5,19,119,3,1,0,1,0,,,,,0,25,25,24,,,,,,down,0.6338085649144887,2538.350811886233,None,001,63,2019_Oct_25_1059,ACPT_experiment_5_30_19,3.1.0,59.94595015179194,
,,,C,G,d,b,R,G,d,L,i,,,,,5,19,119,3,1,0,1,0,,,,,0,26,26,4,,,,,,down,1.3676919598615314,2540.3023142372363,None,001,63,2019_Oct_25_1059,ACPT_experiment_5_30_19,3.1.0,59.94595015179194,
,,,C,G,d,b,R,D,y,R,y,,,,,5,19,119,3,1,0,1,0,,,,,0,27,27,27,,,,,,down,0.7505536788512472,2542.970998909999,None,001,63,2019_Oct_25_1059,ACPT_experiment_5_30_19,3.1.0,59.94595015179194,
,,,C,G,d,b,R,D,g,L,i,,,,,5,19,119,3,1,0,1,0,,,,,0,28,28,2,,,,,,down,1.0507021013081612,2545.022562205672,None,001,63,2019_Oct_25_1059,ACPT_experiment_5_30_19,3.1.0,59.94595015179194,
,,,C,G,d,b,R,G,g,L,c ,,,,,5,19,119,3,1,0,1,0,,,,,0,29,29,6,,,,,,up,0.6338158094517894,2547.3576718592894,None,001,63,2019_Oct_25_1059,ACPT_experiment_5_30_19,3.1.0,59.94595015179194,
,,,C,G,d,b,R,D,d,L,c,,,,,5,19,119,3,1,0,1,0,,,,,0,30,30,0,,,,,,up,0.9507274873740243,2549.275798325365,None,001,63,2019_Oct_25_1059,ACPT_experiment_5_30_19,3.1.0,59.94595015179194,
,,,C,G,d,b,L,D,d,R,c ,,,,,5,19,119,3,1,0,1,0,,,,,0,31,31,13,,,,,,up,0.7505660549359163,2551.51083948792,None,001,63,2019_Oct_25_1059,ACPT_experiment_5_30_19,3.1.0,59.94595015179194,
,,,C,G,d,b,R,U,d,L,u,,,,,5,19,119,3,1,0,1,0,,,,,0,32,32,8,,,,,,down,1.067473205022452,2553.545724047728,None,001,63,2019_Oct_25_1059,ACPT_experiment_5_30_19,3.1.0,59.94595015179194,
,,,C,G,d,b,L,G,d,R,i,,,,,5,19,119,3,1,0,1,0,,,,,0,33,33,17,,,,,,up,0.6671766015938374,2555.89751243721,None,001,63,2019_Oct_25_1059,ACPT_experiment_5_30_19,3.1.0,59.94595015179194,
,,,C,G,d,b,L,U,g,R,u,,,,,5,19,119,3,1,0,1,0,,,,,0,34,34,23,,,,,,down,1.551189447365232,2557.848996073159,None,001,63,2019_Oct_25_1059,ACPT_experiment_5_30_19,3.1.0,59.94595015179194,
,,,C,G,d,b,R,G,y,R,y,,,,,5,19,119,3,1,0,1,0,,,,,0,35,35,29,,,,,,down,0.9004051205597534,2560.701450205428,None,001,63,2019_Oct_25_1059,ACPT_experiment_5_30_19,3.1.0,59.94595015179194,
,,,C,G,d,b,L,G,d,L,i,,,,,5,19,119,3,1,0,1,0,,,,,1,0,36,16,,,,,,down,0.9006909779245689,2562.8861690011686,None,001,63,2019_Oct_25_1059,ACPT_experiment_5_30_19,3.1.0,59.94595015179194,
,,,C,G,d,b,R,G,y,R,y,,,,,5,19,119,3,1,0,1,0,,,,,1,1,37,29,,,,,,down,0.7338951673200427,2565.071168522727,None,001,63,2019_Oct_25_1059,ACPT_experiment_5_30_19,3.1.0,59.94595015179194,
,,,C,G,d,b,R,U,y,L,u,,,,,5,19,119,3,1,0,1,0,,,,,1,2,38,30,,,,,,down,0.8337113070019768,2567.106308754329,None,001,63,2019_Oct_25_1059,ACPT_experiment_5_30_19,3.1.0,59.94595015179194,
,,,C,G,d,b,L,G,g,L,c ,,,,,5,19,119,3,1,0,1,0,,,,,1,3,39,18,,,,,,up,1.8180510323313683,2569.224336151358,None,001,63,2019_Oct_25_1059,ACPT_experiment_5_30_19,3.1.0,59.94595015179194,
,,,C,G,d,b,L,U,g,L,u,,,,,5,19,119,3,1,0,1,0,,,,,1,4,40,22,,,,,,down,0.6338194317204398,2572.3266957273227,None,001,63,2019_Oct_25_1059,ACPT_experiment_5_30_19,3.1.0,59.94595015179194,
,,,C,G,d,b,L,U,d,L,u,,,,,5,19,119,3,1,0,1,0,,,,,1,5,41,20,,,,,,down,0.6004707138072263,2574.228145570524,None,001,63,2019_Oct_25_1059,ACPT_experiment_5_30_19,3.1.0,59.94595015179194,
,,,C,G,d,b,L,G,g,R,c ,,,,,5,19,119,3,1,0,1,0,,,,,1,6,42,19,,,,,,up,0.7172351465101201,2576.112891623836,None,001,63,2019_Oct_25_1059,ACPT_experiment_5_30_19,3.1.0,59.94595015179194,
,,,C,G,d,b,L,D,g,R,i,,,,,5,19,119,3,1,0,1,0,,,,,1,7,43,15,,,,,,down,0.9004135725199376,2578.1313986997866,None,001,63,2019_Oct_25_1059,ACPT_experiment_5_30_19,3.1.0,59.94595015179194,
,,,C,G,d,b,R,U,d,R,u,,,,,5,19,119,3,1,0,1,0,,,,,1,8,44,9,,,,,,down,0.6838529226124592,2580.3161214196516,None,001,63,2019_Oct_25_1059,ACPT_experiment_5_30_19,3.1.0,59.94595015179194,
,,,C,G,d,b,L,U,g,R,u,,,,,5,19,119,3,1,0,1,0,,,,,1,9,45,23,,,,,,down,0.6838432632293916,2582.2842970731162,None,001,63,2019_Oct_25_1059,ACPT_experiment_5_30_19,3.1.0,59.94595015179194,
,,,C,G,d,b,R,D,g,L,i,,,,,5,19,119,3,1,0,1,0,,,,,1,10,46,2,,,,,,down,0.8840270329906161,2584.252432881626,None,001,63,2019_Oct_25_1059,ACPT_experiment_5_30_19,3.1.0,59.94595015179194,
,,,C,G,d,b,R,U,y,R,u,,,,,5,19,119,3,1,0,1,0,,,,,1,11,47,31,,,,,,down,0.9507259780953063,2586.420773589798,None,001,63,2019_Oct_25_1059,ACPT_experiment_5_30_19,3.1.0,59.94595015179194,
,,,C,G,d,b,R,D,g,R,i,,,,,5,19,119,3,1,0,1,0,,,,,1,12,48,3,,,,,,down,0.9340713906885867,2588.65581354493,None,001,63,2019_Oct_25_1059,ACPT_experiment_5_30_19,3.1.0,59.94595015179194,
,,,C,G,d,b,L,U,y,L,u,,,,,5,19,119,3,1,0,1,0,,,,,1,13,49,24,,,,,,down,0.6505162789280803,2590.874165708526,None,001,63,2019_Oct_25_1059,ACPT_experiment_5_30_19,3.1.0,59.94595015179194,
,,,C,G,d,b,R,U,g,L,u,,,,,5,19,119,3,1,0,1,0,,,,,1,14,50,10,,,,,,down,0.6838483947763052,2592.8089772494363,None,001,63,2019_Oct_25_1059,ACPT_experiment_5_30_19,3.1.0,59.94595015179194,
,,,C,G,d,b,L,D,y,L,y,,,,,5,19,119,3,1,0,1,0,,,,,1,15,51,32,,,,,,down,0.9840988444661889,2594.7771441490854,None,001,63,2019_Oct_25_1059,ACPT_experiment_5_30_19,3.1.0,59.94595015179194,
,,,C,G,d,b,R,G,g,R,c ,,,,,5,19,119,3,1,0,1,0,,,,,1,16,52,7,,,,,,up,1.0674716957441888,2597.0455461037823,None,001,63,2019_Oct_25_1059,ACPT_experiment_5_30_19,3.1.0,59.94595015179194,
,,,C,G,d,b,R,D,d,L,c,,,,,5,19,119,3,1,0,1,0,,,,,1,17,53,0,,,,,,down,0.8006046773748494,2599.3973323802743,None,001,63,2019_Oct_25_1059,ACPT_experiment_5_30_19,3.1.0,59.94595015179194,
,,,C,G,d,b,L,G,y,L,y,,,,,5,19,119,3,1,0,1,0,,,,,1,18,54,34,,,,,,down,0.7172076776396352,2601.482258279223,None,001,63,2019_Oct_25_1059,ACPT_experiment_5_30_19,3.1.0,59.94595015179194,
,,,C,G,d,b,R,D,y,L,y,,,,,5,19,119,3,1,0,1,0,,,,,1,19,55,26,,,,,,down,0.6670166180629167,2603.5006147291706,None,001,63,2019_Oct_25_1059,ACPT_experiment_5_30_19,3.1.0,59.94595015179194,
,,,C,G,d,b,L,D,y,R,y,,,,,5,19,119,3,1,0,1,0,,,,,1,20,56,33,,,,,,down,0.650475830261712,2605.468634323229,None,001,63,2019_Oct_25_1059,ACPT_experiment_5_30_19,3.1.0,59.94595015179194,
,,,C,G,d,b,L,G,d,R,i,,,,,5,19,119,3,1,0,1,0,,,,,1,21,57,17,,,,,,down,0.8339639602381794,2607.4034304694974,None,001,63,2019_Oct_25_1059,ACPT_experiment_5_30_19,3.1.0,59.94595015179194,
,,,C,G,d,b,L,U,d,R,u,,,,,5,19,119,3,1,0,1,0,,,,,1,22,58,21,,,,,,down,0.6504812636644601,2609.5217250088367,None,001,63,2019_Oct_25_1059,ACPT_experiment_5_30_19,3.1.0,59.94595015179194,
,,,C,G,d,b,L,U,y,R,u,,,,,5,19,119,3,1,0,1,0,,,,,1,23,59,25,,,,,,down,0.7672420740991583,2611.456529003354,None,001,63,2019_Oct_25_1059,ACPT_experiment_5_30_19,3.1.0,59.94595015179194,
,,,C,G,d,b,L,D,g,L,i,,,,,5,19,119,3,1,0,1,0,,,,,1,24,60,14,,,,,,down,0.967399884268616,2613.5080847526337,None,001,63,2019_Oct_25_1059,ACPT_experiment_5_30_19,3.1.0,59.94595015179194,
,,,C,G,d,b,L,D,d,R,c ,,,,,5,19,119,3,1,0,1,0,,,,,1,25,61,13,,,,,,up,0.7338963747433809,2615.759795293526,None,001,63,2019_Oct_25_1059,ACPT_experiment_5_30_19,3.1.0,59.94595015179194,
,,,C,G,d,b,R,G,y,L,y,,,,,5,19,119,3,1,0,1,0,,,,,1,26,62,28,,,,,,down,0.7005485623972163,2617.778003834171,None,001,63,2019_Oct_25_1059,ACPT_experiment_5_30_19,3.1.0,59.94595015179194,
,,,C,G,d,b,R,D,y,R,y,,,,,5,19,119,3,1,0,1,0,,,,,1,27,63,27,,,,,,down,0.6671974296382359,2619.7628262267945,None,001,63,2019_Oct_25_1059,ACPT_experiment_5_30_19,3.1.0,59.94595015179194,
,,,C,G,d,b,R,U,d,L,u,,,,,5,19,119,3,1,0,1,0,,,,,1,28,64,8,,,,,,down,0.6838565448811096,2621.7143364260464,None,001,63,2019_Oct_25_1059,ACPT_experiment_5_30_19,3.1.0,59.94595015179194,
,,,C,G,d,b,R,U,g,R,u,,,,,5,19,119,3,1,0,1,0,,,,,1,29,65,11,,,,,,down,0.7672668262680418,2623.6658016487963,None,001,63,2019_Oct_25_1059,ACPT_experiment_5_30_19,3.1.0,59.94595015179194,
,,,C,G,d,b,R,G,d,R,i,,,,,5,19,119,3,1,0,1,0,,,,,1,30,66,5,,,,,,down,0.8339543008555665,2625.717393017051,None,001,63,2019_Oct_25_1059,ACPT_experiment_5_30_19,3.1.0,59.94595015179194,
,,,C,G,d,b,R,D,d,R,c ,,,,,5,19,119,3,1,0,1,0,,,,,1,31,67,1,,,,,,up,0.7172112999087403,2627.8356658227785,None,001,63,2019_Oct_25_1059,ACPT_experiment_5_30_19,3.1.0,59.94595015179194,
,,,C,G,d,b,R,G,d,L,i,,,,,5,19,119,3,1,0,1,0,,,,,1,32,68,4,,,,,,down,0.6671974296377812,2629.837170573535,None,001,63,2019_Oct_25_1059,ACPT_experiment_5_30_19,3.1.0,59.94595015179194,
,,,C,G,d,b,L,D,d,L,c ,,,,,5,19,119,3,1,0,1,0,,,,,1,33,69,12,,,,,,up,1.100855127064733,2631.7886819802097,None,001,63,2019_Oct_25_1059,ACPT_experiment_5_30_19,3.1.0,59.94595015179194,
,,,C,G,d,b,R,G,g,L,c ,,,,,5,19,119,3,1,0,1,0,,,,,1,34,70,6,,,,,,up,0.8006022625290825,2634.1738362933806,None,001,63,2019_Oct_25_1059,ACPT_experiment_5_30_19,3.1.0,59.94595015179194,
,,,C,G,d,b,L,G,y,R,y,,,,,5,19,119,3,1,0,1,0,,,,,1,35,71,35,,,,,,down,0.8339633565269651,2636.258754344081,None,001,63,2019_Oct_25_1059,ACPT_experiment_5_30_19,3.1.0,59.94595015179194,
,,,C,G,d,b,,,,,,,,,,5,19,119,3,2,0,2,0,0,0,0,0,,,,,,,,,,,,,,001,63,2019_Oct_25_1059,ACPT_experiment_5_30_19,3.1.0,59.94595015179194,
,,,C,G,d,b,R,G,d,R,i,,,,,5,19,119,3,2,0,2,0,,,,,0,0,0,5,,,,,,down,0.9140414526382301,2642.5001700956973,None,001,63,2019_Oct_25_1059,ACPT_experiment_5_30_19,3.1.0,59.94595015179194,
,,,C,G,d,b,L,U,g,L,u,,,,,5,19,119,3,2,0,2,0,,,,,0,1,1,22,,,,,,down,1.45111280619858,2644.698517073412,None,001,63,2019_Oct_25_1059,ACPT_experiment_5_30_19,3.1.0,59.94595015179194,
,,,C,G,d,b,R,G,g,R,c ,,,,,5,19,119,3,2,0,2,0,,,,,0,2,2,7,,,,,,up,0.6671711681906345,2647.433939026956,None,001,63,2019_Oct_25_1059,ACPT_experiment_5_30_19,3.1.0,59.94595015179194,
,,,C,G,d,b,R,G,d,L,i,,,,,5,19,119,3,2,0,2,0,,,,,0,3,3,4,,,,,,down,0.7505684697816832,2649.3854250777504,None,001,63,2019_Oct_25_1059,ACPT_experiment_5_30_19,3.1.0,59.94595015179194,
,,,C,G,d,b,L,U,g,R,u,,,,,5,19,119,3,2,0,2,0,,,,,0,4,4,23,,,,,,down,0.7172514467188194,2651.420313863539,None,001,63,2019_Oct_25_1059,ACPT_experiment_5_30_19,3.1.0,59.94595015179194,
,,,C,G,d,b,R,G,y,L,y,,,,,5,19,119,3,2,0,2,0,,,,,0,5,5,28,,,,,,down,0.9173555265706455,2653.438517272637,None,001,63,2019_Oct_25_1059,ACPT_experiment_5_30_19,3.1.0,59.94595015179194,
,,,C,G,d,b,L,D,y,L,y,,,,,5,19,119,3,2,0,2,0,,,,,0,6,6,32,,,,,,down,0.8839956399961011,2655.6568766807704,None,001,63,2019_Oct_25_1059,ACPT_experiment_5_30_19,3.1.0,59.94595015179194,
,,,C,G,d,b,L,U,d,L,u,,,,,5,19,119,3,2,0,2,0,,,,,0,7,7,20,,,,,,down,0.6671808275737021,2657.8251878070814,None,001,63,2019_Oct_25_1059,ACPT_experiment_5_30_19,3.1.0,59.94595015179194,
,,,C,G,d,b,R,G,g,L,c ,,,,,5,19,119,3,2,0,2,0,,,,,0,8,8,6,,,,,,up,0.9840828461133242,2659.7766795931348,None,001,63,2019_Oct_25_1059,ACPT_experiment_5_30_19,3.1.0,59.94595015179194,
,,,C,G,d,b,R,U,g,L,u,,,,,5,19,119,3,2,0,2,0,,,,,0,9,9,10,,,,,,down,0.9673881118951613,2662.028407037947,None,001,63,2019_Oct_25_1059,ACPT_experiment_5_30_19,3.1.0,59.94595015179194,
,,,C,G,d,b,R,D,g,R,i,,,,,5,19,119,3,2,0,2,0,,,,,0,10,10,3,,,,,,down,1.3176759766010946,2664.280113352859,None,001,63,2019_Oct_25_1059,ACPT_experiment_5_30_19,3.1.0,59.94595015179194,
,,,C,G,d,b,L,G,g,R,c ,,,,,5,19,119,3,2,0,2,0,,,,,0,11,11,19,,,,,,up,0.8172761687023922,2666.882108136189,None,001,63,2019_Oct_25_1059,ACPT_experiment_5_30_19,3.1.0,59.94595015179194,
,,,C,G,d,b,L,D,g,L,i,,,,,5,19,119,3,2,0,2,0,,,,,0,12,12,14,,,,,,down,0.867329883927141,2668.983695867082,None,001,63,2019_Oct_25_1059,ACPT_experiment_5_30_19,3.1.0,59.94595015179194,
,,,C,G,d,b,R,D,y,L,y,,,,,5,19,119,3,2,0,2,0,,,,,0,13,13,26,,,,,,down,1.851429332104999,2671.1353533115534,None,001,63,2019_Oct_25_1059,ACPT_experiment_5_30_19,3.1.0,59.94595015179194,
,,,C,G,d,b,L,G,d,R,i,,,,,5,19,119,3,2,0,2,0,,,,,0,14,14,17,,,,,,down,0.8505343298998014,2674.2710585868745,None,001,63,2019_Oct_25_1059,ACPT_experiment_5_30_19,3.1.0,59.94595015179194,
,,,C,G,d,b,L,U,y,L,u,,,,,5,19,119,3,2,0,2,0,,,,,0,15,15,24,,,,,,down,0.6504127424163926,2676.422768554241,None,001,63,2019_Oct_25_1059,ACPT_experiment_5_30_19,3.1.0,59.94595015179194,
,,,C,G,d,b,R,D,d,L,c,,,,,5,19,119,3,2,0,2,0,,,,,0,16,16,0,,,,,,up,0.8339600361141493,2678.3741900079117,None,001,63,2019_Oct_25_1059,ACPT_experiment_5_30_19,3.1.0,59.94595015179194,
,,,C,G,d,b,R,G,y,R,y,,,,,5,19,119,3,2,0,2,0,,,,,0,17,17,29,,,,,,down,0.783966390176829,2680.4924673414753,None,001,63,2019_Oct_25_1059,ACPT_experiment_5_30_19,3.1.0,59.94595015179194,
,,,C,G,d,b,R,D,y,R,y,,,,,5,19,119,3,2,0,2,0,,,,,0,18,18,27,,,,,,down,0.5504157911591392,2682.560708769301,None,001,63,2019_Oct_25_1059,ACPT_experiment_5_30_19,3.1.0,59.94595015179194,
,,,C,G,d,b,L,D,y,R,y,,,,,5,19,119,3,2,0,2,0,,,,,0,19,19,33,,,,,,down,0.9006816203977905,2684.39543763193,None,001,63,2019_Oct_25_1059,ACPT_experiment_5_30_19,3.1.0,59.94595015179194,
,,,C,G,d,b,R,D,g,L,i,,,,,5,19,119,3,2,0,2,0,,,,,0,20,20,2,,,,,,down,1.0841543557326077,2686.580437455344,None,001,63,2019_Oct_25_1059,ACPT_experiment_5_30_19,3.1.0,59.94595015179194,
,,,C,G,d,b,L,U,d,R,u,,,,,5,19,119,3,2,0,2,0,,,,,0,21,21,21,,,,,,down,1.0674834681171887,2688.948930842138,None,001,63,2019_Oct_25_1059,ACPT_experiment_5_30_19,3.1.0,59.94595015179194,
,,,C,G,d,b,L,G,d,L,i,,,,,5,19,119,3,2,0,2,0,,,,,0,22,22,16,,,,,,down,1.7012974664344256,2691.30070021471,None,001,63,2019_Oct_25_1059,ACPT_experiment_5_30_19,3.1.0,59.94595015179194,
,,,C,G,d,b,L,D,d,R,c ,,,,,5,19,119,3,2,0,2,0,,,,,0,23,23,13,,,,,,up,0.8840249200006838,2694.2863143748823,None,001,63,2019_Oct_25_1059,ACPT_experiment_5_30_19,3.1.0,59.94595015179194,
,,,C,G,d,b,R,U,y,R,u,,,,,5,19,119,3,2,0,2,0,,,,,0,24,24,31,,,,,,down,0.5670839620738661,2696.4713105760284,None,001,63,2019_Oct_25_1059,ACPT_experiment_5_30_19,3.1.0,59.94595015179194,
,,,C,G,d,b,R,D,d,R,c ,,,,,5,19,119,3,2,0,2,0,,,,,0,25,25,1,,,,,,up,0.7338858097928096,2698.3227199856556,None,001,63,2019_Oct_25_1059,ACPT_experiment_5_30_19,3.1.0,59.94595015179194,
,,,C,G,d,b,L,G,y,R,y,,,,,5,19,119,3,2,0,2,0,,,,,0,26,26,35,,,,,,down,0.7839008874857427,2700.340950259913,None,001,63,2019_Oct_25_1059,ACPT_experiment_5_30_19,3.1.0,59.94595015179194,
,,,C,G,d,b,L,U,y,R,u,,,,,5,19,119,3,2,0,2,0,,,,,0,27,27,25,,,,,,down,0.6672025611856043,2702.409167841137,None,001,63,2019_Oct_25_1059,ACPT_experiment_5_30_19,3.1.0,59.94595015179194,
,,,C,G,d,b,L,G,g,L,c ,,,,,5,19,119,3,2,0,2,0,,,,,0,28,28,18,,,,,,up,1.0507926580239655,2704.3606602309014,None,001,63,2019_Oct_25_1059,ACPT_experiment_5_30_19,3.1.0,59.94595015179194,
,,,C,G,d,b,R,U,y,L,u,,,,,5,19,119,3,2,0,2,0,,,,,0,29,29,30,,,,,,down,0.9173633748191605,2706.695766865962,None,001,63,2019_Oct_25_1059,ACPT_experiment_5_30_19,3.1.0,59.94595015179194,
,,,C,G,d,b,R,U,g,R,u,,,,,5,19,119,3,2,0,2,0,,,,,0,30,30,11,,,,,,down,0.5671162606354301,2708.897449349365,None,001,63,2019_Oct_25_1059,ACPT_experiment_5_30_19,3.1.0,59.94595015179194,
,,,C,G,d,b,L,G,y,L,y,,,,,5,19,119,3,2,0,2,0,,,,,0,31,31,34,,,,,,down,0.8505074647409856,2710.748882001883,None,001,63,2019_Oct_25_1059,ACPT_experiment_5_30_19,3.1.0,59.94595015179194,
,,,C,G,d,b,L,D,g,R,i,,,,,5,19,119,3,2,0,2,0,,,,,0,32,32,15,,,,,,down,0.9006807148307416,2712.8838199599677,None,001,63,2019_Oct_25_1059,ACPT_experiment_5_30_19,3.1.0,59.94595015179194,
,,,C,G,d,b,R,U,d,L,u,,,,,5,19,119,3,2,0,2,0,,,,,0,33,33,8,,,,,,down,0.7338864135044787,2715.0688203870936,None,001,63,2019_Oct_25_1059,ACPT_experiment_5_30_19,3.1.0,59.94595015179194,
,,,C,G,d,b,L,D,d,L,c ,,,,,5,19,119,3,2,0,2,0,,,,,0,34,34,12,,,,,,up,0.6671989389164992,2717.086996931033,None,001,63,2019_Oct_25_1059,ACPT_experiment_5_30_19,3.1.0,59.94595015179194,
,,,C,G,d,b,R,U,d,R,u,,,,,5,19,119,3,2,0,2,0,,,,,0,35,35,9,,,,,,down,1.2009227125599864,2719.0385113562647,None,001,63,2019_Oct_25_1059,ACPT_experiment_5_30_19,3.1.0,59.94595015179194,
,,,C,G,d,b,R,D,g,L,i,,,,,5,19,119,3,2,0,2,0,,,,,1,0,36,2,,,,,,down,1.0007597708431604,2721.5237353679213,None,001,63,2019_Oct_25_1059,ACPT_experiment_5_30_19,3.1.0,59.94595015179194,
,,,C,G,d,b,L,U,y,R,u,,,,,5,19,119,3,2,0,2,0,,,,,1,1,37,25,,,,,,down,0.8506472239387222,2723.808809115801,None,001,63,2019_Oct_25_1059,ACPT_experiment_5_30_19,3.1.0,59.94595015179194,
,,,C,G,d,b,L,D,d,R,c ,,,,,5,19,119,3,2,0,2,0,,,,,1,2,38,13,,,,,,up,0.7172112999082856,2725.943767600075,None,001,63,2019_Oct_25_1059,ACPT_experiment_5_30_19,3.1.0,59.94595015179194,
,,,C,G,d,b,R,G,d,L,i,,,,,5,19,119,3,2,0,2,0,,,,,1,3,39,4,,,,,,down,0.9507289966527424,2727.945294084443,None,001,63,2019_Oct_25_1059,ACPT_experiment_5_30_19,3.1.0,59.94595015179194,
,,,C,G,d,b,R,D,g,R,i,,,,,5,19,119,3,2,0,2,0,,,,,1,4,40,3,,,,,,down,1.1508768455832978,2730.1803304173063,None,001,63,2019_Oct_25_1059,ACPT_experiment_5_30_19,3.1.0,59.94595015179194,
,,,C,G,d,b,L,U,d,L,u,,,,,5,19,119,3,2,0,2,0,,,,,1,5,41,20,,,,,,down,0.8506677501272861,2732.615497393325,None,001,63,2019_Oct_25_1059,ACPT_experiment_5_30_19,3.1.0,59.94595015179194,
,,,C,G,d,b,R,U,g,L,u,,,,,5,19,119,3,2,0,2,0,,,,,1,6,42,10,,,,,,down,0.8505587802128503,2734.767434658047,None,001,63,2019_Oct_25_1059,ACPT_experiment_5_30_19,3.1.0,59.94595015179194,
,,,C,G,d,b,R,G,y,R,y,,,,,5,19,119,3,2,0,2,0,,,,,1,7,43,29,,,,,,down,0.900681318541956,2736.902124188876,None,001,63,2019_Oct_25_1059,ACPT_experiment_5_30_19,3.1.0,59.94595015179194,
,,,C,G,d,b,L,U,g,R,u,,,,,5,19,119,3,2,0,2,0,,,,,1,8,44,23,,,,,,down,0.8673316950616936,2739.0871176733203,None,001,63,2019_Oct_25_1059,ACPT_experiment_5_30_19,3.1.0,59.94595015179194,
,,,C,G,d,b,R,U,y,R,u,,,,,5,19,119,3,2,0,2,0,,,,,1,9,45,31,,,,,,down,0.6836319642261515,2741.2556579081215,None,001,63,2019_Oct_25_1059,ACPT_experiment_5_30_19,3.1.0,59.94595015179194,
,,,C,G,d,b,L,G,y,L,y,,,,,5,19,119,3,2,0,2,0,,,,,1,10,46,34,,,,,,down,0.900676790705802,2743.2402856038066,None,001,63,2019_Oct_25_1059,ACPT_experiment_5_30_19,3.1.0,59.94595015179194,
,,,C,G,d,b,L,U,g,L,u,,,,,5,19,119,3,2,0,2,0,,,,,1,11,47,22,,,,,,down,0.7505711864828299,2745.4419572204038,None,001,63,2019_Oct_25_1059,ACPT_experiment_5_30_19,3.1.0,59.94595015179194,
,,,C,G,d,b,L,G,d,L,i,,,,,5,19,119,3,2,0,2,0,,,,,1,12,48,16,,,,,,down,0.9840897887943356,2747.4768432894907,None,001,63,2019_Oct_25_1059,ACPT_experiment_5_30_19,3.1.0,59.94595015179194,
,,,C,G,d,b,L,D,d,L,c ,,,,,5,19,119,3,2,0,2,0,,,,,1,13,49,12,,,,,,up,0.5838007317588563,2749.745215662327,None,001,63,2019_Oct_25_1059,ACPT_experiment_5_30_19,3.1.0,59.94595015179194,
,,,C,G,d,b,R,G,g,L,c ,,,,,5,19,119,3,2,0,2,0,,,,,1,14,50,6,,,,,,up,0.8673178096987613,2751.61336085855,None,001,63,2019_Oct_25_1059,ACPT_experiment_5_30_19,3.1.0,59.94595015179194,
,,,C,G,d,b,R,U,g,R,u,,,,,5,19,119,3,2,0,2,0,,,,,1,15,51,11,,,,,,down,0.950748919130092,2753.7649697042507,None,001,63,2019_Oct_25_1059,ACPT_experiment_5_30_19,3.1.0,59.94595015179194,
,,,C,G,d,b,L,D,g,L,i,,,,,5,19,119,3,2,0,2,0,,,,,1,16,52,14,,,,,,down,0.8839956399961011,2756.000012376084,None,001,63,2019_Oct_25_1059,ACPT_experiment_5_30_19,3.1.0,59.94595015179194,
,,,C,G,d,b,R,G,y,L,y,,,,,5,19,119,3,2,0,2,0,,,,,1,17,53,28,,,,,,down,0.8506499406403236,2758.16831686157,None,001,63,2019_Oct_25_1059,ACPT_experiment_5_30_19,3.1.0,59.94595015179194,
,,,C,G,d,b,L,G,y,R,y,,,,,5,19,119,3,2,0,2,0,,,,,1,18,54,35,,,,,,down,0.7839126598591974,2760.3199740041855,None,001,63,2019_Oct_25_1059,ACPT_experiment_5_30_19,3.1.0,59.94595015179194,
,,,C,G,d,b,R,G,g,R,c ,,,,,5,19,119,3,2,0,2,0,,,,,1,19,55,7,,,,,,up,1.1008490899503158,2762.4048914511745,None,001,63,2019_Oct_25_1059,ACPT_experiment_5_30_19,3.1.0,59.94595015179194,
,,,C,G,d,b,R,G,d,R,i,,,,,5,19,119,3,2,0,2,0,,,,,1,20,56,5,,,,,,down,0.8173220507715087,2764.7733513319836,None,001,63,2019_Oct_25_1059,ACPT_experiment_5_30_19,3.1.0,59.94595015179194,
,,,C,G,d,b,R,U,d,R,u,,,,,5,19,119,3,2,0,2,0,,,,,1,21,57,9,,,,,,down,0.9340330550121507,2766.8749644187574,None,001,63,2019_Oct_25_1059,ACPT_experiment_5_30_19,3.1.0,59.94595015179194,
,,,C,G,d,b,L,D,y,R,y,,,,,5,19,119,3,2,0,2,0,,,,,1,22,58,33,,,,,,down,0.8673150929971598,2769.1100010534765,None,001,63,2019_Oct_25_1059,ACPT_experiment_5_30_19,3.1.0,59.94595015179194,
,,,C,G,d,b,L,G,g,L,c ,,,,,5,19,119,3,2,0,2,0,,,,,1,23,59,18,,,,,,up,0.967423429014616,2771.2783212354593,None,001,63,2019_Oct_25_1059,ACPT_experiment_5_30_19,3.1.0,59.94595015179194,
,,,C,G,d,b,R,U,d,L,u,,,,,5,19,119,3,2,0,2,0,,,,,1,24,60,8,,,,,,down,0.583771149898439,2773.5300350967645,None,001,63,2019_Oct_25_1059,ACPT_experiment_5_30_19,3.1.0,59.94595015179194,
,,,C,G,d,b,R,D,y,L,y,,,,,5,19,119,3,2,0,2,0,,,,,1,25,61,26,,,,,,down,0.90067829998452,2775.3981292793706,None,001,63,2019_Oct_25_1059,ACPT_experiment_5_30_19,3.1.0,59.94595015179194,
,,,C,G,d,b,L,U,d,R,u,,,,,5,19,119,3,2,0,2,0,,,,,1,26,62,21,,,,,,down,1.3177004269141435,2777.583097407935,None,001,63,2019_Oct_25_1059,ACPT_experiment_5_30_19,3.1.0,59.94595015179194,
,,,C,G,d,b,R,U,y,L,u,,,,,5,19,119,3,2,0,2,0,,,,,1,27,63,30,,,,,,down,0.5337361497277016,2780.1851090951845,None,001,63,2019_Oct_25_1059,ACPT_experiment_5_30_19,3.1.0,59.94595015179194,
,,,C,G,d,b,R,D,d,L,c,,,,,5,19,119,3,2,0,2,0,,,,,1,28,64,0,,,,,,up,0.6671669422107698,2782.00316193865,None,001,63,2019_Oct_25_1059,ACPT_experiment_5_30_19,3.1.0,59.94595015179194,
,,,C,G,d,b,L,G,g,R,c ,,,,,5,19,119,3,2,0,2,0,,,,,1,29,65,19,,,,,,up,0.7505892978260817,2783.954646782022,None,001,63,2019_Oct_25_1059,ACPT_experiment_5_30_19,3.1.0,59.94595015179194,
,,,C,G,d,b,L,D,y,L,y,,,,,5,19,119,3,2,0,2,0,,,,,1,30,66,32,,,,,,down,0.767274372661177,2785.989504778527,None,001,63,2019_Oct_25_1059,ACPT_experiment_5_30_19,3.1.0,59.94595015179194,
,,,C,G,d,b,R,D,d,R,c ,,,,,5,19,119,3,2,0,2,0,,,,,1,31,67,1,,,,,,up,0.6171437144130323,2788.04109131709,None,001,63,2019_Oct_25_1059,ACPT_experiment_5_30_19,3.1.0,59.94595015179194,
,,,C,G,d,b,L,D,g,R,i,,,,,5,19,119,3,2,0,2,0,,,,,1,32,68,15,,,,,,down,0.7338683021607721,2789.942566214316,None,001,63,2019_Oct_25_1059,ACPT_experiment_5_30_19,3.1.0,59.94595015179194,
,,,C,G,d,b,L,U,y,L,u,,,,,5,19,119,3,2,0,2,0,,,,,1,33,69,24,,,,,,down,0.6338146020289059,2791.9607463805237,None,001,63,2019_Oct_25_1059,ACPT_experiment_5_30_19,3.1.0,59.94595015179194,
,,,C,G,d,b,L,G,d,R,i,,,,,5,19,119,3,2,0,2,0,,,,,1,34,70,17,,,,,,down,1.3343652774160546,2793.878872846599,None,001,63,2019_Oct_25_1059,ACPT_experiment_5_30_19,3.1.0,59.94595015179194,
,,,C,G,d,b,R,D,y,R,y,,,,,5,19,119,3,2,0,2,0,,,,,1,35,71,27,,,,,,down,0.7505364730754991,2796.497563571569,None,001,63,2019_Oct_25_1059,ACPT_experiment_5_30_19,3.1.0,59.94595015179194,
,,,C,G,d,b,,,,,,,,,,5,19,119,3,3,0,3,0,0,0,0,0,,,,,,,,,,,,,,001,63,2019_Oct_25_1059,ACPT_experiment_5_30_19,3.1.0,59.94595015179194,
,,,C,G,d,b,L,G,y,L,y,,,,,5,19,119,3,3,0,3,0,,,,,0,0,0,34,,,,,,down,0.7005295454869156,2801.95169433124,None,001,63,2019_Oct_25_1059,ACPT_experiment_5_30_19,3.1.0,59.94595015179194,
,,,C,G,d,b,L,G,d,R,i,,,,,5,19,119,3,3,0,3,0,,,,,0,1,1,17,,,,,,down,2.0682384092688153,2803.9532232304537,None,001,63,2019_Oct_25_1059,ACPT_experiment_5_30_19,3.1.0,59.94595015179194,
,,,C,G,d,b,R,D,d,L,c,,,,,5,19,119,3,3,0,3,0,,,,,0,2,2,0,,,,,,up,1.0174376011405002,2807.3057783334607,None,001,63,2019_Oct_25_1059,ACPT_experiment_5_30_19,3.1.0,59.94595015179194,
,,,C,G,d,b,L,U,g,L,u,,,,,5,19,119,3,3,0,3,0,,,,,0,3,3,22,,,,,,down,0.833985391994247,2809.6075314209165,None,001,63,2019_Oct_25_1059,ACPT_experiment_5_30_19,3.1.0,59.94595015179194,
,,,C,G,d,b,L,D,g,R,i,,,,,5,19,119,3,3,0,3,0,,,,,0,4,4,15,,,,,,down,0.8172909596323734,2811.725807547057,None,001,63,2019_Oct_25_1059,ACPT_experiment_5_30_19,3.1.0,59.94595015179194,
,,,C,G,d,b,R,D,g,L,i,,,,,5,19,119,3,3,0,3,0,,,,,0,5,5,2,,,,,,down,0.7338849042257607,2813.827411578159,None,001,63,2019_Oct_25_1059,ACPT_experiment_5_30_19,3.1.0,59.94595015179194,
,,,C,G,d,b,L,D,g,L,i,,,,,5,19,119,3,3,0,3,0,,,,,0,6,6,14,,,,,,down,0.7005382993024796,2815.845621628083,None,001,63,2019_Oct_25_1059,ACPT_experiment_5_30_19,3.1.0,59.94595015179194,
,,,C,G,d,b,L,G,g,L,c ,,,,,5,19,119,3,3,0,3,0,,,,,0,7,7,18,,,,,,up,0.7505370767871682,2817.830482658238,None,001,63,2019_Oct_25_1059,ACPT_experiment_5_30_19,3.1.0,59.94595015179194,
,,,C,G,d,b,R,U,y,L,u,,,,,5,19,119,3,3,0,3,0,,,,,0,8,8,30,,,,,,down,0.5504115651792745,2819.865349408559,None,001,63,2019_Oct_25_1059,ACPT_experiment_5_30_19,3.1.0,59.94595015179194,
,,,C,G,d,b,R,U,g,L,u,,,,,5,19,119,3,3,0,3,0,,,,,0,9,9,10,,,,,,down,0.9674016954031686,2821.683400139035,None,001,63,2019_Oct_25_1059,ACPT_experiment_5_30_19,3.1.0,59.94595015179194,
,,,C,G,d,b,R,D,y,L,y,,,,,5,19,119,3,3,0,3,0,,,,,0,10,10,26,,,,,,down,0.8005965272709545,2823.9351233578673,None,001,63,2019_Oct_25_1059,ACPT_experiment_5_30_19,3.1.0,59.94595015179194,
,,,C,G,d,b,L,U,y,R,u,,,,,5,19,119,3,3,0,3,0,,,,,0,11,11,25,,,,,,down,0.5671277311530503,2826.020011826707,None,001,63,2019_Oct_25_1059,ACPT_experiment_5_30_19,3.1.0,59.94595015179194,
,,,C,G,d,b,R,G,g,R,c ,,,,,5,19,119,3,3,0,3,0,,,,,0,12,12,7,,,,,,up,0.8506792206444516,2827.8714263678817,None,001,63,2019_Oct_25_1059,ACPT_experiment_5_30_19,3.1.0,59.94595015179194,
,,,C,G,d,b,L,G,d,L,i,,,,,5,19,119,3,3,0,3,0,,,,,0,13,13,16,,,,,,down,0.8006034699524207,2830.006408095046,None,001,63,2019_Oct_25_1059,ACPT_experiment_5_30_19,3.1.0,59.94595015179194,
,,,C,G,d,b,L,U,d,L,u,,,,,5,19,119,3,3,0,3,0,,,,,0,14,14,20,,,,,,down,0.5837968076343714,2832.0913255420346,None,001,63,2019_Oct_25_1059,ACPT_experiment_5_30_19,3.1.0,59.94595015179194,
,,,C,G,d,b,R,U,d,L,u,,,,,5,19,119,3,3,0,3,0,,,,,0,15,15,8,,,,,,down,0.6338330152279923,2833.959398594741,None,001,63,2019_Oct_25_1059,ACPT_experiment_5_30_19,3.1.0,59.94595015179194,
,,,C,G,d,b,R,D,d,R,c ,,,,,5,19,119,3,3,0,3,0,,,,,0,16,16,1,,,,,,up,1.067523313071888,2835.8775480018508,None,001,63,2019_Oct_25_1059,ACPT_experiment_5_30_19,3.1.0,59.94595015179194,
,,,C,G,d,b,L,G,y,R,y,,,,,5,19,119,3,3,0,3,0,,,,,0,17,17,35,,,,,,down,0.7171956034108007,2838.2460226735902,None,001,63,2019_Oct_25_1059,ACPT_experiment_5_30_19,3.1.0,59.94595015179194,
,,,C,G,d,b,R,D,g,R,i,,,,,5,19,119,3,3,0,3,0,,,,,0,18,18,3,,,,,,down,1.1175085070485693,2840.2642248752654,None,001,63,2019_Oct_25_1059,ACPT_experiment_5_30_19,3.1.0,59.94595015179194,
,,,C,G,d,b,L,D,y,R,y,,,,,5,19,119,3,3,0,3,0,,,,,0,19,19,33,,,,,,down,1.1673599789428408,2842.699572361004,None,001,63,2019_Oct_25_1059,ACPT_experiment_5_30_19,3.1.0,59.94595015179194,
,,,C,G,d,b,L,U,y,L,u,,,,,5,19,119,3,3,0,3,0,,,,,0,20,20,24,,,,,,down,0.7339033174243923,2845.167940749345,None,001,63,2019_Oct_25_1059,ACPT_experiment_5_30_19,3.1.0,59.94595015179194,
,,,C,G,d,b,L,D,y,L,y,,,,,5,19,119,3,3,0,3,0,,,,,0,21,21,32,,,,,,down,0.9006849408106063,2847.186164382776,None,001,63,2019_Oct_25_1059,ACPT_experiment_5_30_19,3.1.0,59.94595015179194,
,,,C,G,d,b,L,G,g,R,c ,,,,,5,19,119,3,3,0,3,0,,,,,0,22,22,19,,,,,,up,0.9006798092636927,2849.3711642061903,None,001,63,2019_Oct_25_1059,ACPT_experiment_5_30_19,3.1.0,59.94595015179194,
,,,C,G,d,b,L,U,g,R,u,,,,,5,19,119,3,3,0,3,0,,,,,0,23,23,23,,,,,,down,0.750571790194499,2851.5561607091918,None,001,63,2019_Oct_25_1059,ACPT_experiment_5_30_19,3.1.0,59.94595015179194,
,,,C,G,d,b,R,U,d,R,u,,,,,5,19,119,3,3,0,3,0,,,,,0,24,24,9,,,,,,down,0.7171886607297893,2853.5910694174577,None,001,63,2019_Oct_25_1059,ACPT_experiment_5_30_19,3.1.0,59.94595015179194,
,,,C,G,d,b,R,U,y,R,u,,,,,5,19,119,3,3,0,3,0,,,,,0,25,25,31,,,,,,down,0.6004966733989932,2855.592575073781,None,001,63,2019_Oct_25_1059,ACPT_experiment_5_30_19,3.1.0,59.94595015179194,
,,,C,G,d,b,L,U,d,R,u,,,,,5,19,119,3,3,0,3,0,,,,,0,26,26,21,,,,,,down,0.8006061866535674,2857.4773410495704,None,001,63,2019_Oct_25_1059,ACPT_experiment_5_30_19,3.1.0,59.94595015179194,
,,,C,G,d,b,R,G,d,R,i,,,,,5,19,119,3,3,0,3,0,,,,,0,27,27,5,,,,,,down,0.9674056195271987,2859.5622621188277,None,001,63,2019_Oct_25_1059,ACPT_experiment_5_30_19,3.1.0,59.94595015179194,
,,,C,G,d,b,R,G,y,L,y,,,,,5,19,119,3,3,0,3,0,,,,,0,28,28,28,,,,,,down,0.7839069246006147,2861.8139998267347,None,001,63,2019_Oct_25_1059,ACPT_experiment_5_30_19,3.1.0,59.94595015179194,
,,,C,G,d,b,L,D,d,L,c ,,,,,5,19,119,3,3,0,3,0,,,,,0,29,29,12,,,,,,up,0.8506457146600042,2863.882224652496,None,001,63,2019_Oct_25_1059,ACPT_experiment_5_30_19,3.1.0,59.94595015179194,
,,,C,G,d,b,R,G,y,R,y,,,,,5,19,119,3,3,0,3,0,,,,,0,30,30,29,,,,,,down,0.7505808458658976,2866.0338670041815,None,001,63,2019_Oct_25_1059,ACPT_experiment_5_30_19,3.1.0,59.94595015179194,
,,,C,G,d,b,R,U,g,R,u,,,,,5,19,119,3,3,0,3,0,,,,,0,31,31,11,,,,,,down,0.6671642255091683,2868.0854299979987,None,001,63,2019_Oct_25_1059,ACPT_experiment_5_30_19,3.1.0,59.94595015179194,
,,,C,G,d,b,R,D,y,R,y,,,,,5,19,119,3,3,0,3,0,,,,,0,32,32,27,,,,,,down,0.7839470714106938,2870.036891296624,None,001,63,2019_Oct_25_1059,ACPT_experiment_5_30_19,3.1.0,59.94595015179194,
,,,C,G,d,b,R,G,d,L,i,,,,,5,19,119,3,3,0,3,0,,,,,0,33,33,4,,,,,,down,0.9674013935468793,2872.10515385435,None,001,63,2019_Oct_25_1059,ACPT_experiment_5_30_19,3.1.0,59.94595015179194,
,,,C,G,d,b,L,D,d,R,c ,,,,,5,19,119,3,3,0,3,0,,,,,0,34,34,13,,,,,,up,0.7005524865217012,2874.3568764694714,None,001,63,2019_Oct_25_1059,ACPT_experiment_5_30_19,3.1.0,59.94595015179194,
,,,C,G,d,b,R,G,g,L,c ,,,,,5,19,119,3,3,0,3,0,,,,,0,35,35,6,,,,,,down,0.7673012378199928,2876.3417166715817,None,001,63,2019_Oct_25_1059,ACPT_experiment_5_30_19,3.1.0,59.94595015179194,
,,,C,G,d,b,L,G,d,R,i,,,,,5,19,119,3,3,0,3,0,,,,,1,0,36,17,,,,,,down,0.9007250876211401,2878.393258233643,None,001,63,2019_Oct_25_1059,ACPT_experiment_5_30_19,3.1.0,59.94595015179194,
,,,C,G,d,b,R,G,g,L,c ,,,,,5,19,119,3,3,0,3,0,,,,,1,1,37,6,,,,,,up,0.8172755649907231,2880.5782882426292,None,001,63,2019_Oct_25_1059,ACPT_experiment_5_30_19,3.1.0,59.94595015179194,
,,,C,G,d,b,L,U,y,R,u,,,,,5,19,119,3,3,0,3,0,,,,,1,2,38,25,,,,,,down,0.9006764888504222,2882.67988321806,None,001,63,2019_Oct_25_1059,ACPT_experiment_5_30_19,3.1.0,59.94595015179194,
,,,C,G,d,b,L,U,y,L,u,,,,,5,19,119,3,3,0,3,0,,,,,1,3,39,24,,,,,,down,0.6504833766548472,2884.8815617773384,None,001,63,2019_Oct_25_1059,ACPT_experiment_5_30_19,3.1.0,59.94595015179194,
,,,C,G,d,b,L,D,g,R,i,,,,,5,19,119,3,3,0,3,0,,,,,1,4,40,15,,,,,,down,0.9673974694228491,2886.8330484318444,None,001,63,2019_Oct_25_1059,ACPT_experiment_5_30_19,3.1.0,59.94595015179194,
,,,C,G,d,b,L,D,y,R,y,,,,,5,19,119,3,3,0,3,0,,,,,1,5,41,33,,,,,,down,0.817071812381073,2889.118320800787,None,001,63,2019_Oct_25_1059,ACPT_experiment_5_30_19,3.1.0,59.94595015179194,
,,,C,G,d,b,L,G,g,R,c ,,,,,5,19,119,3,3,0,3,0,,,,,1,6,42,19,,,,,,up,0.900681318541956,2891.2364028337006,None,001,63,2019_Oct_25_1059,ACPT_experiment_5_30_19,3.1.0,59.94595015179194,
,,,C,G,d,b,R,U,y,R,u,,,,,5,19,119,3,3,0,3,0,,,,,1,7,43,31,,,,,,down,0.567143729505915,2893.421373980822,None,001,63,2019_Oct_25_1059,ACPT_experiment_5_30_19,3.1.0,59.94595015179194,
,,,C,G,d,b,L,G,y,L,y,,,,,5,19,119,3,3,0,3,0,,,,,1,8,44,34,,,,,,down,0.8339684880743334,2895.2728114630313,None,001,63,2019_Oct_25_1059,ACPT_experiment_5_30_19,3.1.0,59.94595015179194,
,,,C,G,d,b,R,G,g,R,c ,,,,,5,19,119,3,3,0,3,0,,,,,1,9,45,7,,,,,,up,0.8172797909710425,2897.3910948337093,None,001,63,2019_Oct_25_1059,ACPT_experiment_5_30_19,3.1.0,59.94595015179194,
,,,C,G,d,b,R,D,d,R,c ,,,,,5,19,119,3,3,0,3,0,,,,,1,10,46,1,,,,,,up,0.8006418056284019,2899.492692223985,None,001,63,2019_Oct_25_1059,ACPT_experiment_5_30_19,3.1.0,59.94595015179194,
,,,C,G,d,b,L,U,d,R,u,,,,,5,19,119,3,3,0,3,0,,,,,1,11,47,21,,,,,,down,0.5504082447664587,2901.5776178210785,None,001,63,2019_Oct_25_1059,ACPT_experiment_5_30_19,3.1.0,59.94595015179194,
,,,C,G,d,b,L,G,g,L,c ,,,,,5,19,119,3,3,0,3,0,,,,,1,12,48,18,,,,,,up,0.76724871492479,2903.412345174429,None,001,63,2019_Oct_25_1059,ACPT_experiment_5_30_19,3.1.0,59.94595015179194,
,,,C,G,d,b,L,U,g,L,u,,,,,5,19,119,3,3,0,3,0,,,,,1,13,49,22,,,,,,down,0.9674515015963152,2905.4639108849474,None,001,63,2019_Oct_25_1059,ACPT_experiment_5_30_19,3.1.0,59.94595015179194,
,,,C,G,d,b,L,G,d,L,i,,,,,5,19,119,3,3,0,3,0,,,,,1,14,50,16,,,,,,down,0.917363072963326,2907.7156286703766,None,001,63,2019_Oct_25_1059,ACPT_experiment_5_30_19,3.1.0,59.94595015179194,
,,,C,G,d,b,L,D,d,R,c ,,,,,5,19,119,3,3,0,3,0,,,,,1,15,51,13,,,,,,up,0.6838577523035383,2909.900620041831,None,001,63,2019_Oct_25_1059,ACPT_experiment_5_30_19,3.1.0,59.94595015179194,
,,,C,G,d,b,R,U,d,L,u,,,,,5,19,119,3,3,0,3,0,,,,,1,16,52,8,,,,,,down,0.8004561643615489,2911.868910400469,None,001,63,2019_Oct_25_1059,ACPT_experiment_5_30_19,3.1.0,59.94595015179194,
,,,C,G,d,b,L,U,g,R,u,,,,,5,19,119,3,3,0,3,0,,,,,1,17,53,23,,,,,,down,0.7338936580413247,2913.9537134441407,None,001,63,2019_Oct_25_1059,ACPT_experiment_5_30_19,3.1.0,59.94595015179194,
,,,C,G,d,b,R,D,g,R,i,,,,,5,19,119,3,3,0,3,0,,,,,1,18,54,3,,,,,,down,1.1508762418720835,2915.971916249527,None,001,63,2019_Oct_25_1059,ACPT_experiment_5_30_19,3.1.0,59.94595015179194,
,,,C,G,d,b,R,D,y,L,y,,,,,5,19,119,3,3,0,3,0,,,,,1,19,55,26,,,,,,down,0.6838559411694405,2918.4071061665804,None,001,63,2019_Oct_25_1059,ACPT_experiment_5_30_19,3.1.0,59.94595015179194,
,,,C,G,d,b,R,D,d,L,c,,,,,5,19,119,3,3,0,3,0,,,,,1,20,56,0,,,,,,up,0.683846885498042,2920.3752766884977,None,001,63,2019_Oct_25_1059,ACPT_experiment_5_30_19,3.1.0,59.94595015179194,
,,,C,G,d,b,L,G,y,R,y,,,,,5,19,119,3,3,0,3,0,,,,,1,21,57,35,,,,,,down,0.85063726269982,2922.3434460029926,None,001,63,2019_Oct_25_1059,ACPT_experiment_5_30_19,3.1.0,59.94595015179194,
,,,C,G,d,b,R,G,d,L,i,,,,,5,19,119,3,3,0,3,0,,,,,1,22,58,4,,,,,,down,0.8506502424957034,2924.4784008649976,None,001,63,2019_Oct_25_1059,ACPT_experiment_5_30_19,3.1.0,59.94595015179194,
,,,C,G,d,b,L,D,y,L,y,,,,,5,19,119,3,3,0,3,0,,,,,1,23,59,32,,,,,,down,0.7839244322321974,2926.6300398962703,None,001,63,2019_Oct_25_1059,ACPT_experiment_5_30_19,3.1.0,59.94595015179194,
,,,C,G,d,b,R,D,y,R,y,,,,,5,19,119,3,3,0,3,0,,,,,1,24,60,27,,,,,,down,0.8506426961025682,2928.714961871095,None,001,63,2019_Oct_25_1059,ACPT_experiment_5_30_19,3.1.0,59.94595015179194,
,,,C,G,d,b,R,G,d,R,i,,,,,5,19,119,3,3,0,3,0,,,,,1,25,61,5,,,,,,down,1.3842876854037058,2930.8499239776374,None,001,63,2019_Oct_25_1059,ACPT_experiment_5_30_19,3.1.0,59.94595015179194,
,,,C,G,d,b,L,U,d,L,u,,,,,5,19,119,3,3,0,3,0,,,,,1,26,62,20,,,,,,down,0.8839971492748191,2933.5186346099918,None,001,63,2019_Oct_25_1059,ACPT_experiment_5_30_19,3.1.0,59.94595015179194,
,,,C,G,d,b,L,D,d,L,c ,,,,,5,19,119,3,3,0,3,0,,,,,1,27,63,12,,,,,,up,0.667242104284469,2935.6869237008355,None,001,63,2019_Oct_25_1059,ACPT_experiment_5_30_19,3.1.0,59.94595015179194,
,,,C,G,d,b,L,D,g,L,i,,,,,5,19,119,3,3,0,3,0,,,,,1,28,64,14,,,,,,down,0.7172143184657216,2937.6384287685405,None,001,63,2019_Oct_25_1059,ACPT_experiment_5_30_19,3.1.0,59.94595015179194,
,,,C,G,d,b,R,U,g,R,u,,,,,5,19,119,3,3,0,3,0,,,,,1,29,65,11,,,,,,down,0.9674007898356649,2939.6399561584753,None,001,63,2019_Oct_25_1059,ACPT_experiment_5_30_19,3.1.0,59.94595015179194,
,,,C,G,d,b,R,U,g,L,u,,,,,5,19,119,3,3,0,3,0,,,,,1,30,66,10,,,,,,down,1.117541409322257,2941.874972267006,None,001,63,2019_Oct_25_1059,ACPT_experiment_5_30_19,3.1.0,59.94595015179194,
,,,C,G,d,b,R,G,y,R,y,,,,,5,19,119,3,3,0,3,0,,,,,1,31,67,29,,,,,,down,0.667173884892236,2944.2768216162503,None,001,63,2019_Oct_25_1059,ACPT_experiment_5_30_19,3.1.0,59.94595015179194,
,,,C,G,d,b,R,U,y,L,u,,,,,5,19,119,3,3,0,3,0,,,,,1,32,68,30,,,,,,down,0.533737357150585,2946.211631346026,None,001,63,2019_Oct_25_1059,ACPT_experiment_5_30_19,3.1.0,59.94595015179194,
,,,C,G,d,b,R,U,d,R,u,,,,,5,19,119,3,3,0,3,0,,,,,1,33,69,9,,,,,,down,0.783953108525111,2948.012977984757,None,001,63,2019_Oct_25_1059,ACPT_experiment_5_30_19,3.1.0,59.94595015179194,
,,,C,G,d,b,R,G,y,L,y,,,,,5,19,119,3,3,0,3,0,,,,,1,34,70,28,,,,,,down,0.8139937896203264,2950.1012529729014,None,001,63,2019_Oct_25_1059,ACPT_experiment_5_30_19,3.1.0,59.94595015179194,
,,,C,G,d,b,R,D,g,L,i,,,,,5,19,119,3,3,0,3,0,,,,,1,35,71,2,,,,,,down,1.1508816752748317,2952.199522705738,None,001,63,2019_Oct_25_1059,ACPT_experiment_5_30_19,3.1.0,59.94595015179194,
,,,C,G,d,b,,,,,,,,,,5,19,119,3,4,0,4,0,0,0,0,0,,,,,,,,,,,,,,001,63,2019_Oct_25_1059,ACPT_experiment_5_30_19,3.1.0,59.94595015179194,
,,,C,G,d,b,R,U,g,R,u,,,,,5,19,119,3,4,0,4,0,,,,,0,0,0,11,,,,,,down,1.400804022891407,2970.2802377174153,None,001,63,2019_Oct_25_1059,ACPT_experiment_5_30_19,3.1.0,59.94595015179194,
,,,C,G,d,b,L,G,g,L,c ,,,,,5,19,119,3,4,0,4,0,,,,,0,1,1,18,,,,,,up,1.0007778821864122,2972.9653536043534,None,001,63,2019_Oct_25_1059,ACPT_experiment_5_30_19,3.1.0,59.94595015179194,
,,,C,G,d,b,L,U,d,L,u,,,,,5,19,119,3,4,0,4,0,,,,,0,2,2,20,,,,,,down,0.6004535080314781,2975.2504240318203,None,001,63,2019_Oct_25_1059,ACPT_experiment_5_30_19,3.1.0,59.94595015179194,
,,,C,G,d,b,L,D,y,L,y,,,,,5,19,119,3,4,0,4,0,,,,,0,3,3,32,,,,,,down,0.7172052627943231,2977.135199365137,None,001,63,2019_Oct_25_1059,ACPT_experiment_5_30_19,3.1.0,59.94595015179194,
,,,C,G,d,b,L,G,y,L,y,,,,,5,19,119,3,4,0,4,0,,,,,0,4,4,34,,,,,,down,0.7338945636088283,2979.136721321669,None,001,63,2019_Oct_25_1059,ACPT_experiment_5_30_19,3.1.0,59.94595015179194,
,,,C,G,d,b,L,D,y,R,y,,,,,5,19,119,3,4,0,4,0,,,,,0,5,5,33,,,,,,down,0.6504945453161781,2981.1549238252,None,001,63,2019_Oct_25_1059,ACPT_experiment_5_30_19,3.1.0,59.94595015179194,
,,,C,G,d,b,L,U,g,L,u,,,,,5,19,119,3,4,0,4,0,,,,,0,6,6,22,,,,,,down,0.7506074091693336,2983.0897350642545,None,001,63,2019_Oct_25_1059,ACPT_experiment_5_30_19,3.1.0,59.94595015179194,
,,,C,G,d,b,R,D,d,R,c ,,,,,5,19,119,3,4,0,4,0,,,,,0,7,7,1,,,,,,up,0.6170981341992956,2985.124649507779,None,001,63,2019_Oct_25_1059,ACPT_experiment_5_30_19,3.1.0,59.94595015179194,
,,,C,G,d,b,L,G,d,L,i,,,,,5,19,119,3,4,0,4,0,,,,,0,8,8,16,,,,,,down,0.7505811477217321,2987.026045620662,None,001,63,2019_Oct_25_1059,ACPT_experiment_5_30_19,3.1.0,59.94595015179194,
,,,C,G,d,b,R,D,y,R,y,,,,,5,19,119,3,4,0,4,0,,,,,0,9,9,27,,,,,,down,0.7839150747045096,2989.060976666251,None,001,63,2019_Oct_25_1059,ACPT_experiment_5_30_19,3.1.0,59.94595015179194,
,,,C,G,d,b,R,U,y,R,u,,,,,5,19,119,3,4,0,4,0,,,,,0,10,10,31,,,,,,down,0.6004673933944105,2991.1291966623207,None,001,63,2019_Oct_25_1059,ACPT_experiment_5_30_19,3.1.0,59.94595015179194,
,,,C,G,d,b,R,D,g,R,i,,,,,5,19,119,3,4,0,4,0,,,,,0,11,11,3,,,,,,down,0.8673072447486447,2993.013972901205,None,001,63,2019_Oct_25_1059,ACPT_experiment_5_30_19,3.1.0,59.94595015179194,
,,,C,G,d,b,R,U,g,L,u,,,,,5,19,119,3,4,0,4,0,,,,,0,12,12,10,,,,,,down,1.1008198099457331,2995.1656203844373,None,001,63,2019_Oct_25_1059,ACPT_experiment_5_30_19,3.1.0,59.94595015179194,
,,,C,G,d,b,R,U,d,R,u,,,,,5,19,119,3,4,0,4,0,,,,,0,13,13,9,,,,,,down,0.7506031831890141,2997.534057626068,None,001,63,2019_Oct_25_1059,ACPT_experiment_5_30_19,3.1.0,59.94595015179194,
,,,C,G,d,b,L,D,g,L,i,,,,,5,19,119,3,4,0,4,0,,,,,0,14,14,14,,,,,,down,1.000768826514559,2999.568954863816,None,001,63,2019_Oct_25_1059,ACPT_experiment_5_30_19,3.1.0,59.94595015179194,
,,,C,G,d,b,R,G,y,L,y,,,,,5,19,119,3,4,0,4,0,,,,,0,15,15,28,,,,,,down,0.7005256213624307,3001.8707139883863,None,001,63,2019_Oct_25_1059,ACPT_experiment_5_30_19,3.1.0,59.94595015179194,
,,,C,G,d,b,L,D,d,R,c ,,,,,5,19,119,3,4,0,4,0,,,,,0,16,16,13,,,,,,up,0.9173642803866642,3003.8722422838887,None,001,63,2019_Oct_25_1059,ACPT_experiment_5_30_19,3.1.0,59.94595015179194,
,,,C,G,d,b,R,G,d,L,i,,,,,5,19,119,3,4,0,4,0,,,,,0,17,17,4,,,,,,down,0.8506251884709854,3006.0739422749234,None,001,63,2019_Oct_25_1059,ACPT_experiment_5_30_19,3.1.0,59.94595015179194,
,,,C,G,d,b,R,G,g,L,c ,,,,,5,19,119,3,4,0,4,0,,,,,0,18,18,6,,,,,,up,0.8339675825068298,3008.208876308884,None,001,63,2019_Oct_25_1059,ACPT_experiment_5_30_19,3.1.0,59.94595015179194,
,,,C,G,d,b,R,D,y,L,y,,,,,5,19,119,3,4,0,4,0,,,,,0,19,19,26,,,,,,down,0.8006022625295373,3010.327159679562,None,001,63,2019_Oct_25_1059,ACPT_experiment_5_30_19,3.1.0,59.94595015179194,
,,,C,G,d,b,L,D,d,L,c ,,,,,5,19,119,3,4,0,4,0,,,,,0,20,20,12,,,,,,up,0.6505416348081781,3012.412082559954,None,001,63,2019_Oct_25_1059,ACPT_experiment_5_30_19,3.1.0,59.94595015179194,
,,,C,G,d,b,R,U,y,L,u,,,,,5,19,119,3,4,0,4,0,,,,,0,21,21,30,,,,,,down,0.5671032808395466,3014.363555932808,None,001,63,2019_Oct_25_1059,ACPT_experiment_5_30_19,3.1.0,59.94595015179194,
,,,C,G,d,b,L,U,y,R,u,,,,,5,19,119,3,4,0,4,0,,,,,0,22,22,25,,,,,,down,0.5004013171778752,3016.2316555488173,None,001,63,2019_Oct_25_1059,ACPT_experiment_5_30_19,3.1.0,59.94595015179194,
,,,C,G,d,b,R,G,g,R,c ,,,,,5,19,119,3,4,0,4,0,,,,,0,23,23,7,,,,,,up,1.000760676410664,3018.0163545428227,None,001,63,2019_Oct_25_1059,ACPT_experiment_5_30_19,3.1.0,59.94595015179194,
,,,C,G,d,b,L,G,d,R,i,,,,,5,19,119,3,4,0,4,0,,,,,0,24,24,17,,,,,,down,0.8840071105132665,3020.30142708328,None,001,63,2019_Oct_25_1059,ACPT_experiment_5_30_19,3.1.0,59.94595015179194,
,,,C,G,d,b,R,G,y,R,y,,,,,5,19,119,3,4,0,4,0,,,,,0,25,25,29,,,,,,down,0.833765942887112,3022.486584777235,None,001,63,2019_Oct_25_1059,ACPT_experiment_5_30_19,3.1.0,59.94595015179194,
,,,C,G,d,b,R,G,d,R,i,,,,,5,19,119,3,4,0,4,0,,,,,0,26,26,5,,,,,,down,1.017433073304801,3024.6213923336495,None,001,63,2019_Oct_25_1059,ACPT_experiment_5_30_19,3.1.0,59.94595015179194,
,,,C,G,d,b,L,G,y,R,y,,,,,5,19,119,3,4,0,4,0,,,,,0,27,27,35,,,,,,down,0.6671702626235856,3026.923141195125,None,001,63,2019_Oct_25_1059,ACPT_experiment_5_30_19,3.1.0,59.94595015179194,
,,,C,G,d,b,L,U,y,L,u,,,,,5,19,119,3,4,0,4,0,,,,,0,28,28,24,,,,,,down,0.667171470046469,3028.8746284533427,None,001,63,2019_Oct_25_1059,ACPT_experiment_5_30_19,3.1.0,59.94595015179194,
,,,C,G,d,b,L,U,d,R,u,,,,,5,19,119,3,4,0,4,0,,,,,0,29,29,21,,,,,,down,0.767272863382459,3030.8094143365165,None,001,63,2019_Oct_25_1059,ACPT_experiment_5_30_19,3.1.0,59.94595015179194,
,,,C,G,d,b,L,G,g,R,c ,,,,,5,19,119,3,4,0,4,0,,,,,0,30,30,19,,,,,,up,0.9673905267413829,3032.860999667657,None,001,63,2019_Oct_25_1059,ACPT_experiment_5_30_19,3.1.0,59.94595015179194,
,,,C,G,d,b,R,D,g,L,i,,,,,5,19,119,3,4,0,4,0,,,,,0,31,31,2,,,,,,down,0.8006101107780523,3035.1127138308175,None,001,63,2019_Oct_25_1059,ACPT_experiment_5_30_19,3.1.0,59.94595015179194,
,,,C,G,d,b,L,D,g,R,i,,,,,5,19,119,3,4,0,4,0,,,,,0,32,32,15,,,,,,down,0.633823959556139,3037.197637013065,None,001,63,2019_Oct_25_1059,ACPT_experiment_5_30_19,3.1.0,59.94595015179194,
,,,C,G,d,b,L,U,g,R,u,,,,,5,19,119,3,4,0,4,0,,,,,0,33,33,23,,,,,,down,0.8339455470395478,3039.0991082880223,None,001,63,2019_Oct_25_1059,ACPT_experiment_5_30_19,3.1.0,59.94595015179194,
,,,C,G,d,b,R,U,d,L,u,,,,,5,19,119,3,4,0,4,0,,,,,0,34,34,8,,,,,,down,0.7672469037902374,3041.2173690195214,None,001,63,2019_Oct_25_1059,ACPT_experiment_5_30_19,3.1.0,59.94595015179194,
,,,C,G,d,b,R,D,d,L,c,,,,,5,19,119,3,4,0,4,0,,,,,0,35,35,0,,,,,,up,0.7839343934706449,3043.2522517681955,None,001,63,2019_Oct_25_1059,ACPT_experiment_5_30_19,3.1.0,59.94595015179194,
,,,C,G,d,b,R,D,d,L,c,,,,,5,19,119,3,4,0,4,0,,,,,1,0,36,0,,,,,,up,0.5837578682462663,3045.3205140240657,None,001,63,2019_Oct_25_1059,ACPT_experiment_5_30_19,3.1.0,59.94595015179194,
,,,C,G,d,b,L,G,y,R,y,,,,,5,19,119,3,4,0,4,0,,,,,1,1,37,35,,,,,,down,0.550414885592545,3047.2386208695193,None,001,63,2019_Oct_25_1059,ACPT_experiment_5_30_19,3.1.0,59.94595015179194,
,,,C,G,d,b,L,G,g,L,c ,,,,,5,19,119,3,4,0,4,0,,,,,1,2,38,18,,,,,,up,0.7505630363784803,3049.0900348069827,None,001,63,2019_Oct_25_1059,ACPT_experiment_5_30_19,3.1.0,59.94595015179194,
,,,C,G,d,b,L,G,d,R,i,,,,,5,19,119,3,4,0,4,0,,,,,1,3,39,17,,,,,,down,0.7005651644612954,3051.1082216140167,None,001,63,2019_Oct_25_1059,ACPT_experiment_5_30_19,3.1.0,59.94595015179194,
,,,C,G,d,b,L,U,d,R,u,,,,,5,19,119,3,4,0,4,0,,,,,1,4,40,21,,,,,,down,0.7172167333114885,3053.09308204046,None,001,63,2019_Oct_25_1059,ACPT_experiment_5_30_19,3.1.0,59.94595015179194,
,,,C,G,d,b,R,G,g,R,c ,,,,,5,19,119,3,4,0,4,0,,,,,1,5,41,7,,,,,,up,0.6639250117950724,3055.114619747824,None,001,63,2019_Oct_25_1059,ACPT_experiment_5_30_19,3.1.0,59.94595015179194,
,,,C,G,d,b,L,D,y,R,y,,,,,5,19,119,3,4,0,4,0,,,,,1,6,42,33,,,,,,down,0.8339518860097996,3057.0627772356115,None,001,63,2019_Oct_25_1059,ACPT_experiment_5_30_19,3.1.0,59.94595015179194,
,,,C,G,d,b,L,U,d,L,u,,,,,5,19,119,3,4,0,4,0,,,,,1,7,43,20,,,,,,down,0.7505729976173825,3059.1810569840204,None,001,63,2019_Oct_25_1059,ACPT_experiment_5_30_19,3.1.0,59.94595015179194,
,,,C,G,d,b,L,U,g,L,u,,,,,5,19,119,3,4,0,4,0,,,,,1,8,44,22,,,,,,down,0.5337654297322842,3061.199241074353,None,001,63,2019_Oct_25_1059,ACPT_experiment_5_30_19,3.1.0,59.94595015179194,
,,,C,G,d,b,L,G,y,L,y,,,,,5,19,119,3,4,0,4,0,,,,,1,9,45,34,,,,,,down,0.8673193189774793,3063.033994085439,None,001,63,2019_Oct_25_1059,ACPT_experiment_5_30_19,3.1.0,59.94595015179194,
,,,C,G,d,b,R,U,g,L,u,,,,,5,19,119,3,4,0,4,0,,,,,1,10,46,10,,,,,,down,0.7838649666555284,3065.202366790317,None,001,63,2019_Oct_25_1059,ACPT_experiment_5_30_19,3.1.0,59.94595015179194,
,,,C,G,d,b,R,D,y,R,y,,,,,5,19,119,3,4,0,4,0,,,,,1,11,47,27,,,,,,down,0.8172740557124598,3067.287237751525,None,001,63,2019_Oct_25_1059,ACPT_experiment_5_30_19,3.1.0,59.94595015179194,
,,,C,G,d,b,R,D,y,L,y,,,,,5,19,119,3,4,0,4,0,,,,,1,12,48,26,,,,,,down,0.8840034882446162,3069.405514481377,None,001,63,2019_Oct_25_1059,ACPT_experiment_5_30_19,3.1.0,59.94595015179194,
,,,C,G,d,b,R,G,y,L,y,,,,,5,19,119,3,4,0,4,0,,,,,1,13,49,28,,,,,,down,0.7338948654642081,3071.5738364744943,None,001,63,2019_Oct_25_1059,ACPT_experiment_5_30_19,3.1.0,59.94595015179194,
,,,C,G,d,b,R,U,y,R,u,,,,,5,19,119,3,4,0,4,0,,,,,1,14,50,31,,,,,,down,0.7839274507891787,3073.5920389780254,None,001,63,2019_Oct_25_1059,ACPT_experiment_5_30_19,3.1.0,59.94595015179194,
,,,C,G,d,b,R,D,g,R,i,,,,,5,19,119,3,4,0,4,0,,,,,1,15,51,3,,,,,,down,1.1008327897416166,3075.660283726264,None,001,63,2019_Oct_25_1059,ACPT_experiment_5_30_19,3.1.0,59.94595015179194,
,,,C,G,d,b,L,G,g,R,c ,,,,,5,19,119,3,4,0,4,0,,,,,1,16,52,19,,,,,,up,0.8840101290707025,3078.0454292856193,None,001,63,2019_Oct_25_1059,ACPT_experiment_5_30_19,3.1.0,59.94595015179194,
,,,C,G,d,b,L,D,g,R,i,,,,,5,19,119,3,4,0,4,0,,,,,1,17,53,15,,,,,,down,1.0507968840038302,3080.2137518824475,None,001,63,2019_Oct_25_1059,ACPT_experiment_5_30_19,3.1.0,59.94595015179194,
,,,C,G,d,b,L,U,g,R,u,,,,,5,19,119,3,4,0,4,0,,,,,1,18,54,23,,,,,,down,0.6004592432900608,3082.54886968617,None,001,63,2019_Oct_25_1059,ACPT_experiment_5_30_19,3.1.0,59.94595015179194,
,,,C,G,d,b,L,G,d,L,i,,,,,5,19,119,3,4,0,4,0,,,,,1,19,55,16,,,,,,down,0.9507350337671596,3084.4336392842274,None,001,63,2019_Oct_25_1059,ACPT_experiment_5_30_19,3.1.0,59.94595015179194,
,,,C,G,d,b,L,D,g,L,i,,,,,5,19,119,3,4,0,4,0,,,,,1,20,56,14,,,,,,down,0.7839102450129758,3086.668686785753,None,001,63,2019_Oct_25_1059,ACPT_experiment_5_30_19,3.1.0,59.94595015179194,
,,,C,G,d,b,L,D,y,L,y,,,,,5,19,119,3,4,0,4,0,,,,,1,21,57,32,,,,,,down,0.6838734488014779,3088.73691402636,None,001,63,2019_Oct_25_1059,ACPT_experiment_5_30_19,3.1.0,59.94595015179194,
,,,C,G,d,b,L,U,y,L,u,,,,,5,19,119,3,4,0,4,0,,,,,1,22,58,24,,,,,,down,0.7505742050407207,3090.705083944566,None,001,63,2019_Oct_25_1059,ACPT_experiment_5_30_19,3.1.0,59.94595015179194,
,,,C,G,d,b,R,D,d,R,c ,,,,,5,19,119,3,4,0,4,0,,,,,1,23,59,1,,,,,,up,0.6504918286150314,3092.73996669324,None,001,63,2019_Oct_25_1059,ACPT_experiment_5_30_19,3.1.0,59.94595015179194,
,,,C,G,d,b,L,U,y,R,u,,,,,5,19,119,3,4,0,4,0,,,,,1,24,60,25,,,,,,down,0.5003732445957212,3094.674775819304,None,001,63,2019_Oct_25_1059,ACPT_experiment_5_30_19,3.1.0,59.94595015179194,
,,,C,G,d,b,R,G,y,R,y,,,,,5,19,119,3,4,0,4,0,,,,,1,25,61,29,,,,,,down,1.0841709577971415,3096.476148417627,None,001,63,2019_Oct_25_1059,ACPT_experiment_5_30_19,3.1.0,59.94595015179194,
,,,C,G,d,b,R,U,y,L,u,,,,,5,19,119,3,4,0,4,0,,,,,1,26,62,30,,,,,,down,0.6671455104547022,3098.8613193328624,None,001,63,2019_Oct_25_1059,ACPT_experiment_5_30_19,3.1.0,59.94595015179194,
,,,C,G,d,b,L,D,d,L,c ,,,,,5,19,119,3,4,0,4,0,,,,,1,27,63,12,,,,,,up,0.8006037718082553,3100.8127836500453,None,001,63,2019_Oct_25_1059,ACPT_experiment_5_30_19,3.1.0,59.94595015179194,
,,,C,G,d,b,R,G,d,L,i,,,,,5,19,119,3,4,0,4,0,,,,,1,28,64,4,,,,,,down,0.8339905235416154,3102.881003947971,None,001,63,2019_Oct_25_1059,ACPT_experiment_5_30_19,3.1.0,59.94595015179194,
,,,C,G,d,b,R,U,g,R,u,,,,,5,19,119,3,4,0,4,0,,,,,1,29,65,11,,,,,,down,0.8839769249416349,3104.999333200718,None,001,63,2019_Oct_25_1059,ACPT_experiment_5_30_19,3.1.0,59.94595015179194,
,,,C,G,d,b,R,U,d,R,u,,,,,5,19,119,3,4,0,4,0,,,,,1,30,66,9,,,,,,down,0.6505168826392946,3107.150924538787,None,001,63,2019_Oct_25_1059,ACPT_experiment_5_30_19,3.1.0,59.94595015179194,
,,,C,G,d,b,R,G,g,L,c ,,,,,5,19,119,3,4,0,4,0,,,,,1,31,67,6,,,,,,up,0.7839534103809456,3109.0857547947517,None,001,63,2019_Oct_25_1059,ACPT_experiment_5_30_19,3.1.0,59.94595015179194,
,,,C,G,d,b,R,G,d,R,i,,,,,5,19,119,3,4,0,4,0,,,,,1,32,68,5,,,,,,down,0.6338115834714699,3111.153996826289,None,001,63,2019_Oct_25_1059,ACPT_experiment_5_30_19,3.1.0,59.94595015179194,
,,,C,G,d,b,R,D,g,L,i,,,,,5,19,119,3,4,0,4,0,,,,,1,33,69,2,,,,,,down,0.9508521537859451,3113.07211091628,None,001,63,2019_Oct_25_1059,ACPT_experiment_5_30_19,3.1.0,59.94595015179194,
,,,C,G,d,b,L,D,d,R,c ,,,,,5,19,119,3,4,0,4,0,,,,,1,34,70,13,,,,,,up,0.7672544501833727,3115.307160228939,None,001,63,2019_Oct_25_1059,ACPT_experiment_5_30_19,3.1.0,59.94595015179194,
,,,C,G,d,b,R,U,d,L,u,,,,,5,19,119,3,4,0,4,0,,,,,1,35,71,8,,,,,,down,0.6671787145837698,3117.3587229209006,None,001,63,2019_Oct_25_1059,ACPT_experiment_5_30_19,3.1.0,59.94595015179194,
,,,C,G,d,b,,,,,,,,,,5,19,119,3,5,0,5,0,0,0,0,0,,,,,,,,,,,,,,001,63,2019_Oct_25_1059,ACPT_experiment_5_30_19,3.1.0,59.94595015179194,
,,,C,G,d,b,R,G,d,R,i,,,,,5,19,119,3,5,0,5,0,,,,,0,0,0,5,,,,,,down,0.6638803371488393,3123.5667796915095,None,001,63,2019_Oct_25_1059,ACPT_experiment_5_30_19,3.1.0,59.94595015179194,
,,,C,G,d,b,L,U,y,R,u,,,,,5,19,119,3,5,0,5,0,,,,,0,1,1,25,,,,,,down,0.6838493003438089,3125.514940801566,None,001,63,2019_Oct_25_1059,ACPT_experiment_5_30_19,3.1.0,59.94595015179194,
,,,C,G,d,b,L,U,d,R,u,,,,,5,19,119,3,5,0,5,0,,,,,0,2,2,21,,,,,,down,0.6671956185036834,3127.4830841564685,None,001,63,2019_Oct_25_1059,ACPT_experiment_5_30_19,3.1.0,59.94595015179194,
,,,C,G,d,b,R,D,g,R,i,,,,,5,19,119,3,5,0,5,0,,,,,0,3,3,3,,,,,,down,0.6838465836426622,3129.4346043169594,None,001,63,2019_Oct_25_1059,ACPT_experiment_5_30_19,3.1.0,59.94595015179194,
,,,C,G,d,b,L,U,d,L,u,,,,,5,19,119,3,5,0,5,0,,,,,0,4,4,20,,,,,,down,0.7339226361905276,3131.4027612553696,None,001,63,2019_Oct_25_1059,ACPT_experiment_5_30_19,3.1.0,59.94595015179194,
,,,C,G,d,b,R,D,d,R,c ,,,,,5,19,119,3,5,0,5,0,,,,,0,5,5,1,,,,,,up,0.6338318078046541,3133.420946251269,None,001,63,2019_Oct_25_1059,ACPT_experiment_5_30_19,3.1.0,59.94595015179194,
,,,C,G,d,b,L,G,y,L,y,,,,,5,19,119,3,5,0,5,0,,,,,0,6,6,34,,,,,,down,0.7172025460927216,3135.3390989787918,None,001,63,2019_Oct_25_1059,ACPT_experiment_5_30_19,3.1.0,59.94595015179194,
,,,C,G,d,b,R,G,y,R,y,,,,,5,19,119,3,5,0,5,0,,,,,0,7,7,29,,,,,,down,0.5337267922004685,3137.3573020860345,None,001,63,2019_Oct_25_1059,ACPT_experiment_5_30_19,3.1.0,59.94595015179194,
,,,C,G,d,b,R,U,d,R,u,,,,,5,19,119,3,5,0,5,0,,,,,0,8,8,9,,,,,,down,1.0174445438219664,3139.2087120993733,None,001,63,2019_Oct_25_1059,ACPT_experiment_5_30_19,3.1.0,59.94595015179194,
,,,C,G,d,b,L,D,y,R,y,,,,,5,19,119,3,5,0,5,0,,,,,0,9,9,33,,,,,,down,0.7338676984495578,3141.5271641470267,None,001,63,2019_Oct_25_1059,ACPT_experiment_5_30_19,3.1.0,59.94595015179194,
,,,C,G,d,b,R,U,d,L,u,,,,,5,19,119,3,5,0,5,0,,,,,0,10,10,8,,,,,,down,0.6505180900621781,3143.562029388069,None,001,63,2019_Oct_25_1059,ACPT_experiment_5_30_19,3.1.0,59.94595015179194,
,,,C,G,d,b,L,D,g,R,i,,,,,5,19,119,3,5,0,5,0,,,,,0,11,11,15,,,,,,down,1.3843918256261531,3145.4968342881534,None,001,63,2019_Oct_25_1059,ACPT_experiment_5_30_19,3.1.0,59.94595015179194,
,,,C,G,d,b,L,G,g,L,c ,,,,,5,19,119,3,5,0,5,0,,,,,0,12,12,18,,,,,,up,0.5504145837362557,3148.1655355629805,None,001,63,2019_Oct_25_1059,ACPT_experiment_5_30_19,3.1.0,59.94595015179194,
,,,C,G,d,b,L,G,y,R,y,,,,,5,19,119,3,5,0,5,0,,,,,0,13,13,35,,,,,,down,0.6504957527390616,3150.000268047878,None,001,63,2019_Oct_25_1059,ACPT_experiment_5_30_19,3.1.0,59.94595015179194,
,,,C,G,d,b,R,G,g,L,c ,,,,,5,19,119,3,5,0,5,0,,,,,0,14,14,6,,,,,,up,0.6171367717315661,3151.9350762683753,None,001,63,2019_Oct_25_1059,ACPT_experiment_5_30_19,3.1.0,59.94595015179194,
,,,C,G,d,b,L,G,d,R,i,,,,,5,19,119,3,5,0,5,0,,,,,0,15,15,17,,,,,,down,0.8506390738343725,3153.8365306394116,None,001,63,2019_Oct_25_1059,ACPT_experiment_5_30_19,3.1.0,59.94595015179194,
,,,C,G,d,b,L,U,g,R,u,,,,,5,19,119,3,5,0,5,0,,,,,0,16,16,23,,,,,,down,0.7005168675468667,3155.971487614407,None,001,63,2019_Oct_25_1059,ACPT_experiment_5_30_19,3.1.0,59.94595015179194,
,,,C,G,d,b,R,D,g,L,i,,,,,5,19,119,3,5,0,5,0,,,,,0,17,17,2,,,,,,down,0.9840783182776249,3157.9563332499206,None,001,63,2019_Oct_25_1059,ACPT_experiment_5_30_19,3.1.0,59.94595015179194,
,,,C,G,d,b,R,U,g,L,u,,,,,5,19,119,3,5,0,5,0,,,,,0,18,18,10,,,,,,down,0.7005235083724983,3160.2247285637914,None,001,63,2019_Oct_25_1059,ACPT_experiment_5_30_19,3.1.0,59.94595015179194,
,,,C,G,d,b,L,U,g,L,u,,,,,5,19,119,3,5,0,5,0,,,,,0,19,19,22,,,,,,down,0.533771164990867,3162.1928704094157,None,001,63,2019_Oct_25_1059,ACPT_experiment_5_30_19,3.1.0,59.94595015179194,
,,,C,G,d,b,R,U,y,L,u,,,,,5,19,119,3,5,0,5,0,,,,,0,20,20,30,,,,,,down,0.7672601854419554,3164.010936836389,None,001,63,2019_Oct_25_1059,ACPT_experiment_5_30_19,3.1.0,59.94595015179194,
,,,C,G,d,b,R,D,y,R,y,,,,,5,19,119,3,5,0,5,0,,,,,0,21,21,27,,,,,,down,0.5838128059876908,3166.045806001556,None,001,63,2019_Oct_25_1059,ACPT_experiment_5_30_19,3.1.0,59.94595015179194,
,,,C,G,d,b,R,D,y,L,y,,,,,5,19,119,3,5,0,5,0,,,,,0,22,22,26,,,,,,down,0.550438430338545,3167.9138953544707,None,001,63,2019_Oct_25_1059,ACPT_experiment_5_30_19,3.1.0,59.94595015179194,
,,,C,G,d,b,R,G,y,L,y,,,,,5,19,119,3,5,0,5,0,,,,,0,23,23,28,,,,,,down,0.6335531949771394,3169.765586093628,None,001,63,2019_Oct_25_1059,ACPT_experiment_5_30_19,3.1.0,59.94595015179194,
,,,C,G,d,b,L,G,d,L,i,,,,,5,19,119,3,5,0,5,0,,,,,0,24,24,16,,,,,,down,0.917354319147762,3171.6834746973973,None,001,63,2019_Oct_25_1059,ACPT_experiment_5_30_19,3.1.0,59.94595015179194,
,,,C,G,d,b,R,D,d,L,c,,,,,5,19,119,3,5,0,5,0,,,,,0,25,25,0,,,,,,up,0.7172128091874583,3173.8684524853443,None,001,63,2019_Oct_25_1059,ACPT_experiment_5_30_19,3.1.0,59.94595015179194,
,,,C,G,d,b,L,D,d,R,c ,,,,,5,19,119,3,5,0,5,0,,,,,0,26,26,13,,,,,,up,0.60023647377011,3175.8702044559336,None,001,63,2019_Oct_25_1059,ACPT_experiment_5_30_19,3.1.0,59.94595015179194,
,,,C,G,d,b,R,G,g,R,c ,,,,,5,19,119,3,5,0,5,0,,,,,0,27,27,7,,,,,,down,0.5170607342761286,3177.7547482659143,None,001,63,2019_Oct_25_1059,ACPT_experiment_5_30_19,3.1.0,59.94595015179194,
,,,C,G,d,b,R,G,d,L,i,,,,,5,19,119,3,5,0,5,0,,,,,0,28,28,4,,,,,,down,0.8840285422693341,3179.5394508821882,None,001,63,2019_Oct_25_1059,ACPT_experiment_5_30_19,3.1.0,59.94595015179194,
,,,C,G,d,b,L,D,y,L,y,,,,,5,19,119,3,5,0,5,0,,,,,0,29,29,32,,,,,,down,0.8840001678318004,3181.7077707623152,None,001,63,2019_Oct_25_1059,ACPT_experiment_5_30_19,3.1.0,59.94595015179194,
,,,C,G,d,b,R,U,g,R,u,,,,,5,19,119,3,5,0,5,0,,,,,0,30,30,11,,,,,,down,0.9006704517364597,3183.8761003018253,None,001,63,2019_Oct_25_1059,ACPT_experiment_5_30_19,3.1.0,59.94595015179194,
,,,C,G,d,b,L,D,g,L,i,,,,,5,19,119,3,5,0,5,0,,,,,0,31,31,14,,,,,,down,0.8506529591973049,3186.061079297195,None,001,63,2019_Oct_25_1059,ACPT_experiment_5_30_19,3.1.0,59.94595015179194,
,,,C,G,d,b,R,U,y,R,u,,,,,5,19,119,3,5,0,5,0,,,,,0,32,32,31,,,,,,down,0.6171207733787014,3188.196061326215,None,001,63,2019_Oct_25_1059,ACPT_experiment_5_30_19,3.1.0,59.94595015179194,
,,,C,G,d,b,L,U,y,L,u,,,,,5,19,119,3,5,0,5,0,,,,,0,33,33,24,,,,,,down,0.533551715883732,3190.1143154772594,None,001,63,2019_Oct_25_1059,ACPT_experiment_5_30_19,3.1.0,59.94595015179194,
,,,C,G,d,b,L,D,d,L,c ,,,,,5,19,119,3,5,0,5,0,,,,,0,34,34,12,,,,,,down,0.7505986553533148,3191.948907297392,None,001,63,2019_Oct_25_1059,ACPT_experiment_5_30_19,3.1.0,59.94595015179194,
,,,C,G,d,b,L,G,g,R,c ,,,,,5,19,119,3,5,0,5,0,,,,,0,35,35,19,,,,,,up,0.8006390889272552,3193.9837885367874,None,001,63,2019_Oct_25_1059,ACPT_experiment_5_30_19,3.1.0,59.94595015179194,
,,,C,G,d,b,R,G,d,R,i,,,,,5,19,119,3,5,0,5,0,,,,,1,0,36,5,,,,,,down,0.8840246181448492,3196.068708398622,None,001,63,2019_Oct_25_1059,ACPT_experiment_5_30_19,3.1.0,59.94595015179194,
,,,C,G,d,b,L,G,y,R,y,,,,,5,19,119,3,5,0,5,0,,,,,1,1,37,35,,,,,,down,0.7839223192422651,3198.2537085238923,None,001,63,2019_Oct_25_1059,ACPT_experiment_5_30_19,3.1.0,59.94595015179194,
,,,C,G,d,b,L,D,y,L,y,,,,,5,19,119,3,5,0,5,0,,,,,1,2,38,32,,,,,,down,0.7672191330643727,3200.338654345319,None,001,63,2019_Oct_25_1059,ACPT_experiment_5_30_19,3.1.0,59.94595015179194,
,,,C,G,d,b,L,D,y,R,y,,,,,5,19,119,3,5,0,5,0,,,,,1,3,39,33,,,,,,down,0.5670275150541784,3202.390250241409,None,001,63,2019_Oct_25_1059,ACPT_experiment_5_30_19,3.1.0,59.94595015179194,
,,,C,G,d,b,R,U,d,L,u,,,,,5,19,119,3,5,0,5,0,,,,,1,4,40,8,,,,,,down,0.6338296948147217,3204.2416104485546,None,001,63,2019_Oct_25_1059,ACPT_experiment_5_30_19,3.1.0,59.94595015179194,
,,,C,G,d,b,R,U,g,R,u,,,,,5,19,119,3,5,0,5,0,,,,,1,5,41,11,,,,,,down,0.6671735830364014,3206.159732386794,None,001,63,2019_Oct_25_1059,ACPT_experiment_5_30_19,3.1.0,59.94595015179194,
,,,C,G,d,b,L,D,d,L,c ,,,,,5,19,119,3,5,0,5,0,,,,,1,6,42,12,,,,,,up,0.6171249993585661,3208.1112253802703,None,001,63,2019_Oct_25_1059,ACPT_experiment_5_30_19,3.1.0,59.94595015179194,
,,,C,G,d,b,L,D,g,R,i,,,,,5,19,119,3,5,0,5,0,,,,,1,7,43,15,,,,,,down,0.6671690552007021,3210.0126706956357,None,001,63,2019_Oct_25_1059,ACPT_experiment_5_30_19,3.1.0,59.94595015179194,
,,,C,G,d,b,R,D,g,R,i,,,,,5,19,119,3,5,0,5,0,,,,,1,8,44,3,,,,,,down,0.6505081288237307,3211.9474768031428,None,001,63,2019_Oct_25_1059,ACPT_experiment_5_30_19,3.1.0,59.94595015179194,
,,,C,G,d,b,R,D,y,L,y,,,,,5,19,119,3,5,0,5,0,,,,,1,9,45,26,,,,,,down,1.050841558650518,3213.8655824411735,None,001,63,2019_Oct_25_1059,ACPT_experiment_5_30_19,3.1.0,59.94595015179194,
,,,C,G,d,b,L,G,g,R,c ,,,,,5,19,119,3,5,0,5,0,,,,,1,10,46,19,,,,,,up,0.8339684880738787,3216.200718054383,None,001,63,2019_Oct_25_1059,ACPT_experiment_5_30_19,3.1.0,59.94595015179194,
,,,C,G,d,b,R,D,g,L,i,,,,,5,19,119,3,5,0,5,0,,,,,1,11,47,2,,,,,,down,1.0174735219707145,3218.318999915782,None,001,63,2019_Oct_25_1059,ACPT_experiment_5_30_19,3.1.0,59.94595015179194,
,,,C,G,d,b,R,G,d,L,i,,,,,5,19,119,3,5,0,5,0,,,,,1,12,48,4,,,,,,down,0.9173657896653822,3220.620755116228,None,001,63,2019_Oct_25_1059,ACPT_experiment_5_30_19,3.1.0,59.94595015179194,
,,,C,G,d,b,R,U,y,L,u,,,,,5,19,119,3,5,0,5,0,,,,,1,13,49,30,,,,,,down,0.8172918651998771,3222.8224312606612,None,001,63,2019_Oct_25_1059,ACPT_experiment_5_30_19,3.1.0,59.94595015179194,
,,,C,G,d,b,L,U,d,R,u,,,,,5,19,119,3,5,0,5,0,,,,,1,14,50,21,,,,,,down,0.800606488509402,3224.9240304620716,None,001,63,2019_Oct_25_1059,ACPT_experiment_5_30_19,3.1.0,59.94595015179194,
,,,C,G,d,b,R,G,g,L,c ,,,,,5,19,119,3,5,0,5,0,,,,,1,15,51,6,,,,,,up,0.7172019423810525,3227.0089654166923,None,001,63,2019_Oct_25_1059,ACPT_experiment_5_30_19,3.1.0,59.94595015179194,
,,,C,G,d,b,L,G,g,L,c ,,,,,5,19,119,3,5,0,5,0,,,,,1,16,52,18,,,,,,up,0.5504185078607406,3228.99379807241,None,001,63,2019_Oct_25_1059,ACPT_experiment_5_30_19,3.1.0,59.94595015179194,
,,,C,G,d,b,L,D,d,R,c ,,,,,5,19,119,3,5,0,5,0,,,,,1,17,53,13,,,,,,up,0.6671687533448676,3230.828533575864,None,001,63,2019_Oct_25_1059,ACPT_experiment_5_30_19,3.1.0,59.94595015179194,
,,,C,G,d,b,L,D,g,L,i,,,,,5,19,119,3,5,0,5,0,,,,,1,18,54,14,,,,,,down,1.2340190790928318,3232.796947091635,None,001,63,2019_Oct_25_1059,ACPT_experiment_5_30_19,3.1.0,59.94595015179194,
,,,C,G,d,b,L,U,g,L,u,,,,,5,19,119,3,5,0,5,0,,,,,1,19,55,22,,,,,,down,0.617137677298615,3235.31528678859,None,001,63,2019_Oct_25_1059,ACPT_experiment_5_30_19,3.1.0,59.94595015179194,
,,,C,G,d,b,R,G,y,L,y,,,,,5,19,119,3,5,0,5,0,,,,,1,20,56,28,,,,,,down,0.7005340733226149,3237.2167342169455,None,001,63,2019_Oct_25_1059,ACPT_experiment_5_30_19,3.1.0,59.94595015179194,
,,,C,G,d,b,R,U,g,L,u,,,,,5,19,119,3,5,0,5,0,,,,,1,21,57,10,,,,,,down,0.5670942251676934,3239.201579852459,None,001,63,2019_Oct_25_1059,ACPT_experiment_5_30_19,3.1.0,59.94595015179194,
,,,C,G,d,b,L,G,y,L,y,,,,,5,19,119,3,5,0,5,0,,,,,1,22,58,34,,,,,,down,0.6171367717315661,3241.052989563942,None,001,63,2019_Oct_25_1059,ACPT_experiment_5_30_19,3.1.0,59.94595015179194,
,,,C,G,d,b,L,U,y,R,u,,,,,5,19,119,3,5,0,5,0,,,,,1,23,59,25,,,,,,down,0.5168741874417719,3242.971269070867,None,001,63,2019_Oct_25_1059,ACPT_experiment_5_30_19,3.1.0,59.94595015179194,
,,,C,G,d,b,R,D,y,R,y,,,,,5,19,119,3,5,0,5,0,,,,,1,24,60,27,,,,,,down,0.7839205081077125,3244.772491948753,None,001,63,2019_Oct_25_1059,ACPT_experiment_5_30_19,3.1.0,59.94595015179194,
,,,C,G,d,b,L,U,d,L,u,,,,,5,19,119,3,5,0,5,0,,,,,1,25,61,20,,,,,,down,0.6004290577184292,3246.874107450373,None,001,63,2019_Oct_25_1059,ACPT_experiment_5_30_19,3.1.0,59.94595015179194,
,,,C,G,d,b,R,G,y,R,y,,,,,5,19,119,3,5,0,5,0,,,,,1,26,62,29,,,,,,down,0.6838414520952938,3248.7755434082105,None,001,63,2019_Oct_25_1059,ACPT_experiment_5_30_19,3.1.0,59.94595015179194,
,,,C,G,d,b,R,G,g,R,c ,,,,,5,19,119,3,5,0,5,0,,,,,1,27,63,7,,,,,,up,1.3509075744959773,3250.76038723259,None,001,63,2019_Oct_25_1059,ACPT_experiment_5_30_19,3.1.0,59.94595015179194,
,,,C,G,d,b,L,G,d,R,i,,,,,5,19,119,3,5,0,5,0,,,,,1,28,64,17,,,,,,down,0.8972132981930372,3253.4158581712795,None,001,63,2019_Oct_25_1059,ACPT_experiment_5_30_19,3.1.0,59.94595015179194,
