facing_vig,person_vig,text_vig,facing_train,person_train,food_train,correct_key_train,facing_exp,person_exp,food_exp,showL_R,consistent,vig_random.thisRepN,vig_random.thisTrialN,vig_random.thisN,vig_random.thisIndex,trainTrials.thisRepN,trainTrials.thisTrialN,trainTrials.thisN,trainTrials.thisIndex,expBlock.thisRepN,expBlock.thisTrialN,expBlock.thisN,expBlock.thisIndex,breakLoop.thisRepN,breakLoop.thisTrialN,breakLoop.thisN,breakLoop.thisIndex,expTrials.thisRepN,expTrials.thisTrialN,expTrials.thisN,expTrials.thisIndex,train_resp.keys,train_resp.corr,train_resp.rt,train_resp.started,train_resp.stopped,exp_resp.keys,exp_resp.rt,exp_resp.started,exp_resp.stopped,session,participant,date,expName,psychopyVersion,frameRate,
C,D,"is allergic to gluten, meaning she can’t eat wheat products. She enjoys eating dairy products. She thinks eating insects, like crickets, is disgusting.",,,,,,,,,,0,0,0,1,,,,,,,,,,,,,,,,,,,,,,,,,,001,64,2019_Oct_25_1158,ACPT_experiment_5_30_19,3.1.0,59.955822762602885,
C,U,"did not report her food preferences, so her food preferences are unknown.",,,,,,,,,,0,1,1,2,,,,,,,,,,,,,,,,,,,,,,,,,,001,64,2019_Oct_25_1158,ACPT_experiment_5_30_19,3.1.0,59.955822762602885,
C,G,"cannot eat dairy products because she is lactose intolerant. She enjoys eating wheat products. She thinks eating insects, like crickets, is disgusting.",,,,,,,,,,0,2,2,0,,,,,,,,,,,,,,,,,,,,,,,,,,001,64,2019_Oct_25_1158,ACPT_experiment_5_30_19,3.1.0,59.955822762602885,
,,,C,G,g,v,,,,,,,,,,0,0,0,13,,,,,,,,,,,,,v,1,3.135743912853286,1170.9677231717433,None,,,,,001,64,2019_Oct_25_1158,ACPT_experiment_5_30_19,3.1.0,59.955822762602885,
,,,C,U,g,n,,,,,,,,,,0,1,1,7,,,,,,,,,,,,,b,0,2.2517229169761777,1177.3893066404335,None,,,,,001,64,2019_Oct_25_1158,ACPT_experiment_5_30_19,3.1.0,59.955822762602885,
,,,C,D,y,b,,,,,,,,,,0,2,2,2,,,,,,,,,,,,,b,1,2.1349802178847312,1182.9268585482978,None,,,,,001,64,2019_Oct_25_1158,ACPT_experiment_5_30_19,3.1.0,59.955822762602885,
,,,C,D,d,v,,,,,,,,,,0,3,3,9,,,,,,,,,,,,,v,1,4.486785511287962,1188.3476580976876,None,,,,,001,64,2019_Oct_25_1158,ACPT_experiment_5_30_19,3.1.0,59.955822762602885,
,,,C,U,y,n,,,,,,,,,,0,4,4,17,,,,,,,,,,,,,v,0,1.5011586731752686,1196.1202590163548,None,,,,,001,64,2019_Oct_25_1158,ACPT_experiment_5_30_19,3.1.0,59.955822762602885,
,,,C,D,d,v,,,,,,,,,,0,5,5,18,,,,,,,,,,,,,v,1,2.235052934928717,1200.907247284129,None,,,,,001,64,2019_Oct_25_1158,ACPT_experiment_5_30_19,3.1.0,59.955822762602885,
,,,C,G,g,v,,,,,,,,,,0,6,6,4,,,,,,,,,,,,,v,1,2.3017684820970317,1206.4281249839642,None,,,,,001,64,2019_Oct_25_1158,ACPT_experiment_5_30_19,3.1.0,59.955822762602885,
,,,C,D,g,b,,,,,,,,,,0,7,7,10,,,,,,,,,,,,,b,1,4.903756322745721,1212.0157197402477,None,,,,,001,64,2019_Oct_25_1158,ACPT_experiment_5_30_19,3.1.0,59.955822762602885,
,,,C,D,y,b,,,,,,,,,,0,8,8,11,,,,,,,,,,,,,b,1,1.2509592220085324,1220.1886302421399,None,,,,,001,64,2019_Oct_25_1158,ACPT_experiment_5_30_19,3.1.0,59.955822762602885,
,,,C,U,g,n,,,,,,,,,,0,9,9,16,,,,,,,,,,,,,v,0,4.1529798743740685,1224.74235105156,None,,,,,001,64,2019_Oct_25_1158,ACPT_experiment_5_30_19,3.1.0,59.955822762602885,
,,,C,U,y,n,,,,,,,,,,0,10,10,8,,,,,,,,,,,,,b,0,2.4185259721180046,1232.1644319784746,None,,,,,001,64,2019_Oct_25_1158,ACPT_experiment_5_30_19,3.1.0,59.955822762602885,
,,,C,G,y,b,,,,,,,,,,0,11,11,14,,,,,,,,,,,,,b,1,3.135764740896775,1237.8687528317841,None,,,,,001,64,2019_Oct_25_1158,ACPT_experiment_5_30_19,3.1.0,59.955822762602885,
,,,C,U,d,n,,,,,,,,,,0,12,12,15,,,,,,,,,,,,,n,1,2.935605421449509,1244.2903498839823,None,,,,,001,64,2019_Oct_25_1158,ACPT_experiment_5_30_19,3.1.0,59.955822762602885,
,,,C,G,y,b,,,,,,,,,,0,13,13,5,,,,,,,,,,,,,b,1,2.16833255806705,1250.511764977553,None,,,,,001,64,2019_Oct_25_1158,ACPT_experiment_5_30_19,3.1.0,59.955822762602885,
,,,C,G,d,b,,,,,,,,,,0,14,14,3,,,,,,,,,,,,,b,1,4.3867272833194875,1255.9659244135173,None,,,,,001,64,2019_Oct_25_1158,ACPT_experiment_5_30_19,3.1.0,59.955822762602885,
,,,C,D,g,b,,,,,,,,,,0,15,15,1,,,,,,,,,,,,,b,1,1.5179593587499767,1263.6384480873066,None,,,,,001,64,2019_Oct_25_1158,ACPT_experiment_5_30_19,3.1.0,59.955822762602885,
,,,C,G,g,v,,,,,,,,,,0,16,16,19,,,,,,,,,,,,,v,1,2.151675555815018,1268.4254122066232,None,,,,,001,64,2019_Oct_25_1158,ACPT_experiment_5_30_19,3.1.0,59.955822762602885,
,,,C,G,d,b,,,,,,,,,,0,17,17,12,,,,,,,,,,,,,b,1,3.852952194203681,1273.8462377156047,None,,,,,001,64,2019_Oct_25_1158,ACPT_experiment_5_30_19,3.1.0,59.955822762602885,
,,,C,U,d,n,,,,,,,,,,0,18,18,6,,,,,,,,,,,,,n,1,1.2342916548068388,1280.98501437286,None,,,,,001,64,2019_Oct_25_1158,ACPT_experiment_5_30_19,3.1.0,59.955822762602885,
,,,C,D,d,v,,,,,,,,,,0,19,19,0,,,,,,,,,,,,,b,0,2.5019096902024103,1285.5218246212244,None,,,,,001,64,2019_Oct_25_1158,ACPT_experiment_5_30_19,3.1.0,59.955822762602885,
,,,C,U,d,n,,,,,,,,,,1,0,20,6,,,,,,,,,,,,,n,1,1.2176044669822659,1291.3095623967465,None,,,,,001,64,2019_Oct_25_1158,ACPT_experiment_5_30_19,3.1.0,59.955822762602885,
,,,C,U,y,n,,,,,,,,,,1,1,21,17,,,,,,,,,,,,,n,1,0.6335806638471695,1295.8299480717606,None,,,,,001,64,2019_Oct_25_1158,ACPT_experiment_5_30_19,3.1.0,59.955822762602885,
,,,C,G,y,b,,,,,,,,,,1,2,22,14,,,,,,,,,,,,,b,1,1.3510790285436087,1299.7493326724707,None,,,,,001,64,2019_Oct_25_1158,ACPT_experiment_5_30_19,3.1.0,59.955822762602885,
,,,C,D,g,b,,,,,,,,,,1,3,23,10,,,,,,,,,,,,,b,1,1.450866491933084,1304.403153667804,None,,,,,001,64,2019_Oct_25_1158,ACPT_experiment_5_30_19,3.1.0,59.955822762602885,
,,,C,G,g,v,,,,,,,,,,1,4,24,13,,,,,,,,,,,,,v,1,1.0174825776430225,1309.1231305698038,None,,,,,001,64,2019_Oct_25_1158,ACPT_experiment_5_30_19,3.1.0,59.955822762602885,
,,,C,D,d,v,,,,,,,,,,1,5,25,9,,,,,,,,,,,,,v,1,1.5178343904817666,1313.4264354975085,None,,,,,001,64,2019_Oct_25_1158,ACPT_experiment_5_30_19,3.1.0,59.955822762602885,
,,,C,G,d,b,,,,,,,,,,1,6,26,12,,,,,,,,,,,,,b,1,0.8006285239771387,1318.2134210485801,None,,,,,001,64,2019_Oct_25_1158,ACPT_experiment_5_30_19,3.1.0,59.955822762602885,
,,,C,G,d,b,,,,,,,,,,1,7,27,3,,,,,,,,,,,,,b,1,4.419784408609303,1322.300142385343,None,,,,,001,64,2019_Oct_25_1158,ACPT_experiment_5_30_19,3.1.0,59.955822762602885,
,,,C,U,g,n,,,,,,,,,,1,8,28,16,,,,,,,,,,,,,n,1,1.167648854865547,1330.0057292215351,None,,,,,001,64,2019_Oct_25_1158,ACPT_experiment_5_30_19,3.1.0,59.955822762602885,
,,,C,D,y,b,,,,,,,,,,1,9,29,11,,,,,,,,,,,,,b,1,0.8170340804163061,1334.4760859334938,None,,,,,001,64,2019_Oct_25_1158,ACPT_experiment_5_30_19,3.1.0,59.955822762602885,
,,,C,U,d,n,,,,,,,,,,1,10,30,15,,,,,,,,,,,,,n,1,0.7339009025790801,1338.5789562493346,None,,,,,001,64,2019_Oct_25_1158,ACPT_experiment_5_30_19,3.1.0,59.955822762602885,
,,,C,D,g,b,,,,,,,,,,1,11,31,1,,,,,,,,,,,,,b,1,1.9512294734340685,1342.6156395673688,None,,,,,001,64,2019_Oct_25_1158,ACPT_experiment_5_30_19,3.1.0,59.955822762602885,
,,,C,G,y,b,,,,,,,,,,1,12,32,5,,,,,,,,,,,,,b,1,1.4511197488800462,1347.8526953149885,None,,,,,001,64,2019_Oct_25_1158,ACPT_experiment_5_30_19,3.1.0,59.955822762602885,
,,,C,D,y,b,,,,,,,,,,1,13,33,2,,,,,,,,,,,,,b,1,0.6004655822607674,1352.5896470733123,None,,,,,001,64,2019_Oct_25_1158,ACPT_experiment_5_30_19,3.1.0,59.955822762602885,
,,,C,D,d,v,,,,,,,,,,1,14,34,0,,,,,,,,,,,,,b,0,1.601314702395939,1356.4926357769664,None,,,,,001,64,2019_Oct_25_1158,ACPT_experiment_5_30_19,3.1.0,59.955822762602885,
,,,C,G,g,v,,,,,,,,,,1,15,35,4,,,,,,,,,,,,,v,1,1.3177004269145982,1361.3796795560065,None,,,,,001,64,2019_Oct_25_1158,ACPT_experiment_5_30_19,3.1.0,59.955822762602885,
,,,C,U,g,n,,,,,,,,,,1,16,36,7,,,,,,,,,,,,,n,1,1.0838950616707734,1366.0001503241483,None,,,,,001,64,2019_Oct_25_1158,ACPT_experiment_5_30_19,3.1.0,59.955822762602885,
,,,C,G,g,v,,,,,,,,,,1,17,37,19,,,,,,,,,,,,,v,1,2.7187580086092566,1370.3698680377356,None,,,,,001,64,2019_Oct_25_1158,ACPT_experiment_5_30_19,3.1.0,59.955822762602885,
,,,C,D,d,v,,,,,,,,,,1,18,38,18,,,,,,,,,,,,,v,1,1.7847062385426398,1376.3744508112522,None,,,,,001,64,2019_Oct_25_1158,ACPT_experiment_5_30_19,3.1.0,59.955822762602885,
,,,C,U,y,n,,,,,,,,,,1,19,39,8,,,,,,,,,,,,,n,1,0.9174228403953748,1381.444988455528,None,,,,,001,64,2019_Oct_25_1158,ACPT_experiment_5_30_19,3.1.0,59.955822762602885,
,,,C,D,d,v,,,,,,,,,,2,0,40,18,,,,,,,,,,,,,v,1,1.6510928233501545,1385.6650439909436,None,,,,,001,64,2019_Oct_25_1158,ACPT_experiment_5_30_19,3.1.0,59.955822762602885,
,,,C,D,y,b,,,,,,,,,,2,1,41,2,,,,,,,,,,,,,b,1,1.0341226759755955,1390.585310915918,None,,,,,001,64,2019_Oct_25_1158,ACPT_experiment_5_30_19,3.1.0,59.955822762602885,
,,,C,G,y,b,,,,,,,,,,2,2,42,14,,,,,,,,,,,,,b,1,1.0141362051481337,1394.9252629389703,None,,,,,001,64,2019_Oct_25_1158,ACPT_experiment_5_30_19,3.1.0,59.955822762602885,
,,,C,U,y,n,,,,,,,,,,2,3,43,17,,,,,,,,,,,,,n,1,1.2676515413804736,1399.2252124385086,None,,,,,001,64,2019_Oct_25_1158,ACPT_experiment_5_30_19,3.1.0,59.955822762602885,
,,,C,G,d,b,,,,,,,,,,2,4,44,12,,,,,,,,,,,,,v,0,2.385155218737964,1403.7953792530343,None,,,,,001,64,2019_Oct_25_1158,ACPT_experiment_5_30_19,3.1.0,59.955822762602885,
,,,C,U,d,n,,,,,,,,,,2,5,45,15,,,,,,,,,,,,,n,1,1.0007757691964798,1409.4663574255455,None,,,,,001,64,2019_Oct_25_1158,ACPT_experiment_5_30_19,3.1.0,59.955822762602885,
,,,C,U,g,n,,,,,,,,,,2,6,46,7,,,,,,,,,,,,,n,1,0.9838232501952007,1413.7699147046296,None,,,,,001,64,2019_Oct_25_1158,ACPT_experiment_5_30_19,3.1.0,59.955822762602885,
,,,C,U,d,n,,,,,,,,,,2,7,47,6,,,,,,,,,,,,,n,1,0.5170936365502712,1418.0228622502564,None,,,,,001,64,2019_Oct_25_1158,ACPT_experiment_5_30_19,3.1.0,59.955822762602885,
,,,C,D,d,v,,,,,,,,,,2,8,48,9,,,,,,,,,,,,,v,1,2.3351295760949142,1421.8257836702696,None,,,,,001,64,2019_Oct_25_1158,ACPT_experiment_5_30_19,3.1.0,59.955822762602885,
,,,C,U,y,n,,,,,,,,,,2,9,49,8,,,,,,,,,,,,,n,1,1.0341353539151896,1427.4467392186953,None,,,,,001,64,2019_Oct_25_1158,ACPT_experiment_5_30_19,3.1.0,59.955822762602885,
,,,C,D,g,b,,,,,,,,,,2,10,50,10,,,,,,,,,,,,,b,1,1.3007633025545147,1431.8002998030997,None,,,,,001,64,2019_Oct_25_1158,ACPT_experiment_5_30_19,3.1.0,59.955822762602885,
,,,C,G,g,v,,,,,,,,,,2,11,51,4,,,,,,,,,,,,,v,1,1.1008789736661129,1436.3868884742733,None,,,,,001,64,2019_Oct_25_1158,ACPT_experiment_5_30_19,3.1.0,59.955822762602885,
,,,C,U,g,n,,,,,,,,,,2,12,52,16,,,,,,,,,,,,,n,1,0.6502219696030807,1440.7905284316394,None,,,,,001,64,2019_Oct_25_1158,ACPT_experiment_5_30_19,3.1.0,59.955822762602885,
,,,C,D,y,b,,,,,,,,,,2,13,53,11,,,,,,,,,,,,,n,0,0.9840991463215687,1444.7265854292436,None,,,,,001,64,2019_Oct_25_1158,ACPT_experiment_5_30_19,3.1.0,59.955822762602885,
,,,C,G,g,v,,,,,,,,,,2,14,54,13,,,,,,,,,,,,,v,1,2.5349589672432558,1449.0134974784487,None,,,,,001,64,2019_Oct_25_1158,ACPT_experiment_5_30_19,3.1.0,59.955822762602885,
,,,C,D,g,b,,,,,,,,,,2,15,55,1,,,,,,,,,,,,,b,1,0.9507410708811221,1454.8342890588474,None,,,,,001,64,2019_Oct_25_1158,ACPT_experiment_5_30_19,3.1.0,59.955822762602885,
,,,C,G,d,b,,,,,,,,,,2,16,56,3,,,,,,,,,,,,,b,1,2.702074443053789,1459.0708548946359,None,,,,,001,64,2019_Oct_25_1158,ACPT_experiment_5_30_19,3.1.0,59.955822762602885,
,,,C,G,y,b,,,,,,,,,,2,17,57,5,,,,,,,,,,,,,n,0,0.8339733177654125,1465.058756215587,None,,,,,001,64,2019_Oct_25_1158,ACPT_experiment_5_30_19,3.1.0,59.955822762602885,
,,,C,G,g,v,,,,,,,,,,2,18,58,19,,,,,,,,,,,,,v,1,1.7677730383084054,1469.1954941393205,None,,,,,001,64,2019_Oct_25_1158,ACPT_experiment_5_30_19,3.1.0,59.955822762602885,
,,,C,D,d,v,,,,,,,,,,2,19,59,0,,,,,,,,,,,,,v,1,3.052389172918083,1474.2490798683066,None,,,,,001,64,2019_Oct_25_1158,ACPT_experiment_5_30_19,3.1.0,59.955822762602885,
,,,C,G,y,b,,,,,,,,,,3,0,60,14,,,,,,,,,,,,,b,1,1.2676403727191428,1480.5872654316945,None,,,,,001,64,2019_Oct_25_1158,ACPT_experiment_5_30_19,3.1.0,59.955822762602885,
,,,C,U,g,n,,,,,,,,,,3,1,61,7,,,,,,,,,,,,,n,1,1.2842605485739114,1485.1574760152998,None,,,,,001,64,2019_Oct_25_1158,ACPT_experiment_5_30_19,3.1.0,59.955822762602885,
,,,C,G,g,v,,,,,,,,,,3,2,62,13,,,,,,,,,,,,,v,1,1.8347481813943887,1489.727565554761,None,,,,,001,64,2019_Oct_25_1158,ACPT_experiment_5_30_19,3.1.0,59.955822762602885,
,,,C,U,y,n,,,,,,,,,,3,3,63,17,,,,,,,,,,,,,n,1,0.9007021465868092,1494.848133973227,None,,,,,001,64,2019_Oct_25_1158,ACPT_experiment_5_30_19,3.1.0,59.955822762602885,
,,,C,G,d,b,,,,,,,,,,3,4,64,12,,,,,,,,,,,,,v,0,2.168095299472043,1499.0515844255733,None,,,,,001,64,2019_Oct_25_1158,ACPT_experiment_5_30_19,3.1.0,59.955822762602885,
,,,C,G,g,v,,,,,,,,,,3,5,65,19,,,,,,,,,,,,,v,1,1.9682254596582425,1504.4888206225414,None,,,,,001,64,2019_Oct_25_1158,ACPT_experiment_5_30_19,3.1.0,59.955822762602885,
,,,C,D,g,b,,,,,,,,,,3,6,66,1,,,,,,,,,,,,,b,1,1.334357731023374,1509.7428285873066,None,,,,,001,64,2019_Oct_25_1158,ACPT_experiment_5_30_19,3.1.0,59.955822762602885,
,,,C,U,d,n,,,,,,,,,,3,7,67,6,,,,,,,,,,,,,n,1,1.5175829446689022,1514.3799527354322,None,,,,,001,64,2019_Oct_25_1158,ACPT_experiment_5_30_19,3.1.0,59.955822762602885,
,,,C,G,y,b,,,,,,,,,,3,8,68,5,,,,,,,,,,,,,b,1,1.3677263714134824,1519.1833571245952,None,,,,,001,64,2019_Oct_25_1158,ACPT_experiment_5_30_19,3.1.0,59.955822762602885,
,,,C,D,d,v,,,,,,,,,,3,9,69,0,,,,,,,,,,,,,v,1,5.3873829139402005,1523.8369951953628,None,,,,,001,64,2019_Oct_25_1158,ACPT_experiment_5_30_19,3.1.0,59.955822762602885,
,,,C,U,d,n,,,,,,,,,,3,10,70,15,,,,,,,,,,,,,n,1,1.167573994646773,1532.5101868758566,None,,,,,001,64,2019_Oct_25_1158,ACPT_experiment_5_30_19,3.1.0,59.955822762602885,
,,,C,D,d,v,,,,,,,,,,3,11,71,18,,,,,,,,,,,,,v,1,3.18578223343593,1536.9635838242766,None,,,,,001,64,2019_Oct_25_1158,ACPT_experiment_5_30_19,3.1.0,59.955822762602885,
,,,C,D,g,b,,,,,,,,,,3,12,72,10,,,,,,,,,,,,,b,1,4.570168927515624,1543.4185054459304,None,,,,,001,64,2019_Oct_25_1158,ACPT_experiment_5_30_19,3.1.0,59.955822762602885,
,,,C,U,y,n,,,,,,,,,,3,13,73,8,,,,,,,,,,,,,n,1,1.6513026130742219,1551.2744710657716,None,,,,,001,64,2019_Oct_25_1158,ACPT_experiment_5_30_19,3.1.0,59.955822762602885,
,,,C,D,y,b,,,,,,,,,,3,14,74,2,,,,,,,,,,,,,b,1,1.5011988199858024,1556.2115963307624,None,,,,,001,64,2019_Oct_25_1158,ACPT_experiment_5_30_19,3.1.0,59.955822762602885,
,,,C,D,d,v,,,,,,,,,,3,15,75,9,,,,,,,,,,,,,v,1,1.3176895601081924,1560.9818977125678,None,,,,,001,64,2019_Oct_25_1158,ACPT_experiment_5_30_19,3.1.0,59.955822762602885,
,,,C,G,d,b,,,,,,,,,,3,16,76,3,,,,,,,,,,,,,b,1,2.715452688493315,1565.6054166197537,None,,,,,001,64,2019_Oct_25_1158,ACPT_experiment_5_30_19,3.1.0,59.955822762602885,
,,,C,G,g,v,,,,,,,,,,3,17,77,4,,,,,,,,,,,,,v,1,1.4511161266118506,1571.589985151717,None,,,,,001,64,2019_Oct_25_1158,ACPT_experiment_5_30_19,3.1.0,59.955822762602885,
,,,C,U,g,n,,,,,,,,,,3,18,78,16,,,,,,,,,,,,,n,1,1.1175281276700844,1576.3269384193209,None,,,,,001,64,2019_Oct_25_1158,ACPT_experiment_5_30_19,3.1.0,59.955822762602885,
,,,C,D,y,b,,,,,,,,,,3,19,79,11,,,,,,,,,,,,,b,1,1.1008074338615188,1580.7303317605647,None,,,,,001,64,2019_Oct_25_1158,ACPT_experiment_5_30_19,3.1.0,59.955822762602885,
,,,C,U,y,n,,,,,,,,,,4,0,80,8,,,,,,,,,,,,,n,1,1.384400277586792,1585.1169669778901,None,,,,,001,64,2019_Oct_25_1158,ACPT_experiment_5_30_19,3.1.0,59.955822762602885,
,,,C,D,d,v,,,,,,,,,,4,1,81,9,,,,,,,,,,,,,v,1,1.5011571638970054,1589.787194737085,None,,,,,001,64,2019_Oct_25_1158,ACPT_experiment_5_30_19,3.1.0,59.955822762602885,
,,,C,D,d,v,,,,,,,,,,4,2,82,0,,,,,,,,,,,,,v,1,1.3510548800859397,1594.5741763640335,None,,,,,001,64,2019_Oct_25_1158,ACPT_experiment_5_30_19,3.1.0,59.955822762602885,
,,,C,G,d,b,,,,,,,,,,4,3,83,3,,,,,,,,,,,,,b,1,2.034568516870422,1599.2280604472116,None,,,,,001,64,2019_Oct_25_1158,ACPT_experiment_5_30_19,3.1.0,59.955822762602885,
,,,C,U,g,n,,,,,,,,,,4,4,84,7,,,,,,,,,,,,,n,1,1.117529033237588,1604.548450408577,None,,,,,001,64,2019_Oct_25_1158,ACPT_experiment_5_30_19,3.1.0,59.955822762602885,
,,,C,G,g,v,,,,,,,,,,4,5,85,4,,,,,,,,,,,,,v,1,1.434175078127737,1608.9687531034542,None,,,,,001,64,2019_Oct_25_1158,ACPT_experiment_5_30_19,3.1.0,59.955822762602885,
,,,C,G,g,v,,,,,,,,,,4,6,86,19,,,,,,,,,,,,,v,1,1.5013023564970354,1613.6720727013462,None,,,,,001,64,2019_Oct_25_1158,ACPT_experiment_5_30_19,3.1.0,59.955822762602885,
,,,C,U,d,n,,,,,,,,,,4,7,87,6,,,,,,,,,,,,,n,1,1.334366484838938,1618.4590564412847,None,,,,,001,64,2019_Oct_25_1158,ACPT_experiment_5_30_19,3.1.0,59.955822762602885,
,,,C,D,g,b,,,,,,,,,,4,8,88,1,,,,,,,,,,,,,b,1,1.2843550294146553,1623.0792431631944,None,,,,,001,64,2019_Oct_25_1158,ACPT_experiment_5_30_19,3.1.0,59.955822762602885,
,,,C,U,g,n,,,,,,,,,,4,9,89,16,,,,,,,,,,,,,n,1,1.2175827333694542,1627.6494214482373,None,,,,,001,64,2019_Oct_25_1158,ACPT_experiment_5_30_19,3.1.0,59.955822762602885,
,,,C,D,g,b,,,,,,,,,,4,10,90,10,,,,,,,,,,,,,b,1,1.4507228086104078,1632.1699028115145,None,,,,,001,64,2019_Oct_25_1158,ACPT_experiment_5_30_19,3.1.0,59.955822762602885,
,,,C,D,y,b,,,,,,,,,,4,11,91,11,,,,,,,,,,,,,b,1,0.9174065401866756,1636.8897520285464,None,,,,,001,64,2019_Oct_25_1158,ACPT_experiment_5_30_19,3.1.0,59.955822762602885,
,,,C,U,d,n,,,,,,,,,,4,12,92,15,,,,,,,,,,,,,n,1,0.8673117725838893,1641.1096693140425,None,,,,,001,64,2019_Oct_25_1158,ACPT_experiment_5_30_19,3.1.0,59.955822762602885,
,,,C,G,d,b,,,,,,,,,,4,13,93,12,,,,,,,,,,,,,b,1,2.0348972377478276,1645.2628263777224,None,,,,,001,64,2019_Oct_25_1158,ACPT_experiment_5_30_19,3.1.0,59.955822762602885,
,,,C,G,y,b,,,,,,,,,,4,14,94,14,,,,,,,,,,,,,b,1,1.0508107693667625,1650.5668681352354,None,,,,,001,64,2019_Oct_25_1158,ACPT_experiment_5_30_19,3.1.0,59.955822762602885,
,,,C,D,y,b,,,,,,,,,,4,15,95,2,,,,,,,,,,,,,b,1,1.1508849956881022,1654.903508499201,None,,,,,001,64,2019_Oct_25_1158,ACPT_experiment_5_30_19,3.1.0,59.955822762602885,
,,,C,G,y,b,,,,,,,,,,4,16,96,5,,,,,,,,,,,,,b,1,1.1008469769603835,1659.340223391343,None,,,,,001,64,2019_Oct_25_1158,ACPT_experiment_5_30_19,3.1.0,59.955822762602885,
,,,C,D,d,v,,,,,,,,,,4,17,97,18,,,,,,,,,,,,,v,1,1.984875217373883,1663.7268821534144,None,,,,,001,64,2019_Oct_25_1158,ACPT_experiment_5_30_19,3.1.0,59.955822762602885,
,,,C,G,g,v,,,,,,,,,,4,18,98,13,,,,,,,,,,,,,v,1,1.4509971954585126,1668.9975845505414,None,,,,,001,64,2019_Oct_25_1158,ACPT_experiment_5_30_19,3.1.0,59.955822762602885,
,,,C,U,y,n,,,,,,,,,,4,19,99,17,,,,,,,,,,,,,n,1,0.6505045065541708,1673.7345323847421,None,,,,,001,64,2019_Oct_25_1158,ACPT_experiment_5_30_19,3.1.0,59.955822762602885,
,,,C,G,g,v,,,,,,,,,,5,0,100,4,,,,,,,,,,,,,v,1,1.0839327936355403,1677.6877848952008,None,,,,,001,64,2019_Oct_25_1158,ACPT_experiment_5_30_19,3.1.0,59.955822762602885,
,,,C,U,y,n,,,,,,,,,,5,1,101,8,,,,,,,,,,,,,n,1,1.584555672910028,1682.057543963022,None,,,,,001,64,2019_Oct_25_1158,ACPT_experiment_5_30_19,3.1.0,59.955822762602885,
,,,C,G,y,b,,,,,,,,,,5,2,102,5,,,,,,,,,,,,,b,1,0.9674303716956274,1686.927933154655,None,,,,,001,64,2019_Oct_25_1158,ACPT_experiment_5_30_19,3.1.0,59.955822762602885,
,,,C,G,y,b,,,,,,,,,,5,3,103,14,,,,,,,,,,,,,b,1,0.8006288258320637,1691.1811644446561,None,,,,,001,64,2019_Oct_25_1158,ACPT_experiment_5_30_19,3.1.0,59.955822762602885,
,,,C,U,d,n,,,,,,,,,,5,4,104,6,,,,,,,,,,,,,n,1,1.117532051795024,1695.2676138094166,None,,,,,001,64,2019_Oct_25_1158,ACPT_experiment_5_30_19,3.1.0,59.955822762602885,
,,,C,U,d,n,,,,,,,,,,5,5,105,15,,,,,,,,,,,,,n,1,1.1339370045225223,1699.6712450129662,None,,,,,001,64,2019_Oct_25_1158,ACPT_experiment_5_30_19,3.1.0,59.955822762602885,
,,,C,G,d,b,,,,,,,,,,5,6,106,3,,,,,,,,,,,,,b,1,3.9530354761973285,1704.0910019527046,None,,,,,001,64,2019_Oct_25_1158,ACPT_experiment_5_30_19,3.1.0,59.955822762602885,
,,,C,D,d,v,,,,,,,,,,5,7,107,18,,,,,,,,,,,,,v,1,1.0841356406781415,1711.3298917756692,None,,,,,001,64,2019_Oct_25_1158,ACPT_experiment_5_30_19,3.1.0,59.955822762602885,
,,,C,U,g,n,,,,,,,,,,5,8,108,16,,,,,,,,,,,,,n,1,0.6002162494369259,1715.733459891374,None,,,,,001,64,2019_Oct_25_1158,ACPT_experiment_5_30_19,3.1.0,59.955822762602885,
,,,C,G,d,b,,,,,,,,,,5,9,109,12,,,,,,,,,,,,,b,1,1.234283504701125,1719.6195102632455,None,,,,,001,64,2019_Oct_25_1158,ACPT_experiment_5_30_19,3.1.0,59.955822762602885,
,,,C,U,y,n,,,,,,,,,,5,10,110,17,,,,,,,,,,,,,n,1,0.8837988300674624,1724.1565475071093,None,,,,,001,64,2019_Oct_25_1158,ACPT_experiment_5_30_19,3.1.0,59.955822762602885,
,,,C,D,g,b,,,,,,,,,,5,11,111,10,,,,,,,,,,,,,b,1,0.9841314448831326,1728.3261215977464,None,,,,,001,64,2019_Oct_25_1158,ACPT_experiment_5_30_19,3.1.0,59.955822762602885,
,,,C,G,g,v,,,,,,,,,,5,12,112,13,,,,,,,,,,,,,v,1,0.9671417976296652,1732.6130257987024,None,,,,,001,64,2019_Oct_25_1158,ACPT_experiment_5_30_19,3.1.0,59.955822762602885,
,,,C,D,d,v,,,,,,,,,,5,13,113,9,,,,,,,,,,,,,v,1,3.219124310524421,1736.8659947760852,None,,,,,001,64,2019_Oct_25_1158,ACPT_experiment_5_30_19,3.1.0,59.955822762602885,
,,,C,U,g,n,,,,,,,,,,5,14,114,7,,,,,,,,,,,,,n,1,0.6838511114783614,1743.3709652832722,None,,,,,001,64,2019_Oct_25_1158,ACPT_experiment_5_30_19,3.1.0,59.955822762602885,
,,,C,D,y,b,,,,,,,,,,5,15,115,2,,,,,,,,,,,,,b,1,0.984059603222704,1747.3406631951248,None,,,,,001,64,2019_Oct_25_1158,ACPT_experiment_5_30_19,3.1.0,59.955822762602885,
,,,C,D,g,b,,,,,,,,,,5,16,116,1,,,,,,,,,,,,,v,0,1.1175299388050917,1751.5938872405895,None,,,,,001,64,2019_Oct_25_1158,ACPT_experiment_5_30_19,3.1.0,59.955822762602885,
,,,C,G,g,v,,,,,,,,,,5,17,117,19,,,,,,,,,,,,,v,1,0.9671629275289888,1756.0141944633024,None,,,,,001,64,2019_Oct_25_1158,ACPT_experiment_5_30_19,3.1.0,59.955822762602885,
,,,C,D,d,v,,,,,,,,,,5,18,118,0,,,,,,,,,,,,,v,1,1.1008521085077518,1760.2671655536742,None,,,,,001,64,2019_Oct_25_1158,ACPT_experiment_5_30_19,3.1.0,59.955822762602885,
,,,C,D,y,b,,,,,,,,,,5,19,119,11,0,0,0,0,0,0,0,0,,,,,b,1,0.8337107032912172,1764.6541150028033,None,,,,,001,64,2019_Oct_25_1158,ACPT_experiment_5_30_19,3.1.0,59.955822762602885,
,,,C,D,y,b,R,D,d,L,c,,,,,5,19,119,11,0,0,0,0,,,,,0,0,0,0,,,,,,up,1.4177589567389077,1814.8254190285625,None,001,64,2019_Oct_25_1158,ACPT_experiment_5_30_19,3.1.0,59.955822762602885,
,,,C,D,y,b,L,G,d,R,i,,,,,5,19,119,11,0,0,0,0,,,,,0,1,1,17,,,,,,up,0.8840046956684091,1817.527490151203,None,001,64,2019_Oct_25_1158,ACPT_experiment_5_30_19,3.1.0,59.955822762602885,
,,,C,D,y,b,R,G,y,L,y,,,,,5,19,119,11,0,0,0,0,,,,,0,2,2,28,,,,,,down,0.7339054304147794,1819.6957919199867,None,001,64,2019_Oct_25_1158,ACPT_experiment_5_30_19,3.1.0,59.955822762602885,
,,,C,D,y,b,L,G,y,L,y,,,,,5,19,119,11,0,0,0,0,,,,,0,3,3,34,,,,,,down,0.5337376590059648,1821.714011931149,None,001,64,2019_Oct_25_1158,ACPT_experiment_5_30_19,3.1.0,59.955822762602885,
,,,C,D,y,b,L,D,y,L,y,,,,,5,19,119,11,0,0,0,0,,,,,0,4,4,32,,,,,,down,0.6671603013846834,1823.532083791525,None,001,64,2019_Oct_25_1158,ACPT_experiment_5_30_19,3.1.0,59.955822762602885,
,,,C,D,y,b,L,G,g,L,c ,,,,,5,19,119,11,0,0,0,0,,,,,0,5,5,18,,,,,,up,1.6509907961171848,1825.5005045518337,None,001,64,2019_Oct_25_1158,ACPT_experiment_5_30_19,3.1.0,59.955822762602885,
,,,C,D,y,b,L,U,d,R,u,,,,,5,19,119,11,0,0,0,0,,,,,0,6,6,21,,,,,,up,2.0682701041196196,1828.435804495296,None,001,64,2019_Oct_25_1158,ACPT_experiment_5_30_19,3.1.0,59.955822762602885,
,,,C,D,y,b,L,U,y,R,u,,,,,5,19,119,11,0,0,0,0,,,,,0,7,7,25,,,,,,down,0.9173648840978785,1831.7883602020138,None,001,64,2019_Oct_25_1158,ACPT_experiment_5_30_19,3.1.0,59.955822762602885,
,,,C,D,y,b,R,D,g,L,i,,,,,5,19,119,11,0,0,0,0,,,,,0,8,8,2,,,,,,up,0.8506257921826545,1833.9900617023277,None,001,64,2019_Oct_25_1158,ACPT_experiment_5_30_19,3.1.0,59.955822762602885,
,,,C,D,y,b,R,U,y,L,u,,,,,5,19,119,11,0,0,0,0,,,,,0,9,9,30,,,,,,down,1.3510494466827367,1836.1250087160843,None,001,64,2019_Oct_25_1158,ACPT_experiment_5_30_19,3.1.0,59.955822762602885,
,,,C,D,y,b,L,G,d,L,i,,,,,5,19,119,11,0,0,0,0,,,,,0,10,10,16,,,,,,up,0.9673935452983642,1838.7603534247492,None,001,64,2019_Oct_25_1158,ACPT_experiment_5_30_19,3.1.0,59.955822762602885,
,,,C,D,y,b,L,U,d,L,u,,,,,5,19,119,11,0,0,0,0,,,,,0,11,11,20,,,,,,up,3.3859062357651055,1841.0120706064672,None,001,64,2019_Oct_25_1158,ACPT_experiment_5_30_19,3.1.0,59.955822762602885,
,,,C,D,y,b,R,U,g,R,u,,,,,5,19,119,11,0,0,0,0,,,,,0,12,12,11,,,,,,up,0.6504891119129752,1845.6822890081357,None,001,64,2019_Oct_25_1158,ACPT_experiment_5_30_19,3.1.0,59.955822762602885,
,,,C,D,y,b,R,U,y,R,u,,,,,5,19,119,11,0,0,0,0,,,,,0,13,13,31,,,,,,down,0.7839262433662952,1847.617096624921,None,001,64,2019_Oct_25_1158,ACPT_experiment_5_30_19,3.1.0,59.955822762602885,
,,,C,D,y,b,L,D,d,L,c ,,,,,5,19,119,11,0,0,0,0,,,,,0,14,14,12,,,,,,up,0.7004993599157388,1849.7020451630488,None,001,64,2019_Oct_25_1158,ACPT_experiment_5_30_19,3.1.0,59.955822762602885,
,,,C,D,y,b,L,G,y,R,y,,,,,5,19,119,11,0,0,0,0,,,,,0,15,15,35,,,,,,down,0.6671802238624878,1851.6868624241251,None,001,64,2019_Oct_25_1158,ACPT_experiment_5_30_19,3.1.0,59.955822762602885,
,,,C,D,y,b,L,U,y,L,u,,,,,5,19,119,11,0,0,0,0,,,,,0,16,16,24,,,,,,down,0.6671379640611121,1853.6550601130575,None,001,64,2019_Oct_25_1158,ACPT_experiment_5_30_19,3.1.0,59.955822762602885,
,,,C,D,y,b,L,U,g,L,u,,,,,5,19,119,11,0,0,0,0,,,,,0,17,17,22,,,,,,up,1.1675546758806377,1855.6231992419798,None,001,64,2019_Oct_25_1158,ACPT_experiment_5_30_19,3.1.0,59.955822762602885,
,,,C,D,y,b,L,D,g,R,i,,,,,5,19,119,11,0,0,0,0,,,,,0,18,18,15,,,,,,up,0.6505123548031406,1858.075044350152,None,001,64,2019_Oct_25_1158,ACPT_experiment_5_30_19,3.1.0,59.955822762602885,
,,,C,D,y,b,L,D,g,L,i,,,,,5,19,119,11,0,0,0,0,,,,,0,19,19,14,,,,,,up,0.8673332043399569,1860.0098733986933,None,001,64,2019_Oct_25_1158,ACPT_experiment_5_30_19,3.1.0,59.955822762602885,
,,,C,D,y,b,R,G,y,R,y,,,,,5,19,119,11,0,0,0,0,,,,,0,20,20,29,,,,,,down,0.8840110346382062,1862.1615169578017,None,001,64,2019_Oct_25_1158,ACPT_experiment_5_30_19,3.1.0,59.955822762602885,
,,,C,D,y,b,R,D,y,L,y,,,,,5,19,119,11,0,0,0,0,,,,,0,21,21,26,,,,,,down,0.7005271306416034,1864.3465131589473,None,001,64,2019_Oct_25_1158,ACPT_experiment_5_30_19,3.1.0,59.955822762602885,
,,,C,D,y,b,R,D,g,R,i,,,,,5,19,119,11,0,0,0,0,,,,,0,22,22,3,,,,,,up,1.1175151478746557,1866.3480411525943,None,001,64,2019_Oct_25_1158,ACPT_experiment_5_30_19,3.1.0,59.955822762602885,
,,,C,D,y,b,L,D,y,R,y,,,,,5,19,119,11,0,0,0,0,,,,,0,23,23,33,,,,,,down,0.6504879044905465,1868.7665550504844,None,001,64,2019_Oct_25_1158,ACPT_experiment_5_30_19,3.1.0,59.955822762602885,
,,,C,D,y,b,R,U,d,R,u,,,,,5,19,119,11,0,0,0,0,,,,,0,24,24,9,,,,,,down,0.9174113698782094,1870.718016952821,None,001,64,2019_Oct_25_1158,ACPT_experiment_5_30_19,3.1.0,59.955822762602885,
,,,C,D,y,b,L,D,d,R,c ,,,,,5,19,119,11,0,0,0,0,,,,,0,25,25,13,,,,,,up,1.1175220905561218,1872.9197121141642,None,001,64,2019_Oct_25_1158,ACPT_experiment_5_30_19,3.1.0,59.955822762602885,
,,,C,D,y,b,R,U,d,L,u,,,,,5,19,119,11,0,0,0,0,,,,,0,26,26,8,,,,,,up,0.9507579748014905,1875.304834128774,None,001,64,2019_Oct_25_1158,ACPT_experiment_5_30_19,3.1.0,59.955822762602885,
,,,C,D,y,b,L,G,g,R,c ,,,,,5,19,119,11,0,0,0,0,,,,,0,27,27,19,,,,,,up,0.5837463977295556,1877.5399287197906,None,001,64,2019_Oct_25_1158,ACPT_experiment_5_30_19,3.1.0,59.955822762602885,
,,,C,D,y,b,R,G,d,L,i,,,,,5,19,119,11,0,0,0,0,,,,,0,28,28,4,,,,,,up,0.7172348446547403,1879.4079758129055,None,001,64,2019_Oct_25_1158,ACPT_experiment_5_30_19,3.1.0,59.955822762602885,
,,,C,D,y,b,R,G,g,L,c ,,,,,5,19,119,11,0,0,0,0,,,,,0,29,29,6,,,,,,up,0.6505817816187118,1881.392818731717,None,001,64,2019_Oct_25_1158,ACPT_experiment_5_30_19,3.1.0,59.955822762602885,
,,,C,D,y,b,R,G,g,R,c ,,,,,5,19,119,11,0,0,0,0,,,,,0,30,30,7,,,,,,up,0.7839802755397614,1883.3109491219166,None,001,64,2019_Oct_25_1158,ACPT_experiment_5_30_19,3.1.0,59.955822762602885,
,,,C,D,y,b,R,D,y,R,y,,,,,5,19,119,11,0,0,0,0,,,,,0,31,31,27,,,,,,down,0.550414885592545,1885.3792168111904,None,001,64,2019_Oct_25_1158,ACPT_experiment_5_30_19,3.1.0,59.955822762602885,
,,,C,D,y,b,R,D,d,R,c ,,,,,5,19,119,11,0,0,0,0,,,,,0,32,32,1,,,,,,up,1.0174578254736844,1887.2139483905203,None,001,64,2019_Oct_25_1158,ACPT_experiment_5_30_19,3.1.0,59.955822762602885,
,,,C,D,y,b,L,U,g,R,u,,,,,5,19,119,11,0,0,0,0,,,,,0,33,33,23,,,,,,up,0.5837859408284203,1889.5157011761203,None,001,64,2019_Oct_25_1158,ACPT_experiment_5_30_19,3.1.0,59.955822762602885,
,,,C,D,y,b,R,G,d,R,i,,,,,5,19,119,11,0,0,0,0,,,,,0,34,34,5,,,,,,up,0.717217940734372,1891.3837893216123,None,001,64,2019_Oct_25_1158,ACPT_experiment_5_30_19,3.1.0,59.955822762602885,
,,,C,D,y,b,R,U,g,L,u,,,,,5,19,119,11,0,0,0,0,,,,,0,35,35,10,,,,,,up,0.7005624477596939,1893.385316107836,None,001,64,2019_Oct_25_1158,ACPT_experiment_5_30_19,3.1.0,59.955822762602885,
,,,C,D,y,b,R,D,g,L,i,,,,,5,19,119,11,0,0,0,0,,,,,1,0,36,2,,,,,,up,0.6838544318907225,1895.3701647619073,None,001,64,2019_Oct_25_1158,ACPT_experiment_5_30_19,3.1.0,59.955822762602885,
,,,C,D,y,b,R,G,y,L,y,,,,,5,19,119,11,0,0,0,0,,,,,1,1,37,28,,,,,,down,0.9006755832833733,1897.355012812266,None,001,64,2019_Oct_25_1158,ACPT_experiment_5_30_19,3.1.0,59.955822762602885,
,,,C,D,y,b,R,D,y,R,y,,,,,5,19,119,11,0,0,0,0,,,,,1,2,38,27,,,,,,down,0.667193505513751,1899.5566874474207,None,001,64,2019_Oct_25_1158,ACPT_experiment_5_30_19,3.1.0,59.955822762602885,
,,,C,D,y,b,L,U,d,R,u,,,,,5,19,119,11,0,0,0,0,,,,,1,3,39,21,,,,,,down,1.7346839163128607,1901.508171385225,None,001,64,2019_Oct_25_1158,ACPT_experiment_5_30_19,3.1.0,59.955822762602885,
,,,C,D,y,b,R,D,d,L,c,,,,,5,19,119,11,0,0,0,0,,,,,1,4,40,0,,,,,,up,0.8673350154740547,1904.5271342633105,None,001,64,2019_Oct_25_1158,ACPT_experiment_5_30_19,3.1.0,59.955822762602885,
,,,C,D,y,b,R,G,d,L,i,,,,,5,19,119,11,0,0,0,0,,,,,1,5,41,4,,,,,,up,3.119077854928946,1906.6787790298422,None,001,64,2019_Oct_25_1158,ACPT_experiment_5_30_19,3.1.0,59.955822762602885,
,,,C,D,y,b,R,U,g,R,u,,,,,5,19,119,11,0,0,0,0,,,,,1,6,42,11,,,,,,up,0.6338085649149434,1911.0821403743794,None,001,64,2019_Oct_25_1158,ACPT_experiment_5_30_19,3.1.0,59.955822762602885,
,,,C,D,y,b,L,D,d,R,c ,,,,,5,19,119,11,0,0,0,0,,,,,1,7,43,13,,,,,,up,1.0007902582701718,1913.0002438994206,None,001,64,2019_Oct_25_1158,ACPT_experiment_5_30_19,3.1.0,59.955822762602885,
,,,C,D,y,b,L,U,g,R,u,,,,,5,19,119,11,0,0,0,0,,,,,1,8,44,23,,,,,,up,0.6337961888302743,1915.2853638312254,None,001,64,2019_Oct_25_1158,ACPT_experiment_5_30_19,3.1.0,59.955822762602885,
,,,C,D,y,b,L,D,d,L,c ,,,,,5,19,119,11,0,0,0,0,,,,,1,9,45,12,,,,,,up,0.7005343751789042,1917.2034712803907,None,001,64,2019_Oct_25_1158,ACPT_experiment_5_30_19,3.1.0,59.955822762602885,
,,,C,D,y,b,R,D,d,R,c ,,,,,5,19,119,11,0,0,0,0,,,,,1,10,46,1,,,,,,up,0.3502576791343017,1919.171649650557,None,001,64,2019_Oct_25_1158,ACPT_experiment_5_30_19,3.1.0,59.955822762602885,
,,,C,D,y,b,L,G,y,R,y,,,,,5,19,119,11,0,0,0,0,,,,,1,11,47,35,,,,,,down,0.7005561087898968,1920.8061965545585,None,001,64,2019_Oct_25_1158,ACPT_experiment_5_30_19,3.1.0,59.955822762602885,
,,,C,D,y,b,R,D,y,L,y,,,,,5,19,119,11,0,0,0,0,,,,,1,12,48,26,,,,,,down,0.6504930360379149,1922.7910657348184,None,001,64,2019_Oct_25_1158,ACPT_experiment_5_30_19,3.1.0,59.955822762602885,
,,,C,D,y,b,L,D,y,R,y,,,,,5,19,119,11,0,0,0,0,,,,,1,13,49,33,,,,,,down,0.5335025134017997,1924.7427920627642,None,001,64,2019_Oct_25_1158,ACPT_experiment_5_30_19,3.1.0,59.955822762602885,
,,,C,D,y,b,L,D,y,L,y,,,,,5,19,119,11,0,0,0,0,,,,,1,14,50,32,,,,,,down,0.5505739635555074,1926.543778587623,None,001,64,2019_Oct_25_1158,ACPT_experiment_5_30_19,3.1.0,59.955822762602885,
,,,C,D,y,b,R,G,g,L,c ,,,,,5,19,119,11,0,0,0,0,,,,,1,15,51,6,,,,,,up,0.683828170443121,1928.3786707541958,None,001,64,2019_Oct_25_1158,ACPT_experiment_5_30_19,3.1.0,59.955822762602885,
,,,C,D,y,b,L,D,g,L,i,,,,,5,19,119,11,0,0,0,0,,,,,1,16,52,14,,,,,,up,0.5503047082556805,1930.3468228629145,None,001,64,2019_Oct_25_1158,ACPT_experiment_5_30_19,3.1.0,59.955822762602885,
,,,C,D,y,b,L,G,d,L,i,,,,,5,19,119,11,0,0,0,0,,,,,1,17,53,16,,,,,,up,0.833952489721014,1932.1982527987311,None,001,64,2019_Oct_25_1158,ACPT_experiment_5_30_19,3.1.0,59.955822762602885,
,,,C,D,y,b,L,U,g,L,u,,,,,5,19,119,11,0,0,0,0,,,,,1,18,54,22,,,,,,up,0.850646016515384,1934.3165123228073,None,001,64,2019_Oct_25_1158,ACPT_experiment_5_30_19,3.1.0,59.955822762602885,
,,,C,D,y,b,L,G,g,L,c ,,,,,5,19,119,11,0,0,0,0,,,,,1,19,55,18,,,,,,up,0.7505636400901494,1936.4514855980115,None,001,64,2019_Oct_25_1158,ACPT_experiment_5_30_19,3.1.0,59.955822762602885,
,,,C,D,y,b,R,G,g,R,c ,,,,,5,19,119,11,0,0,0,0,,,,,1,20,56,7,,,,,,up,0.5004260693467586,1938.486363818849,None,001,64,2019_Oct_25_1158,ACPT_experiment_5_30_19,3.1.0,59.955822762602885,
,,,C,D,y,b,L,U,y,L,u,,,,,5,19,119,11,0,0,0,0,,,,,1,21,57,24,,,,,,down,0.9672036780521012,1940.2879033433846,None,001,64,2019_Oct_25_1158,ACPT_experiment_5_30_19,3.1.0,59.955822762602885,
,,,C,D,y,b,L,G,y,L,y,,,,,5,19,119,11,0,0,0,0,,,,,1,22,58,34,,,,,,down,0.6004447542154594,1942.5561380700128,None,001,64,2019_Oct_25_1158,ACPT_experiment_5_30_19,3.1.0,59.955822762602885,
,,,C,D,y,b,R,U,y,L,u,,,,,5,19,119,11,0,0,0,0,,,,,1,23,59,30,,,,,,down,0.5670884899100201,1944.4575858002245,None,001,64,2019_Oct_25_1158,ACPT_experiment_5_30_19,3.1.0,59.955822762602885,
,,,C,D,y,b,L,U,d,L,u,,,,,5,19,119,11,0,0,0,0,,,,,1,24,60,20,,,,,,up,0.7672496204913841,1946.3256721345815,None,001,64,2019_Oct_25_1158,ACPT_experiment_5_30_19,3.1.0,59.955822762602885,
,,,C,D,y,b,R,U,d,L,u,,,,,5,19,119,11,0,0,0,0,,,,,1,25,61,8,,,,,,up,0.8673021132017311,1948.3772607861347,None,001,64,2019_Oct_25_1158,ACPT_experiment_5_30_19,3.1.0,59.955822762602885,
,,,C,D,y,b,R,U,d,R,u,,,,,5,19,119,11,0,0,0,0,,,,,1,26,62,9,,,,,,down,1.0007836174445401,1950.512177010608,None,001,64,2019_Oct_25_1158,ACPT_experiment_5_30_19,3.1.0,59.955822762602885,
,,,C,D,y,b,R,G,d,R,i,,,,,5,19,119,11,0,0,0,0,,,,,1,27,63,5,,,,,,up,1.384426237178559,1952.7972721902443,None,001,64,2019_Oct_25_1158,ACPT_experiment_5_30_19,3.1.0,59.955822762602885,
,,,C,D,y,b,L,G,d,R,i,,,,,5,19,119,11,0,0,0,0,,,,,1,28,64,17,,,,,,up,0.43368305330659496,1955.449269977038,None,001,64,2019_Oct_25_1158,ACPT_experiment_5_30_19,3.1.0,59.955822762602885,
,,,C,D,y,b,R,U,g,L,u,,,,,5,19,119,11,0,0,0,0,,,,,1,29,65,10,,,,,,up,0.6003529900772264,1957.1672796853218,None,001,64,2019_Oct_25_1158,ACPT_experiment_5_30_19,3.1.0,59.955822762602885,
,,,C,D,y,b,R,U,y,R,u,,,,,5,19,119,11,0,0,0,0,,,,,1,30,66,31,,,,,,down,0.5837639053615931,1959.0520447555436,None,001,64,2019_Oct_25_1158,ACPT_experiment_5_30_19,3.1.0,59.955822762602885,
,,,C,D,y,b,R,D,g,R,i,,,,,5,19,119,11,0,0,0,0,,,,,1,31,67,3,,,,,,up,0.7005654663171299,1960.9201335047474,None,001,64,2019_Oct_25_1158,ACPT_experiment_5_30_19,3.1.0,59.955822762602885,
,,,C,D,y,b,L,U,y,R,u,,,,,5,19,119,11,0,0,0,0,,,,,1,32,68,25,,,,,,down,0.6838520170449556,1962.9049791402604,None,001,64,2019_Oct_25_1158,ACPT_experiment_5_30_19,3.1.0,59.955822762602885,
,,,C,D,y,b,L,D,g,R,i,,,,,5,19,119,11,0,0,0,0,,,,,1,33,69,15,,,,,,up,0.6171358661640625,1964.8731478510445,None,001,64,2019_Oct_25_1158,ACPT_experiment_5_30_19,3.1.0,59.955822762602885,
,,,C,D,y,b,R,G,y,R,y,,,,,5,19,119,11,0,0,0,0,,,,,1,34,70,29,,,,,,down,0.5670899991882834,1966.7912755245425,None,001,64,2019_Oct_25_1158,ACPT_experiment_5_30_19,3.1.0,59.955822762602885,
,,,C,D,y,b,L,G,g,R,c ,,,,,5,19,119,11,0,0,0,0,,,,,1,35,71,19,,,,,,up,0.6338161113080787,1968.659360953333,None,001,64,2019_Oct_25_1158,ACPT_experiment_5_30_19,3.1.0,59.955822762602885,
,,,C,D,y,b,,,,,,,,,,5,19,119,11,1,0,1,0,0,0,0,0,,,,,,,,,,,,,,001,64,2019_Oct_25_1158,ACPT_experiment_5_30_19,3.1.0,59.955822762602885,
,,,C,D,y,b,R,G,d,L,i,,,,,5,19,119,11,1,0,1,0,,,,,0,0,0,4,,,,,,up,0.9340294327430456,1978.3000593750203,None,001,64,2019_Oct_25_1158,ACPT_experiment_5_30_19,3.1.0,59.955822762602885,
,,,C,D,y,b,R,D,g,R,i,,,,,5,19,119,11,1,0,1,0,,,,,0,1,1,3,,,,,,up,0.45032918875403993,1980.5184070107807,None,001,64,2019_Oct_25_1158,ACPT_experiment_5_30_19,3.1.0,59.955822762602885,
,,,C,D,y,b,R,D,d,R,c ,,,,,5,19,119,11,1,0,1,0,,,,,0,2,2,1,,,,,,up,0.4003334298267873,1982.236356649776,None,001,64,2019_Oct_25_1158,ACPT_experiment_5_30_19,3.1.0,59.955822762602885,
,,,C,D,y,b,L,G,d,L,i,,,,,5,19,119,11,1,0,1,0,,,,,0,3,3,16,,,,,,up,0.583778394435285,1983.9209950009672,None,001,64,2019_Oct_25_1158,ACPT_experiment_5_30_19,3.1.0,59.955822762602885,
,,,C,D,y,b,R,U,y,L,u,,,,,5,19,119,11,1,0,1,0,,,,,0,4,4,30,,,,,,down,0.5671062993960732,1985.7890897872858,None,001,64,2019_Oct_25_1158,ACPT_experiment_5_30_19,3.1.0,59.955822762602885,
,,,C,D,y,b,L,G,y,L,y,,,,,5,19,119,11,1,0,1,0,,,,,0,5,5,34,,,,,,down,0.5170706955150308,1987.640503121037,None,001,64,2019_Oct_25_1158,ACPT_experiment_5_30_19,3.1.0,59.955822762602885,
,,,C,D,y,b,R,U,y,R,u,,,,,5,19,119,11,1,0,1,0,,,,,0,6,6,31,,,,,,down,0.4836908864635916,1989.458555662647,None,001,64,2019_Oct_25_1158,ACPT_experiment_5_30_19,3.1.0,59.955822762602885,
,,,C,D,y,b,R,G,d,R,i,,,,,5,19,119,11,1,0,1,0,,,,,0,7,7,5,,,,,,up,0.9173506968791116,1991.2599364110747,None,001,64,2019_Oct_25_1158,ACPT_experiment_5_30_19,3.1.0,59.955822762602885,
,,,C,D,y,b,L,D,y,R,y,,,,,5,19,119,11,1,0,1,0,,,,,0,8,8,33,,,,,,down,0.5504342043586803,1993.4615805588019,None,001,64,2019_Oct_25_1158,ACPT_experiment_5_30_19,3.1.0,59.955822762602885,
,,,C,D,y,b,R,U,d,L,u,,,,,5,19,119,11,1,0,1,0,,,,,0,9,9,8,,,,,,up,0.4670154710111092,1995.296335381022,None,001,64,2019_Oct_25_1158,ACPT_experiment_5_30_19,3.1.0,59.955822762602885,
,,,C,D,y,b,L,D,d,R,c ,,,,,5,19,119,11,1,0,1,0,,,,,0,10,10,13,,,,,,up,0.3669602616009797,1997.030971905987,None,001,64,2019_Oct_25_1158,ACPT_experiment_5_30_19,3.1.0,59.955822762602885,
,,,C,D,y,b,R,U,g,L,u,,,,,5,19,119,11,1,0,1,0,,,,,0,11,11,10,,,,,,up,0.5668159141960132,1998.699206210017,None,001,64,2019_Oct_25_1158,ACPT_experiment_5_30_19,3.1.0,59.955822762602885,
,,,C,D,y,b,R,D,g,L,i,,,,,5,19,119,11,1,0,1,0,,,,,0,12,12,2,,,,,,up,0.7505766198864876,2000.5503418365088,None,001,64,2019_Oct_25_1158,ACPT_experiment_5_30_19,3.1.0,59.955822762602885,
,,,C,D,y,b,R,G,y,R,y,,,,,5,19,119,11,1,0,1,0,,,,,0,13,13,29,,,,,,down,0.5003992041874881,2002.5852004367252,None,001,64,2019_Oct_25_1158,ACPT_experiment_5_30_19,3.1.0,59.955822762602885,
,,,C,D,y,b,R,D,y,L,y,,,,,5,19,119,11,1,0,1,0,,,,,0,14,14,26,,,,,,down,0.4003150166272462,2004.3532297505371,None,001,64,2019_Oct_25_1158,ACPT_experiment_5_30_19,3.1.0,59.955822762602885,
,,,C,D,y,b,L,D,g,R,i,,,,,5,19,119,11,1,0,1,0,,,,,0,15,15,15,,,,,,up,0.5334499905075063,2006.0548203188746,None,001,64,2019_Oct_25_1158,ACPT_experiment_5_30_19,3.1.0,59.955822762602885,
,,,C,D,y,b,R,U,g,R,u,,,,,5,19,119,11,1,0,1,0,,,,,0,16,16,11,,,,,,up,0.583807976296157,2007.8558792891054,None,001,64,2019_Oct_25_1158,ACPT_experiment_5_30_19,3.1.0,59.955822762602885,
,,,C,D,y,b,R,G,y,L,y,,,,,5,19,119,11,1,0,1,0,,,,,0,17,17,28,,,,,,down,0.650502997276817,2009.7239952053242,None,001,64,2019_Oct_25_1158,ACPT_experiment_5_30_19,3.1.0,59.955822762602885,
,,,C,D,y,b,R,U,d,R,u,,,,,5,19,119,11,1,0,1,0,,,,,0,18,18,9,,,,,,up,0.6004429430813616,2011.6588145944825,None,001,64,2019_Oct_25_1158,ACPT_experiment_5_30_19,3.1.0,59.955822762602885,
,,,C,D,y,b,L,U,g,R,u,,,,,5,19,119,11,1,0,1,0,,,,,0,19,19,23,,,,,,up,0.7505941275185251,2013.543550686556,None,001,64,2019_Oct_25_1158,ACPT_experiment_5_30_19,3.1.0,59.955822762602885,
,,,C,D,y,b,L,U,y,L,u,,,,,5,19,119,11,1,0,1,0,,,,,0,20,20,24,,,,,,down,0.5670993567155165,2015.578459092966,None,001,64,2019_Oct_25_1158,ACPT_experiment_5_30_19,3.1.0,59.955822762602885,
,,,C,D,y,b,L,G,g,R,c ,,,,,5,19,119,11,1,0,1,0,,,,,0,21,21,19,,,,,,up,0.6171615239009043,2017.4298500893947,None,001,64,2019_Oct_25_1158,ACPT_experiment_5_30_19,3.1.0,59.955822762602885,
,,,C,D,y,b,R,G,g,R,c ,,,,,5,19,119,11,1,0,1,0,,,,,0,22,22,7,,,,,,up,0.6836349827835875,2019.3482470181943,None,001,64,2019_Oct_25_1158,ACPT_experiment_5_30_19,3.1.0,59.955822762602885,
,,,C,D,y,b,L,U,d,R,u,,,,,5,19,119,11,1,0,1,0,,,,,0,23,23,21,,,,,,up,0.5170661676793316,2021.316165792442,None,001,64,2019_Oct_25_1158,ACPT_experiment_5_30_19,3.1.0,59.955822762602885,
,,,C,D,y,b,R,D,d,L,c,,,,,5,19,119,11,1,0,1,0,,,,,0,24,24,0,,,,,,up,0.6338315059492743,2023.1175414093223,None,001,64,2019_Oct_25_1158,ACPT_experiment_5_30_19,3.1.0,59.955822762602885,
,,,C,D,y,b,L,D,y,L,y,,,,,5,19,119,11,1,0,1,0,,,,,0,25,25,32,,,,,,down,0.6004852028818277,2025.0356434250843,None,001,64,2019_Oct_25_1158,ACPT_experiment_5_30_19,3.1.0,59.955822762602885,
,,,C,D,y,b,L,U,d,L,u,,,,,5,19,119,11,1,0,1,0,,,,,0,26,26,20,,,,,,up,0.8172936763339749,2026.9204395864454,None,001,64,2019_Oct_25_1158,ACPT_experiment_5_30_19,3.1.0,59.955822762602885,
,,,C,D,y,b,L,G,y,R,y,,,,,5,19,119,11,1,0,1,0,,,,,0,27,27,35,,,,,,down,0.7672737689490532,2029.0220209783693,None,001,64,2019_Oct_25_1158,ACPT_experiment_5_30_19,3.1.0,59.955822762602885,
,,,C,D,y,b,R,D,y,R,y,,,,,5,19,119,11,1,0,1,0,,,,,0,28,28,27,,,,,,down,0.4837038662581108,2031.0736096299224,None,001,64,2019_Oct_25_1158,ACPT_experiment_5_30_19,3.1.0,59.955822762602885,
,,,C,D,y,b,L,G,d,R,i,,,,,5,19,119,11,1,0,1,0,,,,,0,29,29,17,,,,,,up,0.5671488610532833,2032.8415978913572,None,001,64,2019_Oct_25_1158,ACPT_experiment_5_30_19,3.1.0,59.955822762602885,
,,,C,D,y,b,L,D,d,L,c ,,,,,5,19,119,11,1,0,1,0,,,,,0,30,30,12,,,,,,up,0.8339721103429838,2034.693029638308,None,001,64,2019_Oct_25_1158,ACPT_experiment_5_30_19,3.1.0,59.955822762602885,
,,,C,D,y,b,L,U,g,L,u,,,,,5,19,119,11,1,0,1,0,,,,,0,31,31,22,,,,,,up,0.5003768668639168,2036.811342590846,None,001,64,2019_Oct_25_1158,ACPT_experiment_5_30_19,3.1.0,59.955822762602885,
,,,C,D,y,b,L,D,g,L,i,,,,,5,19,119,11,1,0,1,0,,,,,0,32,32,14,,,,,,up,0.6167027032088299,2038.6131172609857,None,001,64,2019_Oct_25_1158,ACPT_experiment_5_30_19,3.1.0,59.955822762602885,
,,,C,D,y,b,R,G,g,L,c ,,,,,5,19,119,11,1,0,1,0,,,,,0,33,33,6,,,,,,up,0.5670595117608173,2040.5141602026779,None,001,64,2019_Oct_25_1158,ACPT_experiment_5_30_19,3.1.0,59.955822762602885,
,,,C,D,y,b,L,U,y,R,u,,,,,5,19,119,11,1,0,1,0,,,,,0,34,34,25,,,,,,down,0.7338888283502456,2042.3655466712707,None,001,64,2019_Oct_25_1158,ACPT_experiment_5_30_19,3.1.0,59.955822762602885,
,,,C,D,y,b,L,G,g,L,c ,,,,,5,19,119,11,1,0,1,0,,,,,0,35,35,18,,,,,,up,0.6504978657294487,2044.383750684081,None,001,64,2019_Oct_25_1158,ACPT_experiment_5_30_19,3.1.0,59.955822762602885,
,,,C,D,y,b,L,D,y,L,y,,,,,5,19,119,11,1,0,1,0,,,,,1,0,36,32,,,,,,down,0.7338797726779376,2046.3185718843733,None,001,64,2019_Oct_25_1158,ACPT_experiment_5_30_19,3.1.0,59.955822762602885,
,,,C,D,y,b,R,G,y,L,y,,,,,5,19,119,11,1,0,1,0,,,,,1,1,37,28,,,,,,down,0.6671675459219841,2048.3367665396563,None,001,64,2019_Oct_25_1158,ACPT_experiment_5_30_19,3.1.0,59.955822762602885,
,,,C,D,y,b,L,G,d,R,i,,,,,5,19,119,11,1,0,1,0,,,,,1,2,38,17,,,,,,up,0.6171340550299647,2050.288255307152,None,001,64,2019_Oct_25_1158,ACPT_experiment_5_30_19,3.1.0,59.955822762602885,
,,,C,D,y,b,R,U,g,L,u,,,,,5,19,119,11,1,0,1,0,,,,,1,3,39,10,,,,,,up,0.5337524499364008,2052.189689453856,None,001,64,2019_Oct_25_1158,ACPT_experiment_5_30_19,3.1.0,59.955822762602885,
,,,C,D,y,b,R,U,d,L,u,,,,,5,19,119,11,1,0,1,0,,,,,1,4,40,8,,,,,,up,0.5837871482517585,2054.007749843714,None,001,64,2019_Oct_25_1158,ACPT_experiment_5_30_19,3.1.0,59.955822762602885,
,,,C,D,y,b,L,G,y,L,y,,,,,5,19,119,11,1,0,1,0,,,,,1,5,41,34,,,,,,down,0.5671331645553437,2055.8758428188976,None,001,64,2019_Oct_25_1158,ACPT_experiment_5_30_19,3.1.0,59.955822762602885,
,,,C,D,y,b,R,G,g,L,c ,,,,,5,19,119,11,1,0,1,0,,,,,1,6,42,6,,,,,,up,0.5502060014350718,2057.7441781842235,None,001,64,2019_Oct_25_1158,ACPT_experiment_5_30_19,3.1.0,59.955822762602885,
,,,C,D,y,b,R,U,d,R,u,,,,,5,19,119,11,1,0,1,0,,,,,1,7,43,9,,,,,,up,0.683845376219324,2059.5786719012476,None,001,64,2019_Oct_25_1158,ACPT_experiment_5_30_19,3.1.0,59.955822762602885,
,,,C,D,y,b,R,D,g,L,i,,,,,5,19,119,11,1,0,1,0,,,,,1,8,44,2,,,,,,up,0.7172179407334625,2061.546833971205,None,001,64,2019_Oct_25_1158,ACPT_experiment_5_30_19,3.1.0,59.955822762602885,
,,,C,D,y,b,R,D,d,R,c ,,,,,5,19,119,11,1,0,1,0,,,,,1,9,45,1,,,,,,up,0.6004695063847976,2063.5316636083653,None,001,64,2019_Oct_25_1158,ACPT_experiment_5_30_19,3.1.0,59.955822762602885,
,,,C,D,y,b,L,D,g,L,i,,,,,5,19,119,11,1,0,1,0,,,,,1,10,46,14,,,,,,up,0.5003711316057888,2065.4164534307565,None,001,64,2019_Oct_25_1158,ACPT_experiment_5_30_19,3.1.0,59.955822762602885,
,,,C,D,y,b,R,G,d,R,i,,,,,5,19,119,11,1,0,1,0,,,,,1,11,47,5,,,,,,up,0.4670453547269062,2067.201123144757,None,001,64,2019_Oct_25_1158,ACPT_experiment_5_30_19,3.1.0,59.955822762602885,
,,,C,D,y,b,R,G,y,R,y,,,,,5,19,119,11,1,0,1,0,,,,,1,12,48,29,,,,,,up,0.4336549807248957,2068.96916302352,None,001,64,2019_Oct_25_1158,ACPT_experiment_5_30_19,3.1.0,59.955822762602885,
,,,C,D,y,b,L,G,g,L,c ,,,,,5,19,119,11,1,0,1,0,,,,,1,13,49,18,,,,,,up,0.5003641889243227,2070.7205048476517,None,001,64,2019_Oct_25_1158,ACPT_experiment_5_30_19,3.1.0,59.955822762602885,
,,,C,D,y,b,L,U,g,L,u,,,,,5,19,119,11,1,0,1,0,,,,,1,14,50,22,,,,,,up,0.7506019757665854,2072.50518814516,None,001,64,2019_Oct_25_1158,ACPT_experiment_5_30_19,3.1.0,59.955822762602885,
,,,C,D,y,b,L,D,d,R,c ,,,,,5,19,119,11,1,0,1,0,,,,,1,15,51,13,,,,,,up,0.7172372595005072,2074.5400479528,None,001,64,2019_Oct_25_1158,ACPT_experiment_5_30_19,3.1.0,59.955822762602885,
,,,C,D,y,b,L,D,y,R,y,,,,,5,19,119,11,1,0,1,0,,,,,1,16,52,33,,,,,,down,0.6504785469624039,2076.541608848719,None,001,64,2019_Oct_25_1158,ACPT_experiment_5_30_19,3.1.0,59.955822762602885,
,,,C,D,y,b,R,D,g,R,i,,,,,5,19,119,11,1,0,1,0,,,,,1,17,53,3,,,,,,up,0.5837708480430592,2078.4930882586877,None,001,64,2019_Oct_25_1158,ACPT_experiment_5_30_19,3.1.0,59.955822762602885,
,,,C,D,y,b,L,G,d,L,i,,,,,5,19,119,11,1,0,1,0,,,,,1,18,54,16,,,,,,down,0.5170471507681214,2080.361203571195,None,001,64,2019_Oct_25_1158,ACPT_experiment_5_30_19,3.1.0,59.955822762602885,
,,,C,D,y,b,R,D,y,R,y,,,,,5,19,119,11,1,0,1,0,,,,,1,19,55,27,,,,,,down,0.8840240144336349,2082.162554435906,None,001,64,2019_Oct_25_1158,ACPT_experiment_5_30_19,3.1.0,59.955822762602885,
,,,C,D,y,b,L,U,d,R,u,,,,,5,19,119,11,1,0,1,0,,,,,1,20,56,21,,,,,,up,0.750332720465849,2084.3477872919348,None,001,64,2019_Oct_25_1158,ACPT_experiment_5_30_19,3.1.0,59.955822762602885,
,,,C,D,y,b,R,D,y,L,y,,,,,5,19,119,11,1,0,1,0,,,,,1,21,57,26,,,,,,down,0.6004353966882263,2086.3824551193375,None,001,64,2019_Oct_25_1158,ACPT_experiment_5_30_19,3.1.0,59.955822762602885,
,,,C,D,y,b,L,G,y,R,y,,,,,5,19,119,11,1,0,1,0,,,,,1,22,58,35,,,,,,down,0.48366854913911084,2088.2672352823456,None,001,64,2019_Oct_25_1158,ACPT_experiment_5_30_19,3.1.0,59.955822762602885,
,,,C,D,y,b,R,U,y,R,u,,,,,5,19,119,11,1,0,1,0,,,,,1,23,59,31,,,,,,down,0.5003774705755859,2090.0352199215113,None,001,64,2019_Oct_25_1158,ACPT_experiment_5_30_19,3.1.0,59.955822762602885,
,,,C,D,y,b,L,D,d,L,c ,,,,,5,19,119,11,1,0,1,0,,,,,1,24,60,12,,,,,,up,0.7672562613179252,2091.81991167098,None,001,64,2019_Oct_25_1158,ACPT_experiment_5_30_19,3.1.0,59.955822762602885,
,,,C,D,y,b,L,U,y,R,u,,,,,5,19,119,11,1,0,1,0,,,,,1,25,61,25,,,,,,down,0.5837738666004952,2093.871475570364,None,001,64,2019_Oct_25_1158,ACPT_experiment_5_30_19,3.1.0,59.955822762602885,
,,,C,D,y,b,R,U,y,L,u,,,,,5,19,119,11,1,0,1,0,,,,,1,26,62,30,,,,,,down,0.5670981492921783,2095.7395631121444,None,001,64,2019_Oct_25_1158,ACPT_experiment_5_30_19,3.1.0,59.955822762602885,
,,,C,D,y,b,R,G,d,L,i,,,,,5,19,119,11,1,0,1,0,,,,,1,27,63,4,,,,,,up,0.7669746299325197,2097.6079295686095,None,001,64,2019_Oct_25_1158,ACPT_experiment_5_30_19,3.1.0,59.955822762602885,
,,,C,D,y,b,L,U,g,R,u,,,,,5,19,119,11,1,0,1,0,,,,,1,28,64,23,,,,,,up,0.5837747721670894,2099.6592181755777,None,001,64,2019_Oct_25_1158,ACPT_experiment_5_30_19,3.1.0,59.955822762602885,
,,,C,D,y,b,L,U,y,L,u,,,,,5,19,119,11,1,0,1,0,,,,,1,29,65,24,,,,,,down,0.567102677128787,2101.527307830349,None,001,64,2019_Oct_25_1158,ACPT_experiment_5_30_19,3.1.0,59.955822762602885,
,,,C,D,y,b,R,D,d,L,c,,,,,5,19,119,11,1,0,1,0,,,,,1,30,66,0,,,,,,up,0.6838849193181886,2103.378721465956,None,001,64,2019_Oct_25_1158,ACPT_experiment_5_30_19,3.1.0,59.955822762602885,
,,,C,D,y,b,L,U,d,L,u,,,,,5,19,119,11,1,0,1,0,,,,,1,31,67,20,,,,,,up,0.6171316401841977,2105.3468913841625,None,001,64,2019_Oct_25_1158,ACPT_experiment_5_30_19,3.1.0,59.955822762602885,
,,,C,D,y,b,R,U,g,R,u,,,,,5,19,119,11,1,0,1,0,,,,,1,32,68,11,,,,,,up,0.7005521846658667,2107.248315871483,None,001,64,2019_Oct_25_1158,ACPT_experiment_5_30_19,3.1.0,59.955822762602885,
,,,C,D,y,b,L,G,g,R,c ,,,,,5,19,119,11,1,0,1,0,,,,,1,33,69,19,,,,,,up,0.5504269598213796,2109.2164879026795,None,001,64,2019_Oct_25_1158,ACPT_experiment_5_30_19,3.1.0,59.955822762602885,
,,,C,D,y,b,R,G,g,R,c ,,,,,5,19,119,11,1,0,1,0,,,,,1,34,70,7,,,,,,up,0.4837014514132534,2111.051237593353,None,001,64,2019_Oct_25_1158,ACPT_experiment_5_30_19,3.1.0,59.955822762602885,
,,,C,D,y,b,L,D,g,R,i,,,,,5,19,119,11,1,0,1,0,,,,,1,35,71,15,,,,,,up,0.48372680729335116,2112.8025447040773,None,001,64,2019_Oct_25_1158,ACPT_experiment_5_30_19,3.1.0,59.955822762602885,
,,,C,D,y,b,,,,,,,,,,5,19,119,11,2,0,2,0,0,0,0,0,,,,,,,,,,,,,,001,64,2019_Oct_25_1158,ACPT_experiment_5_30_19,3.1.0,59.955822762602885,
,,,C,D,y,b,L,G,d,R,i,,,,,5,19,119,11,2,0,2,0,,,,,0,0,0,17,,,,,,up,0.7972851700396859,2129.4018798366724,None,001,64,2019_Oct_25_1158,ACPT_experiment_5_30_19,3.1.0,59.955822762602885,
,,,C,D,y,b,R,U,g,L,u,,,,,5,19,119,11,2,0,2,0,,,,,0,1,1,10,,,,,,up,0.633699293144673,2131.4834795874604,None,001,64,2019_Oct_25_1158,ACPT_experiment_5_30_19,3.1.0,59.955822762602885,
,,,C,D,y,b,R,G,d,R,i,,,,,5,19,119,11,2,0,2,0,,,,,0,2,2,5,,,,,,up,0.5170486600482036,2133.4016126943616,None,001,64,2019_Oct_25_1158,ACPT_experiment_5_30_19,3.1.0,59.955822762602885,
,,,C,D,y,b,R,D,y,R,y,,,,,5,19,119,11,2,0,2,0,,,,,0,3,3,27,,,,,,down,0.5504160930149737,2135.2196634248367,None,001,64,2019_Oct_25_1158,ACPT_experiment_5_30_19,3.1.0,59.955822762602885,
,,,C,D,y,b,R,D,g,L,i,,,,,5,19,119,11,2,0,2,0,,,,,0,4,4,2,,,,,,up,0.6504782451074789,2137.07108581426,None,001,64,2019_Oct_25_1158,ACPT_experiment_5_30_19,3.1.0,59.955822762602885,
,,,C,D,y,b,R,G,y,R,y,,,,,5,19,119,11,2,0,2,0,,,,,0,5,5,29,,,,,,down,0.48371382749701297,2139.005876828982,None,001,64,2019_Oct_25_1158,ACPT_experiment_5_30_19,3.1.0,59.955822762602885,
,,,C,D,y,b,L,D,y,L,y,,,,,5,19,119,11,2,0,2,0,,,,,0,6,6,32,,,,,,down,0.733888526494411,2140.7738952759883,None,001,64,2019_Oct_25_1158,ACPT_experiment_5_30_19,3.1.0,59.955822762602885,
,,,C,D,y,b,R,U,y,L,u,,,,,5,19,119,11,2,0,2,0,,,,,0,7,7,30,,,,,,down,0.5337346404494383,2142.792100194365,None,001,64,2019_Oct_25_1158,ACPT_experiment_5_30_19,3.1.0,59.955822762602885,
,,,C,D,y,b,R,U,g,R,u,,,,,5,19,119,11,2,0,2,0,,,,,0,8,8,11,,,,,,up,0.6838662042637225,2144.6101485099953,None,001,64,2019_Oct_25_1158,ACPT_experiment_5_30_19,3.1.0,59.955822762602885,
,,,C,D,y,b,R,D,d,L,c,,,,,5,19,119,11,2,0,2,0,,,,,0,9,9,0,,,,,,up,0.6504719061376818,2146.5783175226343,None,001,64,2019_Oct_25_1158,ACPT_experiment_5_30_19,3.1.0,59.955822762602885,
,,,C,D,y,b,L,D,d,L,c ,,,,,5,19,119,11,2,0,2,0,,,,,0,10,10,12,,,,,,up,0.5337283014787317,2148.5298159495132,None,001,64,2019_Oct_25_1158,ACPT_experiment_5_30_19,3.1.0,59.955822762602885,
,,,C,D,y,b,L,D,g,R,i,,,,,5,19,119,11,2,0,2,0,,,,,0,11,11,15,,,,,,up,0.5670945270239827,2150.3478603410185,None,001,64,2019_Oct_25_1158,ACPT_experiment_5_30_19,3.1.0,59.955822762602885,
,,,C,D,y,b,L,D,d,R,c ,,,,,5,19,119,11,2,0,2,0,,,,,0,12,12,13,,,,,,up,0.4336649419637979,2152.1825876943685,None,001,64,2019_Oct_25_1158,ACPT_experiment_5_30_19,3.1.0,59.955822762602885,
,,,C,D,y,b,L,U,d,L,u,,,,,5,19,119,11,2,0,2,0,,,,,0,13,13,20,,,,,,up,0.5838016373263599,2153.9005385407872,None,001,64,2019_Oct_25_1158,ACPT_experiment_5_30_19,3.1.0,59.955822762602885,
,,,C,D,y,b,L,G,d,L,i,,,,,5,19,119,11,2,0,2,0,,,,,0,14,14,16,,,,,,up,0.5168089866074297,2155.78560607044,None,001,64,2019_Oct_25_1158,ACPT_experiment_5_30_19,3.1.0,59.955822762602885,
,,,C,D,y,b,R,U,d,L,u,,,,,5,19,119,11,2,0,2,0,,,,,0,15,15,8,,,,,,up,0.48372077017938864,2157.5867085078944,None,001,64,2019_Oct_25_1158,ACPT_experiment_5_30_19,3.1.0,59.955822762602885,
,,,C,D,y,b,R,D,g,R,i,,,,,5,19,119,11,2,0,2,0,,,,,0,16,16,3,,,,,,up,0.6004535080310234,2159.3547260493333,None,001,64,2019_Oct_25_1158,ACPT_experiment_5_30_19,3.1.0,59.955822762602885,
,,,C,D,y,b,R,U,d,R,u,,,,,5,19,119,11,2,0,2,0,,,,,0,17,17,9,,,,,,up,0.40030626281168225,2161.2394902139886,None,001,64,2019_Oct_25_1158,ACPT_experiment_5_30_19,3.1.0,59.955822762602885,
,,,C,D,y,b,L,D,g,L,i,,,,,5,19,119,11,2,0,2,0,,,,,0,18,18,14,,,,,,up,0.597121322755811,2162.944123487967,None,001,64,2019_Oct_25_1158,ACPT_experiment_5_30_19,3.1.0,59.955822762602885,
,,,C,D,y,b,R,G,g,R,c ,,,,,5,19,119,11,2,0,2,0,,,,,0,19,19,7,,,,,,up,0.433659508560595,2164.8255627118842,None,001,64,2019_Oct_25_1158,ACPT_experiment_5_30_19,3.1.0,59.955822762602885,
,,,C,D,y,b,L,U,y,L,u,,,,,5,19,119,11,2,0,2,0,,,,,0,20,20,24,,,,,,down,0.5671005641379452,2166.5435343863473,None,001,64,2019_Oct_25_1158,ACPT_experiment_5_30_19,3.1.0,59.955822762602885,
,,,C,D,y,b,L,U,d,R,u,,,,,5,19,119,11,2,0,2,0,,,,,0,21,21,21,,,,,,up,0.4836939050201181,2168.394958888761,None,001,64,2019_Oct_25_1158,ACPT_experiment_5_30_19,3.1.0,59.955822762602885,
,,,C,D,y,b,L,U,g,L,u,,,,,5,19,119,11,2,0,2,0,,,,,0,22,22,22,,,,,,up,0.5834880092343155,2170.1632517226153,None,001,64,2019_Oct_25_1158,ACPT_experiment_5_30_19,3.1.0,59.955822762602885,
,,,C,D,y,b,L,U,g,R,u,,,,,5,19,119,11,2,0,2,0,,,,,0,23,23,23,,,,,,up,0.5839335482751267,2172.014218913615,None,001,64,2019_Oct_25_1158,ACPT_experiment_5_30_19,3.1.0,59.955822762602885,
,,,C,D,y,b,R,G,d,L,i,,,,,5,19,119,11,2,0,2,0,,,,,0,24,24,4,,,,,,up,0.6171117177073029,2173.882481833569,None,001,64,2019_Oct_25_1158,ACPT_experiment_5_30_19,3.1.0,59.955822762602885,
,,,C,D,y,b,R,D,d,R,c ,,,,,5,19,119,11,2,0,2,0,,,,,0,25,25,1,,,,,,up,0.6004580358676321,2175.783934695327,None,001,64,2019_Oct_25_1158,ACPT_experiment_5_30_19,3.1.0,59.955822762602885,
,,,C,D,y,b,L,G,g,R,c ,,,,,5,19,119,11,2,0,2,0,,,,,0,26,26,19,,,,,,up,0.5337753909707317,2177.668658411316,None,001,64,2019_Oct_25_1158,ACPT_experiment_5_30_19,3.1.0,59.955822762602885,
,,,C,D,y,b,L,U,y,R,u,,,,,5,19,119,11,2,0,2,0,,,,,0,27,27,25,,,,,,down,0.5003735464515557,2179.48673811994,None,001,64,2019_Oct_25_1158,ACPT_experiment_5_30_19,3.1.0,59.955822762602885,
,,,C,D,y,b,R,D,y,L,y,,,,,5,19,119,11,2,0,2,0,,,,,0,28,28,26,,,,,,down,0.8006113182009358,2181.271430171264,None,001,64,2019_Oct_25_1158,ACPT_experiment_5_30_19,3.1.0,59.955822762602885,
,,,C,D,y,b,L,G,y,R,y,,,,,5,19,119,11,2,0,2,0,,,,,0,29,29,35,,,,,,down,0.4501245305764314,2183.373275988796,None,001,64,2019_Oct_25_1158,ACPT_experiment_5_30_19,3.1.0,59.955822762602885,
,,,C,D,y,b,R,U,y,R,u,,,,,5,19,119,11,2,0,2,0,,,,,0,30,30,31,,,,,,down,0.5503249325875004,2185.1076671050623,None,001,64,2019_Oct_25_1158,ACPT_experiment_5_30_19,3.1.0,59.955822762602885,
,,,C,D,y,b,R,G,g,L,c ,,,,,5,19,119,11,2,0,2,0,,,,,0,31,31,6,,,,,,up,0.6505120529482156,2186.9424195124366,None,001,64,2019_Oct_25_1158,ACPT_experiment_5_30_19,3.1.0,59.955822762602885,
,,,C,D,y,b,R,G,y,L,y,,,,,5,19,119,11,2,0,2,0,,,,,0,32,32,28,,,,,,down,0.5504049243536429,2188.877246447989,None,001,64,2019_Oct_25_1158,ACPT_experiment_5_30_19,3.1.0,59.955822762602885,
,,,C,D,y,b,L,D,y,R,y,,,,,5,19,119,11,2,0,2,0,,,,,0,33,33,33,,,,,,down,0.43366282897386554,2190.7119605196867,None,001,64,2019_Oct_25_1158,ACPT_experiment_5_30_19,3.1.0,59.955822762602885,
,,,C,D,y,b,L,G,y,L,y,,,,,5,19,119,11,2,0,2,0,,,,,0,34,34,34,,,,,,down,0.6338052445016729,2192.4466175708403,None,001,64,2019_Oct_25_1158,ACPT_experiment_5_30_19,3.1.0,59.955822762602885,
,,,C,D,y,b,L,G,g,L,c ,,,,,5,19,119,11,2,0,2,0,,,,,0,35,35,18,,,,,,up,0.7339060341264485,2194.3814254894814,None,001,64,2019_Oct_25_1158,ACPT_experiment_5_30_19,3.1.0,59.955822762602885,
,,,C,D,y,b,R,D,d,L,c,,,,,5,19,119,11,2,0,2,0,,,,,1,0,36,0,,,,,,up,0.5001263266176466,2196.4165593821135,None,001,64,2019_Oct_25_1158,ACPT_experiment_5_30_19,3.1.0,59.955822762602885,
,,,C,D,y,b,R,U,y,L,u,,,,,5,19,119,11,2,0,2,0,,,,,1,1,37,30,,,,,,down,0.5003798854213528,2198.2010024024694,None,001,64,2019_Oct_25_1158,ACPT_experiment_5_30_19,3.1.0,59.955822762602885,
,,,C,D,y,b,L,G,d,L,i,,,,,5,19,119,11,2,0,2,0,,,,,1,2,38,16,,,,,,up,0.700539506725363,2199.9856953593608,None,001,64,2019_Oct_25_1158,ACPT_experiment_5_30_19,3.1.0,59.955822762602885,
,,,C,D,y,b,L,D,d,L,c ,,,,,5,19,119,11,2,0,2,0,,,,,1,3,39,12,,,,,,up,0.817315409945877,2201.970519261263,None,001,64,2019_Oct_25_1158,ACPT_experiment_5_30_19,3.1.0,59.955822762602885,
,,,C,D,y,b,L,G,g,R,c ,,,,,5,19,119,11,2,0,2,0,,,,,1,4,40,19,,,,,,up,0.6838505077666923,2204.072149251956,None,001,64,2019_Oct_25_1158,ACPT_experiment_5_30_19,3.1.0,59.955822762602885,
,,,C,D,y,b,L,U,g,L,u,,,,,5,19,119,11,2,0,2,0,,,,,1,5,41,22,,,,,,up,0.6171672591590323,2206.040286871601,None,001,64,2019_Oct_25_1158,ACPT_experiment_5_30_19,3.1.0,59.955822762602885,
,,,C,D,y,b,R,G,g,R,c ,,,,,5,19,119,11,2,0,2,0,,,,,1,6,42,7,,,,,,up,0.6505422385198472,2207.941765692951,None,001,64,2019_Oct_25_1158,ACPT_experiment_5_30_19,3.1.0,59.955822762602885,
,,,C,D,y,b,R,U,y,R,u,,,,,5,19,119,11,2,0,2,0,,,,,1,7,43,31,,,,,,down,0.6338423727547706,2209.876568178189,None,001,64,2019_Oct_25_1158,ACPT_experiment_5_30_19,3.1.0,59.955822762602885,
,,,C,D,y,b,L,U,d,R,u,,,,,5,19,119,11,2,0,2,0,,,,,1,8,44,21,,,,,,up,0.5670866787750128,2211.7947215094237,None,001,64,2019_Oct_25_1158,ACPT_experiment_5_30_19,3.1.0,59.955822762602885,
,,,C,D,y,b,R,G,g,L,c ,,,,,5,19,119,11,2,0,2,0,,,,,1,9,45,6,,,,,,up,0.5671014697054488,2213.6461064687383,None,001,64,2019_Oct_25_1158,ACPT_experiment_5_30_19,3.1.0,59.955822762602885,
,,,C,D,y,b,L,U,g,R,u,,,,,5,19,119,11,2,0,2,0,,,,,1,10,46,23,,,,,,up,0.5001272321851502,2215.514442135919,None,001,64,2019_Oct_25_1158,ACPT_experiment_5_30_19,3.1.0,59.955822762602885,
,,,C,D,y,b,L,D,d,R,c ,,,,,5,19,119,11,2,0,2,0,,,,,1,11,47,13,,,,,,up,0.5003699241833601,2217.2988957212256,None,001,64,2019_Oct_25_1158,ACPT_experiment_5_30_19,3.1.0,59.955822762602885,
,,,C,D,y,b,R,D,d,R,c ,,,,,5,19,119,11,2,0,2,0,,,,,1,12,48,1,,,,,,up,0.5838022410371195,2219.0835877725494,None,001,64,2019_Oct_25_1158,ACPT_experiment_5_30_19,3.1.0,59.955822762602885,
,,,C,D,y,b,R,D,g,R,i,,,,,5,19,119,11,2,0,2,0,,,,,1,13,49,3,,,,,,up,0.4670239229708386,2220.9516940293843,None,001,64,2019_Oct_25_1158,ACPT_experiment_5_30_19,3.1.0,59.955822762602885,
,,,C,D,y,b,R,G,y,R,y,,,,,5,19,119,11,2,0,2,0,,,,,1,14,50,29,,,,,,down,0.5167830270156628,2222.71996633705,None,001,64,2019_Oct_25_1158,ACPT_experiment_5_30_19,3.1.0,59.955822762602885,
,,,C,D,y,b,R,D,g,L,i,,,,,5,19,119,11,2,0,2,0,,,,,1,15,51,2,,,,,,up,0.8006067903652365,2224.52106847265,None,001,64,2019_Oct_25_1158,ACPT_experiment_5_30_19,3.1.0,59.955822762602885,
,,,C,D,y,b,L,G,d,R,i,,,,,5,19,119,11,2,0,2,0,,,,,1,16,52,17,,,,,,up,0.5671183736258172,2226.605961771181,None,001,64,2019_Oct_25_1158,ACPT_experiment_5_30_19,3.1.0,59.955822762602885,
,,,C,D,y,b,L,G,y,R,y,,,,,5,19,119,11,2,0,2,0,,,,,1,17,53,35,,,,,,down,0.6171400921448367,2228.4407190082475,None,001,64,2019_Oct_25_1158,ACPT_experiment_5_30_19,3.1.0,59.955822762602885,
,,,C,D,y,b,L,G,y,L,y,,,,,5,19,119,11,2,0,2,0,,,,,1,18,54,34,,,,,,down,0.5837789981469541,2230.342170964438,None,001,64,2019_Oct_25_1158,ACPT_experiment_5_30_19,3.1.0,59.955822762602885,
,,,C,D,y,b,L,U,y,L,u,,,,,5,19,119,11,2,0,2,0,,,,,1,19,55,24,,,,,,down,0.5171078237681286,2232.2102582043635,None,001,64,2019_Oct_25_1158,ACPT_experiment_5_30_19,3.1.0,59.955822762602885,
,,,C,D,y,b,L,U,d,L,u,,,,,5,19,119,11,2,0,2,0,,,,,1,20,56,20,,,,,,up,0.6671551698382245,2234.0116558567106,None,001,64,2019_Oct_25_1158,ACPT_experiment_5_30_19,3.1.0,59.955822762602885,
,,,C,D,y,b,R,U,g,L,u,,,,,5,19,119,11,2,0,2,0,,,,,1,21,57,10,,,,,,up,0.6835854784458206,2235.9800663539245,None,001,64,2019_Oct_25_1158,ACPT_experiment_5_30_19,3.1.0,59.955822762602885,
,,,C,D,y,b,R,D,y,R,y,,,,,5,19,119,11,2,0,2,0,,,,,1,22,58,27,,,,,,down,0.48375880399908056,2237.9479649038394,None,001,64,2019_Oct_25_1158,ACPT_experiment_5_30_19,3.1.0,59.955822762602885,
,,,C,D,y,b,L,D,g,R,i,,,,,5,19,119,11,2,0,2,0,,,,,1,23,59,15,,,,,,up,0.7338894320619147,2239.7159818415676,None,001,64,2019_Oct_25_1158,ACPT_experiment_5_30_19,3.1.0,59.955822762602885,
,,,C,D,y,b,R,G,d,L,i,,,,,5,19,119,11,2,0,2,0,,,,,1,24,60,4,,,,,,up,0.6838363205479254,2241.7341846469544,None,001,64,2019_Oct_25_1158,ACPT_experiment_5_30_19,3.1.0,59.955822762602885,
,,,C,D,y,b,R,G,y,L,y,,,,,5,19,119,11,2,0,2,0,,,,,1,25,61,28,,,,,,down,0.6004710156630608,2243.685658019808,None,001,64,2019_Oct_25_1158,ACPT_experiment_5_30_19,3.1.0,59.955822762602885,
,,,C,D,y,b,L,G,g,L,c ,,,,,5,19,119,11,2,0,2,0,,,,,1,26,62,18,,,,,,up,0.7172312223856352,2245.5704433143637,None,001,64,2019_Oct_25_1158,ACPT_experiment_5_30_19,3.1.0,59.955822762602885,
,,,C,D,y,b,R,U,d,R,u,,,,,5,19,119,11,2,0,2,0,,,,,1,27,63,9,,,,,,up,0.4503448852510701,2247.571968893165,None,001,64,2019_Oct_25_1158,ACPT_experiment_5_30_19,3.1.0,59.955822762602885,
,,,C,D,y,b,L,D,y,R,y,,,,,5,19,119,11,2,0,2,0,,,,,1,28,64,33,,,,,,down,0.6471668878757555,2249.326630526488,None,001,64,2019_Oct_25_1158,ACPT_experiment_5_30_19,3.1.0,59.955822762602885,
,,,C,D,y,b,L,D,y,L,y,,,,,5,19,119,11,2,0,2,0,,,,,1,29,65,32,,,,,,down,0.46704203431454516,2251.241407299656,None,001,64,2019_Oct_25_1158,ACPT_experiment_5_30_19,3.1.0,59.955822762602885,
,,,C,D,y,b,L,U,y,R,u,,,,,5,19,119,11,2,0,2,0,,,,,1,30,66,25,,,,,,down,0.6336881244833421,2253.0095356221445,None,001,64,2019_Oct_25_1158,ACPT_experiment_5_30_19,3.1.0,59.955822762602885,
,,,C,D,y,b,R,G,d,R,i,,,,,5,19,119,11,2,0,2,0,,,,,1,31,67,5,,,,,,up,0.6170893803846411,2254.9443000735628,None,001,64,2019_Oct_25_1158,ACPT_experiment_5_30_19,3.1.0,59.955822762602885,
,,,C,D,y,b,R,D,y,L,y,,,,,5,19,119,11,2,0,2,0,,,,,1,32,68,26,,,,,,down,0.5337361497277016,2256.845705845829,None,001,64,2019_Oct_25_1158,ACPT_experiment_5_30_19,3.1.0,59.955822762602885,
,,,C,D,y,b,R,U,d,L,u,,,,,5,19,119,11,2,0,2,0,,,,,1,33,69,8,,,,,,up,0.5003786779989241,2258.6637556707374,None,001,64,2019_Oct_25_1158,ACPT_experiment_5_30_19,3.1.0,59.955822762602885,
,,,C,D,y,b,R,U,g,R,u,,,,,5,19,119,11,2,0,2,0,,,,,1,34,70,11,,,,,,up,0.5670899991882834,2260.4317747214554,None,001,64,2019_Oct_25_1158,ACPT_experiment_5_30_19,3.1.0,59.955822762602885,
,,,C,D,y,b,L,D,g,L,i,,,,,5,19,119,11,2,0,2,0,,,,,1,35,71,14,,,,,,up,0.5637182708132968,2262.2865615947157,None,001,64,2019_Oct_25_1158,ACPT_experiment_5_30_19,3.1.0,59.955822762602885,
,,,C,D,y,b,,,,,,,,,,5,19,119,11,3,0,3,0,0,0,0,0,,,,,,,,,,,,,,001,64,2019_Oct_25_1158,ACPT_experiment_5_30_19,3.1.0,59.955822762602885,
,,,C,D,y,b,R,U,d,R,u,,,,,5,19,119,11,3,0,3,0,,,,,0,0,0,9,,,,,,up,0.5834723127363759,2286.2684324421243,None,001,64,2019_Oct_25_1158,ACPT_experiment_5_30_19,3.1.0,59.955822762602885,
,,,C,D,y,b,L,U,d,L,u,,,,,5,19,119,11,3,0,3,0,,,,,0,1,1,20,,,,,,up,0.4336576974264972,2288.1362262782914,None,001,64,2019_Oct_25_1158,ACPT_experiment_5_30_19,3.1.0,59.955822762602885,
,,,C,D,y,b,L,D,y,L,y,,,,,5,19,119,11,3,0,3,0,,,,,0,2,2,32,,,,,,down,0.5504151874474701,2289.854197349043,None,001,64,2019_Oct_25_1158,ACPT_experiment_5_30_19,3.1.0,59.955822762602885,
,,,C,D,y,b,L,U,g,L,u,,,,,5,19,119,11,3,0,3,0,,,,,0,3,3,22,,,,,,up,0.5504145837367105,2291.6889307395077,None,001,64,2019_Oct_25_1158,ACPT_experiment_5_30_19,3.1.0,59.955822762602885,
,,,C,D,y,b,R,G,d,R,i,,,,,5,19,119,11,3,0,3,0,,,,,0,4,4,5,,,,,,up,0.483420423739517,2293.540614535983,None,001,64,2019_Oct_25_1158,ACPT_experiment_5_30_19,3.1.0,59.955822762602885,
,,,C,D,y,b,L,D,d,L,c ,,,,,5,19,119,11,3,0,3,0,,,,,0,5,5,12,,,,,,up,0.5003829039787888,2295.3083525590273,None,001,64,2019_Oct_25_1158,ACPT_experiment_5_30_19,3.1.0,59.955822762602885,
,,,C,D,y,b,L,G,y,L,y,,,,,5,19,119,11,3,0,3,0,,,,,0,6,6,34,,,,,,down,0.5837747721670894,2297.0930494400427,None,001,64,2019_Oct_25_1158,ACPT_experiment_5_30_19,3.1.0,59.955822762602885,
,,,C,D,y,b,R,D,d,R,c ,,,,,5,19,119,11,3,0,3,0,,,,,0,7,7,1,,,,,,up,0.6338284873918383,2298.9611421133704,None,001,64,2019_Oct_25_1158,ACPT_experiment_5_30_19,3.1.0,59.955822762602885,
,,,C,D,y,b,R,G,y,L,y,,,,,5,19,119,11,3,0,3,0,,,,,0,8,8,28,,,,,,down,0.48369420687504316,2300.8792737109934,None,001,64,2019_Oct_25_1158,ACPT_experiment_5_30_19,3.1.0,59.955822762602885,
,,,C,D,y,b,R,G,g,L,c ,,,,,5,19,119,11,3,0,3,0,,,,,0,9,9,6,,,,,,up,0.6837460656879557,2302.647276159647,None,001,64,2019_Oct_25_1158,ACPT_experiment_5_30_19,3.1.0,59.955822762602885,
,,,C,D,y,b,R,D,g,R,i,,,,,5,19,119,11,3,0,3,0,,,,,0,10,10,3,,,,,,up,0.5003711316057888,2304.61545332239,None,001,64,2019_Oct_25_1158,ACPT_experiment_5_30_19,3.1.0,59.955822762602885,
,,,C,D,y,b,R,D,y,L,y,,,,,5,19,119,11,3,0,3,0,,,,,0,11,11,26,,,,,,down,0.5837883556741872,2306.4001245456693,None,001,64,2019_Oct_25_1158,ACPT_experiment_5_30_19,3.1.0,59.955822762602885,
,,,C,D,y,b,L,G,d,R,i,,,,,5,19,119,11,3,0,3,0,,,,,0,12,12,17,,,,,,up,0.4503409611261304,2308.2849161791946,None,001,64,2019_Oct_25_1158,ACPT_experiment_5_30_19,3.1.0,59.955822762602885,
,,,C,D,y,b,L,D,g,R,i,,,,,5,19,119,11,3,0,3,0,,,,,0,13,13,15,,,,,,up,0.6338115834714699,2310.019573230348,None,001,64,2019_Oct_25_1158,ACPT_experiment_5_30_19,3.1.0,59.955822762602885,
,,,C,D,y,b,L,D,g,L,i,,,,,5,19,119,11,3,0,3,0,,,,,0,14,14,14,,,,,,up,0.617284681034107,2311.920869428989,None,001,64,2019_Oct_25_1158,ACPT_experiment_5_30_19,3.1.0,59.955822762602885,
,,,C,D,y,b,L,U,g,R,u,,,,,5,19,119,11,3,0,3,0,,,,,0,15,15,23,,,,,,up,0.616866309008401,2313.8394166819353,None,001,64,2019_Oct_25_1158,ACPT_experiment_5_30_19,3.1.0,59.955822762602885,
,,,C,D,y,b,R,D,y,R,y,,,,,5,19,119,11,3,0,3,0,,,,,0,16,16,27,,,,,,up,0.45033220731056645,2315.7572775149793,None,001,64,2019_Oct_25_1158,ACPT_experiment_5_30_19,3.1.0,59.955822762602885,
,,,C,D,y,b,R,D,g,L,i,,,,,5,19,119,11,3,0,3,0,,,,,0,17,17,2,,,,,,up,0.5504296765220715,2317.5086139057084,None,001,64,2019_Oct_25_1158,ACPT_experiment_5_30_19,3.1.0,59.955822762602885,
,,,C,D,y,b,L,D,y,R,y,,,,,5,19,119,11,3,0,3,0,,,,,0,18,18,33,,,,,,down,0.4503397537037017,2319.343346390606,None,001,64,2019_Oct_25_1158,ACPT_experiment_5_30_19,3.1.0,59.955822762602885,
,,,C,D,y,b,R,U,d,L,u,,,,,5,19,119,11,3,0,3,0,,,,,0,19,19,8,,,,,,up,0.5837925816540519,2321.0946854980366,None,001,64,2019_Oct_25_1158,ACPT_experiment_5_30_19,3.1.0,59.955822762602885,
,,,C,D,y,b,R,D,d,L,c,,,,,5,19,119,11,3,0,3,0,,,,,0,20,20,0,,,,,,up,0.8006092052100939,2322.9627724361053,None,001,64,2019_Oct_25_1158,ACPT_experiment_5_30_19,3.1.0,59.955822762602885,
,,,C,D,y,b,L,U,y,R,u,,,,,5,19,119,11,3,0,3,0,,,,,0,21,21,25,,,,,,down,0.6504921304704112,2325.0476941090747,None,001,64,2019_Oct_25_1158,ACPT_experiment_5_30_19,3.1.0,59.955822762602885,
,,,C,D,y,b,R,G,y,R,y,,,,,5,19,119,11,3,0,3,0,,,,,0,22,22,29,,,,,,down,0.550411867035109,2326.999181669147,None,001,64,2019_Oct_25_1158,ACPT_experiment_5_30_19,3.1.0,59.955822762602885,
,,,C,D,y,b,L,G,g,R,c ,,,,,5,19,119,11,3,0,3,0,,,,,0,23,23,19,,,,,,up,0.5670924140331408,2328.850570250731,None,001,64,2019_Oct_25_1158,ACPT_experiment_5_30_19,3.1.0,59.955822762602885,
,,,C,D,y,b,R,G,d,L,i,,,,,5,19,119,11,3,0,3,0,,,,,0,24,24,4,,,,,,up,0.5337195476631678,2330.7020234294378,None,001,64,2019_Oct_25_1158,ACPT_experiment_5_30_19,3.1.0,59.955822762602885,
,,,C,D,y,b,R,U,y,L,u,,,,,5,19,119,11,3,0,3,0,,,,,0,25,25,30,,,,,,down,0.683828170443121,2332.5200808007385,None,001,64,2019_Oct_25_1158,ACPT_experiment_5_30_19,3.1.0,59.955822762602885,
,,,C,D,y,b,R,G,g,R,c ,,,,,5,19,119,11,3,0,3,0,,,,,0,26,26,7,,,,,,up,0.7338942617534485,2334.4882226463633,None,001,64,2019_Oct_25_1158,ACPT_experiment_5_30_19,3.1.0,59.955822762602885,
,,,C,D,y,b,R,U,g,R,u,,,,,5,19,119,11,3,0,3,0,,,,,0,27,27,11,,,,,,up,0.4670450528710717,2336.50642545175,None,001,64,2019_Oct_25_1158,ACPT_experiment_5_30_19,3.1.0,59.955822762602885,
,,,C,D,y,b,L,U,y,L,u,,,,,5,19,119,11,3,0,3,0,,,,,0,28,28,24,,,,,,down,0.5837714517538188,2338.2577615406235,None,001,64,2019_Oct_25_1158,ACPT_experiment_5_30_19,3.1.0,59.955822762602885,
,,,C,D,y,b,L,U,d,R,u,,,,,5,19,119,11,3,0,3,0,,,,,0,29,29,21,,,,,,up,0.6471708120016046,2340.145859701688,None,001,64,2019_Oct_25_1158,ACPT_experiment_5_30_19,3.1.0,59.955822762602885,
,,,C,D,y,b,L,G,g,L,c ,,,,,5,19,119,11,3,0,3,0,,,,,0,30,30,18,,,,,,up,0.5837693387638865,2342.0773499241286,None,001,64,2019_Oct_25_1158,ACPT_experiment_5_30_19,3.1.0,59.955822762602885,
,,,C,D,y,b,R,U,g,L,u,,,,,5,19,119,11,3,0,3,0,,,,,0,31,31,10,,,,,,up,0.5003762631531572,2343.945431126939,None,001,64,2019_Oct_25_1158,ACPT_experiment_5_30_19,3.1.0,59.955822762602885,
,,,C,D,y,b,R,U,y,R,u,,,,,5,19,119,11,3,0,3,0,,,,,0,32,32,31,,,,,,down,0.7339108638170728,2345.730099935373,None,001,64,2019_Oct_25_1158,ACPT_experiment_5_30_19,3.1.0,59.955822762602885,
,,,C,D,y,b,L,G,y,R,y,,,,,5,19,119,11,3,0,3,0,,,,,0,33,33,35,,,,,,down,0.750570280915781,2347.765008039927,None,001,64,2019_Oct_25_1158,ACPT_experiment_5_30_19,3.1.0,59.955822762602885,
,,,C,D,y,b,L,D,d,R,c ,,,,,5,19,119,11,3,0,3,0,,,,,0,34,34,13,,,,,,up,0.7672463000790231,2349.799895316437,None,001,64,2019_Oct_25_1158,ACPT_experiment_5_30_19,3.1.0,59.955822762602885,
,,,C,D,y,b,L,G,d,L,i,,,,,5,19,119,11,3,0,3,0,,,,,0,35,35,16,,,,,,up,0.717209186918808,2351.851458310254,None,001,64,2019_Oct_25_1158,ACPT_experiment_5_30_19,3.1.0,59.955822762602885,
,,,C,D,y,b,L,G,y,R,y,,,,,5,19,119,11,3,0,3,0,,,,,1,0,36,35,,,,,,down,0.5671044882619753,2353.8529775500847,None,001,64,2019_Oct_25_1158,ACPT_experiment_5_30_19,3.1.0,59.955822762602885,
,,,C,D,y,b,R,U,y,R,u,,,,,5,19,119,11,3,0,3,0,,,,,1,1,37,31,,,,,,down,0.5671117327992761,2355.704370961359,None,001,64,2019_Oct_25_1158,ACPT_experiment_5_30_19,3.1.0,59.955822762602885,
,,,C,D,y,b,L,G,g,L,c ,,,,,5,19,119,11,3,0,3,0,,,,,1,2,38,18,,,,,,up,0.833985391994247,2357.555780672843,None,001,64,2019_Oct_25_1158,ACPT_experiment_5_30_19,3.1.0,59.955822762602885,
,,,C,D,y,b,R,D,d,R,c ,,,,,5,19,119,11,3,0,3,0,,,,,1,3,39,1,,,,,,up,0.6171316401841977,2359.674087588267,None,001,64,2019_Oct_25_1158,ACPT_experiment_5_30_19,3.1.0,59.955822762602885,
,,,C,D,y,b,L,D,y,R,y,,,,,5,19,119,11,3,0,3,0,,,,,1,4,40,33,,,,,,down,0.7505654512242472,2361.5755359221894,None,001,64,2019_Oct_25_1158,ACPT_experiment_5_30_19,3.1.0,59.955822762602885,
,,,C,D,y,b,R,D,g,R,i,,,,,5,19,119,11,3,0,3,0,,,,,1,5,41,3,,,,,,up,0.633847504302139,2363.6104192745743,None,001,64,2019_Oct_25_1158,ACPT_experiment_5_30_19,3.1.0,59.955822762602885,
,,,C,D,y,b,L,D,g,L,i,,,,,5,19,119,11,3,0,3,0,,,,,1,6,42,14,,,,,,up,0.6502271011495395,2365.5454955429495,None,001,64,2019_Oct_25_1158,ACPT_experiment_5_30_19,3.1.0,59.955822762602885,
,,,C,D,y,b,L,D,y,L,y,,,,,5,19,119,11,3,0,3,0,,,,,1,7,43,32,,,,,,down,0.6504860933564487,2367.496718677413,None,001,64,2019_Oct_25_1158,ACPT_experiment_5_30_19,3.1.0,59.955822762602885,
,,,C,D,y,b,L,U,g,R,u,,,,,5,19,119,11,3,0,3,0,,,,,1,8,44,23,,,,,,up,0.5337198495190023,2369.448206841198,None,001,64,2019_Oct_25_1158,ACPT_experiment_5_30_19,3.1.0,59.955822762602885,
,,,C,D,y,b,R,G,g,R,c ,,,,,5,19,119,11,3,0,3,0,,,,,1,9,45,7,,,,,,up,0.9507585785131596,2371.2495758172518,None,001,64,2019_Oct_25_1158,ACPT_experiment_5_30_19,3.1.0,59.955822762602885,
,,,C,D,y,b,R,U,g,L,u,,,,,5,19,119,11,3,0,3,0,,,,,1,10,46,10,,,,,,up,0.8339651676615176,2373.4846184890857,None,001,64,2019_Oct_25_1158,ACPT_experiment_5_30_19,3.1.0,59.955822762602885,
,,,C,D,y,b,R,G,g,L,c ,,,,,5,19,119,11,3,0,3,0,,,,,1,11,47,6,,,,,,up,0.5837343235007211,2375.602934460181,None,001,64,2019_Oct_25_1158,ACPT_experiment_5_30_19,3.1.0,59.955822762602885,
,,,C,D,y,b,R,D,y,R,y,,,,,5,19,119,11,3,0,3,0,,,,,1,12,48,27,,,,,,down,0.6504873007797869,2377.4876693448314,None,001,64,2019_Oct_25_1158,ACPT_experiment_5_30_19,3.1.0,59.955822762602885,
,,,C,D,y,b,R,G,d,R,i,,,,,5,19,119,11,3,0,3,0,,,,,1,13,49,5,,,,,,up,0.6671907888121495,2379.43915298078,None,001,64,2019_Oct_25_1158,ACPT_experiment_5_30_19,3.1.0,59.955822762602885,
,,,C,D,y,b,R,D,g,L,i,,,,,5,19,119,11,3,0,3,0,,,,,1,14,50,2,,,,,,up,0.800609507066838,2381.39063722044,None,001,64,2019_Oct_25_1158,ACPT_experiment_5_30_19,3.1.0,59.955822762602885,
,,,C,D,y,b,R,U,d,L,u,,,,,5,19,119,11,3,0,3,0,,,,,1,15,51,8,,,,,,up,0.8840240144336349,2383.4755431969115,None,001,64,2019_Oct_25_1158,ACPT_experiment_5_30_19,3.1.0,59.955822762602885,
,,,C,D,y,b,L,D,g,R,i,,,,,5,19,119,11,3,0,3,0,,,,,1,16,52,15,,,,,,up,0.6671744886034503,2385.64388058467,None,001,64,2019_Oct_25_1158,ACPT_experiment_5_30_19,3.1.0,59.955822762602885,
,,,C,D,y,b,R,D,d,L,c,,,,,5,19,119,11,3,0,3,0,,,,,1,17,53,0,,,,,,up,0.6171141325530698,2387.5953895764997,None,001,64,2019_Oct_25_1158,ACPT_experiment_5_30_19,3.1.0,59.955822762602885,
,,,C,D,y,b,L,U,d,R,u,,,,,5,19,119,11,3,0,3,0,,,,,1,18,54,21,,,,,,up,0.5837675276297887,2389.4968188935118,None,001,64,2019_Oct_25_1158,ACPT_experiment_5_30_19,3.1.0,59.955822762602885,
,,,C,D,y,b,L,U,g,L,u,,,,,5,19,119,11,3,0,3,0,,,,,1,19,55,22,,,,,,up,0.6002159475810913,2391.381830278,None,001,64,2019_Oct_25_1158,ACPT_experiment_5_30_19,3.1.0,59.955822762602885,
,,,C,D,y,b,R,G,d,L,i,,,,,5,19,119,11,3,0,3,0,,,,,1,20,56,4,,,,,,up,0.48367760481050937,2393.2663825399413,None,001,64,2019_Oct_25_1158,ACPT_experiment_5_30_19,3.1.0,59.955822762602885,
,,,C,D,y,b,L,G,d,L,i,,,,,5,19,119,11,3,0,3,0,,,,,1,21,57,16,,,,,,up,0.48369994213408063,2395.0343717069427,None,001,64,2019_Oct_25_1158,ACPT_experiment_5_30_19,3.1.0,59.955822762602885,
,,,C,D,y,b,L,U,y,R,u,,,,,5,19,119,11,3,0,3,0,,,,,1,22,58,25,,,,,,down,0.6171337531750396,2396.8023989077656,None,001,64,2019_Oct_25_1158,ACPT_experiment_5_30_19,3.1.0,59.955822762602885,
,,,C,D,y,b,L,G,d,R,i,,,,,5,19,119,11,3,0,3,0,,,,,1,23,59,17,,,,,,up,0.5501444228684704,2398.720791006873,None,001,64,2019_Oct_25_1158,ACPT_experiment_5_30_19,3.1.0,59.955822762602885,
,,,C,D,y,b,R,U,g,R,u,,,,,5,19,119,11,3,0,3,0,,,,,1,24,60,11,,,,,,up,0.4503729578327693,2400.5552186174946,None,001,64,2019_Oct_25_1158,ACPT_experiment_5_30_19,3.1.0,59.955822762602885,
,,,C,D,y,b,L,U,d,L,u,,,,,5,19,119,11,3,0,3,0,,,,,1,25,61,20,,,,,,up,0.6171346587416338,2402.2899010245283,None,001,64,2019_Oct_25_1158,ACPT_experiment_5_30_19,3.1.0,59.955822762602885,
,,,C,D,y,b,L,U,y,L,u,,,,,5,19,119,11,3,0,3,0,,,,,1,26,62,24,,,,,,down,0.6671769034492172,2404.1746697170192,None,001,64,2019_Oct_25_1158,ACPT_experiment_5_30_19,3.1.0,59.955822762602885,
,,,C,D,y,b,R,G,y,L,y,,,,,5,19,119,11,3,0,3,0,,,,,1,27,63,28,,,,,,down,0.7505905052485105,2406.1261596919385,None,001,64,2019_Oct_25_1158,ACPT_experiment_5_30_19,3.1.0,59.955822762602885,
,,,C,D,y,b,R,G,y,R,y,,,,,5,19,119,11,3,0,3,0,,,,,1,28,64,29,,,,,,down,0.4837252980150879,2408.161043949891,None,001,64,2019_Oct_25_1158,ACPT_experiment_5_30_19,3.1.0,59.955822762602885,
,,,C,D,y,b,R,U,d,R,u,,,,,5,19,119,11,3,0,3,0,,,,,1,29,65,9,,,,,,up,0.7005379974470998,2409.9290539449376,None,001,64,2019_Oct_25_1158,ACPT_experiment_5_30_19,3.1.0,59.955822762602885,
,,,C,D,y,b,L,D,d,L,c ,,,,,5,19,119,11,3,0,3,0,,,,,1,30,66,12,,,,,,up,0.5304078885765193,2411.9339144257156,None,001,64,2019_Oct_25_1158,ACPT_experiment_5_30_19,3.1.0,59.955822762602885,
,,,C,D,y,b,R,U,y,L,u,,,,,5,19,119,11,3,0,3,0,,,,,1,31,67,30,,,,,,down,0.5670999604271856,2413.74864957298,None,001,64,2019_Oct_25_1158,ACPT_experiment_5_30_19,3.1.0,59.955822762602885,
,,,C,D,y,b,L,D,d,R,c ,,,,,5,19,119,11,3,0,3,0,,,,,1,32,68,13,,,,,,up,0.48372982584987767,2415.600049021369,None,001,64,2019_Oct_25_1158,ACPT_experiment_5_30_19,3.1.0,59.955822762602885,
,,,C,D,y,b,L,G,y,L,y,,,,,5,19,119,11,3,0,3,0,,,,,1,33,69,34,,,,,,down,0.5003801872771874,2417.3680617331165,None,001,64,2019_Oct_25_1158,ACPT_experiment_5_30_19,3.1.0,59.955822762602885,
,,,C,D,y,b,L,G,g,R,c ,,,,,5,19,119,11,3,0,3,0,,,,,1,34,70,19,,,,,,up,0.5804534536973733,2419.1727601777447,None,001,64,2019_Oct_25_1158,ACPT_experiment_5_30_19,3.1.0,59.955822762602885,
,,,C,D,y,b,R,D,y,L,y,,,,,5,19,119,11,3,0,3,0,,,,,1,35,71,26,,,,,,down,0.633812187183139,2421.0375224769314,None,001,64,2019_Oct_25_1158,ACPT_experiment_5_30_19,3.1.0,59.955822762602885,
,,,C,D,y,b,,,,,,,,,,5,19,119,11,4,0,4,0,0,0,0,0,,,,,,,,,,,,,,001,64,2019_Oct_25_1158,ACPT_experiment_5_30_19,3.1.0,59.955822762602885,
,,,C,D,y,b,R,G,g,R,c ,,,,,5,19,119,11,4,0,4,0,,,,,0,0,0,7,,,,,,up,0.6335604395144401,2427.7428959011313,None,001,64,2019_Oct_25_1158,ACPT_experiment_5_30_19,3.1.0,59.955822762602885,
,,,C,D,y,b,R,D,d,R,c ,,,,,5,19,119,11,4,0,4,0,,,,,0,1,1,1,,,,,,up,0.40032286487712554,2429.6607425469565,None,001,64,2019_Oct_25_1158,ACPT_experiment_5_30_19,3.1.0,59.955822762602885,
,,,C,D,y,b,R,D,y,R,y,,,,,5,19,119,11,4,0,4,0,,,,,0,2,2,27,,,,,,down,0.46705018441844004,2431.32870518084,None,001,64,2019_Oct_25_1158,ACPT_experiment_5_30_19,3.1.0,59.955822762602885,
,,,C,D,y,b,L,G,y,L,y,,,,,5,19,119,11,4,0,4,0,,,,,0,3,3,34,,,,,,down,0.4170097508449544,2433.080012895276,None,001,64,2019_Oct_25_1158,ACPT_experiment_5_30_19,3.1.0,59.955822762602885,
,,,C,D,y,b,L,D,g,R,i,,,,,5,19,119,11,4,0,4,0,,,,,0,4,4,15,,,,,,up,0.43324777736143005,2434.7984289013566,None,001,64,2019_Oct_25_1158,ACPT_experiment_5_30_19,3.1.0,59.955822762602885,
,,,C,D,y,b,L,D,d,L,c ,,,,,5,19,119,11,4,0,4,0,,,,,0,5,5,12,,,,,,up,0.550452919412237,2436.4992932048353,None,001,64,2019_Oct_25_1158,ACPT_experiment_5_30_19,3.1.0,59.955822762602885,
,,,C,D,y,b,L,G,d,R,i,,,,,5,19,119,11,4,0,4,0,,,,,0,6,6,17,,,,,,up,0.6338106779048758,2438.334046819633,None,001,64,2019_Oct_25_1158,ACPT_experiment_5_30_19,3.1.0,59.955822762602885,
,,,C,D,y,b,L,D,y,R,y,,,,,5,19,119,11,4,0,4,0,,,,,0,7,7,33,,,,,,down,0.550477067869906,2440.252148835396,None,001,64,2019_Oct_25_1158,ACPT_experiment_5_30_19,3.1.0,59.955822762602885,
,,,C,D,y,b,L,U,d,R,u,,,,,5,19,119,11,4,0,4,0,,,,,0,8,8,21,,,,,,up,0.467029054518207,2442.103601712247,None,001,64,2019_Oct_25_1158,ACPT_experiment_5_30_19,3.1.0,59.955822762602885,
,,,C,D,y,b,R,G,g,L,c ,,,,,5,19,119,11,4,0,4,0,,,,,0,9,9,6,,,,,,up,0.5504049243536429,2443.854924821324,None,001,64,2019_Oct_25_1158,ACPT_experiment_5_30_19,3.1.0,59.955822762602885,
,,,C,D,y,b,L,G,y,R,y,,,,,5,19,119,11,4,0,4,0,,,,,0,10,10,35,,,,,,down,0.45032979246570903,2445.689655495087,None,001,64,2019_Oct_25_1158,ACPT_experiment_5_30_19,3.1.0,59.955822762602885,
,,,C,D,y,b,R,U,d,L,u,,,,,5,19,119,11,4,0,4,0,,,,,0,11,11,8,,,,,,up,0.7839193006848291,2447.424306207271,None,001,64,2019_Oct_25_1158,ACPT_experiment_5_30_19,3.1.0,59.955822762602885,
,,,C,D,y,b,R,U,y,L,u,,,,,5,19,119,11,4,0,4,0,,,,,0,12,12,30,,,,,,down,0.7505980516425552,2449.4758450526306,None,001,64,2019_Oct_25_1158,ACPT_experiment_5_30_19,3.1.0,59.955822762602885,
,,,C,D,y,b,L,D,g,L,i,,,,,5,19,119,11,4,0,4,0,,,,,0,13,13,14,,,,,,up,0.6504960545944414,2451.510752855329,None,001,64,2019_Oct_25_1158,ACPT_experiment_5_30_19,3.1.0,59.955822762602885,
,,,C,D,y,b,R,G,y,L,y,,,,,5,19,119,11,4,0,4,0,,,,,0,14,14,28,,,,,,down,0.5670866787759223,2453.4622422265365,None,001,64,2019_Oct_25_1158,ACPT_experiment_5_30_19,3.1.0,59.955822762602885,
,,,C,D,y,b,L,U,g,L,u,,,,,5,19,119,11,4,0,4,0,,,,,0,15,15,22,,,,,,up,0.433680336605903,2455.3470245025346,None,001,64,2019_Oct_25_1158,ACPT_experiment_5_30_19,3.1.0,59.955822762602885,
,,,C,D,y,b,R,G,y,R,y,,,,,5,19,119,11,4,0,4,0,,,,,0,16,16,29,,,,,,down,0.5504166967266428,2457.064991347306,None,001,64,2019_Oct_25_1158,ACPT_experiment_5_30_19,3.1.0,59.955822762602885,
,,,C,D,y,b,R,U,y,R,u,,,,,5,19,119,11,4,0,4,0,,,,,0,17,17,31,,,,,,down,0.4670215081259812,2458.8830381536573,None,001,64,2019_Oct_25_1158,ACPT_experiment_5_30_19,3.1.0,59.955822762602885,
,,,C,D,y,b,R,G,d,L,i,,,,,5,19,119,11,4,0,4,0,,,,,0,18,18,4,,,,,,up,0.5504191115724097,2460.6343766573764,None,001,64,2019_Oct_25_1158,ACPT_experiment_5_30_19,3.1.0,59.955822762602885,
,,,C,D,y,b,L,U,y,R,u,,,,,5,19,119,11,4,0,4,0,,,,,0,19,19,25,,,,,,down,0.4833380171276076,2462.4861413511844,None,001,64,2019_Oct_25_1158,ACPT_experiment_5_30_19,3.1.0,59.955822762602885,
,,,C,D,y,b,R,U,d,R,u,,,,,5,19,119,11,4,0,4,0,,,,,0,20,20,9,,,,,,up,0.5003901485160895,2464.253800288031,None,001,64,2019_Oct_25_1158,ACPT_experiment_5_30_19,3.1.0,59.955822762602885,
,,,C,D,y,b,L,G,d,L,i,,,,,5,19,119,11,4,0,4,0,,,,,0,21,21,16,,,,,,up,0.5170643565443243,2466.0384968671906,None,001,64,2019_Oct_25_1158,ACPT_experiment_5_30_19,3.1.0,59.955822762602885,
,,,C,D,y,b,L,G,g,R,c ,,,,,5,19,119,11,4,0,4,0,,,,,0,22,22,19,,,,,,up,0.45040344526023546,2467.823160544077,None,001,64,2019_Oct_25_1158,ACPT_experiment_5_30_19,3.1.0,59.955822762602885,
,,,C,D,y,b,L,D,y,L,y,,,,,5,19,119,11,4,0,4,0,,,,,0,23,23,32,,,,,,down,0.5334994948443637,2469.574763775261,None,001,64,2019_Oct_25_1158,ACPT_experiment_5_30_19,3.1.0,59.955822762602885,
,,,C,D,y,b,L,G,g,L,c ,,,,,5,19,119,11,4,0,4,0,,,,,0,24,24,18,,,,,,up,0.5837735647446607,2471.392573323018,None,001,64,2019_Oct_25_1158,ACPT_experiment_5_30_19,3.1.0,59.955822762602885,
,,,C,D,y,b,L,U,d,L,u,,,,,5,19,119,11,4,0,4,0,,,,,0,25,25,20,,,,,,up,0.5003832058346234,2473.2606584499526,None,001,64,2019_Oct_25_1158,ACPT_experiment_5_30_19,3.1.0,59.955822762602885,
,,,C,D,y,b,L,U,g,R,u,,,,,5,19,119,11,4,0,4,0,,,,,0,26,26,23,,,,,,up,0.5671171662033885,2475.0453580476697,None,001,64,2019_Oct_25_1158,ACPT_experiment_5_30_19,3.1.0,59.955822762602885,
,,,C,D,y,b,R,G,d,R,i,,,,,5,19,119,11,4,0,4,0,,,,,0,27,27,5,,,,,,up,0.45002280519929627,2476.930467233411,None,001,64,2019_Oct_25_1158,ACPT_experiment_5_30_19,3.1.0,59.955822762602885,
,,,C,D,y,b,R,D,d,L,c,,,,,5,19,119,11,4,0,4,0,,,,,0,28,28,0,,,,,,up,0.46701818771271064,2478.6647795653344,None,001,64,2019_Oct_25_1158,ACPT_experiment_5_30_19,3.1.0,59.955822762602885,
,,,C,D,y,b,L,D,d,R,c ,,,,,5,19,119,11,4,0,4,0,,,,,0,29,29,13,,,,,,up,0.45033522586800245,2480.4161401045203,None,001,64,2019_Oct_25_1158,ACPT_experiment_5_30_19,3.1.0,59.955822762602885,
,,,C,D,y,b,L,U,y,L,u,,,,,5,19,119,11,4,0,4,0,,,,,0,30,30,24,,,,,,down,0.6169861457274237,2482.167593313413,None,001,64,2019_Oct_25_1158,ACPT_experiment_5_30_19,3.1.0,59.955822762602885,
,,,C,D,y,b,R,D,g,L,i,,,,,5,19,119,11,4,0,4,0,,,,,0,31,31,2,,,,,,up,0.48368273635787773,2484.10227747121,None,001,64,2019_Oct_25_1158,ACPT_experiment_5_30_19,3.1.0,59.955822762602885,
,,,C,D,y,b,R,U,g,R,u,,,,,5,19,119,11,4,0,4,0,,,,,0,32,32,11,,,,,,up,0.5171048052116021,2485.8535743188404,None,001,64,2019_Oct_25_1158,ACPT_experiment_5_30_19,3.1.0,59.955822762602885,
,,,C,D,y,b,R,D,g,R,i,,,,,5,19,119,11,4,0,4,0,,,,,0,33,33,3,,,,,,up,0.4503415648377995,2487.638290820477,None,001,64,2019_Oct_25_1158,ACPT_experiment_5_30_19,3.1.0,59.955822762602885,
,,,C,D,y,b,R,U,g,L,u,,,,,5,19,119,11,4,0,4,0,,,,,0,34,34,10,,,,,,up,0.6004692045280535,2489.372942740083,None,001,64,2019_Oct_25_1158,ACPT_experiment_5_30_19,3.1.0,59.955822762602885,
,,,C,D,y,b,R,D,y,L,y,,,,,5,19,119,11,4,0,4,0,,,,,0,35,35,26,,,,,,down,0.5501450265801395,2491.274666668277,None,001,64,2019_Oct_25_1158,ACPT_experiment_5_30_19,3.1.0,59.955822762602885,
,,,C,D,y,b,R,U,d,R,u,,,,,5,19,119,11,4,0,4,0,,,,,1,0,36,9,,,,,,up,0.6504996768635465,2493.109124766326,None,001,64,2019_Oct_25_1158,ACPT_experiment_5_30_19,3.1.0,59.955822762602885,
,,,C,D,y,b,R,G,y,L,y,,,,,5,19,119,11,4,0,4,0,,,,,1,1,37,28,,,,,,up,0.5671410128043135,2495.043910045789,None,001,64,2019_Oct_25_1158,ACPT_experiment_5_30_19,3.1.0,59.955822762602885,
,,,C,D,y,b,R,U,g,R,u,,,,,5,19,119,11,4,0,4,0,,,,,1,2,38,11,,,,,,up,0.5504000946611995,2496.8953478298536,None,001,64,2019_Oct_25_1158,ACPT_experiment_5_30_19,3.1.0,59.955822762602885,
,,,C,D,y,b,R,D,g,L,i,,,,,5,19,119,11,4,0,4,0,,,,,1,3,39,2,,,,,,up,0.4670369027671768,2498.730089974134,None,001,64,2019_Oct_25_1158,ACPT_experiment_5_30_19,3.1.0,59.955822762602885,
,,,C,D,y,b,L,U,g,L,u,,,,,5,19,119,11,4,0,4,0,,,,,1,4,40,22,,,,,,up,1.0508050341086346,2500.4814100646545,None,001,64,2019_Oct_25_1158,ACPT_experiment_5_30_19,3.1.0,59.955822762602885,
,,,C,D,y,b,R,U,y,L,u,,,,,5,19,119,11,4,0,4,0,,,,,1,5,41,30,,,,,,down,0.5504290728113119,2502.816520623839,None,001,64,2019_Oct_25_1158,ACPT_experiment_5_30_19,3.1.0,59.955822762602885,
,,,C,D,y,b,R,G,d,L,i,,,,,5,19,119,11,4,0,4,0,,,,,1,6,42,4,,,,,,up,0.43336218067815935,2504.668228266917,None,001,64,2019_Oct_25_1158,ACPT_experiment_5_30_19,3.1.0,59.955822762602885,
,,,C,D,y,b,L,D,y,R,y,,,,,5,19,119,11,4,0,4,0,,,,,1,7,43,33,,,,,,down,0.5836199201830823,2506.4027386161906,None,001,64,2019_Oct_25_1158,ACPT_experiment_5_30_19,3.1.0,59.955822762602885,
,,,C,D,y,b,L,U,g,R,u,,,,,5,19,119,11,4,0,4,0,,,,,1,8,44,23,,,,,,up,0.4670000763699136,2508.2873820385585,None,001,64,2019_Oct_25_1158,ACPT_experiment_5_30_19,3.1.0,59.955822762602885,
,,,C,D,y,b,L,G,d,L,i,,,,,5,19,119,11,4,0,4,0,,,,,1,9,45,16,,,,,,up,0.583808278151082,2510.038692469696,None,001,64,2019_Oct_25_1158,ACPT_experiment_5_30_19,3.1.0,59.955822762602885,
,,,C,D,y,b,R,U,y,R,u,,,,,5,19,119,11,4,0,4,0,,,,,1,10,46,31,,,,,,down,0.4665838173332304,2511.9239015696803,None,001,64,2019_Oct_25_1158,ACPT_experiment_5_30_19,3.1.0,59.955822762602885,
,,,C,D,y,b,L,U,y,R,u,,,,,5,19,119,11,4,0,4,0,,,,,1,11,47,25,,,,,,down,0.4501658848103034,2513.6916178591127,None,001,64,2019_Oct_25_1158,ACPT_experiment_5_30_19,3.1.0,59.955822762602885,
,,,C,D,y,b,L,G,g,L,c ,,,,,5,19,119,11,4,0,4,0,,,,,1,12,48,18,,,,,,up,0.5837684331963828,2515.442817207346,None,001,64,2019_Oct_25_1158,ACPT_experiment_5_30_19,3.1.0,59.955822762602885,
,,,C,D,y,b,L,G,y,R,y,,,,,5,19,119,11,4,0,4,0,,,,,1,13,49,35,,,,,,down,0.38362511210198136,2517.3109056546937,None,001,64,2019_Oct_25_1158,ACPT_experiment_5_30_19,3.1.0,59.955822762602885,
,,,C,D,y,b,L,G,d,R,i,,,,,5,19,119,11,4,0,4,0,,,,,1,14,50,17,,,,,,up,0.5304072848648502,2518.998856570539,None,001,64,2019_Oct_25_1158,ACPT_experiment_5_30_19,3.1.0,59.955822762602885,
,,,C,D,y,b,L,D,d,L,c ,,,,,5,19,119,11,4,0,4,0,,,,,1,15,51,12,,,,,,up,0.600462865559166,2520.813574512028,None,001,64,2019_Oct_25_1158,ACPT_experiment_5_30_19,3.1.0,59.955822762602885,
,,,C,D,y,b,R,D,y,L,y,,,,,5,19,119,11,4,0,4,0,,,,,1,16,52,26,,,,,,down,0.600457130299219,2522.6983462230755,None,001,64,2019_Oct_25_1158,ACPT_experiment_5_30_19,3.1.0,59.955822762602885,
,,,C,D,y,b,R,G,g,L,c ,,,,,5,19,119,11,4,0,4,0,,,,,1,17,53,6,,,,,,up,0.6338333170833721,2524.583110387731,None,001,64,2019_Oct_25_1158,ACPT_experiment_5_30_19,3.1.0,59.955822762602885,
,,,C,D,y,b,L,D,g,R,i,,,,,5,19,119,11,4,0,4,0,,,,,1,18,54,15,,,,,,up,0.6504933378937494,2526.5012465131895,None,001,64,2019_Oct_25_1158,ACPT_experiment_5_30_19,3.1.0,59.955822762602885,
,,,C,D,y,b,L,D,y,L,y,,,,,5,19,119,11,4,0,4,0,,,,,1,19,55,32,,,,,,down,0.5337639204535662,2528.4193524530756,None,001,64,2019_Oct_25_1158,ACPT_experiment_5_30_19,3.1.0,59.955822762602885,
,,,C,D,y,b,R,G,g,R,c ,,,,,5,19,119,11,4,0,4,0,,,,,1,20,56,7,,,,,,up,0.5003801872771874,2530.237424011596,None,001,64,2019_Oct_25_1158,ACPT_experiment_5_30_19,3.1.0,59.955822762602885,
,,,C,D,y,b,L,D,d,R,c ,,,,,5,19,119,11,4,0,4,0,,,,,1,21,57,13,,,,,,up,0.533466290715296,2532.039068581921,None,001,64,2019_Oct_25_1158,ACPT_experiment_5_30_19,3.1.0,59.955822762602885,
,,,C,D,y,b,L,G,y,L,y,,,,,5,19,119,11,4,0,4,0,,,,,1,22,58,34,,,,,,down,0.6004788639120306,2533.856827116061,None,001,64,2019_Oct_25_1158,ACPT_experiment_5_30_19,3.1.0,59.955822762602885,
,,,C,D,y,b,L,D,g,L,i,,,,,5,19,119,11,4,0,4,0,,,,,1,23,59,14,,,,,,up,0.5671002622821106,2535.7416202588656,None,001,64,2019_Oct_25_1158,ACPT_experiment_5_30_19,3.1.0,59.955822762602885,
,,,C,D,y,b,R,D,y,R,y,,,,,5,19,119,11,4,0,4,0,,,,,1,24,60,27,,,,,,down,0.5837645090723527,2537.609715950751,None,001,64,2019_Oct_25_1158,ACPT_experiment_5_30_19,3.1.0,59.955822762602885,
,,,C,D,y,b,L,U,d,R,u,,,,,5,19,119,11,4,0,4,0,,,,,1,25,61,21,,,,,,up,0.46701939513604884,2539.4944831339626,None,001,64,2019_Oct_25_1158,ACPT_experiment_5_30_19,3.1.0,59.955822762602885,
,,,C,D,y,b,R,D,g,R,i,,,,,5,19,119,11,4,0,4,0,,,,,1,26,62,3,,,,,,up,0.4002984145636219,2541.2458201284035,None,001,64,2019_Oct_25_1158,ACPT_experiment_5_30_19,3.1.0,59.955822762602885,
,,,C,D,y,b,L,U,d,L,u,,,,,5,19,119,11,4,0,4,0,,,,,1,27,63,20,,,,,,up,0.6003228045055948,2542.9305469233204,None,001,64,2019_Oct_25_1158,ACPT_experiment_5_30_19,3.1.0,59.955822762602885,
,,,C,D,y,b,L,U,y,L,u,,,,,5,19,119,11,4,0,4,0,,,,,1,28,64,24,,,,,,down,0.6669526246505484,2544.865488865901,None,001,64,2019_Oct_25_1158,ACPT_experiment_5_30_19,3.1.0,59.955822762602885,
,,,C,D,y,b,R,D,d,R,c ,,,,,5,19,119,11,4,0,4,0,,,,,1,29,65,1,,,,,,up,0.5170613379868882,2546.8334103568513,None,001,64,2019_Oct_25_1158,ACPT_experiment_5_30_19,3.1.0,59.955822762602885,
,,,C,D,y,b,L,G,g,R,c ,,,,,5,19,119,11,4,0,4,0,,,,,1,30,66,19,,,,,,up,0.4336697716544222,2548.634779031049,None,001,64,2019_Oct_25_1158,ACPT_experiment_5_30_19,3.1.0,59.955822762602885,
,,,C,D,y,b,R,U,g,L,u,,,,,5,19,119,11,4,0,4,0,,,,,1,31,67,10,,,,,,up,0.5170785437640006,2550.3527389331393,None,001,64,2019_Oct_25_1158,ACPT_experiment_5_30_19,3.1.0,59.955822762602885,
,,,C,D,y,b,R,G,d,R,i,,,,,5,19,119,11,4,0,4,0,,,,,1,32,68,5,,,,,,up,0.45011638047253655,2552.170999755195,None,001,64,2019_Oct_25_1158,ACPT_experiment_5_30_19,3.1.0,59.955822762602885,
,,,C,D,y,b,R,G,y,R,y,,,,,5,19,119,11,4,0,4,0,,,,,1,33,69,29,,,,,,down,0.6504939416054185,2553.905466637246,None,001,64,2019_Oct_25_1158,ACPT_experiment_5_30_19,3.1.0,59.955822762602885,
,,,C,D,y,b,R,D,d,L,c,,,,,5,19,119,11,4,0,4,0,,,,,1,34,70,0,,,,,,up,0.5504154893033046,2555.840276668878,None,001,64,2019_Oct_25_1158,ACPT_experiment_5_30_19,3.1.0,59.955822762602885,
,,,C,D,y,b,R,U,d,L,u,,,,,5,19,119,11,4,0,4,0,,,,,1,35,71,8,,,,,,up,0.517092429126933,2557.674982288616,None,001,64,2019_Oct_25_1158,ACPT_experiment_5_30_19,3.1.0,59.955822762602885,
,,,C,D,y,b,,,,,,,,,,5,19,119,11,5,0,5,0,0,0,0,0,,,,,,,,,,,,,,001,64,2019_Oct_25_1158,ACPT_experiment_5_30_19,3.1.0,59.955822762602885,
,,,C,D,y,b,L,D,y,L,y,,,,,5,19,119,11,5,0,5,0,,,,,0,0,0,32,,,,,,down,0.6838399428170305,2575.7054310786425,None,001,64,2019_Oct_25_1158,ACPT_experiment_5_30_19,3.1.0,59.955822762602885,
,,,C,D,y,b,L,D,d,R,c ,,,,,5,19,119,11,5,0,5,0,,,,,0,1,1,13,,,,,,up,0.4003219593096219,2577.6568800011837,None,001,64,2019_Oct_25_1158,ACPT_experiment_5_30_19,3.1.0,59.955822762602885,
,,,C,D,y,b,R,U,d,L,u,,,,,5,19,119,11,5,0,5,0,,,,,0,2,2,8,,,,,,up,0.6504975638736141,2579.341519559798,None,001,64,2019_Oct_25_1158,ACPT_experiment_5_30_19,3.1.0,59.955822762602885,
,,,C,D,y,b,L,G,g,R,c ,,,,,5,19,119,11,5,0,5,0,,,,,0,3,3,19,,,,,,up,0.3835955302411094,2581.2763525324644,None,001,64,2019_Oct_25_1158,ACPT_experiment_5_30_19,3.1.0,59.955822762602885,
,,,C,D,y,b,R,D,d,R,c ,,,,,5,19,119,11,5,0,5,0,,,,,0,4,4,1,,,,,,up,0.3833477066964406,2582.96122391627,None,001,64,2019_Oct_25_1158,ACPT_experiment_5_30_19,3.1.0,59.955822762602885,
,,,C,D,y,b,R,G,y,R,y,,,,,5,19,119,11,5,0,5,0,,,,,0,5,5,29,,,,,,down,0.5170543953054221,2584.6288877129937,None,001,64,2019_Oct_25_1158,ACPT_experiment_5_30_19,3.1.0,59.955822762602885,
,,,C,D,y,b,R,U,y,L,u,,,,,5,19,119,11,5,0,5,0,,,,,0,6,6,30,,,,,,down,0.6004535080310234,2586.4302618205948,None,001,64,2019_Oct_25_1158,ACPT_experiment_5_30_19,3.1.0,59.955822762602885,
,,,C,D,y,b,R,D,g,R,i,,,,,5,19,119,11,5,0,5,0,,,,,0,7,7,3,,,,,,up,0.40034490034395276,2588.3150371539114,None,001,64,2019_Oct_25_1158,ACPT_experiment_5_30_19,3.1.0,59.955822762602885,
,,,C,D,y,b,L,U,g,R,u,,,,,5,19,119,11,5,0,5,0,,,,,0,8,8,23,,,,,,up,0.4166991413112555,2590.016634966785,None,001,64,2019_Oct_25_1158,ACPT_experiment_5_30_19,3.1.0,59.955822762602885,
,,,C,D,y,b,L,G,d,R,i,,,,,5,19,119,11,5,0,5,0,,,,,0,9,9,17,,,,,,up,0.36697233582981426,2591.717597373373,None,001,64,2019_Oct_25_1158,ACPT_experiment_5_30_19,3.1.0,59.955822762602885,
,,,C,D,y,b,L,D,y,R,y,,,,,5,19,119,11,5,0,5,0,,,,,0,10,10,33,,,,,,down,0.3836266213802446,2593.3688794602576,None,001,64,2019_Oct_25_1158,ACPT_experiment_5_30_19,3.1.0,59.955822762602885,
,,,C,D,y,b,L,G,g,L,c ,,,,,5,19,119,11,5,0,5,0,,,,,0,11,11,18,,,,,,up,0.5837729610329916,2595.0368260957894,None,001,64,2019_Oct_25_1158,ACPT_experiment_5_30_19,3.1.0,59.955822762602885,
,,,C,D,y,b,R,D,d,L,c,,,,,5,19,119,11,5,0,5,0,,,,,0,12,12,0,,,,,,up,0.4500650650006719,2596.9218673639934,None,001,64,2019_Oct_25_1158,ACPT_experiment_5_30_19,3.1.0,59.955822762602885,
,,,C,D,y,b,L,D,g,R,i,,,,,5,19,119,11,5,0,5,0,,,,,0,13,13,15,,,,,,down,0.3502866572825951,2598.6562216538614,None,001,64,2019_Oct_25_1158,ACPT_experiment_5_30_19,3.1.0,59.955822762602885,
,,,C,D,y,b,L,U,y,R,u,,,,,5,19,119,11,5,0,5,0,,,,,0,14,14,25,,,,,,down,0.46702120626923715,2600.3075013259013,None,001,64,2019_Oct_25_1158,ACPT_experiment_5_30_19,3.1.0,59.955822762602885,
,,,C,D,y,b,R,G,y,L,y,,,,,5,19,119,11,5,0,5,0,,,,,0,15,15,28,,,,,,down,0.5504363173477032,2602.0754941151718,None,001,64,2019_Oct_25_1158,ACPT_experiment_5_30_19,3.1.0,59.955822762602885,
,,,C,D,y,b,R,U,g,R,u,,,,,5,19,119,11,5,0,5,0,,,,,0,16,16,11,,,,,,up,0.4999120090578799,2603.9273692881734,None,001,64,2019_Oct_25_1158,ACPT_experiment_5_30_19,3.1.0,59.955822762602885,
,,,C,D,y,b,R,D,y,R,y,,,,,5,19,119,11,5,0,5,0,,,,,0,17,17,27,,,,,,down,0.4670375064788459,2605.711626969118,None,001,64,2019_Oct_25_1158,ACPT_experiment_5_30_19,3.1.0,59.955822762602885,
,,,C,D,y,b,R,G,g,R,c ,,,,,5,19,119,11,5,0,5,0,,,,,0,18,18,7,,,,,,up,0.48370175326817844,2607.462957624589,None,001,64,2019_Oct_25_1158,ACPT_experiment_5_30_19,3.1.0,59.955822762602885,
,,,C,D,y,b,R,G,d,L,i,,,,,5,19,119,11,5,0,5,0,,,,,0,19,19,4,,,,,,up,0.5337551666380023,2609.214272281706,None,001,64,2019_Oct_25_1158,ACPT_experiment_5_30_19,3.1.0,59.955822762602885,
,,,C,D,y,b,L,G,y,R,y,,,,,5,19,119,11,5,0,5,0,,,,,0,20,20,35,,,,,,down,0.5168358517657907,2611.0658908773466,None,001,64,2019_Oct_25_1158,ACPT_experiment_5_30_19,3.1.0,59.955822762602885,
,,,C,D,y,b,R,G,g,L,c ,,,,,5,19,119,11,5,0,5,0,,,,,0,21,21,6,,,,,,up,0.5169511606500237,2612.8837656259384,None,001,64,2019_Oct_25_1158,ACPT_experiment_5_30_19,3.1.0,59.955822762602885,
,,,C,D,y,b,L,G,d,L,i,,,,,5,19,119,11,5,0,5,0,,,,,0,22,22,16,,,,,,up,0.8506457146595494,2614.685130677868,None,001,64,2019_Oct_25_1158,ACPT_experiment_5_30_19,3.1.0,59.955822762602885,
,,,C,D,y,b,L,D,d,L,c ,,,,,5,19,119,11,5,0,5,0,,,,,0,23,23,12,,,,,,up,0.6338644082225073,2616.8033856741085,None,001,64,2019_Oct_25_1158,ACPT_experiment_5_30_19,3.1.0,59.955822762602885,
,,,C,D,y,b,L,U,d,L,u,,,,,5,19,119,11,5,0,5,0,,,,,0,24,24,20,,,,,,up,0.5001067059956767,2618.7218133921915,None,001,64,2019_Oct_25_1158,ACPT_experiment_5_30_19,3.1.0,59.955822762602885,
,,,C,D,y,b,R,U,g,L,u,,,,,5,19,119,11,5,0,5,0,,,,,0,25,25,10,,,,,,up,0.5671038845512157,2620.5062265288316,None,001,64,2019_Oct_25_1158,ACPT_experiment_5_30_19,3.1.0,59.955822762602885,
,,,C,D,y,b,R,U,d,R,u,,,,,5,19,119,11,5,0,5,0,,,,,0,26,26,9,,,,,,up,0.6004752416429255,2622.3409442227985,None,001,64,2019_Oct_25_1158,ACPT_experiment_5_30_19,3.1.0,59.955822762602885,
,,,C,D,y,b,R,D,y,L,y,,,,,5,19,119,11,5,0,5,0,,,,,0,27,27,26,,,,,,down,0.7172061683604625,2624.225737365603,None,001,64,2019_Oct_25_1158,ACPT_experiment_5_30_19,3.1.0,59.955822762602885,
,,,C,D,y,b,L,D,g,L,i,,,,,5,19,119,11,5,0,5,0,,,,,0,28,28,14,,,,,,up,0.6504939416054185,2626.2272623406916,None,001,64,2019_Oct_25_1158,ACPT_experiment_5_30_19,3.1.0,59.955822762602885,
,,,C,D,y,b,R,G,d,R,i,,,,,5,19,119,11,5,0,5,0,,,,,0,29,29,5,,,,,,up,0.5003765650089917,2628.1620690519103,None,001,64,2019_Oct_25_1158,ACPT_experiment_5_30_19,3.1.0,59.955822762602885,
,,,C,D,y,b,L,U,g,L,u,,,,,5,19,119,11,5,0,5,0,,,,,0,30,30,22,,,,,,up,0.4837159404878548,2629.946765027359,None,001,64,2019_Oct_25_1158,ACPT_experiment_5_30_19,3.1.0,59.955822762602885,
,,,C,D,y,b,L,U,d,R,u,,,,,5,19,119,11,5,0,5,0,,,,,0,31,31,21,,,,,,up,0.650218045478141,2631.715051522244,None,001,64,2019_Oct_25_1158,ACPT_experiment_5_30_19,3.1.0,59.955822762602885,
,,,C,D,y,b,L,G,y,L,y,,,,,5,19,119,11,5,0,5,0,,,,,0,32,32,34,,,,,,down,0.6671732811810216,2633.649581129913,None,001,64,2019_Oct_25_1158,ACPT_experiment_5_30_19,3.1.0,59.955822762602885,
,,,C,D,y,b,L,U,y,L,u,,,,,5,19,119,11,5,0,5,0,,,,,0,33,33,24,,,,,,down,0.6004652804040234,2635.6010843864833,None,001,64,2019_Oct_25_1158,ACPT_experiment_5_30_19,3.1.0,59.955822762602885,
,,,C,D,y,b,R,D,g,L,i,,,,,5,19,119,11,5,0,5,0,,,,,0,34,34,2,,,,,,up,0.5504067354877407,2637.485846136292,None,001,64,2019_Oct_25_1158,ACPT_experiment_5_30_19,3.1.0,59.955822762602885,
,,,C,D,y,b,R,U,y,R,u,,,,,5,19,119,11,5,0,5,0,,,,,0,35,35,31,,,,,,down,0.5504154893033046,2639.3205743952094,None,001,64,2019_Oct_25_1158,ACPT_experiment_5_30_19,3.1.0,59.955822762602885,
,,,C,D,y,b,L,G,g,L,c ,,,,,5,19,119,11,5,0,5,0,,,,,1,0,36,18,,,,,,up,0.7505892978260817,2641.155282731649,None,001,64,2019_Oct_25_1158,ACPT_experiment_5_30_19,3.1.0,59.955822762602885,
,,,C,D,y,b,R,G,d,L,i,,,,,5,19,119,11,5,0,5,0,,,,,1,1,37,4,,,,,,up,0.4836914901743512,2643.190197175174,None,001,64,2019_Oct_25_1158,ACPT_experiment_5_30_19,3.1.0,59.955822762602885,
,,,C,D,y,b,R,G,d,R,i,,,,,5,19,119,11,5,0,5,0,,,,,1,2,38,5,,,,,,up,0.5334741389642659,2644.95847159583,None,001,64,2019_Oct_25_1158,ACPT_experiment_5_30_19,3.1.0,59.955822762602885,
,,,C,D,y,b,L,G,d,L,i,,,,,5,19,119,11,5,0,5,0,,,,,1,3,39,16,,,,,,up,0.45038805061813036,2646.7762325448157,None,001,64,2019_Oct_25_1158,ACPT_experiment_5_30_19,3.1.0,59.955822762602885,
,,,C,D,y,b,R,D,g,R,i,,,,,5,19,119,11,5,0,5,0,,,,,1,4,40,3,,,,,,up,0.5004022227449241,2648.5108856718452,None,001,64,2019_Oct_25_1158,ACPT_experiment_5_30_19,3.1.0,59.955822762602885,
,,,C,D,y,b,R,U,d,R,u,,,,,5,19,119,11,5,0,5,0,,,,,1,5,41,9,,,,,,up,0.5670975455814187,2650.2956067013174,None,001,64,2019_Oct_25_1158,ACPT_experiment_5_30_19,3.1.0,59.955822762602885,
,,,C,D,y,b,L,G,y,R,y,,,,,5,19,119,11,5,0,5,0,,,,,1,6,42,35,,,,,,down,0.9340421106844587,2652.1970616760664,None,001,64,2019_Oct_25_1158,ACPT_experiment_5_30_19,3.1.0,59.955822762602885,
,,,C,D,y,b,R,D,y,R,y,,,,,5,19,119,11,5,0,5,0,,,,,1,7,43,27,,,,,,down,0.48367096398578724,2654.4321161202724,None,001,64,2019_Oct_25_1158,ACPT_experiment_5_30_19,3.1.0,59.955822762602885,
,,,C,D,y,b,R,U,g,R,u,,,,,5,19,119,11,5,0,5,0,,,,,1,8,44,11,,,,,,up,0.46704263802530477,2656.200140302538,None,001,64,2019_Oct_25_1158,ACPT_experiment_5_30_19,3.1.0,59.955822762602885,
,,,C,D,y,b,R,U,y,R,u,,,,,5,19,119,11,5,0,5,0,,,,,1,9,45,31,,,,,,down,0.5003979967641499,2657.9514250759394,None,001,64,2019_Oct_25_1158,ACPT_experiment_5_30_19,3.1.0,59.955822762602885,
,,,C,D,y,b,L,D,y,R,y,,,,,5,19,119,11,5,0,5,0,,,,,1,10,46,33,,,,,,down,0.4670103394646503,2659.75281970973,None,001,64,2019_Oct_25_1158,ACPT_experiment_5_30_19,3.1.0,59.955822762602885,
,,,C,D,y,b,L,U,g,L,u,,,,,5,19,119,11,5,0,5,0,,,,,1,11,47,22,,,,,,up,0.5670990548596819,2661.50414613922,None,001,64,2019_Oct_25_1158,ACPT_experiment_5_30_19,3.1.0,59.955822762602885,
,,,C,D,y,b,L,D,g,L,i,,,,,5,19,119,11,5,0,5,0,,,,,1,12,48,14,,,,,,up,0.5170830715996999,2663.355536230082,None,001,64,2019_Oct_25_1158,ACPT_experiment_5_30_19,3.1.0,59.955822762602885,
,,,C,D,y,b,R,D,d,R,c ,,,,,5,19,119,11,5,0,5,0,,,,,1,13,49,1,,,,,,up,0.41367183031161403,2665.176941785012,None,001,64,2019_Oct_25_1158,ACPT_experiment_5_30_19,3.1.0,59.955822762602885,
,,,C,D,y,b,R,U,g,L,u,,,,,5,19,119,11,5,0,5,0,,,,,1,14,50,10,,,,,,up,0.45033884813619807,2666.87490857545,None,001,64,2019_Oct_25_1158,ACPT_experiment_5_30_19,3.1.0,59.955822762602885,
,,,C,D,y,b,L,U,d,L,u,,,,,5,19,119,11,5,0,5,0,,,,,1,15,51,20,,,,,,up,0.5003735464515557,2668.609570456294,None,001,64,2019_Oct_25_1158,ACPT_experiment_5_30_19,3.1.0,59.955822762602885,
,,,C,D,y,b,L,G,y,L,y,,,,,5,19,119,11,5,0,5,0,,,,,1,16,52,34,,,,,,down,0.7336696810980357,2670.4111181309336,None,001,64,2019_Oct_25_1158,ACPT_experiment_5_30_19,3.1.0,59.955822762602885,
,,,C,D,y,b,L,D,g,R,i,,,,,5,19,119,11,5,0,5,0,,,,,1,17,53,15,,,,,,up,0.5337174346732354,2672.4625175189512,None,001,64,2019_Oct_25_1158,ACPT_experiment_5_30_19,3.1.0,59.955822762602885,
,,,C,D,y,b,L,G,g,R,c ,,,,,5,19,119,11,5,0,5,0,,,,,1,18,54,19,,,,,,up,0.7338957710317118,2674.2638720059313,None,001,64,2019_Oct_25_1158,ACPT_experiment_5_30_19,3.1.0,59.955822762602885,
,,,C,D,y,b,R,D,d,L,c,,,,,5,19,119,11,5,0,5,0,,,,,1,19,55,0,,,,,,up,0.5337207550855965,2676.2821013746207,None,001,64,2019_Oct_25_1158,ACPT_experiment_5_30_19,3.1.0,59.955822762602885,
,,,C,D,y,b,L,U,d,R,u,,,,,5,19,119,11,5,0,5,0,,,,,1,20,56,21,,,,,,up,0.5670896973324488,2678.100133390042,None,001,64,2019_Oct_25_1158,ACPT_experiment_5_30_19,3.1.0,59.955822762602885,
,,,C,D,y,b,L,U,y,L,u,,,,,5,19,119,11,5,0,5,0,,,,,1,21,57,24,,,,,,down,0.5835200059409544,2680.001832264211,None,001,64,2019_Oct_25_1158,ACPT_experiment_5_30_19,3.1.0,59.955822762602885,
,,,C,D,y,b,R,G,y,R,y,,,,,5,19,119,11,5,0,5,0,,,,,1,22,58,29,,,,,,down,0.3669732413964084,2681.8696538711038,None,001,64,2019_Oct_25_1158,ACPT_experiment_5_30_19,3.1.0,59.955822762602885,
,,,C,D,y,b,L,U,y,R,u,,,,,5,19,119,11,5,0,5,0,,,,,1,23,59,25,,,,,,down,0.4836975272883137,2683.537611071585,None,001,64,2019_Oct_25_1158,ACPT_experiment_5_30_19,3.1.0,59.955822762602885,
,,,C,D,y,b,L,D,y,L,y,,,,,5,19,119,11,5,0,5,0,,,,,1,24,60,32,,,,,,down,0.5003850169687212,2685.305628311169,None,001,64,2019_Oct_25_1158,ACPT_experiment_5_30_19,3.1.0,59.955822762602885,
