facing_vig,person_vig,text_vig,facing_train,person_train,food_train,correct_key_train,facing_exp,person_exp,food_exp,showL_R,consistent,vig_random.thisRepN,vig_random.thisTrialN,vig_random.thisN,vig_random.thisIndex,trainTrials.thisRepN,trainTrials.thisTrialN,trainTrials.thisN,trainTrials.thisIndex,expBlock.thisRepN,expBlock.thisTrialN,expBlock.thisN,expBlock.thisIndex,breakLoop.thisRepN,breakLoop.thisTrialN,breakLoop.thisN,breakLoop.thisIndex,expTrials.thisRepN,expTrials.thisTrialN,expTrials.thisN,expTrials.thisIndex,train_resp.keys,train_resp.corr,train_resp.rt,train_resp.started,train_resp.stopped,exp_resp.keys,exp_resp.rt,exp_resp.started,exp_resp.stopped,session,participant,date,expName,psychopyVersion,frameRate,
C,G,"cannot eat dairy products because she is lactose intolerant. She enjoys eating wheat products. She thinks eating insects, like crickets, is disgusting.",,,,,,,,,,0,0,0,0,,,,,,,,,,,,,,,,,,,,,,,,,,001,65,2019_Oct_25_1408,ACPT_experiment_5_30_19,3.1.0,59.96363636371449,
C,U,"did not report her food preferences, so her food preferences are unknown.",,,,,,,,,,0,1,1,2,,,,,,,,,,,,,,,,,,,,,,,,,,001,65,2019_Oct_25_1408,ACPT_experiment_5_30_19,3.1.0,59.96363636371449,
C,D,"is allergic to gluten, meaning she can’t eat wheat products. She enjoys eating dairy products. She thinks eating insects, like crickets, is disgusting.",,,,,,,,,,0,2,2,1,,,,,,,,,,,,,,,,,,,,,,,,,,001,65,2019_Oct_25_1408,ACPT_experiment_5_30_19,3.1.0,59.96363636371449,
,,,C,U,d,n,,,,,,,,,,0,0,0,15,,,,,,,,,,,,,n,1,3.052350535386722,950.1081144552372,None,,,,,001,65,2019_Oct_25_1408,ACPT_experiment_5_30_19,3.1.0,59.96363636371449,
,,,C,U,y,n,,,,,,,,,,0,1,1,17,,,,,,,,,,,,,n,1,1.2342943715066212,956.4296131326555,None,,,,,001,65,2019_Oct_25_1408,ACPT_experiment_5_30_19,3.1.0,59.96363636371449,
,,,C,G,d,b,,,,,,,,,,0,2,2,3,,,,,,,,,,,,,b,1,1.5512111809766793,960.9664230791641,None,,,,,001,65,2019_Oct_25_1408,ACPT_experiment_5_30_19,3.1.0,59.96363636371449,
,,,C,G,d,b,,,,,,,,,,0,3,3,12,,,,,,,,,,,,,b,1,1.6679575023372308,965.8034348765905,None,,,,,001,65,2019_Oct_25_1408,ACPT_experiment_5_30_19,3.1.0,59.96363636371449,
,,,C,D,y,b,,,,,,,,,,0,4,4,2,,,,,,,,,,,,,b,1,1.2509875964460662,970.7572144271344,None,,,,,001,65,2019_Oct_25_1408,ACPT_experiment_5_30_19,3.1.0,59.96363636371449,
,,,C,G,g,v,,,,,,,,,,0,5,5,4,,,,,,,,,,,,,v,1,1.0005421328714874,975.3109267845939,None,,,,,001,65,2019_Oct_25_1408,ACPT_experiment_5_30_19,3.1.0,59.96363636371449,
,,,C,G,y,b,,,,,,,,,,0,6,6,5,,,,,,,,,,,,,b,1,0.9841196725101327,979.5805956277418,None,,,,,001,65,2019_Oct_25_1408,ACPT_experiment_5_30_19,3.1.0,59.96363636371449,
,,,C,U,y,n,,,,,,,,,,0,7,7,8,,,,,,,,,,,,,n,1,1.1674034461666452,983.8673531268178,None,,,,,001,65,2019_Oct_25_1408,ACPT_experiment_5_30_19,3.1.0,59.96363636371449,
,,,C,D,d,v,,,,,,,,,,0,8,8,18,,,,,,,,,,,,,v,1,1.5678953502447257,988.3206190698565,None,,,,,001,65,2019_Oct_25_1408,ACPT_experiment_5_30_19,3.1.0,59.96363636371449,
,,,C,D,y,b,,,,,,,,,,0,9,9,11,,,,,,,,,,,,,b,1,1.0174668811469019,993.1576447526459,None,,,,,001,65,2019_Oct_25_1408,ACPT_experiment_5_30_19,3.1.0,59.96363636371449,
,,,C,D,g,b,,,,,,,,,,0,10,10,1,,,,,,,,,,,,,b,1,2.4485524659958173,997.4809316233404,None,,,,,001,65,2019_Oct_25_1408,ACPT_experiment_5_30_19,3.1.0,59.96363636371449,
,,,C,G,g,v,,,,,,,,,,0,11,11,13,,,,,,,,,,,,,v,1,1.6179179743303393,1003.2153200229059,None,,,,,001,65,2019_Oct_25_1408,ACPT_experiment_5_30_19,3.1.0,59.96363636371449,
,,,C,G,y,b,,,,,,,,,,0,12,12,14,,,,,,,,,,,,,b,1,0.8340050126171263,1008.1023598778211,None,,,,,001,65,2019_Oct_25_1408,ACPT_experiment_5_30_19,3.1.0,59.96363636371449,
,,,C,U,g,n,,,,,,,,,,0,13,13,7,,,,,,,,,,,,,b,0,2.6350645865586557,1012.2391572671313,None,,,,,001,65,2019_Oct_25_1408,ACPT_experiment_5_30_19,3.1.0,59.96363636371449,
,,,C,U,d,n,,,,,,,,,,0,14,14,6,,,,,,,,,,,,,v,0,2.068100763061011,1018.1600870672646,None,,,,,001,65,2019_Oct_25_1408,ACPT_experiment_5_30_19,3.1.0,59.96363636371449,
,,,C,D,g,b,,,,,,,,,,0,15,15,10,,,,,,,,,,,,,b,1,1.93482572812718,1023.5141448080376,None,,,,,001,65,2019_Oct_25_1408,ACPT_experiment_5_30_19,3.1.0,59.96363636371449,
,,,C,D,d,v,,,,,,,,,,0,16,16,9,,,,,,,,,,,,,v,1,1.901492404856981,1028.718091511184,None,,,,,001,65,2019_Oct_25_1408,ACPT_experiment_5_30_19,3.1.0,59.96363636371449,
,,,C,U,g,n,,,,,,,,,,0,17,17,16,,,,,,,,,,,,,n,1,1.651270918224327,1033.9054089828041,None,,,,,001,65,2019_Oct_25_1408,ACPT_experiment_5_30_19,3.1.0,59.96363636371449,
,,,C,D,d,v,,,,,,,,,,0,18,18,0,,,,,,,,,,,,,v,1,1.6345752784382057,1038.8425282106818,None,,,,,001,65,2019_Oct_25_1408,ACPT_experiment_5_30_19,3.1.0,59.96363636371449,
,,,C,G,g,v,,,,,,,,,,0,19,19,19,,,,,,,,,,,,,v,1,0.8840258255677327,1043.762928857739,None,,,,,001,65,2019_Oct_25_1408,ACPT_experiment_5_30_19,3.1.0,59.96363636371449,
,,,C,G,g,v,,,,,,,,,,1,0,20,13,,,,,,,,,,,,,v,1,0.7472631496657414,1047.9527864452302,None,,,,,001,65,2019_Oct_25_1408,ACPT_experiment_5_30_19,3.1.0,59.96363636371449,
,,,C,U,y,n,,,,,,,,,,1,1,21,17,,,,,,,,,,,,,n,1,1.5844291953635548,1051.9858788876372,None,,,,,001,65,2019_Oct_25_1408,ACPT_experiment_5_30_19,3.1.0,59.96363636371449,
,,,C,D,y,b,,,,,,,,,,1,2,22,11,,,,,,,,,,,,,b,1,1.3343737293762388,1056.8562363844212,None,,,,,001,65,2019_Oct_25_1408,ACPT_experiment_5_30_19,3.1.0,59.96363636371449,
,,,C,D,g,b,,,,,,,,,,1,3,23,10,,,,,,,,,,,,,b,1,2.9489359736853658,1061.4964621000527,None,,,,,001,65,2019_Oct_25_1408,ACPT_experiment_5_30_19,3.1.0,59.96363636371449,
,,,C,D,y,b,,,,,,,,,,1,4,24,2,,,,,,,,,,,,,b,1,1.134222258177033,1067.714525387726,None,,,,,001,65,2019_Oct_25_1408,ACPT_experiment_5_30_19,3.1.0,59.96363636371449,
,,,C,G,g,v,,,,,,,,,,1,5,25,19,,,,,,,,,,,,,v,1,1.017171666253489,1072.1515445504338,None,,,,,001,65,2019_Oct_25_1408,ACPT_experiment_5_30_19,3.1.0,59.96363636371449,
,,,C,D,d,v,,,,,,,,,,1,6,26,18,,,,,,,,,,,,,v,1,2.4185268776855082,1076.454546414996,None,,,,,001,65,2019_Oct_25_1408,ACPT_experiment_5_30_19,3.1.0,59.96363636371449,
,,,C,U,y,n,,,,,,,,,,1,7,27,8,,,,,,,,,,,,,n,1,1.067495240489734,1082.1589031891363,None,,,,,001,65,2019_Oct_25_1408,ACPT_experiment_5_30_19,3.1.0,59.96363636371449,
,,,C,G,y,b,,,,,,,,,,1,8,28,5,,,,,,,,,,,,,b,1,1.3007454930666427,1086.5291606207484,None,,,,,001,65,2019_Oct_25_1408,ACPT_experiment_5_30_19,3.1.0,59.96363636371449,
,,,C,U,d,n,,,,,,,,,,1,9,29,6,,,,,,,,,,,,,n,1,1.8013934263672127,1091.1157378214048,None,,,,,001,65,2019_Oct_25_1408,ACPT_experiment_5_30_19,3.1.0,59.96363636371449,
,,,C,U,g,n,,,,,,,,,,1,10,30,7,,,,,,,,,,,,,n,1,0.7172499374410108,1096.1862498079445,None,,,,,001,65,2019_Oct_25_1408,ACPT_experiment_5_30_19,3.1.0,59.96363636371449,
,,,C,G,d,b,,,,,,,,,,1,11,31,3,,,,,,,,,,,,,b,1,1.0341422965975653,1100.1893326603968,None,,,,,001,65,2019_Oct_25_1408,ACPT_experiment_5_30_19,3.1.0,59.96363636371449,
,,,C,G,g,v,,,,,,,,,,1,12,32,4,,,,,,,,,,,,,v,1,0.7339066378372081,1104.4926104210863,None,,,,,001,65,2019_Oct_25_1408,ACPT_experiment_5_30_19,3.1.0,59.96363636371449,
,,,C,U,d,n,,,,,,,,,,1,13,33,15,,,,,,,,,,,,,n,1,1.9012711446157482,1108.5293000780912,None,,,,,001,65,2019_Oct_25_1408,ACPT_experiment_5_30_19,3.1.0,59.96363636371449,
,,,C,U,g,n,,,,,,,,,,1,14,34,16,,,,,,,,,,,,,n,1,0.7839383175942203,1113.749675278712,None,,,,,001,65,2019_Oct_25_1408,ACPT_experiment_5_30_19,3.1.0,59.96363636371449,
,,,C,G,d,b,,,,,,,,,,1,15,35,12,,,,,,,,,,,,,b,1,1.0505421177786047,1117.836400237742,None,,,,,001,65,2019_Oct_25_1408,ACPT_experiment_5_30_19,3.1.0,59.96363636371449,
,,,C,G,y,b,,,,,,,,,,1,16,36,14,,,,,,,,,,,,,b,1,1.0007706376491114,1122.1560944216762,None,,,,,001,65,2019_Oct_25_1408,ACPT_experiment_5_30_19,3.1.0,59.96363636371449,
,,,C,D,d,v,,,,,,,,,,1,17,37,0,,,,,,,,,,,,,v,1,1.7509168112792395,1126.4597968933613,None,,,,,001,65,2019_Oct_25_1408,ACPT_experiment_5_30_19,3.1.0,59.96363636371449,
,,,C,D,d,v,,,,,,,,,,1,18,38,9,,,,,,,,,,,,,v,1,1.0508204287507397,1131.479870902347,None,,,,,001,65,2019_Oct_25_1408,ACPT_experiment_5_30_19,3.1.0,59.96363636371449,
,,,C,D,g,b,,,,,,,,,,1,19,39,1,,,,,,,,,,,,,b,1,1.0005107398737891,1135.8167802197568,None,,,,,001,65,2019_Oct_25_1408,ACPT_experiment_5_30_19,3.1.0,59.96363636371449,
,,,C,G,y,b,,,,,,,,,,2,0,40,5,,,,,,,,,,,,,b,1,0.9674210141693038,1140.1031124041274,None,,,,,001,65,2019_Oct_25_1408,ACPT_experiment_5_30_19,3.1.0,59.96363636371449,
,,,C,G,d,b,,,,,,,,,,2,1,41,12,,,,,,,,,,,,,b,1,1.1175417111771822,1144.3396749195035,None,,,,,001,65,2019_Oct_25_1408,ACPT_experiment_5_30_19,3.1.0,59.96363636371449,
,,,C,D,d,v,,,,,,,,,,2,2,42,9,,,,,,,,,,,,,v,1,0.884042427631357,1148.743043810433,None,,,,,001,65,2019_Oct_25_1408,ACPT_experiment_5_30_19,3.1.0,59.96363636371449,
,,,C,D,d,v,,,,,,,,,,2,3,43,18,,,,,,,,,,,,,v,1,0.6505132603706443,1152.9128880619392,None,,,,,001,65,2019_Oct_25_1408,ACPT_experiment_5_30_19,3.1.0,59.96363636371449,
,,,C,D,y,b,,,,,,,,,,2,4,44,2,,,,,,,,,,,,,b,1,0.7505959386526229,1156.8325473513523,None,,,,,001,65,2019_Oct_25_1408,ACPT_experiment_5_30_19,3.1.0,59.96363636371449,
,,,C,U,g,n,,,,,,,,,,2,5,45,16,,,,,,,,,,,,,n,1,1.2507207559901872,1160.8859018588573,None,,,,,001,65,2019_Oct_25_1408,ACPT_experiment_5_30_19,3.1.0,59.96363636371449,
,,,C,D,y,b,,,,,,,,,,2,6,46,11,,,,,,,,,,,,,b,1,0.7672598835870303,1165.422434701817,None,,,,,001,65,2019_Oct_25_1408,ACPT_experiment_5_30_19,3.1.0,59.96363636371449,
,,,C,U,y,n,,,,,,,,,,2,7,47,17,,,,,,,,,,,,,n,1,1.0672401724077645,1169.4924610025046,None,,,,,001,65,2019_Oct_25_1408,ACPT_experiment_5_30_19,3.1.0,59.96363636371449,
,,,C,U,d,n,,,,,,,,,,2,8,48,15,,,,,,,,,,,,,n,1,1.1175568039634527,1173.8288239610665,None,,,,,001,65,2019_Oct_25_1408,ACPT_experiment_5_30_19,3.1.0,59.96363636371449,
,,,C,U,g,n,,,,,,,,,,2,9,49,7,,,,,,,,,,,,,n,1,0.766987911585602,1178.2324817279186,None,,,,,001,65,2019_Oct_25_1408,ACPT_experiment_5_30_19,3.1.0,59.96363636371449,
,,,C,D,d,v,,,,,,,,,,2,10,50,0,,,,,,,,,,,,,v,1,1.1842451841184811,1182.2853031582254,None,,,,,001,65,2019_Oct_25_1408,ACPT_experiment_5_30_19,3.1.0,59.96363636371449,
,,,C,G,y,b,,,,,,,,,,2,11,51,14,,,,,,,,,,,,,b,1,0.70027568482692,1186.772322607696,None,,,,,001,65,2019_Oct_25_1408,ACPT_experiment_5_30_19,3.1.0,59.96363636371449,
,,,C,G,g,v,,,,,,,,,,2,12,52,19,,,,,,,,,,,,,v,1,0.7839688050225959,1190.7417253046551,None,,,,,001,65,2019_Oct_25_1408,ACPT_experiment_5_30_19,3.1.0,59.96363636371449,
,,,C,G,g,v,,,,,,,,,,2,13,53,4,,,,,,,,,,,,,v,1,0.666908855571819,1194.8117959781357,None,,,,,001,65,2019_Oct_25_1408,ACPT_experiment_5_30_19,3.1.0,59.96363636371449,
,,,C,U,d,n,,,,,,,,,,2,14,54,6,,,,,,,,,,,,,n,1,1.6179092205147754,1198.7645401635637,None,,,,,001,65,2019_Oct_25_1408,ACPT_experiment_5_30_19,3.1.0,59.96363636371449,
,,,C,D,g,b,,,,,,,,,,2,15,55,1,,,,,,,,,,,,,b,1,2.2517476691464253,1203.6682753564091,None,,,,,001,65,2019_Oct_25_1408,ACPT_experiment_5_30_19,3.1.0,59.96363636371449,
,,,C,U,y,n,,,,,,,,,,2,16,56,8,,,,,,,,,,,,,n,1,0.9507286947973626,1209.205836018089,None,,,,,001,65,2019_Oct_25_1408,ACPT_experiment_5_30_19,3.1.0,59.96363636371449,
,,,C,G,d,b,,,,,,,,,,2,17,57,3,,,,,,,,,,,,,b,1,0.9340768240908801,1213.442410607693,None,,,,,001,65,2019_Oct_25_1408,ACPT_experiment_5_30_19,3.1.0,59.96363636371449,
,,,C,D,g,b,,,,,,,,,,2,18,58,10,,,,,,,,,,,,,b,1,2.0682610484491306,1217.6622841241096,None,,,,,001,65,2019_Oct_25_1408,ACPT_experiment_5_30_19,3.1.0,59.96363636371449,
,,,C,G,g,v,,,,,,,,,,2,19,59,13,,,,,,,,,,,,,v,1,1.2009311645197158,1223.0163717485993,None,,,,,001,65,2019_Oct_25_1408,ACPT_experiment_5_30_19,3.1.0,59.96363636371449,
,,,C,G,d,b,,,,,,,,,,3,0,60,12,,,,,,,,,,,,,b,1,0.9674143733445817,1227.4864534699973,None,,,,,001,65,2019_Oct_25_1408,ACPT_experiment_5_30_19,3.1.0,59.96363636371449,
,,,C,D,y,b,,,,,,,,,,3,1,61,2,,,,,,,,,,,,,b,1,1.2342819954228617,1231.7396898915467,None,,,,,001,65,2019_Oct_25_1408,ACPT_experiment_5_30_19,3.1.0,59.96363636371449,
,,,C,U,d,n,,,,,,,,,,3,2,62,15,,,,,,,,,,,,,n,1,1.0338820969682274,1236.2767322669588,None,,,,,001,65,2019_Oct_25_1408,ACPT_experiment_5_30_19,3.1.0,59.96363636371449,
,,,C,U,g,n,,,,,,,,,,3,3,63,16,,,,,,,,,,,,,n,1,0.7672677318350907,1240.57976733565,None,,,,,001,65,2019_Oct_25_1408,ACPT_experiment_5_30_19,3.1.0,59.96363636371449,
,,,C,D,y,b,,,,,,,,,,3,4,64,11,,,,,,,,,,,,,b,1,1.0338129720075813,1244.6665620233507,None,,,,,001,65,2019_Oct_25_1408,ACPT_experiment_5_30_19,3.1.0,59.96363636371449,
,,,C,G,g,v,,,,,,,,,,3,5,65,4,,,,,,,,,,,,,v,1,1.2509679758259153,1248.9861768192313,None,,,,,001,65,2019_Oct_25_1408,ACPT_experiment_5_30_19,3.1.0,59.96363636371449,
,,,C,D,d,v,,,,,,,,,,3,6,66,9,,,,,,,,,,,,,v,1,1.8845670528698975,1253.5399226826758,None,,,,,001,65,2019_Oct_25_1408,ACPT_experiment_5_30_19,3.1.0,59.96363636371449,
,,,C,G,d,b,,,,,,,,,,3,7,67,3,,,,,,,,,,,,,b,1,0.7838320643822954,1258.7102411495143,None,,,,,001,65,2019_Oct_25_1408,ACPT_experiment_5_30_19,3.1.0,59.96363636371449,
,,,C,U,g,n,,,,,,,,,,3,8,68,7,,,,,,,,,,,,,n,1,0.9836774538835016,1262.7970934916593,None,,,,,001,65,2019_Oct_25_1408,ACPT_experiment_5_30_19,3.1.0,59.96363636371449,
,,,C,G,g,v,,,,,,,,,,3,9,69,19,,,,,,,,,,,,,v,1,1.2176159374976123,1267.0666343479807,None,,,,,001,65,2019_Oct_25_1408,ACPT_experiment_5_30_19,3.1.0,59.96363636371449,
,,,C,D,g,b,,,,,,,,,,3,10,70,1,,,,,,,,,,,,,b,1,1.584308754932863,1271.5870185137173,None,,,,,001,65,2019_Oct_25_1408,ACPT_experiment_5_30_19,3.1.0,59.96363636371449,
,,,C,U,y,n,,,,,,,,,,3,11,71,17,,,,,,,,,,,,,n,1,0.8840279385567555,1276.457129696233,None,,,,,001,65,2019_Oct_25_1408,ACPT_experiment_5_30_19,3.1.0,59.96363636371449,
,,,C,U,d,n,,,,,,,,,,3,12,72,6,,,,,,,,,,,,,n,1,0.9504932473373628,1280.643927976018,None,,,,,001,65,2019_Oct_25_1408,ACPT_experiment_5_30_19,3.1.0,59.96363636371449,
,,,C,D,d,v,,,,,,,,,,3,13,73,0,,,,,,,,,,,,,v,1,2.7521299694144545,1284.8802155008343,None,,,,,001,65,2019_Oct_25_1408,ACPT_experiment_5_30_19,3.1.0,59.96363636371449,
,,,C,G,y,b,,,,,,,,,,3,14,74,14,,,,,,,,,,,,,b,1,1.3176605819608085,1290.934859234114,None,,,,,001,65,2019_Oct_25_1408,ACPT_experiment_5_30_19,3.1.0,59.96363636371449,
,,,C,D,d,v,,,,,,,,,,3,15,75,18,,,,,,,,,,,,,v,1,1.2672398101822182,1295.5720887298849,None,,,,,001,65,2019_Oct_25_1408,ACPT_experiment_5_30_19,3.1.0,59.96363636371449,
,,,C,D,g,b,,,,,,,,,,3,16,76,10,,,,,,,,,,,,,b,1,1.3343390159698174,1300.125197375908,None,,,,,001,65,2019_Oct_25_1408,ACPT_experiment_5_30_19,3.1.0,59.96363636371449,
,,,C,U,y,n,,,,,,,,,,3,17,77,8,,,,,,,,,,,,,n,1,0.8837505331539433,1304.7623040164017,None,,,,,001,65,2019_Oct_25_1408,ACPT_experiment_5_30_19,3.1.0,59.96363636371449,
,,,C,G,g,v,,,,,,,,,,3,18,78,13,,,,,,,,,,,,,v,1,1.267647919112278,1308.9318983313715,None,,,,,001,65,2019_Oct_25_1408,ACPT_experiment_5_30_19,3.1.0,59.96363636371449,
,,,C,G,y,b,,,,,,,,,,3,19,79,5,,,,,,,,,,,,,b,1,0.6836138528833544,1313.4856454022392,None,,,,,001,65,2019_Oct_25_1408,ACPT_experiment_5_30_19,3.1.0,59.96363636371449,
,,,C,D,d,v,,,,,,,,,,4,0,80,18,,,,,,,,,,,,,b,0,1.634592484215318,1317.4550704365229,None,,,,,001,65,2019_Oct_25_1408,ACPT_experiment_5_30_19,3.1.0,59.96363636371449,
,,,C,G,g,v,,,,,,,,,,4,1,81,4,,,,,,,,,,,,,v,1,1.0508098638001684,1322.375487081934,None,,,,,001,65,2019_Oct_25_1408,ACPT_experiment_5_30_19,3.1.0,59.96363636371449,
,,,C,U,g,n,,,,,,,,,,4,2,82,7,,,,,,,,,,,,,n,1,1.6675463748488255,1326.7292016127558,None,,,,,001,65,2019_Oct_25_1408,ACPT_experiment_5_30_19,3.1.0,59.96363636371449,
,,,C,U,g,n,,,,,,,,,,4,3,83,16,,,,,,,,,,,,,n,1,0.850693709719053,1331.6658795275725,None,,,,,001,65,2019_Oct_25_1408,ACPT_experiment_5_30_19,3.1.0,59.96363636371449,
,,,C,G,d,b,,,,,,,,,,4,4,84,3,,,,,,,,,,,,,b,1,1.0506323726367555,1335.819223741797,None,,,,,001,65,2019_Oct_25_1408,ACPT_experiment_5_30_19,3.1.0,59.96363636371449,
,,,C,D,y,b,,,,,,,,,,4,5,85,11,,,,,,,,,,,,,b,1,1.034125090820453,1340.1557273651233,None,,,,,001,65,2019_Oct_25_1408,ACPT_experiment_5_30_19,3.1.0,59.96363636371449,
,,,C,D,d,v,,,,,,,,,,4,6,86,9,,,,,,,,,,,,,v,1,2.535011490139368,1344.4759410427487,None,,,,,001,65,2019_Oct_25_1408,ACPT_experiment_5_30_19,3.1.0,59.96363636371449,
,,,C,G,d,b,,,,,,,,,,4,7,87,12,,,,,,,,,,,,,b,1,0.6505165807848243,1350.2967779015053,None,,,,,001,65,2019_Oct_25_1408,ACPT_experiment_5_30_19,3.1.0,59.96363636371449,
,,,C,D,g,b,,,,,,,,,,4,8,88,1,,,,,,,,,,,,,b,1,1.2173240430201986,1354.2500768977443,None,,,,,001,65,2019_Oct_25_1408,ACPT_experiment_5_30_19,3.1.0,59.96363636371449,
,,,C,G,g,v,,,,,,,,,,4,9,89,19,,,,,,,,,,,,,v,1,1.2676461079772707,1358.7532311390733,None,,,,,001,65,2019_Oct_25_1408,ACPT_experiment_5_30_19,3.1.0,59.96363636371449,
,,,C,G,y,b,,,,,,,,,,4,10,90,5,,,,,,,,,,,,,b,1,1.0975298844714416,1363.3267044811382,None,,,,,001,65,2019_Oct_25_1408,ACPT_experiment_5_30_19,3.1.0,59.96363636371449,
,,,C,U,d,n,,,,,,,,,,4,11,91,15,,,,,,,,,,,,,n,1,0.6338287892485823,1367.7100582249495,None,,,,,001,65,2019_Oct_25_1408,ACPT_experiment_5_30_19,3.1.0,59.96363636371449,
,,,C,U,d,n,,,,,,,,,,4,12,92,6,,,,,,,,,,,,,n,1,0.9171064956044575,1371.6466652036725,None,,,,,001,65,2019_Oct_25_1408,ACPT_experiment_5_30_19,3.1.0,59.96363636371449,
,,,C,D,g,b,,,,,,,,,,4,13,93,10,,,,,,,,,,,,,b,1,1.8347288626282534,1375.8496194052186,None,,,,,001,65,2019_Oct_25_1408,ACPT_experiment_5_30_19,3.1.0,59.96363636371449,
,,,C,U,y,n,,,,,,,,,,4,14,94,17,,,,,,,,,,,,,n,1,0.9340623350162787,1380.970173636466,None,,,,,001,65,2019_Oct_25_1408,ACPT_experiment_5_30_19,3.1.0,59.96363636371449,
,,,C,D,d,v,,,,,,,,,,4,15,95,0,,,,,,,,,,,,,v,1,1.9012143957406806,1385.2069891069332,None,,,,,001,65,2019_Oct_25_1408,ACPT_experiment_5_30_19,3.1.0,59.96363636371449,
,,,C,G,g,v,,,,,,,,,,4,16,96,13,,,,,,,,,,,,,v,1,1.417758051169585,1390.3940258527346,None,,,,,001,65,2019_Oct_25_1408,ACPT_experiment_5_30_19,3.1.0,59.96363636371449,
,,,C,U,y,n,,,,,,,,,,4,17,97,8,,,,,,,,,,,,,n,1,2.1850091809410515,1395.1142910269464,None,,,,,001,65,2019_Oct_25_1408,ACPT_experiment_5_30_19,3.1.0,59.96363636371449,
,,,C,D,y,b,,,,,,,,,,4,18,98,2,,,,,,,,,,,,,b,1,1.16758365403075,1400.5851101818662,None,,,,,001,65,2019_Oct_25_1408,ACPT_experiment_5_30_19,3.1.0,59.96363636371449,
,,,C,G,y,b,,,,,,,,,,4,19,99,14,,,,,,,,,,,,,b,1,0.7005497698210092,1405.038523430494,None,,,,,001,65,2019_Oct_25_1408,ACPT_experiment_5_30_19,3.1.0,59.96363636371449,
,,,C,G,y,b,,,,,,,,,,5,0,100,14,,,,,,,,,,,,,b,1,1.1008711254180525,1409.0081980994564,None,,,,,001,65,2019_Oct_25_1408,ACPT_experiment_5_30_19,3.1.0,59.96363636371449,
,,,C,G,d,b,,,,,,,,,,5,1,101,3,,,,,,,,,,,,,b,1,2.1516785743715445,1413.3949069695773,None,,,,,001,65,2019_Oct_25_1408,ACPT_experiment_5_30_19,3.1.0,59.96363636371449,
,,,C,G,g,v,,,,,,,,,,5,2,102,19,,,,,,,,,,,,,v,1,0.75061465370527,1418.8323752935921,None,,,,,001,65,2019_Oct_25_1408,ACPT_experiment_5_30_19,3.1.0,59.96363636371449,
,,,C,D,y,b,,,,,,,,,,5,3,103,2,,,,,,,,,,,,,b,1,0.8172508128227491,1422.8855112575584,None,,,,,001,65,2019_Oct_25_1408,ACPT_experiment_5_30_19,3.1.0,59.96363636371449,
,,,C,U,g,n,,,,,,,,,,5,4,104,16,,,,,,,,,,,,,n,1,1.25099574655178,1426.988568422088,None,,,,,001,65,2019_Oct_25_1408,ACPT_experiment_5_30_19,3.1.0,59.96363636371449,
,,,C,G,g,v,,,,,,,,,,5,5,105,13,,,,,,,,,,,,,v,1,0.850207722012783,1431.5425017379348,None,,,,,001,65,2019_Oct_25_1408,ACPT_experiment_5_30_19,3.1.0,59.96363636371449,
,,,C,G,g,v,,,,,,,,,,5,6,106,4,,,,,,,,,,,,,v,1,0.5838055614494806,1435.6618576019791,None,,,,,001,65,2019_Oct_25_1408,ACPT_experiment_5_30_19,3.1.0,59.96363636371449,
,,,C,D,d,v,,,,,,,,,,5,7,107,18,,,,,,,,,,,,,v,1,1.2838883604727016,1439.5485826213826,None,,,,,001,65,2019_Oct_25_1408,ACPT_experiment_5_30_19,3.1.0,59.96363636371449,
,,,C,U,d,n,,,,,,,,,,5,8,108,6,,,,,,,,,,,,,n,1,1.1675902948554722,1444.11832834718,None,,,,,001,65,2019_Oct_25_1408,ACPT_experiment_5_30_19,3.1.0,59.96363636371449,
,,,C,D,g,b,,,,,,,,,,5,9,109,1,,,,,,,,,,,,,b,1,1.9012512221379438,1448.58863766779,None,,,,,001,65,2019_Oct_25_1408,ACPT_experiment_5_30_19,3.1.0,59.96363636371449,
,,,C,G,y,b,,,,,,,,,,5,10,110,5,,,,,,,,,,,,,b,1,0.8673329024841223,1453.7756898082353,None,,,,,001,65,2019_Oct_25_1408,ACPT_experiment_5_30_19,3.1.0,59.96363636371449,
,,,C,U,d,n,,,,,,,,,,5,11,111,15,,,,,,,,,,,,,n,1,1.2174022236504243,1457.9457269455434,None,,,,,001,65,2019_Oct_25_1408,ACPT_experiment_5_30_19,3.1.0,59.96363636371449,
,,,C,G,d,b,,,,,,,,,,5,12,112,12,,,,,,,,,,,,,b,1,1.3176802025827783,1462.4489735547231,None,,,,,001,65,2019_Oct_25_1408,ACPT_experiment_5_30_19,3.1.0,59.96363636371449,
,,,C,D,y,b,,,,,,,,,,5,13,113,11,,,,,,,,,,,,,b,1,0.800352024140011,1467.0694295319336,None,,,,,001,65,2019_Oct_25_1408,ACPT_experiment_5_30_19,3.1.0,59.96363636371449,
,,,C,U,y,n,,,,,,,,,,5,14,114,8,,,,,,,,,,,,,n,1,1.0841760893436003,1471.1556111506707,None,,,,,001,65,2019_Oct_25_1408,ACPT_experiment_5_30_19,3.1.0,59.96363636371449,
,,,C,D,d,v,,,,,,,,,,5,15,115,9,,,,,,,,,,,,,v,1,1.4145094799296203,1475.5622880784194,None,,,,,001,65,2019_Oct_25_1408,ACPT_experiment_5_30_19,3.1.0,59.96363636371449,
,,,C,D,d,v,,,,,,,,,,5,16,116,0,,,,,,,,,,,,,v,1,1.0675091258526663,1480.2458723494437,None,,,,,001,65,2019_Oct_25_1408,ACPT_experiment_5_30_19,3.1.0,59.96363636371449,
,,,C,U,y,n,,,,,,,,,,5,17,117,17,,,,,,,,,,,,,n,1,0.9504657784655137,1484.6161442701305,None,,,,,001,65,2019_Oct_25_1408,ACPT_experiment_5_30_19,3.1.0,59.96363636371449,
,,,C,U,g,n,,,,,,,,,,5,18,118,7,,,,,,,,,,,,,n,1,0.7672704485376016,1488.8357560776385,None,,,,,001,65,2019_Oct_25_1408,ACPT_experiment_5_30_19,3.1.0,59.96363636371449,
,,,C,D,g,b,,,,,,,,,,5,19,119,10,0,0,0,0,0,0,0,0,,,,,b,1,1.3677339178066177,1492.8888392168537,None,,,,,001,65,2019_Oct_25_1408,ACPT_experiment_5_30_19,3.1.0,59.96363636371449,
,,,C,D,g,b,L,G,y,R,y,,,,,5,19,119,10,0,0,0,0,,,,,0,0,0,35,,,,,,down,0.9675302859395742,1546.3294658572504,None,001,65,2019_Oct_25_1408,ACPT_experiment_5_30_19,3.1.0,59.96363636371449,
,,,C,D,g,b,L,U,y,R,u,,,,,5,19,119,10,0,0,0,0,,,,,0,1,1,25,,,,,,down,0.7338876209269074,1548.5979967043404,None,001,65,2019_Oct_25_1408,ACPT_experiment_5_30_19,3.1.0,59.96363636371449,
,,,C,D,g,b,L,G,d,L,i,,,,,5,19,119,10,0,0,0,0,,,,,0,2,2,16,,,,,,up,0.8339693936413823,1550.6162007171497,None,001,65,2019_Oct_25_1408,ACPT_experiment_5_30_19,3.1.0,59.96363636371449,
,,,C,D,g,b,R,U,g,R,u,,,,,5,19,119,10,0,0,0,0,,,,,0,3,3,11,,,,,,up,0.880664963999152,1552.7545013479375,None,001,65,2019_Oct_25_1408,ACPT_experiment_5_30_19,3.1.0,59.96363636371449,
,,,C,D,g,b,L,G,d,R,i,,,,,5,19,119,10,0,0,0,0,,,,,0,4,4,17,,,,,,up,0.7672502242021437,1554.919483005675,None,001,65,2019_Oct_25_1408,ACPT_experiment_5_30_19,3.1.0,59.96363636371449,
,,,C,D,g,b,R,G,d,R,i,,,,,5,19,119,10,0,0,0,0,,,,,0,5,5,5,,,,,,up,0.5837424736055254,1556.9710755813521,None,001,65,2019_Oct_25_1408,ACPT_experiment_5_30_19,3.1.0,59.96363636371449,
,,,C,D,g,b,R,G,y,L,y,,,,,5,19,119,10,0,0,0,0,,,,,0,6,6,28,,,,,,down,0.7672532427604892,1558.8391474266355,None,001,65,2019_Oct_25_1408,ACPT_experiment_5_30_19,3.1.0,59.96363636371449,
,,,C,D,g,b,R,D,g,L,i,,,,,5,19,119,10,0,0,0,0,,,,,0,7,7,2,,,,,,up,0.6671778090167209,1560.8907083074628,None,001,65,2019_Oct_25_1408,ACPT_experiment_5_30_19,3.1.0,59.96363636371449,
,,,C,D,g,b,L,D,y,L,y,,,,,5,19,119,10,0,0,0,0,,,,,0,8,8,32,,,,,,down,0.6671847516990965,1562.8588724904093,None,001,65,2019_Oct_25_1408,ACPT_experiment_5_30_19,3.1.0,59.96363636371449,
,,,C,D,g,b,R,D,g,R,i,,,,,5,19,119,10,0,0,0,0,,,,,0,9,9,3,,,,,,up,0.8172722445779073,1564.8270526717097,None,001,65,2019_Oct_25_1408,ACPT_experiment_5_30_19,3.1.0,59.96363636371449,
,,,C,D,g,b,R,D,d,L,c,,,,,5,19,119,10,0,0,0,0,,,,,0,10,10,0,,,,,,up,0.8173274841738021,1566.9286346673452,None,001,65,2019_Oct_25_1408,ACPT_experiment_5_30_19,3.1.0,59.96363636371449,
,,,C,D,g,b,L,D,g,R,i,,,,,5,19,119,10,0,0,0,0,,,,,0,11,11,15,,,,,,up,0.6338375430623273,1569.0302193796815,None,001,65,2019_Oct_25_1408,ACPT_experiment_5_30_19,3.1.0,59.96363636371449,
,,,C,D,g,b,R,G,d,L,i,,,,,5,19,119,10,0,0,0,0,,,,,0,12,12,4,,,,,,up,0.6504891119129752,1570.9483784461736,None,001,65,2019_Oct_25_1408,ACPT_experiment_5_30_19,3.1.0,59.96363636371449,
,,,C,D,g,b,L,D,y,R,y,,,,,5,19,119,10,0,0,0,0,,,,,0,13,13,33,,,,,,down,0.8306296619721252,1572.9031978896674,None,001,65,2019_Oct_25_1408,ACPT_experiment_5_30_19,3.1.0,59.96363636371449,
,,,C,D,g,b,R,G,g,R,c ,,,,,5,19,119,10,0,0,0,0,,,,,0,14,14,7,,,,,,up,0.7673118027687451,1575.0181412268212,None,001,65,2019_Oct_25_1408,ACPT_experiment_5_30_19,3.1.0,59.96363636371449,
,,,C,D,g,b,R,D,d,R,c ,,,,,5,19,119,10,0,0,0,0,,,,,0,15,15,1,,,,,,up,0.5671008659937797,1577.069705126205,None,001,65,2019_Oct_25_1408,ACPT_experiment_5_30_19,3.1.0,59.96363636371449,
,,,C,D,g,b,L,G,g,R,c ,,,,,5,19,119,10,0,0,0,0,,,,,0,16,16,19,,,,,,up,0.5170616398445418,1578.9211139321214,None,001,65,2019_Oct_25_1408,ACPT_experiment_5_30_19,3.1.0,59.96363636371449,
,,,C,D,g,b,L,D,d,R,c ,,,,,5,19,119,10,0,0,0,0,,,,,0,17,17,13,,,,,,up,0.5337334330251906,1580.722491058279,None,001,65,2019_Oct_25_1408,ACPT_experiment_5_30_19,3.1.0,59.96363636371449,
,,,C,D,g,b,L,U,d,L,u,,,,,5,19,119,10,0,0,0,0,,,,,0,18,18,20,,,,,,up,0.7839860107997083,1582.5405414869,None,001,65,2019_Oct_25_1408,ACPT_experiment_5_30_19,3.1.0,59.96363636371449,
,,,C,D,g,b,R,G,y,R,y,,,,,5,19,119,10,0,0,0,0,,,,,0,19,19,29,,,,,,down,0.7172224685691617,1584.6087832165813,None,001,65,2019_Oct_25_1408,ACPT_experiment_5_30_19,3.1.0,59.96363636371449,
,,,C,D,g,b,L,G,y,L,y,,,,,5,19,119,10,0,0,0,0,,,,,0,20,20,34,,,,,,down,0.8506538647634443,1586.6103106065166,None,001,65,2019_Oct_25_1408,ACPT_experiment_5_30_19,3.1.0,59.96363636371449,
,,,C,D,g,b,L,D,g,L,i,,,,,5,19,119,10,0,0,0,0,,,,,0,21,21,14,,,,,,up,0.6171612220459792,1588.7452712037793,None,001,65,2019_Oct_25_1408,ACPT_experiment_5_30_19,3.1.0,59.96363636371449,
,,,C,D,g,b,R,G,g,L,c ,,,,,5,19,119,10,0,0,0,0,,,,,0,22,22,6,,,,,,up,0.50037777243233,1590.64672466925,None,001,65,2019_Oct_25_1408,ACPT_experiment_5_30_19,3.1.0,59.96363636371449,
,,,C,D,g,b,L,U,d,R,u,,,,,5,19,119,10,0,0,0,0,,,,,0,23,23,21,,,,,,up,0.9006843370989372,1592.4314182298513,None,001,65,2019_Oct_25_1408,ACPT_experiment_5_30_19,3.1.0,59.96363636371449,
,,,C,D,g,b,R,U,y,R,u,,,,,5,19,119,10,0,0,0,0,,,,,0,24,24,31,,,,,,down,0.6671711681919987,1594.6330976946974,None,001,65,2019_Oct_25_1408,ACPT_experiment_5_30_19,3.1.0,59.96363636371449,
,,,C,D,g,b,L,U,g,L,u,,,,,5,19,119,10,0,0,0,0,,,,,0,25,25,22,,,,,,up,0.78393046934616,1596.60126157579,None,001,65,2019_Oct_25_1408,ACPT_experiment_5_30_19,3.1.0,59.96363636371449,
,,,C,D,g,b,R,U,d,L,u,,,,,5,19,119,10,0,0,0,0,,,,,0,26,26,8,,,,,,up,0.5337322256018524,1598.6695048147503,None,001,65,2019_Oct_25_1408,ACPT_experiment_5_30_19,3.1.0,59.96363636371449,
,,,C,D,g,b,L,G,g,L,c ,,,,,5,19,119,10,0,0,0,0,,,,,0,27,27,18,,,,,,up,0.5003949782076234,1600.487558261928,None,001,65,2019_Oct_25_1408,ACPT_experiment_5_30_19,3.1.0,59.96363636371449,
,,,C,D,g,b,R,U,g,L,u,,,,,5,19,119,10,0,0,0,0,,,,,0,28,28,10,,,,,,up,0.4837334481198923,1602.2722542373758,None,001,65,2019_Oct_25_1408,ACPT_experiment_5_30_19,3.1.0,59.96363636371449,
,,,C,D,g,b,R,D,y,R,y,,,,,5,19,119,10,0,0,0,0,,,,,0,29,29,27,,,,,,down,0.8337239849424805,1604.0572016586375,None,001,65,2019_Oct_25_1408,ACPT_experiment_5_30_19,3.1.0,59.96363636371449,
,,,C,D,g,b,L,D,d,L,c ,,,,,5,19,119,10,0,0,0,0,,,,,0,30,30,12,,,,,,up,0.7505778273098258,1606.175229357521,None,001,65,2019_Oct_25_1408,ACPT_experiment_5_30_19,3.1.0,59.96363636371449,
,,,C,D,g,b,L,U,y,L,u,,,,,5,19,119,10,0,0,0,0,,,,,0,31,31,24,,,,,,down,0.7005386011587689,1608.2101127099068,None,001,65,2019_Oct_25_1408,ACPT_experiment_5_30_19,3.1.0,59.96363636371449,
,,,C,D,g,b,R,D,y,L,y,,,,,5,19,119,10,0,0,0,0,,,,,0,32,32,26,,,,,,down,0.6337771719190641,1610.1950003033653,None,001,65,2019_Oct_25_1408,ACPT_experiment_5_30_19,3.1.0,59.96363636371449,
,,,C,D,g,b,R,U,y,L,u,,,,,5,19,119,10,0,0,0,0,,,,,0,33,33,30,,,,,,down,0.46660011754283914,1612.130161996909,None,001,65,2019_Oct_25_1408,ACPT_experiment_5_30_19,3.1.0,59.96363636371449,
,,,C,D,g,b,L,U,g,R,u,,,,,5,19,119,10,0,0,0,0,,,,,0,34,34,23,,,,,,up,0.717233033519733,1613.8811011455127,None,001,65,2019_Oct_25_1408,ACPT_experiment_5_30_19,3.1.0,59.96363636371449,
,,,C,D,g,b,R,U,d,R,u,,,,,5,19,119,10,0,0,0,0,,,,,0,35,35,9,,,,,,up,0.5170549990180007,1615.882630648437,None,001,65,2019_Oct_25_1408,ACPT_experiment_5_30_19,3.1.0,59.96363636371449,
,,,C,D,g,b,L,D,y,R,y,,,,,5,19,119,10,0,0,0,0,,,,,1,0,36,33,,,,,,down,0.6838604690055945,1617.6839984170692,None,001,65,2019_Oct_25_1408,ACPT_experiment_5_30_19,3.1.0,59.96363636371449,
,,,C,D,g,b,R,D,g,L,i,,,,,5,19,119,10,0,0,0,0,,,,,1,1,37,2,,,,,,up,0.7338876209269074,1619.6521716556872,None,001,65,2019_Oct_25_1408,ACPT_experiment_5_30_19,3.1.0,59.96363636371449,
,,,C,D,g,b,R,G,d,R,i,,,,,5,19,119,10,0,0,0,0,,,,,1,2,38,5,,,,,,up,0.6838840137515945,1621.6703753666425,None,001,65,2019_Oct_25_1408,ACPT_experiment_5_30_19,3.1.0,59.96363636371449,
,,,C,D,g,b,L,U,d,R,u,,,,,5,19,119,10,0,0,0,0,,,,,1,3,39,21,,,,,,up,0.5670981492912688,1623.6385425681474,None,001,65,2019_Oct_25_1408,ACPT_experiment_5_30_19,3.1.0,59.96363636371449,
,,,C,D,g,b,L,U,y,L,u,,,,,5,19,119,10,0,0,0,0,,,,,1,4,40,24,,,,,,down,0.7505732994723076,1625.4899583167444,None,001,65,2019_Oct_25_1408,ACPT_experiment_5_30_19,3.1.0,59.96363636371449,
,,,C,D,g,b,L,D,d,R,c ,,,,,5,19,119,10,0,0,0,0,,,,,1,5,41,13,,,,,,up,0.783931073057829,1627.524841970986,None,001,65,2019_Oct_25_1408,ACPT_experiment_5_30_19,3.1.0,59.96363636371449,
,,,C,D,g,b,R,D,d,L,c,,,,,5,19,119,10,0,0,0,0,,,,,1,6,42,0,,,,,,up,0.5837823185593152,1629.5930837006672,None,001,65,2019_Oct_25_1408,ACPT_experiment_5_30_19,3.1.0,59.96363636371449,
,,,C,D,g,b,R,D,y,L,y,,,,,5,19,119,10,0,0,0,0,,,,,1,7,43,26,,,,,,down,0.7472444346094562,1631.4811809561652,None,001,65,2019_Oct_25_1408,ACPT_experiment_5_30_19,3.1.0,59.96363636371449,
,,,C,D,g,b,R,U,y,R,u,,,,,5,19,119,10,0,0,0,0,,,,,1,8,44,31,,,,,,down,0.7506152574187581,1633.5127366511097,None,001,65,2019_Oct_25_1408,ACPT_experiment_5_30_19,3.1.0,59.96363636371449,
,,,C,D,g,b,L,U,g,R,u,,,,,5,19,119,10,0,0,0,0,,,,,1,9,45,23,,,,,,up,0.6004526024644292,1635.5476218146305,None,001,65,2019_Oct_25_1408,ACPT_experiment_5_30_19,3.1.0,59.96363636371449,
,,,C,D,g,b,L,U,d,L,u,,,,,5,19,119,10,0,0,0,0,,,,,1,10,46,20,,,,,,up,0.6004710156630608,1637.4156945654813,None,001,65,2019_Oct_25_1408,ACPT_experiment_5_30_19,3.1.0,59.96363636371449,
,,,C,D,g,b,L,D,g,L,i,,,,,5,19,119,10,0,0,0,0,,,,,1,11,47,14,,,,,,up,0.5337373571510398,1639.3004868027183,None,001,65,2019_Oct_25_1408,ACPT_experiment_5_30_19,3.1.0,59.96363636371449,
,,,C,D,g,b,L,D,y,L,y,,,,,5,19,119,10,0,0,0,0,,,,,1,12,48,32,,,,,,down,0.6338441838888684,1641.1185097624675,None,001,65,2019_Oct_25_1408,ACPT_experiment_5_30_19,3.1.0,59.96363636371449,
,,,C,D,g,b,R,D,g,R,i,,,,,5,19,119,10,0,0,0,0,,,,,1,13,49,3,,,,,,up,0.7506019757656759,1643.0366649048356,None,001,65,2019_Oct_25_1408,ACPT_experiment_5_30_19,3.1.0,59.96363636371449,
,,,C,D,g,b,L,G,y,R,y,,,,,5,19,119,10,0,0,0,0,,,,,1,14,50,35,,,,,,down,0.7005343751789042,1645.0715476535097,None,001,65,2019_Oct_25_1408,ACPT_experiment_5_30_19,3.1.0,59.96363636371449,
,,,C,D,g,b,R,U,y,L,u,,,,,5,19,119,10,0,0,0,0,,,,,1,15,51,30,,,,,,down,0.8006079977876652,1647.0563981187152,None,001,65,2019_Oct_25_1408,ACPT_experiment_5_30_19,3.1.0,59.96363636371449,
,,,C,D,g,b,L,U,y,R,u,,,,,5,19,119,10,0,0,0,0,,,,,1,16,52,25,,,,,,down,0.6838562430257298,1649.1246422632412,None,001,65,2019_Oct_25_1408,ACPT_experiment_5_30_19,3.1.0,59.96363636371449,
,,,C,D,g,b,R,U,g,L,u,,,,,5,19,119,10,0,0,0,0,,,,,1,17,53,10,,,,,,up,0.6671418881869613,1651.0928381410395,None,001,65,2019_Oct_25_1408,ACPT_experiment_5_30_19,3.1.0,59.96363636371449,
,,,C,D,g,b,L,G,g,L,c ,,,,,5,19,119,10,0,0,0,0,,,,,1,18,54,18,,,,,,up,0.5337400738517317,1653.0442931006946,None,001,65,2019_Oct_25_1408,ACPT_experiment_5_30_19,3.1.0,59.96363636371449,
,,,C,D,g,b,L,G,d,L,i,,,,,5,19,119,10,0,0,0,0,,,,,1,19,55,16,,,,,,up,0.5671301459988172,1654.8456454746847,None,001,65,2019_Oct_25_1408,ACPT_experiment_5_30_19,3.1.0,59.96363636371449,
,,,C,D,g,b,L,D,g,R,i,,,,,5,19,119,10,0,0,0,0,,,,,1,20,56,15,,,,,,up,0.5971560361631418,1656.717091161332,None,001,65,2019_Oct_25_1408,ACPT_experiment_5_30_19,3.1.0,59.96363636371449,
,,,C,D,g,b,L,G,y,L,y,,,,,5,19,119,10,0,0,0,0,,,,,1,21,57,34,,,,,,down,0.6338179224421765,1658.5985261592705,None,001,65,2019_Oct_25_1408,ACPT_experiment_5_30_19,3.1.0,59.96363636371449,
,,,C,D,g,b,R,G,g,L,c ,,,,,5,19,119,10,0,0,0,0,,,,,1,22,58,6,,,,,,up,0.5337397719958972,1660.5166583606042,None,001,65,2019_Oct_25_1408,ACPT_experiment_5_30_19,3.1.0,59.96363636371449,
,,,C,D,g,b,R,G,d,L,i,,,,,5,19,119,10,0,0,0,0,,,,,1,23,59,4,,,,,,up,0.600477656487783,1662.3180113383041,None,001,65,2019_Oct_25_1408,ACPT_experiment_5_30_19,3.1.0,59.96363636371449,
,,,C,D,g,b,R,D,y,R,y,,,,,5,19,119,10,0,0,0,0,,,,,1,24,60,27,,,,,,down,0.6504824710864341,1664.2028156497709,None,001,65,2019_Oct_25_1408,ACPT_experiment_5_30_19,3.1.0,59.96363636371449,
,,,C,D,g,b,R,G,y,L,y,,,,,5,19,119,10,0,0,0,0,,,,,1,25,61,28,,,,,,down,0.6004592432909703,1666.1376151164513,None,001,65,2019_Oct_25_1408,ACPT_experiment_5_30_19,3.1.0,59.96363636371449,
,,,C,D,g,b,L,U,g,L,u,,,,,5,19,119,10,0,0,0,0,,,,,1,26,62,22,,,,,,up,0.6838619782829483,1668.02238048853,None,001,65,2019_Oct_25_1408,ACPT_experiment_5_30_19,3.1.0,59.96363636371449,
,,,C,D,g,b,L,G,g,R,c ,,,,,5,19,119,10,0,0,0,0,,,,,1,27,63,19,,,,,,up,0.5303949087792716,1670.0105685724138,None,001,65,2019_Oct_25_1408,ACPT_experiment_5_30_19,3.1.0,59.96363636371449,
,,,C,D,g,b,R,U,g,R,u,,,,,5,19,119,10,0,0,0,0,,,,,1,28,64,11,,,,,,up,0.4836996402773366,1671.8252813823547,None,001,65,2019_Oct_25_1408,ACPT_experiment_5_30_19,3.1.0,59.96363636371449,
,,,C,D,g,b,R,G,g,R,c ,,,,,5,19,119,10,0,0,0,0,,,,,1,29,65,7,,,,,,up,0.4336558862923994,1673.593297716372,None,001,65,2019_Oct_25_1408,ACPT_experiment_5_30_19,3.1.0,59.96363636371449,
,,,C,D,g,b,R,U,d,R,u,,,,,5,19,119,10,0,0,0,0,,,,,1,30,66,9,,,,,,up,0.6671717719036678,1675.3112745223807,None,001,65,2019_Oct_25_1408,ACPT_experiment_5_30_19,3.1.0,59.96363636371449,
,,,C,D,g,b,R,U,d,L,u,,,,,5,19,119,10,0,0,0,0,,,,,1,31,67,8,,,,,,up,0.6504984694402083,1677.2627593657526,None,001,65,2019_Oct_25_1408,ACPT_experiment_5_30_19,3.1.0,59.96363636371449,
,,,C,D,g,b,L,D,d,L,c ,,,,,5,19,119,10,0,0,0,0,,,,,1,32,68,12,,,,,,up,0.517062847266061,1679.1975636621264,None,001,65,2019_Oct_25_1408,ACPT_experiment_5_30_19,3.1.0,59.96363636371449,
,,,C,D,g,b,L,G,d,R,i,,,,,5,19,119,10,0,0,0,0,,,,,1,33,69,17,,,,,,up,0.583772357320413,1680.9822644672658,None,001,65,2019_Oct_25_1408,ACPT_experiment_5_30_19,3.1.0,59.96363636371449,
,,,C,D,g,b,R,G,y,R,y,,,,,5,19,119,10,0,0,0,0,,,,,1,34,70,29,,,,,,down,0.5671005641379452,1682.8503511034796,None,001,65,2019_Oct_25_1408,ACPT_experiment_5_30_19,3.1.0,59.96363636371449,
,,,C,D,g,b,R,D,d,R,c ,,,,,5,19,119,10,0,0,0,0,,,,,1,35,71,1,,,,,,up,0.5170574138646771,1684.7017656446533,None,001,65,2019_Oct_25_1408,ACPT_experiment_5_30_19,3.1.0,59.96363636371449,
,,,C,D,g,b,,,,,,,,,,5,19,119,10,1,0,1,0,0,0,0,0,,,,,,,,,,,,,,001,65,2019_Oct_25_1408,ACPT_experiment_5_30_19,3.1.0,59.96363636371449,
,,,C,D,g,b,R,D,d,L,c,,,,,5,19,119,10,1,0,1,0,,,,,0,0,0,0,,,,,,up,0.6171355643091374,1692.574434450673,None,001,65,2019_Oct_25_1408,ACPT_experiment_5_30_19,3.1.0,59.96363636371449,
,,,C,D,g,b,R,G,y,R,y,,,,,5,19,119,10,1,0,1,0,,,,,0,1,1,29,,,,,,down,0.6504912249038171,1694.4758882179976,None,001,65,2019_Oct_25_1408,ACPT_experiment_5_30_19,3.1.0,59.96363636371449,
,,,C,D,g,b,R,D,y,R,y,,,,,5,19,119,10,1,0,1,0,,,,,0,2,2,27,,,,,,down,0.5335607715551305,1696.4275342523233,None,001,65,2019_Oct_25_1408,ACPT_experiment_5_30_19,3.1.0,59.96363636371449,
,,,C,D,g,b,R,G,g,R,c ,,,,,5,19,119,10,1,0,1,0,,,,,0,3,3,7,,,,,,up,0.5337283014778222,1698.262101320288,None,001,65,2019_Oct_25_1408,ACPT_experiment_5_30_19,3.1.0,59.96363636371449,
,,,C,D,g,b,L,U,d,R,u,,,,,5,19,119,10,1,0,1,0,,,,,0,4,4,21,,,,,,up,0.5337382627167244,1700.080153861898,None,001,65,2019_Oct_25_1408,ACPT_experiment_5_30_19,3.1.0,59.96363636371449,
,,,C,D,g,b,R,U,g,L,u,,,,,5,19,119,10,1,0,1,0,,,,,0,5,5,10,,,,,,up,0.5837968076339166,1701.898191008866,None,001,65,2019_Oct_25_1408,ACPT_experiment_5_30_19,3.1.0,59.96363636371449,
,,,C,D,g,b,L,D,g,R,i,,,,,5,19,119,10,1,0,1,0,,,,,0,6,6,15,,,,,,up,0.5504230356964399,1703.7662960582784,None,001,65,2019_Oct_25_1408,ACPT_experiment_5_30_19,3.1.0,59.96363636371449,
,,,C,D,g,b,L,D,g,L,i,,,,,5,19,119,10,1,0,1,0,,,,,0,7,7,14,,,,,,up,0.5668536461598706,1705.6012996096106,None,001,65,2019_Oct_25_1408,ACPT_experiment_5_30_19,3.1.0,59.96363636371449,
,,,C,D,g,b,R,U,d,R,u,,,,,5,19,119,10,1,0,1,0,,,,,0,8,8,9,,,,,,up,0.5837774888677814,1707.4524427824945,None,001,65,2019_Oct_25_1408,ACPT_experiment_5_30_19,3.1.0,59.96363636371449,
,,,C,D,g,b,R,D,g,R,i,,,,,5,19,119,10,1,0,1,0,,,,,0,9,9,3,,,,,,up,0.5337364515817171,1709.3205357576771,None,001,65,2019_Oct_25_1408,ACPT_experiment_5_30_19,3.1.0,59.96363636371449,
,,,C,D,g,b,L,G,d,R,i,,,,,5,19,119,10,1,0,1,0,,,,,0,10,10,17,,,,,,up,0.5003982986199844,1711.1385982605261,None,001,65,2019_Oct_25_1408,ACPT_experiment_5_30_19,3.1.0,59.96363636371449,
,,,C,D,g,b,L,U,y,L,u,,,,,5,19,119,10,1,0,1,0,,,,,0,11,11,24,,,,,,down,0.6835764227744221,1712.940241623428,None,001,65,2019_Oct_25_1408,ACPT_experiment_5_30_19,3.1.0,59.96363636371449,
,,,C,D,g,b,L,G,y,R,y,,,,,5,19,119,10,1,0,1,0,,,,,0,12,12,35,,,,,,down,0.5170676769575948,1714.9081235712802,None,001,65,2019_Oct_25_1408,ACPT_experiment_5_30_19,3.1.0,59.96363636371449,
,,,C,D,g,b,R,U,g,R,u,,,,,5,19,119,10,1,0,1,0,,,,,0,13,13,11,,,,,,up,0.5337473183899419,1716.7095006974378,None,001,65,2019_Oct_25_1408,ACPT_experiment_5_30_19,3.1.0,59.96363636371449,
,,,C,D,g,b,R,D,g,L,i,,,,,5,19,119,10,1,0,1,0,,,,,0,14,14,2,,,,,,up,0.5504405433275679,1718.5275538427595,None,001,65,2019_Oct_25_1408,ACPT_experiment_5_30_19,3.1.0,59.96363636371449,
,,,C,D,g,b,L,D,d,R,c ,,,,,5,19,119,10,1,0,1,0,,,,,0,15,15,13,,,,,,up,0.6171334513182956,1720.3622878369351,None,001,65,2019_Oct_25_1408,ACPT_experiment_5_30_19,3.1.0,59.96363636371449,
,,,C,D,g,b,L,U,g,R,u,,,,,5,19,119,10,1,0,1,0,,,,,0,16,16,23,,,,,,up,0.5003681130474433,1722.2637482450864,None,001,65,2019_Oct_25_1408,ACPT_experiment_5_30_19,3.1.0,59.96363636371449,
,,,C,D,g,b,L,D,y,L,y,,,,,5,19,119,10,1,0,1,0,,,,,0,17,17,32,,,,,,down,0.7672423759540834,1724.0651099766037,None,001,65,2019_Oct_25_1408,ACPT_experiment_5_30_19,3.1.0,59.96363636371449,
,,,C,D,g,b,R,U,d,L,u,,,,,5,19,119,10,1,0,1,0,,,,,0,18,18,8,,,,,,up,0.516819551556182,1726.15028490652,None,001,65,2019_Oct_25_1408,ACPT_experiment_5_30_19,3.1.0,59.96363636371449,
,,,C,D,g,b,L,D,y,R,y,,,,,5,19,119,10,1,0,1,0,,,,,0,19,19,33,,,,,,down,0.6338402597648383,1727.9680850967488,None,001,65,2019_Oct_25_1408,ACPT_experiment_5_30_19,3.1.0,59.96363636371449,
,,,C,D,g,b,L,G,d,L,i,,,,,5,19,119,10,1,0,1,0,,,,,0,20,20,16,,,,,,up,0.6004845991701586,1729.9028963358032,None,001,65,2019_Oct_25_1408,ACPT_experiment_5_30_19,3.1.0,59.96363636371449,
,,,C,D,g,b,R,U,y,L,u,,,,,5,19,119,10,1,0,1,0,,,,,0,21,21,30,,,,,,down,0.6004652804058423,1731.787659293037,None,001,65,2019_Oct_25_1408,ACPT_experiment_5_30_19,3.1.0,59.96363636371449,
,,,C,D,g,b,R,D,d,R,c ,,,,,5,19,119,10,1,0,1,0,,,,,0,22,22,1,,,,,,up,0.5334816853574011,1733.6893663173087,None,001,65,2019_Oct_25_1408,ACPT_experiment_5_30_19,3.1.0,59.96363636371449,
,,,C,D,g,b,L,D,d,L,c ,,,,,5,19,119,10,1,0,1,0,,,,,0,23,23,12,,,,,,up,0.5170598287095345,1735.5071662056835,None,001,65,2019_Oct_25_1408,ACPT_experiment_5_30_19,3.1.0,59.96363636371449,
,,,C,D,g,b,L,G,g,R,c ,,,,,5,19,119,10,1,0,1,0,,,,,0,24,24,19,,,,,,up,0.517054093450497,1737.3252223695617,None,001,65,2019_Oct_25_1408,ACPT_experiment_5_30_19,3.1.0,59.96363636371449,
,,,C,D,g,b,L,G,y,L,y,,,,,5,19,119,10,1,0,1,0,,,,,0,25,25,34,,,,,,down,0.617080022855589,1739.1266082495367,None,001,65,2019_Oct_25_1408,ACPT_experiment_5_30_19,3.1.0,59.96363636371449,
,,,C,D,g,b,R,G,g,L,c ,,,,,5,19,119,10,1,0,1,0,,,,,0,26,26,6,,,,,,up,0.5003530202611728,1741.0614182811678,None,001,65,2019_Oct_25_1408,ACPT_experiment_5_30_19,3.1.0,59.96363636371449,
,,,C,D,g,b,R,G,d,L,i,,,,,5,19,119,10,1,0,1,0,,,,,0,27,27,4,,,,,,up,0.46700943389623717,1742.846097956406,None,001,65,2019_Oct_25_1408,ACPT_experiment_5_30_19,3.1.0,59.96363636371449,
,,,C,D,g,b,R,D,y,L,y,,,,,5,19,119,10,1,0,1,0,,,,,0,28,28,26,,,,,,down,0.5504142818808759,1744.5974334415696,None,001,65,2019_Oct_25_1408,ACPT_experiment_5_30_19,3.1.0,59.96363636371449,
,,,C,D,g,b,R,G,y,L,y,,,,,5,19,119,10,1,0,1,0,,,,,0,29,29,28,,,,,,down,0.4670196969909739,1746.4321653227544,None,001,65,2019_Oct_25_1408,ACPT_experiment_5_30_19,3.1.0,59.96363636371449,
,,,C,D,g,b,L,U,g,L,u,,,,,5,19,119,10,1,0,1,0,,,,,0,30,30,22,,,,,,up,0.5165901412110543,1748.200614819727,None,001,65,2019_Oct_25_1408,ACPT_experiment_5_30_19,3.1.0,59.96363636371449,
,,,C,D,g,b,L,U,y,R,u,,,,,5,19,119,10,1,0,1,0,,,,,0,31,31,25,,,,,,down,0.6004737323655718,1750.0015509346813,None,001,65,2019_Oct_25_1408,ACPT_experiment_5_30_19,3.1.0,59.96363636371449,
,,,C,D,g,b,L,U,d,L,u,,,,,5,19,119,10,1,0,1,0,,,,,0,32,32,20,,,,,,up,0.583769640619721,1751.8863208345956,None,001,65,2019_Oct_25_1408,ACPT_experiment_5_30_19,3.1.0,59.96363636371449,
,,,C,D,g,b,R,G,d,R,i,,,,,5,19,119,10,1,0,1,0,,,,,0,33,33,5,,,,,,up,0.6338130927488237,1753.7544110930776,None,001,65,2019_Oct_25_1408,ACPT_experiment_5_30_19,3.1.0,59.96363636371449,
,,,C,D,g,b,R,U,y,R,u,,,,,5,19,119,10,1,0,1,0,,,,,0,34,34,31,,,,,,down,0.6171240937928815,1755.6725608020424,None,001,65,2019_Oct_25_1408,ACPT_experiment_5_30_19,3.1.0,59.96363636371449,
,,,C,D,g,b,L,G,g,L,c ,,,,,5,19,119,10,1,0,1,0,,,,,0,35,35,18,,,,,,up,0.517054093450497,1757.5739901190555,None,001,65,2019_Oct_25_1408,ACPT_experiment_5_30_19,3.1.0,59.96363636371449,
,,,C,D,g,b,R,D,y,R,y,,,,,5,19,119,10,1,0,1,0,,,,,1,0,36,27,,,,,,down,0.583775074022924,1759.375365132224,None,001,65,2019_Oct_25_1408,ACPT_experiment_5_30_19,3.1.0,59.96363636371449,
,,,C,D,g,b,R,U,y,L,u,,,,,5,19,119,10,1,0,1,0,,,,,1,1,37,30,,,,,,down,0.6168874389077246,1761.260379233414,None,001,65,2019_Oct_25_1408,ACPT_experiment_5_30_19,3.1.0,59.96363636371449,
,,,C,D,g,b,L,D,g,L,i,,,,,5,19,119,10,1,0,1,0,,,,,1,2,38,14,,,,,,up,0.6004577340117976,1763.1615818567807,None,001,65,2019_Oct_25_1408,ACPT_experiment_5_30_19,3.1.0,59.96363636371449,
,,,C,D,g,b,L,U,d,R,u,,,,,5,19,119,10,1,0,1,0,,,,,1,3,39,21,,,,,,up,0.6337137822192744,1765.0463532659742,None,001,65,2019_Oct_25_1408,ACPT_experiment_5_30_19,3.1.0,59.96363636371449,
,,,C,D,g,b,R,G,g,R,c ,,,,,5,19,119,10,1,0,1,0,,,,,1,4,40,7,,,,,,up,0.5003557369636837,1766.9645231992727,None,001,65,2019_Oct_25_1408,ACPT_experiment_5_30_19,3.1.0,59.96363636371449,
,,,C,D,g,b,L,U,y,L,u,,,,,5,19,119,10,1,0,1,0,,,,,1,5,41,24,,,,,,down,0.650292301985246,1768.7826973887368,None,001,65,2019_Oct_25_1408,ACPT_experiment_5_30_19,3.1.0,59.96363636371449,
,,,C,D,g,b,R,D,d,L,c,,,,,5,19,119,10,1,0,1,0,,,,,1,6,42,0,,,,,,up,0.5670815472276445,1770.734028587549,None,001,65,2019_Oct_25_1408,ACPT_experiment_5_30_19,3.1.0,59.96363636371449,
,,,C,D,g,b,R,D,d,R,c ,,,,,5,19,119,10,1,0,1,0,,,,,1,7,43,1,,,,,,up,0.5005528487472475,1772.585283447048,None,001,65,2019_Oct_25_1408,ACPT_experiment_5_30_19,3.1.0,59.96363636371449,
,,,C,D,g,b,R,U,d,L,u,,,,,5,19,119,10,1,0,1,0,,,,,1,8,44,8,,,,,,up,0.550417602293237,1774.3701258225192,None,001,65,2019_Oct_25_1408,ACPT_experiment_5_30_19,3.1.0,59.96363636371449,
,,,C,D,g,b,R,U,d,R,u,,,,,5,19,119,10,1,0,1,0,,,,,1,9,45,9,,,,,,up,0.43339115882736223,1776.2051311849864,None,001,65,2019_Oct_25_1408,ACPT_experiment_5_30_19,3.1.0,59.96363636371449,
,,,C,D,g,b,L,G,g,R,c ,,,,,5,19,119,10,1,0,1,0,,,,,1,10,46,19,,,,,,up,0.5003726408831426,1777.9228393394078,None,001,65,2019_Oct_25_1408,ACPT_experiment_5_30_19,3.1.0,59.96363636371449,
,,,C,D,g,b,L,D,y,R,y,,,,,5,19,119,10,1,0,1,0,,,,,1,11,47,33,,,,,,down,0.6838580541589181,1779.707526862896,None,001,65,2019_Oct_25_1408,ACPT_experiment_5_30_19,3.1.0,59.96363636371449,
,,,C,D,g,b,L,G,g,L,c ,,,,,5,19,119,10,1,0,1,0,,,,,1,12,48,18,,,,,,up,0.4503436778268224,1781.6756985922366,None,001,65,2019_Oct_25_1408,ACPT_experiment_5_30_19,3.1.0,59.96363636371449,
,,,C,D,g,b,L,D,d,L,c ,,,,,5,19,119,10,1,0,1,0,,,,,1,13,49,12,,,,,,up,0.4333727456287306,1783.4273220477535,None,001,65,2019_Oct_25_1408,ACPT_experiment_5_30_19,3.1.0,59.96363636371449,
,,,C,D,g,b,L,U,g,R,u,,,,,5,19,119,10,1,0,1,0,,,,,1,14,50,23,,,,,,up,0.5670921121782158,1785.145008770418,None,001,65,2019_Oct_25_1408,ACPT_experiment_5_30_19,3.1.0,59.96363636371449,
,,,C,D,g,b,R,D,g,R,i,,,,,5,19,119,10,1,0,1,0,,,,,1,15,51,3,,,,,,up,0.4669810594587034,1786.9964661751055,None,001,65,2019_Oct_25_1408,ACPT_experiment_5_30_19,3.1.0,59.96363636371449,
,,,C,D,g,b,R,U,g,L,u,,,,,5,19,119,10,1,0,1,0,,,,,1,16,52,10,,,,,,up,0.5003762631531572,1788.7477597023226,None,001,65,2019_Oct_25_1408,ACPT_experiment_5_30_19,3.1.0,59.96363636371449,
,,,C,D,g,b,R,G,y,L,y,,,,,5,19,119,10,1,0,1,0,,,,,1,17,53,28,,,,,,down,0.7973069036524976,1790.5524665989105,None,001,65,2019_Oct_25_1408,ACPT_experiment_5_30_19,3.1.0,59.96363636371449,
,,,C,D,g,b,R,G,y,R,y,,,,,5,19,119,10,1,0,1,0,,,,,1,18,54,29,,,,,,down,0.717212205474425,1792.6340500494898,None,001,65,2019_Oct_25_1408,ACPT_experiment_5_30_19,3.1.0,59.96363636371449,
,,,C,D,g,b,R,G,d,L,i,,,,,5,19,119,10,1,0,1,0,,,,,1,19,55,4,,,,,,up,0.8506487332160759,1794.635577439425,None,001,65,2019_Oct_25_1408,ACPT_experiment_5_30_19,3.1.0,59.96363636371449,
,,,C,D,g,b,L,U,g,L,u,,,,,5,19,119,10,1,0,1,0,,,,,1,20,56,22,,,,,,up,0.4336631308287906,1796.7705365274105,None,001,65,2019_Oct_25_1408,ACPT_experiment_5_30_19,3.1.0,59.96363636371449,
,,,C,D,g,b,L,G,d,R,i,,,,,5,19,119,10,1,0,1,0,,,,,1,21,57,17,,,,,,up,1.0507941673022287,1798.488517257545,None,001,65,2019_Oct_25_1408,ACPT_experiment_5_30_19,3.1.0,59.96363636371449,
,,,C,D,g,b,L,D,d,R,c ,,,,,5,19,119,10,1,0,1,0,,,,,1,22,58,13,,,,,,up,0.43365920670476044,1800.8236275148738,None,001,65,2019_Oct_25_1408,ACPT_experiment_5_30_19,3.1.0,59.96363636371449,
,,,C,D,g,b,L,G,d,L,i,,,,,5,19,119,10,1,0,1,0,,,,,1,23,59,16,,,,,,up,0.46703720462210185,1802.5415819835598,None,001,65,2019_Oct_25_1408,ACPT_experiment_5_30_19,3.1.0,59.96363636371449,
,,,C,D,g,b,R,G,d,R,i,,,,,5,19,119,10,1,0,1,0,,,,,1,24,60,5,,,,,,up,0.4503403574162803,1804.2762643905935,None,001,65,2019_Oct_25_1408,ACPT_experiment_5_30_19,3.1.0,59.96363636371449,
,,,C,D,g,b,R,D,g,L,i,,,,,5,19,119,10,1,0,1,0,,,,,1,25,61,2,,,,,,up,0.4503427722611377,1806.0109172157681,None,001,65,2019_Oct_25_1408,ACPT_experiment_5_30_19,3.1.0,59.96363636371449,
,,,C,D,g,b,R,D,y,L,y,,,,,5,19,119,10,1,0,1,0,,,,,1,26,62,26,,,,,,down,0.68386016714976,1807.7455691353734,None,001,65,2019_Oct_25_1408,ACPT_experiment_5_30_19,3.1.0,59.96363636371449,
,,,C,D,g,b,L,D,g,R,i,,,,,5,19,119,10,1,0,1,0,,,,,1,27,63,15,,,,,,up,0.616709042178627,1809.7308132204362,None,001,65,2019_Oct_25_1408,ACPT_experiment_5_30_19,3.1.0,59.96363636371449,
,,,C,D,g,b,R,U,y,R,u,,,,,5,19,119,10,1,0,1,0,,,,,1,28,64,31,,,,,,down,0.7172363539320941,1811.6318434841887,None,001,65,2019_Oct_25_1408,ACPT_experiment_5_30_19,3.1.0,59.96363636371449,
,,,C,D,g,b,L,D,y,L,y,,,,,5,19,119,10,1,0,1,0,,,,,1,29,65,32,,,,,,down,0.650496658305201,1813.633392607735,None,001,65,2019_Oct_25_1408,ACPT_experiment_5_30_19,3.1.0,59.96363636371449,
,,,C,D,g,b,R,U,g,R,u,,,,,5,19,119,10,1,0,1,0,,,,,1,30,66,11,,,,,,up,0.6004658841156925,1815.5682038467894,None,001,65,2019_Oct_25_1408,ACPT_experiment_5_30_19,3.1.0,59.96363636371449,
,,,C,D,g,b,L,U,d,L,u,,,,,5,19,119,10,1,0,1,0,,,,,1,31,67,20,,,,,,up,0.46702724338501866,1817.4529719355687,None,001,65,2019_Oct_25_1408,ACPT_experiment_5_30_19,3.1.0,59.96363636371449,
,,,C,D,g,b,R,G,g,L,c ,,,,,5,19,119,10,1,0,1,0,,,,,1,32,68,6,,,,,,up,0.4837092996622232,1819.204311948566,None,001,65,2019_Oct_25_1408,ACPT_experiment_5_30_19,3.1.0,59.96363636371449,
,,,C,D,g,b,L,U,y,R,u,,,,,5,19,119,10,1,0,1,0,,,,,1,33,69,25,,,,,,down,0.6671744886043598,1820.972325565881,None,001,65,2019_Oct_25_1408,ACPT_experiment_5_30_19,3.1.0,59.96363636371449,
,,,C,D,g,b,L,G,y,L,y,,,,,5,19,119,10,1,0,1,0,,,,,1,34,70,34,,,,,,down,0.6168792888038297,1822.9407466280463,None,001,65,2019_Oct_25_1408,ACPT_experiment_5_30_19,3.1.0,59.96363636371449,
,,,C,D,g,b,L,G,y,R,y,,,,,5,19,119,10,1,0,1,0,,,,,1,35,71,35,,,,,,down,0.550423639408109,1824.8586379485168,None,001,65,2019_Oct_25_1408,ACPT_experiment_5_30_19,3.1.0,59.96363636371449,
,,,C,D,g,b,,,,,,,,,,5,19,119,10,2,0,2,0,0,0,0,0,,,,,,,,,,,,,,001,65,2019_Oct_25_1408,ACPT_experiment_5_30_19,3.1.0,59.96363636371449,
,,,C,D,g,b,L,G,y,L,y,,,,,5,19,119,10,2,0,2,0,,,,,0,0,0,34,,,,,,down,0.5970042027365707,1831.6505760463606,None,001,65,2019_Oct_25_1408,ACPT_experiment_5_30_19,3.1.0,59.96363636371449,
,,,C,D,g,b,R,G,y,L,y,,,,,5,19,119,10,2,0,2,0,,,,,0,1,1,28,,,,,,down,0.48370356440136675,1833.531895735412,None,001,65,2019_Oct_25_1408,ACPT_experiment_5_30_19,3.1.0,59.96363636371449,
,,,C,D,g,b,L,U,g,R,u,,,,,5,19,119,10,2,0,2,0,,,,,0,2,2,23,,,,,,up,0.5337621093203779,1835.299911163862,None,001,65,2019_Oct_25_1408,ACPT_experiment_5_30_19,3.1.0,59.96363636371449,
,,,C,D,g,b,L,U,y,L,u,,,,,5,19,119,10,2,0,2,0,,,,,0,3,3,24,,,,,,down,0.6171373754423257,1837.1179842316615,None,001,65,2019_Oct_25_1408,ACPT_experiment_5_30_19,3.1.0,59.96363636371449,
,,,C,D,g,b,L,U,d,L,u,,,,,5,19,119,10,2,0,2,0,,,,,0,4,4,20,,,,,,up,0.5302681293778733,1839.0562354184822,None,001,65,2019_Oct_25_1408,ACPT_experiment_5_30_19,3.1.0,59.96363636371449,
,,,C,D,g,b,R,G,d,L,i,,,,,5,19,119,10,2,0,2,0,,,,,0,5,5,4,,,,,,up,0.45034397968265694,1840.8541475428501,None,001,65,2019_Oct_25_1408,ACPT_experiment_5_30_19,3.1.0,59.96363636371449,
,,,C,D,g,b,L,G,g,L,c ,,,,,5,19,119,10,2,0,2,0,,,,,0,6,6,18,,,,,,up,0.6171379791539948,1842.5888048958586,None,001,65,2019_Oct_25_1408,ACPT_experiment_5_30_19,3.1.0,59.96363636371449,
,,,C,D,g,b,L,D,d,L,c ,,,,,5,19,119,10,2,0,2,0,,,,,0,7,7,12,,,,,,up,0.5504133763151913,1844.490251418647,None,001,65,2019_Oct_25_1408,ACPT_experiment_5_30_19,3.1.0,59.96363636371449,
,,,C,D,g,b,L,D,g,L,i,,,,,5,19,119,10,2,0,2,0,,,,,0,8,8,14,,,,,,up,0.45033884813710756,1846.324984809111,None,001,65,2019_Oct_25_1408,ACPT_experiment_5_30_19,3.1.0,59.96363636371449,
,,,C,D,g,b,R,U,d,R,u,,,,,5,19,119,10,2,0,2,0,,,,,0,9,9,9,,,,,,up,0.9006873556572828,1848.0596382379954,None,001,65,2019_Oct_25_1408,ACPT_experiment_5_30_19,3.1.0,59.96363636371449,
,,,C,D,g,b,L,U,d,R,u,,,,,5,19,119,10,2,0,2,0,,,,,0,10,10,21,,,,,,up,0.5170513767479861,1850.2446392688325,None,001,65,2019_Oct_25_1408,ACPT_experiment_5_30_19,3.1.0,59.96363636371449,
,,,C,D,g,b,L,D,d,R,c ,,,,,5,19,119,10,2,0,2,0,,,,,0,11,11,13,,,,,,up,0.4836990365674865,1852.0460139801453,None,001,65,2019_Oct_25_1408,ACPT_experiment_5_30_19,3.1.0,59.96363636371449,
,,,C,D,g,b,R,D,y,R,y,,,,,5,19,119,10,2,0,2,0,,,,,0,12,12,27,,,,,,down,0.6171425069896941,1853.8140263900386,None,001,65,2019_Oct_25_1408,ACPT_experiment_5_30_19,3.1.0,59.96363636371449,
,,,C,D,g,b,R,D,g,L,i,,,,,5,19,119,10,2,0,2,0,,,,,0,13,13,2,,,,,,up,0.5337415831309045,1855.7154822703542,None,001,65,2019_Oct_25_1408,ACPT_experiment_5_30_19,3.1.0,59.96363636371449,
,,,C,D,g,b,R,U,d,L,u,,,,,5,19,119,10,2,0,2,0,,,,,0,14,14,8,,,,,,up,0.4503086625645665,1857.5335640919693,None,001,65,2019_Oct_25_1408,ACPT_experiment_5_30_19,3.1.0,59.96363636371449,
,,,C,D,g,b,R,D,g,R,i,,,,,5,19,119,10,2,0,2,0,,,,,0,15,15,3,,,,,,up,0.49691156321750896,1859.2883054152007,None,001,65,2019_Oct_25_1408,ACPT_experiment_5_30_19,3.1.0,59.96363636371449,
,,,C,D,g,b,R,G,g,R,c ,,,,,5,19,119,10,2,0,2,0,,,,,0,16,16,7,,,,,,up,0.4336229840191663,1861.0696000804146,None,001,65,2019_Oct_25_1408,ACPT_experiment_5_30_19,3.1.0,59.96363636371449,
,,,C,D,g,b,L,U,y,R,u,,,,,5,19,119,10,2,0,2,0,,,,,0,17,17,25,,,,,,down,0.5671017715612834,1862.787541871161,None,001,65,2019_Oct_25_1408,ACPT_experiment_5_30_19,3.1.0,59.96363636371449,
,,,C,D,g,b,R,U,g,R,u,,,,,5,19,119,10,2,0,2,0,,,,,0,18,18,11,,,,,,up,0.5504163948717178,1864.6389449418184,None,001,65,2019_Oct_25_1408,ACPT_experiment_5_30_19,3.1.0,59.96363636371449,
,,,C,D,g,b,R,U,g,L,u,,,,,5,19,119,10,2,0,2,0,,,,,0,19,19,10,,,,,,up,0.5501471395709814,1866.4739506061414,None,001,65,2019_Oct_25_1408,ACPT_experiment_5_30_19,3.1.0,59.96363636371449,
,,,C,D,g,b,R,G,y,R,y,,,,,5,19,119,10,2,0,2,0,,,,,0,20,20,29,,,,,,down,0.7839244322312879,1868.308415948728,None,001,65,2019_Oct_25_1408,ACPT_experiment_5_30_19,3.1.0,59.96363636371449,
,,,C,D,g,b,L,D,y,R,y,,,,,5,19,119,10,2,0,2,0,,,,,0,21,21,33,,,,,,down,0.633734912118598,1870.3599729054313,None,001,65,2019_Oct_25_1408,ACPT_experiment_5_30_19,3.1.0,59.96363636371449,
,,,C,D,g,b,R,D,y,L,y,,,,,5,19,119,10,2,0,2,0,,,,,0,22,22,26,,,,,,down,0.7839313749136636,1872.2781048049092,None,001,65,2019_Oct_25_1408,ACPT_experiment_5_30_19,3.1.0,59.96363636371449,
,,,C,D,g,b,R,D,d,L,c,,,,,5,19,119,10,2,0,2,0,,,,,0,23,23,0,,,,,,up,0.5671005641379452,1874.3463483457253,None,001,65,2019_Oct_25_1408,ACPT_experiment_5_30_19,3.1.0,59.96363636371449,
,,,C,D,g,b,L,G,g,R,c ,,,,,5,19,119,10,2,0,2,0,,,,,0,24,24,19,,,,,,up,0.5504154893023951,1876.1977577553535,None,001,65,2019_Oct_25_1408,ACPT_experiment_5_30_19,3.1.0,59.96363636371449,
,,,C,D,g,b,L,G,d,R,i,,,,,5,19,119,10,2,0,2,0,,,,,0,25,25,17,,,,,,up,0.5504468822982744,1878.01579007263,None,001,65,2019_Oct_25_1408,ACPT_experiment_5_30_19,3.1.0,59.96363636371449,
,,,C,D,g,b,R,G,g,L,c ,,,,,5,19,119,10,2,0,2,0,,,,,0,26,26,6,,,,,,up,0.5337500350906339,1879.8505322169094,None,001,65,2019_Oct_25_1408,ACPT_experiment_5_30_19,3.1.0,59.96363636371449,
,,,C,D,g,b,L,D,g,R,i,,,,,5,19,119,10,2,0,2,0,,,,,0,27,27,15,,,,,,up,0.5003946763517888,1881.668597436461,None,001,65,2019_Oct_25_1408,ACPT_experiment_5_30_19,3.1.0,59.96363636371449,
,,,C,D,g,b,R,D,d,R,c ,,,,,5,19,119,10,2,0,2,0,,,,,0,28,28,1,,,,,,up,0.5504160930158832,1883.4532906952081,None,001,65,2019_Oct_25_1408,ACPT_experiment_5_30_19,3.1.0,59.96363636371449,
,,,C,D,g,b,L,G,y,R,y,,,,,5,19,119,10,2,0,2,0,,,,,0,29,29,35,,,,,,down,0.6168823073603562,1885.3049747935383,None,001,65,2019_Oct_25_1408,ACPT_experiment_5_30_19,3.1.0,59.96363636371449,
,,,C,D,g,b,R,G,d,R,i,,,,,5,19,119,10,2,0,2,0,,,,,0,30,30,5,,,,,,up,0.6504924323253363,1887.2061526647376,None,001,65,2019_Oct_25_1408,ACPT_experiment_5_30_19,3.1.0,59.96363636371449,
,,,C,D,g,b,R,U,y,R,u,,,,,5,19,119,10,2,0,2,0,,,,,0,31,31,31,,,,,,down,0.6837397267172491,1889.1409584703888,None,001,65,2019_Oct_25_1408,ACPT_experiment_5_30_19,3.1.0,59.96363636371449,
,,,C,D,g,b,L,U,g,L,u,,,,,5,19,119,10,2,0,2,0,,,,,0,32,32,22,,,,,,up,0.5671023752729525,1891.1091238607587,None,001,65,2019_Oct_25_1408,ACPT_experiment_5_30_19,3.1.0,59.96363636371449,
,,,C,D,g,b,L,D,y,L,y,,,,,5,19,119,10,2,0,2,0,,,,,0,33,33,32,,,,,,down,0.6171385828656639,1892.9605371945108,None,001,65,2019_Oct_25_1408,ACPT_experiment_5_30_19,3.1.0,59.96363636371449,
,,,C,D,g,b,L,G,d,L,i,,,,,5,19,119,10,2,0,2,0,,,,,0,34,34,16,,,,,,up,0.5837690369080519,1894.8619888488465,None,001,65,2019_Oct_25_1408,ACPT_experiment_5_30_19,3.1.0,59.96363636371449,
,,,C,D,g,b,R,U,y,L,u,,,,,5,19,119,10,2,0,2,0,,,,,0,35,35,30,,,,,,down,0.6338402597648383,1896.7300763906278,None,001,65,2019_Oct_25_1408,ACPT_experiment_5_30_19,3.1.0,59.96363636371449,
,,,C,D,g,b,R,D,y,L,y,,,,,5,19,119,10,2,0,2,0,,,,,1,0,36,26,,,,,,down,0.7336515697552386,1898.6651279068337,None,001,65,2019_Oct_25_1408,ACPT_experiment_5_30_19,3.1.0,59.96363636371449,
,,,C,D,g,b,R,D,g,L,i,,,,,5,19,119,10,2,0,2,0,,,,,1,1,37,2,,,,,,up,0.7005527883775358,1900.6663999268312,None,001,65,2019_Oct_25_1408,ACPT_experiment_5_30_19,3.1.0,59.96363636371449,
,,,C,D,g,b,R,U,d,L,u,,,,,5,19,119,10,2,0,2,0,,,,,1,2,38,8,,,,,,up,0.5003819984121947,1902.6512555235822,None,001,65,2019_Oct_25_1408,ACPT_experiment_5_30_19,3.1.0,59.96363636371449,
,,,C,D,g,b,L,D,y,L,y,,,,,5,19,119,10,2,0,2,0,,,,,1,3,39,32,,,,,,down,0.6004450560703845,1904.435955423156,None,001,65,2019_Oct_25_1408,ACPT_experiment_5_30_19,3.1.0,59.96363636371449,
,,,C,D,g,b,L,U,d,L,u,,,,,5,19,119,10,2,0,2,0,,,,,1,4,40,20,,,,,,up,0.5835064224320377,1906.3376702956775,None,001,65,2019_Oct_25_1408,ACPT_experiment_5_30_19,3.1.0,59.96363636371449,
,,,C,D,g,b,L,G,y,R,y,,,,,5,19,119,10,2,0,2,0,,,,,1,5,41,35,,,,,,down,0.7672686374025943,1908.2054943174153,None,001,65,2019_Oct_25_1408,ACPT_experiment_5_30_19,3.1.0,59.96363636371449,
,,,C,D,g,b,R,U,y,L,u,,,,,5,19,119,10,2,0,2,0,,,,,1,6,42,30,,,,,,down,0.6838502059108578,1910.2570696873172,None,001,65,2019_Oct_25_1408,ACPT_experiment_5_30_19,3.1.0,59.96363636371449,
,,,C,D,g,b,L,D,g,L,i,,,,,5,19,119,10,2,0,2,0,,,,,1,7,43,14,,,,,,up,0.5670924140340503,1912.2252257201599,None,001,65,2019_Oct_25_1408,ACPT_experiment_5_30_19,3.1.0,59.96363636371449,
,,,C,D,g,b,L,U,y,R,u,,,,,5,19,119,10,2,0,2,0,,,,,1,8,44,25,,,,,,down,0.6338100741941162,1914.0766378464887,None,001,65,2019_Oct_25_1408,ACPT_experiment_5_30_19,3.1.0,59.96363636371449,
,,,C,D,g,b,R,D,g,R,i,,,,,5,19,119,10,2,0,2,0,,,,,1,9,45,3,,,,,,up,0.5837786962911196,1915.9947700478242,None,001,65,2019_Oct_25_1408,ACPT_experiment_5_30_19,3.1.0,59.96363636371449,
,,,C,D,g,b,R,U,d,R,u,,,,,5,19,119,10,2,0,2,0,,,,,1,10,46,9,,,,,,up,0.5169043730147678,1917.8629777281803,None,001,65,2019_Oct_25_1408,ACPT_experiment_5_30_19,3.1.0,59.96363636371449,
,,,C,D,g,b,L,U,d,R,u,,,,,5,19,119,10,2,0,2,0,,,,,1,11,47,21,,,,,,up,0.48367941594551667,1919.6809237147208,None,001,65,2019_Oct_25_1408,ACPT_experiment_5_30_19,3.1.0,59.96363636371449,
,,,C,D,g,b,R,D,y,R,y,,,,,5,19,119,10,2,0,2,0,,,,,1,12,48,27,,,,,,down,0.6004812787577976,1921.448920729972,None,001,65,2019_Oct_25_1408,ACPT_experiment_5_30_19,3.1.0,59.96363636371449,
,,,C,D,g,b,L,U,g,L,u,,,,,5,19,119,10,2,0,2,0,,,,,1,13,49,22,,,,,,up,0.60042452988273,1923.3337126653532,None,001,65,2019_Oct_25_1408,ACPT_experiment_5_30_19,3.1.0,59.96363636371449,
,,,C,D,g,b,R,G,d,L,i,,,,,5,19,119,10,2,0,2,0,,,,,1,14,50,4,,,,,,up,0.6171373754423257,1925.218458114954,None,001,65,2019_Oct_25_1408,ACPT_experiment_5_30_19,3.1.0,59.96363636371449,
,,,C,D,g,b,L,G,g,R,c ,,,,,5,19,119,10,2,0,2,0,,,,,1,15,51,19,,,,,,up,0.6504930360370054,1927.1199100711456,None,001,65,2019_Oct_25_1408,ACPT_experiment_5_30_19,3.1.0,59.96363636371449,
,,,C,D,g,b,L,G,d,R,i,,,,,5,19,119,10,2,0,2,0,,,,,1,16,52,17,,,,,,up,0.7172345427989057,1929.0380190295891,None,001,65,2019_Oct_25_1408,ACPT_experiment_5_30_19,3.1.0,59.96363636371449,
,,,C,D,g,b,R,U,y,R,u,,,,,5,19,119,10,2,0,2,0,,,,,1,17,53,31,,,,,,down,0.7005247157958365,1931.0395657382887,None,001,65,2019_Oct_25_1408,ACPT_experiment_5_30_19,3.1.0,59.96363636371449,
,,,C,D,g,b,L,D,d,L,c ,,,,,5,19,119,10,2,0,2,0,,,,,1,18,54,12,,,,,,up,0.6504954508836818,1933.0244128830818,None,001,65,2019_Oct_25_1408,ACPT_experiment_5_30_19,3.1.0,59.96363636371449,
,,,C,D,g,b,L,D,d,R,c ,,,,,5,19,119,10,2,0,2,0,,,,,1,19,55,13,,,,,,up,0.6505141659381479,1934.9425236526604,None,001,65,2019_Oct_25_1408,ACPT_experiment_5_30_19,3.1.0,59.96363636371449,
,,,C,D,g,b,L,G,y,L,y,,,,,5,19,119,10,2,0,2,0,,,,,1,20,56,34,,,,,,down,0.7172161295984552,1936.877350286355,None,001,65,2019_Oct_25_1408,ACPT_experiment_5_30_19,3.1.0,59.96363636371449,
,,,C,D,g,b,L,G,g,L,c ,,,,,5,19,119,10,2,0,2,0,,,,,1,21,57,18,,,,,,up,0.5835293634681875,1938.879147233447,None,001,65,2019_Oct_25_1408,ACPT_experiment_5_30_19,3.1.0,59.96363636371449,
,,,C,D,g,b,R,G,y,R,y,,,,,5,19,119,10,2,0,2,0,,,,,1,22,58,29,,,,,,down,0.8337903932006157,1940.7638015226203,None,001,65,2019_Oct_25_1408,ACPT_experiment_5_30_19,3.1.0,59.96363636371449,
,,,C,D,g,b,R,G,y,L,y,,,,,5,19,119,10,2,0,2,0,,,,,1,23,59,28,,,,,,down,0.7338544167978398,1942.898622360688,None,001,65,2019_Oct_25_1408,ACPT_experiment_5_30_19,3.1.0,59.96363636371449,
,,,C,D,g,b,L,U,g,R,u,,,,,5,19,119,10,2,0,2,0,,,,,1,24,60,23,,,,,,up,0.8673166022763326,1944.9168245623623,None,001,65,2019_Oct_25_1408,ACPT_experiment_5_30_19,3.1.0,59.96363636371449,
,,,C,D,g,b,R,G,g,R,c ,,,,,5,19,119,10,2,0,2,0,,,,,1,25,61,7,,,,,,up,0.6338257706902368,1947.0684524249737,None,001,65,2019_Oct_25_1408,ACPT_experiment_5_30_19,3.1.0,59.96363636371449,
,,,C,D,g,b,R,D,d,L,c,,,,,5,19,119,10,2,0,2,0,,,,,1,26,62,0,,,,,,up,0.5837835259826534,1948.9865743632126,None,001,65,2019_Oct_25_1408,ACPT_experiment_5_30_19,3.1.0,59.96363636371449,
,,,C,D,g,b,R,U,g,R,u,,,,,5,19,119,10,2,0,2,0,,,,,1,27,63,11,,,,,,up,0.4670362990564172,1950.8546540567459,None,001,65,2019_Oct_25_1408,ACPT_experiment_5_30_19,3.1.0,59.96363636371449,
,,,C,D,g,b,R,D,d,R,c ,,,,,5,19,119,10,2,0,2,0,,,,,1,28,64,1,,,,,,up,0.46701396173193643,1952.6060127847977,None,001,65,2019_Oct_25_1408,ACPT_experiment_5_30_19,3.1.0,59.96363636371449,
,,,C,D,g,b,L,D,y,R,y,,,,,5,19,119,10,2,0,2,0,,,,,1,29,65,33,,,,,,down,0.6838489984875196,1954.3740221761327,None,001,65,2019_Oct_25_1408,ACPT_experiment_5_30_19,3.1.0,59.96363636371449,
,,,C,D,g,b,L,U,y,L,u,,,,,5,19,119,10,2,0,2,0,,,,,1,30,66,24,,,,,,down,0.6338447876005375,1956.358880791442,None,001,65,2019_Oct_25_1408,ACPT_experiment_5_30_19,3.1.0,59.96363636371449,
,,,C,D,g,b,R,G,g,L,c ,,,,,5,19,119,10,2,0,2,0,,,,,1,31,67,6,,,,,,up,0.6671741867485252,1958.2769985037012,None,001,65,2019_Oct_25_1408,ACPT_experiment_5_30_19,3.1.0,59.96363636371449,
,,,C,D,g,b,L,D,g,R,i,,,,,5,19,119,10,2,0,2,0,,,,,1,32,68,15,,,,,,up,0.5170592249978654,1960.2284881767646,None,001,65,2019_Oct_25_1408,ACPT_experiment_5_30_19,3.1.0,59.96363636371449,
,,,C,D,g,b,R,U,g,L,u,,,,,5,19,119,10,2,0,2,0,,,,,1,33,69,10,,,,,,up,0.5170676769575948,1962.029859567665,None,001,65,2019_Oct_25_1408,ACPT_experiment_5_30_19,3.1.0,59.96363636371449,
,,,C,D,g,b,L,G,d,L,i,,,,,5,19,119,10,2,0,2,0,,,,,1,34,70,16,,,,,,up,0.48342374415187805,1963.8481883072564,None,001,65,2019_Oct_25_1408,ACPT_experiment_5_30_19,3.1.0,59.96363636371449,
,,,C,D,g,b,R,G,d,R,i,,,,,5,19,119,10,2,0,2,0,,,,,1,35,71,5,,,,,,up,0.4670172821461165,1965.615925424734,None,001,65,2019_Oct_25_1408,ACPT_experiment_5_30_19,3.1.0,59.96363636371449,
,,,C,D,g,b,,,,,,,,,,5,19,119,10,3,0,3,0,0,0,0,0,,,,,,,,,,,,,,001,65,2019_Oct_25_1408,ACPT_experiment_5_30_19,3.1.0,59.96363636371449,
,,,C,D,g,b,R,D,g,R,i,,,,,5,19,119,10,3,0,3,0,,,,,0,0,0,3,,,,,,up,0.46674017859550077,1970.8368542287426,None,001,65,2019_Oct_25_1408,ACPT_experiment_5_30_19,3.1.0,59.96363636371449,
,,,C,D,g,b,L,G,g,L,c ,,,,,5,19,119,10,3,0,3,0,,,,,0,1,1,18,,,,,,up,0.5003780742863455,1972.5879126103555,None,001,65,2019_Oct_25_1408,ACPT_experiment_5_30_19,3.1.0,59.96363636371449,
,,,C,D,g,b,R,G,g,R,c ,,,,,5,19,119,10,3,0,3,0,,,,,0,2,2,7,,,,,,up,0.45036722257464135,1974.3559008717893,None,001,65,2019_Oct_25_1408,ACPT_experiment_5_30_19,3.1.0,59.96363636371449,
,,,C,D,g,b,R,U,g,R,u,,,,,5,19,119,10,3,0,3,0,,,,,0,3,3,11,,,,,,up,0.48369722543247917,1976.0905853918139,None,001,65,2019_Oct_25_1408,ACPT_experiment_5_30_19,3.1.0,59.96363636371449,
,,,C,D,g,b,R,U,y,L,u,,,,,5,19,119,10,3,0,3,0,,,,,0,4,4,30,,,,,,down,0.6138057938787824,1977.8786051005773,None,001,65,2019_Oct_25_1408,ACPT_experiment_5_30_19,3.1.0,59.96363636371449,
,,,C,D,g,b,R,D,d,L,c,,,,,5,19,119,10,3,0,3,0,,,,,0,5,5,0,,,,,,up,0.7339232399008324,1979.7767248714936,None,001,65,2019_Oct_25_1408,ACPT_experiment_5_30_19,3.1.0,59.96363636371449,
,,,C,D,g,b,L,D,y,R,y,,,,,5,19,119,10,3,0,3,0,,,,,0,6,6,33,,,,,,down,0.7005186786809645,1981.8116227129522,None,001,65,2019_Oct_25_1408,ACPT_experiment_5_30_19,3.1.0,59.96363636371449,
,,,C,D,g,b,R,G,y,R,y,,,,,5,19,119,10,3,0,3,0,,,,,0,7,7,29,,,,,,down,0.667172979325187,1983.8131365193804,None,001,65,2019_Oct_25_1408,ACPT_experiment_5_30_19,3.1.0,59.96363636371449,
,,,C,D,g,b,L,U,y,R,u,,,,,5,19,119,10,3,0,3,0,,,,,0,8,8,25,,,,,,down,0.7005232065166638,1985.7646331351243,None,001,65,2019_Oct_25_1408,ACPT_experiment_5_30_19,3.1.0,59.96363636371449,
,,,C,D,g,b,L,U,g,R,u,,,,,5,19,119,10,3,0,3,0,,,,,0,9,9,23,,,,,,up,0.5671355794020201,1987.7327689436352,None,001,65,2019_Oct_25_1408,ACPT_experiment_5_30_19,3.1.0,59.96363636371449,
,,,C,D,g,b,L,D,d,L,c ,,,,,5,19,119,10,3,0,3,0,,,,,0,10,10,12,,,,,,up,0.8006098089226725,1989.5842082369782,None,001,65,2019_Oct_25_1408,ACPT_experiment_5_30_19,3.1.0,59.96363636371449,
,,,C,D,g,b,R,U,y,R,u,,,,,5,19,119,10,3,0,3,0,,,,,0,11,11,31,,,,,,down,0.5837500199977512,1991.6691480212903,None,001,65,2019_Oct_25_1408,ACPT_experiment_5_30_19,3.1.0,59.96363636371449,
,,,C,D,g,b,R,U,d,L,u,,,,,5,19,119,10,3,0,3,0,,,,,0,12,12,8,,,,,,up,0.4836996402791556,1993.5372141313146,None,001,65,2019_Oct_25_1408,ACPT_experiment_5_30_19,3.1.0,59.96363636371449,
,,,C,D,g,b,R,D,g,L,i,,,,,5,19,119,10,3,0,3,0,,,,,0,13,13,2,,,,,,up,0.4336525658800383,1995.3052301634762,None,001,65,2019_Oct_25_1408,ACPT_experiment_5_30_19,3.1.0,59.96363636371449,
,,,C,D,g,b,L,G,y,L,y,,,,,5,19,119,10,3,0,3,0,,,,,0,14,14,34,,,,,,down,0.6500420635929913,1997.0402992476847,None,001,65,2019_Oct_25_1408,ACPT_experiment_5_30_19,3.1.0,59.96363636371449,
,,,C,D,g,b,R,D,y,R,y,,,,,5,19,119,10,3,0,3,0,,,,,0,15,15,27,,,,,,down,0.5504402414717333,1998.9579943619392,None,001,65,2019_Oct_25_1408,ACPT_experiment_5_30_19,3.1.0,59.96363636371449,
,,,C,D,g,b,L,U,d,L,u,,,,,5,19,119,10,3,0,3,0,,,,,0,16,16,20,,,,,,up,0.5504266579646355,2000.792745561892,None,001,65,2019_Oct_25_1408,ACPT_experiment_5_30_19,3.1.0,59.96363636371449,
,,,C,D,g,b,R,G,d,R,i,,,,,5,19,119,10,3,0,3,0,,,,,0,17,17,5,,,,,,up,0.46704324173697387,2002.6274792542117,None,001,65,2019_Oct_25_1408,ACPT_experiment_5_30_19,3.1.0,59.96363636371449,
,,,C,D,g,b,L,U,g,L,u,,,,,5,19,119,10,3,0,3,0,,,,,0,18,18,22,,,,,,up,0.5669761995814042,2004.3788117208169,None,001,65,2019_Oct_25_1408,ACPT_experiment_5_30_19,3.1.0,59.96363636371449,
,,,C,D,g,b,L,G,y,R,y,,,,,5,19,119,10,3,0,3,0,,,,,0,19,19,35,,,,,,down,0.717215525888605,2006.2302202248775,None,001,65,2019_Oct_25_1408,ACPT_experiment_5_30_19,3.1.0,59.96363636371449,
,,,C,D,g,b,R,U,g,L,u,,,,,5,19,119,10,3,0,3,0,,,,,0,20,20,10,,,,,,up,0.6171355643073184,2008.2317500296576,None,001,65,2019_Oct_25_1408,ACPT_experiment_5_30_19,3.1.0,59.96363636371449,
,,,C,D,g,b,R,G,d,L,i,,,,,5,19,119,10,3,0,3,0,,,,,0,21,21,4,,,,,,up,0.4970458890129521,2010.1532092847192,None,001,65,2019_Oct_25_1408,ACPT_experiment_5_30_19,3.1.0,59.96363636371449,
,,,C,D,g,b,L,D,g,R,i,,,,,5,19,119,10,3,0,3,0,,,,,0,22,22,15,,,,,,up,0.4503367351462657,2011.934574886027,None,001,65,2019_Oct_25_1408,ACPT_experiment_5_30_19,3.1.0,59.96363636371449,
,,,C,D,g,b,R,G,y,L,y,,,,,5,19,119,10,3,0,3,0,,,,,0,23,23,28,,,,,,down,0.6838568467355799,2013.6692304279022,None,001,65,2019_Oct_25_1408,ACPT_experiment_5_30_19,3.1.0,59.96363636371449,
,,,C,D,g,b,L,D,d,R,c ,,,,,5,19,119,10,3,0,3,0,,,,,0,24,24,13,,,,,,up,0.46703056379556074,2015.6373955164163,None,001,65,2019_Oct_25_1408,ACPT_experiment_5_30_19,3.1.0,59.96363636371449,
,,,C,D,g,b,L,D,g,L,i,,,,,5,19,119,10,3,0,3,0,,,,,0,25,25,14,,,,,,up,0.46680417200877855,2017.4056500145944,None,001,65,2019_Oct_25_1408,ACPT_experiment_5_30_19,3.1.0,59.96363636371449,
,,,C,D,g,b,R,D,y,L,y,,,,,5,19,119,10,3,0,3,0,,,,,0,26,26,26,,,,,,down,0.6671808275750664,2019.156746128172,None,001,65,2019_Oct_25_1408,ACPT_experiment_5_30_19,3.1.0,59.96363636371449,
,,,C,D,g,b,L,G,d,L,i,,,,,5,19,119,10,3,0,3,0,,,,,0,27,27,16,,,,,,up,0.7005621459029499,2021.1082044082414,None,001,65,2019_Oct_25_1408,ACPT_experiment_5_30_19,3.1.0,59.96363636371449,
,,,C,D,g,b,L,D,y,L,y,,,,,5,19,119,10,3,0,3,0,,,,,0,28,28,32,,,,,,down,0.650487904489637,2023.0930892849974,None,001,65,2019_Oct_25_1408,ACPT_experiment_5_30_19,3.1.0,59.96363636371449,
,,,C,D,g,b,R,U,d,R,u,,,,,5,19,119,10,3,0,3,0,,,,,0,29,29,9,,,,,,up,0.6338170168746728,2025.0278848275539,None,001,65,2019_Oct_25_1408,ACPT_experiment_5_30_19,3.1.0,59.96363636371449,
,,,C,D,g,b,L,U,y,L,u,,,,,5,19,119,10,3,0,3,0,,,,,0,30,30,24,,,,,,down,0.6838477910660004,2026.94602397157,None,001,65,2019_Oct_25_1408,ACPT_experiment_5_30_19,3.1.0,59.96363636371449,
,,,C,D,g,b,R,G,g,L,c ,,,,,5,19,119,10,3,0,3,0,,,,,0,31,31,6,,,,,,up,0.5670984511471033,2028.914179098847,None,001,65,2019_Oct_25_1408,ACPT_experiment_5_30_19,3.1.0,59.96363636371449,
,,,C,D,g,b,L,U,d,R,u,,,,,5,19,119,10,3,0,3,0,,,,,0,32,32,21,,,,,,up,0.6005039179362939,2030.765593036309,None,001,65,2019_Oct_25_1408,ACPT_experiment_5_30_19,3.1.0,59.96363636371449,
,,,C,D,g,b,L,G,g,R,c ,,,,,5,19,119,10,3,0,3,0,,,,,0,33,33,19,,,,,,up,0.6171301309059345,2032.6503891976718,None,001,65,2019_Oct_25_1408,ACPT_experiment_5_30_19,3.1.0,59.96363636371449,
,,,C,D,g,b,R,D,d,R,c ,,,,,5,19,119,10,3,0,3,0,,,,,0,34,34,1,,,,,,up,0.7172426929028006,2034.5518091571557,None,001,65,2019_Oct_25_1408,ACPT_experiment_5_30_19,3.1.0,59.96363636371449,
,,,C,D,g,b,L,G,d,R,i,,,,,5,19,119,10,3,0,3,0,,,,,0,35,35,17,,,,,,up,0.46365883542239317,2036.5733719185446,None,001,65,2019_Oct_25_1408,ACPT_experiment_5_30_19,3.1.0,59.96363636371449,
,,,C,D,g,b,R,G,y,L,y,,,,,5,19,119,10,3,0,3,0,,,,,1,0,36,28,,,,,,down,0.6838287741538807,2038.3213709924512,None,001,65,2019_Oct_25_1408,ACPT_experiment_5_30_19,3.1.0,59.96363636371449,
,,,C,D,g,b,L,D,y,R,y,,,,,5,19,119,10,3,0,3,0,,,,,1,1,37,33,,,,,,down,0.8006197701615747,2040.28951525292,None,001,65,2019_Oct_25_1408,ACPT_experiment_5_30_19,3.1.0,59.96363636371449,
,,,C,D,g,b,R,G,d,R,i,,,,,5,19,119,10,3,0,3,0,,,,,1,2,38,5,,,,,,up,0.5504299783788156,2042.3744284739296,None,001,65,2019_Oct_25_1408,ACPT_experiment_5_30_19,3.1.0,59.96363636371449,
,,,C,D,g,b,L,G,y,R,y,,,,,5,19,119,10,3,0,3,0,,,,,1,3,39,35,,,,,,down,0.600462865559166,2044.2091760516123,None,001,65,2019_Oct_25_1408,ACPT_experiment_5_30_19,3.1.0,59.96363636371449,
,,,C,D,g,b,L,U,d,L,u,,,,,5,19,119,10,3,0,3,0,,,,,1,4,40,20,,,,,,up,0.8005971309812594,2046.0939553090539,None,001,65,2019_Oct_25_1408,ACPT_experiment_5_30_19,3.1.0,59.96363636371449,
,,,C,D,g,b,L,U,y,L,u,,,,,5,19,119,10,3,0,3,0,,,,,1,5,41,24,,,,,,down,0.5671216940372688,2048.16216775873,None,001,65,2019_Oct_25_1408,ACPT_experiment_5_30_19,3.1.0,59.96363636371449,
,,,C,D,g,b,L,U,y,R,u,,,,,5,19,119,10,3,0,3,0,,,,,1,6,42,25,,,,,,down,0.7172345427970868,2049.9968981306374,None,001,65,2019_Oct_25_1408,ACPT_experiment_5_30_19,3.1.0,59.96363636371449,
,,,C,D,g,b,L,G,y,L,y,,,,,5,19,119,10,3,0,3,0,,,,,1,7,43,34,,,,,,down,0.6338136964623118,2051.998448763463,None,001,65,2019_Oct_25_1408,ACPT_experiment_5_30_19,3.1.0,59.96363636371449,
,,,C,D,g,b,R,G,y,R,y,,,,,5,19,119,10,3,0,3,0,,,,,1,8,44,29,,,,,,down,0.6670534444601799,2053.8998949843954,None,001,65,2019_Oct_25_1408,ACPT_experiment_5_30_19,3.1.0,59.96363636371449,
,,,C,D,g,b,L,D,d,L,c ,,,,,5,19,119,10,3,0,3,0,,,,,1,9,45,12,,,,,,up,0.5668125937827426,2055.868352571102,None,001,65,2019_Oct_25_1408,ACPT_experiment_5_30_19,3.1.0,59.96363636371449,
,,,C,D,g,b,R,D,g,L,i,,,,,5,19,119,10,3,0,3,0,,,,,1,10,46,2,,,,,,up,0.6338423727538611,2057.7194734066634,None,001,65,2019_Oct_25_1408,ACPT_experiment_5_30_19,3.1.0,59.96363636371449,
,,,C,D,g,b,L,D,g,L,i,,,,,5,19,119,10,3,0,3,0,,,,,1,11,47,14,,,,,,up,0.5504212245614326,2059.620927173988,None,001,65,2019_Oct_25_1408,ACPT_experiment_5_30_19,3.1.0,59.96363636371449,
,,,C,D,g,b,L,D,y,L,y,,,,,5,19,119,10,3,0,3,0,,,,,1,12,48,32,,,,,,down,0.6671898832446459,2061.455634604861,None,001,65,2019_Oct_25_1408,ACPT_experiment_5_30_19,3.1.0,59.96363636371449,
,,,C,D,g,b,R,D,g,R,i,,,,,5,19,119,10,3,0,3,0,,,,,1,13,49,3,,,,,,up,0.5837729610320821,2063.4238265585336,None,001,65,2019_Oct_25_1408,ACPT_experiment_5_30_19,3.1.0,59.96363636371449,
,,,C,D,g,b,L,G,d,L,i,,,,,5,19,119,10,3,0,3,0,,,,,1,14,50,16,,,,,,up,0.4836730769748101,2065.29193915434,None,001,65,2019_Oct_25_1408,ACPT_experiment_5_30_19,3.1.0,59.96363636371449,
,,,C,D,g,b,L,G,g,R,c ,,,,,5,19,119,10,3,0,3,0,,,,,1,15,51,19,,,,,,up,0.5170999755191588,2067.0432305685663,None,001,65,2019_Oct_25_1408,ACPT_experiment_5_30_19,3.1.0,59.96363636371449,
,,,C,D,g,b,R,G,g,L,c ,,,,,5,19,119,10,3,0,3,0,,,,,1,16,52,6,,,,,,up,0.48342434786354715,2068.8615792306373,None,001,65,2019_Oct_25_1408,ACPT_experiment_5_30_19,3.1.0,59.96363636371449,
,,,C,D,g,b,R,D,y,L,y,,,,,5,19,119,10,3,0,3,0,,,,,1,17,53,26,,,,,,down,0.6504897156246443,2070.6459987062462,None,001,65,2019_Oct_25_1408,ACPT_experiment_5_30_19,3.1.0,59.96363636371449,
,,,C,D,g,b,R,U,y,L,u,,,,,5,19,119,10,3,0,3,0,,,,,1,18,54,30,,,,,,down,0.46702241369348485,2072.597485360753,None,001,65,2019_Oct_25_1408,ACPT_experiment_5_30_19,3.1.0,59.96363636371449,
,,,C,D,g,b,L,G,d,R,i,,,,,5,19,119,10,3,0,3,0,,,,,1,19,55,17,,,,,,up,0.6671654329329613,2074.3488295997304,None,001,65,2019_Oct_25_1408,ACPT_experiment_5_30_19,3.1.0,59.96363636371449,
,,,C,D,g,b,L,U,d,R,u,,,,,5,19,119,10,3,0,3,0,,,,,1,20,56,21,,,,,,up,0.48369360316428356,2076.3003102171224,None,001,65,2019_Oct_25_1408,ACPT_experiment_5_30_19,3.1.0,59.96363636371449,
,,,C,D,g,b,R,D,d,R,c ,,,,,5,19,119,10,3,0,3,0,,,,,1,21,57,1,,,,,,up,0.5003813947005256,2078.0683177973224,None,001,65,2019_Oct_25_1408,ACPT_experiment_5_30_19,3.1.0,59.96363636371449,
,,,C,D,g,b,R,G,d,L,i,,,,,5,19,119,10,3,0,3,0,,,,,1,22,58,4,,,,,,up,0.5170619416985573,2079.836333829484,None,001,65,2019_Oct_25_1408,ACPT_experiment_5_30_19,3.1.0,59.96363636371449,
,,,C,D,g,b,R,D,y,R,y,,,,,5,19,119,10,3,0,3,0,,,,,1,23,59,27,,,,,,down,0.5334771575217019,2081.6546655876336,None,001,65,2019_Oct_25_1408,ACPT_experiment_5_30_19,3.1.0,59.96363636371449,
,,,C,D,g,b,L,U,g,L,u,,,,,5,19,119,10,3,0,3,0,,,,,1,24,60,22,,,,,,up,0.5170525841713243,2083.472443138684,None,001,65,2019_Oct_25_1408,ACPT_experiment_5_30_19,3.1.0,59.96363636371449,
,,,C,D,g,b,R,U,g,R,u,,,,,5,19,119,10,3,0,3,0,,,,,1,25,61,11,,,,,,up,0.6004577340117976,2085.2738139258727,None,001,65,2019_Oct_25_1408,ACPT_experiment_5_30_19,3.1.0,59.96363636371449,
,,,C,D,g,b,R,U,d,R,u,,,,,5,19,119,10,3,0,3,0,,,,,1,26,62,9,,,,,,up,0.5838064670188032,2087.158587749911,None,001,65,2019_Oct_25_1408,ACPT_experiment_5_30_19,3.1.0,59.96363636371449,
,,,C,D,g,b,L,D,g,R,i,,,,,5,19,119,10,3,0,3,0,,,,,1,27,63,15,,,,,,up,0.5837681313423673,2089.0433670073508,None,001,65,2019_Oct_25_1408,ACPT_experiment_5_30_19,3.1.0,59.96363636371449,
,,,C,D,g,b,R,U,g,L,u,,,,,5,19,119,10,3,0,3,0,,,,,1,28,64,10,,,,,,up,0.5504194134282443,2090.911444889749,None,001,65,2019_Oct_25_1408,ACPT_experiment_5_30_19,3.1.0,59.96363636371449,
,,,C,D,g,b,R,U,d,L,u,,,,,5,19,119,10,3,0,3,0,,,,,1,29,65,8,,,,,,up,0.6004604507124895,2092.746179789492,None,001,65,2019_Oct_25_1408,ACPT_experiment_5_30_19,3.1.0,59.96363636371449,
,,,C,D,g,b,R,U,y,R,u,,,,,5,19,119,10,3,0,3,0,,,,,1,30,66,31,,,,,,down,0.7338957710326213,2094.63094304858,None,001,65,2019_Oct_25_1408,ACPT_experiment_5_30_19,3.1.0,59.96363636371449,
,,,C,D,g,b,L,U,g,R,u,,,,,5,19,119,10,3,0,3,0,,,,,1,31,67,23,,,,,,up,0.6171246975027316,2096.649157022628,None,001,65,2019_Oct_25_1408,ACPT_experiment_5_30_19,3.1.0,59.96363636371449,
,,,C,D,g,b,L,G,g,L,c ,,,,,5,19,119,10,3,0,3,0,,,,,1,32,68,18,,,,,,up,0.5504124707458686,2098.5506047528397,None,001,65,2019_Oct_25_1408,ACPT_experiment_5_30_19,3.1.0,59.96363636371449,
,,,C,D,g,b,R,D,d,L,c,,,,,5,19,119,10,3,0,3,0,,,,,1,33,69,0,,,,,,up,0.4836978291441483,2100.3853369358803,None,001,65,2019_Oct_25_1408,ACPT_experiment_5_30_19,3.1.0,59.96363636371449,
,,,C,D,g,b,R,G,g,R,c ,,,,,5,19,119,10,3,0,3,0,,,,,1,34,70,7,,,,,,up,0.5670903010432085,2102.1700416651456,None,001,65,2019_Oct_25_1408,ACPT_experiment_5_30_19,3.1.0,59.96363636371449,
,,,C,D,g,b,L,D,d,R,c ,,,,,5,19,119,10,3,0,3,0,,,,,1,35,71,13,,,,,,up,0.40030928136911825,2104.021440811679,None,001,65,2019_Oct_25_1408,ACPT_experiment_5_30_19,3.1.0,59.96363636371449,
,,,C,D,g,b,,,,,,,,,,5,19,119,10,4,0,4,0,0,0,0,0,,,,,,,,,,,,,,001,65,2019_Oct_25_1408,ACPT_experiment_5_30_19,3.1.0,59.96363636371449,
,,,C,D,g,b,R,G,d,R,i,,,,,5,19,119,10,4,0,4,0,,,,,0,0,0,5,,,,,,up,0.517068884380933,2110.926719090956,None,001,65,2019_Oct_25_1408,ACPT_experiment_5_30_19,3.1.0,59.96363636371449,
,,,C,D,g,b,R,D,y,R,y,,,,,5,19,119,10,4,0,4,0,,,,,0,1,1,27,,,,,,down,0.5671292404313135,2112.728054259169,None,001,65,2019_Oct_25_1408,ACPT_experiment_5_30_19,3.1.0,59.96363636371449,
,,,C,D,g,b,R,U,d,L,u,,,,,5,19,119,10,4,0,4,0,,,,,0,2,2,8,,,,,,up,0.5003862243920594,2114.5794974766377,None,001,65,2019_Oct_25_1408,ACPT_experiment_5_30_19,3.1.0,59.96363636371449,
,,,C,D,g,b,L,G,g,R,c ,,,,,5,19,119,10,4,0,4,0,,,,,0,3,3,19,,,,,,up,0.5337116994160169,2116.3642088467277,None,001,65,2019_Oct_25_1408,ACPT_experiment_5_30_19,3.1.0,59.96363636371449,
,,,C,D,g,b,R,G,g,R,c ,,,,,5,19,119,10,4,0,4,0,,,,,0,4,4,7,,,,,,up,0.41366307649514056,2118.202250274009,None,001,65,2019_Oct_25_1408,ACPT_experiment_5_30_19,3.1.0,59.96363636371449,
,,,C,D,g,b,L,G,y,R,y,,,,,5,19,119,10,4,0,4,0,,,,,0,5,5,35,,,,,,down,0.7338843005127273,2119.900215253314,None,001,65,2019_Oct_25_1408,ACPT_experiment_5_30_19,3.1.0,59.96363636371449,
,,,C,D,g,b,R,U,g,R,u,,,,,5,19,119,10,4,0,4,0,,,,,0,6,6,11,,,,,,up,0.5337467146782728,2121.918421982824,None,001,65,2019_Oct_25_1408,ACPT_experiment_5_30_19,3.1.0,59.96363636371449,
,,,C,D,g,b,R,D,g,L,i,,,,,5,19,119,10,4,0,4,0,,,,,0,7,7,2,,,,,,up,0.5670942251672386,2123.719796090425,None,001,65,2019_Oct_25_1408,ACPT_experiment_5_30_19,3.1.0,59.96363636371449,
,,,C,D,g,b,L,D,g,R,i,,,,,5,19,119,10,4,0,4,0,,,,,0,8,8,15,,,,,,up,0.5837793000027887,2125.5711988592266,None,001,65,2019_Oct_25_1408,ACPT_experiment_5_30_19,3.1.0,59.96363636371449,
,,,C,D,g,b,L,U,y,R,u,,,,,5,19,119,10,4,0,4,0,,,,,0,9,9,25,,,,,,down,0.683851413334196,2127.455968155429,None,001,65,2019_Oct_25_1408,ACPT_experiment_5_30_19,3.1.0,59.96363636371449,
,,,C,D,g,b,R,D,g,R,i,,,,,5,19,119,10,4,0,4,0,,,,,0,10,10,3,,,,,,up,0.5170371895310382,2129.4408367319775,None,001,65,2019_Oct_25_1408,ACPT_experiment_5_30_19,3.1.0,59.96363636371449,
,,,C,D,g,b,L,G,d,L,i,,,,,5,19,119,10,4,0,4,0,,,,,0,11,11,16,,,,,,up,0.5501616286437638,2131.259144945381,None,001,65,2019_Oct_25_1408,ACPT_experiment_5_30_19,3.1.0,59.96363636371449,
,,,C,D,g,b,L,U,g,R,u,,,,,5,19,119,10,4,0,4,0,,,,,0,12,12,23,,,,,,up,0.41698047083991696,2133.093601836008,None,001,65,2019_Oct_25_1408,ACPT_experiment_5_30_19,3.1.0,59.96363636371449,
,,,C,D,g,b,L,G,y,L,y,,,,,5,19,119,10,4,0,4,0,,,,,0,13,13,34,,,,,,down,0.583760886804157,2134.8115867921224,None,001,65,2019_Oct_25_1408,ACPT_experiment_5_30_19,3.1.0,59.96363636371449,
,,,C,D,g,b,L,U,d,R,u,,,,,5,19,119,10,4,0,4,0,,,,,0,14,14,21,,,,,,up,0.8006333536686725,2136.696324695329,None,001,65,2019_Oct_25_1408,ACPT_experiment_5_30_19,3.1.0,59.96363636371449,
,,,C,D,g,b,R,D,y,L,y,,,,,5,19,119,10,4,0,4,0,,,,,0,15,15,26,,,,,,down,0.7005343751789042,2138.781271120468,None,001,65,2019_Oct_25_1408,ACPT_experiment_5_30_19,3.1.0,59.96363636371449,
,,,C,D,g,b,L,D,d,L,c ,,,,,5,19,119,10,4,0,4,0,,,,,0,16,16,12,,,,,,up,0.5503922464140487,2140.766141810005,None,001,65,2019_Oct_25_1408,ACPT_experiment_5_30_19,3.1.0,59.96363636371449,
,,,C,D,g,b,R,U,g,L,u,,,,,5,19,119,10,4,0,4,0,,,,,0,17,17,10,,,,,,up,0.517065563968572,2142.600849542734,None,001,65,2019_Oct_25_1408,ACPT_experiment_5_30_19,3.1.0,59.96363636371449,
,,,C,D,g,b,R,G,y,L,y,,,,,5,19,119,10,4,0,4,0,,,,,0,18,18,28,,,,,,down,0.5999786889860843,2144.4193440011168,None,001,65,2019_Oct_25_1408,ACPT_experiment_5_30_19,3.1.0,59.96363636371449,
,,,C,D,g,b,L,D,g,L,i,,,,,5,19,119,10,4,0,4,0,,,,,0,19,19,14,,,,,,up,0.5170728085049632,2146.303672889826,None,001,65,2019_Oct_25_1408,ACPT_experiment_5_30_19,3.1.0,59.96363636371449,
,,,C,D,g,b,R,U,y,R,u,,,,,5,19,119,10,4,0,4,0,,,,,0,20,20,31,,,,,,down,0.6338070556357707,2148.105051223407,None,001,65,2019_Oct_25_1408,ACPT_experiment_5_30_19,3.1.0,59.96363636371449,
,,,C,D,g,b,L,D,y,L,y,,,,,5,19,119,10,4,0,4,0,,,,,0,21,21,32,,,,,,down,0.65049665830702,2150.0231743690692,None,001,65,2019_Oct_25_1408,ACPT_experiment_5_30_19,3.1.0,59.96363636371449,
,,,C,D,g,b,L,G,d,R,i,,,,,5,19,119,10,4,0,4,0,,,,,0,22,22,17,,,,,,up,0.6171606183324911,2151.9579822877113,None,001,65,2019_Oct_25_1408,ACPT_experiment_5_30_19,3.1.0,59.96363636371449,
,,,C,D,g,b,R,D,d,L,c,,,,,5,19,119,10,4,0,4,0,,,,,0,23,23,0,,,,,,up,0.6004556210209557,2153.8594327346236,None,001,65,2019_Oct_25_1408,ACPT_experiment_5_30_19,3.1.0,59.96363636371449,
,,,C,D,g,b,L,U,d,L,u,,,,,5,19,119,10,4,0,4,0,,,,,0,24,24,20,,,,,,up,0.48370114955650934,2155.7442056530945,None,001,65,2019_Oct_25_1408,ACPT_experiment_5_30_19,3.1.0,59.96363636371449,
,,,C,D,g,b,L,D,y,R,y,,,,,5,19,119,10,4,0,4,0,,,,,0,25,25,33,,,,,,down,0.7837306408619042,2157.5457370275253,None,001,65,2019_Oct_25_1408,ACPT_experiment_5_30_19,3.1.0,59.96363636371449,
,,,C,D,g,b,R,U,y,L,u,,,,,5,19,119,10,4,0,4,0,,,,,0,26,26,30,,,,,,down,0.6171268104917544,2159.630501131809,None,001,65,2019_Oct_25_1408,ACPT_experiment_5_30_19,3.1.0,59.96363636371449,
,,,C,D,g,b,L,U,y,L,u,,,,,5,19,119,10,4,0,4,0,,,,,0,27,27,24,,,,,,down,0.5337367534393707,2161.548635446132,None,001,65,2019_Oct_25_1408,ACPT_experiment_5_30_19,3.1.0,59.96363636371449,
,,,C,D,g,b,L,D,d,R,c ,,,,,5,19,119,10,4,0,4,0,,,,,0,28,28,13,,,,,,up,0.6004399245248351,2163.3666970434133,None,001,65,2019_Oct_25_1408,ACPT_experiment_5_30_19,3.1.0,59.96363636371449,
,,,C,D,g,b,L,U,g,L,u,,,,,5,19,119,10,4,0,4,0,,,,,0,29,29,22,,,,,,up,0.5166182137927535,2165.268562240084,None,001,65,2019_Oct_25_1408,ACPT_experiment_5_30_19,3.1.0,59.96363636371449,
,,,C,D,g,b,R,U,d,R,u,,,,,5,19,119,10,4,0,4,0,,,,,0,30,30,9,,,,,,up,0.4503394518469577,2167.0695065051423,None,001,65,2019_Oct_25_1408,ACPT_experiment_5_30_19,3.1.0,59.96363636371449,
,,,C,D,g,b,R,G,y,R,y,,,,,5,19,119,10,4,0,4,0,,,,,0,31,31,29,,,,,,down,0.6505090343907796,2168.8041566136144,None,001,65,2019_Oct_25_1408,ACPT_experiment_5_30_19,3.1.0,59.96363636371449,
,,,C,D,g,b,R,G,d,L,i,,,,,5,19,119,10,4,0,4,0,,,,,0,32,32,4,,,,,,up,0.4837123182187497,2170.738971173081,None,001,65,2019_Oct_25_1408,ACPT_experiment_5_30_19,3.1.0,59.96363636371449,
,,,C,D,g,b,R,D,d,R,c ,,,,,5,19,119,10,4,0,4,0,,,,,0,33,33,1,,,,,,up,0.46685880789300427,2172.5238165671108,None,001,65,2019_Oct_25_1408,ACPT_experiment_5_30_19,3.1.0,59.96363636371449,
,,,C,D,g,b,R,G,g,L,c ,,,,,5,19,119,10,4,0,4,0,,,,,0,34,34,6,,,,,,up,0.5671177699132386,2174.2749972002894,None,001,65,2019_Oct_25_1408,ACPT_experiment_5_30_19,3.1.0,59.96363636371449,
,,,C,D,g,b,L,G,g,L,c ,,,,,5,19,119,10,4,0,4,0,,,,,0,35,35,18,,,,,,up,0.40030867765744915,2176.1097305907533,None,001,65,2019_Oct_25_1408,ACPT_experiment_5_30_19,3.1.0,59.96363636371449,
,,,C,D,g,b,L,D,y,R,y,,,,,5,19,119,10,4,0,4,0,,,,,1,0,36,33,,,,,,down,0.7503668301615107,2177.811193775977,None,001,65,2019_Oct_25_1408,ACPT_experiment_5_30_19,3.1.0,59.96363636371449,
,,,C,D,g,b,L,U,y,R,u,,,,,5,19,119,10,4,0,4,0,,,,,1,1,37,25,,,,,,down,0.7005576180690696,2179.8625895417263,None,001,65,2019_Oct_25_1408,ACPT_experiment_5_30_19,3.1.0,59.96363636371449,
,,,C,D,g,b,L,G,g,R,c ,,,,,5,19,119,10,4,0,4,0,,,,,1,2,38,19,,,,,,up,0.6004565265902784,2181.847435479096,None,001,65,2019_Oct_25_1408,ACPT_experiment_5_30_19,3.1.0,59.96363636371449,
,,,C,D,g,b,L,G,y,L,y,,,,,5,19,119,10,4,0,4,0,,,,,1,3,39,34,,,,,,down,0.6338441838888684,2183.7322032660195,None,001,65,2019_Oct_25_1408,ACPT_experiment_5_30_19,3.1.0,59.96363636371449,
,,,C,D,g,b,R,D,g,R,i,,,,,5,19,119,10,4,0,4,0,,,,,1,4,40,3,,,,,,up,0.7167742128294776,2185.667420199159,None,001,65,2019_Oct_25_1408,ACPT_experiment_5_30_19,3.1.0,59.96363636371449,
,,,C,D,g,b,R,U,y,L,u,,,,,5,19,119,10,4,0,4,0,,,,,1,5,41,30,,,,,,down,0.6671654329329613,2187.685224856852,None,001,65,2019_Oct_25_1408,ACPT_experiment_5_30_19,3.1.0,59.96363636371449,
,,,C,D,g,b,R,G,g,R,c ,,,,,5,19,119,10,4,0,4,0,,,,,1,6,42,7,,,,,,up,0.567096640013915,2189.653391756501,None,001,65,2019_Oct_25_1408,ACPT_experiment_5_30_19,3.1.0,59.96363636371449,
,,,C,D,g,b,R,U,d,L,u,,,,,5,19,119,10,4,0,4,0,,,,,1,7,43,8,,,,,,up,0.5837771870119468,2191.5048011661293,None,001,65,2019_Oct_25_1408,ACPT_experiment_5_30_19,3.1.0,59.96363636371449,
,,,C,D,g,b,R,U,g,L,u,,,,,5,19,119,10,4,0,4,0,,,,,1,8,44,10,,,,,,up,0.433383914290971,2193.373160981768,None,001,65,2019_Oct_25_1408,ACPT_experiment_5_30_19,3.1.0,59.96363636371449,
,,,C,D,g,b,R,U,y,R,u,,,,,5,19,119,10,4,0,4,0,,,,,1,9,45,31,,,,,,down,0.6171560904986109,2195.0741662518667,None,001,65,2019_Oct_25_1408,ACPT_experiment_5_30_19,3.1.0,59.96363636371449,
,,,C,D,g,b,R,D,d,R,c ,,,,,5,19,119,10,4,0,4,0,,,,,1,10,46,1,,,,,,up,0.5670655488738703,2196.975661977138,None,001,65,2019_Oct_25_1408,ACPT_experiment_5_30_19,3.1.0,59.96363636371449,
,,,C,D,g,b,R,G,d,R,i,,,,,5,19,119,10,4,0,4,0,,,,,1,11,47,5,,,,,,up,0.6338058482124325,2198.827051766142,None,001,65,2019_Oct_25_1408,ACPT_experiment_5_30_19,3.1.0,59.96363636371449,
,,,C,D,g,b,R,G,g,L,c ,,,,,5,19,119,10,4,0,4,0,,,,,1,12,48,6,,,,,,up,0.48372439244849375,2200.7284744423287,None,001,65,2019_Oct_25_1408,ACPT_experiment_5_30_19,3.1.0,59.96363636371449,
,,,C,D,g,b,L,U,d,L,u,,,,,5,19,119,10,4,0,4,0,,,,,1,13,49,20,,,,,,up,0.6838529226115497,2202.496512208101,None,001,65,2019_Oct_25_1408,ACPT_experiment_5_30_19,3.1.0,59.96363636371449,
,,,C,D,g,b,R,D,y,L,y,,,,,5,19,119,10,4,0,4,0,,,,,1,14,50,26,,,,,,down,0.5837786962911196,2204.464679711462,None,001,65,2019_Oct_25_1408,ACPT_experiment_5_30_19,3.1.0,59.96363636371449,
,,,C,D,g,b,L,U,g,R,u,,,,,5,19,119,10,4,0,4,0,,,,,1,15,51,23,,,,,,up,0.5168008365017158,2206.3497055850257,None,001,65,2019_Oct_25_1408,ACPT_experiment_5_30_19,3.1.0,59.96363636371449,
,,,C,D,g,b,R,U,d,R,u,,,,,5,19,119,10,4,0,4,0,,,,,1,16,52,9,,,,,,up,0.5003786779998336,2208.1508219078423,None,001,65,2019_Oct_25_1408,ACPT_experiment_5_30_19,3.1.0,59.96363636371449,
,,,C,D,g,b,R,D,d,L,c,,,,,5,19,119,10,4,0,4,0,,,,,1,17,53,0,,,,,,up,0.4503403574144613,2209.9355166758687,None,001,65,2019_Oct_25_1408,ACPT_experiment_5_30_19,3.1.0,59.96363636371449,
,,,C,D,g,b,R,D,g,L,i,,,,,5,19,119,10,4,0,4,0,,,,,1,18,54,2,,,,,,up,0.4503448852519796,2211.6701695010415,None,001,65,2019_Oct_25_1408,ACPT_experiment_5_30_19,3.1.0,59.96363636371449,
,,,C,D,g,b,L,U,d,R,u,,,,,5,19,119,10,4,0,4,0,,,,,1,19,55,21,,,,,,up,0.4667492342687183,2213.421789636146,None,001,65,2019_Oct_25_1408,ACPT_experiment_5_30_19,3.1.0,59.96363636371449,
,,,C,D,g,b,R,U,g,R,u,,,,,5,19,119,10,4,0,4,0,,,,,1,20,56,11,,,,,,up,0.4503361314345966,2215.172844093635,None,001,65,2019_Oct_25_1408,ACPT_experiment_5_30_19,3.1.0,59.96363636371449,
,,,C,D,g,b,R,G,y,R,y,,,,,5,19,119,10,4,0,4,0,,,,,1,21,57,29,,,,,,down,0.5670821509393136,2216.907507785614,None,001,65,2019_Oct_25_1408,ACPT_experiment_5_30_19,3.1.0,59.96363636371449,
,,,C,D,g,b,L,D,d,L,c ,,,,,5,19,119,10,4,0,4,0,,,,,1,22,58,12,,,,,,up,0.6337958869735303,2218.7589250434903,None,001,65,2019_Oct_25_1408,ACPT_experiment_5_30_19,3.1.0,59.96363636371449,
,,,C,D,g,b,L,D,y,L,y,,,,,5,19,119,10,4,0,4,0,,,,,1,23,59,32,,,,,,down,0.5835049131546839,2220.6773095962053,None,001,65,2019_Oct_25_1408,ACPT_experiment_5_30_19,3.1.0,59.96363636371449,
,,,C,D,g,b,L,G,g,L,c ,,,,,5,19,119,10,4,0,4,0,,,,,1,24,60,18,,,,,,up,0.5003919596492779,2222.5451266752625,None,001,65,2019_Oct_25_1408,ACPT_experiment_5_30_19,3.1.0,59.96363636371449,
,,,C,D,g,b,L,D,g,R,i,,,,,5,19,119,10,4,0,4,0,,,,,1,25,61,15,,,,,,up,0.5337340367368597,2224.329821745143,None,001,65,2019_Oct_25_1408,ACPT_experiment_5_30_19,3.1.0,59.96363636371449,
,,,C,D,g,b,L,D,d,R,c ,,,,,5,19,119,10,4,0,4,0,,,,,1,26,62,13,,,,,,up,0.5170788456198352,2226.1478851535594,None,001,65,2019_Oct_25_1408,ACPT_experiment_5_30_19,3.1.0,59.96363636371449,
,,,C,D,g,b,L,U,g,L,u,,,,,5,19,119,10,4,0,4,0,,,,,1,27,63,22,,,,,,up,0.46702482853834226,2227.9659434304267,None,001,65,2019_Oct_25_1408,ACPT_experiment_5_30_19,3.1.0,59.96363636371449,
,,,C,D,g,b,L,D,g,L,i,,,,,5,19,119,10,4,0,4,0,,,,,1,28,64,14,,,,,,up,0.567096640013915,2229.7172623135248,None,001,65,2019_Oct_25_1408,ACPT_experiment_5_30_19,3.1.0,59.96363636371449,
,,,C,D,g,b,L,G,y,R,y,,,,,5,19,119,10,4,0,4,0,,,,,1,29,65,35,,,,,,down,0.6338200354330183,2231.5686747417094,None,001,65,2019_Oct_25_1408,ACPT_experiment_5_30_19,3.1.0,59.96363636371449,
,,,C,D,g,b,R,G,y,L,y,,,,,5,19,119,10,4,0,4,0,,,,,1,30,66,28,,,,,,down,0.5337370552952052,2233.486803320775,None,001,65,2019_Oct_25_1408,ACPT_experiment_5_30_19,3.1.0,59.96363636371449,
,,,C,D,g,b,L,G,d,R,i,,,,,5,19,119,10,4,0,4,0,,,,,1,31,67,17,,,,,,up,0.48369058460775705,2235.304863106923,None,001,65,2019_Oct_25_1408,ACPT_experiment_5_30_19,3.1.0,59.96363636371449,
,,,C,D,g,b,R,G,d,L,i,,,,,5,19,119,10,4,0,4,0,,,,,1,32,68,4,,,,,,up,1.7846911457563692,2237.072877026094,None,001,65,2019_Oct_25_1408,ACPT_experiment_5_30_19,3.1.0,59.96363636371449,
,,,C,D,g,b,L,U,y,L,u,,,,,5,19,119,10,4,0,4,0,,,,,1,33,69,24,,,,,,down,0.650505412122584,2240.141877922906,None,001,65,2019_Oct_25_1408,ACPT_experiment_5_30_19,3.1.0,59.96363636371449,
,,,C,D,g,b,R,D,y,R,y,,,,,5,19,119,10,4,0,4,0,,,,,1,34,70,27,,,,,,down,0.6672028630418936,2242.0766813137125,None,001,65,2019_Oct_25_1408,ACPT_experiment_5_30_19,3.1.0,59.96363636371449,
,,,C,D,g,b,L,G,d,L,i,,,,,5,19,119,10,4,0,4,0,,,,,1,35,71,16,,,,,,up,0.5337708631341229,2244.028174609044,None,001,65,2019_Oct_25_1408,ACPT_experiment_5_30_19,3.1.0,59.96363636371449,
,,,C,D,g,b,,,,,,,,,,5,19,119,10,5,0,5,0,0,0,0,0,,,,,,,,,,,,,,001,65,2019_Oct_25_1408,ACPT_experiment_5_30_19,3.1.0,59.96363636371449,
,,,C,D,g,b,L,D,y,L,y,,,,,5,19,119,10,5,0,5,0,,,,,0,0,0,32,,,,,,down,0.6504930360370054,2249.6657989320956,None,001,65,2019_Oct_25_1408,ACPT_experiment_5_30_19,3.1.0,59.96363636371449,
,,,C,D,g,b,L,D,y,R,y,,,,,5,19,119,10,5,0,5,0,,,,,0,1,1,33,,,,,,down,0.4838330605052761,2251.583796505778,None,001,65,2019_Oct_25_1408,ACPT_experiment_5_30_19,3.1.0,59.96363636371449,
,,,C,D,g,b,L,U,d,L,u,,,,,5,19,119,10,5,0,5,0,,,,,0,2,2,20,,,,,,up,0.500375055729819,2253.3519483730124,None,001,65,2019_Oct_25_1408,ACPT_experiment_5_30_19,3.1.0,59.96363636371449,
,,,C,D,g,b,R,G,y,R,y,,,,,5,19,119,10,5,0,5,0,,,,,0,3,3,29,,,,,,down,0.7505690734924428,2255.136642839183,None,001,65,2019_Oct_25_1408,ACPT_experiment_5_30_19,3.1.0,59.96363636371449,
,,,C,D,g,b,R,G,d,R,i,,,,,5,19,119,10,5,0,5,0,,,,,0,4,4,5,,,,,,up,0.5837983169130894,2257.1548233072463,None,001,65,2019_Oct_25_1408,ACPT_experiment_5_30_19,3.1.0,59.96363636371449,
,,,C,D,g,b,L,G,d,L,i,,,,,5,19,119,10,5,0,5,0,,,,,0,5,5,16,,,,,,up,0.41699345063716464,2259.022935601195,None,001,65,2019_Oct_25_1408,ACPT_experiment_5_30_19,3.1.0,59.96363636371449,
,,,C,D,g,b,L,U,g,R,u,,,,,5,19,119,10,5,0,5,0,,,,,0,6,6,23,,,,,,up,0.41697262259185663,2260.724239104744,None,001,65,2019_Oct_25_1408,ACPT_experiment_5_30_19,3.1.0,59.96363636371449,
,,,C,D,g,b,L,D,d,R,c ,,,,,5,19,119,10,5,0,5,0,,,,,0,7,7,13,,,,,,up,0.4167078951268195,2262.442481241931,None,001,65,2019_Oct_25_1408,ACPT_experiment_5_30_19,3.1.0,59.96363636371449,
,,,C,D,g,b,R,D,d,L,c,,,,,5,19,119,10,5,0,5,0,,,,,0,8,8,0,,,,,,up,0.5003919596492779,2264.143504623373,None,001,65,2019_Oct_25_1408,ACPT_experiment_5_30_19,3.1.0,59.96363636371449,
,,,C,D,g,b,R,G,g,L,c ,,,,,5,19,119,10,5,0,5,0,,,,,0,9,9,6,,,,,,up,0.4503427722611377,2265.9282024099557,None,001,65,2019_Oct_25_1408,ACPT_experiment_5_30_19,3.1.0,59.96363636371449,
,,,C,D,g,b,R,D,g,R,i,,,,,5,19,119,10,5,0,5,0,,,,,0,10,10,3,,,,,,up,0.46704475101432763,2267.6628591592544,None,001,65,2019_Oct_25_1408,ACPT_experiment_5_30_19,3.1.0,59.96363636371449,
,,,C,D,g,b,R,U,g,L,u,,,,,5,19,119,10,5,0,5,0,,,,,0,11,11,10,,,,,,up,0.4000279518386378,2269.4311489745505,None,001,65,2019_Oct_25_1408,ACPT_experiment_5_30_19,3.1.0,59.96363636371449,
,,,C,D,g,b,R,D,d,R,c ,,,,,5,19,119,10,5,0,5,0,,,,,0,12,12,1,,,,,,up,0.416977754139225,2271.1154927145617,None,001,65,2019_Oct_25_1408,ACPT_experiment_5_30_19,3.1.0,59.96363636371449,
,,,C,D,g,b,L,G,y,L,y,,,,,5,19,119,10,5,0,5,0,,,,,0,13,13,34,,,,,,down,0.6171280179150926,2272.8167901809957,None,001,65,2019_Oct_25_1408,ACPT_experiment_5_30_19,3.1.0,59.96363636371449,
,,,C,D,g,b,L,D,d,L,c ,,,,,5,19,119,10,5,0,5,0,,,,,0,14,14,12,,,,,,up,0.5337430924082582,2274.718234590795,None,001,65,2019_Oct_25_1408,ACPT_experiment_5_30_19,3.1.0,59.96363636371449,
,,,C,D,g,b,L,G,y,R,y,,,,,5,19,119,10,5,0,5,0,,,,,0,15,15,35,,,,,,down,0.6335444411615754,2276.553240255116,None,001,65,2019_Oct_25_1408,ACPT_experiment_5_30_19,3.1.0,59.96363636371449,
,,,C,D,g,b,R,D,g,L,i,,,,,5,19,119,10,5,0,5,0,,,,,0,16,16,2,,,,,,up,0.5337584870503633,2278.4710980696036,None,001,65,2019_Oct_25_1408,ACPT_experiment_5_30_19,3.1.0,59.96363636371449,
,,,C,D,g,b,R,G,y,L,y,,,,,5,19,119,10,5,0,5,0,,,,,0,17,17,28,,,,,,down,0.5835927531679772,2280.3059706155527,None,001,65,2019_Oct_25_1408,ACPT_experiment_5_30_19,3.1.0,59.96363636371449,
,,,C,D,g,b,L,D,g,R,i,,,,,5,19,119,10,5,0,5,0,,,,,0,18,18,15,,,,,,up,0.48369420687595266,2282.190599548847,None,001,65,2019_Oct_25_1408,ACPT_experiment_5_30_19,3.1.0,59.96363636371449,
,,,C,D,g,b,L,U,y,R,u,,,,,5,19,119,10,5,0,5,0,,,,,0,19,19,25,,,,,,down,0.7505760161748185,2283.958610449461,None,001,65,2019_Oct_25_1408,ACPT_experiment_5_30_19,3.1.0,59.96363636371449,
,,,C,D,g,b,R,U,y,R,u,,,,,5,19,119,10,5,0,5,0,,,,,0,20,20,31,,,,,,down,0.7338963747424714,2285.9935025556624,None,001,65,2019_Oct_25_1408,ACPT_experiment_5_30_19,3.1.0,59.96363636371449,
,,,C,D,g,b,R,D,y,L,y,,,,,5,19,119,10,5,0,5,0,,,,,0,21,21,26,,,,,,down,0.5003611703668867,2288.0117231705353,None,001,65,2019_Oct_25_1408,ACPT_experiment_5_30_19,3.1.0,59.96363636371449,
,,,C,D,g,b,R,D,y,R,y,,,,,5,19,119,10,5,0,5,0,,,,,0,22,22,27,,,,,,down,0.5504435618840944,2289.7963949975274,None,001,65,2019_Oct_25_1408,ACPT_experiment_5_30_19,3.1.0,59.96363636371449,
,,,C,D,g,b,L,U,y,L,u,,,,,5,19,119,10,5,0,5,0,,,,,0,23,23,24,,,,,,down,0.5837865445391799,2291.6311241620115,None,001,65,2019_Oct_25_1408,ACPT_experiment_5_30_19,3.1.0,59.96363636371449,
,,,C,D,g,b,R,G,d,L,i,,,,,5,19,119,10,5,0,5,0,,,,,0,24,24,4,,,,,,up,0.5337337348810252,2293.499222872453,None,001,65,2019_Oct_25_1408,ACPT_experiment_5_30_19,3.1.0,59.96363636371449,
,,,C,D,g,b,R,U,g,R,u,,,,,5,19,119,10,5,0,5,0,,,,,0,25,25,11,,,,,,up,0.5170510748939705,2295.3172980532418,None,001,65,2019_Oct_25_1408,ACPT_experiment_5_30_19,3.1.0,59.96363636371449,
,,,C,D,g,b,L,U,d,R,u,,,,,5,19,119,10,5,0,5,0,,,,,0,26,26,21,,,,,,up,0.48336156187360757,2297.1356536579933,None,001,65,2019_Oct_25_1408,ACPT_experiment_5_30_19,3.1.0,59.96363636371449,
,,,C,D,g,b,R,G,g,R,c ,,,,,5,19,119,10,5,0,5,0,,,,,0,27,27,7,,,,,,up,0.5003895448044204,2298.9033310080376,None,001,65,2019_Oct_25_1408,ACPT_experiment_5_30_19,3.1.0,59.96363636371449,
,,,C,D,g,b,L,G,g,R,c ,,,,,5,19,119,10,5,0,5,0,,,,,0,28,28,19,,,,,,up,0.4670233192609885,2300.6880333224562,None,001,65,2019_Oct_25_1408,ACPT_experiment_5_30_19,3.1.0,59.96363636371449,
,,,C,D,g,b,L,U,g,L,u,,,,,5,19,119,10,5,0,5,0,,,,,0,29,29,22,,,,,,up,0.45048705929366406,2302.4394228397923,None,001,65,2019_Oct_25_1408,ACPT_experiment_5_30_19,3.1.0,59.96363636371449,
,,,C,D,g,b,R,U,d,L,u,,,,,5,19,119,10,5,0,5,0,,,,,0,30,30,8,,,,,,up,0.5166173082270689,2304.191138965016,None,001,65,2019_Oct_25_1408,ACPT_experiment_5_30_19,3.1.0,59.96363636371449,
,,,C,D,g,b,R,U,d,R,u,,,,,5,19,119,10,5,0,5,0,,,,,0,31,31,9,,,,,,up,0.45033582957876206,2305.9920808152274,None,001,65,2019_Oct_25_1408,ACPT_experiment_5_30_19,3.1.0,59.96363636371449,
,,,C,D,g,b,L,G,d,R,i,,,,,5,19,119,10,5,0,5,0,,,,,0,32,32,17,,,,,,up,0.4670375064779364,2307.7267426960734,None,001,65,2019_Oct_25_1408,ACPT_experiment_5_30_19,3.1.0,59.96363636371449,
,,,C,D,g,b,R,U,y,L,u,,,,,5,19,119,10,5,0,5,0,,,,,0,33,33,30,,,,,,down,0.8673301857834304,2309.4947457484377,None,001,65,2019_Oct_25_1408,ACPT_experiment_5_30_19,3.1.0,59.96363636371449,
,,,C,D,g,b,L,G,g,L,c ,,,,,5,19,119,10,5,0,5,0,,,,,0,34,34,18,,,,,,up,0.5504224319847708,2311.6630668359885,None,001,65,2019_Oct_25_1408,ACPT_experiment_5_30_19,3.1.0,59.96363636371449,
,,,C,D,g,b,L,D,g,L,i,,,,,5,19,119,10,5,0,5,0,,,,,0,35,35,14,,,,,,up,0.5504221301307552,2313.4977938874817,None,001,65,2019_Oct_25_1408,ACPT_experiment_5_30_19,3.1.0,59.96363636371449,
,,,C,D,g,b,R,G,d,R,i,,,,,5,19,119,10,5,0,5,0,,,,,1,0,36,5,,,,,,up,0.4837074885272159,2315.3325333150606,None,001,65,2019_Oct_25_1408,ACPT_experiment_5_30_19,3.1.0,59.96363636371449,
,,,C,D,g,b,L,U,y,R,u,,,,,5,19,119,10,5,0,5,0,,,,,1,1,37,25,,,,,,down,0.7472504717243282,2317.1205481941342,None,001,65,2019_Oct_25_1408,ACPT_experiment_5_30_19,3.1.0,59.96363636371449,
,,,C,D,g,b,L,D,y,R,y,,,,,5,19,119,10,5,0,5,0,,,,,1,2,38,33,,,,,,down,0.6171911057608668,2319.135404627026,None,001,65,2019_Oct_25_1408,ACPT_experiment_5_30_19,3.1.0,59.96363636371449,
,,,C,D,g,b,R,D,d,R,c ,,,,,5,19,119,10,5,0,5,0,,,,,1,3,39,1,,,,,,up,0.6338435801790183,2321.0368771094054,None,001,65,2019_Oct_25_1408,ACPT_experiment_5_30_19,3.1.0,59.96363636371449,
,,,C,D,g,b,L,G,d,L,i,,,,,5,19,119,10,5,0,5,0,,,,,1,4,40,16,,,,,,up,0.48373254255056963,2322.9550078014618,None,001,65,2019_Oct_25_1408,ACPT_experiment_5_30_19,3.1.0,59.96363636371449,
,,,C,D,g,b,L,U,y,L,u,,,,,5,19,119,10,5,0,5,0,,,,,1,5,41,24,,,,,,down,0.600483693602655,2324.7229960628956,None,001,65,2019_Oct_25_1408,ACPT_experiment_5_30_19,3.1.0,59.96363636371449,
,,,C,D,g,b,L,G,g,R,c ,,,,,5,19,119,10,5,0,5,0,,,,,1,6,42,19,,,,,,up,0.5337409794192354,2326.607791620547,None,001,65,2019_Oct_25_1408,ACPT_experiment_5_30_19,3.1.0,59.96363636371449,
,,,C,D,g,b,L,G,d,R,i,,,,,5,19,119,10,5,0,5,0,,,,,1,7,43,17,,,,,,up,0.4836957161551254,2328.425847784425,None,001,65,2019_Oct_25_1408,ACPT_experiment_5_30_19,3.1.0,59.96363636371449,
,,,C,D,g,b,R,G,y,L,y,,,,,5,19,119,10,5,0,5,0,,,,,1,8,44,28,,,,,,down,0.8172426627188543,2330.2105820955494,None,001,65,2019_Oct_25_1408,ACPT_experiment_5_30_19,3.1.0,59.96363636371449,
,,,C,D,g,b,L,G,y,R,y,,,,,5,19,119,10,5,0,5,0,,,,,1,9,45,35,,,,,,down,0.6338130927506427,2332.312144772417,None,001,65,2019_Oct_25_1408,ACPT_experiment_5_30_19,3.1.0,59.96363636371449,
,,,C,D,g,b,L,G,y,L,y,,,,,5,19,119,10,5,0,5,0,,,,,1,10,46,34,,,,,,down,0.46701879142528924,2334.230267918081,None,001,65,2019_Oct_25_1408,ACPT_experiment_5_30_19,3.1.0,59.96363636371449,
,,,C,D,g,b,L,D,d,R,c ,,,,,5,19,119,10,5,0,5,0,,,,,1,11,47,13,,,,,,up,0.4670320730765525,2335.9816082329344,None,001,65,2019_Oct_25_1408,ACPT_experiment_5_30_19,3.1.0,59.96363636371449,
,,,C,D,g,b,R,G,g,L,c ,,,,,5,19,119,10,5,0,5,0,,,,,1,12,48,6,,,,,,up,0.48376997266132094,2337.7329132306677,None,001,65,2019_Oct_25_1408,ACPT_experiment_5_30_19,3.1.0,59.96363636371449,
,,,C,D,g,b,R,U,y,R,u,,,,,5,19,119,10,5,0,5,0,,,,,1,13,49,31,,,,,,down,0.6504963564493664,2339.5176267137485,None,001,65,2019_Oct_25_1408,ACPT_experiment_5_30_19,3.1.0,59.96363636371449,
,,,C,D,g,b,R,G,d,L,i,,,,,5,19,119,10,5,0,5,0,,,,,1,14,50,4,,,,,,up,1.1842841235065862,2341.4691212165035,None,001,65,2019_Oct_25_1408,ACPT_experiment_5_30_19,3.1.0,59.96363636371449,
,,,C,D,g,b,L,D,d,L,c ,,,,,5,19,119,10,5,0,5,0,,,,,1,15,51,12,,,,,,up,0.7172097906295676,2343.9376704164188,None,001,65,2019_Oct_25_1408,ACPT_experiment_5_30_19,3.1.0,59.96363636371449,
,,,C,D,g,b,R,U,g,L,u,,,,,5,19,119,10,5,0,5,0,,,,,1,16,52,10,,,,,,up,0.5504402414735523,2345.9391984100657,None,001,65,2019_Oct_25_1408,ACPT_experiment_5_30_19,3.1.0,59.96363636371449,
,,,C,D,g,b,R,D,g,R,i,,,,,5,19,119,10,5,0,5,0,,,,,1,17,53,3,,,,,,up,0.5337536573588295,2347.773921235581,None,001,65,2019_Oct_25_1408,ACPT_experiment_5_30_19,3.1.0,59.96363636371449,
,,,C,D,g,b,L,D,g,L,i,,,,,5,19,119,10,5,0,5,0,,,,,1,18,54,14,,,,,,up,0.4503442815403105,2349.5919752864684,None,001,65,2019_Oct_25_1408,ACPT_experiment_5_30_19,3.1.0,59.96363636371449,
,,,C,D,g,b,R,U,d,L,u,,,,,5,19,119,10,5,0,5,0,,,,,1,19,55,8,,,,,,up,0.43365981041642954,2351.3266347524677,None,001,65,2019_Oct_25_1408,ACPT_experiment_5_30_19,3.1.0,59.96363636371449,
,,,C,D,g,b,L,D,g,R,i,,,,,5,19,119,10,5,0,5,0,,,,,1,20,56,15,,,,,,up,0.9674038083921914,2353.044611558478,None,001,65,2019_Oct_25_1408,ACPT_experiment_5_30_19,3.1.0,59.96363636371449,
,,,C,D,g,b,L,D,y,L,y,,,,,5,19,119,10,5,0,5,0,,,,,1,21,57,32,,,,,,down,0.6304866427344678,2355.3163293982416,None,001,65,2019_Oct_25_1408,ACPT_experiment_5_30_19,3.1.0,59.96363636371449,
,,,C,D,g,b,L,U,d,L,u,,,,,5,19,119,10,5,0,5,0,,,,,1,22,58,20,,,,,,up,0.6504577189189149,2357.2311641277083,None,001,65,2019_Oct_25_1408,ACPT_experiment_5_30_19,3.1.0,59.96363636371449,
,,,C,D,g,b,R,U,g,R,u,,,,,5,19,119,10,5,0,5,0,,,,,1,23,59,11,,,,,,up,0.5170634509777301,2359.1659424644895,None,001,65,2019_Oct_25_1408,ACPT_experiment_5_30_19,3.1.0,59.96363636371449,
,,,C,D,g,b,L,G,g,L,c ,,,,,5,19,119,10,5,0,5,0,,,,,1,24,60,18,,,,,,up,0.4336721865001891,2360.950640854784,None,001,65,2019_Oct_25_1408,ACPT_experiment_5_30_19,3.1.0,59.96363636371449,
,,,C,D,g,b,L,U,d,R,u,,,,,5,19,119,10,5,0,5,0,,,,,1,25,61,21,,,,,,up,0.41670578213597764,2362.685567764949,None,001,65,2019_Oct_25_1408,ACPT_experiment_5_30_19,3.1.0,59.96363636371449,
,,,C,D,g,b,R,D,d,L,c,,,,,5,19,119,10,5,0,5,0,,,,,1,26,62,0,,,,,,up,0.6838471873525123,2364.3865941649474,None,001,65,2019_Oct_25_1408,ACPT_experiment_5_30_19,3.1.0,59.96363636371449,
,,,C,D,g,b,L,U,g,R,u,,,,,5,19,119,10,5,0,5,0,,,,,1,27,63,23,,,,,,up,0.43354238854044524,2366.3547604608866,None,001,65,2019_Oct_25_1408,ACPT_experiment_5_30_19,3.1.0,59.96363636371449,
