facing_vig,person_vig,text_vig,facing_train,person_train,food_train,correct_key_train,facing_exp,person_exp,food_exp,showL_R,consistent,vig_random.thisRepN,vig_random.thisTrialN,vig_random.thisN,vig_random.thisIndex,trainTrials.thisRepN,trainTrials.thisTrialN,trainTrials.thisN,trainTrials.thisIndex,expBlock.thisRepN,expBlock.thisTrialN,expBlock.thisN,expBlock.thisIndex,breakLoop.thisRepN,breakLoop.thisTrialN,breakLoop.thisN,breakLoop.thisIndex,expTrials.thisRepN,expTrials.thisTrialN,expTrials.thisN,expTrials.thisIndex,train_resp.keys,train_resp.corr,train_resp.rt,train_resp.started,train_resp.stopped,exp_resp.keys,exp_resp.rt,exp_resp.started,exp_resp.stopped,session,participant,date,expName,psychopyVersion,frameRate,
C,G,"cannot eat dairy products because she is lactose intolerant. She enjoys eating wheat products. She thinks eating insects, like crickets, is disgusting.",,,,,,,,,,0,0,0,0,,,,,,,,,,,,,,,,,,,,,,,,,,001,66,2019_Oct_25_1457,ACPT_experiment_5_30_19,3.1.0,59.936189228675076,
C,U,"did not report her food preferences, so her food preferences are unknown.",,,,,,,,,,0,1,1,2,,,,,,,,,,,,,,,,,,,,,,,,,,001,66,2019_Oct_25_1457,ACPT_experiment_5_30_19,3.1.0,59.936189228675076,
C,D,"is allergic to gluten, meaning she can’t eat wheat products. She enjoys eating dairy products. She thinks eating insects, like crickets, is disgusting.",,,,,,,,,,0,2,2,1,,,,,,,,,,,,,,,,,,,,,,,,,,001,66,2019_Oct_25_1457,ACPT_experiment_5_30_19,3.1.0,59.936189228675076,
,,,C,U,d,n,,,,,,,,,,0,0,0,15,,,,,,,,,,,,,v,0,7.555781880266295,893.7126946327953,None,,,,,001,66,2019_Oct_25_1457,ACPT_experiment_5_30_19,3.1.0,59.936189228675076,
,,,C,G,g,v,,,,,,,,,,0,1,1,13,,,,,,,,,,,,,v,1,4.436728173794108,904.5543365950871,None,,,,,001,66,2019_Oct_25_1457,ACPT_experiment_5_30_19,3.1.0,59.936189228675076,
,,,C,G,d,b,,,,,,,,,,0,2,2,3,,,,,,,,,,,,,b,1,1.2176231820358225,912.2601929884349,None,,,,,001,66,2019_Oct_25_1457,ACPT_experiment_5_30_19,3.1.0,59.936189228675076,
,,,C,U,y,n,,,,,,,,,,0,3,3,8,,,,,,,,,,,,,n,1,4.436459522205041,916.7805798708723,None,,,,,001,66,2019_Oct_25_1457,ACPT_experiment_5_30_19,3.1.0,59.936189228675076,
,,,C,G,y,b,,,,,,,,,,0,4,4,14,,,,,,,,,,,,,b,1,2.7854617834054807,924.5028714025211,None,,,,,001,66,2019_Oct_25_1457,ACPT_experiment_5_30_19,3.1.0,59.936189228675076,
,,,C,G,g,v,,,,,,,,,,0,5,5,19,,,,,,,,,,,,,b,0,3.569399497289851,930.5741700250637,None,,,,,001,66,2019_Oct_25_1457,ACPT_experiment_5_30_19,3.1.0,59.936189228675076,
,,,C,U,d,n,,,,,,,,,,0,6,6,6,,,,,,,,,,,,,n,1,5.9712618263292825,937.429402135509,None,,,,,001,66,2019_Oct_25_1457,ACPT_experiment_5_30_19,3.1.0,59.936189228675076,
,,,C,G,d,b,,,,,,,,,,0,7,7,12,,,,,,,,,,,,,b,1,5.053872190062975,946.686464578288,None,,,,,001,66,2019_Oct_25_1457,ACPT_experiment_5_30_19,3.1.0,59.936189228675076,
,,,C,D,y,b,,,,,,,,,,0,8,8,2,,,,,,,,,,,,,b,1,2.285064994064669,955.026187492851,None,,,,,001,66,2019_Oct_25_1457,ACPT_experiment_5_30_19,3.1.0,59.936189228675076,
,,,C,U,g,n,,,,,,,,,,0,9,9,7,,,,,,,,,,,,,n,1,1.3510422021463455,960.5970808740894,None,,,,,001,66,2019_Oct_25_1457,ACPT_experiment_5_30_19,3.1.0,59.936189228675076,
,,,C,U,y,n,,,,,,,,,,0,10,10,17,,,,,,,,,,,,,n,1,2.6353477272223245,965.2339653487761,None,,,,,001,66,2019_Oct_25_1457,ACPT_experiment_5_30_19,3.1.0,59.936189228675076,
,,,C,U,g,n,,,,,,,,,,0,11,11,16,,,,,,,,,,,,,n,1,1.834746672117035,971.1384600106085,None,,,,,001,66,2019_Oct_25_1457,ACPT_experiment_5_30_19,3.1.0,59.936189228675076,
,,,C,D,g,b,,,,,,,,,,0,12,12,10,,,,,,,,,,,,,b,1,2.585319066021839,976.2590374847459,None,,,,,001,66,2019_Oct_25_1457,ACPT_experiment_5_30_19,3.1.0,59.936189228675076,
,,,C,D,d,v,,,,,,,,,,0,13,13,18,,,,,,,,,,,,,v,1,1.9181696314426517,982.1134862796025,None,,,,,001,66,2019_Oct_25_1457,ACPT_experiment_5_30_19,3.1.0,59.936189228675076,
,,,C,D,d,v,,,,,,,,,,0,14,14,9,,,,,,,,,,,,,v,1,2.0182212185845856,987.3174695072903,None,,,,,001,66,2019_Oct_25_1457,ACPT_experiment_5_30_19,3.1.0,59.936189228675076,
,,,C,D,g,b,,,,,,,,,,0,15,15,1,,,,,,,,,,,,,b,1,1.8013741076010774,992.6215351114042,None,,,,,001,66,2019_Oct_25_1457,ACPT_experiment_5_30_19,3.1.0,59.936189228675076,
,,,C,D,y,b,,,,,,,,,,0,16,16,11,,,,,,,,,,,,,b,1,2.101624255434217,997.692052833203,None,,,,,001,66,2019_Oct_25_1457,ACPT_experiment_5_30_19,3.1.0,59.936189228675076,
,,,C,D,d,v,,,,,,,,,,0,17,17,0,,,,,,,,,,,,,v,1,2.2017440619692934,1003.0628016859246,None,,,,,001,66,2019_Oct_25_1457,ACPT_experiment_5_30_19,3.1.0,59.936189228675076,
,,,C,G,g,v,,,,,,,,,,0,18,18,4,,,,,,,,,,,,,b,0,2.3684900663811277,1008.5503418365097,None,,,,,001,66,2019_Oct_25_1457,ACPT_experiment_5_30_19,3.1.0,59.936189228675076,
,,,C,G,y,b,,,,,,,,,,0,19,19,5,,,,,,,,,,,,,b,1,1.6512663903886278,1014.2046654216138,None,,,,,001,66,2019_Oct_25_1457,ACPT_experiment_5_30_19,3.1.0,59.936189228675076,
,,,C,G,y,b,,,,,,,,,,1,0,20,5,,,,,,,,,,,,,b,1,1.0508379363818676,1019.141736654432,None,,,,,001,66,2019_Oct_25_1457,ACPT_experiment_5_30_19,3.1.0,59.936189228675076,
,,,C,U,g,n,,,,,,,,,,1,1,21,7,,,,,,,,,,,,,n,1,1.4507040935568511,1023.4954699003065,None,,,,,001,66,2019_Oct_25_1457,ACPT_experiment_5_30_19,3.1.0,59.936189228675076,
,,,C,U,y,n,,,,,,,,,,1,2,22,17,,,,,,,,,,,,,n,1,1.501170143692434,1028.2153468880642,None,,,,,001,66,2019_Oct_25_1457,ACPT_experiment_5_30_19,3.1.0,59.936189228675076,
,,,C,U,g,n,,,,,,,,,,1,3,23,16,,,,,,,,,,,,,n,1,1.6513023112202063,1032.9856404216207,None,,,,,001,66,2019_Oct_25_1457,ACPT_experiment_5_30_19,3.1.0,59.936189228675076,
,,,C,D,d,v,,,,,,,,,,1,4,24,9,,,,,,,,,,,,,v,1,1.9348284448296909,1037.9227599513542,None,,,,,001,66,2019_Oct_25_1457,ACPT_experiment_5_30_19,3.1.0,59.936189228675076,
,,,C,G,g,v,,,,,,,,,,1,5,25,4,,,,,,,,,,,,,v,1,3.0023146296480263,1043.143406218409,None,,,,,001,66,2019_Oct_25_1457,ACPT_experiment_5_30_19,3.1.0,59.936189228675076,
,,,C,U,y,n,,,,,,,,,,1,6,26,8,,,,,,,,,,,,,n,1,0.8840113364931312,1049.431542292552,None,,,,,001,66,2019_Oct_25_1457,ACPT_experiment_5_30_19,3.1.0,59.936189228675076,
,,,C,D,d,v,,,,,,,,,,1,7,27,18,,,,,,,,,,,,,v,1,1.9515159345100983,1053.6013865440582,None,,,,,001,66,2019_Oct_25_1457,ACPT_experiment_5_30_19,3.1.0,59.936189228675076,
,,,C,G,d,b,,,,,,,,,,1,8,28,3,,,,,,,,,,,,,b,1,2.03489874702791,1058.8387157729576,None,,,,,001,66,2019_Oct_25_1457,ACPT_experiment_5_30_19,3.1.0,59.936189228675076,
,,,C,G,y,b,,,,,,,,,,1,9,29,14,,,,,,,,,,,,,b,1,1.4511164284667757,1064.1594456238618,None,,,,,001,66,2019_Oct_25_1457,ACPT_experiment_5_30_19,3.1.0,59.936189228675076,
,,,C,G,g,v,,,,,,,,,,1,10,30,13,,,,,,,,,,,,,v,1,3.5527482302950375,1068.879686649616,None,,,,,001,66,2019_Oct_25_1457,ACPT_experiment_5_30_19,3.1.0,59.936189228675076,
,,,C,D,g,b,,,,,,,,,,1,11,31,10,,,,,,,,,,,,,b,1,1.317681711858313,1075.7182617578092,None,,,,,001,66,2019_Oct_25_1457,ACPT_experiment_5_30_19,3.1.0,59.936189228675076,
,,,C,D,y,b,,,,,,,,,,1,12,32,2,,,,,,,,,,,,,b,1,0.9841094094172149,1080.3051057989214,None,,,,,001,66,2019_Oct_25_1457,ACPT_experiment_5_30_19,3.1.0,59.936189228675076,
,,,C,D,y,b,,,,,,,,,,1,13,33,11,,,,,,,,,,,,,b,1,0.9840955240542826,1084.5583389000567,None,,,,,001,66,2019_Oct_25_1457,ACPT_experiment_5_30_19,3.1.0,59.936189228675076,
,,,C,U,d,n,,,,,,,,,,1,14,34,6,,,,,,,,,,,,,n,1,1.8344753038254566,1088.8452117080178,None,,,,,001,66,2019_Oct_25_1457,ACPT_experiment_5_30_19,3.1.0,59.936189228675076,
,,,C,U,d,n,,,,,,,,,,1,15,35,15,,,,,,,,,,,,,n,1,1.7346658049700636,1093.9488393798565,None,,,,,001,66,2019_Oct_25_1457,ACPT_experiment_5_30_19,3.1.0,59.936189228675076,
,,,C,G,g,v,,,,,,,,,,1,16,36,19,,,,,,,,,,,,,v,1,5.604288886790528,1098.9693368924145,None,,,,,001,66,2019_Oct_25_1457,ACPT_experiment_5_30_19,3.1.0,59.936189228675076,
,,,C,D,g,b,,,,,,,,,,1,17,37,1,,,,,,,,,,,,,b,1,2.4185193312932824,1107.8594523552456,None,,,,,001,66,2019_Oct_25_1457,ACPT_experiment_5_30_19,3.1.0,59.936189228675076,
,,,C,G,d,b,,,,,,,,,,1,18,38,12,,,,,,,,,,,,,b,1,2.0849603105016286,1113.5638039978385,None,,,,,001,66,2019_Oct_25_1457,ACPT_experiment_5_30_19,3.1.0,59.936189228675076,
,,,C,D,d,v,,,,,,,,,,1,19,39,0,,,,,,,,,,,,,v,1,1.7346748606414621,1118.9345637173665,None,,,,,001,66,2019_Oct_25_1457,ACPT_experiment_5_30_19,3.1.0,59.936189228675076,
,,,C,G,y,b,,,,,,,,,,2,0,40,5,,,,,,,,,,,,,b,1,1.3343525994769152,1123.95507420972,None,,,,,001,66,2019_Oct_25_1457,ACPT_experiment_5_30_19,3.1.0,59.936189228675076,
,,,C,G,d,b,,,,,,,,,,2,1,41,3,,,,,,,,,,,,,b,1,2.3985280307751964,1128.5952498173028,None,,,,,001,66,2019_Oct_25_1457,ACPT_experiment_5_30_19,3.1.0,59.936189228675076,
,,,C,D,g,b,,,,,,,,,,2,2,42,10,,,,,,,,,,,,,b,1,5.837793301881902,1134.2796137816458,None,,,,,001,66,2019_Oct_25_1457,ACPT_experiment_5_30_19,3.1.0,59.936189228675076,
,,,C,D,g,b,,,,,,,,,,2,3,43,1,,,,,,,,,,,,,b,1,2.201714781966075,1143.3865307752476,None,,,,,001,66,2019_Oct_25_1457,ACPT_experiment_5_30_19,3.1.0,59.936189228675076,
,,,C,G,y,b,,,,,,,,,,2,4,44,14,,,,,,,,,,,,,b,1,1.0508083545209956,1148.874074849955,None,,,,,001,66,2019_Oct_25_1457,ACPT_experiment_5_30_19,3.1.0,59.936189228675076,
,,,C,D,y,b,,,,,,,,,,2,5,45,2,,,,,,,,,,,,,b,1,2.5486460110823828,1153.2307119478428,None,,,,,001,66,2019_Oct_25_1457,ACPT_experiment_5_30_19,3.1.0,59.936189228675076,
,,,C,D,d,v,,,,,,,,,,2,6,46,9,,,,,,,,,,,,,v,1,2.051583218149972,1159.0485036861119,None,,,,,001,66,2019_Oct_25_1457,ACPT_experiment_5_30_19,3.1.0,59.936189228675076,
,,,C,D,d,v,,,,,,,,,,2,7,47,18,,,,,,,,,,,,,v,1,1.184404563937278,1164.3690780813213,None,,,,,001,66,2019_Oct_25_1457,ACPT_experiment_5_30_19,3.1.0,59.936189228675076,
,,,C,G,g,v,,,,,,,,,,2,8,48,4,,,,,,,,,,,,,v,1,1.88451362440901,1168.8562496660725,None,,,,,001,66,2019_Oct_25_1457,ACPT_experiment_5_30_19,3.1.0,59.936189228675076,
,,,C,U,d,n,,,,,,,,,,2,9,49,6,,,,,,,,,,,,,n,1,1.6846280880981794,1174.0265989221953,None,,,,,001,66,2019_Oct_25_1457,ACPT_experiment_5_30_19,3.1.0,59.936189228675076,
,,,C,D,d,v,,,,,,,,,,2,10,50,0,,,,,,,,,,,,,v,1,1.8681035401332338,1178.9970508696315,None,,,,,001,66,2019_Oct_25_1457,ACPT_experiment_5_30_19,3.1.0,59.936189228675076,
,,,C,D,y,b,,,,,,,,,,2,11,51,11,,,,,,,,,,,,,b,1,1.4010750893266959,1184.150983400652,None,,,,,001,66,2019_Oct_25_1457,ACPT_experiment_5_30_19,3.1.0,59.936189228675076,
,,,C,U,y,n,,,,,,,,,,2,12,52,8,,,,,,,,,,,,,n,1,1.8511899605200597,1188.8547935140869,None,,,,,001,66,2019_Oct_25_1457,ACPT_experiment_5_30_19,3.1.0,59.936189228675076,
,,,C,U,g,n,,,,,,,,,,2,13,53,7,,,,,,,,,,,,,n,1,1.3344126687625248,1193.9751207498339,None,,,,,001,66,2019_Oct_25_1457,ACPT_experiment_5_30_19,3.1.0,59.936189228675076,
,,,C,G,g,v,,,,,,,,,,2,14,54,19,,,,,,,,,,,,,v,1,5.520612670514311,1198.6122941004414,None,,,,,001,66,2019_Oct_25_1457,ACPT_experiment_5_30_19,3.1.0,59.936189228675076,
,,,C,U,g,n,,,,,,,,,,2,15,55,16,,,,,,,,,,,,,n,1,1.2509625424227124,1207.4187306302956,None,,,,,001,66,2019_Oct_25_1457,ACPT_experiment_5_30_19,3.1.0,59.936189228675076,
,,,C,U,y,n,,,,,,,,,,2,16,56,17,,,,,,,,,,,,,n,1,1.2673786638115416,1211.955785985503,None,,,,,001,66,2019_Oct_25_1457,ACPT_experiment_5_30_19,3.1.0,59.936189228675076,
,,,C,G,d,b,,,,,,,,,,2,17,57,12,,,,,,,,,,,,,b,1,7.539098314709918,1216.5089945457694,None,,,,,001,66,2019_Oct_25_1457,ACPT_experiment_5_30_19,3.1.0,59.936189228675076,
,,,C,U,d,n,,,,,,,,,,2,18,58,15,,,,,,,,,,,,,n,1,1.4510868466095417,1227.3339456979684,None,,,,,001,66,2019_Oct_25_1457,ACPT_experiment_5_30_19,3.1.0,59.936189228675076,
,,,C,G,g,v,,,,,,,,,,2,19,59,13,,,,,,,,,,,,,v,1,2.9689456874002644,1232.0708618373192,None,,,,,001,66,2019_Oct_25_1457,ACPT_experiment_5_30_19,3.1.0,59.936189228675076,
,,,C,D,y,b,,,,,,,,,,3,0,60,11,,,,,,,,,,,,,b,1,1.651318007716327,1238.325631987771,None,,,,,001,66,2019_Oct_25_1457,ACPT_experiment_5_30_19,3.1.0,59.936189228675076,
,,,C,D,g,b,,,,,,,,,,3,1,61,10,,,,,,,,,,,,,v,0,1.9348242188498261,1243.2627288783242,None,,,,,001,66,2019_Oct_25_1457,ACPT_experiment_5_30_19,3.1.0,59.936189228675076,
,,,C,G,y,b,,,,,,,,,,3,2,62,14,,,,,,,,,,,,,b,1,1.2843218252855877,1248.483382389919,None,,,,,001,66,2019_Oct_25_1457,ACPT_experiment_5_30_19,3.1.0,59.936189228675076,
,,,C,U,g,n,,,,,,,,,,3,3,63,7,,,,,,,,,,,,,n,1,1.1339590399875306,1253.0871339735295,None,,,,,001,66,2019_Oct_25_1457,ACPT_experiment_5_30_19,3.1.0,59.936189228675076,
,,,C,D,d,v,,,,,,,,,,3,4,64,0,,,,,,,,,,,,,v,1,1.8516358014167054,1257.50693015451,None,,,,,001,66,2019_Oct_25_1457,ACPT_experiment_5_30_19,3.1.0,59.936189228675076,
,,,C,U,d,n,,,,,,,,,,3,5,65,6,,,,,,,,,,,,,n,1,1.317675071037229,1262.6441839496674,None,,,,,001,66,2019_Oct_25_1457,ACPT_experiment_5_30_19,3.1.0,59.936189228675076,
,,,C,G,g,v,,,,,,,,,,3,6,66,13,,,,,,,,,,,,,v,1,2.0179423039007816,1267.264645058427,None,,,,,001,66,2019_Oct_25_1457,ACPT_experiment_5_30_19,3.1.0,59.936189228675076,
,,,C,G,d,b,,,,,,,,,,3,7,67,3,,,,,,,,,,,,,b,1,1.1008557307759474,1272.5517306746679,None,,,,,001,66,2019_Oct_25_1457,ACPT_experiment_5_30_19,3.1.0,59.936189228675076,
,,,C,G,y,b,,,,,,,,,,3,8,68,5,,,,,,,,,,,,,b,1,1.2507273968185473,1276.9553325982142,None,,,,,001,66,2019_Oct_25_1457,ACPT_experiment_5_30_19,3.1.0,59.936189228675076,
,,,C,G,d,b,,,,,,,,,,3,9,69,12,,,,,,,,,,,,,b,1,4.270000582582725,1281.4918901933434,None,,,,,001,66,2019_Oct_25_1457,ACPT_experiment_5_30_19,3.1.0,59.936189228675076,
,,,C,G,g,v,,,,,,,,,,3,10,70,4,,,,,,,,,,,,,v,1,1.117555898399587,1289.0309486630958,None,,,,,001,66,2019_Oct_25_1457,ACPT_experiment_5_30_19,3.1.0,59.936189228675076,
,,,C,D,d,v,,,,,,,,,,3,11,71,18,,,,,,,,,,,,,v,1,1.351050654106075,1293.4343287226893,None,,,,,001,66,2019_Oct_25_1457,ACPT_experiment_5_30_19,3.1.0,59.936189228675076,
,,,C,U,y,n,,,,,,,,,,3,12,72,8,,,,,,,,,,,,,n,1,1.1175634447899938,1298.071198104588,None,,,,,001,66,2019_Oct_25_1457,ACPT_experiment_5_30_19,3.1.0,59.936189228675076,
,,,C,U,y,n,,,,,,,,,,3,13,73,17,,,,,,,,,,,,,n,1,0.5003998078973382,1302.4745534120102,None,,,,,001,66,2019_Oct_25_1457,ACPT_experiment_5_30_19,3.1.0,59.936189228675076,
,,,C,D,g,b,,,,,,,,,,3,14,74,1,,,,,,,,,,,,,b,1,2.3184490290950635,1306.260781305229,None,,,,,001,66,2019_Oct_25_1457,ACPT_experiment_5_30_19,3.1.0,59.936189228675076,
,,,C,U,g,n,,,,,,,,,,3,15,75,16,,,,,,,,,,,,,n,1,1.4344440315726388,1311.8650487602627,None,,,,,001,66,2019_Oct_25_1457,ACPT_experiment_5_30_19,3.1.0,59.936189228675076,
,,,C,D,y,b,,,,,,,,,,3,16,76,2,,,,,,,,,,,,,b,1,1.384197732397297,1316.6021662373769,None,,,,,001,66,2019_Oct_25_1457,ACPT_experiment_5_30_19,3.1.0,59.936189228675076,
,,,C,D,d,v,,,,,,,,,,3,17,77,9,,,,,,,,,,,,,v,1,2.568637311600469,1321.272224655515,None,,,,,001,66,2019_Oct_25_1457,ACPT_experiment_5_30_19,3.1.0,59.936189228675076,
,,,C,U,d,n,,,,,,,,,,3,18,78,15,,,,,,,,,,,,,n,1,1.284365292511211,1327.126684317178,None,,,,,001,66,2019_Oct_25_1457,ACPT_experiment_5_30_19,3.1.0,59.936189228675076,
,,,C,G,g,v,,,,,,,,,,3,19,79,19,,,,,,,,,,,,,v,1,2.1680862438006443,1331.713765918741,None,,,,,001,66,2019_Oct_25_1457,ACPT_experiment_5_30_19,3.1.0,59.936189228675076,
,,,C,D,g,b,,,,,,,,,,4,0,80,1,,,,,,,,,,,,,b,1,1.284341144051723,1337.1676784367246,None,,,,,001,66,2019_Oct_25_1457,ACPT_experiment_5_30_19,3.1.0,59.936189228675076,
,,,C,D,d,v,,,,,,,,,,4,1,81,9,,,,,,,,,,,,,v,1,1.400814889697358,1341.738096395211,None,,,,,001,66,2019_Oct_25_1457,ACPT_experiment_5_30_19,3.1.0,59.936189228675076,
,,,C,U,d,n,,,,,,,,,,4,2,82,15,,,,,,,,,,,,,n,1,1.2343118791395682,1346.4247372572372,None,,,,,001,66,2019_Oct_25_1457,ACPT_experiment_5_30_19,3.1.0,59.936189228675076,
,,,C,G,g,v,,,,,,,,,,4,3,83,19,,,,,,,,,,,,,v,1,1.3007153074941016,1350.9618203831687,None,,,,,001,66,2019_Oct_25_1457,ACPT_experiment_5_30_19,3.1.0,59.936189228675076,
,,,C,G,y,b,,,,,,,,,,4,4,84,5,,,,,,,,,,,,,b,1,2.9189076686743647,1355.5483613611414,None,,,,,001,66,2019_Oct_25_1457,ACPT_experiment_5_30_19,3.1.0,59.936189228675076,
,,,C,D,g,b,,,,,,,,,,4,5,85,10,,,,,,,,,,,,,b,1,1.5511900510755368,1361.7530974169913,None,,,,,001,66,2019_Oct_25_1457,ACPT_experiment_5_30_19,3.1.0,59.936189228675076,
,,,C,G,g,v,,,,,,,,,,4,6,86,4,,,,,,,,,,,,,v,1,1.167568259385007,1366.5901170626657,None,,,,,001,66,2019_Oct_25_1457,ACPT_experiment_5_30_19,3.1.0,59.936189228675076,
,,,C,G,d,b,,,,,,,,,,4,7,87,12,,,,,,,,,,,,,b,1,1.017437299284211,1371.0268609329596,None,,,,,001,66,2019_Oct_25_1457,ACPT_experiment_5_30_19,3.1.0,59.936189228675076,
,,,C,D,d,v,,,,,,,,,,4,8,88,0,,,,,,,,,,,,,v,1,1.9348483673056762,1375.330111828489,None,,,,,001,66,2019_Oct_25_1457,ACPT_experiment_5_30_19,3.1.0,59.936189228675076,
,,,C,U,y,n,,,,,,,,,,4,9,89,8,,,,,,,,,,,,,n,1,0.7672632039975724,1380.5507602085363,None,,,,,001,66,2019_Oct_25_1457,ACPT_experiment_5_30_19,3.1.0,59.936189228675076,
,,,C,G,d,b,,,,,,,,,,4,10,90,3,,,,,,,,,,,,,b,1,2.601736394834006,1384.6207898296361,None,,,,,001,66,2019_Oct_25_1457,ACPT_experiment_5_30_19,3.1.0,59.936189228675076,
,,,C,D,y,b,,,,,,,,,,4,11,91,2,,,,,,,,,,,,,b,1,1.4844751076198008,1390.5083561209267,None,,,,,001,66,2019_Oct_25_1457,ACPT_experiment_5_30_19,3.1.0,59.936189228675076,
,,,C,U,y,n,,,,,,,,,,4,12,92,17,,,,,,,,,,,,,n,1,1.1508922402244934,1395.278656295306,None,,,,,001,66,2019_Oct_25_1457,ACPT_experiment_5_30_19,3.1.0,59.936189228675076,
,,,C,U,g,n,,,,,,,,,,4,13,93,7,,,,,,,,,,,,,n,1,5.3507753616904665,1399.7353724492077,None,,,,,001,66,2019_Oct_25_1457,ACPT_experiment_5_30_19,3.1.0,59.936189228675076,
,,,C,G,y,b,,,,,,,,,,4,14,94,14,,,,,,,,,,,,,b,1,1.36772425842355,1408.371977707351,None,,,,,001,66,2019_Oct_25_1457,ACPT_experiment_5_30_19,3.1.0,59.936189228675076,
,,,C,U,d,n,,,,,,,,,,4,15,95,6,,,,,,,,,,,,,n,1,3.9861523689178284,1413.0424469511217,None,,,,,001,66,2019_Oct_25_1457,ACPT_experiment_5_30_19,3.1.0,59.936189228675076,
,,,C,U,g,n,,,,,,,,,,4,16,96,16,,,,,,,,,,,,,n,1,0.8340201054052159,1420.29774142496,None,,,,,001,66,2019_Oct_25_1457,ACPT_experiment_5_30_19,3.1.0,59.936189228675076,
,,,C,D,d,v,,,,,,,,,,4,17,97,18,,,,,,,,,,,,,v,1,1.5011598805976973,1424.417547054023,None,,,,,001,66,2019_Oct_25_1457,ACPT_experiment_5_30_19,3.1.0,59.936189228675076,
,,,C,D,y,b,,,,,,,,,,4,18,98,11,,,,,,,,,,,,,b,1,1.384394542328664,1429.204532001384,None,,,,,001,66,2019_Oct_25_1457,ACPT_experiment_5_30_19,3.1.0,59.936189228675076,
,,,C,G,g,v,,,,,,,,,,4,19,99,13,,,,,,,,,,,,,v,1,1.6342622540614684,1433.9084616496857,None,,,,,001,66,2019_Oct_25_1457,ACPT_experiment_5_30_19,3.1.0,59.936189228675076,
,,,C,D,g,b,,,,,,,,,,5,0,100,1,,,,,,,,,,,,,b,1,1.3510518615294131,1438.828528746175,None,,,,,001,66,2019_Oct_25_1457,ACPT_experiment_5_30_19,3.1.0,59.936189228675076,
,,,C,D,g,b,,,,,,,,,,5,1,101,10,,,,,,,,,,,,,b,1,1.1175172608673165,1443.4487356924164,None,,,,,001,66,2019_Oct_25_1457,ACPT_experiment_5_30_19,3.1.0,59.936189228675076,
,,,C,U,y,n,,,,,,,,,,5,2,102,8,,,,,,,,,,,,,n,1,1.2342889381034183,1447.8520792274667,None,,,,,001,66,2019_Oct_25_1457,ACPT_experiment_5_30_19,3.1.0,59.936189228675076,
,,,C,U,g,n,,,,,,,,,,5,3,103,16,,,,,,,,,,,,,n,1,2.335118407430855,1452.3722065139864,None,,,,,001,66,2019_Oct_25_1457,ACPT_experiment_5_30_19,3.1.0,59.936189228675076,
,,,C,U,y,n,,,,,,,,,,5,4,104,17,,,,,,,,,,,,,n,1,1.2343471962594776,1457.9764495187064,None,,,,,001,66,2019_Oct_25_1457,ACPT_experiment_5_30_19,3.1.0,59.936189228675076,
,,,C,U,d,n,,,,,,,,,,5,5,105,15,,,,,,,,,,,,,n,1,1.0505538901525142,1462.4968469660944,None,,,,,001,66,2019_Oct_25_1457,ACPT_experiment_5_30_19,3.1.0,59.936189228675076,
,,,C,G,y,b,,,,,,,,,,5,6,106,5,,,,,,,,,,,,,b,1,1.4344588225030748,1466.833220791459,None,,,,,001,66,2019_Oct_25_1457,ACPT_experiment_5_30_19,3.1.0,59.936189228675076,
,,,C,G,d,b,,,,,,,,,,5,7,107,3,,,,,,,,,,,,,b,1,2.3351537245544023,1471.553487776806,None,,,,,001,66,2019_Oct_25_1457,ACPT_experiment_5_30_19,3.1.0,59.936189228675076,
,,,C,G,g,v,,,,,,,,,,5,8,108,13,,,,,,,,,,,,,v,1,1.3843882033543196,1477.1577615708102,None,,,,,001,66,2019_Oct_25_1457,ACPT_experiment_5_30_19,3.1.0,59.936189228675076,
,,,C,D,y,b,,,,,,,,,,5,9,109,11,,,,,,,,,,,,,b,1,1.3677179194564815,1481.8279884244384,None,,,,,001,66,2019_Oct_25_1457,ACPT_experiment_5_30_19,3.1.0,59.936189228675076,
,,,C,G,d,b,,,,,,,,,,5,10,110,12,,,,,,,,,,,,,b,1,2.652027066797018,1486.4815455978733,None,,,,,001,66,2019_Oct_25_1457,ACPT_experiment_5_30_19,3.1.0,59.936189228675076,
,,,C,D,y,b,,,,,,,,,,5,11,111,2,,,,,,,,,,,,,b,1,1.3010219929055893,1492.4193735829776,None,,,,,001,66,2019_Oct_25_1457,ACPT_experiment_5_30_19,3.1.0,59.936189228675076,
,,,C,D,d,v,,,,,,,,,,5,12,112,0,,,,,,,,,,,,,v,1,2.134749298260431,1497.039828050909,None,,,,,001,66,2019_Oct_25_1457,ACPT_experiment_5_30_19,3.1.0,59.936189228675076,
,,,C,U,d,n,,,,,,,,,,5,13,113,6,,,,,,,,,,,,,n,1,1.117547144582204,1502.4437061724366,None,,,,,001,66,2019_Oct_25_1457,ACPT_experiment_5_30_19,3.1.0,59.936189228675076,
,,,C,G,y,b,,,,,,,,,,5,14,114,14,,,,,,,,,,,,,b,1,2.8852667544233555,1506.8640233563874,None,,,,,001,66,2019_Oct_25_1457,ACPT_experiment_5_30_19,3.1.0,59.936189228675076,
,,,C,D,d,v,,,,,,,,,,5,15,115,18,,,,,,,,,,,,,v,1,2.952254877309315,1513.0351227239717,None,,,,,001,66,2019_Oct_25_1457,ACPT_experiment_5_30_19,3.1.0,59.936189228675076,
,,,C,G,g,v,,,,,,,,,,5,16,116,4,,,,,,,,,,,,,v,1,3.319212120353768,1519.2732065921682,None,,,,,001,66,2019_Oct_25_1457,ACPT_experiment_5_30_19,3.1.0,59.936189228675076,
,,,C,G,g,v,,,,,,,,,,5,17,117,19,,,,,,,,,,,,,v,1,1.1509348018807941,1525.8615599118693,None,,,,,001,66,2019_Oct_25_1457,ACPT_experiment_5_30_19,3.1.0,59.936189228675076,
,,,C,D,d,v,,,,,,,,,,5,18,118,9,,,,,,,,,,,,,v,1,1.9348199928681424,1530.2982799355614,None,,,,,001,66,2019_Oct_25_1457,ACPT_experiment_5_30_19,3.1.0,59.936189228675076,
,,,C,U,g,n,,,,,,,,,,5,19,119,7,0,0,0,0,0,0,0,0,,,,,n,1,1.2676421838550596,1535.518928013751,None,,,,,001,66,2019_Oct_25_1457,ACPT_experiment_5_30_19,3.1.0,59.936189228675076,
,,,C,U,g,n,L,D,d,L,c ,,,,,5,19,119,7,0,0,0,0,,,,,0,0,0,12,,,,,,up,1.1508834864107484,1656.6613012818907,None,001,66,2019_Oct_25_1457,ACPT_experiment_5_30_19,3.1.0,59.936189228675076,
,,,C,U,g,n,R,G,d,R,i,,,,,5,19,119,7,0,0,0,0,,,,,0,1,1,5,,,,,,up,0.7505889959684282,1659.0964963304923,None,001,66,2019_Oct_25_1457,ACPT_experiment_5_30_19,3.1.0,59.936189228675076,
,,,C,U,g,n,L,U,y,L,u,,,,,5,19,119,7,0,0,0,0,,,,,0,2,2,24,,,,,,down,0.8840025826793863,1661.1313839088562,None,001,66,2019_Oct_25_1457,ACPT_experiment_5_30_19,3.1.0,59.936189228675076,
,,,C,U,g,n,R,D,d,L,c,,,,,5,19,119,7,0,0,0,0,,,,,0,3,3,0,,,,,,down,1.0841966155348928,1663.2997040908394,None,001,66,2019_Oct_25_1457,ACPT_experiment_5_30_19,3.1.0,59.936189228675076,
,,,C,U,g,n,R,D,d,R,c ,,,,,5,19,119,7,0,0,0,0,,,,,0,4,4,1,,,,,,down,0.767397227937181,1665.6680236087395,None,001,66,2019_Oct_25_1457,ACPT_experiment_5_30_19,3.1.0,59.936189228675076,
,,,C,U,g,n,R,U,y,R,u,,,,,5,19,119,7,0,0,0,0,,,,,0,5,5,31,,,,,,down,0.8339539990010962,1667.7197477935097,None,001,66,2019_Oct_25_1457,ACPT_experiment_5_30_19,3.1.0,59.936189228675076,
,,,C,U,g,n,R,U,d,R,u,,,,,5,19,119,7,0,0,0,0,,,,,0,6,6,9,,,,,,up,0.5504269598204701,1669.8380160714023,None,001,66,2019_Oct_25_1457,ACPT_experiment_5_30_19,3.1.0,59.936189228675076,
,,,C,U,g,n,L,U,d,R,u,,,,,5,19,119,7,0,0,0,0,,,,,0,7,7,21,,,,,,up,0.7172526541398838,1671.6727467451656,None,001,66,2019_Oct_25_1457,ACPT_experiment_5_30_19,3.1.0,59.936189228675076,
,,,C,U,g,n,L,G,d,R,i,,,,,5,19,119,7,0,0,0,0,,,,,0,8,8,17,,,,,,up,0.7005316584763932,1673.674277455515,None,001,66,2019_Oct_25_1457,ACPT_experiment_5_30_19,3.1.0,59.936189228675076,
,,,C,U,g,n,R,D,g,R,i,,,,,5,19,119,7,0,0,0,0,,,,,0,9,9,3,,,,,,up,0.6004559228786093,1675.6591267132953,None,001,66,2019_Oct_25_1457,ACPT_experiment_5_30_19,3.1.0,59.936189228675076,
,,,C,U,g,n,L,U,y,R,u,,,,,5,19,119,7,0,0,0,0,,,,,0,10,10,25,,,,,,down,0.7672577705961885,1677.5438908779524,None,001,66,2019_Oct_25_1457,ACPT_experiment_5_30_19,3.1.0,59.936189228675076,
,,,C,U,g,n,L,U,d,L,u,,,,,5,19,119,7,0,0,0,0,,,,,0,11,11,20,,,,,,up,0.7673090860662342,1679.5787585338385,None,001,66,2019_Oct_25_1457,ACPT_experiment_5_30_19,3.1.0,59.936189228675076,
,,,C,U,g,n,R,U,d,L,u,,,,,5,19,119,7,0,0,0,0,,,,,0,12,12,8,,,,,,up,0.733891243198741,1681.6303414501326,None,001,66,2019_Oct_25_1457,ACPT_experiment_5_30_19,3.1.0,59.936189228675076,
,,,C,U,g,n,R,D,y,R,y,,,,,5,19,119,7,0,0,0,0,,,,,0,13,13,27,,,,,,down,0.9506586642710317,1683.6486046266637,None,001,66,2019_Oct_25_1457,ACPT_experiment_5_30_19,3.1.0,59.936189228675076,
,,,C,U,g,n,L,D,y,R,y,,,,,5,19,119,7,0,0,0,0,,,,,0,14,14,33,,,,,,down,0.6838215296193084,1685.86692871768,None,001,66,2019_Oct_25_1457,ACPT_experiment_5_30_19,3.1.0,59.936189228675076,
,,,C,U,g,n,L,G,d,L,i,,,,,5,19,119,7,0,0,0,0,,,,,0,15,15,16,,,,,,up,0.7672469037897827,1687.8350750911395,None,001,66,2019_Oct_25_1457,ACPT_experiment_5_30_19,3.1.0,59.936189228675076,
,,,C,U,g,n,R,G,g,L,c ,,,,,5,19,119,7,0,0,0,0,,,,,0,16,16,6,,,,,,up,0.6838541300348879,1689.8866341608318,None,001,66,2019_Oct_25_1457,ACPT_experiment_5_30_19,3.1.0,59.936189228675076,
,,,C,U,g,n,L,D,g,L,i,,,,,5,19,119,7,0,0,0,0,,,,,0,17,17,14,,,,,,up,0.7172435984721233,1691.854808908729,None,001,66,2019_Oct_25_1457,ACPT_experiment_5_30_19,3.1.0,59.936189228675076,
,,,C,U,g,n,L,U,g,L,u,,,,,5,19,119,7,0,0,0,0,,,,,0,18,18,22,,,,,,up,0.7672456963700824,1693.8563302615494,None,001,66,2019_Oct_25_1457,ACPT_experiment_5_30_19,3.1.0,59.936189228675076,
,,,C,U,g,n,R,U,g,L,u,,,,,5,19,119,7,0,0,0,0,,,,,0,19,19,10,,,,,,up,0.41697081145684933,1695.9079008017598,None,001,66,2019_Oct_25_1457,ACPT_experiment_5_30_19,3.1.0,59.936189228675076,
,,,C,U,g,n,R,U,g,R,u,,,,,5,19,119,7,0,0,0,0,,,,,0,20,20,11,,,,,,up,0.8673419581573398,1697.5924956857289,None,001,66,2019_Oct_25_1457,ACPT_experiment_5_30_19,3.1.0,59.936189228675076,
,,,C,U,g,n,R,G,g,R,c ,,,,,5,19,119,7,0,0,0,0,,,,,0,21,21,7,,,,,,up,0.6838692228229775,1699.7441531301974,None,001,66,2019_Oct_25_1457,ACPT_experiment_5_30_19,3.1.0,59.936189228675076,
,,,C,U,g,n,L,G,y,R,y,,,,,5,19,119,7,0,0,0,0,,,,,0,22,22,35,,,,,,down,0.7005751256983785,1701.7289987657114,None,001,66,2019_Oct_25_1457,ACPT_experiment_5_30_19,3.1.0,59.936189228675076,
,,,C,U,g,n,R,U,y,L,u,,,,,5,19,119,7,0,0,0,0,,,,,0,23,23,30,,,,,,down,0.8339334728116228,1703.7305599634874,None,001,66,2019_Oct_25_1457,ACPT_experiment_5_30_19,3.1.0,59.936189228675076,
,,,C,U,g,n,R,G,y,L,y,,,,,5,19,119,7,0,0,0,0,,,,,0,24,24,28,,,,,,down,0.5003955819192925,1705.8488074133365,None,001,66,2019_Oct_25_1457,ACPT_experiment_5_30_19,3.1.0,59.936189228675076,
,,,C,U,g,n,L,D,y,L,y,,,,,5,19,119,7,0,0,0,0,,,,,0,25,25,32,,,,,,down,0.7672559594611812,1707.6168210306514,None,001,66,2019_Oct_25_1457,ACPT_experiment_5_30_19,3.1.0,59.936189228675076,
,,,C,U,g,n,L,D,g,R,i,,,,,5,19,119,7,0,0,0,0,,,,,0,26,26,15,,,,,,up,0.9674038083903724,1709.6683894578691,None,001,66,2019_Oct_25_1457,ACPT_experiment_5_30_19,3.1.0,59.936189228675076,
,,,C,U,g,n,L,G,g,L,c ,,,,,5,19,119,7,0,0,0,0,,,,,0,27,27,18,,,,,,up,0.6171379791558138,1711.9034230740344,None,001,66,2019_Oct_25_1457,ACPT_experiment_5_30_19,3.1.0,59.936189228675076,
,,,C,U,g,n,L,D,d,R,c ,,,,,5,19,119,7,0,0,0,0,,,,,0,28,28,13,,,,,,up,0.7839322804793483,1713.8048744265125,None,001,66,2019_Oct_25_1457,ACPT_experiment_5_30_19,3.1.0,59.936189228675076,
,,,C,U,g,n,L,U,g,R,u,,,,,5,19,119,7,0,0,0,0,,,,,0,29,29,23,,,,,,up,0.7839325823333638,1715.873117665471,None,001,66,2019_Oct_25_1457,ACPT_experiment_5_30_19,3.1.0,59.936189228675076,
,,,C,U,g,n,R,G,y,R,y,,,,,5,19,119,7,0,0,0,0,,,,,0,30,30,29,,,,,,down,0.7506049943222024,1717.9413542636084,None,001,66,2019_Oct_25_1457,ACPT_experiment_5_30_19,3.1.0,59.936189228675076,
,,,C,U,g,n,L,G,g,R,c ,,,,,5,19,119,7,0,0,0,0,,,,,0,31,31,19,,,,,,up,1.050802015550289,1719.9762457660963,None,001,66,2019_Oct_25_1457,ACPT_experiment_5_30_19,3.1.0,59.936189228675076,
,,,C,U,g,n,R,G,d,L,i,,,,,5,19,119,7,0,0,0,0,,,,,0,32,32,4,,,,,,up,0.5003702260401042,1722.3113620605418,None,001,66,2019_Oct_25_1457,ACPT_experiment_5_30_19,3.1.0,59.936189228675076,
,,,C,U,g,n,L,G,y,L,y,,,,,5,19,119,7,0,0,0,0,,,,,0,33,33,34,,,,,,down,0.6671735830350372,1724.0960550174295,None,001,66,2019_Oct_25_1457,ACPT_experiment_5_30_19,3.1.0,59.936189228675076,
,,,C,U,g,n,R,D,y,L,y,,,,,5,19,119,7,0,0,0,0,,,,,0,34,34,26,,,,,,down,0.6338013203785522,1726.0642234263596,None,001,66,2019_Oct_25_1457,ACPT_experiment_5_30_19,3.1.0,59.936189228675076,
,,,C,U,g,n,R,D,g,L,i,,,,,5,19,119,7,0,0,0,0,,,,,0,35,35,2,,,,,,up,0.600487014016835,1727.9990277227316,None,001,66,2019_Oct_25_1457,ACPT_experiment_5_30_19,3.1.0,59.936189228675076,
,,,C,U,g,n,R,U,d,L,u,,,,,5,19,119,7,0,0,0,0,,,,,1,0,36,8,,,,,,up,0.8839850750482583,1729.8838054708958,None,001,66,2019_Oct_25_1457,ACPT_experiment_5_30_19,3.1.0,59.936189228675076,
,,,C,U,g,n,L,U,y,L,u,,,,,5,19,119,7,0,0,0,0,,,,,1,1,37,24,,,,,,down,0.7505690734942618,1732.0521187101967,None,001,66,2019_Oct_25_1457,ACPT_experiment_5_30_19,3.1.0,59.936189228675076,
,,,C,U,g,n,L,U,y,R,u,,,,,5,19,119,7,0,0,0,0,,,,,1,2,38,25,,,,,,down,0.5003789798538492,1734.0870029681482,None,001,66,2019_Oct_25_1457,ACPT_experiment_5_30_19,3.1.0,59.936189228675076,
,,,C,U,g,n,R,G,g,L,c ,,,,,5,19,119,7,0,0,0,0,,,,,1,3,39,6,,,,,,up,0.7505663567899319,1735.871699547306,None,001,66,2019_Oct_25_1457,ACPT_experiment_5_30_19,3.1.0,59.936189228675076,
,,,C,U,g,n,L,G,g,L,c ,,,,,5,19,119,7,0,0,0,0,,,,,1,4,40,18,,,,,,up,0.6338227521337103,1737.9065828996918,None,001,66,2019_Oct_25_1457,ACPT_experiment_5_30_19,3.1.0,59.936189228675076,
,,,C,U,g,n,L,G,y,L,y,,,,,5,19,119,7,0,0,0,0,,,,,1,5,41,34,,,,,,down,0.8006339573767036,1739.8080055758783,None,001,66,2019_Oct_25_1457,ACPT_experiment_5_30_19,3.1.0,59.936189228675076,
,,,C,U,g,n,L,D,d,R,c ,,,,,5,19,119,7,0,0,0,0,,,,,1,6,42,13,,,,,,up,0.7172082813522138,1741.8929553214311,None,001,66,2019_Oct_25_1457,ACPT_experiment_5_30_19,3.1.0,59.936189228675076,
,,,C,U,g,n,L,G,y,R,y,,,,,5,19,119,7,0,0,0,0,,,,,1,7,43,35,,,,,,down,0.783921715530596,1743.9111614472295,None,001,66,2019_Oct_25_1457,ACPT_experiment_5_30_19,3.1.0,59.936189228675076,
,,,C,U,g,n,R,D,g,R,i,,,,,5,19,119,7,0,0,0,0,,,,,1,8,44,3,,,,,,up,0.8006125256215455,1745.9960819127755,None,001,66,2019_Oct_25_1457,ACPT_experiment_5_30_19,3.1.0,59.936189228675076,
,,,C,U,g,n,L,U,g,R,u,,,,,5,19,119,7,0,0,0,0,,,,,1,9,45,23,,,,,,up,0.5671005641379452,1748.0809999634748,None,001,66,2019_Oct_25_1457,ACPT_experiment_5_30_19,3.1.0,59.936189228675076,
,,,C,U,g,n,R,G,y,R,y,,,,,5,19,119,7,0,0,0,0,,,,,1,10,46,29,,,,,,down,0.6502530607394874,1749.9493356306575,None,001,66,2019_Oct_25_1457,ACPT_experiment_5_30_19,3.1.0,59.936189228675076,
,,,C,U,g,n,R,D,g,L,i,,,,,5,19,119,7,0,0,0,0,,,,,1,11,47,2,,,,,,up,0.783957334504521,1751.8839047814272,None,001,66,2019_Oct_25_1457,ACPT_experiment_5_30_19,3.1.0,59.936189228675076,
,,,C,U,g,n,L,U,d,R,u,,,,,5,19,119,7,0,0,0,0,,,,,1,12,48,21,,,,,,up,0.583772357320413,1753.9521480203857,None,001,66,2019_Oct_25_1457,ACPT_experiment_5_30_19,3.1.0,59.936189228675076,
,,,C,U,g,n,R,U,g,R,u,,,,,5,19,119,7,0,0,0,0,,,,,1,13,49,11,,,,,,up,0.6671720737576834,1755.820239486291,None,001,66,2019_Oct_25_1457,ACPT_experiment_5_30_19,3.1.0,59.936189228675076,
,,,C,U,g,n,R,D,d,R,c ,,,,,5,19,119,7,0,0,0,0,,,,,1,14,50,1,,,,,,up,0.8673096595957759,1757.771740026159,None,001,66,2019_Oct_25_1457,ACPT_experiment_5_30_19,3.1.0,59.936189228675076,
,,,C,U,g,n,R,D,d,L,c,,,,,5,19,119,7,0,0,0,0,,,,,1,15,51,0,,,,,,up,0.5839211721904576,1759.9065415454588,None,001,66,2019_Oct_25_1457,ACPT_experiment_5_30_19,3.1.0,59.936189228675076,
,,,C,U,g,n,L,D,y,R,y,,,,,5,19,119,7,0,0,0,0,,,,,1,16,52,33,,,,,,down,0.8172779798369447,1761.7747875614932,None,001,66,2019_Oct_25_1457,ACPT_experiment_5_30_19,3.1.0,59.936189228675076,
,,,C,U,g,n,R,G,d,R,i,,,,,5,19,119,7,0,0,0,0,,,,,1,17,53,5,,,,,,down,1.017434582583519,1763.8763946111521,None,001,66,2019_Oct_25_1457,ACPT_experiment_5_30_19,3.1.0,59.936189228675076,
,,,C,U,g,n,L,G,d,L,i,,,,,5,19,119,7,0,0,0,0,,,,,1,18,54,16,,,,,,up,0.8172840169499977,1766.1781374355141,None,001,66,2019_Oct_25_1457,ACPT_experiment_5_30_19,3.1.0,59.936189228675076,
,,,C,U,g,n,R,U,d,R,u,,,,,5,19,119,7,0,0,0,0,,,,,1,19,55,9,,,,,,up,0.6838550356042106,1768.2797345239323,None,001,66,2019_Oct_25_1457,ACPT_experiment_5_30_19,3.1.0,59.936189228675076,
,,,C,U,g,n,L,D,d,L,c ,,,,,5,19,119,7,0,0,0,0,,,,,1,20,56,12,,,,,,down,1.1842207338049775,1770.2479150070885,None,001,66,2019_Oct_25_1457,ACPT_experiment_5_30_19,3.1.0,59.936189228675076,
,,,C,U,g,n,L,D,g,L,i,,,,,5,19,119,7,0,0,0,0,,,,,1,21,57,14,,,,,,up,1.43442441094885,1772.7164524346317,None,001,66,2019_Oct_25_1457,ACPT_experiment_5_30_19,3.1.0,59.936189228675076,
,,,C,U,g,n,R,U,y,R,u,,,,,5,19,119,7,0,0,0,0,,,,,1,22,58,31,,,,,,down,1.0674807514151325,1775.4351899170524,None,001,66,2019_Oct_25_1457,ACPT_experiment_5_30_19,3.1.0,59.936189228675076,
,,,C,U,g,n,L,D,y,L,y,,,,,5,19,119,7,0,0,0,0,,,,,1,23,59,32,,,,,,down,0.7005319603340467,1777.7869834380817,None,001,66,2019_Oct_25_1457,ACPT_experiment_5_30_19,3.1.0,59.936189228675076,
,,,C,U,g,n,R,D,y,L,y,,,,,5,19,119,7,0,0,0,0,,,,,1,24,60,26,,,,,,down,0.8506463183730375,1779.7718293754533,None,001,66,2019_Oct_25_1457,ACPT_experiment_5_30_19,3.1.0,59.936189228675076,
,,,C,U,g,n,L,G,g,R,c ,,,,,5,19,119,7,0,0,0,0,,,,,1,25,61,19,,,,,,up,1.2842910360050155,1781.9068147248854,None,001,66,2019_Oct_25_1457,ACPT_experiment_5_30_19,3.1.0,59.936189228675076,
,,,C,U,g,n,L,D,g,R,i,,,,,5,19,119,7,0,0,0,0,,,,,1,26,62,15,,,,,,up,0.6838459799291741,1784.4754197379243,None,001,66,2019_Oct_25_1457,ACPT_experiment_5_30_19,3.1.0,59.936189228675076,
,,,C,U,g,n,L,G,d,R,i,,,,,5,19,119,7,0,0,0,0,,,,,1,27,63,17,,,,,,down,0.5837765833020967,1786.4435878449967,None,001,66,2019_Oct_25_1457,ACPT_experiment_5_30_19,3.1.0,59.936189228675076,
,,,C,U,g,n,R,U,g,L,u,,,,,5,19,119,7,0,0,0,0,,,,,1,28,64,10,,,,,,up,0.9674050158137106,1788.3116732737853,None,001,66,2019_Oct_25_1457,ACPT_experiment_5_30_19,3.1.0,59.936189228675076,
,,,C,U,g,n,R,U,y,L,u,,,,,5,19,119,7,0,0,0,0,,,,,1,29,65,30,,,,,,down,1.467805427426356,1790.5466917971626,None,001,66,2019_Oct_25_1457,ACPT_experiment_5_30_19,3.1.0,59.936189228675076,
,,,C,U,g,n,R,G,g,R,c ,,,,,5,19,119,7,0,0,0,0,,,,,1,30,66,7,,,,,,up,2.28506499406285,1793.2988253888452,None,001,66,2019_Oct_25_1457,ACPT_experiment_5_30_19,3.1.0,59.936189228675076,
,,,C,U,g,n,R,G,y,L,y,,,,,5,19,119,7,0,0,0,0,,,,,1,31,67,28,,,,,,down,1.0508225417397625,1796.8515029849023,None,001,66,2019_Oct_25_1457,ACPT_experiment_5_30_19,3.1.0,59.936189228675076,
,,,C,U,g,n,R,G,d,L,i,,,,,5,19,119,7,0,0,0,0,,,,,1,32,68,4,,,,,,up,0.8673748604305729,1799.1699320915195,None,001,66,2019_Oct_25_1457,ACPT_experiment_5_30_19,3.1.0,59.936189228675076,
,,,C,U,g,n,L,U,d,L,u,,,,,5,19,119,7,0,0,0,0,,,,,1,33,69,20,,,,,,up,0.6171412995681749,1801.3049159316743,None,001,66,2019_Oct_25_1457,ACPT_experiment_5_30_19,3.1.0,59.936189228675076,
,,,C,U,g,n,R,D,y,R,y,,,,,5,19,119,7,0,0,0,0,,,,,1,34,70,27,,,,,,down,0.7339187120669521,1803.2063721138456,None,001,66,2019_Oct_25_1457,ACPT_experiment_5_30_19,3.1.0,59.936189228675076,
,,,C,U,g,n,L,U,g,L,u,,,,,5,19,119,7,0,0,0,0,,,,,1,35,71,22,,,,,,up,1.267641278285737,1805.2245737118083,None,001,66,2019_Oct_25_1457,ACPT_experiment_5_30_19,3.1.0,59.936189228675076,
,,,C,U,g,n,,,,,,,,,,5,19,119,7,1,0,1,0,0,0,0,0,,,,,,,,,,,,,,001,66,2019_Oct_25_1457,ACPT_experiment_5_30_19,3.1.0,59.936189228675076,
,,,C,U,g,n,R,U,y,R,u,,,,,5,19,119,7,1,0,1,0,,,,,0,0,0,31,,,,,,down,0.9337843258981593,1909.3542328170897,None,001,66,2019_Oct_25_1457,ACPT_experiment_5_30_19,3.1.0,59.936189228675076,
,,,C,U,g,n,R,G,d,L,i,,,,,5,19,119,7,1,0,1,0,,,,,0,1,1,4,,,,,,up,0.6838405465277901,1911.5723374589961,None,001,66,2019_Oct_25_1457,ACPT_experiment_5_30_19,3.1.0,59.936189228675076,
,,,C,U,g,n,R,U,y,L,u,,,,,5,19,119,7,1,0,1,0,,,,,0,2,2,30,,,,,,down,0.5837986187689239,1913.5571740388386,None,001,66,2019_Oct_25_1457,ACPT_experiment_5_30_19,3.1.0,59.936189228675076,
,,,C,U,g,n,R,G,d,R,i,,,,,5,19,119,7,1,0,1,0,,,,,0,3,3,5,,,,,,up,0.7505518677171494,1915.441959635251,None,001,66,2019_Oct_25_1457,ACPT_experiment_5_30_19,3.1.0,59.936189228675076,
,,,C,U,g,n,L,D,d,R,c ,,,,,5,19,119,7,1,0,1,0,,,,,0,4,4,13,,,,,,up,0.5671171661997505,1917.4768315171186,None,001,66,2019_Oct_25_1457,ACPT_experiment_5_30_19,3.1.0,59.936189228675076,
,,,C,U,g,n,L,D,y,R,y,,,,,5,19,119,7,1,0,1,0,,,,,0,5,5,33,,,,,,down,0.6505138640823134,1919.3282161745756,None,001,66,2019_Oct_25_1457,ACPT_experiment_5_30_19,3.1.0,59.936189228675076,
,,,C,U,g,n,R,D,d,R,c ,,,,,5,19,119,7,1,0,1,0,,,,,0,6,6,1,,,,,,up,0.6171569960642955,1921.279725166407,None,001,66,2019_Oct_25_1457,ACPT_experiment_5_30_19,3.1.0,59.936189228675076,
,,,C,U,g,n,R,U,g,R,u,,,,,5,19,119,7,1,0,1,0,,,,,0,7,7,11,,,,,,up,0.9840822424012003,1923.1811777263083,None,001,66,2019_Oct_25_1457,ACPT_experiment_5_30_19,3.1.0,59.936189228675076,
,,,C,U,g,n,L,U,g,R,u,,,,,5,19,119,7,1,0,1,0,,,,,0,8,8,23,,,,,,up,0.8173175229348999,1925.4495733420354,None,001,66,2019_Oct_25_1457,ACPT_experiment_5_30_19,3.1.0,59.936189228675076,
,,,C,U,g,n,L,U,y,R,u,,,,,5,19,119,7,1,0,1,0,,,,,0,9,9,25,,,,,,down,0.6838508096225269,1927.5511746564353,None,001,66,2019_Oct_25_1457,ACPT_experiment_5_30_19,3.1.0,59.936189228675076,
,,,C,U,g,n,R,D,d,L,c,,,,,5,19,119,7,1,0,1,0,,,,,0,10,10,0,,,,,,up,0.6838526207538962,1929.519342159796,None,001,66,2019_Oct_25_1457,ACPT_experiment_5_30_19,3.1.0,59.936189228675076,
,,,C,U,g,n,R,D,g,R,i,,,,,5,19,119,7,1,0,1,0,,,,,0,11,11,3,,,,,,up,0.6004510931852565,1931.4708333421386,None,001,66,2019_Oct_25_1457,ACPT_experiment_5_30_19,3.1.0,59.936189228675076,
,,,C,U,g,n,R,D,g,L,i,,,,,5,19,119,7,1,0,1,0,,,,,0,12,12,2,,,,,,up,0.8173117876758624,1933.3389054892777,None,001,66,2019_Oct_25_1457,ACPT_experiment_5_30_19,3.1.0,59.936189228675076,
,,,C,U,g,n,R,D,y,L,y,,,,,5,19,119,7,1,0,1,0,,,,,0,13,13,26,,,,,,down,0.7172088850602449,1935.4405282354328,None,001,66,2019_Oct_25_1457,ACPT_experiment_5_30_19,3.1.0,59.936189228675076,
,,,C,U,g,n,L,U,y,L,u,,,,,5,19,119,7,1,0,1,0,,,,,0,14,14,24,,,,,,down,0.750569677202293,1937.4420517012459,None,001,66,2019_Oct_25_1457,ACPT_experiment_5_30_19,3.1.0,59.936189228675076,
,,,C,U,g,n,R,U,d,L,u,,,,,5,19,119,7,1,0,1,0,,,,,0,15,15,8,,,,,,up,0.8339654695155332,1939.47693444992,None,001,66,2019_Oct_25_1457,ACPT_experiment_5_30_19,3.1.0,59.936189228675076,
,,,C,U,g,n,L,G,g,L,c ,,,,,5,19,119,7,1,0,1,0,,,,,0,16,16,18,,,,,,up,0.5504166967293713,1941.5952172168854,None,001,66,2019_Oct_25_1457,ACPT_experiment_5_30_19,3.1.0,59.936189228675076,
,,,C,U,g,n,L,G,d,R,i,,,,,5,19,119,7,1,0,1,0,,,,,0,17,17,17,,,,,,down,0.9340399976936169,1943.429945475802,None,001,66,2019_Oct_25_1457,ACPT_experiment_5_30_19,3.1.0,59.936189228675076,
,,,C,U,g,n,L,G,y,L,y,,,,,5,19,119,7,1,0,1,0,,,,,0,18,18,34,,,,,,down,0.6505096381042677,1945.648307902493,None,001,66,2019_Oct_25_1457,ACPT_experiment_5_30_19,3.1.0,59.936189228675076,
,,,C,U,g,n,L,U,d,R,u,,,,,5,19,119,7,1,0,1,0,,,,,0,19,19,21,,,,,,up,0.6505244290310657,1947.5830859374164,None,001,66,2019_Oct_25_1457,ACPT_experiment_5_30_19,3.1.0,59.936189228675076,
,,,C,U,g,n,L,U,d,L,u,,,,,5,19,119,7,1,0,1,0,,,,,0,20,20,20,,,,,,up,0.8506746928105713,1949.5012187424636,None,001,66,2019_Oct_25_1457,ACPT_experiment_5_30_19,3.1.0,59.936189228675076,
,,,C,U,g,n,R,G,g,R,c ,,,,,5,19,119,7,1,0,1,0,,,,,0,21,21,7,,,,,,up,0.6171349605974683,1951.6362083178774,None,001,66,2019_Oct_25_1457,ACPT_experiment_5_30_19,3.1.0,59.936189228675076,
,,,C,U,g,n,R,U,d,R,u,,,,,5,19,119,7,1,0,1,0,,,,,0,22,22,9,,,,,,up,0.5504166967257333,1953.537652727673,None,001,66,2019_Oct_25_1457,ACPT_experiment_5_30_19,3.1.0,59.936189228675076,
,,,C,U,g,n,L,G,g,R,c ,,,,,5,19,119,7,1,0,1,0,,,,,0,23,23,19,,,,,,up,0.650484584075457,1955.3723852125713,None,001,66,2019_Oct_25_1457,ACPT_experiment_5_30_19,3.1.0,59.936189228675076,
,,,C,U,g,n,R,G,g,L,c ,,,,,5,19,119,7,1,0,1,0,,,,,0,24,24,6,,,,,,up,0.7506080128805479,1957.3071970553374,None,001,66,2019_Oct_25_1457,ACPT_experiment_5_30_19,3.1.0,59.936189228675076,
,,,C,U,g,n,L,D,g,R,i,,,,,5,19,119,7,1,0,1,0,,,,,0,25,25,15,,,,,,up,0.5469885213315138,1959.362071708243,None,001,66,2019_Oct_25_1457,ACPT_experiment_5_30_19,3.1.0,59.936189228675076,
,,,C,U,g,n,R,G,y,R,y,,,,,5,19,119,7,1,0,1,0,,,,,0,26,26,29,,,,,,down,1.2175929964651004,1961.1934913266286,None,001,66,2019_Oct_25_1457,ACPT_experiment_5_30_19,3.1.0,59.936189228675076,
,,,C,U,g,n,L,D,y,L,y,,,,,5,19,119,7,1,0,1,0,,,,,0,27,27,32,,,,,,down,1.1508738270240428,1963.7120758285728,None,001,66,2019_Oct_25_1457,ACPT_experiment_5_30_19,3.1.0,59.936189228675076,
,,,C,U,g,n,L,D,d,L,c ,,,,,5,19,119,7,1,0,1,0,,,,,0,28,28,12,,,,,,up,0.750564243804547,1966.1639465944809,None,001,66,2019_Oct_25_1457,ACPT_experiment_5_30_19,3.1.0,59.936189228675076,
,,,C,U,g,n,R,G,y,L,y,,,,,5,19,119,7,1,0,1,0,,,,,0,29,29,28,,,,,,down,1.601221730834368,1968.198833569133,None,001,66,2019_Oct_25_1457,ACPT_experiment_5_30_19,3.1.0,59.936189228675076,
,,,C,U,g,n,L,D,g,L,i,,,,,5,19,119,7,1,0,1,0,,,,,0,30,30,14,,,,,,up,2.735418331274559,1971.0843641454576,None,001,66,2019_Oct_25_1457,ACPT_experiment_5_30_19,3.1.0,59.936189228675076,
,,,C,U,g,n,R,D,y,R,y,,,,,5,19,119,7,1,0,1,0,,,,,0,31,31,27,,,,,,down,0.6338173187323264,1975.1040931333573,None,001,66,2019_Oct_25_1457,ACPT_experiment_5_30_19,3.1.0,59.936189228675076,
,,,C,U,g,n,L,U,g,L,u,,,,,5,19,119,7,1,0,1,0,,,,,0,32,32,22,,,,,,up,0.6671476234441798,1977.0222464645904,None,001,66,2019_Oct_25_1457,ACPT_experiment_5_30_19,3.1.0,59.936189228675076,
,,,C,U,g,n,L,G,y,R,y,,,,,5,19,119,7,1,0,1,0,,,,,0,33,33,35,,,,,,down,0.7172345428007247,1978.99039283805,None,001,66,2019_Oct_25_1457,ACPT_experiment_5_30_19,3.1.0,59.936189228675076,
,,,C,U,g,n,R,U,g,L,u,,,,,5,19,119,7,1,0,1,0,,,,,0,34,34,10,,,,,,up,1.0007437724925694,1981.0086025861183,None,001,66,2019_Oct_25_1457,ACPT_experiment_5_30_19,3.1.0,59.936189228675076,
,,,C,U,g,n,L,G,d,L,i,,,,,5,19,119,7,1,0,1,0,,,,,0,35,35,16,,,,,,up,0.6671699607686605,1983.2936742210095,None,001,66,2019_Oct_25_1457,ACPT_experiment_5_30_19,3.1.0,59.936189228675076,
,,,C,U,g,n,L,U,y,R,u,,,,,5,19,119,7,1,0,1,0,,,,,1,0,36,25,,,,,,down,0.7172125073338975,1985.2451608755164,None,001,66,2019_Oct_25_1457,ACPT_experiment_5_30_19,3.1.0,59.936189228675076,
,,,C,U,g,n,R,U,g,R,u,,,,,5,19,119,7,1,0,1,0,,,,,1,1,37,11,,,,,,up,0.8006073940741771,1987.2466885673075,None,001,66,2019_Oct_25_1457,ACPT_experiment_5_30_19,3.1.0,59.936189228675076,
,,,C,U,g,n,L,G,y,L,y,,,,,5,19,119,7,1,0,1,0,,,,,1,2,38,34,,,,,,down,1.3674966592116107,1989.348461335756,None,001,66,2019_Oct_25_1457,ACPT_experiment_5_30_19,3.1.0,59.936189228675076,
,,,C,U,g,n,L,D,g,L,i,,,,,5,19,119,7,1,0,1,0,,,,,1,3,39,14,,,,,,up,0.583781111137796,1992.0169845157088,None,001,66,2019_Oct_25_1457,ACPT_experiment_5_30_19,3.1.0,59.936189228675076,
,,,C,U,g,n,L,G,d,R,i,,,,,5,19,119,7,1,0,1,0,,,,,1,4,40,17,,,,,,up,0.6838520170458651,1993.8850829242929,None,001,66,2019_Oct_25_1457,ACPT_experiment_5_30_19,3.1.0,59.936189228675076,
,,,C,U,g,n,R,U,y,L,u,,,,,5,19,119,7,1,0,1,0,,,,,1,5,41,30,,,,,,down,0.5837406624705181,1995.8532842354962,None,001,66,2019_Oct_25_1457,ACPT_experiment_5_30_19,3.1.0,59.936189228675076,
,,,C,U,g,n,R,G,y,R,y,,,,,5,19,119,7,1,0,1,0,,,,,1,6,42,29,,,,,,down,0.8506496387853986,1997.7213391768582,None,001,66,2019_Oct_25_1457,ACPT_experiment_5_30_19,3.1.0,59.936189228675076,
,,,C,U,g,n,R,D,d,R,c ,,,,,5,19,119,7,1,0,1,0,,,,,1,7,43,1,,,,,,up,0.7839346953260247,1999.8562964537105,None,001,66,2019_Oct_25_1457,ACPT_experiment_5_30_19,3.1.0,59.936189228675076,
,,,C,U,g,n,L,G,d,L,i,,,,,5,19,119,7,1,0,1,0,,,,,1,8,44,16,,,,,,down,0.8506749946645868,2001.924547540917,None,001,66,2019_Oct_25_1457,ACPT_experiment_5_30_19,3.1.0,59.936189228675076,
,,,C,U,g,n,R,D,d,L,c,,,,,5,19,119,7,1,0,1,0,,,,,1,9,45,0,,,,,,up,0.7338861116477347,2004.0595021010686,None,001,66,2019_Oct_25_1457,ACPT_experiment_5_30_19,3.1.0,59.936189228675076,
,,,C,U,g,n,R,U,d,R,u,,,,,5,19,119,7,1,0,1,0,,,,,1,10,46,9,,,,,,down,0.8339832790043147,2006.0777067175895,None,001,66,2019_Oct_25_1457,ACPT_experiment_5_30_19,3.1.0,59.936189228675076,
,,,C,U,g,n,L,G,g,L,c ,,,,,5,19,119,7,1,0,1,0,,,,,1,11,47,18,,,,,,up,0.700530451053055,2008.1959922012556,None,001,66,2019_Oct_25_1457,ACPT_experiment_5_30_19,3.1.0,59.936189228675076,
,,,C,U,g,n,R,G,d,L,i,,,,,5,19,119,7,1,0,1,0,,,,,1,12,48,4,,,,,,up,0.7505699790599465,2010.1808375349156,None,001,66,2019_Oct_25_1457,ACPT_experiment_5_30_19,3.1.0,59.936189228675076,
,,,C,U,g,n,R,G,y,L,y,,,,,5,19,119,7,1,0,1,0,,,,,1,13,49,28,,,,,,down,1.1008463732505334,2012.2157211891554,None,001,66,2019_Oct_25_1457,ACPT_experiment_5_30_19,3.1.0,59.936189228675076,
,,,C,U,g,n,R,U,y,R,u,,,,,5,19,119,7,1,0,1,0,,,,,1,14,50,31,,,,,,down,0.5337696557107847,2014.6008700689217,None,001,66,2019_Oct_25_1457,ACPT_experiment_5_30_19,3.1.0,59.936189228675076,
,,,C,U,g,n,L,U,g,R,u,,,,,5,19,119,7,1,0,1,0,,,,,1,15,51,23,,,,,,up,2.3184387660003267,2016.4189247235245,None,001,66,2019_Oct_25_1457,ACPT_experiment_5_30_19,3.1.0,59.936189228675076,
,,,C,U,g,n,L,G,y,R,y,,,,,5,19,119,7,1,0,1,0,,,,,1,16,52,35,,,,,,down,0.800603469953785,2020.0216750517156,None,001,66,2019_Oct_25_1457,ACPT_experiment_5_30_19,3.1.0,59.936189228675076,
,,,C,U,g,n,R,D,y,R,y,,,,,5,19,119,7,1,0,1,0,,,,,1,17,53,27,,,,,,down,0.6504993750095309,2022.1065979321083,None,001,66,2019_Oct_25_1457,ACPT_experiment_5_30_19,3.1.0,59.936189228675076,
,,,C,U,g,n,L,D,g,R,i,,,,,5,19,119,7,1,0,1,0,,,,,1,18,54,15,,,,,,up,1.0508008081305888,2024.0414037377577,None,001,66,2019_Oct_25_1457,ACPT_experiment_5_30_19,3.1.0,59.936189228675076,
,,,C,U,g,n,L,D,d,R,c ,,,,,5,19,119,7,1,0,1,0,,,,,1,19,55,13,,,,,,up,0.9674182974704308,2026.3598189590139,None,001,66,2019_Oct_25_1457,ACPT_experiment_5_30_19,3.1.0,59.936189228675076,
,,,C,U,g,n,R,G,g,L,c ,,,,,5,19,119,7,1,0,1,0,,,,,1,20,56,6,,,,,,up,1.4844630333900568,2028.6115560632115,None,001,66,2019_Oct_25_1457,ACPT_experiment_5_30_19,3.1.0,59.936189228675076,
,,,C,U,g,n,L,U,d,R,u,,,,,5,19,119,7,1,0,1,0,,,,,1,21,57,21,,,,,,up,1.0007751654848107,2031.3803333754931,None,001,66,2019_Oct_25_1457,ACPT_experiment_5_30_19,3.1.0,59.936189228675076,
,,,C,U,g,n,L,G,g,R,c ,,,,,5,19,119,7,1,0,1,0,,,,,1,22,58,19,,,,,,up,0.53374188498492,2033.6654089345084,None,001,66,2019_Oct_25_1457,ACPT_experiment_5_30_19,3.1.0,59.936189228675076,
,,,C,U,g,n,R,U,d,L,u,,,,,5,19,119,7,1,0,1,0,,,,,1,23,59,8,,,,,,up,0.7672475075014518,2035.483458155706,None,001,66,2019_Oct_25_1457,ACPT_experiment_5_30_19,3.1.0,59.936189228675076,
,,,C,U,g,n,L,U,d,L,u,,,,,5,19,119,7,1,0,1,0,,,,,1,24,60,20,,,,,,up,0.6171286216267617,2037.51834935634,None,001,66,2019_Oct_25_1457,ACPT_experiment_5_30_19,3.1.0,59.936189228675076,
,,,C,U,g,n,R,U,g,L,u,,,,,5,19,119,7,1,0,1,0,,,,,1,25,61,10,,,,,,up,0.6504894137688098,2039.419796784694,None,001,66,2019_Oct_25_1457,ACPT_experiment_5_30_19,3.1.0,59.936189228675076,
,,,C,U,g,n,R,D,g,R,i,,,,,5,19,119,7,1,0,1,0,,,,,1,26,62,3,,,,,,up,0.733888526494411,2041.3546074200367,None,001,66,2019_Oct_25_1457,ACPT_experiment_5_30_19,3.1.0,59.936189228675076,
,,,C,U,g,n,L,D,d,L,c ,,,,,5,19,119,7,1,0,1,0,,,,,1,27,63,12,,,,,,up,0.8339678843622096,2043.3728102254227,None,001,66,2019_Oct_25_1457,ACPT_experiment_5_30_19,3.1.0,59.936189228675076,
,,,C,U,g,n,R,G,g,R,c ,,,,,5,19,119,7,1,0,1,0,,,,,1,28,64,7,,,,,,up,0.6004779583454365,2045.4910860497093,None,001,66,2019_Oct_25_1457,ACPT_experiment_5_30_19,3.1.0,59.936189228675076,
,,,C,U,g,n,L,U,g,L,u,,,,,5,19,119,7,1,0,1,0,,,,,1,29,65,22,,,,,,up,0.8339663750812178,2047.3758607793152,None,001,66,2019_Oct_25_1457,ACPT_experiment_5_30_19,3.1.0,59.936189228675076,
,,,C,U,g,n,L,D,y,L,y,,,,,5,19,119,7,1,0,1,0,,,,,1,30,66,32,,,,,,down,0.6171361680208065,2049.494141131434,None,001,66,2019_Oct_25_1457,ACPT_experiment_5_30_19,3.1.0,59.936189228675076,
,,,C,U,g,n,L,U,y,L,u,,,,,5,19,119,7,1,0,1,0,,,,,1,31,67,24,,,,,,down,0.6338161113053502,2051.3955927857696,None,001,66,2019_Oct_25_1457,ACPT_experiment_5_30_19,3.1.0,59.936189228675076,
,,,C,U,g,n,L,D,y,R,y,,,,,5,19,119,7,1,0,1,0,,,,,1,32,68,33,,,,,,down,0.8504796940142114,2053.3305579712414,None,001,66,2019_Oct_25_1457,ACPT_experiment_5_30_19,3.1.0,59.936189228675076,
,,,C,U,g,n,R,D,y,L,y,,,,,5,19,119,7,1,0,1,0,,,,,1,33,69,26,,,,,,down,0.7672001161554363,2055.4820841084747,None,001,66,2019_Oct_25_1457,ACPT_experiment_5_30_19,3.1.0,59.936189228675076,
,,,C,U,g,n,R,D,g,L,i,,,,,5,19,119,7,1,0,1,0,,,,,1,34,70,2,,,,,,up,0.7672469037897827,2057.533605748058,None,001,66,2019_Oct_25_1457,ACPT_experiment_5_30_19,3.1.0,59.936189228675076,
,,,C,U,g,n,R,G,d,R,i,,,,,5,19,119,7,1,0,1,0,,,,,1,35,71,5,,,,,,up,0.5837660183497064,2059.5851802123925,None,001,66,2019_Oct_25_1457,ACPT_experiment_5_30_19,3.1.0,59.936189228675076,
,,,C,U,g,n,,,,,,,,,,5,19,119,7,2,0,2,0,0,0,0,0,,,,,,,,,,,,,,001,66,2019_Oct_25_1457,ACPT_experiment_5_30_19,3.1.0,59.936189228675076,
,,,C,U,g,n,L,U,d,L,u,,,,,5,19,119,7,2,0,2,0,,,,,0,0,0,20,,,,,,down,0.7338698114399449,2129.5385187517295,None,001,66,2019_Oct_25_1457,ACPT_experiment_5_30_19,3.1.0,59.936189228675076,
,,,C,U,g,n,L,U,g,L,u,,,,,5,19,119,7,2,0,2,0,,,,,0,1,1,22,,,,,,up,0.9340339605805639,2131.5567176329914,None,001,66,2019_Oct_25_1457,ACPT_experiment_5_30_19,3.1.0,59.936189228675076,
,,,C,U,g,n,R,D,g,R,i,,,,,5,19,119,7,2,0,2,0,,,,,0,2,2,3,,,,,,up,0.8339570175558038,2133.7750779466933,None,001,66,2019_Oct_25_1457,ACPT_experiment_5_30_19,3.1.0,59.936189228675076,
,,,C,U,g,n,L,D,d,R,c ,,,,,5,19,119,7,2,0,2,0,,,,,0,3,3,13,,,,,,up,0.5167809140220925,2135.910306591837,None,001,66,2019_Oct_25_1457,ACPT_experiment_5_30_19,3.1.0,59.936189228675076,
,,,C,U,g,n,R,G,g,R,c ,,,,,5,19,119,7,2,0,2,0,,,,,0,4,4,7,,,,,,up,0.4836939050182991,2137.7114054070207,None,001,66,2019_Oct_25_1457,ACPT_experiment_5_30_19,3.1.0,59.936189228675076,
,,,C,U,g,n,R,G,g,L,c ,,,,,5,19,119,7,2,0,2,0,,,,,0,5,5,6,,,,,,up,0.4837265054375166,2139.4627158381572,None,001,66,2019_Oct_25_1457,ACPT_experiment_5_30_19,3.1.0,59.936189228675076,
,,,C,U,g,n,L,G,d,L,i,,,,,5,19,119,7,2,0,2,0,,,,,0,6,6,16,,,,,,down,0.7338710188632831,2141.23077262084,None,001,66,2019_Oct_25_1457,ACPT_experiment_5_30_19,3.1.0,59.936189228675076,
,,,C,U,g,n,L,G,y,L,y,,,,,5,19,119,7,2,0,2,0,,,,,0,7,7,34,,,,,,down,0.600216853148595,2143.2658742149124,None,001,66,2019_Oct_25_1457,ACPT_experiment_5_30_19,3.1.0,59.936189228675076,
,,,C,U,g,n,R,U,g,L,u,,,,,5,19,119,7,2,0,2,0,,,,,0,8,8,10,,,,,,up,0.8840046956684091,2145.150407761799,None,001,66,2019_Oct_25_1457,ACPT_experiment_5_30_19,3.1.0,59.936189228675076,
,,,C,U,g,n,L,U,y,R,u,,,,,5,19,119,7,2,0,2,0,,,,,0,9,9,25,,,,,,down,0.8339533952894271,2147.3354100000597,None,001,66,2019_Oct_25_1457,ACPT_experiment_5_30_19,3.1.0,59.936189228675076,
,,,C,U,g,n,R,G,y,L,y,,,,,5,19,119,7,2,0,2,0,,,,,0,10,10,28,,,,,,down,1.0841495260428928,2149.47037150289,None,001,66,2019_Oct_25_1457,ACPT_experiment_5_30_19,3.1.0,59.936189228675076,
,,,C,U,g,n,L,G,d,R,i,,,,,5,19,119,7,2,0,2,0,,,,,0,11,11,17,,,,,,up,0.63381490388565,2151.838838326379,None,001,66,2019_Oct_25_1457,ACPT_experiment_5_30_19,3.1.0,59.936189228675076,
,,,C,U,g,n,R,U,y,L,u,,,,,5,19,119,7,2,0,2,0,,,,,0,12,12,30,,,,,,down,0.6004589414333168,2153.7569705277147,None,001,66,2019_Oct_25_1457,ACPT_experiment_5_30_19,3.1.0,59.936189228675076,
,,,C,U,g,n,R,U,d,R,u,,,,,5,19,119,7,2,0,2,0,,,,,0,13,13,9,,,,,,up,0.5837346253574651,2155.641781480006,None,001,66,2019_Oct_25_1457,ACPT_experiment_5_30_19,3.1.0,59.936189228675076,
,,,C,U,g,n,R,G,d,L,i,,,,,5,19,119,7,2,0,2,0,,,,,0,14,14,4,,,,,,down,1.5011209412114113,2157.526531155587,None,001,66,2019_Oct_25_1457,ACPT_experiment_5_30_19,3.1.0,59.936189228675076,
,,,C,U,g,n,R,U,g,R,u,,,,,5,19,119,7,2,0,2,0,,,,,0,15,15,11,,,,,,up,0.867328374650242,2160.3119645645547,None,001,66,2019_Oct_25_1457,ACPT_experiment_5_30_19,3.1.0,59.936189228675076,
,,,C,U,g,n,L,G,g,L,c ,,,,,5,19,119,7,2,0,2,0,,,,,0,16,16,18,,,,,,up,0.733891243195103,2162.463608727374,None,001,66,2019_Oct_25_1457,ACPT_experiment_5_30_19,3.1.0,59.936189228675076,
,,,C,U,g,n,R,G,y,R,y,,,,,5,19,119,7,2,0,2,0,,,,,0,17,17,29,,,,,,down,2.4683735198887007,2164.4986378760714,None,001,66,2019_Oct_25_1457,ACPT_experiment_5_30_19,3.1.0,59.936189228675076,
,,,C,U,g,n,R,D,g,L,i,,,,,5,19,119,7,2,0,2,0,,,,,0,18,18,2,,,,,,up,0.7505579048302025,2168.268038822267,None,001,66,2019_Oct_25_1457,ACPT_experiment_5_30_19,3.1.0,59.936189228675076,
,,,C,U,g,n,L,U,d,R,u,,,,,5,19,119,7,2,0,2,0,,,,,0,19,19,21,,,,,,up,1.567864259108319,2170.302917948675,None,001,66,2019_Oct_25_1457,ACPT_experiment_5_30_19,3.1.0,59.936189228675076,
,,,C,U,g,n,L,U,y,L,u,,,,,5,19,119,7,2,0,2,0,,,,,0,20,20,24,,,,,,down,1.2009402201911143,2173.138392394927,None,001,66,2019_Oct_25_1457,ACPT_experiment_5_30_19,3.1.0,59.936189228675076,
,,,C,U,g,n,R,U,y,R,u,,,,,5,19,119,7,2,0,2,0,,,,,0,21,21,31,,,,,,down,0.6171603164766566,2175.6069600080427,None,001,66,2019_Oct_25_1457,ACPT_experiment_5_30_19,3.1.0,59.936189228675076,
,,,C,U,g,n,L,D,d,L,c ,,,,,5,19,119,7,2,0,2,0,,,,,0,22,22,12,,,,,,up,0.6504963564475474,2177.5084134735134,None,001,66,2019_Oct_25_1457,ACPT_experiment_5_30_19,3.1.0,59.936189228675076,
,,,C,U,g,n,R,D,d,R,c ,,,,,5,19,119,7,2,0,2,0,,,,,0,23,23,1,,,,,,up,0.7839437509974232,2179.443222901433,None,001,66,2019_Oct_25_1457,ACPT_experiment_5_30_19,3.1.0,59.936189228675076,
,,,C,U,g,n,L,D,y,L,y,,,,,5,19,119,7,2,0,2,0,,,,,0,24,24,32,,,,,,down,0.6838586578705872,2181.5114619144133,None,001,66,2019_Oct_25_1457,ACPT_experiment_5_30_19,3.1.0,59.936189228675076,
,,,C,U,g,n,L,D,g,L,i,,,,,5,19,119,7,2,0,2,0,,,,,0,25,25,14,,,,,,up,1.0340985275179264,2183.4796586977773,None,001,66,2019_Oct_25_1457,ACPT_experiment_5_30_19,3.1.0,59.936189228675076,
,,,C,U,g,n,R,D,y,L,y,,,,,5,19,119,7,2,0,2,0,,,,,0,26,26,26,,,,,,down,1.050822239882109,2185.7980675800627,None,001,66,2019_Oct_25_1457,ACPT_experiment_5_30_19,3.1.0,59.936189228675076,
,,,C,U,g,n,R,D,d,L,c,,,,,5,19,119,7,2,0,2,0,,,,,0,27,27,0,,,,,,down,0.9006843370989372,2188.1331835726505,None,001,66,2019_Oct_25_1457,ACPT_experiment_5_30_19,3.1.0,59.936189228675076,
,,,C,U,g,n,R,G,d,R,i,,,,,5,19,119,7,2,0,2,0,,,,,0,28,28,5,,,,,,up,1.1842460896878038,2190.334872395024,None,001,66,2019_Oct_25_1457,ACPT_experiment_5_30_19,3.1.0,59.936189228675076,
,,,C,U,g,n,L,G,y,R,y,,,,,5,19,119,7,2,0,2,0,,,,,0,29,29,35,,,,,,down,0.85068495590167,2192.8033859759653,None,001,66,2019_Oct_25_1457,ACPT_experiment_5_30_19,3.1.0,59.936189228675076,
,,,C,U,g,n,L,U,g,R,u,,,,,5,19,119,7,2,0,2,0,,,,,0,30,30,23,,,,,,up,0.8506707686865411,2194.9383628734377,None,001,66,2019_Oct_25_1457,ACPT_experiment_5_30_19,3.1.0,59.936189228675076,
,,,C,U,g,n,R,U,d,L,u,,,,,5,19,119,7,2,0,2,0,,,,,0,31,31,8,,,,,,up,1.5345239931521064,2197.0733310170926,None,001,66,2019_Oct_25_1457,ACPT_experiment_5_30_19,3.1.0,59.936189228675076,
,,,C,U,g,n,L,D,g,R,i,,,,,5,19,119,7,2,0,2,0,,,,,0,32,32,15,,,,,,up,0.6505090343925986,2199.892146348104,None,001,66,2019_Oct_25_1457,ACPT_experiment_5_30_19,3.1.0,59.936189228675076,
,,,C,U,g,n,L,G,g,R,c ,,,,,5,19,119,7,2,0,2,0,,,,,0,33,33,19,,,,,,up,0.6171289234807773,2201.8269723780886,None,001,66,2019_Oct_25_1457,ACPT_experiment_5_30_19,3.1.0,59.936189228675076,
,,,C,U,g,n,R,D,y,R,y,,,,,5,19,119,7,2,0,2,0,,,,,0,34,34,27,,,,,,down,0.7670271528295416,2203.762000651406,None,001,66,2019_Oct_25_1457,ACPT_experiment_5_30_19,3.1.0,59.936189228675076,
,,,C,U,g,n,L,D,y,R,y,,,,,5,19,119,7,2,0,2,0,,,,,0,35,35,33,,,,,,down,0.8673208282561973,2205.830007839193,None,001,66,2019_Oct_25_1457,ACPT_experiment_5_30_19,3.1.0,59.936189228675076,
,,,C,U,g,n,R,D,y,R,y,,,,,5,19,119,7,2,0,2,0,,,,,1,0,36,27,,,,,,down,0.5670930177475384,2207.9816471723225,None,001,66,2019_Oct_25_1457,ACPT_experiment_5_30_19,3.1.0,59.936189228675076,
,,,C,U,g,n,R,D,d,R,c ,,,,,5,19,119,7,2,0,2,0,,,,,1,1,37,1,,,,,,up,0.6338324115167779,2209.816358225462,None,001,66,2019_Oct_25_1457,ACPT_experiment_5_30_19,3.1.0,59.936189228675076,
,,,C,U,g,n,L,G,d,L,i,,,,,5,19,119,7,2,0,2,0,,,,,1,2,38,16,,,,,,up,1.067481053272786,2211.7345085381403,None,001,66,2019_Oct_25_1457,ACPT_experiment_5_30_19,3.1.0,59.936189228675076,
,,,C,U,g,n,R,U,g,R,u,,,,,5,19,119,7,2,0,2,0,,,,,1,3,39,11,,,,,,up,0.8339645639498485,2214.0863008517463,None,001,66,2019_Oct_25_1457,ACPT_experiment_5_30_19,3.1.0,59.936189228675076,
,,,C,U,g,n,R,G,g,R,c ,,,,,5,19,119,7,2,0,2,0,,,,,1,4,40,7,,,,,,up,0.733908750826231,2216.204560677679,None,001,66,2019_Oct_25_1457,ACPT_experiment_5_30_19,3.1.0,59.936189228675076,
,,,C,U,g,n,L,D,d,R,c ,,,,,5,19,119,7,2,0,2,0,,,,,1,5,41,13,,,,,,up,0.7505763180306531,2218.222785216678,None,001,66,2019_Oct_25_1457,ACPT_experiment_5_30_19,3.1.0,59.936189228675076,
,,,C,U,g,n,R,U,d,R,u,,,,,5,19,119,7,2,0,2,0,,,,,1,6,42,9,,,,,,up,0.4503593743284,2220.257671889476,None,001,66,2019_Oct_25_1457,ACPT_experiment_5_30_19,3.1.0,59.936189228675076,
,,,C,U,g,n,L,G,g,L,c ,,,,,5,19,119,7,2,0,2,0,,,,,1,7,43,18,,,,,,up,0.6171189622436941,2221.9923370907327,None,001,66,2019_Oct_25_1457,ACPT_experiment_5_30_19,3.1.0,59.936189228675076,
,,,C,U,g,n,R,D,y,L,y,,,,,5,19,119,7,2,0,2,0,,,,,1,8,44,26,,,,,,down,0.600226210674009,2223.91069326901,None,001,66,2019_Oct_25_1457,ACPT_experiment_5_30_19,3.1.0,59.936189228675076,
,,,C,U,g,n,L,U,y,R,u,,,,,5,19,119,7,2,0,2,0,,,,,1,9,45,25,,,,,,down,0.817273753855261,2225.811914909287,None,001,66,2019_Oct_25_1457,ACPT_experiment_5_30_19,3.1.0,59.936189228675076,
,,,C,U,g,n,R,D,g,R,i,,,,,5,19,119,7,2,0,2,0,,,,,1,10,46,3,,,,,,up,0.85068495590167,2227.9301892242966,None,001,66,2019_Oct_25_1457,ACPT_experiment_5_30_19,3.1.0,59.936189228675076,
,,,C,U,g,n,L,G,y,L,y,,,,,5,19,119,7,2,0,2,0,,,,,1,11,47,34,,,,,,down,0.7172324298080639,2230.065127182379,None,001,66,2019_Oct_25_1457,ACPT_experiment_5_30_19,3.1.0,59.936189228675076,
,,,C,U,g,n,L,U,g,R,u,,,,,5,19,119,7,2,0,2,0,,,,,1,12,48,23,,,,,,up,0.5670951307365613,2232.0666723818013,None,001,66,2019_Oct_25_1457,ACPT_experiment_5_30_19,3.1.0,59.936189228675076,
,,,C,U,g,n,R,D,g,L,i,,,,,5,19,119,7,2,0,2,0,,,,,1,13,49,2,,,,,,up,1.1008551270642783,2233.9180869229767,None,001,66,2019_Oct_25_1457,ACPT_experiment_5_30_19,3.1.0,59.936189228675076,
,,,C,U,g,n,L,G,y,R,y,,,,,5,19,119,7,2,0,2,0,,,,,1,14,50,35,,,,,,down,0.650485187790764,2236.3032397268707,None,001,66,2019_Oct_25_1457,ACPT_experiment_5_30_19,3.1.0,59.936189228675076,
,,,C,U,g,n,R,U,g,L,u,,,,,5,19,119,7,2,0,2,0,,,,,1,15,51,10,,,,,,up,0.5670972437255841,2238.23804553252,None,001,66,2019_Oct_25_1457,ACPT_experiment_5_30_19,3.1.0,59.936189228675076,
,,,C,U,g,n,L,U,g,L,u,,,,,5,19,119,7,2,0,2,0,,,,,1,16,52,22,,,,,,up,0.5837500199995702,2240.089480901739,None,001,66,2019_Oct_25_1457,ACPT_experiment_5_30_19,3.1.0,59.936189228675076,
,,,C,U,g,n,R,U,y,L,u,,,,,5,19,119,7,2,0,2,0,,,,,1,17,53,30,,,,,,down,0.6338133946082962,2241.957547615477,None,001,66,2019_Oct_25_1457,ACPT_experiment_5_30_19,3.1.0,59.936189228675076,
,,,C,U,g,n,R,U,d,L,u,,,,,5,19,119,7,2,0,2,0,,,,,1,18,54,8,,,,,,up,1.5175509479631728,2243.875943940564,None,001,66,2019_Oct_25_1457,ACPT_experiment_5_30_19,3.1.0,59.936189228675076,
,,,C,U,g,n,L,D,y,R,y,,,,,5,19,119,7,2,0,2,0,,,,,1,19,55,33,,,,,,down,0.583757566389977,2246.6778348251555,None,001,66,2019_Oct_25_1457,ACPT_experiment_5_30_19,3.1.0,59.936189228675076,
,,,C,U,g,n,R,D,d,L,c,,,,,5,19,119,7,2,0,2,0,,,,,1,20,56,0,,,,,,up,0.583766320203722,2248.5459057648713,None,001,66,2019_Oct_25_1457,ACPT_experiment_5_30_19,3.1.0,59.936189228675076,
,,,C,U,g,n,L,D,y,L,y,,,,,5,19,119,7,2,0,2,0,,,,,1,21,57,32,,,,,,down,0.6502313271303137,2250.4309391848274,None,001,66,2019_Oct_25_1457,ACPT_experiment_5_30_19,3.1.0,59.936189228675076,
,,,C,U,g,n,L,G,g,R,c ,,,,,5,19,119,7,2,0,2,0,,,,,1,22,58,19,,,,,,up,1.0841431870721863,2252.3655001854913,None,001,66,2019_Oct_25_1457,ACPT_experiment_5_30_19,3.1.0,59.936189228675076,
,,,C,U,g,n,R,G,d,R,i,,,,,5,19,119,7,2,0,2,0,,,,,1,23,59,5,,,,,,down,0.8005898864430492,2254.733971234962,None,001,66,2019_Oct_25_1457,ACPT_experiment_5_30_19,3.1.0,59.936189228675076,
,,,C,U,g,n,R,G,y,L,y,,,,,5,19,119,7,2,0,2,0,,,,,1,24,60,28,,,,,,down,0.7638027300454269,2256.872356385351,None,001,66,2019_Oct_25_1457,ACPT_experiment_5_30_19,3.1.0,59.936189228675076,
,,,C,U,g,n,L,U,d,L,u,,,,,5,19,119,7,2,0,2,0,,,,,1,25,61,20,,,,,,down,0.6171295271960844,2258.953840223543,None,001,66,2019_Oct_25_1457,ACPT_experiment_5_30_19,3.1.0,59.936189228675076,
,,,C,U,g,n,R,U,y,R,u,,,,,5,19,119,7,2,0,2,0,,,,,1,26,62,31,,,,,,down,0.8006058847968234,2260.871960048791,None,001,66,2019_Oct_25_1457,ACPT_experiment_5_30_19,3.1.0,59.936189228675076,
,,,C,U,g,n,R,G,g,L,c ,,,,,5,19,119,7,2,0,2,0,,,,,1,27,63,6,,,,,,up,0.6838707321003312,2262.9735719281434,None,001,66,2019_Oct_25_1457,ACPT_experiment_5_30_19,3.1.0,59.936189228675076,
,,,C,U,g,n,L,D,d,L,c ,,,,,5,19,119,7,2,0,2,0,,,,,1,28,64,12,,,,,,up,1.7513068088665023,2264.9417599576936,None,001,66,2019_Oct_25_1457,ACPT_experiment_5_30_19,3.1.0,59.936189228675076,
,,,C,U,g,n,L,U,d,R,u,,,,,5,19,119,7,2,0,2,0,,,,,1,29,65,21,,,,,,down,1.8513864685919543,2267.977409118035,None,001,66,2019_Oct_25_1457,ACPT_experiment_5_30_19,3.1.0,59.936189228675076,
,,,C,U,g,n,L,G,d,R,i,,,,,5,19,119,7,2,0,2,0,,,,,1,30,66,17,,,,,,up,1.9014432023723202,2271.1131041302633,None,001,66,2019_Oct_25_1457,ACPT_experiment_5_30_19,3.1.0,59.936189228675076,
,,,C,U,g,n,L,D,g,L,i,,,,,5,19,119,7,2,0,2,0,,,,,1,31,67,14,,,,,,up,0.8840369942299731,2274.298871572768,None,001,66,2019_Oct_25_1457,ACPT_experiment_5_30_19,3.1.0,59.936189228675076,
,,,C,U,g,n,L,U,y,L,u,,,,,5,19,119,7,2,0,2,0,,,,,1,32,68,24,,,,,,down,0.6504936397468555,2276.467190245474,None,001,66,2019_Oct_25_1457,ACPT_experiment_5_30_19,3.1.0,59.936189228675076,
,,,C,U,g,n,R,G,d,L,i,,,,,5,19,119,7,2,0,2,0,,,,,1,33,69,4,,,,,,up,0.48371594048512634,2278.401994239988,None,001,66,2019_Oct_25_1457,ACPT_experiment_5_30_19,3.1.0,59.936189228675076,
,,,C,U,g,n,R,G,y,R,y,,,,,5,19,119,7,2,0,2,0,,,,,1,34,70,29,,,,,,down,0.7336237990311929,2280.203635489901,None,001,66,2019_Oct_25_1457,ACPT_experiment_5_30_19,3.1.0,59.936189228675076,
,,,C,U,g,n,L,D,g,R,i,,,,,5,19,119,7,2,0,2,0,,,,,1,35,71,15,,,,,,up,1.0174403178389184,2282.2382547185352,None,001,66,2019_Oct_25_1457,ACPT_experiment_5_30_19,3.1.0,59.936189228675076,
,,,C,U,g,n,,,,,,,,,,5,19,119,7,3,0,3,0,0,0,0,0,,,,,,,,,,,,,,001,66,2019_Oct_25_1457,ACPT_experiment_5_30_19,3.1.0,59.936189228675076,
,,,C,U,g,n,L,G,g,R,c ,,,,,5,19,119,7,3,0,3,0,,,,,0,0,0,19,,,,,,up,0.6835894025716698,2554.7796558905193,None,001,66,2019_Oct_25_1457,ACPT_experiment_5_30_19,3.1.0,59.936189228675076,
,,,C,U,g,n,L,D,d,R,c ,,,,,5,19,119,7,3,0,3,0,,,,,0,1,1,13,,,,,,up,0.5170583194303617,2556.747556553424,None,001,66,2019_Oct_25_1457,ACPT_experiment_5_30_19,3.1.0,59.936189228675076,
,,,C,U,g,n,L,D,y,R,y,,,,,5,19,119,7,3,0,3,0,,,,,0,2,2,33,,,,,,down,0.6671808275714284,2558.548934887005,None,001,66,2019_Oct_25_1457,ACPT_experiment_5_30_19,3.1.0,59.936189228675076,
,,,C,U,g,n,R,G,y,R,y,,,,,5,19,119,7,3,0,3,0,,,,,0,3,3,29,,,,,,down,0.4670030949237116,2560.5171189924313,None,001,66,2019_Oct_25_1457,ACPT_experiment_5_30_19,3.1.0,59.936189228675076,
,,,C,U,g,n,L,U,g,L,u,,,,,5,19,119,7,3,0,3,0,,,,,0,4,4,22,,,,,,up,0.6171446199805359,2562.2684357625385,None,001,66,2019_Oct_25_1457,ACPT_experiment_5_30_19,3.1.0,59.936189228675076,
,,,C,U,g,n,L,U,y,L,u,,,,,5,19,119,7,3,0,3,0,,,,,0,5,5,24,,,,,,down,0.7839482788331225,2564.1698632684147,None,001,66,2019_Oct_25_1457,ACPT_experiment_5_30_19,3.1.0,59.936189228675076,
,,,C,U,g,n,R,G,d,R,i,,,,,5,19,119,7,3,0,3,0,,,,,0,6,6,5,,,,,,up,0.6838535263268568,2566.2548057694275,None,001,66,2019_Oct_25_1457,ACPT_experiment_5_30_19,3.1.0,59.936189228675076,
,,,C,U,g,n,R,G,y,L,y,,,,,5,19,119,7,3,0,3,0,,,,,0,7,7,28,,,,,,down,0.700580860961054,2568.222963613405,None,001,66,2019_Oct_25_1457,ACPT_experiment_5_30_19,3.1.0,59.936189228675076,
,,,C,U,g,n,L,G,y,R,y,,,,,5,19,119,7,3,0,3,0,,,,,0,8,8,35,,,,,,down,0.6338254688344023,2570.207814984178,None,001,66,2019_Oct_25_1457,ACPT_experiment_5_30_19,3.1.0,59.936189228675076,
,,,C,U,g,n,R,G,g,R,c ,,,,,5,19,119,7,3,0,3,0,,,,,0,9,9,7,,,,,,up,0.7839371101690631,2572.125948694791,None,001,66,2019_Oct_25_1457,ACPT_experiment_5_30_19,3.1.0,59.936189228675076,
,,,C,U,g,n,L,U,y,R,u,,,,,5,19,119,7,3,0,3,0,,,,,0,10,10,25,,,,,,down,0.5670981492912688,2574.1941916318956,None,001,66,2019_Oct_25_1457,ACPT_experiment_5_30_19,3.1.0,59.936189228675076,
,,,C,U,g,n,R,U,d,R,u,,,,,5,19,119,7,3,0,3,0,,,,,0,11,11,9,,,,,,up,0.6004523006085947,2576.045606173071,None,001,66,2019_Oct_25_1457,ACPT_experiment_5_30_19,3.1.0,59.936189228675076,
,,,C,U,g,n,L,D,d,L,c ,,,,,5,19,119,7,3,0,3,0,,,,,0,12,12,12,,,,,,up,0.5838016373272694,2577.913692809283,None,001,66,2019_Oct_25_1457,ACPT_experiment_5_30_19,3.1.0,59.936189228675076,
,,,C,U,g,n,R,U,g,R,u,,,,,5,19,119,7,3,0,3,0,,,,,0,13,13,11,,,,,,up,0.8170814717668691,2579.7987361904798,None,001,66,2019_Oct_25_1457,ACPT_experiment_5_30_19,3.1.0,59.936189228675076,
,,,C,U,g,n,L,D,g,L,i,,,,,5,19,119,7,3,0,3,0,,,,,0,14,14,14,,,,,,up,0.5337615056087088,2581.8833647615447,None,001,66,2019_Oct_25_1457,ACPT_experiment_5_30_19,3.1.0,59.936189228675076,
,,,C,U,g,n,R,D,d,R,c ,,,,,5,19,119,7,3,0,3,0,,,,,0,15,15,1,,,,,,down,0.6504990731518774,2583.7014375274866,None,001,66,2019_Oct_25_1457,ACPT_experiment_5_30_19,3.1.0,59.936189228675076,
,,,C,U,g,n,L,U,d,L,u,,,,,5,19,119,7,3,0,3,0,,,,,0,16,16,20,,,,,,up,0.7505720920489694,2585.636248162833,None,001,66,2019_Oct_25_1457,ACPT_experiment_5_30_19,3.1.0,59.936189228675076,
,,,C,U,g,n,L,G,g,L,c ,,,,,5,19,119,7,3,0,3,0,,,,,0,17,17,18,,,,,,up,1.8847741258941824,2587.671129402226,None,001,66,2019_Oct_25_1457,ACPT_experiment_5_30_19,3.1.0,59.936189228675076,
,,,C,U,g,n,R,D,y,R,y,,,,,5,19,119,7,3,0,3,0,,,,,0,18,18,27,,,,,,down,0.6505057139765995,2590.8568971465884,None,001,66,2019_Oct_25_1457,ACPT_experiment_5_30_19,3.1.0,59.936189228675076,
,,,C,U,g,n,R,D,g,L,i,,,,,5,19,119,7,3,0,3,0,,,,,0,19,19,2,,,,,,up,0.6671747904583754,2592.8083810843946,None,001,66,2019_Oct_25_1457,ACPT_experiment_5_30_19,3.1.0,59.936189228675076,
,,,C,U,g,n,R,U,y,R,u,,,,,5,19,119,7,3,0,3,0,,,,,0,20,20,31,,,,,,down,0.6505274475894112,2594.759872568591,None,001,66,2019_Oct_25_1457,ACPT_experiment_5_30_19,3.1.0,59.936189228675076,
,,,C,U,g,n,R,G,g,L,c ,,,,,5,19,119,7,3,0,3,0,,,,,0,21,21,6,,,,,,up,0.8673211301102128,2596.6946829020762,None,001,66,2019_Oct_25_1457,ACPT_experiment_5_30_19,3.1.0,59.936189228675076,
,,,C,U,g,n,L,G,d,L,i,,,,,5,19,119,7,3,0,3,0,,,,,0,22,22,16,,,,,,up,1.2176023539941525,2598.8463113683993,None,001,66,2019_Oct_25_1457,ACPT_experiment_5_30_19,3.1.0,59.936189228675076,
,,,C,U,g,n,L,G,y,L,y,,,,,5,19,119,7,3,0,3,0,,,,,0,23,23,34,,,,,,down,0.7169317815132672,2601.3818529171785,None,001,66,2019_Oct_25_1457,ACPT_experiment_5_30_19,3.1.0,59.936189228675076,
,,,C,U,g,n,R,D,g,R,i,,,,,5,19,119,7,3,0,3,0,,,,,0,24,24,3,,,,,,up,0.6338097723382816,2603.399793409948,None,001,66,2019_Oct_25_1457,ACPT_experiment_5_30_19,3.1.0,59.936189228675076,
,,,C,U,g,n,L,U,d,R,u,,,,,5,19,119,7,3,0,3,0,,,,,0,25,25,21,,,,,,up,0.8839829620592354,2605.3179401003563,None,001,66,2019_Oct_25_1457,ACPT_experiment_5_30_19,3.1.0,59.936189228675076,
,,,C,U,g,n,R,G,d,L,i,,,,,5,19,119,7,3,0,3,0,,,,,0,26,26,4,,,,,,up,0.5835414376961126,2607.48647882588,None,001,66,2019_Oct_25_1457,ACPT_experiment_5_30_19,3.1.0,59.936189228675076,
,,,C,U,g,n,R,U,g,L,u,,,,,5,19,119,7,3,0,3,0,,,,,0,27,27,10,,,,,,up,0.6838411502394592,2609.354339975869,None,001,66,2019_Oct_25_1457,ACPT_experiment_5_30_19,3.1.0,59.936189228675076,
,,,C,U,g,n,L,D,g,R,i,,,,,5,19,119,7,3,0,3,0,,,,,0,28,28,15,,,,,,up,0.6505129585129907,2611.305818782128,None,001,66,2019_Oct_25_1457,ACPT_experiment_5_30_19,3.1.0,59.936189228675076,
,,,C,U,g,n,L,D,y,L,y,,,,,5,19,119,7,3,0,3,0,,,,,0,29,29,32,,,,,,down,0.7338867153630417,2613.2406297193247,None,001,66,2019_Oct_25_1457,ACPT_experiment_5_30_19,3.1.0,59.936189228675076,
,,,C,U,g,n,R,U,y,L,u,,,,,5,19,119,7,3,0,3,0,,,,,0,30,30,30,,,,,,down,1.0007748636307952,2615.275511562433,None,001,66,2019_Oct_25_1457,ACPT_experiment_5_30_19,3.1.0,59.936189228675076,
,,,C,U,g,n,L,U,g,R,u,,,,,5,19,119,7,3,0,3,0,,,,,0,31,31,23,,,,,,up,0.8840059030917473,2617.5772812519517,None,001,66,2019_Oct_25_1457,ACPT_experiment_5_30_19,3.1.0,59.936189228675076,
,,,C,U,g,n,R,D,d,L,c,,,,,5,19,119,7,3,0,3,0,,,,,0,32,32,0,,,,,,up,0.7172028479471919,2619.745589359709,None,001,66,2019_Oct_25_1457,ACPT_experiment_5_30_19,3.1.0,59.936189228675076,
,,,C,U,g,n,L,G,d,R,i,,,,,5,19,119,7,3,0,3,0,,,,,0,33,33,17,,,,,,up,0.950725676240836,2621.7471092032483,None,001,66,2019_Oct_25_1457,ACPT_experiment_5_30_19,3.1.0,59.936189228675076,
,,,C,U,g,n,R,U,d,L,u,,,,,5,19,119,7,3,0,3,0,,,,,0,34,34,8,,,,,,up,1.384387297788635,2623.982146139826,None,001,66,2019_Oct_25_1457,ACPT_experiment_5_30_19,3.1.0,59.936189228675076,
,,,C,U,g,n,R,D,y,L,y,,,,,5,19,119,7,3,0,3,0,,,,,0,35,35,26,,,,,,down,0.7672435833774216,2626.65085164063,None,001,66,2019_Oct_25_1457,ACPT_experiment_5_30_19,3.1.0,59.936189228675076,
,,,C,U,g,n,L,U,d,L,u,,,,,5,19,119,7,3,0,3,0,,,,,1,0,36,20,,,,,,up,2.4852113337146875,2628.7024261049646,None,001,66,2019_Oct_25_1457,ACPT_experiment_5_30_19,3.1.0,59.936189228675076,
,,,C,U,g,n,R,G,d,R,i,,,,,5,19,119,7,3,0,3,0,,,,,1,1,37,5,,,,,,up,1.5178271459444659,2632.47195262314,None,001,66,2019_Oct_25_1457,ACPT_experiment_5_30_19,3.1.0,59.936189228675076,
,,,C,U,g,n,L,D,d,R,c ,,,,,5,19,119,7,3,0,3,0,,,,,1,2,38,13,,,,,,up,0.8840031863910554,2635.2740931424105,None,001,66,2019_Oct_25_1457,ACPT_experiment_5_30_19,3.1.0,59.936189228675076,
,,,C,U,g,n,L,U,g,L,u,,,,,5,19,119,7,3,0,3,0,,,,,1,3,39,22,,,,,,up,3.452629933039134,2637.4424115132624,None,001,66,2019_Oct_25_1457,ACPT_experiment_5_30_19,3.1.0,59.936189228675076,
,,,C,U,g,n,R,G,y,R,y,,,,,5,19,119,7,3,0,3,0,,,,,1,4,40,29,,,,,,down,0.9173651859528036,2642.1793530084924,None,001,66,2019_Oct_25_1457,ACPT_experiment_5_30_19,3.1.0,59.936189228675076,
,,,C,U,g,n,L,G,d,R,i,,,,,5,19,119,7,3,0,3,0,,,,,1,5,41,17,,,,,,down,0.9673974694233038,2644.38103730303,None,001,66,2019_Oct_25_1457,ACPT_experiment_5_30_19,3.1.0,59.936189228675076,
,,,C,U,g,n,L,D,d,L,c ,,,,,5,19,119,7,3,0,3,0,,,,,1,6,42,12,,,,,,up,1.017432469594496,2646.6327538810347,None,001,66,2019_Oct_25_1457,ACPT_experiment_5_30_19,3.1.0,59.936189228675076,
,,,C,U,g,n,R,D,d,L,c,,,,,5,19,119,7,3,0,3,0,,,,,1,7,43,0,,,,,,up,3.8529597405977256,2648.9345042517907,None,001,66,2019_Oct_25_1457,ACPT_experiment_5_30_19,3.1.0,59.936189228675076,
,,,C,U,g,n,R,G,g,R,c ,,,,,5,19,119,7,3,0,3,0,,,,,1,8,44,7,,,,,,up,1.9014712749558385,2654.0717284650837,None,001,66,2019_Oct_25_1457,ACPT_experiment_5_30_19,3.1.0,59.936189228675076,
,,,C,U,g,n,R,D,y,L,y,,,,,5,19,119,7,3,0,3,0,,,,,1,9,45,26,,,,,,down,0.9507386560362647,2657.2575164337813,None,001,66,2019_Oct_25_1457,ACPT_experiment_5_30_19,3.1.0,59.936189228675076,
,,,C,U,g,n,R,G,d,L,i,,,,,5,19,119,7,3,0,3,0,,,,,1,10,46,4,,,,,,up,0.8840052993800782,2659.4925515592204,None,001,66,2019_Oct_25_1457,ACPT_experiment_5_30_19,3.1.0,59.936189228675076,
,,,C,U,g,n,R,G,g,L,c ,,,,,5,19,119,7,3,0,3,0,,,,,1,11,47,6,,,,,,up,0.8840439369123487,2661.6441742902844,None,001,66,2019_Oct_25_1457,ACPT_experiment_5_30_19,3.1.0,59.936189228675076,
,,,C,U,g,n,L,G,g,R,c ,,,,,5,19,119,7,3,0,3,0,,,,,1,12,48,19,,,,,,up,0.650496658308839,2663.8125107724754,None,001,66,2019_Oct_25_1457,ACPT_experiment_5_30_19,3.1.0,59.936189228675076,
,,,C,U,g,n,L,U,y,L,u,,,,,5,19,119,7,3,0,3,0,,,,,1,13,49,24,,,,,,down,0.8839874898912967,2665.7640122179128,None,001,66,2019_Oct_25_1457,ACPT_experiment_5_30_19,3.1.0,59.936189228675076,
,,,C,U,g,n,L,D,y,R,y,,,,,5,19,119,7,3,0,3,0,,,,,1,14,50,33,,,,,,down,0.6838441687978047,2667.932320627524,None,001,66,2019_Oct_25_1457,ACPT_experiment_5_30_19,3.1.0,59.936189228675076,
,,,C,U,g,n,R,U,g,R,u,,,,,5,19,119,7,3,0,3,0,,,,,1,15,51,11,,,,,,up,0.583772357320413,2669.917168677881,None,001,66,2019_Oct_25_1457,ACPT_experiment_5_30_19,3.1.0,59.936189228675076,
,,,C,U,g,n,R,U,d,R,u,,,,,5,19,119,7,3,0,3,0,,,,,1,16,52,9,,,,,,up,1.2843139770375274,2671.7685756726623,None,001,66,2019_Oct_25_1457,ACPT_experiment_5_30_19,3.1.0,59.936189228675076,
,,,C,U,g,n,R,D,y,R,y,,,,,5,19,119,7,3,0,3,0,,,,,1,17,53,27,,,,,,down,1.0341172425723926,2674.3372051360147,None,001,66,2019_Oct_25_1457,ACPT_experiment_5_30_19,3.1.0,59.936189228675076,
,,,C,U,g,n,L,G,g,L,c ,,,,,5,19,119,7,3,0,3,0,,,,,1,18,54,18,,,,,,up,0.5337379608608899,2676.6556354500553,None,001,66,2019_Oct_25_1457,ACPT_experiment_5_30_19,3.1.0,59.936189228675076,
,,,C,U,g,n,L,G,y,L,y,,,,,5,19,119,7,3,0,3,0,,,,,1,19,55,34,,,,,,down,0.7172070739288756,2678.473688595377,None,001,66,2019_Oct_25_1457,ACPT_experiment_5_30_19,3.1.0,59.936189228675076,
,,,C,U,g,n,R,D,d,R,c ,,,,,5,19,119,7,3,0,3,0,,,,,1,20,56,1,,,,,,up,0.5670936214592075,2680.475216589026,None,001,66,2019_Oct_25_1457,ACPT_experiment_5_30_19,3.1.0,59.936189228675076,
,,,C,U,g,n,L,G,d,L,i,,,,,5,19,119,7,3,0,3,0,,,,,1,21,57,16,,,,,,up,0.5170519804596552,2682.3266290172087,None,001,66,2019_Oct_25_1457,ACPT_experiment_5_30_19,3.1.0,59.936189228675076,
,,,C,U,g,n,L,D,g,R,i,,,,,5,19,119,7,3,0,3,0,,,,,1,22,58,15,,,,,,up,0.45033643328861217,2684.1280049359466,None,001,66,2019_Oct_25_1457,ACPT_experiment_5_30_19,3.1.0,59.936189228675076,
,,,C,U,g,n,R,U,g,L,u,,,,,5,19,119,7,3,0,3,0,,,,,1,23,59,10,,,,,,up,0.5337367534411896,2685.8626595722544,None,001,66,2019_Oct_25_1457,ACPT_experiment_5_30_19,3.1.0,59.936189228675076,
,,,C,U,g,n,R,D,g,L,i,,,,,5,19,119,7,3,0,3,0,,,,,1,24,60,2,,,,,,up,0.5470953782569268,2687.7007058292274,None,001,66,2019_Oct_25_1457,ACPT_experiment_5_30_19,3.1.0,59.936189228675076,
,,,C,U,g,n,R,U,d,L,u,,,,,5,19,119,7,3,0,3,0,,,,,1,25,61,8,,,,,,up,0.6504876026338025,2689.5321206179233,None,001,66,2019_Oct_25_1457,ACPT_experiment_5_30_19,3.1.0,59.936189228675076,
,,,C,U,g,n,L,U,y,R,u,,,,,5,19,119,7,3,0,3,0,,,,,1,26,62,25,,,,,,down,0.7172285056876717,2691.466931253266,None,001,66,2019_Oct_25_1457,ACPT_experiment_5_30_19,3.1.0,59.936189228675076,
,,,C,U,g,n,L,G,y,R,y,,,,,5,19,119,7,3,0,3,0,,,,,1,27,63,35,,,,,,down,0.6004707138054073,2693.468433589178,None,001,66,2019_Oct_25_1457,ACPT_experiment_5_30_19,3.1.0,59.936189228675076,
,,,C,U,g,n,L,D,g,L,i,,,,,5,19,119,7,3,0,3,0,,,,,1,28,64,14,,,,,,up,0.5837708480430592,2695.3532264301266,None,001,66,2019_Oct_25_1457,ACPT_experiment_5_30_19,3.1.0,59.936189228675076,
,,,C,U,g,n,L,D,y,L,y,,,,,5,19,119,7,3,0,3,0,,,,,1,29,65,32,,,,,,down,0.5504169985797489,2697.2213169904626,None,001,66,2019_Oct_25_1457,ACPT_experiment_5_30_19,3.1.0,59.936189228675076,
,,,C,U,g,n,R,U,y,L,u,,,,,5,19,119,7,3,0,3,0,,,,,1,30,66,30,,,,,,down,0.7505769217423222,2699.056049173503,None,001,66,2019_Oct_25_1457,ACPT_experiment_5_30_19,3.1.0,59.936189228675076,
,,,C,U,g,n,L,U,d,R,u,,,,,5,19,119,7,3,0,3,0,,,,,1,31,67,21,,,,,,up,0.7172432966144697,2701.0909334314583,None,001,66,2019_Oct_25_1457,ACPT_experiment_5_30_19,3.1.0,59.936189228675076,
,,,C,U,g,n,R,U,y,R,u,,,,,5,19,119,7,3,0,3,0,,,,,1,32,68,31,,,,,,down,0.7004190662919427,2703.092460519538,None,001,66,2019_Oct_25_1457,ACPT_experiment_5_30_19,3.1.0,59.936189228675076,
,,,C,U,g,n,L,U,g,R,u,,,,,5,19,119,7,3,0,3,0,,,,,1,33,69,23,,,,,,up,0.6171313383274537,2705.07730555134,None,001,66,2019_Oct_25_1457,ACPT_experiment_5_30_19,3.1.0,59.936189228675076,
,,,C,U,g,n,R,D,g,R,i,,,,,5,19,119,7,3,0,3,0,,,,,1,34,70,3,,,,,,up,0.5334774593793554,2706.979020122004,None,001,66,2019_Oct_25_1457,ACPT_experiment_5_30_19,3.1.0,59.936189228675076,
,,,C,U,g,n,R,G,y,L,y,,,,,5,19,119,7,3,0,3,0,,,,,1,35,71,28,,,,,,down,0.6504948471738317,2708.796804313881,None,001,66,2019_Oct_25_1457,ACPT_experiment_5_30_19,3.1.0,59.936189228675076,
,,,C,U,g,n,,,,,,,,,,5,19,119,7,4,0,4,0,0,0,0,0,,,,,,,,,,,,,,001,66,2019_Oct_25_1457,ACPT_experiment_5_30_19,3.1.0,59.936189228675076,
,,,C,U,g,n,R,G,g,R,c ,,,,,5,19,119,7,4,0,4,0,,,,,0,0,0,7,,,,,,up,0.5137370009615552,2722.3437898166576,None,001,66,2019_Oct_25_1457,ACPT_experiment_5_30_19,3.1.0,59.936189228675076,
,,,C,U,g,n,L,D,g,L,i,,,,,5,19,119,7,4,0,4,0,,,,,0,1,1,14,,,,,,up,0.5504139800250414,2724.1418417002224,None,001,66,2019_Oct_25_1457,ACPT_experiment_5_30_19,3.1.0,59.936189228675076,
,,,C,U,g,n,R,G,y,L,y,,,,,5,19,119,7,4,0,4,0,,,,,0,2,2,28,,,,,,down,0.6671337380830664,2725.9766098040946,None,001,66,2019_Oct_25_1457,ACPT_experiment_5_30_19,3.1.0,59.936189228675076,
,,,C,U,g,n,L,G,g,L,c ,,,,,5,19,119,7,4,0,4,0,,,,,0,3,3,18,,,,,,up,0.483708092240704,2727.928062348901,None,001,66,2019_Oct_25_1457,ACPT_experiment_5_30_19,3.1.0,59.936189228675076,
,,,C,U,g,n,R,U,g,L,u,,,,,5,19,119,7,4,0,4,0,,,,,0,4,4,10,,,,,,up,0.5501492525618232,2729.6963415992486,None,001,66,2019_Oct_25_1457,ACPT_experiment_5_30_19,3.1.0,59.936189228675076,
,,,C,U,g,n,L,D,y,R,y,,,,,5,19,119,7,4,0,4,0,,,,,0,5,5,33,,,,,,down,0.6171319420391228,2731.530808752972,None,001,66,2019_Oct_25_1457,ACPT_experiment_5_30_19,3.1.0,59.936189228675076,
,,,C,U,g,n,L,U,g,L,u,,,,,5,19,119,7,4,0,4,0,,,,,0,6,6,22,,,,,,up,0.4503527335000399,2733.4322531627677,None,001,66,2019_Oct_25_1457,ACPT_experiment_5_30_19,3.1.0,59.936189228675076,
,,,C,U,g,n,R,D,d,R,c ,,,,,5,19,119,7,4,0,4,0,,,,,0,7,7,1,,,,,,down,0.7005295454873703,2735.1669096102105,None,001,66,2019_Oct_25_1457,ACPT_experiment_5_30_19,3.1.0,59.936189228675076,
,,,C,U,g,n,L,G,y,R,y,,,,,5,19,119,7,4,0,4,0,,,,,0,8,8,35,,,,,,down,0.600451395039272,2737.151757660571,None,001,66,2019_Oct_25_1457,ACPT_experiment_5_30_19,3.1.0,59.936189228675076,
,,,C,U,g,n,R,U,d,L,u,,,,,5,19,119,7,4,0,4,0,,,,,0,9,9,8,,,,,,up,0.6004692045280535,2739.0365408421367,None,001,66,2019_Oct_25_1457,ACPT_experiment_5_30_19,3.1.0,59.936189228675076,
,,,C,U,g,n,R,U,g,R,u,,,,,5,19,119,7,4,0,4,0,,,,,0,10,10,11,,,,,,up,0.7672713541032863,2740.9045966890644,None,001,66,2019_Oct_25_1457,ACPT_experiment_5_30_19,3.1.0,59.936189228675076,
,,,C,U,g,n,L,G,g,R,c ,,,,,5,19,119,7,4,0,4,0,,,,,0,11,11,19,,,,,,up,0.5834979704741272,2742.9731387651864,None,001,66,2019_Oct_25_1457,ACPT_experiment_5_30_19,3.1.0,59.936189228675076,
,,,C,U,g,n,L,U,g,R,u,,,,,5,19,119,7,4,0,4,0,,,,,0,12,12,23,,,,,,up,0.5337636186013697,2744.824286465906,None,001,66,2019_Oct_25_1457,ACPT_experiment_5_30_19,3.1.0,59.936189228675076,
,,,C,U,g,n,R,U,y,L,u,,,,,5,19,119,7,4,0,4,0,,,,,0,13,13,30,,,,,,down,0.5337352441601979,2746.6423299518447,None,001,66,2019_Oct_25_1457,ACPT_experiment_5_30_19,3.1.0,59.936189228675076,
,,,C,U,g,n,R,G,g,L,c ,,,,,5,19,119,7,4,0,4,0,,,,,0,14,14,6,,,,,,up,0.667181733140751,2748.460377663765,None,001,66,2019_Oct_25_1457,ACPT_experiment_5_30_19,3.1.0,59.936189228675076,
,,,C,U,g,n,L,D,d,L,c ,,,,,5,19,119,7,4,0,4,0,,,,,0,15,15,12,,,,,,down,0.7005087174438813,2750.411887561162,None,001,66,2019_Oct_25_1457,ACPT_experiment_5_30_19,3.1.0,59.936189228675076,
,,,C,U,g,n,R,D,g,R,i,,,,,5,19,119,7,4,0,4,0,,,,,0,16,16,3,,,,,,up,0.6338136964586738,2752.3967310836833,None,001,66,2019_Oct_25_1457,ACPT_experiment_5_30_19,3.1.0,59.936189228675076,
,,,C,U,g,n,L,U,d,L,u,,,,,5,19,119,7,4,0,4,0,,,,,0,17,17,20,,,,,,down,0.6836926372234302,2754.314969236375,None,001,66,2019_Oct_25_1457,ACPT_experiment_5_30_19,3.1.0,59.936189228675076,
,,,C,U,g,n,L,D,y,L,y,,,,,5,19,119,7,4,0,4,0,,,,,0,18,18,32,,,,,,down,0.6838686191076704,2756.299708316821,None,001,66,2019_Oct_25_1457,ACPT_experiment_5_30_19,3.1.0,59.936189228675076,
,,,C,U,g,n,R,U,d,R,u,,,,,5,19,119,7,4,0,4,0,,,,,0,19,19,9,,,,,,up,0.817276470555953,2758.267871292346,None,001,66,2019_Oct_25_1457,ACPT_experiment_5_30_19,3.1.0,59.936189228675076,
,,,C,U,g,n,L,G,y,L,y,,,,,5,19,119,7,4,0,4,0,,,,,0,20,20,34,,,,,,down,0.6671648292212922,2760.3694641547863,None,001,66,2019_Oct_25_1457,ACPT_experiment_5_30_19,3.1.0,59.936189228675076,
,,,C,U,g,n,L,U,d,R,u,,,,,5,19,119,7,4,0,4,0,,,,,0,21,21,21,,,,,,up,0.48368454749288503,2762.3209580538296,None,001,66,2019_Oct_25_1457,ACPT_experiment_5_30_19,3.1.0,59.936189228675076,
,,,C,U,g,n,L,D,g,R,i,,,,,5,19,119,7,4,0,4,0,,,,,0,22,22,15,,,,,,up,0.5670999604299141,2764.088960804338,None,001,66,2019_Oct_25_1457,ACPT_experiment_5_30_19,3.1.0,59.936189228675076,
,,,C,U,g,n,R,D,g,L,i,,,,,5,19,119,7,4,0,4,0,,,,,0,23,23,2,,,,,,up,0.7338885264907731,2765.9236957040794,None,001,66,2019_Oct_25_1457,ACPT_experiment_5_30_19,3.1.0,59.936189228675076,
,,,C,U,g,n,L,U,y,L,u,,,,,5,19,119,7,4,0,4,0,,,,,0,24,24,24,,,,,,down,0.6171325457507919,2767.9418994150346,None,001,66,2019_Oct_25_1457,ACPT_experiment_5_30_19,3.1.0,59.936189228675076,
,,,C,U,g,n,R,D,d,L,c,,,,,5,19,119,7,4,0,4,0,,,,,0,25,25,0,,,,,,up,0.6004758453527757,2769.843351673082,None,001,66,2019_Oct_25_1457,ACPT_experiment_5_30_19,3.1.0,59.936189228675076,
,,,C,U,g,n,L,U,y,R,u,,,,,5,19,119,7,4,0,4,0,,,,,0,26,26,25,,,,,,down,0.6004501876195718,2771.728118856294,None,001,66,2019_Oct_25_1457,ACPT_experiment_5_30_19,3.1.0,59.936189228675076,
,,,C,U,g,n,R,U,y,R,u,,,,,5,19,119,7,4,0,4,0,,,,,0,27,27,31,,,,,,down,0.6504924323271553,2773.6128896617756,None,001,66,2019_Oct_25_1457,ACPT_experiment_5_30_19,3.1.0,59.936189228675076,
,,,C,U,g,n,R,G,d,R,i,,,,,5,19,119,7,4,0,4,0,,,,,0,28,28,5,,,,,,down,0.5832887844590005,2775.5648399666625,None,001,66,2019_Oct_25_1457,ACPT_experiment_5_30_19,3.1.0,59.936189228675076,
,,,C,U,g,n,R,G,y,R,y,,,,,5,19,119,7,4,0,4,0,,,,,0,29,29,29,,,,,,down,1.2175567737758684,2777.43249917518,None,001,66,2019_Oct_25_1457,ACPT_experiment_5_30_19,3.1.0,59.936189228675076,
,,,C,U,g,n,R,G,d,L,i,,,,,5,19,119,7,4,0,4,0,,,,,0,30,30,4,,,,,,up,0.6004477727728954,2779.9510601323764,None,001,66,2019_Oct_25_1457,ACPT_experiment_5_30_19,3.1.0,59.936189228675076,
,,,C,U,g,n,L,D,d,R,c ,,,,,5,19,119,7,4,0,4,0,,,,,0,31,31,13,,,,,,up,0.40027547353020054,2781.8358402953836,None,001,66,2019_Oct_25_1457,ACPT_experiment_5_30_19,3.1.0,59.936189228675076,
,,,C,U,g,n,L,G,d,L,i,,,,,5,19,119,7,4,0,4,0,,,,,0,32,32,16,,,,,,up,0.9507157150001149,2783.5204472535825,None,001,66,2019_Oct_25_1457,ACPT_experiment_5_30_19,3.1.0,59.936189228675076,
,,,C,U,g,n,L,G,d,R,i,,,,,5,19,119,7,4,0,4,0,,,,,0,33,33,17,,,,,,up,0.7005521846658667,2785.738782513259,None,001,66,2019_Oct_25_1457,ACPT_experiment_5_30_19,3.1.0,59.936189228675076,
,,,C,U,g,n,R,D,y,L,y,,,,,5,19,119,7,4,0,4,0,,,,,0,34,34,26,,,,,,down,0.5838595936256752,2787.7236510898056,None,001,66,2019_Oct_25_1457,ACPT_experiment_5_30_19,3.1.0,59.936189228675076,
,,,C,U,g,n,R,D,y,R,y,,,,,5,19,119,7,4,0,4,0,,,,,0,35,35,27,,,,,,down,0.817445811619109,2789.5749059493046,None,001,66,2019_Oct_25_1457,ACPT_experiment_5_30_19,3.1.0,59.936189228675076,
,,,C,U,g,n,L,U,y,R,u,,,,,5,19,119,7,4,0,4,0,,,,,1,0,36,25,,,,,,down,0.43366282897477504,2791.6599812668337,None,001,66,2019_Oct_25_1457,ACPT_experiment_5_30_19,3.1.0,59.936189228675076,
,,,C,U,g,n,L,U,d,L,u,,,,,5,19,119,7,4,0,4,0,,,,,1,1,37,20,,,,,,up,0.6672007500492327,2793.3612554903793,None,001,66,2019_Oct_25_1457,ACPT_experiment_5_30_19,3.1.0,59.936189228675076,
,,,C,U,g,n,L,U,g,L,u,,,,,5,19,119,7,4,0,4,0,,,,,1,2,38,22,,,,,,up,0.583763603506668,2795.312775650871,None,001,66,2019_Oct_25_1457,ACPT_experiment_5_30_19,3.1.0,59.936189228675076,
,,,C,U,g,n,L,U,g,R,u,,,,,5,19,119,7,4,0,4,0,,,,,1,3,39,23,,,,,,up,0.6506469824525993,2797.164027189958,None,001,66,2019_Oct_25_1457,ACPT_experiment_5_30_19,3.1.0,59.936189228675076,
,,,C,U,g,n,R,U,g,R,u,,,,,5,19,119,7,4,0,4,0,,,,,1,4,40,11,,,,,,up,0.5670887917658547,2799.0989911680026,None,001,66,2019_Oct_25_1457,ACPT_experiment_5_30_19,3.1.0,59.936189228675076,
,,,C,U,g,n,R,G,d,R,i,,,,,5,19,119,7,4,0,4,0,,,,,1,5,41,5,,,,,,up,0.6168901556084165,2800.9673464558055,None,001,66,2019_Oct_25_1457,ACPT_experiment_5_30_19,3.1.0,59.936189228675076,
,,,C,U,g,n,L,G,g,R,c ,,,,,5,19,119,7,4,0,4,0,,,,,1,6,42,19,,,,,,up,0.6171370735864912,2802.868527949273,None,001,66,2019_Oct_25_1457,ACPT_experiment_5_30_19,3.1.0,59.936189228675076,
,,,C,U,g,n,L,D,d,L,c ,,,,,5,19,119,7,4,0,4,0,,,,,1,7,43,12,,,,,,up,0.7338897339177493,2804.7699814147436,None,001,66,2019_Oct_25_1457,ACPT_experiment_5_30_19,3.1.0,59.936189228675076,
,,,C,U,g,n,R,D,d,L,c,,,,,5,19,119,7,4,0,4,0,,,,,1,8,44,0,,,,,,up,0.5504142818790569,2806.788182408998,None,001,66,2019_Oct_25_1457,ACPT_experiment_5_30_19,3.1.0,59.936189228675076,
,,,C,U,g,n,L,D,g,L,i,,,,,5,19,119,7,4,0,4,0,,,,,1,9,45,14,,,,,,up,0.6338414671881765,2808.622918516163,None,001,66,2019_Oct_25_1457,ACPT_experiment_5_30_19,3.1.0,59.936189228675076,
,,,C,U,g,n,L,D,y,L,y,,,,,5,19,119,7,4,0,4,0,,,,,1,10,46,32,,,,,,down,0.7172070739288756,2810.5410425673927,None,001,66,2019_Oct_25_1457,ACPT_experiment_5_30_19,3.1.0,59.936189228675076,
,,,C,U,g,n,L,U,d,R,u,,,,,5,19,119,7,4,0,4,0,,,,,1,11,47,21,,,,,,up,0.8339627528148412,2812.542572070319,None,001,66,2019_Oct_25_1457,ACPT_experiment_5_30_19,3.1.0,59.936189228675076,
,,,C,U,g,n,R,U,g,L,u,,,,,5,19,119,7,4,0,4,0,,,,,1,12,48,10,,,,,,up,0.7172085832062294,2814.660853328007,None,001,66,2019_Oct_25_1457,ACPT_experiment_5_30_19,3.1.0,59.936189228675076,
,,,C,U,g,n,L,U,y,L,u,,,,,5,19,119,7,4,0,4,0,,,,,1,13,49,24,,,,,,down,0.6838496021991887,2816.6623846420644,None,001,66,2019_Oct_25_1457,ACPT_experiment_5_30_19,3.1.0,59.936189228675076,
,,,C,U,g,n,L,G,y,L,y,,,,,5,19,119,7,4,0,4,0,,,,,1,14,50,34,,,,,,down,0.7172378632094478,2818.6305470138777,None,001,66,2019_Oct_25_1457,ACPT_experiment_5_30_19,3.1.0,59.936189228675076,
,,,C,U,g,n,R,D,d,R,c ,,,,,5,19,119,7,4,0,4,0,,,,,1,15,51,1,,,,,,down,0.5837726591780665,2820.632071988968,None,001,66,2019_Oct_25_1457,ACPT_experiment_5_30_19,3.1.0,59.936189228675076,
,,,C,U,g,n,R,D,g,L,i,,,,,5,19,119,7,4,0,4,0,,,,,1,16,52,2,,,,,,up,0.6338227521337103,2822.483464796531,None,001,66,2019_Oct_25_1457,ACPT_experiment_5_30_19,3.1.0,59.936189228675076,
,,,C,U,g,n,L,D,d,R,c ,,,,,5,19,119,7,4,0,4,0,,,,,1,17,53,13,,,,,,up,0.7172221667133272,2824.401611486939,None,001,66,2019_Oct_25_1457,ACPT_experiment_5_30_19,3.1.0,59.936189228675076,
,,,C,U,g,n,L,D,g,R,i,,,,,5,19,119,7,4,0,4,0,,,,,1,18,54,15,,,,,,up,0.6835933266956999,2826.403400887639,None,001,66,2019_Oct_25_1457,ACPT_experiment_5_30_19,3.1.0,59.936189228675076,
,,,C,U,g,n,L,G,g,L,c ,,,,,5,19,119,7,4,0,4,0,,,,,1,19,55,18,,,,,,up,0.6338133946046582,2828.3546315684926,None,001,66,2019_Oct_25_1457,ACPT_experiment_5_30_19,3.1.0,59.936189228675076,
,,,C,U,g,n,R,U,y,L,u,,,,,5,19,119,7,4,0,4,0,,,,,1,20,56,30,,,,,,down,0.6838496021991887,2830.272754110445,None,001,66,2019_Oct_25_1457,ACPT_experiment_5_30_19,3.1.0,59.936189228675076,
,,,C,U,g,n,R,U,d,L,u,,,,,5,19,119,7,4,0,4,0,,,,,1,21,57,8,,,,,,down,0.7005292436297168,2832.240919198959,None,001,66,2019_Oct_25_1457,ACPT_experiment_5_30_19,3.1.0,59.936189228675076,
,,,C,U,g,n,R,G,d,L,i,,,,,5,19,119,7,4,0,4,0,,,,,1,22,58,4,,,,,,up,0.7172091869178985,2834.225764834473,None,001,66,2019_Oct_25_1457,ACPT_experiment_5_30_19,3.1.0,59.936189228675076,
,,,C,U,g,n,R,U,y,R,u,,,,,5,19,119,7,4,0,4,0,,,,,1,23,59,31,,,,,,down,0.9340384884162631,2836.22730067637,None,001,66,2019_Oct_25_1457,ACPT_experiment_5_30_19,3.1.0,59.936189228675076,
,,,C,U,g,n,R,D,g,R,i,,,,,5,19,119,7,4,0,4,0,,,,,1,24,60,3,,,,,,up,0.8006366740810336,2838.4456537455317,None,001,66,2019_Oct_25_1457,ACPT_experiment_5_30_19,3.1.0,59.936189228675076,
,,,C,U,g,n,R,G,y,L,y,,,,,5,19,119,7,4,0,4,0,,,,,1,25,61,28,,,,,,down,0.6171729944180697,2840.5305470440635,None,001,66,2019_Oct_25_1457,ACPT_experiment_5_30_19,3.1.0,59.936189228675076,
,,,C,U,g,n,L,D,y,R,y,,,,,5,19,119,7,4,0,4,0,,,,,1,26,62,33,,,,,,down,0.4003002256977197,2842.4320237524244,None,001,66,2019_Oct_25_1457,ACPT_experiment_5_30_19,3.1.0,59.936189228675076,
,,,C,U,g,n,L,G,d,L,i,,,,,5,19,119,7,4,0,4,0,,,,,1,27,63,16,,,,,,up,0.6004498857619183,2844.116641577426,None,001,66,2019_Oct_25_1457,ACPT_experiment_5_30_19,3.1.0,59.936189228675076,
,,,C,U,g,n,R,G,g,L,c ,,,,,5,19,119,7,4,0,4,0,,,,,1,28,64,6,,,,,,up,0.7806103582988726,2846.0214064001284,None,001,66,2019_Oct_25_1457,ACPT_experiment_5_30_19,3.1.0,59.936189228675076,
,,,C,U,g,n,R,D,y,L,y,,,,,5,19,119,7,4,0,4,0,,,,,1,29,65,26,,,,,,down,0.6004477727728954,2848.1030179232894,None,001,66,2019_Oct_25_1457,ACPT_experiment_5_30_19,3.1.0,59.936189228675076,
,,,C,U,g,n,L,G,y,R,y,,,,,5,19,119,7,4,0,4,0,,,,,1,30,66,35,,,,,,down,0.7505636400892399,2850.0044629367967,None,001,66,2019_Oct_25_1457,ACPT_experiment_5_30_19,3.1.0,59.936189228675076,
,,,C,U,g,n,R,D,y,R,y,,,,,5,19,119,7,4,0,4,0,,,,,1,31,67,27,,,,,,down,0.600448678342218,2852.039352930007,None,001,66,2019_Oct_25_1457,ACPT_experiment_5_30_19,3.1.0,59.936189228675076,
,,,C,U,g,n,R,G,y,R,y,,,,,5,19,119,7,4,0,4,0,,,,,1,32,68,29,,,,,,down,0.5671138457910274,2853.90743745323,None,001,66,2019_Oct_25_1457,ACPT_experiment_5_30_19,3.1.0,59.936189228675076,
,,,C,U,g,n,L,G,d,R,i,,,,,5,19,119,7,4,0,4,0,,,,,1,33,69,17,,,,,,up,0.5504139800250414,2855.7588516925516,None,001,66,2019_Oct_25_1457,ACPT_experiment_5_30_19,3.1.0,59.936189228675076,
,,,C,U,g,n,R,U,d,R,u,,,,,5,19,119,7,4,0,4,0,,,,,1,34,70,9,,,,,,up,0.7338833949470427,2857.5935859885813,None,001,66,2019_Oct_25_1457,ACPT_experiment_5_30_19,3.1.0,59.936189228675076,
,,,C,U,g,n,R,G,g,R,c ,,,,,5,19,119,7,4,0,4,0,,,,,1,35,71,7,,,,,,up,0.7839144709905668,2859.611796944073,None,001,66,2019_Oct_25_1457,ACPT_experiment_5_30_19,3.1.0,59.936189228675076,
,,,C,U,g,n,,,,,,,,,,5,19,119,7,5,0,5,0,0,0,0,0,,,,,,,,,,,,,,001,66,2019_Oct_25_1457,ACPT_experiment_5_30_19,3.1.0,59.936189228675076,
,,,C,U,g,n,L,U,y,R,u,,,,,5,19,119,7,5,0,5,0,,,,,0,0,0,25,,,,,,down,0.8504277748288587,2977.7354264813785,None,001,66,2019_Oct_25_1457,ACPT_experiment_5_30_19,3.1.0,59.936189228675076,
,,,C,U,g,n,R,U,g,L,u,,,,,5,19,119,7,5,0,5,0,,,,,0,1,1,10,,,,,,up,0.5504182060067251,2979.870147707059,None,001,66,2019_Oct_25_1457,ACPT_experiment_5_30_19,3.1.0,59.936189228675076,
,,,C,U,g,n,L,D,d,R,c ,,,,,5,19,119,7,5,0,5,0,,,,,0,2,2,13,,,,,,down,0.7338589446335391,2981.704906453406,None,001,66,2019_Oct_25_1457,ACPT_experiment_5_30_19,3.1.0,59.936189228675076,
,,,C,U,g,n,L,U,d,R,u,,,,,5,19,119,7,5,0,5,0,,,,,0,3,3,21,,,,,,up,0.5170549990180007,2983.723083601055,None,001,66,2019_Oct_25_1457,ACPT_experiment_5_30_19,3.1.0,59.936189228675076,
,,,C,U,g,n,R,D,g,L,i,,,,,5,19,119,7,5,0,5,0,,,,,0,4,4,2,,,,,,up,1.0174478642366012,2985.52446102907,None,001,66,2019_Oct_25_1457,ACPT_experiment_5_30_19,3.1.0,59.936189228675076,
,,,C,U,g,n,R,G,y,R,y,,,,,5,19,119,7,5,0,5,0,,,,,0,5,5,29,,,,,,down,0.5837762814444432,2987.8262129091036,None,001,66,2019_Oct_25_1457,ACPT_experiment_5_30_19,3.1.0,59.936189228675076,
,,,C,U,g,n,L,D,d,L,c ,,,,,5,19,119,7,5,0,5,0,,,,,0,6,6,12,,,,,,up,0.8506626185808273,2989.694305884286,None,001,66,2019_Oct_25_1457,ACPT_experiment_5_30_19,3.1.0,59.936189228675076,
,,,C,U,g,n,L,G,y,L,y,,,,,5,19,119,7,5,0,5,0,,,,,0,7,7,34,,,,,,down,0.6001884787110612,2991.846211454156,None,001,66,2019_Oct_25_1457,ACPT_experiment_5_30_19,3.1.0,59.936189228675076,
,,,C,U,g,n,L,U,g,L,u,,,,,5,19,119,7,5,0,5,0,,,,,0,8,8,22,,,,,,up,0.5671105253750284,2993.7307280971236,None,001,66,2019_Oct_25_1457,ACPT_experiment_5_30_19,3.1.0,59.936189228675076,
,,,C,U,g,n,L,D,g,R,i,,,,,5,19,119,7,5,0,5,0,,,,,0,9,9,15,,,,,,up,0.6338115834732889,2995.5821296585036,None,001,66,2019_Oct_25_1457,ACPT_experiment_5_30_19,3.1.0,59.936189228675076,
,,,C,U,g,n,L,U,y,L,u,,,,,5,19,119,7,5,0,5,0,,,,,0,10,10,24,,,,,,down,0.5003801872771874,2997.5002597468465,None,001,66,2019_Oct_25_1457,ACPT_experiment_5_30_19,3.1.0,59.936189228675076,
,,,C,U,g,n,R,U,y,L,u,,,,,5,19,119,7,5,0,5,0,,,,,0,11,11,30,,,,,,down,0.6671645273636386,2999.2849533074495,None,001,66,2019_Oct_25_1457,ACPT_experiment_5_30_19,3.1.0,59.936189228675076,
,,,C,U,g,n,L,G,y,R,y,,,,,5,19,119,7,5,0,5,0,,,,,0,12,12,35,,,,,,down,0.7005274324947095,3001.236444489792,None,001,66,2019_Oct_25_1457,ACPT_experiment_5_30_19,3.1.0,59.936189228675076,
,,,C,U,g,n,R,G,g,R,c ,,,,,5,19,119,7,5,0,5,0,,,,,0,13,13,7,,,,,,up,0.6004758453564136,3003.2212852956127,None,001,66,2019_Oct_25_1457,ACPT_experiment_5_30_19,3.1.0,59.936189228675076,
,,,C,U,g,n,R,G,g,L,c ,,,,,5,19,119,7,5,0,5,0,,,,,0,14,14,6,,,,,,up,0.8504012115299702,3005.1063244508277,None,001,66,2019_Oct_25_1457,ACPT_experiment_5_30_19,3.1.0,59.936189228675076,
,,,C,U,g,n,R,U,g,R,u,,,,,5,19,119,7,5,0,5,0,,,,,0,15,15,11,,,,,,up,0.717212205476244,3007.241017000213,None,001,66,2019_Oct_25_1457,ACPT_experiment_5_30_19,3.1.0,59.936189228675076,
,,,C,U,g,n,L,U,g,R,u,,,,,5,19,119,7,5,0,5,0,,,,,0,16,16,23,,,,,,up,0.8506436016687076,3009.2425458994276,None,001,66,2019_Oct_25_1457,ACPT_experiment_5_30_19,3.1.0,59.936189228675076,
,,,C,U,g,n,L,D,y,L,y,,,,,5,19,119,7,5,0,5,0,,,,,0,17,17,32,,,,,,down,0.6171672591590323,3011.377501666999,None,001,66,2019_Oct_25_1457,ACPT_experiment_5_30_19,3.1.0,59.936189228675076,
,,,C,U,g,n,L,U,d,L,u,,,,,5,19,119,7,5,0,5,0,,,,,0,18,18,20,,,,,,up,0.6171397902871831,3013.2789496990645,None,001,66,2019_Oct_25_1457,ACPT_experiment_5_30_19,3.1.0,59.936189228675076,
,,,C,U,g,n,L,D,y,R,y,,,,,5,19,119,7,5,0,5,0,,,,,0,19,19,33,,,,,,down,0.7338975821658096,3015.1804022589695,None,001,66,2019_Oct_25_1457,ACPT_experiment_5_30_19,3.1.0,59.936189228675076,
,,,C,U,g,n,R,G,y,L,y,,,,,5,19,119,7,5,0,5,0,,,,,0,20,20,28,,,,,,up,1.2676442968440824,3017.198614421881,None,001,66,2019_Oct_25_1457,ACPT_experiment_5_30_19,3.1.0,59.936189228675076,
,,,C,U,g,n,L,G,g,R,c ,,,,,5,19,119,7,5,0,5,0,,,,,0,21,21,19,,,,,,up,0.6004580358676321,3019.750551867719,None,001,66,2019_Oct_25_1457,ACPT_experiment_5_30_19,3.1.0,59.936189228675076,
,,,C,U,g,n,L,G,g,L,c ,,,,,5,19,119,7,5,0,5,0,,,,,0,22,22,18,,,,,,up,0.5338891905776109,3021.618491500196,None,001,66,2019_Oct_25_1457,ACPT_experiment_5_30_19,3.1.0,59.936189228675076,
,,,C,U,g,n,R,U,y,R,u,,,,,5,19,119,7,5,0,5,0,,,,,0,23,23,31,,,,,,down,0.6338097723382816,3023.4533800445006,None,001,66,2019_Oct_25_1457,ACPT_experiment_5_30_19,3.1.0,59.936189228675076,
,,,C,U,g,n,R,G,d,L,i,,,,,5,19,119,7,5,0,5,0,,,,,0,24,24,4,,,,,,down,0.7505376804983825,3025.404867302719,None,001,66,2019_Oct_25_1457,ACPT_experiment_5_30_19,3.1.0,59.936189228675076,
,,,C,U,g,n,L,G,d,L,i,,,,,5,19,119,7,5,0,5,0,,,,,0,25,25,16,,,,,,up,0.7005422234287835,3027.4397476365466,None,001,66,2019_Oct_25_1457,ACPT_experiment_5_30_19,3.1.0,59.936189228675076,
,,,C,U,g,n,R,D,y,R,y,,,,,5,19,119,7,5,0,5,0,,,,,0,26,26,27,,,,,,down,0.7005271306406939,3029.424600818451,None,001,66,2019_Oct_25_1457,ACPT_experiment_5_30_19,3.1.0,59.936189228675076,
,,,C,U,g,n,R,U,d,L,u,,,,,5,19,119,7,5,0,5,0,,,,,0,27,27,8,,,,,,up,0.5337361497258826,3031.409442227987,None,001,66,2019_Oct_25_1457,ACPT_experiment_5_30_19,3.1.0,59.936189228675076,
,,,C,U,g,n,R,U,d,R,u,,,,,5,19,119,7,5,0,5,0,,,,,0,28,28,9,,,,,,up,0.5005428875083453,3033.210666917008,None,001,66,2019_Oct_25_1457,ACPT_experiment_5_30_19,3.1.0,59.936189228675076,
,,,C,U,g,n,R,D,d,R,c ,,,,,5,19,119,7,5,0,5,0,,,,,0,29,29,1,,,,,,up,0.6338112816156354,3034.9955129147475,None,001,66,2019_Oct_25_1457,ACPT_experiment_5_30_19,3.1.0,59.936189228675076,
,,,C,U,g,n,R,D,y,L,y,,,,,5,19,119,7,5,0,5,0,,,,,0,30,30,26,,,,,,down,0.8339959569420898,3036.913630023295,None,001,66,2019_Oct_25_1457,ACPT_experiment_5_30_19,3.1.0,59.936189228675076,
,,,C,U,g,n,R,D,d,L,c,,,,,5,19,119,7,5,0,5,0,,,,,0,31,31,0,,,,,,up,0.6004492820538871,3039.048603600355,None,001,66,2019_Oct_25_1457,ACPT_experiment_5_30_19,3.1.0,59.936189228675076,
,,,C,U,g,n,L,D,g,L,i,,,,,5,19,119,7,5,0,5,0,,,,,0,32,32,14,,,,,,up,0.7672499223481282,3040.9333689724317,None,001,66,2019_Oct_25_1457,ACPT_experiment_5_30_19,3.1.0,59.936189228675076,
,,,C,U,g,n,R,G,d,R,i,,,,,5,19,119,7,5,0,5,0,,,,,0,33,33,5,,,,,,up,0.5170549990143627,3042.984935890372,None,001,66,2019_Oct_25_1457,ACPT_experiment_5_30_19,3.1.0,59.936189228675076,
,,,C,U,g,n,L,G,d,R,i,,,,,5,19,119,7,5,0,5,0,,,,,0,34,34,17,,,,,,up,0.5504227338424243,3044.7863018478693,None,001,66,2019_Oct_25_1457,ACPT_experiment_5_30_19,3.1.0,59.936189228675076,
,,,C,U,g,n,R,D,g,R,i,,,,,5,19,119,7,5,0,5,0,,,,,0,35,35,3,,,,,,up,0.7506031831908331,3046.621038558749,None,001,66,2019_Oct_25_1457,ACPT_experiment_5_30_19,3.1.0,59.936189228675076,
,,,C,U,g,n,L,U,g,R,u,,,,,5,19,119,7,5,0,5,0,,,,,1,0,36,23,,,,,,up,0.5334729315436562,3048.6728726189995,None,001,66,2019_Oct_25_1457,ACPT_experiment_5_30_19,3.1.0,59.936189228675076,
,,,C,U,g,n,R,G,y,R,y,,,,,5,19,119,7,5,0,5,0,,,,,1,1,37,29,,,,,,down,0.6171086991489574,3050.5073527525183,None,001,66,2019_Oct_25_1457,ACPT_experiment_5_30_19,3.1.0,59.936189228675076,
,,,C,U,g,n,R,G,y,L,y,,,,,5,19,119,7,5,0,5,0,,,,,1,2,38,28,,,,,,down,0.6504821692324185,3052.4254722759124,None,001,66,2019_Oct_25_1457,ACPT_experiment_5_30_19,3.1.0,59.936189228675076,
,,,C,U,g,n,L,D,y,R,y,,,,,5,19,119,7,5,0,5,0,,,,,1,3,39,33,,,,,,down,1.0674553955359443,3054.3769700990797,None,001,66,2019_Oct_25_1457,ACPT_experiment_5_30_19,3.1.0,59.936189228675076,
,,,C,U,g,n,L,U,y,R,u,,,,,5,19,119,7,5,0,5,0,,,,,1,4,40,25,,,,,,down,0.8006028662421159,3056.745428168755,None,001,66,2019_Oct_25_1457,ACPT_experiment_5_30_19,3.1.0,59.936189228675076,
,,,C,U,g,n,L,G,g,R,c ,,,,,5,19,119,7,5,0,5,0,,,,,1,5,41,19,,,,,,up,0.7672686374025943,3058.830349539867,None,001,66,2019_Oct_25_1457,ACPT_experiment_5_30_19,3.1.0,59.936189228675076,
,,,C,U,g,n,L,U,d,L,u,,,,,5,19,119,7,5,0,5,0,,,,,1,6,42,20,,,,,,up,0.817291261490027,3060.881911024406,None,001,66,2019_Oct_25_1457,ACPT_experiment_5_30_19,3.1.0,59.936189228675076,
,,,C,U,g,n,L,U,d,R,u,,,,,5,19,119,7,5,0,5,0,,,,,1,7,43,21,,,,,,up,0.700553995800874,3062.9668124730397,None,001,66,2019_Oct_25_1457,ACPT_experiment_5_30_19,3.1.0,59.936189228675076,
,,,C,U,g,n,L,G,d,R,i,,,,,5,19,119,7,5,0,5,0,,,,,1,8,44,17,,,,,,up,0.4836996402773366,3064.9516813514438,None,001,66,2019_Oct_25_1457,ACPT_experiment_5_30_19,3.1.0,59.936189228675076,
,,,C,U,g,n,L,D,g,L,i,,,,,5,19,119,7,5,0,5,0,,,,,1,9,45,14,,,,,,up,0.5670984511489223,3066.719691950204,None,001,66,2019_Oct_25_1457,ACPT_experiment_5_30_19,3.1.0,59.936189228675076,
,,,C,U,g,n,R,U,d,R,u,,,,,5,19,119,7,5,0,5,0,,,,,1,10,46,9,,,,,,up,0.45033824442361947,3068.571111019215,None,001,66,2019_Oct_25_1457,ACPT_experiment_5_30_19,3.1.0,59.936189228675076,
,,,C,U,g,n,R,G,d,R,i,,,,,5,19,119,7,5,0,5,0,,,,,1,11,47,5,,,,,,up,0.4003002256977197,3070.3057635425303,None,001,66,2019_Oct_25_1457,ACPT_experiment_5_30_19,3.1.0,59.936189228675076,
,,,C,U,g,n,R,U,d,L,u,,,,,5,19,119,7,5,0,5,0,,,,,1,12,48,8,,,,,,up,0.4837026588356821,3071.9737017261014,None,001,66,2019_Oct_25_1457,ACPT_experiment_5_30_19,3.1.0,59.936189228675076,
,,,C,U,g,n,R,G,g,R,c ,,,,,5,19,119,7,5,0,5,0,,,,,1,13,49,7,,,,,,up,0.3969828313529433,3073.761714794038,None,001,66,2019_Oct_25_1457,ACPT_experiment_5_30_19,3.1.0,59.936189228675076,
,,,C,U,g,n,L,D,d,L,c ,,,,,5,19,119,7,5,0,5,0,,,,,1,14,50,12,,,,,,up,0.5337180383830855,3075.4430257896474,None,001,66,2019_Oct_25_1457,ACPT_experiment_5_30_19,3.1.0,59.936189228675076,
,,,C,U,g,n,R,U,g,R,u,,,,,5,19,119,7,5,0,5,0,,,,,1,15,51,11,,,,,,up,0.5671111290866975,3077.2610472401193,None,001,66,2019_Oct_25_1457,ACPT_experiment_5_30_19,3.1.0,59.936189228675076,
,,,C,U,g,n,R,D,d,R,c ,,,,,5,19,119,7,5,0,5,0,,,,,1,16,52,1,,,,,,up,0.4170049211534206,3079.1124524237657,None,001,66,2019_Oct_25_1457,ACPT_experiment_5_30_19,3.1.0,59.936189228675076,
,,,C,U,g,n,R,U,y,L,u,,,,,5,19,119,7,5,0,5,0,,,,,1,17,53,30,,,,,,down,0.8973711687322066,3080.833766244743,None,001,66,2019_Oct_25_1457,ACPT_experiment_5_30_19,3.1.0,59.936189228675076,
,,,C,U,g,n,L,G,g,L,c ,,,,,5,19,119,7,5,0,5,0,,,,,1,18,54,18,,,,,,up,0.7672366406950459,3083.015473425983,None,001,66,2019_Oct_25_1457,ACPT_experiment_5_30_19,3.1.0,59.936189228675076,
,,,C,U,g,n,L,U,g,L,u,,,,,5,19,119,7,5,0,5,0,,,,,1,19,55,22,,,,,,up,0.45034156483598053,3085.0670155917524,None,001,66,2019_Oct_25_1457,ACPT_experiment_5_30_19,3.1.0,59.936189228675076,
,,,C,U,g,n,L,D,y,L,y,,,,,5,19,119,7,5,0,5,0,,,,,1,20,56,32,,,,,,down,0.7839307712019945,3086.80167022806,None,001,66,2019_Oct_25_1457,ACPT_experiment_5_30_19,3.1.0,59.936189228675076,
,,,C,U,g,n,R,D,y,R,y,,,,,5,19,119,7,5,0,5,0,,,,,1,21,57,27,,,,,,down,0.6004529043202638,3088.8699195041354,None,001,66,2019_Oct_25_1457,ACPT_experiment_5_30_19,3.1.0,59.936189228675076,
,,,C,U,g,n,L,G,y,R,y,,,,,5,19,119,7,5,0,5,0,,,,,1,22,58,35,,,,,,down,0.6338411653305229,3090.75468517807,None,001,66,2019_Oct_25_1457,ACPT_experiment_5_30_19,3.1.0,59.936189228675076,
,,,C,U,g,n,L,G,y,L,y,,,,,5,19,119,7,5,0,5,0,,,,,1,23,59,34,,,,,,down,0.7507200013533293,3092.655984395269,None,001,66,2019_Oct_25_1457,ACPT_experiment_5_30_19,3.1.0,59.936189228675076,
,,,C,U,g,n,L,D,g,R,i,,,,,5,19,119,7,5,0,5,0,,,,,1,24,60,15,,,,,,up,0.5003826021238638,3094.6910452388165,None,001,66,2019_Oct_25_1457,ACPT_experiment_5_30_19,3.1.0,59.936189228675076,
,,,C,U,g,n,R,D,d,L,c,,,,,5,19,119,7,5,0,5,0,,,,,1,25,61,0,,,,,,up,0.7672568650305038,3096.4757113305477,None,001,66,2019_Oct_25_1457,ACPT_experiment_5_30_19,3.1.0,59.936189228675076,
,,,C,U,g,n,R,D,g,L,i,,,,,5,19,119,7,5,0,5,0,,,,,1,26,62,2,,,,,,up,0.8507196693135484,3098.5105771753024,None,001,66,2019_Oct_25_1457,ACPT_experiment_5_30_19,3.1.0,59.936189228675076,
