facing_vig,person_vig,text_vig,facing_train,person_train,food_train,correct_key_train,facing_exp,person_exp,food_exp,showL_R,consistent,vig_random.thisRepN,vig_random.thisTrialN,vig_random.thisN,vig_random.thisIndex,trainTrials.thisRepN,trainTrials.thisTrialN,trainTrials.thisN,trainTrials.thisIndex,expBlock.thisRepN,expBlock.thisTrialN,expBlock.thisN,expBlock.thisIndex,breakLoop.thisRepN,breakLoop.thisTrialN,breakLoop.thisN,breakLoop.thisIndex,expTrials.thisRepN,expTrials.thisTrialN,expTrials.thisN,expTrials.thisIndex,train_resp.keys,train_resp.corr,train_resp.rt,train_resp.started,train_resp.stopped,exp_resp.keys,exp_resp.rt,exp_resp.started,exp_resp.stopped,session,participant,date,expName,psychopyVersion,frameRate,
C,G,"cannot eat dairy products because she is lactose intolerant. She enjoys eating wheat products. She thinks eating insects, like crickets, is disgusting.",,,,,,,,,,0,0,0,0,,,,,,,,,,,,,,,,,,,,,,,,,,001,67,2019_Oct_28_1004,ACPT_experiment_5_30_19,3.1.0,59.951588967777006,
C,D,"is allergic to gluten, meaning she can’t eat wheat products. She enjoys eating dairy products. She thinks eating insects, like crickets, is disgusting.",,,,,,,,,,0,1,1,1,,,,,,,,,,,,,,,,,,,,,,,,,,001,67,2019_Oct_28_1004,ACPT_experiment_5_30_19,3.1.0,59.951588967777006,
C,U,"did not report her food preferences, so her food preferences are unknown.",,,,,,,,,,0,2,2,2,,,,,,,,,,,,,,,,,,,,,,,,,,001,67,2019_Oct_28_1004,ACPT_experiment_5_30_19,3.1.0,59.951588967777006,
,,,C,G,g,v,,,,,,,,,,0,0,0,19,,,,,,,,,,,,,v,1,5.671324922230724,1950.2122082238425,None,,,,,001,67,2019_Oct_28_1004,ACPT_experiment_5_30_19,3.1.0,59.951588967777006,
,,,C,U,y,n,,,,,,,,,,0,1,1,8,,,,,,,,,,,,,n,1,2.4519961904015872,1959.1694921189305,None,,,,,001,67,2019_Oct_28_1004,ACPT_experiment_5_30_19,3.1.0,59.951588967777006,
,,,C,D,y,b,,,,,,,,,,0,2,2,2,,,,,,,,,,,,,b,1,2.5854377944174303,1964.907475959833,None,,,,,001,67,2019_Oct_28_1004,ACPT_experiment_5_30_19,3.1.0,59.951588967777006,
,,,C,U,d,n,,,,,,,,,,0,3,3,6,,,,,,,,,,,,,n,1,2.285217278431446,1970.7955742849076,None,,,,,001,67,2019_Oct_28_1004,ACPT_experiment_5_30_19,3.1.0,59.951588967777006,
,,,C,G,g,v,,,,,,,,,,0,4,4,4,,,,,,,,,,,,,v,1,8.77380010474917,1976.3667571773349,None,,,,,001,67,2019_Oct_28_1004,ACPT_experiment_5_30_19,3.1.0,59.951588967777006,
,,,C,D,d,v,,,,,,,,,,0,5,5,18,,,,,,,,,,,,,v,1,7.656228406866376,1988.4265319521778,None,,,,,001,67,2019_Oct_28_1004,ACPT_experiment_5_30_19,3.1.0,59.951588967777006,
,,,C,U,g,n,,,,,,,,,,0,6,6,16,,,,,,,,,,,,,n,1,1.868195134762118,1999.3687353310079,None,,,,,001,67,2019_Oct_28_1004,ACPT_experiment_5_30_19,3.1.0,59.951588967777006,
,,,C,G,y,b,,,,,,,,,,0,7,7,5,,,,,,,,,,,,,b,1,1.9015565923109534,2004.5229075508237,None,,,,,001,67,2019_Oct_28_1004,ACPT_experiment_5_30_19,3.1.0,59.951588967777006,
,,,C,U,g,n,,,,,,,,,,0,8,8,7,,,,,,,,,,,,,n,1,1.618016503229228,2009.7104502842858,None,,,,,001,67,2019_Oct_28_1004,ACPT_experiment_5_30_19,3.1.0,59.951588967777006,
,,,C,U,d,n,,,,,,,,,,0,9,9,15,,,,,,,,,,,,,n,1,2.001617419102786,2014.5977534839562,None,,,,,001,67,2019_Oct_28_1004,ACPT_experiment_5_30_19,3.1.0,59.951588967777006,
,,,C,D,g,b,,,,,,,,,,0,10,10,10,,,,,,,,,,,,,b,1,2.502071280547625,2019.8853600629095,None,,,,,001,67,2019_Oct_28_1004,ACPT_experiment_5_30_19,3.1.0,59.951588967777006,
,,,C,U,y,n,,,,,,,,,,0,11,11,17,,,,,,,,,,,,,n,1,1.2176612023176858,2025.6733863920053,None,,,,,001,67,2019_Oct_28_1004,ACPT_experiment_5_30_19,3.1.0,59.951588967777006,
,,,C,D,d,v,,,,,,,,,,0,12,12,9,,,,,,,,,,,,,v,1,4.553695567190971,2030.1937238222167,None,,,,,001,67,2019_Oct_28_1004,ACPT_experiment_5_30_19,3.1.0,59.951588967777006,
,,,C,G,g,v,,,,,,,,,,0,13,13,13,,,,,,,,,,,,,v,1,2.5187498962322934,2038.0333982856805,None,,,,,001,67,2019_Oct_28_1004,ACPT_experiment_5_30_19,3.1.0,59.951588967777006,
,,,C,G,y,b,,,,,,,,,,0,14,14,14,,,,,,,,,,,,,b,1,2.2018012578919297,2043.838103532331,None,,,,,001,67,2019_Oct_28_1004,ACPT_experiment_5_30_19,3.1.0,59.951588967777006,
,,,C,G,d,b,,,,,,,,,,0,15,15,3,,,,,,,,,,,,,b,1,2.435325121464757,2049.325884290236,None,,,,,001,67,2019_Oct_28_1004,ACPT_experiment_5_30_19,3.1.0,59.951588967777006,
,,,C,D,y,b,,,,,,,,,,0,16,16,11,,,,,,,,,,,,,b,1,1.9848228853634282,2055.047186798624,None,,,,,001,67,2019_Oct_28_1004,ACPT_experiment_5_30_19,3.1.0,59.951588967777006,
,,,C,D,g,b,,,,,,,,,,0,17,17,1,,,,,,,,,,,,,b,1,5.287656991232325,2060.301419543361,None,,,,,001,67,2019_Oct_28_1004,ACPT_experiment_5_30_19,3.1.0,59.951588967777006,
,,,C,D,d,v,,,,,,,,,,0,18,18,0,,,,,,,,,,,,,v,1,2.2018012578923845,2068.8750499972075,None,,,,,001,67,2019_Oct_28_1004,ACPT_experiment_5_30_19,3.1.0,59.951588967777006,
,,,C,G,d,b,,,,,,,,,,0,19,19,12,,,,,,,,,,,,,b,1,1.3845518061630173,2074.3628123410467,None,,,,,001,67,2019_Oct_28_1004,ACPT_experiment_5_30_19,3.1.0,59.951588967777006,
,,,C,U,d,n,,,,,,,,,,1,0,20,15,,,,,,,,,,,,,n,1,1.017283261161083,2079.0501982530786,None,,,,,001,67,2019_Oct_28_1004,ACPT_experiment_5_30_19,3.1.0,59.951588967777006,
,,,C,U,g,n,,,,,,,,,,1,1,21,7,,,,,,,,,,,,,n,1,1.7347737560317,2083.353454976854,None,,,,,001,67,2019_Oct_28_1004,ACPT_experiment_5_30_19,3.1.0,59.951588967777006,
,,,C,G,y,b,,,,,,,,,,1,2,22,14,,,,,,,,,,,,,b,1,1.7347806990401295,2088.374207327289,None,,,,,001,67,2019_Oct_28_1004,ACPT_experiment_5_30_19,3.1.0,59.951588967777006,
,,,C,G,g,v,,,,,,,,,,1,3,23,13,,,,,,,,,,,,,v,1,3.853155974685251,2093.3782231030114,None,,,,,001,67,2019_Oct_28_1004,ACPT_experiment_5_30_19,3.1.0,59.951588967777006,
,,,C,G,y,b,,,,,,,,,,1,4,24,5,,,,,,,,,,,,,b,1,1.3344256999985191,2100.517383934784,None,,,,,001,67,2019_Oct_28_1004,ACPT_experiment_5_30_19,3.1.0,59.951588967777006,
,,,C,G,g,v,,,,,,,,,,1,5,25,19,,,,,,,,,,,,,v,1,3.0856142373932016,2105.154685398702,None,,,,,001,67,2019_Oct_28_1004,ACPT_experiment_5_30_19,3.1.0,59.951588967777006,
,,,C,U,y,n,,,,,,,,,,1,6,26,8,,,,,,,,,,,,,n,1,1.4178260233011315,2111.526281852938,None,,,,,001,67,2019_Oct_28_1004,ACPT_experiment_5_30_19,3.1.0,59.951588967777006,
,,,C,D,d,v,,,,,,,,,,1,7,27,9,,,,,,,,,,,,,v,1,3.08543734161276,2116.2471807612255,None,,,,,001,67,2019_Oct_28_1004,ACPT_experiment_5_30_19,3.1.0,59.951588967777006,
,,,C,U,g,n,,,,,,,,,,1,8,28,16,,,,,,,,,,,,,n,1,1.2009825866325627,2122.61860182903,None,,,,,001,67,2019_Oct_28_1004,ACPT_experiment_5_30_19,3.1.0,59.951588967777006,
,,,C,D,g,b,,,,,,,,,,1,9,29,10,,,,,,,,,,,,,b,1,6.1883614047214905,2127.105570556814,None,,,,,001,67,2019_Oct_28_1004,ACPT_experiment_5_30_19,3.1.0,59.951588967777006,
,,,C,G,d,b,,,,,,,,,,1,10,30,12,,,,,,,,,,,,,b,1,3.7030167371785865,2136.5799150839875,None,,,,,001,67,2019_Oct_28_1004,ACPT_experiment_5_30_19,3.1.0,59.951588967777006,
,,,C,U,y,n,,,,,,,,,,1,11,31,17,,,,,,,,,,,,,n,1,0.8840879830108861,2143.5688865678444,None,,,,,001,67,2019_Oct_28_1004,ACPT_experiment_5_30_19,3.1.0,59.951588967777006,
,,,C,D,y,b,,,,,,,,,,1,12,32,2,,,,,,,,,,,,,b,1,1.8179069244433776,2147.7558786905483,None,,,,,001,67,2019_Oct_28_1004,ACPT_experiment_5_30_19,3.1.0,59.951588967777006,
,,,C,U,d,n,,,,,,,,,,1,13,33,6,,,,,,,,,,,,,n,1,1.4678676058847486,2152.8597708505336,None,,,,,001,67,2019_Oct_28_1004,ACPT_experiment_5_30_19,3.1.0,59.951588967777006,
,,,C,G,g,v,,,,,,,,,,1,14,34,4,,,,,,,,,,,,,v,1,2.118399123369727,2157.61362157887,None,,,,,001,67,2019_Oct_28_1004,ACPT_experiment_5_30_19,3.1.0,59.951588967777006,
,,,C,D,y,b,,,,,,,,,,1,15,35,11,,,,,,,,,,,,,b,1,2.6021242587203233,2163.018003824692,None,,,,,001,67,2019_Oct_28_1004,ACPT_experiment_5_30_19,3.1.0,59.951588967777006,
,,,C,G,d,b,,,,,,,,,,1,16,36,3,,,,,,,,,,,,,b,1,1.5179019435895498,2168.906114828304,None,,,,,001,67,2019_Oct_28_1004,ACPT_experiment_5_30_19,3.1.0,59.951588967777006,
,,,C,D,d,v,,,,,,,,,,1,17,37,0,,,,,,,,,,,,,v,1,1.6013064930712062,2173.7099959700363,None,,,,,001,67,2019_Oct_28_1004,ACPT_experiment_5_30_19,3.1.0,59.951588967777006,
,,,C,D,d,v,,,,,,,,,,1,18,38,18,,,,,,,,,,,,,v,1,2.9692442837153976,2178.580453318079,None,,,,,001,67,2019_Oct_28_1004,ACPT_experiment_5_30_19,3.1.0,59.951588967777006,
,,,C,D,g,b,,,,,,,,,,1,19,39,1,,,,,,,,,,,,,b,1,2.8356897803446373,2184.818970714088,None,,,,,001,67,2019_Oct_28_1004,ACPT_experiment_5_30_19,3.1.0,59.951588967777006,
,,,C,G,y,b,,,,,,,,,,2,0,40,5,,,,,,,,,,,,,b,1,1.5012311765231061,2190.9406176560706,None,,,,,001,67,2019_Oct_28_1004,ACPT_experiment_5_30_19,3.1.0,59.951588967777006,
,,,C,U,g,n,,,,,,,,,,2,1,41,7,,,,,,,,,,,,,n,1,0.7839867056482035,2195.727829540086,None,,,,,001,67,2019_Oct_28_1004,ACPT_experiment_5_30_19,3.1.0,59.951588967777006,
,,,C,D,d,v,,,,,,,,,,2,2,42,0,,,,,,,,,,,,,v,1,2.485251993473412,2199.814583336478,None,,,,,001,67,2019_Oct_28_1004,ACPT_experiment_5_30_19,3.1.0,59.951588967777006,
,,,C,U,y,n,,,,,,,,,,2,3,43,8,,,,,,,,,,,,,n,1,0.8507524862761784,2205.5857982271177,None,,,,,001,67,2019_Oct_28_1004,ACPT_experiment_5_30_19,3.1.0,59.951588967777006,
,,,C,U,g,n,,,,,,,,,,2,4,44,16,,,,,,,,,,,,,n,1,2.051415694519619,2209.7394370427614,None,,,,,001,67,2019_Oct_28_1004,ACPT_experiment_5_30_19,3.1.0,59.951588967777006,
,,,C,G,d,b,,,,,,,,,,2,5,45,3,,,,,,,,,,,,,b,1,4.386902467334039,2215.076839784042,None,,,,,001,67,2019_Oct_28_1004,ACPT_experiment_5_30_19,3.1.0,59.951588967777006,
,,,C,D,d,v,,,,,,,,,,2,6,46,9,,,,,,,,,,,,,v,1,1.884867411178675,2222.749725071958,None,,,,,001,67,2019_Oct_28_1004,ACPT_experiment_5_30_19,3.1.0,59.951588967777006,
,,,C,G,d,b,,,,,,,,,,2,7,47,12,,,,,,,,,,,,,b,1,4.753868840532505,2227.9205746999787,None,,,,,001,67,2019_Oct_28_1004,ACPT_experiment_5_30_19,3.1.0,59.951588967777006,
,,,C,G,g,v,,,,,,,,,,2,8,48,13,,,,,,,,,,,,,v,1,2.385282029531936,2235.9437408024005,None,,,,,001,67,2019_Oct_28_1004,ACPT_experiment_5_30_19,3.1.0,59.951588967777006,
,,,C,D,g,b,,,,,,,,,,2,9,49,10,,,,,,,,,,,,,b,1,1.4845410897805777,2241.615008067474,None,,,,,001,67,2019_Oct_28_1004,ACPT_experiment_5_30_19,3.1.0,59.951588967777006,
,,,C,G,y,b,,,,,,,,,,2,10,50,14,,,,,,,,,,,,,b,1,2.568770951660099,2246.385527449788,None,,,,,001,67,2019_Oct_28_1004,ACPT_experiment_5_30_19,3.1.0,59.951588967777006,
,,,C,D,y,b,,,,,,,,,,2,11,51,11,,,,,,,,,,,,,b,1,1.2510474132009222,2252.2736070589262,None,,,,,001,67,2019_Oct_28_1004,ACPT_experiment_5_30_19,3.1.0,59.951588967777006,
,,,C,U,d,n,,,,,,,,,,2,12,52,6,,,,,,,,,,,,,n,1,1.200532498562552,2256.8277554310175,None,,,,,001,67,2019_Oct_28_1004,ACPT_experiment_5_30_19,3.1.0,59.951588967777006,
,,,C,U,d,n,,,,,,,,,,2,13,53,15,,,,,,,,,,,,,n,1,2.051678019492101,2261.2976072279735,None,,,,,001,67,2019_Oct_28_1004,ACPT_experiment_5_30_19,3.1.0,59.951588967777006,
,,,C,G,g,v,,,,,,,,,,2,14,54,4,,,,,,,,,,,,,v,1,2.518723633547779,2266.635265049348,None,,,,,001,67,2019_Oct_28_1004,ACPT_experiment_5_30_19,3.1.0,59.951588967777006,
,,,C,G,g,v,,,,,,,,,,2,15,55,19,,,,,,,,,,,,,v,1,3.2192916018275355,2272.4232829260854,None,,,,,001,67,2019_Oct_28_1004,ACPT_experiment_5_30_19,3.1.0,59.951588967777006,
,,,C,D,y,b,,,,,,,,,,2,16,56,2,,,,,,,,,,,,,b,1,1.4845438066099632,2278.928554933536,None,,,,,001,67,2019_Oct_28_1004,ACPT_experiment_5_30_19,3.1.0,59.951588967777006,
,,,C,U,y,n,,,,,,,,,,2,17,57,17,,,,,,,,,,,,,n,1,1.2844046445707136,2283.699084579427,None,,,,,001,67,2019_Oct_28_1004,ACPT_experiment_5_30_19,3.1.0,59.951588967777006,
,,,C,D,g,b,,,,,,,,,,2,18,58,1,,,,,,,,,,,,,b,1,2.2349981963270693,2288.286295859703,None,,,,,001,67,2019_Oct_28_1004,ACPT_experiment_5_30_19,3.1.0,59.951588967777006,
,,,C,D,d,v,,,,,,,,,,2,19,59,18,,,,,,,,,,,,,v,1,1.1509787377913199,2293.7905928272685,None,,,,,001,67,2019_Oct_28_1004,ACPT_experiment_5_30_19,3.1.0,59.951588967777006,
,,,C,G,g,v,,,,,,,,,,3,0,60,4,,,,,,,,,,,,,v,1,5.320752803239884,2298.2444364616617,None,,,,,001,67,2019_Oct_28_1004,ACPT_experiment_5_30_19,3.1.0,59.951588967777006,
,,,C,G,d,b,,,,,,,,,,3,1,61,3,,,,,,,,,,,,,b,1,2.4019902284703676,2306.8344626790654,None,,,,,001,67,2019_Oct_28_1004,ACPT_experiment_5_30_19,3.1.0,59.951588967777006,
,,,C,U,y,n,,,,,,,,,,3,2,62,17,,,,,,,,,,,,,n,1,1.0508608575823928,2312.52242576641,None,,,,,001,67,2019_Oct_28_1004,ACPT_experiment_5_30_19,3.1.0,59.951588967777006,
,,,C,G,y,b,,,,,,,,,,3,3,63,14,,,,,,,,,,,,,n,0,0.9171345902191206,2316.8762357423057,None,,,,,001,67,2019_Oct_28_1004,ACPT_experiment_5_30_19,3.1.0,59.951588967777006,
,,,C,G,y,b,,,,,,,,,,3,4,64,5,,,,,,,,,,,,,b,1,2.101870838911964,2321.0625217912357,None,,,,,001,67,2019_Oct_28_1004,ACPT_experiment_5_30_19,3.1.0,59.951588967777006,
,,,C,G,g,v,,,,,,,,,,3,5,65,13,,,,,,,,,,,,,v,1,9.057346533099462,2326.433693514475,None,,,,,001,67,2019_Oct_28_1004,ACPT_experiment_5_30_19,3.1.0,59.951588967777006,
,,,C,G,d,b,,,,,,,,,,3,6,66,12,,,,,,,,,,,,,b,1,1.3010633368398885,2338.7603418375124,None,,,,,001,67,2019_Oct_28_1004,ACPT_experiment_5_30_19,3.1.0,59.951588967777006,
,,,C,D,d,v,,,,,,,,,,3,7,67,0,,,,,,,,,,,,,v,1,1.3840890395554197,2343.36433497299,None,,,,,001,67,2019_Oct_28_1004,ACPT_experiment_5_30_19,3.1.0,59.951588967777006,
,,,C,U,d,n,,,,,,,,,,3,8,68,15,,,,,,,,,,,,,n,1,1.0341897886455627,2348.0178296457407,None,,,,,001,67,2019_Oct_28_1004,ACPT_experiment_5_30_19,3.1.0,59.951588967777006,
,,,C,G,g,v,,,,,,,,,,3,9,69,19,,,,,,,,,,,,,v,1,2.4851276230610893,2352.354918744161,None,,,,,001,67,2019_Oct_28_1004,ACPT_experiment_5_30_19,3.1.0,59.951588967777006,
,,,C,D,g,b,,,,,,,,,,3,10,70,1,,,,,,,,,,,,,b,1,4.653792014634746,2358.1260171130066,None,,,,,001,67,2019_Oct_28_1004,ACPT_experiment_5_30_19,3.1.0,59.951588967777006,
,,,C,U,g,n,,,,,,,,,,3,11,71,7,,,,,,,,,,,,,n,1,1.1843048765581443,2366.049100955871,None,,,,,001,67,2019_Oct_28_1004,ACPT_experiment_5_30_19,3.1.0,59.951588967777006,
,,,C,D,y,b,,,,,,,,,,3,12,72,2,,,,,,,,,,,,,b,1,1.5677138031537652,2370.536309670252,None,,,,,001,67,2019_Oct_28_1004,ACPT_experiment_5_30_19,3.1.0,59.951588967777006,
,,,C,U,g,n,,,,,,,,,,3,13,73,16,,,,,,,,,,,,,n,1,1.3677844407184239,2375.3900041808984,None,,,,,001,67,2019_Oct_28_1004,ACPT_experiment_5_30_19,3.1.0,59.951588967777006,
,,,C,D,y,b,,,,,,,,,,3,14,74,11,,,,,,,,,,,,,b,1,3.886501734997182,2380.04376480106,None,,,,,001,67,2019_Oct_28_1004,ACPT_experiment_5_30_19,3.1.0,59.951588967777006,
,,,C,D,d,v,,,,,,,,,,3,15,75,9,,,,,,,,,,,,,v,1,2.185147697411594,2387.199551119409,None,,,,,001,67,2019_Oct_28_1004,ACPT_experiment_5_30_19,3.1.0,59.951588967777006,
,,,C,D,d,v,,,,,,,,,,3,16,76,18,,,,,,,,,,,,,v,1,1.5179218670050432,2392.6538282390266,None,,,,,001,67,2019_Oct_28_1004,ACPT_experiment_5_30_19,3.1.0,59.951588967777006,
,,,C,U,d,n,,,,,,,,,,3,17,77,6,,,,,,,,,,,,,n,1,1.0842434460264485,2397.45784190166,None,,,,,001,67,2019_Oct_28_1004,ACPT_experiment_5_30_19,3.1.0,59.951588967777006,
,,,C,U,y,n,,,,,,,,,,3,18,78,8,,,,,,,,,,,,,n,1,3.535965840398603,2401.861670216154,None,,,,,001,67,2019_Oct_28_1004,ACPT_experiment_5_30_19,3.1.0,59.951588967777006,
,,,C,D,g,b,,,,,,,,,,3,19,79,10,,,,,,,,,,,,,b,1,3.3193829174824714,2408.683624310793,None,,,,,001,67,2019_Oct_28_1004,ACPT_experiment_5_30_19,3.1.0,59.951588967777006,
,,,C,U,d,n,,,,,,,,,,4,0,80,15,,,,,,,,,,,,,n,1,1.0675693583903012,2415.2889492964164,None,,,,,001,67,2019_Oct_28_1004,ACPT_experiment_5_30_19,3.1.0,59.951588967777006,
,,,C,G,d,b,,,,,,,,,,4,1,81,12,,,,,,,,,,,,,b,1,3.202206669212501,2419.6595631640193,None,,,,,001,67,2019_Oct_28_1004,ACPT_experiment_5_30_19,3.1.0,59.951588967777006,
,,,C,D,y,b,,,,,,,,,,4,2,82,11,,,,,,,,,,,,,b,1,1.0508653856313686,2426.1477656342213,None,,,,,001,67,2019_Oct_28_1004,ACPT_experiment_5_30_19,3.1.0,59.951588967777006,
,,,C,U,g,n,,,,,,,,,,4,3,83,16,,,,,,,,,,,,,n,1,1.1173211458381047,2430.5015532717416,None,,,,,001,67,2019_Oct_28_1004,ACPT_experiment_5_30_19,3.1.0,59.951588967777006,
,,,C,D,y,b,,,,,,,,,,4,4,84,2,,,,,,,,,,,,,b,1,1.4345091670352303,2434.904856332552,None,,,,,001,67,2019_Oct_28_1004,ACPT_experiment_5_30_19,3.1.0,59.951588967777006,
,,,C,G,g,v,,,,,,,,,,4,5,85,4,,,,,,,,,,,,,v,1,2.685521563324073,2439.6253419809004,None,,,,,001,67,2019_Oct_28_1004,ACPT_experiment_5_30_19,3.1.0,59.951588967777006,
,,,C,U,y,n,,,,,,,,,,4,6,86,8,,,,,,,,,,,,,n,1,1.1175828670698138,2445.596845157327,None,,,,,001,67,2019_Oct_28_1004,ACPT_experiment_5_30_19,3.1.0,59.951588967777006,
,,,C,D,d,v,,,,,,,,,,4,7,87,9,,,,,,,,,,,,,v,1,2.3851066431006984,2450.0172600171763,None,,,,,001,67,2019_Oct_28_1004,ACPT_experiment_5_30_19,3.1.0,59.951588967777006,
,,,C,D,d,v,,,,,,,,,,4,8,88,18,,,,,,,,,,,,,v,1,1.2677471597812655,2455.6883244256546,None,,,,,001,67,2019_Oct_28_1004,ACPT_experiment_5_30_19,3.1.0,59.951588967777006,
,,,C,U,d,n,,,,,,,,,,4,9,89,6,,,,,,,,,,,,,n,1,1.3341884302312792,2460.2589506699246,None,,,,,001,67,2019_Oct_28_1004,ACPT_experiment_5_30_19,3.1.0,59.951588967777006,
,,,C,G,y,b,,,,,,,,,,4,10,90,5,,,,,,,,,,,,,b,1,1.06753494521854,2464.879125241307,None,,,,,001,67,2019_Oct_28_1004,ACPT_experiment_5_30_19,3.1.0,59.951588967777006,
,,,C,U,g,n,,,,,,,,,,4,11,91,7,,,,,,,,,,,,,n,1,1.1338286012705794,2469.266402329228,None,,,,,001,67,2019_Oct_28_1004,ACPT_experiment_5_30_19,3.1.0,59.951588967777006,
,,,C,U,y,n,,,,,,,,,,4,12,92,17,,,,,,,,,,,,,n,1,1.0008428208534497,2473.6695514363723,None,,,,,001,67,2019_Oct_28_1004,ACPT_experiment_5_30_19,3.1.0,59.951588967777006,
,,,C,G,d,b,,,,,,,,,,4,13,93,3,,,,,,,,,,,,,b,1,1.3175092108062927,2477.973293567001,None,,,,,001,67,2019_Oct_28_1004,ACPT_experiment_5_30_19,3.1.0,59.951588967777006,
,,,C,G,g,v,,,,,,,,,,4,14,94,19,,,,,,,,,,,,,v,1,0.9341476777899516,2482.56007921067,None,,,,,001,67,2019_Oct_28_1004,ACPT_experiment_5_30_19,3.1.0,59.951588967777006,
,,,C,G,g,v,,,,,,,,,,4,15,95,13,,,,,,,,,,,,,v,1,1.0839817247942847,2486.78044879003,None,,,,,001,67,2019_Oct_28_1004,ACPT_experiment_5_30_19,3.1.0,59.951588967777006,
,,,C,G,y,b,,,,,,,,,,4,16,96,14,,,,,,,,,,,,,b,1,0.817371709051713,2491.133685816792,None,,,,,001,67,2019_Oct_28_1004,ACPT_experiment_5_30_19,3.1.0,59.951588967777006,
,,,C,D,g,b,,,,,,,,,,4,17,97,1,,,,,,,,,,,,,b,1,1.7011484641611787,2495.2539565337484,None,,,,,001,67,2019_Oct_28_1004,ACPT_experiment_5_30_19,3.1.0,59.951588967777006,
,,,C,D,d,v,,,,,,,,,,4,18,98,0,,,,,,,,,,,,,v,1,0.6172059824584721,2500.2410558202787,None,,,,,001,67,2019_Oct_28_1004,ACPT_experiment_5_30_19,3.1.0,59.951588967777006,
,,,C,D,g,b,,,,,,,,,,4,19,99,10,,,,,,,,,,,,,b,1,2.7186185828109046,2504.1611925069847,None,,,,,001,67,2019_Oct_28_1004,ACPT_experiment_5_30_19,3.1.0,59.951588967777006,
,,,C,U,g,n,,,,,,,,,,5,0,100,16,,,,,,,,,,,,,n,1,2.0683889352594633,2510.165757082246,None,,,,,001,67,2019_Oct_28_1004,ACPT_experiment_5_30_19,3.1.0,59.951588967777006,
,,,C,G,y,b,,,,,,,,,,5,1,101,5,,,,,,,,,,,,,b,1,1.4845658431149786,2515.520121895079,None,,,,,001,67,2019_Oct_28_1004,ACPT_experiment_5_30_19,3.1.0,59.951588967777006,
,,,C,D,g,b,,,,,,,,,,5,2,102,1,,,,,,,,,,,,,b,1,1.834833979083669,2520.2906500316208,None,,,,,001,67,2019_Oct_28_1004,ACPT_experiment_5_30_19,3.1.0,59.951588967777006,
,,,C,D,g,b,,,,,,,,,,5,3,103,10,,,,,,,,,,,,,b,1,0.9841358293951998,2525.3947867062516,None,,,,,001,67,2019_Oct_28_1004,ACPT_experiment_5_30_19,3.1.0,59.951588967777006,
,,,C,D,d,v,,,,,,,,,,5,4,104,0,,,,,,,,,,,,,v,1,0.7672643188229813,2529.664937958182,None,,,,,001,67,2019_Oct_28_1004,ACPT_experiment_5_30_19,3.1.0,59.951588967777006,
,,,C,D,y,b,,,,,,,,,,5,5,105,11,,,,,,,,,,,,,b,1,0.8006541521453983,2533.718186305067,None,,,,,001,67,2019_Oct_28_1004,ACPT_experiment_5_30_19,3.1.0,59.951588967777006,
,,,C,G,g,v,,,,,,,,,,5,6,106,19,,,,,,,,,,,,,v,1,4.7369550681701185,2537.8217264847094,None,,,,,001,67,2019_Oct_28_1004,ACPT_experiment_5_30_19,3.1.0,59.951588967777006,
,,,C,G,d,b,,,,,,,,,,5,7,107,3,,,,,,,,,,,,,b,1,0.9841645070391678,2545.8279857577763,None,,,,,001,67,2019_Oct_28_1004,ACPT_experiment_5_30_19,3.1.0,59.951588967777006,
,,,C,D,d,v,,,,,,,,,,5,8,108,18,,,,,,,,,,,,,v,1,1.5676938797382718,2550.1150501783295,None,,,,,001,67,2019_Oct_28_1004,ACPT_experiment_5_30_19,3.1.0,59.951588967777006,
,,,C,U,y,n,,,,,,,,,,5,9,109,17,,,,,,,,,,,,,n,1,1.3511031082039153,2554.96872627491,None,,,,,001,67,2019_Oct_28_1004,ACPT_experiment_5_30_19,3.1.0,59.951588967777006,
,,,C,G,d,b,,,,,,,,,,5,10,110,12,,,,,,,,,,,,,b,1,2.919038483888471,2559.6225016866983,None,,,,,001,67,2019_Oct_28_1004,ACPT_experiment_5_30_19,3.1.0,59.951588967777006,
,,,C,D,d,v,,,,,,,,,,5,11,111,9,,,,,,,,,,,,,v,1,1.251089071251954,2565.827507595802,None,,,,,001,67,2019_Oct_28_1004,ACPT_experiment_5_30_19,3.1.0,59.951588967777006,
,,,C,G,y,b,,,,,,,,,,5,12,112,14,,,,,,,,,,,,,b,1,0.7501694245002,2570.381621554721,None,,,,,001,67,2019_Oct_28_1004,ACPT_experiment_5_30_19,3.1.0,59.951588967777006,
,,,C,U,g,n,,,,,,,,,,5,13,113,7,,,,,,,,,,,,,n,1,1.3010899013938797,2574.4177765166323,None,,,,,001,67,2019_Oct_28_1004,ACPT_experiment_5_30_19,3.1.0,59.951588967777006,
,,,C,U,d,n,,,,,,,,,,5,14,114,15,,,,,,,,,,,,,n,1,2.601851066430754,2579.005110356101,None,,,,,001,67,2019_Oct_28_1004,ACPT_experiment_5_30_19,3.1.0,59.951588967777006,
,,,C,U,y,n,,,,,,,,,,5,15,115,8,,,,,,,,,,,,,n,1,0.5838013575089462,2584.8762828340155,None,,,,,001,67,2019_Oct_28_1004,ACPT_experiment_5_30_19,3.1.0,59.951588967777006,
,,,C,G,g,v,,,,,,,,,,5,16,116,4,,,,,,,,,,,,,v,1,3.3358064530734737,2588.7629874256077,None,,,,,001,67,2019_Oct_28_1004,ACPT_experiment_5_30_19,3.1.0,59.951588967777006,
,,,C,U,d,n,,,,,,,,,,5,17,117,6,,,,,,,,,,,,,n,1,1.1676184122547966,2595.384779114223,None,,,,,001,67,2019_Oct_28_1004,ACPT_experiment_5_30_19,3.1.0,59.951588967777006,
,,,C,G,g,v,,,,,,,,,,5,18,118,13,,,,,,,,,,,,,v,1,1.584352270137515,2599.8553366830834,None,,,,,001,67,2019_Oct_28_1004,ACPT_experiment_5_30_19,3.1.0,59.951588967777006,
,,,C,D,y,b,,,,,,,,,,5,19,119,2,0,0,0,0,0,0,0,0,,,,,b,1,1.0675415863565831,2604.7256651326643,None,,,,,001,67,2019_Oct_28_1004,ACPT_experiment_5_30_19,3.1.0,59.951588967777006,
,,,C,D,y,b,R,U,y,R,u,,,,,5,19,119,2,0,0,0,0,,,,,0,0,0,31,,,,,,down,1.181162712422065,2690.531590235715,None,001,67,2019_Oct_28_1004,ACPT_experiment_5_30_19,3.1.0,59.951588967777006,
,,,C,D,y,b,L,U,g,L,u,,,,,5,19,119,2,0,0,0,0,,,,,0,1,1,22,,,,,,up,1.9349065788023836,2692.9971198589665,None,001,67,2019_Oct_28_1004,ACPT_experiment_5_30_19,3.1.0,59.951588967777006,
,,,C,D,y,b,R,G,d,R,i,,,,,5,19,119,2,0,0,0,0,,,,,0,2,2,5,,,,,,up,1.0842328805788384,2696.2163945560774,None,001,67,2019_Oct_28_1004,ACPT_experiment_5_30_19,3.1.0,59.951588967777006,
,,,C,D,y,b,L,D,d,R,c ,,,,,5,19,119,2,0,0,0,0,,,,,0,3,3,13,,,,,,up,0.8340331181502734,2698.5849532931743,None,001,67,2019_Oct_28_1004,ACPT_experiment_5_30_19,3.1.0,59.951588967777006,
,,,C,D,y,b,L,D,g,L,i,,,,,5,19,119,2,0,0,0,0,,,,,0,4,4,14,,,,,,down,1.718085480508762,2700.6866556886634,None,001,67,2019_Oct_28_1004,ACPT_experiment_5_30_19,3.1.0,59.951588967777006,
,,,C,D,y,b,L,U,y,L,u,,,,,5,19,119,2,0,0,0,0,,,,,0,5,5,24,,,,,,down,0.7839794607698423,2703.6891129099204,None,001,67,2019_Oct_28_1004,ACPT_experiment_5_30_19,3.1.0,59.951588967777006,
,,,C,D,y,b,R,U,d,L,u,,,,,5,19,119,2,0,0,0,0,,,,,0,6,6,8,,,,,,down,1.3178026283817417,2705.757423660867,None,001,67,2019_Oct_28_1004,ACPT_experiment_5_30_19,3.1.0,59.951588967777006,
,,,C,D,y,b,R,D,y,R,y,,,,,5,19,119,2,0,0,0,0,,,,,0,7,7,27,,,,,,down,0.8840420987808102,2708.3595624093446,None,001,67,2019_Oct_28_1004,ACPT_experiment_5_30_19,3.1.0,59.951588967777006,
,,,C,D,y,b,L,U,d,R,u,,,,,5,19,119,2,0,0,0,0,,,,,0,8,8,21,,,,,,up,1.6013212846983151,2710.5279816825323,None,001,67,2019_Oct_28_1004,ACPT_experiment_5_30_19,3.1.0,59.951588967777006,
,,,C,D,y,b,R,U,d,R,u,,,,,5,19,119,2,0,0,0,0,,,,,0,9,9,9,,,,,,up,0.7172006997348035,2713.3970196381483,None,001,67,2019_Oct_28_1004,ACPT_experiment_5_30_19,3.1.0,59.951588967777006,
,,,C,D,y,b,R,D,y,L,y,,,,,5,19,119,2,0,0,0,0,,,,,0,10,10,26,,,,,,down,0.6338510905807198,2715.398586343102,None,001,67,2019_Oct_28_1004,ACPT_experiment_5_30_19,3.1.0,59.951588967777006,
,,,C,D,y,b,L,U,g,R,u,,,,,5,19,119,2,0,0,0,0,,,,,0,11,11,23,,,,,,down,0.8840493436591714,2717.316810080041,None,001,67,2019_Oct_28_1004,ACPT_experiment_5_30_19,3.1.0,59.951588967777006,
,,,C,D,y,b,L,G,y,R,y,,,,,5,19,119,2,0,0,0,0,,,,,0,12,12,35,,,,,,down,0.767290279637109,2719.4852260326593,None,001,67,2019_Oct_28_1004,ACPT_experiment_5_30_19,3.1.0,59.951588967777006,
,,,C,D,y,b,L,D,y,L,y,,,,,5,19,119,2,0,0,0,0,,,,,0,13,13,32,,,,,,down,0.6171730786354601,2721.5368880530445,None,001,67,2019_Oct_28_1004,ACPT_experiment_5_30_19,3.1.0,59.951588967777006,
,,,C,D,y,b,R,U,g,L,u,,,,,5,19,119,2,0,0,0,0,,,,,0,14,14,10,,,,,,up,0.6838854282855209,2723.4384313630785,None,001,67,2019_Oct_28_1004,ACPT_experiment_5_30_19,3.1.0,59.951588967777006,
,,,C,D,y,b,L,G,y,L,y,,,,,5,19,119,2,0,0,0,0,,,,,0,15,15,34,,,,,,up,0.5836893637638241,2725.4234465395893,None,001,67,2019_Oct_28_1004,ACPT_experiment_5_30_19,3.1.0,59.951588967777006,
,,,C,D,y,b,R,U,y,L,u,,,,,5,19,119,2,0,0,0,0,,,,,0,16,16,30,,,,,,down,0.7005652514499161,2727.3082297290566,None,001,67,2019_Oct_28_1004,ACPT_experiment_5_30_19,3.1.0,59.951588967777006,
,,,C,D,y,b,R,D,g,L,i,,,,,5,19,119,2,0,0,0,0,,,,,0,17,17,2,,,,,,up,1.3010708835886362,2729.293170343694,None,001,67,2019_Oct_28_1004,ACPT_experiment_5_30_19,3.1.0,59.951588967777006,
,,,C,D,y,b,R,G,y,R,y,,,,,5,19,119,2,0,0,0,0,,,,,0,18,18,29,,,,,,down,0.6338366008239973,2731.8785939502245,None,001,67,2019_Oct_28_1004,ACPT_experiment_5_30_19,3.1.0,59.951588967777006,
,,,C,D,y,b,R,G,g,L,c ,,,,,5,19,119,2,0,0,0,0,,,,,0,19,19,6,,,,,,up,1.117592225037697,2733.7968198002527,None,001,67,2019_Oct_28_1004,ACPT_experiment_5_30_19,3.1.0,59.951588967777006,
,,,C,D,y,b,L,D,g,R,i,,,,,5,19,119,2,0,0,0,0,,,,,0,20,20,15,,,,,,up,0.7503390754022803,2736.2157053870196,None,001,67,2019_Oct_28_1004,ACPT_experiment_5_30_19,3.1.0,59.951588967777006,
,,,C,D,y,b,R,D,g,R,i,,,,,5,19,119,2,0,0,0,0,,,,,0,21,21,3,,,,,,up,0.8840396838213564,2738.2504328060168,None,001,67,2019_Oct_28_1004,ACPT_experiment_5_30_19,3.1.0,59.951588967777006,
,,,C,D,y,b,R,D,d,L,c,,,,,5,19,119,2,0,0,0,0,,,,,0,22,22,0,,,,,,up,0.867366501795459,2740.402164105552,None,001,67,2019_Oct_28_1004,ACPT_experiment_5_30_19,3.1.0,59.951588967777006,
,,,C,D,y,b,L,D,d,L,c ,,,,,5,19,119,2,0,0,0,0,,,,,0,23,23,12,,,,,,up,0.834015307824302,2742.5539005368755,None,001,67,2019_Oct_28_1004,ACPT_experiment_5_30_19,3.1.0,59.951588967777006,
,,,C,D,y,b,R,G,y,L,y,,,,,5,19,119,2,0,0,0,0,,,,,0,24,24,28,,,,,,down,2.1350572118990385,2744.6889743516213,None,001,67,2019_Oct_28_1004,ACPT_experiment_5_30_19,3.1.0,59.951588967777006,
,,,C,D,y,b,L,U,y,R,u,,,,,5,19,119,2,0,0,0,0,,,,,0,25,25,25,,,,,,down,1.0842045048048021,2748.1250810143433,None,001,67,2019_Oct_28_1004,ACPT_experiment_5_30_19,3.1.0,59.951588967777006,
,,,C,D,y,b,L,U,d,L,u,,,,,5,19,119,2,0,0,0,0,,,,,0,26,26,20,,,,,,up,0.7506041172041478,2750.4936608823355,None,001,67,2019_Oct_28_1004,ACPT_experiment_5_30_19,3.1.0,59.951588967777006,
,,,C,D,y,b,R,G,g,R,c ,,,,,5,19,119,2,0,0,0,0,,,,,0,27,27,7,,,,,,up,0.5837995462893559,2752.5286473057354,None,001,67,2019_Oct_28_1004,ACPT_experiment_5_30_19,3.1.0,59.951588967777006,
,,,C,D,y,b,L,G,g,R,c ,,,,,5,19,119,2,0,0,0,0,,,,,0,28,28,19,,,,,,up,0.6505511390309948,2754.380113412534,None,001,67,2019_Oct_28_1004,ACPT_experiment_5_30_19,3.1.0,59.951588967777006,
,,,C,D,y,b,R,U,g,R,u,,,,,5,19,119,2,0,0,0,0,,,,,0,29,29,11,,,,,,up,0.4503594516231715,2756.2983594878474,None,001,67,2019_Oct_28_1004,ACPT_experiment_5_30_19,3.1.0,59.951588967777006,
,,,C,D,y,b,L,D,y,R,y,,,,,5,19,119,2,0,0,0,0,,,,,0,30,30,33,,,,,,down,0.5337618880153059,2758.049779559481,None,001,67,2019_Oct_28_1004,ACPT_experiment_5_30_19,3.1.0,59.951588967777006,
,,,C,D,y,b,R,G,d,L,i,,,,,5,19,119,2,0,0,0,0,,,,,0,31,31,4,,,,,,up,0.9004813316087166,2759.90151583987,None,001,67,2019_Oct_28_1004,ACPT_experiment_5_30_19,3.1.0,59.951588967777006,
,,,C,D,y,b,R,D,d,R,c ,,,,,5,19,119,2,0,0,0,0,,,,,0,32,32,1,,,,,,up,0.7339348594873627,2762.0863737421455,None,001,67,2019_Oct_28_1004,ACPT_experiment_5_30_19,3.1.0,59.951588967777006,
,,,C,D,y,b,L,G,g,L,c ,,,,,5,19,119,2,0,0,0,0,,,,,0,33,33,18,,,,,,up,0.7840066290636969,2764.104680946121,None,001,67,2019_Oct_28_1004,ACPT_experiment_5_30_19,3.1.0,59.951588967777006,
,,,C,D,y,b,L,G,d,R,i,,,,,5,19,119,2,0,0,0,0,,,,,0,34,34,17,,,,,,up,0.5171019882664041,2766.1563215337405,None,001,67,2019_Oct_28_1004,ACPT_experiment_5_30_19,3.1.0,59.951588967777006,
,,,C,D,y,b,L,G,d,L,i,,,,,5,19,119,2,0,0,0,0,,,,,0,35,35,16,,,,,,up,0.5004097884343537,2767.957791640316,None,001,67,2019_Oct_28_1004,ACPT_experiment_5_30_19,3.1.0,59.951588967777006,
,,,C,D,y,b,L,G,d,R,i,,,,,5,19,119,2,0,0,0,0,,,,,1,0,36,17,,,,,,down,0.8674356300098225,2769.7425463030745,None,001,67,2019_Oct_28_1004,ACPT_experiment_5_30_19,3.1.0,59.951588967777006,
,,,C,D,y,b,L,D,g,L,i,,,,,5,19,119,2,0,0,0,0,,,,,1,1,37,14,,,,,,up,1.0008319535363626,2771.894295412935,None,001,67,2019_Oct_28_1004,ACPT_experiment_5_30_19,3.1.0,59.951588967777006,
,,,C,D,y,b,R,U,y,R,u,,,,,5,19,119,2,0,0,0,0,,,,,1,2,38,31,,,,,,down,0.6672318678051852,2774.1794704295758,None,001,67,2019_Oct_28_1004,ACPT_experiment_5_30_19,3.1.0,59.951588967777006,
,,,C,D,y,b,R,D,d,R,c ,,,,,5,19,119,2,0,0,0,0,,,,,1,3,39,1,,,,,,up,0.7839375008488787,2776.1311066400817,None,001,67,2019_Oct_28_1004,ACPT_experiment_5_30_19,3.1.0,59.951588967777006,
,,,C,D,y,b,R,U,g,R,u,,,,,5,19,119,2,0,0,0,0,,,,,1,4,40,11,,,,,,up,0.6672122462591688,2778.199417089159,None,001,67,2019_Oct_28_1004,ACPT_experiment_5_30_19,3.1.0,59.951588967777006,
,,,C,D,y,b,L,G,g,L,c ,,,,,5,19,119,2,0,0,0,0,,,,,1,5,41,18,,,,,,down,1.0508472734354655,2780.1509962462474,None,001,67,2019_Oct_28_1004,ACPT_experiment_5_30_19,3.1.0,59.951588967777006,
,,,C,D,y,b,R,G,g,R,c ,,,,,5,19,119,2,0,0,0,0,,,,,1,6,42,7,,,,,,up,1.2009708137056805,2782.48621767539,None,001,67,2019_Oct_28_1004,ACPT_experiment_5_30_19,3.1.0,59.951588967777006,
,,,C,D,y,b,L,U,g,L,u,,,,,5,19,119,2,0,0,0,0,,,,,1,7,43,22,,,,,,up,1.1842867643617865,2784.9715692859418,None,001,67,2019_Oct_28_1004,ACPT_experiment_5_30_19,3.1.0,59.951588967777006,
,,,C,D,y,b,L,U,d,R,u,,,,,5,19,119,2,0,0,0,0,,,,,1,8,44,21,,,,,,up,0.6005104620571728,2787.423525629512,None,001,67,2019_Oct_28_1004,ACPT_experiment_5_30_19,3.1.0,59.951588967777006,
,,,C,D,y,b,L,G,y,R,y,,,,,5,19,119,2,0,0,0,0,,,,,1,9,45,35,,,,,,down,0.6338559204996272,2789.3083927388207,None,001,67,2019_Oct_28_1004,ACPT_experiment_5_30_19,3.1.0,59.951588967777006,
,,,C,D,y,b,R,D,g,L,i,,,,,5,19,119,2,0,0,0,0,,,,,1,10,46,2,,,,,,down,1.0842509927747415,2791.2266059103113,None,001,67,2019_Oct_28_1004,ACPT_experiment_5_30_19,3.1.0,59.951588967777006,
,,,C,D,y,b,R,D,y,R,y,,,,,5,19,119,2,0,0,0,0,,,,,1,11,47,27,,,,,,down,1.1674064995613662,2793.6120627225346,None,001,67,2019_Oct_28_1004,ACPT_experiment_5_30_19,3.1.0,59.951588967777006,
,,,C,D,y,b,L,D,y,L,y,,,,,5,19,119,2,0,0,0,0,,,,,1,12,48,32,,,,,,down,0.6338519961905149,2796.0805542935714,None,001,67,2019_Oct_28_1004,ACPT_experiment_5_30_19,3.1.0,59.951588967777006,
,,,C,D,y,b,L,G,y,L,y,,,,,5,19,119,2,0,0,0,0,,,,,1,13,49,34,,,,,,down,0.45035582918399086,2797.982099414825,None,001,67,2019_Oct_28_1004,ACPT_experiment_5_30_19,3.1.0,59.951588967777006,
,,,C,D,y,b,L,D,d,L,c ,,,,,5,19,119,2,0,0,0,0,,,,,1,14,50,12,,,,,,down,0.8506697739144329,2799.7168420782536,None,001,67,2019_Oct_28_1004,ACPT_experiment_5_30_19,3.1.0,59.951588967777006,
,,,C,D,y,b,L,U,d,L,u,,,,,5,19,119,2,0,0,0,0,,,,,1,15,51,20,,,,,,up,0.7672824310188844,2801.851897780803,None,001,67,2019_Oct_28_1004,ACPT_experiment_5_30_19,3.1.0,59.951588967777006,
,,,C,D,y,b,R,U,d,R,u,,,,,5,19,119,2,0,0,0,0,,,,,1,16,52,9,,,,,,up,0.8840472305701041,2803.9035576880988,None,001,67,2019_Oct_28_1004,ACPT_experiment_5_30_19,3.1.0,59.951588967777006,
,,,C,D,y,b,L,U,y,R,u,,,,,5,19,119,2,0,0,0,0,,,,,1,17,53,25,,,,,,down,0.7004375604683446,2806.0887461379516,None,001,67,2019_Oct_28_1004,ACPT_experiment_5_30_19,3.1.0,59.951588967777006,
,,,C,D,y,b,R,G,y,L,y,,,,,5,19,119,2,0,0,0,0,,,,,1,18,54,28,,,,,,down,0.5337633973649645,2808.073594984129,None,001,67,2019_Oct_28_1004,ACPT_experiment_5_30_19,3.1.0,59.951588967777006,
,,,C,D,y,b,L,U,g,R,u,,,,,5,19,119,2,0,0,0,0,,,,,1,19,55,23,,,,,,up,0.6838929750338139,2809.908417492155,None,001,67,2019_Oct_28_1004,ACPT_experiment_5_30_19,3.1.0,59.951588967777006,
,,,C,D,y,b,R,U,g,L,u,,,,,5,19,119,2,0,0,0,0,,,,,1,20,56,10,,,,,,up,0.9340978692512181,2811.8766888490754,None,001,67,2019_Oct_28_1004,ACPT_experiment_5_30_19,3.1.0,59.951588967777006,
,,,C,D,y,b,L,G,d,L,i,,,,,5,19,119,2,0,0,0,0,,,,,1,21,57,16,,,,,,down,0.6338740326955303,2814.0951192159832,None,001,67,2019_Oct_28_1004,ACPT_experiment_5_30_19,3.1.0,59.951588967777006,
,,,C,D,y,b,R,G,d,R,i,,,,,5,19,119,2,0,0,0,0,,,,,1,22,58,5,,,,,,up,0.7506343041973196,2816.0133281612952,None,001,67,2019_Oct_28_1004,ACPT_experiment_5_30_19,3.1.0,59.951588967777006,
,,,C,D,y,b,R,U,d,L,u,,,,,5,19,119,2,0,0,0,0,,,,,1,23,59,8,,,,,,up,0.7506472846043835,2818.031653779336,None,001,67,2019_Oct_28_1004,ACPT_experiment_5_30_19,3.1.0,59.951588967777006,
,,,C,D,y,b,R,D,g,R,i,,,,,5,19,119,2,0,0,0,0,,,,,1,24,60,3,,,,,,down,1.0174903439356058,2820.066658013062,None,001,67,2019_Oct_28_1004,ACPT_experiment_5_30_19,3.1.0,59.951588967777006,
,,,C,D,y,b,L,U,y,L,u,,,,,5,19,119,2,0,0,0,0,,,,,1,25,61,24,,,,,,down,0.7172800915268454,2822.368477232215,None,001,67,2019_Oct_28_1004,ACPT_experiment_5_30_19,3.1.0,59.951588967777006,
,,,C,D,y,b,R,D,y,L,y,,,,,5,19,119,2,0,0,0,0,,,,,1,26,62,26,,,,,,down,0.6838051308832291,2824.386801340906,None,001,67,2019_Oct_28_1004,ACPT_experiment_5_30_19,3.1.0,59.951588967777006,
,,,C,D,y,b,R,G,y,R,y,,,,,5,19,119,2,0,0,0,0,,,,,1,27,63,29,,,,,,down,0.6672122462591688,2826.3717395405843,None,001,67,2019_Oct_28_1004,ACPT_experiment_5_30_19,3.1.0,59.951588967777006,
,,,C,D,y,b,L,G,g,R,c ,,,,,5,19,119,2,0,0,0,0,,,,,1,28,64,19,,,,,,up,0.7005622327505989,2828.3233205088923,None,001,67,2019_Oct_28_1004,ACPT_experiment_5_30_19,3.1.0,59.951588967777006,
,,,C,D,y,b,L,D,g,R,i,,,,,5,19,119,2,0,0,0,0,,,,,1,29,65,15,,,,,,up,0.5838098098670343,2830.2915791872756,None,001,67,2019_Oct_28_1004,ACPT_experiment_5_30_19,3.1.0,59.951588967777006,
,,,C,D,y,b,R,G,g,L,c ,,,,,5,19,119,2,0,0,0,0,,,,,1,30,66,6,,,,,,up,0.8006472091369687,2832.1597610397607,None,001,67,2019_Oct_28_1004,ACPT_experiment_5_30_19,3.1.0,59.951588967777006,
,,,C,D,y,b,L,D,y,R,y,,,,,5,19,119,2,0,0,0,0,,,,,1,31,67,33,,,,,,down,0.717260168111352,2834.244757047531,None,001,67,2019_Oct_28_1004,ACPT_experiment_5_30_19,3.1.0,59.951588967777006,
,,,C,D,y,b,R,U,y,L,u,,,,,5,19,119,2,0,0,0,0,,,,,1,32,68,30,,,,,,down,0.467031426169342,2836.2630835711816,None,001,67,2019_Oct_28_1004,ACPT_experiment_5_30_19,3.1.0,59.951588967777006,
,,,C,D,y,b,L,D,d,R,c ,,,,,5,19,119,2,0,0,0,0,,,,,1,33,69,13,,,,,,up,3.502835917088305,2838.031178636061,None,001,67,2019_Oct_28_1004,ACPT_experiment_5_30_19,3.1.0,59.951588967777006,
,,,C,D,y,b,R,G,d,L,i,,,,,5,19,119,2,0,0,0,0,,,,,1,34,70,4,,,,,,down,0.717245376484243,2842.818385086418,None,001,67,2019_Oct_28_1004,ACPT_experiment_5_30_19,3.1.0,59.951588967777006,
,,,C,D,y,b,R,D,d,L,c,,,,,5,19,119,2,0,0,0,0,,,,,1,35,71,0,,,,,,down,0.6504137882111536,2844.8200012980406,None,001,67,2019_Oct_28_1004,ACPT_experiment_5_30_19,3.1.0,59.951588967777006,
,,,C,D,y,b,,,,,,,,,,5,19,119,2,1,0,1,0,0,0,0,0,,,,,,,,,,,,,,001,67,2019_Oct_28_1004,ACPT_experiment_5_30_19,3.1.0,59.951588967777006,
,,,C,D,y,b,L,G,g,R,c ,,,,,5,19,119,2,1,0,1,0,,,,,0,0,0,19,,,,,,up,1.4845380710812606,2883.0676623343297,None,001,67,2019_Oct_28_1004,ACPT_experiment_5_30_19,3.1.0,59.951588967777006,
,,,C,D,y,b,L,D,d,R,c ,,,,,5,19,119,2,1,0,1,0,,,,,0,1,1,13,,,,,,down,0.7839613485739392,2885.8365398460764,None,001,67,2019_Oct_28_1004,ACPT_experiment_5_30_19,3.1.0,59.951588967777006,
,,,C,D,y,b,L,G,y,L,y,,,,,5,19,119,2,1,0,1,0,,,,,0,2,2,34,,,,,,down,0.616973542609685,2887.938397402711,None,001,67,2019_Oct_28_1004,ACPT_experiment_5_30_19,3.1.0,59.951588967777006,
,,,C,D,y,b,R,D,d,R,c ,,,,,5,19,119,2,1,0,1,0,,,,,0,3,3,1,,,,,,down,0.7673038637844911,2889.87313885866,None,001,67,2019_Oct_28_1004,ACPT_experiment_5_30_19,3.1.0,59.951588967777006,
,,,C,D,y,b,R,G,g,L,c ,,,,,5,19,119,2,1,0,1,0,,,,,0,4,4,6,,,,,,up,0.6505312156150467,2891.924797558476,None,001,67,2019_Oct_28_1004,ACPT_experiment_5_30_19,3.1.0,59.951588967777006,
,,,C,D,y,b,R,G,d,L,i,,,,,5,19,119,2,1,0,1,0,,,,,0,5,5,4,,,,,,up,0.7339505567233573,2893.8429977495593,None,001,67,2019_Oct_28_1004,ACPT_experiment_5_30_19,3.1.0,59.951588967777006,
,,,C,D,y,b,R,G,y,R,y,,,,,5,19,119,2,1,0,1,0,,,,,0,6,6,29,,,,,,down,0.6004014870109131,2895.861290161908,None,001,67,2019_Oct_28_1004,ACPT_experiment_5_30_19,3.1.0,59.951588967777006,
,,,C,D,y,b,R,D,g,R,i,,,,,5,19,119,2,1,0,1,0,,,,,0,7,7,3,,,,,,up,0.8673652943152774,2897.746179307722,None,001,67,2019_Oct_28_1004,ACPT_experiment_5_30_19,3.1.0,59.951588967777006,
,,,C,D,y,b,L,U,d,R,u,,,,,5,19,119,2,1,0,1,0,,,,,0,8,8,21,,,,,,up,1.5846130857598837,2899.897921474574,None,001,67,2019_Oct_28_1004,ACPT_experiment_5_30_19,3.1.0,59.951588967777006,
,,,C,D,y,b,R,U,g,R,u,,,,,5,19,119,2,1,0,1,0,,,,,0,9,9,11,,,,,,down,0.9007246387745909,2902.7669126403507,None,001,67,2019_Oct_28_1004,ACPT_experiment_5_30_19,3.1.0,59.951588967777006,
,,,C,D,y,b,L,G,d,L,i,,,,,5,19,119,2,1,0,1,0,,,,,0,10,10,16,,,,,,up,0.7672932983364262,2904.952006906784,None,001,67,2019_Oct_28_1004,ACPT_experiment_5_30_19,3.1.0,59.951588967777006,
,,,C,D,y,b,L,U,y,L,u,,,,,5,19,119,2,1,0,1,0,,,,,0,11,11,24,,,,,,down,0.5837856602724969,2907.0036948879833,None,001,67,2019_Oct_28_1004,ACPT_experiment_5_30_19,3.1.0,59.951588967777006,
,,,C,D,y,b,R,G,g,R,c ,,,,,5,19,119,2,1,0,1,0,,,,,0,12,12,7,,,,,,up,1.3844730181103841,2908.8718553077033,None,001,67,2019_Oct_28_1004,ACPT_experiment_5_30_19,3.1.0,59.951588967777006,
,,,C,D,y,b,R,U,y,L,u,,,,,5,19,119,2,1,0,1,0,,,,,0,13,13,30,,,,,,down,0.617186059042524,2911.540675313228,None,001,67,2019_Oct_28_1004,ACPT_experiment_5_30_19,3.1.0,59.951588967777006,
,,,C,D,y,b,L,U,d,L,u,,,,,5,19,119,2,1,0,1,0,,,,,0,14,14,20,,,,,,down,0.8006692456419842,2913.442189341878,None,001,67,2019_Oct_28_1004,ACPT_experiment_5_30_19,3.1.0,59.951588967777006,
,,,C,D,y,b,L,D,g,R,i,,,,,5,19,119,2,1,0,1,0,,,,,0,15,15,15,,,,,,up,0.7339445193251777,2915.5272161403814,None,001,67,2019_Oct_28_1004,ACPT_experiment_5_30_19,3.1.0,59.951588967777006,
,,,C,D,y,b,R,U,g,L,u,,,,,5,19,119,2,1,0,1,0,,,,,0,16,16,10,,,,,,up,0.7673023544348325,2917.5288441249318,None,001,67,2019_Oct_28_1004,ACPT_experiment_5_30_19,3.1.0,59.951588967777006,
,,,C,D,y,b,R,U,d,L,u,,,,,5,19,119,2,1,0,1,0,,,,,0,17,17,8,,,,,,up,0.6505318193549101,2919.563828435242,None,001,67,2019_Oct_28_1004,ACPT_experiment_5_30_19,3.1.0,59.951588967777006,
,,,C,D,y,b,L,U,g,L,u,,,,,5,19,119,2,1,0,1,0,,,,,0,18,18,22,,,,,,up,0.750618908830802,2921.4987344103047,None,001,67,2019_Oct_28_1004,ACPT_experiment_5_30_19,3.1.0,59.951588967777006,
,,,C,D,y,b,R,U,y,R,u,,,,,5,19,119,2,1,0,1,0,,,,,0,19,19,31,,,,,,up,0.7171762482698796,2923.5504607289854,None,001,67,2019_Oct_28_1004,ACPT_experiment_5_30_19,3.1.0,59.951588967777006,
,,,C,D,y,b,R,D,g,L,i,,,,,5,19,119,2,1,0,1,0,,,,,0,20,20,2,,,,,,up,0.8173457482375852,2925.5687000122257,None,001,67,2019_Oct_28_1004,ACPT_experiment_5_30_19,3.1.0,59.951588967777006,
,,,C,D,y,b,L,D,g,L,i,,,,,5,19,119,2,1,0,1,0,,,,,0,21,21,14,,,,,,up,0.650525480086344,2927.6703966721857,None,001,67,2019_Oct_28_1004,ACPT_experiment_5_30_19,3.1.0,59.951588967777006,
,,,C,D,y,b,R,U,d,R,u,,,,,5,19,119,2,1,0,1,0,,,,,0,22,22,9,,,,,,up,0.9340863981938128,2929.605298421069,None,001,67,2019_Oct_28_1004,ACPT_experiment_5_30_19,3.1.0,59.951588967777006,
,,,C,D,y,b,L,D,y,R,y,,,,,5,19,119,2,1,0,1,0,,,,,0,23,23,33,,,,,,down,0.5003802051810453,2931.8237858413945,None,001,67,2019_Oct_28_1004,ACPT_experiment_5_30_19,3.1.0,59.951588967777006,
,,,C,D,y,b,R,G,y,L,y,,,,,5,19,119,2,1,0,1,0,,,,,0,24,24,28,,,,,,down,0.5471353298007671,2933.628531236746,None,001,67,2019_Oct_28_1004,ACPT_experiment_5_30_19,3.1.0,59.951588967777006,
,,,C,D,y,b,L,U,y,R,u,,,,,5,19,119,2,1,0,1,0,,,,,0,25,25,25,,,,,,down,0.5170811592411155,2935.4600422316034,None,001,67,2019_Oct_28_1004,ACPT_experiment_5_30_19,3.1.0,59.951588967777006,
,,,C,D,y,b,L,U,g,R,u,,,,,5,19,119,2,1,0,1,0,,,,,0,26,26,23,,,,,,up,0.8006952064561119,2937.2614927166333,None,001,67,2019_Oct_28_1004,ACPT_experiment_5_30_19,3.1.0,59.951588967777006,
,,,C,D,y,b,L,D,y,L,y,,,,,5,19,119,2,1,0,1,0,,,,,0,27,27,32,,,,,,down,0.6338417326128365,2939.3631972252115,None,001,67,2019_Oct_28_1004,ACPT_experiment_5_30_19,3.1.0,59.951588967777006,
,,,C,D,y,b,R,D,y,L,y,,,,,5,19,119,2,1,0,1,0,,,,,0,28,28,26,,,,,,down,0.5337492094781737,2941.298108332063,None,001,67,2019_Oct_28_1004,ACPT_experiment_5_30_19,3.1.0,59.951588967777006,
,,,C,D,y,b,R,D,d,L,c,,,,,5,19,119,2,1,0,1,0,,,,,0,29,29,0,,,,,,up,0.567142967109703,2943.0995355731075,None,001,67,2019_Oct_28_1004,ACPT_experiment_5_30_19,3.1.0,59.951588967777006,
,,,C,D,y,b,L,D,d,L,c ,,,,,5,19,119,2,1,0,1,0,,,,,0,30,30,12,,,,,,down,0.6839074647905363,2944.95103035755,None,001,67,2019_Oct_28_1004,ACPT_experiment_5_30_19,3.1.0,59.951588967777006,
,,,C,D,y,b,L,G,d,R,i,,,,,5,19,119,2,1,0,1,0,,,,,0,31,31,17,,,,,,up,0.7170177665548181,2946.9529188558527,None,001,67,2019_Oct_28_1004,ACPT_experiment_5_30_19,3.1.0,59.951588967777006,
,,,C,D,y,b,R,D,y,R,y,,,,,5,19,119,2,1,0,1,0,,,,,0,32,32,27,,,,,,down,0.6505188389478462,2948.9542950808786,None,001,67,2019_Oct_28_1004,ACPT_experiment_5_30_19,3.1.0,59.951588967777006,
,,,C,D,y,b,R,G,d,R,i,,,,,5,19,119,2,1,0,1,0,,,,,0,33,33,5,,,,,,up,0.5671233455636866,2950.8891886792735,None,001,67,2019_Oct_28_1004,ACPT_experiment_5_30_19,3.1.0,59.951588967777006,
,,,C,D,y,b,L,G,g,L,c ,,,,,5,19,119,2,1,0,1,0,,,,,0,34,34,18,,,,,,up,0.7339049743636679,2952.7407118394894,None,001,67,2019_Oct_28_1004,ACPT_experiment_5_30_19,3.1.0,59.951588967777006,
,,,C,D,y,b,L,G,y,R,y,,,,,5,19,119,2,1,0,1,0,,,,,0,35,35,35,,,,,,down,0.5337633973649645,2954.758988856471,None,001,67,2019_Oct_28_1004,ACPT_experiment_5_30_19,3.1.0,59.951588967777006,
,,,C,D,y,b,L,G,y,R,y,,,,,5,19,119,2,1,0,1,0,,,,,1,0,36,35,,,,,,down,0.5004022416860607,2956.5771276170235,None,001,67,2019_Oct_28_1004,ACPT_experiment_5_30_19,3.1.0,59.951588967777006,
,,,C,D,y,b,R,D,d,L,c,,,,,5,19,119,2,1,0,1,0,,,,,1,1,37,0,,,,,,up,0.467048330885973,2958.361908240596,None,001,67,2019_Oct_28_1004,ACPT_experiment_5_30_19,3.1.0,59.951588967777006,
,,,C,D,y,b,L,G,g,L,c ,,,,,5,19,119,2,1,0,1,0,,,,,1,2,38,18,,,,,,up,0.5471244624827705,2960.1333223653924,None,001,67,2019_Oct_28_1004,ACPT_experiment_5_30_19,3.1.0,59.951588967777006,
,,,C,D,y,b,L,U,d,R,u,,,,,5,19,119,2,1,0,1,0,,,,,1,3,39,21,,,,,,up,0.617199945059383,2961.9647962302483,None,001,67,2019_Oct_28_1004,ACPT_experiment_5_30_19,3.1.0,59.951588967777006,
,,,C,D,y,b,R,U,g,R,u,,,,,5,19,119,2,1,0,1,0,,,,,1,4,40,11,,,,,,up,0.6338610522884665,2963.8663606711775,None,001,67,2019_Oct_28_1004,ACPT_experiment_5_30_19,3.1.0,59.951588967777006,
,,,C,D,y,b,R,D,y,R,y,,,,,5,19,119,2,1,0,1,0,,,,,1,5,41,27,,,,,,down,0.6505200464275731,2965.7845819931567,None,001,67,2019_Oct_28_1004,ACPT_experiment_5_30_19,3.1.0,59.951588967777006,
,,,C,D,y,b,R,G,g,L,c ,,,,,5,19,119,2,1,0,1,0,,,,,1,6,42,6,,,,,,up,0.7172417540450624,2967.719477704641,None,001,67,2019_Oct_28_1004,ACPT_experiment_5_30_19,3.1.0,59.951588967777006,
,,,C,D,y,b,L,G,d,L,i,,,,,5,19,119,2,1,0,1,0,,,,,1,7,43,16,,,,,,up,0.800646907267037,2969.721099651793,None,001,67,2019_Oct_28_1004,ACPT_experiment_5_30_19,3.1.0,59.951588967777006,
,,,C,D,y,b,R,D,y,L,y,,,,,5,19,119,2,1,0,1,0,,,,,1,8,44,26,,,,,,down,0.5170835742005693,2971.806123129727,None,001,67,2019_Oct_28_1004,ACPT_experiment_5_30_19,3.1.0,59.951588967777006,
,,,C,D,y,b,L,D,d,R,c ,,,,,5,19,119,2,1,0,1,0,,,,,1,9,45,13,,,,,,up,0.683889654464565,2973.607579350285,None,001,67,2019_Oct_28_1004,ACPT_experiment_5_30_19,3.1.0,59.951588967777006,
,,,C,D,y,b,L,G,g,R,c ,,,,,5,19,119,2,1,0,1,0,,,,,1,10,46,19,,,,,,up,0.5004469184364098,2975.5758232370417,None,001,67,2019_Oct_28_1004,ACPT_experiment_5_30_19,3.1.0,59.951588967777006,
,,,C,D,y,b,R,G,d,R,i,,,,,5,19,119,2,1,0,1,0,,,,,1,11,47,5,,,,,,down,0.7006126450296506,2977.3605938989067,None,001,67,2019_Oct_28_1004,ACPT_experiment_5_30_19,3.1.0,59.951588967777006,
,,,C,D,y,b,L,U,d,L,u,,,,,5,19,119,2,1,0,1,0,,,,,1,12,48,20,,,,,,down,0.6836481585178262,2979.3624700205423,None,001,67,2019_Oct_28_1004,ACPT_experiment_5_30_19,3.1.0,59.951588967777006,
,,,C,D,y,b,L,U,g,L,u,,,,,5,19,119,2,1,0,1,0,,,,,1,13,49,22,,,,,,down,0.5504604271154676,2981.3304730150917,None,001,67,2019_Oct_28_1004,ACPT_experiment_5_30_19,3.1.0,59.951588967777006,
,,,C,D,y,b,L,D,y,L,y,,,,,5,19,119,2,1,0,1,0,,,,,1,14,50,32,,,,,,down,0.41699648472467743,2983.1653199745824,None,001,67,2019_Oct_28_1004,ACPT_experiment_5_30_19,3.1.0,59.951588967777006,
,,,C,D,y,b,L,D,d,L,c ,,,,,5,19,119,2,1,0,1,0,,,,,1,15,51,12,,,,,,down,0.5838028668586048,2984.8666875963154,None,001,67,2019_Oct_28_1004,ACPT_experiment_5_30_19,3.1.0,59.951588967777006,
,,,C,D,y,b,L,G,d,R,i,,,,,5,19,119,2,1,0,1,0,,,,,1,16,52,17,,,,,,up,0.7005903066547035,2986.7348462048158,None,001,67,2019_Oct_28_1004,ACPT_experiment_5_30_19,3.1.0,59.951588967777006,
,,,C,D,y,b,L,D,y,R,y,,,,,5,19,119,2,1,0,1,0,,,,,1,17,53,33,,,,,,down,0.48372090917200694,2988.7198118746574,None,001,67,2019_Oct_28_1004,ACPT_experiment_5_30_19,3.1.0,59.951588967777006,
,,,C,D,y,b,L,D,g,R,i,,,,,5,19,119,2,1,0,1,0,,,,,1,18,54,15,,,,,,up,0.5838303370228459,2990.4879057320572,None,001,67,2019_Oct_28_1004,ACPT_experiment_5_30_19,3.1.0,59.951588967777006,
,,,C,D,y,b,L,G,y,L,y,,,,,5,19,119,2,1,0,1,0,,,,,1,19,55,34,,,,,,down,0.8504986136622392,2992.389596052749,None,001,67,2019_Oct_28_1004,ACPT_experiment_5_30_19,3.1.0,59.951588967777006,
,,,C,D,y,b,R,U,d,R,u,,,,,5,19,119,2,1,0,1,0,,,,,1,20,56,9,,,,,,up,0.6338785607445061,2994.541191510814,None,001,67,2019_Oct_28_1004,ACPT_experiment_5_30_19,3.1.0,59.951588967777006,
,,,C,D,y,b,R,U,y,R,u,,,,,5,19,119,2,1,0,1,0,,,,,1,21,57,31,,,,,,down,0.5838276201934605,2996.4427073506836,None,001,67,2019_Oct_28_1004,ACPT_experiment_5_30_19,3.1.0,59.951588967777006,
,,,C,D,y,b,R,G,d,L,i,,,,,5,19,119,2,1,0,1,0,,,,,1,22,58,4,,,,,,down,0.5337869432196385,2998.3108822601603,None,001,67,2019_Oct_28_1004,ACPT_experiment_5_30_19,3.1.0,59.951588967777006,
,,,C,D,y,b,R,G,y,L,y,,,,,5,19,119,2,1,0,1,0,,,,,1,23,59,28,,,,,,down,0.583827318323074,3000.1624051185063,None,001,67,2019_Oct_28_1004,ACPT_experiment_5_30_19,3.1.0,59.951588967777006,
,,,C,D,y,b,L,U,y,L,u,,,,,5,19,119,2,1,0,1,0,,,,,1,24,60,24,,,,,,down,0.550423297114321,3002.0472800764333,None,001,67,2019_Oct_28_1004,ACPT_experiment_5_30_19,3.1.0,59.951588967777006,
,,,C,D,y,b,R,G,g,R,c ,,,,,5,19,119,2,1,0,1,0,,,,,1,25,61,7,,,,,,up,0.6839270863365527,3003.882077227385,None,001,67,2019_Oct_28_1004,ACPT_experiment_5_30_19,3.1.0,59.951588967777006,
,,,C,D,y,b,R,G,y,R,y,,,,,5,19,119,2,1,0,1,0,,,,,1,26,62,29,,,,,,down,0.5170799517609339,3005.8336609125226,None,001,67,2019_Oct_28_1004,ACPT_experiment_5_30_19,3.1.0,59.951588967777006,
,,,C,D,y,b,R,D,g,R,i,,,,,5,19,119,2,1,0,1,0,,,,,1,27,63,3,,,,,,down,0.800630908160656,3007.6351325284472,None,001,67,2019_Oct_28_1004,ACPT_experiment_5_30_19,3.1.0,59.951588967777006,
,,,C,D,y,b,L,U,y,R,u,,,,,5,19,119,2,1,0,1,0,,,,,1,28,64,25,,,,,,down,0.5337643029747596,3009.720138799795,None,001,67,2019_Oct_28_1004,ACPT_experiment_5_30_19,3.1.0,59.951588967777006,
,,,C,D,y,b,R,U,d,L,u,,,,,5,19,119,2,1,0,1,0,,,,,1,29,65,8,,,,,,up,0.767307486223217,3011.5382506939236,None,001,67,2019_Oct_28_1004,ACPT_experiment_5_30_19,3.1.0,59.951588967777006,
,,,C,D,y,b,L,U,g,R,u,,,,,5,19,119,2,1,0,1,0,,,,,1,30,66,23,,,,,,up,1.367775988359881,3013.5899362601635,None,001,67,2019_Oct_28_1004,ACPT_experiment_5_30_19,3.1.0,59.951588967777006,
,,,C,D,y,b,R,U,y,L,u,,,,,5,19,119,2,1,0,1,0,,,,,1,31,67,30,,,,,,down,0.7005601196615316,3016.258767133005,None,001,67,2019_Oct_28_1004,ACPT_experiment_5_30_19,3.1.0,59.951588967777006,
,,,C,D,y,b,R,D,d,R,c ,,,,,5,19,119,2,1,0,1,0,,,,,1,32,68,1,,,,,,down,0.733934557617431,3018.2770513948653,None,001,67,2019_Oct_28_1004,ACPT_experiment_5_30_19,3.1.0,59.951588967777006,
,,,C,D,y,b,R,D,g,L,i,,,,,5,19,119,2,1,0,1,0,,,,,1,33,69,2,,,,,,up,0.7172459802241065,3020.2953655418487,None,001,67,2019_Oct_28_1004,ACPT_experiment_5_30_19,3.1.0,59.951588967777006,
,,,C,D,y,b,L,D,g,L,i,,,,,5,19,119,2,1,0,1,0,,,,,1,34,70,14,,,,,,up,0.6672246229268239,3022.2969832628214,None,001,67,2019_Oct_28_1004,ACPT_experiment_5_30_19,3.1.0,59.951588967777006,
,,,C,D,y,b,R,U,g,L,u,,,,,5,19,119,2,1,0,1,0,,,,,1,35,71,10,,,,,,up,0.5504015624787826,3024.231947800651,None,001,67,2019_Oct_28_1004,ACPT_experiment_5_30_19,3.1.0,59.951588967777006,
,,,C,D,y,b,,,,,,,,,,5,19,119,2,2,0,2,0,0,0,0,0,,,,,,,,,,,,,,001,67,2019_Oct_28_1004,ACPT_experiment_5_30_19,3.1.0,59.951588967777006,
,,,C,D,y,b,L,U,d,R,u,,,,,5,19,119,2,2,0,2,0,,,,,0,0,0,21,,,,,,up,0.6305223708263838,3033.9097046655506,None,001,67,2019_Oct_28_1004,ACPT_experiment_5_30_19,3.1.0,59.951588967777006,
,,,C,D,y,b,R,G,d,L,i,,,,,5,19,119,2,2,0,2,0,,,,,0,1,1,4,,,,,,up,0.4837269465706413,3035.807915935261,None,001,67,2019_Oct_28_1004,ACPT_experiment_5_30_19,3.1.0,59.951588967777006,
,,,C,D,y,b,L,G,d,R,i,,,,,5,19,119,2,2,0,2,0,,,,,0,2,2,17,,,,,,up,0.48372453161118756,3037.5760149244493,None,001,67,2019_Oct_28_1004,ACPT_experiment_5_30_19,3.1.0,59.951588967777006,
,,,C,D,y,b,R,U,y,L,u,,,,,5,19,119,2,2,0,2,0,,,,,0,3,3,30,,,,,,down,0.5504894066293673,3039.3441211585164,None,001,67,2019_Oct_28_1004,ACPT_experiment_5_30_19,3.1.0,59.951588967777006,
,,,C,D,y,b,L,D,y,R,y,,,,,5,19,119,2,2,0,2,0,,,,,0,4,4,33,,,,,,down,0.6636670857628815,3041.2324718468553,None,001,67,2019_Oct_28_1004,ACPT_experiment_5_30_19,3.1.0,59.951588967777006,
,,,C,D,y,b,L,U,g,L,u,,,,,5,19,119,2,2,0,2,0,,,,,0,5,5,22,,,,,,up,0.6671998695924231,3043.197233663931,None,001,67,2019_Oct_28_1004,ACPT_experiment_5_30_19,3.1.0,59.951588967777006,
,,,C,D,y,b,R,U,d,L,u,,,,,5,19,119,2,2,0,2,0,,,,,0,6,6,8,,,,,,up,0.6338049044807121,3045.148852969721,None,001,67,2019_Oct_28_1004,ACPT_experiment_5_30_19,3.1.0,59.951588967777006,
,,,C,D,y,b,R,U,g,L,u,,,,,5,19,119,2,2,0,2,0,,,,,0,7,7,10,,,,,,down,0.6672273397557547,3047.0503286608896,None,001,67,2019_Oct_28_1004,ACPT_experiment_5_30_19,3.1.0,59.951588967777006,
,,,C,D,y,b,L,D,d,R,c ,,,,,5,19,119,2,2,0,2,0,,,,,0,8,8,13,,,,,,up,0.6838667123497544,3049.001948872289,None,001,67,2019_Oct_28_1004,ACPT_experiment_5_30_19,3.1.0,59.951588967777006,
,,,C,D,y,b,R,G,y,R,y,,,,,5,19,119,2,2,0,2,0,,,,,0,9,9,29,,,,,,down,0.45039054422613845,3050.9701891366067,None,001,67,2019_Oct_28_1004,ACPT_experiment_5_30_19,3.1.0,59.951588967777006,
,,,C,D,y,b,R,G,y,L,y,,,,,5,19,119,2,2,0,2,0,,,,,0,10,10,28,,,,,,down,0.5839607448342576,3052.688096513855,None,001,67,2019_Oct_28_1004,ACPT_experiment_5_30_19,3.1.0,59.951588967777006,
,,,C,D,y,b,R,U,d,R,u,,,,,5,19,119,2,2,0,2,0,,,,,0,11,11,9,,,,,,up,0.5835420512362361,3054.573374770013,None,001,67,2019_Oct_28_1004,ACPT_experiment_5_30_19,3.1.0,59.951588967777006,
,,,C,D,y,b,R,U,g,R,u,,,,,5,19,119,2,2,0,2,0,,,,,0,12,12,11,,,,,,up,0.5838194697053041,3056.424587607937,None,001,67,2019_Oct_28_1004,ACPT_experiment_5_30_19,3.1.0,59.951588967777006,
,,,C,D,y,b,R,D,g,L,i,,,,,5,19,119,2,2,0,2,0,,,,,0,13,13,2,,,,,,down,0.7672932983364262,3058.2927803277403,None,001,67,2019_Oct_28_1004,ACPT_experiment_5_30_19,3.1.0,59.951588967777006,
,,,C,D,y,b,R,U,y,R,u,,,,,5,19,119,2,2,0,2,0,,,,,0,14,14,31,,,,,,down,0.6672004733322865,3060.344471025769,None,001,67,2019_Oct_28_1004,ACPT_experiment_5_30_19,3.1.0,59.951588967777006,
,,,C,D,y,b,L,G,y,R,y,,,,,5,19,119,2,2,0,2,0,,,,,0,15,15,35,,,,,,down,1.1842952167198746,3062.2960227126937,None,001,67,2019_Oct_28_1004,ACPT_experiment_5_30_19,3.1.0,59.951588967777006,
,,,C,D,y,b,R,D,d,R,c ,,,,,5,19,119,2,2,0,2,0,,,,,0,16,16,1,,,,,,up,0.50041884453276,3064.76469661317,None,001,67,2019_Oct_28_1004,ACPT_experiment_5_30_19,3.1.0,59.951588967777006,
,,,C,D,y,b,L,U,y,R,u,,,,,5,19,119,2,2,0,2,0,,,,,0,17,17,25,,,,,,down,0.6004881236822257,3066.549467275035,None,001,67,2019_Oct_28_1004,ACPT_experiment_5_30_19,3.1.0,59.951588967777006,
,,,C,D,y,b,R,D,g,R,i,,,,,5,19,119,2,2,0,2,0,,,,,0,18,18,3,,,,,,up,0.550442918659428,3068.4343280450753,None,001,67,2019_Oct_28_1004,ACPT_experiment_5_30_19,3.1.0,59.951588967777006,
,,,C,D,y,b,L,D,y,L,y,,,,,5,19,119,2,2,0,2,0,,,,,0,19,19,32,,,,,,down,0.5004263912805982,3070.2691167436687,None,001,67,2019_Oct_28_1004,ACPT_experiment_5_30_19,3.1.0,59.951588967777006,
,,,C,D,y,b,L,G,d,L,i,,,,,5,19,119,2,2,0,2,0,,,,,0,20,20,16,,,,,,up,0.5838101117369661,3072.053921516836,None,001,67,2019_Oct_28_1004,ACPT_experiment_5_30_19,3.1.0,59.951588967777006,
,,,C,D,y,b,R,G,g,R,c ,,,,,5,19,119,2,2,0,2,0,,,,,0,21,21,7,,,,,,up,0.5501775749880835,3073.939045517458,None,001,67,2019_Oct_28_1004,ACPT_experiment_5_30_19,3.1.0,59.951588967777006,
,,,C,D,y,b,R,D,y,L,y,,,,,5,19,119,2,2,0,2,0,,,,,0,22,22,26,,,,,,down,0.5671191193850973,3075.7735990593733,None,001,67,2019_Oct_28_1004,ACPT_experiment_5_30_19,3.1.0,59.951588967777006,
,,,C,D,y,b,L,G,g,R,c ,,,,,5,19,119,2,2,0,2,0,,,,,0,23,23,19,,,,,,up,0.6505417810626568,3077.6251025980437,None,001,67,2019_Oct_28_1004,ACPT_experiment_5_30_19,3.1.0,59.951588967777006,
,,,C,D,y,b,L,D,g,L,i,,,,,5,19,119,2,2,0,2,0,,,,,0,24,24,14,,,,,,up,0.6505288006555929,3079.559993177739,None,001,67,2019_Oct_28_1004,ACPT_experiment_5_30_19,3.1.0,59.951588967777006,
,,,C,D,y,b,R,D,d,L,c,,,,,5,19,119,2,2,0,2,0,,,,,0,25,25,0,,,,,,up,0.5004046566459692,3081.4948907004436,None,001,67,2019_Oct_28_1004,ACPT_experiment_5_30_19,3.1.0,59.951588967777006,
,,,C,D,y,b,L,U,g,R,u,,,,,5,19,119,2,2,0,2,0,,,,,0,26,26,23,,,,,,up,0.5504459373587451,3083.279672833366,None,001,67,2019_Oct_28_1004,ACPT_experiment_5_30_19,3.1.0,59.951588967777006,
,,,C,D,y,b,R,G,g,L,c ,,,,,5,19,119,2,2,0,2,0,,,,,0,27,27,6,,,,,,up,0.7506258518392315,3085.1144856815545,None,001,67,2019_Oct_28_1004,ACPT_experiment_5_30_19,3.1.0,59.951588967777006,
,,,C,D,y,b,L,D,g,R,i,,,,,5,19,119,2,2,0,2,0,,,,,0,28,28,15,,,,,,up,0.5335031854824592,3087.1664196867496,None,001,67,2019_Oct_28_1004,ACPT_experiment_5_30_19,3.1.0,59.951588967777006,
,,,C,D,y,b,L,U,y,L,u,,,,,5,19,119,2,2,0,2,0,,,,,0,29,29,24,,,,,,down,0.7172468858343564,3088.9842891793214,None,001,67,2019_Oct_28_1004,ACPT_experiment_5_30_19,3.1.0,59.951588967777006,
,,,C,D,y,b,L,G,y,L,y,,,,,5,19,119,2,2,0,2,0,,,,,0,30,30,34,,,,,,down,0.5170808573711838,3090.985910522733,None,001,67,2019_Oct_28_1004,ACPT_experiment_5_30_19,3.1.0,59.951588967777006,
,,,C,D,y,b,L,G,g,L,c ,,,,,5,19,119,2,2,0,2,0,,,,,0,31,31,18,,,,,,up,0.6004854068528402,3092.787367648901,None,001,67,2019_Oct_28_1004,ACPT_experiment_5_30_19,3.1.0,59.951588967777006,
,,,C,D,y,b,L,U,d,L,u,,,,,5,19,119,2,2,0,2,0,,,,,0,32,32,20,,,,,,down,0.5338080741153135,3094.6722048730862,None,001,67,2019_Oct_28_1004,ACPT_experiment_5_30_19,3.1.0,59.951588967777006,
,,,C,D,y,b,R,G,d,R,i,,,,,5,19,119,2,2,0,2,0,,,,,0,33,33,5,,,,,,down,0.6004986891298358,3096.4903659720135,None,001,67,2019_Oct_28_1004,ACPT_experiment_5_30_19,3.1.0,59.951588967777006,
,,,C,D,y,b,L,D,d,L,c ,,,,,5,19,119,2,2,0,2,0,,,,,0,34,34,12,,,,,,up,0.7840214206903511,3098.375224930834,None,001,67,2019_Oct_28_1004,ACPT_experiment_5_30_19,3.1.0,59.951588967777006,
,,,C,D,y,b,R,D,y,R,y,,,,,5,19,119,2,2,0,2,0,,,,,0,35,35,27,,,,,,down,1.000581703361604,3100.4604723962584,None,001,67,2019_Oct_28_1004,ACPT_experiment_5_30_19,3.1.0,59.951588967777006,
,,,C,D,y,b,L,G,g,R,c ,,,,,5,19,119,2,2,0,2,0,,,,,1,0,36,19,,,,,,up,0.7172523194931273,3102.7454255384982,None,001,67,2019_Oct_28_1004,ACPT_experiment_5_30_19,3.1.0,59.951588967777006,
,,,C,D,y,b,R,G,d,R,i,,,,,5,19,119,2,2,0,2,0,,,,,1,1,37,5,,,,,,up,0.5838303370223912,3104.74704808939,None,001,67,2019_Oct_28_1004,ACPT_experiment_5_30_19,3.1.0,59.951588967777006,
,,,C,D,y,b,L,U,d,L,u,,,,,5,19,119,2,2,0,2,0,,,,,1,2,38,20,,,,,,up,0.5838052818185133,3106.598546496271,None,001,67,2019_Oct_28_1004,ACPT_experiment_5_30_19,3.1.0,59.951588967777006,
,,,C,D,y,b,R,U,d,R,u,,,,,5,19,119,2,2,0,2,0,,,,,1,3,39,9,,,,,,up,0.4834582823295932,3108.4669888625085,None,001,67,2019_Oct_28_1004,ACPT_experiment_5_30_19,3.1.0,59.951588967777006,
,,,C,D,y,b,L,G,d,L,i,,,,,5,19,119,2,2,0,2,0,,,,,1,4,40,16,,,,,,down,0.6004980853899724,3110.234800471521,None,001,67,2019_Oct_28_1004,ACPT_experiment_5_30_19,3.1.0,59.951588967777006,
,,,C,D,y,b,L,G,y,R,y,,,,,5,19,119,2,2,0,2,0,,,,,1,5,41,35,,,,,,down,0.5504444280095413,3112.136361290011,None,001,67,2019_Oct_28_1004,ACPT_experiment_5_30_19,3.1.0,59.951588967777006,
,,,C,D,y,b,L,D,y,L,y,,,,,5,19,119,2,2,0,2,0,,,,,1,6,42,32,,,,,,down,0.6004537105095551,3113.971191042915,None,001,67,2019_Oct_28_1004,ACPT_experiment_5_30_19,3.1.0,59.951588967777006,
,,,C,D,y,b,L,D,g,R,i,,,,,5,19,119,2,2,0,2,0,,,,,1,7,43,15,,,,,,up,0.7005628364904624,3115.872717448233,None,001,67,2019_Oct_28_1004,ACPT_experiment_5_30_19,3.1.0,59.951588967777006,
,,,C,D,y,b,R,U,y,R,u,,,,,5,19,119,2,2,0,2,0,,,,,1,8,44,31,,,,,,down,1.0675322283886999,3117.85765957222,None,001,67,2019_Oct_28_1004,ACPT_experiment_5_30_19,3.1.0,59.951588967777006,
,,,C,D,y,b,R,D,g,R,i,,,,,5,19,119,2,2,0,2,0,,,,,1,9,45,3,,,,,,down,0.8340150059543703,3120.209576521764,None,001,67,2019_Oct_28_1004,ACPT_experiment_5_30_19,3.1.0,59.951588967777006,
,,,C,D,y,b,L,U,y,R,u,,,,,5,19,119,2,2,0,2,0,,,,,1,10,46,25,,,,,,down,0.6505278950462525,3122.3279442506605,None,001,67,2019_Oct_28_1004,ACPT_experiment_5_30_19,3.1.0,59.951588967777006,
,,,C,D,y,b,L,D,y,R,y,,,,,5,19,119,2,2,0,2,0,,,,,1,11,47,33,,,,,,down,0.6838999180426981,3124.2628447920642,None,001,67,2019_Oct_28_1004,ACPT_experiment_5_30_19,3.1.0,59.951588967777006,
,,,C,D,y,b,L,G,g,L,c ,,,,,5,19,119,2,2,0,2,0,,,,,1,12,48,18,,,,,,up,0.617164626277372,3126.2311043760574,None,001,67,2019_Oct_28_1004,ACPT_experiment_5_30_19,3.1.0,59.951588967777006,
,,,C,D,y,b,L,U,g,L,u,,,,,5,19,119,2,2,0,2,0,,,,,1,13,49,22,,,,,,up,0.583836676291412,3128.132640743083,None,001,67,2019_Oct_28_1004,ACPT_experiment_5_30_19,3.1.0,59.951588967777006,
,,,C,D,y,b,R,U,d,L,u,,,,,5,19,119,2,2,0,2,0,,,,,1,14,50,8,,,,,,up,0.5003965061578128,3130.000826821747,None,001,67,2019_Oct_28_1004,ACPT_experiment_5_30_19,3.1.0,59.951588967777006,
,,,C,D,y,b,L,U,g,R,u,,,,,5,19,119,2,2,0,2,0,,,,,1,15,51,23,,,,,,up,0.48371607925309945,3131.7855998985715,None,001,67,2019_Oct_28_1004,ACPT_experiment_5_30_19,3.1.0,59.951588967777006,
,,,C,D,y,b,L,G,d,R,i,,,,,5,19,119,2,2,0,2,0,,,,,1,16,52,17,,,,,,up,0.6001032395174661,3133.570638922807,None,001,67,2019_Oct_28_1004,ACPT_experiment_5_30_19,3.1.0,59.951588967777006,
,,,C,D,y,b,L,G,y,L,y,,,,,5,19,119,2,2,0,2,0,,,,,1,17,53,34,,,,,,down,0.700564345840121,3135.4552316323466,None,001,67,2019_Oct_28_1004,ACPT_experiment_5_30_19,3.1.0,59.951588967777006,
,,,C,D,y,b,R,D,d,L,c,,,,,5,19,119,2,2,0,2,0,,,,,1,18,54,0,,,,,,up,0.6172032656290867,3137.4401773787727,None,001,67,2019_Oct_28_1004,ACPT_experiment_5_30_19,3.1.0,59.951588967777006,
,,,C,D,y,b,R,D,d,R,c ,,,,,5,19,119,2,2,0,2,0,,,,,1,19,55,1,,,,,,down,0.6338399213932462,3139.3417119345786,None,001,67,2019_Oct_28_1004,ACPT_experiment_5_30_19,3.1.0,59.951588967777006,
,,,C,D,y,b,R,U,g,R,u,,,,,5,19,119,2,2,0,2,0,,,,,1,20,56,11,,,,,,down,0.4169943716351554,3141.259937180867,None,001,67,2019_Oct_28_1004,ACPT_experiment_5_30_19,3.1.0,59.951588967777006,
,,,C,D,y,b,R,G,g,R,c ,,,,,5,19,119,2,2,0,2,0,,,,,1,21,57,7,,,,,,up,1.351098278284553,3142.9613087269086,None,001,67,2019_Oct_28_1004,ACPT_experiment_5_30_19,3.1.0,59.951588967777006,
,,,C,D,y,b,R,G,d,L,i,,,,,5,19,119,2,2,0,2,0,,,,,1,22,58,4,,,,,,up,0.8840520604890116,3145.580090168549,None,001,67,2019_Oct_28_1004,ACPT_experiment_5_30_19,3.1.0,59.951588967777006,
,,,C,D,y,b,R,G,y,R,y,,,,,5,19,119,2,2,0,2,0,,,,,1,23,59,29,,,,,,down,0.6004817844132049,3147.7485187997045,None,001,67,2019_Oct_28_1004,ACPT_experiment_5_30_19,3.1.0,59.951588967777006,
,,,C,D,y,b,R,G,g,L,c ,,,,,5,19,119,2,2,0,2,0,,,,,1,24,60,6,,,,,,up,2.218487118455414,3149.6333753435656,None,001,67,2019_Oct_28_1004,ACPT_experiment_5_30_19,3.1.0,59.951588967777006,
,,,C,D,y,b,L,U,y,L,u,,,,,5,19,119,2,2,0,2,0,,,,,1,25,61,24,,,,,,down,1.050808332213819,3153.1529143278035,None,001,67,2019_Oct_28_1004,ACPT_experiment_5_30_19,3.1.0,59.951588967777006,
,,,C,D,y,b,L,D,d,R,c ,,,,,5,19,119,2,2,0,2,0,,,,,1,26,62,13,,,,,,up,0.6004860105927037,3155.504792637996,None,001,67,2019_Oct_28_1004,ACPT_experiment_5_30_19,3.1.0,59.951588967777006,
,,,C,D,y,b,R,D,y,L,y,,,,,5,19,119,2,2,0,2,0,,,,,1,27,63,26,,,,,,down,0.7339421043657239,3157.389656426735,None,001,67,2019_Oct_28_1004,ACPT_experiment_5_30_19,3.1.0,59.951588967777006,
,,,C,D,y,b,R,G,y,L,y,,,,,5,19,119,2,2,0,2,0,,,,,1,28,64,28,,,,,,down,0.650464502360137,3159.407928010058,None,001,67,2019_Oct_28_1004,ACPT_experiment_5_30_19,3.1.0,59.951588967777006,
,,,C,D,y,b,R,D,y,R,y,,,,,5,19,119,2,2,0,2,0,,,,,1,29,65,27,,,,,,down,0.7005960421834061,3161.342846663658,None,001,67,2019_Oct_28_1004,ACPT_experiment_5_30_19,3.1.0,59.951588967777006,
,,,C,D,y,b,L,U,d,R,u,,,,,5,19,119,2,2,0,2,0,,,,,1,30,66,21,,,,,,up,0.7172462820944929,3163.327794825044,None,001,67,2019_Oct_28_1004,ACPT_experiment_5_30_19,3.1.0,59.951588967777006,
,,,C,D,y,b,L,D,d,L,c ,,,,,5,19,119,2,2,0,2,0,,,,,1,31,67,12,,,,,,up,0.6004869162024988,3165.329407716097,None,001,67,2019_Oct_28_1004,ACPT_experiment_5_30_19,3.1.0,59.951588967777006,
,,,C,D,y,b,R,U,g,L,u,,,,,5,19,119,2,2,0,2,0,,,,,1,32,68,10,,,,,,up,0.9507719568869106,3167.2142684861374,None,001,67,2019_Oct_28_1004,ACPT_experiment_5_30_19,3.1.0,59.951588967777006,
,,,C,D,y,b,R,D,g,L,i,,,,,5,19,119,2,2,0,2,0,,,,,1,33,69,2,,,,,,up,0.4336802321986397,3169.432730549388,None,001,67,2019_Oct_28_1004,ACPT_experiment_5_30_19,3.1.0,59.951588967777006,
,,,C,D,y,b,L,D,g,L,i,,,,,5,19,119,2,2,0,2,0,,,,,1,34,70,14,,,,,,up,0.5837995462893559,3171.150787955993,None,001,67,2019_Oct_28_1004,ACPT_experiment_5_30_19,3.1.0,59.951588967777006,
,,,C,D,y,b,R,U,y,L,u,,,,,5,19,119,2,2,0,2,0,,,,,1,35,71,30,,,,,,up,0.45036035723296663,3173.0189695066088,None,001,67,2019_Oct_28_1004,ACPT_experiment_5_30_19,3.1.0,59.951588967777006,
,,,C,D,y,b,,,,,,,,,,5,19,119,2,3,0,3,0,0,0,0,0,,,,,,,,,,,,,,001,67,2019_Oct_28_1004,ACPT_experiment_5_30_19,3.1.0,59.951588967777006,
,,,C,D,y,b,L,D,g,L,i,,,,,5,19,119,2,3,0,3,0,,,,,0,0,0,14,,,,,,up,0.7670252378356963,3211.3669398086445,None,001,67,2019_Oct_28_1004,ACPT_experiment_5_30_19,3.1.0,59.951588967777006,
,,,C,D,y,b,R,D,d,R,c ,,,,,5,19,119,2,3,0,3,0,,,,,0,1,1,1,,,,,,up,0.5170811592411155,3213.4183352778787,None,001,67,2019_Oct_28_1004,ACPT_experiment_5_30_19,3.1.0,59.951588967777006,
,,,C,D,y,b,R,D,y,R,y,,,,,5,19,119,2,3,0,3,0,,,,,0,2,2,27,,,,,,down,0.5337890563091605,3215.2030890350275,None,001,67,2019_Oct_28_1004,ACPT_experiment_5_30_19,3.1.0,59.951588967777006,
,,,C,D,y,b,R,U,g,L,u,,,,,5,19,119,2,3,0,3,0,,,,,0,3,3,10,,,,,,up,0.5337636992348962,3217.021252548914,None,001,67,2019_Oct_28_1004,ACPT_experiment_5_30_19,3.1.0,59.951588967777006,
,,,C,D,y,b,L,G,d,R,i,,,,,5,19,119,2,3,0,3,0,,,,,0,4,4,17,,,,,,up,0.48374747372599813,3218.839363235563,None,001,67,2019_Oct_28_1004,ACPT_experiment_5_30_19,3.1.0,59.951588967777006,
,,,C,D,y,b,L,G,g,R,c ,,,,,5,19,119,2,3,0,3,0,,,,,0,5,5,19,,,,,,up,0.46695143063698197,3220.5907827034566,None,001,67,2019_Oct_28_1004,ACPT_experiment_5_30_19,3.1.0,59.951588967777006,
,,,C,D,y,b,L,D,d,L,c ,,,,,5,19,119,2,3,0,3,0,,,,,0,6,6,12,,,,,,up,0.6171724748955967,3222.3422239059855,None,001,67,2019_Oct_28_1004,ACPT_experiment_5_30_19,3.1.0,59.951588967777006,
,,,C,D,y,b,L,G,g,L,c ,,,,,5,19,119,2,3,0,3,0,,,,,0,7,7,18,,,,,,up,0.600220063181041,3224.2607093641564,None,001,67,2019_Oct_28_1004,ACPT_experiment_5_30_19,3.1.0,59.951588967777006,
,,,C,D,y,b,L,D,y,L,y,,,,,5,19,119,2,3,0,3,0,,,,,0,8,8,32,,,,,,down,0.5170878003796133,3226.1453005643457,None,001,67,2019_Oct_28_1004,ACPT_experiment_5_30_19,3.1.0,59.951588967777006,
,,,C,D,y,b,L,U,d,L,u,,,,,5,19,119,2,3,0,3,0,,,,,0,9,9,20,,,,,,up,0.600515593846012,3227.946761916693,None,001,67,2019_Oct_28_1004,ACPT_experiment_5_30_19,3.1.0,59.951588967777006,
,,,C,D,y,b,L,D,g,R,i,,,,,5,19,119,2,3,0,3,0,,,,,0,10,10,15,,,,,,up,0.733927010869138,3229.8316187624237,None,001,67,2019_Oct_28_1004,ACPT_experiment_5_30_19,3.1.0,59.951588967777006,
,,,C,D,y,b,R,D,g,L,i,,,,,5,19,119,2,3,0,3,0,,,,,0,11,11,2,,,,,,up,0.5504392962207021,3231.8499214383496,None,001,67,2019_Oct_28_1004,ACPT_experiment_5_30_19,3.1.0,59.951588967777006,
,,,C,D,y,b,R,G,g,L,c ,,,,,5,19,119,2,3,0,3,0,,,,,0,12,12,6,,,,,,up,0.6672068126003978,3233.684734588408,None,001,67,2019_Oct_28_1004,ACPT_experiment_5_30_19,3.1.0,59.951588967777006,
,,,C,D,y,b,L,D,d,R,c ,,,,,5,19,119,2,3,0,3,0,,,,,0,13,13,13,,,,,,up,0.5170820648509107,3235.6363176698055,None,001,67,2019_Oct_28_1004,ACPT_experiment_5_30_19,3.1.0,59.951588967777006,
,,,C,D,y,b,L,G,y,L,y,,,,,5,19,119,2,3,0,3,0,,,,,0,14,14,34,,,,,,down,0.6170399539951177,3237.471269076293,None,001,67,2019_Oct_28_1004,ACPT_experiment_5_30_19,3.1.0,59.951588967777006,
,,,C,D,y,b,L,U,g,L,u,,,,,5,19,119,2,3,0,3,0,,,,,0,15,15,22,,,,,,up,0.7339167472910049,3239.38936451851,None,001,67,2019_Oct_28_1004,ACPT_experiment_5_30_19,3.1.0,59.951588967777006,
,,,C,D,y,b,R,D,y,L,y,,,,,5,19,119,2,3,0,3,0,,,,,0,16,16,26,,,,,,down,0.6337578127713641,3241.4076430448413,None,001,67,2019_Oct_28_1004,ACPT_experiment_5_30_19,3.1.0,59.951588967777006,
,,,C,D,y,b,L,D,y,R,y,,,,,5,19,119,2,3,0,3,0,,,,,0,17,17,33,,,,,,down,0.5671656073545819,3243.3258906295046,None,001,67,2019_Oct_28_1004,ACPT_experiment_5_30_19,3.1.0,59.951588967777006,
,,,C,D,y,b,R,G,d,R,i,,,,,5,19,119,2,3,0,3,0,,,,,0,18,18,5,,,,,,up,0.6338362989540656,3245.1773769615884,None,001,67,2019_Oct_28_1004,ACPT_experiment_5_30_19,3.1.0,59.951588967777006,
,,,C,D,y,b,R,G,y,L,y,,,,,5,19,119,2,3,0,3,0,,,,,0,19,19,28,,,,,,down,1.0008265198775916,3247.078904876256,None,001,67,2019_Oct_28_1004,ACPT_experiment_5_30_19,3.1.0,59.951588967777006,
,,,C,D,y,b,R,U,d,L,u,,,,,5,19,119,2,3,0,3,0,,,,,0,20,20,8,,,,,,up,0.6672373014639561,3249.3640928733034,None,001,67,2019_Oct_28_1004,ACPT_experiment_5_30_19,3.1.0,59.951588967777006,
,,,C,D,y,b,R,U,g,R,u,,,,,5,19,119,2,3,0,3,0,,,,,0,21,21,11,,,,,,down,0.9841494135421271,3251.2989743969015,None,001,67,2019_Oct_28_1004,ACPT_experiment_5_30_19,3.1.0,59.951588967777006,
,,,C,D,y,b,R,G,y,R,y,,,,,5,19,119,2,3,0,3,0,,,,,0,22,22,29,,,,,,down,0.6005008022193579,3253.567494343712,None,001,67,2019_Oct_28_1004,ACPT_experiment_5_30_19,3.1.0,59.951588967777006,
,,,C,D,y,b,R,U,y,R,u,,,,,5,19,119,2,3,0,3,0,,,,,0,23,23,31,,,,,,down,0.45036247032248866,3255.435672573758,None,001,67,2019_Oct_28_1004,ACPT_experiment_5_30_19,3.1.0,59.951588967777006,
,,,C,D,y,b,L,U,g,R,u,,,,,5,19,119,2,3,0,3,0,,,,,0,24,24,23,,,,,,up,0.733923086559571,3257.170414633447,None,001,67,2019_Oct_28_1004,ACPT_experiment_5_30_19,3.1.0,59.951588967777006,
,,,C,D,y,b,R,G,d,L,i,,,,,5,19,119,2,3,0,3,0,,,,,0,25,25,4,,,,,,up,0.5504429186598827,3259.1887148944134,None,001,67,2019_Oct_28_1004,ACPT_experiment_5_30_19,3.1.0,59.951588967777006,
,,,C,D,y,b,R,U,y,L,u,,,,,5,19,119,2,3,0,3,0,,,,,0,26,26,30,,,,,,down,0.6004854068528402,3261.0235349874797,None,001,67,2019_Oct_28_1004,ACPT_experiment_5_30_19,3.1.0,59.951588967777006,
,,,C,D,y,b,R,D,d,L,c,,,,,5,19,119,2,3,0,3,0,,,,,0,27,27,0,,,,,,down,0.8840254959345657,3262.908417492155,None,001,67,2019_Oct_28_1004,ACPT_experiment_5_30_19,3.1.0,59.951588967777006,
,,,C,D,y,b,L,G,d,L,i,,,,,5,19,119,2,3,0,3,0,,,,,0,28,28,16,,,,,,up,0.5838064892977854,3265.076809597049,None,001,67,2019_Oct_28_1004,ACPT_experiment_5_30_19,3.1.0,59.951588967777006,
,,,C,D,y,b,R,U,d,R,u,,,,,5,19,119,2,3,0,3,0,,,,,0,29,29,9,,,,,,up,0.5004076753448317,3266.9283074001905,None,001,67,2019_Oct_28_1004,ACPT_experiment_5_30_19,3.1.0,59.951588967777006,
,,,C,D,y,b,L,G,y,R,y,,,,,5,19,119,2,3,0,3,0,,,,,0,30,30,35,,,,,,down,0.6669284885224442,3268.7300443597865,None,001,67,2019_Oct_28_1004,ACPT_experiment_5_30_19,3.1.0,59.951588967777006,
,,,C,D,y,b,R,D,g,R,i,,,,,5,19,119,2,3,0,3,0,,,,,0,31,31,3,,,,,,up,0.867366803664936,3270.6813460984067,None,001,67,2019_Oct_28_1004,ACPT_experiment_5_30_19,3.1.0,59.951588967777006,
,,,C,D,y,b,R,G,g,R,c ,,,,,5,19,119,2,3,0,3,0,,,,,0,32,32,7,,,,,,up,0.5504513710175161,3272.8164078383547,None,001,67,2019_Oct_28_1004,ACPT_experiment_5_30_19,3.1.0,59.951588967777006,
,,,C,D,y,b,L,U,d,R,u,,,,,5,19,119,2,3,0,3,0,,,,,0,33,33,21,,,,,,up,0.4503582441434446,3274.6512306482505,None,001,67,2019_Oct_28_1004,ACPT_experiment_5_30_19,3.1.0,59.951588967777006,
,,,C,D,y,b,L,U,y,L,u,,,,,5,19,119,2,3,0,3,0,,,,,0,34,34,24,,,,,,down,0.5504356737815215,3276.4026437768757,None,001,67,2019_Oct_28_1004,ACPT_experiment_5_30_19,3.1.0,59.951588967777006,
,,,C,D,y,b,L,U,y,R,u,,,,,5,19,119,2,3,0,3,0,,,,,0,35,35,25,,,,,,down,0.40032058586939456,3278.254143089367,None,001,67,2019_Oct_28_1004,ACPT_experiment_5_30_19,3.1.0,59.951588967777006,
,,,C,D,y,b,R,D,d,R,c ,,,,,5,19,119,2,3,0,3,0,,,,,1,0,36,1,,,,,,up,0.633862561638125,3279.9388390384233,None,001,67,2019_Oct_28_1004,ACPT_experiment_5_30_19,3.1.0,59.951588967777006,
,,,C,D,y,b,R,D,d,L,c,,,,,5,19,119,2,3,0,3,0,,,,,1,1,37,0,,,,,,up,0.8337415117948694,3281.8573275152935,None,001,67,2019_Oct_28_1004,ACPT_experiment_5_30_19,3.1.0,59.951588967777006,
,,,C,D,y,b,R,G,g,L,c ,,,,,5,19,119,2,3,0,3,0,,,,,1,2,38,6,,,,,,up,0.6338411288725183,3283.9754416734463,None,001,67,2019_Oct_28_1004,ACPT_experiment_5_30_19,3.1.0,59.951588967777006,
,,,C,D,y,b,R,D,y,L,y,,,,,5,19,119,2,3,0,3,0,,,,,1,3,39,26,,,,,,down,0.5838107154772842,3285.893658467376,None,001,67,2019_Oct_28_1004,ACPT_experiment_5_30_19,3.1.0,59.951588967777006,
,,,C,D,y,b,R,G,g,R,c ,,,,,5,19,119,2,3,0,3,0,,,,,1,4,40,7,,,,,,down,0.9674267248469732,3287.7618533002683,None,001,67,2019_Oct_28_1004,ACPT_experiment_5_30_19,3.1.0,59.951588967777006,
,,,C,D,y,b,R,G,y,L,y,,,,,5,19,119,2,3,0,3,0,,,,,1,5,41,28,,,,,,down,0.5170868947693634,3290.013658105132,None,001,67,2019_Oct_28_1004,ACPT_experiment_5_30_19,3.1.0,59.951588967777006,
,,,C,D,y,b,L,D,d,L,c ,,,,,5,19,119,2,3,0,3,0,,,,,1,6,42,12,,,,,,up,0.6171697580662112,3291.8151143256905,None,001,67,2019_Oct_28_1004,ACPT_experiment_5_30_19,3.1.0,59.951588967777006,
,,,C,D,y,b,L,U,g,L,u,,,,,5,19,119,2,3,0,3,0,,,,,1,7,43,22,,,,,,down,0.6171600982283962,3293.716659446944,None,001,67,2019_Oct_28_1004,ACPT_experiment_5_30_19,3.1.0,59.951588967777006,
,,,C,D,y,b,L,D,g,L,i,,,,,5,19,119,2,3,0,3,0,,,,,1,8,44,14,,,,,,up,0.6671772293475442,3295.6182190579543,None,001,67,2019_Oct_28_1004,ACPT_experiment_5_30_19,3.1.0,59.951588967777006,
,,,C,D,y,b,R,U,y,R,u,,,,,5,19,119,2,3,0,3,0,,,,,1,9,45,31,,,,,,down,0.6004863124626354,3297.569775272928,None,001,67,2019_Oct_28_1004,ACPT_experiment_5_30_19,3.1.0,59.951588967777006,
,,,C,D,y,b,R,D,g,L,i,,,,,5,19,119,2,3,0,3,0,,,,,1,10,46,2,,,,,,up,1.217708897767352,3299.454636646708,None,001,67,2019_Oct_28_1004,ACPT_experiment_5_30_19,3.1.0,59.951588967777006,
,,,C,D,y,b,L,D,y,R,y,,,,,5,19,119,2,3,0,3,0,,,,,1,11,47,33,,,,,,down,0.6838818058463403,3301.9566620430255,None,001,67,2019_Oct_28_1004,ACPT_experiment_5_30_19,3.1.0,59.951588967777006,
,,,C,D,y,b,L,G,g,R,c ,,,,,5,19,119,2,3,0,3,0,,,,,1,12,48,19,,,,,,up,0.7005601196610769,3303.924924645718,None,001,67,2019_Oct_28_1004,ACPT_experiment_5_30_19,3.1.0,59.951588967777006,
,,,C,D,y,b,R,U,d,R,u,,,,,5,19,119,2,3,0,3,0,,,,,1,13,49,9,,,,,,up,0.8340216470928681,3305.9098604304363,None,001,67,2019_Oct_28_1004,ACPT_experiment_5_30_19,3.1.0,59.951588967777006,
,,,C,D,y,b,R,U,g,L,u,,,,,5,19,119,2,3,0,3,0,,,,,1,14,50,10,,,,,,down,1.0842434460264485,3308.01154048755,None,001,67,2019_Oct_28_1004,ACPT_experiment_5_30_19,3.1.0,59.951588967777006,
,,,C,D,y,b,R,G,d,R,i,,,,,5,19,119,2,3,0,3,0,,,,,1,15,51,5,,,,,,up,0.6004848031125221,3310.380144807007,None,001,67,2019_Oct_28_1004,ACPT_experiment_5_30_19,3.1.0,59.951588967777006,
,,,C,D,y,b,L,G,d,R,i,,,,,5,19,119,2,3,0,3,0,,,,,1,16,52,17,,,,,,up,0.6004965760403138,3312.2649992377783,None,001,67,2019_Oct_28_1004,ACPT_experiment_5_30_19,3.1.0,59.951588967777006,
,,,C,D,y,b,L,D,d,R,c ,,,,,5,19,119,2,3,0,3,0,,,,,1,17,53,13,,,,,,up,0.6338498831009929,3314.1498606115583,None,001,67,2019_Oct_28_1004,ACPT_experiment_5_30_19,3.1.0,59.951588967777006,
,,,C,D,y,b,L,U,g,R,u,,,,,5,19,119,2,3,0,3,0,,,,,1,18,54,23,,,,,,up,0.6504968024428308,3316.068102158823,None,001,67,2019_Oct_28_1004,ACPT_experiment_5_30_19,3.1.0,59.951588967777006,
,,,C,D,y,b,L,D,g,R,i,,,,,5,19,119,2,3,0,3,0,,,,,1,19,55,15,,,,,,down,0.8006456997873101,3318.00298519177,None,001,67,2019_Oct_28_1004,ACPT_experiment_5_30_19,3.1.0,59.951588967777006,
,,,C,D,y,b,L,U,d,R,u,,,,,5,19,119,2,3,0,3,0,,,,,1,20,56,21,,,,,,up,0.6333837959236917,3320.1051120163856,None,001,67,2019_Oct_28_1004,ACPT_experiment_5_30_19,3.1.0,59.951588967777006,
,,,C,D,y,b,R,U,g,R,u,,,,,5,19,119,2,3,0,3,0,,,,,1,21,57,11,,,,,,up,0.7005555916125559,3322.022905286799,None,001,67,2019_Oct_28_1004,ACPT_experiment_5_30_19,3.1.0,59.951588967777006,
,,,C,D,y,b,L,U,d,L,u,,,,,5,19,119,2,3,0,3,0,,,,,1,22,58,20,,,,,,up,0.6004926517312015,3324.0078268836305,None,001,67,2019_Oct_28_1004,ACPT_experiment_5_30_19,3.1.0,59.951588967777006,
,,,C,D,y,b,L,U,y,L,u,,,,,5,19,119,2,3,0,3,0,,,,,1,23,59,24,,,,,,up,0.5171001770468138,3325.8759999818876,None,001,67,2019_Oct_28_1004,ACPT_experiment_5_30_19,3.1.0,59.951588967777006,
,,,C,D,y,b,L,D,y,L,y,,,,,5,19,119,2,3,0,3,0,,,,,1,24,60,32,,,,,,down,0.6169774669187973,3327.6943132232614,None,001,67,2019_Oct_28_1004,ACPT_experiment_5_30_19,3.1.0,59.951588967777006,
,,,C,D,y,b,R,D,y,R,y,,,,,5,19,119,2,3,0,3,0,,,,,1,25,61,27,,,,,,down,0.43368325089750215,3329.612373044826,None,001,67,2019_Oct_28_1004,ACPT_experiment_5_30_19,3.1.0,59.951588967777006,
,,,C,D,y,b,R,G,d,L,i,,,,,5,19,119,2,3,0,3,0,,,,,1,26,62,4,,,,,,down,0.5671366278411369,3331.330415056065,None,001,67,2019_Oct_28_1004,ACPT_experiment_5_30_19,3.1.0,59.951588967777006,
,,,C,D,y,b,L,G,g,L,c ,,,,,5,19,119,2,3,0,3,0,,,,,1,27,63,18,,,,,,down,0.517064858264348,3333.1986261899333,None,001,67,2019_Oct_28_1004,ACPT_experiment_5_30_19,3.1.0,59.951588967777006,
,,,C,D,y,b,R,G,y,R,y,,,,,5,19,119,2,3,0,3,0,,,,,1,28,64,29,,,,,,down,0.633938632860918,3335.0000697319547,None,001,67,2019_Oct_28_1004,ACPT_experiment_5_30_19,3.1.0,59.951588967777006,
,,,C,D,y,b,L,G,y,R,y,,,,,5,19,119,2,3,0,3,0,,,,,1,29,65,35,,,,,,down,0.5004254856712578,3336.918284412795,None,001,67,2019_Oct_28_1004,ACPT_experiment_5_30_19,3.1.0,59.951588967777006,
,,,C,D,y,b,R,D,g,R,i,,,,,5,19,119,2,3,0,3,0,,,,,1,30,66,3,,,,,,up,0.6172150385564237,3338.7030665457173,None,001,67,2019_Oct_28_1004,ACPT_experiment_5_30_19,3.1.0,59.951588967777006,
,,,C,D,y,b,R,U,d,L,u,,,,,5,19,119,2,3,0,3,0,,,,,1,31,67,8,,,,,,up,0.5671248549137999,3340.6046044220925,None,001,67,2019_Oct_28_1004,ACPT_experiment_5_30_19,3.1.0,59.951588967777006,
,,,C,D,y,b,R,U,y,L,u,,,,,5,19,119,2,3,0,3,0,,,,,1,32,68,30,,,,,,down,0.6005128770166266,3342.4394030823937,None,001,67,2019_Oct_28_1004,ACPT_experiment_5_30_19,3.1.0,59.951588967777006,
,,,C,D,y,b,L,U,y,R,u,,,,,5,19,119,2,3,0,3,0,,,,,1,33,69,25,,,,,,down,1.9848002451185494,3344.341049631945,None,001,67,2019_Oct_28_1004,ACPT_experiment_5_30_19,3.1.0,59.951588967777006,
,,,C,D,y,b,L,G,d,L,i,,,,,5,19,119,2,3,0,3,0,,,,,1,34,70,16,,,,,,up,1.0008123319903461,3347.6269548719542,None,001,67,2019_Oct_28_1004,ACPT_experiment_5_30_19,3.1.0,59.951588967777006,
,,,C,D,y,b,L,G,y,L,y,,,,,5,19,119,2,3,0,3,0,,,,,1,35,71,34,,,,,,down,0.5170841779404327,3349.912137435343,None,001,67,2019_Oct_28_1004,ACPT_experiment_5_30_19,3.1.0,59.951588967777006,
,,,C,D,y,b,,,,,,,,,,5,19,119,2,4,0,4,0,0,0,0,0,,,,,,,,,,,,,,001,67,2019_Oct_28_1004,ACPT_experiment_5_30_19,3.1.0,59.951588967777006,
,,,C,D,y,b,L,D,g,L,i,,,,,5,19,119,2,4,0,4,0,,,,,0,0,0,14,,,,,,up,1.250764561073538,3353.848908060984,None,001,67,2019_Oct_28_1004,ACPT_experiment_5_30_19,3.1.0,59.951588967777006,
,,,C,D,y,b,R,G,y,L,y,,,,,5,19,119,2,4,0,4,0,,,,,0,1,1,28,,,,,,down,0.6171682487165526,3356.384041947846,None,001,67,2019_Oct_28_1004,ACPT_experiment_5_30_19,3.1.0,59.951588967777006,
,,,C,D,y,b,R,G,d,L,i,,,,,5,19,119,2,4,0,4,0,,,,,0,2,2,4,,,,,,down,0.8173321640902032,3358.285580126091,None,001,67,2019_Oct_28_1004,ACPT_experiment_5_30_19,3.1.0,59.951588967777006,
,,,C,D,y,b,L,U,g,L,u,,,,,5,19,119,2,4,0,4,0,,,,,0,3,3,22,,,,,,up,0.533793886228068,3360.387255655156,None,001,67,2019_Oct_28_1004,ACPT_experiment_5_30_19,3.1.0,59.951588967777006,
,,,C,D,y,b,L,G,y,R,y,,,,,5,19,119,2,4,0,4,0,,,,,0,4,4,35,,,,,,down,0.6334170016166354,3362.222501988568,None,001,67,2019_Oct_28_1004,ACPT_experiment_5_30_19,3.1.0,59.951588967777006,
,,,C,D,y,b,L,U,y,L,u,,,,,5,19,119,2,4,0,4,0,,,,,0,5,5,24,,,,,,down,0.5004064678651048,3364.1403188048366,None,001,67,2019_Oct_28_1004,ACPT_experiment_5_30_19,3.1.0,59.951588967777006,
,,,C,D,y,b,L,D,y,R,y,,,,,5,19,119,2,4,0,4,0,,,,,0,6,6,33,,,,,,down,0.45038209186805034,3365.9250976171897,None,001,67,2019_Oct_28_1004,ACPT_experiment_5_30_19,3.1.0,59.951588967777006,
,,,C,D,y,b,R,D,g,L,i,,,,,5,19,119,2,4,0,4,0,,,,,0,7,7,2,,,,,,up,0.6672279434956181,3367.6598387712684,None,001,67,2019_Oct_28_1004,ACPT_experiment_5_30_19,3.1.0,59.951588967777006,
,,,C,D,y,b,L,D,g,R,i,,,,,5,19,119,2,4,0,4,0,,,,,0,8,8,15,,,,,,up,0.5838067911677172,3369.6114115890887,None,001,67,2019_Oct_28_1004,ACPT_experiment_5_30_19,3.1.0,59.951588967777006,
,,,C,D,y,b,R,D,y,R,y,,,,,5,19,119,2,4,0,4,0,,,,,0,9,9,27,,,,,,down,0.6004796713241376,3371.4795958565333,None,001,67,2019_Oct_28_1004,ACPT_experiment_5_30_19,3.1.0,59.951588967777006,
,,,C,D,y,b,R,D,g,R,i,,,,,5,19,119,2,4,0,4,0,,,,,0,10,10,3,,,,,,up,0.5004206557518955,3373.3644557209636,None,001,67,2019_Oct_28_1004,ACPT_experiment_5_30_19,3.1.0,59.951588967777006,
,,,C,D,y,b,R,G,d,R,i,,,,,5,19,119,2,4,0,4,0,,,,,0,11,11,5,,,,,,up,0.39700726148112153,3375.169218926641,None,001,67,2019_Oct_28_1004,ACPT_experiment_5_30_19,3.1.0,59.951588967777006,
,,,C,D,y,b,R,U,y,L,u,,,,,5,19,119,2,4,0,4,0,,,,,0,12,12,30,,,,,,down,0.7171264397311461,3376.850607286838,None,001,67,2019_Oct_28_1004,ACPT_experiment_5_30_19,3.1.0,59.951588967777006,
,,,C,D,y,b,L,G,y,L,y,,,,,5,19,119,2,4,0,4,0,,,,,0,13,13,34,,,,,,down,0.3836434795339301,3378.852224102201,None,001,67,2019_Oct_28_1004,ACPT_experiment_5_30_19,3.1.0,59.951588967777006,
,,,C,D,y,b,L,D,d,L,c ,,,,,5,19,119,2,4,0,4,0,,,,,0,14,14,12,,,,,,up,0.5004043547755828,3380.5202423411824,None,001,67,2019_Oct_28_1004,ACPT_experiment_5_30_19,3.1.0,59.951588967777006,
,,,C,D,y,b,R,U,g,L,u,,,,,5,19,119,2,4,0,4,0,,,,,0,15,15,10,,,,,,up,0.4666220905401133,3382.3220943132233,None,001,67,2019_Oct_28_1004,ACPT_experiment_5_30_19,3.1.0,59.951588967777006,
,,,C,D,y,b,R,G,g,R,c ,,,,,5,19,119,2,4,0,4,0,,,,,0,16,16,7,,,,,,down,0.5337407571196309,3384.0731367455705,None,001,67,2019_Oct_28_1004,ACPT_experiment_5_30_19,3.1.0,59.951588967777006,
,,,C,D,y,b,L,D,d,R,c ,,,,,5,19,119,2,4,0,4,0,,,,,0,17,17,13,,,,,,up,1.000805690852303,3385.8912540733572,None,001,67,2019_Oct_28_1004,ACPT_experiment_5_30_19,3.1.0,59.951588967777006,
,,,C,D,y,b,R,U,d,L,u,,,,,5,19,119,2,4,0,4,0,,,,,0,18,18,8,,,,,,up,0.7339593109513771,3388.176436033006,None,001,67,2019_Oct_28_1004,ACPT_experiment_5_30_19,3.1.0,59.951588967777006,
,,,C,D,y,b,L,G,d,R,i,,,,,5,19,119,2,4,0,4,0,,,,,0,19,19,17,,,,,,up,1.0508527070942364,3390.178061602597,None,001,67,2019_Oct_28_1004,ACPT_experiment_5_30_19,3.1.0,59.951588967777006,
,,,C,D,y,b,R,D,y,L,y,,,,,5,19,119,2,4,0,4,0,,,,,0,20,20,26,,,,,,down,0.9507725606267741,3392.513279711171,None,001,67,2019_Oct_28_1004,ACPT_experiment_5_30_19,3.1.0,59.951588967777006,
,,,C,D,y,b,L,G,g,R,c ,,,,,5,19,119,2,4,0,4,0,,,,,0,21,21,19,,,,,,up,0.5971687618957731,3394.7684234993667,None,001,67,2019_Oct_28_1004,ACPT_experiment_5_30_19,3.1.0,59.951588967777006,
,,,C,D,y,b,L,U,y,R,u,,,,,5,19,119,2,4,0,4,0,,,,,0,22,22,25,,,,,,down,0.5504498616678575,3396.6499633982703,None,001,67,2019_Oct_28_1004,ACPT_experiment_5_30_19,3.1.0,59.951588967777006,
,,,C,D,y,b,R,D,d,L,c,,,,,5,19,119,2,4,0,4,0,,,,,0,23,23,0,,,,,,up,0.6338402232631779,3398.484783793207,None,001,67,2019_Oct_28_1004,ACPT_experiment_5_30_19,3.1.0,59.951588967777006,
,,,C,D,y,b,L,G,d,L,i,,,,,5,19,119,2,4,0,4,0,,,,,0,24,24,16,,,,,,up,0.5838276201934605,3400.402973116973,None,001,67,2019_Oct_28_1004,ACPT_experiment_5_30_19,3.1.0,59.951588967777006,
,,,C,D,y,b,R,G,g,L,c ,,,,,5,19,119,2,4,0,4,0,,,,,0,25,25,6,,,,,,up,0.7339264071288198,3402.271178515313,None,001,67,2019_Oct_28_1004,ACPT_experiment_5_30_19,3.1.0,59.951588967777006,
,,,C,D,y,b,L,U,d,R,u,,,,,5,19,119,2,4,0,4,0,,,,,0,26,26,21,,,,,,up,0.5003995248566753,3404.2894802856295,None,001,67,2019_Oct_28_1004,ACPT_experiment_5_30_19,3.1.0,59.951588967777006,
,,,C,D,y,b,L,D,y,L,y,,,,,5,19,119,2,4,0,4,0,,,,,0,27,27,32,,,,,,down,0.9340900206325387,3406.074257286763,None,001,67,2019_Oct_28_1004,ACPT_experiment_5_30_19,3.1.0,59.951588967777006,
,,,C,D,y,b,R,U,y,R,u,,,,,5,19,119,2,4,0,4,0,,,,,0,28,28,31,,,,,,down,0.5671731541028748,3408.2926930873296,None,001,67,2019_Oct_28_1004,ACPT_experiment_5_30_19,3.1.0,59.951588967777006,
,,,C,D,y,b,R,D,d,R,c ,,,,,5,19,119,2,4,0,4,0,,,,,0,29,29,1,,,,,,up,0.6338707121258267,3410.14419451291,None,001,67,2019_Oct_28_1004,ACPT_experiment_5_30_19,3.1.0,59.951588967777006,
,,,C,D,y,b,L,U,d,L,u,,,,,5,19,119,2,4,0,4,0,,,,,0,30,30,20,,,,,,up,1.034174091409568,3412.062438475134,None,001,67,2019_Oct_28_1004,ACPT_experiment_5_30_19,3.1.0,59.951588967777006,
,,,C,D,y,b,L,G,g,L,c ,,,,,5,19,119,2,4,0,4,0,,,,,0,31,31,18,,,,,,up,0.45024806161791275,3414.3809788736326,None,001,67,2019_Oct_28_1004,ACPT_experiment_5_30_19,3.1.0,59.951588967777006,
,,,C,D,y,b,L,U,g,R,u,,,,,5,19,119,2,4,0,4,0,,,,,0,32,32,23,,,,,,down,0.667209529430238,3416.115713084703,None,001,67,2019_Oct_28_1004,ACPT_experiment_5_30_19,3.1.0,59.951588967777006,
,,,C,D,y,b,R,G,y,R,y,,,,,5,19,119,2,4,0,4,0,,,,,0,33,33,29,,,,,,down,0.617176097335232,3418.067286204393,None,001,67,2019_Oct_28_1004,ACPT_experiment_5_30_19,3.1.0,59.951588967777006,
,,,C,D,y,b,R,U,g,R,u,,,,,5,19,119,2,4,0,4,0,,,,,0,34,34,11,,,,,,up,0.6669958055172174,3419.9857499279283,None,001,67,2019_Oct_28_1004,ACPT_experiment_5_30_19,3.1.0,59.951588967777006,
,,,C,D,y,b,R,U,d,R,u,,,,,5,19,119,2,4,0,4,0,,,,,0,35,35,9,,,,,,up,0.7172212268901603,3421.920442480948,None,001,67,2019_Oct_28_1004,ACPT_experiment_5_30_19,3.1.0,59.951588967777006,
,,,C,D,y,b,R,D,d,L,c,,,,,5,19,119,2,4,0,4,0,,,,,1,0,36,0,,,,,,up,0.6171440991220152,3423.9053773600567,None,001,67,2019_Oct_28_1004,ACPT_experiment_5_30_19,3.1.0,59.951588967777006,
,,,C,D,y,b,L,U,g,R,u,,,,,5,19,119,2,4,0,4,0,,,,,1,1,37,23,,,,,,up,0.6672360939842292,3425.806897124236,None,001,67,2019_Oct_28_1004,ACPT_experiment_5_30_19,3.1.0,59.951588967777006,
,,,C,D,y,b,R,U,d,R,u,,,,,5,19,119,2,4,0,4,0,,,,,1,2,38,9,,,,,,up,0.733950556723812,3427.758447603681,None,001,67,2019_Oct_28_1004,ACPT_experiment_5_30_19,3.1.0,59.951588967777006,
,,,C,D,y,b,R,U,g,L,u,,,,,5,19,119,2,4,0,4,0,,,,,1,3,39,10,,,,,,down,0.9507985214409018,3429.760067437743,None,001,67,2019_Oct_28_1004,ACPT_experiment_5_30_19,3.1.0,59.951588967777006,
,,,C,D,y,b,R,G,y,R,y,,,,,5,19,119,2,4,0,4,0,,,,,1,4,40,29,,,,,,down,0.5838019612492644,3432.0119139006574,None,001,67,2019_Oct_28_1004,ACPT_experiment_5_30_19,3.1.0,59.951588967777006,
,,,C,D,y,b,R,U,g,R,u,,,,,5,19,119,2,4,0,4,0,,,,,1,5,41,11,,,,,,up,0.6836357818506258,3433.9136971972885,None,001,67,2019_Oct_28_1004,ACPT_experiment_5_30_19,3.1.0,59.951588967777006,
,,,C,D,y,b,L,D,d,R,c ,,,,,5,19,119,2,4,0,4,0,,,,,1,6,42,13,,,,,,up,0.7172453764846978,3435.881715285335,None,001,67,2019_Oct_28_1004,ACPT_experiment_5_30_19,3.1.0,59.951588967777006,
,,,C,D,y,b,L,U,d,R,u,,,,,5,19,119,2,4,0,4,0,,,,,1,7,43,21,,,,,,up,0.6505236688667537,3437.883330591348,None,001,67,2019_Oct_28_1004,ACPT_experiment_5_30_19,3.1.0,59.951588967777006,
,,,C,D,y,b,R,U,y,L,u,,,,,5,19,119,2,4,0,4,0,,,,,1,8,44,30,,,,,,down,1.9180269177418268,3439.8350733619404,None,001,67,2019_Oct_28_1004,ACPT_experiment_5_30_19,3.1.0,59.951588967777006,
,,,C,D,y,b,R,D,y,R,y,,,,,5,19,119,2,4,0,4,0,,,,,1,9,45,27,,,,,,down,0.5504347681717263,3443.0541947091256,None,001,67,2019_Oct_28_1004,ACPT_experiment_5_30_19,3.1.0,59.951588967777006,
,,,C,D,y,b,L,G,d,R,i,,,,,5,19,119,2,4,0,4,0,,,,,1,10,46,17,,,,,,up,0.5170938377782477,3444.889001218045,None,001,67,2019_Oct_28_1004,ACPT_experiment_5_30_19,3.1.0,59.951588967777006,
,,,C,D,y,b,L,D,y,R,y,,,,,5,19,119,2,4,0,4,0,,,,,1,11,47,33,,,,,,down,0.7670303696245355,3446.7240649201476,None,001,67,2019_Oct_28_1004,ACPT_experiment_5_30_19,3.1.0,59.951588967777006,
,,,C,D,y,b,L,D,y,L,y,,,,,5,19,119,2,4,0,4,0,,,,,1,12,48,32,,,,,,down,0.7672848459783381,3448.792164965881,None,001,67,2019_Oct_28_1004,ACPT_experiment_5_30_19,3.1.0,59.951588967777006,
,,,C,D,y,b,R,G,g,R,c ,,,,,5,19,119,2,4,0,4,0,,,,,1,13,49,7,,,,,,up,0.9007321855233386,3450.8438227600873,None,001,67,2019_Oct_28_1004,ACPT_experiment_5_30_19,3.1.0,59.951588967777006,
,,,C,D,y,b,L,U,g,L,u,,,,,5,19,119,2,4,0,4,0,,,,,1,14,50,22,,,,,,up,1.8014544093384757,3453.0289275919686,None,001,67,2019_Oct_28_1004,ACPT_experiment_5_30_19,3.1.0,59.951588967777006,
,,,C,D,y,b,L,G,y,R,y,,,,,5,19,119,2,4,0,4,0,,,,,1,15,51,35,,,,,,up,0.33360129321090426,3456.114759175714,None,001,67,2019_Oct_28_1004,ACPT_experiment_5_30_19,3.1.0,59.951588967777006,
,,,C,D,y,b,L,U,d,L,u,,,,,5,19,119,2,4,0,4,0,,,,,1,16,52,20,,,,,,down,0.7339402931461336,3457.732707758208,None,001,67,2019_Oct_28_1004,ACPT_experiment_5_30_19,3.1.0,59.951588967777006,
,,,C,D,y,b,R,D,d,R,c ,,,,,5,19,119,2,4,0,4,0,,,,,1,17,53,1,,,,,,up,0.7339215772099124,3459.751032470639,None,001,67,2019_Oct_28_1004,ACPT_experiment_5_30_19,3.1.0,59.951588967777006,
,,,C,D,y,b,R,D,g,R,i,,,,,5,19,119,2,4,0,4,0,,,,,1,18,54,3,,,,,,up,0.9507921821723357,3461.752626947627,None,001,67,2019_Oct_28_1004,ACPT_experiment_5_30_19,3.1.0,59.951588967777006,
,,,C,D,y,b,R,G,y,L,y,,,,,5,19,119,2,4,0,4,0,,,,,1,19,55,28,,,,,,down,0.5504411074402924,3463.9877993229056,None,001,67,2019_Oct_28_1004,ACPT_experiment_5_30_19,3.1.0,59.951588967777006,
,,,C,D,y,b,L,G,d,L,i,,,,,5,19,119,2,4,0,4,0,,,,,1,20,56,16,,,,,,up,0.650546912851496,3465.822588323369,None,001,67,2019_Oct_28_1004,ACPT_experiment_5_30_19,3.1.0,59.951588967777006,
,,,C,D,y,b,L,G,g,L,c ,,,,,5,19,119,2,4,0,4,0,,,,,1,21,57,18,,,,,,down,0.616874227401695,3467.7577946590154,None,001,67,2019_Oct_28_1004,ACPT_experiment_5_30_19,3.1.0,59.951588967777006,
,,,C,D,y,b,L,G,y,L,y,,,,,5,19,119,2,4,0,4,0,,,,,1,22,58,34,,,,,,down,0.5504380887409752,3469.659053003832,None,001,67,2019_Oct_28_1004,ACPT_experiment_5_30_19,3.1.0,59.951588967777006,
,,,C,D,y,b,L,D,g,R,i,,,,,5,19,119,2,4,0,4,0,,,,,1,23,59,15,,,,,,up,0.6838965974729945,3471.4938655501505,None,001,67,2019_Oct_28_1004,ACPT_experiment_5_30_19,3.1.0,59.951588967777006,
,,,C,D,y,b,R,D,y,L,y,,,,,5,19,119,2,4,0,4,0,,,,,1,24,60,26,,,,,,down,0.6171703618060747,3473.462130265932,None,001,67,2019_Oct_28_1004,ACPT_experiment_5_30_19,3.1.0,59.951588967777006,
,,,C,D,y,b,R,U,y,R,u,,,,,5,19,119,2,4,0,4,0,,,,,1,25,61,31,,,,,,down,0.583807998647444,3475.3636633123883,None,001,67,2019_Oct_28_1004,ACPT_experiment_5_30_19,3.1.0,59.951588967777006,
,,,C,D,y,b,L,U,y,L,u,,,,,5,19,119,2,4,0,4,0,,,,,1,26,62,24,,,,,,down,0.617150740260513,3477.2318502966627,None,001,67,2019_Oct_28_1004,ACPT_experiment_5_30_19,3.1.0,59.951588967777006,
,,,C,D,y,b,R,G,d,R,i,,,,,5,19,119,2,4,0,4,0,,,,,1,27,63,5,,,,,,up,2.8856655552822303,3479.1333860599484,None,001,67,2019_Oct_28_1004,ACPT_experiment_5_30_19,3.1.0,59.951588967777006,
,,,C,D,y,b,R,G,d,L,i,,,,,5,19,119,2,4,0,4,0,,,,,1,28,64,4,,,,,,up,0.7005691757594832,3483.2867459477734,None,001,67,2019_Oct_28_1004,ACPT_experiment_5_30_19,3.1.0,59.951588967777006,
,,,C,D,y,b,R,D,g,L,i,,,,,5,19,119,2,4,0,4,0,,,,,1,29,65,2,,,,,,up,2.0183020721865432,3485.2716865624107,None,001,67,2019_Oct_28_1004,ACPT_experiment_5_30_19,3.1.0,59.951588967777006,
,,,C,D,y,b,L,D,d,L,c ,,,,,5,19,119,2,4,0,4,0,,,,,1,30,66,12,,,,,,up,0.5838046780786499,3488.5743582622554,None,001,67,2019_Oct_28_1004,ACPT_experiment_5_30_19,3.1.0,59.951588967777006,
,,,C,D,y,b,L,G,g,R,c ,,,,,5,19,119,2,4,0,4,0,,,,,1,31,67,19,,,,,,up,0.6338833906634136,3490.4425404166104,None,001,67,2019_Oct_28_1004,ACPT_experiment_5_30_19,3.1.0,59.951588967777006,
,,,C,D,y,b,L,D,g,L,i,,,,,5,19,119,2,4,0,4,0,,,,,1,32,68,14,,,,,,up,0.5671266661333902,3492.3607529843616,None,001,67,2019_Oct_28_1004,ACPT_experiment_5_30_19,3.1.0,59.951588967777006,
,,,C,D,y,b,R,G,g,L,c ,,,,,5,19,119,2,4,0,4,0,,,,,1,33,69,6,,,,,,up,0.6002067809045002,3494.2292110478356,None,001,67,2019_Oct_28_1004,ACPT_experiment_5_30_19,3.1.0,59.951588967777006,
,,,C,D,y,b,R,U,d,L,u,,,,,5,19,119,2,4,0,4,0,,,,,1,34,70,8,,,,,,up,0.4170315016372115,3496.1137681367227,None,001,67,2019_Oct_28_1004,ACPT_experiment_5_30_19,3.1.0,59.951588967777006,
,,,C,D,y,b,L,U,y,R,u,,,,,5,19,119,2,4,0,4,0,,,,,1,35,71,25,,,,,,down,0.5671336091418198,3497.8151683604083,None,001,67,2019_Oct_28_1004,ACPT_experiment_5_30_19,3.1.0,59.951588967777006,
,,,C,D,y,b,,,,,,,,,,5,19,119,2,5,0,5,0,0,0,0,0,,,,,,,,,,,,,,001,67,2019_Oct_28_1004,ACPT_experiment_5_30_19,3.1.0,59.951588967777006,
,,,C,D,y,b,R,U,d,L,u,,,,,5,19,119,2,5,0,5,0,,,,,0,0,0,8,,,,,,up,0.633690797646068,3534.194854325117,None,001,67,2019_Oct_28_1004,ACPT_experiment_5_30_19,3.1.0,59.951588967777006,
,,,C,D,y,b,L,G,y,L,y,,,,,5,19,119,2,5,0,5,0,,,,,0,1,1,34,,,,,,up,0.4337004574836101,3536.112835660499,None,001,67,2019_Oct_28_1004,ACPT_experiment_5_30_19,3.1.0,59.951588967777006,
,,,C,D,y,b,L,U,y,R,u,,,,,5,19,119,2,5,0,5,0,,,,,0,2,2,25,,,,,,down,0.5838089042572392,3537.8308927652342,None,001,67,2019_Oct_28_1004,ACPT_experiment_5_30_19,3.1.0,59.951588967777006,
,,,C,D,y,b,R,G,d,L,i,,,,,5,19,119,2,5,0,5,0,,,,,0,3,3,4,,,,,,up,0.8673713317143665,3539.699067674711,None,001,67,2019_Oct_28_1004,ACPT_experiment_5_30_19,3.1.0,59.951588967777006,
,,,C,D,y,b,R,U,y,L,u,,,,,5,19,119,2,5,0,5,0,,,,,0,4,4,30,,,,,,down,0.5337712459831891,3541.850812256523,None,001,67,2019_Oct_28_1004,ACPT_experiment_5_30_19,3.1.0,59.951588967777006,
,,,C,D,y,b,R,D,g,L,i,,,,,5,19,119,2,5,0,5,0,,,,,0,5,5,2,,,,,,up,0.5504480504482672,3543.6689489039854,None,001,67,2019_Oct_28_1004,ACPT_experiment_5_30_19,3.1.0,59.951588967777006,
,,,C,D,y,b,L,D,g,L,i,,,,,5,19,119,2,5,0,5,0,,,,,0,6,6,14,,,,,,up,0.6171688524564161,3545.503765374613,None,001,67,2019_Oct_28_1004,ACPT_experiment_5_30_19,3.1.0,59.951588967777006,
,,,C,D,y,b,L,G,g,R,c ,,,,,5,19,119,2,5,0,5,0,,,,,0,7,7,19,,,,,,up,0.5501703301097223,3547.4222601907513,None,001,67,2019_Oct_28_1004,ACPT_experiment_5_30_19,3.1.0,59.951588967777006,
,,,C,D,y,b,L,U,g,R,u,,,,,5,19,119,2,5,0,5,0,,,,,0,8,8,23,,,,,,up,0.5671438727194982,3549.2568086008782,None,001,67,2019_Oct_28_1004,ACPT_experiment_5_30_19,3.1.0,59.951588967777006,
,,,C,D,y,b,R,U,g,R,u,,,,,5,19,119,2,5,0,5,0,,,,,0,9,9,11,,,,,,up,0.36698327791509655,3551.108281650685,None,001,67,2019_Oct_28_1004,ACPT_experiment_5_30_19,3.1.0,59.951588967777006,
,,,C,D,y,b,R,D,d,L,c,,,,,5,19,119,2,5,0,5,0,,,,,0,10,10,0,,,,,,up,0.5838037724684,3552.7596442160966,None,001,67,2019_Oct_28_1004,ACPT_experiment_5_30_19,3.1.0,59.951588967777006,
,,,C,D,y,b,R,U,g,L,u,,,,,5,19,119,2,5,0,5,0,,,,,0,11,11,10,,,,,,up,0.6638968087818284,3554.647811971256,None,001,67,2019_Oct_28_1004,ACPT_experiment_5_30_19,3.1.0,59.951588967777006,
,,,C,D,y,b,R,D,d,R,c ,,,,,5,19,119,2,5,0,5,0,,,,,0,12,12,1,,,,,,up,0.5337848301301165,3556.596057880541,None,001,67,2019_Oct_28_1004,ACPT_experiment_5_30_19,3.1.0,59.951588967777006,
,,,C,D,y,b,L,G,y,R,y,,,,,5,19,119,2,5,0,5,0,,,,,0,13,13,35,,,,,,down,0.53381531899322,3558.4141948298734,None,001,67,2019_Oct_28_1004,ACPT_experiment_5_30_19,3.1.0,59.951588967777006,
,,,C,D,y,b,L,G,d,R,i,,,,,5,19,119,2,5,0,5,0,,,,,0,14,14,17,,,,,,up,0.6004866143321124,3560.2323583437606,None,001,67,2019_Oct_28_1004,ACPT_experiment_5_30_19,3.1.0,59.951588967777006,
,,,C,D,y,b,L,U,y,L,u,,,,,5,19,119,2,5,0,5,0,,,,,0,15,15,24,,,,,,down,0.5170850835502279,3562.1172179063205,None,001,67,2019_Oct_28_1004,ACPT_experiment_5_30_19,3.1.0,59.951588967777006,
,,,C,D,y,b,L,U,d,R,u,,,,,5,19,119,2,5,0,5,0,,,,,0,16,16,21,,,,,,up,0.4170272754577127,3563.9186717119196,None,001,67,2019_Oct_28_1004,ACPT_experiment_5_30_19,3.1.0,59.951588967777006,
,,,C,D,y,b,L,D,y,L,y,,,,,5,19,119,2,5,0,5,0,,,,,0,17,17,32,,,,,,down,0.41699406976476894,3565.620061672027,None,001,67,2019_Oct_28_1004,ACPT_experiment_5_30_19,3.1.0,59.951588967777006,
,,,C,D,y,b,L,D,d,R,c ,,,,,5,19,119,2,5,0,5,0,,,,,0,18,18,13,,,,,,up,0.5805031266177139,3567.341417611394,None,001,67,2019_Oct_28_1004,ACPT_experiment_5_30_19,3.1.0,59.951588967777006,
,,,C,D,y,b,L,D,d,L,c ,,,,,5,19,119,2,5,0,5,0,,,,,0,19,19,12,,,,,,up,0.5671514194677911,3569.1895830723415,None,001,67,2019_Oct_28_1004,ACPT_experiment_5_30_19,3.1.0,59.951588967777006,
,,,C,D,y,b,L,G,g,L,c ,,,,,5,19,119,2,5,0,5,0,,,,,0,20,20,18,,,,,,up,0.550435070041658,3571.041104119468,None,001,67,2019_Oct_28_1004,ACPT_experiment_5_30_19,3.1.0,59.951588967777006,
,,,C,D,y,b,R,U,d,R,u,,,,,5,19,119,2,5,0,5,0,,,,,0,21,21,9,,,,,,down,0.8340147040844386,3572.8759133452168,None,001,67,2019_Oct_28_1004,ACPT_experiment_5_30_19,3.1.0,59.951588967777006,
,,,C,D,y,b,R,D,g,R,i,,,,,5,19,119,2,5,0,5,0,,,,,0,22,22,3,,,,,,up,0.7005703832392101,3574.9943040162284,None,001,67,2019_Oct_28_1004,ACPT_experiment_5_30_19,3.1.0,59.951588967777006,
,,,C,D,y,b,R,G,g,R,c ,,,,,5,19,119,2,5,0,5,0,,,,,0,23,23,7,,,,,,up,0.6338417326128365,3576.9792464420852,None,001,67,2019_Oct_28_1004,ACPT_experiment_5_30_19,3.1.0,59.951588967777006,
,,,C,D,y,b,R,G,y,R,y,,,,,5,19,119,2,5,0,5,0,,,,,0,24,24,29,,,,,,down,0.4837106455943285,3578.8974722921134,None,001,67,2019_Oct_28_1004,ACPT_experiment_5_30_19,3.1.0,59.951588967777006,
,,,C,D,y,b,R,U,y,R,u,,,,,5,19,119,2,5,0,5,0,,,,,0,25,25,31,,,,,,down,0.567121836214028,3580.665560413984,None,001,67,2019_Oct_28_1004,ACPT_experiment_5_30_19,3.1.0,59.951588967777006,
,,,C,D,y,b,L,D,y,R,y,,,,,5,19,119,2,5,0,5,0,,,,,0,26,26,33,,,,,,down,0.4336920051259767,3582.5170561040363,None,001,67,2019_Oct_28_1004,ACPT_experiment_5_30_19,3.1.0,59.951588967777006,
,,,C,D,y,b,L,U,d,L,u,,,,,5,19,119,2,5,0,5,0,,,,,0,27,27,20,,,,,,up,0.7005827599064105,3584.235107473243,None,001,67,2019_Oct_28_1004,ACPT_experiment_5_30_19,3.1.0,59.951588967777006,
,,,C,D,y,b,R,G,g,L,c ,,,,,5,19,119,2,5,0,5,0,,,,,0,28,28,6,,,,,,up,0.6004838975031817,3586.2200607664176,None,001,67,2019_Oct_28_1004,ACPT_experiment_5_30_19,3.1.0,59.951588967777006,
,,,C,D,y,b,R,D,y,L,y,,,,,5,19,119,2,5,0,5,0,,,,,0,29,29,26,,,,,,down,0.5337963011879765,3588.1049164046685,None,001,67,2019_Oct_28_1004,ACPT_experiment_5_30_19,3.1.0,59.951588967777006,
,,,C,D,y,b,R,G,d,R,i,,,,,5,19,119,2,5,0,5,0,,,,,0,30,30,5,,,,,,up,1.0675394732670611,3589.9230530521313,None,001,67,2019_Oct_28_1004,ACPT_experiment_5_30_19,3.1.0,59.951588967777006,
,,,C,D,y,b,L,G,d,L,i,,,,,5,19,119,2,5,0,5,0,,,,,0,31,31,16,,,,,,up,0.6171561739192839,3592.2749600399675,None,001,67,2019_Oct_28_1004,ACPT_experiment_5_30_19,3.1.0,59.951588967777006,
,,,C,D,y,b,L,U,g,L,u,,,,,5,19,119,2,5,0,5,0,,,,,0,32,32,22,,,,,,up,0.5838019612492644,3594.1764994256923,None,001,67,2019_Oct_28_1004,ACPT_experiment_5_30_19,3.1.0,59.951588967777006,
,,,C,D,y,b,R,D,y,R,y,,,,,5,19,119,2,5,0,5,0,,,,,0,33,33,27,,,,,,down,0.5838285258032556,3596.044652298664,None,001,67,2019_Oct_28_1004,ACPT_experiment_5_30_19,3.1.0,59.951588967777006,
,,,C,D,y,b,R,G,y,L,y,,,,,5,19,119,2,5,0,5,0,,,,,0,34,34,28,,,,,,down,0.5335705024776871,3597.9296929831844,None,001,67,2019_Oct_28_1004,ACPT_experiment_5_30_19,3.1.0,59.951588967777006,
,,,C,D,y,b,L,D,g,R,i,,,,,5,19,119,2,5,0,5,0,,,,,0,35,35,15,,,,,,up,0.6004657853068238,3599.781045888758,None,001,67,2019_Oct_28_1004,ACPT_experiment_5_30_19,3.1.0,59.951588967777006,
,,,C,D,y,b,R,U,g,R,u,,,,,5,19,119,2,5,0,5,0,,,,,1,0,36,11,,,,,,up,0.5337434739494711,3601.6492304580725,None,001,67,2019_Oct_28_1004,ACPT_experiment_5_30_19,3.1.0,59.951588967777006,
,,,C,D,y,b,L,D,d,R,c ,,,,,5,19,119,2,5,0,5,0,,,,,1,1,37,13,,,,,,up,0.5171318733896442,3603.467351408299,None,001,67,2019_Oct_28_1004,ACPT_experiment_5_30_19,3.1.0,59.951588967777006,
,,,C,D,y,b,L,G,g,L,c ,,,,,5,19,119,2,5,0,5,0,,,,,1,2,38,18,,,,,,up,0.6171803235142761,3605.2688046101575,None,001,67,2019_Oct_28_1004,ACPT_experiment_5_30_19,3.1.0,59.951588967777006,
,,,C,D,y,b,L,D,y,R,y,,,,,5,19,119,2,5,0,5,0,,,,,1,3,39,33,,,,,,down,0.6169427518766497,3607.1872438822284,None,001,67,2019_Oct_28_1004,ACPT_experiment_5_30_19,3.1.0,59.951588967777006,
,,,C,D,y,b,R,U,y,R,u,,,,,5,19,119,2,5,0,5,0,,,,,1,4,40,31,,,,,,down,0.5337395496403587,3609.0885885618463,None,001,67,2019_Oct_28_1004,ACPT_experiment_5_30_19,3.1.0,59.951588967777006,
,,,C,D,y,b,L,G,y,L,y,,,,,5,19,119,2,5,0,5,0,,,,,1,5,41,34,,,,,,down,1.11736250201875,3610.9235547599606,None,001,67,2019_Oct_28_1004,ACPT_experiment_5_30_19,3.1.0,59.951588967777006,
,,,C,D,y,b,L,U,d,R,u,,,,,5,19,119,2,5,0,5,0,,,,,1,6,42,21,,,,,,down,0.4170043333429021,3613.3420071633736,None,001,67,2019_Oct_28_1004,ACPT_experiment_5_30_19,3.1.0,59.951588967777006,
,,,C,D,y,b,L,G,d,R,i,,,,,5,19,119,2,5,0,5,0,,,,,1,7,43,17,,,,,,up,0.48320712654549425,3615.0605475618718,None,001,67,2019_Oct_28_1004,ACPT_experiment_5_30_19,3.1.0,59.951588967777006,
,,,C,D,y,b,L,D,y,L,y,,,,,5,19,119,2,5,0,5,0,,,,,1,8,44,32,,,,,,down,0.7839682915823687,3616.828163257297,None,001,67,2019_Oct_28_1004,ACPT_experiment_5_30_19,3.1.0,59.951588967777006,
,,,C,D,y,b,L,D,g,R,i,,,,,5,19,119,2,5,0,5,0,,,,,1,9,45,15,,,,,,up,0.5337591711859204,3618.8965041952374,None,001,67,2019_Oct_28_1004,ACPT_experiment_5_30_19,3.1.0,59.951588967777006,
,,,C,D,y,b,L,U,g,L,u,,,,,5,19,119,2,5,0,5,0,,,,,1,10,46,22,,,,,,up,0.5170847816798414,3620.71464205018,None,001,67,2019_Oct_28_1004,ACPT_experiment_5_30_19,3.1.0,59.951588967777006,
,,,C,D,y,b,L,D,g,L,i,,,,,5,19,119,2,5,0,5,0,,,,,1,11,47,14,,,,,,up,0.38363985709474946,3622.5160994782177,None,001,67,2019_Oct_28_1004,ACPT_experiment_5_30_19,3.1.0,59.951588967777006,
,,,C,D,y,b,R,U,y,L,u,,,,,5,19,119,2,5,0,5,0,,,,,1,12,48,30,,,,,,down,0.5504414093102241,3624.1841198302886,None,001,67,2019_Oct_28_1004,ACPT_experiment_5_30_19,3.1.0,59.951588967777006,
,,,C,D,y,b,R,G,g,L,c ,,,,,5,19,119,2,5,0,5,0,,,,,1,13,49,6,,,,,,up,0.6171347411541319,3626.01896407295,None,001,67,2019_Oct_28_1004,ACPT_experiment_5_30_19,3.1.0,59.951588967777006,
,,,C,D,y,b,L,G,d,L,i,,,,,5,19,119,2,5,0,5,0,,,,,1,14,50,16,,,,,,down,0.8506637365157985,3627.937170301432,None,001,67,2019_Oct_28_1004,ACPT_experiment_5_30_19,3.1.0,59.951588967777006,
,,,C,D,y,b,L,U,y,R,u,,,,,5,19,119,2,5,0,5,0,,,,,1,15,51,25,,,,,,down,0.5504752187425765,3630.0721952132485,None,001,67,2019_Oct_28_1004,ACPT_experiment_5_30_19,3.1.0,59.951588967777006,
,,,C,D,y,b,R,U,d,R,u,,,,,5,19,119,2,5,0,5,0,,,,,1,16,52,9,,,,,,up,0.8173469557173121,3631.907010778266,None,001,67,2019_Oct_28_1004,ACPT_experiment_5_30_19,3.1.0,59.951588967777006,
,,,C,D,y,b,R,G,y,L,y,,,,,5,19,119,2,5,0,5,0,,,,,1,17,53,28,,,,,,down,0.7839758383302069,3634.0087276635118,None,001,67,2019_Oct_28_1004,ACPT_experiment_5_30_19,3.1.0,59.951588967777006,
,,,C,D,y,b,R,U,g,L,u,,,,,5,19,119,2,5,0,5,0,,,,,1,18,54,10,,,,,,up,1.0842168814724573,3636.077070412671,None,001,67,2019_Oct_28_1004,ACPT_experiment_5_30_19,3.1.0,59.951588967777006,
,,,C,D,y,b,R,D,d,L,c,,,,,5,19,119,2,5,0,5,0,,,,,1,19,55,0,,,,,,up,0.5670065219001117,3638.4456575255417,None,001,67,2019_Oct_28_1004,ACPT_experiment_5_30_19,3.1.0,59.951588967777006,
,,,C,D,y,b,L,G,y,R,y,,,,,5,19,119,2,5,0,5,0,,,,,1,20,56,35,,,,,,down,0.9841264714273166,3640.313839981767,None,001,67,2019_Oct_28_1004,ACPT_experiment_5_30_19,3.1.0,59.951588967777006,
,,,C,D,y,b,R,G,g,R,c ,,,,,5,19,119,2,5,0,5,0,,,,,1,21,57,7,,,,,,up,0.717217302581048,3642.599043676051,None,001,67,2019_Oct_28_1004,ACPT_experiment_5_30_19,3.1.0,59.951588967777006,
,,,C,D,y,b,R,D,g,L,i,,,,,5,19,119,2,5,0,5,0,,,,,1,22,58,2,,,,,,up,0.5337636992353509,3644.600637851169,None,001,67,2019_Oct_28_1004,ACPT_experiment_5_30_19,3.1.0,59.951588967777006,
,,,C,D,y,b,L,U,d,L,u,,,,,5,19,119,2,5,0,5,0,,,,,1,23,59,20,,,,,,up,0.550466162644625,3646.4187793285505,None,001,67,2019_Oct_28_1004,ACPT_experiment_5_30_19,3.1.0,59.951588967777006,
,,,C,D,y,b,R,U,d,L,u,,,,,5,19,119,2,5,0,5,0,,,,,1,24,60,8,,,,,,up,0.4837190979519619,3648.2536021384467,None,001,67,2019_Oct_28_1004,ACPT_experiment_5_30_19,3.1.0,59.951588967777006,
,,,C,D,y,b,R,G,d,R,i,,,,,5,19,119,2,5,0,5,0,,,,,1,25,61,5,,,,,,up,0.7172474895742198,3650.021691769667,None,001,67,2019_Oct_28_1004,ACPT_experiment_5_30_19,3.1.0,59.951588967777006,
,,,C,D,y,b,R,D,d,R,c ,,,,,5,19,119,2,5,0,5,0,,,,,1,26,62,1,,,,,,up,0.5004073734748999,3652.0233100943797,None,001,67,2019_Oct_28_1004,ACPT_experiment_5_30_19,3.1.0,59.951588967777006,
