facing_vig,person_vig,text_vig,facing_train,person_train,food_train,correct_key_train,facing_exp,person_exp,food_exp,showL_R,consistent,vig_random.thisRepN,vig_random.thisTrialN,vig_random.thisN,vig_random.thisIndex,trainTrials.thisRepN,trainTrials.thisTrialN,trainTrials.thisN,trainTrials.thisIndex,expBlock.thisRepN,expBlock.thisTrialN,expBlock.thisN,expBlock.thisIndex,breakLoop.thisRepN,breakLoop.thisTrialN,breakLoop.thisN,breakLoop.thisIndex,expTrials.thisRepN,expTrials.thisTrialN,expTrials.thisN,expTrials.thisIndex,train_resp.keys,train_resp.corr,train_resp.rt,train_resp.started,train_resp.stopped,exp_resp.keys,exp_resp.rt,exp_resp.started,exp_resp.stopped,session,participant,date,expName,psychopyVersion,frameRate,
C,G,"cannot eat dairy products because she is lactose intolerant. She enjoys eating wheat products. She thinks eating insects, like crickets, is disgusting.",,,,,,,,,,0,0,0,0,,,,,,,,,,,,,,,,,,,,,,,,,,001,68,2019_Oct_28_1107,ACPT_experiment_5_30_19,3.1.0,59.95148047025666,
C,U,"did not report her food preferences, so her food preferences are unknown.",,,,,,,,,,0,1,1,2,,,,,,,,,,,,,,,,,,,,,,,,,,001,68,2019_Oct_28_1107,ACPT_experiment_5_30_19,3.1.0,59.95148047025666,
C,D,"is allergic to gluten, meaning she can’t eat wheat products. She enjoys eating dairy products. She thinks eating insects, like crickets, is disgusting.",,,,,,,,,,0,2,2,1,,,,,,,,,,,,,,,,,,,,,,,,,,001,68,2019_Oct_28_1107,ACPT_experiment_5_30_19,3.1.0,59.95148047025666,
,,,C,D,g,b,,,,,,,,,,0,0,0,10,,,,,,,,,,,,,v,0,4.336853941742447,1289.4758662535078,None,,,,,001,68,2019_Oct_28_1107,ACPT_experiment_5_30_19,3.1.0,59.95148047025666,
,,,C,U,d,n,,,,,,,,,,0,1,1,15,,,,,,,,,,,,,n,1,1.5179128109075464,1297.0987024120923,None,,,,,001,68,2019_Oct_28_1107,ACPT_experiment_5_30_19,3.1.0,59.95148047025666,
,,,C,D,g,b,,,,,,,,,,0,2,2,1,,,,,,,,,,,,,b,1,1.1509663611241194,1301.9025911005729,None,,,,,001,68,2019_Oct_28_1107,ACPT_experiment_5_30_19,3.1.0,59.95148047025666,
,,,C,U,g,n,,,,,,,,,,0,3,3,7,,,,,,,,,,,,,n,1,1.6344632828049726,1306.3564474135028,None,,,,,001,68,2019_Oct_28_1107,ACPT_experiment_5_30_19,3.1.0,59.95148047025666,
,,,C,U,g,n,,,,,,,,,,0,4,4,16,,,,,,,,,,,,,n,1,1.1509461358382396,1311.260175356244,None,,,,,001,68,2019_Oct_28_1107,ACPT_experiment_5_30_19,3.1.0,59.95148047025666,
,,,C,G,g,v,,,,,,,,,,0,5,5,4,,,,,,,,,,,,,b,0,4.937097248908685,1315.7140606486882,None,,,,,001,68,2019_Oct_28_1107,ACPT_experiment_5_30_19,3.1.0,59.95148047025666,
,,,C,G,y,b,,,,,,,,,,0,6,6,5,,,,,,,,,,,,,n,0,1.150947645188353,1323.9371132480146,None,,,,,001,68,2019_Oct_28_1107,ACPT_experiment_5_30_19,3.1.0,59.95148047025666,
,,,C,U,y,n,,,,,,,,,,0,7,7,17,,,,,,,,,,,,,n,1,1.3510587333230433,1328.39076851557,None,,,,,001,68,2019_Oct_28_1107,ACPT_experiment_5_30_19,3.1.0,59.95148047025666,
,,,C,U,y,n,,,,,,,,,,0,8,8,8,,,,,,,,,,,,,n,1,1.2343467610107837,1333.0111332650104,None,,,,,001,68,2019_Oct_28_1107,ACPT_experiment_5_30_19,3.1.0,59.95148047025666,
,,,C,G,y,b,,,,,,,,,,0,9,9,14,,,,,,,,,,,,,b,1,2.73532315931061,1337.5483808451454,None,,,,,001,68,2019_Oct_28_1107,ACPT_experiment_5_30_19,3.1.0,59.95148047025666,
,,,C,U,d,n,,,,,,,,,,0,10,10,6,,,,,,,,,,,,,n,1,0.8006529446656714,1343.569688938127,None,,,,,001,68,2019_Oct_28_1107,ACPT_experiment_5_30_19,3.1.0,59.95148047025666,
,,,C,D,d,v,,,,,,,,,,0,11,11,9,,,,,,,,,,,,,v,1,2.1512769852852216,1347.6734914427425,None,,,,,001,68,2019_Oct_28_1107,ACPT_experiment_5_30_19,3.1.0,59.95148047025666,
,,,C,D,y,b,,,,,,,,,,0,12,12,11,,,,,,,,,,,,,b,1,1.7180495579868875,1353.0940934619503,None,,,,,001,68,2019_Oct_28_1107,ACPT_experiment_5_30_19,3.1.0,59.95148047025666,
,,,C,G,d,b,,,,,,,,,,0,13,13,3,,,,,,,,,,,,,b,1,6.1550240967671925,1358.098117388161,None,,,,,001,68,2019_Oct_28_1107,ACPT_experiment_5_30_19,3.1.0,59.95148047025666,
,,,C,G,g,v,,,,,,,,,,0,14,14,19,,,,,,,,,,,,,v,1,2.0683644837945394,1367.5224152009623,None,,,,,001,68,2019_Oct_28_1107,ACPT_experiment_5_30_19,3.1.0,59.95148047025666,
,,,C,D,d,v,,,,,,,,,,0,15,15,18,,,,,,,,,,,,,v,1,3.152610646650828,1372.8767380538748,None,,,,,001,68,2019_Oct_28_1107,ACPT_experiment_5_30_19,3.1.0,59.95148047025666,
,,,C,G,d,b,,,,,,,,,,0,16,16,12,,,,,,,,,,,,,b,1,2.6187959313974716,1379.3153230687494,None,,,,,001,68,2019_Oct_28_1107,ACPT_experiment_5_30_19,3.1.0,59.95148047025666,
,,,C,G,g,v,,,,,,,,,,0,17,17,13,,,,,,,,,,,,,v,1,4.887315576337642,1385.2034096208972,None,,,,,001,68,2019_Oct_28_1107,ACPT_experiment_5_30_19,3.1.0,59.95148047025666,
,,,C,D,y,b,,,,,,,,,,0,18,18,2,,,,,,,,,,,,,b,1,1.5512944937408975,1393.376701074808,None,,,,,001,68,2019_Oct_28_1107,ACPT_experiment_5_30_19,3.1.0,59.95148047025666,
,,,C,D,d,v,,,,,,,,,,0,19,19,0,,,,,,,,,,,,,v,1,2.585467075800807,1398.197250568648,None,,,,,001,68,2019_Oct_28_1107,ACPT_experiment_5_30_19,3.1.0,59.95148047025666,
,,,C,D,g,b,,,,,,,,,,1,0,20,1,,,,,,,,,,,,,b,1,1.784805075037184,1404.0520121895079,None,,,,,001,68,2019_Oct_28_1107,ACPT_experiment_5_30_19,3.1.0,59.95148047025666,
,,,C,G,g,v,,,,,,,,,,1,1,21,19,,,,,,,,,,,,,v,1,1.6847185893011556,1409.1227837841507,None,,,,,001,68,2019_Oct_28_1107,ACPT_experiment_5_30_19,3.1.0,59.95148047025666,
,,,C,G,d,b,,,,,,,,,,1,2,22,12,,,,,,,,,,,,,b,1,3.4862164679097987,1414.0768026540409,None,,,,,001,68,2019_Oct_28_1107,ACPT_experiment_5_30_19,3.1.0,59.95148047025666,
,,,C,U,y,n,,,,,,,,,,1,3,23,8,,,,,,,,,,,,,n,1,1.1509509657580566,1420.8489503227747,None,,,,,001,68,2019_Oct_28_1107,ACPT_experiment_5_30_19,3.1.0,59.95148047025666,
,,,C,D,y,b,,,,,,,,,,1,4,24,11,,,,,,,,,,,,,b,1,1.2005823071012856,1425.302941269695,None,,,,,001,68,2019_Oct_28_1107,ACPT_experiment_5_30_19,3.1.0,59.95148047025666,
,,,C,G,g,v,,,,,,,,,,1,5,25,13,,,,,,,,,,,,,v,1,2.101760958255909,1429.806191050462,None,,,,,001,68,2019_Oct_28_1107,ACPT_experiment_5_30_19,3.1.0,59.95148047025666,
,,,C,G,y,b,,,,,,,,,,1,6,26,14,,,,,,,,,,,,,n,0,1.7180770281511286,1435.1772239135325,None,,,,,001,68,2019_Oct_28_1107,ACPT_experiment_5_30_19,3.1.0,59.95148047025666,
,,,C,D,d,v,,,,,,,,,,1,7,27,18,,,,,,,,,,,,,v,1,2.001646096746299,1440.1812747061676,None,,,,,001,68,2019_Oct_28_1107,ACPT_experiment_5_30_19,3.1.0,59.95148047025666,
,,,C,U,g,n,,,,,,,,,,1,8,28,16,,,,,,,,,,,,,n,1,1.4011196355831999,1445.4689347160993,None,,,,,001,68,2019_Oct_28_1107,ACPT_experiment_5_30_19,3.1.0,59.95148047025666,
,,,C,U,d,n,,,,,,,,,,1,9,29,15,,,,,,,,,,,,,n,1,1.851253892235036,1450.156292856097,None,,,,,001,68,2019_Oct_28_1107,ACPT_experiment_5_30_19,3.1.0,59.95148047025666,
,,,C,U,y,n,,,,,,,,,,1,10,30,17,,,,,,,,,,,,,n,1,0.9507810129853169,1455.2935241352561,None,,,,,001,68,2019_Oct_28_1107,ACPT_experiment_5_30_19,3.1.0,59.95148047025666,
,,,C,D,y,b,,,,,,,,,,1,11,31,2,,,,,,,,,,,,,n,0,1.1342494079572134,1459.5636596899494,None,,,,,001,68,2019_Oct_28_1107,ACPT_experiment_5_30_19,3.1.0,59.95148047025666,
,,,C,D,d,v,,,,,,,,,,1,12,32,0,,,,,,,,,,,,,b,0,0.21920194645736046,None,None,,,,,001,68,2019_Oct_28_1107,ACPT_experiment_5_30_19,3.1.0,59.95148047025666,
,,,C,U,g,n,,,,,,,,,,1,13,33,7,,,,,,,,,,,,,n,1,2.351669416198092,1467.2534581464888,None,,,,,001,68,2019_Oct_28_1107,ACPT_experiment_5_30_19,3.1.0,59.95148047025666,
,,,C,D,d,v,,,,,,,,,,1,14,34,9,,,,,,,,,,,,,v,1,2.9857710588230475,1472.891102836521,None,,,,,001,68,2019_Oct_28_1107,ACPT_experiment_5_30_19,3.1.0,59.95148047025666,
,,,C,D,g,b,,,,,,,,,,1,15,35,10,,,,,,,,,,,,,b,1,3.552901045526596,1479.1461672329242,None,,,,,001,68,2019_Oct_28_1107,ACPT_experiment_5_30_19,3.1.0,59.95148047025666,
,,,C,G,g,v,,,,,,,,,,1,16,36,4,,,,,,,,,,,,,v,1,1.6346930058243743,1485.985016987731,None,,,,,001,68,2019_Oct_28_1107,ACPT_experiment_5_30_19,3.1.0,59.95148047025666,
,,,C,G,d,b,,,,,,,,,,1,17,37,3,,,,,,,,,,,,,b,1,4.103322531420417,1490.9056903991777,None,,,,,001,68,2019_Oct_28_1107,ACPT_experiment_5_30_19,3.1.0,59.95148047025666,
,,,C,G,y,b,,,,,,,,,,1,18,38,5,,,,,,,,,,,,,b,1,1.4345067520753219,1498.2950126558972,None,,,,,001,68,2019_Oct_28_1107,ACPT_experiment_5_30_19,3.1.0,59.95148047025666,
,,,C,U,d,n,,,,,,,,,,1,19,39,6,,,,,,,,,,,,,n,1,1.7847824347918504,1503.0155085678234,None,,,,,001,68,2019_Oct_28_1107,ACPT_experiment_5_30_19,3.1.0,59.95148047025666,
,,,C,G,g,v,,,,,,,,,,2,0,40,4,,,,,,,,,,,,,v,1,1.8348351865633958,1508.0862729175878,None,,,,,001,68,2019_Oct_28_1107,ACPT_experiment_5_30_19,3.1.0,59.95148047025666,
,,,C,U,d,n,,,,,,,,,,2,1,41,6,,,,,,,,,,,,,n,1,1.5513050591889623,1513.207058020911,None,,,,,001,68,2019_Oct_28_1107,ACPT_experiment_5_30_19,3.1.0,59.95148047025666,
,,,C,D,y,b,,,,,,,,,,2,2,42,2,,,,,,,,,,,,,b,1,1.017506343041532,1518.0443380520637,None,,,,,001,68,2019_Oct_28_1107,ACPT_experiment_5_30_19,3.1.0,59.95148047025666,
,,,C,G,g,v,,,,,,,,,,2,3,43,19,,,,,,,,,,,,,v,1,3.0024517875981473,1522.3478193670699,None,,,,,001,68,2019_Oct_28_1107,ACPT_experiment_5_30_19,3.1.0,59.95148047025666,
,,,C,G,d,b,,,,,,,,,,2,4,44,3,,,,,,,,,,,,,b,1,1.7514345613899422,1528.6195663034669,None,,,,,001,68,2019_Oct_28_1107,ACPT_experiment_5_30_19,3.1.0,59.95148047025666,
,,,C,U,y,n,,,,,,,,,,2,5,45,8,,,,,,,,,,,,,n,1,1.2175120785705076,1533.6571349222759,None,,,,,001,68,2019_Oct_28_1107,ACPT_experiment_5_30_19,3.1.0,59.95148047025666,
,,,C,U,y,n,,,,,,,,,,2,6,46,17,,,,,,,,,,,,,n,1,1.0673012978895713,1538.17755023493,None,,,,,001,68,2019_Oct_28_1107,ACPT_experiment_5_30_19,3.1.0,59.95148047025666,
,,,C,D,g,b,,,,,,,,,,2,7,47,10,,,,,,,,,,,,,b,1,2.885737400326434,1542.5308083925884,None,,,,,001,68,2019_Oct_28_1107,ACPT_experiment_5_30_19,3.1.0,59.95148047025666,
,,,C,D,d,v,,,,,,,,,,2,8,48,9,,,,,,,,,,,,,v,1,1.784791490889802,1548.6858149808995,None,,,,,001,68,2019_Oct_28_1107,ACPT_experiment_5_30_19,3.1.0,59.95148047025666,
,,,C,U,g,n,,,,,,,,,,2,9,49,7,,,,,,,,,,,,,n,1,1.5512715516260869,1553.7565895942416,None,,,,,001,68,2019_Oct_28_1107,ACPT_experiment_5_30_19,3.1.0,59.95148047025666,
,,,C,U,g,n,,,,,,,,,,2,10,50,16,,,,,,,,,,,,,n,1,1.985118114157558,1558.5770059634406,None,,,,,001,68,2019_Oct_28_1107,ACPT_experiment_5_30_19,3.1.0,59.95148047025666,
,,,C,G,g,v,,,,,,,,,,2,11,51,13,,,,,,,,,,,,,v,1,3.602964362745297,1563.8480706737892,None,,,,,001,68,2019_Oct_28_1107,ACPT_experiment_5_30_19,3.1.0,59.95148047025666,
,,,C,D,d,v,,,,,,,,,,2,12,52,18,,,,,,,,,,,,,b,0,1.4511793303618106,1570.7370193664656,None,,,,,001,68,2019_Oct_28_1107,ACPT_experiment_5_30_19,3.1.0,59.95148047025666,
,,,C,D,d,v,,,,,,,,,,2,13,53,0,,,,,,,,,,,,,v,1,1.6346745917589942,1575.457497166196,None,,,,,001,68,2019_Oct_28_1107,ACPT_experiment_5_30_19,3.1.0,59.95148047025666,
,,,C,D,g,b,,,,,,,,,,2,14,54,1,,,,,,,,,,,,,b,1,3.052489445873107,1580.3614660011444,None,,,,,001,68,2019_Oct_28_1107,ACPT_experiment_5_30_19,3.1.0,59.95148047025666,
,,,C,G,y,b,,,,,,,,,,2,15,55,14,,,,,,,,,,,,,b,1,1.517906773508912,1586.69993434329,None,,,,,001,68,2019_Oct_28_1107,ACPT_experiment_5_30_19,3.1.0,59.95148047025666,
,,,C,U,d,n,,,,,,,,,,2,16,56,15,,,,,,,,,,,,,n,1,1.1676292795718837,1591.5038224280306,None,,,,,001,68,2019_Oct_28_1107,ACPT_experiment_5_30_19,3.1.0,59.95148047025666,
,,,C,D,y,b,,,,,,,,,,2,17,57,11,,,,,,,,,,,,,n,0,1.4175920741026857,1595.9743434706288,None,,,,,001,68,2019_Oct_28_1107,ACPT_experiment_5_30_19,3.1.0,59.95148047025666,
,,,C,G,y,b,,,,,,,,,,2,18,58,5,,,,,,,,,,,,,b,1,2.602112485793441,1600.6779186671838,None,,,,,001,68,2019_Oct_28_1107,ACPT_experiment_5_30_19,3.1.0,59.95148047025666,
,,,C,G,d,b,,,,,,,,,,2,19,59,12,,,,,,,,,,,,,b,1,3.73637517602765,1606.5493377728344,None,,,,,001,68,2019_Oct_28_1107,ACPT_experiment_5_30_19,3.1.0,59.95148047025666,
,,,C,D,y,b,,,,,,,,,,3,0,60,11,,,,,,,,,,,,,b,1,1.9182258500277385,1613.5716960713135,None,,,,,001,68,2019_Oct_28_1107,ACPT_experiment_5_30_19,3.1.0,59.95148047025666,
,,,C,G,g,v,,,,,,,,,,3,1,61,13,,,,,,,,,,,,,v,1,2.0016307013793266,1618.7759017232247,None,,,,,001,68,2019_Oct_28_1107,ACPT_experiment_5_30_19,3.1.0,59.95148047025666,
,,,C,D,g,b,,,,,,,,,,3,2,62,10,,,,,,,,,,,,,b,1,2.218466893169534,1624.0635203769752,None,,,,,001,68,2019_Oct_28_1107,ACPT_experiment_5_30_19,3.1.0,59.95148047025666,
,,,C,D,d,v,,,,,,,,,,3,3,63,0,,,,,,,,,,,,,v,1,1.7848183573141796,1629.551274268456,None,,,,,001,68,2019_Oct_28_1107,ACPT_experiment_5_30_19,3.1.0,59.95148047025666,
,,,C,D,g,b,,,,,,,,,,3,4,64,1,,,,,,,,,,,,,b,1,1.7514309389516711,1634.6053865670901,None,,,,,001,68,2019_Oct_28_1107,ACPT_experiment_5_30_19,3.1.0,59.95148047025666,
,,,C,G,y,b,,,,,,,,,,3,5,65,14,,,,,,,,,,,,,b,1,3.0024182800361814,1639.6428217593884,None,,,,,001,68,2019_Oct_28_1107,ACPT_experiment_5_30_19,3.1.0,59.95148047025666,
,,,C,U,y,n,,,,,,,,,,3,6,66,17,,,,,,,,,,,,,n,1,2.101720809555445,1645.931218331957,None,,,,,001,68,2019_Oct_28_1107,ACPT_experiment_5_30_19,3.1.0,59.95148047025666,
,,,C,D,d,v,,,,,,,,,,3,7,67,9,,,,,,,,,,,,,v,1,2.618791403348041,1651.3189322256721,None,,,,,001,68,2019_Oct_28_1107,ACPT_experiment_5_30_19,3.1.0,59.95148047025666,
,,,C,G,d,b,,,,,,,,,,3,8,68,12,,,,,,,,,,,,,b,1,1.7848117161756818,1657.2236964878948,None,,,,,001,68,2019_Oct_28_1107,ACPT_experiment_5_30_19,3.1.0,59.95148047025666,
,,,C,U,g,n,,,,,,,,,,3,9,69,7,,,,,,,,,,,,,n,1,1.5345841817133987,1662.294492835872,None,,,,,001,68,2019_Oct_28_1107,ACPT_experiment_5_30_19,3.1.0,59.95148047025666,
,,,C,D,y,b,,,,,,,,,,3,10,70,2,,,,,,,,,,,,,b,1,2.00163311633969,1667.1150417259714,None,,,,,001,68,2019_Oct_28_1107,ACPT_experiment_5_30_19,3.1.0,59.95148047025666,
,,,C,U,g,n,,,,,,,,,,3,11,71,16,,,,,,,,,,,,,n,1,2.502040489814135,1672.4026525311037,None,,,,,001,68,2019_Oct_28_1107,ACPT_experiment_5_30_19,3.1.0,59.95148047025666,
,,,C,D,d,v,,,,,,,,,,3,12,72,18,,,,,,,,,,,,,v,1,2.7188700404649353,1678.1906806714196,None,,,,,001,68,2019_Oct_28_1107,ACPT_experiment_5_30_19,3.1.0,59.95148047025666,
,,,C,G,g,v,,,,,,,,,,3,13,73,19,,,,,,,,,,,,,v,1,2.91904965307549,1684.195534739947,None,,,,,001,68,2019_Oct_28_1107,ACPT_experiment_5_30_19,3.1.0,59.95148047025666,
,,,C,G,g,v,,,,,,,,,,3,14,74,4,,,,,,,,,,,,,v,1,1.4680478222353486,1690.383728908725,None,,,,,001,68,2019_Oct_28_1107,ACPT_experiment_5_30_19,3.1.0,59.95148047025666,
,,,C,U,d,n,,,,,,,,,,3,15,75,15,,,,,,,,,,,,,n,1,1.6013218884381786,1695.1377287608093,None,,,,,001,68,2019_Oct_28_1107,ACPT_experiment_5_30_19,3.1.0,59.95148047025666,
,,,C,G,y,b,,,,,,,,,,3,16,76,5,,,,,,,,,,,,,b,1,2.502047130952633,1700.025018376332,None,,,,,001,68,2019_Oct_28_1107,ACPT_experiment_5_30_19,3.1.0,59.95148047025666,
,,,C,G,d,b,,,,,,,,,,3,17,77,3,,,,,,,,,,,,,b,1,2.2685256823388045,1705.813032026891,None,,,,,001,68,2019_Oct_28_1107,ACPT_experiment_5_30_19,3.1.0,59.95148047025666,
,,,C,U,y,n,,,,,,,,,,3,18,78,8,,,,,,,,,,,,,n,1,1.784776095523739,1711.3675459634705,None,,,,,001,68,2019_Oct_28_1107,ACPT_experiment_5_30_19,3.1.0,59.95148047025666,
,,,C,U,d,n,,,,,,,,,,3,19,79,6,,,,,,,,,,,,,n,1,1.4345321091504957,1716.4216042273865,None,,,,,001,68,2019_Oct_28_1107,ACPT_experiment_5_30_19,3.1.0,59.95148047025666,
,,,C,G,d,b,,,,,,,,,,4,0,80,3,,,,,,,,,,,,,b,1,7.005688738892786,1721.1421137234602,None,,,,,001,68,2019_Oct_28_1107,ACPT_experiment_5_30_19,3.1.0,59.95148047025666,
,,,C,U,y,n,,,,,,,,,,4,1,81,8,,,,,,,,,,,,,n,1,1.4678615684861143,1731.4337834717153,None,,,,,001,68,2019_Oct_28_1107,ACPT_experiment_5_30_19,3.1.0,59.95148047025666,
,,,C,G,g,v,,,,,,,,,,4,2,82,19,,,,,,,,,,,,,v,1,2.0683493902979535,1736.1876314832234,None,,,,,001,68,2019_Oct_28_1107,ACPT_experiment_5_30_19,3.1.0,59.95148047025666,
,,,C,G,g,v,,,,,,,,,,4,3,83,13,,,,,,,,,,,,,v,1,1.6179953723340077,1741.5252790410195,None,,,,,001,68,2019_Oct_28_1107,ACPT_experiment_5_30_19,3.1.0,59.95148047025666,
,,,C,G,g,v,,,,,,,,,,4,4,84,4,,,,,,,,,,,,,v,1,1.7347574550549325,1746.4125698640228,None,,,,,001,68,2019_Oct_28_1107,ACPT_experiment_5_30_19,3.1.0,59.95148047025666,
,,,C,D,d,v,,,,,,,,,,4,5,85,18,,,,,,,,,,,,,v,1,4.203478749111127,1751.4332778395774,None,,,,,001,68,2019_Oct_28_1107,ACPT_experiment_5_30_19,3.1.0,59.95148047025666,
,,,C,G,y,b,,,,,,,,,,4,6,86,14,,,,,,,,,,,,,b,1,2.201816653258902,1758.922679035284,None,,,,,001,68,2019_Oct_28_1107,ACPT_experiment_5_30_19,3.1.0,59.95148047025666,
,,,C,D,d,v,,,,,,,,,,4,7,87,0,,,,,,,,,,,,,v,1,2.151776278155012,1764.4104727735958,None,,,,,001,68,2019_Oct_28_1107,ACPT_experiment_5_30_19,3.1.0,59.95148047025666,
,,,C,D,y,b,,,,,,,,,,4,8,88,2,,,,,,,,,,,,,b,1,2.068359352006155,1769.8315309182735,None,,,,,001,68,2019_Oct_28_1107,ACPT_experiment_5_30_19,3.1.0,59.95148047025666,
,,,C,D,y,b,,,,,,,,,,4,9,89,11,,,,,,,,,,,,,b,1,3.019113498567094,1775.1858715815115,None,,,,,001,68,2019_Oct_28_1107,ACPT_experiment_5_30_19,3.1.0,59.95148047025666,
,,,C,D,g,b,,,,,,,,,,4,10,90,1,,,,,,,,,,,,,b,1,1.851512594768792,1781.4909691081402,None,,,,,001,68,2019_Oct_28_1107,ACPT_experiment_5_30_19,3.1.0,59.95148047025666,
,,,C,U,d,n,,,,,,,,,,4,11,91,15,,,,,,,,,,,,,n,1,2.018317769422538,1786.6284599954415,None,,,,,001,68,2019_Oct_28_1107,ACPT_experiment_5_30_19,3.1.0,59.95148047025666,
,,,C,G,d,b,,,,,,,,,,4,12,92,12,,,,,,,,,,,,,b,1,3.9198553439282477,1791.9327566611373,None,,,,,001,68,2019_Oct_28_1107,ACPT_experiment_5_30_19,3.1.0,59.95148047025666,
,,,C,U,y,n,,,,,,,,,,4,13,93,17,,,,,,,,,,,,,n,1,1.651355018662798,1799.1385884863794,None,,,,,001,68,2019_Oct_28_1107,ACPT_experiment_5_30_19,3.1.0,59.95148047025666,
,,,C,U,g,n,,,,,,,,,,4,14,94,16,,,,,,,,,,,,,n,1,1.7848799387811596,1804.0592129948973,None,,,,,001,68,2019_Oct_28_1107,ACPT_experiment_5_30_19,3.1.0,59.95148047025666,
,,,C,D,d,v,,,,,,,,,,4,15,95,9,,,,,,,,,,,,,v,1,2.802286664744315,1809.1300078335253,None,,,,,001,68,2019_Oct_28_1107,ACPT_experiment_5_30_19,3.1.0,59.95148047025666,
,,,C,D,g,b,,,,,,,,,,4,16,96,10,,,,,,,,,,,,,b,1,1.6013638483591421,1815.2016059480457,None,,,,,001,68,2019_Oct_28_1107,ACPT_experiment_5_30_19,3.1.0,59.95148047025666,
,,,C,G,y,b,,,,,,,,,,4,17,97,5,,,,,,,,,,,,,b,1,2.6688441551195865,1820.0888825831616,None,,,,,001,68,2019_Oct_28_1107,ACPT_experiment_5_30_19,3.1.0,59.95148047025666,
,,,C,U,g,n,,,,,,,,,,4,18,98,7,,,,,,,,,,,,,n,1,1.4511971406882367,1826.043712275692,None,,,,,001,68,2019_Oct_28_1107,ACPT_experiment_5_30_19,3.1.0,59.95148047025666,
,,,C,U,d,n,,,,,,,,,,4,19,99,6,,,,,,,,,,,,,n,1,1.5679510729214599,1830.7641906791623,None,,,,,001,68,2019_Oct_28_1107,ACPT_experiment_5_30_19,3.1.0,59.95148047025666,
,,,C,G,y,b,,,,,,,,,,5,0,100,5,,,,,,,,,,,,,b,1,1.6847210042615188,1835.6181176296568,None,,,,,001,68,2019_Oct_28_1107,ACPT_experiment_5_30_19,3.1.0,59.95148047025666,
,,,C,D,y,b,,,,,,,,,,5,1,101,11,,,,,,,,,,,,,b,1,1.5179100940777062,1840.5888102853123,None,,,,,001,68,2019_Oct_28_1107,ACPT_experiment_5_30_19,3.1.0,59.95148047025666,
,,,C,U,d,n,,,,,,,,,,5,2,102,6,,,,,,,,,,,,,n,1,1.5679501673121194,1845.392694143874,None,,,,,001,68,2019_Oct_28_1107,ACPT_experiment_5_30_19,3.1.0,59.95148047025666,
,,,C,D,y,b,,,,,,,,,,5,3,103,2,,,,,,,,,,,,,b,1,1.584653536330734,1850.2466014728234,None,,,,,001,68,2019_Oct_28_1107,ACPT_experiment_5_30_19,3.1.0,59.95148047025666,
,,,C,U,y,n,,,,,,,,,,5,4,104,17,,,,,,,,,,,,,n,1,2.335228674020982,1855.1172480933146,None,,,,,001,68,2019_Oct_28_1107,ACPT_experiment_5_30_19,3.1.0,59.95148047025666,
,,,C,G,g,v,,,,,,,,,,5,5,105,19,,,,,,,,,,,,,v,1,2.702206820147694,1860.7384532486485,None,,,,,001,68,2019_Oct_28_1107,ACPT_experiment_5_30_19,3.1.0,59.95148047025666,
,,,C,D,d,v,,,,,,,,,,5,6,106,0,,,,,,,,,,,,,v,1,1.8181511372195018,1866.72663504076,None,,,,,001,68,2019_Oct_28_1107,ACPT_experiment_5_30_19,3.1.0,59.95148047025666,
,,,C,U,y,n,,,,,,,,,,5,7,107,8,,,,,,,,,,,,,n,1,1.7681161957743825,1871.8307623574228,None,,,,,001,68,2019_Oct_28_1107,ACPT_experiment_5_30_19,3.1.0,59.95148047025666,
,,,C,U,d,n,,,,,,,,,,5,8,108,15,,,,,,,,,,,,,n,1,1.301051262042165,1876.884867713049,None,,,,,001,68,2019_Oct_28_1107,ACPT_experiment_5_30_19,3.1.0,59.95148047025666,
,,,C,G,d,b,,,,,,,,,,5,9,109,3,,,,,,,,,,,,,b,1,1.96827347000999,1881.471902399413,None,,,,,001,68,2019_Oct_28_1107,ACPT_experiment_5_30_19,3.1.0,59.95148047025666,
,,,C,D,g,b,,,,,,,,,,5,10,110,1,,,,,,,,,,,,,b,1,3.6196167157449963,1886.7261553694361,None,,,,,001,68,2019_Oct_28_1107,ACPT_experiment_5_30_19,3.1.0,59.95148047025666,
,,,C,G,g,v,,,,,,,,,,5,11,111,13,,,,,,,,,,,,,v,1,1.801483690722307,1893.6317358879578,None,,,,,001,68,2019_Oct_28_1107,ACPT_experiment_5_30_19,3.1.0,59.95148047025666,
,,,C,G,g,v,,,,,,,,,,5,12,112,4,,,,,,,,,,,,,v,1,1.6346730824088809,1898.7025153312197,None,,,,,001,68,2019_Oct_28_1107,ACPT_experiment_5_30_19,3.1.0,59.95148047025666,
,,,C,U,g,n,,,,,,,,,,5,13,113,7,,,,,,,,,,,,,n,1,1.4345019221564144,1903.623175762259,None,,,,,001,68,2019_Oct_28_1107,ACPT_experiment_5_30_19,3.1.0,59.95148047025666,
,,,C,D,g,b,,,,,,,,,,5,14,114,10,,,,,,,,,,,,,b,1,1.3839815738592733,1908.3607880012742,None,,,,,001,68,2019_Oct_28_1107,ACPT_experiment_5_30_19,3.1.0,59.95148047025666,
,,,C,G,y,b,,,,,,,,,,5,15,115,14,,,,,,,,,,,,,b,1,2.1851150954589684,1913.0307843939281,None,,,,,001,68,2019_Oct_28_1107,ACPT_experiment_5_30_19,3.1.0,59.95148047025666,
,,,C,U,g,n,,,,,,,,,,5,16,116,16,,,,,,,,,,,,,n,1,1.851508670459225,1918.5018798950096,None,,,,,001,68,2019_Oct_28_1107,ACPT_experiment_5_30_19,3.1.0,59.95148047025666,
,,,C,D,d,v,,,,,,,,,,5,17,117,9,,,,,,,,,,,,,v,1,5.204207161260456,1923.6393907057263,None,,,,,001,68,2019_Oct_28_1107,ACPT_experiment_5_30_19,3.1.0,59.95148047025666,
,,,C,D,d,v,,,,,,,,,,5,18,118,18,,,,,,,,,,,,,v,1,4.120075407108743,1932.1295514061858,None,,,,,001,68,2019_Oct_28_1107,ACPT_experiment_5_30_19,3.1.0,59.95148047025666,
,,,C,G,d,b,,,,,,,,,,5,19,119,12,0,0,0,0,0,0,0,0,,,,,b,1,1.2510238673457934,1939.535571598266,None,,,,,001,68,2019_Oct_28_1107,ACPT_experiment_5_30_19,3.1.0,59.95148047025666,
,,,C,G,d,b,R,G,y,L,y,,,,,5,19,119,12,0,0,0,0,,,,,0,0,0,28,,,,,,down,1.7013567544154284,1985.973182478865,None,001,68,2019_Oct_28_1107,ACPT_experiment_5_30_19,3.1.0,59.95148047025666,
,,,C,G,d,b,R,U,d,R,u,,,,,5,19,119,12,0,0,0,0,,,,,0,1,1,9,,,,,,up,1.8014516925086355,1988.9922754502768,None,001,68,2019_Oct_28_1107,ACPT_experiment_5_30_19,3.1.0,59.95148047025666,
,,,C,G,d,b,R,U,g,L,u,,,,,5,19,119,12,0,0,0,0,,,,,0,2,2,10,,,,,,up,1.501213969937453,1992.0781064302828,None,001,68,2019_Oct_28_1107,ACPT_experiment_5_30_19,3.1.0,59.95148047025666,
,,,C,G,d,b,L,U,y,R,u,,,,,5,19,119,12,0,0,0,0,,,,,0,3,3,25,,,,,,down,1.1342533322667805,1994.8636957634062,None,001,68,2019_Oct_28_1107,ACPT_experiment_5_30_19,3.1.0,59.95148047025666,
,,,C,G,d,b,L,D,y,R,y,,,,,5,19,119,12,0,0,0,0,,,,,0,4,4,33,,,,,,down,0.9340909262427886,1997.2823202326817,None,001,68,2019_Oct_28_1107,ACPT_experiment_5_30_19,3.1.0,59.95148047025666,
,,,C,G,d,b,L,G,d,R,i,,,,,5,19,119,12,0,0,0,0,,,,,0,5,5,17,,,,,,up,1.2510163205979552,1999.500779277233,None,001,68,2019_Oct_28_1107,ACPT_experiment_5_30_19,3.1.0,59.95148047025666,
,,,C,G,d,b,R,G,g,R,c ,,,,,5,19,119,12,0,0,0,0,,,,,0,6,6,7,,,,,,up,1.050846971565079,2002.0361691497983,None,001,68,2019_Oct_28_1107,ACPT_experiment_5_30_19,3.1.0,59.95148047025666,
,,,C,G,d,b,L,U,d,L,u,,,,,5,19,119,12,0,0,0,0,,,,,0,7,7,20,,,,,,up,1.2843765706675185,2004.3713938995106,None,001,68,2019_Oct_28_1107,ACPT_experiment_5_30_19,3.1.0,59.95148047025666,
,,,C,G,d,b,L,U,g,L,u,,,,,5,19,119,12,0,0,0,0,,,,,0,8,8,22,,,,,,up,1.1843190644440256,2006.923433710117,None,001,68,2019_Oct_28_1107,ACPT_experiment_5_30_19,3.1.0,59.95148047025666,
,,,C,G,d,b,R,U,y,R,u,,,,,5,19,119,12,0,0,0,0,,,,,0,9,9,31,,,,,,down,0.9674306491560856,2009.3921417218962,None,001,68,2019_Oct_28_1107,ACPT_experiment_5_30_19,3.1.0,59.95148047025666,
,,,C,G,d,b,R,G,d,L,i,,,,,5,19,119,12,0,0,0,0,,,,,0,10,10,4,,,,,,up,0.9339744044482359,2011.644087500019,None,001,68,2019_Oct_28_1107,ACPT_experiment_5_30_19,3.1.0,59.95148047025666,
,,,C,G,d,b,R,D,y,L,y,,,,,5,19,119,12,0,0,0,0,,,,,0,11,11,26,,,,,,down,1.5012236297743584,2013.8624061750515,None,001,68,2019_Oct_28_1107,ACPT_experiment_5_30_19,3.1.0,59.95148047025666,
,,,C,G,d,b,L,G,g,L,c ,,,,,5,19,119,12,0,0,0,0,,,,,0,12,12,18,,,,,,up,1.634652253384047,2016.6479994324845,None,001,68,2019_Oct_28_1107,ACPT_experiment_5_30_19,3.1.0,59.95148047025666,
,,,C,G,d,b,L,G,y,L,y,,,,,5,19,119,12,0,0,0,0,,,,,0,13,13,34,,,,,,down,0.8006514353164675,2019.5670234266163,None,001,68,2019_Oct_28_1107,ACPT_experiment_5_30_19,3.1.0,59.95148047025666,
,,,C,G,d,b,R,D,d,L,c,,,,,5,19,119,12,0,0,0,0,,,,,0,14,14,0,,,,,,up,0.8340168171735058,2021.6520444895905,None,001,68,2019_Oct_28_1107,ACPT_experiment_5_30_19,3.1.0,59.95148047025666,
,,,C,G,d,b,R,U,y,L,u,,,,,5,19,119,12,0,0,0,0,,,,,0,15,15,30,,,,,,down,0.8339984031081258,2023.7871098519781,None,001,68,2019_Oct_28_1107,ACPT_experiment_5_30_19,3.1.0,59.95148047025666,
,,,C,G,d,b,R,D,d,R,c ,,,,,5,19,119,12,0,0,0,0,,,,,0,16,16,1,,,,,,up,0.8673731429344116,2025.9221700825765,None,001,68,2019_Oct_28_1107,ACPT_experiment_5_30_19,3.1.0,59.95148047025666,
,,,C,G,d,b,L,D,d,L,c ,,,,,5,19,119,12,0,0,0,0,,,,,0,17,17,12,,,,,,up,0.600509254577446,2028.0572067673202,None,001,68,2019_Oct_28_1107,ACPT_experiment_5_30_19,3.1.0,59.95148047025666,
,,,C,G,d,b,L,D,g,L,i,,,,,5,19,119,12,0,0,0,0,,,,,0,18,18,14,,,,,,up,0.8173686903528505,2029.9253871104556,None,001,68,2019_Oct_28_1107,ACPT_experiment_5_30_19,3.1.0,59.95148047025666,
,,,C,G,d,b,L,G,d,L,i,,,,,5,19,119,12,0,0,0,0,,,,,0,19,19,16,,,,,,up,0.583791697671586,2032.0271248247273,None,001,68,2019_Oct_28_1107,ACPT_experiment_5_30_19,3.1.0,59.95148047025666,
,,,C,G,d,b,R,G,y,R,y,,,,,5,19,119,12,0,0,0,0,,,,,0,20,20,29,,,,,,down,0.8673671055348677,2033.8952894706263,None,001,68,2019_Oct_28_1107,ACPT_experiment_5_30_19,3.1.0,59.95148047025666,
,,,C,G,d,b,L,D,y,L,y,,,,,5,19,119,12,0,0,0,0,,,,,0,21,21,32,,,,,,down,0.7339146342010281,2036.0470428066665,None,001,68,2019_Oct_28_1107,ACPT_experiment_5_30_19,3.1.0,59.95148047025666,
,,,C,G,d,b,L,D,d,R,c ,,,,,5,19,119,12,0,0,0,0,,,,,0,22,22,13,,,,,,up,0.5504450317494047,2038.0486508678005,None,001,68,2019_Oct_28_1107,ACPT_experiment_5_30_19,3.1.0,59.95148047025666,
,,,C,G,d,b,L,G,g,R,c ,,,,,5,19,119,12,0,0,0,0,,,,,0,23,23,19,,,,,,up,0.517088705988499,2039.8834688477773,None,001,68,2019_Oct_28_1107,ACPT_experiment_5_30_19,3.1.0,59.95148047025666,
,,,C,G,d,b,R,G,d,R,i,,,,,5,19,119,12,0,0,0,0,,,,,0,24,24,5,,,,,,up,0.4670275018606844,2041.6849413693126,None,001,68,2019_Oct_28_1107,ACPT_experiment_5_30_19,3.1.0,59.95148047025666,
,,,C,G,d,b,R,D,g,R,i,,,,,5,19,119,12,0,0,0,0,,,,,0,25,25,3,,,,,,up,0.500399826726607,2043.4363430268804,None,001,68,2019_Oct_28_1107,ACPT_experiment_5_30_19,3.1.0,59.95148047025666,
,,,C,G,d,b,L,U,d,R,u,,,,,5,19,119,12,0,0,0,0,,,,,0,26,26,21,,,,,,up,0.5502195349090471,2045.237999689074,None,001,68,2019_Oct_28_1107,ACPT_experiment_5_30_19,3.1.0,59.95148047025666,
,,,C,G,d,b,L,U,g,R,u,,,,,5,19,119,12,0,0,0,0,,,,,0,27,27,23,,,,,,up,0.4837242297408011,2047.072621151725,None,001,68,2019_Oct_28_1107,ACPT_experiment_5_30_19,3.1.0,59.95148047025666,
,,,C,G,d,b,R,G,g,L,c ,,,,,5,19,119,12,0,0,0,0,,,,,0,28,28,6,,,,,,up,0.5671281754830488,2048.8407180278236,None,001,68,2019_Oct_28_1107,ACPT_experiment_5_30_19,3.1.0,59.95148047025666,
,,,C,G,d,b,R,D,y,R,y,,,,,5,19,119,12,0,0,0,0,,,,,0,29,29,27,,,,,,down,0.984129791995656,2050.7088998803083,None,001,68,2019_Oct_28_1107,ACPT_experiment_5_30_19,3.1.0,59.95148047025666,
,,,C,G,d,b,R,U,d,L,u,,,,,5,19,119,12,0,0,0,0,,,,,0,30,30,8,,,,,,up,0.5837998481592876,2052.994085160527,None,001,68,2019_Oct_28_1107,ACPT_experiment_5_30_19,3.1.0,59.95148047025666,
,,,C,G,d,b,L,D,g,R,i,,,,,5,19,119,12,0,0,0,0,,,,,0,31,31,15,,,,,,up,0.5671200249953472,2054.862262484963,None,001,68,2019_Oct_28_1107,ACPT_experiment_5_30_19,3.1.0,59.95148047025666,
,,,C,G,d,b,L,U,y,L,u,,,,,5,19,119,12,0,0,0,0,,,,,0,32,32,24,,,,,,down,0.7005749112877311,2056.7137572694055,None,001,68,2019_Oct_28_1107,ACPT_experiment_5_30_19,3.1.0,59.95148047025666,
,,,C,G,d,b,L,G,y,R,y,,,,,5,19,119,12,0,0,0,0,,,,,0,33,33,35,,,,,,down,0.8006544540157847,2058.6986930541243,None,001,68,2019_Oct_28_1107,ACPT_experiment_5_30_19,3.1.0,59.95148047025666,
,,,C,G,d,b,R,U,g,R,u,,,,,5,19,119,12,0,0,0,0,,,,,0,34,34,11,,,,,,up,0.5671296848331622,2060.7837204563675,None,001,68,2019_Oct_28_1107,ACPT_experiment_5_30_19,3.1.0,59.95148047025666,
,,,C,G,d,b,R,D,g,L,i,,,,,5,19,119,12,0,0,0,0,,,,,0,35,35,2,,,,,,up,0.7005685720187103,2062.635222183818,None,001,68,2019_Oct_28_1107,ACPT_experiment_5_30_19,3.1.0,59.95148047025666,
,,,C,G,d,b,R,D,d,R,c ,,,,,5,19,119,12,0,0,0,0,,,,,1,0,36,1,,,,,,up,0.5838022631187414,2064.6201612891055,None,001,68,2019_Oct_28_1107,ACPT_experiment_5_30_19,3.1.0,59.95148047025666,
,,,C,G,d,b,L,D,g,R,i,,,,,5,19,119,12,0,0,0,0,,,,,1,1,37,15,,,,,,up,0.5171083275345154,2066.488315973297,None,001,68,2019_Oct_28_1107,ACPT_experiment_5_30_19,3.1.0,59.95148047025666,
,,,C,G,d,b,R,G,y,L,y,,,,,5,19,119,12,0,0,0,0,,,,,1,2,38,28,,,,,,down,0.7005727981986638,2068.2897933247505,None,001,68,2019_Oct_28_1107,ACPT_experiment_5_30_19,3.1.0,59.95148047025666,
,,,C,G,d,b,R,U,g,L,u,,,,,5,19,119,12,0,0,0,0,,,,,1,3,39,10,,,,,,up,0.6169300733390628,2070.291654956629,None,001,68,2019_Oct_28_1107,ACPT_experiment_5_30_19,3.1.0,59.95148047025666,
,,,C,G,d,b,R,D,d,L,c,,,,,5,19,119,12,0,0,0,0,,,,,1,4,40,0,,,,,,up,0.43375449220184237,2072.1929516389273,None,001,68,2019_Oct_28_1107,ACPT_experiment_5_30_19,3.1.0,59.95148047025666,
,,,C,G,d,b,L,D,d,L,c ,,,,,5,19,119,12,0,0,0,0,,,,,1,5,41,12,,,,,,up,0.4670401803978166,2073.9110141773217,None,001,68,2019_Oct_28_1107,ACPT_experiment_5_30_19,3.1.0,59.95148047025666,
,,,C,G,d,b,R,G,d,R,i,,,,,5,19,119,12,0,0,0,0,,,,,1,6,42,5,,,,,,up,0.7172520176236503,2075.6624212685483,None,001,68,2019_Oct_28_1107,ACPT_experiment_5_30_19,3.1.0,59.95148047025666,
,,,C,G,d,b,L,U,d,L,u,,,,,5,19,119,12,0,0,0,0,,,,,1,7,43,20,,,,,,up,0.6004914442510199,2077.664051366188,None,001,68,2019_Oct_28_1107,ACPT_experiment_5_30_19,3.1.0,59.95148047025666,
,,,C,G,d,b,R,G,y,R,y,,,,,5,19,119,12,0,0,0,0,,,,,1,8,44,29,,,,,,down,0.7839999879251991,2079.5488864772833,None,001,68,2019_Oct_28_1107,ACPT_experiment_5_30_19,3.1.0,59.95148047025666,
,,,C,G,d,b,L,U,g,R,u,,,,,5,19,119,12,0,0,0,0,,,,,1,9,45,23,,,,,,up,0.8340083648154177,2081.617253979778,None,001,68,2019_Oct_28_1107,ACPT_experiment_5_30_19,3.1.0,59.95148047025666,
,,,C,G,d,b,L,D,g,L,i,,,,,5,19,119,12,0,0,0,0,,,,,1,10,46,14,,,,,,up,0.5004161277029198,2083.7356247273738,None,001,68,2019_Oct_28_1107,ACPT_experiment_5_30_19,3.1.0,59.95148047025666,
,,,C,G,d,b,R,G,g,R,c ,,,,,5,19,119,12,0,0,0,0,,,,,1,11,47,7,,,,,,up,0.5838067911672624,2085.520413803305,None,001,68,2019_Oct_28_1107,ACPT_experiment_5_30_19,3.1.0,59.95148047025666,
,,,C,G,d,b,R,U,y,L,u,,,,,5,19,119,12,0,0,0,0,,,,,1,12,48,30,,,,,,down,0.6672046995117853,2087.38859505205,None,001,68,2019_Oct_28_1107,ACPT_experiment_5_30_19,3.1.0,59.95148047025666,
,,,C,G,d,b,R,G,g,L,c ,,,,,5,19,119,12,0,0,0,0,,,,,1,13,49,6,,,,,,up,0.5001975738714464,2089.357100358169,None,001,68,2019_Oct_28_1107,ACPT_experiment_5_30_19,3.1.0,59.95148047025666,
,,,C,G,d,b,R,U,d,L,u,,,,,5,19,119,12,0,0,0,0,,,,,1,14,50,8,,,,,,up,0.7672975245150155,2091.1416234866883,None,001,68,2019_Oct_28_1107,ACPT_experiment_5_30_19,3.1.0,59.95148047025666,
,,,C,G,d,b,R,D,g,L,i,,,,,5,19,119,12,0,0,0,0,,,,,1,15,51,2,,,,,,up,0.450389940486275,2093.1932912426028,None,001,68,2019_Oct_28_1107,ACPT_experiment_5_30_19,3.1.0,59.95148047025666,
,,,C,G,d,b,L,G,y,L,y,,,,,5,19,119,12,0,0,0,0,,,,,1,16,52,34,,,,,,down,0.717250810143014,2094.9280227368436,None,001,68,2019_Oct_28_1107,ACPT_experiment_5_30_19,3.1.0,59.95148047025666,
,,,C,G,d,b,L,D,y,L,y,,,,,5,19,119,12,0,0,0,0,,,,,1,17,53,32,,,,,,down,0.5671191193850973,2096.9296461933445,None,001,68,2019_Oct_28_1107,ACPT_experiment_5_30_19,3.1.0,59.95148047025666,
,,,C,G,d,b,L,G,d,L,i,,,,,5,19,119,12,0,0,0,0,,,,,1,18,54,16,,,,,,up,0.5838070930376489,2098.781143090877,None,001,68,2019_Oct_28_1107,ACPT_experiment_5_30_19,3.1.0,59.95148047025666,
,,,C,G,d,b,L,G,g,L,c ,,,,,5,19,119,12,0,0,0,0,,,,,1,19,55,18,,,,,,up,0.5004269950213711,2100.632618857513,None,001,68,2019_Oct_28_1107,ACPT_experiment_5_30_19,3.1.0,59.95148047025666,
,,,C,G,d,b,R,D,y,L,y,,,,,5,19,119,12,0,0,0,0,,,,,1,20,56,26,,,,,,down,1.000599815557507,2102.450949909213,None,001,68,2019_Oct_28_1107,ACPT_experiment_5_30_19,3.1.0,59.95148047025666,
,,,C,G,d,b,R,G,d,L,i,,,,,5,19,119,12,0,0,0,0,,,,,1,21,57,4,,,,,,up,0.6505185370779145,2104.7526459654327,None,001,68,2019_Oct_28_1107,ACPT_experiment_5_30_19,3.1.0,59.95148047025666,
,,,C,G,d,b,L,U,g,L,u,,,,,5,19,119,12,0,0,0,0,,,,,1,22,58,22,,,,,,up,0.46704440657686064,2106.6875462049666,None,001,68,2019_Oct_28_1107,ACPT_experiment_5_30_19,3.1.0,59.95148047025666,
,,,C,G,d,b,R,D,g,R,i,,,,,5,19,119,12,0,0,0,0,,,,,1,23,59,3,,,,,,up,0.6171700599361429,2108.4389578242426,None,001,68,2019_Oct_28_1107,ACPT_experiment_5_30_19,3.1.0,59.95148047025666,
,,,C,G,d,b,L,G,d,R,i,,,,,5,19,119,12,0,0,0,0,,,,,1,24,60,17,,,,,,up,0.5471199344337947,2110.3605069603664,None,001,68,2019_Oct_28_1107,ACPT_experiment_5_30_19,3.1.0,59.95148047025666,
,,,C,G,d,b,R,U,d,R,u,,,,,5,19,119,12,0,0,0,0,,,,,1,25,61,9,,,,,,up,0.45035914975323976,2112.191996522459,None,001,68,2019_Oct_28_1107,ACPT_experiment_5_30_19,3.1.0,59.95148047025666,
,,,C,G,d,b,L,U,d,R,u,,,,,5,19,119,12,0,0,0,0,,,,,1,26,62,21,,,,,,up,0.4170302941574846,2113.9267141306827,None,001,68,2019_Oct_28_1107,ACPT_experiment_5_30_19,3.1.0,59.95148047025666,
,,,C,G,d,b,L,U,y,L,u,,,,,5,19,119,12,0,0,0,0,,,,,1,27,63,24,,,,,,down,0.6338577317192176,2115.6281046945305,None,001,68,2019_Oct_28_1107,ACPT_experiment_5_30_19,3.1.0,59.95148047025666,
,,,C,G,d,b,R,U,g,R,u,,,,,5,19,119,12,0,0,0,0,,,,,1,28,64,11,,,,,,up,0.4501215781156134,2117.5632666552965,None,001,68,2019_Oct_28_1107,ACPT_experiment_5_30_19,3.1.0,59.95148047025666,
,,,C,G,d,b,L,D,y,R,y,,,,,5,19,119,12,0,0,0,0,,,,,1,29,65,33,,,,,,down,0.6004820862835913,2119.2977485031024,None,001,68,2019_Oct_28_1107,ACPT_experiment_5_30_19,3.1.0,59.95148047025666,
,,,C,G,d,b,L,G,g,R,c ,,,,,5,19,119,12,0,0,0,0,,,,,1,30,66,19,,,,,,up,0.7506119658219177,2121.182610178753,None,001,68,2019_Oct_28_1107,ACPT_experiment_5_30_19,3.1.0,59.95148047025666,
,,,C,G,d,b,L,D,d,R,c ,,,,,5,19,119,12,0,0,0,0,,,,,1,31,67,13,,,,,,up,0.46702750185977493,2123.217596904022,None,001,68,2019_Oct_28_1107,ACPT_experiment_5_30_19,3.1.0,59.95148047025666,
,,,C,G,d,b,L,G,y,R,y,,,,,5,19,119,12,0,0,0,0,,,,,1,32,68,35,,,,,,down,0.7672797141904084,2124.9690178812652,None,001,68,2019_Oct_28_1107,ACPT_experiment_5_30_19,3.1.0,59.95148047025666,
,,,C,G,d,b,R,U,y,R,u,,,,,5,19,119,12,0,0,0,0,,,,,1,33,69,31,,,,,,down,0.8340141003445751,2127.0206617894546,None,001,68,2019_Oct_28_1107,ACPT_experiment_5_30_19,3.1.0,59.95148047025666,
,,,C,G,d,b,L,U,y,R,u,,,,,5,19,119,12,0,0,0,0,,,,,1,34,70,25,,,,,,down,0.5504589177662638,2129.1390500455072,None,001,68,2019_Oct_28_1107,ACPT_experiment_5_30_19,3.1.0,59.95148047025666,
,,,C,G,d,b,R,D,y,R,y,,,,,5,19,119,12,0,0,0,0,,,,,1,35,71,27,,,,,,down,0.5170878003791586,2130.9738677236137,None,001,68,2019_Oct_28_1107,ACPT_experiment_5_30_19,3.1.0,59.95148047025666,
,,,C,G,d,b,,,,,,,,,,5,19,119,12,1,0,1,0,0,0,0,0,,,,,,,,,,,,,,001,68,2019_Oct_28_1107,ACPT_experiment_5_30_19,3.1.0,59.95148047025666,
,,,C,G,d,b,L,D,d,R,c ,,,,,5,19,119,12,1,0,1,0,,,,,0,0,0,13,,,,,,up,0.5668755103488365,2139.2641648692834,None,001,68,2019_Oct_28_1107,ACPT_experiment_5_30_19,3.1.0,59.95148047025666,
,,,C,G,d,b,L,G,y,R,y,,,,,5,19,119,12,1,0,1,0,,,,,0,1,1,35,,,,,,down,0.834015307824302,2141.1154042717617,None,001,68,2019_Oct_28_1107,ACPT_experiment_5_30_19,3.1.0,59.95148047025666,
,,,C,G,d,b,L,U,d,L,u,,,,,5,19,119,12,1,0,1,0,,,,,0,2,2,20,,,,,,up,0.6505294043954564,2143.233787396025,None,001,68,2019_Oct_28_1107,ACPT_experiment_5_30_19,3.1.0,59.95148047025666,
,,,C,G,d,b,R,D,g,R,i,,,,,5,19,119,12,1,0,1,0,,,,,0,3,3,3,,,,,,up,0.6505294043954564,2145.1686888430386,None,001,68,2019_Oct_28_1107,ACPT_experiment_5_30_19,3.1.0,59.95148047025666,
,,,C,G,d,b,R,D,d,L,c,,,,,5,19,119,12,1,0,1,0,,,,,0,4,4,0,,,,,,up,1.0175048336923282,2147.086890543472,None,001,68,2019_Oct_28_1107,ACPT_experiment_5_30_19,3.1.0,59.95148047025666,
,,,C,G,d,b,L,D,g,L,i,,,,,5,19,119,12,1,0,1,0,,,,,0,5,5,14,,,,,,up,0.5170850835502279,2149.38877496653,None,001,68,2019_Oct_28_1107,ACPT_experiment_5_30_19,3.1.0,59.95148047025666,
,,,C,G,d,b,R,U,d,R,u,,,,,5,19,119,12,1,0,1,0,,,,,0,6,6,9,,,,,,up,0.8006632082433498,2151.1902224328605,None,001,68,2019_Oct_28_1107,ACPT_experiment_5_30_19,3.1.0,59.95148047025666,
,,,C,G,d,b,L,D,y,R,y,,,,,5,19,119,12,1,0,1,0,,,,,0,7,7,33,,,,,,down,0.9674569118405998,2153.2752498351038,None,001,68,2019_Oct_28_1107,ACPT_experiment_5_30_19,3.1.0,59.95148047025666,
,,,C,G,d,b,R,D,y,L,y,,,,,5,19,119,12,1,0,1,0,,,,,0,8,8,26,,,,,,down,1.2176455050812365,2155.5437546884177,None,001,68,2019_Oct_28_1107,ACPT_experiment_5_30_19,3.1.0,59.95148047025666,
,,,C,G,d,b,L,G,g,R,c ,,,,,5,19,119,12,1,0,1,0,,,,,0,9,9,19,,,,,,up,0.7005839673856826,2158.0624348526953,None,001,68,2019_Oct_28_1107,ACPT_experiment_5_30_19,3.1.0,59.95148047025666,
,,,C,G,d,b,R,G,d,L,i,,,,,5,19,119,12,1,0,1,0,,,,,0,10,10,4,,,,,,up,0.7506101546023274,2160.0473959944884,None,001,68,2019_Oct_28_1107,ACPT_experiment_5_30_19,3.1.0,59.95148047025666,
,,,C,G,d,b,R,U,y,R,u,,,,,5,19,119,12,1,0,1,0,,,,,0,11,11,31,,,,,,down,0.7839676878420505,2162.082378191709,None,001,68,2019_Oct_28_1107,ACPT_experiment_5_30_19,3.1.0,59.95148047025666,
,,,C,G,d,b,R,D,y,R,y,,,,,5,19,119,12,1,0,1,0,,,,,0,12,12,27,,,,,,down,0.7840033084949027,2164.150722148348,None,001,68,2019_Oct_28_1107,ACPT_experiment_5_30_19,3.1.0,59.95148047025666,
,,,C,G,d,b,R,U,d,L,u,,,,,5,19,119,12,1,0,1,0,,,,,0,13,13,8,,,,,,up,0.7172402446958586,2166.2190658031177,None,001,68,2019_Oct_28_1107,ACPT_experiment_5_30_19,3.1.0,59.95148047025666,
,,,C,G,d,b,L,G,y,L,y,,,,,5,19,119,12,1,0,1,0,,,,,0,14,14,34,,,,,,down,0.7336622709372023,2168.237633822715,None,001,68,2019_Oct_28_1107,ACPT_experiment_5_30_19,3.1.0,59.95148047025666,
,,,C,G,d,b,L,U,g,R,u,,,,,5,19,119,12,1,0,1,0,,,,,0,15,15,23,,,,,,up,0.5838092061276257,2170.2556569670824,None,001,68,2019_Oct_28_1107,ACPT_experiment_5_30_19,3.1.0,59.95148047025666,
,,,C,G,d,b,L,U,y,L,u,,,,,5,19,119,12,1,0,1,0,,,,,0,16,16,24,,,,,,down,0.8173300510006811,2172.123838215828,None,001,68,2019_Oct_28_1107,ACPT_experiment_5_30_19,3.1.0,59.95148047025666,
,,,C,G,d,b,L,D,d,L,c ,,,,,5,19,119,12,1,0,1,0,,,,,0,17,17,12,,,,,,up,0.9007315817834751,2174.2255406113172,None,001,68,2019_Oct_28_1107,ACPT_experiment_5_30_19,3.1.0,59.95148047025666,
,,,C,G,d,b,L,D,g,R,i,,,,,5,19,119,12,1,0,1,0,,,,,0,18,18,15,,,,,,up,0.6839156152791475,2176.393940564829,None,001,68,2019_Oct_28_1107,ACPT_experiment_5_30_19,3.1.0,59.95148047025666,
,,,C,G,d,b,L,U,y,R,u,,,,,5,19,119,12,1,0,1,0,,,,,0,19,19,25,,,,,,down,0.7172758653478013,2178.3621956207726,None,001,68,2019_Oct_28_1107,ACPT_experiment_5_30_19,3.1.0,59.95148047025666,
,,,C,G,d,b,R,G,g,R,c ,,,,,5,19,119,12,1,0,1,0,,,,,0,20,20,7,,,,,,up,0.5671502119876095,2180.3638380950797,None,001,68,2019_Oct_28_1107,ACPT_experiment_5_30_19,3.1.0,59.95148047025666,
,,,C,G,d,b,L,U,d,R,u,,,,,5,19,119,12,1,0,1,0,,,,,0,21,21,21,,,,,,up,0.6004811806733414,2182.21534253936,None,001,68,2019_Oct_28_1107,ACPT_experiment_5_30_19,3.1.0,59.95148047025666,
,,,C,G,d,b,R,G,d,R,i,,,,,5,19,119,12,1,0,1,0,,,,,0,22,22,5,,,,,,up,0.5004037510361741,2184.100199083221,None,001,68,2019_Oct_28_1107,ACPT_experiment_5_30_19,3.1.0,59.95148047025666,
,,,C,G,d,b,L,G,g,L,c ,,,,,5,19,119,12,1,0,1,0,,,,,0,23,23,18,,,,,,up,0.6338405251326549,2185.884979404924,None,001,68,2019_Oct_28_1107,ACPT_experiment_5_30_19,3.1.0,59.95148047025666,
,,,C,G,d,b,R,D,g,L,i,,,,,5,19,119,12,1,0,1,0,,,,,0,24,24,2,,,,,,up,0.4500938060818953,2187.8201480068283,None,001,68,2019_Oct_28_1107,ACPT_experiment_5_30_19,3.1.0,59.95148047025666,
,,,C,G,d,b,L,D,y,L,y,,,,,5,19,119,12,1,0,1,0,,,,,0,25,25,32,,,,,,down,0.5837983388100838,2189.554618685447,None,001,68,2019_Oct_28_1107,ACPT_experiment_5_30_19,3.1.0,59.95148047025666,
,,,C,G,d,b,R,U,g,L,u,,,,,5,19,119,12,1,0,1,0,,,,,0,26,26,10,,,,,,up,0.6338456569219488,2191.422792991184,None,001,68,2019_Oct_28_1107,ACPT_experiment_5_30_19,3.1.0,59.95148047025666,
,,,C,G,d,b,L,G,d,R,i,,,,,5,19,119,12,1,0,1,0,,,,,0,27,27,17,,,,,,up,0.7172378297364048,2193.3410137094234,None,001,68,2019_Oct_28_1107,ACPT_experiment_5_30_19,3.1.0,59.95148047025666,
,,,C,G,d,b,R,U,y,L,u,,,,,5,19,119,12,1,0,1,0,,,,,0,28,28,30,,,,,,down,0.8673710298444348,2195.342632034136,None,001,68,2019_Oct_28_1107,ACPT_experiment_5_30_19,3.1.0,59.95148047025666,
,,,C,G,d,b,R,G,g,L,c ,,,,,5,19,119,12,1,0,1,0,,,,,0,29,29,6,,,,,,up,0.5671468914188154,2197.4943729935085,None,001,68,2019_Oct_28_1107,ACPT_experiment_5_30_19,3.1.0,59.95148047025666,
,,,C,G,d,b,L,U,g,L,u,,,,,5,19,119,12,1,0,1,0,,,,,0,30,30,22,,,,,,up,0.4504116751213587,2199.345877739658,None,001,68,2019_Oct_28_1107,ACPT_experiment_5_30_19,3.1.0,59.95148047025666,
,,,C,G,d,b,R,U,g,R,u,,,,,5,19,119,12,1,0,1,0,,,,,0,31,31,11,,,,,,up,0.616913470493273,2201.0975574194345,None,001,68,2019_Oct_28_1107,ACPT_experiment_5_30_19,3.1.0,59.95148047025666,
,,,C,G,d,b,R,G,y,R,y,,,,,5,19,119,12,1,0,1,0,,,,,0,32,32,29,,,,,,down,0.6838902582039736,2202.998829046529,None,001,68,2019_Oct_28_1107,ACPT_experiment_5_30_19,3.1.0,59.95148047025666,
,,,C,G,d,b,R,G,y,L,y,,,,,5,19,119,12,1,0,1,0,,,,,0,33,33,28,,,,,,down,0.7339731969686909,2204.9670629715774,None,001,68,2019_Oct_28_1107,ACPT_experiment_5_30_19,3.1.0,59.95148047025666,
,,,C,G,d,b,R,D,d,R,c ,,,,,5,19,119,12,1,0,1,0,,,,,0,34,34,1,,,,,,up,0.6171785122951405,2206.985378627911,None,001,68,2019_Oct_28_1107,ACPT_experiment_5_30_19,3.1.0,59.95148047025666,
,,,C,G,d,b,L,G,d,L,i,,,,,5,19,119,12,1,0,1,0,,,,,0,35,35,16,,,,,,up,0.6838884469843833,2208.886929182823,None,001,68,2019_Oct_28_1107,ACPT_experiment_5_30_19,3.1.0,59.95148047025666,
,,,C,G,d,b,L,G,d,R,i,,,,,5,19,119,12,1,0,1,0,,,,,1,0,36,17,,,,,,up,0.917412008687279,2210.8385083399116,None,001,68,2019_Oct_28_1107,ACPT_experiment_5_30_19,3.1.0,59.95148047025666,
,,,C,G,d,b,R,D,g,R,i,,,,,5,19,119,12,1,0,1,0,,,,,1,1,37,3,,,,,,up,0.5337673216736221,2213.040292391218,None,001,68,2019_Oct_28_1107,ACPT_experiment_5_30_19,3.1.0,59.95148047025666,
,,,C,G,d,b,L,G,g,L,c ,,,,,5,19,119,12,1,0,1,0,,,,,1,2,38,18,,,,,,up,0.533762793625101,2214.85843145364,None,001,68,2019_Oct_28_1107,ACPT_experiment_5_30_19,3.1.0,59.95148047025666,
,,,C,G,d,b,L,D,g,L,i,,,,,5,19,119,12,1,0,1,0,,,,,1,3,39,14,,,,,,up,0.41700131464313017,2216.676567497362,None,001,68,2019_Oct_28_1107,ACPT_experiment_5_30_19,3.1.0,59.95148047025666,
,,,C,G,d,b,R,G,g,R,c ,,,,,5,19,119,12,1,0,1,0,,,,,1,4,40,7,,,,,,up,0.6338770513948475,2218.3779432695837,None,001,68,2019_Oct_28_1107,ACPT_experiment_5_30_19,3.1.0,59.95148047025666,
,,,C,G,d,b,R,D,g,L,i,,,,,5,19,119,12,1,0,1,0,,,,,1,5,41,2,,,,,,up,0.4501061827495505,2220.3131037209996,None,001,68,2019_Oct_28_1107,ACPT_experiment_5_30_19,3.1.0,59.95148047025666,
,,,C,G,d,b,R,G,d,L,i,,,,,5,19,119,12,1,0,1,0,,,,,1,6,42,4,,,,,,up,0.5003980155070167,2222.0475813426274,None,001,68,2019_Oct_28_1107,ACPT_experiment_5_30_19,3.1.0,59.95148047025666,
,,,C,G,d,b,L,D,y,R,y,,,,,5,19,119,12,1,0,1,0,,,,,1,7,43,33,,,,,,down,0.8840753044732992,2223.849038770665,None,001,68,2019_Oct_28_1107,ACPT_experiment_5_30_19,3.1.0,59.95148047025666,
,,,C,G,d,b,L,U,y,R,u,,,,,5,19,119,12,1,0,1,0,,,,,1,8,44,25,,,,,,down,0.6672131518698734,2226.0174538176734,None,001,68,2019_Oct_28_1107,ACPT_experiment_5_30_19,3.1.0,59.95148047025666,
,,,C,G,d,b,L,G,y,L,y,,,,,5,19,119,12,1,0,1,0,,,,,1,9,45,34,,,,,,down,0.7339306333078639,2227.9690347859823,None,001,68,2019_Oct_28_1107,ACPT_experiment_5_30_19,3.1.0,59.95148047025666,
,,,C,G,d,b,R,U,y,L,u,,,,,5,19,119,12,1,0,1,0,,,,,1,10,46,30,,,,,,down,0.6004935573409966,2229.9873305188994,None,001,68,2019_Oct_28_1107,ACPT_experiment_5_30_19,3.1.0,59.95148047025666,
,,,C,G,d,b,L,G,d,L,i,,,,,5,19,119,12,1,0,1,0,,,,,1,11,47,16,,,,,,up,0.5170736124928226,2231.8722036656063,None,001,68,2019_Oct_28_1107,ACPT_experiment_5_30_19,3.1.0,59.95148047025666,
,,,C,G,d,b,L,D,d,R,c ,,,,,5,19,119,12,1,0,1,0,,,,,1,12,48,13,,,,,,up,0.8003999776619821,2233.69060897731,None,001,68,2019_Oct_28_1107,ACPT_experiment_5_30_19,3.1.0,59.95148047025666,
,,,C,G,d,b,L,D,g,R,i,,,,,5,19,119,12,1,0,1,0,,,,,1,13,49,15,,,,,,up,0.6338882205827758,2235.7586543845855,None,001,68,2019_Oct_28_1107,ACPT_experiment_5_30_19,3.1.0,59.95148047025666,
,,,C,G,d,b,L,D,d,L,c ,,,,,5,19,119,12,1,0,1,0,,,,,1,14,50,12,,,,,,up,0.5671136857263264,2237.6768998561593,None,001,68,2019_Oct_28_1107,ACPT_experiment_5_30_19,3.1.0,59.95148047025666,
,,,C,G,d,b,R,G,y,R,y,,,,,5,19,119,12,1,0,1,0,,,,,1,15,51,29,,,,,,up,0.6672300565860496,2239.5283707928766,None,001,68,2019_Oct_28_1107,ACPT_experiment_5_30_19,3.1.0,59.95148047025666,
,,,C,G,d,b,L,U,g,L,u,,,,,5,19,119,12,1,0,1,0,,,,,1,16,52,22,,,,,,up,0.9174186498266863,2241.479970175251,None,001,68,2019_Oct_28_1107,ACPT_experiment_5_30_19,3.1.0,59.95148047025666,
,,,C,G,d,b,R,D,y,R,y,,,,,5,19,119,12,1,0,1,0,,,,,1,17,53,27,,,,,,down,0.8340134966047117,2243.6817557359063,None,001,68,2019_Oct_28_1107,ACPT_experiment_5_30_19,3.1.0,59.95148047025666,
,,,C,G,d,b,R,U,y,R,u,,,,,5,19,119,12,1,0,1,0,,,,,1,18,54,31,,,,,,down,0.6837021932360585,2245.8169753538295,None,001,68,2019_Oct_28_1107,ACPT_experiment_5_30_19,3.1.0,59.95148047025666,
,,,C,G,d,b,L,G,y,R,y,,,,,5,19,119,12,1,0,1,0,,,,,1,19,55,35,,,,,,down,0.6338489774916525,2247.8017565811424,None,001,68,2019_Oct_28_1107,ACPT_experiment_5_30_19,3.1.0,59.95148047025666,
,,,C,G,d,b,R,U,d,L,u,,,,,5,19,119,12,1,0,1,0,,,,,1,20,56,8,,,,,,up,0.6171540608302166,2249.719989977918,None,001,68,2019_Oct_28_1107,ACPT_experiment_5_30_19,3.1.0,59.95148047025666,
,,,C,G,d,b,L,D,y,L,y,,,,,5,19,119,12,1,0,1,0,,,,,1,21,57,32,,,,,,down,0.6338507887103333,2251.654876331435,None,001,68,2019_Oct_28_1107,ACPT_experiment_5_30_19,3.1.0,59.95148047025666,
,,,C,G,d,b,R,D,y,L,y,,,,,5,19,119,12,1,0,1,0,,,,,1,22,58,26,,,,,,down,0.6338462606618123,2253.5897741560093,None,001,68,2019_Oct_28_1107,ACPT_experiment_5_30_19,3.1.0,59.95148047025666,
,,,C,G,d,b,L,G,g,R,c ,,,,,5,19,119,12,1,0,1,0,,,,,1,23,59,19,,,,,,up,0.6171619094475318,2255.5079963835988,None,001,68,2019_Oct_28_1107,ACPT_experiment_5_30_19,3.1.0,59.95148047025666,
,,,C,G,d,b,L,U,d,R,u,,,,,5,19,119,12,1,0,1,0,,,,,1,24,60,21,,,,,,up,0.4670374635679764,2257.4095366749334,None,001,68,2019_Oct_28_1107,ACPT_experiment_5_30_19,3.1.0,59.95148047025666,
,,,C,G,d,b,R,G,g,L,c ,,,,,5,19,119,12,1,0,1,0,,,,,1,25,61,6,,,,,,up,0.617150740260513,2259.1776386828205,None,001,68,2019_Oct_28_1107,ACPT_experiment_5_30_19,3.1.0,59.95148047025666,
,,,C,G,d,b,L,U,y,L,u,,,,,5,19,119,12,1,0,1,0,,,,,1,26,62,24,,,,,,down,0.5838079986478988,2261.079171125537,None,001,68,2019_Oct_28_1107,ACPT_experiment_5_30_19,3.1.0,59.95148047025666,
,,,C,G,d,b,R,U,g,R,u,,,,,5,19,119,12,1,0,1,0,,,,,1,27,63,11,,,,,,up,0.5170850835493184,2262.947352676152,None,001,68,2019_Oct_28_1107,ACPT_experiment_5_30_19,3.1.0,59.95148047025666,
,,,C,G,d,b,R,U,d,R,u,,,,,5,19,119,12,1,0,1,0,,,,,1,28,64,9,,,,,,up,0.4336669499216441,2264.7321438651734,None,001,68,2019_Oct_28_1107,ACPT_experiment_5_30_19,3.1.0,59.95148047025666,
,,,C,G,d,b,L,U,d,L,u,,,,,5,19,119,12,1,0,1,0,,,,,1,29,65,20,,,,,,up,0.6669372427504641,2266.467134665687,None,001,68,2019_Oct_28_1107,ACPT_experiment_5_30_19,3.1.0,59.95148047025666,
,,,C,G,d,b,R,D,d,L,c,,,,,5,19,119,12,1,0,1,0,,,,,1,30,66,0,,,,,,up,0.4837203054321435,2268.4184433473147,None,001,68,2019_Oct_28_1107,ACPT_experiment_5_30_19,3.1.0,59.95148047025666,
,,,C,G,d,b,R,G,d,R,i,,,,,5,19,119,12,1,0,1,0,,,,,1,31,67,5,,,,,,up,0.533762793625101,2270.1865432421137,None,001,68,2019_Oct_28_1107,ACPT_experiment_5_30_19,3.1.0,59.95148047025666,
,,,C,G,d,b,R,G,y,L,y,,,,,5,19,119,12,1,0,1,0,,,,,1,32,68,28,,,,,,down,0.767316844191555,2271.9879762186865,None,001,68,2019_Oct_28_1107,ACPT_experiment_5_30_19,3.1.0,59.95148047025666,
,,,C,G,d,b,R,D,d,R,c ,,,,,5,19,119,12,1,0,1,0,,,,,1,33,69,1,,,,,,up,0.6505109903291668,2274.0396638980164,None,001,68,2019_Oct_28_1107,ACPT_experiment_5_30_19,3.1.0,59.95148047025666,
,,,C,G,d,b,R,U,g,L,u,,,,,5,19,119,12,1,0,1,0,,,,,1,34,70,10,,,,,,up,0.4503615647126935,2275.9745620244603,None,001,68,2019_Oct_28_1107,ACPT_experiment_5_30_19,3.1.0,59.95148047025666,
,,,C,G,d,b,L,U,g,R,u,,,,,5,19,119,12,1,0,1,0,,,,,1,35,71,23,,,,,,up,0.5171059125759712,2277.7092699728473,None,001,68,2019_Oct_28_1107,ACPT_experiment_5_30_19,3.1.0,59.95148047025666,
,,,C,G,d,b,,,,,,,,,,5,19,119,12,2,0,2,0,0,0,0,0,,,,,,,,,,,,,,001,68,2019_Oct_28_1107,ACPT_experiment_5_30_19,3.1.0,59.95148047025666,
,,,C,G,d,b,L,D,y,R,y,,,,,5,19,119,12,2,0,2,0,,,,,0,0,0,33,,,,,,down,0.8670806309692125,2285.3324197742922,None,001,68,2019_Oct_28_1107,ACPT_experiment_5_30_19,3.1.0,59.95148047025666,
,,,C,G,d,b,L,G,g,R,c ,,,,,5,19,119,12,2,0,2,0,,,,,0,1,1,19,,,,,,up,0.6004826900234548,2287.4838766740577,None,001,68,2019_Oct_28_1107,ACPT_experiment_5_30_19,3.1.0,59.95148047025666,
,,,C,G,d,b,R,G,y,L,y,,,,,5,19,119,12,2,0,2,0,,,,,0,2,2,28,,,,,,down,0.9507659194878215,2289.3854148523023,None,001,68,2019_Oct_28_1107,ACPT_experiment_5_30_19,3.1.0,59.95148047025666,
,,,C,G,d,b,R,G,g,L,c ,,,,,5,19,119,12,2,0,2,0,,,,,0,3,3,6,,,,,,up,0.45036005536348966,2291.6372407880617,None,001,68,2019_Oct_28_1107,ACPT_experiment_5_30_19,3.1.0,59.95148047025666,
,,,C,G,d,b,L,G,y,R,y,,,,,5,19,119,12,2,0,2,0,,,,,0,4,4,35,,,,,,down,0.7839652728825968,2293.371987979539,None,001,68,2019_Oct_28_1107,ACPT_experiment_5_30_19,3.1.0,59.95148047025666,
,,,C,G,d,b,L,D,g,R,i,,,,,5,19,119,12,2,0,2,0,,,,,0,5,5,15,,,,,,up,0.4837221166517338,2295.4403189557715,None,001,68,2019_Oct_28_1107,ACPT_experiment_5_30_19,3.1.0,59.95148047025666,
,,,C,G,d,b,L,U,y,R,u,,,,,5,19,119,12,2,0,2,0,,,,,0,6,6,25,,,,,,down,0.8673637849660736,2297.2084182468298,None,001,68,2019_Oct_28_1107,ACPT_experiment_5_30_19,3.1.0,59.95148047025666,
,,,C,G,d,b,R,U,d,L,u,,,,,5,19,119,12,2,0,2,0,,,,,0,7,7,8,,,,,,up,0.6338387139130646,2299.3601607155524,None,001,68,2019_Oct_28_1107,ACPT_experiment_5_30_19,3.1.0,59.95148047025666,
,,,C,G,d,b,R,U,y,L,u,,,,,5,19,119,12,2,0,2,0,,,,,0,8,8,30,,,,,,down,0.6338471662711527,2301.278375396393,None,001,68,2019_Oct_28_1107,ACPT_experiment_5_30_19,3.1.0,59.95148047025666,
,,,C,G,d,b,R,D,d,L,c,,,,,5,19,119,12,2,0,2,0,,,,,0,9,9,0,,,,,,up,0.5004016379461973,2303.1965946052824,None,001,68,2019_Oct_28_1107,ACPT_experiment_5_30_19,3.1.0,59.95148047025666,
,,,C,G,d,b,L,D,d,L,c ,,,,,5,19,119,12,2,0,2,0,,,,,0,10,10,12,,,,,,up,0.9171376089188925,2304.99832613122,None,001,68,2019_Oct_28_1107,ACPT_experiment_5_30_19,3.1.0,59.95148047025666,
,,,C,G,d,b,R,D,y,R,y,,,,,5,19,119,12,2,0,2,0,,,,,0,11,11,27,,,,,,down,0.8173336734407712,2307.1998348771467,None,001,68,2019_Oct_28_1107,ACPT_experiment_5_30_19,3.1.0,59.95148047025666,
,,,C,G,d,b,R,G,y,R,y,,,,,5,19,119,12,2,0,2,0,,,,,0,12,12,29,,,,,,down,0.6838899563344967,2309.301529725887,None,001,68,2019_Oct_28_1107,ACPT_experiment_5_30_19,3.1.0,59.95148047025666,
,,,C,G,d,b,L,G,y,L,y,,,,,5,19,119,12,2,0,2,0,,,,,0,13,13,34,,,,,,down,0.9007318836529521,2311.2697923285796,None,001,68,2019_Oct_28_1107,ACPT_experiment_5_30_19,3.1.0,59.95148047025666,
,,,C,G,d,b,L,G,d,R,i,,,,,5,19,119,12,2,0,2,0,,,,,0,14,14,17,,,,,,up,0.6672107369095102,2313.454895952981,None,001,68,2019_Oct_28_1107,ACPT_experiment_5_30_19,3.1.0,59.95148047025666,
,,,C,G,d,b,L,U,d,L,u,,,,,5,19,119,12,2,0,2,0,,,,,0,15,15,20,,,,,,up,0.6838863338953161,2315.406478128769,None,001,68,2019_Oct_28_1107,ACPT_experiment_5_30_19,3.1.0,59.95148047025666,
,,,C,G,d,b,R,U,y,R,u,,,,,5,19,119,12,2,0,2,0,,,,,0,16,16,31,,,,,,down,0.76728786467811,2317.3747325809727,None,001,68,2019_Oct_28_1107,ACPT_experiment_5_30_19,3.1.0,59.95148047025666,
,,,C,G,d,b,L,U,d,R,u,,,,,5,19,119,12,2,0,2,0,,,,,0,17,17,21,,,,,,up,0.6672113406502831,2319.4263964125776,None,001,68,2019_Oct_28_1107,ACPT_experiment_5_30_19,3.1.0,59.95148047025666,
,,,C,G,d,b,R,G,g,R,c ,,,,,5,19,119,12,2,0,2,0,,,,,0,18,18,7,,,,,,up,0.6671941340628109,2321.377978588366,None,001,68,2019_Oct_28_1107,ACPT_experiment_5_30_19,3.1.0,59.95148047025666,
,,,C,G,d,b,R,D,g,R,i,,,,,5,19,119,12,2,0,2,0,,,,,0,19,19,3,,,,,,up,0.6004911423815429,2323.329552311796,None,001,68,2019_Oct_28_1107,ACPT_experiment_5_30_19,3.1.0,59.95148047025666,
,,,C,G,d,b,L,D,y,L,y,,,,,5,19,119,12,2,0,2,0,,,,,0,20,20,32,,,,,,down,0.9340909262427886,2325.2144142893158,None,001,68,2019_Oct_28_1107,ACPT_experiment_5_30_19,3.1.0,59.95148047025666,
,,,C,G,d,b,L,U,g,R,u,,,,,5,19,119,12,2,0,2,0,,,,,0,21,21,23,,,,,,up,0.6838878432445199,2327.432873937607,None,001,68,2019_Oct_28_1107,ACPT_experiment_5_30_19,3.1.0,59.95148047025666,
,,,C,G,d,b,L,G,g,L,c ,,,,,5,19,119,12,2,0,2,0,,,,,0,22,22,18,,,,,,up,0.7677886668971041,2329.401144087047,None,001,68,2019_Oct_28_1107,ACPT_experiment_5_30_19,3.1.0,59.95148047025666,
,,,C,G,d,b,R,D,g,L,i,,,,,5,19,119,12,2,0,2,0,,,,,0,23,23,2,,,,,,up,0.5504685776040787,2331.4527970513345,None,001,68,2019_Oct_28_1107,ACPT_experiment_5_30_19,3.1.0,59.95148047025666,
,,,C,G,d,b,R,G,d,R,i,,,,,5,19,119,12,2,0,2,0,,,,,0,24,24,5,,,,,,up,0.8840417969113332,2333.287618351881,None,001,68,2019_Oct_28_1107,ACPT_experiment_5_30_19,3.1.0,59.95148047025666,
,,,C,G,d,b,R,U,g,R,u,,,,,5,19,119,12,2,0,2,0,,,,,0,25,25,11,,,,,,up,0.500413410873989,2335.456036719459,None,001,68,2019_Oct_28_1107,ACPT_experiment_5_30_19,3.1.0,59.95148047025666,
,,,C,G,d,b,R,U,d,R,u,,,,,5,19,119,12,2,0,2,0,,,,,0,26,26,9,,,,,,up,0.45035341422499187,2337.2408146262023,None,001,68,2019_Oct_28_1107,ACPT_experiment_5_30_19,3.1.0,59.95148047025666,
,,,C,G,d,b,R,D,y,L,y,,,,,5,19,119,12,2,0,2,0,,,,,0,27,27,26,,,,,,down,0.7339031631436228,2338.9922500932025,None,001,68,2019_Oct_28_1107,ACPT_experiment_5_30_19,3.1.0,59.95148047025666,
,,,C,G,d,b,L,D,g,L,i,,,,,5,19,119,12,2,0,2,0,,,,,0,28,28,14,,,,,,up,0.5837923014114494,2341.027226856764,None,001,68,2019_Oct_28_1107,ACPT_experiment_5_30_19,3.1.0,59.95148047025666,
,,,C,G,d,b,L,U,y,L,u,,,,,5,19,119,12,2,0,2,0,,,,,0,29,29,24,,,,,,down,0.8170559531017716,2342.912342706898,None,001,68,2019_Oct_28_1107,ACPT_experiment_5_30_19,3.1.0,59.95148047025666,
,,,C,G,d,b,R,U,g,L,u,,,,,5,19,119,12,2,0,2,0,,,,,0,30,30,10,,,,,,up,1.0508379154671275,2345.013772211967,None,001,68,2019_Oct_28_1107,ACPT_experiment_5_30_19,3.1.0,59.95148047025666,
,,,C,G,d,b,R,G,d,L,i,,,,,5,19,119,12,2,0,2,0,,,,,0,31,31,4,,,,,,up,1.1509349666512207,2347.34899303737,None,001,68,2019_Oct_28_1107,ACPT_experiment_5_30_19,3.1.0,59.95148047025666,
,,,C,G,d,b,L,U,g,L,u,,,,,5,19,119,12,2,0,2,0,,,,,0,32,32,22,,,,,,up,1.1342518229175766,2349.7843003485086,None,001,68,2019_Oct_28_1107,ACPT_experiment_5_30_19,3.1.0,59.95148047025666,
,,,C,G,d,b,R,D,d,R,c ,,,,,5,19,119,12,2,0,2,0,,,,,0,33,33,1,,,,,,up,0.7506095508633734,2352.2029214972144,None,001,68,2019_Oct_28_1107,ACPT_experiment_5_30_19,3.1.0,59.95148047025666,
,,,C,G,d,b,L,D,d,R,c ,,,,,5,19,119,12,2,0,2,0,,,,,0,34,34,13,,,,,,up,0.5337673216736221,2354.237904600045,None,001,68,2019_Oct_28_1107,ACPT_experiment_5_30_19,3.1.0,59.95148047025666,
,,,C,G,d,b,L,G,d,L,i,,,,,5,19,119,12,2,0,2,0,,,,,0,35,35,16,,,,,,up,0.850685471151337,2356.0560424549876,None,001,68,2019_Oct_28_1107,ACPT_experiment_5_30_19,3.1.0,59.95148047025666,
,,,C,G,d,b,L,U,d,L,u,,,,,5,19,119,12,2,0,2,0,,,,,1,0,36,20,,,,,,up,0.6004820862835913,2358.191106911765,None,001,68,2019_Oct_28_1107,ACPT_experiment_5_30_19,3.1.0,59.95148047025666,
,,,C,G,d,b,R,D,g,L,i,,,,,5,19,119,12,2,0,2,0,,,,,1,1,37,2,,,,,,up,0.5004209576227368,2360.0759474565193,None,001,68,2019_Oct_28_1107,ACPT_experiment_5_30_19,3.1.0,59.95148047025666,
,,,C,G,d,b,R,D,y,L,y,,,,,5,19,119,12,2,0,2,0,,,,,1,2,38,26,,,,,,down,0.6305130128585006,2361.880750509028,None,001,68,2019_Oct_28_1107,ACPT_experiment_5_30_19,3.1.0,59.95148047025666,
,,,C,G,d,b,L,U,d,R,u,,,,,5,19,119,12,2,0,2,0,,,,,1,3,39,21,,,,,,up,0.5504676719938288,2363.7956213766174,None,001,68,2019_Oct_28_1107,ACPT_experiment_5_30_19,3.1.0,59.95148047025666,
,,,C,G,d,b,R,U,y,R,u,,,,,5,19,119,12,2,0,2,0,,,,,1,4,40,31,,,,,,down,0.6505269894360026,2365.630453846351,None,001,68,2019_Oct_28_1107,ACPT_experiment_5_30_19,3.1.0,59.95148047025666,
,,,C,G,d,b,L,U,y,L,u,,,,,5,19,119,12,2,0,2,0,,,,,1,5,41,24,,,,,,down,0.733944217455246,2367.5653365774288,None,001,68,2019_Oct_28_1107,ACPT_experiment_5_30_19,3.1.0,59.95148047025666,
,,,C,G,d,b,R,G,y,R,y,,,,,5,19,119,12,2,0,2,0,,,,,1,6,42,29,,,,,,down,0.8171404766826527,2369.6004917461214,None,001,68,2019_Oct_28_1107,ACPT_experiment_5_30_19,3.1.0,59.95148047025666,
,,,C,G,d,b,R,D,d,R,c ,,,,,5,19,119,12,2,0,2,0,,,,,1,7,43,1,,,,,,up,0.7672652244327764,2371.718723935418,None,001,68,2019_Oct_28_1107,ACPT_experiment_5_30_19,3.1.0,59.95148047025666,
,,,C,G,d,b,L,G,y,L,y,,,,,5,19,119,12,2,0,2,0,,,,,1,8,44,34,,,,,,down,0.7839528962158511,2373.787066986448,None,001,68,2019_Oct_28_1107,ACPT_experiment_5_30_19,3.1.0,59.95148047025666,
,,,C,G,d,b,R,D,y,R,y,,,,,5,19,119,12,2,0,2,0,,,,,1,9,45,27,,,,,,down,0.6003595270913138,2375.8720871438127,None,001,68,2019_Oct_28_1107,ACPT_experiment_5_30_19,3.1.0,59.95148047025666,
,,,C,G,d,b,R,U,y,L,u,,,,,5,19,119,12,2,0,2,0,,,,,1,10,46,30,,,,,,down,0.5337561524866032,2377.773625925797,None,001,68,2019_Oct_28_1107,ACPT_experiment_5_30_19,3.1.0,59.95148047025666,
,,,C,G,d,b,L,G,y,R,y,,,,,5,19,119,12,2,0,2,0,,,,,1,11,47,35,,,,,,down,0.4837193998218936,2379.608443302034,None,001,68,2019_Oct_28_1107,ACPT_experiment_5_30_19,3.1.0,59.95148047025666,
,,,C,G,d,b,L,G,g,R,c ,,,,,5,19,119,12,2,0,2,0,,,,,1,12,48,19,,,,,,up,0.7139359764059918,2381.396547513573,None,001,68,2019_Oct_28_1107,ACPT_experiment_5_30_19,3.1.0,59.95148047025666,
,,,C,G,d,b,R,U,d,L,u,,,,,5,19,119,12,2,0,2,0,,,,,1,13,49,8,,,,,,up,0.500224440295824,2383.394987147888,None,001,68,2019_Oct_28_1107,ACPT_experiment_5_30_19,3.1.0,59.95148047025666,
,,,C,G,d,b,L,D,g,R,i,,,,,5,19,119,12,2,0,2,0,,,,,1,14,50,15,,,,,,up,0.6004751432747071,2385.179620760803,None,001,68,2019_Oct_28_1107,ACPT_experiment_5_30_19,3.1.0,59.95148047025666,
,,,C,G,d,b,R,G,g,R,c ,,,,,5,19,119,12,2,0,2,0,,,,,1,15,51,7,,,,,,up,0.5003989211163571,2387.04779506654,None,001,68,2019_Oct_28_1107,ACPT_experiment_5_30_19,3.1.0,59.95148047025666,
,,,C,G,d,b,R,G,g,L,c ,,,,,5,19,119,12,2,0,2,0,,,,,1,16,52,6,,,,,,up,0.5504353719115898,2388.832574180763,None,001,68,2019_Oct_28_1107,ACPT_experiment_5_30_19,3.1.0,59.95148047025666,
,,,C,G,d,b,L,D,d,R,c ,,,,,5,19,119,12,2,0,2,0,,,,,1,17,53,13,,,,,,up,0.45036760211132787,2390.6673855196013,None,001,68,2019_Oct_28_1107,ACPT_experiment_5_30_19,3.1.0,59.95148047025666,
,,,C,G,d,b,L,U,g,L,u,,,,,5,19,119,12,2,0,2,0,,,,,1,18,54,22,,,,,,up,0.6672200948778482,2392.40212667368,None,001,68,2019_Oct_28_1107,ACPT_experiment_5_30_19,3.1.0,59.95148047025666,
,,,C,G,d,b,L,D,d,L,c ,,,,,5,19,119,12,2,0,2,0,,,,,1,19,55,12,,,,,,up,0.7169730898049238,2394.370669411671,None,001,68,2019_Oct_28_1107,ACPT_experiment_5_30_19,3.1.0,59.95148047025666,
,,,C,G,d,b,R,U,g,L,u,,,,,5,19,119,12,2,0,2,0,,,,,1,20,56,10,,,,,,up,0.5003925818482458,2396.372019374013,None,001,68,2019_Oct_28_1107,ACPT_experiment_5_30_19,3.1.0,59.95148047025666,
,,,C,G,d,b,L,U,y,R,u,,,,,5,19,119,12,2,0,2,0,,,,,1,21,57,25,,,,,,down,0.6672231135771653,2398.156786111568,None,001,68,2019_Oct_28_1107,ACPT_experiment_5_30_19,3.1.0,59.95148047025666,
,,,C,G,d,b,L,G,g,L,c ,,,,,5,19,119,12,2,0,2,0,,,,,1,22,58,18,,,,,,up,0.567160173695811,2400.108359834998,None,001,68,2019_Oct_28_1107,ACPT_experiment_5_30_19,3.1.0,59.95148047025666,
,,,C,G,d,b,R,G,d,L,i,,,,,5,19,119,12,2,0,2,0,,,,,1,23,59,4,,,,,,up,0.6505248763460258,2401.9598618643186,None,001,68,2019_Oct_28_1107,ACPT_experiment_5_30_19,3.1.0,59.95148047025666,
,,,C,G,d,b,L,G,d,R,i,,,,,5,19,119,12,2,0,2,0,,,,,1,24,60,17,,,,,,up,0.917435252672476,2403.894766631902,None,001,68,2019_Oct_28_1107,ACPT_experiment_5_30_19,3.1.0,59.95148047025666,
,,,C,G,d,b,R,G,d,R,i,,,,,5,19,119,12,2,0,2,0,,,,,1,25,61,5,,,,,,up,0.6505251782164123,2406.09653951402,None,001,68,2019_Oct_28_1107,ACPT_experiment_5_30_19,3.1.0,59.95148047025666,
,,,C,G,d,b,L,D,y,L,y,,,,,5,19,119,12,2,0,2,0,,,,,1,26,62,32,,,,,,down,0.6838730516183205,2408.031447300302,None,001,68,2019_Oct_28_1107,ACPT_experiment_5_30_19,3.1.0,59.95148047025666,
,,,C,G,d,b,L,G,d,L,i,,,,,5,19,119,12,2,0,2,0,,,,,1,27,63,16,,,,,,up,0.9841593752498738,2409.9997008468963,None,001,68,2019_Oct_28_1107,ACPT_experiment_5_30_19,3.1.0,59.95148047025666,
,,,C,G,d,b,R,U,g,R,u,,,,,5,19,119,12,2,0,2,0,,,,,1,28,64,11,,,,,,up,2.735546844930468,2412.2682057002103,None,001,68,2019_Oct_28_1107,ACPT_experiment_5_30_19,3.1.0,59.95148047025666,
,,,C,G,d,b,R,D,d,L,c,,,,,5,19,119,12,2,0,2,0,,,,,1,29,65,0,,,,,,up,1.5012178942461105,2416.2881173428805,None,001,68,2019_Oct_28_1107,ACPT_experiment_5_30_19,3.1.0,59.95148047025666,
,,,C,G,d,b,L,U,g,R,u,,,,,5,19,119,12,2,0,2,0,,,,,1,30,66,23,,,,,,up,0.7672842422380199,2419.090393140308,None,001,68,2019_Oct_28_1107,ACPT_experiment_5_30_19,3.1.0,59.95148047025666,
,,,C,G,d,b,R,U,d,R,u,,,,,5,19,119,12,2,0,2,0,,,,,1,31,67,9,,,,,,up,0.7672869590678602,2421.142054858823,None,001,68,2019_Oct_28_1107,ACPT_experiment_5_30_19,3.1.0,59.95148047025666,
,,,C,G,d,b,R,D,g,R,i,,,,,5,19,119,12,2,0,2,0,,,,,1,32,68,3,,,,,,up,0.48372453161118756,2423.1937114455495,None,001,68,2019_Oct_28_1107,ACPT_experiment_5_30_19,3.1.0,59.95148047025666,
,,,C,G,d,b,L,D,g,L,i,,,,,5,19,119,12,2,0,2,0,,,,,1,33,69,14,,,,,,up,0.6336162357720241,2424.9787625445824,None,001,68,2019_Oct_28_1107,ACPT_experiment_5_30_19,3.1.0,59.95148047025666,
,,,C,G,d,b,L,D,y,R,y,,,,,5,19,119,12,2,0,2,0,,,,,1,34,70,33,,,,,,down,0.8340358349796588,2426.8800042865532,None,001,68,2019_Oct_28_1107,ACPT_experiment_5_30_19,3.1.0,59.95148047025666,
,,,C,G,d,b,R,G,y,L,y,,,,,5,19,119,12,2,0,2,0,,,,,1,35,71,28,,,,,,down,0.5837805284845672,2428.981755283101,None,001,68,2019_Oct_28_1107,ACPT_experiment_5_30_19,3.1.0,59.95148047025666,
,,,C,G,d,b,,,,,,,,,,5,19,119,12,3,0,3,0,0,0,0,0,,,,,,,,,,,,,,001,68,2019_Oct_28_1107,ACPT_experiment_5_30_19,3.1.0,59.95148047025666,
,,,C,G,d,b,R,D,y,R,y,,,,,5,19,119,12,3,0,3,0,,,,,0,0,0,27,,,,,,down,0.6668098536383695,2433.402347038732,None,001,68,2019_Oct_28_1107,ACPT_experiment_5_30_19,3.1.0,59.95148047025666,
,,,C,G,d,b,R,G,d,L,i,,,,,5,19,119,12,3,0,3,0,,,,,0,1,1,4,,,,,,up,0.7339119173720974,2435.3535687818194,None,001,68,2019_Oct_28_1107,ACPT_experiment_5_30_19,3.1.0,59.95148047025666,
,,,C,G,d,b,R,G,g,L,c ,,,,,5,19,119,12,3,0,3,0,,,,,0,2,2,6,,,,,,up,0.6338903336718431,2437.3551560139285,None,001,68,2019_Oct_28_1107,ACPT_experiment_5_30_19,3.1.0,59.95148047025666,
,,,C,G,d,b,L,U,g,L,u,,,,,5,19,119,12,3,0,3,0,,,,,0,3,3,22,,,,,,up,0.5504459373587451,2439.2733933350137,None,001,68,2019_Oct_28_1107,ACPT_experiment_5_30_19,3.1.0,59.95148047025666,
,,,C,G,d,b,L,U,g,R,u,,,,,5,19,119,12,3,0,3,0,,,,,0,4,4,23,,,,,,up,0.7005875898248632,2441.0915136815,None,001,68,2019_Oct_28_1107,ACPT_experiment_5_30_19,3.1.0,59.95148047025666,
,,,C,G,d,b,R,U,d,R,u,,,,,5,19,119,12,3,0,3,0,,,,,0,5,5,9,,,,,,up,0.5671230436937549,2443.076471804594,None,001,68,2019_Oct_28_1107,ACPT_experiment_5_30_19,3.1.0,59.95148047025666,
,,,C,G,d,b,R,U,y,R,u,,,,,5,19,119,12,3,0,3,0,,,,,0,6,6,31,,,,,,up,0.6171567776591473,2444.9279738339146,None,001,68,2019_Oct_28_1107,ACPT_experiment_5_30_19,3.1.0,59.95148047025666,
,,,C,G,d,b,R,U,g,R,u,,,,,5,19,119,12,3,0,3,0,,,,,0,7,7,11,,,,,,up,0.5670943660506964,2446.829542501023,None,001,68,2019_Oct_28_1107,ACPT_experiment_5_30_19,3.1.0,59.95148047025666,
,,,C,G,d,b,R,D,d,R,c ,,,,,5,19,119,12,3,0,3,0,,,,,0,8,8,1,,,,,,up,0.9174141217772558,2448.681007098472,None,001,68,2019_Oct_28_1107,ACPT_experiment_5_30_19,3.1.0,59.95148047025666,
,,,C,G,d,b,R,G,g,R,c ,,,,,5,19,119,12,3,0,3,0,,,,,0,9,9,7,,,,,,up,0.500389865019315,2450.8828017152255,None,001,68,2019_Oct_28_1107,ACPT_experiment_5_30_19,3.1.0,59.95148047025666,
,,,C,G,d,b,L,G,d,L,i,,,,,5,19,119,12,3,0,3,0,,,,,0,10,10,16,,,,,,up,0.6669387520996679,2452.684519053276,None,001,68,2019_Oct_28_1107,ACPT_experiment_5_30_19,3.1.0,59.95148047025666,
,,,C,G,d,b,R,D,g,R,i,,,,,5,19,119,12,3,0,3,0,,,,,0,11,11,3,,,,,,up,0.6838890507242468,2454.635825319944,None,001,68,2019_Oct_28_1107,ACPT_experiment_5_30_19,3.1.0,59.95148047025666,
,,,C,G,d,b,L,D,g,L,i,,,,,5,19,119,12,3,0,3,0,,,,,0,12,12,14,,,,,,up,0.550446842968995,2456.604089733856,None,001,68,2019_Oct_28_1107,ACPT_experiment_5_30_19,3.1.0,59.95148047025666,
,,,C,G,d,b,R,G,y,L,y,,,,,5,19,119,12,3,0,3,0,,,,,0,13,13,28,,,,,,down,0.5004037510352646,2458.438910430663,None,001,68,2019_Oct_28_1107,ACPT_experiment_5_30_19,3.1.0,59.95148047025666,
,,,C,G,d,b,L,D,d,R,c ,,,,,5,19,119,12,3,0,3,0,,,,,0,14,14,13,,,,,,up,0.8673740485428425,2460.223681998137,None,001,68,2019_Oct_28_1107,ACPT_experiment_5_30_19,3.1.0,59.95148047025666,
,,,C,G,d,b,R,D,d,L,c,,,,,5,19,119,12,3,0,3,0,,,,,0,15,15,0,,,,,,up,0.8340131947352347,2462.375422353771,None,001,68,2019_Oct_28_1107,ACPT_experiment_5_30_19,3.1.0,59.95148047025666,
,,,C,G,d,b,L,U,d,R,u,,,,,5,19,119,12,3,0,3,0,,,,,0,16,16,21,,,,,,up,0.617174587984664,2464.4938030630747,None,001,68,2019_Oct_28_1107,ACPT_experiment_5_30_19,3.1.0,59.95148047025666,
,,,C,G,d,b,R,D,g,L,i,,,,,5,19,119,12,3,0,3,0,,,,,0,17,17,2,,,,,,up,0.6505568745596975,2466.395348788068,None,001,68,2019_Oct_28_1107,ACPT_experiment_5_30_19,3.1.0,59.95148047025666,
,,,C,G,d,b,L,G,g,L,c ,,,,,5,19,119,12,3,0,3,0,,,,,0,18,18,18,,,,,,up,0.4336811378079801,2468.330244197683,None,001,68,2019_Oct_28_1107,ACPT_experiment_5_30_19,3.1.0,59.95148047025666,
,,,C,G,d,b,L,U,d,L,u,,,,,5,19,119,12,3,0,3,0,,,,,0,19,19,20,,,,,,up,0.5838076967784218,2470.048298585589,None,001,68,2019_Oct_28_1107,ACPT_experiment_5_30_19,3.1.0,59.95148047025666,
,,,C,G,d,b,L,U,y,R,u,,,,,5,19,119,12,3,0,3,0,,,,,0,20,20,25,,,,,,down,0.6502537971464335,2471.9167554415826,None,001,68,2019_Oct_28_1107,ACPT_experiment_5_30_19,3.1.0,59.95148047025666,
,,,C,G,d,b,L,D,y,L,y,,,,,5,19,119,12,3,0,3,0,,,,,0,21,21,32,,,,,,down,0.8673677092747312,2473.8513779607783,None,001,68,2019_Oct_28_1107,ACPT_experiment_5_30_19,3.1.0,59.95148047025666,
,,,C,G,d,b,R,G,y,R,y,,,,,5,19,119,12,3,0,3,0,,,,,0,22,22,29,,,,,,down,0.6672116425197601,2476.003118920151,None,001,68,2019_Oct_28_1107,ACPT_experiment_5_30_19,3.1.0,59.95148047025666,
,,,C,G,d,b,L,D,g,R,i,,,,,5,19,119,12,3,0,3,0,,,,,0,23,23,15,,,,,,up,0.6838815039764086,2477.9547074352076,None,001,68,2019_Oct_28_1107,ACPT_experiment_5_30_19,3.1.0,59.95148047025666,
,,,C,G,d,b,L,G,g,R,c ,,,,,5,19,119,12,3,0,3,0,,,,,0,24,24,19,,,,,,up,0.6004893311619526,2479.9229585668427,None,001,68,2019_Oct_28_1107,ACPT_experiment_5_30_19,3.1.0,59.95148047025666,
,,,C,G,d,b,R,G,d,R,i,,,,,5,19,119,12,3,0,3,0,,,,,0,25,25,5,,,,,,up,0.8840559847976692,2481.8078169219234,None,001,68,2019_Oct_28_1107,ACPT_experiment_5_30_19,3.1.0,59.95148047025666,
,,,C,G,d,b,R,U,y,L,u,,,,,5,19,119,12,3,0,3,0,,,,,0,26,26,30,,,,,,down,0.7005595159216682,2483.9762467605588,None,001,68,2019_Oct_28_1107,ACPT_experiment_5_30_19,3.1.0,59.95148047025666,
,,,C,G,d,b,L,G,y,L,y,,,,,5,19,119,12,3,0,3,0,,,,,0,27,27,34,,,,,,down,0.9007098471474819,2485.977875348849,None,001,68,2019_Oct_28_1107,ACPT_experiment_5_30_19,3.1.0,59.95148047025666,
,,,C,G,d,b,L,G,y,R,y,,,,,5,19,119,12,3,0,3,0,,,,,0,28,28,35,,,,,,down,0.8008192749985028,2488.1628129447863,None,001,68,2019_Oct_28_1107,ACPT_experiment_5_30_19,3.1.0,59.95148047025666,
,,,C,G,d,b,L,G,d,R,i,,,,,5,19,119,12,3,0,3,0,,,,,0,29,29,17,,,,,,up,0.6338435438328816,2490.264662652803,None,001,68,2019_Oct_28_1107,ACPT_experiment_5_30_19,3.1.0,59.95148047025666,
,,,C,G,d,b,L,D,y,R,y,,,,,5,19,119,12,3,0,3,0,,,,,0,30,30,33,,,,,,down,0.6004860105931584,2492.182882465432,None,001,68,2019_Oct_28_1107,ACPT_experiment_5_30_19,3.1.0,59.95148047025666,
,,,C,G,d,b,L,U,y,L,u,,,,,5,19,119,12,3,0,3,0,,,,,0,31,31,24,,,,,,down,0.7672881665484965,2494.0677399149026,None,001,68,2019_Oct_28_1107,ACPT_experiment_5_30_19,3.1.0,59.95148047025666,
,,,C,G,d,b,R,D,y,L,y,,,,,5,19,119,12,3,0,3,0,,,,,0,32,32,26,,,,,,down,0.4837260409613009,2496.1193989165886,None,001,68,2019_Oct_28_1107,ACPT_experiment_5_30_19,3.1.0,59.95148047025666,
,,,C,G,d,b,L,D,d,L,c ,,,,,5,19,119,12,3,0,3,0,,,,,0,33,33,12,,,,,,up,0.5000566006128793,2497.92120379692,None,001,68,2019_Oct_28_1107,ACPT_experiment_5_30_19,3.1.0,59.95148047025666,
,,,C,G,d,b,R,U,g,L,u,,,,,5,19,119,12,3,0,3,0,,,,,0,34,34,10,,,,,,up,0.5337582655756705,2499.722318602584,None,001,68,2019_Oct_28_1107,ACPT_experiment_5_30_19,3.1.0,59.95148047025666,
,,,C,G,d,b,R,U,d,L,u,,,,,5,19,119,12,3,0,3,0,,,,,0,35,35,8,,,,,,up,0.450366394631601,2501.5404528350873,None,001,68,2019_Oct_28_1107,ACPT_experiment_5_30_19,3.1.0,59.95148047025666,
,,,C,G,d,b,R,G,y,R,y,,,,,5,19,119,12,3,0,3,0,,,,,1,0,36,29,,,,,,down,0.6005119714072862,2503.2751936872965,None,001,68,2019_Oct_28_1107,ACPT_experiment_5_30_19,3.1.0,59.95148047025666,
,,,C,G,d,b,R,D,d,R,c ,,,,,5,19,119,12,3,0,3,0,,,,,1,1,37,1,,,,,,up,0.7002996059090947,2505.1770008316516,None,001,68,2019_Oct_28_1107,ACPT_experiment_5_30_19,3.1.0,59.95148047025666,
,,,C,G,d,b,R,U,g,L,u,,,,,5,19,119,12,3,0,3,0,,,,,1,2,38,10,,,,,,up,0.7005643458405757,2507.1616742913984,None,001,68,2019_Oct_28_1107,ACPT_experiment_5_30_19,3.1.0,59.95148047025666,
,,,C,G,d,b,R,U,d,R,u,,,,,5,19,119,12,3,0,3,0,,,,,1,3,39,9,,,,,,up,0.5671272698737084,2509.146609774247,None,001,68,2019_Oct_28_1107,ACPT_experiment_5_30_19,3.1.0,59.95148047025666,
,,,C,G,d,b,R,G,d,L,i,,,,,5,19,119,12,3,0,3,0,,,,,1,4,40,4,,,,,,up,0.5671206287352106,2510.9981090867377,None,001,68,2019_Oct_28_1107,ACPT_experiment_5_30_19,3.1.0,59.95148047025666,
,,,C,G,d,b,L,G,g,L,c ,,,,,5,19,119,12,3,0,3,0,,,,,1,5,41,18,,,,,,up,0.4003272270074376,2512.8496083992295,None,001,68,2019_Oct_28_1107,ACPT_experiment_5_30_19,3.1.0,59.95148047025666,
,,,C,G,d,b,L,G,d,R,i,,,,,5,19,119,12,3,0,3,0,,,,,1,6,42,17,,,,,,up,0.5004064678651048,2514.5343037445455,None,001,68,2019_Oct_28_1107,ACPT_experiment_5_30_19,3.1.0,59.95148047025666,
,,,C,G,d,b,R,G,d,R,i,,,,,5,19,119,12,3,0,3,0,,,,,1,7,43,5,,,,,,up,0.4837260409603914,2516.319079840069,None,001,68,2019_Oct_28_1107,ACPT_experiment_5_30_19,3.1.0,59.95148047025666,
,,,C,G,d,b,L,U,y,L,u,,,,,5,19,119,12,3,0,3,0,,,,,1,8,44,24,,,,,,down,0.6838854282859756,2518.103881896407,None,001,68,2019_Oct_28_1107,ACPT_experiment_5_30_19,3.1.0,59.95148047025666,
,,,C,G,d,b,L,G,y,R,y,,,,,5,19,119,12,3,0,3,0,,,,,1,9,45,35,,,,,,down,0.6338613541583982,2520.0720992186098,None,001,68,2019_Oct_28_1107,ACPT_experiment_5_30_19,3.1.0,59.95148047025666,
,,,C,G,d,b,L,D,y,L,y,,,,,5,19,119,12,3,0,3,0,,,,,1,10,46,32,,,,,,down,0.45036005536258017,2521.9903392565247,None,001,68,2019_Oct_28_1107,ACPT_experiment_5_30_19,3.1.0,59.95148047025666,
,,,C,G,d,b,L,U,y,R,u,,,,,5,19,119,12,3,0,3,0,,,,,1,11,47,25,,,,,,down,0.7005613271412585,2523.7250813162136,None,001,68,2019_Oct_28_1107,ACPT_experiment_5_30_19,3.1.0,59.95148047025666,
,,,C,G,d,b,R,G,g,L,c ,,,,,5,19,119,12,3,0,3,0,,,,,1,12,48,6,,,,,,up,0.7172426596553123,2525.710020119631,None,001,68,2019_Oct_28_1107,ACPT_experiment_5_30_19,3.1.0,59.95148047025666,
,,,C,G,d,b,R,G,y,L,y,,,,,5,19,119,12,3,0,3,0,,,,,1,13,49,28,,,,,,up,0.6171942095306804,2527.694932962235,None,001,68,2019_Oct_28_1107,ACPT_experiment_5_30_19,3.1.0,59.95148047025666,
,,,C,G,d,b,R,G,g,R,c ,,,,,5,19,119,12,3,0,3,0,,,,,1,14,50,7,,,,,,up,0.9507719568864559,2529.579817579999,None,001,68,2019_Oct_28_1107,ACPT_experiment_5_30_19,3.1.0,59.95148047025666,
,,,C,G,d,b,R,D,y,R,y,,,,,5,19,119,12,3,0,3,0,,,,,1,15,51,27,,,,,,down,0.8340125909953713,2531.8149567495857,None,001,68,2019_Oct_28_1107,ACPT_experiment_5_30_19,3.1.0,59.95148047025666,
,,,C,G,d,b,L,D,g,L,i,,,,,5,19,119,12,3,0,3,0,,,,,1,16,52,14,,,,,,up,0.7839465569468302,2533.933339873849,None,001,68,2019_Oct_28_1107,ACPT_experiment_5_30_19,3.1.0,59.95148047025666,
,,,C,G,d,b,L,D,y,R,y,,,,,5,19,119,12,3,0,3,0,,,,,1,17,53,33,,,,,,down,0.6171631169281682,2536.001680811789,None,001,68,2019_Oct_28_1107,ACPT_experiment_5_30_19,3.1.0,59.95148047025666,
,,,C,G,d,b,L,U,d,L,u,,,,,5,19,119,12,3,0,3,0,,,,,1,18,54,20,,,,,,up,0.5838037724688547,2537.903217782554,None,001,68,2019_Oct_28_1107,ACPT_experiment_5_30_19,3.1.0,59.95148047025666,
,,,C,G,d,b,R,U,y,L,u,,,,,5,19,119,12,3,0,3,0,,,,,1,19,55,30,,,,,,down,0.6505263856961392,2539.7713984275597,None,001,68,2019_Oct_28_1107,ACPT_experiment_5_30_19,3.1.0,59.95148047025666,
,,,C,G,d,b,L,D,g,R,i,,,,,5,19,119,12,3,0,3,0,,,,,1,20,56,15,,,,,,up,0.6171597963584645,2541.706299572703,None,001,68,2019_Oct_28_1107,ACPT_experiment_5_30_19,3.1.0,59.95148047025666,
,,,C,G,d,b,L,G,g,R,c ,,,,,5,19,119,12,3,0,3,0,,,,,1,21,57,19,,,,,,up,0.4837212110414839,2543.6078371472086,None,001,68,2019_Oct_28_1107,ACPT_experiment_5_30_19,3.1.0,59.95148047025666,
,,,C,G,d,b,R,U,g,R,u,,,,,5,19,119,12,3,0,3,0,,,,,1,22,58,11,,,,,,up,0.5170911209488622,2545.3759291933884,None,001,68,2019_Oct_28_1107,ACPT_experiment_5_30_19,3.1.0,59.95148047025666,
,,,C,G,d,b,L,U,g,L,u,,,,,5,19,119,12,3,0,3,0,,,,,1,23,59,22,,,,,,up,0.5170727068825727,2547.177399903703,None,001,68,2019_Oct_28_1107,ACPT_experiment_5_30_19,3.1.0,59.95148047025666,
,,,C,G,d,b,R,D,d,L,c,,,,,5,19,119,12,3,0,3,0,,,,,1,24,60,0,,,,,,up,0.6834836394045851,2548.995906643705,None,001,68,2019_Oct_28_1107,ACPT_experiment_5_30_19,3.1.0,59.95148047025666,
,,,C,G,d,b,L,G,y,L,y,,,,,5,19,119,12,3,0,3,0,,,,,1,25,61,34,,,,,,down,0.600485708722772,2550.963787079061,None,001,68,2019_Oct_28_1107,ACPT_experiment_5_30_19,3.1.0,59.95148047025666,
,,,C,G,d,b,L,U,g,R,u,,,,,5,19,119,12,3,0,3,0,,,,,1,26,62,23,,,,,,up,0.6338833906638683,2552.848645434142,None,001,68,2019_Oct_28_1107,ACPT_experiment_5_30_19,3.1.0,59.95148047025666,
,,,C,G,d,b,L,D,d,R,c ,,,,,5,19,119,12,3,0,3,0,,,,,1,27,63,13,,,,,,up,0.467041086007157,2554.7668649449015,None,001,68,2019_Oct_28_1107,ACPT_experiment_5_30_19,3.1.0,59.95148047025666,
,,,C,G,d,b,R,D,g,R,i,,,,,5,19,119,12,3,0,3,0,,,,,1,28,64,3,,,,,,up,0.7172517157532639,2556.518280488486,None,001,68,2019_Oct_28_1107,ACPT_experiment_5_30_19,3.1.0,59.95148047025666,
,,,C,G,d,b,R,D,y,L,y,,,,,5,19,119,12,3,0,3,0,,,,,1,29,65,26,,,,,,down,0.8173542005952186,2558.5031978591387,None,001,68,2019_Oct_28_1107,ACPT_experiment_5_30_19,3.1.0,59.95148047025666,
,,,C,G,d,b,R,U,d,L,u,,,,,5,19,119,12,3,0,3,0,,,,,1,30,66,8,,,,,,up,0.8006463035271736,2560.604924706092,None,001,68,2019_Oct_28_1107,ACPT_experiment_5_30_19,3.1.0,59.95148047025666,
,,,C,G,d,b,L,U,d,R,u,,,,,5,19,119,12,3,0,3,0,,,,,1,31,67,21,,,,,,up,0.6505218576476182,2562.6899466746763,None,001,68,2019_Oct_28_1107,ACPT_experiment_5_30_19,3.1.0,59.95148047025666,
,,,C,G,d,b,R,U,y,R,u,,,,,5,19,119,12,3,0,3,0,,,,,1,32,68,31,,,,,,down,0.6505170277278012,2564.62484812169,None,001,68,2019_Oct_28_1107,ACPT_experiment_5_30_19,3.1.0,59.95148047025666,
,,,C,G,d,b,L,G,d,L,i,,,,,5,19,119,12,3,0,3,0,,,,,1,33,69,16,,,,,,up,0.5504583140264003,2566.5597420219556,None,001,68,2019_Oct_28_1107,ACPT_experiment_5_30_19,3.1.0,59.95148047025666,
,,,C,G,d,b,R,D,g,L,i,,,,,5,19,119,12,3,0,3,0,,,,,1,34,70,2,,,,,,up,0.5838028668586048,2568.3945609075417,None,001,68,2019_Oct_28_1107,ACPT_experiment_5_30_19,3.1.0,59.95148047025666,
,,,C,G,d,b,L,D,d,L,c ,,,,,5,19,119,12,3,0,3,0,,,,,1,35,71,12,,,,,,up,0.5671248549142547,2570.262739741328,None,001,68,2019_Oct_28_1107,ACPT_experiment_5_30_19,3.1.0,59.95148047025666,
,,,C,G,d,b,,,,,,,,,,5,19,119,12,4,0,4,0,0,0,0,0,,,,,,,,,,,,,,001,68,2019_Oct_28_1107,ACPT_experiment_5_30_19,3.1.0,59.95148047025666,
,,,C,G,d,b,R,U,y,R,u,,,,,5,19,119,12,4,0,4,0,,,,,0,0,0,31,,,,,,down,0.9841165097195699,2583.006395416407,None,001,68,2019_Oct_28_1107,ACPT_experiment_5_30_19,3.1.0,59.95148047025666,
,,,C,G,d,b,R,U,y,L,u,,,,,5,19,119,12,4,0,4,0,,,,,0,1,1,30,,,,,,down,0.6338682971663729,2585.2915680180886,None,001,68,2019_Oct_28_1107,ACPT_experiment_5_30_19,3.1.0,59.95148047025666,
,,,C,G,d,b,R,D,y,R,y,,,,,5,19,119,12,4,0,4,0,,,,,0,2,2,27,,,,,,down,0.5169148289078294,2587.2266297580363,None,001,68,2019_Oct_28_1107,ACPT_experiment_5_30_19,3.1.0,59.95148047025666,
,,,C,G,d,b,R,G,y,L,y,,,,,5,19,119,12,4,0,4,0,,,,,0,3,3,28,,,,,,down,0.46703957665795315,2589.0612892562986,None,001,68,2019_Oct_28_1107,ACPT_experiment_5_30_19,3.1.0,59.95148047025666,
,,,C,G,d,b,R,G,y,R,y,,,,,5,19,119,12,4,0,4,0,,,,,0,4,4,29,,,,,,down,0.6505242726061624,2590.829385226787,None,001,68,2019_Oct_28_1107,ACPT_experiment_5_30_19,3.1.0,59.95148047025666,
,,,C,G,d,b,L,G,g,L,c ,,,,,5,19,119,12,4,0,4,0,,,,,0,5,5,18,,,,,,up,0.633839317652928,2592.780967704445,None,001,68,2019_Oct_28_1107,ACPT_experiment_5_30_19,3.1.0,59.95148047025666,
,,,C,G,d,b,L,G,g,R,c ,,,,,5,19,119,12,4,0,4,0,,,,,0,6,6,19,,,,,,up,0.7007324873929974,2594.682349514065,None,001,68,2019_Oct_28_1107,ACPT_experiment_5_30_19,3.1.0,59.95148047025666,
,,,C,G,d,b,L,D,d,L,c ,,,,,5,19,119,12,4,0,4,0,,,,,0,7,7,12,,,,,,up,0.5837992444194242,2596.6841389990295,None,001,68,2019_Oct_28_1107,ACPT_experiment_5_30_19,3.1.0,59.95148047025666,
,,,C,G,d,b,R,D,d,L,c,,,,,5,19,119,12,4,0,4,0,,,,,0,8,8,0,,,,,,up,0.4503636778026703,2598.5523036449285,None,001,68,2019_Oct_28_1107,ACPT_experiment_5_30_19,3.1.0,59.95148047025666,
,,,C,G,d,b,R,U,g,R,u,,,,,5,19,119,12,4,0,4,0,,,,,0,9,9,11,,,,,,up,0.5837732836052965,2600.287069854212,None,001,68,2019_Oct_28_1107,ACPT_experiment_5_30_19,3.1.0,59.95148047025666,
,,,C,G,d,b,L,U,d,L,u,,,,,5,19,119,12,4,0,4,0,,,,,0,10,10,20,,,,,,up,0.517103195746131,2602.155197370109,None,001,68,2019_Oct_28_1107,ACPT_experiment_5_30_19,3.1.0,59.95148047025666,
,,,C,G,d,b,L,G,d,L,i,,,,,5,19,119,12,4,0,4,0,,,,,0,11,11,16,,,,,,up,0.4802198216857505,2604.0268866493498,None,001,68,2019_Oct_28_1107,ACPT_experiment_5_30_19,3.1.0,59.95148047025666,
,,,C,G,d,b,L,G,d,R,i,,,,,5,19,119,12,4,0,4,0,,,,,0,12,12,17,,,,,,up,0.6171845496928654,2605.774798086749,None,001,68,2019_Oct_28_1107,ACPT_experiment_5_30_19,3.1.0,59.95148047025666,
,,,C,G,d,b,L,U,y,R,u,,,,,5,19,119,12,4,0,4,0,,,,,0,13,13,25,,,,,,down,0.9841279807769752,2607.6763570940193,None,001,68,2019_Oct_28_1107,ACPT_experiment_5_30_19,3.1.0,59.95148047025666,
,,,C,G,d,b,R,G,d,L,i,,,,,5,19,119,12,4,0,4,0,,,,,0,14,14,4,,,,,,up,0.5838095079971026,2609.9448559099346,None,001,68,2019_Oct_28_1107,ACPT_experiment_5_30_19,3.1.0,59.95148047025666,
,,,C,G,d,b,R,D,y,L,y,,,,,5,19,119,12,4,0,4,0,,,,,0,15,15,26,,,,,,down,0.51707934802198,2611.8130392717694,None,001,68,2019_Oct_28_1107,ACPT_experiment_5_30_19,3.1.0,59.95148047025666,
,,,C,G,d,b,L,U,d,R,u,,,,,5,19,119,12,4,0,4,0,,,,,0,16,16,21,,,,,,up,0.6003012661940375,2613.6146415973753,None,001,68,2019_Oct_28_1107,ACPT_experiment_5_30_19,3.1.0,59.95148047025666,
,,,C,G,d,b,L,U,g,L,u,,,,,5,19,119,12,4,0,4,0,,,,,0,17,17,22,,,,,,up,0.7172462820944929,2615.499351734318,None,001,68,2019_Oct_28_1107,ACPT_experiment_5_30_19,3.1.0,59.95148047025666,
,,,C,G,d,b,L,D,g,L,i,,,,,5,19,119,12,4,0,4,0,,,,,0,18,18,14,,,,,,up,0.5004064678651048,2617.500972172121,None,001,68,2019_Oct_28_1107,ACPT_experiment_5_30_19,3.1.0,59.95148047025666,
,,,C,G,d,b,R,D,g,R,i,,,,,5,19,119,12,4,0,4,0,,,,,0,19,19,3,,,,,,up,0.6338438457023585,2619.285750078864,None,001,68,2019_Oct_28_1107,ACPT_experiment_5_30_19,3.1.0,59.95148047025666,
,,,C,G,d,b,R,D,g,L,i,,,,,5,19,119,12,4,0,4,0,,,,,0,20,20,2,,,,,,up,0.5004315230698921,2621.2039680802736,None,001,68,2019_Oct_28_1107,ACPT_experiment_5_30_19,3.1.0,59.95148047025666,
,,,C,G,d,b,R,U,d,R,u,,,,,5,19,119,12,4,0,4,0,,,,,0,21,21,9,,,,,,up,0.7806649289022971,2623.0087521149762,None,001,68,2019_Oct_28_1107,ACPT_experiment_5_30_19,3.1.0,59.95148047025666,
,,,C,G,d,b,L,D,y,L,y,,,,,5,19,119,12,4,0,4,0,,,,,0,22,22,32,,,,,,down,0.5837871696221555,2625.0737706724303,None,001,68,2019_Oct_28_1107,ACPT_experiment_5_30_19,3.1.0,59.95148047025666,
,,,C,G,d,b,L,G,y,L,y,,,,,5,19,119,12,4,0,4,0,,,,,0,23,23,34,,,,,,down,0.5671441745898846,2626.9419543361355,None,001,68,2019_Oct_28_1107,ACPT_experiment_5_30_19,3.1.0,59.95148047025666,
,,,C,G,d,b,R,G,g,L,c ,,,,,5,19,119,12,4,0,4,0,,,,,0,24,24,6,,,,,,up,0.6838842208053393,2628.793444894399,None,001,68,2019_Oct_28_1107,ACPT_experiment_5_30_19,3.1.0,59.95148047025666,
,,,C,G,d,b,L,D,y,R,y,,,,,5,19,119,12,4,0,4,0,,,,,0,25,25,33,,,,,,down,0.6505309137455697,2630.7617053840013,None,001,68,2019_Oct_28_1107,ACPT_experiment_5_30_19,3.1.0,59.95148047025666,
,,,C,G,d,b,L,U,g,R,u,,,,,5,19,119,12,4,0,4,0,,,,,0,26,26,23,,,,,,up,0.7005625346200759,2632.6966092459743,None,001,68,2019_Oct_28_1107,ACPT_experiment_5_30_19,3.1.0,59.95148047025666,
,,,C,G,d,b,R,G,g,R,c ,,,,,5,19,119,12,4,0,4,0,,,,,0,27,27,7,,,,,,up,0.4837163811234859,2634.6815480493924,None,001,68,2019_Oct_28_1107,ACPT_experiment_5_30_19,3.1.0,59.95148047025666,
,,,C,G,d,b,L,U,y,L,u,,,,,5,19,119,12,4,0,4,0,,,,,0,28,28,24,,,,,,down,0.633839317652928,2636.4496431142716,None,001,68,2019_Oct_28_1107,ACPT_experiment_5_30_19,3.1.0,59.95148047025666,
,,,C,G,d,b,R,U,g,L,u,,,,,5,19,119,12,4,0,4,0,,,,,0,29,29,10,,,,,,up,0.5671004034493308,2638.3678801334872,None,001,68,2019_Oct_28_1107,ACPT_experiment_5_30_19,3.1.0,59.95148047025666,
,,,C,G,d,b,R,U,d,L,u,,,,,5,19,119,12,4,0,4,0,,,,,0,30,30,8,,,,,,up,0.4837441531562945,2640.202659474113,None,001,68,2019_Oct_28_1107,ACPT_experiment_5_30_19,3.1.0,59.95148047025666,
,,,C,G,d,b,L,D,d,R,c ,,,,,5,19,119,12,4,0,4,0,,,,,0,31,31,13,,,,,,up,0.6304040378126956,2641.990786325896,None,001,68,2019_Oct_28_1107,ACPT_experiment_5_30_19,3.1.0,59.95148047025666,
,,,C,G,d,b,R,G,d,R,i,,,,,5,19,119,12,4,0,4,0,,,,,0,32,32,5,,,,,,up,0.5504474467088585,2643.9056762112914,None,001,68,2019_Oct_28_1107,ACPT_experiment_5_30_19,3.1.0,59.95148047025666,
,,,C,G,d,b,L,G,y,R,y,,,,,5,19,119,12,4,0,4,0,,,,,0,33,33,35,,,,,,down,0.6672101331705562,2645.7404950968776,None,001,68,2019_Oct_28_1107,ACPT_experiment_5_30_19,3.1.0,59.95148047025666,
,,,C,G,d,b,R,D,d,R,c ,,,,,5,19,119,12,4,0,4,0,,,,,0,34,34,1,,,,,,up,0.6171649281477585,2647.692077876405,None,001,68,2019_Oct_28_1107,ACPT_experiment_5_30_19,3.1.0,59.95148047025666,
,,,C,G,d,b,L,D,g,R,i,,,,,5,19,119,12,4,0,4,0,,,,,0,35,35,15,,,,,,up,0.7672818272794757,2649.59361816774,None,001,68,2019_Oct_28_1107,ACPT_experiment_5_30_19,3.1.0,59.95148047025666,
,,,C,G,d,b,R,D,y,L,y,,,,,5,19,119,12,4,0,4,0,,,,,1,0,36,26,,,,,,down,0.8004497862002609,2651.662116681786,None,001,68,2019_Oct_28_1107,ACPT_experiment_5_30_19,3.1.0,59.95148047025666,
,,,C,G,d,b,L,D,g,L,i,,,,,5,19,119,12,4,0,4,0,,,,,1,1,37,14,,,,,,up,0.8673586531767796,2653.7636611992993,None,001,68,2019_Oct_28_1107,ACPT_experiment_5_30_19,3.1.0,59.95148047025666,
,,,C,G,d,b,R,U,y,R,u,,,,,5,19,119,12,4,0,4,0,,,,,1,2,38,31,,,,,,down,0.650523366996822,2655.9153970268835,None,001,68,2019_Oct_28_1107,ACPT_experiment_5_30_19,3.1.0,59.95148047025666,
,,,C,G,d,b,R,G,d,L,i,,,,,5,19,119,12,4,0,4,0,,,,,1,3,39,4,,,,,,up,0.633844449442222,2657.850299681377,None,001,68,2019_Oct_28_1107,ACPT_experiment_5_30_19,3.1.0,59.95148047025666,
,,,C,G,d,b,L,D,y,L,y,,,,,5,19,119,12,4,0,4,0,,,,,1,4,40,32,,,,,,down,0.6004872180728853,2659.7685128528674,None,001,68,2019_Oct_28_1107,ACPT_experiment_5_30_19,3.1.0,59.95148047025666,
,,,C,G,d,b,L,G,g,R,c ,,,,,5,19,119,12,4,0,4,0,,,,,1,5,41,19,,,,,,up,0.6171670412368258,2661.653376037867,None,001,68,2019_Oct_28_1107,ACPT_experiment_5_30_19,3.1.0,59.95148047025666,
,,,C,G,d,b,R,G,g,R,c ,,,,,5,19,119,12,4,0,4,0,,,,,1,6,42,7,,,,,,up,0.5170887059894085,2663.5549133105023,None,001,68,2019_Oct_28_1107,ACPT_experiment_5_30_19,3.1.0,59.95148047025666,
,,,C,G,d,b,L,U,y,L,u,,,,,5,19,119,12,4,0,4,0,,,,,1,7,43,24,,,,,,down,0.5671263642634585,2665.3563716441495,None,001,68,2019_Oct_28_1107,ACPT_experiment_5_30_19,3.1.0,59.95148047025666,
,,,C,G,d,b,L,U,d,L,u,,,,,5,19,119,12,4,0,4,0,,,,,1,8,44,20,,,,,,up,0.7670454631215762,2667.2247971056713,None,001,68,2019_Oct_28_1107,ACPT_experiment_5_30_19,3.1.0,59.95148047025666,
,,,C,G,d,b,R,U,y,L,u,,,,,5,19,119,12,4,0,4,0,,,,,1,9,45,30,,,,,,down,0.6005026134389482,2669.2761931786454,None,001,68,2019_Oct_28_1107,ACPT_experiment_5_30_19,3.1.0,59.95148047025666,
,,,C,G,d,b,R,U,g,L,u,,,,,5,19,119,12,4,0,4,0,,,,,1,10,46,10,,,,,,up,0.6672116425197601,2671.1610705515313,None,001,68,2019_Oct_28_1107,ACPT_experiment_5_30_19,3.1.0,59.95148047025666,
,,,C,G,d,b,L,G,y,R,y,,,,,5,19,119,12,4,0,4,0,,,,,1,11,47,35,,,,,,down,0.6171634187976451,2673.1126509160995,None,001,68,2019_Oct_28_1107,ACPT_experiment_5_30_19,3.1.0,59.95148047025666,
,,,C,G,d,b,L,U,g,R,u,,,,,5,19,119,12,4,0,4,0,,,,,1,12,48,23,,,,,,up,0.8003954496125516,2675.031118563945,None,001,68,2019_Oct_28_1107,ACPT_experiment_5_30_19,3.1.0,59.95148047025666,
,,,C,G,d,b,R,U,g,R,u,,,,,5,19,119,12,4,0,4,0,,,,,1,13,49,11,,,,,,up,0.6839132003196937,2677.0991866114646,None,001,68,2019_Oct_28_1107,ACPT_experiment_5_30_19,3.1.0,59.95148047025666,
,,,C,G,d,b,R,G,d,R,i,,,,,5,19,119,12,4,0,4,0,,,,,1,14,50,5,,,,,,up,0.5335958595514967,2679.0676155444908,None,001,68,2019_Oct_28_1107,ACPT_experiment_5_30_19,3.1.0,59.95148047025666,
,,,C,G,d,b,L,U,d,R,u,,,,,5,19,119,12,4,0,4,0,,,,,1,15,51,21,,,,,,up,0.5004049585149914,2680.8856081999947,None,001,68,2019_Oct_28_1107,ACPT_experiment_5_30_19,3.1.0,59.95148047025666,
,,,C,G,d,b,L,D,g,R,i,,,,,5,19,119,12,4,0,4,0,,,,,1,16,52,15,,,,,,up,0.5004306174596422,2682.670358032835,None,001,68,2019_Oct_28_1107,ACPT_experiment_5_30_19,3.1.0,59.95148047025666,
,,,C,G,d,b,R,G,y,L,y,,,,,5,19,119,12,4,0,4,0,,,,,1,17,53,28,,,,,,down,0.633867693427419,2684.4551676359206,None,001,68,2019_Oct_28_1107,ACPT_experiment_5_30_19,3.1.0,59.95148047025666,
,,,C,G,d,b,L,D,d,L,c ,,,,,5,19,119,12,4,0,4,0,,,,,1,18,54,12,,,,,,up,0.6672053032507392,2686.373382014892,None,001,68,2019_Oct_28_1107,ACPT_experiment_5_30_19,3.1.0,59.95148047025666,
,,,C,G,d,b,R,D,d,R,c ,,,,,5,19,119,12,4,0,4,0,,,,,1,19,55,1,,,,,,up,0.583778113524204,2688.3416609185606,None,001,68,2019_Oct_28_1107,ACPT_experiment_5_30_19,3.1.0,59.95148047025666,
,,,C,G,d,b,L,G,d,L,i,,,,,5,19,119,12,4,0,4,0,,,,,1,20,56,16,,,,,,up,0.5671414577600444,2690.2098011129947,None,001,68,2019_Oct_28_1107,ACPT_experiment_5_30_19,3.1.0,59.95148047025666,
,,,C,G,d,b,L,U,y,R,u,,,,,5,19,119,12,4,0,4,0,,,,,1,21,57,25,,,,,,down,0.600476350754434,2692.078004398245,None,001,68,2019_Oct_28_1107,ACPT_experiment_5_30_19,3.1.0,59.95148047025666,
,,,C,G,d,b,L,D,d,R,c ,,,,,5,19,119,12,4,0,4,0,,,,,1,22,58,13,,,,,,up,0.7673011469551057,2693.9628570177965,None,001,68,2019_Oct_28_1107,ACPT_experiment_5_30_19,3.1.0,59.95148047025666,
,,,C,G,d,b,L,G,d,R,i,,,,,5,19,119,12,4,0,4,0,,,,,1,23,59,17,,,,,,up,0.7172529232329907,2696.0145187363123,None,001,68,2019_Oct_28_1107,ACPT_experiment_5_30_19,3.1.0,59.95148047025666,
,,,C,G,d,b,R,G,y,R,y,,,,,5,19,119,12,4,0,4,0,,,,,1,24,60,29,,,,,,down,0.7506210219198692,2698.0328196010187,None,001,68,2019_Oct_28_1107,ACPT_experiment_5_30_19,3.1.0,59.95148047025666,
,,,C,G,d,b,R,D,d,L,c,,,,,5,19,119,12,4,0,4,0,,,,,1,25,61,0,,,,,,up,0.7839604429636893,2700.084481017664,None,001,68,2019_Oct_28_1107,ACPT_experiment_5_30_19,3.1.0,59.95148047025666,
,,,C,G,d,b,L,G,y,L,y,,,,,5,19,119,12,4,0,4,0,,,,,1,26,62,34,,,,,,down,0.6505291025250699,2702.152817125685,None,001,68,2019_Oct_28_1107,ACPT_experiment_5_30_19,3.1.0,59.95148047025666,
,,,C,G,d,b,R,D,g,L,i,,,,,5,19,119,12,4,0,4,0,,,,,1,27,63,2,,,,,,up,0.7005616290107355,2704.087720383918,None,001,68,2019_Oct_28_1107,ACPT_experiment_5_30_19,3.1.0,59.95148047025666,
,,,C,G,d,b,L,G,g,L,c ,,,,,5,19,119,12,4,0,4,0,,,,,1,28,64,18,,,,,,up,0.6672095294306928,2706.072656772377,None,001,68,2019_Oct_28_1107,ACPT_experiment_5_30_19,3.1.0,59.95148047025666,
,,,C,G,d,b,R,D,g,R,i,,,,,5,19,119,12,4,0,4,0,,,,,1,29,65,3,,,,,,up,1.100899119596761,2708.024234420115,None,001,68,2019_Oct_28_1107,ACPT_experiment_5_30_19,3.1.0,59.95148047025666,
,,,C,G,d,b,R,U,d,L,u,,,,,5,19,119,12,4,0,4,0,,,,,1,30,66,8,,,,,,up,0.5337670198041451,2710.409500148671,None,001,68,2019_Oct_28_1107,ACPT_experiment_5_30_19,3.1.0,59.95148047025666,
,,,C,G,d,b,R,U,d,R,u,,,,,5,19,119,12,4,0,4,0,,,,,1,31,67,9,,,,,,up,0.4837535111246325,2712.2109367476833,None,001,68,2019_Oct_28_1107,ACPT_experiment_5_30_19,3.1.0,59.95148047025666,
,,,C,G,d,b,R,D,y,R,y,,,,,5,19,119,12,4,0,4,0,,,,,1,32,68,27,,,,,,down,0.583796225720107,2713.9790641126456,None,001,68,2019_Oct_28_1107,ACPT_experiment_5_30_19,3.1.0,59.95148047025666,
,,,C,G,d,b,R,G,g,L,c ,,,,,5,19,119,12,4,0,4,0,,,,,1,33,69,6,,,,,,up,0.583805885557922,2715.847238720253,None,001,68,2019_Oct_28_1107,ACPT_experiment_5_30_19,3.1.0,59.95148047025666,
,,,C,G,d,b,L,U,g,L,u,,,,,5,19,119,12,4,0,4,0,,,,,1,34,70,22,,,,,,up,0.5171025920062675,2717.7320738313483,None,001,68,2019_Oct_28_1107,ACPT_experiment_5_30_19,3.1.0,59.95148047025666,
,,,C,G,d,b,L,D,y,R,y,,,,,5,19,119,12,4,0,4,0,,,,,1,35,71,33,,,,,,down,0.5835495979845291,2719.5504942365487,None,001,68,2019_Oct_28_1107,ACPT_experiment_5_30_19,3.1.0,59.95148047025666,
,,,C,G,d,b,,,,,,,,,,5,19,119,12,5,0,5,0,0,0,0,0,,,,,,,,,,,,,,001,68,2019_Oct_28_1107,ACPT_experiment_5_30_19,3.1.0,59.95148047025666,
,,,C,G,d,b,R,U,d,R,u,,,,,5,19,119,12,5,0,5,0,,,,,0,0,0,9,,,,,,up,0.9838623352352442,2742.9694601207175,None,001,68,2019_Oct_28_1107,ACPT_experiment_5_30_19,3.1.0,59.95148047025666,
,,,C,G,d,b,R,D,d,R,c ,,,,,5,19,119,12,5,0,5,0,,,,,0,1,1,1,,,,,,up,0.5504299382528188,2745.2377032527993,None,001,68,2019_Oct_28_1107,ACPT_experiment_5_30_19,3.1.0,59.95148047025666,
,,,C,G,d,b,L,G,y,R,y,,,,,5,19,119,12,5,0,5,0,,,,,0,2,2,35,,,,,,down,1.0675298134292461,2747.0725103654586,None,001,68,2019_Oct_28_1107,ACPT_experiment_5_30_19,3.1.0,59.95148047025666,
,,,C,G,d,b,L,U,y,R,u,,,,,5,19,119,12,5,0,5,0,,,,,0,3,3,25,,,,,,down,0.6335706534127894,2749.4413703687496,None,001,68,2019_Oct_28_1107,ACPT_experiment_5_30_19,3.1.0,59.95148047025666,
,,,C,G,d,b,L,D,g,R,i,,,,,5,19,119,12,5,0,5,0,,,,,0,4,4,15,,,,,,up,0.5170905172089988,2751.3593088386006,None,001,68,2019_Oct_28_1107,ACPT_experiment_5_30_19,3.1.0,59.95148047025666,
,,,C,G,d,b,R,G,y,L,y,,,,,5,19,119,12,5,0,5,0,,,,,0,5,5,28,,,,,,down,0.750599891024649,2753.1607729077778,None,001,68,2019_Oct_28_1107,ACPT_experiment_5_30_19,3.1.0,59.95148047025666,
,,,C,G,d,b,L,G,d,R,i,,,,,5,19,119,12,5,0,5,0,,,,,0,6,6,17,,,,,,up,0.5004010342063339,2755.1957505769487,None,001,68,2019_Oct_28_1107,ACPT_experiment_5_30_19,3.1.0,59.95148047025666,
,,,C,G,d,b,L,U,d,L,u,,,,,5,19,119,12,5,0,5,0,,,,,0,7,7,20,,,,,,up,0.5671493063782691,2756.980507352797,None,001,68,2019_Oct_28_1107,ACPT_experiment_5_30_19,3.1.0,59.95148047025666,
,,,C,G,d,b,L,G,g,R,c ,,,,,5,19,119,12,5,0,5,0,,,,,0,8,8,19,,,,,,up,0.617187870262569,2758.8320290036636,None,001,68,2019_Oct_28_1107,ACPT_experiment_5_30_19,3.1.0,59.95148047025666,
,,,C,G,d,b,R,G,d,R,i,,,,,5,19,119,12,5,0,5,0,,,,,0,9,9,5,,,,,,up,0.46705014210510853,2760.733564163209,None,001,68,2019_Oct_28_1107,ACPT_experiment_5_30_19,3.1.0,59.95148047025666,
,,,C,G,d,b,L,G,d,L,i,,,,,5,19,119,12,5,0,5,0,,,,,0,10,10,16,,,,,,up,0.7137904750979942,2762.5217954619893,None,001,68,2019_Oct_28_1107,ACPT_experiment_5_30_19,3.1.0,59.95148047025666,
,,,C,G,d,b,L,D,d,R,c ,,,,,5,19,119,12,5,0,5,0,,,,,0,11,11,13,,,,,,up,0.8673658980560504,2764.5199679414136,None,001,68,2019_Oct_28_1107,ACPT_experiment_5_30_19,3.1.0,59.95148047025666,
,,,C,G,d,b,R,D,y,R,y,,,,,5,19,119,12,5,0,5,0,,,,,0,12,12,27,,,,,,down,0.7339267089992063,2766.671711013875,None,001,68,2019_Oct_28_1107,ACPT_experiment_5_30_19,3.1.0,59.95148047025666,
,,,C,G,d,b,R,G,g,R,c ,,,,,5,19,119,12,5,0,5,0,,,,,0,13,13,7,,,,,,up,0.8673544269977356,2768.69002002907,None,001,68,2019_Oct_28_1107,ACPT_experiment_5_30_19,3.1.0,59.95148047025666,
,,,C,G,d,b,L,G,y,L,y,,,,,5,19,119,12,5,0,5,0,,,,,0,14,14,34,,,,,,down,0.9007258462543177,2770.8417474042963,None,001,68,2019_Oct_28_1107,ACPT_experiment_5_30_19,3.1.0,59.95148047025666,
,,,C,G,d,b,R,G,d,L,i,,,,,5,19,119,12,5,0,5,0,,,,,0,15,15,4,,,,,,up,0.8507014702572633,2773.026832312761,None,001,68,2019_Oct_28_1107,ACPT_experiment_5_30_19,3.1.0,59.95148047025666,
,,,C,G,d,b,L,D,g,L,i,,,,,5,19,119,12,5,0,5,0,,,,,0,16,16,14,,,,,,up,0.583805583688445,2775.161909146206,None,001,68,2019_Oct_28_1107,ACPT_experiment_5_30_19,3.1.0,59.95148047025666,
,,,C,G,d,b,L,G,g,L,c ,,,,,5,19,119,12,5,0,5,0,,,,,0,17,17,18,,,,,,up,0.5003928837186322,2777.0301018660093,None,001,68,2019_Oct_28_1107,ACPT_experiment_5_30_19,3.1.0,59.95148047025666,
,,,C,G,d,b,L,D,d,L,c ,,,,,5,19,119,12,5,0,5,0,,,,,0,18,18,12,,,,,,up,0.38336636293479387,2778.831823732109,None,001,68,2019_Oct_28_1107,ACPT_experiment_5_30_19,3.1.0,59.95148047025666,
,,,C,G,d,b,R,U,g,R,u,,,,,5,19,119,12,5,0,5,0,,,,,0,19,19,11,,,,,,up,0.7839688953217774,2780.4995681750606,None,001,68,2019_Oct_28_1107,ACPT_experiment_5_30_19,3.1.0,59.95148047025666,
,,,C,G,d,b,R,G,g,L,c ,,,,,5,19,119,12,5,0,5,0,,,,,0,20,20,6,,,,,,up,0.45039416666531906,2782.5679036793417,None,001,68,2019_Oct_28_1107,ACPT_experiment_5_30_19,3.1.0,59.95148047025666,
,,,C,G,d,b,R,U,d,L,u,,,,,5,19,119,12,5,0,5,0,,,,,0,21,21,8,,,,,,up,0.4837278521799817,2784.3026406072413,None,001,68,2019_Oct_28_1107,ACPT_experiment_5_30_19,3.1.0,59.95148047025666,
,,,C,G,d,b,R,G,y,R,y,,,,,5,19,119,12,5,0,5,0,,,,,0,22,22,29,,,,,,down,1.2676236949782833,2786.087490962769,None,001,68,2019_Oct_28_1107,ACPT_experiment_5_30_19,3.1.0,59.95148047025666,
,,,C,G,d,b,L,U,y,L,u,,,,,5,19,119,12,5,0,5,0,,,,,0,23,23,24,,,,,,down,0.6670821403176888,2788.6561701459696,None,001,68,2019_Oct_28_1107,ACPT_experiment_5_30_19,3.1.0,59.95148047025666,
,,,C,G,d,b,L,U,g,R,u,,,,,5,19,119,12,5,0,5,0,,,,,0,24,24,23,,,,,,up,0.6505167258583242,2790.624430031832,None,001,68,2019_Oct_28_1107,ACPT_experiment_5_30_19,3.1.0,59.95148047025666,
,,,C,G,d,b,R,D,g,L,i,,,,,5,19,119,12,5,0,5,0,,,,,0,25,25,2,,,,,,up,0.4667805722556295,2792.5762666839737,None,001,68,2019_Oct_28_1107,ACPT_experiment_5_30_19,3.1.0,59.95148047025666,
,,,C,G,d,b,L,U,d,R,u,,,,,5,19,119,12,5,0,5,0,,,,,0,26,26,21,,,,,,up,0.5337709441128027,2794.3274192988465,None,001,68,2019_Oct_28_1107,ACPT_experiment_5_30_19,3.1.0,59.95148047025666,
,,,C,G,d,b,L,U,g,L,u,,,,,5,19,119,12,5,0,5,0,,,,,0,27,27,22,,,,,,up,0.45038661991748086,2796.1288622371285,None,001,68,2019_Oct_28_1107,ACPT_experiment_5_30_19,3.1.0,59.95148047025666,
,,,C,G,d,b,R,U,y,L,u,,,,,5,19,119,12,5,0,5,0,,,,,0,28,28,30,,,,,,down,0.6839515378005672,2797.8803046471367,None,001,68,2019_Oct_28_1107,ACPT_experiment_5_30_19,3.1.0,59.95148047025666,
,,,C,G,d,b,R,D,d,L,c,,,,,5,19,119,12,5,0,5,0,,,,,0,29,29,0,,,,,,up,0.5168263810173812,2799.8988448947002,None,001,68,2019_Oct_28_1107,ACPT_experiment_5_30_19,3.1.0,59.95148047025666,
,,,C,G,d,b,R,U,y,R,u,,,,,5,19,119,12,5,0,5,0,,,,,0,30,30,31,,,,,,down,0.7670952716607644,2801.7335735211773,None,001,68,2019_Oct_28_1107,ACPT_experiment_5_30_19,3.1.0,59.95148047025666,
,,,C,G,d,b,L,D,y,L,y,,,,,5,19,119,12,5,0,5,0,,,,,0,31,31,32,,,,,,down,0.6338462606618123,2803.7850779654573,None,001,68,2019_Oct_28_1107,ACPT_experiment_5_30_19,3.1.0,59.95148047025666,
,,,C,G,d,b,R,U,g,L,u,,,,,5,19,119,12,5,0,5,0,,,,,0,32,32,10,,,,,,up,0.6171531552199667,2805.719990883528,None,001,68,2019_Oct_28_1107,ACPT_experiment_5_30_19,3.1.0,59.95148047025666,
,,,C,G,d,b,R,D,y,L,y,,,,,5,19,119,12,5,0,5,0,,,,,0,33,33,26,,,,,,down,0.7506131733025541,2807.621511553317,None,001,68,2019_Oct_28_1107,ACPT_experiment_5_30_19,3.1.0,59.95148047025666,
,,,C,G,d,b,R,D,g,R,i,,,,,5,19,119,12,5,0,5,0,,,,,0,34,34,3,,,,,,up,0.6338903336718431,2809.639794909567,None,001,68,2019_Oct_28_1107,ACPT_experiment_5_30_19,3.1.0,59.95148047025666,
,,,C,G,d,b,L,D,y,R,y,,,,,5,19,119,12,5,0,5,0,,,,,0,35,35,33,,,,,,down,0.6838793908864318,2811.574718091216,None,001,68,2019_Oct_28_1107,ACPT_experiment_5_30_19,3.1.0,59.95148047025666,
,,,C,G,d,b,R,U,y,L,u,,,,,5,19,119,12,5,0,5,0,,,,,1,0,36,30,,,,,,down,0.5838010556390145,2813.5596581021136,None,001,68,2019_Oct_28_1107,ACPT_experiment_5_30_19,3.1.0,59.95148047025666,
,,,C,G,d,b,L,G,y,R,y,,,,,5,19,119,12,5,0,5,0,,,,,1,1,37,35,,,,,,down,0.7005727981977543,2815.4278312003707,None,001,68,2019_Oct_28_1107,ACPT_experiment_5_30_19,3.1.0,59.95148047025666,
,,,C,G,d,b,L,U,g,R,u,,,,,5,19,119,12,5,0,5,0,,,,,1,2,38,23,,,,,,up,0.7005963440533378,2817.412746457934,None,001,68,2019_Oct_28_1107,ACPT_experiment_5_30_19,3.1.0,59.95148047025666,
,,,C,G,d,b,R,G,g,L,c ,,,,,5,19,119,12,5,0,5,0,,,,,1,3,39,6,,,,,,up,0.6002339491988096,2819.4146708787584,None,001,68,2019_Oct_28_1107,ACPT_experiment_5_30_19,3.1.0,59.95148047025666,
,,,C,G,d,b,R,D,d,R,c ,,,,,5,19,119,12,5,0,5,0,,,,,1,4,40,1,,,,,,down,0.6505212539077547,2821.2992551359393,None,001,68,2019_Oct_28_1107,ACPT_experiment_5_30_19,3.1.0,59.95148047025666,
,,,C,G,d,b,R,U,g,L,u,,,,,5,19,119,12,5,0,5,0,,,,,1,5,41,10,,,,,,up,0.5837880752324054,2823.234155979213,None,001,68,2019_Oct_28_1107,ACPT_experiment_5_30_19,3.1.0,59.95148047025666,
,,,C,G,d,b,R,U,y,R,u,,,,,5,19,119,12,5,0,5,0,,,,,1,6,42,31,,,,,,down,0.650519140817778,2825.10233239804,None,001,68,2019_Oct_28_1107,ACPT_experiment_5_30_19,3.1.0,59.95148047025666,
,,,C,G,d,b,R,D,d,L,c,,,,,5,19,119,12,5,0,5,0,,,,,1,7,43,0,,,,,,up,0.5169815421631938,2827.0538922354526,None,001,68,2019_Oct_28_1107,ACPT_experiment_5_30_19,3.1.0,59.95148047025666,
,,,C,G,d,b,R,U,d,R,u,,,,,5,19,119,12,5,0,5,0,,,,,1,8,44,9,,,,,,up,0.5004185426623735,2828.8553656625973,None,001,68,2019_Oct_28_1107,ACPT_experiment_5_30_19,3.1.0,59.95148047025666,
,,,C,G,d,b,R,G,d,L,i,,,,,5,19,119,12,5,0,5,0,,,,,1,9,45,4,,,,,,up,0.5504450317494047,2830.6401462861695,None,001,68,2019_Oct_28_1107,ACPT_experiment_5_30_19,3.1.0,59.95148047025666,
,,,C,G,d,b,R,G,g,R,c ,,,,,5,19,119,12,5,0,5,0,,,,,1,10,46,7,,,,,,up,0.5168221548383372,2832.475236854697,None,001,68,2019_Oct_28_1107,ACPT_experiment_5_30_19,3.1.0,59.95148047025666,
,,,C,G,d,b,L,U,y,L,u,,,,,5,19,119,12,5,0,5,0,,,,,1,11,47,24,,,,,,down,0.5504903122391624,2834.2764008651593,None,001,68,2019_Oct_28_1107,ACPT_experiment_5_30_19,3.1.0,59.95148047025666,
,,,C,G,d,b,L,U,d,R,u,,,,,5,19,119,12,5,0,5,0,,,,,1,12,48,21,,,,,,up,0.617169758066666,2836.1112360517227,None,001,68,2019_Oct_28_1107,ACPT_experiment_5_30_19,3.1.0,59.95148047025666,
,,,C,G,d,b,R,U,d,L,u,,,,,5,19,119,12,5,0,5,0,,,,,1,13,49,8,,,,,,up,0.6338299596854995,2838.0127965683423,None,001,68,2019_Oct_28_1107,ACPT_experiment_5_30_19,3.1.0,59.95148047025666,
,,,C,G,d,b,L,D,d,R,c ,,,,,5,19,119,12,5,0,5,0,,,,,1,14,50,13,,,,,,up,0.5337703403729392,2839.9309982687764,None,001,68,2019_Oct_28_1107,ACPT_experiment_5_30_19,3.1.0,59.95148047025666,
,,,C,G,d,b,L,G,g,L,c ,,,,,5,19,119,12,5,0,5,0,,,,,1,15,51,18,,,,,,up,0.7506059284232833,2841.749140953638,None,001,68,2019_Oct_28_1107,ACPT_experiment_5_30_19,3.1.0,59.95148047025666,
,,,C,G,d,b,L,G,g,R,c ,,,,,5,19,119,12,5,0,5,0,,,,,1,16,52,19,,,,,,up,0.6338507887103333,2843.767438195905,None,001,68,2019_Oct_28_1107,ACPT_experiment_5_30_19,3.1.0,59.95148047025666,
,,,C,G,d,b,L,D,g,R,i,,,,,5,19,119,12,5,0,5,0,,,,,1,17,53,15,,,,,,up,0.5334992611733469,2845.702606495939,None,001,68,2019_Oct_28_1107,ACPT_experiment_5_30_19,3.1.0,59.95148047025666,
,,,C,G,d,b,R,G,y,R,y,,,,,5,19,119,12,5,0,5,0,,,,,1,18,54,29,,,,,,down,1.267707312949824,2847.520478101601,None,001,68,2019_Oct_28_1107,ACPT_experiment_5_30_19,3.1.0,59.95148047025666,
,,,C,G,d,b,L,D,g,L,i,,,,,5,19,119,12,5,0,5,0,,,,,1,19,55,14,,,,,,up,0.6171673431072122,2850.0725426655417,None,001,68,2019_Oct_28_1107,ACPT_experiment_5_30_19,3.1.0,59.95148047025666,
,,,C,G,d,b,R,D,g,R,i,,,,,5,19,119,12,5,0,5,0,,,,,1,20,56,3,,,,,,up,0.6171709655463928,2851.974080541917,None,001,68,2019_Oct_28_1107,ACPT_experiment_5_30_19,3.1.0,59.95148047025666,
,,,C,G,d,b,L,D,y,L,y,,,,,5,19,119,12,5,0,5,0,,,,,1,21,57,32,,,,,,down,1.1009256841507522,2853.8756187201625,None,001,68,2019_Oct_28_1107,ACPT_experiment_5_30_19,3.1.0,59.95148047025666,
,,,C,G,d,b,R,D,y,L,y,,,,,5,19,119,12,5,0,5,0,,,,,1,22,58,26,,,,,,down,0.517088404119022,2856.2608787131894,None,001,68,2019_Oct_28_1107,ACPT_experiment_5_30_19,3.1.0,59.95148047025666,
,,,C,G,d,b,L,D,y,R,y,,,,,5,19,119,12,5,0,5,0,,,,,1,23,59,33,,,,,,down,0.6338477700119256,2858.0623391599265,None,001,68,2019_Oct_28_1107,ACPT_experiment_5_30_19,3.1.0,59.95148047025666,
,,,C,G,d,b,L,U,d,L,u,,,,,5,19,119,12,5,0,5,0,,,,,1,24,60,20,,,,,,down,0.6004685021362093,2859.9805782922313,None,001,68,2019_Oct_28_1107,ACPT_experiment_5_30_19,3.1.0,59.95148047025666,
,,,C,G,d,b,R,U,g,R,u,,,,,5,19,119,12,5,0,5,0,,,,,1,25,61,11,,,,,,up,0.7005628364904624,2861.8654209500755,None,001,68,2019_Oct_28_1107,ACPT_experiment_5_30_19,3.1.0,59.95148047025666,
,,,C,G,d,b,R,G,y,L,y,,,,,5,19,119,12,5,0,5,0,,,,,1,26,62,28,,,,,,down,5.254256592461388,2863.8503588478834,None,001,68,2019_Oct_28_1107,ACPT_experiment_5_30_19,3.1.0,59.95148047025666,
,,,C,G,d,b,L,U,g,L,u,,,,,5,19,119,12,5,0,5,0,,,,,1,27,63,22,,,,,,up,0.7172281698985898,2870.38900499142,None,001,68,2019_Oct_28_1107,ACPT_experiment_5_30_19,3.1.0,59.95148047025666,
