facing_vig,person_vig,text_vig,facing_train,person_train,food_train,correct_key_train,facing_exp,person_exp,food_exp,showL_R,consistent,vig_random.thisRepN,vig_random.thisTrialN,vig_random.thisN,vig_random.thisIndex,trainTrials.thisRepN,trainTrials.thisTrialN,trainTrials.thisN,trainTrials.thisIndex,expBlock.thisRepN,expBlock.thisTrialN,expBlock.thisN,expBlock.thisIndex,breakLoop.thisRepN,breakLoop.thisTrialN,breakLoop.thisN,breakLoop.thisIndex,expTrials.thisRepN,expTrials.thisTrialN,expTrials.thisN,expTrials.thisIndex,train_resp.keys,train_resp.corr,train_resp.rt,train_resp.started,train_resp.stopped,exp_resp.keys,exp_resp.rt,exp_resp.started,exp_resp.stopped,session,participant,date,expName,psychopyVersion,frameRate,
C,D,"is allergic to gluten, meaning she can’t eat wheat products. She enjoys eating dairy products. She thinks eating insects, like crickets, is disgusting.",,,,,,,,,,0,0,0,1,,,,,,,,,,,,,,,,,,,,,,,,,,001,69,2019_Oct_28_1501,ACPT_experiment_5_30_19,3.1.0,59.95028702148976,
C,U,"did not report her food preferences, so her food preferences are unknown.",,,,,,,,,,0,1,1,2,,,,,,,,,,,,,,,,,,,,,,,,,,001,69,2019_Oct_28_1501,ACPT_experiment_5_30_19,3.1.0,59.95028702148976,
C,G,"cannot eat dairy products because she is lactose intolerant. She enjoys eating wheat products. She thinks eating insects, like crickets, is disgusting.",,,,,,,,,,0,2,2,0,,,,,,,,,,,,,,,,,,,,,,,,,,001,69,2019_Oct_28_1501,ACPT_experiment_5_30_19,3.1.0,59.95028702148976,
,,,C,G,g,v,,,,,,,,,,0,0,0,13,,,,,,,,,,,,,v,1,5.537613144624629,1469.66772270832,None,,,,,001,69,2019_Oct_28_1501,ACPT_experiment_5_30_19,3.1.0,59.95028702148976,
,,,C,D,y,b,,,,,,,,,,0,1,1,2,,,,,,,,,,,,,b,1,1.8181626082769071,1478.4913102211685,None,,,,,001,69,2019_Oct_28_1501,ACPT_experiment_5_30_19,3.1.0,59.95028702148976,
,,,C,D,d,v,,,,,,,,,,0,2,2,0,,,,,,,,,,,,,v,1,2.5020438103820197,1483.5787643558033,None,,,,,001,69,2019_Oct_28_1501,ACPT_experiment_5_30_19,3.1.0,59.95028702148976,
,,,C,G,d,b,,,,,,,,,,0,3,3,3,,,,,,,,,,,,,v,0,2.0516834531517816,1489.3667861568501,None,,,,,001,69,2019_Oct_28_1501,ACPT_experiment_5_30_19,3.1.0,59.95028702148976,
,,,C,U,d,n,,,,,,,,,,0,4,4,6,,,,,,,,,,,,,v,0,1.6179950704608927,1494.7044427707442,None,,,,,001,69,2019_Oct_28_1501,ACPT_experiment_5_30_19,3.1.0,59.95028702148976,
,,,C,U,g,n,,,,,,,,,,0,5,5,16,,,,,,,,,,,,,v,0,1.9015819493870367,1499.5917181983823,None,,,,,001,69,2019_Oct_28_1501,ACPT_experiment_5_30_19,3.1.0,59.95028702148976,
,,,C,G,y,b,,,,,,,,,,0,6,6,14,,,,,,,,,,,,,b,1,2.585442926203541,1504.7792760253396,None,,,,,001,69,2019_Oct_28_1501,ACPT_experiment_5_30_19,3.1.0,59.95028702148976,
,,,C,U,y,n,,,,,,,,,,0,7,7,17,,,,,,,,,,,,,n,1,2.5687694423104404,1510.6506996590397,None,,,,,001,69,2019_Oct_28_1501,ACPT_experiment_5_30_19,3.1.0,59.95028702148976,
,,,C,G,g,v,,,,,,,,,,0,8,8,19,,,,,,,,,,,,,v,1,2.4853633834791253,1516.5054489032336,None,,,,,001,69,2019_Oct_28_1501,ACPT_experiment_5_30_19,3.1.0,59.95028702148976,
,,,C,U,y,n,,,,,,,,,,0,9,9,8,,,,,,,,,,,,,n,1,1.1676147898178897,1522.2768111063997,None,,,,,001,69,2019_Oct_28_1501,ACPT_experiment_5_30_19,3.1.0,59.95028702148976,
,,,C,D,d,v,,,,,,,,,,0,10,10,18,,,,,,,,,,,,,b,0,1.6847164762148168,1526.7303981513505,None,,,,,001,69,2019_Oct_28_1501,ACPT_experiment_5_30_19,3.1.0,59.95028702148976,
,,,C,G,y,b,,,,,,,,,,0,11,11,5,,,,,,,,,,,,,b,1,1.2176714658962737,1531.7010899013949,None,,,,,001,69,2019_Oct_28_1501,ACPT_experiment_5_30_19,3.1.0,59.95028702148976,
,,,C,U,d,n,,,,,,,,,,0,12,12,15,,,,,,,,,,,,,n,1,0.7839622541832796,1536.2214378970566,None,,,,,001,69,2019_Oct_28_1501,ACPT_experiment_5_30_19,3.1.0,59.95028702148976,
,,,C,D,g,b,,,,,,,,,,0,13,13,10,,,,,,,,,,,,,v,0,1.3511293708870653,1540.2913847830387,None,,,,,001,69,2019_Oct_28_1501,ACPT_experiment_5_30_19,3.1.0,59.95028702148976,
,,,C,D,y,b,,,,,,,,,,0,14,14,11,,,,,,,,,,,,,b,1,1.814834190394322,1544.948480160354,None,,,,,001,69,2019_Oct_28_1501,ACPT_experiment_5_30_19,3.1.0,59.95028702148976,
,,,C,G,d,b,,,,,,,,,,0,15,15,12,,,,,,,,,,,,,v,0,2.351916043935489,1550.049294756369,None,,,,,001,69,2019_Oct_28_1501,ACPT_experiment_5_30_19,3.1.0,59.95028702148976,
,,,C,U,g,n,,,,,,,,,,0,16,16,7,,,,,,,,,,,,,n,1,2.1851217365983757,1555.6871957339754,None,,,,,001,69,2019_Oct_28_1501,ACPT_experiment_5_30_19,3.1.0,59.95028702148976,
,,,C,D,d,v,,,,,,,,,,0,17,17,9,,,,,,,,,,,,,v,1,2.0350175160019717,1561.1582996874167,None,,,,,001,69,2019_Oct_28_1501,ACPT_experiment_5_30_19,3.1.0,59.95028702148976,
,,,C,G,g,v,,,,,,,,,,0,18,18,4,,,,,,,,,,,,,v,1,2.051674698923307,1566.4792743650578,None,,,,,001,69,2019_Oct_28_1501,ACPT_experiment_5_30_19,3.1.0,59.95028702148976,
,,,C,D,g,b,,,,,,,,,,0,19,19,1,,,,,,,,,,,,,v,0,1.5179333380619937,1571.8169370163487,None,,,,,001,69,2019_Oct_28_1501,ACPT_experiment_5_30_19,3.1.0,59.95028702148976,
,,,C,G,y,b,,,,,,,,,,1,0,20,14,,,,,,,,,,,,,b,1,1.5179273006651783,1576.620803970196,None,,,,,001,69,2019_Oct_28_1501,ACPT_experiment_5_30_19,3.1.0,59.95028702148976,
,,,C,G,g,v,,,,,,,,,,1,1,21,4,,,,,,,,,,,,,b,0,1.51791160342691,1581.408033966407,None,,,,,001,69,2019_Oct_28_1501,ACPT_experiment_5_30_19,3.1.0,59.95028702148976,
,,,C,D,y,b,,,,,,,,,,1,2,22,2,,,,,,,,,,,,,b,1,1.4511687649137457,1586.2119480119618,None,,,,,001,69,2019_Oct_28_1501,ACPT_experiment_5_30_19,3.1.0,59.95028702148976,
,,,C,D,g,b,,,,,,,,,,1,3,23,1,,,,,,,,,,,,,v,0,2.0016427761802333,1590.9324224911215,None,,,,,001,69,2019_Oct_28_1501,ACPT_experiment_5_30_19,3.1.0,59.95028702148976,
,,,C,D,d,v,,,,,,,,,,1,4,24,9,,,,,,,,,,,,,b,0,1.4344943754076667,1596.2033755095945,None,,,,,001,69,2019_Oct_28_1501,ACPT_experiment_5_30_19,3.1.0,59.95028702148976,
,,,C,U,y,n,,,,,,,,,,1,5,25,8,,,,,,,,,,,,,n,1,0.700575816896162,1600.9238533093267,None,,,,,001,69,2019_Oct_28_1501,ACPT_experiment_5_30_19,3.1.0,59.95028702148976,
,,,C,D,d,v,,,,,,,,,,1,6,26,0,,,,,,,,,,,,,v,1,1.6679249611697742,1604.910389910303,None,,,,,001,69,2019_Oct_28_1501,ACPT_experiment_5_30_19,3.1.0,59.95028702148976,
,,,C,G,y,b,,,,,,,,,,1,7,27,5,,,,,,,,,,,,,n,0,1.050865989371232,1609.8644302129542,None,,,,,001,69,2019_Oct_28_1501,ACPT_experiment_5_30_19,3.1.0,59.95028702148976,
,,,C,D,g,b,,,,,,,,,,1,8,28,10,,,,,,,,,,,,,b,1,2.8353924384573475,1614.2182042663298,None,,,,,001,69,2019_Oct_28_1501,ACPT_experiment_5_30_19,3.1.0,59.95028702148976,
,,,C,U,d,n,,,,,,,,,,1,9,29,15,,,,,,,,,,,,,n,1,1.3844787536399963,1620.339579525371,None,,,,,001,69,2019_Oct_28_1501,ACPT_experiment_5_30_19,3.1.0,59.95028702148976,
,,,C,G,g,v,,,,,,,,,,1,10,30,19,,,,,,,,,,,,,v,1,1.467485438548465,1625.0270704881405,None,,,,,001,69,2019_Oct_28_1501,ACPT_experiment_5_30_19,3.1.0,59.95028702148976,
,,,C,G,g,v,,,,,,,,,,1,11,31,13,,,,,,,,,,,,,b,0,3.6863369140155555,1629.763882168092,None,,,,,001,69,2019_Oct_28_1501,ACPT_experiment_5_30_19,3.1.0,59.95028702148976,
,,,C,D,y,b,,,,,,,,,,1,12,32,11,,,,,,,,,,,,,b,1,1.3344323411365622,1636.736217599926,None,,,,,001,69,2019_Oct_28_1501,ACPT_experiment_5_30_19,3.1.0,59.95028702148976,
,,,C,G,d,b,,,,,,,,,,1,13,33,3,,,,,,,,,,,,,v,0,1.8010517148468352,1641.3736838848272,None,,,,,001,69,2019_Oct_28_1501,ACPT_experiment_5_30_19,3.1.0,59.95028702148976,
,,,C,U,y,n,,,,,,,,,,1,14,34,17,,,,,,,,,,,,,n,1,0.8507008665183093,1646.46074075863,None,,,,,001,69,2019_Oct_28_1501,ACPT_experiment_5_30_19,3.1.0,59.95028702148976,
,,,C,U,g,n,,,,,,,,,,1,15,35,7,,,,,,,,,,,,,n,1,1.5813061006410862,1650.6174290643394,None,,,,,001,69,2019_Oct_28_1501,ACPT_experiment_5_30_19,3.1.0,59.95028702148976,
,,,C,G,d,b,,,,,,,,,,1,16,36,12,,,,,,,,,,,,,b,1,3.1525671773779322,1655.4847167780827,None,,,,,001,69,2019_Oct_28_1501,ACPT_experiment_5_30_19,3.1.0,59.95028702148976,
,,,C,U,g,n,,,,,,,,,,1,17,37,16,,,,,,,,,,,,,n,1,0.7672821291489527,1661.9232888125516,None,,,,,001,69,2019_Oct_28_1501,ACPT_experiment_5_30_19,3.1.0,59.95028702148976,
,,,C,D,d,v,,,,,,,,,,1,18,38,18,,,,,,,,,,,,,v,1,1.8345610886644863,1665.9935034571681,None,,,,,001,69,2019_Oct_28_1501,ACPT_experiment_5_30_19,3.1.0,59.95028702148976,
,,,C,U,d,n,,,,,,,,,,1,19,39,6,,,,,,,,,,,,,n,1,1.267717274655297,1671.1140443477125,None,,,,,001,69,2019_Oct_28_1501,ACPT_experiment_5_30_19,3.1.0,59.95028702148976,
,,,C,D,g,b,,,,,,,,,,2,0,40,10,,,,,,,,,,,,,b,1,3.819545776310406,1675.6846651583255,None,,,,,001,69,2019_Oct_28_1501,ACPT_experiment_5_30_19,3.1.0,59.95028702148976,
,,,C,G,y,b,,,,,,,,,,2,1,41,14,,,,,,,,,,,,,b,1,1.8181719662425166,1682.790174435544,None,,,,,001,69,2019_Oct_28_1501,ACPT_experiment_5_30_19,3.1.0,59.95028702148976,
,,,C,D,d,v,,,,,,,,,,2,2,42,9,,,,,,,,,,,,,v,1,2.618796837006812,1687.8943074877352,None,,,,,001,69,2019_Oct_28_1501,ACPT_experiment_5_30_19,3.1.0,59.95028702148976,
,,,C,D,g,b,,,,,,,,,,2,3,43,1,,,,,,,,,,,,,b,1,1.3177799881377723,1693.7823991716723,None,,,,,001,69,2019_Oct_28_1501,ACPT_experiment_5_30_19,3.1.0,59.95028702148976,
,,,C,D,d,v,,,,,,,,,,2,4,44,0,,,,,,,,,,,,,v,1,1.4175872441846877,1698.4030567349473,None,,,,,001,69,2019_Oct_28_1501,ACPT_experiment_5_30_19,3.1.0,59.95028702148976,
,,,C,U,g,n,,,,,,,,,,2,5,45,7,,,,,,,,,,,,,n,1,0.8006635101119173,1703.1066195548337,None,,,,,001,69,2019_Oct_28_1501,ACPT_experiment_5_30_19,3.1.0,59.95028702148976,
,,,C,U,g,n,,,,,,,,,,2,6,46,16,,,,,,,,,,,,,n,1,1.2843980034340348,1707.1765757987887,None,,,,,001,69,2019_Oct_28_1501,ACPT_experiment_5_30_19,3.1.0,59.95028702148976,
,,,C,G,y,b,,,,,,,,,,2,7,47,5,,,,,,,,,,,,,b,1,1.1175843764212914,1711.74695722654,None,,,,,001,69,2019_Oct_28_1501,ACPT_experiment_5_30_19,3.1.0,59.95028702148976,
,,,C,U,d,n,,,,,,,,,,2,8,48,6,,,,,,,,,,,,,n,1,1.184297027939465,1716.1505265366322,None,,,,,001,69,2019_Oct_28_1501,ACPT_experiment_5_30_19,3.1.0,59.95028702148976,
,,,C,D,y,b,,,,,,,,,,2,9,49,11,,,,,,,,,,,,,b,1,0.9341368104724097,1720.620806687024,None,,,,,001,69,2019_Oct_28_1501,ACPT_experiment_5_30_19,3.1.0,59.95028702148976,
,,,C,U,y,n,,,,,,,,,,2,10,50,8,,,,,,,,,,,,,n,1,0.8170692353778577,1724.85785095776,None,,,,,001,69,2019_Oct_28_1501,ACPT_experiment_5_30_19,3.1.0,59.95028702148976,
,,,C,G,g,v,,,,,,,,,,2,11,51,13,,,,,,,,,,,,,v,1,3.2693325806721987,1728.9608969763212,None,,,,,001,69,2019_Oct_28_1501,ACPT_experiment_5_30_19,3.1.0,59.95028702148976,
,,,C,G,d,b,,,,,,,,,,2,12,52,3,,,,,,,,,,,,,b,1,1.9182385285639612,1735.5162066420453,None,,,,,001,69,2019_Oct_28_1501,ACPT_experiment_5_30_19,3.1.0,59.95028702148976,
,,,C,G,d,b,,,,,,,,,,2,13,53,12,,,,,,,,,,,,,b,1,1.2510253766959067,1740.7204201425739,None,,,,,001,69,2019_Oct_28_1501,ACPT_experiment_5_30_19,3.1.0,59.95028702148976,
,,,C,G,g,v,,,,,,,,,,2,14,54,19,,,,,,,,,,,,,v,1,1.6510812226333655,1745.2576964003529,None,,,,,001,69,2019_Oct_28_1501,ACPT_experiment_5_30_19,3.1.0,59.95028702148976,
,,,C,D,y,b,,,,,,,,,,2,15,55,2,,,,,,,,,,,,,b,1,0.9508009363999008,1750.1947417276351,None,,,,,001,69,2019_Oct_28_1501,ACPT_experiment_5_30_19,3.1.0,59.95028702148976,
,,,C,D,d,v,,,,,,,,,,2,16,56,18,,,,,,,,,,,,,b,0,4.984070021750085,1754.4515361406266,None,,,,,001,69,2019_Oct_28_1501,ACPT_experiment_5_30_19,3.1.0,59.95028702148976,
,,,C,G,g,v,,,,,,,,,,2,17,57,4,,,,,,,,,,,,,b,0,1.334434756096016,1762.7215696632811,None,,,,,001,69,2019_Oct_28_1501,ACPT_experiment_5_30_19,3.1.0,59.95028702148976,
,,,C,U,d,n,,,,,,,,,,2,18,58,15,,,,,,,,,,,,,n,1,1.3844923377837404,1767.3419790894732,None,,,,,001,69,2019_Oct_28_1501,ACPT_experiment_5_30_19,3.1.0,59.95028702148976,
,,,C,U,y,n,,,,,,,,,,2,19,59,17,,,,,,,,,,,,,n,1,0.6004986891312001,1771.9957484638617,None,,,,,001,69,2019_Oct_28_1501,ACPT_experiment_5_30_19,3.1.0,59.95028702148976,
,,,C,G,y,b,,,,,,,,,,3,0,60,5,,,,,,,,,,,,,b,1,1.284140206509619,1775.9158283990182,None,,,,,001,69,2019_Oct_28_1501,ACPT_experiment_5_30_19,3.1.0,59.95028702148976,
,,,C,D,g,b,,,,,,,,,,3,1,61,1,,,,,,,,,,,,,v,0,3.9865755421960785,1780.4859562560305,None,,,,,001,69,2019_Oct_28_1501,ACPT_experiment_5_30_19,3.1.0,59.95028702148976,
,,,C,U,d,n,,,,,,,,,,3,2,62,15,,,,,,,,,,,,,n,1,0.9508172373789421,1787.7585176375069,None,,,,,001,69,2019_Oct_28_1501,ACPT_experiment_5_30_19,3.1.0,59.95028702148976,
,,,C,G,g,v,,,,,,,,,,3,3,63,4,,,,,,,,,,,,,v,1,6.037834566221136,1792.0123392353962,None,,,,,001,69,2019_Oct_28_1501,ACPT_experiment_5_30_19,3.1.0,59.95028702148976,
,,,C,G,d,b,,,,,,,,,,3,4,64,3,,,,,,,,,,,,,b,1,1.1342466911301017,1801.3361931484615,None,,,,,001,69,2019_Oct_28_1501,ACPT_experiment_5_30_19,3.1.0,59.95028702148976,
,,,C,U,g,n,,,,,,,,,,3,5,65,16,,,,,,,,,,,,,n,1,1.0174960794647632,1805.7564268863498,None,,,,,001,69,2019_Oct_28_1501,ACPT_experiment_5_30_19,3.1.0,59.95028702148976,
,,,C,U,d,n,,,,,,,,,,3,6,66,6,,,,,,,,,,,,,n,1,1.6680677456533886,1810.0432268688419,None,,,,,001,69,2019_Oct_28_1501,ACPT_experiment_5_30_19,3.1.0,59.95028702148976,
,,,C,G,d,b,,,,,,,,,,3,7,67,12,,,,,,,,,,,,,b,1,3.1192051160905976,1814.9972409088114,None,,,,,001,69,2019_Oct_28_1501,ACPT_experiment_5_30_19,3.1.0,59.95028702148976,
,,,C,U,g,n,,,,,,,,,,3,8,68,7,,,,,,,,,,,,,n,1,0.8006798110909585,1821.4024025828003,None,,,,,001,69,2019_Oct_28_1501,ACPT_experiment_5_30_19,3.1.0,59.95028702148976,
,,,C,U,y,n,,,,,,,,,,3,9,69,17,,,,,,,,,,,,,b,0,1.5479645665072894,1825.5090791910516,None,,,,,001,69,2019_Oct_28_1501,ACPT_experiment_5_30_19,3.1.0,59.95028702148976,
,,,C,D,d,v,,,,,,,,,,3,10,70,9,,,,,,,,,,,,,v,1,3.8531333344399172,1830.3429979004977,None,,,,,001,69,2019_Oct_28_1501,ACPT_experiment_5_30_19,3.1.0,59.95028702148976,
,,,C,D,d,v,,,,,,,,,,3,11,71,18,,,,,,,,,,,,,v,1,1.134414530810318,1837.4652823917786,None,,,,,001,69,2019_Oct_28_1501,ACPT_experiment_5_30_19,3.1.0,59.95028702148976,
,,,C,D,y,b,,,,,,,,,,3,12,72,2,,,,,,,,,,,,,b,1,0.9007303743019293,1841.9023713392635,None,,,,,001,69,2019_Oct_28_1501,ACPT_experiment_5_30_19,3.1.0,59.95028702148976,
,,,C,G,y,b,,,,,,,,,,3,13,73,14,,,,,,,,,,,,,b,1,1.2844191343283455,1846.0890534415448,None,,,,,001,69,2019_Oct_28_1501,ACPT_experiment_5_30_19,3.1.0,59.95028702148976,
,,,C,D,d,v,,,,,,,,,,3,14,74,0,,,,,,,,,,,,,v,1,2.8854723585245665,1850.6763700744268,None,,,,,001,69,2019_Oct_28_1501,ACPT_experiment_5_30_19,3.1.0,59.95028702148976,
,,,C,D,y,b,,,,,,,,,,3,15,75,11,,,,,,,,,,,,,b,1,1.2510289991332684,1856.8311107153277,None,,,,,001,69,2019_Oct_28_1501,ACPT_experiment_5_30_19,3.1.0,59.95028702148976,
,,,C,D,g,b,,,,,,,,,,3,16,76,10,,,,,,,,,,,,,b,1,4.55373843272173,1861.368138232283,None,,,,,001,69,2019_Oct_28_1501,ACPT_experiment_5_30_19,3.1.0,59.95028702148976,
,,,C,G,g,v,,,,,,,,,,3,17,77,19,,,,,,,,,,,,,v,1,1.5345992752081656,1869.2077957910296,None,,,,,001,69,2019_Oct_28_1501,ACPT_experiment_5_30_19,3.1.0,59.95028702148976,
,,,C,U,y,n,,,,,,,,,,3,18,78,8,,,,,,,,,,,,,b,0,0.984143376143038,1874.0283688307245,None,,,,,001,69,2019_Oct_28_1501,ACPT_experiment_5_30_19,3.1.0,59.95028702148976,
,,,C,G,g,v,,,,,,,,,,3,19,79,13,,,,,,,,,,,,,v,1,3.085434322914807,1878.315579658196,None,,,,,001,69,2019_Oct_28_1501,ACPT_experiment_5_30_19,3.1.0,59.95028702148976,
,,,C,D,d,v,,,,,,,,,,4,0,80,9,,,,,,,,,,,,,v,1,1.5012375157893985,1884.6869992166503,None,,,,,001,69,2019_Oct_28_1501,ACPT_experiment_5_30_19,3.1.0,59.95028702148976,
,,,C,D,y,b,,,,,,,,,,4,1,81,2,,,,,,,,,,,,,b,1,0.91742197039639,1889.4575321831107,None,,,,,001,69,2019_Oct_28_1501,ACPT_experiment_5_30_19,3.1.0,59.95028702148976,
,,,C,G,g,v,,,,,,,,,,4,2,82,19,,,,,,,,,,,,,v,1,2.1513361517936573,1893.6780134543442,None,,,,,001,69,2019_Oct_28_1501,ACPT_experiment_5_30_19,3.1.0,59.95028702148976,
,,,C,U,y,n,,,,,,,,,,4,3,83,17,,,,,,,,,,,,,b,0,0.9508048607094679,1899.1153538594845,None,,,,,001,69,2019_Oct_28_1501,ACPT_experiment_5_30_19,3.1.0,59.95028702148976,
,,,C,U,y,n,,,,,,,,,,4,4,84,8,,,,,,,,,,,,,n,1,1.7680986873201618,1903.3521267491487,None,,,,,001,69,2019_Oct_28_1501,ACPT_experiment_5_30_19,3.1.0,59.95028702148976,
,,,C,U,g,n,,,,,,,,,,4,5,85,7,,,,,,,,,,,,,n,1,0.8507153562750318,1908.389522698355,None,,,,,001,69,2019_Oct_28_1501,ACPT_experiment_5_30_19,3.1.0,59.95028702148976,
,,,C,U,g,n,,,,,,,,,,4,6,86,16,,,,,,,,,,,,,n,1,0.7172589606343536,1912.5262103097666,None,,,,,001,69,2019_Oct_28_1501,ACPT_experiment_5_30_19,3.1.0,59.95028702148976,
,,,C,G,y,b,,,,,,,,,,4,7,87,14,,,,,,,,,,,,,b,1,2.585448661735427,1916.5294523928496,None,,,,,001,69,2019_Oct_28_1501,ACPT_experiment_5_30_19,3.1.0,59.95028702148976,
,,,C,D,g,b,,,,,,,,,,4,8,88,10,,,,,,,,,,,,,b,1,2.0016343238203262,1922.40087059289,None,,,,,001,69,2019_Oct_28_1501,ACPT_experiment_5_30_19,3.1.0,59.95028702148976,
,,,C,U,d,n,,,,,,,,,,4,9,89,15,,,,,,,,,,,,,n,1,3.286027799204021,1927.6884883410312,None,,,,,001,69,2019_Oct_28_1501,ACPT_experiment_5_30_19,3.1.0,59.95028702148976,
,,,C,U,d,n,,,,,,,,,,4,10,90,6,,,,,,,,,,,,,n,1,1.1177102561814536,1934.243664278376,None,,,,,001,69,2019_Oct_28_1501,ACPT_experiment_5_30_19,3.1.0,59.95028702148976,
,,,C,G,d,b,,,,,,,,,,4,11,91,12,,,,,,,,,,,,,b,1,4.319938660031767,1938.6642801835987,None,,,,,001,69,2019_Oct_28_1501,ACPT_experiment_5_30_19,3.1.0,59.95028702148976,
,,,C,G,g,v,,,,,,,,,,4,12,92,4,,,,,,,,,,,,,v,1,1.8348379033923266,1946.253514294298,None,,,,,001,69,2019_Oct_28_1501,ACPT_experiment_5_30_19,3.1.0,59.95028702148976,
,,,C,G,g,v,,,,,,,,,,4,13,93,13,,,,,,,,,,,,,v,1,2.7355746169632766,1951.3576536857581,None,,,,,001,69,2019_Oct_28_1501,ACPT_experiment_5_30_19,3.1.0,59.95028702148976,
,,,C,D,d,v,,,,,,,,,,4,14,94,18,,,,,,,,,,,,,v,1,2.43532451772262,1957.3791911998887,None,,,,,001,69,2019_Oct_28_1501,ACPT_experiment_5_30_19,3.1.0,59.95028702148976,
,,,C,D,y,b,,,,,,,,,,4,15,95,11,,,,,,,,,,,,,b,1,1.0173726146640547,1963.1004906895796,None,,,,,001,69,2019_Oct_28_1501,ACPT_experiment_5_30_19,3.1.0,59.95028702148976,
,,,C,G,d,b,,,,,,,,,,4,16,96,3,,,,,,,,,,,,,b,1,2.6852420317663928,1967.420932566787,None,,,,,001,69,2019_Oct_28_1501,ACPT_experiment_5_30_19,3.1.0,59.95028702148976,
,,,C,G,y,b,,,,,,,,,,4,17,97,5,,,,,,,,,,,,,b,1,1.100905156992667,1973.3921613434431,None,,,,,001,69,2019_Oct_28_1501,ACPT_experiment_5_30_19,3.1.0,59.95028702148976,
,,,C,D,d,v,,,,,,,,,,4,18,98,0,,,,,,,,,,,,,v,1,1.4676010547336773,1977.8293423612595,None,,,,,001,69,2019_Oct_28_1501,ACPT_experiment_5_30_19,3.1.0,59.95028702148976,
,,,C,D,g,b,,,,,,,,,,4,19,99,1,,,,,,,,,,,,,b,1,1.5012396288839227,1982.5829310664922,None,,,,,001,69,2019_Oct_28_1501,ACPT_experiment_5_30_19,3.1.0,59.95028702148976,
,,,C,D,g,b,,,,,,,,,,5,0,100,10,,,,,,,,,,,,,b,1,1.351132993328065,1987.3534401852303,None,,,,,001,69,2019_Oct_28_1501,ACPT_experiment_5_30_19,3.1.0,59.95028702148976,
,,,C,G,g,v,,,,,,,,,,5,1,101,19,,,,,,,,,,,,,v,1,4.019677089730976,1992.0074875818282,None,,,,,001,69,2019_Oct_28_1501,ACPT_experiment_5_30_19,3.1.0,59.95028702148976,
,,,C,U,y,n,,,,,,,,,,5,2,102,8,,,,,,,,,,,,,n,1,1.3511019007237337,1999.3131731510875,None,,,,,001,69,2019_Oct_28_1501,ACPT_experiment_5_30_19,3.1.0,59.95028702148976,
,,,C,G,d,b,,,,,,,,,,5,3,103,3,,,,,,,,,,,,,b,1,3.636043270034861,2003.9671610793084,None,,,,,001,69,2019_Oct_28_1501,ACPT_experiment_5_30_19,3.1.0,59.95028702148976,
,,,C,U,d,n,,,,,,,,,,5,4,104,15,,,,,,,,,,,,,n,1,1.317772743255773,2010.8891587941507,None,,,,,001,69,2019_Oct_28_1501,ACPT_experiment_5_30_19,3.1.0,59.95028702148976,
,,,C,G,y,b,,,,,,,,,,5,5,105,14,,,,,,,,,,,,,b,1,1.7511655952803267,2015.5098613360497,None,,,,,001,69,2019_Oct_28_1501,ACPT_experiment_5_30_19,3.1.0,59.95028702148976,
,,,C,D,g,b,,,,,,,,,,5,6,106,1,,,,,,,,,,,,,b,1,4.687166452589736,2020.546976848087,None,,,,,001,69,2019_Oct_28_1501,ACPT_experiment_5_30_19,3.1.0,59.95028702148976,
,,,C,G,y,b,,,,,,,,,,5,7,107,5,,,,,,,,,,,,,b,1,1.4511898958080565,2028.5201215932102,None,,,,,001,69,2019_Oct_28_1501,ACPT_experiment_5_30_19,3.1.0,59.95028702148976,
,,,C,U,d,n,,,,,,,,,,5,8,108,6,,,,,,,,,,,,,n,1,0.9174083862490079,2033.257293102124,None,,,,,001,69,2019_Oct_28_1501,ACPT_experiment_5_30_19,3.1.0,59.95028702148976,
,,,C,G,g,v,,,,,,,,,,5,9,109,4,,,,,,,,,,,,,v,1,5.487819397258136,2037.460692459441,None,,,,,001,69,2019_Oct_28_1501,ACPT_experiment_5_30_19,3.1.0,59.95028702148976,
,,,C,G,g,v,,,,,,,,,,5,10,110,13,,,,,,,,,,,,,v,1,3.919861683196359,2046.2177828559034,None,,,,,001,69,2019_Oct_28_1501,ACPT_experiment_5_30_19,3.1.0,59.95028702148976,
,,,C,U,g,n,,,,,,,,,,5,11,111,16,,,,,,,,,,,,,n,1,1.1509536825869873,2053.423611662445,None,,,,,001,69,2019_Oct_28_1501,ACPT_experiment_5_30_19,3.1.0,59.95028702148976,
,,,C,U,g,n,,,,,,,,,,5,12,112,7,,,,,,,,,,,,,n,1,0.984124660208181,2057.8438752854563,None,,,,,001,69,2019_Oct_28_1501,ACPT_experiment_5_30_19,3.1.0,59.95028702148976,
,,,C,D,d,v,,,,,,,,,,5,13,113,9,,,,,,,,,,,,,v,1,2.618793516438018,2062.1139996709644,None,,,,,001,69,2019_Oct_28_1501,ACPT_experiment_5_30_19,3.1.0,59.95028702148976,
,,,C,D,d,v,,,,,,,,,,5,14,114,0,,,,,,,,,,,,,b,0,1.317749499274214,2068.0187633294445,None,,,,,001,69,2019_Oct_28_1501,ACPT_experiment_5_30_19,3.1.0,59.95028702148976,
,,,C,D,d,v,,,,,,,,,,5,15,115,18,,,,,,,,,,,,,v,1,2.5687516319849237,2072.622505007268,None,,,,,001,69,2019_Oct_28_1501,ACPT_experiment_5_30_19,3.1.0,59.95028702148976,
,,,C,D,y,b,,,,,,,,,,5,16,116,11,,,,,,,,,,,,,b,1,0.9674840801344544,2078.460530355289,None,,,,,001,69,2019_Oct_28_1501,ACPT_experiment_5_30_19,3.1.0,59.95028702148976,
,,,C,D,y,b,,,,,,,,,,5,17,117,2,,,,,,,,,,,,,b,1,1.0808416737490916,2082.7340516831537,None,,,,,001,69,2019_Oct_28_1501,ACPT_experiment_5_30_19,3.1.0,59.95028702148976,
,,,C,G,d,b,,,,,,,,,,5,18,118,12,,,,,,,,,,,,,b,1,2.835643594244175,2087.1008801017924,None,,,,,001,69,2019_Oct_28_1501,ACPT_experiment_5_30_19,3.1.0,59.95028702148976,
,,,C,U,y,n,,,,,,,,,,5,19,119,17,,,,,,,,,,,,,b,0,1.0174951738554228,2093.2225056110074,None,,,,,001,69,2019_Oct_28_1501,ACPT_experiment_5_30_19,3.1.0,59.95028702148976,
,,,C,D,d,v,,,,,,,,,,6,0,120,18,,,,,,,,,,,,,v,1,1.534349326902884,2097.5429067357763,None,,,,,001,69,2019_Oct_28_1501,ACPT_experiment_5_30_19,3.1.0,59.95028702148976,
,,,C,G,g,v,,,,,,,,,,6,1,121,4,,,,,,,,,,,,,v,1,4.336871148330829,2102.3632367701757,None,,,,,001,69,2019_Oct_28_1501,ACPT_experiment_5_30_19,3.1.0,59.95028702148976,
,,,C,G,d,b,,,,,,,,,,6,2,122,3,,,,,,,,,,,,,b,1,2.818966186037869,2109.9693985392514,None,,,,,001,69,2019_Oct_28_1501,ACPT_experiment_5_30_19,3.1.0,59.95028702148976,
,,,C,U,d,n,,,,,,,,,,6,3,123,15,,,,,,,,,,,,,n,1,1.4178323625674238,2116.0743430178263,None,,,,,001,69,2019_Oct_28_1501,ACPT_experiment_5_30_19,3.1.0,59.95028702148976,
,,,C,U,d,n,,,,,,,,,,6,4,124,6,,,,,,,,,,,,,n,1,0.7639709178511112,2120.7981564803194,None,,,,,001,69,2019_Oct_28_1501,ACPT_experiment_5_30_19,3.1.0,59.95028702148976,
,,,C,G,g,v,,,,,,,,,,6,5,125,19,,,,,,,,,,,,,v,1,6.421875306583388,2124.8481065963133,None,,,,,001,69,2019_Oct_28_1501,ACPT_experiment_5_30_19,3.1.0,59.95028702148976,
,,,C,U,y,n,,,,,,,,,,6,6,126,17,,,,,,,,,,,,,n,1,0.7172574512806023,2134.555963817871,None,,,,,001,69,2019_Oct_28_1501,ACPT_experiment_5_30_19,3.1.0,59.95028702148976,
,,,C,D,y,b,,,,,,,,,,6,7,127,11,,,,,,,,,,,,,b,1,1.4845281093730591,2138.5759017232267,None,,,,,001,69,2019_Oct_28_1501,ACPT_experiment_5_30_19,3.1.0,59.95028702148976,
,,,C,D,g,b,,,,,,,,,,6,8,128,1,,,,,,,,,,,,,b,1,2.969081877690769,2143.3464223130213,None,,,,,001,69,2019_Oct_28_1501,ACPT_experiment_5_30_19,3.1.0,59.95028702148976,
,,,C,D,d,v,,,,,,,,,,6,9,129,9,,,,,,,,,,,,,v,1,1.2676943325423053,2149.584811716177,None,,,,,001,69,2019_Oct_28_1501,ACPT_experiment_5_30_19,3.1.0,59.95028702148976,
,,,C,D,y,b,,,,,,,,,,6,10,130,2,,,,,,,,,,,,,b,1,1.2510471113309904,2154.1384912842623,None,,,,,001,69,2019_Oct_28_1501,ACPT_experiment_5_30_19,3.1.0,59.95028702148976,
,,,C,G,d,b,,,,,,,,,,6,11,131,12,,,,,,,,,,,,,b,1,1.8348339790827595,2158.6754874067447,None,,,,,001,69,2019_Oct_28_1501,ACPT_experiment_5_30_19,3.1.0,59.95028702148976,
,,,C,D,g,b,,,,,,,,,,6,12,132,10,,,,,,,,,,,,,b,1,1.8181523447019572,2163.7962999802294,None,,,,,001,69,2019_Oct_28_1501,ACPT_experiment_5_30_19,3.1.0,59.95028702148976,
,,,C,U,g,n,,,,,,,,,,6,13,133,16,,,,,,,,,,,,,n,1,0.6672240191874153,2168.900436051121,None,,,,,001,69,2019_Oct_28_1501,ACPT_experiment_5_30_19,3.1.0,59.95028702148976,
,,,C,U,y,n,,,,,,,,,,6,14,134,8,,,,,,,,,,,,,b,0,0.8473636944036116,2172.8736490188494,None,,,,,001,69,2019_Oct_28_1501,ACPT_experiment_5_30_19,3.1.0,59.95028702148976,
,,,C,G,g,v,,,,,,,,,,6,15,135,13,,,,,,,,,,,,,v,1,4.3702525292901555,2177.0069958357053,None,,,,,001,69,2019_Oct_28_1501,ACPT_experiment_5_30_19,3.1.0,59.95028702148976,
,,,C,G,y,b,,,,,,,,,,6,16,136,5,,,,,,,,,,,,,b,1,2.101739223620825,2184.6464879697305,None,,,,,001,69,2019_Oct_28_1501,ACPT_experiment_5_30_19,3.1.0,59.95028702148976,
,,,C,U,g,n,,,,,,,,,,6,17,137,7,,,,,,,,,,,,,n,1,0.8507026777406281,2190.034207900844,None,,,,,001,69,2019_Oct_28_1501,ACPT_experiment_5_30_19,3.1.0,59.95028702148976,
,,,C,D,d,v,,,,,,,,,,6,18,138,0,,,,,,,,,,,,,v,1,1.467642109044391,2194.187797209819,None,,,,,001,69,2019_Oct_28_1501,ACPT_experiment_5_30_19,3.1.0,59.95028702148976,
,,,C,G,y,b,,,,,,,,,,6,19,139,14,0,0,0,0,0,0,0,0,,,,,b,1,1.0008259161368187,2198.9414158001746,None,,,,,001,69,2019_Oct_28_1501,ACPT_experiment_5_30_19,3.1.0,59.95028702148976,
,,,C,G,y,b,L,G,g,L,c ,,,,,6,19,139,14,0,0,0,0,,,,,0,0,0,18,,,,,,up,1.3177392356956261,2258.573031242031,None,001,69,2019_Oct_28_1501,ACPT_experiment_5_30_19,3.1.0,59.95028702148976,
,,,C,G,y,b,R,U,g,R,u,,,,,6,19,139,14,0,0,0,0,,,,,0,1,1,11,,,,,,down,1.4678670021421567,2261.175137086684,None,001,69,2019_Oct_28_1501,ACPT_experiment_5_30_19,3.1.0,59.95028702148976,
,,,C,G,y,b,L,D,y,L,y,,,,,6,19,139,14,0,0,0,0,,,,,0,2,2,32,,,,,,down,2.735560127210192,2263.9273658678685,None,001,69,2019_Oct_28_1501,ACPT_experiment_5_30_19,3.1.0,59.95028702148976,
,,,C,G,y,b,R,D,y,L,y,,,,,6,19,139,14,0,0,0,0,,,,,0,3,3,26,,,,,,down,2.8356369531065866,2267.94728415168,None,001,69,2019_Oct_28_1501,ACPT_experiment_5_30_19,3.1.0,59.95028702148976,
,,,C,G,y,b,R,D,d,R,c ,,,,,6,19,139,14,0,0,0,0,,,,,0,4,4,1,,,,,,up,1.4678582479173201,2272.0672868081347,None,001,69,2019_Oct_28_1501,ACPT_experiment_5_30_19,3.1.0,59.95028702148976,
,,,C,G,y,b,L,D,d,R,c ,,,,,6,19,139,14,0,0,0,0,,,,,0,5,5,13,,,,,,up,3.1525551025806635,2274.81951770241,None,001,69,2019_Oct_28_1501,ACPT_experiment_5_30_19,3.1.0,59.95028702148976,
,,,C,G,y,b,L,U,y,L,u,,,,,6,19,139,14,0,0,0,0,,,,,0,6,6,24,,,,,,down,2.285184978347388,2279.2731186333767,None,001,69,2019_Oct_28_1501,ACPT_experiment_5_30_19,3.1.0,59.95028702148976,
,,,C,G,y,b,L,D,y,R,y,,,,,6,19,139,14,0,0,0,0,,,,,0,7,7,33,,,,,,down,1.3344093990235706,2282.8426801823916,None,001,69,2019_Oct_28_1501,ACPT_experiment_5_30_19,3.1.0,59.95028702148976,
,,,C,G,y,b,R,G,d,R,i,,,,,6,19,139,14,0,0,0,0,,,,,0,8,8,5,,,,,,up,2.0516635297353787,2285.478145371504,None,001,69,2019_Oct_28_1501,ACPT_experiment_5_30_19,3.1.0,59.95028702148976,
,,,C,G,y,b,L,U,g,L,u,,,,,6,19,139,14,0,0,0,0,,,,,0,9,9,22,,,,,,down,2.685504054868943,2288.814184264429,None,001,69,2019_Oct_28_1501,ACPT_experiment_5_30_19,3.1.0,59.95028702148976,
,,,C,G,y,b,L,G,d,R,i,,,,,6,19,139,14,0,0,0,0,,,,,0,10,10,17,,,,,,down,2.5353768921595474,2292.7840781722407,None,001,69,2019_Oct_28_1501,ACPT_experiment_5_30_19,3.1.0,59.95028702148976,
,,,C,G,y,b,R,D,g,R,i,,,,,6,19,139,14,0,0,0,0,,,,,0,11,11,3,,,,,,up,1.9682568671632907,2296.603821371489,None,001,69,2019_Oct_28_1501,ACPT_experiment_5_30_19,3.1.0,59.95028702148976,
,,,C,G,y,b,L,G,d,L,i,,,,,6,19,139,14,0,0,0,0,,,,,0,12,12,16,,,,,,down,3.3193479005713016,2299.8564656766357,None,001,69,2019_Oct_28_1501,ACPT_experiment_5_30_19,3.1.0,59.95028702148976,
,,,C,G,y,b,R,U,g,L,u,,,,,6,19,139,14,0,0,0,0,,,,,0,13,13,10,,,,,,down,2.2017973335860006,2304.460159659011,None,001,69,2019_Oct_28_1501,ACPT_experiment_5_30_19,3.1.0,59.95028702148976,
,,,C,G,y,b,R,D,g,L,i,,,,,6,19,139,14,0,0,0,0,,,,,0,14,14,2,,,,,,down,8.106569746294554,2307.94633145017,None,001,69,2019_Oct_28_1501,ACPT_experiment_5_30_19,3.1.0,59.95028702148976,
,,,C,G,y,b,L,D,g,R,i,,,,,6,19,139,14,0,0,0,0,,,,,0,15,15,15,,,,,,up,7.456043662466982,2317.3372659942033,None,001,69,2019_Oct_28_1501,ACPT_experiment_5_30_19,3.1.0,59.95028702148976,
,,,C,G,y,b,L,U,g,R,u,,,,,6,19,139,14,0,0,0,0,,,,,0,16,16,23,,,,,,down,1.0675373601770843,2326.0776747562813,None,001,69,2019_Oct_28_1501,ACPT_experiment_5_30_19,3.1.0,59.95028702148976,
,,,C,G,y,b,R,D,y,R,y,,,,,6,19,139,14,0,0,0,0,,,,,0,17,17,27,,,,,,down,1.067522266683227,2328.4462682084195,None,001,69,2019_Oct_28_1501,ACPT_experiment_5_30_19,3.1.0,59.95028702148976,
,,,C,G,y,b,R,G,g,R,c ,,,,,6,19,139,14,0,0,0,0,,,,,0,18,18,7,,,,,,up,2.3519021579159016,2330.81484505771,None,001,69,2019_Oct_28_1501,ACPT_experiment_5_30_19,3.1.0,59.95028702148976,
,,,C,G,y,b,R,U,y,L,u,,,,,6,19,139,14,0,0,0,0,,,,,0,19,19,30,,,,,,down,1.3343170268235554,2334.4510978254802,None,001,69,2019_Oct_28_1501,ACPT_experiment_5_30_19,3.1.0,59.95028702148976,
,,,C,G,y,b,R,G,y,L,y,,,,,6,19,139,14,0,0,0,0,,,,,0,20,20,28,,,,,,down,5.354339455756417,2337.0699034167155,None,001,69,2019_Oct_28_1501,ACPT_experiment_5_30_19,3.1.0,59.95028702148976,
,,,C,G,y,b,L,G,y,R,y,,,,,6,19,139,14,0,0,0,0,,,,,0,21,21,35,,,,,,down,0.8673749541558209,2343.7086185375338,None,001,69,2019_Oct_28_1501,ACPT_experiment_5_30_19,3.1.0,59.95028702148976,
,,,C,G,y,b,L,G,g,R,c ,,,,,6,19,139,14,0,0,0,0,,,,,0,22,22,19,,,,,,up,1.5345745218728553,2345.860357081947,None,001,69,2019_Oct_28_1501,ACPT_experiment_5_30_19,3.1.0,59.95028702148976,
,,,C,G,y,b,R,U,d,R,u,,,,,6,19,139,14,0,0,0,0,,,,,0,23,23,9,,,,,,down,3.8364616617654974,2348.6793081744872,None,001,69,2019_Oct_28_1501,ACPT_experiment_5_30_19,3.1.0,59.95028702148976,
,,,C,G,y,b,L,D,g,L,i,,,,,6,19,139,14,0,0,0,0,,,,,0,24,24,14,,,,,,down,5.137490887300373,2353.800121653585,None,001,69,2019_Oct_28_1501,ACPT_experiment_5_30_19,3.1.0,59.95028702148976,
,,,C,G,y,b,R,G,d,L,i,,,,,6,19,139,14,0,0,0,0,,,,,0,25,25,4,,,,,,down,1.434515808174183,2360.221986394725,None,001,69,2019_Oct_28_1501,ACPT_experiment_5_30_19,3.1.0,59.95028702148976,
,,,C,G,y,b,L,U,d,R,u,,,,,6,19,139,14,0,0,0,0,,,,,0,26,26,21,,,,,,down,1.1175765278021572,2362.940847680962,None,001,69,2019_Oct_28_1501,ACPT_experiment_5_30_19,3.1.0,59.95028702148976,
,,,C,G,y,b,R,G,g,L,c ,,,,,6,19,139,14,0,0,0,0,,,,,0,27,27,6,,,,,,up,1.8014667860079498,2365.3427950439,None,001,69,2019_Oct_28_1501,ACPT_experiment_5_30_19,3.1.0,59.95028702148976,
,,,C,G,y,b,R,D,d,L,c,,,,,6,19,139,14,0,0,0,0,,,,,0,28,28,0,,,,,,up,2.635480282609933,2368.4286224014686,None,001,69,2019_Oct_28_1501,ACPT_experiment_5_30_19,3.1.0,59.95028702148976,
,,,C,G,y,b,L,G,y,L,y,,,,,6,19,139,14,0,0,0,0,,,,,0,29,29,34,,,,,,down,1.0508502921366016,2372.3484647649893,None,001,69,2019_Oct_28_1501,ACPT_experiment_5_30_19,3.1.0,59.95028702148976,
,,,C,G,y,b,L,U,y,R,u,,,,,6,19,139,14,0,0,0,0,,,,,0,30,30,25,,,,,,down,1.117578942761611,2374.667004257877,None,001,69,2019_Oct_28_1501,ACPT_experiment_5_30_19,3.1.0,59.95028702148976,
,,,C,G,y,b,L,U,d,L,u,,,,,6,19,139,14,0,0,0,0,,,,,0,31,31,20,,,,,,down,2.902394583245041,2377.0689449796773,None,001,69,2019_Oct_28_1501,ACPT_experiment_5_30_19,3.1.0,59.95028702148976,
,,,C,G,y,b,L,D,d,L,c ,,,,,6,19,139,14,0,0,0,0,,,,,0,32,32,12,,,,,,up,3.7030091904307483,2381.2556856447263,None,001,69,2019_Oct_28_1501,ACPT_experiment_5_30_19,3.1.0,59.95028702148976,
,,,C,G,y,b,R,U,y,R,u,,,,,6,19,139,14,0,0,0,0,,,,,0,33,33,31,,,,,,down,1.2843753631859727,2386.2430439356613,None,001,69,2019_Oct_28_1501,ACPT_experiment_5_30_19,3.1.0,59.95028702148976,
,,,C,G,y,b,R,G,y,R,y,,,,,6,19,139,14,0,0,0,0,,,,,0,34,34,29,,,,,,down,0.9507779942832713,2388.811786511549,None,001,69,2019_Oct_28_1501,ACPT_experiment_5_30_19,3.1.0,59.95028702148976,
,,,C,G,y,b,R,U,d,L,u,,,,,6,19,139,14,0,0,0,0,,,,,0,35,35,8,,,,,,down,0.9174080843768024,2391.0469317185307,None,001,69,2019_Oct_28_1501,ACPT_experiment_5_30_19,3.1.0,59.95028702148976,
,,,C,G,y,b,L,G,y,L,y,,,,,6,19,139,14,0,0,0,0,,,,,1,0,36,34,,,,,,down,0.9174068768988946,2393.265395894872,None,001,69,2019_Oct_28_1501,ACPT_experiment_5_30_19,3.1.0,59.95028702148976,
,,,C,G,y,b,R,U,g,L,u,,,,,6,19,139,14,0,0,0,0,,,,,1,1,37,10,,,,,,down,3.302668077405542,2395.467185983576,None,001,69,2019_Oct_28_1501,ACPT_experiment_5_30_19,3.1.0,59.95028702148976,
,,,C,G,y,b,R,U,d,L,u,,,,,6,19,139,14,0,0,0,0,,,,,1,2,38,8,,,,,,down,1.067550038715126,2400.0375227345794,None,001,69,2019_Oct_28_1501,ACPT_experiment_5_30_19,3.1.0,59.95028702148976,
,,,C,G,y,b,R,D,d,R,c ,,,,,6,19,139,14,0,0,0,0,,,,,1,3,39,1,,,,,,up,3.18591505078075,2402.3894454196525,None,001,69,2019_Oct_28_1501,ACPT_experiment_5_30_19,3.1.0,59.95028702148976,
,,,C,G,y,b,R,D,g,L,i,,,,,6,19,139,14,0,0,0,0,,,,,1,4,40,2,,,,,,down,1.1342518229175766,2406.859734022404,None,001,69,2019_Oct_28_1501,ACPT_experiment_5_30_19,3.1.0,59.95028702148976,
,,,C,G,y,b,L,G,d,L,i,,,,,6,19,139,14,0,0,0,0,,,,,1,5,41,16,,,,,,down,2.5020314337161835,2409.2783612085077,None,001,69,2019_Oct_28_1501,ACPT_experiment_5_30_19,3.1.0,59.95028702148976,
,,,C,G,y,b,R,G,y,R,y,,,,,6,19,139,14,0,0,0,0,,,,,1,6,42,29,,,,,,down,0.9174225741371629,2413.064733894109,None,001,69,2019_Oct_28_1501,ACPT_experiment_5_30_19,3.1.0,59.95028702148976,
,,,C,G,y,b,R,U,y,R,u,,,,,6,19,139,14,0,0,0,0,,,,,1,7,43,31,,,,,,down,0.7505965704549453,2415.2832231256543,None,001,69,2019_Oct_28_1501,ACPT_experiment_5_30_19,3.1.0,59.95028702148976,
,,,C,G,y,b,R,G,y,L,y,,,,,6,19,139,14,0,0,0,0,,,,,1,8,44,28,,,,,,down,0.800666528812144,2417.3348549590446,None,001,69,2019_Oct_28_1501,ACPT_experiment_5_30_19,3.1.0,59.95028702148976,
,,,C,G,y,b,L,U,y,R,u,,,,,6,19,139,14,0,0,0,0,,,,,1,9,45,25,,,,,,down,0.7839649710113008,2419.4198989641336,None,001,69,2019_Oct_28_1501,ACPT_experiment_5_30_19,3.1.0,59.95028702148976,
,,,C,G,y,b,L,D,g,R,i,,,,,6,19,139,14,0,0,0,0,,,,,1,10,46,15,,,,,,down,7.039033895463945,2421.4882399020753,None,001,69,2019_Oct_28_1501,ACPT_experiment_5_30_19,3.1.0,59.95028702148976,
,,,C,G,y,b,L,D,g,L,i,,,,,6,19,139,14,0,0,0,0,,,,,1,11,47,14,,,,,,down,1.0175129841809394,2429.794941565531,None,001,69,2019_Oct_28_1501,ACPT_experiment_5_30_19,3.1.0,59.95028702148976,
,,,C,G,y,b,R,U,g,R,u,,,,,6,19,139,14,0,0,0,0,,,,,1,12,48,11,,,,,,down,1.017540454344271,2432.080119600869,None,001,69,2019_Oct_28_1501,ACPT_experiment_5_30_19,3.1.0,59.95028702148976,
,,,C,G,y,b,L,D,y,R,y,,,,,6,19,139,14,0,0,0,0,,,,,1,13,49,33,,,,,,down,0.8006541521463078,2434.3820073444986,None,001,69,2019_Oct_28_1501,ACPT_experiment_5_30_19,3.1.0,59.95028702148976,
,,,C,G,y,b,R,U,y,L,u,,,,,6,19,139,14,0,0,0,0,,,,,1,14,50,30,,,,,,down,0.6338990878975892,2436.467003956008,None,001,69,2019_Oct_28_1501,ACPT_experiment_5_30_19,3.1.0,59.95028702148976,
,,,C,G,y,b,L,U,g,R,u,,,,,6,19,139,14,0,0,0,0,,,,,1,15,51,23,,,,,,down,0.8673710298462538,2438.3852473144907,None,001,69,2019_Oct_28_1501,ACPT_experiment_5_30_19,3.1.0,59.95028702148976,
,,,C,G,y,b,L,U,d,R,u,,,,,6,19,139,14,0,0,0,0,,,,,1,16,52,21,,,,,,down,1.5345772387045145,2440.536993103782,None,001,69,2019_Oct_28_1501,ACPT_experiment_5_30_19,3.1.0,59.95028702148976,
,,,C,G,y,b,L,G,d,R,i,,,,,6,19,139,14,0,0,0,0,,,,,1,17,53,17,,,,,,down,2.001620739672944,2443.3559408757574,None,001,69,2019_Oct_28_1501,ACPT_experiment_5_30_19,3.1.0,59.95028702148976,
,,,C,G,y,b,L,U,d,L,u,,,,,6,19,139,14,0,0,0,0,,,,,1,18,54,20,,,,,,down,1.2176554667858,2446.6419330543067,None,001,69,2019_Oct_28_1501,ACPT_experiment_5_30_19,3.1.0,59.95028702148976,
,,,C,G,y,b,R,G,d,L,i,,,,,6,19,139,14,0,0,0,0,,,,,1,19,55,4,,,,,,down,1.5345733143949474,2449.143979883389,None,001,69,2019_Oct_28_1501,ACPT_experiment_5_30_19,3.1.0,59.95028702148976,
,,,C,G,y,b,R,G,g,R,c ,,,,,6,19,139,14,0,0,0,0,,,,,1,20,56,7,,,,,,up,1.0675370583085169,2451.962902298288,None,001,69,2019_Oct_28_1501,ACPT_experiment_5_30_19,3.1.0,59.95028702148976,
,,,C,G,y,b,L,D,d,R,c ,,,,,6,19,139,14,0,0,0,0,,,,,1,21,57,13,,,,,,up,1.1009072700871911,2454.3148071730357,None,001,69,2019_Oct_28_1501,ACPT_experiment_5_30_19,3.1.0,59.95028702148976,
,,,C,G,y,b,L,U,g,L,u,,,,,6,19,139,14,0,0,0,0,,,,,1,22,58,22,,,,,,down,0.9340900206334481,2456.700072297852,None,001,69,2019_Oct_28_1501,ACPT_experiment_5_30_19,3.1.0,59.95028702148976,
,,,C,G,y,b,R,G,g,L,c ,,,,,6,19,139,14,0,0,0,0,,,,,1,23,59,6,,,,,,up,3.369390086892963,2458.9185376816713,None,001,69,2019_Oct_28_1501,ACPT_experiment_5_30_19,3.1.0,59.95028702148976,
,,,C,G,y,b,R,D,d,L,c,,,,,6,19,139,14,0,0,0,0,,,,,1,24,60,0,,,,,,up,0.984129791995656,2463.5723049429726,None,001,69,2019_Oct_28_1501,ACPT_experiment_5_30_19,3.1.0,59.95028702148976,
,,,C,G,y,b,R,U,d,R,u,,,,,6,19,139,14,0,0,0,0,,,,,1,25,61,9,,,,,,down,0.9674541950116691,2465.8408055701075,None,001,69,2019_Oct_28_1501,ACPT_experiment_5_30_19,3.1.0,59.95028702148976,
,,,C,G,y,b,L,D,y,L,y,,,,,6,19,139,14,0,0,0,0,,,,,1,26,62,32,,,,,,down,0.9340933412022423,2468.092628487164,None,001,69,2019_Oct_28_1501,ACPT_experiment_5_30_19,3.1.0,59.95028702148976,
,,,C,G,y,b,L,G,g,L,c ,,,,,6,19,139,14,0,0,0,0,,,,,1,27,63,18,,,,,,up,7.856349456709722,2470.3111053420434,None,001,69,2019_Oct_28_1501,ACPT_experiment_5_30_19,3.1.0,59.95028702148976,
,,,C,G,y,b,L,G,y,R,y,,,,,6,19,139,14,0,0,0,0,,,,,1,28,64,35,,,,,,down,1.1342783874715678,2479.451795145029,None,001,69,2019_Oct_28_1501,ACPT_experiment_5_30_19,3.1.0,59.95028702148976,
,,,C,G,y,b,R,D,y,R,y,,,,,6,19,139,14,0,0,0,0,,,,,1,29,65,27,,,,,,down,0.8507075076558976,2481.8871317375488,None,001,69,2019_Oct_28_1501,ACPT_experiment_5_30_19,3.1.0,59.95028702148976,
,,,C,G,y,b,L,U,y,L,u,,,,,6,19,139,14,0,0,0,0,,,,,1,30,66,24,,,,,,down,1.217649127520417,2484.0388696782247,None,001,69,2019_Oct_28_1501,ACPT_experiment_5_30_19,3.1.0,59.95028702148976,
,,,C,G,y,b,L,D,d,L,c ,,,,,6,19,139,14,0,0,0,0,,,,,1,31,67,12,,,,,,up,3.2025408392291865,2486.540966315846,None,001,69,2019_Oct_28_1501,ACPT_experiment_5_30_19,3.1.0,59.95028702148976,
,,,C,G,y,b,R,G,d,R,i,,,,,6,19,139,14,0,0,0,0,,,,,1,32,68,5,,,,,,down,1.3343701559315377,2491.0279021398055,None,001,69,2019_Oct_28_1501,ACPT_experiment_5_30_19,3.1.0,59.95028702148976,
,,,C,G,y,b,R,D,y,L,y,,,,,6,19,139,14,0,0,0,0,,,,,1,33,69,26,,,,,,down,1.0174909476736502,2493.6466443383542,None,001,69,2019_Oct_28_1501,ACPT_experiment_5_30_19,3.1.0,59.95028702148976,
,,,C,G,y,b,L,G,g,R,c ,,,,,6,19,139,14,0,0,0,0,,,,,1,34,70,19,,,,,,up,22.65169250924737,2495.9485043099485,None,001,69,2019_Oct_28_1501,ACPT_experiment_5_30_19,3.1.0,59.95028702148976,
,,,C,G,y,b,R,D,g,R,i,,,,,6,19,139,14,0,0,0,0,,,,,1,35,71,3,,,,,,down,1.9349029563636577,2519.88454742905,None,001,69,2019_Oct_28_1501,ACPT_experiment_5_30_19,3.1.0,59.95028702148976,
,,,C,G,y,b,,,,,,,,,,6,19,139,14,1,0,1,0,0,0,0,0,,,,,,,,,,,,,,001,69,2019_Oct_28_1501,ACPT_experiment_5_30_19,3.1.0,59.95028702148976,
,,,C,G,y,b,L,G,d,R,i,,,,,6,19,139,14,1,0,1,0,,,,,0,0,0,17,,,,,,up,1.3644457592563413,2538.653066923056,None,001,69,2019_Oct_28_1501,ACPT_experiment_5_30_19,3.1.0,59.95028702148976,
,,,C,G,y,b,R,U,y,R,u,,,,,6,19,139,14,1,0,1,0,,,,,0,1,1,31,,,,,,down,1.1509364759986056,2541.3018832155794,None,001,69,2019_Oct_28_1501,ACPT_experiment_5_30_19,3.1.0,59.95028702148976,
,,,C,G,y,b,R,U,y,L,u,,,,,6,19,139,14,1,0,1,0,,,,,0,2,2,30,,,,,,down,0.7339315389181138,2543.720501345586,None,001,69,2019_Oct_28_1501,ACPT_experiment_5_30_19,3.1.0,59.95028702148976,
,,,C,G,y,b,R,G,d,L,i,,,,,6,19,139,14,1,0,1,0,,,,,0,3,3,4,,,,,,up,1.8348037920914066,2545.73881971875,None,001,69,2019_Oct_28_1501,ACPT_experiment_5_30_19,3.1.0,59.95028702148976,
,,,C,G,y,b,L,U,d,L,u,,,,,6,19,139,14,1,0,1,0,,,,,0,4,4,20,,,,,,up,0.8840496455304674,2548.8579994777683,None,001,69,2019_Oct_28_1501,ACPT_experiment_5_30_19,3.1.0,59.95028702148976,
,,,C,G,y,b,R,U,d,R,u,,,,,6,19,139,14,1,0,1,0,,,,,0,5,5,9,,,,,,up,1.5846161044573819,2551.0264229771346,None,001,69,2019_Oct_28_1501,ACPT_experiment_5_30_19,3.1.0,59.95028702148976,
,,,C,G,y,b,R,D,g,L,i,,,,,6,19,139,14,1,0,1,0,,,,,0,6,6,2,,,,,,down,1.4011298991608783,2553.8954132373,None,001,69,2019_Oct_28_1501,ACPT_experiment_5_30_19,3.1.0,59.95028702148976,
,,,C,G,y,b,R,D,y,L,y,,,,,6,19,139,14,1,0,1,0,,,,,0,7,7,26,,,,,,down,1.1008918747174903,2556.5809197071285,None,001,69,2019_Oct_28_1501,ACPT_experiment_5_30_19,3.1.0,59.95028702148976,
,,,C,G,y,b,L,D,y,R,y,,,,,6,19,139,14,1,0,1,0,,,,,0,8,8,33,,,,,,down,0.9841137928888202,2558.982874013076,None,001,69,2019_Oct_28_1501,ACPT_experiment_5_30_19,3.1.0,59.95028702148976,
,,,C,G,y,b,R,U,g,R,u,,,,,6,19,139,14,1,0,1,0,,,,,0,9,9,11,,,,,,up,1.9182180014104233,2561.268049633458,None,001,69,2019_Oct_28_1501,ACPT_experiment_5_30_19,3.1.0,59.95028702148976,
,,,C,G,y,b,L,G,d,L,i,,,,,6,19,139,14,1,0,1,0,,,,,0,10,10,16,,,,,,up,0.9674698922499374,2564.470637262526,None,001,69,2019_Oct_28_1501,ACPT_experiment_5_30_19,3.1.0,59.95028702148976,
,,,C,G,y,b,L,G,y,R,y,,,,,6,19,139,14,1,0,1,0,,,,,0,11,11,35,,,,,,down,0.9007792772354151,2566.705759829263,None,001,69,2019_Oct_28_1501,ACPT_experiment_5_30_19,3.1.0,59.95028702148976,
,,,C,G,y,b,L,G,g,L,c ,,,,,6,19,139,14,1,0,1,0,,,,,0,12,12,18,,,,,,up,1.6513553205331846,2568.8741836305016,None,001,69,2019_Oct_28_1501,ACPT_experiment_5_30_19,3.1.0,59.95028702148976,
,,,C,G,y,b,R,U,d,L,u,,,,,6,19,139,14,1,0,1,0,,,,,0,13,13,8,,,,,,up,0.9174089899897808,2571.8099134086115,None,001,69,2019_Oct_28_1501,ACPT_experiment_5_30_19,3.1.0,59.95028702148976,
,,,C,G,y,b,R,D,g,R,i,,,,,6,19,139,14,1,0,1,0,,,,,0,14,14,3,,,,,,up,1.7847842460105312,2574.011693535609,None,001,69,2019_Oct_28_1501,ACPT_experiment_5_30_19,3.1.0,59.95028702148976,
,,,C,G,y,b,R,G,g,L,c ,,,,,6,19,139,14,1,0,1,0,,,,,0,15,15,6,,,,,,up,0.917411706817802,2577.0808471074088,None,001,69,2019_Oct_28_1501,ACPT_experiment_5_30_19,3.1.0,59.95028702148976,
,,,C,G,y,b,L,U,g,R,u,,,,,6,19,139,14,1,0,1,0,,,,,0,16,16,23,,,,,,up,0.6338453550524719,2579.2826287437565,None,001,69,2019_Oct_28_1501,ACPT_experiment_5_30_19,3.1.0,59.95028702148976,
,,,C,G,y,b,L,D,y,L,y,,,,,6,19,139,14,1,0,1,0,,,,,0,17,17,32,,,,,,down,0.950775277458888,2581.2008434245945,None,001,69,2019_Oct_28_1501,ACPT_experiment_5_30_19,3.1.0,59.95028702148976,
,,,C,G,y,b,L,U,y,L,u,,,,,6,19,139,14,1,0,1,0,,,,,0,18,18,24,,,,,,down,0.7673114105309651,2583.4359892353204,None,001,69,2019_Oct_28_1501,ACPT_experiment_5_30_19,3.1.0,59.95028702148976,
,,,C,G,y,b,L,D,g,R,i,,,,,6,19,139,14,1,0,1,0,,,,,0,19,19,15,,,,,,up,1.2676961437609862,2585.487648538874,None,001,69,2019_Oct_28_1501,ACPT_experiment_5_30_19,3.1.0,59.95028702148976,
,,,C,G,y,b,R,G,y,L,y,,,,,6,19,139,14,1,0,1,0,,,,,0,20,20,28,,,,,,down,0.7670062200304528,2588.056674268759,None,001,69,2019_Oct_28_1501,ACPT_experiment_5_30_19,3.1.0,59.95028702148976,
,,,C,G,y,b,R,D,d,R,c ,,,,,6,19,139,14,1,0,1,0,,,,,0,21,21,1,,,,,,up,1.7514215809824236,2590.1080555501067,None,001,69,2019_Oct_28_1501,ACPT_experiment_5_30_19,3.1.0,59.95028702148976,
,,,C,G,y,b,L,D,g,L,i,,,,,6,19,139,14,1,0,1,0,,,,,0,22,22,14,,,,,,up,0.8006402661303582,2593.143854003629,None,001,69,2019_Oct_28_1501,ACPT_experiment_5_30_19,3.1.0,59.95028702148976,
,,,C,G,y,b,R,G,d,R,i,,,,,6,19,139,14,1,0,1,0,,,,,0,23,23,5,,,,,,up,1.2843747594451997,2595.228868123595,None,001,69,2019_Oct_28_1501,ACPT_experiment_5_30_19,3.1.0,59.95028702148976,
,,,C,G,y,b,R,G,y,R,y,,,,,6,19,139,14,1,0,1,0,,,,,0,24,24,29,,,,,,down,0.8006511334460811,2597.7976158312704,None,001,69,2019_Oct_28_1501,ACPT_experiment_5_30_19,3.1.0,59.95028702148976,
,,,C,G,y,b,L,U,y,R,u,,,,,6,19,139,14,1,0,1,0,,,,,0,25,25,25,,,,,,down,0.8337967539955571,2599.89948968888,None,001,69,2019_Oct_28_1501,ACPT_experiment_5_30_19,3.1.0,59.95028702148976,
,,,C,G,y,b,L,D,d,R,c ,,,,,6,19,139,14,1,0,1,0,,,,,0,26,26,13,,,,,,up,1.9515773458697367,2602.0510625067,None,001,69,2019_Oct_28_1501,ACPT_experiment_5_30_19,3.1.0,59.95028702148976,
,,,C,G,y,b,L,D,d,L,c ,,,,,6,19,139,14,1,0,1,0,,,,,0,27,27,12,,,,,,up,0.8673800859432959,2605.2870103858368,None,001,69,2019_Oct_28_1501,ACPT_experiment_5_30_19,3.1.0,59.95028702148976,
,,,C,G,y,b,L,U,d,R,u,,,,,6,19,139,14,1,0,1,0,,,,,0,28,28,21,,,,,,up,1.8514962937952077,2607.4387534583,None,001,69,2019_Oct_28_1501,ACPT_experiment_5_30_19,3.1.0,59.95028702148976,
,,,C,G,y,b,L,G,y,L,y,,,,,6,19,139,14,1,0,1,0,,,,,0,29,29,34,,,,,,down,1.1509772284407518,2610.574601569424,None,001,69,2019_Oct_28_1501,ACPT_experiment_5_30_19,3.1.0,59.95028702148976,
,,,C,G,y,b,R,D,y,R,y,,,,,6,19,139,14,1,0,1,0,,,,,0,30,30,27,,,,,,down,0.7172698279464385,2613.009909182434,None,001,69,2019_Oct_28_1501,ACPT_experiment_5_30_19,3.1.0,59.95028702148976,
,,,C,G,y,b,R,G,g,R,c ,,,,,6,19,139,14,1,0,1,0,,,,,0,31,31,7,,,,,,up,2.051654171766131,2615.011564033408,None,001,69,2019_Oct_28_1501,ACPT_experiment_5_30_19,3.1.0,59.95028702148976,
,,,C,G,y,b,R,U,g,L,u,,,,,6,19,139,14,1,0,1,0,,,,,0,32,32,10,,,,,,up,1.0842129571610712,2618.347583304785,None,001,69,2019_Oct_28_1501,ACPT_experiment_5_30_19,3.1.0,59.95028702148976,
,,,C,G,y,b,R,D,d,L,c,,,,,6,19,139,14,1,0,1,0,,,,,0,33,33,0,,,,,,up,0.8506842636743386,2620.7161680026948,None,001,69,2019_Oct_28_1501,ACPT_experiment_5_30_19,3.1.0,59.95028702148976,
,,,C,G,y,b,L,G,g,R,c ,,,,,6,19,139,14,1,0,1,0,,,,,0,34,34,19,,,,,,up,0.9507755793238175,2622.851225516464,None,001,69,2019_Oct_28_1501,ACPT_experiment_5_30_19,3.1.0,59.95028702148976,
,,,C,G,y,b,L,U,g,L,u,,,,,6,19,139,14,1,0,1,0,,,,,0,35,35,22,,,,,,up,0.6505411773214291,2625.0697014657308,None,001,69,2019_Oct_28_1501,ACPT_experiment_5_30_19,3.1.0,59.95028702148976,
,,,C,G,y,b,R,U,d,R,u,,,,,6,19,139,14,1,0,1,0,,,,,1,0,36,9,,,,,,up,1.6179775620075816,2627.004590837947,None,001,69,2019_Oct_28_1501,ACPT_experiment_5_30_19,3.1.0,59.95028702148976,
,,,C,G,y,b,L,D,d,R,c ,,,,,6,19,139,14,1,0,1,0,,,,,1,1,37,13,,,,,,up,0.7005441205546958,2629.9069642902978,None,001,69,2019_Oct_28_1501,ACPT_experiment_5_30_19,3.1.0,59.95028702148976,
,,,C,G,y,b,L,D,g,L,i,,,,,6,19,139,14,1,0,1,0,,,,,1,2,38,14,,,,,,up,0.667254809923179,2631.875175876972,None,001,69,2019_Oct_28_1501,ACPT_experiment_5_30_19,3.1.0,59.95028702148976,
,,,C,G,y,b,R,D,g,L,i,,,,,6,19,139,14,1,0,1,0,,,,,1,3,39,2,,,,,,up,0.8673809915526363,2633.8267758630864,None,001,69,2019_Oct_28_1501,ACPT_experiment_5_30_19,3.1.0,59.95028702148976,
,,,C,G,y,b,R,G,y,R,y,,,,,6,19,139,14,1,0,1,0,,,,,1,4,40,29,,,,,,down,0.8506863767615869,2635.9785177280683,None,001,69,2019_Oct_28_1501,ACPT_experiment_5_30_19,3.1.0,59.95028702148976,
,,,C,G,y,b,L,U,g,R,u,,,,,6,19,139,14,1,0,1,0,,,,,1,5,41,23,,,,,,up,0.8673683130145946,2638.1135821848475,None,001,69,2019_Oct_28_1501,ACPT_experiment_5_30_19,3.1.0,59.95028702148976,
,,,C,G,y,b,R,G,d,L,i,,,,,6,19,139,14,1,0,1,0,,,,,1,6,42,4,,,,,,up,1.7013775834384433,2640.265323747957,None,001,69,2019_Oct_28_1501,ACPT_experiment_5_30_19,3.1.0,59.95028702148976,
,,,C,G,y,b,L,G,g,R,c ,,,,,6,19,139,14,1,0,1,0,,,,,1,7,43,19,,,,,,up,2.1350783427951683,2643.2510700534476,None,001,69,2019_Oct_28_1501,ACPT_experiment_5_30_19,3.1.0,59.95028702148976,
,,,C,G,y,b,L,D,y,R,y,,,,,6,19,139,14,1,0,1,0,,,,,1,8,44,33,,,,,,down,0.8173330697027268,2646.6705047416253,None,001,69,2019_Oct_28_1501,ACPT_experiment_5_30_19,3.1.0,59.95028702148976,
,,,C,G,y,b,L,G,y,R,y,,,,,6,19,139,14,1,0,1,0,,,,,1,9,45,35,,,,,,down,0.9841838267129788,2648.7888911864575,None,001,69,2019_Oct_28_1501,ACPT_experiment_5_30_19,3.1.0,59.95028702148976,
,,,C,G,y,b,L,G,y,L,y,,,,,6,19,139,14,1,0,1,0,,,,,1,10,46,34,,,,,,down,1.1342684257651854,2651.0740749573233,None,001,69,2019_Oct_28_1501,ACPT_experiment_5_30_19,3.1.0,59.95028702148976,
,,,C,G,y,b,R,G,d,R,i,,,,,6,19,139,14,1,0,1,0,,,,,1,11,47,5,,,,,,up,1.3677998360835772,2653.4926927854613,None,001,69,2019_Oct_28_1501,ACPT_experiment_5_30_19,3.1.0,59.95028702148976,
,,,C,G,y,b,L,G,d,R,i,,,,,6,19,139,14,1,0,1,0,,,,,1,12,48,17,,,,,,up,0.8006939989754756,2656.144815761236,None,001,69,2019_Oct_28_1501,ACPT_experiment_5_30_19,3.1.0,59.95028702148976,
,,,C,G,y,b,R,D,y,L,y,,,,,6,19,139,14,1,0,1,0,,,,,1,13,49,26,,,,,,down,0.6505013304922613,2658.246567059654,None,001,69,2019_Oct_28_1501,ACPT_experiment_5_30_19,3.1.0,59.95028702148976,
,,,C,G,y,b,L,D,d,L,c ,,,,,6,19,139,14,1,0,1,0,,,,,1,14,50,12,,,,,,up,0.8506815468426794,2660.181442243982,None,001,69,2019_Oct_28_1501,ACPT_experiment_5_30_19,3.1.0,59.95028702148976,
,,,C,G,y,b,L,U,d,R,u,,,,,6,19,139,14,1,0,1,0,,,,,1,15,51,21,,,,,,up,1.2343425348299206,2662.31650005962,None,001,69,2019_Oct_28_1501,ACPT_experiment_5_30_19,3.1.0,59.95028702148976,
,,,C,G,y,b,R,D,g,R,i,,,,,6,19,139,14,1,0,1,0,,,,,1,16,52,3,,,,,,up,1.0340802098617132,2664.8351817332477,None,001,69,2019_Oct_28_1501,ACPT_experiment_5_30_19,3.1.0,59.95028702148976,
,,,C,G,y,b,R,G,g,L,c ,,,,,6,19,139,14,1,0,1,0,,,,,1,17,53,6,,,,,,down,4.636815453322924,2667.170702315496,None,001,69,2019_Oct_28_1501,ACPT_experiment_5_30_19,3.1.0,59.95028702148976,
,,,C,G,y,b,L,G,d,L,i,,,,,6,19,139,14,1,0,1,0,,,,,1,18,54,16,,,,,,up,0.8340228545712307,2673.091894943227,None,001,69,2019_Oct_28_1501,ACPT_experiment_5_30_19,3.1.0,59.95028702148976,
,,,C,G,y,b,L,U,g,L,u,,,,,6,19,139,14,1,0,1,0,,,,,1,19,55,22,,,,,,down,1.0842186926929571,2675.2102877273283,None,001,69,2019_Oct_28_1501,ACPT_experiment_5_30_19,3.1.0,59.95028702148976,
,,,C,G,y,b,R,G,y,L,y,,,,,6,19,139,14,1,0,1,0,,,,,1,20,56,28,,,,,,down,1.0341713745801826,2677.578853105566,None,001,69,2019_Oct_28_1501,ACPT_experiment_5_30_19,3.1.0,59.95028702148976,
,,,C,G,y,b,L,G,g,L,c ,,,,,6,19,139,14,1,0,1,0,,,,,1,21,57,18,,,,,,up,0.9674614398900303,2679.897393504063,None,001,69,2019_Oct_28_1501,ACPT_experiment_5_30_19,3.1.0,59.95028702148976,
,,,C,G,y,b,R,U,y,L,u,,,,,6,19,139,14,1,0,1,0,,,,,1,22,58,30,,,,,,down,0.8006351343392453,2682.1492333258393,None,001,69,2019_Oct_28_1501,ACPT_experiment_5_30_19,3.1.0,59.95028702148976,
,,,C,G,y,b,R,U,y,R,u,,,,,6,19,139,14,1,0,1,0,,,,,1,23,59,31,,,,,,down,0.8341620166102075,2684.217411254016,None,001,69,2019_Oct_28_1501,ACPT_experiment_5_30_19,3.1.0,59.95028702148976,
,,,C,G,y,b,L,D,y,L,y,,,,,6,19,139,14,1,0,1,0,,,,,1,24,60,32,,,,,,down,0.9007539201593318,2686.3359208617803,None,001,69,2019_Oct_28_1501,ACPT_experiment_5_30_19,3.1.0,59.95028702148976,
,,,C,G,y,b,L,U,y,L,u,,,,,6,19,139,14,1,0,1,0,,,,,1,25,61,24,,,,,,down,0.8006514353146486,2688.521040485288,None,001,69,2019_Oct_28_1501,ACPT_experiment_5_30_19,3.1.0,59.95028702148976,
,,,C,G,y,b,R,G,g,R,c ,,,,,6,19,139,14,1,0,1,0,,,,,1,26,62,7,,,,,,up,1.3510545071439992,2690.606043436066,None,001,69,2019_Oct_28_1501,ACPT_experiment_5_30_19,3.1.0,59.95028702148976,
,,,C,G,y,b,L,D,g,R,i,,,,,6,19,139,14,1,0,1,0,,,,,1,27,63,15,,,,,,down,2.5187314821669133,2693.2415373028234,None,001,69,2019_Oct_28_1501,ACPT_experiment_5_30_19,3.1.0,59.95028702148976,
,,,C,G,y,b,L,U,y,R,u,,,,,6,19,139,14,1,0,1,0,,,,,1,28,64,25,,,,,,down,2.602099807256309,2697.044616979885,None,001,69,2019_Oct_28_1501,ACPT_experiment_5_30_19,3.1.0,59.95028702148976,
,,,C,G,y,b,R,D,d,R,c ,,,,,6,19,139,14,1,0,1,0,,,,,1,29,65,1,,,,,,up,1.5178488144811126,2700.9311356195976,None,001,69,2019_Oct_28_1501,ACPT_experiment_5_30_19,3.1.0,59.95028702148976,
,,,C,G,y,b,R,U,g,R,u,,,,,6,19,139,14,1,0,1,0,,,,,1,30,66,11,,,,,,up,1.2510401683211967,2703.7333582879146,None,001,69,2019_Oct_28_1501,ACPT_experiment_5_30_19,3.1.0,59.95028702148976,
,,,C,G,y,b,R,U,d,L,u,,,,,6,19,139,14,1,0,1,0,,,,,1,31,67,8,,,,,,up,0.8006952064570214,2706.2520435839833,None,001,69,2019_Oct_28_1501,ACPT_experiment_5_30_19,3.1.0,59.95028702148976,
,,,C,G,y,b,R,D,d,L,c,,,,,6,19,139,14,1,0,1,0,,,,,1,32,68,0,,,,,,up,0.5838421099506377,2708.3370806460625,None,001,69,2019_Oct_28_1501,ACPT_experiment_5_30_19,3.1.0,59.95028702148976,
,,,C,G,y,b,R,D,y,R,y,,,,,6,19,139,14,1,0,1,0,,,,,1,33,69,27,,,,,,down,0.9007279593424755,2710.2219399067544,None,001,69,2019_Oct_28_1501,ACPT_experiment_5_30_19,3.1.0,59.95028702148976,
,,,C,G,y,b,L,U,d,L,u,,,,,6,19,139,14,1,0,1,0,,,,,1,34,70,20,,,,,,up,1.067531322780269,2712.423726976758,None,001,69,2019_Oct_28_1501,ACPT_experiment_5_30_19,3.1.0,59.95028702148976,
,,,C,G,y,b,R,U,g,L,u,,,,,6,19,139,14,1,0,1,0,,,,,1,35,71,10,,,,,,up,2.285061815415247,2714.7756309458964,None,001,69,2019_Oct_28_1501,ACPT_experiment_5_30_19,3.1.0,59.95028702148976,
,,,C,G,y,b,,,,,,,,,,6,19,139,14,2,0,2,0,0,0,0,0,,,,,,,,,,,,,,001,69,2019_Oct_28_1501,ACPT_experiment_5_30_19,3.1.0,59.95028702148976,
,,,C,G,y,b,R,D,d,R,c ,,,,,6,19,139,14,2,0,2,0,,,,,0,0,0,1,,,,,,up,0.5971566871012328,2737.5640699311916,None,001,69,2019_Oct_28_1501,ACPT_experiment_5_30_19,3.1.0,59.95028702148976,
,,,C,G,y,b,R,G,g,L,c ,,,,,6,19,139,14,2,0,2,0,,,,,0,1,1,6,,,,,,up,0.7839939505283837,2739.445575416921,None,001,69,2019_Oct_28_1501,ACPT_experiment_5_30_19,3.1.0,59.95028702148976,
,,,C,G,y,b,R,U,y,L,u,,,,,6,19,139,14,2,0,2,0,,,,,0,2,2,30,,,,,,down,0.9174304227526591,2741.513942919417,None,001,69,2019_Oct_28_1501,ACPT_experiment_5_30_19,3.1.0,59.95028702148976,
,,,C,G,y,b,R,G,y,R,y,,,,,6,19,139,14,2,0,2,0,,,,,0,3,3,29,,,,,,down,0.6005161975881492,2743.7156970855976,None,001,69,2019_Oct_28_1501,ACPT_experiment_5_30_19,3.1.0,59.95028702148976,
,,,C,G,y,b,L,G,d,L,i,,,,,6,19,139,14,2,0,2,0,,,,,0,4,4,16,,,,,,up,1.0341792231993168,2745.6005786846654,None,001,69,2019_Oct_28_1501,ACPT_experiment_5_30_19,3.1.0,59.95028702148976,
,,,C,G,y,b,L,G,g,L,c ,,,,,6,19,139,14,2,0,2,0,,,,,0,5,5,18,,,,,,up,0.7339239921711851,2747.91912723365,None,001,69,2019_Oct_28_1501,ACPT_experiment_5_30_19,3.1.0,59.95028702148976,
,,,C,G,y,b,R,D,d,L,c,,,,,6,19,139,14,2,0,2,0,,,,,0,6,6,0,,,,,,up,0.65053272496516,2749.9374238721794,None,001,69,2019_Oct_28_1501,ACPT_experiment_5_30_19,3.1.0,59.95028702148976,
,,,C,G,y,b,L,G,y,R,y,,,,,6,19,139,14,2,0,2,0,,,,,0,7,7,35,,,,,,down,0.7672703562238894,2751.8723440351278,None,001,69,2019_Oct_28_1501,ACPT_experiment_5_30_19,3.1.0,59.95028702148976,
,,,C,G,y,b,R,G,d,L,i,,,,,6,19,139,14,2,0,2,0,,,,,0,8,8,4,,,,,,up,0.900751505199878,2753.9239650012023,None,001,69,2019_Oct_28_1501,ACPT_experiment_5_30_19,3.1.0,59.95028702148976,
,,,C,G,y,b,L,U,g,L,u,,,,,6,19,139,14,2,0,2,0,,,,,0,9,9,22,,,,,,up,1.7514427118767344,2756.1090668143843,None,001,69,2019_Oct_28_1501,ACPT_experiment_5_30_19,3.1.0,59.95028702148976,
,,,C,G,y,b,L,U,g,R,u,,,,,6,19,139,14,2,0,2,0,,,,,0,10,10,23,,,,,,up,0.81735510620274,2759.12817789799,None,001,69,2019_Oct_28_1501,ACPT_experiment_5_30_19,3.1.0,59.95028702148976,
,,,C,G,y,b,L,D,d,L,c ,,,,,6,19,139,14,2,0,2,0,,,,,0,11,11,12,,,,,,up,0.9674511763114424,2761.2298971981945,None,001,69,2019_Oct_28_1501,ACPT_experiment_5_30_19,3.1.0,59.95028702148976,
,,,C,G,y,b,R,D,y,R,y,,,,,6,19,139,14,2,0,2,0,,,,,0,12,12,27,,,,,,down,0.783990931828157,2763.4816986824917,None,001,69,2019_Oct_28_1501,ACPT_experiment_5_30_19,3.1.0,59.95028702148976,
,,,C,G,y,b,L,D,g,R,i,,,,,6,19,139,14,2,0,2,0,,,,,0,13,13,15,,,,,,up,4.737171508913889,2765.550062864415,None,001,69,2019_Oct_28_1501,ACPT_experiment_5_30_19,3.1.0,59.95028702148976,
,,,C,G,y,b,L,U,y,L,u,,,,,6,19,139,14,2,0,2,0,,,,,0,14,14,24,,,,,,down,1.5679408093456004,2771.5716055103367,None,001,69,2019_Oct_28_1501,ACPT_experiment_5_30_19,3.1.0,59.95028702148976,
,,,C,G,y,b,R,G,g,R,c ,,,,,6,19,139,14,2,0,2,0,,,,,0,15,15,7,,,,,,up,3.219276810199517,2774.4239168529457,None,001,69,2019_Oct_28_1501,ACPT_experiment_5_30_19,3.1.0,59.95028702148976,
,,,C,G,y,b,L,U,y,R,u,,,,,6,19,139,14,2,0,2,0,,,,,0,16,16,25,,,,,,down,0.8340313069274998,2778.9275584608877,None,001,69,2019_Oct_28_1501,ACPT_experiment_5_30_19,3.1.0,59.95028702148976,
,,,C,G,y,b,L,G,d,R,i,,,,,6,19,139,14,2,0,2,0,,,,,0,17,17,17,,,,,,up,2.401952494725265,2781.0459391701916,None,001,69,2019_Oct_28_1501,ACPT_experiment_5_30_19,3.1.0,59.95028702148976,
,,,C,G,y,b,R,U,g,L,u,,,,,6,19,139,14,2,0,2,0,,,,,0,18,18,10,,,,,,down,2.8022667413279123,2784.73225555705,None,001,69,2019_Oct_28_1501,ACPT_experiment_5_30_19,3.1.0,59.95028702148976,
,,,C,G,y,b,R,U,g,R,u,,,,,6,19,139,14,2,0,2,0,,,,,0,19,19,11,,,,,,up,6.438705159107485,2788.8020672053062,None,001,69,2019_Oct_28_1501,ACPT_experiment_5_30_19,3.1.0,59.95028702148976,
,,,C,G,y,b,R,G,y,L,y,,,,,6,19,139,14,2,0,2,0,,,,,0,20,20,28,,,,,,down,0.7504872935387539,2796.525138067762,None,001,69,2019_Oct_28_1501,ACPT_experiment_5_30_19,3.1.0,59.95028702148976,
,,,C,G,y,b,L,D,g,L,i,,,,,6,19,139,14,2,0,2,0,,,,,0,21,21,14,,,,,,up,1.0008352741060662,2798.5601109070158,None,001,69,2019_Oct_28_1501,ACPT_experiment_5_30_19,3.1.0,59.95028702148976,
,,,C,G,y,b,R,D,y,L,y,,,,,6,19,139,14,2,0,2,0,,,,,0,22,22,26,,,,,,down,0.717268922340736,2800.845299507804,None,001,69,2019_Oct_28_1501,ACPT_experiment_5_30_19,3.1.0,59.95028702148976,
,,,C,G,y,b,L,U,d,R,u,,,,,6,19,139,14,2,0,2,0,,,,,0,23,23,21,,,,,,up,2.718830797373812,2802.84694862325,None,001,69,2019_Oct_28_1501,ACPT_experiment_5_30_19,3.1.0,59.95028702148976,
,,,C,G,y,b,L,G,y,L,y,,,,,6,19,139,14,2,0,2,0,,,,,0,24,24,34,,,,,,down,0.9341117552685319,2806.8501596137285,None,001,69,2019_Oct_28_1501,ACPT_experiment_5_30_19,3.1.0,59.95028702148976,
,,,C,G,y,b,R,U,d,L,u,,,,,6,19,139,14,2,0,2,0,,,,,0,25,25,8,,,,,,up,1.5345739181357203,2809.0686219788513,None,001,69,2019_Oct_28_1501,ACPT_experiment_5_30_19,3.1.0,59.95028702148976,
,,,C,G,y,b,R,D,g,R,i,,,,,6,19,139,14,2,0,2,0,,,,,0,26,26,3,,,,,,up,3.419442234924645,2811.8875673358634,None,001,69,2019_Oct_28_1501,ACPT_experiment_5_30_19,3.1.0,59.95028702148976,
,,,C,G,y,b,R,G,d,R,i,,,,,6,19,139,14,2,0,2,0,,,,,0,27,27,5,,,,,,up,1.984937897806958,2816.591377990968,None,001,69,2019_Oct_28_1501,ACPT_experiment_5_30_19,3.1.0,59.95028702148976,
,,,C,G,y,b,R,D,g,L,i,,,,,6,19,139,14,2,0,2,0,,,,,0,28,28,2,,,,,,down,1.9849575193547935,2819.8606671023663,None,001,69,2019_Oct_28_1501,ACPT_experiment_5_30_19,3.1.0,59.95028702148976,
,,,C,G,y,b,L,U,d,L,u,,,,,6,19,139,14,2,0,2,0,,,,,0,29,29,20,,,,,,up,1.1676075449358905,2823.130002097998,None,001,69,2019_Oct_28_1501,ACPT_experiment_5_30_19,3.1.0,59.95028702148976,
,,,C,G,y,b,L,G,g,R,c ,,,,,6,19,139,14,2,0,2,0,,,,,0,30,30,19,,,,,,down,2.3852913874980004,2825.5819617621382,None,001,69,2019_Oct_28_1501,ACPT_experiment_5_30_19,3.1.0,59.95028702148976,
,,,C,G,y,b,L,D,y,R,y,,,,,6,19,139,14,2,0,2,0,,,,,0,31,31,33,,,,,,down,1.7347598700143863,2829.2515986276994,None,001,69,2019_Oct_28_1501,ACPT_experiment_5_30_19,3.1.0,59.95028702148976,
,,,C,G,y,b,R,U,y,R,u,,,,,6,19,139,14,2,0,2,0,,,,,0,32,32,31,,,,,,down,0.8507081113930326,2832.2707365777314,None,001,69,2019_Oct_28_1501,ACPT_experiment_5_30_19,3.1.0,59.95028702148976,
,,,C,G,y,b,L,D,d,R,c ,,,,,6,19,139,14,2,0,2,0,,,,,0,33,33,13,,,,,,up,0.750609248992987,2834.4057946952416,None,001,69,2019_Oct_28_1501,ACPT_experiment_5_30_19,3.1.0,59.95028702148976,
,,,C,G,y,b,L,D,y,L,y,,,,,6,19,139,14,2,0,2,0,,,,,0,34,34,32,,,,,,down,0.7673050712619442,2836.4240798627106,None,001,69,2019_Oct_28_1501,ACPT_experiment_5_30_19,3.1.0,59.95028702148976,
,,,C,G,y,b,R,U,d,R,u,,,,,6,19,139,14,2,0,2,0,,,,,0,35,35,9,,,,,,up,0.7672854497177468,2838.475755769112,None,001,69,2019_Oct_28_1501,ACPT_experiment_5_30_19,3.1.0,59.95028702148976,
,,,C,G,y,b,L,U,y,R,u,,,,,6,19,139,14,2,0,2,0,,,,,1,0,36,25,,,,,,down,0.8673719354519562,2840.527415072669,None,001,69,2019_Oct_28_1501,ACPT_experiment_5_30_19,3.1.0,59.95028702148976,
,,,C,G,y,b,R,U,d,R,u,,,,,6,19,139,14,2,0,2,0,,,,,1,1,37,9,,,,,,up,3.1358737700684287,2842.6791575413918,None,001,69,2019_Oct_28_1501,ACPT_experiment_5_30_19,3.1.0,59.95028702148976,
,,,C,G,y,b,L,G,y,L,y,,,,,6,19,139,14,2,0,2,0,,,,,1,2,38,34,,,,,,down,1.0008117282523017,2847.0994006372493,None,001,69,2019_Oct_28_1501,ACPT_experiment_5_30_19,3.1.0,59.95028702148976,
,,,C,G,y,b,L,U,g,L,u,,,,,6,19,139,14,2,0,2,0,,,,,1,3,39,22,,,,,,down,4.470301583158289,2849.3845828987687,None,001,69,2019_Oct_28_1501,ACPT_experiment_5_30_19,3.1.0,59.95028702148976,
,,,C,G,y,b,R,D,y,R,y,,,,,6,19,139,14,2,0,2,0,,,,,1,4,40,27,,,,,,down,0.9340550037231878,2855.13926890121,None,001,69,2019_Oct_28_1501,ACPT_experiment_5_30_19,3.1.0,59.95028702148976,
,,,C,G,y,b,R,G,g,L,c ,,,,,6,19,139,14,2,0,2,0,,,,,1,5,41,6,,,,,,up,0.9007536182871263,2857.357705607388,None,001,69,2019_Oct_28_1501,ACPT_experiment_5_30_19,3.1.0,59.95028702148976,
,,,C,G,y,b,R,D,d,L,c,,,,,6,19,139,14,2,0,2,0,,,,,1,6,42,0,,,,,,up,1.1175774334114976,2859.5428050056107,None,001,69,2019_Oct_28_1501,ACPT_experiment_5_30_19,3.1.0,59.95028702148976,
,,,C,G,y,b,L,G,y,R,y,,,,,6,19,139,14,2,0,2,0,,,,,1,7,43,35,,,,,,down,0.8006698493809381,2861.9447252002537,None,001,69,2019_Oct_28_1501,ACPT_experiment_5_30_19,3.1.0,59.95028702148976,
,,,C,G,y,b,R,U,d,L,u,,,,,6,19,139,14,2,0,2,0,,,,,1,8,44,8,,,,,,up,1.501104994891648,2864.029771016565,None,001,69,2019_Oct_28_1501,ACPT_experiment_5_30_19,3.1.0,59.95028702148976,
,,,C,G,y,b,R,G,y,R,y,,,,,6,19,139,14,2,0,2,0,,,,,1,9,45,29,,,,,,down,0.950572722729703,2866.8322062013176,None,001,69,2019_Oct_28_1501,ACPT_experiment_5_30_19,3.1.0,59.95028702148976,
,,,C,G,y,b,L,G,g,L,c ,,,,,6,19,139,14,2,0,2,0,,,,,1,10,46,18,,,,,,down,1.484528713113832,2869.083873353491,None,001,69,2019_Oct_28_1501,ACPT_experiment_5_30_19,3.1.0,59.95028702148976,
,,,C,G,y,b,L,U,d,L,u,,,,,6,19,139,14,2,0,2,0,,,,,1,11,47,20,,,,,,up,3.0358047927875305,2871.8527668643437,None,001,69,2019_Oct_28_1501,ACPT_experiment_5_30_19,3.1.0,59.95028702148976,
,,,C,G,y,b,L,U,d,R,u,,,,,6,19,139,14,2,0,2,0,,,,,1,12,48,21,,,,,,up,1.0009677950074547,2876.1560975462526,None,001,69,2019_Oct_28_1501,ACPT_experiment_5_30_19,3.1.0,59.95028702148976,
,,,C,G,y,b,R,G,y,L,y,,,,,6,19,139,14,2,0,2,0,,,,,1,13,49,28,,,,,,down,1.8848791841046477,2878.441430138999,None,001,69,2019_Oct_28_1501,ACPT_experiment_5_30_19,3.1.0,59.95028702148976,
,,,C,G,y,b,L,D,y,L,y,,,,,6,19,139,14,2,0,2,0,,,,,1,14,50,32,,,,,,down,0.7506101546023274,2881.6106659703546,None,001,69,2019_Oct_28_1501,ACPT_experiment_5_30_19,3.1.0,59.95028702148976,
,,,C,G,y,b,L,D,g,R,i,,,,,6,19,139,14,2,0,2,0,,,,,1,15,51,15,,,,,,up,1.4345188268744096,2883.628943289208,None,001,69,2019_Oct_28_1501,ACPT_experiment_5_30_19,3.1.0,59.95028702148976,
,,,C,G,y,b,R,G,d,R,i,,,,,6,19,139,14,2,0,2,0,,,,,1,16,52,5,,,,,,up,0.6672747333359439,2886.3478326493496,None,001,69,2019_Oct_28_1501,ACPT_experiment_5_30_19,3.1.0,59.95028702148976,
,,,C,G,y,b,R,G,g,R,c ,,,,,6,19,139,14,2,0,2,0,,,,,1,17,53,7,,,,,,up,0.9007355060930422,2888.2994075802562,None,001,69,2019_Oct_28_1501,ACPT_experiment_5_30_19,3.1.0,59.95028702148976,
,,,C,G,y,b,R,D,g,L,i,,,,,6,19,139,14,2,0,2,0,,,,,1,18,54,2,,,,,,up,0.717254734452581,2890.484511506529,None,001,69,2019_Oct_28_1501,ACPT_experiment_5_30_19,3.1.0,59.95028702148976,
,,,C,G,y,b,L,G,d,R,i,,,,,6,19,139,14,2,0,2,0,,,,,1,19,55,17,,,,,,up,0.8173252210799546,2892.4861343592893,None,001,69,2019_Oct_28_1501,ACPT_experiment_5_30_19,3.1.0,59.95028702148976,
,,,C,G,y,b,R,U,y,R,u,,,,,6,19,139,14,2,0,2,0,,,,,1,20,56,31,,,,,,down,1.0842319749681337,2894.587840679087,None,001,69,2019_Oct_28_1501,ACPT_experiment_5_30_19,3.1.0,59.95028702148976,
,,,C,G,y,b,R,D,d,R,c ,,,,,6,19,139,14,2,0,2,0,,,,,1,21,57,1,,,,,,up,1.0008446320753137,2896.9564217545594,None,001,69,2019_Oct_28_1501,ACPT_experiment_5_30_19,3.1.0,59.95028702148976,
,,,C,G,y,b,R,U,y,L,u,,,,,6,19,139,14,2,0,2,0,,,,,1,22,58,30,,,,,,down,1.000836481583974,2899.241576244047,None,001,69,2019_Oct_28_1501,ACPT_experiment_5_30_19,3.1.0,59.95028702148976,
,,,C,G,y,b,R,D,y,L,y,,,,,6,19,139,14,2,0,2,0,,,,,1,23,59,26,,,,,,down,0.9007303743019293,2901.5267859757296,None,001,69,2019_Oct_28_1501,ACPT_experiment_5_30_19,3.1.0,59.95028702148976,
,,,C,G,y,b,L,D,d,L,c ,,,,,6,19,139,14,2,0,2,0,,,,,1,24,60,12,,,,,,up,0.8504168069121079,2903.7288411062327,None,001,69,2019_Oct_28_1501,ACPT_experiment_5_30_19,3.1.0,59.95028702148976,
,,,C,G,y,b,L,U,g,R,u,,,,,6,19,139,14,2,0,2,0,,,,,1,25,61,23,,,,,,up,1.3010639405802067,2905.8636263333246,None,001,69,2019_Oct_28_1501,ACPT_experiment_5_30_19,3.1.0,59.95028702148976,
,,,C,G,y,b,L,D,g,L,i,,,,,6,19,139,14,2,0,2,0,,,,,1,26,62,14,,,,,,up,4.1532690249769075,2908.4490535622936,None,001,69,2019_Oct_28_1501,ACPT_experiment_5_30_19,3.1.0,59.95028702148976,
,,,C,G,y,b,L,G,g,R,c ,,,,,6,19,139,14,2,0,2,0,,,,,1,27,63,19,,,,,,up,5.287618955622747,2913.8867900207842,None,001,69,2019_Oct_28_1501,ACPT_experiment_5_30_19,3.1.0,59.95028702148976,
,,,C,G,y,b,L,G,d,L,i,,,,,6,19,139,14,2,0,2,0,,,,,1,28,64,16,,,,,,up,1.1509533807147818,2920.4420764425267,None,001,69,2019_Oct_28_1501,ACPT_experiment_5_30_19,3.1.0,59.95028702148976,
,,,C,G,y,b,L,D,d,R,c ,,,,,6,19,139,14,2,0,2,0,,,,,1,29,65,13,,,,,,up,0.6338767495253705,2922.87739311163,None,001,69,2019_Oct_28_1501,ACPT_experiment_5_30_19,3.1.0,59.95028702148976,
,,,C,G,y,b,L,U,y,L,u,,,,,6,19,139,14,2,0,2,0,,,,,1,30,66,24,,,,,,down,1.3844609433144797,2924.7956162448318,None,001,69,2019_Oct_28_1501,ACPT_experiment_5_30_19,3.1.0,59.95028702148976,
,,,C,G,y,b,R,U,g,L,u,,,,,6,19,139,14,2,0,2,0,,,,,1,31,67,10,,,,,,up,1.901546026863798,2927.4644413821443,None,001,69,2019_Oct_28_1501,ACPT_experiment_5_30_19,3.1.0,59.95028702148976,
,,,C,G,y,b,R,G,d,L,i,,,,,6,19,139,14,2,0,2,0,,,,,1,32,68,4,,,,,,up,0.8340053461179195,2930.6503588478845,None,001,69,2019_Oct_28_1501,ACPT_experiment_5_30_19,3.1.0,59.95028702148976,
,,,C,G,y,b,R,D,g,R,i,,,,,6,19,139,14,2,0,2,0,,,,,1,33,69,3,,,,,,up,0.9507701456677751,2932.768738651579,None,001,69,2019_Oct_28_1501,ACPT_experiment_5_30_19,3.1.0,59.95028702148976,
,,,C,G,y,b,R,U,g,R,u,,,,,6,19,139,14,2,0,2,0,,,,,1,34,70,11,,,,,,up,3.3193690314656124,2934.9871992054796,None,001,69,2019_Oct_28_1501,ACPT_experiment_5_30_19,3.1.0,59.95028702148976,
,,,C,G,y,b,L,D,y,R,y,,,,,6,19,139,14,2,0,2,0,,,,,1,35,71,33,,,,,,down,0.9507444867231243,2939.607631271916,None,001,69,2019_Oct_28_1501,ACPT_experiment_5_30_19,3.1.0,59.95028702148976,
,,,C,G,y,b,,,,,,,,,,6,19,139,14,3,0,3,0,0,0,0,0,,,,,,,,,,,,,,001,69,2019_Oct_28_1501,ACPT_experiment_5_30_19,3.1.0,59.95028702148976,
,,,C,G,y,b,L,D,g,L,i,,,,,6,19,139,14,3,0,3,0,,,,,0,0,0,14,,,,,,up,0.7839882149964978,2951.5506074377736,None,001,69,2019_Oct_28_1501,ACPT_experiment_5_30_19,3.1.0,59.95028702148976,
,,,C,G,y,b,R,G,g,L,c ,,,,,6,19,139,14,3,0,3,0,,,,,0,1,1,6,,,,,,up,0.617164626277372,2953.6189492813246,None,001,69,2019_Oct_28_1501,ACPT_experiment_5_30_19,3.1.0,59.95028702148976,
,,,C,G,y,b,R,U,y,L,u,,,,,6,19,139,14,3,0,3,0,,,,,0,2,2,30,,,,,,down,0.6838887488556793,2955.5204835352597,None,001,69,2019_Oct_28_1501,ACPT_experiment_5_30_19,3.1.0,59.95028702148976,
,,,C,G,y,b,L,U,y,R,u,,,,,6,19,139,14,3,0,3,0,,,,,0,3,3,25,,,,,,down,1.8181653251049283,2957.472042467063,None,001,69,2019_Oct_28_1501,ACPT_experiment_5_30_19,3.1.0,59.95028702148976,
,,,C,G,y,b,R,G,y,L,y,,,,,6,19,139,14,3,0,3,0,,,,,0,4,4,28,,,,,,down,0.8006408698674932,2960.574586174058,None,001,69,2019_Oct_28_1501,ACPT_experiment_5_30_19,3.1.0,59.95028702148976,
,,,C,G,y,b,L,D,g,R,i,,,,,6,19,139,14,3,0,3,0,,,,,0,5,5,15,,,,,,down,1.2343180833668157,2962.65961267069,None,001,69,2019_Oct_28_1501,ACPT_experiment_5_30_19,3.1.0,59.95028702148976,
,,,C,G,y,b,L,G,d,R,i,,,,,6,19,139,14,3,0,3,0,,,,,0,6,6,17,,,,,,up,1.2176521462206438,2965.1783040041555,None,001,69,2019_Oct_28_1501,ACPT_experiment_5_30_19,3.1.0,59.95028702148976,
,,,C,G,y,b,R,D,d,L,c,,,,,6,19,139,14,3,0,3,0,,,,,0,7,7,0,,,,,,up,1.7848289227622445,2967.6803278911248,None,001,69,2019_Oct_28_1501,ACPT_experiment_5_30_19,3.1.0,59.95028702148976,
,,,C,G,y,b,L,G,g,R,c ,,,,,6,19,139,14,3,0,3,0,,,,,0,8,8,19,,,,,,down,1.067544303186878,2970.749478746093,None,001,69,2019_Oct_28_1501,ACPT_experiment_5_30_19,3.1.0,59.95028702148976,
,,,C,G,y,b,R,G,d,R,i,,,,,6,19,139,14,3,0,3,0,,,,,0,9,9,5,,,,,,up,0.984153035980853,2973.1013809040123,None,001,69,2019_Oct_28_1501,ACPT_experiment_5_30_19,3.1.0,59.95028702148976,
,,,C,G,y,b,R,U,y,R,u,,,,,6,19,139,14,3,0,3,0,,,,,0,10,10,31,,,,,,down,0.7839299540974025,2975.386596974964,None,001,69,2019_Oct_28_1501,ACPT_experiment_5_30_19,3.1.0,59.95028702148976,
,,,C,G,y,b,L,U,d,L,u,,,,,6,19,139,14,3,0,3,0,,,,,0,11,11,20,,,,,,down,0.8505614026071271,2977.4549179894893,None,001,69,2019_Oct_28_1501,ACPT_experiment_5_30_19,3.1.0,59.95028702148976,
,,,C,G,y,b,L,U,y,L,u,,,,,6,19,139,14,3,0,3,0,,,,,0,12,12,24,,,,,,down,2.0516550773754716,2979.606649289024,None,001,69,2019_Oct_28_1501,ACPT_experiment_5_30_19,3.1.0,59.95028702148976,
,,,C,G,y,b,R,D,g,L,i,,,,,6,19,139,14,3,0,3,0,,,,,0,13,13,2,,,,,,down,1.1676455805500154,2982.95936136397,None,001,69,2019_Oct_28_1501,ACPT_experiment_5_30_19,3.1.0,59.95028702148976,
,,,C,G,y,b,L,G,y,L,y,,,,,6,19,139,14,3,0,3,0,,,,,0,14,14,34,,,,,,down,0.8173378996179963,2985.42801896347,None,001,69,2019_Oct_28_1501,ACPT_experiment_5_30_19,3.1.0,59.95028702148976,
,,,C,G,y,b,R,G,y,R,y,,,,,6,19,139,14,3,0,3,0,,,,,0,15,15,29,,,,,,down,0.9841267732954293,2987.546406012043,None,001,69,2019_Oct_28_1501,ACPT_experiment_5_30_19,3.1.0,59.95028702148976,
,,,C,G,y,b,L,D,d,L,c ,,,,,6,19,139,14,3,0,3,0,,,,,0,16,16,12,,,,,,up,0.6839074647905363,2989.814886413893,None,001,69,2019_Oct_28_1501,ACPT_experiment_5_30_19,3.1.0,59.95028702148976,
,,,C,G,y,b,L,G,g,L,c ,,,,,6,19,139,14,3,0,3,0,,,,,0,17,17,18,,,,,,up,0.9508341420951183,2991.7831638082134,None,001,69,2019_Oct_28_1501,ACPT_experiment_5_30_19,3.1.0,59.95028702148976,
,,,C,G,y,b,R,U,d,L,u,,,,,6,19,139,14,3,0,3,0,,,,,0,18,18,8,,,,,,up,0.8006309081574727,2994.0183247124332,None,001,69,2019_Oct_28_1501,ACPT_experiment_5_30_19,3.1.0,59.95028702148976,
,,,C,G,y,b,R,U,g,R,u,,,,,6,19,139,14,3,0,3,0,,,,,0,19,19,11,,,,,,down,1.617974543307355,2996.1033346062213,None,001,69,2019_Oct_28_1501,ACPT_experiment_5_30_19,3.1.0,59.95028702148976,
,,,C,G,y,b,R,D,y,R,y,,,,,6,19,139,14,3,0,3,0,,,,,0,20,20,27,,,,,,down,1.0842099384608446,2999.022363430271,None,001,69,2019_Oct_28_1501,ACPT_experiment_5_30_19,3.1.0,59.95028702148976,
,,,C,G,y,b,R,G,d,L,i,,,,,6,19,139,14,3,0,3,0,,,,,0,21,21,4,,,,,,up,1.4512028762183036,3001.4076264419964,None,001,69,2019_Oct_28_1501,ACPT_experiment_5_30_19,3.1.0,59.95028702148976,
,,,C,G,y,b,L,U,g,L,u,,,,,6,19,139,14,3,0,3,0,,,,,0,22,22,22,,,,,,down,0.8673722373241617,3004.143173286928,None,001,69,2019_Oct_28_1501,ACPT_experiment_5_30_19,3.1.0,59.95028702148976,
,,,C,G,y,b,L,G,d,L,i,,,,,6,19,139,14,3,0,3,0,,,,,0,23,23,16,,,,,,up,1.3845270528290712,3006.2949151519097,None,001,69,2019_Oct_28_1501,ACPT_experiment_5_30_19,3.1.0,59.95028702148976,
,,,C,G,y,b,L,G,y,R,y,,,,,6,19,139,14,3,0,3,0,,,,,0,24,24,35,,,,,,down,0.8173348809214076,3008.9637411948315,None,001,69,2019_Oct_28_1501,ACPT_experiment_5_30_19,3.1.0,59.95028702148976,
,,,C,G,y,b,L,U,d,R,u,,,,,6,19,139,14,3,0,3,0,,,,,0,25,25,21,,,,,,up,1.5846185194168356,3011.065442382842,None,001,69,2019_Oct_28_1501,ACPT_experiment_5_30_19,3.1.0,59.95028702148976,
,,,C,G,y,b,R,D,d,R,c ,,,,,6,19,139,14,3,0,3,0,,,,,0,26,26,1,,,,,,up,0.7506566425690835,3013.9177537254545,None,001,69,2019_Oct_28_1501,ACPT_experiment_5_30_19,3.1.0,59.95028702148976,
,,,C,G,y,b,R,D,g,R,i,,,,,6,19,139,14,3,0,3,0,,,,,0,27,27,3,,,,,,up,0.7506288705371844,3015.936030138695,None,001,69,2019_Oct_28_1501,ACPT_experiment_5_30_19,3.1.0,59.95028702148976,
,,,C,G,y,b,L,U,g,R,u,,,,,6,19,139,14,3,0,3,0,,,,,0,28,28,23,,,,,,up,0.9173842366544704,3017.9710567107977,None,001,69,2019_Oct_28_1501,ACPT_experiment_5_30_19,3.1.0,59.95028702148976,
,,,C,G,y,b,L,D,y,R,y,,,,,6,19,139,14,3,0,3,0,,,,,0,29,29,33,,,,,,down,1.0341743932767713,3020.17281208446,None,001,69,2019_Oct_28_1501,ACPT_experiment_5_30_19,3.1.0,59.95028702148976,
,,,C,G,y,b,R,D,y,L,y,,,,,6,19,139,14,3,0,3,0,,,,,0,30,30,26,,,,,,down,0.6672267360154365,3022.4913346726316,None,001,69,2019_Oct_28_1501,ACPT_experiment_5_30_19,3.1.0,59.95028702148976,
,,,C,G,y,b,R,U,g,L,u,,,,,6,19,139,14,3,0,3,0,,,,,0,31,31,10,,,,,,up,1.03416714839841,3024.442940394274,None,001,69,2019_Oct_28_1501,ACPT_experiment_5_30_19,3.1.0,59.95028702148976,
,,,C,G,y,b,L,D,y,L,y,,,,,6,19,139,14,3,0,3,0,,,,,0,32,32,32,,,,,,down,0.7840126664632407,3026.7614792834247,None,001,69,2019_Oct_28_1501,ACPT_experiment_5_30_19,3.1.0,59.95028702148976,
,,,C,G,y,b,L,D,d,R,c ,,,,,6,19,139,14,3,0,3,0,,,,,0,33,33,13,,,,,,up,1.0675503405836935,3028.8131198710435,None,001,69,2019_Oct_28_1501,ACPT_experiment_5_30_19,3.1.0,59.95028702148976,
,,,C,G,y,b,R,G,g,R,c ,,,,,6,19,139,14,3,0,3,0,,,,,0,34,34,7,,,,,,down,2.335228674022801,3031.1650425561165,None,001,69,2019_Oct_28_1501,ACPT_experiment_5_30_19,3.1.0,59.95028702148976,
,,,C,G,y,b,R,U,d,R,u,,,,,6,19,139,14,3,0,3,0,,,,,0,35,35,9,,,,,,up,0.8673915569997916,3034.784617613812,None,001,69,2019_Oct_28_1501,ACPT_experiment_5_30_19,3.1.0,59.95028702148976,
,,,C,G,y,b,L,G,g,L,c ,,,,,6,19,139,14,3,0,3,0,,,,,1,0,36,18,,,,,,up,1.6180219368870894,3036.936383326516,None,001,69,2019_Oct_28_1501,ACPT_experiment_5_30_19,3.1.0,59.95028702148976,
,,,C,G,y,b,R,G,g,L,c ,,,,,6,19,139,14,3,0,3,0,,,,,1,1,37,6,,,,,,up,1.5178971136738255,3039.838733836754,None,001,69,2019_Oct_28_1501,ACPT_experiment_5_30_19,3.1.0,59.95028702148976,
,,,C,G,y,b,R,G,g,R,c ,,,,,6,19,139,14,3,0,3,0,,,,,1,2,38,7,,,,,,up,0.8508403304294916,3042.6241658956424,None,001,69,2019_Oct_28_1501,ACPT_experiment_5_30_19,3.1.0,59.95028702148976,
,,,C,G,y,b,R,U,g,L,u,,,,,6,19,139,14,3,0,3,0,,,,,1,3,39,10,,,,,,down,2.602109467094124,3044.7593834004765,None,001,69,2019_Oct_28_1501,ACPT_experiment_5_30_19,3.1.0,59.95028702148976,
,,,C,G,y,b,R,U,g,R,u,,,,,6,19,139,14,3,0,3,0,,,,,1,4,40,11,,,,,,down,0.7841159059789788,3048.6290302277484,None,001,69,2019_Oct_28_1501,ACPT_experiment_5_30_19,3.1.0,59.95028702148976,
,,,C,G,y,b,L,D,d,L,c ,,,,,6,19,139,14,3,0,3,0,,,,,1,5,41,12,,,,,,up,2.151735223844298,3050.6975202894355,None,001,69,2019_Oct_28_1501,ACPT_experiment_5_30_19,3.1.0,59.95028702148976,
,,,C,G,y,b,L,U,y,R,u,,,,,6,19,139,14,3,0,3,0,,,,,1,6,42,25,,,,,,down,0.9007062247073918,3054.1336671008576,None,001,69,2019_Oct_28_1501,ACPT_experiment_5_30_19,3.1.0,59.95028702148976,
,,,C,G,y,b,L,G,y,L,y,,,,,6,19,139,14,3,0,3,0,,,,,1,7,43,34,,,,,,down,0.8006245688920899,3056.3187628766427,None,001,69,2019_Oct_28_1501,ACPT_experiment_5_30_19,3.1.0,59.95028702148976,
,,,C,G,y,b,R,D,d,L,c,,,,,6,19,139,14,3,0,3,0,,,,,1,8,44,0,,,,,,up,1.2343265357230848,3058.40376371433,None,001,69,2019_Oct_28_1501,ACPT_experiment_5_30_19,3.1.0,59.95028702148976,
,,,C,G,y,b,L,D,g,R,i,,,,,6,19,139,14,3,0,3,0,,,,,1,9,45,15,,,,,,up,3.402752148180298,3060.922465613243,None,001,69,2019_Oct_28_1501,ACPT_experiment_5_30_19,3.1.0,59.95028702148976,
,,,C,G,y,b,L,D,d,R,c ,,,,,6,19,139,14,3,0,3,0,,,,,1,10,46,13,,,,,,up,0.9841322069551097,3065.592910584619,None,001,69,2019_Oct_28_1501,ACPT_experiment_5_30_19,3.1.0,59.95028702148976,
,,,C,G,y,b,R,G,d,R,i,,,,,6,19,139,14,3,0,3,0,,,,,1,11,47,5,,,,,,up,0.9841279807769752,3067.8614151360634,None,001,69,2019_Oct_28_1501,ACPT_experiment_5_30_19,3.1.0,59.95028702148976,
,,,C,G,y,b,R,D,y,L,y,,,,,6,19,139,14,3,0,3,0,,,,,1,12,48,26,,,,,,down,0.8340089685552812,3070.1299184800264,None,001,69,2019_Oct_28_1501,ACPT_experiment_5_30_19,3.1.0,59.95028702148976,
,,,C,G,y,b,L,U,d,L,u,,,,,6,19,139,14,3,0,3,0,,,,,1,13,49,20,,,,,,up,0.9674584211898036,3072.24829466128,None,001,69,2019_Oct_28_1501,ACPT_experiment_5_30_19,3.1.0,59.95028702148976,
,,,C,G,y,b,R,U,d,L,u,,,,,6,19,139,14,3,0,3,0,,,,,1,14,50,8,,,,,,up,0.5671203268648242,3074.483436849565,None,001,69,2019_Oct_28_1501,ACPT_experiment_5_30_19,3.1.0,59.95028702148976,
,,,C,G,y,b,R,G,y,R,y,,,,,6,19,139,14,3,0,3,0,,,,,1,15,51,29,,,,,,down,0.9505787601301563,3076.351775070678,None,001,69,2019_Oct_28_1501,ACPT_experiment_5_30_19,3.1.0,59.95028702148976,
,,,C,G,y,b,L,U,d,R,u,,,,,6,19,139,14,3,0,3,0,,,,,1,16,52,21,,,,,,up,1.9182445659607765,3078.6034165639066,None,001,69,2019_Oct_28_1501,ACPT_experiment_5_30_19,3.1.0,59.95028702148976,
,,,C,G,y,b,R,U,y,L,u,,,,,6,19,139,14,3,0,3,0,,,,,1,17,53,30,,,,,,down,1.4178106279359781,3081.8060361911885,None,001,69,2019_Oct_28_1501,ACPT_experiment_5_30_19,3.1.0,59.95028702148976,
,,,C,G,y,b,R,U,d,R,u,,,,,6,19,139,14,3,0,3,0,,,,,1,18,54,9,,,,,,up,1.2343733255656844,3084.5082215785696,None,001,69,2019_Oct_28_1501,ACPT_experiment_5_30_19,3.1.0,59.95028702148976,
,,,C,G,y,b,L,G,d,R,i,,,,,6,19,139,14,3,0,3,0,,,,,1,19,55,17,,,,,,up,8.039838680706453,3087.0102499935856,None,001,69,2019_Oct_28_1501,ACPT_experiment_5_30_19,3.1.0,59.95028702148976,
,,,C,G,y,b,R,G,d,L,i,,,,,6,19,139,14,3,0,3,0,,,,,1,20,56,4,,,,,,up,2.7021787462435896,3096.3344598113035,None,001,69,2019_Oct_28_1501,ACPT_experiment_5_30_19,3.1.0,59.95028702148976,
,,,C,G,y,b,L,D,y,L,y,,,,,6,19,139,14,3,0,3,0,,,,,1,21,57,32,,,,,,down,0.7337350215893821,3100.3545356712166,None,001,69,2019_Oct_28_1501,ACPT_experiment_5_30_19,3.1.0,59.95028702148976,
,,,C,G,y,b,R,G,y,L,y,,,,,6,19,139,14,3,0,3,0,,,,,1,22,58,28,,,,,,down,0.6004920479899738,3102.3893608960716,None,001,69,2019_Oct_28_1501,ACPT_experiment_5_30_19,3.1.0,59.95028702148976,
,,,C,G,y,b,L,G,d,L,i,,,,,6,19,139,14,3,0,3,0,,,,,1,23,59,16,,,,,,up,0.7005486486050359,3104.274221062373,None,001,69,2019_Oct_28_1501,ACPT_experiment_5_30_19,3.1.0,59.95028702148976,
,,,C,G,y,b,L,U,y,L,u,,,,,6,19,139,14,3,0,3,0,,,,,1,24,60,24,,,,,,down,0.7506083433836466,3106.2591607713985,None,001,69,2019_Oct_28_1501,ACPT_experiment_5_30_19,3.1.0,59.95028702148976,
,,,C,G,y,b,R,D,y,R,y,,,,,6,19,139,14,3,0,3,0,,,,,1,25,61,27,,,,,,down,0.6838812021051126,3108.29414176114,None,001,69,2019_Oct_28_1501,ACPT_experiment_5_30_19,3.1.0,59.95028702148976,
,,,C,G,y,b,L,G,y,R,y,,,,,6,19,139,14,3,0,3,0,,,,,1,26,62,35,,,,,,down,0.6004793694555701,3110.262399232044,None,001,69,2019_Oct_28_1501,ACPT_experiment_5_30_19,3.1.0,59.95028702148976,
,,,C,G,y,b,L,D,y,R,y,,,,,6,19,139,14,3,0,3,0,,,,,1,27,63,33,,,,,,down,0.7806353456471697,3112.167263715084,None,001,69,2019_Oct_28_1501,ACPT_experiment_5_30_19,3.1.0,59.95028702148976,
,,,C,G,y,b,L,G,g,R,c ,,,,,6,19,139,14,3,0,3,0,,,,,1,28,64,19,,,,,,up,0.9174237816150708,3114.232298271647,None,001,69,2019_Oct_28_1501,ACPT_experiment_5_30_19,3.1.0,59.95028702148976,
,,,C,G,y,b,R,U,y,R,u,,,,,6,19,139,14,3,0,3,0,,,,,1,29,65,31,,,,,,down,0.5838200734469865,3116.4340593808374,None,001,69,2019_Oct_28_1501,ACPT_experiment_5_30_19,3.1.0,59.95028702148976,
,,,C,G,y,b,R,D,g,R,i,,,,,6,19,139,14,3,0,3,0,,,,,1,30,66,3,,,,,,down,1.0508496883921907,3118.3022430445417,None,001,69,2019_Oct_28_1501,ACPT_experiment_5_30_19,3.1.0,59.95028702148976,
,,,C,G,y,b,L,D,g,L,i,,,,,6,19,139,14,3,0,3,0,,,,,1,31,67,14,,,,,,down,0.6338516943214927,3120.6374602475044,None,001,69,2019_Oct_28_1501,ACPT_experiment_5_30_19,3.1.0,59.95028702148976,
,,,C,G,y,b,R,D,g,L,i,,,,,6,19,139,14,3,0,3,0,,,,,1,32,68,2,,,,,,up,1.2343377049146511,3122.5556770414332,None,001,69,2019_Oct_28_1501,ACPT_experiment_5_30_19,3.1.0,59.95028702148976,
,,,C,G,y,b,R,D,d,R,c ,,,,,6,19,139,14,3,0,3,0,,,,,1,33,69,1,,,,,,up,0.6338450531839044,3125.057710890109,None,001,69,2019_Oct_28_1501,ACPT_experiment_5_30_19,3.1.0,59.95028702148976,
,,,C,G,y,b,L,U,g,R,u,,,,,6,19,139,14,3,0,3,0,,,,,1,34,70,23,,,,,,up,0.9675006829820632,3126.9759313064787,None,001,69,2019_Oct_28_1501,ACPT_experiment_5_30_19,3.1.0,59.95028702148976,
,,,C,G,y,b,L,U,g,L,u,,,,,6,19,139,14,3,0,3,0,,,,,1,35,71,22,,,,,,up,0.750646680866339,3129.211053571351,None,001,69,2019_Oct_28_1501,ACPT_experiment_5_30_19,3.1.0,59.95028702148976,
,,,C,G,y,b,,,,,,,,,,6,19,139,14,4,0,4,0,0,0,0,0,,,,,,,,,,,,,,001,69,2019_Oct_28_1501,ACPT_experiment_5_30_19,3.1.0,59.95028702148976,
,,,C,G,y,b,R,D,g,L,i,,,,,6,19,139,14,4,0,4,0,,,,,0,0,0,2,,,,,,up,0.8640438194379385,3148.513359404835,None,001,69,2019_Oct_28_1501,ACPT_experiment_5_30_19,3.1.0,59.95028702148976,
,,,C,G,y,b,R,G,y,L,y,,,,,6,19,139,14,4,0,4,0,,,,,0,1,1,28,,,,,,down,0.6838799946235667,3150.6617764743714,None,001,69,2019_Oct_28_1501,ACPT_experiment_5_30_19,3.1.0,59.95028702148976,
,,,C,G,y,b,R,G,g,L,c ,,,,,6,19,139,14,4,0,4,0,,,,,0,2,2,6,,,,,,down,1.5178675304159697,3152.6300605098295,None,001,69,2019_Oct_28_1501,ACPT_experiment_5_30_19,3.1.0,59.95028702148976,
,,,C,G,y,b,R,G,d,L,i,,,,,6,19,139,14,4,0,4,0,,,,,0,3,3,4,,,,,,up,1.1342521247861441,3155.4322973660346,None,001,69,2019_Oct_28_1501,ACPT_experiment_5_30_19,3.1.0,59.95028702148976,
,,,C,G,y,b,R,D,g,R,i,,,,,6,19,139,14,4,0,4,0,,,,,0,4,4,3,,,,,,up,1.200965681913658,3157.8509230427917,None,001,69,2019_Oct_28_1501,ACPT_experiment_5_30_19,3.1.0,59.95028702148976,
,,,C,G,y,b,L,G,y,R,y,,,,,6,19,139,14,4,0,4,0,,,,,0,5,5,35,,,,,,down,0.9674505725706695,3160.3529469297573,None,001,69,2019_Oct_28_1501,ACPT_experiment_5_30_19,3.1.0,59.95028702148976,
,,,C,G,y,b,L,D,g,R,i,,,,,6,19,139,14,4,0,4,0,,,,,0,6,6,15,,,,,,down,1.4177695736216265,3162.621493742994,None,001,69,2019_Oct_28_1501,ACPT_experiment_5_30_19,3.1.0,59.95028702148976,
,,,C,G,y,b,L,U,g,R,u,,,,,6,19,139,14,4,0,4,0,,,,,0,7,7,23,,,,,,down,0.9507722587586613,3165.3236377741923,None,001,69,2019_Oct_28_1501,ACPT_experiment_5_30_19,3.1.0,59.95028702148976,
,,,C,G,y,b,R,D,y,L,y,,,,,6,19,139,14,4,0,4,0,,,,,0,8,8,26,,,,,,down,0.8674217439947824,3167.558757624105,None,001,69,2019_Oct_28_1501,ACPT_experiment_5_30_19,3.1.0,59.95028702148976,
,,,C,G,y,b,L,G,d,R,i,,,,,6,19,139,14,4,0,4,0,,,,,0,9,9,17,,,,,,up,1.5679380925139412,3169.7105209218535,None,001,69,2019_Oct_28_1501,ACPT_experiment_5_30_19,3.1.0,59.95028702148976,
,,,C,G,y,b,R,G,y,R,y,,,,,6,19,139,14,4,0,4,0,,,,,0,10,10,29,,,,,,down,0.9174246872244112,3172.562834981294,None,001,69,2019_Oct_28_1501,ACPT_experiment_5_30_19,3.1.0,59.95028702148976,
,,,C,G,y,b,R,D,y,R,y,,,,,6,19,139,14,4,0,4,0,,,,,0,11,11,27,,,,,,down,0.7506044190740795,3174.7646114858508,None,001,69,2019_Oct_28_1501,ACPT_experiment_5_30_19,3.1.0,59.95028702148976,
,,,C,G,y,b,R,U,g,L,u,,,,,6,19,139,14,4,0,4,0,,,,,0,12,12,10,,,,,,up,1.9515821757850063,3176.7995973055113,None,001,69,2019_Oct_28_1501,ACPT_experiment_5_30_19,3.1.0,59.95028702148976,
,,,C,G,y,b,L,D,d,R,c ,,,,,6,19,139,14,4,0,4,0,,,,,0,13,13,13,,,,,,up,0.9841267732954293,3180.0355512220485,None,001,69,2019_Oct_28_1501,ACPT_experiment_5_30_19,3.1.0,59.95028702148976,
,,,C,G,y,b,L,G,g,L,c ,,,,,6,19,139,14,4,0,4,0,,,,,0,14,14,18,,,,,,down,1.2843705332670652,3182.3040509435705,None,001,69,2019_Oct_28_1501,ACPT_experiment_5_30_19,3.1.0,59.95028702148976,
,,,C,G,y,b,L,U,g,L,u,,,,,6,19,139,14,4,0,4,0,,,,,0,15,15,22,,,,,,up,0.9507659194860025,3184.872803783037,None,001,69,2019_Oct_28_1501,ACPT_experiment_5_30_19,3.1.0,59.95028702148976,
,,,C,G,y,b,R,G,g,R,c ,,,,,6,19,139,14,4,0,4,0,,,,,0,16,16,7,,,,,,up,0.7839897243466112,3187.1079402357936,None,001,69,2019_Oct_28_1501,ACPT_experiment_5_30_19,3.1.0,59.95028702148976,
,,,C,G,y,b,R,G,d,R,i,,,,,6,19,139,14,4,0,4,0,,,,,0,17,17,5,,,,,,up,0.7172160951013211,3189.1596321413017,None,001,69,2019_Oct_28_1501,ACPT_experiment_5_30_19,3.1.0,59.95028702148976,
,,,C,G,y,b,L,U,d,R,u,,,,,6,19,139,14,4,0,4,0,,,,,0,18,18,21,,,,,,up,0.9340900206334481,3191.161219373411,None,001,69,2019_Oct_28_1501,ACPT_experiment_5_30_19,3.1.0,59.95028702148976,
,,,C,G,y,b,R,D,d,R,c ,,,,,6,19,139,14,4,0,4,0,,,,,0,19,19,1,,,,,,up,1.4011314085109916,3193.3796847572303,None,001,69,2019_Oct_28_1501,ACPT_experiment_5_30_19,3.1.0,59.95028702148976,
,,,C,G,y,b,R,U,g,R,u,,,,,6,19,139,14,4,0,4,0,,,,,0,20,20,11,,,,,,up,0.9341036047808302,3196.0651722092516,None,001,69,2019_Oct_28_1501,ACPT_experiment_5_30_19,3.1.0,59.95028702148976,
,,,C,G,y,b,L,G,d,L,i,,,,,6,19,139,14,4,0,4,0,,,,,0,21,21,16,,,,,,up,0.9340740215266123,3198.2836698931533,None,001,69,2019_Oct_28_1501,ACPT_experiment_5_30_19,3.1.0,59.95028702148976,
,,,C,G,y,b,R,U,d,R,u,,,,,6,19,139,14,4,0,4,0,,,,,0,22,22,9,,,,,,up,0.9174126124271424,3200.5021283339665,None,001,69,2019_Oct_28_1501,ACPT_experiment_5_30_19,3.1.0,59.95028702148976,
,,,C,G,y,b,L,G,g,R,c ,,,,,6,19,139,14,4,0,4,0,,,,,0,23,23,19,,,,,,down,1.3344118139830243,3202.703900612345,None,001,69,2019_Oct_28_1501,ACPT_experiment_5_30_19,3.1.0,59.95028702148976,
,,,C,G,y,b,R,U,y,R,u,,,,,6,19,139,14,4,0,4,0,,,,,0,24,24,31,,,,,,down,0.7672908833774272,3205.322683563336,None,001,69,2019_Oct_28_1501,ACPT_experiment_5_30_19,3.1.0,59.95028702148976,
,,,C,G,y,b,L,G,y,L,y,,,,,6,19,139,14,4,0,4,0,,,,,0,25,25,34,,,,,,down,0.7505914386638324,3207.3743603753464,None,001,69,2019_Oct_28_1501,ACPT_experiment_5_30_19,3.1.0,59.95028702148976,
,,,C,G,y,b,L,U,y,R,u,,,,,6,19,139,14,4,0,4,0,,,,,0,26,26,25,,,,,,down,0.7339327463960217,3209.4093205360623,None,001,69,2019_Oct_28_1501,ACPT_experiment_5_30_19,3.1.0,59.95028702148976,
,,,C,G,y,b,R,U,y,L,u,,,,,6,19,139,14,4,0,4,0,,,,,0,27,27,30,,,,,,down,0.6671911153644032,3211.427642531664,None,001,69,2019_Oct_28_1501,ACPT_experiment_5_30_19,3.1.0,59.95028702148976,
,,,C,G,y,b,R,D,d,L,c,,,,,6,19,139,14,4,0,4,0,,,,,0,28,28,0,,,,,,up,1.551255250647955,3213.3792059915177,None,001,69,2019_Oct_28_1501,ACPT_experiment_5_30_19,3.1.0,59.95028702148976,
,,,C,G,y,b,L,D,g,L,i,,,,,6,19,139,14,4,0,4,0,,,,,0,29,29,14,,,,,,up,1.7681255537427205,3216.2148091351883,None,001,69,2019_Oct_28_1501,ACPT_experiment_5_30_19,3.1.0,59.95028702148976,
,,,C,G,y,b,L,D,y,R,y,,,,,6,19,139,14,4,0,4,0,,,,,0,30,30,33,,,,,,down,0.8340228545712307,3219.2839874603233,None,001,69,2019_Oct_28_1501,ACPT_experiment_5_30_19,3.1.0,59.95028702148976,
,,,C,G,y,b,L,U,d,L,u,,,,,6,19,139,14,4,0,4,0,,,,,0,31,31,20,,,,,,up,1.4845290149823995,3221.4357311365275,None,001,69,2019_Oct_28_1501,ACPT_experiment_5_30_19,3.1.0,59.95028702148976,
,,,C,G,y,b,R,U,d,L,u,,,,,6,19,139,14,4,0,4,0,,,,,0,32,32,8,,,,,,up,0.8840747007343452,3224.204611968842,None,001,69,2019_Oct_28_1501,ACPT_experiment_5_30_19,3.1.0,59.95028702148976,
,,,C,G,y,b,L,D,d,L,c ,,,,,6,19,139,14,4,0,4,0,,,,,0,33,33,12,,,,,,up,2.6855076773063047,3226.3730572028435,None,001,69,2019_Oct_28_1501,ACPT_experiment_5_30_19,3.1.0,59.95028702148976,
,,,C,G,y,b,L,D,y,L,y,,,,,6,19,139,14,4,0,4,0,,,,,0,34,34,32,,,,,,down,0.9174120086863695,3230.34293631903,None,001,69,2019_Oct_28_1501,ACPT_experiment_5_30_19,3.1.0,59.95028702148976,
,,,C,G,y,b,L,U,y,L,u,,,,,6,19,139,14,4,0,4,0,,,,,0,35,35,24,,,,,,down,0.6171875683940016,3232.544721879687,None,001,69,2019_Oct_28_1501,ACPT_experiment_5_30_19,3.1.0,59.95028702148976,
,,,C,G,y,b,R,U,y,L,u,,,,,6,19,139,14,4,0,4,0,,,,,1,0,36,30,,,,,,down,0.7505959667141724,3234.4295983469638,None,001,69,2019_Oct_28_1501,ACPT_experiment_5_30_19,3.1.0,59.95028702148976,
,,,C,G,y,b,R,G,g,L,c ,,,,,6,19,139,14,4,0,4,0,,,,,1,1,37,6,,,,,,down,3.202599100124644,3236.4645603188983,None,001,69,2019_Oct_28_1501,ACPT_experiment_5_30_19,3.1.0,59.95028702148976,
,,,C,G,y,b,R,U,d,R,u,,,,,6,19,139,14,4,0,4,0,,,,,1,2,38,9,,,,,,up,1.9015396875947772,3240.9515275373305,None,001,69,2019_Oct_28_1501,ACPT_experiment_5_30_19,3.1.0,59.95028702148976,
,,,C,G,y,b,R,D,d,R,c ,,,,,6,19,139,14,4,0,4,0,,,,,1,3,39,1,,,,,,up,2.4686696742974163,3244.137439267546,None,001,69,2019_Oct_28_1501,ACPT_experiment_5_30_19,3.1.0,59.95028702148976,
,,,C,G,y,b,L,U,y,R,u,,,,,6,19,139,14,4,0,4,0,,,,,1,4,40,25,,,,,,down,0.6672400182942511,3247.8904752489325,None,001,69,2019_Oct_28_1501,ACPT_experiment_5_30_19,3.1.0,59.95028702148976,
,,,C,G,y,b,R,D,y,R,y,,,,,6,19,139,14,4,0,4,0,,,,,1,5,41,27,,,,,,down,0.600423825388134,3249.8587903769912,None,001,69,2019_Oct_28_1501,ACPT_experiment_5_30_19,3.1.0,59.95028702148976,
,,,C,G,y,b,L,U,d,L,u,,,,,6,19,139,14,4,0,4,0,,,,,1,6,42,20,,,,,,up,0.7005700813715521,3251.7602887084067,None,001,69,2019_Oct_28_1501,ACPT_experiment_5_30_19,3.1.0,59.95028702148976,
,,,C,G,y,b,R,G,g,R,c ,,,,,6,19,139,14,4,0,4,0,,,,,1,7,43,7,,,,,,up,1.5179004342389817,3253.7452175501166,None,001,69,2019_Oct_28_1501,ACPT_experiment_5_30_19,3.1.0,59.95028702148976,
,,,C,G,y,b,L,D,d,R,c ,,,,,6,19,139,14,4,0,4,0,,,,,1,8,44,13,,,,,,up,1.1342412574667833,3256.5474981774605,None,001,69,2019_Oct_28_1501,ACPT_experiment_5_30_19,3.1.0,59.95028702148976,
,,,C,G,y,b,R,G,d,R,i,,,,,6,19,139,14,4,0,4,0,,,,,1,9,45,5,,,,,,up,0.7339309351773409,3258.9661090625887,None,001,69,2019_Oct_28_1501,ACPT_experiment_5_30_19,3.1.0,59.95028702148976,
,,,C,G,y,b,L,D,d,L,c ,,,,,6,19,139,14,4,0,4,0,,,,,1,10,46,12,,,,,,up,0.7839827813404554,3260.9844078142087,None,001,69,2019_Oct_28_1501,ACPT_experiment_5_30_19,3.1.0,59.95028702148976,
,,,C,G,y,b,L,U,g,R,u,,,,,6,19,139,14,4,0,4,0,,,,,1,11,47,23,,,,,,down,0.9341014916899439,3263.0527493558875,None,001,69,2019_Oct_28_1501,ACPT_experiment_5_30_19,3.1.0,59.95028702148976,
,,,C,G,y,b,L,G,d,R,i,,,,,6,19,139,14,4,0,4,0,,,,,1,12,48,17,,,,,,up,2.0850267985006212,3265.2712135322254,None,001,69,2019_Oct_28_1501,ACPT_experiment_5_30_19,3.1.0,59.95028702148976,
,,,C,G,y,b,R,G,y,R,y,,,,,6,19,139,14,4,0,4,0,,,,,1,13,49,29,,,,,,down,1.1009157224398223,3268.640609052778,None,001,69,2019_Oct_28_1501,ACPT_experiment_5_30_19,3.1.0,59.95028702148976,
,,,C,G,y,b,R,G,y,L,y,,,,,6,19,139,14,4,0,4,0,,,,,1,14,50,28,,,,,,down,0.9007653912158275,3271.0090428157237,None,001,69,2019_Oct_28_1501,ACPT_experiment_5_30_19,3.1.0,59.95028702148976,
,,,C,G,y,b,L,G,y,L,y,,,,,6,19,139,14,4,0,4,0,,,,,1,15,51,34,,,,,,down,0.9007822959356417,3273.210948520613,None,001,69,2019_Oct_28_1501,ACPT_experiment_5_30_19,3.1.0,59.95028702148976,
,,,C,G,y,b,L,U,y,L,u,,,,,6,19,139,14,4,0,4,0,,,,,1,16,52,24,,,,,,down,0.7005619308802125,3275.396078407699,None,001,69,2019_Oct_28_1501,ACPT_experiment_5_30_19,3.1.0,59.95028702148976,
,,,C,G,y,b,R,D,d,L,c,,,,,6,19,139,14,4,0,4,0,,,,,1,17,53,0,,,,,,up,1.1676534291655116,3277.397698543631,None,001,69,2019_Oct_28_1501,ACPT_experiment_5_30_19,3.1.0,59.95028702148976,
,,,C,G,y,b,R,U,g,R,u,,,,,6,19,139,14,4,0,4,0,,,,,1,18,54,11,,,,,,down,1.0475297228658746,3279.869679731095,None,001,69,2019_Oct_28_1501,ACPT_experiment_5_30_19,3.1.0,59.95028702148976,
,,,C,G,y,b,L,D,g,L,i,,,,,6,19,139,14,4,0,4,0,,,,,1,19,55,14,,,,,,down,0.7839646691427333,3282.184908314557,None,001,69,2019_Oct_28_1501,ACPT_experiment_5_30_19,3.1.0,59.95028702148976,
,,,C,G,y,b,R,U,d,L,u,,,,,6,19,139,14,4,0,4,0,,,,,1,20,56,8,,,,,,down,0.7339478398935171,3284.2532462337986,None,001,69,2019_Oct_28_1501,ACPT_experiment_5_30_19,3.1.0,59.95028702148976,
,,,C,G,y,b,L,G,y,R,y,,,,,6,19,139,14,4,0,4,0,,,,,1,21,57,35,,,,,,down,1.1170225964742713,3286.2886287105503,None,001,69,2019_Oct_28_1501,ACPT_experiment_5_30_19,3.1.0,59.95028702148976,
,,,C,G,y,b,R,U,g,L,u,,,,,6,19,139,14,4,0,4,0,,,,,1,22,58,10,,,,,,up,2.3018681220819417,3288.6901715677777,None,001,69,2019_Oct_28_1501,ACPT_experiment_5_30_19,3.1.0,59.95028702148976,
,,,C,G,y,b,L,G,d,L,i,,,,,6,19,139,14,4,0,4,0,,,,,1,23,59,16,,,,,,up,1.3844814704716555,3292.2763815454855,None,001,69,2019_Oct_28_1501,ACPT_experiment_5_30_19,3.1.0,59.95028702148976,
,,,C,G,y,b,L,D,g,R,i,,,,,6,19,139,14,4,0,4,0,,,,,1,24,60,15,,,,,,down,1.084239823587268,3294.9452124183263,None,001,69,2019_Oct_28_1501,ACPT_experiment_5_30_19,3.1.0,59.95028702148976,
,,,C,G,y,b,L,U,d,R,u,,,,,6,19,139,14,4,0,4,0,,,,,1,25,61,21,,,,,,up,0.7672860534585197,3297.3138185490025,None,001,69,2019_Oct_28_1501,ACPT_experiment_5_30_19,3.1.0,59.95028702148976,
,,,C,G,y,b,L,G,g,L,c ,,,,,6,19,139,14,4,0,4,0,,,,,1,26,62,18,,,,,,down,1.5679133391786308,3299.365502605895,None,001,69,2019_Oct_28_1501,ACPT_experiment_5_30_19,3.1.0,59.95028702148976,
,,,C,G,y,b,L,D,y,L,y,,,,,6,19,139,14,4,0,4,0,,,,,1,27,63,32,,,,,,down,1.0842099384608446,3302.2344699239475,None,001,69,2019_Oct_28_1501,ACPT_experiment_5_30_19,3.1.0,59.95028702148976,
,,,C,G,y,b,R,D,g,R,i,,,,,6,19,139,14,4,0,4,0,,,,,1,28,64,3,,,,,,up,1.1342448799077829,3304.619739274942,None,001,69,2019_Oct_28_1501,ACPT_experiment_5_30_19,3.1.0,59.95028702148976,
,,,C,G,y,b,R,U,y,R,u,,,,,6,19,139,14,4,0,4,0,,,,,1,29,65,31,,,,,,down,1.1342412574704213,3307.038368272264,None,001,69,2019_Oct_28_1501,ACPT_experiment_5_30_19,3.1.0,59.95028702148976,
,,,C,G,y,b,L,D,y,R,y,,,,,6,19,139,14,4,0,4,0,,,,,1,30,66,33,,,,,,down,0.7339264071306388,3309.440305371627,None,001,69,2019_Oct_28_1501,ACPT_experiment_5_30_19,3.1.0,59.95028702148976,
,,,C,G,y,b,R,G,d,L,i,,,,,6,19,139,14,4,0,4,0,,,,,1,31,67,4,,,,,,up,1.050757014327246,3311.4585802755173,None,001,69,2019_Oct_28_1501,ACPT_experiment_5_30_19,3.1.0,59.95028702148976,
,,,C,G,y,b,R,D,y,L,y,,,,,6,19,139,14,4,0,4,0,,,,,1,32,68,26,,,,,,down,0.6672252266653231,3313.793805327099,None,001,69,2019_Oct_28_1501,ACPT_experiment_5_30_19,3.1.0,59.95028702148976,
,,,C,G,y,b,L,G,g,R,c ,,,,,6,19,139,14,4,0,4,0,,,,,1,33,69,19,,,,,,down,0.8173237117298413,3315.745408030045,None,001,69,2019_Oct_28_1501,ACPT_experiment_5_30_19,3.1.0,59.95028702148976,
,,,C,G,y,b,R,D,g,L,i,,,,,6,19,139,14,4,0,4,0,,,,,1,34,70,2,,,,,,down,0.733934255749773,3317.847104086264,None,001,69,2019_Oct_28_1501,ACPT_experiment_5_30_19,3.1.0,59.95028702148976,
,,,C,G,y,b,L,U,g,L,u,,,,,6,19,139,14,4,0,4,0,,,,,1,35,71,22,,,,,,down,2.0182752057626203,3319.8654336286127,None,001,69,2019_Oct_28_1501,ACPT_experiment_5_30_19,3.1.0,59.95028702148976,
,,,C,G,y,b,,,,,,,,,,6,19,139,14,5,0,5,0,0,0,0,0,,,,,,,,,,,,,,001,69,2019_Oct_28_1501,ACPT_experiment_5_30_19,3.1.0,59.95028702148976,
,,,C,G,y,b,R,D,g,L,i,,,,,6,19,139,14,5,0,5,0,,,,,0,0,0,2,,,,,,up,1.551312002196937,3326.1204729698147,None,001,69,2019_Oct_28_1501,ACPT_experiment_5_30_19,3.1.0,59.95028702148976,
,,,C,G,y,b,L,D,y,L,y,,,,,6,19,139,14,5,0,5,0,,,,,0,1,1,32,,,,,,down,0.6000709394356818,3328.973195157403,None,001,69,2019_Oct_28_1501,ACPT_experiment_5_30_19,3.1.0,59.95028702148976,
,,,C,G,y,b,L,U,g,R,u,,,,,6,19,139,14,5,0,5,0,,,,,0,2,2,23,,,,,,up,1.7847969245485729,3330.8576399506746,None,001,69,2019_Oct_28_1501,ACPT_experiment_5_30_19,3.1.0,59.95028702148976,
,,,C,G,y,b,R,G,g,L,c ,,,,,6,19,139,14,5,0,5,0,,,,,0,3,3,6,,,,,,up,1.0508530089646229,3333.9267944280873,None,001,69,2019_Oct_28_1501,ACPT_experiment_5_30_19,3.1.0,59.95028702148976,
,,,C,G,y,b,L,U,d,L,u,,,,,6,19,139,14,5,0,5,0,,,,,0,4,4,20,,,,,,up,0.8173194855517067,3336.262025818938,None,001,69,2019_Oct_28_1501,ACPT_experiment_5_30_19,3.1.0,59.95028702148976,
,,,C,G,y,b,L,G,g,L,c ,,,,,6,19,139,14,5,0,5,0,,,,,0,5,5,18,,,,,,up,0.7839894224780437,3338.363725799467,None,001,69,2019_Oct_28_1501,ACPT_experiment_5_30_19,3.1.0,59.95028702148976,
,,,C,G,y,b,L,G,y,L,y,,,,,6,19,139,14,5,0,5,0,,,,,0,6,6,34,,,,,,down,0.7839993841844262,3340.4320329279726,None,001,69,2019_Oct_28_1501,ACPT_experiment_5_30_19,3.1.0,59.95028702148976,
,,,C,G,y,b,R,D,d,L,c,,,,,6,19,139,14,5,0,5,0,,,,,0,7,7,0,,,,,,up,0.7339128229796188,3342.5004131090063,None,001,69,2019_Oct_28_1501,ACPT_experiment_5_30_19,3.1.0,59.95028702148976,
,,,C,G,y,b,R,D,y,L,y,,,,,6,19,139,14,5,0,5,0,,,,,0,8,8,26,,,,,,down,1.034167752142821,3344.518703710135,None,001,69,2019_Oct_28_1501,ACPT_experiment_5_30_19,3.1.0,59.95028702148976,
,,,C,G,y,b,R,D,d,R,c ,,,,,6,19,139,14,5,0,5,0,,,,,0,9,9,1,,,,,,up,0.7672893740273139,3346.837243203023,None,001,69,2019_Oct_28_1501,ACPT_experiment_5_30_19,3.1.0,59.95028702148976,
,,,C,G,y,b,L,U,g,L,u,,,,,6,19,139,14,5,0,5,0,,,,,0,10,10,22,,,,,,up,1.2510084719797305,3348.888908543977,None,001,69,2019_Oct_28_1501,ACPT_experiment_5_30_19,3.1.0,59.95028702148976,
,,,C,G,y,b,L,D,g,R,i,,,,,6,19,139,14,5,0,5,0,,,,,0,11,11,15,,,,,,up,0.6672062088582607,3351.4242911716647,None,001,69,2019_Oct_28_1501,ACPT_experiment_5_30_19,3.1.0,59.95028702148976,
,,,C,G,y,b,R,U,g,L,u,,,,,6,19,139,14,5,0,5,0,,,,,0,12,12,10,,,,,,up,0.717279185915686,3353.359218277623,None,001,69,2019_Oct_28_1501,ACPT_experiment_5_30_19,3.1.0,59.95028702148976,
,,,C,G,y,b,R,G,y,R,y,,,,,6,19,139,14,5,0,5,0,,,,,0,13,13,29,,,,,,down,1.2343609488998482,3355.3607855863156,None,001,69,2019_Oct_28_1501,ACPT_experiment_5_30_19,3.1.0,59.95028702148976,
,,,C,G,y,b,L,D,d,R,c ,,,,,6,19,139,14,5,0,5,0,,,,,0,14,14,13,,,,,,up,1.8680955176860152,3357.8795729144185,None,001,69,2019_Oct_28_1501,ACPT_experiment_5_30_19,3.1.0,59.95028702148976,
,,,C,G,y,b,R,U,y,R,u,,,,,6,19,139,14,5,0,5,0,,,,,0,15,15,31,,,,,,down,0.7673080899658089,3361.0654303080446,None,001,69,2019_Oct_28_1501,ACPT_experiment_5_30_19,3.1.0,59.95028702148976,
,,,C,G,y,b,L,G,g,R,c ,,,,,6,19,139,14,5,0,5,0,,,,,0,16,16,19,,,,,,up,1.084209636592277,3363.1337721515956,None,001,69,2019_Oct_28_1501,ACPT_experiment_5_30_19,3.1.0,59.95028702148976,
,,,C,G,y,b,R,G,y,L,y,,,,,6,19,139,14,5,0,5,0,,,,,0,17,17,28,,,,,,down,0.6671829648767016,3365.502376169181,None,001,69,2019_Oct_28_1501,ACPT_experiment_5_30_19,3.1.0,59.95028702148976,
,,,C,G,y,b,L,D,d,L,c ,,,,,6,19,139,14,5,0,5,0,,,,,0,18,18,12,,,,,,up,0.9674496669613291,3367.4539351009844,None,001,69,2019_Oct_28_1501,ACPT_experiment_5_30_19,3.1.0,59.95028702148976,
,,,C,G,y,b,L,D,g,L,i,,,,,6,19,139,14,5,0,5,0,,,,,0,19,19,14,,,,,,down,2.668843853251019,3369.6890627995126,None,001,69,2019_Oct_28_1501,ACPT_experiment_5_30_19,3.1.0,59.95028702148976,
,,,C,G,y,b,L,D,y,R,y,,,,,6,19,139,14,5,0,5,0,,,,,0,20,20,33,,,,,,down,4.036600521932996,3373.658963650334,None,001,69,2019_Oct_28_1501,ACPT_experiment_5_30_19,3.1.0,59.95028702148976,
,,,C,G,y,b,R,G,d,R,i,,,,,6,19,139,14,5,0,5,0,,,,,0,21,21,5,,,,,,up,3.2526304191305826,3379.0132988799123,None,001,69,2019_Oct_28_1501,ACPT_experiment_5_30_19,3.1.0,59.95028702148976,
,,,C,G,y,b,L,G,d,L,i,,,,,6,19,139,14,5,0,5,0,,,,,0,22,22,16,,,,,,up,1.3177374244733073,3383.550297417354,None,001,69,2019_Oct_28_1501,ACPT_experiment_5_30_19,3.1.0,59.95028702148976,
,,,C,G,y,b,R,U,d,R,u,,,,,6,19,139,14,5,0,5,0,,,,,0,23,23,9,,,,,,down,1.61798873119551,3386.152407488189,None,001,69,2019_Oct_28_1501,ACPT_experiment_5_30_19,3.1.0,59.95028702148976,
,,,C,G,y,b,R,U,g,R,u,,,,,6,19,139,14,5,0,5,0,,,,,0,24,24,11,,,,,,up,1.2176865593901312,3389.0380519125756,None,001,69,2019_Oct_28_1501,ACPT_experiment_5_30_19,3.1.0,59.95028702148976,
,,,C,G,y,b,L,G,d,R,i,,,,,6,19,139,14,5,0,5,0,,,,,0,25,25,17,,,,,,up,0.8173303528710676,3391.5401041753175,None,001,69,2019_Oct_28_1501,ACPT_experiment_5_30_19,3.1.0,59.95028702148976,
,,,C,G,y,b,R,U,y,L,u,,,,,6,19,139,14,5,0,5,0,,,,,0,26,26,30,,,,,,down,0.7672911852496327,3393.6418053633242,None,001,69,2019_Oct_28_1501,ACPT_experiment_5_30_19,3.1.0,59.95028702148976,
,,,C,G,y,b,R,D,y,R,y,,,,,6,19,139,14,5,0,5,0,,,,,0,27,27,27,,,,,,down,0.984134320045996,3395.693460742572,None,001,69,2019_Oct_28_1501,ACPT_experiment_5_30_19,3.1.0,59.95028702148976,
,,,C,G,y,b,L,U,y,R,u,,,,,6,19,139,14,5,0,5,0,,,,,0,28,28,25,,,,,,down,1.3511082399927545,3397.9619625771847,None,001,69,2019_Oct_28_1501,ACPT_experiment_5_30_19,3.1.0,59.95028702148976,
,,,C,G,y,b,L,G,y,R,y,,,,,6,19,139,14,5,0,5,0,,,,,0,29,29,35,,,,,,down,1.3175357753607386,3400.6142793534564,None,001,69,2019_Oct_28_1501,ACPT_experiment_5_30_19,3.1.0,59.95028702148976,
,,,C,G,y,b,R,G,g,R,c ,,,,,6,19,139,14,5,0,5,0,,,,,0,30,30,7,,,,,,down,3.4694753651492647,3403.232899898423,None,001,69,2019_Oct_28_1501,ACPT_experiment_5_30_19,3.1.0,59.95028702148976,
,,,C,G,y,b,R,U,d,L,u,,,,,6,19,139,14,5,0,5,0,,,,,0,31,31,8,,,,,,up,2.6521480309784238,3407.98675183424,None,001,69,2019_Oct_28_1501,ACPT_experiment_5_30_19,3.1.0,59.95028702148976,
,,,C,G,y,b,L,U,d,R,u,,,,,6,19,139,14,5,0,5,0,,,,,0,32,32,21,,,,,,up,1.4178205896423606,3411.923264361085,None,001,69,2019_Oct_28_1501,ACPT_experiment_5_30_19,3.1.0,59.95028702148976,
,,,C,G,y,b,L,U,y,L,u,,,,,6,19,139,14,5,0,5,0,,,,,0,33,33,24,,,,,,down,0.8506893954581756,3414.608777773923,None,001,69,2019_Oct_28_1501,ACPT_experiment_5_30_19,3.1.0,59.95028702148976,
,,,C,G,y,b,R,G,d,L,i,,,,,6,19,139,14,5,0,5,0,,,,,0,34,34,4,,,,,,up,1.4178178728143394,3416.7438395138706,None,001,69,2019_Oct_28_1501,ACPT_experiment_5_30_19,3.1.0,59.95028702148976,
,,,C,G,y,b,R,D,g,R,i,,,,,6,19,139,14,5,0,5,0,,,,,0,35,35,3,,,,,,up,9.87468745141814,3419.4460245993832,None,001,69,2019_Oct_28_1501,ACPT_experiment_5_30_19,3.1.0,59.95028702148976,
,,,C,G,y,b,R,G,d,L,i,,,,,6,19,139,14,5,0,5,0,,,,,1,0,36,4,,,,,,down,1.4678579460451147,3430.6050602456926,None,001,69,2019_Oct_28_1501,ACPT_experiment_5_30_19,3.1.0,59.95028702148976,
,,,C,G,y,b,L,D,d,R,c ,,,,,6,19,139,14,5,0,5,0,,,,,1,1,37,13,,,,,,up,1.6513643766302266,3433.357262462323,None,001,69,2019_Oct_28_1501,ACPT_experiment_5_30_19,3.1.0,59.95028702148976,
,,,C,G,y,b,L,U,y,L,u,,,,,6,19,139,14,5,0,5,0,,,,,1,2,38,24,,,,,,down,0.7506306817558652,3436.2929759394574,None,001,69,2019_Oct_28_1501,ACPT_experiment_5_30_19,3.1.0,59.95028702148976,
,,,C,G,y,b,L,U,y,R,u,,,,,6,19,139,14,5,0,5,0,,,,,1,3,39,25,,,,,,down,0.6505511390314496,3438.327956929199,None,001,69,2019_Oct_28_1501,ACPT_experiment_5_30_19,3.1.0,59.95028702148976,
,,,C,G,y,b,L,U,g,L,u,,,,,6,19,139,14,5,0,5,0,,,,,1,4,40,22,,,,,,up,7.973124821706733,3440.262876186538,None,001,69,2019_Oct_28_1501,ACPT_experiment_5_30_19,3.1.0,59.95028702148976,
,,,C,G,y,b,R,D,g,R,i,,,,,6,19,139,14,5,0,5,0,,,,,1,5,41,3,,,,,,up,4.6204474617989035,3449.5203715415155,None,001,69,2019_Oct_28_1501,ACPT_experiment_5_30_19,3.1.0,59.95028702148976,
,,,C,G,y,b,L,U,g,R,u,,,,,6,19,139,14,5,0,5,0,,,,,1,6,42,23,,,,,,up,0.683891767555906,3455.4251487841466,None,001,69,2019_Oct_28_1501,ACPT_experiment_5_30_19,3.1.0,59.95028702148976,
,,,C,G,y,b,R,D,d,R,c ,,,,,6,19,139,14,5,0,5,0,,,,,1,7,43,1,,,,,,up,0.633829959686409,3457.3934313102545,None,001,69,2019_Oct_28_1501,ACPT_experiment_5_30_19,3.1.0,59.95028702148976,
,,,C,G,y,b,R,G,g,L,c ,,,,,6,19,139,14,5,0,5,0,,,,,1,8,44,6,,,,,,up,0.6505263856961392,3459.3116354256454,None,001,69,2019_Oct_28_1501,ACPT_experiment_5_30_19,3.1.0,59.95028702148976,
,,,C,G,y,b,L,G,g,R,c ,,,,,6,19,139,14,5,0,5,0,,,,,1,9,45,19,,,,,,up,0.5838031687271723,3461.2465332502215,None,001,69,2019_Oct_28_1501,ACPT_experiment_5_30_19,3.1.0,59.95028702148976,
