facing_vig,person_vig,text_vig,facing_train,person_train,food_train,correct_key_train,vig_random.thisRepN,vig_random.thisTrialN,vig_random.thisN,vig_random.thisIndex,trainTrials.thisRepN,trainTrials.thisTrialN,trainTrials.thisN,trainTrials.thisIndex,train_resp.keys,train_resp.corr,train_resp.rt,train_resp.started,train_resp.stopped,session,participant,date,expName,psychopyVersion,frameRate,
C,U,"did not report her food preferences, so her food preferences are unknown.",,,,,0,0,0,2,,,,,,,,,,001,6,2019_Jun_05_1404,ACPT_experiment_5_30_19,3.1.0,59.954574822069624,
C,G,"cannot eat dairy products because she is lactose intolerant. She enjoys eating wheat products. She thinks eating insects, like crickets, is disgusting.",,,,,0,1,1,0,,,,,,,,,,001,6,2019_Jun_05_1404,ACPT_experiment_5_30_19,3.1.0,59.954574822069624,
C,D,"is allergic to gluten, meaning she can’t eat wheat products. She enjoys eating dairy products. She thinks eating insects, like crickets, is disgusting.",,,,,0,2,2,1,,,,,,,,,,001,6,2019_Jun_05_1404,ACPT_experiment_5_30_19,3.1.0,59.954574822069624,
,,,C,D,g,b,,,,,0,0,0,10,v,0,1.7680123833624748,3520.5787745952703,None,001,6,2019_Jun_05_1404,ACPT_experiment_5_30_19,3.1.0,59.954574822069624,
,,,C,D,d,v,,,,,0,1,1,0,v,1,1.5679128914480316,3525.615932833298,None,001,6,2019_Jun_05_1404,ACPT_experiment_5_30_19,3.1.0,59.954574822069624,
,,,C,U,g,n,,,,,0,2,2,16,v,0,1.7013319721618245,3530.4696682475897,None,001,6,2019_Jun_05_1404,ACPT_experiment_5_30_19,3.1.0,59.954574822069624,
,,,C,D,y,b,,,,,0,3,3,2,n,0,1.0674990461338894,3535.456820327744,None,001,6,2019_Jun_05_1404,ACPT_experiment_5_30_19,3.1.0,59.954574822069624,
,,,C,U,y,n,,,,,0,4,4,8,b,0,0.8139739654779987,3539.8301755114653,None,001,6,2019_Jun_05_1404,ACPT_experiment_5_30_19,3.1.0,59.954574822069624,
,,,C,D,d,v,,,,,0,5,5,18,b,0,5.170637086335773,3543.929975622066,None,001,6,2019_Jun_05_1404,ACPT_experiment_5_30_19,3.1.0,59.954574822069624,
,,,C,U,y,n,,,,,0,6,6,17,b,0,1.7846597714587915,3552.3865007341146,None,001,6,2019_Jun_05_1404,ACPT_experiment_5_30_19,3.1.0,59.954574822069624,
,,,C,U,g,n,,,,,0,7,7,7,v,0,2.0515839620002225,3557.456999630527,None,001,6,2019_Jun_05_1404,ACPT_experiment_5_30_19,3.1.0,59.954574822069624,
,,,C,U,d,n,,,,,0,8,8,6,v,0,3.3692586886390927,3562.7777427288793,None,001,6,2019_Jun_05_1404,ACPT_experiment_5_30_19,3.1.0,59.954574822069624,
,,,C,G,y,b,,,,,0,9,9,14,b,1,2.5186163982953076,3569.4328157902364,None,001,6,2019_Jun_05_1404,ACPT_experiment_5_30_19,3.1.0,59.954574822069624,
,,,C,G,g,v,,,,,0,10,10,19,v,1,1.7680585674133908,3575.2205783450536,None,001,6,2019_Jun_05_1404,ACPT_experiment_5_30_19,3.1.0,59.954574822069624,
,,,C,G,d,b,,,,,0,11,11,12,b,1,2.251758616193001,3580.2578002748105,None,001,6,2019_Jun_05_1404,ACPT_experiment_5_30_19,3.1.0,59.954574822069624,
,,,C,G,g,v,,,,,0,12,12,13,v,1,2.568652439966172,3585.778678786005,None,001,6,2019_Jun_05_1404,ACPT_experiment_5_30_19,3.1.0,59.954574822069624,
,,,C,G,y,b,,,,,0,13,13,5,b,1,1.2843434258056732,3591.6165060588646,None,001,6,2019_Jun_05_1404,ACPT_experiment_5_30_19,3.1.0,59.954574822069624,
,,,C,G,g,v,,,,,0,14,14,4,v,1,2.1816992229005336,3596.2066503825126,None,001,6,2019_Jun_05_1404,ACPT_experiment_5_30_19,3.1.0,59.954574822069624,
,,,C,D,d,v,,,,,0,15,15,9,b,0,2.70207484110324,3601.6741902396498,None,001,6,2019_Jun_05_1404,ACPT_experiment_5_30_19,3.1.0,59.954574822069624,
,,,C,U,d,n,,,,,0,16,16,15,v,0,2.368496199022047,3607.662105111276,None,001,6,2019_Jun_05_1404,ACPT_experiment_5_30_19,3.1.0,59.954574822069624,
,,,C,G,d,b,,,,,0,17,17,3,b,1,1.4510790163822094,3613.316479676603,None,001,6,2019_Jun_05_1404,ACPT_experiment_5_30_19,3.1.0,59.954574822069624,
,,,C,D,y,b,,,,,0,18,18,11,b,1,1.4510962222047965,3618.05341955161,None,001,6,2019_Jun_05_1404,ACPT_experiment_5_30_19,3.1.0,59.954574822069624,
,,,C,D,g,b,,,,,0,19,19,1,b,1,2.3184755520351246,3622.7903524839166,None,001,6,2019_Jun_05_1404,ACPT_experiment_5_30_19,3.1.0,59.954574822069624,
,,,C,G,d,b,,,,,1,0,20,3,b,1,1.5678914596337563,3628.394648445801,None,001,6,2019_Jun_05_1404,ACPT_experiment_5_30_19,3.1.0,59.954574822069624,
,,,C,U,y,n,,,,,1,1,21,17,b,0,1.4845011760335183,3633.2483624282786,None,001,6,2019_Jun_05_1404,ACPT_experiment_5_30_19,3.1.0,59.954574822069624,
,,,C,G,g,v,,,,,1,2,22,13,v,1,2.018251453740959,3638.018680693739,None,001,6,2019_Jun_05_1404,ACPT_experiment_5_30_19,3.1.0,59.954574822069624,
,,,C,D,d,v,,,,,1,3,23,18,v,1,3.135752129899629,3643.3227407849236,None,001,6,2019_Jun_05_1404,ACPT_experiment_5_30_19,3.1.0,59.954574822069624,
,,,C,D,d,v,,,,,1,4,24,0,v,1,3.152436948205832,3649.7276451084754,None,001,6,2019_Jun_05_1404,ACPT_experiment_5_30_19,3.1.0,59.954574822069624,
,,,C,U,g,n,,,,,1,5,25,16,v,0,2.018229720070849,3656.165908503661,None,001,6,2019_Jun_05_1404,ACPT_experiment_5_30_19,3.1.0,59.954574822069624,
,,,C,G,y,b,,,,,1,6,26,14,b,1,1.2843307478306087,3661.469970104128,None,001,6,2019_Jun_05_1404,ACPT_experiment_5_30_19,3.1.0,59.954574822069624,
,,,C,G,y,b,,,,,1,7,27,5,b,1,0.980788340610161,3666.0601328410257,None,001,6,2019_Jun_05_1404,ACPT_experiment_5_30_19,3.1.0,59.954574822069624,
,,,C,D,d,v,,,,,1,8,28,9,v,1,4.119811689817652,3670.326763627011,None,001,6,2019_Jun_05_1404,ACPT_experiment_5_30_19,3.1.0,59.954574822069624,
,,,C,U,y,n,,,,,1,9,29,8,b,0,1.651263329984431,3677.7324340624573,None,001,6,2019_Jun_05_1404,ACPT_experiment_5_30_19,3.1.0,59.954574822069624,
,,,C,U,g,n,,,,,1,10,30,7,v,0,2.3184900411497438,3682.652858339934,None,001,6,2019_Jun_05_1404,ACPT_experiment_5_30_19,3.1.0,59.954574822069624,
,,,C,D,g,b,,,,,1,11,31,1,v,0,2.2017189522439367,3688.257140718273,None,001,6,2019_Jun_05_1404,ACPT_experiment_5_30_19,3.1.0,59.954574822069624,
,,,C,U,d,n,,,,,1,12,32,15,b,0,3.869649592856149,3693.744681589649,None,001,6,2019_Jun_05_1404,ACPT_experiment_5_30_19,3.1.0,59.954574822069624,
,,,C,G,g,v,,,,,1,13,33,4,b,0,0.23636363087553036,None,None,001,6,2019_Jun_05_1404,ACPT_experiment_5_30_19,3.1.0,59.954574822069624,
,,,C,D,g,b,,,,,1,14,34,10,b,1,5.503946774239921,3704.1696080573965,None,001,6,2019_Jun_05_1404,ACPT_experiment_5_30_19,3.1.0,59.954574822069624,
,,,C,U,d,n,,,,,1,15,35,6,b,0,1.4677819460812316,3712.959415086548,None,001,6,2019_Jun_05_1404,ACPT_experiment_5_30_19,3.1.0,59.954574822069624,
,,,C,D,y,b,,,,,1,16,36,11,b,1,3.2525105408303716,3717.7130298185966,None,001,6,2019_Jun_05_1404,ACPT_experiment_5_30_19,3.1.0,59.954574822069624,
,,,C,G,g,v,,,,,1,17,37,19,v,1,1.934806835964082,3724.251391860499,None,001,6,2019_Jun_05_1404,ACPT_experiment_5_30_19,3.1.0,59.954574822069624,
,,,C,D,y,b,,,,,1,18,38,2,v,0,1.834777012538325,3729.472030275003,None,001,6,2019_Jun_05_1404,ACPT_experiment_5_30_19,3.1.0,59.954574822069624,
,,,C,G,d,b,,,,,1,19,39,12,b,1,2.535297896180964,3734.592625584394,None,001,6,2019_Jun_05_1404,ACPT_experiment_5_30_19,3.1.0,59.954574822069624,
,,,C,U,d,n,,,,,2,0,40,15,b,0,7.589175666016672,3740.4137553609717,None,001,6,2019_Jun_05_1404,ACPT_experiment_5_30_19,3.1.0,59.954574822069624,
,,,C,U,y,n,,,,,2,1,41,8,b,0,2.5019062240407948,3751.2887565683977,None,001,6,2019_Jun_05_1404,ACPT_experiment_5_30_19,3.1.0,59.954574822069624,
,,,C,D,y,b,,,,,2,2,42,2,b,1,2.43521675714328,3757.0765031248184,None,001,6,2019_Jun_05_1404,ACPT_experiment_5_30_19,3.1.0,59.954574822069624,
,,,C,G,g,v,,,,,2,3,43,13,v,1,1.1175408230783432,3762.797544215946,None,001,6,2019_Jun_05_1404,ACPT_experiment_5_30_19,3.1.0,59.954574822069624,
,,,C,U,g,n,,,,,2,4,44,7,b,0,2.0345417455519055,3767.2179241205104,None,001,6,2019_Jun_05_1404,ACPT_experiment_5_30_19,3.1.0,59.954574822069624,
,,,C,D,y,b,,,,,2,5,45,11,b,1,1.7513553358576246,3772.5383339692444,None,001,6,2019_Jun_05_1404,ACPT_experiment_5_30_19,3.1.0,59.954574822069624,
,,,C,D,g,b,,,,,2,6,46,1,v,0,4.45342685653759,3777.558848441454,None,001,6,2019_Jun_05_1404,ACPT_experiment_5_30_19,3.1.0,59.954574822069624,
,,,C,U,g,n,,,,,2,7,47,16,v,0,1.1842565514944,3785.2981038579683,None,001,6,2019_Jun_05_1404,ACPT_experiment_5_30_19,3.1.0,59.954574822069624,
,,,C,G,d,b,,,,,2,8,48,3,b,1,0.23902962782267423,None,None,001,6,2019_Jun_05_1404,ACPT_experiment_5_30_19,3.1.0,59.954574822069624,
,,,C,D,d,v,,,,,2,9,49,18,b,0,3.1354599327705728,3793.037657508742,None,001,6,2019_Jun_05_1404,ACPT_experiment_5_30_19,3.1.0,59.954574822069624,
,,,C,G,y,b,,,,,2,10,50,14,b,1,1.3844088683035807,3799.458939360644,None,001,6,2019_Jun_05_1404,ACPT_experiment_5_30_19,3.1.0,59.954574822069624,
,,,C,G,g,v,,,,,2,11,51,4,v,1,1.1809207348878772,3804.1491971219793,None,001,6,2019_Jun_05_1404,ACPT_experiment_5_30_19,3.1.0,59.954574822069624,
,,,C,U,y,n,,,,,2,12,52,17,v,0,1.1341990780092601,3808.615948227981,None,001,6,2019_Jun_05_1404,ACPT_experiment_5_30_19,3.1.0,59.954574822069624,
,,,C,U,d,n,,,,,2,13,53,6,v,0,3.6025083674639973,3813.036270779804,None,001,6,2019_Jun_05_1404,ACPT_experiment_5_30_19,3.1.0,59.954574822069624,
,,,C,D,d,v,,,,,2,14,54,9,b,0,2.968957073585443,3819.92460619796,None,001,6,2019_Jun_05_1404,ACPT_experiment_5_30_19,3.1.0,59.954574822069624,
,,,C,D,d,v,,,,,2,15,55,0,b,0,1.9514976914015278,3826.1794150744736,None,001,6,2019_Jun_05_1404,ACPT_experiment_5_30_19,3.1.0,59.954574822069624,
,,,C,G,d,b,,,,,2,16,56,12,b,1,1.1675590552131325,3831.4167473629814,None,001,6,2019_Jun_05_1404,ACPT_experiment_5_30_19,3.1.0,59.954574822069624,
,,,C,G,g,v,,,,,2,17,57,19,v,1,0.8807159554116879,3835.8901556130822,None,001,6,2019_Jun_05_1404,ACPT_experiment_5_30_19,3.1.0,59.954574822069624,
,,,C,G,y,b,,,,,2,18,58,5,b,1,1.100828535826622,3840.0566862430696,None,001,6,2019_Jun_05_1404,ACPT_experiment_5_30_19,3.1.0,59.954574822069624,
,,,C,D,g,b,,,,,2,19,59,10,v,0,1.8845362517622561,3844.476980118521,None,001,6,2019_Jun_05_1404,ACPT_experiment_5_30_19,3.1.0,59.954574822069624,
,,,C,D,d,v,,,,,3,0,60,18,v,1,2.3851952045861253,3849.6306788270576,None,001,6,2019_Jun_05_1404,ACPT_experiment_5_30_19,3.1.0,59.954574822069624,
,,,C,U,g,n,,,,,3,1,61,16,v,0,1.6179112010513563,3855.301685385797,None,001,6,2019_Jun_05_1404,ACPT_experiment_5_30_19,3.1.0,59.954574822069624,
,,,C,D,d,v,,,,,3,2,62,9,b,0,3.7862405941496036,3860.205436013658,None,001,6,2019_Jun_05_1404,ACPT_experiment_5_30_19,3.1.0,59.954574822069624,
,,,C,U,d,n,,,,,3,3,63,15,b,0,1.5011606383905018,3867.2775157327624,None,001,6,2019_Jun_05_1404,ACPT_experiment_5_30_19,3.1.0,59.954574822069624,
,,,C,D,y,b,,,,,3,4,64,2,b,1,0.4837060859108533,3872.064510968259,None,001,6,2019_Jun_05_1404,ACPT_experiment_5_30_19,3.1.0,59.954574822069624,
,,,C,D,g,b,,,,,3,5,65,10,n,0,0.23326718650423572,3875.850991840214,None,001,6,2019_Jun_05_1404,ACPT_experiment_5_30_19,3.1.0,59.954574822069624,
,,,C,G,d,b,,,,,3,6,66,12,v,0,0.2335195385694533,3879.370103886946,None,001,6,2019_Jun_05_1404,ACPT_experiment_5_30_19,3.1.0,59.954574822069624,
,,,C,U,y,n,,,,,3,7,67,17,b,0,0.2333951736754898,3882.906267809536,None,001,6,2019_Jun_05_1404,ACPT_experiment_5_30_19,3.1.0,59.954574822069624,
,,,C,U,g,n,,,,,3,8,68,7,b,0,0.3669449582712332,3886.4255054285877,None,001,6,2019_Jun_05_1404,ACPT_experiment_5_30_19,3.1.0,59.954574822069624,
,,,C,U,y,n,,,,,3,9,69,8,v,0,0.3002316447082194,3890.0949764431152,None,001,6,2019_Jun_05_1404,ACPT_experiment_5_30_19,3.1.0,59.954574822069624,
,,,C,D,g,b,,,,,3,10,70,1,b,1,0.5003909042179657,3893.6810532499085,None,001,6,2019_Jun_05_1404,ACPT_experiment_5_30_19,3.1.0,59.954574822069624,
,,,C,G,d,b,,,,,3,11,71,3,b,1,0.33331331018325727,3897.484240371984,None,001,6,2019_Jun_05_1404,ACPT_experiment_5_30_19,3.1.0,59.954574822069624,
,,,C,G,y,b,,,,,3,12,72,14,b,1,1.1343346115945678,3901.1034078999473,None,001,6,2019_Jun_05_1404,ACPT_experiment_5_30_19,3.1.0,59.954574822069624,
,,,C,G,g,v,,,,,3,13,73,19,v,1,0.3000309101098537,3905.540369991596,None,001,6,2019_Jun_05_1404,ACPT_experiment_5_30_19,3.1.0,59.954574822069624,
,,,C,D,d,v,,,,,3,14,74,0,v,1,0.8506691555739962,3909.1262013890228,None,001,6,2019_Jun_05_1404,ACPT_experiment_5_30_19,3.1.0,59.954574822069624,
,,,C,G,y,b,,,,,3,15,75,5,b,1,0.33357501980117377,3913.2960720616074,None,001,6,2019_Jun_05_1404,ACPT_experiment_5_30_19,3.1.0,59.954574822069624,
,,,C,G,g,v,,,,,3,16,76,4,v,1,2.3017804706069,3916.915495563916,None,001,6,2019_Jun_05_1404,ACPT_experiment_5_30_19,3.1.0,59.954574822069624,
,,,C,U,d,n,,,,,3,17,77,6,b,0,2.8855504897319406,3922.503104292641,None,001,6,2019_Jun_05_1404,ACPT_experiment_5_30_19,3.1.0,59.954574822069624,
,,,C,G,g,v,,,,,3,18,78,13,v,1,1.9848833264104542,3928.674496020323,None,001,6,2019_Jun_05_1404,ACPT_experiment_5_30_19,3.1.0,59.954574822069624,
,,,C,D,y,b,,,,,3,19,79,11,b,1,2.935573249715162,3933.9452079067096,None,001,6,2019_Jun_05_1404,ACPT_experiment_5_30_19,3.1.0,59.954574822069624,
,,,C,D,g,b,,,,,4,0,80,1,v,0,3.2191378856523443,3940.1499405946333,None,001,6,2019_Jun_05_1404,ACPT_experiment_5_30_19,3.1.0,59.954574822069624,
,,,C,G,g,v,,,,,4,1,81,19,v,1,1.117535993373167,3946.6549163978134,None,001,6,2019_Jun_05_1404,ACPT_experiment_5_30_19,3.1.0,59.954574822069624,
,,,C,U,g,n,,,,,4,2,82,16,v,0,2.2179591358699327,3951.075396216892,None,001,6,2019_Jun_05_1404,ACPT_experiment_5_30_19,3.1.0,59.954574822069624,
,,,C,D,y,b,,,,,4,3,83,2,b,1,1.3343622616539506,3956.5791781774624,None,001,6,2019_Jun_05_1404,ACPT_experiment_5_30_19,3.1.0,59.954574822069624,
,,,C,D,g,b,,,,,4,4,84,10,b,1,5.334103570600746,3961.2193842005872,None,001,6,2019_Jun_05_1404,ACPT_experiment_5_30_19,3.1.0,59.954574822069624,
,,,C,G,y,b,,,,,4,5,85,14,b,1,0.9006741060211425,3969.8393441019643,None,001,6,2019_Jun_05_1404,ACPT_experiment_5_30_19,3.1.0,59.954574822069624,
,,,C,U,d,n,,,,,4,6,86,6,b,0,3.119039238935329,3974.0592357233927,None,001,6,2019_Jun_05_1404,ACPT_experiment_5_30_19,3.1.0,59.954574822069624,
,,,C,U,g,n,,,,,4,7,87,7,b,0,2.201704463130227,3980.4474374191022,None,001,6,2019_Jun_05_1404,ACPT_experiment_5_30_19,3.1.0,59.954574822069624,
,,,C,U,y,n,,,,,4,8,88,8,b,0,0.16680471572362876,3985.918289849893,None,001,6,2019_Jun_05_1404,ACPT_experiment_5_30_19,3.1.0,59.954574822069624,
,,,C,D,d,v,,,,,4,9,89,9,b,0,0.016435484805697342,3989.388000055542,None,001,6,2019_Jun_05_1404,ACPT_experiment_5_30_19,3.1.0,59.954574822069624,
,,,C,D,d,v,,,,,4,10,90,0,v,1,0.26690668286300934,3992.673451898557,None,001,6,2019_Jun_05_1404,ACPT_experiment_5_30_19,3.1.0,59.954574822069624,
,,,C,D,d,v,,,,,4,11,91,18,v,1,0.2168410592512373,3996.2261762745593,None,001,6,2019_Jun_05_1404,ACPT_experiment_5_30_19,3.1.0,59.954574822069624,
,,,C,G,g,v,,,,,4,12,92,4,b,0,0.5504378127234304,3999.728852836485,None,001,6,2019_Jun_05_1404,ACPT_experiment_5_30_19,3.1.0,59.954574822069624,
,,,C,D,y,b,,,,,4,13,93,11,b,1,0.6834997971527628,4003.5820424941558,None,001,6,2019_Jun_05_1404,ACPT_experiment_5_30_19,3.1.0,59.954574822069624,
,,,C,G,d,b,,,,,4,14,94,3,b,1,0.9340630614524343,4007.5515054792995,None,001,6,2019_Jun_05_1404,ACPT_experiment_5_30_19,3.1.0,59.954574822069624,
,,,C,G,g,v,,,,,4,15,95,13,b,0,0.5501516527256172,4011.771679034735,None,001,6,2019_Jun_05_1404,ACPT_experiment_5_30_19,3.1.0,59.954574822069624,
,,,C,G,d,b,,,,,4,16,96,12,b,1,1.100899773969104,4015.5909855978207,None,001,6,2019_Jun_05_1404,ACPT_experiment_5_30_19,3.1.0,59.954574822069624,
,,,C,G,y,b,,,,,4,17,97,5,b,1,0.9004392616343466,4019.994615483067,None,001,6,2019_Jun_05_1404,ACPT_experiment_5_30_19,3.1.0,59.954574822069624,
,,,C,U,y,n,,,,,4,18,98,17,b,0,0.8339779982807158,4024.180894775225,None,001,6,2019_Jun_05_1404,ACPT_experiment_5_30_19,3.1.0,59.954574822069624,
,,,C,U,d,n,,,,,4,19,99,15,v,0,2.9022265541989327,4028.2840433804067,None,001,6,2019_Jun_05_1404,ACPT_experiment_5_30_19,3.1.0,59.954574822069624,
,,,C,D,y,b,,,,,5,0,100,11,b,1,1.1675841093056079,4034.4721012112896,None,001,6,2019_Jun_05_1404,ACPT_experiment_5_30_19,3.1.0,59.954574822069624,
,,,C,U,d,n,,,,,5,1,101,15,b,0,4.886843944998873,4038.9591105133013,None,001,6,2019_Jun_05_1404,ACPT_experiment_5_30_19,3.1.0,59.954574822069624,
,,,C,G,g,v,,,,,5,2,102,4,v,1,0.9173812617118529,4047.13178090528,None,001,6,2019_Jun_05_1404,ACPT_experiment_5_30_19,3.1.0,59.954574822069624,
,,,C,D,g,b,,,,,5,3,103,10,v,0,3.1324211429982824,4051.354998985762,None,001,6,2019_Jun_05_1404,ACPT_experiment_5_30_19,3.1.0,59.954574822069624,
,,,C,D,d,v,,,,,5,4,104,0,b,0,1.1175299562428336,4057.756580774395,None,001,6,2019_Jun_05_1404,ACPT_experiment_5_30_19,3.1.0,59.954574822069624,
,,,C,G,y,b,,,,,5,5,105,5,b,1,0.717241321020083,4062.1766467481593,None,001,6,2019_Jun_05_1404,ACPT_experiment_5_30_19,3.1.0,59.954574822069624,
,,,C,U,g,n,,,,,5,6,106,7,b,0,1.8681306507542104,4066.179691575063,None,001,6,2019_Jun_05_1404,ACPT_experiment_5_30_19,3.1.0,59.954574822069624,
,,,C,G,d,b,,,,,5,7,107,12,v,0,0.20016137250513566,4071.3336504839363,None,001,6,2019_Jun_05_1404,ACPT_experiment_5_30_19,3.1.0,59.954574822069624,
,,,C,G,y,b,,,,,5,8,108,14,b,1,5.856016832694877e-05,4074.8396553160555,None,001,6,2019_Jun_05_1404,ACPT_experiment_5_30_19,3.1.0,59.954574822069624,
,,,C,U,y,n,,,,,5,9,109,8,b,0,0.8839968341289932,4078.1388488761277,None,001,6,2019_Jun_05_1404,ACPT_experiment_5_30_19,3.1.0,59.954574822069624,
,,,C,D,d,v,,,,,5,10,110,9,b,0,11.07514869453098,4082.3253699553734,None,001,6,2019_Jun_05_1404,ACPT_experiment_5_30_19,3.1.0,59.954574822069624,
,,,C,D,d,v,,,,,5,11,111,18,v,1,2.885553810154306,4096.686352643297,None,001,6,2019_Jun_05_1404,ACPT_experiment_5_30_19,3.1.0,59.954574822069624,
,,,C,U,d,n,,,,,5,12,112,6,v,0,1.8180743846951373,4102.857744069122,None,001,6,2019_Jun_05_1404,ACPT_experiment_5_30_19,3.1.0,59.954574822069624,
,,,C,U,g,n,,,,,5,13,113,16,v,0,2.084943637347351,4107.944968232618,None,001,6,2019_Jun_05_1404,ACPT_experiment_5_30_19,3.1.0,59.954574822069624,
,,,C,G,g,v,,,,,5,14,114,19,v,1,1.4344373635603915,4113.31574133551,None,001,6,2019_Jun_05_1404,ACPT_experiment_5_30_19,3.1.0,59.954574822069624,
,,,C,G,d,b,,,,,5,15,115,3,b,1,0.8840125306687696,4118.019346287406,None,001,6,2019_Jun_05_1404,ACPT_experiment_5_30_19,3.1.0,59.954574822069624,
,,,C,G,g,v,,,,,5,16,116,13,v,1,0.7672507993156614,4122.172517350714,None,001,6,2019_Jun_05_1404,ACPT_experiment_5_30_19,3.1.0,59.954574822069624,
,,,C,D,g,b,,,,,5,17,117,1,b,1,1.334057990263318,4126.24262172063,None,001,6,2019_Jun_05_1404,ACPT_experiment_5_30_19,3.1.0,59.954574822069624,
,,,C,D,y,b,,,,,5,18,118,2,b,1,0.9841202330808301,4130.845791153913,None,001,6,2019_Jun_05_1404,ACPT_experiment_5_30_19,3.1.0,59.954574822069624,
,,,C,U,y,n,,,,,5,19,119,17,b,0,1.0503997787991466,4135.149489922821,None,001,6,2019_Jun_05_1404,ACPT_experiment_5_30_19,3.1.0,59.954574822069624,
,,,C,G,y,b,,,,,6,0,120,14,b,1,0.9173740171554527,4139.485762030794,None,001,6,2019_Jun_05_1404,ACPT_experiment_5_30_19,3.1.0,59.954574822069624,
,,,C,G,g,v,,,,,6,1,121,13,v,1,5.217348480091459,4143.708981922416,None,001,6,2019_Jun_05_1404,ACPT_experiment_5_30_19,3.1.0,59.954574822069624,
,,,C,D,d,v,,,,,6,2,122,0,b,0,4.1031606794431355,4152.212168018179,None,001,6,2019_Jun_05_1404,ACPT_experiment_5_30_19,3.1.0,59.954574822069624,
,,,C,G,y,b,,,,,6,3,123,5,b,1,1.5345824961841572,4159.601143070339,None,001,6,2019_Jun_05_1404,ACPT_experiment_5_30_19,3.1.0,59.954574822069624,
,,,C,U,d,n,,,,,6,4,124,6,b,0,2.702093254351894,4164.4214937551915,None,001,6,2019_Jun_05_1404,ACPT_experiment_5_30_19,3.1.0,59.954574822069624,
,,,C,D,d,v,,,,,6,5,125,9,b,0,0.9507608595913553,4170.409383270869,None,001,6,2019_Jun_05_1404,ACPT_experiment_5_30_19,3.1.0,59.954574822069624,
,,,C,G,g,v,,,,,6,6,126,4,b,0,0.7503410978879401,4174.662904729246,None,001,6,2019_Jun_05_1404,ACPT_experiment_5_30_19,3.1.0,59.954574822069624,
,,,C,U,g,n,,,,,6,7,127,16,b,0,0.9007024805359833,4178.699080424241,None,001,6,2019_Jun_05_1404,ACPT_experiment_5_30_19,3.1.0,59.954574822069624,
,,,C,G,d,b,,,,,6,8,128,12,v,0,0.16639479454443062,4182.902682659428,None,001,6,2019_Jun_05_1404,ACPT_experiment_5_30_19,3.1.0,59.954574822069624,
,,,C,D,g,b,,,,,6,9,129,1,b,1,0.43367577951448766,4186.354933181036,None,001,6,2019_Jun_05_1404,ACPT_experiment_5_30_19,3.1.0,59.954574822069624,
,,,C,U,y,n,,,,,6,10,130,17,b,0,0.683606352510651,4190.091383746595,None,001,6,2019_Jun_05_1404,ACPT_experiment_5_30_19,3.1.0,59.954574822069624,
,,,C,U,y,n,,,,,6,11,131,8,b,0,0.9842675390718796,4194.043998307188,None,001,6,2019_Jun_05_1404,ACPT_experiment_5_30_19,3.1.0,59.954574822069624,
,,,C,D,y,b,,,,,6,12,132,11,v,0,1.4510983352010953,4198.33077862083,None,001,6,2019_Jun_05_1404,ACPT_experiment_5_30_19,3.1.0,59.954574822069624,
,,,C,G,g,v,,,,,6,13,133,19,v,1,1.1341909278835374,4203.067740229508,None,001,6,2019_Jun_05_1404,ACPT_experiment_5_30_19,3.1.0,59.954574822069624,
,,,C,U,g,n,,,,,6,14,134,7,b,0,2.651754752429042,4207.504729790101,None,001,6,2019_Jun_05_1404,ACPT_experiment_5_30_19,3.1.0,59.954574822069624,
,,,C,D,d,v,,,,,6,15,135,18,v,1,1.8681209913447674,4213.442324271197,None,001,6,2019_Jun_05_1404,ACPT_experiment_5_30_19,3.1.0,59.954574822069624,
,,,C,D,g,b,,,,,6,16,136,10,b,1,1.634597226783626,4218.579582363368,None,001,6,2019_Jun_05_1404,ACPT_experiment_5_30_19,3.1.0,59.954574822069624,
,,,C,D,y,b,,,,,6,17,137,2,v,0,2.1349730381734844,4223.500018715105,None,001,6,2019_Jun_05_1404,ACPT_experiment_5_30_19,3.1.0,59.954574822069624,
,,,C,G,d,b,,,,,6,18,138,3,b,1,1.2509867690241663,4228.920825142959,None,001,6,2019_Jun_05_1404,ACPT_experiment_5_30_19,3.1.0,59.954574822069624,
,,,C,U,d,n,,,,,6,19,139,15,v,0,4.550163726986284,4233.477644806619,None,001,6,2019_Jun_05_1404,ACPT_experiment_5_30_19,3.1.0,59.954574822069624,
,,,C,D,d,v,,,,,7,0,140,9,b,0,1.551187926221246,4241.313646149277,None,001,6,2019_Jun_05_1404,ACPT_experiment_5_30_19,3.1.0,59.954574822069624,
,,,C,D,d,v,,,,,7,1,141,18,b,0,1.8349140554064434,4246.133838963159,None,001,6,2019_Jun_05_1404,ACPT_experiment_5_30_19,3.1.0,59.954574822069624,
,,,C,U,d,n,,,,,7,2,142,6,b,0,0.7505825831185575,4251.254573428414,None,001,6,2019_Jun_05_1404,ACPT_experiment_5_30_19,3.1.0,59.954574822069624,
,,,C,G,y,b,,,,,7,3,143,14,b,1,0.8339798094193611,4255.307693236481,None,001,6,2019_Jun_05_1404,ACPT_experiment_5_30_19,3.1.0,59.954574822069624,
,,,C,U,g,n,,,,,7,4,144,7,v,0,0.9006786338695747,4259.427514585708,None,001,6,2019_Jun_05_1404,ACPT_experiment_5_30_19,3.1.0,59.954574822069624,
,,,C,D,g,b,,,,,7,5,145,1,b,1,1.4006662577521638,4263.631092370516,None,001,6,2019_Jun_05_1404,ACPT_experiment_5_30_19,3.1.0,59.954574822069624,
,,,C,G,d,b,,,,,7,6,146,3,b,1,1.1008560047712308,4268.317622505458,None,001,6,2019_Jun_05_1404,ACPT_experiment_5_30_19,3.1.0,59.954574822069624,
,,,C,U,g,n,,,,,7,7,147,16,b,0,2.6683493156306213,4272.7213616627705,None,001,6,2019_Jun_05_1404,ACPT_experiment_5_30_19,3.1.0,59.954574822069624,
,,,C,U,y,n,,,,,7,8,148,8,b,0,1.65127630981533,4278.658865888762,None,001,6,2019_Jun_05_1404,ACPT_experiment_5_30_19,3.1.0,59.954574822069624,
,,,C,D,y,b,,,,,7,9,149,11,v,0,1.5178379102835606,4283.5959770975405,None,001,6,2019_Jun_05_1404,ACPT_experiment_5_30_19,3.1.0,59.954574822069624,
,,,C,D,y,b,,,,,7,10,150,2,b,1,2.4352390945277875,4288.38294244924,None,001,6,2019_Jun_05_1404,ACPT_experiment_5_30_19,3.1.0,59.954574822069624,
,,,C,G,d,b,,,,,7,11,151,12,b,1,1.768039550451249,4294.10401282045,None,001,6,2019_Jun_05_1404,ACPT_experiment_5_30_19,3.1.0,59.954574822069624,
,,,C,U,d,n,,,,,7,12,152,15,v,0,3.0857103529542655,4299.157873082607,None,001,6,2019_Jun_05_1404,ACPT_experiment_5_30_19,3.1.0,59.954574822069624,
,,,C,D,g,b,,,,,7,13,153,10,v,0,1.5845623925388281,4305.529411089968,None,001,6,2019_Jun_05_1404,ACPT_experiment_5_30_19,3.1.0,59.954574822069624,
,,,C,G,y,b,,,,,7,14,154,5,b,1,3.5193994141573057,4310.399811098178,None,001,6,2019_Jun_05_1404,ACPT_experiment_5_30_19,3.1.0,59.954574822069624,
,,,C,G,g,v,,,,,7,15,155,13,v,1,1.584551525704228,4317.205010094082,None,001,6,2019_Jun_05_1404,ACPT_experiment_5_30_19,3.1.0,59.954574822069624,
,,,C,D,d,v,,,,,7,16,156,0,v,1,1.6012330235880654,4322.075399839171,None,001,6,2019_Jun_05_1404,ACPT_experiment_5_30_19,3.1.0,59.954574822069624,
,,,C,G,g,v,,,,,7,17,157,19,v,1,1.9181682017078856,4326.9624750062785,None,001,6,2019_Jun_05_1404,ACPT_experiment_5_30_19,3.1.0,59.954574822069624,
,,,C,G,g,v,,,,,7,18,158,4,v,1,1.1675669034830207,4332.149775479106,None,001,6,2019_Jun_05_1404,ACPT_experiment_5_30_19,3.1.0,59.954574822069624,
,,,C,U,y,n,,,,,7,19,159,17,b,0,3.052075988157412,4336.620135280026,None,001,6,2019_Jun_05_1404,ACPT_experiment_5_30_19,3.1.0,59.954574822069624,
,,,C,U,g,n,,,,,8,0,160,7,b,0,4.470095072735603,4342.941362858122,None,001,6,2019_Jun_05_1404,ACPT_experiment_5_30_19,3.1.0,59.954574822069624,
,,,C,U,g,n,,,,,8,1,161,16,b,0,1.534518502598985,4350.680614048645,None,001,6,2019_Jun_05_1404,ACPT_experiment_5_30_19,3.1.0,59.954574822069624,
,,,C,U,d,n,,,,,8,2,162,6,b,0,0.9173815635685969,4355.484283537468,None,001,6,2019_Jun_05_1404,ACPT_experiment_5_30_19,3.1.0,59.954574822069624,
,,,C,U,y,n,,,,,8,3,163,8,b,0,0.8504089552388905,4359.704423586828,None,001,6,2019_Jun_05_1404,ACPT_experiment_5_30_19,3.1.0,59.954574822069624,
,,,C,U,d,n,,,,,8,4,164,15,b,0,2.6353240973276115,4363.840677704152,None,001,6,2019_Jun_05_1404,ACPT_experiment_5_30_19,3.1.0,59.954574822069624,
,,,C,D,d,v,,,,,8,5,165,0,v,1,1.217605058150184,4369.761874734366,None,001,6,2019_Jun_05_1404,ACPT_experiment_5_30_19,3.1.0,59.954574822069624,
,,,C,G,y,b,,,,,8,6,166,5,b,1,0.8170918416626591,4374.28217700143,None,001,6,2019_Jun_05_1404,ACPT_experiment_5_30_19,3.1.0,59.954574822069624,
,,,C,D,y,b,,,,,8,7,167,2,v,0,2.0182146272427417,4378.385138153701,None,001,6,2019_Jun_05_1404,ACPT_experiment_5_30_19,3.1.0,59.954574822069624,
,,,C,G,d,b,,,,,8,8,168,3,b,1,0.200134205417271,4383.689216658134,None,001,6,2019_Jun_05_1404,ACPT_experiment_5_30_19,3.1.0,59.954574822069624,
,,,C,D,y,b,,,,,8,9,169,11,v,0,0.5833546645280876,4387.192274163012,None,001,6,2019_Jun_05_1404,ACPT_experiment_5_30_19,3.1.0,59.954574822069624,
,,,C,G,d,b,,,,,8,10,170,12,b,1,1.1342434509206214,4391.061492704731,None,001,6,2019_Jun_05_1404,ACPT_experiment_5_30_19,3.1.0,59.954574822069624,
,,,C,D,d,v,,,,,8,11,171,9,b,0,1.1175012798721582,4395.481569243475,None,001,6,2019_Jun_05_1404,ACPT_experiment_5_30_19,3.1.0,59.954574822069624,
,,,C,G,g,v,,,,,8,12,172,4,v,1,1.1175338803777777,4399.884908440875,None,001,6,2019_Jun_05_1404,ACPT_experiment_5_30_19,3.1.0,59.954574822069624,
,,,C,D,g,b,,,,,8,13,173,10,b,1,11.208325384443924,4404.305231294554,None,001,6,2019_Jun_05_1404,ACPT_experiment_5_30_19,3.1.0,59.954574822069624,
,,,C,G,y,b,,,,,8,14,174,14,b,1,1.71799445308352,4418.799373164712,None,001,6,2019_Jun_05_1404,ACPT_experiment_5_30_19,3.1.0,59.954574822069624,
,,,C,D,g,b,,,,,8,15,175,1,b,1,2.0515586060500937,4423.803226665282,None,001,6,2019_Jun_05_1404,ACPT_experiment_5_30_19,3.1.0,59.954574822069624,
,,,C,D,d,v,,,,,8,16,176,18,b,0,13.793899298244469,4429.140615944304,None,001,6,2019_Jun_05_1404,ACPT_experiment_5_30_19,3.1.0,59.954574822069624,
,,,C,G,g,v,,,,,8,17,177,13,v,1,1.40110576087136,4446.220342896953,None,001,6,2019_Jun_05_1404,ACPT_experiment_5_30_19,3.1.0,59.954574822069624,
,,,C,G,g,v,,,,,8,18,178,19,v,1,0.8506558738863532,4450.907263332399,None,001,6,2019_Jun_05_1404,ACPT_experiment_5_30_19,3.1.0,59.954574822069624,
,,,C,U,y,n,,,,,8,19,179,17,b,0,1.234285952321443,4455.043764670228,None,001,6,2019_Jun_05_1404,ACPT_experiment_5_30_19,3.1.0,59.954574822069624,
,,,C,D,d,v,,,,,9,0,180,9,n,0,0.49998339788999147,4459.58094252893,None,001,6,2019_Jun_05_1404,ACPT_experiment_5_30_19,3.1.0,59.954574822069624,
,,,C,D,y,b,,,,,9,1,181,11,n,0,0.08341443212339072,4463.366789200298,None,001,6,2019_Jun_05_1404,ACPT_experiment_5_30_19,3.1.0,59.954574822069624,
,,,C,G,d,b,,,,,9,2,182,3,n,0,0.00018232134971185587,4466.736033097965,None,001,6,2019_Jun_05_1404,ACPT_experiment_5_30_19,3.1.0,59.954574822069624,
,,,C,D,d,v,,,,,9,3,183,18,n,0,6.188058978295885e-05,4470.021880373046,None,001,6,2019_Jun_05_1404,ACPT_experiment_5_30_19,3.1.0,59.954574822069624,
,,,C,U,g,n,,,,,9,4,184,16,b,0,0.23934054005803773,None,None,001,6,2019_Jun_05_1404,ACPT_experiment_5_30_19,3.1.0,59.954574822069624,
,,,C,G,y,b,,,,,9,5,185,5,v,0,0.23452381527386024,None,None,001,6,2019_Jun_05_1404,ACPT_experiment_5_30_19,3.1.0,59.954574822069624,
,,,C,U,y,n,,,,,9,6,186,8,b,0,0.24979685055041045,4479.829758949442,None,001,6,2019_Jun_05_1404,ACPT_experiment_5_30_19,3.1.0,59.954574822069624,
,,,C,U,g,n,,,,,9,7,187,7,b,0,0.18354688677209197,4483.348716747483,None,001,6,2019_Jun_05_1404,ACPT_experiment_5_30_19,3.1.0,59.954574822069624,
,,,C,D,d,v,,,,,9,8,188,0,v,1,0.0333527326465628,4486.834750449162,None,001,6,2019_Jun_05_1404,ACPT_experiment_5_30_19,3.1.0,59.954574822069624,
,,,C,U,d,n,,,,,9,9,189,15,b,0,0.8339819224156599,4490.15394260862,None,001,6,2019_Jun_05_1404,ACPT_experiment_5_30_19,3.1.0,59.954574822069624,
,,,C,U,d,n,,,,,9,10,190,6,b,0,2.6349603601993294,4494.29071320248,None,001,6,2019_Jun_05_1404,ACPT_experiment_5_30_19,3.1.0,59.954574822069624,
,,,C,D,g,b,,,,,9,11,191,10,b,1,3.5527334316984707,4500.211633430249,None,001,6,2019_Jun_05_1404,ACPT_experiment_5_30_19,3.1.0,59.954574822069624,
,,,C,D,g,b,,,,,9,12,192,1,b,1,1.3343897305985593,4507.03350064235,None,001,6,2019_Jun_05_1404,ACPT_experiment_5_30_19,3.1.0,59.954574822069624,
,,,C,U,y,n,,,,,9,13,193,17,b,0,2.2848565819213036,4511.670642217897,None,001,6,2019_Jun_05_1404,ACPT_experiment_5_30_19,3.1.0,59.954574822069624,
,,,C,G,y,b,,,,,9,14,194,14,b,1,0.934060646600301,4517.241325246798,None,001,6,2019_Jun_05_1404,ACPT_experiment_5_30_19,3.1.0,59.954574822069624,
,,,C,G,g,v,,,,,9,15,195,4,v,1,1.6846236090450475,4521.461228942488,None,001,6,2019_Jun_05_1404,ACPT_experiment_5_30_19,3.1.0,59.954574822069624,
,,,C,D,y,b,,,,,9,16,196,2,b,1,2.4185452205238107,4526.431688356065,None,001,6,2019_Jun_05_1404,ACPT_experiment_5_30_19,3.1.0,59.954574822069624,
,,,C,G,g,v,,,,,9,17,197,19,v,1,1.2509713743402244,4532.136047949307,None,001,6,2019_Jun_05_1404,ACPT_experiment_5_30_19,3.1.0,59.954574822069624,
,,,C,G,g,v,,,,,9,18,198,13,v,1,1.133939783243477,4536.673126195352,None,001,6,2019_Jun_05_1404,ACPT_experiment_5_30_19,3.1.0,59.954574822069624,
,,,C,G,d,b,,,,,9,19,199,12,b,1,1.4344551730964668,4541.0762350762125,None,001,6,2019_Jun_05_1404,ACPT_experiment_5_30_19,3.1.0,59.954574822069624,
,,,C,D,d,v,,,,,10,0,200,0,v,1,4.870419628885429,4545.796500697892,None,001,6,2019_Jun_05_1404,ACPT_experiment_5_30_19,3.1.0,59.954574822069624,
,,,C,U,g,n,,,,,10,1,201,16,v,0,5.153970983134059,4553.9527500941795,None,001,6,2019_Jun_05_1404,ACPT_experiment_5_30_19,3.1.0,59.954574822069624,
,,,C,G,g,v,,,,,10,2,202,19,v,1,2.118298784846047,4562.392528809188,None,001,6,2019_Jun_05_1404,ACPT_experiment_5_30_19,3.1.0,59.954574822069624,
,,,C,D,d,v,,,,,10,3,203,9,b,0,2.6687281455870107,4567.796654946584,None,001,6,2019_Jun_05_1404,ACPT_experiment_5_30_19,3.1.0,59.954574822069624,
,,,C,D,g,b,,,,,10,4,204,1,v,0,0.3335943386200597,4573.734533474682,None,001,6,2019_Jun_05_1404,ACPT_experiment_5_30_19,3.1.0,59.954574822069624,
,,,C,D,y,b,,,,,10,5,205,2,b,1,0.17086861030020373,None,None,001,6,2019_Jun_05_1404,ACPT_experiment_5_30_19,3.1.0,59.954574822069624,
,,,C,G,d,b,,,,,10,6,206,12,b,1,0.22504612367902155,None,None,001,6,2019_Jun_05_1404,ACPT_experiment_5_30_19,3.1.0,59.954574822069624,
,,,C,U,g,n,,,,,10,7,207,7,b,0,0.2357605215111107,None,None,001,6,2019_Jun_05_1404,ACPT_experiment_5_30_19,3.1.0,59.954574822069624,
,,,C,U,d,n,,,,,10,8,208,6,b,0,47.73613452176323,4587.128505761838,None,001,6,2019_Jun_05_1404,ACPT_experiment_5_30_19,3.1.0,59.954574822069624,
,,,C,U,y,n,,,,,10,9,209,17,b,0,0.9340597410309783,4638.133780402991,None,001,6,2019_Jun_05_1404,ACPT_experiment_5_30_19,3.1.0,59.954574822069624,
,,,C,D,y,b,,,,,10,10,210,11,b,1,1.8678644132878617,4642.370591988969,None,001,6,2019_Jun_05_1404,ACPT_experiment_5_30_19,3.1.0,59.954574822069624,
,,,C,U,d,n,,,,,10,11,211,15,v,0,0.9007015749666607,4647.524294923497,None,001,6,2019_Jun_05_1404,ACPT_experiment_5_30_19,3.1.0,59.954574822069624,
,,,C,G,y,b,,,,,10,12,212,14,b,1,1.183989106601075,4651.727771284508,None,001,6,2019_Jun_05_1404,ACPT_experiment_5_30_19,3.1.0,59.954574822069624,
,,,C,G,d,b,,,,,10,13,213,3,b,1,3.9863953258127367,4656.19759196965,None,001,6,2019_Jun_05_1404,ACPT_experiment_5_30_19,3.1.0,59.954574822069624,
,,,C,G,g,v,,,,,10,14,214,4,v,1,7.305604691092412,4663.469821288855,None,001,6,2019_Jun_05_1404,ACPT_experiment_5_30_19,3.1.0,59.954574822069624,
,,,C,D,d,v,,,,,10,15,215,18,v,1,3.9864339634486896,4674.0612548417785,None,001,6,2019_Jun_05_1404,ACPT_experiment_5_30_19,3.1.0,59.954574822069624,
,,,C,U,y,n,,,,,10,16,216,8,v,0,2.0515736988772915,4681.33348446284,None,001,6,2019_Jun_05_1404,ACPT_experiment_5_30_19,3.1.0,59.954574822069624,
,,,C,D,g,b,,,,,10,17,217,10,b,1,2.7854838398079664,4686.670895777389,None,001,6,2019_Jun_05_1404,ACPT_experiment_5_30_19,3.1.0,59.954574822069624,
,,,C,G,g,v,,,,,10,18,218,13,v,1,1.0841772235962708,4692.742206969747,None,001,6,2019_Jun_05_1404,ACPT_experiment_5_30_19,3.1.0,59.954574822069624,
,,,C,G,y,b,,,,,10,19,219,5,b,1,1.164237124007741,4697.132229765953,None,001,6,2019_Jun_05_1404,ACPT_experiment_5_30_19,3.1.0,59.954574822069624,
,,,C,D,d,v,,,,,11,0,220,0,v,1,20.24885324701063,4701.582296959218,None,001,6,2019_Jun_05_1404,ACPT_experiment_5_30_19,3.1.0,59.954574822069624,
,,,C,D,y,b,,,,,11,1,221,2,b,1,1.3510413446865641,4725.100284288488,None,001,6,2019_Jun_05_1404,ACPT_experiment_5_30_19,3.1.0,59.954574822069624,
,,,C,G,d,b,,,,,11,2,222,3,b,1,1.1006057657014026,4729.754091967236,None,001,6,2019_Jun_05_1404,ACPT_experiment_5_30_19,3.1.0,59.954574822069624,
,,,C,D,g,b,,,,,11,3,223,10,b,1,3.802961937098189,4734.140527198481,None,001,6,2019_Jun_05_1404,ACPT_experiment_5_30_19,3.1.0,59.954574822069624,
,,,C,G,y,b,,,,,11,4,224,5,b,1,1.2009262769743145,4741.229289622896,None,001,6,2019_Jun_05_1404,ACPT_experiment_5_30_19,3.1.0,59.954574822069624,
,,,C,U,g,n,,,,,11,5,225,7,b,0,2.5183456329805267,4745.749668561521,None,001,6,2019_Jun_05_1404,ACPT_experiment_5_30_19,3.1.0,59.954574822069624,
,,,C,D,d,v,,,,,11,6,226,9,v,1,2.551963395668281,4751.553846678612,None,001,6,2019_Jun_05_1404,ACPT_experiment_5_30_19,3.1.0,59.954574822069624,
,,,C,U,y,n,,,,,11,7,227,17,b,0,1.6012565683986395,4757.391621126577,None,001,6,2019_Jun_05_1404,ACPT_experiment_5_30_19,3.1.0,59.954574822069624,
,,,C,G,d,b,,,,,11,8,228,12,b,1,4.83704757742089,4762.278709877229,None,001,6,2019_Jun_05_1404,ACPT_experiment_5_30_19,3.1.0,59.954574822069624,
,,,C,G,y,b,,,,,11,9,229,14,b,1,1.067490594150513,4770.384910855727,None,001,6,2019_Jun_05_1404,ACPT_experiment_5_30_19,3.1.0,59.954574822069624,
,,,C,U,d,n,,,,,11,10,230,15,v,0,3.3859247918389883,4774.754931128412,None,001,6,2019_Jun_05_1404,ACPT_experiment_5_30_19,3.1.0,59.954574822069624,
,,,C,U,g,n,,,,,11,11,231,16,b,0,2.051580037864369,4781.426687800649,None,001,6,2019_Jun_05_1404,ACPT_experiment_5_30_19,3.1.0,59.954574822069624,
,,,C,G,g,v,,,,,11,12,232,4,v,1,1.317670500647182,4786.764117830304,None,001,6,2019_Jun_05_1404,ACPT_experiment_5_30_19,3.1.0,59.954574822069624,
,,,C,U,d,n,,,,,11,13,233,6,b,0,0.6168658718579536,4791.384584246953,None,001,6,2019_Jun_05_1404,ACPT_experiment_5_30_19,3.1.0,59.954574822069624,
,,,C,G,g,v,,,,,11,14,234,19,v,1,3.16910908853788,4795.287287432626,None,001,6,2019_Jun_05_1404,ACPT_experiment_5_30_19,3.1.0,59.954574822069624,
,,,C,D,y,b,,,,,11,15,235,11,b,1,4.286638441068135,4801.7422253829955,None,001,6,2019_Jun_05_1404,ACPT_experiment_5_30_19,3.1.0,59.954574822069624,
,,,C,U,y,n,,,,,11,16,236,8,b,0,1.1175305599563217,4809.314679102351,None,001,6,2019_Jun_05_1404,ACPT_experiment_5_30_19,3.1.0,59.954574822069624,
,,,C,G,g,v,,,,,11,17,237,13,v,1,2.201257111740233,4813.735150771304,None,001,6,2019_Jun_05_1404,ACPT_experiment_5_30_19,3.1.0,59.954574822069624,
,,,C,D,d,v,,,,,11,18,238,18,v,1,2.885548678592386,4819.222257874833,None,001,6,2019_Jun_05_1404,ACPT_experiment_5_30_19,3.1.0,59.954574822069624,
,,,C,D,g,b,,,,,11,19,239,1,b,1,1.0841769217395267,4825.393639339393,None,001,6,2019_Jun_05_1404,ACPT_experiment_5_30_19,3.1.0,59.954574822069624,
,,,C,G,y,b,,,,,12,0,240,14,b,1,1.4344554749523013,4829.763653574947,None,001,6,2019_Jun_05_1404,ACPT_experiment_5_30_19,3.1.0,59.954574822069624,
,,,C,D,y,b,,,,,12,1,241,11,b,1,2.0682811564238364,4834.467225926337,None,001,6,2019_Jun_05_1404,ACPT_experiment_5_30_19,3.1.0,59.954574822069624,
,,,C,U,y,n,,,,,12,2,242,8,b,0,1.717997773506795,4839.821341378011,None,001,6,2019_Jun_05_1404,ACPT_experiment_5_30_19,3.1.0,59.954574822069624,
,,,C,D,d,v,,,,,12,3,243,0,v,1,8.50652976063975,4844.825165900354,None,001,6,2019_Jun_05_1404,ACPT_experiment_5_30_19,3.1.0,59.954574822069624,
,,,C,D,y,b,,,,,12,4,244,2,b,1,6.221432297200408,4856.60084302494,None,001,6,2019_Jun_05_1404,ACPT_experiment_5_30_19,3.1.0,59.954574822069624,
,,,C,U,d,n,,,,,12,5,245,6,b,0,1.4677891906376317,4866.108117163804,None,001,6,2019_Jun_05_1404,ACPT_experiment_5_30_19,3.1.0,59.954574822069624,
,,,C,U,g,n,,,,,12,6,246,7,b,0,0.9840785768792557,4870.845085111469,None,001,6,2019_Jun_05_1404,ACPT_experiment_5_30_19,3.1.0,59.954574822069624,
,,,C,G,y,b,,,,,12,7,247,5,b,1,3.16910546625968,4875.114997983598,None,001,6,2019_Jun_05_1404,ACPT_experiment_5_30_19,3.1.0,59.954574822069624,
,,,C,G,d,b,,,,,12,8,248,3,b,1,1.5011724107953341,4881.553255945366,None,001,6,2019_Jun_05_1404,ACPT_experiment_5_30_19,3.1.0,59.954574822069624,
,,,C,U,g,n,,,,,12,9,249,16,b,0,1.918140732763277,4886.340250577149,None,001,6,2019_Jun_05_1404,ACPT_experiment_5_30_19,3.1.0,59.954574822069624,
,,,C,U,d,n,,,,,12,10,250,15,b,0,1.301030658964919,4891.527550748121,None,001,6,2019_Jun_05_1404,ACPT_experiment_5_30_19,3.1.0,59.954574822069624,
,,,C,D,d,v,,,,,12,11,251,9,v,1,2.4518538821157563,4896.131101728069,None,001,6,2019_Jun_05_1404,ACPT_experiment_5_30_19,3.1.0,59.954574822069624,
,,,C,G,d,b,,,,,12,12,252,12,b,1,0.8506431959121983,4901.8688019796955,None,001,6,2019_Jun_05_1404,ACPT_experiment_5_30_19,3.1.0,59.954574822069624,
,,,C,D,g,b,,,,,12,13,253,10,b,1,1.58429615507157,4906.022239280471,None,001,6,2019_Jun_05_1404,ACPT_experiment_5_30_19,3.1.0,59.954574822069624,
,,,C,U,y,n,,,,,12,14,254,17,b,0,2.9022494952960187,4910.892357958387,None,001,6,2019_Jun_05_1404,ACPT_experiment_5_30_19,3.1.0,59.954574822069624,
,,,C,G,g,v,,,,,12,15,255,4,v,1,0.8673225808006464,4917.080441447076,None,001,6,2019_Jun_05_1404,ACPT_experiment_5_30_19,3.1.0,59.954574822069624,
,,,C,G,g,v,,,,,12,16,256,19,v,1,0.9171168353841495,4921.233867881016,None,001,6,2019_Jun_05_1404,ACPT_experiment_5_30_19,3.1.0,59.954574822069624,
,,,C,D,d,v,,,,,12,17,257,18,v,1,1.1675696201918981,4925.436811767092,None,001,6,2019_Jun_05_1404,ACPT_experiment_5_30_19,3.1.0,59.954574822069624,
,,,C,G,g,v,,,,,12,18,258,13,v,1,0.817061354152429,4929.907148626915,None,001,6,2019_Jun_05_1404,ACPT_experiment_5_30_19,3.1.0,59.954574822069624,
,,,C,D,g,b,,,,,12,19,259,1,b,1,1.250955979657192,4934.0100527283,None,001,6,2019_Jun_05_1404,ACPT_experiment_5_30_19,3.1.0,59.954574822069624,
,,,C,D,y,b,,,,,13,0,260,2,b,1,1.2643224890362035,4938.566841602593,None,001,6,2019_Jun_05_1404,ACPT_experiment_5_30_19,3.1.0,59.954574822069624,
,,,C,G,y,b,,,,,13,1,261,14,b,1,1.0508208686705984,4943.116998688735,None,001,6,2019_Jun_05_1404,ACPT_experiment_5_30_19,3.1.0,59.954574822069624,
,,,C,U,d,n,,,,,13,2,262,6,v,0,1.5340922811665223,4947.470729273323,None,001,6,2019_Jun_05_1404,ACPT_experiment_5_30_19,3.1.0,59.954574822069624,
,,,C,G,d,b,,,,,13,3,263,3,b,1,12.226029270424988,4952.290680300118,None,001,6,2019_Jun_05_1404,ACPT_experiment_5_30_19,3.1.0,59.954574822069624,
,,,C,G,d,b,,,,,13,4,264,12,b,1,3.035699365376786,4967.785863273477,None,001,6,2019_Jun_05_1404,ACPT_experiment_5_30_19,3.1.0,59.954574822069624,
,,,C,D,y,b,,,,,13,5,265,11,b,1,3.7528842392248407,4974.107364031741,None,001,6,2019_Jun_05_1404,ACPT_experiment_5_30_19,3.1.0,59.954574822069624,
,,,C,D,d,v,,,,,13,6,266,0,v,1,2.151616200278113,4981.146122713135,None,001,6,2019_Jun_05_1404,ACPT_experiment_5_30_19,3.1.0,59.954574822069624,
,,,C,G,g,v,,,,,13,7,267,4,v,1,0.8340124099258901,4986.583567171531,None,001,6,2019_Jun_05_1404,ACPT_experiment_5_30_19,3.1.0,59.954574822069624,
,,,C,D,d,v,,,,,13,8,268,18,v,1,1.4507720282826995,4990.720405381257,None,001,6,2019_Jun_05_1404,ACPT_experiment_5_30_19,3.1.0,59.954574822069624,
,,,C,D,g,b,,,,,13,9,269,1,b,1,1.2176120008498401,4995.440342884879,None,001,6,2019_Jun_05_1404,ACPT_experiment_5_30_19,3.1.0,59.954574822069624,
,,,C,U,g,n,,,,,13,10,270,16,b,0,1.8845401758981097,4999.960712164094,None,001,6,2019_Jun_05_1404,ACPT_experiment_5_30_19,3.1.0,59.954574822069624,
,,,C,G,y,b,,,,,13,11,271,5,b,1,4.887056753858815,5005.131114406043,None,001,6,2019_Jun_05_1404,ACPT_experiment_5_30_19,3.1.0,59.954574822069624,
,,,C,G,g,v,,,,,13,12,272,19,v,1,0.8339867521208362,5013.28732274984,None,001,6,2019_Jun_05_1404,ACPT_experiment_5_30_19,3.1.0,59.954574822069624,
,,,C,U,d,n,,,,,13,13,273,15,b,0,2.7683875910397546,5017.424204125051,None,001,6,2019_Jun_05_1404,ACPT_experiment_5_30_19,3.1.0,59.954574822069624,
,,,C,U,y,n,,,,,13,14,274,8,v,0,2.4018619115004185,5023.478452574715,None,001,6,2019_Jun_05_1404,ACPT_experiment_5_30_19,3.1.0,59.954574822069624,
,,,C,G,g,v,,,,,13,15,275,13,v,1,2.6687190898901463,5029.16613006636,None,001,6,2019_Jun_05_1404,ACPT_experiment_5_30_19,3.1.0,59.954574822069624,
,,,C,U,g,n,,,,,13,16,276,7,b,0,13.693869172961058,5035.120687677491,None,001,6,2019_Jun_05_1404,ACPT_experiment_5_30_19,3.1.0,59.954574822069624,
,,,C,U,y,n,,,,,13,17,277,17,v,0,2.418531335123589,5052.083657728494,None,001,6,2019_Jun_05_1404,ACPT_experiment_5_30_19,3.1.0,59.954574822069624,
,,,C,D,g,b,,,,,13,18,278,10,b,1,0.9341478831402128,5057.788022755153,None,001,6,2019_Jun_05_1404,ACPT_experiment_5_30_19,3.1.0,59.954574822069624,
,,,C,D,d,v,,,,,13,19,279,9,v,1,1.1506363739545122,5062.008177595483,None,001,6,2019_Jun_05_1404,ACPT_experiment_5_30_19,3.1.0,59.954574822069624,
,,,C,D,g,b,,,,,14,0,280,1,b,1,0.9173703948772527,5066.427961635241,None,001,6,2019_Jun_05_1404,ACPT_experiment_5_30_19,3.1.0,59.954574822069624,
,,,C,G,g,v,,,,,14,1,281,19,v,1,0.916999413191661,5070.648107118019,None,001,6,2019_Jun_05_1404,ACPT_experiment_5_30_19,3.1.0,59.954574822069624,
,,,C,D,d,v,,,,,14,2,282,9,v,1,1.5345079376202193,5074.851071832197,None,001,6,2019_Jun_05_1404,ACPT_experiment_5_30_19,3.1.0,59.954574822069624,
,,,C,D,d,v,,,,,14,3,283,18,v,1,1.4010843290579942,5079.654740113595,None,001,6,2019_Jun_05_1404,ACPT_experiment_5_30_19,3.1.0,59.954574822069624,
,,,C,G,g,v,,,,,14,4,284,4,v,1,0.9838183765432404,5084.358612510384,None,001,6,2019_Jun_05_1404,ACPT_experiment_5_30_19,3.1.0,59.954574822069624,
,,,C,U,g,n,,,,,14,5,285,7,b,0,3.719522149025579,5088.628266691459,None,001,6,2019_Jun_05_1404,ACPT_experiment_5_30_19,3.1.0,59.954574822069624,
,,,C,D,y,b,,,,,14,6,286,11,b,1,2.918936426597611,5095.633621324595,None,001,6,2019_Jun_05_1404,ACPT_experiment_5_30_19,3.1.0,59.954574822069624,
,,,C,G,d,b,,,,,14,7,287,3,b,1,3.135725566524343,5101.838382688889,None,001,6,2019_Jun_05_1404,ACPT_experiment_5_30_19,3.1.0,59.954574822069624,
,,,C,D,g,b,,,,,14,8,288,10,b,1,6.338187085852951,5108.259948285938,None,001,6,2019_Jun_05_1404,ACPT_experiment_5_30_19,3.1.0,59.954574822069624,
,,,C,U,y,n,,,,,14,9,289,17,b,0,2.735453533411601,5117.8839796283055,None,001,6,2019_Jun_05_1404,ACPT_experiment_5_30_19,3.1.0,59.954574822069624,
,,,C,U,y,n,,,,,14,10,290,8,v,0,1.634679029905783,5123.9051470162085,None,001,6,2019_Jun_05_1404,ACPT_experiment_5_30_19,3.1.0,59.954574822069624,
,,,C,D,y,b,,,,,14,11,291,2,b,1,0.8840384903305676,5128.8256479652455,None,001,6,2019_Jun_05_1404,ACPT_experiment_5_30_19,3.1.0,59.954574822069624,
,,,C,G,y,b,,,,,14,12,292,14,b,1,3.602525875142419,5133.012448865502,None,001,6,2019_Jun_05_1404,ACPT_experiment_5_30_19,3.1.0,59.954574822069624,
,,,C,D,d,v,,,,,14,13,293,0,b,0,5.254029181075566,5139.9008069228985,None,001,6,2019_Jun_05_1404,ACPT_experiment_5_30_19,3.1.0,59.954574822069624,
,,,C,G,d,b,,,,,14,14,294,12,b,1,1.1842493069370903,5148.440670097367,None,001,6,2019_Jun_05_1404,ACPT_experiment_5_30_19,3.1.0,59.954574822069624,
,,,C,U,g,n,,,,,14,15,295,16,b,0,1.2176394697953583,5152.910747360566,None,001,6,2019_Jun_05_1404,ACPT_experiment_5_30_19,3.1.0,59.954574822069624,
,,,C,G,g,v,,,,,14,16,296,13,v,1,1.0007781861559124,5157.41419939194,None,001,6,2019_Jun_05_1404,ACPT_experiment_5_30_19,3.1.0,59.954574822069624,
,,,C,G,y,b,,,,,14,17,297,5,b,1,0.900690708131151,5161.684138827444,None,001,6,2019_Jun_05_1404,ACPT_experiment_5_30_19,3.1.0,59.954574822069624,
,,,C,U,d,n,,,,,14,18,298,6,b,0,0.8840064935375267,5165.870673792091,None,001,6,2019_Jun_05_1404,ACPT_experiment_5_30_19,3.1.0,59.954574822069624,
,,,C,U,d,n,,,,,14,19,299,15,b,0,1.2177704755331433,5170.023699360547,None,001,6,2019_Jun_05_1404,ACPT_experiment_5_30_19,3.1.0,59.954574822069624,
,,,C,G,y,b,,,,,15,0,300,5,b,1,0.833972866719705,5174.527285416224,None,001,6,2019_Jun_05_1404,ACPT_experiment_5_30_19,3.1.0,59.954574822069624,
,,,C,G,g,v,,,,,15,1,301,13,v,1,1.0837712265520167,5178.664157735738,None,001,6,2019_Jun_05_1404,ACPT_experiment_5_30_19,3.1.0,59.954574822069624,
,,,C,U,g,n,,,,,15,2,302,7,v,0,3.886320525761221,5183.033791330197,None,001,6,2019_Jun_05_1404,ACPT_experiment_5_30_19,3.1.0,59.954574822069624,
,,,C,D,g,b,,,,,15,3,303,1,b,1,3.7362136081756034,5190.205941925216,None,001,6,2019_Jun_05_1404,ACPT_experiment_5_30_19,3.1.0,59.954574822069624,
,,,C,U,y,n,,,,,15,4,304,17,b,0,2.13495311564202,5197.228007638178,None,001,6,2019_Jun_05_1404,ACPT_experiment_5_30_19,3.1.0,59.954574822069624,
,,,C,U,g,n,,,,,15,5,305,16,b,0,2.2018249038892463,5202.632128945868,None,001,6,2019_Jun_05_1404,ACPT_experiment_5_30_19,3.1.0,59.954574822069624,
,,,C,G,y,b,,,,,15,6,306,14,b,1,1.0174551561922272,5208.119640839016,None,001,6,2019_Jun_05_1404,ACPT_experiment_5_30_19,3.1.0,59.954574822069624,
,,,C,U,d,n,,,,,15,7,307,15,b,0,1.734708249618052,5212.422926970036,None,001,6,2019_Jun_05_1404,ACPT_experiment_5_30_19,3.1.0,59.954574822069624,
,,,C,G,d,b,,,,,15,8,308,12,b,1,2.5852931872186673,5217.443464081487,None,001,6,2019_Jun_05_1404,ACPT_experiment_5_30_19,3.1.0,59.954574822069624,
,,,C,G,g,v,,,,,15,9,309,4,v,1,1.6012502294106525,5223.297907953074,None,001,6,2019_Jun_05_1404,ACPT_experiment_5_30_19,3.1.0,59.954574822069624,
,,,C,G,g,v,,,,,15,10,310,19,v,1,0.9507484834730349,5228.16828834061,None,001,6,2019_Jun_05_1404,ACPT_experiment_5_30_19,3.1.0,59.954574822069624,
,,,C,G,d,b,,,,,15,11,311,3,b,1,1.5509250091772628,5232.405145808782,None,001,6,2019_Jun_05_1404,ACPT_experiment_5_30_19,3.1.0,59.954574822069624,
,,,C,U,d,n,,,,,15,12,312,6,b,0,2.85220952949021,5237.241903905782,None,001,6,2019_Jun_05_1404,ACPT_experiment_5_30_19,3.1.0,59.954574822069624,
,,,C,D,y,b,,,,,15,13,313,2,b,1,1.5345378214169614,5243.3799329395515,None,001,6,2019_Jun_05_1404,ACPT_experiment_5_30_19,3.1.0,59.954574822069624,
,,,C,D,d,v,,,,,15,14,314,0,v,1,3.4192923154569144,5248.183609672932,None,001,6,2019_Jun_05_1404,ACPT_experiment_5_30_19,3.1.0,59.954574822069624,
,,,C,U,y,n,,,,,15,15,315,8,b,0,1.1008493639274093,5254.88873266136,None,001,6,2019_Jun_05_1404,ACPT_experiment_5_30_19,3.1.0,59.954574822069624,
,,,C,D,d,v,,,,,15,16,316,9,v,1,3.7359600486834097,5259.292345944497,None,001,6,2019_Jun_05_1404,ACPT_experiment_5_30_19,3.1.0,59.954574822069624,
,,,C,D,d,v,,,,,15,17,317,18,v,1,1.3677216351452444,5266.297460903541,None,001,6,2019_Jun_05_1404,ACPT_experiment_5_30_19,3.1.0,59.954574822069624,
,,,C,D,g,b,,,,,15,18,318,10,b,1,1.2843138438656752,5270.951031624906,None,001,6,2019_Jun_05_1404,ACPT_experiment_5_30_19,3.1.0,59.954574822069624,
,,,C,D,y,b,,,,,15,19,319,11,b,1,0.9841292887776945,5275.50447955103,None,001,6,2019_Jun_05_1404,ACPT_experiment_5_30_19,3.1.0,59.954574822069624,
,,,C,G,g,v,,,,,16,0,320,13,v,1,0.9169957909125515,5279.7914895774975,None,001,6,2019_Jun_05_1404,ACPT_experiment_5_30_19,3.1.0,59.954574822069624,
,,,C,U,g,n,,,,,16,1,321,7,v,0,3.7195837277595274,5283.994324493364,None,001,6,2019_Jun_05_1404,ACPT_experiment_5_30_19,3.1.0,59.954574822069624,
