facing_vig,person_vig,text_vig,facing_train,person_train,food_train,correct_key_train,facing_exp,person_exp,food_exp,showL_R,consistent,vig_random.thisRepN,vig_random.thisTrialN,vig_random.thisN,vig_random.thisIndex,trainTrials.thisRepN,trainTrials.thisTrialN,trainTrials.thisN,trainTrials.thisIndex,expBlock.thisRepN,expBlock.thisTrialN,expBlock.thisN,expBlock.thisIndex,breakLoop.thisRepN,breakLoop.thisTrialN,breakLoop.thisN,breakLoop.thisIndex,expTrials.thisRepN,expTrials.thisTrialN,expTrials.thisN,expTrials.thisIndex,train_resp.keys,train_resp.corr,train_resp.rt,train_resp.started,train_resp.stopped,exp_resp.keys,exp_resp.rt,exp_resp.started,exp_resp.stopped,session,participant,date,expName,psychopyVersion,frameRate,
C,D,"is allergic to gluten, meaning she can’t eat wheat products. She enjoys eating dairy products. She thinks eating insects, like crickets, is disgusting.",,,,,,,,,,0,0,0,1,,,,,,,,,,,,,,,,,,,,,,,,,,001,70,2019_Oct_28_1704,ACPT_experiment_5_30_19,3.1.0,59.95473770123347,
C,U,"did not report her food preferences, so her food preferences are unknown.",,,,,,,,,,0,1,1,2,,,,,,,,,,,,,,,,,,,,,,,,,,001,70,2019_Oct_28_1704,ACPT_experiment_5_30_19,3.1.0,59.95473770123347,
C,G,"cannot eat dairy products because she is lactose intolerant. She enjoys eating wheat products. She thinks eating insects, like crickets, is disgusting.",,,,,,,,,,0,2,2,0,,,,,,,,,,,,,,,,,,,,,,,,,,001,70,2019_Oct_28_1704,ACPT_experiment_5_30_19,3.1.0,59.95473770123347,
,,,C,D,g,b,,,,,,,,,,0,0,0,10,,,,,,,,,,,,,b,1,4.420059399168167,875.5229487319192,None,,,,,001,70,2019_Oct_28_1704,ACPT_experiment_5_30_19,3.1.0,59.95473770123347,
,,,C,D,d,v,,,,,,,,,,0,1,1,18,,,,,,,,,,,,,v,1,1.951539479256553,883.2288099549602,None,,,,,001,70,2019_Oct_28_1704,ACPT_experiment_5_30_19,3.1.0,59.95473770123347,
,,,C,U,y,n,,,,,,,,,,0,2,2,17,,,,,,,,,,,,,n,1,8.172941291175675,888.4661512580893,None,,,,,001,70,2019_Oct_28_1704,ACPT_experiment_5_30_19,3.1.0,59.95473770123347,
,,,C,D,y,b,,,,,,,,,,0,3,3,11,,,,,,,,,,,,,b,1,2.1182990671752577,899.9249121826252,None,,,,,001,70,2019_Oct_28_1704,ACPT_experiment_5_30_19,3.1.0,59.95473770123347,
,,,C,U,d,n,,,,,,,,,,0,4,4,15,,,,,,,,,,,,,n,1,5.487532302335239,905.3290435611005,None,,,,,001,70,2019_Oct_28_1704,ACPT_experiment_5_30_19,3.1.0,59.95473770123347,
,,,C,G,g,v,,,,,,,,,,0,5,5,4,,,,,,,,,,,,,v,1,4.486782794586361,914.1024039487558,None,,,,,001,70,2019_Oct_28_1704,ACPT_experiment_5_30_19,3.1.0,59.95473770123347,
,,,C,G,d,b,,,,,,,,,,0,6,6,12,,,,,,,,,,,,,b,1,3.586080647999779,921.8583312631062,None,,,,,001,70,2019_Oct_28_1704,ACPT_experiment_5_30_19,3.1.0,59.95473770123347,
,,,C,G,g,v,,,,,,,,,,0,7,7,13,,,,,,,,,,,,,v,1,6.121349621065292,928.7135642791187,None,,,,,001,70,2019_Oct_28_1704,ACPT_experiment_5_30_19,3.1.0,59.95473770123347,
,,,C,D,d,v,,,,,,,,,,0,8,8,0,,,,,,,,,,,,,v,1,2.6520602709276773,938.120724176017,None,,,,,001,70,2019_Oct_28_1704,ACPT_experiment_5_30_19,3.1.0,59.95473770123347,
,,,C,G,y,b,,,,,,,,,,0,9,9,5,,,,,,,,,,,,,b,1,1.617901975977702,944.0586246064933,None,,,,,001,70,2019_Oct_28_1704,ACPT_experiment_5_30_19,3.1.0,59.95473770123347,
,,,C,G,d,b,,,,,,,,,,0,10,10,3,,,,,,,,,,,,,b,1,4.053115135921189,948.9456732152252,None,,,,,001,70,2019_Oct_28_1704,ACPT_experiment_5_30_19,3.1.0,59.95473770123347,
,,,C,D,y,b,,,,,,,,,,0,11,11,2,,,,,,,,,,,,,b,1,1.3844032961437733,956.2846143234764,None,,,,,001,70,2019_Oct_28_1704,ACPT_experiment_5_30_19,3.1.0,59.95473770123347,
,,,C,D,d,v,,,,,,,,,,0,12,12,9,,,,,,,,,,,,,v,1,3.3158847647682705,960.9748533056674,None,,,,,001,70,2019_Oct_28_1704,ACPT_experiment_5_30_19,3.1.0,59.95473770123347,
,,,C,D,g,b,,,,,,,,,,0,13,13,1,,,,,,,,,,,,,b,1,2.7020726319192363,967.5598928532942,None,,,,,001,70,2019_Oct_28_1704,ACPT_experiment_5_30_19,3.1.0,59.95473770123347,
,,,C,U,d,n,,,,,,,,,,0,14,14,6,,,,,,,,,,,,,n,1,0.8840188828862665,973.5477965890908,None,,,,,001,70,2019_Oct_28_1704,ACPT_experiment_5_30_19,3.1.0,59.95473770123347,
,,,C,U,g,n,,,,,,,,,,0,15,15,7,,,,,,,,,,,,,n,1,1.067475619868219,977.7176674038989,None,,,,,001,70,2019_Oct_28_1704,ACPT_experiment_5_30_19,3.1.0,59.95473770123347,
,,,C,U,g,n,,,,,,,,,,0,16,16,16,,,,,,,,,,,,,n,1,1.484476013186395,982.0542969010586,None,,,,,001,70,2019_Oct_28_1704,ACPT_experiment_5_30_19,3.1.0,59.95473770123347,
,,,C,U,y,n,,,,,,,,,,0,17,17,8,,,,,,,,,,,,,n,1,0.617174503696333,986.8079189432877,None,,,,,001,70,2019_Oct_28_1704,ACPT_experiment_5_30_19,3.1.0,59.95473770123347,
,,,C,G,y,b,,,,,,,,,,0,18,18,14,,,,,,,,,,,,,b,1,1.4673828294203304,990.7279700414236,None,,,,,001,70,2019_Oct_28_1704,ACPT_experiment_5_30_19,3.1.0,59.95473770123347,
,,,C,G,g,v,,,,,,,,,,0,19,19,19,,,,,,,,,,,,,v,1,4.620232000268061,995.4645121815385,None,,,,,001,70,2019_Oct_28_1704,ACPT_experiment_5_30_19,3.1.0,59.95473770123347,
,,,C,U,g,n,,,,,,,,,,1,0,20,7,,,,,,,,,,,,,n,1,0.9174053327642469,1003.3705405722761,None,,,,,001,70,2019_Oct_28_1704,ACPT_experiment_5_30_19,3.1.0,59.95473770123347,
,,,C,U,y,n,,,,,,,,,,1,1,21,8,,,,,,,,,,,,,n,1,1.6978430295930593,1007.5937921560377,None,,,,,001,70,2019_Oct_28_1704,ACPT_experiment_5_30_19,3.1.0,59.95473770123347,
,,,C,D,y,b,,,,,,,,,,1,2,22,2,,,,,,,,,,,,,b,1,1.3677197305876234,1012.5776054449942,None,,,,,001,70,2019_Oct_28_1704,ACPT_experiment_5_30_19,3.1.0,59.95473770123347,
,,,C,U,d,n,,,,,,,,,,1,3,23,6,,,,,,,,,,,,,n,1,1.2174327110778904,1017.2479962062774,None,,,,,001,70,2019_Oct_28_1704,ACPT_experiment_5_30_19,3.1.0,59.95473770123347,
,,,C,D,d,v,,,,,,,,,,1,4,24,18,,,,,,,,,,,,,v,1,3.4193129099767248,1021.7512455321581,None,,,,,001,70,2019_Oct_28_1704,ACPT_experiment_5_30_19,3.1.0,59.95473770123347,
,,,C,U,y,n,,,,,,,,,,1,5,25,17,,,,,,,,,,,,,n,1,1.3343646737046129,1028.4563886404449,None,,,,,001,70,2019_Oct_28_1704,ACPT_experiment_5_30_19,3.1.0,59.95473770123347,
,,,C,U,d,n,,,,,,,,,,1,6,26,15,,,,,,,,,,,,,n,1,0.6505419366640126,1033.059892098655,None,,,,,001,70,2019_Oct_28_1704,ACPT_experiment_5_30_19,3.1.0,59.95473770123347,
,,,C,G,y,b,,,,,,,,,,1,7,27,5,,,,,,,,,,,,,b,1,2.101612784917961,1036.9962412925943,None,,,,,001,70,2019_Oct_28_1704,ACPT_experiment_5_30_19,3.1.0,59.95473770123347,
,,,C,D,y,b,,,,,,,,,,1,8,28,11,,,,,,,,,,,,,b,1,1.100840336134297,1042.3837023871656,None,,,,,001,70,2019_Oct_28_1704,ACPT_experiment_5_30_19,3.1.0,59.95473770123347,
,,,C,D,g,b,,,,,,,,,,1,9,29,1,,,,,,,,,,,,,b,1,1.8180594842915525,1046.7703822791373,None,,,,,001,70,2019_Oct_28_1704,ACPT_experiment_5_30_19,3.1.0,59.95473770123347,
,,,C,G,g,v,,,,,,,,,,1,10,30,19,,,,,,,,,,,,,v,1,2.551951934910221,1051.8742722635948,None,,,,,001,70,2019_Oct_28_1704,ACPT_experiment_5_30_19,3.1.0,59.95473770123347,
,,,C,D,d,v,,,,,,,,,,1,11,31,9,,,,,,,,,,,,,v,1,1.5512132939672938,1057.712037492895,None,,,,,001,70,2019_Oct_28_1704,ACPT_experiment_5_30_19,3.1.0,59.95473770123347,
,,,C,G,y,b,,,,,,,,,,1,12,32,14,,,,,,,,,,,,,b,1,1.7013050128273335,1062.5490843055854,None,,,,,001,70,2019_Oct_28_1704,ACPT_experiment_5_30_19,3.1.0,59.95473770123347,
,,,C,U,g,n,,,,,,,,,,1,13,33,16,,,,,,,,,,,,,n,1,4.253264795986297,1067.5362180074444,None,,,,,001,70,2019_Oct_28_1704,ACPT_experiment_5_30_19,3.1.0,59.95473770123347,
,,,C,D,g,b,,,,,,,,,,1,14,34,10,,,,,,,,,,,,,b,1,2.8188240848262467,1075.0753175295768,None,,,,,001,70,2019_Oct_28_1704,ACPT_experiment_5_30_19,3.1.0,59.95473770123347,
,,,C,G,g,v,,,,,,,,,,1,15,35,4,,,,,,,,,,,,,v,1,4.503462737873633,1081.1799594366285,None,,,,,001,70,2019_Oct_28_1704,ACPT_experiment_5_30_19,3.1.0,59.95473770123347,
,,,C,G,d,b,,,,,,,,,,1,16,36,3,,,,,,,,,,,,,b,1,2.3184378604344147,1088.9525817870522,None,,,,,001,70,2019_Oct_28_1704,ACPT_experiment_5_30_19,3.1.0,59.95473770123347,
,,,C,G,d,b,,,,,,,,,,1,17,37,12,,,,,,,,,,,,,b,1,1.9181409551499655,1094.556849543941,None,,,,,001,70,2019_Oct_28_1704,ACPT_experiment_5_30_19,3.1.0,59.95473770123347,
,,,C,D,d,v,,,,,,,,,,1,18,38,0,,,,,,,,,,,,,v,1,1.4511372565118563,1099.760801680491,None,,,,,001,70,2019_Oct_28_1704,ACPT_experiment_5_30_19,3.1.0,59.95473770123347,
,,,C,G,g,v,,,,,,,,,,1,19,39,13,,,,,,,,,,,,,v,1,1.3343209046254287,1104.497818639651,None,,,,,001,70,2019_Oct_28_1704,ACPT_experiment_5_30_19,3.1.0,59.95473770123347,
,,,C,U,g,n,,,,,,,,,,2,0,40,16,,,,,,,,,,,,,n,1,0.533747620244867,1109.1179658184624,None,,,,,001,70,2019_Oct_28_1704,ACPT_experiment_5_30_19,3.1.0,59.95473770123347,
,,,C,G,y,b,,,,,,,,,,2,1,41,14,,,,,,,,,,,,,b,1,1.133983792158915,1112.9544789502424,None,,,,,001,70,2019_Oct_28_1704,ACPT_experiment_5_30_19,3.1.0,59.95473770123347,
,,,C,U,y,n,,,,,,,,,,2,2,42,17,,,,,,,,,,,,,n,1,1.3343797664904287,1117.3742503790554,None,,,,,001,70,2019_Oct_28_1704,ACPT_experiment_5_30_19,3.1.0,59.95473770123347,
,,,C,G,d,b,,,,,,,,,,2,3,43,3,,,,,,,,,,,,,b,1,3.2688997147765804,1122.011413768424,None,,,,,001,70,2019_Oct_28_1704,ACPT_experiment_5_30_19,3.1.0,59.95473770123347,
,,,C,G,y,b,,,,,,,,,,2,4,44,5,,,,,,,,,,,,,b,1,1.5344548681932793,1128.5661931858485,None,,,,,001,70,2019_Oct_28_1704,ACPT_experiment_5_30_19,3.1.0,59.95473770123347,
,,,C,G,d,b,,,,,,,,,,2,5,45,12,,,,,,,,,,,,,b,1,1.8848018966198197,1133.3864698003918,None,,,,,001,70,2019_Oct_28_1704,ACPT_experiment_5_30_19,3.1.0,59.95473770123347,
,,,C,D,g,b,,,,,,,,,,2,6,46,10,,,,,,,,,,,,,b,1,1.684644992017411,1138.5570967637746,None,,,,,001,70,2019_Oct_28_1704,ACPT_experiment_5_30_19,3.1.0,59.95473770123347,
,,,C,D,y,b,,,,,,,,,,2,7,47,2,,,,,,,,,,,,,b,1,0.8506837484803782,1143.5108612215317,None,,,,,001,70,2019_Oct_28_1704,ACPT_experiment_5_30_19,3.1.0,59.95473770123347,
,,,C,D,d,v,,,,,,,,,,2,8,48,18,,,,,,,,,,,,,v,1,1.4978261860439943,1147.6673869950296,None,,,,,001,70,2019_Oct_28_1704,ACPT_experiment_5_30_19,3.1.0,59.95473770123347,
,,,C,U,g,n,,,,,,,,,,2,9,49,7,,,,,,,,,,,,,n,1,0.9340402995496788,1152.4510551517565,None,,,,,001,70,2019_Oct_28_1704,ACPT_experiment_5_30_19,3.1.0,59.95473770123347,
,,,C,U,d,n,,,,,,,,,,2,10,50,6,,,,,,,,,,,,,n,1,0.8837786057345056,1156.6712000364641,None,,,,,001,70,2019_Oct_28_1704,ACPT_experiment_5_30_19,3.1.0,59.95473770123347,
,,,C,G,g,v,,,,,,,,,,2,11,51,13,,,,,,,,,,,,,b,0,4.7536742632682945,1160.8407590343154,None,,,,,001,70,2019_Oct_28_1704,ACPT_experiment_5_30_19,3.1.0,59.95473770123347,
,,,C,G,g,v,,,,,,,,,,2,12,52,19,,,,,,,,,,,,,v,1,8.089525878241602,1168.8635624227059,None,,,,,001,70,2019_Oct_28_1704,ACPT_experiment_5_30_19,3.1.0,59.95473770123347,
,,,C,D,g,b,,,,,,,,,,2,13,53,1,,,,,,,,,,,,,b,1,1.701312861076076,1180.238910952865,None,,,,,001,70,2019_Oct_28_1704,ACPT_experiment_5_30_19,3.1.0,59.95473770123347,
,,,C,D,d,v,,,,,,,,,,2,14,54,0,,,,,,,,,,,,,v,1,1.117551370560932,1185.2093749745309,None,,,,,001,70,2019_Oct_28_1704,ACPT_experiment_5_30_19,3.1.0,59.95473770123347,
,,,C,G,g,v,,,,,,,,,,2,15,55,4,,,,,,,,,,,,,v,1,2.3515330195441493,1189.6296815935325,None,,,,,001,70,2019_Oct_28_1704,ACPT_experiment_5_30_19,3.1.0,59.95473770123347,
,,,C,U,y,n,,,,,,,,,,2,16,56,8,,,,,,,,,,,,,n,1,3.219157816508641,1195.2670460188097,None,,,,,001,70,2019_Oct_28_1704,ACPT_experiment_5_30_19,3.1.0,59.95473770123347,
,,,C,U,d,n,,,,,,,,,,2,17,57,15,,,,,,,,,,,,,n,1,1.017456618050801,1201.772011998161,None,,,,,001,70,2019_Oct_28_1704,ACPT_experiment_5_30_19,3.1.0,59.95473770123347,
,,,C,D,d,v,,,,,,,,,,2,18,58,9,,,,,,,,,,,,,v,1,1.0505898109809095,1206.0922009236183,None,,,,,001,70,2019_Oct_28_1704,ACPT_experiment_5_30_19,3.1.0,59.95473770123347,
,,,C,D,y,b,,,,,,,,,,2,19,59,11,,,,,,,,,,,,,b,1,3.3358893469380746,1210.4286182162077,None,,,,,001,70,2019_Oct_28_1704,ACPT_experiment_5_30_19,3.1.0,59.95473770123347,
,,,C,D,g,b,,,,,,,,,,3,0,60,10,,,,,,,,,,,,,b,1,2.1683322562114427,1217.050334742899,None,,,,,001,70,2019_Oct_28_1704,ACPT_experiment_5_30_19,3.1.0,59.95473770123347,
,,,C,D,g,b,,,,,,,,,,3,1,61,1,,,,,,,,,,,,,b,1,3.085720081344107,1222.4877982372232,None,,,,,001,70,2019_Oct_28_1704,ACPT_experiment_5_30_19,3.1.0,59.95473770123347,
,,,C,G,d,b,,,,,,,,,,3,2,62,3,,,,,,,,,,,,,b,1,2.2350523312165933,1228.8593464038872,None,,,,,001,70,2019_Oct_28_1704,ACPT_experiment_5_30_19,3.1.0,59.95473770123347,
,,,C,D,d,v,,,,,,,,,,3,3,63,18,,,,,,,,,,,,,v,1,0.9340834649171939,1234.3802014645435,None,,,,,001,70,2019_Oct_28_1704,ACPT_experiment_5_30_19,3.1.0,59.95473770123347,
,,,C,U,d,n,,,,,,,,,,3,4,64,15,,,,,,,,,,,,,n,1,0.5671280330086574,1238.6000973182836,None,,,,,001,70,2019_Oct_28_1704,ACPT_experiment_5_30_19,3.1.0,59.95473770123347,
,,,C,G,y,b,,,,,,,,,,3,5,65,5,,,,,,,,,,,,,b,1,2.9856461568786017,1242.4530317030008,None,,,,,001,70,2019_Oct_28_1704,ACPT_experiment_5_30_19,3.1.0,59.95473770123347,
,,,C,U,g,n,,,,,,,,,,3,6,66,7,,,,,,,,,,,,,n,1,1.651265182965517,1248.7245101711792,None,,,,,001,70,2019_Oct_28_1704,ACPT_experiment_5_30_19,3.1.0,59.95473770123347,
,,,C,D,d,v,,,,,,,,,,3,7,67,9,,,,,,,,,,,,,v,1,2.0349114249672766,1253.6615889503905,None,,,,,001,70,2019_Oct_28_1704,ACPT_experiment_5_30_19,3.1.0,59.95473770123347,
,,,C,U,y,n,,,,,,,,,,3,8,68,17,,,,,,,,,,,,,n,1,1.3343851998934042,1258.9823094437675,None,,,,,001,70,2019_Oct_28_1704,ACPT_experiment_5_30_19,3.1.0,59.95473770123347,
,,,C,G,g,v,,,,,,,,,,3,9,69,4,,,,,,,,,,,,,v,1,3.085439657381812,1263.6194761535494,None,,,,,001,70,2019_Oct_28_1704,ACPT_experiment_5_30_19,3.1.0,59.95473770123347,
,,,C,D,y,b,,,,,,,,,,3,10,70,11,,,,,,,,,,,,,b,1,1.0174520902148743,1269.9907360480024,None,,,,,001,70,2019_Oct_28_1704,ACPT_experiment_5_30_19,3.1.0,59.95473770123347,
,,,C,U,g,n,,,,,,,,,,3,11,71,16,,,,,,,,,,,,,n,1,0.4334756784282945,1274.3276043130354,None,,,,,001,70,2019_Oct_28_1704,ACPT_experiment_5_30_19,3.1.0,59.95473770123347,
,,,C,D,d,v,,,,,,,,,,3,12,72,0,,,,,,,,,,,,,v,1,0.9674355032434505,1278.0468594780132,None,,,,,001,70,2019_Oct_28_1704,ACPT_experiment_5_30_19,3.1.0,59.95473770123347,
,,,C,U,y,n,,,,,,,,,,3,13,73,8,,,,,,,,,,,,,n,1,1.3674483622969547,1282.3170804152692,None,,,,,001,70,2019_Oct_28_1704,ACPT_experiment_5_30_19,3.1.0,59.95473770123347,
,,,C,D,y,b,,,,,,,,,,3,14,74,2,,,,,,,,,,,,,b,1,0.9007422933971156,1286.9703321107172,None,,,,,001,70,2019_Oct_28_1704,ACPT_experiment_5_30_19,3.1.0,59.95473770123347,
,,,C,G,d,b,,,,,,,,,,3,15,75,12,,,,,,,,,,,,,b,1,2.518557334927891,1291.156914865519,None,,,,,001,70,2019_Oct_28_1704,ACPT_experiment_5_30_19,3.1.0,59.95473770123347,
,,,C,G,g,v,,,,,,,,,,3,16,76,13,,,,,,,,,,,,,v,1,1.1342195414749767,1296.9446278888722,None,,,,,001,70,2019_Oct_28_1704,ACPT_experiment_5_30_19,3.1.0,59.95473770123347,
,,,C,G,g,v,,,,,,,,,,3,17,77,19,,,,,,,,,,,,,v,1,1.1005713826893953,1301.3649486950926,None,,,,,001,70,2019_Oct_28_1704,ACPT_experiment_5_30_19,3.1.0,59.95473770123347,
,,,C,G,y,b,,,,,,,,,,3,18,78,14,,,,,,,,,,,,,b,1,1.084217443577927,1305.734647693626,None,,,,,001,70,2019_Oct_28_1704,ACPT_experiment_5_30_19,3.1.0,59.95473770123347,
,,,C,U,d,n,,,,,,,,,,3,19,79,6,,,,,,,,,,,,,n,1,0.8168873785371034,1310.121742335355,None,,,,,001,70,2019_Oct_28_1704,ACPT_experiment_5_30_19,3.1.0,59.95473770123347,
,,,C,D,d,v,,,,,,,,,,4,0,80,9,,,,,,,,,,,,,v,1,1.8180655214059698,1314.224531150152,None,,,,,001,70,2019_Oct_28_1704,ACPT_experiment_5_30_19,3.1.0,59.95473770123347,
,,,C,U,g,n,,,,,,,,,,4,1,81,7,,,,,,,,,,,,,n,1,4.770314965312082,1319.3283809877985,None,,,,,001,70,2019_Oct_28_1704,ACPT_experiment_5_30_19,3.1.0,59.95473770123347,
,,,C,D,d,v,,,,,,,,,,4,2,82,0,,,,,,,,,,,,,v,1,1.0508143916356403,1327.3845270569882,None,,,,,001,70,2019_Oct_28_1704,ACPT_experiment_5_30_19,3.1.0,59.95473770123347,
,,,C,U,y,n,,,,,,,,,,4,3,83,17,,,,,,,,,,,,,n,1,1.1506441148246722,1331.7380879432485,None,,,,,001,70,2019_Oct_28_1704,ACPT_experiment_5_30_19,3.1.0,59.95473770123347,
,,,C,D,y,b,,,,,,,,,,4,4,84,11,,,,,,,,,,,,,b,1,1.7680495381457604,1336.1745390134934,None,,,,,001,70,2019_Oct_28_1704,ACPT_experiment_5_30_19,3.1.0,59.95473770123347,
,,,C,G,y,b,,,,,,,,,,4,5,85,5,,,,,,,,,,,,,b,1,1.6346021435983857,1341.228406072009,None,,,,,001,70,2019_Oct_28_1704,ACPT_experiment_5_30_19,3.1.0,59.95473770123347,
,,,C,G,d,b,,,,,,,,,,4,6,86,3,,,,,,,,,,,,,b,1,3.0023288168674753,1346.1488145673156,None,,,,,001,70,2019_Oct_28_1704,ACPT_experiment_5_30_19,3.1.0,59.95473770123347,
,,,C,G,y,b,,,,,,,,,,4,7,87,14,,,,,,,,,,,,,b,1,1.0341281093781163,1352.436970563936,None,,,,,001,70,2019_Oct_28_1704,ACPT_experiment_5_30_19,3.1.0,59.95473770123347,
,,,C,D,g,b,,,,,,,,,,4,8,88,10,,,,,,,,,,,,,b,1,1.4344322591998662,1356.7736064000655,None,,,,,001,70,2019_Oct_28_1704,ACPT_experiment_5_30_19,3.1.0,59.95473770123347,
,,,C,U,y,n,,,,,,,,,,4,9,89,8,,,,,,,,,,,,,n,1,1.1175284295261463,1361.4938830447945,None,,,,,001,70,2019_Oct_28_1704,ACPT_experiment_5_30_19,3.1.0,59.95473770123347,
,,,C,G,g,v,,,,,,,,,,4,10,90,4,,,,,,,,,,,,,v,1,2.068271009686441,1365.9139131639581,None,,,,,001,70,2019_Oct_28_1704,ACPT_experiment_5_30_19,3.1.0,59.95473770123347,
,,,C,U,g,n,,,,,,,,,,4,11,91,16,,,,,,,,,,,,,n,1,0.7172248834158381,1371.2680071274171,None,,,,,001,70,2019_Oct_28_1704,ACPT_experiment_5_30_19,3.1.0,59.95473770123347,
,,,C,D,y,b,,,,,,,,,,4,12,92,2,,,,,,,,,,,,,b,1,0.9340469403753104,1375.2877539248034,None,,,,,001,70,2019_Oct_28_1704,ACPT_experiment_5_30_19,3.1.0,59.95473770123347,
,,,C,D,g,b,,,,,,,,,,4,13,93,1,,,,,,,,,,,,,b,1,1.4677927494858523,1379.5076262337975,None,,,,,001,70,2019_Oct_28_1704,ACPT_experiment_5_30_19,3.1.0,59.95473770123347,
,,,C,G,d,b,,,,,,,,,,4,14,94,12,,,,,,,,,,,,,b,1,2.3184659330165687,1384.2612537094296,None,,,,,001,70,2019_Oct_28_1704,ACPT_experiment_5_30_19,3.1.0,59.95473770123347,
,,,C,U,d,n,,,,,,,,,,4,15,95,15,,,,,,,,,,,,,n,1,0.7839600512068046,1389.8655096939456,None,,,,,001,70,2019_Oct_28_1704,ACPT_experiment_5_30_19,3.1.0,59.95473770123347,
,,,C,G,g,v,,,,,,,,,,4,16,96,13,,,,,,,,,,,,,v,1,5.820879118557059,1393.952223182459,None,,,,,001,70,2019_Oct_28_1704,ACPT_experiment_5_30_19,3.1.0,59.95473770123347,
,,,C,D,d,v,,,,,,,,,,4,17,97,18,,,,,,,,,,,,,v,1,1.0674843736842377,1403.0589297826245,None,,,,,001,70,2019_Oct_28_1704,ACPT_experiment_5_30_19,3.1.0,59.95473770123347,
,,,C,G,g,v,,,,,,,,,,4,18,98,19,,,,,,,,,,,,,v,1,1.3841313241414355,1407.4291929494957,None,,,,,001,70,2019_Oct_28_1704,ACPT_experiment_5_30_19,3.1.0,59.95473770123347,
,,,C,U,d,n,,,,,,,,,,4,19,99,6,,,,,,,,,,,,,n,1,2.3684979146296428,1412.099160810917,None,,,,,001,70,2019_Oct_28_1704,ACPT_experiment_5_30_19,3.1.0,59.95473770123347,
,,,C,D,d,v,,,,,,,,,,5,0,100,9,,,,,,,,,,,,,v,1,3.786266530750936,1417.7534403250866,None,,,,,001,70,2019_Oct_28_1704,ACPT_experiment_5_30_19,3.1.0,59.95473770123347,
,,,C,D,g,b,,,,,,,,,,5,1,101,1,,,,,,,,,,,,,b,1,0.9007163338051214,1424.8088474514775,None,,,,,001,70,2019_Oct_28_1704,ACPT_experiment_5_30_19,3.1.0,59.95473770123347,
,,,C,G,y,b,,,,,,,,,,5,2,102,14,,,,,,,,,,,,,b,1,1.0506215058314865,1429.0122176102022,None,,,,,001,70,2019_Oct_28_1704,ACPT_experiment_5_30_19,3.1.0,59.95473770123347,
,,,C,G,d,b,,,,,,,,,,5,3,103,3,,,,,,,,,,,,,b,1,2.2850912555115883,1433.3486976887812,None,,,,,001,70,2019_Oct_28_1704,ACPT_experiment_5_30_19,3.1.0,59.95473770123347,
,,,C,D,y,b,,,,,,,,,,5,4,104,2,,,,,,,,,,,,,b,1,1.2175966187330687,1438.9196140110557,None,,,,,001,70,2019_Oct_28_1704,ACPT_experiment_5_30_19,3.1.0,59.95473770123347,
,,,C,G,d,b,,,,,,,,,,5,5,105,12,,,,,,,,,,,,,b,1,1.0839264546652885,1443.4399713116327,None,,,,,001,70,2019_Oct_28_1704,ACPT_experiment_5_30_19,3.1.0,59.95473770123347,
,,,C,G,g,v,,,,,,,,,,5,6,106,13,,,,,,,,,,,,,v,1,0.8840466536125859,1447.7930287025547,None,,,,,001,70,2019_Oct_28_1704,ACPT_experiment_5_30_19,3.1.0,59.95473770123347,
,,,C,U,g,n,,,,,,,,,,5,7,107,16,,,,,,,,,,,,,n,1,0.9173763546152713,1451.962897404373,None,,,,,001,70,2019_Oct_28_1704,ACPT_experiment_5_30_19,3.1.0,59.95473770123347,
,,,C,G,y,b,,,,,,,,,,5,8,108,5,,,,,,,,,,,,,b,1,1.0341368631939076,1456.1661009387412,None,,,,,001,70,2019_Oct_28_1704,ACPT_experiment_5_30_19,3.1.0,59.95473770123347,
,,,C,D,y,b,,,,,,,,,,5,9,109,11,,,,,,,,,,,,,b,1,1.3673327515566598,1460.5031421671006,None,,,,,001,70,2019_Oct_28_1704,ACPT_experiment_5_30_19,3.1.0,59.95473770123347,
,,,C,U,y,n,,,,,,,,,,5,10,110,8,,,,,,,,,,,,,n,1,1.7513327684605429,1465.1563084373806,None,,,,,001,70,2019_Oct_28_1704,ACPT_experiment_5_30_19,3.1.0,59.95473770123347,
,,,C,D,d,v,,,,,,,,,,5,11,111,0,,,,,,,,,,,,,v,1,1.3844229167652884,1470.1934454445595,None,,,,,001,70,2019_Oct_28_1704,ACPT_experiment_5_30_19,3.1.0,59.95473770123347,
,,,C,D,g,b,,,,,,,,,,5,12,112,10,,,,,,,,,,,,,b,1,1.5509431330992811,1474.8639644945229,None,,,,,001,70,2019_Oct_28_1704,ACPT_experiment_5_30_19,3.1.0,59.95473770123347,
,,,C,U,g,n,,,,,,,,,,5,13,113,7,,,,,,,,,,,,,n,1,1.1675576944380737,1479.700723638714,None,,,,,001,70,2019_Oct_28_1704,ACPT_experiment_5_30_19,3.1.0,59.95473770123347,
,,,C,G,g,v,,,,,,,,,,5,14,114,19,,,,,,,,,,,,,v,1,2.3847344318667183,1484.1712189024465,None,,,,,001,70,2019_Oct_28_1704,ACPT_experiment_5_30_19,3.1.0,59.95473770123347,
,,,C,U,y,n,,,,,,,,,,5,15,115,17,,,,,,,,,,,,,n,1,0.9840828461130968,1489.8418010402552,None,,,,,001,70,2019_Oct_28_1704,ACPT_experiment_5_30_19,3.1.0,59.95473770123347,
,,,C,U,d,n,,,,,,,,,,5,16,116,15,,,,,,,,,,,,,n,1,0.7339159953648959,1494.0950302172669,None,,,,,001,70,2019_Oct_28_1704,ACPT_experiment_5_30_19,3.1.0,59.95473770123347,
,,,C,D,d,v,,,,,,,,,,5,17,117,18,,,,,,,,,,,,,v,1,1.4011046711871131,1498.1147407919666,None,,,,,001,70,2019_Oct_28_1704,ACPT_experiment_5_30_19,3.1.0,59.95473770123347,
,,,C,G,g,v,,,,,,,,,,5,18,118,4,,,,,,,,,,,,,v,1,3.2688966962193717,1502.818628482321,None,,,,,001,70,2019_Oct_28_1704,ACPT_experiment_5_30_19,3.1.0,59.95473770123347,
,,,C,U,d,n,,,,,,,,,,5,19,119,6,0,0,0,0,0,0,0,0,,,,,n,1,1.2009764428778453,1509.3733294172584,None,,,,,001,70,2019_Oct_28_1704,ACPT_experiment_5_30_19,3.1.0,59.95473770123347,
,,,C,U,d,n,L,G,d,L,i,,,,,5,19,119,6,0,0,0,0,,,,,0,0,0,16,,,,,,up,2.652028274221493,1599.0417469477106,None,001,70,2019_Oct_28_1704,ACPT_experiment_5_30_19,3.1.0,59.95473770123347,
,,,C,U,d,n,R,G,y,R,y,,,,,5,19,119,6,0,0,0,0,,,,,0,1,1,29,,,,,,down,1.7346724457950131,1602.9780683709241,None,001,70,2019_Oct_28_1704,ACPT_experiment_5_30_19,3.1.0,59.95473770123347,
,,,C,U,d,n,R,U,d,L,u,,,,,5,19,119,6,0,0,0,0,,,,,0,2,2,8,,,,,,up,1.3510213741017196,1605.9970665661285,None,001,70,2019_Oct_28_1704,ACPT_experiment_5_30_19,3.1.0,59.95473770123347,
,,,C,U,d,n,L,U,d,L,u,,,,,5,19,119,6,0,0,0,0,,,,,0,3,3,20,,,,,,up,2.8521839714010184,1608.63240523768,None,001,70,2019_Oct_28_1704,ACPT_experiment_5_30_19,3.1.0,59.95473770123347,
,,,C,U,d,n,L,G,y,R,y,,,,,5,19,119,6,0,0,0,0,,,,,0,4,4,35,,,,,,down,2.0515753699014567,1612.7688739061127,None,001,70,2019_Oct_28_1704,ACPT_experiment_5_30_19,3.1.0,59.95473770123347,
,,,C,U,d,n,L,U,g,L,u,,,,,5,19,119,6,0,0,0,0,,,,,0,5,5,22,,,,,,up,1.2175932983202529,1616.1047711012993,None,001,70,2019_Oct_28_1704,ACPT_experiment_5_30_19,3.1.0,59.95473770123347,
,,,C,U,d,n,R,G,d,L,i,,,,,5,19,119,6,0,0,0,0,,,,,0,6,6,4,,,,,,down,1.1675510536122147,1618.6066804896464,None,001,70,2019_Oct_28_1704,ACPT_experiment_5_30_19,3.1.0,59.95473770123347,
,,,C,U,d,n,R,G,g,R,c ,,,,,5,19,119,6,0,0,0,0,,,,,0,7,7,7,,,,,,up,2.15166046302852,1621.0418489749432,None,001,70,2019_Oct_28_1704,ACPT_experiment_5_30_19,3.1.0,59.95473770123347,
,,,C,U,d,n,L,G,g,R,c ,,,,,5,19,119,6,0,0,0,0,,,,,0,8,8,19,,,,,,up,0.8840007715432421,1624.4778309614012,None,001,70,2019_Oct_28_1704,ACPT_experiment_5_30_19,3.1.0,59.95473770123347,
,,,C,U,d,n,L,G,d,R,i,,,,,5,19,119,6,0,0,0,0,,,,,0,9,9,17,,,,,,down,0.650475830261712,1626.6461601990559,None,001,70,2019_Oct_28_1704,ACPT_experiment_5_30_19,3.1.0,59.95473770123347,
,,,C,U,d,n,L,U,g,R,u,,,,,5,19,119,6,0,0,0,0,,,,,0,10,10,23,,,,,,down,1.1008355064429907,1628.5809569490357,None,001,70,2019_Oct_28_1704,ACPT_experiment_5_30_19,3.1.0,59.95473770123347,
,,,C,U,d,n,L,G,y,L,y,,,,,5,19,119,6,0,0,0,0,,,,,0,11,11,34,,,,,,down,0.9672094133102291,1630.9829472649003,None,001,70,2019_Oct_28_1704,ACPT_experiment_5_30_19,3.1.0,59.95473770123347,
,,,C,U,d,n,L,G,g,L,c ,,,,,5,19,119,6,0,0,0,0,,,,,0,12,12,18,,,,,,up,0.7172170351670957,1633.2511807841065,None,001,70,2019_Oct_28_1704,ACPT_experiment_5_30_19,3.1.0,59.95473770123347,
,,,C,U,d,n,L,D,d,L,c ,,,,,5,19,119,6,0,0,0,0,,,,,0,13,13,12,,,,,,up,0.9174077476100138,1635.2527015332157,None,001,70,2019_Oct_28_1704,ACPT_experiment_5_30_19,3.1.0,59.95473770123347,
,,,C,U,d,n,L,D,y,R,y,,,,,5,19,119,6,0,0,0,0,,,,,0,14,14,33,,,,,,down,0.7172348446545129,1637.4543616792957,None,001,70,2019_Oct_28_1704,ACPT_experiment_5_30_19,3.1.0,59.95473770123347,
,,,C,U,d,n,L,D,d,R,c ,,,,,5,19,119,6,0,0,0,0,,,,,0,15,15,13,,,,,,down,3.435947574906322,1639.45592438635,None,001,70,2019_Oct_28_1704,ACPT_experiment_5_30_19,3.1.0,59.95473770123347,
,,,C,U,d,n,R,U,g,R,u,,,,,5,19,119,6,0,0,0,0,,,,,0,16,16,11,,,,,,down,0.9007072781337229,1644.1761811086012,None,001,70,2019_Oct_28_1704,ACPT_experiment_5_30_19,3.1.0,59.95473770123347,
,,,C,U,d,n,R,D,g,R,i,,,,,5,19,119,6,0,0,0,0,,,,,0,17,17,3,,,,,,up,0.7505533769958674,1646.3611993452146,None,001,70,2019_Oct_28_1704,ACPT_experiment_5_30_19,3.1.0,59.95473770123347,
,,,C,U,d,n,R,G,d,R,i,,,,,5,19,119,6,0,0,0,0,,,,,0,18,18,5,,,,,,up,0.7838691926356205,1648.3961174110077,None,001,70,2019_Oct_28_1704,ACPT_experiment_5_30_19,3.1.0,59.95473770123347,
,,,C,U,d,n,R,D,y,L,y,,,,,5,19,119,6,0,0,0,0,,,,,0,19,19,26,,,,,,down,0.7672822209096921,1650.4642806582024,None,001,70,2019_Oct_28_1704,ACPT_experiment_5_30_19,3.1.0,59.95473770123347,
,,,C,U,d,n,L,U,d,R,u,,,,,5,19,119,6,0,0,0,0,,,,,0,20,20,21,,,,,,up,0.8840249200006838,1652.5158777617157,None,001,70,2019_Oct_28_1704,ACPT_experiment_5_30_19,3.1.0,59.95473770123347,
,,,C,U,d,n,R,D,d,L,c,,,,,5,19,119,6,0,0,0,0,,,,,0,21,21,0,,,,,,down,1.7847629874177073,1654.6841888880267,None,001,70,2019_Oct_28_1704,ACPT_experiment_5_30_19,3.1.0,59.95473770123347,
,,,C,U,d,n,L,D,g,L,i,,,,,5,19,119,6,0,0,0,0,,,,,0,22,22,14,,,,,,up,9.006871141717966,1657.7532006516462,None,001,70,2019_Oct_28_1704,ACPT_experiment_5_30_19,3.1.0,59.95473770123347,
,,,C,U,d,n,L,D,y,L,y,,,,,5,19,119,6,0,0,0,0,,,,,0,23,23,32,,,,,,down,0.7505877885478185,1668.044362829366,None,001,70,2019_Oct_28_1704,ACPT_experiment_5_30_19,3.1.0,59.95473770123347,
,,,C,U,d,n,R,G,g,L,c ,,,,,5,19,119,6,0,0,0,0,,,,,0,24,24,6,,,,,,up,0.8840013752546838,1670.0959490660734,None,001,70,2019_Oct_28_1704,ACPT_experiment_5_30_19,3.1.0,59.95473770123347,
,,,C,U,d,n,L,U,y,R,u,,,,,5,19,119,6,0,0,0,0,,,,,0,25,25,25,,,,,,down,0.6838637894181829,1672.2642680406334,None,001,70,2019_Oct_28_1704,ACPT_experiment_5_30_19,3.1.0,59.95473770123347,
,,,C,U,d,n,L,U,y,L,u,,,,,5,19,119,6,0,0,0,0,,,,,0,26,26,24,,,,,,down,0.733884300514319,1674.2324388644065,None,001,70,2019_Oct_28_1704,ACPT_experiment_5_30_19,3.1.0,59.95473770123347,
,,,C,U,d,n,R,U,y,R,u,,,,,5,19,119,6,0,0,0,0,,,,,0,27,27,31,,,,,,down,0.6505268438781968,1676.2506410660822,None,001,70,2019_Oct_28_1704,ACPT_experiment_5_30_19,3.1.0,59.95473770123347,
,,,C,U,d,n,R,U,g,L,u,,,,,5,19,119,6,0,0,0,0,,,,,0,28,28,10,,,,,,up,4.603512212025862,1678.185447475445,None,001,70,2019_Oct_28_1704,ACPT_experiment_5_30_19,3.1.0,59.95473770123347,
,,,C,U,d,n,R,U,d,R,u,,,,,5,19,119,6,0,0,0,0,,,,,0,29,29,9,,,,,,down,1.0341501448453982,1684.0565765154438,None,001,70,2019_Oct_28_1704,ACPT_experiment_5_30_19,3.1.0,59.95473770123347,
,,,C,U,d,n,R,D,g,L,i,,,,,5,19,119,6,0,0,0,0,,,,,0,30,30,2,,,,,,up,1.0007573559976208,1686.3750333927887,None,001,70,2019_Oct_28_1704,ACPT_experiment_5_30_19,3.1.0,59.95473770123347,
,,,C,U,d,n,L,D,g,R,i,,,,,5,19,119,6,0,0,0,0,,,,,0,31,31,15,,,,,,up,1.8180504286199266,1688.6601125740717,None,001,70,2019_Oct_28_1704,ACPT_experiment_5_30_19,3.1.0,59.95473770123347,
,,,C,U,d,n,R,D,d,R,c ,,,,,5,19,119,6,0,0,0,0,,,,,0,32,32,1,,,,,,down,0.9840810349787716,1691.7624718481811,None,001,70,2019_Oct_28_1704,ACPT_experiment_5_30_19,3.1.0,59.95473770123347,
,,,C,U,d,n,R,U,y,L,u,,,,,5,19,119,6,0,0,0,0,,,,,0,33,33,30,,,,,,down,0.7005319603324551,1694.030871689888,None,001,70,2019_Oct_28_1704,ACPT_experiment_5_30_19,3.1.0,59.95473770123347,
,,,C,U,d,n,R,D,y,R,y,,,,,5,19,119,6,0,0,0,0,,,,,0,34,34,27,,,,,,down,0.9340357717137522,1696.0157287959187,None,001,70,2019_Oct_28_1704,ACPT_experiment_5_30_19,3.1.0,59.95473770123347,
,,,C,U,d,n,R,G,y,L,y,,,,,5,19,119,6,0,0,0,0,,,,,0,35,35,28,,,,,,down,0.6504821692319638,1698.2340897133308,None,001,70,2019_Oct_28_1704,ACPT_experiment_5_30_19,3.1.0,59.95473770123347,
,,,C,U,d,n,R,G,g,L,c ,,,,,5,19,119,6,0,0,0,0,,,,,1,0,36,6,,,,,,up,1.1675395830948219,1700.1688943115591,None,001,70,2019_Oct_28_1704,ACPT_experiment_5_30_19,3.1.0,59.95473770123347,
,,,C,U,d,n,L,D,y,R,y,,,,,5,19,119,6,0,0,0,0,,,,,1,1,37,33,,,,,,down,0.6671922980910949,1702.6207321751936,None,001,70,2019_Oct_28_1704,ACPT_experiment_5_30_19,3.1.0,59.95473770123347,
,,,C,U,d,n,L,G,g,L,c ,,,,,5,19,119,6,0,0,0,0,,,,,1,2,38,18,,,,,,up,0.6671681496334259,1704.5722444874355,None,001,70,2019_Oct_28_1704,ACPT_experiment_5_30_19,3.1.0,59.95473770123347,
,,,C,U,d,n,L,D,g,R,i,,,,,5,19,119,6,0,0,0,0,,,,,1,3,39,15,,,,,,down,2.8688316161264993,1706.52374955514,None,001,70,2019_Oct_28_1704,ACPT_experiment_5_30_19,3.1.0,59.95473770123347,
,,,C,U,d,n,R,U,y,R,u,,,,,5,19,119,6,0,0,0,0,,,,,1,4,40,31,,,,,,down,0.5337346404489836,1710.6769011854176,None,001,70,2019_Oct_28_1704,ACPT_experiment_5_30_19,3.1.0,59.95473770123347,
,,,C,U,d,n,R,U,y,L,u,,,,,5,19,119,6,0,0,0,0,,,,,1,5,41,30,,,,,,down,0.6338067537801635,1712.4949564437293,None,001,70,2019_Oct_28_1704,ACPT_experiment_5_30_19,3.1.0,59.95473770123347,
,,,C,U,d,n,R,U,d,L,u,,,,,5,19,119,6,0,0,0,0,,,,,1,6,42,8,,,,,,down,0.6838508096222995,1714.4130814005262,None,001,70,2019_Oct_28_1704,ACPT_experiment_5_30_19,3.1.0,59.95473770123347,
,,,C,U,d,n,L,U,y,L,u,,,,,5,19,119,6,0,0,0,0,,,,,1,7,43,24,,,,,,down,0.7672453945117468,1716.3812513187322,None,001,70,2019_Oct_28_1704,ACPT_experiment_5_30_19,3.1.0,59.95473770123347,
,,,C,U,d,n,R,U,g,L,u,,,,,5,19,119,6,0,0,0,0,,,,,1,8,44,10,,,,,,down,0.6005181051550608,1718.4327940882163,None,001,70,2019_Oct_28_1704,ACPT_experiment_5_30_19,3.1.0,59.95473770123347,
,,,C,U,d,n,R,G,d,L,i,,,,,5,19,119,6,0,0,0,0,,,,,1,9,45,4,,,,,,down,0.5337292070462354,1720.3175902495773,None,001,70,2019_Oct_28_1704,ACPT_experiment_5_30_19,3.1.0,59.95473770123347,
,,,C,U,d,n,R,G,d,R,i,,,,,5,19,119,6,0,0,0,0,,,,,1,10,46,5,,,,,,up,1.03385100582841,1722.1359041982396,None,001,70,2019_Oct_28_1704,ACPT_experiment_5_30_19,3.1.0,59.95473770123347,
,,,C,U,d,n,R,D,d,L,c,,,,,5,19,119,6,0,0,0,0,,,,,1,11,47,0,,,,,,up,0.5671238070285654,1724.45404624007,None,001,70,2019_Oct_28_1704,ACPT_experiment_5_30_19,3.1.0,59.95473770123347,
,,,C,U,d,n,R,D,y,L,y,,,,,5,19,119,6,0,0,0,0,,,,,1,12,48,26,,,,,,up,0.5337473183892598,1726.3054719499064,None,001,70,2019_Oct_28_1704,ACPT_experiment_5_30_19,3.1.0,59.95473770123347,
,,,C,U,d,n,R,G,y,L,y,,,,,5,19,119,6,0,0,0,0,,,,,1,13,49,28,,,,,,down,0.8506414886799121,1728.1068635651395,None,001,70,2019_Oct_28_1704,ACPT_experiment_5_30_19,3.1.0,59.95473770123347,
,,,C,U,d,n,L,U,g,L,u,,,,,5,19,119,6,0,0,0,0,,,,,1,14,50,22,,,,,,up,0.8006034699521933,1730.241825671682,None,001,70,2019_Oct_28_1704,ACPT_experiment_5_30_19,3.1.0,59.95473770123347,
,,,C,U,d,n,L,U,d,R,u,,,,,5,19,119,6,0,0,0,0,,,,,1,15,51,21,,,,,,up,0.6838758636470175,1732.3100405362043,None,001,70,2019_Oct_28_1704,ACPT_experiment_5_30_19,3.1.0,59.95473770123347,
,,,C,U,d,n,L,G,d,R,i,,,,,5,19,119,6,0,0,0,0,,,,,1,16,52,17,,,,,,down,1.100860258611874,1734.2782361121467,None,001,70,2019_Oct_28_1704,ACPT_experiment_5_30_19,3.1.0,59.95473770123347,
,,,C,U,d,n,R,G,y,R,y,,,,,5,19,119,6,0,0,0,0,,,,,1,17,53,29,,,,,,down,0.7506071073137264,1736.6633689935616,None,001,70,2019_Oct_28_1704,ACPT_experiment_5_30_19,3.1.0,59.95473770123347,
,,,C,U,d,n,L,D,y,L,y,,,,,5,19,119,6,0,0,0,0,,,,,1,18,54,32,,,,,,down,0.9673455502393153,1738.6983139245135,None,001,70,2019_Oct_28_1704,ACPT_experiment_5_30_19,3.1.0,59.95473770123347,
,,,C,U,d,n,L,G,d,L,i,,,,,5,19,119,6,0,0,0,0,,,,,1,19,55,16,,,,,,up,0.7172094887741878,1740.9499858278741,None,001,70,2019_Oct_28_1704,ACPT_experiment_5_30_19,3.1.0,59.95473770123347,
,,,C,U,d,n,R,D,g,L,i,,,,,5,19,119,6,0,0,0,0,,,,,1,20,56,2,,,,,,down,1.317669335775463,1742.9515105011078,None,001,70,2019_Oct_28_1704,ACPT_experiment_5_30_19,3.1.0,59.95473770123347,
,,,C,U,d,n,R,D,y,R,y,,,,,5,19,119,6,0,0,0,0,,,,,1,21,57,27,,,,,,down,0.950755559955951,1745.536797268568,None,001,70,2019_Oct_28_1704,ACPT_experiment_5_30_19,3.1.0,59.95473770123347,
,,,C,U,d,n,L,U,d,L,u,,,,,5,19,119,6,0,0,0,0,,,,,1,22,58,20,,,,,,up,0.917366091520762,1747.7718562406103,None,001,70,2019_Oct_28_1704,ACPT_experiment_5_30_19,3.1.0,59.95473770123347,
,,,C,U,d,n,R,G,g,R,c ,,,,,5,19,119,6,0,0,0,0,,,,,1,23,59,7,,,,,,down,0.6004912399960176,1749.9735172922578,None,001,70,2019_Oct_28_1704,ACPT_experiment_5_30_19,3.1.0,59.95473770123347,
,,,C,U,d,n,L,D,d,R,c ,,,,,5,19,119,6,0,0,0,0,,,,,1,24,60,13,,,,,,down,0.7005177731136882,1751.8583179814545,None,001,70,2019_Oct_28_1704,ACPT_experiment_5_30_19,3.1.0,59.95473770123347,
,,,C,U,d,n,L,D,d,L,c ,,,,,5,19,119,6,0,0,0,0,,,,,1,25,61,12,,,,,,up,0.7672716559593482,1753.8264516769746,None,001,70,2019_Oct_28_1704,ACPT_experiment_5_30_19,3.1.0,59.95473770123347,
,,,C,U,d,n,R,D,g,R,i,,,,,5,19,119,6,0,0,0,0,,,,,1,26,62,3,,,,,,up,0.9340490533652428,1755.878037913682,None,001,70,2019_Oct_28_1704,ACPT_experiment_5_30_19,3.1.0,59.95473770123347,
,,,C,U,d,n,L,D,g,L,i,,,,,5,19,119,6,0,0,0,0,,,,,1,27,63,14,,,,,,up,0.9840759034314033,1758.096413018313,None,001,70,2019_Oct_28_1704,ACPT_experiment_5_30_19,3.1.0,59.95473770123347,
,,,C,U,d,n,R,U,g,R,u,,,,,5,19,119,6,0,0,0,0,,,,,1,28,64,11,,,,,,down,0.8172954874683,1760.3647953523878,None,001,70,2019_Oct_28_1704,ACPT_experiment_5_30_19,3.1.0,59.95473770123347,
,,,C,U,d,n,R,U,d,R,u,,,,,5,19,119,6,0,0,0,0,,,,,1,29,65,9,,,,,,up,0.6838674116868333,1762.4496983103022,None,001,70,2019_Oct_28_1704,ACPT_experiment_5_30_19,3.1.0,59.95473770123347,
,,,C,U,d,n,L,G,y,L,y,,,,,5,19,119,6,0,0,0,0,,,,,1,30,66,34,,,,,,down,0.8506547703316301,1764.4178775860355,None,001,70,2019_Oct_28_1704,ACPT_experiment_5_30_19,3.1.0,59.95473770123347,
,,,C,U,d,n,L,U,g,R,u,,,,,5,19,119,6,0,0,0,0,,,,,1,31,67,23,,,,,,up,0.767223660900072,1766.5528629354685,None,001,70,2019_Oct_28_1704,ACPT_experiment_5_30_19,3.1.0,59.95473770123347,
,,,C,U,d,n,L,G,g,R,c ,,,,,5,19,119,6,0,0,0,0,,,,,1,32,68,19,,,,,,up,0.8506493369286545,1768.6044084216537,None,001,70,2019_Oct_28_1704,ACPT_experiment_5_30_19,3.1.0,59.95473770123347,
,,,C,U,d,n,R,D,d,R,c ,,,,,5,19,119,6,0,0,0,0,,,,,1,33,69,1,,,,,,up,0.6668668976265053,1770.7563366307045,None,001,70,2019_Oct_28_1704,ACPT_experiment_5_30_19,3.1.0,59.95473770123347,
,,,C,U,d,n,L,U,y,R,u,,,,,5,19,119,6,0,0,0,0,,,,,1,34,70,25,,,,,,down,0.717081200093844,1772.724315172385,None,001,70,2019_Oct_28_1704,ACPT_experiment_5_30_19,3.1.0,59.95473770123347,
,,,C,U,d,n,L,G,y,R,y,,,,,5,19,119,6,0,0,0,0,,,,,1,35,71,35,,,,,,down,0.8173151080900425,1774.7423999521861,None,001,70,2019_Oct_28_1704,ACPT_experiment_5_30_19,3.1.0,59.95473770123347,
,,,C,U,d,n,,,,,,,,,,5,19,119,6,1,0,1,0,0,0,0,0,,,,,,,,,,,,,,001,70,2019_Oct_28_1704,ACPT_experiment_5_30_19,3.1.0,59.95473770123347,
,,,C,U,d,n,L,D,d,L,c ,,,,,5,19,119,6,1,0,1,0,,,,,0,0,0,12,,,,,,down,1.0672401724079918,1820.7611059510555,None,001,70,2019_Oct_28_1704,ACPT_experiment_5_30_19,3.1.0,59.95473770123347,
,,,C,U,d,n,L,G,y,R,y,,,,,5,19,119,6,1,0,1,0,,,,,0,1,1,35,,,,,,down,0.5837738665995857,1823.1126528559626,None,001,70,2019_Oct_28_1704,ACPT_experiment_5_30_19,3.1.0,59.95473770123347,
,,,C,U,d,n,L,G,d,R,i,,,,,5,19,119,6,1,0,1,0,,,,,0,2,2,17,,,,,,up,0.8339878068402413,1824.9807195696985,None,001,70,2019_Oct_28_1704,ACPT_experiment_5_30_19,3.1.0,59.95473770123347,
,,,C,U,d,n,R,D,d,L,c,,,,,5,19,119,6,1,0,1,0,,,,,0,3,3,0,,,,,,up,0.7505917126718487,1827.0989993181079,None,001,70,2019_Oct_28_1704,ACPT_experiment_5_30_19,3.1.0,59.95473770123347,
,,,C,U,d,n,L,D,d,R,c ,,,,,5,19,119,6,1,0,1,0,,,,,0,4,4,13,,,,,,down,0.7839398268738478,1829.1339131579207,None,001,70,2019_Oct_28_1704,ACPT_experiment_5_30_19,3.1.0,59.95473770123347,
,,,C,U,d,n,L,U,d,L,u,,,,,5,19,119,6,1,0,1,0,,,,,0,5,5,20,,,,,,up,0.8506463183716733,1831.202156396881,None,001,70,2019_Oct_28_1704,ACPT_experiment_5_30_19,3.1.0,59.95473770123347,
,,,C,U,d,n,R,G,y,R,y,,,,,5,19,119,6,1,0,1,0,,,,,0,6,6,29,,,,,,down,0.6671618106634014,1833.3371320869305,None,001,70,2019_Oct_28_1704,ACPT_experiment_5_30_19,3.1.0,59.95473770123347,
,,,C,U,d,n,R,D,g,R,i,,,,,5,19,119,6,1,0,1,0,,,,,0,7,7,3,,,,,,up,0.6504936397491292,1835.2886042523623,None,001,70,2019_Oct_28_1704,ACPT_experiment_5_30_19,3.1.0,59.95473770123347,
,,,C,U,d,n,R,U,d,L,u,,,,,5,19,119,6,1,0,1,0,,,,,0,8,8,8,,,,,,down,0.7172109980529058,1837.2234173025508,None,001,70,2019_Oct_28_1704,ACPT_experiment_5_30_19,3.1.0,59.95473770123347,
,,,C,U,d,n,R,D,y,R,y,,,,,5,19,119,6,1,0,1,0,,,,,0,9,9,27,,,,,,down,0.6335429318824026,1839.2418926836513,None,001,70,2019_Oct_28_1704,ACPT_experiment_5_30_19,3.1.0,59.95473770123347,
,,,C,U,d,n,L,D,y,L,y,,,,,5,19,119,6,1,0,1,0,,,,,0,10,10,32,,,,,,down,0.7172125073316238,1841.1597523092714,None,001,70,2019_Oct_28_1704,ACPT_experiment_5_30_19,3.1.0,59.95473770123347,
,,,C,U,d,n,R,U,g,L,u,,,,,5,19,119,6,1,0,1,0,,,,,0,11,11,10,,,,,,up,0.9507271855181898,1843.1612712472465,None,001,70,2019_Oct_28_1704,ACPT_experiment_5_30_19,3.1.0,59.95473770123347,
,,,C,U,d,n,R,G,d,L,i,,,,,5,19,119,6,1,0,1,0,,,,,0,12,12,4,,,,,,up,0.884044238766819,1845.3963048634087,None,001,70,2019_Oct_28_1704,ACPT_experiment_5_30_19,3.1.0,59.95473770123347,
,,,C,U,d,n,R,D,d,R,c ,,,,,5,19,119,6,1,0,1,0,,,,,0,13,13,1,,,,,,up,0.7839434491420434,1847.5479481206612,None,001,70,2019_Oct_28_1704,ACPT_experiment_5_30_19,3.1.0,59.95473770123347,
,,,C,U,d,n,R,U,y,R,u,,,,,5,19,119,6,1,0,1,0,,,,,0,14,14,31,,,,,,down,0.8339769400345176,1849.6161838132284,None,001,70,2019_Oct_28_1704,ACPT_experiment_5_30_19,3.1.0,59.95473770123347,
,,,C,U,d,n,R,G,d,R,i,,,,,5,19,119,6,1,0,1,0,,,,,0,15,15,5,,,,,,up,0.70030677596651,1851.7514145713603,None,001,70,2019_Oct_28_1704,ACPT_experiment_5_30_19,3.1.0,59.95473770123347,
,,,C,U,d,n,L,U,g,L,u,,,,,5,19,119,6,1,0,1,0,,,,,0,16,16,22,,,,,,up,1.0007824100216567,1853.7359861218815,None,001,70,2019_Oct_28_1704,ACPT_experiment_5_30_19,3.1.0,59.95473770123347,
,,,C,U,d,n,R,G,y,L,y,,,,,5,19,119,6,1,0,1,0,,,,,0,17,17,28,,,,,,down,0.7839534103809456,1856.0210607753284,None,001,70,2019_Oct_28_1704,ACPT_experiment_5_30_19,3.1.0,59.95473770123347,
,,,C,U,d,n,R,D,g,L,i,,,,,5,19,119,6,1,0,1,0,,,,,0,18,18,2,,,,,,up,0.7505950330851192,1858.0893037124329,None,001,70,2019_Oct_28_1704,ACPT_experiment_5_30_19,3.1.0,59.95473770123347,
,,,C,U,d,n,R,G,g,L,c ,,,,,5,19,119,6,1,0,1,0,,,,,0,19,19,6,,,,,,up,0.8673407507330921,1860.12419823348,None,001,70,2019_Oct_28_1704,ACPT_experiment_5_30_19,3.1.0,59.95473770123347,
,,,C,U,d,n,L,G,d,L,i,,,,,5,19,119,6,1,0,1,0,,,,,0,20,20,16,,,,,,down,0.7505739031848861,1862.2758556779513,None,001,70,2019_Oct_28_1704,ACPT_experiment_5_30_19,3.1.0,59.95473770123347,
,,,C,U,d,n,R,U,d,R,u,,,,,5,19,119,6,1,0,1,0,,,,,0,21,21,9,,,,,,up,1.0841546575884422,1864.3107414451824,None,001,70,2019_Oct_28_1704,ACPT_experiment_5_30_19,3.1.0,59.95473770123347,
,,,C,U,d,n,L,U,y,L,u,,,,,5,19,119,6,1,0,1,0,,,,,0,22,22,24,,,,,,down,1.4177372231265508,1866.679217928056,None,001,70,2019_Oct_28_1704,ACPT_experiment_5_30_19,3.1.0,59.95473770123347,
,,,C,U,d,n,L,G,g,R,c ,,,,,5,19,119,6,1,0,1,0,,,,,0,23,23,19,,,,,,up,1.06747471430117,1869.381277278324,None,001,70,2019_Oct_28_1704,ACPT_experiment_5_30_19,3.1.0,59.95473770123347,
,,,C,U,d,n,R,U,y,L,u,,,,,5,19,119,6,1,0,1,0,,,,,0,24,24,30,,,,,,down,0.8006288258325185,1871.7330698937858,None,001,70,2019_Oct_28_1704,ACPT_experiment_5_30_19,3.1.0,59.95473770123347,
,,,C,U,d,n,R,D,y,L,y,,,,,5,19,119,6,1,0,1,0,,,,,0,25,25,26,,,,,,down,1.1341135901179769,1873.8179927741776,None,001,70,2019_Oct_28_1704,ACPT_experiment_5_30_19,3.1.0,59.95473770123347,
,,,C,U,d,n,L,D,g,L,i,,,,,5,19,119,6,1,0,1,0,,,,,0,26,26,14,,,,,,up,0.8673341099074605,1876.2364955034063,None,001,70,2019_Oct_28_1704,ACPT_experiment_5_30_19,3.1.0,59.95473770123347,
,,,C,U,d,n,R,G,g,R,c ,,,,,5,19,119,6,1,0,1,0,,,,,0,27,27,7,,,,,,down,0.9006740740046553,1878.3881553627234,None,001,70,2019_Oct_28_1704,ACPT_experiment_5_30_19,3.1.0,59.95473770123347,
,,,C,U,d,n,L,U,y,R,u,,,,,5,19,119,6,1,0,1,0,,,,,0,28,28,25,,,,,,down,0.833962752815296,1880.5898260737536,None,001,70,2019_Oct_28_1704,ACPT_experiment_5_30_19,3.1.0,59.95473770123347,
,,,C,U,d,n,L,U,g,R,u,,,,,5,19,119,6,1,0,1,0,,,,,0,29,29,23,,,,,,down,0.6838619782838578,1882.7247833506044,None,001,70,2019_Oct_28_1704,ACPT_experiment_5_30_19,3.1.0,59.95473770123347,
,,,C,U,d,n,L,D,g,R,i,,,,,5,19,119,6,1,0,1,0,,,,,0,30,30,15,,,,,,up,0.8006152423254207,1884.6929448168503,None,001,70,2019_Oct_28_1704,ACPT_experiment_5_30_19,3.1.0,59.95473770123347,
,,,C,U,d,n,L,G,y,L,y,,,,,5,19,119,6,1,0,1,0,,,,,0,31,31,34,,,,,,down,0.667191996235033,1886.777876752914,None,001,70,2019_Oct_28_1704,ACPT_experiment_5_30_19,3.1.0,59.95473770123347,
,,,C,U,d,n,L,U,d,R,u,,,,,5,19,119,6,1,0,1,0,,,,,0,32,32,21,,,,,,up,0.6838607708609743,1888.729356464738,None,001,70,2019_Oct_28_1704,ACPT_experiment_5_30_19,3.1.0,59.95473770123347,
,,,C,U,d,n,L,D,y,R,y,,,,,5,19,119,6,1,0,1,0,,,,,0,33,33,33,,,,,,down,0.5336196334205852,1890.697533325626,None,001,70,2019_Oct_28_1704,ACPT_experiment_5_30_19,3.1.0,59.95473770123347,
,,,C,U,d,n,L,G,g,L,c ,,,,,5,19,119,6,1,0,1,0,,,,,0,34,34,18,,,,,,down,0.8506511480627523,1892.5155849616685,None,001,70,2019_Oct_28_1704,ACPT_experiment_5_30_19,3.1.0,59.95473770123347,
,,,C,U,d,n,R,U,g,R,u,,,,,5,19,119,6,1,0,1,0,,,,,0,35,35,11,,,,,,up,0.8669522624236379,1894.6676106701166,None,001,70,2019_Oct_28_1704,ACPT_experiment_5_30_19,3.1.0,59.95473770123347,
,,,C,U,d,n,R,G,y,R,y,,,,,5,19,119,6,1,0,1,0,,,,,1,0,36,29,,,,,,down,0.6671932036579165,1896.8188672501938,None,001,70,2019_Oct_28_1704,ACPT_experiment_5_30_19,3.1.0,59.95473770123347,
,,,C,U,d,n,L,D,g,L,i,,,,,5,19,119,6,1,0,1,0,,,,,1,1,37,14,,,,,,up,1.0508095619443338,1898.7703511879981,None,001,70,2019_Oct_28_1704,ACPT_experiment_5_30_19,3.1.0,59.95473770123347,
,,,C,U,d,n,L,D,d,L,c ,,,,,5,19,119,6,1,0,1,0,,,,,1,2,38,12,,,,,,down,0.8837417793365603,1901.1057349266084,None,001,70,2019_Oct_28_1704,ACPT_experiment_5_30_19,3.1.0,59.95473770123347,
,,,C,U,d,n,R,G,g,L,c ,,,,,5,19,119,6,1,0,1,0,,,,,1,3,39,6,,,,,,up,3.185812419008016,1903.2737900792704,None,001,70,2019_Oct_28_1704,ACPT_experiment_5_30_19,3.1.0,59.95473770123347,
,,,C,U,d,n,R,D,d,R,c ,,,,,5,19,119,6,1,0,1,0,,,,,1,4,40,1,,,,,,down,2.0849228803917867,1907.7438657635544,None,001,70,2019_Oct_28_1704,ACPT_experiment_5_30_19,3.1.0,59.95473770123347,
,,,C,U,d,n,L,D,y,L,y,,,,,5,19,119,6,1,0,1,0,,,,,1,5,41,32,,,,,,down,0.9674282587061498,1911.1130796799484,None,001,70,2019_Oct_28_1704,ACPT_experiment_5_30_19,3.1.0,59.95473770123347,
,,,C,U,d,n,L,G,d,L,i,,,,,5,19,119,6,1,0,1,0,,,,,1,6,42,16,,,,,,down,0.9674056195271987,1913.3648188971338,None,001,70,2019_Oct_28_1704,ACPT_experiment_5_30_19,3.1.0,59.95473770123347,
,,,C,U,d,n,R,U,g,R,u,,,,,5,19,119,6,1,0,1,0,,,,,1,7,43,11,,,,,,up,0.7505971460750516,1915.6165372862747,None,001,70,2019_Oct_28_1704,ACPT_experiment_5_30_19,3.1.0,59.95473770123347,
,,,C,U,d,n,L,U,y,R,u,,,,,5,19,119,6,1,0,1,0,,,,,1,8,44,25,,,,,,down,1.1175272221030355,1917.651417620103,None,001,70,2019_Oct_28_1704,ACPT_experiment_5_30_19,3.1.0,59.95473770123347,
,,,C,U,d,n,L,G,g,R,c ,,,,,5,19,119,6,1,0,1,0,,,,,1,9,45,19,,,,,,up,0.7338942617529938,1920.0532506691384,None,001,70,2019_Oct_28_1704,ACPT_experiment_5_30_19,3.1.0,59.95473770123347,
,,,C,U,d,n,R,U,g,L,u,,,,,5,19,119,6,1,0,1,0,,,,,1,10,46,10,,,,,,up,0.8506701649735078,1922.0547569291734,None,001,70,2019_Oct_28_1704,ACPT_experiment_5_30_19,3.1.0,59.95473770123347,
,,,C,U,d,n,L,U,y,L,u,,,,,5,19,119,6,1,0,1,0,,,,,1,11,47,24,,,,,,down,0.6671729793247323,1924.1897380526261,None,001,70,2019_Oct_28_1704,ACPT_experiment_5_30_19,3.1.0,59.95473770123347,
,,,C,U,d,n,R,D,g,R,i,,,,,5,19,119,6,1,0,1,0,,,,,1,12,48,3,,,,,,up,0.8172924689110914,1926.1412316498136,None,001,70,2019_Oct_28_1704,ACPT_experiment_5_30_19,3.1.0,59.95473770123347,
,,,C,U,d,n,L,U,g,R,u,,,,,5,19,119,6,1,0,1,0,,,,,1,13,49,23,,,,,,up,0.6504912249033623,1928.2428290400899,None,001,70,2019_Oct_28_1704,ACPT_experiment_5_30_19,3.1.0,59.95473770123347,
,,,C,U,d,n,R,D,y,R,y,,,,,5,19,119,6,1,0,1,0,,,,,1,14,50,27,,,,,,down,0.5337430924091677,1930.1943190150087,None,001,70,2019_Oct_28_1704,ACPT_experiment_5_30_19,3.1.0,59.95473770123347,
,,,C,U,d,n,L,U,g,L,u,,,,,5,19,119,6,1,0,1,0,,,,,1,15,51,22,,,,,,up,0.7839129617145772,1932.0457462341233,None,001,70,2019_Oct_28_1704,ACPT_experiment_5_30_19,3.1.0,59.95473770123347,
,,,C,U,d,n,R,U,d,R,u,,,,,5,19,119,6,1,0,1,0,,,,,1,16,52,9,,,,,,up,0.733909052682975,1934.113951439263,None,001,70,2019_Oct_28_1704,ACPT_experiment_5_30_19,3.1.0,59.95473770123347,
,,,C,U,d,n,L,U,d,L,u,,,,,5,19,119,6,1,0,1,0,,,,,1,17,53,20,,,,,,down,0.8339618472482471,1936.1321838265103,None,001,70,2019_Oct_28_1704,ACPT_experiment_5_30_19,3.1.0,59.95473770123347,
,,,C,U,d,n,R,U,y,L,u,,,,,5,19,119,6,1,0,1,0,,,,,1,18,54,30,,,,,,down,0.6338185261533908,1938.2504581415164,None,001,70,2019_Oct_28_1704,ACPT_experiment_5_30_19,3.1.0,59.95473770123347,
,,,C,U,d,n,R,G,d,L,i,,,,,5,19,119,6,1,0,1,0,,,,,1,19,55,4,,,,,,up,0.9173842028640138,1940.1685885317165,None,001,70,2019_Oct_28_1704,ACPT_experiment_5_30_19,3.1.0,59.95473770123347,
,,,C,U,d,n,L,G,y,R,y,,,,,5,19,119,6,1,0,1,0,,,,,1,20,56,35,,,,,,down,0.9674167881889844,1942.370255620478,None,001,70,2019_Oct_28_1704,ACPT_experiment_5_30_19,3.1.0,59.95473770123347,
,,,C,U,d,n,R,G,g,R,c ,,,,,5,19,119,6,1,0,1,0,,,,,1,21,57,7,,,,,,up,0.9006903742133545,1944.6219863857032,None,001,70,2019_Oct_28_1704,ACPT_experiment_5_30_19,3.1.0,59.95473770123347,
,,,C,U,d,n,R,D,y,L,y,,,,,5,19,119,6,1,0,1,0,,,,,1,22,58,26,,,,,,down,0.900682827820674,1946.806985907262,None,001,70,2019_Oct_28_1704,ACPT_experiment_5_30_19,3.1.0,59.95473770123347,
,,,C,U,d,n,R,U,d,L,u,,,,,5,19,119,6,1,0,1,0,,,,,1,23,59,8,,,,,,up,0.683842961373557,1948.9919953900594,None,001,70,2019_Oct_28_1704,ACPT_experiment_5_30_19,3.1.0,59.95473770123347,
,,,C,U,d,n,L,G,d,R,i,,,,,5,19,119,6,1,0,1,0,,,,,1,24,60,17,,,,,,up,0.7338990914445276,1950.9601468950668,None,001,70,2019_Oct_28_1704,ACPT_experiment_5_30_19,3.1.0,59.95473770123347,
,,,C,U,d,n,R,D,d,L,c,,,,,5,19,119,6,1,0,1,0,,,,,1,25,61,0,,,,,,up,0.6671750923146647,1952.9783560394235,None,001,70,2019_Oct_28_1704,ACPT_experiment_5_30_19,3.1.0,59.95473770123347,
,,,C,U,d,n,L,D,d,R,c ,,,,,5,19,119,6,1,0,1,0,,,,,1,26,62,13,,,,,,up,0.7505844681345479,1954.929823978875,None,001,70,2019_Oct_28_1704,ACPT_experiment_5_30_19,3.1.0,59.95473770123347,
,,,C,U,d,n,R,G,y,L,y,,,,,5,19,119,6,1,0,1,0,,,,,1,27,63,28,,,,,,down,0.6171533737960999,1956.964708840539,None,001,70,2019_Oct_28_1704,ACPT_experiment_5_30_19,3.1.0,59.95473770123347,
,,,C,U,d,n,R,D,g,L,i,,,,,5,19,119,6,1,0,1,0,,,,,1,28,64,2,,,,,,down,0.7839214136747614,1958.866185548899,None,001,70,2019_Oct_28_1704,ACPT_experiment_5_30_19,3.1.0,59.95473770123347,
,,,C,U,d,n,L,G,g,L,c ,,,,,5,19,119,6,1,0,1,0,,,,,1,29,65,18,,,,,,up,0.6671796201508187,1960.9344197321875,None,001,70,2019_Oct_28_1704,ACPT_experiment_5_30_19,3.1.0,59.95473770123347,
,,,C,U,d,n,L,U,d,R,u,,,,,5,19,119,6,1,0,1,0,,,,,1,30,66,21,,,,,,up,0.7171965089783043,1962.885923894325,None,001,70,2019_Oct_28_1704,ACPT_experiment_5_30_19,3.1.0,59.95473770123347,
,,,C,U,d,n,R,U,y,R,u,,,,,5,19,119,6,1,0,1,0,,,,,1,31,67,31,,,,,,down,0.5504160930154285,1964.9208178116605,None,001,70,2019_Oct_28_1704,ACPT_experiment_5_30_19,3.1.0,59.95473770123347,
,,,C,U,d,n,L,D,y,R,y,,,,,5,19,119,6,1,0,1,0,,,,,1,32,68,33,,,,,,down,0.5670942251681481,1966.7555207146975,None,001,70,2019_Oct_28_1704,ACPT_experiment_5_30_19,3.1.0,59.95473770123347,
,,,C,U,d,n,R,G,d,R,i,,,,,5,19,119,6,1,0,1,0,,,,,1,33,69,5,,,,,,down,0.6671693570565367,1968.6236296882344,None,001,70,2019_Oct_28_1704,ACPT_experiment_5_30_19,3.1.0,59.95473770123347,
,,,C,U,d,n,L,G,y,L,y,,,,,5,19,119,6,1,0,1,0,,,,,1,34,70,34,,,,,,down,0.8006200720164998,1970.5751048722227,None,001,70,2019_Oct_28_1704,ACPT_experiment_5_30_19,3.1.0,59.95473770123347,
,,,C,U,d,n,L,D,g,R,i,,,,,5,19,119,6,1,0,1,0,,,,,1,35,71,15,,,,,,up,0.716983700696801,1972.6769612547055,None,001,70,2019_Oct_28_1704,ACPT_experiment_5_30_19,3.1.0,59.95473770123347,
,,,C,U,d,n,,,,,,,,,,5,19,119,6,2,0,2,0,0,0,0,0,,,,,,,,,,,,,,001,70,2019_Oct_28_1704,ACPT_experiment_5_30_19,3.1.0,59.95473770123347,
,,,C,U,d,n,R,D,d,L,c,,,,,5,19,119,6,2,0,2,0,,,,,0,0,0,0,,,,,,down,0.783653667652743,1989.9401528778471,None,001,70,2019_Oct_28_1704,ACPT_experiment_5_30_19,3.1.0,59.95473770123347,
,,,C,U,d,n,R,G,g,L,c ,,,,,5,19,119,6,2,0,2,0,,,,,0,1,1,6,,,,,,down,0.7505699790604012,1992.0081232392376,None,001,70,2019_Oct_28_1704,ACPT_experiment_5_30_19,3.1.0,59.95473770123347,
,,,C,U,d,n,L,G,g,L,c ,,,,,5,19,119,6,2,0,2,0,,,,,0,2,2,18,,,,,,down,0.5504435618854586,1994.0263284594703,None,001,70,2019_Oct_28_1704,ACPT_experiment_5_30_19,3.1.0,59.95473770123347,
,,,C,U,d,n,L,G,g,R,c ,,,,,5,19,119,6,2,0,2,0,,,,,0,3,3,19,,,,,,up,0.4336643382521288,1995.8443806992245,None,001,70,2019_Oct_28_1704,ACPT_experiment_5_30_19,3.1.0,59.95473770123347,
,,,C,U,d,n,L,G,y,R,y,,,,,5,19,119,6,2,0,2,0,,,,,0,4,4,35,,,,,,down,0.5837645090723527,1997.562370183175,None,001,70,2019_Oct_28_1704,ACPT_experiment_5_30_19,3.1.0,59.95473770123347,
,,,C,U,d,n,L,D,g,R,i,,,,,5,19,119,6,2,0,2,0,,,,,0,5,5,15,,,,,,up,0.6004547154543616,1999.4304453488712,None,001,70,2019_Oct_28_1704,ACPT_experiment_5_30_19,3.1.0,59.95473770123347,
,,,C,U,d,n,R,U,g,R,u,,,,,5,19,119,6,2,0,2,0,,,,,0,6,6,11,,,,,,up,0.6004523006085947,2001.315219172909,None,001,70,2019_Oct_28_1704,ACPT_experiment_5_30_19,3.1.0,59.95473770123347,
,,,C,U,d,n,R,U,y,L,u,,,,,5,19,119,6,2,0,2,0,,,,,0,7,7,30,,,,,,down,0.5804332293641892,2003.220003918087,None,001,70,2019_Oct_28_1704,ACPT_experiment_5_30_19,3.1.0,59.95473770123347,
,,,C,U,d,n,R,G,d,R,i,,,,,5,19,119,6,2,0,2,0,,,,,0,8,8,5,,,,,,up,0.7172221667142367,2005.0847689339753,None,001,70,2019_Oct_28_1704,ACPT_experiment_5_30_19,3.1.0,59.95473770123347,
,,,C,U,d,n,L,D,d,R,c ,,,,,5,19,119,6,2,0,2,0,,,,,0,9,9,13,,,,,,up,0.5003804891330219,2007.0696085323743,None,001,70,2019_Oct_28_1704,ACPT_experiment_5_30_19,3.1.0,59.95473770123347,
,,,C,U,d,n,R,D,g,R,i,,,,,5,19,119,6,2,0,2,0,,,,,0,10,10,3,,,,,,up,0.6838535263241283,2008.854310544937,None,001,70,2019_Oct_28_1704,ACPT_experiment_5_30_19,3.1.0,59.95473770123347,
,,,C,U,d,n,L,G,d,R,i,,,,,5,19,119,6,2,0,2,0,,,,,0,11,11,17,,,,,,down,0.667175394170954,2010.8224717093271,None,001,70,2019_Oct_28_1704,ACPT_experiment_5_30_19,3.1.0,59.95473770123347,
,,,C,U,d,n,L,D,y,L,y,,,,,5,19,119,6,2,0,2,0,,,,,0,12,12,32,,,,,,down,0.8006125256238192,2012.7739568545549,None,001,70,2019_Oct_28_1704,ACPT_experiment_5_30_19,3.1.0,59.95473770123347,
,,,C,U,d,n,R,U,g,L,u,,,,,5,19,119,6,2,0,2,0,,,,,0,13,13,10,,,,,,up,0.7172070739284209,2014.8588875831952,None,001,70,2019_Oct_28_1704,ACPT_experiment_5_30_19,3.1.0,59.95473770123347,
,,,C,U,d,n,R,U,d,L,u,,,,,5,19,119,6,2,0,2,0,,,,,0,14,14,8,,,,,,up,0.6671651310762172,2016.8604152749858,None,001,70,2019_Oct_28_1704,ACPT_experiment_5_30_19,3.1.0,59.95473770123347,
,,,C,U,d,n,R,D,y,R,y,,,,,5,19,119,6,2,0,2,0,,,,,0,15,15,27,,,,,,down,0.6504863952118285,2018.8119031369147,None,001,70,2019_Oct_28_1704,ACPT_experiment_5_30_19,3.1.0,59.95473770123347,
,,,C,U,d,n,R,G,y,L,y,,,,,5,19,119,6,2,0,2,0,,,,,0,16,16,28,,,,,,down,0.8172873373641778,2020.746705924009,None,001,70,2019_Oct_28_1704,ACPT_experiment_5_30_19,3.1.0,59.95473770123347,
,,,C,U,d,n,L,U,y,L,u,,,,,5,19,119,6,2,0,2,0,,,,,0,17,17,24,,,,,,down,0.6171210752340812,2022.8649962373684,None,001,70,2019_Oct_28_1704,ACPT_experiment_5_30_19,3.1.0,59.95473770123347,
,,,C,U,d,n,L,G,d,L,i,,,,,5,19,119,6,2,0,2,0,,,,,0,18,18,16,,,,,,up,0.667160603240518,2024.799803854154,None,001,70,2019_Oct_28_1704,ACPT_experiment_5_30_19,3.1.0,59.95473770123347,
,,,C,U,d,n,R,U,d,R,u,,,,,5,19,119,6,2,0,2,0,,,,,0,19,19,9,,,,,,up,2.101623953579292,2026.7512823585557,None,001,70,2019_Oct_28_1704,ACPT_experiment_5_30_19,3.1.0,59.95473770123347,
,,,C,U,d,n,R,G,g,R,c ,,,,,5,19,119,6,2,0,2,0,,,,,0,20,20,7,,,,,,down,1.0341241852538587,2030.1372033852513,None,001,70,2019_Oct_28_1704,ACPT_experiment_5_30_19,3.1.0,59.95473770123347,
,,,C,U,d,n,L,D,d,L,c ,,,,,5,19,119,6,2,0,2,0,,,,,0,21,21,12,,,,,,down,1.067459923370734,2032.4556560366163,None,001,70,2019_Oct_28_1704,ACPT_experiment_5_30_19,3.1.0,59.95473770123347,
,,,C,U,d,n,L,U,g,L,u,,,,,5,19,119,6,2,0,2,0,,,,,0,22,22,22,,,,,,down,0.8173208433486252,2034.8074299370237,None,001,70,2019_Oct_28_1704,ACPT_experiment_5_30_19,3.1.0,59.95473770123347,
,,,C,U,d,n,L,U,g,R,u,,,,,5,19,119,6,2,0,2,0,,,,,0,23,23,23,,,,,,up,0.7839497881122952,2036.892335007928,None,001,70,2019_Oct_28_1704,ACPT_experiment_5_30_19,3.1.0,59.95473770123347,
,,,C,U,d,n,L,D,g,L,i,,,,,5,19,119,6,2,0,2,0,,,,,0,24,24,14,,,,,,up,0.7005207916708969,2038.9606180918431,None,001,70,2019_Oct_28_1704,ACPT_experiment_5_30_19,3.1.0,59.95473770123347,
,,,C,U,d,n,L,U,d,R,u,,,,,5,19,119,6,2,0,2,0,,,,,0,25,25,21,,,,,,up,0.6171518645173819,2040.9454419937447,None,001,70,2019_Oct_28_1704,ACPT_experiment_5_30_19,3.1.0,59.95473770123347,
,,,C,U,d,n,R,G,y,R,y,,,,,5,19,119,6,2,0,2,0,,,,,0,26,26,29,,,,,,down,0.5837750740224692,2042.8468942517916,None,001,70,2019_Oct_28_1704,ACPT_experiment_5_30_19,3.1.0,59.95473770123347,
,,,C,U,d,n,L,G,y,L,y,,,,,5,19,119,6,2,0,2,0,,,,,0,27,27,34,,,,,,down,0.6171539775073143,2044.6982849463648,None,001,70,2019_Oct_28_1704,ACPT_experiment_5_30_19,3.1.0,59.95473770123347,
,,,C,U,d,n,L,U,d,L,u,,,,,5,19,119,6,2,0,2,0,,,,,0,28,28,20,,,,,,up,0.6671014395196835,2046.5998156868982,None,001,70,2019_Oct_28_1704,ACPT_experiment_5_30_19,3.1.0,59.95473770123347,
,,,C,U,d,n,R,G,d,L,i,,,,,5,19,119,6,2,0,2,0,,,,,0,29,29,4,,,,,,up,0.7505440194686344,2048.5512643075836,None,001,70,2019_Oct_28_1704,ACPT_experiment_5_30_19,3.1.0,59.95473770123347,
,,,C,U,d,n,R,D,y,L,y,,,,,5,19,119,6,2,0,2,0,,,,,0,30,30,26,,,,,,down,0.6337889442925189,2050.619508753967,None,001,70,2019_Oct_28_1704,ACPT_experiment_5_30_19,3.1.0,59.95473770123347,
,,,C,U,d,n,R,D,g,L,i,,,,,5,19,119,6,2,0,2,0,,,,,0,31,31,2,,,,,,up,1.2509444310790059,2052.5542937315736,None,001,70,2019_Oct_28_1704,ACPT_experiment_5_30_19,3.1.0,59.95473770123347,
,,,C,U,d,n,R,U,y,R,u,,,,,5,19,119,6,2,0,2,0,,,,,0,32,32,31,,,,,,down,0.700515961979363,2055.089567534331,None,001,70,2019_Oct_28_1704,ACPT_experiment_5_30_19,3.1.0,59.95473770123347,
,,,C,U,d,n,L,D,y,R,y,,,,,5,19,119,6,2,0,2,0,,,,,0,33,33,33,,,,,,down,0.5838070707286533,2057.074407736441,None,001,70,2019_Oct_28_1704,ACPT_experiment_5_30_19,3.1.0,59.95473770123347,
,,,C,U,d,n,L,U,y,R,u,,,,,5,19,119,6,2,0,2,0,,,,,0,34,34,25,,,,,,down,0.5337554684933821,2058.9424985986348,None,001,70,2019_Oct_28_1704,ACPT_experiment_5_30_19,3.1.0,59.95473770123347,
,,,C,U,d,n,R,D,d,R,c ,,,,,5,19,119,6,2,0,2,0,,,,,0,35,35,1,,,,,,down,0.6337937739840527,2060.7605686478764,None,001,70,2019_Oct_28_1704,ACPT_experiment_5_30_19,3.1.0,59.95473770123347,
,,,C,U,d,n,L,G,g,L,c ,,,,,5,19,119,6,2,0,2,0,,,,,1,0,36,18,,,,,,up,0.9340496570766845,2062.678684247146,None,001,70,2019_Oct_28_1704,ACPT_experiment_5_30_19,3.1.0,59.95473770123347,
,,,C,U,d,n,R,G,y,R,y,,,,,5,19,119,6,2,0,2,0,,,,,1,1,37,29,,,,,,down,0.88385557894253,2064.897161982721,None,001,70,2019_Oct_28_1704,ACPT_experiment_5_30_19,3.1.0,59.95473770123347,
,,,C,U,d,n,R,D,d,R,c ,,,,,5,19,119,6,2,0,2,0,,,,,1,2,38,1,,,,,,down,0.8506351497098876,2067.0653750059237,None,001,70,2019_Oct_28_1704,ACPT_experiment_5_30_19,3.1.0,59.95473770123347,
,,,C,U,d,n,L,D,d,L,c ,,,,,5,19,119,6,2,0,2,0,,,,,1,3,39,12,,,,,,down,0.7839682013109268,2069.183623663194,None,001,70,2019_Oct_28_1704,ACPT_experiment_5_30_19,3.1.0,59.95473770123347,
,,,C,U,d,n,L,D,y,R,y,,,,,5,19,119,6,2,0,2,0,,,,,1,4,40,33,,,,,,down,0.6338408634765074,2071.25186086504,None,001,70,2019_Oct_28_1704,ACPT_experiment_5_30_19,3.1.0,59.95473770123347,
,,,C,U,d,n,R,U,d,L,u,,,,,5,19,119,6,2,0,2,0,,,,,1,5,41,8,,,,,,up,0.8839998659759658,2073.170017516687,None,001,70,2019_Oct_28_1704,ACPT_experiment_5_30_19,3.1.0,59.95473770123347,
,,,C,U,d,n,R,D,g,R,i,,,,,5,19,119,6,2,0,2,0,,,,,1,6,42,3,,,,,,up,0.9507214502596071,2075.3383395098044,None,001,70,2019_Oct_28_1704,ACPT_experiment_5_30_19,3.1.0,59.95473770123347,
,,,C,U,d,n,L,U,g,L,u,,,,,5,19,119,6,2,0,2,0,,,,,1,7,43,22,,,,,,up,0.7673024452424215,2077.5733495812206,None,001,70,2019_Oct_28_1704,ACPT_experiment_5_30_19,3.1.0,59.95473770123347,
,,,C,U,d,n,R,U,g,L,u,,,,,5,19,119,6,2,0,2,0,,,,,1,8,44,10,,,,,,up,0.7005328658997314,2079.6249424587536,None,001,70,2019_Oct_28_1704,ACPT_experiment_5_30_19,3.1.0,59.95473770123347,
,,,C,U,d,n,R,D,d,L,c,,,,,5,19,119,6,2,0,2,0,,,,,1,9,45,0,,,,,,down,1.1509058237325007,2081.609785981277,None,001,70,2019_Oct_28_1704,ACPT_experiment_5_30_19,3.1.0,59.95473770123347,
,,,C,U,d,n,R,G,g,L,c ,,,,,5,19,119,6,2,0,2,0,,,,,1,10,46,6,,,,,,down,0.8506481295057711,2084.0449777094645,None,001,70,2019_Oct_28_1704,ACPT_experiment_5_30_19,3.1.0,59.95473770123347,
,,,C,U,d,n,R,G,g,R,c ,,,,,5,19,119,6,2,0,2,0,,,,,1,11,47,7,,,,,,up,0.9006897705021402,2086.1632568541622,None,001,70,2019_Oct_28_1704,ACPT_experiment_5_30_19,3.1.0,59.95473770123347,
,,,C,U,d,n,R,D,y,L,y,,,,,5,19,119,6,2,0,2,0,,,,,1,12,48,26,,,,,,down,0.6838704302440419,2088.348260903557,None,001,70,2019_Oct_28_1704,ACPT_experiment_5_30_19,3.1.0,59.95473770123347,
,,,C,U,d,n,L,D,d,R,c ,,,,,5,19,119,6,2,0,2,0,,,,,1,13,49,13,,,,,,up,0.7172152240327705,2090.316428708773,None,001,70,2019_Oct_28_1704,ACPT_experiment_5_30_19,3.1.0,59.95473770123347,
,,,C,U,d,n,L,U,y,R,u,,,,,5,19,119,6,2,0,2,0,,,,,1,14,50,25,,,,,,down,0.8506448090929553,2092.3179512690162,None,001,70,2019_Oct_28_1704,ACPT_experiment_5_30_19,3.1.0,59.95473770123347,
,,,C,U,d,n,R,U,g,R,u,,,,,5,19,119,6,2,0,2,0,,,,,1,15,51,11,,,,,,up,0.617128923483051,2094.452917601539,None,001,70,2019_Oct_28_1704,ACPT_experiment_5_30_19,3.1.0,59.95473770123347,
,,,C,U,d,n,L,G,d,L,i,,,,,5,19,119,6,2,0,2,0,,,,,1,16,52,16,,,,,,up,0.9173621673967318,2096.354362916904,None,001,70,2019_Oct_28_1704,ACPT_experiment_5_30_19,3.1.0,59.95473770123347,
,,,C,U,d,n,L,G,d,R,i,,,,,5,19,119,6,2,0,2,0,,,,,1,17,53,17,,,,,,up,0.7005165656910322,2098.5560571726805,None,001,70,2019_Oct_28_1704,ACPT_experiment_5_30_19,3.1.0,59.95473770123347,
,,,C,U,d,n,R,U,y,L,u,,,,,5,19,119,6,2,0,2,0,,,,,1,18,54,30,,,,,,down,0.6672089001558561,2100.5408699059203,None,001,70,2019_Oct_28_1704,ACPT_experiment_5_30_19,3.1.0,59.95473770123347,
,,,C,U,d,n,R,G,d,L,i,,,,,5,19,119,6,2,0,2,0,,,,,1,19,55,4,,,,,,down,0.8339549045667809,2102.4923840292968,None,001,70,2019_Oct_28_1704,ACPT_experiment_5_30_19,3.1.0,59.95473770123347,
,,,C,U,d,n,L,D,g,R,i,,,,,5,19,119,6,2,0,2,0,,,,,1,20,56,15,,,,,,up,1.1509194072400533,2104.6106526090443,None,001,70,2019_Oct_28_1704,ACPT_experiment_5_30_19,3.1.0,59.95473770123347,
,,,C,U,d,n,L,G,g,R,c ,,,,,5,19,119,6,2,0,2,0,,,,,1,21,57,19,,,,,,up,0.6004459616383429,2107.0291740533276,None,001,70,2019_Oct_28_1704,ACPT_experiment_5_30_19,3.1.0,59.95473770123347,
,,,C,U,d,n,L,U,d,R,u,,,,,5,19,119,6,2,0,2,0,,,,,1,22,58,21,,,,,,down,0.6171962373077804,2108.9139460662313,None,001,70,2019_Oct_28_1704,ACPT_experiment_5_30_19,3.1.0,59.95473770123347,
,,,C,U,d,n,L,U,g,R,u,,,,,5,19,119,6,2,0,2,0,,,,,1,23,59,23,,,,,,up,0.5671189773370315,2110.798689100986,None,001,70,2019_Oct_28_1704,ACPT_experiment_5_30_19,3.1.0,59.95473770123347,
,,,C,U,d,n,L,G,y,R,y,,,,,5,19,119,6,2,0,2,0,,,,,1,24,60,35,,,,,,down,0.5504284690996428,2112.650127186907,None,001,70,2019_Oct_28_1704,ACPT_experiment_5_30_19,3.1.0,59.95473770123347,
,,,C,U,d,n,R,D,g,L,i,,,,,5,19,119,6,2,0,2,0,,,,,1,25,61,2,,,,,,down,0.8170449472218024,2114.5017795903877,None,001,70,2019_Oct_28_1704,ACPT_experiment_5_30_19,3.1.0,59.95473770123347,
,,,C,U,d,n,R,G,d,R,i,,,,,5,19,119,6,2,0,2,0,,,,,1,26,62,5,,,,,,up,0.6338022259442369,2116.6031451554722,None,001,70,2019_Oct_28_1704,ACPT_experiment_5_30_19,3.1.0,59.95473770123347,
,,,C,U,d,n,L,G,y,L,y,,,,,5,19,119,6,2,0,2,0,,,,,1,27,63,34,,,,,,down,0.717202244236887,2118.5379488481335,None,001,70,2019_Oct_28_1704,ACPT_experiment_5_30_19,3.1.0,59.95473770123347,
,,,C,U,d,n,R,D,y,R,y,,,,,5,19,119,6,2,0,2,0,,,,,1,28,64,27,,,,,,down,0.7172091869183532,2120.5394732195114,None,001,70,2019_Oct_28_1704,ACPT_experiment_5_30_19,3.1.0,59.95473770123347,
,,,C,U,d,n,L,U,y,L,u,,,,,5,19,119,6,2,0,2,0,,,,,1,29,65,24,,,,,,down,0.8506466202275078,2122.5409963834663,None,001,70,2019_Oct_28_1704,ACPT_experiment_5_30_19,3.1.0,59.95473770123347,
,,,C,U,d,n,R,U,d,R,u,,,,,5,19,119,6,2,0,2,0,,,,,1,30,66,9,,,,,,down,0.6838535263241283,2124.6759593955762,None,001,70,2019_Oct_28_1704,ACPT_experiment_5_30_19,3.1.0,59.95473770123347,
,,,C,U,d,n,L,D,y,L,y,,,,,5,19,119,6,2,0,2,0,,,,,1,31,67,32,,,,,,down,0.750560923388548,2126.660811973771,None,001,70,2019_Oct_28_1704,ACPT_experiment_5_30_19,3.1.0,59.95473770123347,
,,,C,U,d,n,L,U,d,L,u,,,,,5,19,119,6,2,0,2,0,,,,,1,32,68,20,,,,,,up,0.700514452700645,2128.712380400991,None,001,70,2019_Oct_28_1704,ACPT_experiment_5_30_19,3.1.0,59.95473770123347,
,,,C,U,d,n,L,D,g,L,i,,,,,5,19,119,6,2,0,2,0,,,,,1,33,69,14,,,,,,up,0.7838196882976263,2130.6972142641316,None,001,70,2019_Oct_28_1704,ACPT_experiment_5_30_19,3.1.0,59.95473770123347,
,,,C,U,d,n,R,G,y,L,y,,,,,5,19,119,6,2,0,2,0,,,,,1,34,70,28,,,,,,down,0.6171361680203518,2132.76546112536,None,001,70,2019_Oct_28_1704,ACPT_experiment_5_30_19,3.1.0,59.95473770123347,
,,,C,U,d,n,R,U,y,R,u,,,,,5,19,119,6,2,0,2,0,,,,,1,35,71,31,,,,,,down,0.7839609567740808,2134.666914892686,None,001,70,2019_Oct_28_1704,ACPT_experiment_5_30_19,3.1.0,59.95473770123347,
,,,C,U,d,n,,,,,,,,,,5,19,119,6,3,0,3,0,0,0,0,0,,,,,,,,,,,,,,001,70,2019_Oct_28_1704,ACPT_experiment_5_30_19,3.1.0,59.95473770123347,
,,,C,U,d,n,L,G,y,L,y,,,,,5,19,119,6,3,0,3,0,,,,,0,0,0,34,,,,,,down,0.9504781545506376,2186.7068543283544,None,001,70,2019_Oct_28_1704,ACPT_experiment_5_30_19,3.1.0,59.95473770123347,
,,,C,U,d,n,L,U,y,R,u,,,,,5,19,119,6,3,0,3,0,,,,,0,1,1,25,,,,,,down,0.4670975757667293,2188.94163317829,None,001,70,2019_Oct_28_1704,ACPT_experiment_5_30_19,3.1.0,59.95473770123347,
,,,C,U,d,n,R,U,g,R,u,,,,,5,19,119,6,3,0,3,0,,,,,0,2,2,11,,,,,,up,0.5003889410932061,2190.692969267164,None,001,70,2019_Oct_28_1704,ACPT_experiment_5_30_19,3.1.0,59.95473770123347,
,,,C,U,d,n,R,D,g,R,i,,,,,5,19,119,6,3,0,3,0,,,,,0,3,3,3,,,,,,up,0.450359072469837,2192.477645923846,None,001,70,2019_Oct_28_1704,ACPT_experiment_5_30_19,3.1.0,59.95473770123347,
,,,C,U,d,n,R,D,g,L,i,,,,,5,19,119,6,3,0,3,0,,,,,0,4,4,2,,,,,,up,0.7505714883391192,2194.212327123457,None,001,70,2019_Oct_28_1704,ACPT_experiment_5_30_19,3.1.0,59.95473770123347,
,,,C,U,d,n,R,D,y,R,y,,,,,5,19,119,6,3,0,3,0,,,,,0,5,5,27,,,,,,down,0.5837943927886045,2196.2305136286345,None,001,70,2019_Oct_28_1704,ACPT_experiment_5_30_19,3.1.0,59.95473770123347,
,,,C,U,d,n,R,G,y,R,y,,,,,5,19,119,6,3,0,3,0,,,,,0,6,6,29,,,,,,down,0.483703564402731,2198.098619583614,None,001,70,2019_Oct_28_1704,ACPT_experiment_5_30_19,3.1.0,59.95473770123347,
,,,C,U,d,n,R,G,d,R,i,,,,,5,19,119,6,3,0,3,0,,,,,0,7,7,5,,,,,,up,0.7338782633996743,2199.866649501138,None,001,70,2019_Oct_28_1704,ACPT_experiment_5_30_19,3.1.0,59.95473770123347,
,,,C,U,d,n,L,G,d,R,i,,,,,5,19,119,6,3,0,3,0,,,,,0,8,8,17,,,,,,up,0.5671123365113999,2201.884845665699,None,001,70,2019_Oct_28_1704,ACPT_experiment_5_30_19,3.1.0,59.95473770123347,
,,,C,U,d,n,L,G,g,L,c ,,,,,5,19,119,6,3,0,3,0,,,,,0,9,9,18,,,,,,down,0.9674261457162174,2203.7195567188405,None,001,70,2019_Oct_28_1704,ACPT_experiment_5_30_19,3.1.0,59.95473770123347,
,,,C,U,d,n,L,U,y,L,u,,,,,5,19,119,6,3,0,3,0,,,,,0,10,10,24,,,,,,down,0.6338194317204398,2205.971295332314,None,001,70,2019_Oct_28_1704,ACPT_experiment_5_30_19,3.1.0,59.95473770123347,
,,,C,U,d,n,R,U,d,L,u,,,,,5,19,119,6,3,0,3,0,,,,,0,11,11,8,,,,,,up,1.06747471430117,2207.889424816947,None,001,70,2019_Oct_28_1704,ACPT_experiment_5_30_19,3.1.0,59.95473770123347,
,,,C,U,d,n,L,D,y,R,y,,,,,5,19,119,6,3,0,3,0,,,,,0,12,12,33,,,,,,down,0.7839645790422765,2210.241218337976,None,001,70,2019_Oct_28_1704,ACPT_experiment_5_30_19,3.1.0,59.95473770123347,
,,,C,U,d,n,L,D,y,L,y,,,,,5,19,119,6,3,0,3,0,,,,,0,13,13,32,,,,,,down,0.8173063542740238,2212.3094594639465,None,001,70,2019_Oct_28_1704,ACPT_experiment_5_30_19,3.1.0,59.95473770123347,
,,,C,U,d,n,L,U,g,L,u,,,,,5,19,119,6,3,0,3,0,,,,,0,14,14,22,,,,,,up,0.817267716742208,2214.41108100268,None,001,70,2019_Oct_28_1704,ACPT_experiment_5_30_19,3.1.0,59.95473770123347,
,,,C,U,d,n,R,D,d,L,c,,,,,5,19,119,6,3,0,3,0,,,,,0,15,15,0,,,,,,up,0.6338133946060225,2216.512660583469,None,001,70,2019_Oct_28_1704,ACPT_experiment_5_30_19,3.1.0,59.95473770123347,
,,,C,U,d,n,R,G,g,L,c ,,,,,5,19,119,6,3,0,3,0,,,,,0,16,16,6,,,,,,up,0.8172966948909561,2218.430774371604,None,001,70,2019_Oct_28_1704,ACPT_experiment_5_30_19,3.1.0,59.95473770123347,
,,,C,U,d,n,R,U,g,L,u,,,,,5,19,119,6,3,0,3,0,,,,,0,17,17,10,,,,,,up,0.6671587921064202,2220.532405267865,None,001,70,2019_Oct_28_1704,ACPT_experiment_5_30_19,3.1.0,59.95473770123347,
,,,C,U,d,n,R,G,y,L,y,,,,,5,19,119,6,3,0,3,0,,,,,0,18,18,28,,,,,,down,0.7172043572272742,2222.4838883001025,None,001,70,2019_Oct_28_1704,ACPT_experiment_5_30_19,3.1.0,59.95473770123347,
,,,C,U,d,n,R,D,d,R,c ,,,,,5,19,119,6,3,0,3,0,,,,,0,19,19,1,,,,,,up,0.783921715530596,2224.485416595605,None,001,70,2019_Oct_28_1704,ACPT_experiment_5_30_19,3.1.0,59.95473770123347,
,,,C,U,d,n,R,D,y,L,y,,,,,5,19,119,6,3,0,3,0,,,,,0,20,20,26,,,,,,down,0.7004130291793444,2226.553759145096,None,001,70,2019_Oct_28_1704,ACPT_experiment_5_30_19,3.1.0,59.95473770123347,
,,,C,U,d,n,R,G,g,R,c ,,,,,5,19,119,6,3,0,3,0,,,,,0,21,21,7,,,,,,down,0.683864996840839,2228.5551872245,None,001,70,2019_Oct_28_1704,ACPT_experiment_5_30_19,3.1.0,59.95473770123347,
,,,C,U,d,n,R,U,y,L,u,,,,,5,19,119,6,3,0,3,0,,,,,0,22,22,30,,,,,,down,0.9507087723195582,2230.5233622742535,None,001,70,2019_Oct_28_1704,ACPT_experiment_5_30_19,3.1.0,59.95473770123347,
,,,C,U,d,n,L,G,g,R,c ,,,,,5,19,119,6,3,0,3,0,,,,,0,23,23,19,,,,,,down,0.9340484496542558,2232.758383212475,None,001,70,2019_Oct_28_1704,ACPT_experiment_5_30_19,3.1.0,59.95473770123347,
,,,C,U,d,n,L,U,g,R,u,,,,,5,19,119,6,3,0,3,0,,,,,0,24,24,23,,,,,,up,0.6171343568857992,2234.9767408094744,None,001,70,2019_Oct_28_1704,ACPT_experiment_5_30_19,3.1.0,59.95473770123347,
,,,C,U,d,n,L,D,d,R,c ,,,,,5,19,119,6,3,0,3,0,,,,,0,25,25,13,,,,,,up,0.7505739031844314,2236.8781927656655,None,001,70,2019_Oct_28_1704,ACPT_experiment_5_30_19,3.1.0,59.95473770123347,
,,,C,U,d,n,L,G,d,L,i,,,,,5,19,119,6,3,0,3,0,,,,,0,26,26,16,,,,,,up,0.7505636400901494,2238.896404023012,None,001,70,2019_Oct_28_1704,ACPT_experiment_5_30_19,3.1.0,59.95473770123347,
,,,C,U,d,n,L,G,y,R,y,,,,,5,19,119,6,3,0,3,0,,,,,0,27,27,35,,,,,,down,0.9340399976940716,2240.9312864698304,None,001,70,2019_Oct_28_1704,ACPT_experiment_5_30_19,3.1.0,59.95473770123347,
,,,C,U,d,n,L,D,g,R,i,,,,,5,19,119,6,3,0,3,0,,,,,0,28,28,15,,,,,,up,0.7505636400901494,2243.1663294435198,None,001,70,2019_Oct_28_1704,ACPT_experiment_5_30_19,3.1.0,59.95473770123347,
,,,C,U,d,n,R,U,d,R,u,,,,,5,19,119,6,3,0,3,0,,,,,0,29,29,9,,,,,,up,0.6504900174804789,2245.201221851577,None,001,70,2019_Oct_28_1704,ACPT_experiment_5_30_19,3.1.0,59.95473770123347,
,,,C,U,d,n,R,U,y,R,u,,,,,5,19,119,6,3,0,3,0,,,,,0,30,30,31,,,,,,down,0.7338993933003621,2247.136009545885,None,001,70,2019_Oct_28_1704,ACPT_experiment_5_30_19,3.1.0,59.95473770123347,
,,,C,U,d,n,L,U,d,R,u,,,,,5,19,119,6,3,0,3,0,,,,,0,31,31,21,,,,,,down,0.6672910049110214,2249.1542374052965,None,001,70,2019_Oct_28_1704,ACPT_experiment_5_30_19,3.1.0,59.95473770123347,
,,,C,U,d,n,L,D,d,L,c ,,,,,5,19,119,6,3,0,3,0,,,,,0,32,32,12,,,,,,down,0.934065655430004,2251.1056914593846,None,001,70,2019_Oct_28_1704,ACPT_experiment_5_30_19,3.1.0,59.95473770123347,
,,,C,U,d,n,R,G,d,L,i,,,,,5,19,119,6,3,0,3,0,,,,,0,33,33,4,,,,,,up,0.6004390189568767,2253.324084977214,None,001,70,2019_Oct_28_1704,ACPT_experiment_5_30_19,3.1.0,59.95473770123347,
,,,C,U,d,n,L,D,g,L,i,,,,,5,19,119,6,3,0,3,0,,,,,0,34,34,14,,,,,,up,0.7505826570004501,2255.208843104755,None,001,70,2019_Oct_28_1704,ACPT_experiment_5_30_19,3.1.0,59.95473770123347,
,,,C,U,d,n,L,U,d,L,u,,,,,5,19,119,6,3,0,3,0,,,,,0,35,35,20,,,,,,up,0.733793140087073,2257.24370532724,None,001,70,2019_Oct_28_1704,ACPT_experiment_5_30_19,3.1.0,59.95473770123347,
,,,C,U,d,n,R,D,d,R,c ,,,,,5,19,119,6,3,0,3,0,,,,,1,0,36,1,,,,,,down,0.6838363205479254,2259.261946770159,None,001,70,2019_Oct_28_1704,ACPT_experiment_5_30_19,3.1.0,59.95473770123347,
,,,C,U,d,n,L,G,d,R,i,,,,,5,19,119,6,3,0,3,0,,,,,1,1,37,17,,,,,,up,0.7005304510539645,2261.2301000863004,None,001,70,2019_Oct_28_1704,ACPT_experiment_5_30_19,3.1.0,59.95473770123347,
,,,C,U,d,n,L,D,d,R,c ,,,,,5,19,119,6,3,0,3,0,,,,,1,2,38,13,,,,,,down,0.9173857121427318,2263.2149599090326,None,001,70,2019_Oct_28_1704,ACPT_experiment_5_30_19,3.1.0,59.95473770123347,
,,,C,U,d,n,L,G,y,L,y,,,,,5,19,119,6,3,0,3,0,,,,,1,3,39,34,,,,,,down,1.0174240176334024,2265.4333362210864,None,001,70,2019_Oct_28_1704,ACPT_experiment_5_30_19,3.1.0,59.95473770123347,
,,,C,U,d,n,L,U,y,L,u,,,,,5,19,119,6,3,0,3,0,,,,,1,4,40,24,,,,,,down,0.7005657681729645,2267.7517372551233,None,001,70,2019_Oct_28_1704,ACPT_experiment_5_30_19,3.1.0,59.95473770123347,
,,,C,U,d,n,R,U,g,R,u,,,,,5,19,119,6,3,0,3,0,,,,,1,5,41,11,,,,,,up,0.9340430162510529,2269.7365874184725,None,001,70,2019_Oct_28_1704,ACPT_experiment_5_30_19,3.1.0,59.95473770123347,
,,,C,U,d,n,L,D,y,R,y,,,,,5,19,119,6,3,0,3,0,,,,,1,6,42,33,,,,,,down,0.6171479403933517,2271.9549281115515,None,001,70,2019_Oct_28_1704,ACPT_experiment_5_30_19,3.1.0,59.95473770123347,
,,,C,U,d,n,R,D,g,R,i,,,,,5,19,119,6,3,0,3,0,,,,,1,7,43,3,,,,,,up,1.2342608655230833,2273.8564048199114,None,001,70,2019_Oct_28_1704,ACPT_experiment_5_30_19,3.1.0,59.95473770123347,
,,,C,U,d,n,R,D,g,L,i,,,,,5,19,119,6,3,0,3,0,,,,,1,8,44,2,,,,,,up,0.8840074123691011,2276.374983586595,None,001,70,2019_Oct_28_1704,ACPT_experiment_5_30_19,3.1.0,59.95473770123347,
,,,C,U,d,n,R,U,g,L,u,,,,,5,19,119,6,3,0,3,0,,,,,1,9,45,10,,,,,,up,0.6338091686261578,2278.5433095038366,None,001,70,2019_Oct_28_1704,ACPT_experiment_5_30_19,3.1.0,59.95473770123347,
,,,C,U,d,n,R,G,d,L,i,,,,,5,19,119,6,3,0,3,0,,,,,1,10,46,4,,,,,,up,0.6169408673699763,2280.4616034998357,None,001,70,2019_Oct_28_1704,ACPT_experiment_5_30_19,3.1.0,59.95473770123347,
,,,C,U,d,n,L,U,g,L,u,,,,,5,19,119,6,3,0,3,0,,,,,1,11,47,22,,,,,,up,0.600489730717527,2282.3628628720785,None,001,70,2019_Oct_28_1704,ACPT_experiment_5_30_19,3.1.0,59.95473770123347,
,,,C,U,d,n,L,G,g,L,c ,,,,,5,19,119,6,3,0,3,0,,,,,1,12,48,18,,,,,,up,0.6338221484220412,2284.247650279624,None,001,70,2019_Oct_28_1704,ACPT_experiment_5_30_19,3.1.0,59.95473770123347,
,,,C,U,d,n,R,G,y,L,y,,,,,5,19,119,6,3,0,3,0,,,,,1,13,49,28,,,,,,down,0.7172034516597705,2286.1657900273512,None,001,70,2019_Oct_28_1704,ACPT_experiment_5_30_19,3.1.0,59.95473770123347,
,,,C,U,d,n,R,G,d,R,i,,,,,5,19,119,6,3,0,3,0,,,,,1,14,50,5,,,,,,up,0.5802937720222872,2288.1874418361763,None,001,70,2019_Oct_28_1704,ACPT_experiment_5_30_19,3.1.0,59.95473770123347,
,,,C,U,d,n,R,G,g,R,c ,,,,,5,19,119,6,3,0,3,0,,,,,1,15,51,7,,,,,,up,0.6671922980908676,2290.0353777920523,None,001,70,2019_Oct_28_1704,ACPT_experiment_5_30_19,3.1.0,59.95473770123347,
,,,C,U,d,n,R,G,y,R,y,,,,,5,19,119,6,3,0,3,0,,,,,1,16,52,29,,,,,,down,0.7005123397107127,2291.986905800791,None,001,70,2019_Oct_28_1704,ACPT_experiment_5_30_19,3.1.0,59.95473770123347,
,,,C,U,d,n,R,U,d,L,u,,,,,5,19,119,6,3,0,3,0,,,,,1,17,53,8,,,,,,up,0.7672469037906922,2293.971733023106,None,001,70,2019_Oct_28_1704,ACPT_experiment_5_30_19,3.1.0,59.95473770123347,
,,,C,U,d,n,R,U,y,L,u,,,,,5,19,119,6,3,0,3,0,,,,,1,18,54,30,,,,,,down,0.7505944293734501,2296.006597660437,None,001,70,2019_Oct_28_1704,ACPT_experiment_5_30_19,3.1.0,59.95473770123347,
,,,C,U,d,n,L,U,y,R,u,,,,,5,19,119,6,3,0,3,0,,,,,1,19,55,25,,,,,,down,0.9840789219888393,2298.041505764991,None,001,70,2019_Oct_28_1704,ACPT_experiment_5_30_19,3.1.0,59.95473770123347,
,,,C,U,d,n,L,D,y,L,y,,,,,5,19,119,6,3,0,3,0,,,,,1,20,56,32,,,,,,down,0.6004719212301097,2300.3098838730866,None,001,70,2019_Oct_28_1704,ACPT_experiment_5_30_19,3.1.0,59.95473770123347,
,,,C,U,d,n,R,D,d,L,c,,,,,5,19,119,6,3,0,3,0,,,,,1,21,57,0,,,,,,up,0.6838571485923239,2302.1946697713533,None,001,70,2019_Oct_28_1704,ACPT_experiment_5_30_19,3.1.0,59.95473770123347,
,,,C,U,d,n,R,U,y,R,u,,,,,5,19,119,6,3,0,3,0,,,,,1,22,58,31,,,,,,down,1.2676246762221126,2304.1628460285297,None,001,70,2019_Oct_28_1704,ACPT_experiment_5_30_19,3.1.0,59.95473770123347,
,,,C,U,d,n,L,D,g,L,i,,,,,5,19,119,6,3,0,3,0,,,,,1,23,59,14,,,,,,up,1.2676276947790939,2306.7147849836438,None,001,70,2019_Oct_28_1704,ACPT_experiment_5_30_19,3.1.0,59.95473770123347,
,,,C,U,d,n,L,G,d,L,i,,,,,5,19,119,6,3,0,3,0,,,,,1,24,60,16,,,,,,up,0.7839229229534794,2309.2667354092755,None,001,70,2019_Oct_28_1704,ACPT_experiment_5_30_19,3.1.0,59.95473770123347,
,,,C,U,d,n,L,D,d,L,c ,,,,,5,19,119,6,3,0,3,0,,,,,1,25,61,12,,,,,,up,0.8838441084253645,2311.335105729493,None,001,70,2019_Oct_28_1704,ACPT_experiment_5_30_19,3.1.0,59.95473770123347,
,,,C,U,d,n,R,D,y,L,y,,,,,5,19,119,6,3,0,3,0,,,,,1,26,62,26,,,,,,down,0.8673238468131785,2313.5199778679385,None,001,70,2019_Oct_28_1704,ACPT_experiment_5_30_19,3.1.0,59.95473770123347,
,,,C,U,d,n,L,D,g,R,i,,,,,5,19,119,6,3,0,3,0,,,,,1,27,63,15,,,,,,up,2.5852955212762936,2315.6882977480655,None,001,70,2019_Oct_28_1704,ACPT_experiment_5_30_19,3.1.0,59.95473770123347,
,,,C,U,d,n,L,G,y,R,y,,,,,5,19,119,6,3,0,3,0,,,,,1,28,64,35,,,,,,down,0.8673531268177612,2319.5579169057614,None,001,70,2019_Oct_28_1704,ACPT_experiment_5_30_19,3.1.0,59.95473770123347,
,,,C,U,d,n,L,U,d,L,u,,,,,5,19,119,6,3,0,3,0,,,,,1,29,65,20,,,,,,down,1.4844624296788425,2321.7095523147655,None,001,70,2019_Oct_28_1704,ACPT_experiment_5_30_19,3.1.0,59.95473770123347,
,,,C,U,d,n,R,G,g,L,c ,,,,,5,19,119,6,3,0,3,0,,,,,1,30,66,6,,,,,,up,2.4852249172236043,2324.478335060451,None,001,70,2019_Oct_28_1704,ACPT_experiment_5_30_19,3.1.0,59.95473770123347,
,,,C,U,d,n,L,U,g,R,u,,,,,5,19,119,6,3,0,3,0,,,,,1,31,67,23,,,,,,down,1.5511773731368521,2328.2478727472885,None,001,70,2019_Oct_28_1704,ACPT_experiment_5_30_19,3.1.0,59.95473770123347,
,,,C,U,d,n,L,U,d,R,u,,,,,5,19,119,6,3,0,3,0,,,,,1,32,68,21,,,,,,down,0.6838743543685268,2331.0666636279857,None,001,70,2019_Oct_28_1704,ACPT_experiment_5_30_19,3.1.0,59.95473770123347,
,,,C,U,d,n,L,G,g,R,c ,,,,,5,19,119,6,3,0,3,0,,,,,1,33,69,19,,,,,,down,0.5670815472276445,2333.0348658447538,None,001,70,2019_Oct_28_1704,ACPT_experiment_5_30_19,3.1.0,59.95473770123347,
,,,C,U,d,n,R,D,y,R,y,,,,,5,19,119,6,3,0,3,0,,,,,1,34,70,27,,,,,,down,0.567106903108197,2334.9029274269424,None,001,70,2019_Oct_28_1704,ACPT_experiment_5_30_19,3.1.0,59.95473770123347,
,,,C,U,d,n,R,U,d,R,u,,,,,5,19,119,6,3,0,3,0,,,,,1,35,71,9,,,,,,down,0.7839241303763629,2336.771038815325,None,001,70,2019_Oct_28_1704,ACPT_experiment_5_30_19,3.1.0,59.95473770123347,
,,,C,U,d,n,,,,,,,,,,5,19,119,6,4,0,4,0,0,0,0,0,,,,,,,,,,,,,,001,70,2019_Oct_28_1704,ACPT_experiment_5_30_19,3.1.0,59.95473770123347,
,,,C,U,d,n,L,D,y,R,y,,,,,5,19,119,6,4,0,4,0,,,,,0,0,0,33,,,,,,down,1.117509412616073,2423.7373710359175,None,001,70,2019_Oct_28_1704,ACPT_experiment_5_30_19,3.1.0,59.95473770123347,
,,,C,U,d,n,R,G,y,L,y,,,,,5,19,119,6,4,0,4,0,,,,,0,1,1,28,,,,,,down,0.6338266762577405,2426.139172993814,None,001,70,2019_Oct_28_1704,ACPT_experiment_5_30_19,3.1.0,59.95473770123347,
,,,C,U,d,n,R,G,y,R,y,,,,,5,19,119,6,4,0,4,0,,,,,0,2,2,29,,,,,,down,0.700531658476848,2428.074005060913,None,001,70,2019_Oct_28_1704,ACPT_experiment_5_30_19,3.1.0,59.95473770123347,
,,,C,U,d,n,L,G,y,L,y,,,,,5,19,119,6,4,0,4,0,,,,,0,3,3,34,,,,,,down,0.5837614905153714,2430.0588636762222,None,001,70,2019_Oct_28_1704,ACPT_experiment_5_30_19,3.1.0,59.95473770123347,
,,,C,U,d,n,R,G,g,L,c ,,,,,5,19,119,6,4,0,4,0,,,,,0,4,4,6,,,,,,up,0.7505832607116645,2431.926933408515,None,001,70,2019_Oct_28_1704,ACPT_experiment_5_30_19,3.1.0,59.95473770123347,
,,,C,U,d,n,R,D,d,L,c,,,,,5,19,119,6,4,0,4,0,,,,,0,5,5,0,,,,,,up,0.617149449671615,2433.9618418149257,None,001,70,2019_Oct_28_1704,ACPT_experiment_5_30_19,3.1.0,59.95473770123347,
,,,C,U,d,n,L,U,y,R,u,,,,,5,19,119,6,4,0,4,0,,,,,0,6,6,25,,,,,,down,0.6672448209860704,2435.8632853191566,None,001,70,2019_Oct_28_1704,ACPT_experiment_5_30_19,3.1.0,59.95473770123347,
,,,C,U,d,n,L,D,d,R,c ,,,,,5,19,119,6,4,0,4,0,,,,,0,7,7,13,,,,,,up,0.650450776236994,2437.8314802913874,None,001,70,2019_Oct_28_1704,ACPT_experiment_5_30_19,3.1.0,59.95473770123347,
,,,C,U,d,n,R,D,d,R,c ,,,,,5,19,119,6,4,0,4,0,,,,,0,8,8,1,,,,,,down,0.6671509438574503,2439.766254402188,None,001,70,2019_Oct_28_1704,ACPT_experiment_5_30_19,3.1.0,59.95473770123347,
,,,C,U,d,n,L,U,y,L,u,,,,,5,19,119,6,4,0,4,0,,,,,0,9,9,24,,,,,,down,0.6505165807839148,2441.7177157008136,None,001,70,2019_Oct_28_1704,ACPT_experiment_5_30_19,3.1.0,59.95473770123347,
,,,C,U,d,n,L,D,y,L,y,,,,,5,19,119,6,4,0,4,0,,,,,0,10,10,32,,,,,,down,0.617127414204333,2443.652549880903,None,001,70,2019_Oct_28_1704,ACPT_experiment_5_30_19,3.1.0,59.95473770123347,
,,,C,U,d,n,R,U,y,L,u,,,,,5,19,119,6,4,0,4,0,,,,,0,11,11,30,,,,,,down,0.4836923957414001,2445.5539967055465,None,001,70,2019_Oct_28_1704,ACPT_experiment_5_30_19,3.1.0,59.95473770123347,
,,,C,U,d,n,L,G,d,R,i,,,,,5,19,119,6,4,0,4,0,,,,,0,12,12,17,,,,,,down,0.7005325640438969,2447.3220127377076,None,001,70,2019_Oct_28_1704,ACPT_experiment_5_30_19,3.1.0,59.95473770123347,
,,,C,U,d,n,L,U,g,R,u,,,,,5,19,119,6,4,0,4,0,,,,,0,13,13,23,,,,,,down,0.5837623960824203,2449.306869240027,None,001,70,2019_Oct_28_1704,ACPT_experiment_5_30_19,3.1.0,59.95473770123347,
,,,C,U,d,n,R,G,d,L,i,,,,,5,19,119,6,4,0,4,0,,,,,0,14,14,4,,,,,,down,0.867323544957344,2451.174952857683,None,001,70,2019_Oct_28_1704,ACPT_experiment_5_30_19,3.1.0,59.95473770123347,
,,,C,U,d,n,R,D,g,L,i,,,,,5,19,119,6,4,0,4,0,,,,,0,15,15,2,,,,,,down,0.7839301674903254,2453.326587964831,None,001,70,2019_Oct_28_1704,ACPT_experiment_5_30_19,3.1.0,59.95473770123347,
,,,C,U,d,n,R,D,g,R,i,,,,,5,19,119,6,4,0,4,0,,,,,0,16,16,3,,,,,,down,0.6673275294529049,2455.378003653058,None,001,70,2019_Oct_28_1704,ACPT_experiment_5_30_19,3.1.0,59.95473770123347,
,,,C,U,d,n,L,U,d,R,u,,,,,5,19,119,6,4,0,4,0,,,,,0,17,17,21,,,,,,down,0.6838541300353427,2457.3296475743928,None,001,70,2019_Oct_28_1704,ACPT_experiment_5_30_19,3.1.0,59.95473770123347,
,,,C,U,d,n,L,G,y,R,y,,,,,5,19,119,6,4,0,4,0,,,,,0,18,18,35,,,,,,down,0.8006079977876652,2459.2978087387833,None,001,70,2019_Oct_28_1704,ACPT_experiment_5_30_19,3.1.0,59.95473770123347,
,,,C,U,d,n,L,D,g,L,i,,,,,5,19,119,6,4,0,4,0,,,,,0,19,19,14,,,,,,up,0.8005935087135185,2461.3827406748464,None,001,70,2019_Oct_28_1704,ACPT_experiment_5_30_19,3.1.0,59.95473770123347,
,,,C,U,d,n,L,U,g,L,u,,,,,5,19,119,6,4,0,4,0,,,,,0,20,20,22,,,,,,up,0.9006964113277718,2463.4676581218355,None,001,70,2019_Oct_28_1704,ACPT_experiment_5_30_19,3.1.0,59.95473770123347,
,,,C,U,d,n,R,D,y,L,y,,,,,5,19,119,6,4,0,4,0,,,,,0,21,21,26,,,,,,down,0.6504975638736141,2465.6526564359715,None,001,70,2019_Oct_28_1704,ACPT_experiment_5_30_19,3.1.0,59.95473770123347,
,,,C,U,d,n,R,G,g,R,c ,,,,,5,19,119,6,4,0,4,0,,,,,0,22,22,7,,,,,,up,1.0674759217240535,2467.587466165747,None,001,70,2019_Oct_28_1704,ACPT_experiment_5_30_19,3.1.0,59.95473770123347,
,,,C,U,d,n,R,U,g,L,u,,,,,5,19,119,6,4,0,4,0,,,,,0,23,23,10,,,,,,up,0.6838740525122375,2469.9392614979106,None,001,70,2019_Oct_28_1704,ACPT_experiment_5_30_19,3.1.0,59.95473770123347,
,,,C,U,d,n,L,U,d,L,u,,,,,5,19,119,6,4,0,4,0,,,,,0,24,24,20,,,,,,down,0.617127414204333,2471.9074305105496,None,001,70,2019_Oct_28_1704,ACPT_experiment_5_30_19,3.1.0,59.95473770123347,
,,,C,U,d,n,R,U,y,R,u,,,,,5,19,119,6,4,0,4,0,,,,,0,25,25,31,,,,,,down,0.7839525048138967,2473.808879146328,None,001,70,2019_Oct_28_1704,ACPT_experiment_5_30_19,3.1.0,59.95473770123347,
,,,C,U,d,n,L,G,g,L,c ,,,,,5,19,119,6,4,0,4,0,,,,,0,26,26,18,,,,,,up,0.7005530902329156,2475.877095520129,None,001,70,2019_Oct_28_1704,ACPT_experiment_5_30_19,3.1.0,59.95473770123347,
,,,C,U,d,n,R,U,d,R,u,,,,,5,19,119,6,4,0,4,0,,,,,0,27,27,9,,,,,,up,0.6338583711080901,2477.8619698319358,None,001,70,2019_Oct_28_1704,ACPT_experiment_5_30_19,3.1.0,59.95473770123347,
,,,C,U,d,n,R,U,g,R,u,,,,,5,19,119,6,4,0,4,0,,,,,0,28,28,11,,,,,,up,1.1342104858035782,2479.7634015637936,None,001,70,2019_Oct_28_1704,ACPT_experiment_5_30_19,3.1.0,59.95473770123347,
,,,C,U,d,n,L,G,d,L,i,,,,,5,19,119,6,4,0,4,0,,,,,0,29,29,16,,,,,,up,0.9006801111190725,2482.1819308563254,None,001,70,2019_Oct_28_1704,ACPT_experiment_5_30_19,3.1.0,59.95473770123347,
,,,C,U,d,n,L,G,g,R,c ,,,,,5,19,119,6,4,0,4,0,,,,,0,30,30,19,,,,,,down,0.9840855628144709,2484.366927963038,None,001,70,2019_Oct_28_1704,ACPT_experiment_5_30_19,3.1.0,59.95473770123347,
,,,C,U,d,n,R,D,y,R,y,,,,,5,19,119,6,4,0,4,0,,,,,0,31,31,27,,,,,,down,0.750586581124935,2486.635313617526,None,001,70,2019_Oct_28_1704,ACPT_experiment_5_30_19,3.1.0,59.95473770123347,
,,,C,U,d,n,L,D,g,R,i,,,,,5,19,119,6,4,0,4,0,,,,,0,32,32,15,,,,,,up,0.8673365247532274,2488.670197875479,None,001,70,2019_Oct_28_1704,ACPT_experiment_5_30_19,3.1.0,59.95473770123347,
,,,C,U,d,n,R,G,d,R,i,,,,,5,19,119,6,4,0,4,0,,,,,0,33,33,5,,,,,,down,0.667175394170954,2490.82184898098,None,001,70,2019_Oct_28_1704,ACPT_experiment_5_30_19,3.1.0,59.95473770123347,
,,,C,U,d,n,R,U,d,L,u,,,,,5,19,119,6,4,0,4,0,,,,,0,34,34,8,,,,,,up,0.7339117693845765,2492.7733163167204,None,001,70,2019_Oct_28_1704,ACPT_experiment_5_30_19,3.1.0,59.95473770123347,
,,,C,U,d,n,L,D,d,L,c ,,,,,5,19,119,6,4,0,4,0,,,,,0,35,35,12,,,,,,up,0.7172318260973043,2494.791540252007,None,001,70,2019_Oct_28_1704,ACPT_experiment_5_30_19,3.1.0,59.95473770123347,
,,,C,U,d,n,R,D,g,R,i,,,,,5,19,119,6,4,0,4,0,,,,,1,0,36,3,,,,,,down,0.8339636583827996,2496.793071566067,None,001,70,2019_Oct_28_1704,ACPT_experiment_5_30_19,3.1.0,59.95473770123347,
,,,C,U,d,n,R,U,g,R,u,,,,,5,19,119,6,4,0,4,0,,,,,1,1,37,11,,,,,,down,0.5671346738345164,2498.8946689563427,None,001,70,2019_Oct_28_1704,ACPT_experiment_5_30_19,3.1.0,59.95473770123347,
,,,C,U,d,n,L,G,g,R,c ,,,,,5,19,119,6,4,0,4,0,,,,,1,2,38,19,,,,,,up,0.6170087849072843,2500.746094062468,None,001,70,2019_Oct_28_1704,ACPT_experiment_5_30_19,3.1.0,59.95473770123347,
,,,C,U,d,n,L,D,d,R,c ,,,,,5,19,119,6,4,0,4,0,,,,,1,3,39,13,,,,,,up,0.7339060341259938,2502.6475131163857,None,001,70,2019_Oct_28_1704,ACPT_experiment_5_30_19,3.1.0,59.95473770123347,
,,,C,U,d,n,R,D,d,L,c,,,,,5,19,119,6,4,0,4,0,,,,,1,4,40,0,,,,,,down,0.7338963747429261,2504.6657319201254,None,001,70,2019_Oct_28_1704,ACPT_experiment_5_30_19,3.1.0,59.95473770123347,
,,,C,U,d,n,L,U,y,L,u,,,,,5,19,119,6,4,0,4,0,,,,,1,5,41,24,,,,,,down,0.6671521512803338,2506.700636402411,None,001,70,2019_Oct_28_1704,ACPT_experiment_5_30_19,3.1.0,59.95473770123347,
,,,C,U,d,n,L,U,g,L,u,,,,,5,19,119,6,4,0,4,0,,,,,1,6,42,22,,,,,,down,0.633804338934624,2508.668792435254,None,001,70,2019_Oct_28_1704,ACPT_experiment_5_30_19,3.1.0,59.95473770123347,
,,,C,U,d,n,L,U,d,R,u,,,,,5,19,119,6,4,0,4,0,,,,,1,7,43,21,,,,,,up,0.6504960545948961,2510.5869219198867,None,001,70,2019_Oct_28_1704,ACPT_experiment_5_30_19,3.1.0,59.95473770123347,
,,,C,U,d,n,R,G,y,R,y,,,,,5,19,119,6,4,0,4,0,,,,,1,8,44,29,,,,,,down,0.6338152057401203,2512.5217265181154,None,001,70,2019_Oct_28_1704,ACPT_experiment_5_30_19,3.1.0,59.95473770123347,
,,,C,U,d,n,R,G,d,L,i,,,,,5,19,119,6,4,0,4,0,,,,,1,9,45,4,,,,,,down,0.7138760960760919,2514.459870848012,None,001,70,2019_Oct_28_1704,ACPT_experiment_5_30_19,3.1.0,59.95473770123347,
,,,C,U,d,n,L,G,y,L,y,,,,,5,19,119,6,4,0,4,0,,,,,1,10,46,34,,,,,,down,0.5670878861978963,2516.4580675619504,None,001,70,2019_Oct_28_1704,ACPT_experiment_5_30_19,3.1.0,59.95473770123347,
,,,C,U,d,n,L,D,g,R,i,,,,,5,19,119,6,4,0,4,0,,,,,1,11,47,15,,,,,,down,0.9173657896649274,2518.3094742548765,None,001,70,2019_Oct_28_1704,ACPT_experiment_5_30_19,3.1.0,59.95473770123347,
,,,C,U,d,n,L,D,y,R,y,,,,,5,19,119,6,4,0,4,0,,,,,1,12,48,33,,,,,,down,0.5504293746666917,2520.4944592873608,None,001,70,2019_Oct_28_1704,ACPT_experiment_5_30_19,3.1.0,59.95473770123347,
,,,C,U,d,n,R,G,g,L,c ,,,,,5,19,119,6,4,0,4,0,,,,,1,13,49,6,,,,,,up,1.050802619262413,2522.329202639064,None,001,70,2019_Oct_28_1704,ACPT_experiment_5_30_19,3.1.0,59.95473770123347,
,,,C,U,d,n,L,G,d,L,i,,,,,5,19,119,6,4,0,4,0,,,,,1,14,50,16,,,,,,down,0.7839262433662952,2524.664319839075,None,001,70,2019_Oct_28_1704,ACPT_experiment_5_30_19,3.1.0,59.95473770123347,
,,,C,U,d,n,R,U,y,L,u,,,,,5,19,119,6,4,0,4,0,,,,,1,15,51,30,,,,,,down,0.6338055463575074,2526.732557644632,None,001,70,2019_Oct_28_1704,ACPT_experiment_5_30_19,3.1.0,59.95473770123347,
,,,C,U,d,n,L,D,g,L,i,,,,,5,19,119,6,4,0,4,0,,,,,1,16,52,14,,,,,,up,0.7505663567912961,2528.65069377009,None,001,70,2019_Oct_28_1704,ACPT_experiment_5_30_19,3.1.0,59.95473770123347,
,,,C,U,d,n,R,D,y,L,y,,,,,5,19,119,6,4,0,4,0,,,,,1,17,53,26,,,,,,down,0.667193505513751,2530.68555780371,None,001,70,2019_Oct_28_1704,ACPT_experiment_5_30_19,3.1.0,59.95473770123347,
,,,C,U,d,n,R,D,d,R,c ,,,,,5,19,119,6,4,0,4,0,,,,,1,18,54,1,,,,,,up,0.9840988444661889,2532.6370598528574,None,001,70,2019_Oct_28_1704,ACPT_experiment_5_30_19,3.1.0,59.95473770123347,
,,,C,U,d,n,R,G,g,R,c ,,,,,5,19,119,6,4,0,4,0,,,,,1,19,55,7,,,,,,down,0.5003753575856535,2534.90546633539,None,001,70,2019_Oct_28_1704,ACPT_experiment_5_30_19,3.1.0,59.95473770123347,
,,,C,U,d,n,L,U,y,R,u,,,,,5,19,119,6,4,0,4,0,,,,,1,20,56,25,,,,,,down,0.45033613143505136,2536.690189175997,None,001,70,2019_Oct_28_1704,ACPT_experiment_5_30_19,3.1.0,59.95473770123347,
,,,C,U,d,n,L,U,g,R,u,,,,,5,19,119,6,4,0,4,0,,,,,1,21,57,23,,,,,,up,0.5671156569242157,2538.4081197980827,None,001,70,2019_Oct_28_1704,ACPT_experiment_5_30_19,3.1.0,59.95473770123347,
,,,C,U,d,n,R,U,d,R,u,,,,,5,19,119,6,4,0,4,0,,,,,1,22,58,9,,,,,,up,0.6838665061200118,2540.2595292077103,None,001,70,2019_Oct_28_1704,ACPT_experiment_5_30_19,3.1.0,59.95473770123347,
,,,C,U,d,n,R,U,y,R,u,,,,,5,19,119,6,4,0,4,0,,,,,1,23,59,31,,,,,,down,0.6838803914824894,2542.2277121057123,None,001,70,2019_Oct_28_1704,ACPT_experiment_5_30_19,3.1.0,59.95473770123347,
,,,C,U,d,n,L,G,y,R,y,,,,,5,19,119,6,4,0,4,0,,,,,1,24,60,35,,,,,,down,0.5337738816924684,2544.1958790053613,None,001,70,2019_Oct_28_1704,ACPT_experiment_5_30_19,3.1.0,59.95473770123347,
,,,C,U,d,n,L,U,d,L,u,,,,,5,19,119,6,4,0,4,0,,,,,1,25,61,20,,,,,,up,0.7002793070960251,2546.030863841639,None,001,70,2019_Oct_28_1704,ACPT_experiment_5_30_19,3.1.0,59.95473770123347,
,,,C,U,d,n,R,D,g,L,i,,,,,5,19,119,6,4,0,4,0,,,,,1,26,62,2,,,,,,down,0.8006037718082553,2548.0154673888665,None,001,70,2019_Oct_28_1704,ACPT_experiment_5_30_19,3.1.0,59.95473770123347,
,,,C,U,d,n,L,G,g,L,c ,,,,,5,19,119,6,4,0,4,0,,,,,1,27,63,18,,,,,,up,0.7005334696109458,2550.100380609875,None,001,70,2019_Oct_28_1704,ACPT_experiment_5_30_19,3.1.0,59.95473770123347,
,,,C,U,d,n,R,G,d,R,i,,,,,5,19,119,6,4,0,4,0,,,,,1,28,64,5,,,,,,up,1.0341395798950543,2552.085206624767,None,001,70,2019_Oct_28_1704,ACPT_experiment_5_30_19,3.1.0,59.95473770123347,
,,,C,U,d,n,L,D,y,L,y,,,,,5,19,119,6,4,0,4,0,,,,,1,29,65,32,,,,,,down,0.7172282038286539,2554.403645390769,None,001,70,2019_Oct_28_1704,ACPT_experiment_5_30_19,3.1.0,59.95473770123347,
,,,C,U,d,n,R,D,y,R,y,,,,,5,19,119,6,4,0,4,0,,,,,1,30,66,27,,,,,,down,0.8339552064226154,2556.4218783817273,None,001,70,2019_Oct_28_1704,ACPT_experiment_5_30_19,3.1.0,59.95473770123347,
,,,C,U,d,n,L,D,d,L,c ,,,,,5,19,119,6,4,0,4,0,,,,,1,31,67,12,,,,,,down,0.7672469037902374,2558.573506546194,None,001,70,2019_Oct_28_1704,ACPT_experiment_5_30_19,3.1.0,59.95473770123347,
,,,C,U,d,n,R,U,d,L,u,,,,,5,19,119,6,4,0,4,0,,,,,1,32,68,8,,,,,,up,0.9006795074078582,2560.625076784548,None,001,70,2019_Oct_28_1704,ACPT_experiment_5_30_19,3.1.0,59.95473770123347,
,,,C,U,d,n,R,U,g,L,u,,,,,5,19,119,6,4,0,4,0,,,,,1,33,69,10,,,,,,up,0.6671762997380029,2562.8100705708484,None,001,70,2019_Oct_28_1704,ACPT_experiment_5_30_19,3.1.0,59.95473770123347,
,,,C,U,d,n,R,G,y,L,y,,,,,5,19,119,6,4,0,4,0,,,,,1,34,70,28,,,,,,down,0.5837699424755556,2564.7615632624684,None,001,70,2019_Oct_28_1704,ACPT_experiment_5_30_19,3.1.0,59.95473770123347,
,,,C,U,d,n,L,G,d,R,i,,,,,5,19,119,6,4,0,4,0,,,,,1,35,71,17,,,,,,up,0.6171168492537618,2566.629664991468,None,001,70,2019_Oct_28_1704,ACPT_experiment_5_30_19,3.1.0,59.95473770123347,
,,,C,U,d,n,,,,,,,,,,5,19,119,6,5,0,5,0,0,0,0,0,,,,,,,,,,,,,,001,70,2019_Oct_28_1704,ACPT_experiment_5_30_19,3.1.0,59.95473770123347,
,,,C,U,d,n,R,D,y,R,y,,,,,5,19,119,6,5,0,5,0,,,,,0,0,0,27,,,,,,down,0.9173534135807131,2735.675246714225,None,001,70,2019_Oct_28_1704,ACPT_experiment_5_30_19,3.1.0,59.95473770123347,
,,,C,U,d,n,L,U,d,R,u,,,,,5,19,119,6,5,0,5,0,,,,,0,1,1,21,,,,,,up,0.5337551666380023,2737.876919840101,None,001,70,2019_Oct_28_1704,ACPT_experiment_5_30_19,3.1.0,59.95473770123347,
,,,C,U,d,n,L,U,y,L,u,,,,,5,19,119,6,5,0,5,0,,,,,0,2,2,24,,,,,,down,0.6671925999467021,2739.6949524592337,None,001,70,2019_Oct_28_1704,ACPT_experiment_5_30_19,3.1.0,59.95473770123347,
,,,C,U,d,n,L,G,y,L,y,,,,,5,19,119,6,5,0,5,0,,,,,0,3,3,34,,,,,,down,0.5170682806688092,2741.646453300958,None,001,70,2019_Oct_28_1704,ACPT_experiment_5_30_19,3.1.0,59.95473770123347,
,,,C,U,d,n,R,U,d,R,u,,,,,5,19,119,6,5,0,5,0,,,,,0,4,4,9,,,,,,up,0.5170773363406624,2743.4478319363952,None,001,70,2019_Oct_28_1704,ACPT_experiment_5_30_19,3.1.0,59.95473770123347,
,,,C,U,d,n,R,U,y,R,u,,,,,5,19,119,6,5,0,5,0,,,,,0,5,5,31,,,,,,down,0.5170821660321963,2745.2491764621363,None,001,70,2019_Oct_28_1704,ACPT_experiment_5_30_19,3.1.0,59.95473770123347,
,,,C,U,d,n,R,G,g,L,c ,,,,,5,19,119,6,5,0,5,0,,,,,0,6,6,6,,,,,,up,0.8839992622647515,2747.0505816608766,None,001,70,2019_Oct_28_1704,ACPT_experiment_5_30_19,3.1.0,59.95473770123347,
,,,C,U,d,n,L,D,g,L,i,,,,,5,19,119,6,5,0,5,0,,,,,0,7,7,14,,,,,,down,0.8173003171600612,2749.2188810148145,None,001,70,2019_Oct_28_1704,ACPT_experiment_5_30_19,3.1.0,59.95473770123347,
,,,C,U,d,n,R,D,g,L,i,,,,,5,19,119,6,5,0,5,0,,,,,0,8,8,2,,,,,,up,0.7505932219505667,2751.3204850459165,None,001,70,2019_Oct_28_1704,ACPT_experiment_5_30_19,3.1.0,59.95473770123347,
,,,C,U,d,n,R,G,y,L,y,,,,,5,19,119,6,5,0,5,0,,,,,0,9,9,28,,,,,,down,0.6004921455632939,2753.355362361188,None,001,70,2019_Oct_28_1704,ACPT_experiment_5_30_19,3.1.0,59.95473770123347,
,,,C,U,d,n,R,G,d,L,i,,,,,5,19,119,6,5,0,5,0,,,,,0,10,10,4,,,,,,up,0.5670969418692948,2755.240154296569,None,001,70,2019_Oct_28_1704,ACPT_experiment_5_30_19,3.1.0,59.95473770123347,
,,,C,U,d,n,R,U,d,L,u,,,,,5,19,119,6,5,0,5,0,,,,,0,11,11,8,,,,,,up,0.6171334513182956,2757.0915658191866,None,001,70,2019_Oct_28_1704,ACPT_experiment_5_30_19,3.1.0,59.95473770123347,
,,,C,U,d,n,L,D,d,L,c ,,,,,5,19,119,6,5,0,5,0,,,,,0,12,12,12,,,,,,down,0.5670975455809639,2758.993014454965,None,001,70,2019_Oct_28_1704,ACPT_experiment_5_30_19,3.1.0,59.95473770123347,
,,,C,U,d,n,R,U,g,L,u,,,,,5,19,119,6,5,0,5,0,,,,,0,13,13,10,,,,,,up,0.6835954396847228,2760.8613866466876,None,001,70,2019_Oct_28_1704,ACPT_experiment_5_30_19,3.1.0,59.95473770123347,
,,,C,U,d,n,L,D,y,L,y,,,,,5,19,119,6,5,0,5,0,,,,,0,14,14,32,,,,,,down,0.5504127726021579,2762.8292776502103,None,001,70,2019_Oct_28_1704,ACPT_experiment_5_30_19,3.1.0,59.95473770123347,
,,,C,U,d,n,L,G,d,R,i,,,,,5,19,119,6,5,0,5,0,,,,,0,15,15,17,,,,,,down,1.184235826591248,2764.6640034942816,None,001,70,2019_Oct_28_1704,ACPT_experiment_5_30_19,3.1.0,59.95473770123347,
,,,C,U,d,n,R,G,d,R,i,,,,,5,19,119,6,5,0,5,0,,,,,0,16,16,5,,,,,,up,0.6838474892092563,2767.132558127601,None,001,70,2019_Oct_28_1704,ACPT_experiment_5_30_19,3.1.0,59.95473770123347,
,,,C,U,d,n,L,D,g,R,i,,,,,5,19,119,6,5,0,5,0,,,,,0,17,17,15,,,,,,up,0.7172608042465072,2769.100705406628,None,001,70,2019_Oct_28_1704,ACPT_experiment_5_30_19,3.1.0,59.95473770123347,
,,,C,U,d,n,R,D,d,L,c,,,,,5,19,119,6,5,0,5,0,,,,,0,18,18,0,,,,,,up,0.8006297313995674,2771.1022518134737,None,001,70,2019_Oct_28_1704,ACPT_experiment_5_30_19,3.1.0,59.95473770123347,
,,,C,U,d,n,R,U,y,L,u,,,,,5,19,119,6,5,0,5,0,,,,,0,19,19,30,,,,,,down,0.7505678660700141,2773.1871746938655,None,001,70,2019_Oct_28_1704,ACPT_experiment_5_30_19,3.1.0,59.95473770123347,
,,,C,U,d,n,L,G,g,L,c ,,,,,5,19,119,6,5,0,5,0,,,,,0,20,20,18,,,,,,up,1.0174427326874138,2775.222056536972,None,001,70,2019_Oct_28_1704,ACPT_experiment_5_30_19,3.1.0,59.95473770123347,
,,,C,U,d,n,R,D,d,R,c ,,,,,5,19,119,6,5,0,5,0,,,,,0,21,21,1,,,,,,up,0.667166942210315,2777.5238165671094,None,001,70,2019_Oct_28_1704,ACPT_experiment_5_30_19,3.1.0,59.95473770123347,
,,,C,U,d,n,L,D,d,R,c ,,,,,5,19,119,6,5,0,5,0,,,,,0,22,22,13,,,,,,up,0.8840016771105184,2779.4752986937797,None,001,70,2019_Oct_28_1704,ACPT_experiment_5_30_19,3.1.0,59.95473770123347,
,,,C,U,d,n,R,D,g,R,i,,,,,5,19,119,6,5,0,5,0,,,,,0,23,23,3,,,,,,up,0.6838514133337412,2781.6436218943195,None,001,70,2019_Oct_28_1704,ACPT_experiment_5_30_19,3.1.0,59.95473770123347,
,,,C,U,d,n,R,D,y,L,y,,,,,5,19,119,6,5,0,5,0,,,,,0,24,24,26,,,,,,down,0.8339476600294802,2783.61180841459,None,001,70,2019_Oct_28_1704,ACPT_experiment_5_30_19,3.1.0,59.95473770123347,
,,,C,U,d,n,L,U,g,L,u,,,,,5,19,119,6,5,0,5,0,,,,,0,25,25,22,,,,,,up,0.8673374303202763,2785.730070655368,None,001,70,2019_Oct_28_1704,ACPT_experiment_5_30_19,3.1.0,59.95473770123347,
,,,C,U,d,n,L,U,g,R,u,,,,,5,19,119,6,5,0,5,0,,,,,0,26,26,23,,,,,,up,0.600455922877245,2787.8650303470645,None,001,70,2019_Oct_28_1704,ACPT_experiment_5_30_19,3.1.0,59.95473770123347,
,,,C,U,d,n,L,D,y,R,y,,,,,5,19,119,6,5,0,5,0,,,,,0,27,27,33,,,,,,down,0.5670987530038474,2789.749800548834,None,001,70,2019_Oct_28_1704,ACPT_experiment_5_30_19,3.1.0,59.95473770123347,
,,,C,U,d,n,L,U,d,L,u,,,,,5,19,119,6,5,0,5,0,,,,,0,28,28,20,,,,,,up,0.717236052077169,2791.60119033784,None,001,70,2019_Oct_28_1704,ACPT_experiment_5_30_19,3.1.0,59.95473770123347,
,,,C,U,d,n,L,G,y,R,y,,,,,5,19,119,6,5,0,5,0,,,,,0,29,29,35,,,,,,down,0.7168593361407147,2793.636447991316,None,001,70,2019_Oct_28_1704,ACPT_experiment_5_30_19,3.1.0,59.95473770123347,
,,,C,U,d,n,R,G,y,R,y,,,,,5,19,119,6,5,0,5,0,,,,,0,30,30,29,,,,,,down,0.5837705461867699,2795.637623115628,None,001,70,2019_Oct_28_1704,ACPT_experiment_5_30_19,3.1.0,59.95473770123347,
,,,C,U,d,n,L,U,y,R,u,,,,,5,19,119,6,5,0,5,0,,,,,0,31,31,25,,,,,,down,0.433659508560595,2797.5057224297816,None,001,70,2019_Oct_28_1704,ACPT_experiment_5_30_19,3.1.0,59.95473770123347,
,,,C,U,d,n,L,G,d,L,i,,,,,5,19,119,6,5,0,5,0,,,,,0,32,32,16,,,,,,down,0.7505805440105178,2799.2236889726973,None,001,70,2019_Oct_28_1704,ACPT_experiment_5_30_19,3.1.0,59.95473770123347,
,,,C,U,d,n,R,G,g,R,c ,,,,,5,19,119,6,5,0,5,0,,,,,0,33,33,7,,,,,,up,0.7505736013290516,2801.2585744380726,None,001,70,2019_Oct_28_1704,ACPT_experiment_5_30_19,3.1.0,59.95473770123347,
,,,C,U,d,n,L,G,g,R,c ,,,,,5,19,119,6,5,0,5,0,,,,,0,34,34,19,,,,,,up,0.5004058450135744,2803.2934553756127,None,001,70,2019_Oct_28_1704,ACPT_experiment_5_30_19,3.1.0,59.95473770123347,
,,,C,U,d,n,R,U,g,R,u,,,,,5,19,119,6,5,0,5,0,,,,,0,35,35,11,,,,,,up,0.6838568467369441,2805.0781516529164,None,001,70,2019_Oct_28_1704,ACPT_experiment_5_30_19,3.1.0,59.95473770123347,
,,,C,U,d,n,R,D,g,L,i,,,,,5,19,119,6,5,0,5,0,,,,,1,0,36,2,,,,,,up,0.7339111656729074,2807.046301648645,None,001,70,2019_Oct_28_1704,ACPT_experiment_5_30_19,3.1.0,59.95473770123347,
,,,C,U,d,n,L,D,y,R,y,,,,,5,19,119,6,5,0,5,0,,,,,1,1,37,33,,,,,,down,0.5837711498979843,2809.064528904345,None,001,70,2019_Oct_28_1704,ACPT_experiment_5_30_19,3.1.0,59.95473770123347,
,,,C,U,d,n,L,G,d,L,i,,,,,5,19,119,6,5,0,5,0,,,,,1,2,38,16,,,,,,up,0.7839401287292276,2810.9326215776728,None,001,70,2019_Oct_28_1704,ACPT_experiment_5_30_19,3.1.0,59.95473770123347,
,,,C,U,d,n,L,G,g,R,c ,,,,,5,19,119,6,5,0,5,0,,,,,1,3,39,19,,,,,,up,0.8670579119252579,2813.0011346756455,None,001,70,2019_Oct_28_1704,ACPT_experiment_5_30_19,3.1.0,59.95473770123347,
,,,C,U,d,n,L,U,g,L,u,,,,,5,19,119,6,5,0,5,0,,,,,1,4,40,22,,,,,,up,0.7338933561854901,2815.15250354605,None,001,70,2019_Oct_28_1704,ACPT_experiment_5_30_19,3.1.0,59.95473770123347,
,,,C,U,d,n,L,U,g,R,u,,,,,5,19,119,6,5,0,5,0,,,,,1,5,41,23,,,,,,down,0.8506873707492559,2817.154010711652,None,001,70,2019_Oct_28_1704,ACPT_experiment_5_30_19,3.1.0,59.95473770123347,
,,,C,U,d,n,L,D,d,R,c ,,,,,5,19,119,6,5,0,5,0,,,,,1,6,42,13,,,,,,down,0.6004746379317112,2819.288967988503,None,001,70,2019_Oct_28_1704,ACPT_experiment_5_30_19,3.1.0,59.95473770123347,
,,,C,U,d,n,L,U,y,R,u,,,,,5,19,119,6,5,0,5,0,,,,,1,7,43,25,,,,,,down,0.48352577138484776,2821.1905811356473,None,001,70,2019_Oct_28_1704,ACPT_experiment_5_30_19,3.1.0,59.95473770123347,
,,,C,U,d,n,L,G,y,R,y,,,,,5,19,119,6,5,0,5,0,,,,,1,8,44,35,,,,,,down,0.48370990337252806,2822.975134937052,None,001,70,2019_Oct_28_1704,ACPT_experiment_5_30_19,3.1.0,59.95473770123347,
,,,C,U,d,n,R,D,g,R,i,,,,,5,19,119,6,5,0,5,0,,,,,1,9,45,3,,,,,,up,0.6838435650852261,2824.743152478492,None,001,70,2019_Oct_28_1704,ACPT_experiment_5_30_19,3.1.0,59.95473770123347,
,,,C,U,d,n,L,G,d,R,i,,,,,5,19,119,6,5,0,5,0,,,,,1,10,46,17,,,,,,down,0.6170908896624496,2826.711357110106,None,001,70,2019_Oct_28_1704,ACPT_experiment_5_30_19,3.1.0,59.95473770123347,
,,,C,U,d,n,R,D,d,R,c ,,,,,5,19,119,6,5,0,5,0,,,,,1,11,47,1,,,,,,down,0.43369935351574895,2828.596089881766,None,001,70,2019_Oct_28_1704,ACPT_experiment_5_30_19,3.1.0,59.95473770123347,
,,,C,U,d,n,L,U,d,R,u,,,,,5,19,119,6,5,0,5,0,,,,,1,12,48,21,,,,,,down,0.6004577340113428,2830.314065782209,None,001,70,2019_Oct_28_1704,ACPT_experiment_5_30_19,3.1.0,59.95473770123347,
,,,C,U,d,n,R,U,y,L,u,,,,,5,19,119,6,5,0,5,0,,,,,1,13,49,30,,,,,,down,0.7669821763252003,2832.2157872955568,None,001,70,2019_Oct_28_1704,ACPT_experiment_5_30_19,3.1.0,59.95473770123347,
,,,C,U,d,n,L,D,d,L,c ,,,,,5,19,119,6,5,0,5,0,,,,,1,14,50,12,,,,,,up,0.700541016004081,2834.2670677524216,None,001,70,2019_Oct_28_1704,ACPT_experiment_5_30_19,3.1.0,59.95473770123347,
,,,C,U,d,n,R,G,y,L,y,,,,,5,19,119,6,5,0,5,0,,,,,1,15,51,28,,,,,,down,0.6004480746282752,2836.2519324048453,None,001,70,2019_Oct_28_1704,ACPT_experiment_5_30_19,3.1.0,59.95473770123347,
,,,C,U,d,n,R,G,g,R,c ,,,,,5,19,119,6,5,0,5,0,,,,,1,16,52,7,,,,,,up,0.9007284080339559,2838.1199945907456,None,001,70,2019_Oct_28_1704,ACPT_experiment_5_30_19,3.1.0,59.95473770123347,
,,,C,U,d,n,L,U,d,L,u,,,,,5,19,119,6,5,0,5,0,,,,,1,17,53,20,,,,,,up,0.9173703175010814,2840.305018562617,None,001,70,2019_Oct_28_1704,ACPT_experiment_5_30_19,3.1.0,59.95473770123347,
,,,C,U,d,n,R,U,d,L,u,,,,,5,19,119,6,5,0,5,0,,,,,1,18,54,8,,,,,,up,0.6838489984879743,2842.5066956126175,None,001,70,2019_Oct_28_1704,ACPT_experiment_5_30_19,3.1.0,59.95473770123347,
,,,C,U,d,n,R,U,g,R,u,,,,,5,19,119,6,5,0,5,0,,,,,1,19,55,11,,,,,,up,0.7672616947206734,2844.4581714003175,None,001,70,2019_Oct_28_1704,ACPT_experiment_5_30_19,3.1.0,59.95473770123347,
,,,C,U,d,n,R,G,g,L,c ,,,,,5,19,119,6,5,0,5,0,,,,,1,20,56,6,,,,,,up,0.7839331860477614,2846.509763070428,None,001,70,2019_Oct_28_1704,ACPT_experiment_5_30_19,3.1.0,59.95473770123347,
,,,C,U,d,n,L,G,y,L,y,,,,,5,19,119,6,5,0,5,0,,,,,1,21,57,34,,,,,,down,0.6838580541598276,2848.5779930277363,None,001,70,2019_Oct_28_1704,ACPT_experiment_5_30_19,3.1.0,59.95473770123347,
,,,C,U,d,n,L,D,g,L,i,,,,,5,19,119,6,5,0,5,0,,,,,1,22,58,14,,,,,,up,0.650471302425558,2850.5461716997584,None,001,70,2019_Oct_28_1704,ACPT_experiment_5_30_19,3.1.0,59.95473770123347,
,,,C,U,d,n,L,U,y,L,u,,,,,5,19,119,6,5,0,5,0,,,,,1,23,59,24,,,,,,down,0.633813696461857,2852.497648996737,None,001,70,2019_Oct_28_1704,ACPT_experiment_5_30_19,3.1.0,59.95473770123347,
,,,C,U,d,n,R,U,y,R,u,,,,,5,19,119,6,5,0,5,0,,,,,1,24,60,31,,,,,,down,0.683845376219324,2854.432455104244,None,001,70,2019_Oct_28_1704,ACPT_experiment_5_30_19,3.1.0,59.95473770123347,
,,,C,U,d,n,R,D,y,R,y,,,,,5,19,119,6,5,0,5,0,,,,,1,25,61,27,,,,,,down,0.43366041412809864,2856.383941155039,None,001,70,2019_Oct_28_1704,ACPT_experiment_5_30_19,3.1.0,59.95473770123347,
,,,C,U,d,n,R,G,d,R,i,,,,,5,19,119,6,5,0,5,0,,,,,1,26,62,5,,,,,,up,0.5666453657145212,2858.119015370795,None,001,70,2019_Oct_28_1704,ACPT_experiment_5_30_19,3.1.0,59.95473770123347,
,,,C,U,d,n,L,G,g,L,c ,,,,,5,19,119,6,5,0,5,0,,,,,1,27,63,18,,,,,,up,0.9006864500888696,2859.9700094269538,None,001,70,2019_Oct_28_1704,ACPT_experiment_5_30_19,3.1.0,59.95473770123347,
,,,C,U,d,n,R,D,d,L,c,,,,,5,19,119,6,5,0,5,0,,,,,1,28,64,0,,,,,,up,0.7672478093577411,2862.1550083448014,None,001,70,2019_Oct_28_1704,ACPT_experiment_5_30_19,3.1.0,59.95473770123347,
,,,C,U,d,n,R,D,y,L,y,,,,,5,19,119,6,5,0,5,0,,,,,1,29,65,26,,,,,,down,0.5337171328174009,2864.206596996354,None,001,70,2019_Oct_28_1704,ACPT_experiment_5_30_19,3.1.0,59.95473770123347,
