facing_vig,person_vig,text_vig,facing_train,person_train,food_train,correct_key_train,facing_exp,person_exp,food_exp,showL_R,consistent,vig_random.thisRepN,vig_random.thisTrialN,vig_random.thisN,vig_random.thisIndex,trainTrials.thisRepN,trainTrials.thisTrialN,trainTrials.thisN,trainTrials.thisIndex,expBlock.thisRepN,expBlock.thisTrialN,expBlock.thisN,expBlock.thisIndex,breakLoop.thisRepN,breakLoop.thisTrialN,breakLoop.thisN,breakLoop.thisIndex,expTrials.thisRepN,expTrials.thisTrialN,expTrials.thisN,expTrials.thisIndex,train_resp.keys,train_resp.corr,train_resp.rt,train_resp.started,train_resp.stopped,exp_resp.keys,exp_resp.rt,exp_resp.started,exp_resp.stopped,session,participant,date,expName,psychopyVersion,frameRate,
C,D,"is allergic to gluten, meaning she can’t eat wheat products. She enjoys eating dairy products. She thinks eating insects, like crickets, is disgusting.",,,,,,,,,,0,0,0,1,,,,,,,,,,,,,,,,,,,,,,,,,,001,71,2019_Oct_29_0903,ACPT_experiment_5_30_19,3.1.0,59.96805059769455,
C,U,"did not report her food preferences, so her food preferences are unknown.",,,,,,,,,,0,1,1,2,,,,,,,,,,,,,,,,,,,,,,,,,,001,71,2019_Oct_29_0903,ACPT_experiment_5_30_19,3.1.0,59.96805059769455,
C,G,"cannot eat dairy products because she is lactose intolerant. She enjoys eating wheat products. She thinks eating insects, like crickets, is disgusting.",,,,,,,,,,0,2,2,0,,,,,,,,,,,,,,,,,,,,,,,,,,001,71,2019_Oct_29_0903,ACPT_experiment_5_30_19,3.1.0,59.96805059769455,
,,,C,U,y,n,,,,,,,,,,0,0,0,17,,,,,,,,,,,,,n,1,3.319199082602836,744.3834458597746,None,,,,,001,71,2019_Oct_29_0903,ACPT_experiment_5_30_19,3.1.0,59.96805059769455,
,,,C,D,d,v,,,,,,,,,,0,1,1,18,,,,,,,,,,,,,b,0,1.7012856901806117,750.5047890774442,None,,,,,001,71,2019_Oct_29_0903,ACPT_experiment_5_30_19,3.1.0,59.96805059769455,
,,,C,G,y,b,,,,,,,,,,0,2,2,5,,,,,,,,,,,,,b,1,1.6345890593931927,755.4918977641917,None,,,,,001,71,2019_Oct_29_0903,ACPT_experiment_5_30_19,3.1.0,59.96805059769455,
,,,C,D,d,v,,,,,,,,,,0,3,3,0,,,,,,,,,,,,,b,0,1.5011493121785406,760.4123049904749,None,,,,,001,71,2019_Oct_29_0903,ACPT_experiment_5_30_19,3.1.0,59.96805059769455,
,,,C,D,g,b,,,,,,,,,,0,4,4,10,,,,,,,,,,,,,v,0,1.3343552124740654,765.1992779029301,None,,,,,001,71,2019_Oct_29_0903,ACPT_experiment_5_30_19,3.1.0,59.96805059769455,
,,,C,U,y,n,,,,,,,,,,0,5,5,8,,,,,,,,,,,,,n,1,1.383997952216987,769.8365130215636,None,,,,,001,71,2019_Oct_29_0903,ACPT_experiment_5_30_19,3.1.0,59.96805059769455,
,,,C,G,y,b,,,,,,,,,,0,6,6,14,,,,,,,,,,,,,b,1,1.2676489223331373,774.506355100184,None,,,,,001,71,2019_Oct_29_0903,ACPT_experiment_5_30_19,3.1.0,59.96805059769455,
,,,C,G,g,v,,,,,,,,,,0,7,7,19,,,,,,,,,,,,,b,0,2.2984320755747376,779.0798339557077,None,,,,,001,71,2019_Oct_29_0903,ACPT_experiment_5_30_19,3.1.0,59.96805059769455,
,,,C,D,y,b,,,,,,,,,,0,8,8,2,,,,,,,,,,,,,b,1,1.3510432554921863,784.6640829907533,None,,,,,001,71,2019_Oct_29_0903,ACPT_experiment_5_30_19,3.1.0,59.96805059769455,
,,,C,G,d,b,,,,,,,,,,0,9,9,3,,,,,,,,,,,,,b,1,3.1023728504542305,789.3176409080879,None,,,,,001,71,2019_Oct_29_0903,ACPT_experiment_5_30_19,3.1.0,59.96805059769455,
,,,C,D,g,b,,,,,,,,,,0,10,10,1,,,,,,,,,,,,,v,0,2.251711592220772,795.7058252846264,None,,,,,001,71,2019_Oct_29_0903,ACPT_experiment_5_30_19,3.1.0,59.96805059769455,
,,,C,D,d,v,,,,,,,,,,0,11,11,9,,,,,,,,,,,,,v,1,1.1509642299033658,801.2433622882527,None,,,,,001,71,2019_Oct_29_0903,ACPT_experiment_5_30_19,3.1.0,59.96805059769455,
,,,C,U,g,n,,,,,,,,,,0,12,12,16,,,,,,,,,,,,,n,1,1.7677972839708218,805.6969942203859,None,,,,,001,71,2019_Oct_29_0903,ACPT_experiment_5_30_19,3.1.0,59.96805059769455,
,,,C,U,d,n,,,,,,,,,,0,13,13,6,,,,,,,,,,,,,n,1,1.0675001682841412,810.7339098558914,None,,,,,001,71,2019_Oct_29_0903,ACPT_experiment_5_30_19,3.1.0,59.96805059769455,
,,,C,D,y,b,,,,,,,,,,0,14,14,11,,,,,,,,,,,,,b,1,0.8170406698036459,815.104158321639,None,,,,,001,71,2019_Oct_29_0903,ACPT_experiment_5_30_19,3.1.0,59.96805059769455,
,,,C,G,d,b,,,,,,,,,,0,15,15,12,,,,,,,,,,,,,b,1,3.28588185825447,819.2070159509135,None,,,,,001,71,2019_Oct_29_0903,ACPT_experiment_5_30_19,3.1.0,59.96805059769455,
,,,C,U,g,n,,,,,,,,,,0,16,16,7,,,,,,,,,,,,,n,1,1.1175033226668347,825.7787063167043,None,,,,,001,71,2019_Oct_29_0903,ACPT_experiment_5_30_19,3.1.0,59.96805059769455,
,,,C,G,g,v,,,,,,,,,,0,17,17,4,,,,,,,,,,,,,v,1,2.1180391149496245,830.1989639739306,None,,,,,001,71,2019_Oct_29_0903,ACPT_experiment_5_30_19,3.1.0,59.96805059769455,
,,,C,U,d,n,,,,,,,,,,0,18,18,15,,,,,,,,,,,,,b,0,0.7005385995325923,835.6028294058501,None,,,,,001,71,2019_Oct_29_0903,ACPT_experiment_5_30_19,3.1.0,59.96805059769455,
,,,C,G,g,v,,,,,,,,,,0,19,19,13,,,,,,,,,,,,,v,1,1.5507585460379687,839.6062771914583,None,,,,,001,71,2019_Oct_29_0903,ACPT_experiment_5_30_19,3.1.0,59.96805059769455,
,,,C,D,g,b,,,,,,,,,,1,0,20,1,,,,,,,,,,,,,b,1,1.0508166530883045,844.4428813731738,None,,,,,001,71,2019_Oct_29_0903,ACPT_experiment_5_30_19,3.1.0,59.96805059769455,
,,,C,G,d,b,,,,,,,,,,1,1,21,12,,,,,,,,,,,,,b,1,1.8011365437200766,848.7964571904984,None,,,,,001,71,2019_Oct_29_0903,ACPT_experiment_5_30_19,3.1.0,59.96805059769455,
,,,C,G,y,b,,,,,,,,,,1,2,22,14,,,,,,,,,,,,,b,1,0.7339062336338884,853.883392582401,None,,,,,001,71,2019_Oct_29_0903,ACPT_experiment_5_30_19,3.1.0,59.96805059769455,
,,,C,G,g,v,,,,,,,,,,1,3,23,19,,,,,,,,,,,,,v,1,1.9648517243908827,857.9231221084196,None,,,,,001,71,2019_Oct_29_0903,ACPT_experiment_5_30_19,3.1.0,59.96805059769455,
,,,C,D,d,v,,,,,,,,,,1,4,24,9,,,,,,,,,,,,,b,0,0.9507566141669486,863.1737907922814,None,,,,,001,71,2019_Oct_29_0903,ACPT_experiment_5_30_19,3.1.0,59.96805059769455,
,,,C,D,y,b,,,,,,,,,,1,5,25,11,,,,,,,,,,,,,b,1,0.7003387716499674,867.4272461997234,None,,,,,001,71,2019_Oct_29_0903,ACPT_experiment_5_30_19,3.1.0,59.96805059769455,
,,,C,G,g,v,,,,,,,,,,1,6,26,4,,,,,,,,,,,,,v,1,3.4359818778448243,871.4133961956031,None,,,,,001,71,2019_Oct_29_0903,ACPT_experiment_5_30_19,3.1.0,59.96805059769455,
,,,C,U,d,n,,,,,,,,,,1,7,27,6,,,,,,,,,,,,,n,1,1.167573186962045,878.1351678659862,None,,,,,001,71,2019_Oct_29_0903,ACPT_experiment_5_30_19,3.1.0,59.96805059769455,
,,,C,D,d,v,,,,,,,,,,1,8,28,0,,,,,,,,,,,,,v,1,2.935299233198066,882.6055156117798,None,,,,,001,71,2019_Oct_29_0903,ACPT_experiment_5_30_19,3.1.0,59.96805059769455,
,,,C,D,y,b,,,,,,,,,,1,9,29,2,,,,,,,,,,,,,b,1,0.7339255523413613,888.8099359132059,None,,,,,001,71,2019_Oct_29_0903,ACPT_experiment_5_30_19,3.1.0,59.96805059769455,
,,,C,U,g,n,,,,,,,,,,1,10,30,7,,,,,,,,,,,,,n,1,1.4008046241742704,892.8466342132501,None,,,,,001,71,2019_Oct_29_0903,ACPT_experiment_5_30_19,3.1.0,59.96805059769455,
,,,C,G,g,v,,,,,,,,,,1,11,31,13,,,,,,,,,,,,,v,1,1.718006333517451,897.5332618339912,None,,,,,001,71,2019_Oct_29_0903,ACPT_experiment_5_30_19,3.1.0,59.96805059769455,
,,,C,G,d,b,,,,,,,,,,1,12,32,3,,,,,,,,,,,,,b,1,1.0841731185616936,902.5370600730307,None,,,,,001,71,2019_Oct_29_0903,ACPT_experiment_5_30_19,3.1.0,59.96805059769455,
,,,C,U,y,n,,,,,,,,,,1,13,33,17,,,,,,,,,,,,,b,0,0.7639323350190352,906.9437478473978,None,,,,,001,71,2019_Oct_29_0903,ACPT_experiment_5_30_19,3.1.0,59.96805059769455,
,,,C,D,g,b,,,,,,,,,,1,14,34,10,,,,,,,,,,,,,b,1,2.2017235305781924,910.9934926140656,None,,,,,001,71,2019_Oct_29_0903,ACPT_experiment_5_30_19,3.1.0,59.96805059769455,
,,,C,U,y,n,,,,,,,,,,1,15,35,8,,,,,,,,,,,,,n,1,0.9507394084430416,916.4810002019408,None,,,,,001,71,2019_Oct_29_0903,ACPT_experiment_5_30_19,3.1.0,59.96805059769455,
,,,C,U,d,n,,,,,,,,,,1,16,36,15,,,,,,,,,,,,,n,1,1.134241775437431,920.7175689459018,None,,,,,001,71,2019_Oct_29_0903,ACPT_experiment_5_30_19,3.1.0,59.96805059769455,
,,,C,U,g,n,,,,,,,,,,1,17,37,16,,,,,,,,,,,,,n,1,0.9674129624302168,925.1209037170702,None,,,,,001,71,2019_Oct_29_0903,ACPT_experiment_5_30_19,3.1.0,59.96805059769455,
,,,C,G,y,b,,,,,,,,,,1,18,38,5,,,,,,,,,,,,,b,1,1.0003389829485059,929.3912258655762,None,,,,,001,71,2019_Oct_29_0903,ACPT_experiment_5_30_19,3.1.0,59.96805059769455,
,,,C,D,d,v,,,,,,,,,,1,19,39,18,,,,,,,,,,,,,b,0,2.3851588858055948,933.6774125971858,None,,,,,001,71,2019_Oct_29_0903,ACPT_experiment_5_30_19,3.1.0,59.96805059769455,
,,,C,D,y,b,,,,,,,,,,2,0,40,11,,,,,,,,,,,,,b,1,1.2009426321919818,939.331710360653,None,,,,,001,71,2019_Oct_29_0903,ACPT_experiment_5_30_19,3.1.0,59.96805059769455,
,,,C,G,g,v,,,,,,,,,,2,1,41,13,,,,,,,,,,,,,v,1,4.036139264941312,943.8354169867584,None,,,,,001,71,2019_Oct_29_0903,ACPT_experiment_5_30_19,3.1.0,59.96805059769455,
,,,C,G,g,v,,,,,,,,,,2,2,42,19,,,,,,,,,,,,,v,1,1.1008496910967551,951.1406906015393,None,,,,,001,71,2019_Oct_29_0903,ACPT_experiment_5_30_19,3.1.0,59.96805059769455,
,,,C,D,d,v,,,,,,,,,,2,3,43,18,,,,,,,,,,,,,v,1,2.401645893521845,955.5442043726084,None,,,,,001,71,2019_Oct_29_0903,ACPT_experiment_5_30_19,3.1.0,59.96805059769455,
,,,C,U,d,n,,,,,,,,,,2,4,44,15,,,,,,,,,,,,,n,1,1.1175301877447055,961.231694090679,None,,,,,001,71,2019_Oct_29_0903,ACPT_experiment_5_30_19,3.1.0,59.96805059769455,
,,,C,G,d,b,,,,,,,,,,2,5,45,12,,,,,,,,,,,,,b,1,3.3356619419346316,965.6519768018543,None,,,,,001,71,2019_Oct_29_0903,ACPT_experiment_5_30_19,3.1.0,59.96805059769455,
,,,C,U,d,n,,,,,,,,,,2,6,46,6,,,,,,,,,,,,,n,1,0.9006810146306634,972.2734496661637,None,,,,,001,71,2019_Oct_29_0903,ACPT_experiment_5_30_19,3.1.0,59.96805059769455,
,,,C,G,d,b,,,,,,,,,,2,7,47,3,,,,,,,,,,,,,b,1,1.200907013324695,976.4766393055409,None,,,,,001,71,2019_Oct_29_0903,ACPT_experiment_5_30_19,3.1.0,59.96805059769455,
,,,C,U,y,n,,,,,,,,,,2,8,48,17,,,,,,,,,,,,,n,1,0.9340432153453548,980.9633880304307,None,,,,,001,71,2019_Oct_29_0903,ACPT_experiment_5_30_19,3.1.0,59.96805059769455,
,,,C,D,g,b,,,,,,,,,,2,9,49,10,,,,,,,,,,,,,v,0,1.4842526874888335,985.2001665634825,None,,,,,001,71,2019_Oct_29_0903,ACPT_experiment_5_30_19,3.1.0,59.96805059769455,
,,,C,G,y,b,,,,,,,,,,2,10,50,5,,,,,,,,,,,,,b,1,1.4010928955151485,989.9702220232664,None,,,,,001,71,2019_Oct_29_0903,ACPT_experiment_5_30_19,3.1.0,59.96805059769455,
,,,C,U,g,n,,,,,,,,,,2,11,51,16,,,,,,,,,,,,,n,1,0.8805527323745537,994.6938048224927,None,,,,,001,71,2019_Oct_29_0903,ACPT_experiment_5_30_19,3.1.0,59.96805059769455,
,,,C,D,y,b,,,,,,,,,,2,12,52,2,,,,,,,,,,,,,b,1,1.3009622225690691,998.8603517031102,None,,,,,001,71,2019_Oct_29_0903,ACPT_experiment_5_30_19,3.1.0,59.96805059769455,
,,,C,G,g,v,,,,,,,,,,2,13,53,4,,,,,,,,,,,,,v,1,3.886027473013428,1003.4640857678176,None,,,,,001,71,2019_Oct_29_0903,ACPT_experiment_5_30_19,3.1.0,59.96805059769455,
,,,C,D,d,v,,,,,,,,,,2,14,54,0,,,,,,,,,,,,,v,1,2.101602818841002,1010.6359347281239,None,,,,,001,71,2019_Oct_29_0903,ACPT_experiment_5_30_19,3.1.0,59.96805059769455,
,,,C,U,y,n,,,,,,,,,,2,15,55,8,,,,,,,,,,,,,n,1,0.8840177237068474,1016.0233584305481,None,,,,,001,71,2019_Oct_29_0903,ACPT_experiment_5_30_19,3.1.0,59.96805059769455,
,,,C,G,y,b,,,,,,,,,,2,16,56,14,,,,,,,,,,,,,b,1,1.05056852843677,1020.2101178109126,None,,,,,001,71,2019_Oct_29_0903,ACPT_experiment_5_30_19,3.1.0,59.96805059769455,
,,,C,U,g,n,,,,,,,,,,2,17,57,7,,,,,,,,,,,,,n,1,0.5003886380643507,1024.5465123544645,None,,,,,001,71,2019_Oct_29_0903,ACPT_experiment_5_30_19,3.1.0,59.96805059769455,
,,,C,D,d,v,,,,,,,,,,2,18,58,9,,,,,,,,,,,,,v,1,1.5345136258770253,1028.3327212724025,None,,,,,001,71,2019_Oct_29_0903,ACPT_experiment_5_30_19,3.1.0,59.96805059769455,
,,,C,D,g,b,,,,,,,,,,2,19,59,1,,,,,,,,,,,,,b,1,1.084191531704846,1033.1363740777958,None,,,,,001,71,2019_Oct_29_0903,ACPT_experiment_5_30_19,3.1.0,59.96805059769455,
,,,C,D,d,v,,,,,,,,,,3,0,60,9,,,,,,,,,,,,,v,1,0.9507738198910829,1037.489673697972,None,,,,,001,71,2019_Oct_29_0903,ACPT_experiment_5_30_19,3.1.0,59.96805059769455,
,,,C,D,y,b,,,,,,,,,,3,1,61,11,,,,,,,,,,,,,b,1,0.7005503718698947,1041.709557719318,None,,,,,001,71,2019_Oct_29_0903,ACPT_experiment_5_30_19,3.1.0,59.96805059769455,
,,,C,U,y,n,,,,,,,,,,3,2,62,17,,,,,,,,,,,,,n,1,0.867156416029502,1045.7128473330072,None,,,,,001,71,2019_Oct_29_0903,ACPT_experiment_5_30_19,3.1.0,59.96805059769455,
,,,C,G,y,b,,,,,,,,,,3,3,63,5,,,,,,,,,,,,,b,1,0.9007365559150458,1049.8657672802067,None,,,,,001,71,2019_Oct_29_0903,ACPT_experiment_5_30_19,3.1.0,59.96805059769455,
,,,C,U,d,n,,,,,,,,,,3,4,64,15,,,,,,,,,,,,,n,1,0.9836802198469741,1054.069341784463,None,,,,,001,71,2019_Oct_29_0903,ACPT_experiment_5_30_19,3.1.0,59.96805059769455,
,,,C,D,d,v,,,,,,,,,,3,5,65,18,,,,,,,,,,,,,v,1,0.9007024463219295,1058.3388646214394,None,,,,,001,71,2019_Oct_29_0903,ACPT_experiment_5_30_19,3.1.0,59.96805059769455,
,,,C,U,g,n,,,,,,,,,,3,6,66,16,,,,,,,,,,,,,n,1,0.8003381377552614,1062.5423422303024,None,,,,,001,71,2019_Oct_29_0903,ACPT_experiment_5_30_19,3.1.0,59.96805059769455,
,,,C,D,d,v,,,,,,,,,,3,7,67,0,,,,,,,,,,,,,v,1,0.567101569011129,1066.6285021572053,None,,,,,001,71,2019_Oct_29_0903,ACPT_experiment_5_30_19,3.1.0,59.96805059769455,
,,,C,D,g,b,,,,,,,,,,3,8,68,1,,,,,,,,,,,,,b,1,0.884017119997452,1070.4814297413316,None,,,,,001,71,2019_Oct_29_0903,ACPT_experiment_5_30_19,3.1.0,59.96805059769455,
,,,C,G,d,b,,,,,,,,,,3,9,69,3,,,,,,,,,,,,,v,0,1.9014673464034786,1074.6512876673294,None,,,,,001,71,2019_Oct_29_0903,ACPT_experiment_5_30_19,3.1.0,59.96805059769455,
,,,C,G,g,v,,,,,,,,,,3,10,70,19,,,,,,,,,,,,,v,1,1.3343745311817656,1079.8218615929302,None,,,,,001,71,2019_Oct_29_0903,ACPT_experiment_5_30_19,3.1.0,59.96805059769455,
,,,C,G,g,v,,,,,,,,,,3,11,71,4,,,,,,,,,,,,,v,1,1.3340877691148307,1084.4423138861362,None,,,,,001,71,2019_Oct_29_0903,ACPT_experiment_5_30_19,3.1.0,59.96805059769455,
,,,C,U,d,n,,,,,,,,,,3,12,72,6,,,,,,,,,,,,,n,1,0.9340241984925797,1089.0622509131863,None,,,,,001,71,2019_Oct_29_0903,ACPT_experiment_5_30_19,3.1.0,59.96805059769455,
,,,C,D,y,b,,,,,,,,,,3,13,73,2,,,,,,,,,,,,,b,1,0.7336623349494857,1093.299020390594,None,,,,,001,71,2019_Oct_29_0903,ACPT_experiment_5_30_19,3.1.0,59.96805059769455,
,,,C,G,y,b,,,,,,,,,,3,14,74,14,,,,,,,,,,,,,b,1,0.8172972463898986,1097.3184981757404,None,,,,,001,71,2019_Oct_29_0903,ACPT_experiment_5_30_19,3.1.0,59.96805059769455,
,,,C,G,d,b,,,,,,,,,,3,15,75,12,,,,,,,,,,,,,b,1,2.6153346468042855,1101.4416353165295,None,,,,,001,71,2019_Oct_29_0903,ACPT_experiment_5_30_19,3.1.0,59.96805059769455,
,,,C,G,g,v,,,,,,,,,,3,16,76,13,,,,,,,,,,,,,v,1,0.8339692911031307,1107.3261471765559,None,,,,,001,71,2019_Oct_29_0903,ACPT_experiment_5_30_19,3.1.0,59.96805059769455,
,,,C,U,y,n,,,,,,,,,,3,17,77,8,,,,,,,,,,,,,n,1,0.8339904209394717,1111.4458935822952,None,,,,,001,71,2019_Oct_29_0903,ACPT_experiment_5_30_19,3.1.0,59.96805059769455,
,,,C,D,g,b,,,,,,,,,,3,18,78,10,,,,,,,,,,,,,b,1,3.9530199215118955,1115.5656991515766,None,,,,,001,71,2019_Oct_29_0903,ACPT_experiment_5_30_19,3.1.0,59.96805059769455,
,,,C,U,g,n,,,,,,,,,,3,19,79,7,,,,,,,,,,,,,n,1,0.6839100219115153,1122.804511280465,None,,,,,001,71,2019_Oct_29_0903,ACPT_experiment_5_30_19,3.1.0,59.96805059769455,
,,,C,G,y,b,,,,,,,,,,4,0,80,14,,,,,,,,,,,,,b,1,0.8506694083132516,1126.7742101893505,None,,,,,001,71,2019_Oct_29_0903,ACPT_experiment_5_30_19,3.1.0,59.96805059769455,
,,,C,D,y,b,,,,,,,,,,4,1,81,2,,,,,,,,,,,,,b,1,0.7339053280693406,1130.9106953497153,None,,,,,001,71,2019_Oct_29_0903,ACPT_experiment_5_30_19,3.1.0,59.96805059769455,
,,,C,G,g,v,,,,,,,,,,4,2,82,4,,,,,,,,,,,,,v,1,2.0846588029464783,1134.9473685958108,None,,,,,001,71,2019_Oct_29_0903,ACPT_experiment_5_30_19,3.1.0,59.96805059769455,
,,,C,D,g,b,,,,,,,,,,4,3,83,1,,,,,,,,,,,,,b,1,0.9507209952998892,1140.317859752823,None,,,,,001,71,2019_Oct_29_0903,ACPT_experiment_5_30_19,3.1.0,59.96805059769455,
,,,C,U,g,n,,,,,,,,,,4,4,84,7,,,,,,,,,,,,,n,1,0.8669200637154972,1144.571465785814,None,,,,,001,71,2019_Oct_29_0903,ACPT_experiment_5_30_19,3.1.0,59.96805059769455,
,,,C,U,y,n,,,,,,,,,,4,5,85,8,,,,,,,,,,,,,b,0,0.9340507617155254,1148.7075615534777,None,,,,,001,71,2019_Oct_29_0903,ACPT_experiment_5_30_19,3.1.0,59.96805059769455,
,,,C,U,d,n,,,,,,,,,,4,6,86,6,,,,,,,,,,,,,n,1,1.184260022560693,1152.9107385149528,None,,,,,001,71,2019_Oct_29_0903,ACPT_experiment_5_30_19,3.1.0,59.96805059769455,
,,,C,G,g,v,,,,,,,,,,4,7,87,13,,,,,,,,,,,,,v,1,5.053876253414501,1157.380804932066,None,,,,,001,71,2019_Oct_29_0903,ACPT_experiment_5_30_19,3.1.0,59.96805059769455,
,,,C,D,d,v,,,,,,,,,,4,8,88,0,,,,,,,,,,,,,v,1,2.168332653656762,1165.7204851651945,None,,,,,001,71,2019_Oct_29_0903,ACPT_experiment_5_30_19,3.1.0,59.96805059769455,
,,,C,G,d,b,,,,,,,,,,4,9,89,12,,,,,,,,,,,,,b,1,1.267631716609003,1171.174644739531,None,,,,,001,71,2019_Oct_29_0903,ACPT_experiment_5_30_19,3.1.0,59.96805059769455,
,,,C,U,y,n,,,,,,,,,,4,10,90,17,,,,,,,,,,,,,n,1,0.7670293653413864,1175.745039544489,None,,,,,001,71,2019_Oct_29_0903,ACPT_experiment_5_30_19,3.1.0,59.96805059769455,
,,,C,G,y,b,,,,,,,,,,4,11,91,5,,,,,,,,,,,,,b,1,1.0174547542283108,1179.7978478355953,None,,,,,001,71,2019_Oct_29_0903,ACPT_experiment_5_30_19,3.1.0,59.96805059769455,
,,,C,D,d,v,,,,,,,,,,4,12,92,18,,,,,,,,,,,,,v,1,2.1683269184154597,1184.1011225678426,None,,,,,001,71,2019_Oct_29_0903,ACPT_experiment_5_30_19,3.1.0,59.96805059769455,
,,,C,D,d,v,,,,,,,,,,4,13,93,9,,,,,,,,,,,,,v,1,0.7839383660780186,1189.5552658420195,None,,,,,001,71,2019_Oct_29_0903,ACPT_experiment_5_30_19,3.1.0,59.96805059769455,
,,,C,D,y,b,,,,,,,,,,4,14,94,11,,,,,,,,,,,,,v,0,0.5970543196781364,1193.6617870830894,None,,,,,001,71,2019_Oct_29_0903,ACPT_experiment_5_30_19,3.1.0,59.96805059769455,
,,,C,G,g,v,,,,,,,,,,4,15,95,19,,,,,,,,,,,,,v,1,1.51782679027815,1197.5446770772364,None,,,,,001,71,2019_Oct_29_0903,ACPT_experiment_5_30_19,3.1.0,59.96805059769455,
,,,C,D,g,b,,,,,,,,,,4,16,96,10,,,,,,,,,,,,,b,1,2.034897736119092,1202.3483235436788,None,,,,,001,71,2019_Oct_29_0903,ACPT_experiment_5_30_19,3.1.0,59.96805059769455,
,,,C,U,g,n,,,,,,,,,,4,17,97,16,,,,,,,,,,,,,n,1,0.6671881711552032,1207.652353214799,None,,,,,001,71,2019_Oct_29_0903,ACPT_experiment_5_30_19,3.1.0,59.96805059769455,
,,,C,G,d,b,,,,,,,,,,4,18,98,3,,,,,,,,,,,,,b,1,3.4523952329882377,1211.6222842500313,None,,,,,001,71,2019_Oct_29_0903,ACPT_experiment_5_30_19,3.1.0,59.96805059769455,
,,,C,U,d,n,,,,,,,,,,4,19,99,15,,,,,,,,,,,,,n,1,0.683860819578058,1218.3605006684575,None,,,,,001,71,2019_Oct_29_0903,ACPT_experiment_5_30_19,3.1.0,59.96805059769455,
,,,C,D,d,v,,,,,,,,,,5,0,100,18,,,,,,,,,,,,,v,1,0.8837771454254835,1222.3304283832867,None,,,,,001,71,2019_Oct_29_0903,ACPT_experiment_5_30_19,3.1.0,59.96805059769455,
,,,C,D,y,b,,,,,,,,,,5,1,101,2,,,,,,,,,,,,,b,1,0.7172121535195402,1226.483345613793,None,,,,,001,71,2019_Oct_29_0903,ACPT_experiment_5_30_19,3.1.0,59.96805059769455,
,,,C,U,g,n,,,,,,,,,,5,2,102,7,,,,,,,,,,,,,n,1,0.6168870860778952,1230.5033096870338,None,,,,,001,71,2019_Oct_29_0903,ACPT_experiment_5_30_19,3.1.0,59.96805059769455,
,,,C,G,y,b,,,,,,,,,,5,3,103,5,,,,,,,,,,,,,b,1,0.884022855238527,1234.4060134307279,None,,,,,001,71,2019_Oct_29_0903,ACPT_experiment_5_30_19,3.1.0,59.96805059769455,
,,,C,D,d,v,,,,,,,,,,5,4,104,9,,,,,,,,,,,,,b,0,0.7172251332765427,1238.5758526417276,None,,,,,001,71,2019_Oct_29_0903,ACPT_experiment_5_30_19,3.1.0,59.96805059769455,
,,,C,U,y,n,,,,,,,,,,5,5,105,17,,,,,,,,,,,,,n,1,0.9507526900545145,1242.5788974511681,None,,,,,001,71,2019_Oct_29_0903,ACPT_experiment_5_30_19,3.1.0,59.96805059769455,
,,,C,G,g,v,,,,,,,,,,5,6,106,4,,,,,,,,,,,,,v,1,2.9351781894206397,1246.8325285381081,None,,,,,001,71,2019_Oct_29_0903,ACPT_experiment_5_30_19,3.1.0,59.96805059769455,
,,,C,G,d,b,,,,,,,,,,5,7,107,12,,,,,,,,,,,,,b,1,1.0841933428337143,1253.053521272161,None,,,,,001,71,2019_Oct_29_0903,ACPT_experiment_5_30_19,3.1.0,59.96805059769455,
,,,C,D,g,b,,,,,,,,,,5,8,108,1,,,,,,,,,,,,,b,1,1.4010418820525956,1257.4235339893041,None,,,,,001,71,2019_Oct_29_0903,ACPT_experiment_5_30_19,3.1.0,59.96805059769455,
,,,C,U,d,n,,,,,,,,,,5,9,109,6,,,,,,,,,,,,,n,1,0.8339708003770738,1262.1104082254228,None,,,,,001,71,2019_Oct_29_0903,ACPT_experiment_5_30_19,3.1.0,59.96805059769455,
,,,C,G,g,v,,,,,,,,,,5,10,110,19,,,,,,,,,,,,,v,1,3.018726468531213,1266.2471221917315,None,,,,,001,71,2019_Oct_29_0903,ACPT_experiment_5_30_19,3.1.0,59.96805059769455,
,,,C,U,d,n,,,,,,,,,,5,11,111,15,,,,,,,,,,,,,n,1,0.6838937217521561,1272.5516701475558,None,,,,,001,71,2019_Oct_29_0903,ACPT_experiment_5_30_19,3.1.0,59.96805059769455,
,,,C,G,d,b,,,,,,,,,,5,12,112,3,,,,,,,,,,,,,b,1,1.7844177115121056,1276.5383188075768,None,,,,,001,71,2019_Oct_29_0903,ACPT_experiment_5_30_19,3.1.0,59.96805059769455,
,,,C,D,y,b,,,,,,,,,,5,13,113,11,,,,,,,,,,,,,b,1,1.100850596661303,1281.608556195253,None,,,,,001,71,2019_Oct_29_0903,ACPT_experiment_5_30_19,3.1.0,59.96805059769455,
,,,C,G,y,b,,,,,,,,,,5,14,114,14,,,,,,,,,,,,,b,1,0.8473308941454434,1286.0152267638962,None,,,,,001,71,2019_Oct_29_0903,ACPT_experiment_5_30_19,3.1.0,59.96805059769455,
,,,C,U,y,n,,,,,,,,,,5,15,115,8,,,,,,,,,,,,,n,1,0.500394071450728,1290.1483794471892,None,,,,,001,71,2019_Oct_29_0903,ACPT_experiment_5_30_19,3.1.0,59.96805059769455,
,,,C,G,g,v,,,,,,,,,,5,16,116,13,,,,,,,,,,,,,v,1,1.4175177211411665,1293.95154294594,None,,,,,001,71,2019_Oct_29_0903,ACPT_experiment_5_30_19,3.1.0,59.96805059769455,
,,,C,D,d,v,,,,,,,,,,5,17,117,0,,,,,,,,,,,,,v,1,2.101632702466759,1298.6548395928462,None,,,,,001,71,2019_Oct_29_0903,ACPT_experiment_5_30_19,3.1.0,59.96805059769455,
,,,C,U,g,n,,,,,,,,,,5,18,118,16,,,,,,,,,,,,,n,1,0.7839232733376775,1304.0422808028493,None,,,,,001,71,2019_Oct_29_0903,ACPT_experiment_5_30_19,3.1.0,59.96805059769455,
,,,C,D,g,b,,,,,,,,,,5,19,119,10,0,0,0,0,0,0,0,0,,,,,v,0,1.3007234554165734,1308.1289786350187,None,,,,,001,71,2019_Oct_29_0903,ACPT_experiment_5_30_19,3.1.0,59.96805059769455,
,,,C,D,g,b,L,D,d,L,c ,,,,,5,19,119,10,0,0,0,0,,,,,0,0,0,12,,,,,,up,1.100842144726812,1362.9870549565917,None,001,71,2019_Oct_29_0903,ACPT_experiment_5_30_19,3.1.0,59.96805059769455,
,,,C,D,g,b,L,U,d,L,u,,,,,5,19,119,10,0,0,0,0,,,,,0,1,1,20,,,,,,up,1.2009163708237338,1365.355520064138,None,001,71,2019_Oct_29_0903,ACPT_experiment_5_30_19,3.1.0,59.96805059769455,
,,,C,D,g,b,R,D,y,L,y,,,,,5,19,119,10,0,0,0,0,,,,,0,2,2,26,,,,,,down,1.117598406930938,1367.8407474407995,None,001,71,2019_Oct_29_0903,ACPT_experiment_5_30_19,3.1.0,59.96805059769455,
,,,C,D,g,b,L,U,y,R,u,,,,,5,19,119,10,0,0,0,0,,,,,0,3,3,25,,,,,,down,1.0341111024913516,1370.2592516234506,None,001,71,2019_Oct_29_0903,ACPT_experiment_5_30_19,3.1.0,59.96805059769455,
,,,C,D,g,b,L,G,g,L,c ,,,,,5,19,119,10,0,0,0,0,,,,,0,4,4,18,,,,,,up,1.8847657199191872,1372.5943581525398,None,001,71,2019_Oct_29_0903,ACPT_experiment_5_30_19,3.1.0,59.96805059769455,
,,,C,D,g,b,R,G,y,L,y,,,,,5,19,119,10,0,0,0,0,,,,,0,5,5,28,,,,,,down,0.7338890279097541,1375.7634288412005,None,001,71,2019_Oct_29_0903,ACPT_experiment_5_30_19,3.1.0,59.96805059769455,
,,,C,D,g,b,L,D,g,R,i,,,,,5,19,119,10,0,0,0,0,,,,,0,6,6,15,,,,,,up,0.6171303810524478,1377.7816306860768,None,001,71,2019_Oct_29_0903,ACPT_experiment_5_30_19,3.1.0,59.96805059769455,
,,,C,D,g,b,L,U,d,R,u,,,,,5,19,119,10,0,0,0,0,,,,,0,7,7,21,,,,,,up,1.0174351336656855,1379.6830775063534,None,001,71,2019_Oct_29_0903,ACPT_experiment_5_30_19,3.1.0,59.96805059769455,
,,,C,D,g,b,R,U,y,L,u,,,,,5,19,119,10,0,0,0,0,,,,,0,8,8,30,,,,,,down,0.9005666116586326,1382.0015038406495,None,001,71,2019_Oct_29_0903,ACPT_experiment_5_30_19,3.1.0,59.96805059769455,
,,,C,D,g,b,L,D,g,L,i,,,,,5,19,119,10,0,0,0,0,,,,,0,9,9,14,,,,,,up,2.1182836173434225,1384.2031745466368,None,001,71,2019_Oct_29_0903,ACPT_experiment_5_30_19,3.1.0,59.96805059769455,
,,,C,D,g,b,L,U,g,L,u,,,,,5,19,119,10,0,0,0,0,,,,,0,10,10,22,,,,,,up,0.7171970607791991,1387.605764038286,None,001,71,2019_Oct_29_0903,ACPT_experiment_5_30_19,3.1.0,59.96805059769455,
,,,C,D,g,b,R,U,d,L,u,,,,,5,19,119,10,0,0,0,0,,,,,0,11,11,8,,,,,,up,0.5837757267079269,1389.6072871976435,None,001,71,2019_Oct_29_0903,ACPT_experiment_5_30_19,3.1.0,59.96805059769455,
,,,C,D,g,b,L,U,g,R,u,,,,,5,19,119,10,0,0,0,0,,,,,0,12,12,23,,,,,,up,1.3343262344126288,1391.475394154461,None,001,71,2019_Oct_29_0903,ACPT_experiment_5_30_19,3.1.0,59.96805059769455,
,,,C,D,g,b,R,G,y,R,y,,,,,5,19,119,10,0,0,0,0,,,,,0,13,13,29,,,,,,down,1.2843206651914443,1394.0940217353573,None,001,71,2019_Oct_29_0903,ACPT_experiment_5_30_19,3.1.0,59.96805059769455,
,,,C,D,g,b,L,G,g,R,c ,,,,,5,19,119,10,0,0,0,0,,,,,0,14,14,19,,,,,,up,1.1342167214886558,1396.662644350742,None,001,71,2019_Oct_29_0903,ACPT_experiment_5_30_19,3.1.0,59.96805059769455,
,,,C,D,g,b,R,U,g,L,u,,,,,5,19,119,10,0,0,0,0,,,,,0,15,15,10,,,,,,up,1.9514632562709266,1399.0811624187143,None,001,71,2019_Oct_29_0903,ACPT_experiment_5_30_19,3.1.0,59.96805059769455,
,,,C,D,g,b,R,G,g,R,c ,,,,,5,19,119,10,0,0,0,0,,,,,0,16,16,7,,,,,,up,0.7505749579440817,1402.3169351715487,None,001,71,2019_Oct_29_0903,ACPT_experiment_5_30_19,3.1.0,59.96805059769455,
,,,C,D,g,b,L,D,y,R,y,,,,,5,19,119,10,0,0,0,0,,,,,0,17,17,33,,,,,,down,0.7839431957550005,1404.3518187204918,None,001,71,2019_Oct_29_0903,ACPT_experiment_5_30_19,3.1.0,59.96805059769455,
,,,C,D,g,b,L,U,y,L,u,,,,,5,19,119,10,0,0,0,0,,,,,0,18,18,24,,,,,,down,0.9007115019660432,1406.4200523959573,None,001,71,2019_Oct_29_0903,ACPT_experiment_5_30_19,3.1.0,59.96805059769455,
,,,C,D,g,b,R,U,d,R,u,,,,,5,19,119,10,0,0,0,0,,,,,0,19,19,9,,,,,,up,0.6171370218580705,1408.6050486423928,None,001,71,2019_Oct_29_0903,ACPT_experiment_5_30_19,3.1.0,59.96805059769455,
,,,C,D,g,b,R,D,g,R,i,,,,,5,19,119,10,0,0,0,0,,,,,0,20,20,3,,,,,,up,0.9173663409551409,1410.5064966700886,None,001,71,2019_Oct_29_0903,ACPT_experiment_5_30_19,3.1.0,59.96805059769455,
,,,C,D,g,b,R,U,y,R,u,,,,,5,19,119,10,0,0,0,0,,,,,0,21,21,31,,,,,,down,0.7672708491868434,1412.7081447369653,None,001,71,2019_Oct_29_0903,ACPT_experiment_5_30_19,3.1.0,59.96805059769455,
,,,C,D,g,b,L,D,y,L,y,,,,,5,19,119,10,0,0,0,0,,,,,0,22,22,32,,,,,,down,1.000790859594872,1414.7596973120735,None,001,71,2019_Oct_29_0903,ACPT_experiment_5_30_19,3.1.0,59.96805059769455,
,,,C,D,g,b,L,G,y,L,y,,,,,5,19,119,10,0,0,0,0,,,,,0,23,23,34,,,,,,down,0.717201890456181,1417.04480068678,None,001,71,2019_Oct_29_0903,ACPT_experiment_5_30_19,3.1.0,59.96805059769455,
,,,C,D,g,b,R,D,g,L,i,,,,,5,19,119,10,0,0,0,0,,,,,0,24,24,2,,,,,,up,1.3343736256174452,1419.0463214312988,None,001,71,2019_Oct_29_0903,ACPT_experiment_5_30_19,3.1.0,59.96805059769455,
,,,C,D,g,b,R,U,g,R,u,,,,,5,19,119,10,0,0,0,0,,,,,0,25,25,11,,,,,,up,0.6671685505928053,1421.664971349451,None,001,71,2019_Oct_29_0903,ACPT_experiment_5_30_19,3.1.0,59.96805059769455,
,,,C,D,g,b,R,D,d,L,c,,,,,5,19,119,10,0,0,0,0,,,,,0,26,26,0,,,,,,up,0.6504895632192529,1423.6164527170101,None,001,71,2019_Oct_29_0903,ACPT_experiment_5_30_19,3.1.0,59.96805059769455,
,,,C,D,g,b,R,G,g,L,c ,,,,,5,19,119,10,0,0,0,0,,,,,0,27,27,6,,,,,,up,0.5670946263505812,1425.5512572101793,None,001,71,2019_Oct_29_0903,ACPT_experiment_5_30_19,3.1.0,59.96805059769455,
,,,C,D,g,b,L,D,d,R,c ,,,,,5,19,119,10,0,0,0,0,,,,,0,28,28,13,,,,,,up,0.6338271778597573,1427.4026688794636,None,001,71,2019_Oct_29_0903,ACPT_experiment_5_30_19,3.1.0,59.96805059769455,
,,,C,D,g,b,R,G,d,L,i,,,,,5,19,119,10,0,0,0,0,,,,,0,29,29,4,,,,,,up,0.6671733802697872,1429.3207871407437,None,001,71,2019_Oct_29_0903,ACPT_experiment_5_30_19,3.1.0,59.96805059769455,
,,,C,D,g,b,R,D,y,R,y,,,,,5,19,119,10,0,0,0,0,,,,,0,30,30,27,,,,,,down,0.8172815499399348,1431.2722706212867,None,001,71,2019_Oct_29_0903,ACPT_experiment_5_30_19,3.1.0,59.96805059769455,
,,,C,D,g,b,L,G,d,R,i,,,,,5,19,119,10,0,0,0,0,,,,,0,31,31,17,,,,,,up,0.8835389819823831,1433.3909828724563,None,001,71,2019_Oct_29_0903,ACPT_experiment_5_30_19,3.1.0,59.96805059769455,
,,,C,D,g,b,R,G,d,R,i,,,,,5,19,119,10,0,0,0,0,,,,,0,32,32,5,,,,,,up,0.6838578010299443,1435.5588545938226,None,001,71,2019_Oct_29_0903,ACPT_experiment_5_30_19,3.1.0,59.96805059769455,
,,,C,D,g,b,R,D,d,R,c ,,,,,5,19,119,10,0,0,0,0,,,,,0,33,33,1,,,,,,up,0.6505088819269531,1437.5270261173835,None,001,71,2019_Oct_29_0903,ACPT_experiment_5_30_19,3.1.0,59.96805059769455,
,,,C,D,g,b,L,G,y,R,y,,,,,5,19,119,10,0,0,0,0,,,,,0,34,34,35,,,,,,down,0.817302981631201,1439.4618064621682,None,001,71,2019_Oct_29_0903,ACPT_experiment_5_30_19,3.1.0,59.96805059769455,
,,,C,D,g,b,L,G,d,L,i,,,,,5,19,119,10,0,0,0,0,,,,,0,35,35,16,,,,,,up,0.8005714715209251,1441.5634452017312,None,001,71,2019_Oct_29_0903,ACPT_experiment_5_30_19,3.1.0,59.96805059769455,
,,,C,D,g,b,L,G,d,R,i,,,,,5,19,119,10,0,0,0,0,,,,,1,0,36,17,,,,,,up,0.6505076745074803,1443.6316402397813,None,001,71,2019_Oct_29_0903,ACPT_experiment_5_30_19,3.1.0,59.96805059769455,
,,,C,D,g,b,L,D,y,L,y,,,,,5,19,119,10,0,0,0,0,,,,,1,1,37,32,,,,,,down,0.9340797397771894,1445.566461334965,None,001,71,2019_Oct_29_0903,ACPT_experiment_5_30_19,3.1.0,59.96805059769455,
,,,C,D,g,b,R,G,g,L,c ,,,,,5,19,119,10,0,0,0,0,,,,,1,2,38,6,,,,,,up,0.7505825043142522,1447.784821291389,None,001,71,2019_Oct_29_0903,ACPT_experiment_5_30_19,3.1.0,59.96805059769455,
,,,C,D,g,b,L,U,d,L,u,,,,,5,19,119,10,0,0,0,0,,,,,1,3,39,20,,,,,,up,0.9674042086408008,1449.8196930679949,None,001,71,2019_Oct_29_0903,ACPT_experiment_5_30_19,3.1.0,59.96805059769455,
,,,C,D,g,b,R,G,d,L,i,,,,,5,19,119,10,0,0,0,0,,,,,1,4,40,4,,,,,,down,1.4677837910608105,1452.0714082824734,None,001,71,2019_Oct_29_0903,ACPT_experiment_5_30_19,3.1.0,59.96805059769455,
,,,C,D,g,b,R,G,y,R,y,,,,,5,19,119,10,0,0,0,0,,,,,1,5,41,29,,,,,,down,0.850681784360404,1454.8068017547423,None,001,71,2019_Oct_29_0903,ACPT_experiment_5_30_19,3.1.0,59.96805059769455,
,,,C,D,g,b,R,G,d,R,i,,,,,5,19,119,10,0,0,0,0,,,,,1,6,42,5,,,,,,down,0.6171376255679206,1456.9417694909912,None,001,71,2019_Oct_29_0903,ACPT_experiment_5_30_19,3.1.0,59.96805059769455,
,,,C,D,g,b,L,D,d,L,c ,,,,,5,19,119,10,0,0,0,0,,,,,1,7,43,12,,,,,,down,0.6171273625043341,1458.8432169149776,None,001,71,2019_Oct_29_0903,ACPT_experiment_5_30_19,3.1.0,59.96805059769455,
,,,C,D,g,b,R,D,g,L,i,,,,,5,19,119,10,0,0,0,0,,,,,1,8,44,2,,,,,,up,0.6304756839349466,1460.7646736904255,None,001,71,2019_Oct_29_0903,ACPT_experiment_5_30_19,3.1.0,59.96805059769455,
,,,C,D,g,b,L,G,y,L,y,,,,,5,19,119,10,0,0,0,0,,,,,1,9,45,34,,,,,,down,0.6004538085171589,1462.6794609839078,None,001,71,2019_Oct_29_0903,ACPT_experiment_5_30_19,3.1.0,59.96805059769455,
,,,C,D,g,b,L,D,d,R,c ,,,,,5,19,119,10,0,0,0,0,,,,,1,10,46,13,,,,,,up,0.5337372553128716,1464.564228213101,None,001,71,2019_Oct_29_0903,ACPT_experiment_5_30_19,3.1.0,59.96805059769455,
,,,C,D,g,b,R,D,d,L,c,,,,,5,19,119,10,0,0,0,0,,,,,1,11,47,0,,,,,,up,0.5503857553508169,1466.3822930762658,None,001,71,2019_Oct_29_0903,ACPT_experiment_5_30_19,3.1.0,59.96805059769455,
,,,C,D,g,b,L,U,y,R,u,,,,,5,19,119,10,0,0,0,0,,,,,1,12,48,25,,,,,,down,0.7505628837518543,1468.2170079487425,None,001,71,2019_Oct_29_0903,ACPT_experiment_5_30_19,3.1.0,59.96805059769455,
,,,C,D,g,b,L,G,g,L,c ,,,,,5,19,119,10,0,0,0,0,,,,,1,13,49,18,,,,,,up,0.7338899334743019,1470.2518812346225,None,001,71,2019_Oct_29_0903,ACPT_experiment_5_30_19,3.1.0,59.96805059769455,
,,,C,D,g,b,R,G,y,L,y,,,,,5,19,119,10,0,0,0,0,,,,,1,14,50,28,,,,,,down,0.7672503230601251,1472.2867614631627,None,001,71,2019_Oct_29_0903,ACPT_experiment_5_30_19,3.1.0,59.96805059769455,
,,,C,D,g,b,L,U,y,L,u,,,,,5,19,119,10,0,0,0,0,,,,,1,15,51,24,,,,,,down,0.7172043052946719,1474.355000572015,None,001,71,2019_Oct_29_0903,ACPT_experiment_5_30_19,3.1.0,59.96805059769455,
,,,C,D,g,b,L,G,y,R,y,,,,,5,19,119,10,0,0,0,0,,,,,1,16,52,35,,,,,,down,1.0174357373755356,1476.3565252406463,None,001,71,2019_Oct_29_0903,ACPT_experiment_5_30_19,3.1.0,59.96805059769455,
,,,C,D,g,b,L,G,g,R,c ,,,,,5,19,119,10,0,0,0,0,,,,,1,17,53,19,,,,,,up,0.8840020272568836,1478.6582734931333,None,001,71,2019_Oct_29_0903,ACPT_experiment_5_30_19,3.1.0,59.96805059769455,
,,,C,D,g,b,R,U,g,L,u,,,,,5,19,119,10,0,0,0,0,,,,,1,18,54,10,,,,,,up,0.9007087852728546,1480.8265823002605,None,001,71,2019_Oct_29_0903,ACPT_experiment_5_30_19,3.1.0,59.96805059769455,
,,,C,D,g,b,L,D,g,R,i,,,,,5,19,119,10,0,0,0,0,,,,,1,19,55,15,,,,,,up,0.6839163608626677,1483.0115857912112,None,001,71,2019_Oct_29_0903,ACPT_experiment_5_30_19,3.1.0,59.96805059769455,
,,,C,D,g,b,L,U,g,L,u,,,,,5,19,119,10,0,0,0,0,,,,,1,20,56,22,,,,,,up,0.9340287263146365,1484.9797500702566,None,001,71,2019_Oct_29_0903,ACPT_experiment_5_30_19,3.1.0,59.96805059769455,
,,,C,D,g,b,R,G,g,R,c ,,,,,5,19,119,10,0,0,0,0,,,,,1,21,57,7,,,,,,up,1.1675602072052698,1487.1814044760843,None,001,71,2019_Oct_29_0903,ACPT_experiment_5_30_19,3.1.0,59.96805059769455,
,,,C,D,g,b,L,D,y,R,y,,,,,5,19,119,10,0,0,0,0,,,,,1,22,58,33,,,,,,down,1.000747694357642,1489.6499564876294,None,001,71,2019_Oct_29_0903,ACPT_experiment_5_30_19,3.1.0,59.96805059769455,
,,,C,D,g,b,R,U,y,L,u,,,,,5,19,119,10,0,0,0,0,,,,,1,23,59,30,,,,,,down,0.8339611410233374,1491.951702627133,None,001,71,2019_Oct_29_0903,ACPT_experiment_5_30_19,3.1.0,59.96805059769455,
,,,C,D,g,b,R,U,y,R,u,,,,,5,19,119,10,0,0,0,0,,,,,1,24,60,31,,,,,,down,1.0841559128377867,1494.086656176206,None,001,71,2019_Oct_29_0903,ACPT_experiment_5_30_19,3.1.0,59.96805059769455,
,,,C,D,g,b,R,D,g,R,i,,,,,5,19,119,10,0,0,0,0,,,,,1,25,61,3,,,,,,up,1.2175497781215654,1496.4718431345086,None,001,71,2019_Oct_29_0903,ACPT_experiment_5_30_19,3.1.0,59.96805059769455,
,,,C,D,g,b,R,D,y,R,y,,,,,5,19,119,10,0,0,0,0,,,,,1,26,62,27,,,,,,down,0.9173947153071822,1498.9736809775025,None,001,71,2019_Oct_29_0903,ACPT_experiment_5_30_19,3.1.0,59.96805059769455,
,,,C,D,g,b,R,U,d,R,u,,,,,5,19,119,10,0,0,0,0,,,,,1,27,63,9,,,,,,up,2.234932992760605,1501.1754383158193,None,001,71,2019_Oct_29_0903,ACPT_experiment_5_30_19,3.1.0,59.96805059769455,
,,,C,D,g,b,L,G,d,L,i,,,,,5,19,119,10,0,0,0,0,,,,,1,28,64,16,,,,,,down,0.7672451915284455,1504.6947176314297,None,001,71,2019_Oct_29_0903,ACPT_experiment_5_30_19,3.1.0,59.96805059769455,
,,,C,D,g,b,R,D,d,R,c ,,,,,5,19,119,10,0,0,0,0,,,,,1,29,65,1,,,,,,up,1.3009975395814308,1506.7462699046832,None,001,71,2019_Oct_29_0903,ACPT_experiment_5_30_19,3.1.0,59.96805059769455,
,,,C,D,g,b,R,U,g,R,u,,,,,5,19,119,10,0,0,0,0,,,,,1,30,66,11,,,,,,up,0.7005307513074968,1509.331569394458,None,001,71,2019_Oct_29_0903,ACPT_experiment_5_30_19,3.1.0,59.96805059769455,
,,,C,D,g,b,L,U,d,R,u,,,,,5,19,119,10,0,0,0,0,,,,,1,31,67,21,,,,,,down,0.7338953668609065,1511.3164229239408,None,001,71,2019_Oct_29_0903,ACPT_experiment_5_30_19,3.1.0,59.96805059769455,
,,,C,D,g,b,L,D,g,L,i,,,,,5,19,119,10,0,0,0,0,,,,,1,32,68,14,,,,,,up,0.9507119396557755,1513.3346226558333,None,001,71,2019_Oct_29_0903,ACPT_experiment_5_30_19,3.1.0,59.96805059769455,
,,,C,D,g,b,R,D,y,L,y,,,,,5,19,119,10,0,0,0,0,,,,,1,33,69,26,,,,,,down,0.8339620465876578,1515.5696570718092,None,001,71,2019_Oct_29_0903,ACPT_experiment_5_30_19,3.1.0,59.96805059769455,
,,,C,D,g,b,L,U,g,R,u,,,,,5,19,119,10,0,0,0,0,,,,,1,34,70,23,,,,,,down,0.9173633224072546,1517.6879195593162,None,001,71,2019_Oct_29_0903,ACPT_experiment_5_30_19,3.1.0,59.96805059769455,
,,,C,D,g,b,R,U,d,L,u,,,,,5,19,119,10,0,0,0,0,,,,,1,35,71,8,,,,,,up,1.0340929912028969,1519.8896183378004,None,001,71,2019_Oct_29_0903,ACPT_experiment_5_30_19,3.1.0,59.96805059769455,
,,,C,D,g,b,,,,,,,,,,5,19,119,10,1,0,1,0,0,0,0,0,,,,,,,,,,,,,,001,71,2019_Oct_29_0903,ACPT_experiment_5_30_19,3.1.0,59.96805059769455,
,,,C,D,g,b,R,U,y,L,u,,,,,5,19,119,10,1,0,1,0,,,,,0,0,0,30,,,,,,down,0.8506434487999286,1557.7183338459834,None,001,71,2019_Oct_29_0903,ACPT_experiment_5_30_19,3.1.0,59.96805059769455,
,,,C,D,g,b,L,G,d,L,i,,,,,5,19,119,10,1,0,1,0,,,,,0,1,1,16,,,,,,up,0.7672545490274842,1559.8532837727987,None,001,71,2019_Oct_29_0903,ACPT_experiment_5_30_19,3.1.0,59.96805059769455,
,,,C,D,g,b,L,D,y,L,y,,,,,5,19,119,10,1,0,1,0,,,,,0,2,2,32,,,,,,down,0.9675343080627954,1561.90484721468,None,001,71,2019_Oct_29_0903,ACPT_experiment_5_30_19,3.1.0,59.96805059769455,
,,,C,D,g,b,R,U,d,R,u,,,,,5,19,119,10,1,0,1,0,,,,,0,3,3,9,,,,,,up,0.7837989091569852,1564.1733552157946,None,001,71,2019_Oct_29_0903,ACPT_experiment_5_30_19,3.1.0,59.96805059769455,
,,,C,D,g,b,R,D,g,L,i,,,,,5,19,119,10,1,0,1,0,,,,,0,4,4,2,,,,,,up,0.9173772077283502,1566.2414784124007,None,001,71,2019_Oct_29_0903,ACPT_experiment_5_30_19,3.1.0,59.96805059769455,
,,,C,D,g,b,R,D,y,R,y,,,,,5,19,119,10,1,0,1,0,,,,,0,5,5,27,,,,,,down,0.7839265937404889,1568.4431482128234,None,001,71,2019_Oct_29_0903,ACPT_experiment_5_30_19,3.1.0,59.96805059769455,
,,,C,D,g,b,L,D,d,R,c ,,,,,5,19,119,10,1,0,1,0,,,,,0,6,6,13,,,,,,up,0.5668250700077806,1570.5283331486987,None,001,71,2019_Oct_29_0903,ACPT_experiment_5_30_19,3.1.0,59.96805059769455,
,,,C,D,g,b,L,D,g,R,i,,,,,5,19,119,10,1,0,1,0,,,,,0,7,7,15,,,,,,down,0.9340616284887346,1572.3627745407205,None,001,71,2019_Oct_29_0903,ACPT_experiment_5_30_19,3.1.0,59.96805059769455,
,,,C,D,g,b,R,G,y,R,y,,,,,5,19,119,10,1,0,1,0,,,,,0,8,8,29,,,,,,down,0.7839193492252434,1574.5811510991591,None,001,71,2019_Oct_29_0903,ACPT_experiment_5_30_19,3.1.0,59.96805059769455,
,,,C,D,g,b,R,G,g,L,c ,,,,,5,19,119,10,1,0,1,0,,,,,0,9,9,6,,,,,,down,0.9841061369797899,1576.6326795258826,None,001,71,2019_Oct_29_0903,ACPT_experiment_5_30_19,3.1.0,59.96805059769455,
,,,C,D,g,b,R,D,d,R,c ,,,,,5,19,119,10,1,0,1,0,,,,,0,10,10,1,,,,,,up,0.667230128973415,1578.9010933482973,None,001,71,2019_Oct_29_0903,ACPT_experiment_5_30_19,3.1.0,59.96805059769455,
,,,C,D,g,b,R,D,y,L,y,,,,,5,19,119,10,1,0,1,0,,,,,0,11,11,26,,,,,,down,1.217557928201586,1580.852600373515,None,001,71,2019_Oct_29_0903,ACPT_experiment_5_30_19,3.1.0,59.96805059769455,
,,,C,D,g,b,R,U,y,R,u,,,,,5,19,119,10,1,0,1,0,,,,,0,12,12,31,,,,,,down,1.0007446758095284,1583.3878598826207,None,001,71,2019_Oct_29_0903,ACPT_experiment_5_30_19,3.1.0,59.96805059769455,
,,,C,D,g,b,L,U,d,R,u,,,,,5,19,119,10,1,0,1,0,,,,,0,13,13,21,,,,,,up,1.8013505587784948,1585.689596664625,None,001,71,2019_Oct_29_0903,ACPT_experiment_5_30_19,3.1.0,59.96805059769455,
,,,C,D,g,b,R,D,d,L,c,,,,,5,19,119,10,1,0,1,0,,,,,0,14,14,0,,,,,,down,1.3844015320942162,1588.7752594366605,None,001,71,2019_Oct_29_0903,ACPT_experiment_5_30_19,3.1.0,59.96805059769455,
,,,C,D,g,b,L,D,y,R,y,,,,,5,19,119,10,1,0,1,0,,,,,0,15,15,33,,,,,,up,0.35028741105452355,1591.4439436002403,None,001,71,2019_Oct_29_0903,ACPT_experiment_5_30_19,3.1.0,59.96805059769455,
,,,C,D,g,b,R,D,g,R,i,,,,,5,19,119,10,1,0,1,0,,,,,0,16,16,3,,,,,,up,1.0341313267635996,1593.0785362818913,None,001,71,2019_Oct_29_0903,ACPT_experiment_5_30_19,3.1.0,59.96805059769455,
,,,C,D,g,b,R,G,y,L,y,,,,,5,19,119,10,1,0,1,0,,,,,0,17,17,28,,,,,,down,0.833963857716526,1595.396957484656,None,001,71,2019_Oct_29_0903,ACPT_experiment_5_30_19,3.1.0,59.96805059769455,
,,,C,D,g,b,L,G,g,L,c ,,,,,5,19,119,10,1,0,1,0,,,,,0,18,18,18,,,,,,down,1.1341910638298032,1597.5152374797417,None,001,71,2019_Oct_29_0903,ACPT_experiment_5_30_19,3.1.0,59.96805059769455,
,,,C,D,g,b,L,G,d,R,i,,,,,5,19,119,10,1,0,1,0,,,,,0,19,19,17,,,,,,up,2.001521348228607,1599.9337347197322,None,001,71,2019_Oct_29_0903,ACPT_experiment_5_30_19,3.1.0,59.96805059769455,
,,,C,D,g,b,R,G,d,L,i,,,,,5,19,119,10,1,0,1,0,,,,,0,20,20,4,,,,,,up,1.0007534295989444,1603.2195719034753,None,001,71,2019_Oct_29_0903,ACPT_experiment_5_30_19,3.1.0,59.96805059769455,
,,,C,D,g,b,L,U,d,L,u,,,,,5,19,119,10,1,0,1,0,,,,,0,21,21,20,,,,,,up,0.9340525728441662,1605.4879507107323,None,001,71,2019_Oct_29_0903,ACPT_experiment_5_30_19,3.1.0,59.96805059769455,
,,,C,D,g,b,L,G,y,R,y,,,,,5,19,119,10,1,0,1,0,,,,,0,22,22,35,,,,,,down,0.7839338382559617,1607.7063091578825,None,001,71,2019_Oct_29_0903,ACPT_experiment_5_30_19,3.1.0,59.96805059769455,
,,,C,D,g,b,L,U,g,L,u,,,,,5,19,119,10,1,0,1,0,,,,,0,23,23,22,,,,,,down,1.2009314635643022,1609.7745452481865,None,001,71,2019_Oct_29_0903,ACPT_experiment_5_30_19,3.1.0,59.96805059769455,
,,,C,D,g,b,L,U,y,R,u,,,,,5,19,119,10,1,0,1,0,,,,,0,24,24,25,,,,,,down,0.9674129624302168,1612.259747269044,None,001,71,2019_Oct_29_0903,ACPT_experiment_5_30_19,3.1.0,59.96805059769455,
,,,C,D,g,b,L,U,g,R,u,,,,,5,19,119,10,1,0,1,0,,,,,0,25,25,23,,,,,,up,2.034878417411619,1614.5281562617818,None,001,71,2019_Oct_29_0903,ACPT_experiment_5_30_19,3.1.0,59.96805059769455,
,,,C,D,g,b,R,G,g,R,c ,,,,,5,19,119,10,1,0,1,0,,,,,0,26,26,7,,,,,,up,0.5671220951380747,1617.8306443604013,None,001,71,2019_Oct_29_0903,ACPT_experiment_5_30_19,3.1.0,59.96805059769455,
,,,C,D,g,b,L,U,y,L,u,,,,,5,19,119,10,1,0,1,0,,,,,0,27,27,24,,,,,,down,0.8839990087087699,1619.6987576561698,None,001,71,2019_Oct_29_0903,ACPT_experiment_5_30_19,3.1.0,59.96805059769455,
,,,C,D,g,b,R,U,d,L,u,,,,,5,19,119,10,1,0,1,0,,,,,0,28,28,8,,,,,,down,1.7846866641452834,1621.8837448469612,None,001,71,2019_Oct_29_0903,ACPT_experiment_5_30_19,3.1.0,59.96805059769455,
,,,C,D,g,b,L,G,y,L,y,,,,,5,19,119,10,1,0,1,0,,,,,0,29,29,34,,,,,,down,1.1175356211310827,1624.9527452336372,None,001,71,2019_Oct_29_0903,ACPT_experiment_5_30_19,3.1.0,59.96805059769455,
,,,C,D,g,b,R,G,d,R,i,,,,,5,19,119,10,1,0,1,0,,,,,0,30,30,5,,,,,,up,1.184244024255804,1627.3545707307694,None,001,71,2019_Oct_29_0903,ACPT_experiment_5_30_19,3.1.0,59.96805059769455,
,,,C,D,g,b,L,D,d,L,c ,,,,,5,19,119,10,1,0,1,0,,,,,0,31,31,12,,,,,,up,1.084135084855916,1629.8231287794108,None,001,71,2019_Oct_29_0903,ACPT_experiment_5_30_19,3.1.0,59.96805059769455,
,,,C,D,g,b,R,U,g,R,u,,,,,5,19,119,10,1,0,1,0,,,,,0,32,32,11,,,,,,up,1.4344409090538193,1632.191551627284,None,001,71,2019_Oct_29_0903,ACPT_experiment_5_30_19,3.1.0,59.96805059769455,
,,,C,D,g,b,R,U,g,L,u,,,,,5,19,119,10,1,0,1,0,,,,,0,33,33,10,,,,,,down,1.200912144856602,1634.9103062588688,None,001,71,2019_Oct_29_0903,ACPT_experiment_5_30_19,3.1.0,59.96805059769455,
,,,C,D,g,b,L,D,g,L,i,,,,,5,19,119,10,1,0,1,0,,,,,0,34,34,14,,,,,,up,1.1675807333322155,1637.395527598434,None,001,71,2019_Oct_29_0903,ACPT_experiment_5_30_19,3.1.0,59.96805059769455,
,,,C,D,g,b,L,G,g,R,c ,,,,,5,19,119,10,1,0,1,0,,,,,0,35,35,19,,,,,,up,0.6171346070198069,1639.8473930762354,None,001,71,2019_Oct_29_0903,ACPT_experiment_5_30_19,3.1.0,59.96805059769455,
,,,C,D,g,b,R,G,y,R,y,,,,,5,19,119,10,1,0,1,0,,,,,1,0,36,29,,,,,,down,0.91740165796773,1641.74883536869,None,001,71,2019_Oct_29_0903,ACPT_experiment_5_30_19,3.1.0,59.96805059769455,
,,,C,D,g,b,L,D,d,R,c ,,,,,5,19,119,10,1,0,1,0,,,,,1,1,37,13,,,,,,up,0.8172833610685757,1643.950513922902,None,001,71,2019_Oct_29_0903,ACPT_experiment_5_30_19,3.1.0,59.96805059769455,
,,,C,D,g,b,R,D,g,L,i,,,,,5,19,119,10,1,0,1,0,,,,,1,2,38,2,,,,,,down,2.4185047863606997,1646.0521043656959,None,001,71,2019_Oct_29_0903,ACPT_experiment_5_30_19,3.1.0,59.96805059769455,
,,,C,D,g,b,L,D,g,L,i,,,,,5,19,119,10,1,0,1,0,,,,,1,3,39,14,,,,,,up,1.9848574535951684,1649.7382411705205,None,001,71,2019_Oct_29_0903,ACPT_experiment_5_30_19,3.1.0,59.96805059769455,
,,,C,D,g,b,R,U,y,L,u,,,,,5,19,119,10,1,0,1,0,,,,,1,4,40,30,,,,,,down,1.03411955442607,1653.0073894056811,None,001,71,2019_Oct_29_0903,ACPT_experiment_5_30_19,3.1.0,59.96805059769455,
,,,C,D,g,b,L,U,y,R,u,,,,,5,19,119,10,1,0,1,0,,,,,1,5,41,25,,,,,,down,0.9840756496444101,1655.3258172492515,None,001,71,2019_Oct_29_0903,ACPT_experiment_5_30_19,3.1.0,59.96805059769455,
,,,C,D,g,b,L,U,d,L,u,,,,,5,19,119,10,1,0,1,0,,,,,1,6,42,20,,,,,,up,0.7672470026573137,1657.5942033010238,None,001,71,2019_Oct_29_0903,ACPT_experiment_5_30_19,3.1.0,59.96805059769455,
,,,C,D,g,b,R,G,g,R,c ,,,,,5,19,119,10,1,0,1,0,,,,,1,7,43,7,,,,,,down,1.117513887585119,1659.6457676484695,None,001,71,2019_Oct_29_0903,ACPT_experiment_5_30_19,3.1.0,59.96805059769455,
,,,C,D,g,b,L,G,d,L,i,,,,,5,19,119,10,1,0,1,0,,,,,1,8,44,16,,,,,,up,1.0841281421953681,1662.0476188032603,None,001,71,2019_Oct_29_0903,ACPT_experiment_5_30_19,3.1.0,59.96805059769455,
,,,C,D,g,b,R,G,g,L,c ,,,,,5,19,119,10,1,0,1,0,,,,,1,9,45,6,,,,,,up,1.1175160005686848,1664.416055536455,None,001,71,2019_Oct_29_0903,ACPT_experiment_5_30_19,3.1.0,59.96805059769455,
,,,C,D,g,b,L,U,g,L,u,,,,,5,19,119,10,1,0,1,0,,,,,1,10,46,22,,,,,,up,0.5670934189313357,1666.8178973337467,None,001,71,2019_Oct_29_0903,ACPT_experiment_5_30_19,3.1.0,59.96805059769455,
,,,C,D,g,b,R,U,d,R,u,,,,,5,19,119,10,1,0,1,0,,,,,1,11,47,9,,,,,,up,0.4670367004130185,1668.6692818360982,None,001,71,2019_Oct_29_0903,ACPT_experiment_5_30_19,3.1.0,59.96805059769455,
,,,C,D,g,b,R,D,y,R,y,,,,,5,19,119,10,1,0,1,0,,,,,1,12,48,27,,,,,,down,0.7670767565459755,1670.4708174318737,None,001,71,2019_Oct_29_0903,ACPT_experiment_5_30_19,3.1.0,59.96805059769455,
,,,C,D,g,b,R,U,g,L,u,,,,,5,19,119,10,1,0,1,0,,,,,1,13,49,10,,,,,,up,0.633806651733039,1672.538897765097,None,001,71,2019_Oct_29_0903,ACPT_experiment_5_30_19,3.1.0,59.96805059769455,
,,,C,D,g,b,L,G,y,L,y,,,,,5,19,119,10,1,0,1,0,,,,,1,14,50,34,,,,,,down,0.900692183258343,1674.4570136115387,None,001,71,2019_Oct_29_0903,ACPT_experiment_5_30_19,3.1.0,59.96805059769455,
,,,C,D,g,b,L,D,y,R,y,,,,,5,19,119,10,1,0,1,0,,,,,1,15,51,33,,,,,,down,2.0680302253256286,1676.6755420029456,None,001,71,2019_Oct_29_0903,ACPT_experiment_5_30_19,3.1.0,59.96805059769455,
,,,C,D,g,b,R,D,d,R,c ,,,,,5,19,119,10,1,0,1,0,,,,,1,16,52,1,,,,,,up,0.8172924167131441,1680.0445945199467,None,001,71,2019_Oct_29_0903,ACPT_experiment_5_30_19,3.1.0,59.96805059769455,
,,,C,D,g,b,R,D,g,R,i,,,,,5,19,119,10,1,0,1,0,,,,,1,17,53,3,,,,,,up,0.6338404594712301,1682.1294887696429,None,001,71,2019_Oct_29_0903,ACPT_experiment_5_30_19,3.1.0,59.96805059769455,
,,,C,D,g,b,R,U,g,R,u,,,,,5,19,119,10,1,0,1,0,,,,,1,18,54,11,,,,,,down,1.1508730697516967,1684.047636612694,None,001,71,2019_Oct_29_0903,ACPT_experiment_5_30_19,3.1.0,59.96805059769455,
,,,C,D,g,b,L,D,y,L,y,,,,,5,19,119,10,1,0,1,0,,,,,1,19,55,32,,,,,,down,0.9006680348738882,1686.4995093350108,None,001,71,2019_Oct_29_0903,ACPT_experiment_5_30_19,3.1.0,59.96805059769455,
,,,C,D,g,b,L,G,d,R,i,,,,,5,19,119,10,1,0,1,0,,,,,1,20,56,17,,,,,,up,0.5670970411890721,1688.7011685705152,None,001,71,2019_Oct_29_0903,ACPT_experiment_5_30_19,3.1.0,59.96805059769455,
,,,C,D,g,b,L,U,d,R,u,,,,,5,19,119,10,1,0,1,0,,,,,1,21,57,21,,,,,,up,0.4502279154721691,1690.5525787305255,None,001,71,2019_Oct_29_0903,ACPT_experiment_5_30_19,3.1.0,59.96805059769455,
,,,C,D,g,b,R,U,d,L,u,,,,,5,19,119,10,1,0,1,0,,,,,1,22,58,8,,,,,,up,0.7167430711494944,1692.3043520520544,None,001,71,2019_Oct_29_0903,ACPT_experiment_5_30_19,3.1.0,59.96805059769455,
,,,C,D,g,b,R,G,y,L,y,,,,,5,19,119,10,1,0,1,0,,,,,1,23,59,28,,,,,,down,0.8673393400426903,1694.305437521941,None,001,71,2019_Oct_29_0903,ACPT_experiment_5_30_19,3.1.0,59.96805059769455,
,,,C,D,g,b,R,D,y,L,y,,,,,5,19,119,10,1,0,1,0,,,,,1,24,60,26,,,,,,down,0.8006110145008734,1696.4570600971792,None,001,71,2019_Oct_29_0903,ACPT_experiment_5_30_19,3.1.0,59.96805059769455,
,,,C,D,g,b,R,D,d,L,c,,,,,5,19,119,10,1,0,1,0,,,,,1,25,61,0,,,,,,up,2.4685351076759616,1698.541979702679,None,001,71,2019_Oct_29_0903,ACPT_experiment_5_30_19,3.1.0,59.96805059769455,
,,,C,D,g,b,L,U,y,L,u,,,,,5,19,119,10,1,0,1,0,,,,,1,26,62,24,,,,,,down,0.7171031839343414,1702.31160109525,None,001,71,2019_Oct_29_0903,ACPT_experiment_5_30_19,3.1.0,59.96805059769455,
,,,C,D,g,b,L,G,g,L,c ,,,,,5,19,119,10,1,0,1,0,,,,,1,27,63,18,,,,,,up,1.7012890105831957,1704.3297099688455,None,001,71,2019_Oct_29_0903,ACPT_experiment_5_30_19,3.1.0,59.96805059769455,
,,,C,D,g,b,L,G,y,R,y,,,,,5,19,119,10,1,0,1,0,,,,,1,28,64,35,,,,,,down,1.0174263798764969,1707.3153241724424,None,001,71,2019_Oct_29_0903,ACPT_experiment_5_30_19,3.1.0,59.96805059769455,
,,,C,D,g,b,R,G,d,R,i,,,,,5,19,119,10,1,0,1,0,,,,,1,29,65,5,,,,,,down,1.2342728362973503,1709.6170591433179,None,001,71,2019_Oct_29_0903,ACPT_experiment_5_30_19,3.1.0,59.96805059769455,
,,,C,D,g,b,L,U,g,R,u,,,,,5,19,119,10,1,0,1,0,,,,,1,30,66,23,,,,,,up,1.0508066918794157,1712.1356339298086,None,001,71,2019_Oct_29_0903,ACPT_experiment_5_30_19,3.1.0,59.96805059769455,
,,,C,D,g,b,L,D,d,L,c ,,,,,5,19,119,10,1,0,1,0,,,,,1,31,67,12,,,,,,up,0.7505414520603608,1714.4707627961536,None,001,71,2019_Oct_29_0903,ACPT_experiment_5_30_19,3.1.0,59.96805059769455,
,,,C,D,g,b,R,U,y,R,u,,,,,5,19,119,10,1,0,1,0,,,,,1,32,68,31,,,,,,down,1.1008367113402073,1716.5056264226794,None,001,71,2019_Oct_29_0903,ACPT_experiment_5_30_19,3.1.0,59.96805059769455,
,,,C,D,g,b,L,D,g,R,i,,,,,5,19,119,10,1,0,1,0,,,,,1,33,69,15,,,,,,up,0.834000985857756,1718.890779271389,None,001,71,2019_Oct_29_0903,ACPT_experiment_5_30_19,3.1.0,59.96805059769455,
,,,C,D,g,b,R,G,d,L,i,,,,,5,19,119,10,1,0,1,0,,,,,1,34,70,4,,,,,,down,2.0181982226185937,1721.0090474941371,None,001,71,2019_Oct_29_0903,ACPT_experiment_5_30_19,3.1.0,59.96805059769455,
,,,C,D,g,b,L,G,g,R,c ,,,,,5,19,119,10,1,0,1,0,,,,,1,35,71,19,,,,,,up,1.0508223883293795,1724.3115555151742,None,001,71,2019_Oct_29_0903,ACPT_experiment_5_30_19,3.1.0,59.96805059769455,
,,,C,D,g,b,,,,,,,,,,5,19,119,10,2,0,2,0,0,0,0,0,,,,,,,,,,,,,,001,71,2019_Oct_29_0903,ACPT_experiment_5_30_19,3.1.0,59.96805059769455,
,,,C,D,g,b,L,G,d,L,i,,,,,5,19,119,10,2,0,2,0,,,,,0,0,0,16,,,,,,up,1.5342304860673721,1754.317952120394,None,001,71,2019_Oct_29_0903,ACPT_experiment_5_30_19,3.1.0,59.96805059769455,
,,,C,D,g,b,L,G,y,R,y,,,,,5,19,119,10,2,0,2,0,,,,,0,1,1,35,,,,,,down,0.6504581703193253,1757.1532172741847,None,001,71,2019_Oct_29_0903,ACPT_experiment_5_30_19,3.1.0,59.96805059769455,
,,,C,D,g,b,L,D,y,L,y,,,,,5,19,119,10,2,0,2,0,,,,,0,2,2,32,,,,,,down,0.7672454933831432,1759.1046467227172,None,001,71,2019_Oct_29_0903,ACPT_experiment_5_30_19,3.1.0,59.96805059769455,
,,,C,D,g,b,R,D,y,R,y,,,,,5,19,119,10,2,0,2,0,,,,,0,3,3,27,,,,,,down,0.6671628153512756,1761.1562189183876,None,001,71,2019_Oct_29_0903,ACPT_experiment_5_30_19,3.1.0,59.96805059769455,
,,,C,D,g,b,L,G,d,R,i,,,,,5,19,119,10,2,0,2,0,,,,,0,4,4,17,,,,,,up,0.7339155911326998,1763.1076936451411,None,001,71,2019_Oct_29_0903,ACPT_experiment_5_30_19,3.1.0,59.96805059769455,
,,,C,D,g,b,R,U,y,R,u,,,,,5,19,119,10,2,0,2,0,,,,,0,5,5,31,,,,,,down,0.6338096702811526,1765.1258960937273,None,001,71,2019_Oct_29_0903,ACPT_experiment_5_30_19,3.1.0,59.96805059769455,
,,,C,D,g,b,L,U,g,R,u,,,,,5,19,119,10,2,0,2,0,,,,,0,6,6,23,,,,,,up,0.8339608391684123,1767.0440182791197,None,001,71,2019_Oct_29_0903,ACPT_experiment_5_30_19,3.1.0,59.96805059769455,
,,,C,D,g,b,R,U,g,R,u,,,,,5,19,119,10,2,0,2,0,,,,,0,7,7,11,,,,,,up,2.051564649300417,1769.162292538964,None,001,71,2019_Oct_29_0903,ACPT_experiment_5_30_19,3.1.0,59.96805059769455,
,,,C,D,g,b,R,D,g,R,i,,,,,5,19,119,10,2,0,2,0,,,,,0,8,8,3,,,,,,up,1.0341216674096358,1772.498160949587,None,001,71,2019_Oct_29_0903,ACPT_experiment_5_30_19,3.1.0,59.96805059769455,
,,,C,D,g,b,R,D,d,L,c,,,,,5,19,119,10,2,0,2,0,,,,,0,9,9,0,,,,,,up,1.2676676373312148,1774.799887468528,None,001,71,2019_Oct_29_0903,ACPT_experiment_5_30_19,3.1.0,59.96805059769455,
,,,C,D,g,b,R,G,y,L,y,,,,,5,19,119,10,2,0,2,0,,,,,0,10,10,28,,,,,,down,1.3677098668185863,1777.3518458874244,None,001,71,2019_Oct_29_0903,ACPT_experiment_5_30_19,3.1.0,59.96805059769455,
,,,C,D,g,b,R,D,y,L,y,,,,,5,19,119,10,2,0,2,0,,,,,0,11,11,26,,,,,,down,1.0173159010169002,1780.0038667600809,None,001,71,2019_Oct_29_0903,ACPT_experiment_5_30_19,3.1.0,59.96805059769455,
,,,C,D,g,b,L,U,d,R,u,,,,,5,19,119,10,2,0,2,0,,,,,0,12,12,21,,,,,,up,1.667932846964959,1782.305614710713,None,001,71,2019_Oct_29_0903,ACPT_experiment_5_30_19,3.1.0,59.96805059769455,
,,,C,D,g,b,L,D,d,L,c ,,,,,5,19,119,10,2,0,2,0,,,,,0,13,13,12,,,,,,up,0.984084101578901,1785.2578519227093,None,001,71,2019_Oct_29_0903,ACPT_experiment_5_30_19,3.1.0,59.96805059769455,
,,,C,D,g,b,R,U,y,L,u,,,,,5,19,119,10,2,0,2,0,,,,,0,14,14,30,,,,,,down,0.6338141981032095,1787.5262446152876,None,001,71,2019_Oct_29_0903,ACPT_experiment_5_30_19,3.1.0,59.96805059769455,
,,,C,D,g,b,R,U,d,R,u,,,,,5,19,119,10,2,0,2,0,,,,,0,15,15,9,,,,,,up,1.8514001988019118,1789.4443776674532,None,001,71,2019_Oct_29_0903,ACPT_experiment_5_30_19,3.1.0,59.96805059769455,
,,,C,D,g,b,R,G,y,R,y,,,,,5,19,119,10,2,0,2,0,,,,,0,16,16,29,,,,,,down,0.9340269151857683,1792.5967757076912,None,001,71,2019_Oct_29_0903,ACPT_experiment_5_30_19,3.1.0,59.96805059769455,
,,,C,D,g,b,R,D,g,L,i,,,,,5,19,119,10,2,0,2,0,,,,,0,17,17,2,,,,,,up,0.9507285416698323,1794.8317926160883,None,001,71,2019_Oct_29_0903,ACPT_experiment_5_30_19,3.1.0,59.96805059769455,
,,,C,D,g,b,L,U,g,L,u,,,,,5,19,119,10,2,0,2,0,,,,,0,18,18,22,,,,,,up,1.1008137703747707,1797.0668357858533,None,001,71,2019_Oct_29_0903,ACPT_experiment_5_30_19,3.1.0,59.96805059769455,
,,,C,D,g,b,L,G,y,L,y,,,,,5,19,119,10,2,0,2,0,,,,,0,19,19,34,,,,,,down,0.5837733118692086,1799.4519711269838,None,001,71,2019_Oct_29_0903,ACPT_experiment_5_30_19,3.1.0,59.96805059769455,
,,,C,D,g,b,L,D,y,R,y,,,,,5,19,119,10,2,0,2,0,,,,,0,20,20,33,,,,,,down,0.7172474705321292,1801.3200472946112,None,001,71,2019_Oct_29_0903,ACPT_experiment_5_30_19,3.1.0,59.96805059769455,
,,,C,D,g,b,L,D,g,R,i,,,,,5,19,119,10,2,0,2,0,,,,,0,21,21,15,,,,,,down,1.8180521852627862,1803.3215755855,None,001,71,2019_Oct_29_0903,ACPT_experiment_5_30_19,3.1.0,59.96805059769455,
,,,C,D,g,b,R,U,d,L,u,,,,,5,19,119,10,2,0,2,0,,,,,0,22,22,8,,,,,,up,1.3176566045376603,1806.4239481340994,None,001,71,2019_Oct_29_0903,ACPT_experiment_5_30_19,3.1.0,59.96805059769455,
,,,C,D,g,b,L,U,d,L,u,,,,,5,19,119,10,2,0,2,0,,,,,0,23,23,20,,,,,,up,0.6004447528730452,1809.0092409830688,None,001,71,2019_Oct_29_0903,ACPT_experiment_5_30_19,3.1.0,59.96805059769455,
,,,C,D,g,b,R,G,g,L,c ,,,,,5,19,119,10,2,0,2,0,,,,,0,24,24,6,,,,,,down,0.867331189962897,1810.893993723231,None,001,71,2019_Oct_29_0903,ACPT_experiment_5_30_19,3.1.0,59.96805059769455,
,,,C,D,g,b,L,U,y,R,u,,,,,5,19,119,10,2,0,2,0,,,,,0,25,25,25,,,,,,down,0.867321832464313,1813.0456325986286,None,001,71,2019_Oct_29_0903,ACPT_experiment_5_30_19,3.1.0,59.96805059769455,
,,,C,D,g,b,R,G,d,L,i,,,,,5,19,119,10,2,0,2,0,,,,,0,26,26,4,,,,,,up,0.8172776258275007,1815.197269059188,None,001,71,2019_Oct_29_0903,ACPT_experiment_5_30_19,3.1.0,59.96805059769455,
,,,C,D,g,b,L,D,g,L,i,,,,,5,19,119,10,2,0,2,0,,,,,0,27,27,14,,,,,,up,1.23425955468565,1817.298875198432,None,001,71,2019_Oct_29_0903,ACPT_experiment_5_30_19,3.1.0,59.96805059769455,
,,,C,D,g,b,R,D,d,R,c ,,,,,5,19,119,10,2,0,2,0,,,,,0,28,28,1,,,,,,up,1.6679355636579203,1819.8174406274231,None,001,71,2019_Oct_29_0903,ACPT_experiment_5_30_19,3.1.0,59.96805059769455,
,,,C,D,g,b,R,G,d,R,i,,,,,5,19,119,10,2,0,2,0,,,,,0,29,29,5,,,,,,down,2.10159738545417,1822.7696835746613,None,001,71,2019_Oct_29_0903,ACPT_experiment_5_30_19,3.1.0,59.96805059769455,
,,,C,D,g,b,L,U,y,L,u,,,,,5,19,119,10,2,0,2,0,,,,,0,30,30,24,,,,,,down,0.7338817833942812,1826.1722709533267,None,001,71,2019_Oct_29_0903,ACPT_experiment_5_30_19,3.1.0,59.96805059769455,
,,,C,D,g,b,R,G,g,R,c ,,,,,5,19,119,10,2,0,2,0,,,,,0,31,31,7,,,,,,up,1.1675683572852904,1828.2071478614641,None,001,71,2019_Oct_29_0903,ACPT_experiment_5_30_19,3.1.0,59.96805059769455,
,,,C,D,g,b,R,U,g,L,u,,,,,5,19,119,10,2,0,2,0,,,,,0,32,32,10,,,,,,up,1.1508751827350352,1830.6590070003147,None,001,71,2019_Oct_29_0903,ACPT_experiment_5_30_19,3.1.0,59.96805059769455,
,,,C,D,g,b,L,G,g,R,c ,,,,,5,19,119,10,2,0,2,0,,,,,0,33,33,19,,,,,,up,1.234406557976854,1833.0941934907426,None,001,71,2019_Oct_29_0903,ACPT_experiment_5_30_19,3.1.0,59.96805059769455,
,,,C,D,g,b,L,D,d,R,c ,,,,,5,19,119,10,2,0,2,0,,,,,0,34,34,13,,,,,,up,0.7672750751539752,1835.6127722013455,None,001,71,2019_Oct_29_0903,ACPT_experiment_5_30_19,3.1.0,59.96805059769455,
,,,C,D,g,b,L,G,g,L,c ,,,,,5,19,119,10,2,0,2,0,,,,,0,35,35,18,,,,,,up,0.46369667697126715,1837.684335335335,None,001,71,2019_Oct_29_0903,ACPT_experiment_5_30_19,3.1.0,59.96805059769455,
,,,C,D,g,b,L,D,g,L,i,,,,,5,19,119,10,2,0,2,0,,,,,1,0,36,14,,,,,,up,0.5504141297028582,1839.4323433199986,None,001,71,2019_Oct_29_0903,ACPT_experiment_5_30_19,3.1.0,59.96805059769455,
,,,C,D,g,b,R,D,d,L,c,,,,,5,19,119,10,2,0,2,0,,,,,1,1,37,0,,,,,,up,0.5670876836902607,1841.2670690592483,None,001,71,2019_Oct_29_0903,ACPT_experiment_5_30_19,3.1.0,59.96805059769455,
,,,C,D,g,b,L,D,y,R,y,,,,,5,19,119,10,2,0,2,0,,,,,1,2,38,33,,,,,,down,0.9173808299860866,1843.1184529578902,None,001,71,2019_Oct_29_0903,ACPT_experiment_5_30_19,3.1.0,59.96805059769455,
,,,C,D,g,b,L,U,y,L,u,,,,,5,19,119,10,2,0,2,0,,,,,1,3,39,24,,,,,,down,0.7505643930257975,1845.3201496233908,None,001,71,2019_Oct_29_0903,ACPT_experiment_5_30_19,3.1.0,59.96805059769455,
,,,C,D,g,b,L,G,y,L,y,,,,,5,19,119,10,2,0,2,0,,,,,1,4,40,34,,,,,,down,7.063402472340385e-05,1847.3550235129803,None,001,71,2019_Oct_29_0903,ACPT_experiment_5_30_19,3.1.0,59.96805059769455,
,,,C,D,g,b,L,U,g,R,u,,,,,5,19,119,10,2,0,2,0,,,,,1,5,41,23,,,,,,up,0.7672548508821819,1848.6393348206727,None,001,71,2019_Oct_29_0903,ACPT_experiment_5_30_19,3.1.0,59.96805059769455,
,,,C,D,g,b,L,G,y,R,y,,,,,5,19,119,10,2,0,2,0,,,,,1,6,42,35,,,,,,down,0.550139139973453,1850.7078733694937,None,001,71,2019_Oct_29_0903,ACPT_experiment_5_30_19,3.1.0,59.96805059769455,
,,,C,D,g,b,L,G,d,R,i,,,,,5,19,119,10,2,0,2,0,,,,,1,7,43,17,,,,,,up,0.5504569930853904,1852.5256086072088,None,001,71,2019_Oct_29_0903,ACPT_experiment_5_30_19,3.1.0,59.96805059769455,
,,,C,D,g,b,R,U,d,L,u,,,,,5,19,119,10,2,0,2,0,,,,,1,8,44,8,,,,,,up,0.9841061369797899,1854.343644492312,None,001,71,2019_Oct_29_0903,ACPT_experiment_5_30_19,3.1.0,59.96805059769455,
,,,C,D,g,b,R,D,g,R,i,,,,,5,19,119,10,2,0,2,0,,,,,1,9,45,3,,,,,,up,1.4844654951275515,1856.612055899888,None,001,71,2019_Oct_29_0903,ACPT_experiment_5_30_19,3.1.0,59.96805059769455,
,,,C,D,g,b,R,G,g,L,c ,,,,,5,19,119,10,2,0,2,0,,,,,1,10,46,6,,,,,,up,1.8347516987632844,1859.3641458671098,None,001,71,2019_Oct_29_0903,ACPT_experiment_5_30_19,3.1.0,59.96805059769455,
,,,C,D,g,b,R,D,y,L,y,,,,,5,19,119,10,2,0,2,0,,,,,1,11,47,26,,,,,,down,3.7862122383412498,1862.4831832159068,None,001,71,2019_Oct_29_0903,ACPT_experiment_5_30_19,3.1.0,59.96805059769455,
,,,C,D,g,b,R,G,d,R,i,,,,,5,19,119,10,2,0,2,0,,,,,1,12,48,5,,,,,,up,0.6671712672864487,1867.5536983100053,None,001,71,2019_Oct_29_0903,ACPT_experiment_5_30_19,3.1.0,59.96805059769455,
,,,C,D,g,b,R,D,y,R,y,,,,,5,19,119,10,2,0,2,0,,,,,1,13,49,27,,,,,,down,1.2843013464839714,1869.52186440018,None,001,71,2019_Oct_29_0903,ACPT_experiment_5_30_19,3.1.0,59.96805059769455,
,,,C,D,g,b,R,G,y,R,y,,,,,5,19,119,10,2,0,2,0,,,,,1,14,50,29,,,,,,down,0.7672355321747091,1872.10717113447,None,001,71,2019_Oct_29_0903,ACPT_experiment_5_30_19,3.1.0,59.96805059769455,
,,,C,D,g,b,R,U,g,L,u,,,,,5,19,119,10,2,0,2,0,,,,,1,15,51,10,,,,,,up,0.8172918130035214,1874.1587176724822,None,001,71,2019_Oct_29_0903,ACPT_experiment_5_30_19,3.1.0,59.96805059769455,
,,,C,D,g,b,L,G,g,R,c ,,,,,5,19,119,10,2,0,2,0,,,,,1,16,52,19,,,,,,up,0.9507321639275688,1876.2603129449528,None,001,71,2019_Oct_29_0903,ACPT_experiment_5_30_19,3.1.0,59.96805059769455,
,,,C,D,g,b,L,D,y,L,y,,,,,5,19,119,10,2,0,2,0,,,,,1,17,53,32,,,,,,up,0.5501928701291945,1878.512262096907,None,001,71,2019_Oct_29_0903,ACPT_experiment_5_30_19,3.1.0,59.96805059769455,
,,,C,D,g,b,R,G,g,R,c ,,,,,5,19,119,10,2,0,2,0,,,,,1,18,54,7,,,,,,up,1.0341430991011293,1880.346762048761,None,001,71,2019_Oct_29_0903,ACPT_experiment_5_30_19,3.1.0,59.96805059769455,
,,,C,D,g,b,L,G,g,L,c ,,,,,5,19,119,10,2,0,2,0,,,,,1,19,55,18,,,,,,up,0.817283059213878,1882.6651829496707,None,001,71,2019_Oct_29_0903,ACPT_experiment_5_30_19,3.1.0,59.96805059769455,
,,,C,D,g,b,L,U,d,L,u,,,,,5,19,119,10,2,0,2,0,,,,,1,20,56,20,,,,,,up,1.0007685223395129,1884.7667857685117,None,001,71,2019_Oct_29_0903,ACPT_experiment_5_30_19,3.1.0,59.96805059769455,
,,,C,D,g,b,L,D,g,R,i,,,,,5,19,119,10,2,0,2,0,,,,,1,21,57,15,,,,,,up,0.717207323843013,1887.0518453742714,None,001,71,2019_Oct_29_0903,ACPT_experiment_5_30_19,3.1.0,59.96805059769455,
,,,C,D,g,b,R,D,d,R,c ,,,,,5,19,119,10,2,0,2,0,,,,,1,22,58,1,,,,,,up,0.4002676244722352,1889.0533935875776,None,001,71,2019_Oct_29_0903,ACPT_experiment_5_30_19,3.1.0,59.96805059769455,
,,,C,D,g,b,R,G,d,L,i,,,,,5,19,119,10,2,0,2,0,,,,,1,23,59,4,,,,,,up,0.48369546351477766,1890.7379800661122,None,001,71,2019_Oct_29_0903,ACPT_experiment_5_30_19,3.1.0,59.96805059769455,
,,,C,D,g,b,L,U,y,R,u,,,,,5,19,119,10,2,0,2,0,,,,,1,24,60,25,,,,,,down,0.6669303871499324,1892.5229115345062,None,001,71,2019_Oct_29_0903,ACPT_experiment_5_30_19,3.1.0,59.96805059769455,
,,,C,D,g,b,R,U,d,R,u,,,,,5,19,119,10,2,0,2,0,,,,,1,25,61,9,,,,,,up,0.8006587075606149,1894.47412757169,None,001,71,2019_Oct_29_0903,ACPT_experiment_5_30_19,3.1.0,59.96805059769455,
,,,C,D,g,b,L,G,d,L,i,,,,,5,19,119,10,2,0,2,0,,,,,1,26,62,16,,,,,,up,0.8173093205818986,1896.5590658921876,None,001,71,2019_Oct_29_0903,ACPT_experiment_5_30_19,3.1.0,59.96805059769455,
,,,C,D,g,b,R,D,g,L,i,,,,,5,19,119,10,2,0,2,0,,,,,1,27,63,2,,,,,,up,0.3669353073833008,1898.6606693147385,None,001,71,2019_Oct_29_0903,ACPT_experiment_5_30_19,3.1.0,59.96805059769455,
,,,C,D,g,b,L,D,d,R,c ,,,,,5,19,119,10,2,0,2,0,,,,,1,28,64,13,,,,,,up,0.45006491387630376,1900.3288711143362,None,001,71,2019_Oct_29_0903,ACPT_experiment_5_30_19,3.1.0,59.96805059769455,
,,,C,D,g,b,L,U,g,L,u,,,,,5,19,119,10,2,0,2,0,,,,,1,29,65,22,,,,,,up,0.40030324333929457,1902.0632458266307,None,001,71,2019_Oct_29_0903,ACPT_experiment_5_30_19,3.1.0,59.96805059769455,
,,,C,D,g,b,L,D,d,L,c ,,,,,5,19,119,10,2,0,2,0,,,,,1,30,66,12,,,,,,up,0.48369757649834355,1903.7478633962107,None,001,71,2019_Oct_29_0903,ACPT_experiment_5_30_19,3.1.0,59.96805059769455,
,,,C,D,g,b,R,U,y,L,u,,,,,5,19,119,10,2,0,2,0,,,,,1,31,67,30,,,,,,down,0.8172893981645757,1905.5158731859658,None,001,71,2019_Oct_29_0903,ACPT_experiment_5_30_19,3.1.0,59.96805059769455,
,,,C,D,g,b,R,U,y,R,u,,,,,5,19,119,10,2,0,2,0,,,,,1,32,68,31,,,,,,down,3.068973219743384,1907.6508457518914,None,001,71,2019_Oct_29_0903,ACPT_experiment_5_30_19,3.1.0,59.96805059769455,
,,,C,D,g,b,R,G,y,L,y,,,,,5,19,119,10,2,0,2,0,,,,,1,33,69,28,,,,,,down,1.0174300021344607,1912.0374970078644,None,001,71,2019_Oct_29_0903,ACPT_experiment_5_30_19,3.1.0,59.96805059769455,
,,,C,D,g,b,R,U,g,R,u,,,,,5,19,119,10,2,0,2,0,,,,,1,34,70,11,,,,,,up,0.6337942756858865,1914.3392582401082,None,001,71,2019_Oct_29_0903,ACPT_experiment_5_30_19,3.1.0,59.96805059769455,
,,,C,D,g,b,L,U,d,R,u,,,,,5,19,119,10,2,0,2,0,,,,,1,35,71,21,,,,,,up,0.7672639065262956,1916.2573665401794,None,001,71,2019_Oct_29_0903,ACPT_experiment_5_30_19,3.1.0,59.96805059769455,
,,,C,D,g,b,,,,,,,,,,5,19,119,10,3,0,3,0,0,0,0,0,,,,,,,,,,,,,,001,71,2019_Oct_29_0903,ACPT_experiment_5_30_19,3.1.0,59.96805059769455,
,,,C,D,g,b,L,U,d,L,u,,,,,5,19,119,10,3,0,3,0,,,,,0,0,0,20,,,,,,up,1.1506545268712216,1942.9778993984335,None,001,71,2019_Oct_29_0903,ACPT_experiment_5_30_19,3.1.0,59.96805059769455,
,,,C,D,g,b,L,U,y,R,u,,,,,5,19,119,10,3,0,3,0,,,,,0,1,1,25,,,,,,down,0.6171352107294297,1945.4128453105798,None,001,71,2019_Oct_29_0903,ACPT_experiment_5_30_19,3.1.0,59.96805059769455,
,,,C,D,g,b,R,D,d,R,c ,,,,,5,19,119,10,3,0,3,0,,,,,0,2,2,1,,,,,,up,2.168310920110798,1947.3142918290016,None,001,71,2019_Oct_29_0903,ACPT_experiment_5_30_19,3.1.0,59.96805059769455,
,,,C,D,g,b,R,G,g,R,c ,,,,,5,19,119,10,3,0,3,0,,,,,0,3,3,7,,,,,,up,2.1516295178985274,1950.7669176790625,None,001,71,2019_Oct_29_0903,ACPT_experiment_5_30_19,3.1.0,59.96805059769455,
,,,C,D,g,b,L,G,d,L,i,,,,,5,19,119,10,3,0,3,0,,,,,0,4,4,16,,,,,,up,0.5170537401172624,1954.2028569953793,None,001,71,2019_Oct_29_0903,ACPT_experiment_5_30_19,3.1.0,59.96805059769455,
,,,C,D,g,b,R,U,d,L,u,,,,,5,19,119,10,3,0,3,0,,,,,0,5,5,8,,,,,,up,0.35015489679426537,1956.0042353248002,None,001,71,2019_Oct_29_0903,ACPT_experiment_5_30_19,3.1.0,59.96805059769455,
,,,C,D,g,b,R,U,y,R,u,,,,,5,19,119,10,3,0,3,0,,,,,0,6,6,31,,,,,,up,0.23352997161646272,1957.6220992130345,None,001,71,2019_Oct_29_0903,ACPT_experiment_5_30_19,3.1.0,59.96805059769455,
,,,C,D,g,b,R,D,y,L,y,,,,,5,19,119,10,3,0,3,0,,,,,0,7,7,26,,,,,,up,0.5333587293848723,1959.156890545334,None,001,71,2019_Oct_29_0903,ACPT_experiment_5_30_19,3.1.0,59.96805059769455,
,,,C,D,g,b,L,D,y,R,y,,,,,5,19,119,10,3,0,3,0,,,,,0,8,8,33,,,,,,down,0.767264510235691,1960.9746626093354,None,001,71,2019_Oct_29_0903,ACPT_experiment_5_30_19,3.1.0,59.96805059769455,
,,,C,D,g,b,L,D,d,L,c ,,,,,5,19,119,10,3,0,3,0,,,,,0,9,9,12,,,,,,up,0.7839299141433003,1963.026225749362,None,001,71,2019_Oct_29_0903,ACPT_experiment_5_30_19,3.1.0,59.96805059769455,
,,,C,D,g,b,L,D,g,R,i,,,,,5,19,119,10,3,0,3,0,,,,,0,10,10,15,,,,,,up,0.5504379762328426,1965.0777623261654,None,001,71,2019_Oct_29_0903,ACPT_experiment_5_30_19,3.1.0,59.96805059769455,
,,,C,D,g,b,L,U,y,L,u,,,,,5,19,119,10,3,0,3,0,,,,,0,11,11,24,,,,,,down,0.7839223677733571,1966.9125155342028,None,001,71,2019_Oct_29_0903,ACPT_experiment_5_30_19,3.1.0,59.96805059769455,
,,,C,D,g,b,R,U,d,R,u,,,,,5,19,119,10,3,0,3,0,,,,,0,12,12,9,,,,,,up,1.1007159694172515,1968.9807513226522,None,001,71,2019_Oct_29_0903,ACPT_experiment_5_30_19,3.1.0,59.96805059769455,
,,,C,D,g,b,R,U,g,L,u,,,,,5,19,119,10,3,0,3,0,,,,,0,13,13,10,,,,,,up,0.8339689892482056,1971.3492137135052,None,001,71,2019_Oct_29_0903,ACPT_experiment_5_30_19,3.1.0,59.96805059769455,
,,,C,D,g,b,L,D,d,R,c ,,,,,5,19,119,10,3,0,3,0,,,,,0,14,14,13,,,,,,up,0.6338359316491733,1973.4674888789143,None,001,71,2019_Oct_29_0903,ACPT_experiment_5_30_19,3.1.0,59.96805059769455,
,,,C,D,g,b,L,G,y,L,y,,,,,5,19,119,10,3,0,3,0,,,,,0,15,15,34,,,,,,down,0.8006131274846666,1975.3856134791451,None,001,71,2019_Oct_29_0903,ACPT_experiment_5_30_19,3.1.0,59.96805059769455,
,,,C,D,g,b,L,U,g,R,u,,,,,5,19,119,10,3,0,3,0,,,,,0,16,16,23,,,,,,up,0.7172055127139174,1977.4705358013387,None,001,71,2019_Oct_29_0903,ACPT_experiment_5_30_19,3.1.0,59.96805059769455,
,,,C,D,g,b,R,G,y,L,y,,,,,5,19,119,10,3,0,3,0,,,,,0,17,17,28,,,,,,down,0.633844987293287,1979.472052621745,None,001,71,2019_Oct_29_0903,ACPT_experiment_5_30_19,3.1.0,59.96805059769455,
,,,C,D,g,b,R,D,g,L,i,,,,,5,19,119,10,3,0,3,0,,,,,0,18,18,2,,,,,,up,0.5337212570079828,1981.3901932202805,None,001,71,2019_Oct_29_0903,ACPT_experiment_5_30_19,3.1.0,59.96805059769455,
,,,C,D,g,b,L,G,g,R,c ,,,,,5,19,119,10,3,0,3,0,,,,,0,19,19,19,,,,,,up,0.767249719350275,1983.1915428734949,None,001,71,2019_Oct_29_0903,ACPT_experiment_5_30_19,3.1.0,59.96805059769455,
,,,C,D,g,b,R,D,d,L,c,,,,,5,19,119,10,3,0,3,0,,,,,0,20,20,0,,,,,,up,0.7505634874610223,1985.2431042023925,None,001,71,2019_Oct_29_0903,ACPT_experiment_5_30_19,3.1.0,59.96805059769455,
,,,C,D,g,b,L,D,y,L,y,,,,,5,19,119,10,3,0,3,0,,,,,0,21,21,32,,,,,,up,0.5670961356245243,1987.2946616071774,None,001,71,2019_Oct_29_0903,ACPT_experiment_5_30_19,3.1.0,59.96805059769455,
,,,C,D,g,b,R,D,y,R,y,,,,,5,19,119,10,3,0,3,0,,,,,0,22,22,27,,,,,,down,0.8339366907835029,1989.162770073269,None,001,71,2019_Oct_29_0903,ACPT_experiment_5_30_19,3.1.0,59.96805059769455,
,,,C,D,g,b,L,G,y,R,y,,,,,5,19,119,10,3,0,3,0,,,,,0,23,23,35,,,,,,down,0.5337607999877036,1991.2810216940031,None,001,71,2019_Oct_29_0903,ACPT_experiment_5_30_19,3.1.0,59.96805059769455,
,,,C,D,g,b,L,U,g,L,u,,,,,5,19,119,10,3,0,3,0,,,,,0,24,24,22,,,,,,up,0.5504150352671786,1993.0990726718467,None,001,71,2019_Oct_29_0903,ACPT_experiment_5_30_19,3.1.0,59.96805059769455,
,,,C,D,g,b,R,D,g,R,i,,,,,5,19,119,10,3,0,3,0,,,,,0,25,25,3,,,,,,up,0.7005222993730058,1994.9171287812221,None,001,71,2019_Oct_29_0903,ACPT_experiment_5_30_19,3.1.0,59.96805059769455,
,,,C,D,g,b,R,G,y,R,y,,,,,5,19,119,10,3,0,3,0,,,,,0,26,26,29,,,,,,down,0.7839311215630005,1996.9019584641749,None,001,71,2019_Oct_29_0903,ACPT_experiment_5_30_19,3.1.0,59.96805059769455,
,,,C,D,g,b,R,U,y,L,u,,,,,5,19,119,10,3,0,3,0,,,,,0,27,27,30,,,,,,down,1.1342103825377308,1998.970193045205,None,001,71,2019_Oct_29_0903,ACPT_experiment_5_30_19,3.1.0,59.96805059769455,
,,,C,D,g,b,R,U,g,R,u,,,,,5,19,119,10,3,0,3,0,,,,,0,28,28,11,,,,,,up,0.6004707123861408,2001.3887340541426,None,001,71,2019_Oct_29_0903,ACPT_experiment_5_30_19,3.1.0,59.96805059769455,
,,,C,D,g,b,L,D,g,L,i,,,,,5,19,119,10,3,0,3,0,,,,,0,29,29,14,,,,,,up,0.6004504881143475,2003.2734668718879,None,001,71,2019_Oct_29_0903,ACPT_experiment_5_30_19,3.1.0,59.96805059769455,
,,,C,D,g,b,L,U,d,R,u,,,,,5,19,119,10,3,0,3,0,,,,,0,30,30,21,,,,,,up,0.6671721728507691,2005.1582298751134,None,001,71,2019_Oct_29_0903,ACPT_experiment_5_30_19,3.1.0,59.96805059769455,
,,,C,D,g,b,L,G,d,R,i,,,,,5,19,119,10,3,0,3,0,,,,,0,31,31,17,,,,,,up,0.41700969950079525,2007.093035575702,None,001,71,2019_Oct_29_0903,ACPT_experiment_5_30_19,3.1.0,59.96805059769455,
,,,C,D,g,b,L,G,g,L,c ,,,,,5,19,119,10,3,0,3,0,,,,,0,32,32,18,,,,,,up,0.6835855279937277,2008.794591425935,None,001,71,2019_Oct_29_0903,ACPT_experiment_5_30_19,3.1.0,59.96805059769455,
,,,C,D,g,b,R,G,d,L,i,,,,,5,19,119,10,3,0,3,0,,,,,0,33,33,4,,,,,,up,0.700567577594029,2010.7624861486377,None,001,71,2019_Oct_29_0903,ACPT_experiment_5_30_19,3.1.0,59.96805059769455,
,,,C,D,g,b,R,G,g,L,c ,,,,,5,19,119,10,3,0,3,0,,,,,0,34,34,6,,,,,,up,0.5671172654610928,2012.7306277885725,None,001,71,2019_Oct_29_0903,ACPT_experiment_5_30_19,3.1.0,59.96805059769455,
,,,C,D,g,b,R,G,d,R,i,,,,,5,19,119,10,3,0,3,0,,,,,0,35,35,5,,,,,,up,0.8173123391302397,2014.5653520185485,None,001,71,2019_Oct_29_0903,ACPT_experiment_5_30_19,3.1.0,59.96805059769455,
,,,C,D,g,b,L,U,d,R,u,,,,,5,19,119,10,3,0,3,0,,,,,1,0,36,21,,,,,,up,0.8339861949725673,2016.6669717412585,None,001,71,2019_Oct_29_0903,ACPT_experiment_5_30_19,3.1.0,59.96805059769455,
,,,C,D,g,b,L,D,y,R,y,,,,,5,19,119,10,3,0,3,0,,,,,1,1,37,33,,,,,,down,0.8339919302134149,2018.7852206452992,None,001,71,2019_Oct_29_0903,ACPT_experiment_5_30_19,3.1.0,59.96805059769455,
,,,C,D,g,b,R,D,g,R,i,,,,,5,19,119,10,3,0,3,0,,,,,1,2,38,3,,,,,,up,0.3836079558059282,2020.9035395796552,None,001,71,2019_Oct_29_0903,ACPT_experiment_5_30_19,3.1.0,59.96805059769455,
,,,C,D,g,b,R,G,d,L,i,,,,,5,19,119,10,3,0,3,0,,,,,1,3,39,4,,,,,,up,0.6338060480234162,2022.571459446863,None,001,71,2019_Oct_29_0903,ACPT_experiment_5_30_19,3.1.0,59.96805059769455,
,,,C,D,g,b,L,D,g,R,i,,,,,5,19,119,10,3,0,3,0,,,,,1,4,40,15,,,,,,up,0.46709888250325093,2024.4895882730614,None,001,71,2019_Oct_29_0903,ACPT_experiment_5_30_19,3.1.0,59.96805059769455,
,,,C,D,g,b,R,D,d,R,c ,,,,,5,19,119,10,3,0,3,0,,,,,1,5,41,1,,,,,,up,0.5670674594180127,2026.2409589202773,None,001,71,2019_Oct_29_0903,ACPT_experiment_5_30_19,3.1.0,59.96805059769455,
,,,C,D,g,b,R,G,d,R,i,,,,,5,19,119,10,3,0,3,0,,,,,1,6,42,5,,,,,,up,0.6471706696138426,2028.112321079336,None,001,71,2019_Oct_29_0903,ACPT_experiment_5_30_19,3.1.0,59.96805059769455,
,,,C,D,g,b,R,D,y,L,y,,,,,5,19,119,10,3,0,3,0,,,,,1,7,43,26,,,,,,down,0.8339674799740351,2030.0437979251103,None,001,71,2019_Oct_29_0903,ACPT_experiment_5_30_19,3.1.0,59.96805059769455,
,,,C,D,g,b,L,D,d,R,c ,,,,,5,19,119,10,3,0,3,0,,,,,1,8,44,13,,,,,,up,0.41698343813231986,2032.1620761090674,None,001,71,2019_Oct_29_0903,ACPT_experiment_5_30_19,3.1.0,59.96805059769455,
,,,C,D,g,b,R,U,y,L,u,,,,,5,19,119,10,3,0,3,0,,,,,1,9,45,30,,,,,,down,0.850641637670833,2033.8633814198104,None,001,71,2019_Oct_29_0903,ACPT_experiment_5_30_19,3.1.0,59.96805059769455,
,,,C,D,g,b,L,U,d,L,u,,,,,5,19,119,10,3,0,3,0,,,,,1,10,46,20,,,,,,up,0.6004550159364044,2035.9983216872718,None,001,71,2019_Oct_29_0903,ACPT_experiment_5_30_19,3.1.0,59.96805059769455,
,,,C,D,g,b,R,G,y,R,y,,,,,5,19,119,10,3,0,3,0,,,,,1,11,47,29,,,,,,up,0.2835448983369133,2037.8830877090456,None,001,71,2019_Oct_29_0903,ACPT_experiment_5_30_19,3.1.0,59.96805059769455,
,,,C,D,g,b,R,U,y,R,u,,,,,5,19,119,10,3,0,3,0,,,,,1,12,48,31,,,,,,down,0.700520488244365,2039.4676259209966,None,001,71,2019_Oct_29_0903,ACPT_experiment_5_30_19,3.1.0,59.96805059769455,
,,,C,D,g,b,R,D,d,L,c,,,,,5,19,119,10,3,0,3,0,,,,,1,13,49,0,,,,,,up,0.5170410622149575,2041.5025142996167,None,001,71,2019_Oct_29_0903,ACPT_experiment_5_30_19,3.1.0,59.96805059769455,
,,,C,D,g,b,R,G,g,R,c ,,,,,5,19,119,10,3,0,3,0,,,,,1,14,50,7,,,,,,up,0.617133097745409,2043.3038796492808,None,001,71,2019_Oct_29_0903,ACPT_experiment_5_30_19,3.1.0,59.96805059769455,
,,,C,D,g,b,L,U,g,L,u,,,,,5,19,119,10,3,0,3,0,,,,,1,15,51,22,,,,,,up,0.567095833770054,2045.188639332104,None,001,71,2019_Oct_29_0903,ACPT_experiment_5_30_19,3.1.0,59.96805059769455,
,,,C,D,g,b,L,G,g,L,c ,,,,,5,19,119,10,3,0,3,0,,,,,1,16,52,18,,,,,,up,0.5004016178208985,2047.0400455680017,None,001,71,2019_Oct_29_0903,ACPT_experiment_5_30_19,3.1.0,59.96805059769455,
,,,C,D,g,b,R,G,g,L,c ,,,,,5,19,119,10,3,0,3,0,,,,,1,17,53,6,,,,,,up,0.4136246996922637,2048.8447669394127,None,001,71,2019_Oct_29_0903,ACPT_experiment_5_30_19,3.1.0,59.96805059769455,
,,,C,D,g,b,L,G,y,L,y,,,,,5,19,119,10,3,0,3,0,,,,,1,18,54,34,,,,,,down,0.7172227184378244,2050.542705663491,None,001,71,2019_Oct_29_0903,ACPT_experiment_5_30_19,3.1.0,59.96805059769455,
,,,C,D,g,b,L,D,g,L,i,,,,,5,19,119,10,3,0,3,0,,,,,1,19,55,14,,,,,,up,0.5504177519601399,2052.544223993171,None,001,71,2019_Oct_29_0903,ACPT_experiment_5_30_19,3.1.0,59.96805059769455,
,,,C,D,g,b,L,G,d,L,i,,,,,5,19,119,10,3,0,3,0,,,,,1,20,56,16,,,,,,up,0.43366001066760873,2054.378952449114,None,001,71,2019_Oct_29_0903,ACPT_experiment_5_30_19,3.1.0,59.96805059769455,
,,,C,D,g,b,L,U,y,L,u,,,,,5,19,119,10,3,0,3,0,,,,,1,21,57,24,,,,,,down,0.8336979236314619,2056.1138774427227,None,001,71,2019_Oct_29_0903,ACPT_experiment_5_30_19,3.1.0,59.96805059769455,
,,,C,D,g,b,R,D,g,L,i,,,,,5,19,119,10,3,0,3,0,,,,,1,22,58,2,,,,,,up,1.784697530918038,2058.231878523966,None,001,71,2019_Oct_29_0903,ACPT_experiment_5_30_19,3.1.0,59.96805059769455,
,,,C,D,g,b,L,G,d,R,i,,,,,5,19,119,10,3,0,3,0,,,,,1,23,59,17,,,,,,up,1.0174716580977474,2061.3008743828204,None,001,71,2019_Oct_29_0903,ACPT_experiment_5_30_19,3.1.0,59.96805059769455,
,,,C,D,g,b,R,D,y,R,y,,,,,5,19,119,10,3,0,3,0,,,,,1,24,60,27,,,,,,down,0.6171007992816158,2063.619329393323,None,001,71,2019_Oct_29_0903,ACPT_experiment_5_30_19,3.1.0,59.96805059769455,
,,,C,D,g,b,R,U,d,R,u,,,,,5,19,119,10,3,0,3,0,,,,,1,25,61,9,,,,,,up,0.5670967393343744,2065.53742863775,None,001,71,2019_Oct_29_0903,ACPT_experiment_5_30_19,3.1.0,59.96805059769455,
,,,C,D,g,b,R,U,g,L,u,,,,,5,19,119,10,3,0,3,0,,,,,1,26,62,10,,,,,,up,0.9004174953838628,2067.389104128136,None,001,71,2019_Oct_29_0903,ACPT_experiment_5_30_19,3.1.0,59.96805059769455,
,,,C,D,g,b,L,D,d,L,c ,,,,,5,19,119,10,3,0,3,0,,,,,1,27,63,12,,,,,,up,0.550415638976574,2069.573826894116,None,001,71,2019_Oct_29_0903,ACPT_experiment_5_30_19,3.1.0,59.96805059769455,
,,,C,D,g,b,R,U,g,R,u,,,,,5,19,119,10,3,0,3,0,,,,,1,28,64,11,,,,,,up,0.46701466501190225,2071.4085538407853,None,001,71,2019_Oct_29_0903,ACPT_experiment_5_30_19,3.1.0,59.96805059769455,
,,,C,D,g,b,L,U,y,R,u,,,,,5,19,119,10,3,0,3,0,,,,,1,29,65,25,,,,,,down,0.6838306340973759,2073.176578421426,None,001,71,2019_Oct_29_0903,ACPT_experiment_5_30_19,3.1.0,59.96805059769455,
,,,C,D,g,b,R,G,y,L,y,,,,,5,19,119,10,3,0,3,0,,,,,1,30,66,28,,,,,,down,0.667168550592578,2075.161418367443,None,001,71,2019_Oct_29_0903,ACPT_experiment_5_30_19,3.1.0,59.96805059769455,
,,,C,D,g,b,L,G,y,R,y,,,,,5,19,119,10,3,0,3,0,,,,,1,31,67,35,,,,,,down,0.7839371586587731,2077.112877397746,None,001,71,2019_Oct_29_0903,ACPT_experiment_5_30_19,3.1.0,59.96805059769455,
,,,C,D,g,b,L,G,g,R,c ,,,,,5,19,119,10,3,0,3,0,,,,,1,32,68,19,,,,,,up,0.45034201658927486,2079.1811246566776,None,001,71,2019_Oct_29_0903,ACPT_experiment_5_30_19,3.1.0,59.96805059769455,
,,,C,D,g,b,R,U,d,L,u,,,,,5,19,119,10,3,0,3,0,,,,,1,33,69,8,,,,,,up,0.48369576536924797,2080.915779792089,None,001,71,2019_Oct_29_0903,ACPT_experiment_5_30_19,3.1.0,59.96805059769455,
,,,C,D,g,b,L,U,g,R,u,,,,,5,19,119,10,3,0,3,0,,,,,1,34,70,23,,,,,,up,0.3836155021763261,2082.6837895818435,None,001,71,2019_Oct_29_0903,ACPT_experiment_5_30_19,3.1.0,59.96805059769455,
,,,C,D,g,b,L,D,y,L,y,,,,,5,19,119,10,3,0,3,0,,,,,1,35,71,32,,,,,,up,0.3336084236807437,2084.3684023217465,None,001,71,2019_Oct_29_0903,ACPT_experiment_5_30_19,3.1.0,59.96805059769455,
,,,C,D,g,b,,,,,,,,,,5,19,119,10,4,0,4,0,0,0,0,0,,,,,,,,,,,,,,001,71,2019_Oct_29_0903,ACPT_experiment_5_30_19,3.1.0,59.96805059769455,
,,,C,D,g,b,L,D,y,L,y,,,,,5,19,119,10,4,0,4,0,,,,,0,0,0,32,,,,,,down,0.6637207649846459,2094.279375981594,None,001,71,2019_Oct_29_0903,ACPT_experiment_5_30_19,3.1.0,59.96805059769455,
,,,C,D,g,b,R,U,d,R,u,,,,,5,19,119,10,4,0,4,0,,,,,0,1,1,9,,,,,,up,0.4670134575926568,2096.2274068468514,None,001,71,2019_Oct_29_0903,ACPT_experiment_5_30_19,3.1.0,59.96805059769455,
,,,C,D,g,b,L,G,y,L,y,,,,,5,19,119,10,4,0,4,0,,,,,0,2,2,34,,,,,,down,0.6504916762028188,2098.0287706872423,None,001,71,2019_Oct_29_0903,ACPT_experiment_5_30_19,3.1.0,59.96805059769455,
,,,C,D,g,b,R,U,d,L,u,,,,,5,19,119,10,4,0,4,0,,,,,0,3,3,8,,,,,,up,0.5170525326980169,2099.980256884478,None,001,71,2019_Oct_29_0903,ACPT_experiment_5_30_19,3.1.0,59.96805059769455,
,,,C,D,g,b,L,D,y,R,y,,,,,5,19,119,10,4,0,4,0,,,,,0,4,4,33,,,,,,down,0.6171303810524478,2101.781625554545,None,001,71,2019_Oct_29_0903,ACPT_experiment_5_30_19,3.1.0,59.96805059769455,
,,,C,D,g,b,R,D,d,L,c,,,,,5,19,119,10,4,0,4,0,,,,,0,5,5,0,,,,,,up,0.31688053582865905,2103.683089580545,None,001,71,2019_Oct_29_0903,ACPT_experiment_5_30_19,3.1.0,59.96805059769455,
,,,C,D,g,b,R,U,g,L,u,,,,,5,19,119,10,4,0,4,0,,,,,0,6,6,10,,,,,,up,0.6004559215007248,2105.2842868574526,None,001,71,2019_Oct_29_0903,ACPT_experiment_5_30_19,3.1.0,59.96805059769455,
,,,C,D,g,b,R,D,g,L,i,,,,,5,19,119,10,4,0,4,0,,,,,0,7,7,2,,,,,,up,0.4470252359674305,2107.1890646455277,None,001,71,2019_Oct_29_0903,ACPT_experiment_5_30_19,3.1.0,59.96805059769455,
,,,C,D,g,b,R,G,d,L,i,,,,,5,19,119,10,4,0,4,0,,,,,0,8,8,4,,,,,,up,0.4503015680452336,2108.9204051132992,None,001,71,2019_Oct_29_0903,ACPT_experiment_5_30_19,3.1.0,59.96805059769455,
,,,C,D,g,b,L,U,y,L,u,,,,,5,19,119,10,4,0,4,0,,,,,0,9,9,24,,,,,,down,0.6338190277801914,2110.6550273465364,None,001,71,2019_Oct_29_0903,ACPT_experiment_5_30_19,3.1.0,59.96805059769455,
,,,C,D,g,b,L,D,d,L,c ,,,,,5,19,119,10,4,0,4,0,,,,,0,10,10,12,,,,,,up,0.4670717155704551,2112.5731549653156,None,001,71,2019_Oct_29_0903,ACPT_experiment_5_30_19,3.1.0,59.96805059769455,
,,,C,D,g,b,R,G,y,R,y,,,,,5,19,119,10,4,0,4,0,,,,,0,11,11,29,,,,,,down,0.7670003872799498,2114.341438537381,None,001,71,2019_Oct_29_0903,ACPT_experiment_5_30_19,3.1.0,59.96805059769455,
,,,C,D,g,b,R,D,y,R,y,,,,,5,19,119,10,4,0,4,0,,,,,0,12,12,27,,,,,,down,0.7338881223454337,2116.409405976906,None,001,71,2019_Oct_29_0903,ACPT_experiment_5_30_19,3.1.0,59.96805059769455,
,,,C,D,g,b,R,D,d,R,c ,,,,,5,19,119,10,4,0,4,0,,,,,0,13,13,1,,,,,,up,1.0174393596330447,2118.4442865073015,None,001,71,2019_Oct_29_0903,ACPT_experiment_5_30_19,3.1.0,59.96805059769455,
,,,C,D,g,b,R,G,d,R,i,,,,,5,19,119,10,4,0,4,0,,,,,0,14,14,5,,,,,,up,0.3802908733291588,2120.766045922379,None,001,71,2019_Oct_29_0903,ACPT_experiment_5_30_19,3.1.0,59.96805059769455,
,,,C,D,g,b,R,U,g,R,u,,,,,5,19,119,10,4,0,4,0,,,,,0,15,15,11,,,,,,up,0.6671933026868828,2122.430642066305,None,001,71,2019_Oct_29_0903,ACPT_experiment_5_30_19,3.1.0,59.96805059769455,
,,,C,D,g,b,L,G,g,L,c ,,,,,5,19,119,10,4,0,4,0,,,,,0,16,16,18,,,,,,up,0.6503938752452996,2124.3654474650384,None,001,71,2019_Oct_29_0903,ACPT_experiment_5_30_19,3.1.0,59.96805059769455,
,,,C,D,g,b,R,D,y,L,y,,,,,5,19,119,10,4,0,4,0,,,,,0,17,17,26,,,,,,up,0.5170842274524148,2126.3002489396595,None,001,71,2019_Oct_29_0903,ACPT_experiment_5_30_19,3.1.0,59.96805059769455,
,,,C,D,g,b,R,D,g,R,i,,,,,5,19,119,10,4,0,4,0,,,,,0,18,18,3,,,,,,up,0.5167893153056866,2128.1018901846173,None,001,71,2019_Oct_29_0903,ACPT_experiment_5_30_19,3.1.0,59.96805059769455,
,,,C,D,g,b,L,U,g,R,u,,,,,5,19,119,10,4,0,4,0,,,,,0,19,19,23,,,,,,up,0.6004634678711227,2129.902987789067,None,001,71,2019_Oct_29_0903,ACPT_experiment_5_30_19,3.1.0,59.96805059769455,
,,,C,D,g,b,L,D,d,R,c ,,,,,5,19,119,10,4,0,4,0,,,,,0,20,20,13,,,,,,up,0.5504171482507445,2131.787751999713,None,001,71,2019_Oct_29_0903,ACPT_experiment_5_30_19,3.1.0,59.96805059769455,
,,,C,D,g,b,L,D,g,L,i,,,,,5,19,119,10,4,0,4,0,,,,,0,21,21,14,,,,,,up,0.683872893770058,2133.605778225462,None,001,71,2019_Oct_29_0903,ACPT_experiment_5_30_19,3.1.0,59.96805059769455,
,,,C,D,g,b,L,G,d,R,i,,,,,5,19,119,10,4,0,4,0,,,,,0,22,22,17,,,,,,up,0.5504228834925016,2135.5739618232155,None,001,71,2019_Oct_29_0903,ACPT_experiment_5_30_19,3.1.0,59.96805059769455,
,,,C,D,g,b,L,D,g,R,i,,,,,5,19,119,10,4,0,4,0,,,,,0,23,23,15,,,,,,up,0.5671012671559765,2137.4086866569005,None,001,71,2019_Oct_29_0903,ACPT_experiment_5_30_19,3.1.0,59.96805059769455,
,,,C,D,g,b,L,G,g,R,c ,,,,,5,19,119,10,4,0,4,0,,,,,0,24,24,19,,,,,,up,0.5670976448986949,2139.260090176105,None,001,71,2019_Oct_29_0903,ACPT_experiment_5_30_19,3.1.0,59.96805059769455,
,,,C,D,g,b,L,G,d,L,i,,,,,5,19,119,10,4,0,4,0,,,,,0,25,25,16,,,,,,up,0.597121029590653,2141.1315127061252,None,001,71,2019_Oct_29_0903,ACPT_experiment_5_30_19,3.1.0,59.96805059769455,
,,,C,D,g,b,R,G,g,R,c ,,,,,5,19,119,10,4,0,4,0,,,,,0,26,26,7,,,,,,up,0.4336569921197224,2143.0129468545374,None,001,71,2019_Oct_29_0903,ACPT_experiment_5_30_19,3.1.0,59.96805059769455,
,,,C,D,g,b,R,U,y,L,u,,,,,5,19,119,10,4,0,4,0,,,,,0,27,27,30,,,,,,down,0.9006979185001001,2144.747601084383,None,001,71,2019_Oct_29_0903,ACPT_experiment_5_30_19,3.1.0,59.96805059769455,
,,,C,D,g,b,R,G,g,L,c ,,,,,5,19,119,10,4,0,4,0,,,,,0,28,28,6,,,,,,up,0.6838553861916807,2146.949265149565,None,001,71,2019_Oct_29_0903,ACPT_experiment_5_30_19,3.1.0,59.96805059769455,
,,,C,D,g,b,L,U,d,R,u,,,,,5,19,119,10,4,0,4,0,,,,,0,29,29,21,,,,,,up,0.7839105954358274,2148.9174475398986,None,001,71,2019_Oct_29_0903,ACPT_experiment_5_30_19,3.1.0,59.96805059769455,
,,,C,D,g,b,R,U,y,R,u,,,,,5,19,119,10,4,0,4,0,,,,,0,30,30,31,,,,,,down,0.8172812480852372,2150.985670952301,None,001,71,2019_Oct_29_0903,ACPT_experiment_5_30_19,3.1.0,59.96805059769455,
,,,C,D,g,b,L,U,d,L,u,,,,,5,19,119,10,4,0,4,0,,,,,0,31,31,20,,,,,,up,0.7005428254997241,2153.0872698470293,None,001,71,2019_Oct_29_0903,ACPT_experiment_5_30_19,3.1.0,59.96805059769455,
,,,C,D,g,b,L,G,y,R,y,,,,,5,19,119,10,4,0,4,0,,,,,0,32,32,35,,,,,,down,0.7336771258351291,2155.0889650636263,None,001,71,2019_Oct_29_0903,ACPT_experiment_5_30_19,3.1.0,59.96805059769455,
,,,C,D,g,b,L,U,g,L,u,,,,,5,19,119,10,4,0,4,0,,,,,0,33,33,22,,,,,,up,0.5670940226409584,2157.123665084847,None,001,71,2019_Oct_29_0903,ACPT_experiment_5_30_19,3.1.0,59.96805059769455,
,,,C,D,g,b,L,U,y,R,u,,,,,5,19,119,10,4,0,4,0,,,,,0,34,34,25,,,,,,down,0.8840089699174314,2158.9750680003417,None,001,71,2019_Oct_29_0903,ACPT_experiment_5_30_19,3.1.0,59.96805059769455,
,,,C,D,g,b,R,G,y,L,y,,,,,5,19,119,10,4,0,4,0,,,,,0,35,35,28,,,,,,down,0.7505882395557819,2161.160062435648,None,001,71,2019_Oct_29_0903,ACPT_experiment_5_30_19,3.1.0,59.96805059769455,
,,,C,D,g,b,R,D,g,L,i,,,,,5,19,119,10,4,0,4,0,,,,,1,0,36,2,,,,,,up,0.7172064182782378,2163.211623160836,None,001,71,2019_Oct_29_0903,ACPT_experiment_5_30_19,3.1.0,59.96805059769455,
,,,C,D,g,b,R,U,d,L,u,,,,,5,19,119,10,4,0,4,0,,,,,1,1,37,8,,,,,,up,0.550413224138083,2165.2131448109194,None,001,71,2019_Oct_29_0903,ACPT_experiment_5_30_19,3.1.0,59.96805059769455,
,,,C,D,g,b,R,D,d,L,c,,,,,5,19,119,10,4,0,4,0,,,,,1,2,38,0,,,,,,up,0.6505010337014028,2167.0478690408954,None,001,71,2019_Oct_29_0903,ACPT_experiment_5_30_19,3.1.0,59.96805059769455,
,,,C,D,g,b,L,D,y,L,y,,,,,5,19,119,10,4,0,4,0,,,,,1,3,39,32,,,,,,down,0.8006067885335142,2168.9826934564817,None,001,71,2019_Oct_29_0903,ACPT_experiment_5_30_19,3.1.0,59.96805059769455,
,,,C,D,g,b,L,U,d,R,u,,,,,5,19,119,10,4,0,4,0,,,,,1,4,40,21,,,,,,up,1.0341618140992068,2171.067591328436,None,001,71,2019_Oct_29_0903,ACPT_experiment_5_30_19,3.1.0,59.96805059769455,
,,,C,D,g,b,L,D,y,R,y,,,,,5,19,119,10,4,0,4,0,,,,,1,5,41,33,,,,,,down,0.7005174696960239,2173.386018870151,None,001,71,2019_Oct_29_0903,ACPT_experiment_5_30_19,3.1.0,59.96805059769455,
,,,C,D,g,b,R,G,d,L,i,,,,,5,19,119,10,4,0,4,0,,,,,1,6,42,4,,,,,,up,0.6838502546597738,2175.370859419877,None,001,71,2019_Oct_29_0903,ACPT_experiment_5_30_19,3.1.0,59.96805059769455,
,,,C,D,g,b,R,U,y,R,u,,,,,5,19,119,10,4,0,4,0,,,,,1,7,43,31,,,,,,down,0.5003723379045368,2177.3723792588316,None,001,71,2019_Oct_29_0903,ACPT_experiment_5_30_19,3.1.0,59.96805059769455,
,,,C,D,g,b,L,G,d,L,i,,,,,5,19,119,10,4,0,4,0,,,,,1,8,44,16,,,,,,up,0.46701315573818647,2179.1737491363183,None,001,71,2019_Oct_29_0903,ACPT_experiment_5_30_19,3.1.0,59.96805059769455,
,,,C,D,g,b,R,D,d,R,c ,,,,,5,19,119,10,4,0,4,0,,,,,1,9,45,1,,,,,,up,0.4503441295732955,2180.9250732978935,None,001,71,2019_Oct_29_0903,ACPT_experiment_5_30_19,3.1.0,59.96805059769455,
,,,C,D,g,b,L,U,y,L,u,,,,,5,19,119,10,4,0,4,0,,,,,1,10,46,24,,,,,,down,0.6004526010983682,2182.65972752774,None,001,71,2019_Oct_29_0903,ACPT_experiment_5_30_19,3.1.0,59.96805059769455,
,,,C,D,g,b,R,U,y,L,u,,,,,5,19,119,10,4,0,4,0,,,,,1,11,47,30,,,,,,down,0.633498457974838,2184.561473787985,None,001,71,2019_Oct_29_0903,ACPT_experiment_5_30_19,3.1.0,59.96805059769455,
,,,C,D,g,b,R,G,g,R,c ,,,,,5,19,119,10,4,0,4,0,,,,,1,12,48,7,,,,,,up,0.7505782783468931,2186.479293213006,None,001,71,2019_Oct_29_0903,ACPT_experiment_5_30_19,3.1.0,59.96805059769455,
,,,C,D,g,b,L,D,d,L,c ,,,,,5,19,119,10,4,0,4,0,,,,,1,13,49,12,,,,,,up,0.6671751913986554,2188.514176460094,None,001,71,2019_Oct_29_0903,ACPT_experiment_5_30_19,3.1.0,59.96805059769455,
,,,C,D,g,b,L,U,d,L,u,,,,,5,19,119,10,4,0,4,0,,,,,1,14,50,20,,,,,,up,0.4336630292159498,2190.465661148057,None,001,71,2019_Oct_29_0903,ACPT_experiment_5_30_19,3.1.0,59.96805059769455,
,,,C,D,g,b,L,G,y,R,y,,,,,5,19,119,10,4,0,4,0,,,,,1,15,51,35,,,,,,down,0.650247173808566,2192.2005529376356,None,001,71,2019_Oct_29_0903,ACPT_experiment_5_30_19,3.1.0,59.96805059769455,
,,,C,D,g,b,R,U,g,L,u,,,,,5,19,119,10,4,0,4,0,,,,,1,16,52,10,,,,,,up,0.6838928161878357,2194.1351071931695,None,001,71,2019_Oct_29_0903,ACPT_experiment_5_30_19,3.1.0,59.96805059769455,
,,,C,D,g,b,L,U,g,R,u,,,,,5,19,119,10,4,0,4,0,,,,,1,17,53,23,,,,,,up,1.2176192047272707,2196.103272075925,None,001,71,2019_Oct_29_0903,ACPT_experiment_5_30_19,3.1.0,59.96805059769455,
,,,C,D,g,b,R,U,g,R,u,,,,,5,19,119,10,4,0,4,0,,,,,1,18,54,11,,,,,,up,0.8673369252041994,2198.605166969477,None,001,71,2019_Oct_29_0903,ACPT_experiment_5_30_19,3.1.0,59.96805059769455,
,,,C,D,g,b,R,D,y,R,y,,,,,5,19,119,10,4,0,4,0,,,,,1,19,55,27,,,,,,up,0.06675941658704687,2200.7568037318915,None,001,71,2019_Oct_29_0903,ACPT_experiment_5_30_19,3.1.0,59.96805059769455,
,,,C,D,g,b,R,D,g,R,i,,,,,5,19,119,10,4,0,4,0,,,,,1,20,56,3,,,,,,down,0.8506688046036288,2202.091129966304,None,001,71,2019_Oct_29_0903,ACPT_experiment_5_30_19,3.1.0,59.96805059769455,
,,,C,D,g,b,L,D,d,R,c ,,,,,5,19,119,10,4,0,4,0,,,,,1,21,57,13,,,,,,up,1.0174396614879697,2204.226108871181,None,001,71,2019_Oct_29_0903,ACPT_experiment_5_30_19,3.1.0,59.96805059769455,
,,,C,D,g,b,R,G,d,R,i,,,,,5,19,119,10,4,0,4,0,,,,,1,22,58,5,,,,,,up,0.7806067945707582,2206.547861645453,None,001,71,2019_Oct_29_0903,ACPT_experiment_5_30_19,3.1.0,59.96805059769455,
,,,C,D,g,b,R,D,y,L,y,,,,,5,19,119,10,4,0,4,0,,,,,1,23,59,26,,,,,,down,0.8839999142733177,2208.6127797477156,None,001,71,2019_Oct_29_0903,ACPT_experiment_5_30_19,3.1.0,59.96805059769455,
,,,C,D,g,b,L,D,g,L,i,,,,,5,19,119,10,4,0,4,0,,,,,1,24,60,14,,,,,,down,1.2175908303752294,2210.7810870455687,None,001,71,2019_Oct_29_0903,ACPT_experiment_5_30_19,3.1.0,59.96805059769455,
,,,C,D,g,b,L,U,g,L,u,,,,,5,19,119,10,4,0,4,0,,,,,1,25,61,22,,,,,,up,1.868087034400105,2213.2829879762176,None,001,71,2019_Oct_29_0903,ACPT_experiment_5_30_19,3.1.0,59.96805059769455,
,,,C,D,g,b,R,U,d,R,u,,,,,5,19,119,10,4,0,4,0,,,,,1,26,62,9,,,,,,up,0.9674042086408008,2216.435384507181,None,001,71,2019_Oct_29_0903,ACPT_experiment_5_30_19,3.1.0,59.96805059769455,
,,,C,D,g,b,L,U,y,R,u,,,,,5,19,119,10,4,0,4,0,,,,,1,27,63,25,,,,,,down,2.735418224363002,2218.687095797547,None,001,71,2019_Oct_29_0903,ACPT_experiment_5_30_19,3.1.0,59.96805059769455,
,,,C,D,g,b,L,G,d,R,i,,,,,5,19,119,10,4,0,4,0,,,,,1,28,64,17,,,,,,up,0.7172640725466408,2222.7068123498457,None,001,71,2019_Oct_29_0903,ACPT_experiment_5_30_19,3.1.0,59.96805059769455,
,,,C,D,g,b,L,G,y,L,y,,,,,5,19,119,10,4,0,4,0,,,,,1,29,65,34,,,,,,down,0.833989817229849,2224.6916329771548,None,001,71,2019_Oct_29_0903,ACPT_experiment_5_30_19,3.1.0,59.96805059769455,
,,,C,D,g,b,R,G,y,L,y,,,,,5,19,119,10,4,0,4,0,,,,,1,30,66,28,,,,,,down,0.8005986384537209,2226.826612183886,None,001,71,2019_Oct_29_0903,ACPT_experiment_5_30_19,3.1.0,59.96805059769455,
,,,C,D,g,b,L,G,g,L,c ,,,,,5,19,119,10,4,0,4,0,,,,,1,31,67,18,,,,,,up,0.8006303332085736,2228.92820323039,None,001,71,2019_Oct_29_0903,ACPT_experiment_5_30_19,3.1.0,59.96805059769455,
,,,C,D,g,b,R,G,g,L,c ,,,,,5,19,119,10,4,0,4,0,,,,,1,32,68,6,,,,,,up,1.034119252571145,2231.0131243451633,None,001,71,2019_Oct_29_0903,ACPT_experiment_5_30_19,3.1.0,59.96805059769455,
,,,C,D,g,b,R,G,y,R,y,,,,,5,19,119,10,4,0,4,0,,,,,1,33,69,29,,,,,,down,1.217607130534816,2233.3315286440593,None,001,71,2019_Oct_29_0903,ACPT_experiment_5_30_19,3.1.0,59.96805059769455,
,,,C,D,g,b,L,G,g,R,c ,,,,,5,19,119,10,4,0,4,0,,,,,1,34,70,19,,,,,,up,0.6671652301897666,2235.850131503047,None,001,71,2019_Oct_29_0903,ACPT_experiment_5_30_19,3.1.0,59.96805059769455,
,,,C,D,g,b,L,D,g,R,i,,,,,5,19,119,10,4,0,4,0,,,,,1,35,71,15,,,,,,down,1.7846923993865857,2237.8016146817345,None,001,71,2019_Oct_29_0903,ACPT_experiment_5_30_19,3.1.0,59.96805059769455,
,,,C,D,g,b,,,,,,,,,,5,19,119,10,5,0,5,0,0,0,0,0,,,,,,,,,,,,,,001,71,2019_Oct_29_0903,ACPT_experiment_5_30_19,3.1.0,59.96805059769455,
,,,C,D,g,b,L,G,g,L,c ,,,,,5,19,119,10,5,0,5,0,,,,,0,0,0,18,,,,,,up,0.5334658878409755,2298.1143661456554,None,001,71,2019_Oct_29_0903,ACPT_experiment_5_30_19,3.1.0,59.96805059769455,
,,,C,D,g,b,R,D,g,R,i,,,,,5,19,119,10,5,0,5,0,,,,,0,1,1,3,,,,,,up,0.4670276447686774,2299.93214153006,None,001,71,2019_Oct_29_0903,ACPT_experiment_5_30_19,3.1.0,59.96805059769455,
,,,C,D,g,b,R,D,y,R,y,,,,,5,19,119,10,5,0,5,0,,,,,0,2,2,27,,,,,,down,0.6171506053246958,2301.6667770449076,None,001,71,2019_Oct_29_0903,ACPT_experiment_5_30_19,3.1.0,59.96805059769455,
,,,C,D,g,b,L,D,d,L,c ,,,,,5,19,119,10,5,0,5,0,,,,,0,3,3,12,,,,,,up,0.31690045824552726,2303.568238957925,None,001,71,2019_Oct_29_0903,ACPT_experiment_5_30_19,3.1.0,59.96805059769455,
,,,C,D,g,b,R,U,d,L,u,,,,,5,19,119,10,5,0,5,0,,,,,0,4,4,8,,,,,,up,0.5835864637433588,2305.186294222107,None,001,71,2019_Oct_29_0903,ACPT_experiment_5_30_19,3.1.0,59.96805059769455,
,,,C,D,g,b,L,D,d,R,c ,,,,,5,19,119,10,5,0,5,0,,,,,0,5,5,13,,,,,,up,0.28355063357821564,2307.054220971604,None,001,71,2019_Oct_29_0903,ACPT_experiment_5_30_19,3.1.0,59.96805059769455,
,,,C,D,g,b,R,G,g,R,c ,,,,,5,19,119,10,5,0,5,0,,,,,0,6,6,7,,,,,,up,0.3335836715868936,2308.6220817054555,None,001,71,2019_Oct_29_0903,ACPT_experiment_5_30_19,3.1.0,59.96805059769455,
,,,C,D,g,b,R,G,d,L,i,,,,,5,19,119,10,5,0,5,0,,,,,0,7,7,4,,,,,,up,0.600471617950916,2310.223273850831,None,001,71,2019_Oct_29_0903,ACPT_experiment_5_30_19,3.1.0,59.96805059769455,
,,,C,D,g,b,L,G,y,R,y,,,,,5,19,119,10,5,0,5,0,,,,,0,8,8,35,,,,,,down,0.6500639479409074,2312.1251462863856,None,001,71,2019_Oct_29_0903,ACPT_experiment_5_30_19,3.1.0,59.96805059769455,
,,,C,D,g,b,R,U,d,R,u,,,,,5,19,119,10,5,0,5,0,,,,,0,9,9,9,,,,,,up,0.6338501188251939,2314.059540860727,None,001,71,2019_Oct_29_0903,ACPT_experiment_5_30_19,3.1.0,59.96805059769455,
,,,C,D,g,b,R,U,y,R,u,,,,,5,19,119,10,5,0,5,0,,,,,0,10,10,31,,,,,,up,0.6672201677652083,2315.977664857249,None,001,71,2019_Oct_29_0903,ACPT_experiment_5_30_19,3.1.0,59.96805059769455,
,,,C,D,g,b,L,U,d,L,u,,,,,5,19,119,10,5,0,5,0,,,,,0,11,11,20,,,,,,up,0.4503474499761069,2317.929148035936,None,001,71,2019_Oct_29_0903,ACPT_experiment_5_30_19,3.1.0,59.96805059769455,
,,,C,D,g,b,L,D,g,L,i,,,,,5,19,119,10,5,0,5,0,,,,,0,12,12,14,,,,,,up,0.6671830396235237,2319.663809510298,None,001,71,2019_Oct_29_0903,ACPT_experiment_5_30_19,3.1.0,59.96805059769455,
,,,C,D,g,b,L,U,d,R,u,,,,,5,19,119,10,5,0,5,0,,,,,0,13,13,21,,,,,,up,0.8006131274846666,2321.615278803665,None,001,71,2019_Oct_29_0903,ACPT_experiment_5_30_19,3.1.0,59.96805059769455,
,,,C,D,g,b,R,U,g,L,u,,,,,5,19,119,10,5,0,5,0,,,,,0,14,14,10,,,,,,up,0.6672083954272239,2323.700196598036,None,001,71,2019_Oct_29_0903,ACPT_experiment_5_30_19,3.1.0,59.96805059769455,
,,,C,D,g,b,R,D,g,L,i,,,,,5,19,119,10,5,0,5,0,,,,,0,15,15,2,,,,,,up,0.4336814423586475,2325.6516794748695,None,001,71,2019_Oct_29_0903,ACPT_experiment_5_30_19,3.1.0,59.96805059769455,
,,,C,D,g,b,R,D,d,L,c,,,,,5,19,119,10,5,0,5,0,,,,,0,16,16,0,,,,,,up,0.35030672976245114,2327.352949770455,None,001,71,2019_Oct_29_0903,ACPT_experiment_5_30_19,3.1.0,59.96805059769455,
,,,C,D,g,b,L,D,y,L,y,,,,,5,19,119,10,5,0,5,0,,,,,0,17,17,32,,,,,,up,0.366928062867828,2329.0042332118164,None,001,71,2019_Oct_29_0903,ACPT_experiment_5_30_19,3.1.0,59.96805059769455,
,,,C,D,g,b,L,G,y,L,y,,,,,5,19,119,10,5,0,5,0,,,,,0,18,18,34,,,,,,down,0.8005886772448321,2330.672175718135,None,001,71,2019_Oct_29_0903,ACPT_experiment_5_30_19,3.1.0,59.96805059769455,
,,,C,D,g,b,R,U,y,L,u,,,,,5,19,119,10,5,0,5,0,,,,,0,19,19,30,,,,,,down,0.8506395246872671,2332.7737634442356,None,001,71,2019_Oct_29_0903,ACPT_experiment_5_30_19,3.1.0,59.96805059769455,
,,,C,D,g,b,R,G,y,L,y,,,,,5,19,119,10,5,0,5,0,,,,,0,20,20,28,,,,,,down,0.7505843154431204,2334.908716993309,None,001,71,2019_Oct_29_0903,ACPT_experiment_5_30_19,3.1.0,59.96805059769455,
,,,C,D,g,b,R,G,d,R,i,,,,,5,19,119,10,5,0,5,0,,,,,0,21,21,5,,,,,,up,0.9006942962423636,2336.9269073677024,None,001,71,2019_Oct_29_0903,ACPT_experiment_5_30_19,3.1.0,59.96805059769455,
,,,C,D,g,b,R,D,y,L,y,,,,,5,19,119,10,5,0,5,0,,,,,0,22,22,26,,,,,,down,0.9006767886630769,2339.1119114623625,None,001,71,2019_Oct_29_0903,ACPT_experiment_5_30_19,3.1.0,59.96805059769455,
,,,C,D,g,b,L,U,y,L,u,,,,,5,19,119,10,5,0,5,0,,,,,0,23,23,24,,,,,,down,0.9505592011232693,2341.3137318883346,None,001,71,2019_Oct_29_0903,ACPT_experiment_5_30_19,3.1.0,59.96805059769455,
,,,C,D,g,b,R,D,d,R,c ,,,,,5,19,119,10,5,0,5,0,,,,,0,24,24,1,,,,,,up,1.1008361076305846,2343.565289836458,None,001,71,2019_Oct_29_0903,ACPT_experiment_5_30_19,3.1.0,59.96805059769455,
,,,C,D,g,b,L,D,y,R,y,,,,,5,19,119,10,5,0,5,0,,,,,0,25,25,33,,,,,,down,0.7839287067245095,2345.950433931378,None,001,71,2019_Oct_29_0903,ACPT_experiment_5_30_19,3.1.0,59.96805059769455,
,,,C,D,g,b,L,G,d,L,i,,,,,5,19,119,10,5,0,5,0,,,,,0,26,26,16,,,,,,up,0.5670934189311083,2348.01867304023,None,001,71,2019_Oct_29_0903,ACPT_experiment_5_30_19,3.1.0,59.96805059769455,
,,,C,D,g,b,L,D,g,R,i,,,,,5,19,119,10,5,0,5,0,,,,,0,27,27,15,,,,,,down,0.9340767212288483,2349.8700798798372,None,001,71,2019_Oct_29_0903,ACPT_experiment_5_30_19,3.1.0,59.96805059769455,
,,,C,D,g,b,L,U,y,R,u,,,,,5,19,119,10,5,0,5,0,,,,,0,28,28,25,,,,,,down,0.6171364181486751,2352.0884334973107,None,001,71,2019_Oct_29_0903,ACPT_experiment_5_30_19,3.1.0,59.96805059769455,
,,,C,D,g,b,R,G,g,L,c ,,,,,5,19,119,10,5,0,5,0,,,,,0,29,29,6,,,,,,up,0.833952085378769,2353.9898806194424,None,001,71,2019_Oct_29_0903,ACPT_experiment_5_30_19,3.1.0,59.96805059769455,
,,,C,D,g,b,R,G,y,R,y,,,,,5,19,119,10,5,0,5,0,,,,,0,30,30,29,,,,,,down,0.8172945296964826,2356.108150653319,None,001,71,2019_Oct_29_0903,ACPT_experiment_5_30_19,3.1.0,59.96805059769455,
,,,C,D,g,b,L,U,g,R,u,,,,,5,19,119,10,5,0,5,0,,,,,0,31,31,23,,,,,,up,0.9173775095832752,2358.209752566596,None,001,71,2019_Oct_29_0903,ACPT_experiment_5_30_19,3.1.0,59.96805059769455,
,,,C,D,g,b,L,G,d,R,i,,,,,5,19,119,10,5,0,5,0,,,,,0,32,32,17,,,,,,up,1.8847835293527169,2360.4114172354866,None,001,71,2019_Oct_29_0903,ACPT_experiment_5_30_19,3.1.0,59.96805059769455,
,,,C,D,g,b,R,U,g,R,u,,,,,5,19,119,10,5,0,5,0,,,,,0,33,33,11,,,,,,up,1.4010639174534845,2363.5804945649534,None,001,71,2019_Oct_29_0903,ACPT_experiment_5_30_19,3.1.0,59.96805059769455,
,,,C,D,g,b,L,G,g,R,c ,,,,,5,19,119,10,5,0,5,0,,,,,0,34,34,19,,,,,,up,0.36682603594272223,2366.265868884535,None,001,71,2019_Oct_29_0903,ACPT_experiment_5_30_19,3.1.0,59.96805059769455,
,,,C,D,g,b,L,U,g,L,u,,,,,5,19,119,10,5,0,5,0,,,,,0,35,35,22,,,,,,down,0.48350982280817334,2367.9171843225067,None,001,71,2019_Oct_29_0903,ACPT_experiment_5_30_19,3.1.0,59.96805059769455,
,,,C,D,g,b,L,G,y,R,y,,,,,5,19,119,10,5,0,5,0,,,,,1,0,36,35,,,,,,up,0.6168732007567996,2369.7020659848567,None,001,71,2019_Oct_29_0903,ACPT_experiment_5_30_19,3.1.0,59.96805059769455,
,,,C,D,g,b,L,D,g,L,i,,,,,5,19,119,10,5,0,5,0,,,,,1,1,37,14,,,,,,up,0.4670158724316025,2371.6032556248383,None,001,71,2019_Oct_29_0903,ACPT_experiment_5_30_19,3.1.0,59.96805059769455,
,,,C,D,g,b,R,D,g,L,i,,,,,5,19,119,10,5,0,5,0,,,,,1,2,38,2,,,,,,up,0.4503429221535953,2373.3379065342815,None,001,71,2019_Oct_29_0903,ACPT_experiment_5_30_19,3.1.0,59.96805059769455,
,,,C,D,g,b,L,D,d,L,c ,,,,,5,19,119,10,5,0,5,0,,,,,1,3,39,12,,,,,,up,0.36694557044666,2375.0725541233214,None,001,71,2019_Oct_29_0903,ACPT_experiment_5_30_19,3.1.0,59.96805059769455,
,,,C,D,g,b,L,G,g,R,c ,,,,,5,19,119,10,5,0,5,0,,,,,1,4,40,19,,,,,,up,0.6669029183622115,2376.740758337758,None,001,71,2019_Oct_29_0903,ACPT_experiment_5_30_19,3.1.0,59.96805059769455,
,,,C,D,g,b,L,G,g,L,c ,,,,,5,19,119,10,5,0,5,0,,,,,1,5,41,18,,,,,,up,0.41697347692388576,2378.691976186071,None,001,71,2019_Oct_29_0903,ACPT_experiment_5_30_19,3.1.0,59.96805059769455,
,,,C,D,g,b,R,G,d,R,i,,,,,5,19,119,10,5,0,5,0,,,,,1,6,42,5,,,,,,up,0.3502596404123324,2380.3932654985083,None,001,71,2019_Oct_29_0903,ACPT_experiment_5_30_19,3.1.0,59.96805059769455,
,,,C,D,g,b,R,U,d,R,u,,,,,5,19,119,10,5,0,5,0,,,,,1,7,43,9,,,,,,up,0.5170670217285078,2382.011158364804,None,001,71,2019_Oct_29_0903,ACPT_experiment_5_30_19,3.1.0,59.96805059769455,
,,,C,D,g,b,R,G,y,L,y,,,,,5,19,119,10,5,0,5,0,,,,,1,8,44,28,,,,,,down,0.8336921883901596,2383.8294795027005,None,001,71,2019_Oct_29_0903,ACPT_experiment_5_30_19,3.1.0,59.96805059769455,
,,,C,D,g,b,L,G,d,R,i,,,,,5,19,119,10,5,0,5,0,,,,,1,9,45,17,,,,,,up,0.7172043052946719,2385.9474941674107,None,001,71,2019_Oct_29_0903,ACPT_experiment_5_30_19,3.1.0,59.96805059769455,
,,,C,D,g,b,R,D,y,L,y,,,,,5,19,119,10,5,0,5,0,,,,,1,10,46,26,,,,,,down,0.9507620475537806,2387.9489998191893,None,001,71,2019_Oct_29_0903,ACPT_experiment_5_30_19,3.1.0,59.96805059769455,
,,,C,D,g,b,R,G,g,R,c ,,,,,5,19,119,10,5,0,5,0,,,,,1,11,47,7,,,,,,up,1.0174390577781196,2390.184035140729,None,001,71,2019_Oct_29_0903,ACPT_experiment_5_30_19,3.1.0,59.96805059769455,
,,,C,D,g,b,R,U,g,R,u,,,,,5,19,119,10,5,0,5,0,,,,,1,12,48,11,,,,,,up,0.7505764672182522,2392.4690959539075,None,001,71,2019_Oct_29_0903,ACPT_experiment_5_30_19,3.1.0,59.96805059769455,
,,,C,D,g,b,R,G,g,L,c ,,,,,5,19,119,10,5,0,5,0,,,,,1,13,49,6,,,,,,down,0.9006846368883998,2394.50398131398,None,001,71,2019_Oct_29_0903,ACPT_experiment_5_30_19,3.1.0,59.96805059769455,
,,,C,D,g,b,R,G,d,L,i,,,,,5,19,119,10,5,0,5,0,,,,,1,14,50,4,,,,,,up,0.9007278021258571,2396.67226959498,None,001,71,2019_Oct_29_0903,ACPT_experiment_5_30_19,3.1.0,59.96805059769455,
,,,C,D,g,b,L,U,d,R,u,,,,,5,19,119,10,5,0,5,0,,,,,1,15,51,21,,,,,,up,0.6838520657888694,2398.8572824434304,None,001,71,2019_Oct_29_0903,ACPT_experiment_5_30_19,3.1.0,59.96805059769455,
,,,C,D,g,b,L,U,y,R,u,,,,,5,19,119,10,5,0,5,0,,,,,1,16,52,25,,,,,,down,0.8673022119014604,2400.8254729838436,None,001,71,2019_Oct_29_0903,ACPT_experiment_5_30_19,3.1.0,59.96805059769455,
,,,C,D,g,b,L,G,y,L,y,,,,,5,19,119,10,5,0,5,0,,,,,1,17,53,34,,,,,,down,1.0508229920387748,2402.9770804663412,None,001,71,2019_Oct_29_0903,ACPT_experiment_5_30_19,3.1.0,59.96805059769455,
,,,C,D,g,b,R,D,d,R,c ,,,,,5,19,119,10,5,0,5,0,,,,,1,18,54,1,,,,,,up,0.7339128744397385,2405.3121661674495,None,001,71,2019_Oct_29_0903,ACPT_experiment_5_30_19,3.1.0,59.96805059769455,
,,,C,D,g,b,L,U,d,L,u,,,,,5,19,119,10,5,0,5,0,,,,,1,19,55,20,,,,,,up,0.6837171366896655,2407.3304114794173,None,001,71,2019_Oct_29_0903,ACPT_experiment_5_30_19,3.1.0,59.96805059769455,
,,,C,D,g,b,L,D,g,R,i,,,,,5,19,119,10,5,0,5,0,,,,,1,20,56,15,,,,,,down,1.6846196825631523,2409.298551610079,None,001,71,2019_Oct_29_0903,ACPT_experiment_5_30_19,3.1.0,59.96805059769455,
,,,C,D,g,b,R,U,d,L,u,,,,,5,19,119,10,5,0,5,0,,,,,1,21,57,8,,,,,,up,0.49704770905782425,2412.287483801716,None,001,71,2019_Oct_29_0903,ACPT_experiment_5_30_19,3.1.0,59.96805059769455,
,,,C,D,g,b,R,G,y,R,y,,,,,5,19,119,10,5,0,5,0,,,,,1,22,58,29,,,,,,down,0.8506485803318355,2414.0688401017733,None,001,71,2019_Oct_29_0903,ACPT_experiment_5_30_19,3.1.0,59.96805059769455,
,,,C,D,g,b,R,U,g,L,u,,,,,5,19,119,10,5,0,5,0,,,,,1,23,59,10,,,,,,up,0.8172875870363896,2416.2037999897975,None,001,71,2019_Oct_29_0903,ACPT_experiment_5_30_19,3.1.0,59.96805059769455,
,,,C,D,g,b,L,D,y,L,y,,,,,5,19,119,10,5,0,5,0,,,,,1,24,60,32,,,,,,down,0.8006264090959121,2418.305374132432,None,001,71,2019_Oct_29_0903,ACPT_experiment_5_30_19,3.1.0,59.96805059769455,
,,,C,D,g,b,R,U,y,L,u,,,,,5,19,119,10,5,0,5,0,,,,,1,25,61,30,,,,,,down,0.8006131274842119,2420.3903076232527,None,001,71,2019_Oct_29_0903,ACPT_experiment_5_30_19,3.1.0,59.96805059769455,
,,,C,D,g,b,R,D,y,R,y,,,,,5,19,119,10,5,0,5,0,,,,,1,26,62,27,,,,,,down,0.7839160288222047,2422.475233869558,None,001,71,2019_Oct_29_0903,ACPT_experiment_5_30_19,3.1.0,59.96805059769455,
,,,C,D,g,b,L,U,g,R,u,,,,,5,19,119,10,5,0,5,0,,,,,1,27,63,23,,,,,,up,0.5170585697937895,2424.543468450588,None,001,71,2019_Oct_29_0903,ACPT_experiment_5_30_19,3.1.0,59.96805059769455,
