facing_vig,person_vig,text_vig,facing_train,person_train,food_train,correct_key_train,facing_exp,person_exp,food_exp,showL_R,consistent,vig_random.thisRepN,vig_random.thisTrialN,vig_random.thisN,vig_random.thisIndex,trainTrials.thisRepN,trainTrials.thisTrialN,trainTrials.thisN,trainTrials.thisIndex,expBlock.thisRepN,expBlock.thisTrialN,expBlock.thisN,expBlock.thisIndex,breakLoop.thisRepN,breakLoop.thisTrialN,breakLoop.thisN,breakLoop.thisIndex,expTrials.thisRepN,expTrials.thisTrialN,expTrials.thisN,expTrials.thisIndex,train_resp.keys,train_resp.corr,train_resp.rt,train_resp.started,train_resp.stopped,exp_resp.keys,exp_resp.rt,exp_resp.started,exp_resp.stopped,session,participant,date,expName,psychopyVersion,frameRate,
C,D,"is allergic to gluten, meaning she can’t eat wheat products. She enjoys eating dairy products. She thinks eating insects, like crickets, is disgusting.",,,,,,,,,,0,0,0,1,,,,,,,,,,,,,,,,,,,,,,,,,,001,72,2019_Oct_29_1001,ACPT_experiment_5_30_19,3.1.0,59.955461205471394,
C,U,"did not report her food preferences, so her food preferences are unknown.",,,,,,,,,,0,1,1,2,,,,,,,,,,,,,,,,,,,,,,,,,,001,72,2019_Oct_29_1001,ACPT_experiment_5_30_19,3.1.0,59.955461205471394,
C,G,"cannot eat dairy products because she is lactose intolerant. She enjoys eating wheat products. She thinks eating insects, like crickets, is disgusting.",,,,,,,,,,0,2,2,0,,,,,,,,,,,,,,,,,,,,,,,,,,001,72,2019_Oct_29_1001,ACPT_experiment_5_30_19,3.1.0,59.955461205471394,
,,,C,U,d,n,,,,,,,,,,0,0,0,6,,,,,,,,,,,,,b,0,3.6361146335893864,129.6119593063504,None,,,,,001,72,2019_Oct_29_1001,ACPT_experiment_5_30_19,3.1.0,59.955461205471394,
,,,C,D,y,b,,,,,,,,,,0,1,1,2,,,,,,,,,,,,,b,1,3.3192060252631563,136.53388878642636,None,,,,,001,72,2019_Oct_29_1001,ACPT_experiment_5_30_19,3.1.0,59.955461205471394,
,,,C,U,g,n,,,,,,,,,,0,2,2,16,,,,,,,,,,,,,v,0,3.619459190890666,143.13892686390136,None,,,,,001,72,2019_Oct_29_1001,ACPT_experiment_5_30_19,3.1.0,59.955461205471394,
,,,C,G,y,b,,,,,,,,,,0,3,3,14,,,,,,,,,,,,,n,0,4.1865269521622395,150.044170413943,None,,,,,001,72,2019_Oct_29_1001,ACPT_experiment_5_30_19,3.1.0,59.955461205471394,
,,,C,D,g,b,,,,,,,,,,0,4,4,10,,,,,,,,,,,,,b,1,4.253229016337173,157.5165170422697,None,,,,,001,72,2019_Oct_29_1001,ACPT_experiment_5_30_19,3.1.0,59.955461205471394,
,,,C,D,g,b,,,,,,,,,,0,5,5,1,,,,,,,,,,,,,b,1,1.1176790021645502,165.03875242200775,None,,,,,001,72,2019_Oct_29_1001,ACPT_experiment_5_30_19,3.1.0,59.955461205471394,
,,,C,D,y,b,,,,,,,,,,0,6,6,11,,,,,,,,,,,,,b,1,1.8011160175929035,169.4425152232925,None,,,,,001,72,2019_Oct_29_1001,ACPT_experiment_5_30_19,3.1.0,59.955461205471394,
,,,C,G,g,v,,,,,,,,,,0,7,7,13,,,,,,,,,,,,,n,0,0.8673562439125817,174.52943431503627,None,,,,,001,72,2019_Oct_29_1001,ACPT_experiment_5_30_19,3.1.0,59.955461205471394,
,,,C,U,d,n,,,,,,,,,,0,8,8,15,,,,,,,,,,,,,b,0,2.2013211581206633,178.6996279035793,None,,,,,001,72,2019_Oct_29_1001,ACPT_experiment_5_30_19,3.1.0,59.955461205471394,
,,,C,G,g,v,,,,,,,,,,0,9,9,4,,,,,,,,,,,,,n,0,10.491330277153793,184.18680043261884,None,,,,,001,72,2019_Oct_29_1001,ACPT_experiment_5_30_19,3.1.0,59.955461205471394,
,,,C,D,d,v,,,,,,,,,,0,10,10,9,,,,,,,,,,,,,v,1,1.0841697981586549,197.9639404247282,None,,,,,001,72,2019_Oct_29_1001,ACPT_experiment_5_30_19,3.1.0,59.955461205471394,
,,,C,G,d,b,,,,,,,,,,0,11,11,12,,,,,,,,,,,,,b,1,2.9189193839383734,202.33393171017997,None,,,,,001,72,2019_Oct_29_1001,ACPT_experiment_5_30_19,3.1.0,59.955461205471394,
,,,C,D,d,v,,,,,,,,,,0,12,12,18,,,,,,,,,,,,,b,0,2.3685013301228537,208.53862730318997,None,,,,,001,72,2019_Oct_29_1001,ACPT_experiment_5_30_19,3.1.0,59.955461205471394,
,,,C,G,g,v,,,,,,,,,,0,13,13,19,,,,,,,,,,,,,b,0,3.669459930434641,214.19295525213784,None,,,,,001,72,2019_Oct_29_1001,ACPT_experiment_5_30_19,3.1.0,59.955461205471394,
,,,C,U,y,n,,,,,,,,,,0,14,14,8,,,,,,,,,,,,,b,0,1.4511099352193924,221.14824029212286,None,,,,,001,72,2019_Oct_29_1001,ACPT_experiment_5_30_19,3.1.0,59.955461205471394,
,,,C,U,g,n,,,,,,,,,,0,15,15,7,,,,,,,,,,,,,n,1,1.401103158578735,225.86846827702175,None,,,,,001,72,2019_Oct_29_1001,ACPT_experiment_5_30_19,3.1.0,59.955461205471394,
,,,C,U,y,n,,,,,,,,,,0,16,16,17,,,,,,,,,,,,,n,1,0.7336550904337855,230.57230947000062,None,,,,,001,72,2019_Oct_29_1001,ACPT_experiment_5_30_19,3.1.0,59.955461205471394,
,,,C,G,d,b,,,,,,,,,,0,17,17,3,,,,,,,,,,,,,b,1,1.9014444054382693,234.59180808312885,None,,,,,001,72,2019_Oct_29_1001,ACPT_experiment_5_30_19,3.1.0,59.955461205471394,
,,,C,G,y,b,,,,,,,,,,0,18,18,5,,,,,,,,,,,,,n,0,1.150912310876265,239.76236993453676,None,,,,,001,72,2019_Oct_29_1001,ACPT_experiment_5_30_19,3.1.0,59.955461205471394,
,,,C,D,d,v,,,,,,,,,,0,19,19,0,,,,,,,,,,,,,v,1,1.684380311701716,244.21605046529476,None,,,,,001,72,2019_Oct_29_1001,ACPT_experiment_5_30_19,3.1.0,59.955461205471394,
,,,C,U,y,n,,,,,,,,,,1,0,20,8,,,,,,,,,,,,,n,1,1.2176367123065575,249.18620517493855,None,,,,,001,72,2019_Oct_29_1001,ACPT_experiment_5_30_19,3.1.0,59.955461205471394,
,,,C,D,g,b,,,,,,,,,,1,1,21,10,,,,,,,,,,,,,b,1,3.8360134518570703,253.70657146971007,None,,,,,001,72,2019_Oct_29_1001,ACPT_experiment_5_30_19,3.1.0,59.955461205471394,
,,,C,G,g,v,,,,,,,,,,1,2,22,13,,,,,,,,,,,,,v,1,3.8028830756347816,260.8284299535362,None,,,,,001,72,2019_Oct_29_1001,ACPT_experiment_5_30_19,3.1.0,59.955461205471394,
,,,C,U,y,n,,,,,,,,,,1,3,23,17,,,,,,,,,,,,,n,1,1.0674920182045753,267.91713662944767,None,,,,,001,72,2019_Oct_29_1001,ACPT_experiment_5_30_19,3.1.0,59.955461205471394,
,,,C,G,y,b,,,,,,,,,,1,4,24,5,,,,,,,,,,,,,b,1,3.418830789552885,272.28755926541817,None,,,,,001,72,2019_Oct_29_1001,ACPT_experiment_5_30_19,3.1.0,59.955461205471394,
,,,C,G,g,v,,,,,,,,,,1,5,25,4,,,,,,,,,,,,,b,0,1.1675689609946858,278.9755452327927,None,,,,,001,72,2019_Oct_29_1001,ACPT_experiment_5_30_19,3.1.0,59.955461205471394,
,,,C,D,d,v,,,,,,,,,,1,6,26,0,,,,,,,,,,,,,v,1,1.834494518468091,283.4458558504448,None,,,,,001,72,2019_Oct_29_1001,ACPT_experiment_5_30_19,3.1.0,59.955461205471394,
,,,C,G,y,b,,,,,,,,,,1,7,27,14,,,,,,,,,,,,,b,1,1.9848459831118817,288.56618302483275,None,,,,,001,72,2019_Oct_29_1001,ACPT_experiment_5_30_19,3.1.0,59.955461205471394,
,,,C,D,y,b,,,,,,,,,,1,8,28,2,,,,,,,,,,,,,b,1,1.0674874903825184,293.83685170265744,None,,,,,001,72,2019_Oct_29_1001,ACPT_experiment_5_30_19,3.1.0,59.955461205471394,
,,,C,D,d,v,,,,,,,,,,1,9,29,9,,,,,,,,,,,,,v,1,1.581156834399735,298.21024549549657,None,,,,,001,72,2019_Oct_29_1001,ACPT_experiment_5_30_19,3.1.0,59.955461205471394,
,,,C,D,g,b,,,,,,,,,,1,10,30,1,,,,,,,,,,,,,b,1,1.11755403427469,303.0605306426405,None,,,,,001,72,2019_Oct_29_1001,ACPT_experiment_5_30_19,3.1.0,59.955461205471394,
,,,C,G,d,b,,,,,,,,,,1,11,31,3,,,,,,,,,,,,,b,1,1.517559045064445,307.4808257298628,None,,,,,001,72,2019_Oct_29_1001,ACPT_experiment_5_30_19,3.1.0,59.955461205471394,
,,,C,D,d,v,,,,,,,,,,1,12,32,18,,,,,,,,,,,,,v,1,0.967437412669824,312.28418362310913,None,,,,,001,72,2019_Oct_29_1001,ACPT_experiment_5_30_19,3.1.0,59.955461205471394,
,,,C,D,y,b,,,,,,,,,,1,13,33,11,,,,,,,,,,,,,b,1,1.534516040715971,316.53745369169974,None,,,,,001,72,2019_Oct_29_1001,ACPT_experiment_5_30_19,3.1.0,59.955461205471394,
,,,C,U,d,n,,,,,,,,,,1,14,34,6,,,,,,,,,,,,,n,1,1.868136840443185,321.3577507711643,None,,,,,001,72,2019_Oct_29_1001,ACPT_experiment_5_30_19,3.1.0,59.955461205471394,
,,,C,G,d,b,,,,,,,,,,1,15,35,12,,,,,,,,,,,,,b,1,1.7346850190360783,326.5116749893068,None,,,,,001,72,2019_Oct_29_1001,ACPT_experiment_5_30_19,3.1.0,59.955461205471394,
,,,C,U,g,n,,,,,,,,,,1,16,36,16,,,,,,,,,,,,,n,1,1.6345920779413063,331.53217455297636,None,,,,,001,72,2019_Oct_29_1001,ACPT_experiment_5_30_19,3.1.0,59.955461205471394,
,,,C,G,g,v,,,,,,,,,,1,17,37,19,,,,,,,,,,,,,b,0,2.968916199370142,336.4525844959526,None,,,,,001,72,2019_Oct_29_1001,ACPT_experiment_5_30_19,3.1.0,59.955461205471394,
,,,C,U,g,n,,,,,,,,,,1,18,38,7,,,,,,,,,,,,,n,1,1.30100176554879,342.70734663285475,None,,,,,001,72,2019_Oct_29_1001,ACPT_experiment_5_30_19,3.1.0,59.955461205471394,
,,,C,U,d,n,,,,,,,,,,1,19,39,15,,,,,,,,,,,,,n,1,1.2339063845611236,347.2945109816292,None,,,,,001,72,2019_Oct_29_1001,ACPT_experiment_5_30_19,3.1.0,59.955461205471394,
,,,C,D,y,b,,,,,,,,,,2,0,40,2,,,,,,,,,,,,,b,1,1.0508332551025887,351.8142439850153,None,,,,,001,72,2019_Oct_29_1001,ACPT_experiment_5_30_19,3.1.0,59.955461205471394,
,,,C,D,g,b,,,,,,,,,,2,1,41,1,,,,,,,,,,,,,b,1,1.7347058470186312,356.1509026515232,None,,,,,001,72,2019_Oct_29_1001,ACPT_experiment_5_30_19,3.1.0,59.955461205471394,
,,,C,U,d,n,,,,,,,,,,2,2,42,15,,,,,,,,,,,,,n,1,1.5344943071695525,361.171396781805,None,,,,,001,72,2019_Oct_29_1001,ACPT_experiment_5_30_19,3.1.0,59.955461205471394,
,,,C,G,y,b,,,,,,,,,,2,3,43,5,,,,,,,,,,,,,b,1,1.1675713758331767,365.991706237317,None,,,,,001,72,2019_Oct_29_1001,ACPT_experiment_5_30_19,3.1.0,59.955461205471394,
,,,C,U,y,n,,,,,,,,,,2,4,44,8,,,,,,,,,,,,,n,1,2.301783267645078,370.4617913694283,None,,,,,001,72,2019_Oct_29_1001,ACPT_experiment_5_30_19,3.1.0,59.955461205471394,
,,,C,U,g,n,,,,,,,,,,2,5,45,16,,,,,,,,,,,,,n,1,2.5019114955666737,376.04935537396705,None,,,,,001,72,2019_Oct_29_1001,ACPT_experiment_5_30_19,3.1.0,59.955461205471394,
,,,C,G,y,b,,,,,,,,,,2,6,46,14,,,,,,,,,,,,,b,1,1.4677892244471877,381.8370943939226,None,,,,,001,72,2019_Oct_29_1001,ACPT_experiment_5_30_19,3.1.0,59.955461205471394,
,,,C,D,d,v,,,,,,,,,,2,7,47,9,,,,,,,,,,,,,v,1,1.134209778827426,386.59071838727414,None,,,,,001,72,2019_Oct_29_1001,ACPT_experiment_5_30_19,3.1.0,59.955461205471394,
,,,C,U,d,n,,,,,,,,,,2,8,48,6,,,,,,,,,,,,,n,1,1.09751872329889,391.0307387805851,None,,,,,001,72,2019_Oct_29_1001,ACPT_experiment_5_30_19,3.1.0,59.955461205471394,
,,,C,G,g,v,,,,,,,,,,2,9,49,4,,,,,,,,,,,,,v,1,1.8680991085930145,395.4140750670649,None,,,,,001,72,2019_Oct_29_1001,ACPT_experiment_5_30_19,3.1.0,59.955461205471394,
,,,C,G,g,v,,,,,,,,,,2,10,50,13,,,,,,,,,,,,,v,1,0.9840865164178467,400.5513196941247,None,,,,,001,72,2019_Oct_29_1001,ACPT_experiment_5_30_19,3.1.0,59.955461205471394,
,,,C,G,d,b,,,,,,,,,,2,11,51,12,,,,,,,,,,,,,b,1,0.8670734059578535,404.82149272635615,None,,,,,001,72,2019_Oct_29_1001,ACPT_experiment_5_30_19,3.1.0,59.955461205471394,
,,,C,G,d,b,,,,,,,,,,2,12,52,3,,,,,,,,,,,,,b,1,1.2342837030701048,408.9743827899292,None,,,,,001,72,2019_Oct_29_1001,ACPT_experiment_5_30_19,3.1.0,59.955461205471394,
,,,C,U,y,n,,,,,,,,,,2,13,53,17,,,,,,,,,,,,,n,1,1.3844000228200457,413.51118387153565,None,,,,,001,72,2019_Oct_29_1001,ACPT_experiment_5_30_19,3.1.0,59.955461205471394,
,,,C,D,y,b,,,,,,,,,,2,14,54,11,,,,,,,,,,,,,b,1,1.0174414726161558,418.18138847777936,None,,,,,001,72,2019_Oct_29_1001,ACPT_experiment_5_30_19,3.1.0,59.955461205471394,
,,,C,U,g,n,,,,,,,,,,2,15,55,7,,,,,,,,,,,,,n,1,1.5008707001916264,422.5016165834204,None,,,,,001,72,2019_Oct_29_1001,ACPT_experiment_5_30_19,3.1.0,59.955461205471394,
,,,C,D,d,v,,,,,,,,,,2,16,56,0,,,,,,,,,,,,,v,1,1.9348280378444542,427.2883081671953,None,,,,,001,72,2019_Oct_29_1001,ACPT_experiment_5_30_19,3.1.0,59.955461205471394,
,,,C,D,d,v,,,,,,,,,,2,17,57,18,,,,,,,,,,,,,v,1,0.7007553312841992,432.4921193256205,None,,,,,001,72,2019_Oct_29_1001,ACPT_experiment_5_30_19,3.1.0,59.955461205471394,
,,,C,D,g,b,,,,,,,,,,2,18,58,10,,,,,,,,,,,,,v,0,0.7669901242161359,436.47889325538654,None,,,,,001,72,2019_Oct_29_1001,ACPT_experiment_5_30_19,3.1.0,59.955461205471394,
,,,C,G,g,v,,,,,,,,,,2,19,59,19,,,,,,,,,,,,,v,1,1.8513923505770435,440.5317075835892,None,,,,,001,72,2019_Oct_29_1001,ACPT_experiment_5_30_19,3.1.0,59.955461205471394,
,,,C,D,y,b,,,,,,,,,,3,0,60,2,,,,,,,,,,,,,b,1,0.934048045021882,445.66894828653676,None,,,,,001,72,2019_Oct_29_1001,ACPT_experiment_5_30_19,3.1.0,59.955461205471394,
,,,C,U,g,n,,,,,,,,,,3,1,61,7,,,,,,,,,,,,,n,1,1.4508693569368916,449.9057410067644,None,,,,,001,72,2019_Oct_29_1001,ACPT_experiment_5_30_19,3.1.0,59.955461205471394,
,,,C,D,y,b,,,,,,,,,,3,2,62,11,,,,,,,,,,,,,b,1,1.2843203633365192,454.6424306435756,None,,,,,001,72,2019_Oct_29_1001,ACPT_experiment_5_30_19,3.1.0,59.955461205471394,
,,,C,U,d,n,,,,,,,,,,3,3,63,15,,,,,,,,,,,,,n,1,1.033872637193781,459.2295083600202,None,,,,,001,72,2019_Oct_29_1001,ACPT_experiment_5_30_19,3.1.0,59.955461205471394,
,,,C,G,g,v,,,,,,,,,,3,4,64,19,,,,,,,,,,,,,v,1,2.7688833575675744,463.54918558063764,None,,,,,001,72,2019_Oct_29_1001,ACPT_experiment_5_30_19,3.1.0,59.955461205471394,
,,,C,D,g,b,,,,,,,,,,3,5,65,10,,,,,,,,,,,,,b,1,3.1023707374706646,469.6038089246995,None,,,,,001,72,2019_Oct_29_1001,ACPT_experiment_5_30_19,3.1.0,59.955461205471394,
,,,C,U,y,n,,,,,,,,,,3,6,66,8,,,,,,,,,,,,,n,1,0.9505984422485199,475.99200386615667,None,,,,,001,72,2019_Oct_29_1001,ACPT_experiment_5_30_19,3.1.0,59.955461205471394,
,,,C,G,g,v,,,,,,,,,,3,7,67,4,,,,,,,,,,,,,v,1,3.6694726083360365,480.22854514132996,None,,,,,001,72,2019_Oct_29_1001,ACPT_experiment_5_30_19,3.1.0,59.955461205471394,
,,,C,G,d,b,,,,,,,,,,3,8,68,12,,,,,,,,,,,,,b,1,0.7673010346679803,487.18382716276756,None,,,,,001,72,2019_Oct_29_1001,ACPT_experiment_5_30_19,3.1.0,59.955461205471394,
,,,C,G,y,b,,,,,,,,,,3,9,69,5,,,,,,,,,,,,,b,1,1.3841241275258653,491.25386230772256,None,,,,,001,72,2019_Oct_29_1001,ACPT_experiment_5_30_19,3.1.0,59.955461205471394,
,,,C,U,d,n,,,,,,,,,,3,10,70,6,,,,,,,,,,,,,n,1,1.3343561180381585,495.92380701697766,None,,,,,001,72,2019_Oct_29_1001,ACPT_experiment_5_30_19,3.1.0,59.955461205471394,
,,,C,D,g,b,,,,,,,,,,3,11,71,1,,,,,,,,,,,,,b,1,2.0346701375947305,500.5609401086858,None,,,,,001,72,2019_Oct_29_1001,ACPT_experiment_5_30_19,3.1.0,59.955461205471394,
,,,C,G,y,b,,,,,,,,,,3,12,72,14,,,,,,,,,,,,,b,1,1.4011574924443266,505.8813571754363,None,,,,,001,72,2019_Oct_29_1001,ACPT_experiment_5_30_19,3.1.0,59.955461205471394,
,,,C,D,d,v,,,,,,,,,,3,13,73,0,,,,,,,,,,,,,v,1,1.334209114747864,510.58509815261914,None,,,,,001,72,2019_Oct_29_1001,ACPT_experiment_5_30_19,3.1.0,59.955461205471394,
,,,C,D,d,v,,,,,,,,,,3,14,74,9,,,,,,,,,,,,,v,1,0.7005370902588766,515.2051311694977,None,,,,,001,72,2019_Oct_29_1001,ACPT_experiment_5_30_19,3.1.0,59.955461205471394,
,,,C,U,y,n,,,,,,,,,,3,15,75,17,,,,,,,,,,,,,n,1,1.3007937875863718,519.2083435083559,None,,,,,001,72,2019_Oct_29_1001,ACPT_experiment_5_30_19,3.1.0,59.955461205471394,
,,,C,U,g,n,,,,,,,,,,3,16,76,16,,,,,,,,,,,,,n,1,1.534518153699537,523.7949862520227,None,,,,,001,72,2019_Oct_29_1001,ACPT_experiment_5_30_19,3.1.0,59.955461205471394,
,,,C,D,d,v,,,,,,,,,,3,17,77,18,,,,,,,,,,,,,v,1,1.0174837322892927,528.6153174410802,None,,,,,001,72,2019_Oct_29_1001,ACPT_experiment_5_30_19,3.1.0,59.955461205471394,
,,,C,G,d,b,,,,,,,,,,3,18,78,3,,,,,,,,,,,,,b,1,1.1004488279131692,532.9356391217116,None,,,,,001,72,2019_Oct_29_1001,ACPT_experiment_5_30_19,3.1.0,59.955461205471394,
,,,C,G,g,v,,,,,,,,,,3,19,79,13,,,,,,,,,,,,,v,1,1.1008493892422848,537.3052542960731,None,,,,,001,72,2019_Oct_29_1001,ACPT_experiment_5_30_19,3.1.0,59.955461205471394,
,,,C,U,g,n,,,,,,,,,,4,0,80,7,,,,,,,,,,,,,n,1,1.3007159090466303,541.7088773385831,None,,,,,001,72,2019_Oct_29_1001,ACPT_experiment_5_30_19,3.1.0,59.955461205471394,
,,,C,G,d,b,,,,,,,,,,4,1,81,3,,,,,,,,,,,,,b,1,3.335891049732709,546.2954032644393,None,,,,,001,72,2019_Oct_29_1001,ACPT_experiment_5_30_19,3.1.0,59.955461205471394,
,,,C,U,y,n,,,,,,,,,,4,2,82,17,,,,,,,,,,,,,n,1,0.8172981519537643,552.9171387424312,None,,,,,001,72,2019_Oct_29_1001,ACPT_experiment_5_30_19,3.1.0,59.955461205471394,
,,,C,D,y,b,,,,,,,,,,4,3,83,2,,,,,,,,,,,,,b,1,1.0672460065370615,557.0371589304805,None,,,,,001,72,2019_Oct_29_1001,ACPT_experiment_5_30_19,3.1.0,59.955461205471394,
,,,C,D,d,v,,,,,,,,,,4,4,84,0,,,,,,,,,,,,,b,0,0.967405114205576,561.3902288391482,None,,,,,001,72,2019_Oct_29_1001,ACPT_experiment_5_30_19,3.1.0,59.955461205471394,
,,,C,U,g,n,,,,,,,,,,4,5,85,16,,,,,,,,,,,,,n,1,1.000395127943193,565.66051053911,None,,,,,001,72,2019_Oct_29_1001,ACPT_experiment_5_30_19,3.1.0,59.955461205471394,
,,,C,G,g,v,,,,,,,,,,4,6,86,19,,,,,,,,,,,,,v,1,3.2190934636055317,569.9467808845011,None,,,,,001,72,2019_Oct_29_1001,ACPT_experiment_5_30_19,3.1.0,59.955461205471394,
,,,C,D,g,b,,,,,,,,,,4,7,87,10,,,,,,,,,,,,,b,1,2.9355570172037915,576.4516934205612,None,,,,,001,72,2019_Oct_29_1001,ACPT_experiment_5_30_19,3.1.0,59.955461205471394,
,,,C,G,g,v,,,,,,,,,,4,8,88,13,,,,,,,,,,,,,v,1,1.3510791762146255,582.6730471729643,None,,,,,001,72,2019_Oct_29_1001,ACPT_experiment_5_30_19,3.1.0,59.955461205471394,
,,,C,G,y,b,,,,,,,,,,4,9,89,14,,,,,,,,,,,,,b,1,1.0140057612006785,587.3300214830069,None,,,,,001,72,2019_Oct_29_1001,ACPT_experiment_5_30_19,3.1.0,59.955461205471394,
,,,C,G,g,v,,,,,,,,,,4,10,90,4,,,,,,,,,,,,,v,1,1.050887890822196,591.6298698613373,None,,,,,001,72,2019_Oct_29_1001,ACPT_experiment_5_30_19,3.1.0,59.955461205471394,
,,,C,D,y,b,,,,,,,,,,4,11,91,11,,,,,,,,,,,,,b,1,2.9186199439691336,595.9834550361611,None,,,,,001,72,2019_Oct_29_1001,ACPT_experiment_5_30_19,3.1.0,59.955461205471394,
,,,C,U,y,n,,,,,,,,,,4,12,92,8,,,,,,,,,,,,,n,1,1.0007519203245465,602.1879103527444,None,,,,,001,72,2019_Oct_29_1001,ACPT_experiment_5_30_19,3.1.0,59.955461205471394,
,,,C,U,d,n,,,,,,,,,,4,13,93,15,,,,,,,,,,,,,n,1,1.1005855681405592,606.4747518074319,None,,,,,001,72,2019_Oct_29_1001,ACPT_experiment_5_30_19,3.1.0,59.955461205471394,
,,,C,D,d,v,,,,,,,,,,4,14,94,18,,,,,,,,,,,,,v,1,2.885510395728488,610.8611655036711,None,,,,,001,72,2019_Oct_29_1001,ACPT_experiment_5_30_19,3.1.0,59.955461205471394,
,,,C,G,y,b,,,,,,,,,,4,15,95,5,,,,,,,,,,,,,b,1,3.0356674658769407,617.0325121775777,None,,,,,001,72,2019_Oct_29_1001,ACPT_experiment_5_30_19,3.1.0,59.955461205471394,
,,,C,U,d,n,,,,,,,,,,4,16,96,6,,,,,,,,,,,,,n,1,2.0515821568797037,623.3539621914779,None,,,,,001,72,2019_Oct_29_1001,ACPT_experiment_5_30_19,3.1.0,59.955461205471394,
,,,C,D,g,b,,,,,,,,,,4,17,97,1,,,,,,,,,,,,,b,1,2.351815400088526,628.6913760987145,None,,,,,001,72,2019_Oct_29_1001,ACPT_experiment_5_30_19,3.1.0,59.955461205471394,
,,,C,D,d,v,,,,,,,,,,4,18,98,9,,,,,,,,,,,,,v,1,1.2009227097751136,634.312307133644,None,,,,,001,72,2019_Oct_29_1001,ACPT_experiment_5_30_19,3.1.0,59.955461205471394,
,,,C,G,d,b,,,,,,,,,,4,19,99,12,,,,,,,,,,,,,b,1,2.1516458180585687,638.7990519344221,None,,,,,001,72,2019_Oct_29_1001,ACPT_experiment_5_30_19,3.1.0,59.955461205471394,
,,,C,D,g,b,,,,,,,,,,5,0,100,1,,,,,,,,,,,,,b,1,1.7513380468963078,644.2365171267893,None,,,,,001,72,2019_Oct_29_1001,ACPT_experiment_5_30_19,3.1.0,59.955461205471394,
,,,C,D,d,v,,,,,,,,,,5,1,101,0,,,,,,,,,,,,,v,1,1.2343184163728438,649.256997069896,None,,,,,001,72,2019_Oct_29_1001,ACPT_experiment_5_30_19,3.1.0,59.955461205471394,
,,,C,G,d,b,,,,,,,,,,5,2,102,3,,,,,,,,,,,,,b,1,0.817068440445837,653.7940474835723,None,,,,,001,72,2019_Oct_29_1001,ACPT_experiment_5_30_19,3.1.0,59.955461205471394,
,,,C,U,d,n,,,,,,,,,,5,3,103,15,,,,,,,,,,,,,n,1,0.93408034348613,657.8801914121705,None,,,,,001,72,2019_Oct_29_1001,ACPT_experiment_5_30_19,3.1.0,59.955461205471394,
,,,C,U,g,n,,,,,,,,,,5,4,104,16,,,,,,,,,,,,,n,1,1.1005774180603112,662.1003537436491,None,,,,,001,72,2019_Oct_29_1001,ACPT_experiment_5_30_19,3.1.0,59.955461205471394,
,,,C,D,g,b,,,,,,,,,,5,5,105,10,,,,,,,,,,,,,b,1,4.703567410668256,666.4867689491621,None,,,,,001,72,2019_Oct_29_1001,ACPT_experiment_5_30_19,3.1.0,59.955461205471394,
,,,C,G,g,v,,,,,,,,,,5,6,106,19,,,,,,,,,,,,,v,1,0.967407830898992,674.4761765621215,None,,,,,001,72,2019_Oct_29_1001,ACPT_experiment_5_30_19,3.1.0,59.955461205471394,
,,,C,G,y,b,,,,,,,,,,5,7,107,14,,,,,,,,,,,,,b,1,0.9004817904578886,678.7462846955696,None,,,,,001,72,2019_Oct_29_1001,ACPT_experiment_5_30_19,3.1.0,59.955461205471394,
,,,C,D,y,b,,,,,,,,,,5,8,108,2,,,,,,,,,,,,,b,1,1.7514554684166797,682.9325825399337,None,,,,,001,72,2019_Oct_29_1001,ACPT_experiment_5_30_19,3.1.0,59.955461205471394,
,,,C,G,g,v,,,,,,,,,,5,9,109,4,,,,,,,,,,,,,v,1,1.2342704214588593,687.9697559594442,None,,,,,001,72,2019_Oct_29_1001,ACPT_experiment_5_30_19,3.1.0,59.955461205471394,
,,,C,U,g,n,,,,,,,,,,5,10,110,7,,,,,,,,,,,,,n,1,1.017160747645903,692.5068087879599,None,,,,,001,72,2019_Oct_29_1001,ACPT_experiment_5_30_19,3.1.0,59.955461205471394,
,,,C,G,y,b,,,,,,,,,,5,11,111,5,,,,,,,,,,,,,b,1,1.2176252418239528,696.8097726097558,None,,,,,001,72,2019_Oct_29_1001,ACPT_experiment_5_30_19,3.1.0,59.955461205471394,
,,,C,G,d,b,,,,,,,,,,5,12,112,12,,,,,,,,,,,,,b,1,1.5678743173175462,701.2965297865803,None,,,,,001,72,2019_Oct_29_1001,ACPT_experiment_5_30_19,3.1.0,59.955461205471394,
,,,C,U,d,n,,,,,,,,,,5,13,113,6,,,,,,,,,,,,,n,1,1.3843804022581025,706.1502430987694,None,,,,,001,72,2019_Oct_29_1001,ACPT_experiment_5_30_19,3.1.0,59.955461205471394,
,,,C,U,y,n,,,,,,,,,,5,14,114,17,,,,,,,,,,,,,n,1,1.4341758805330755,710.8207121298246,None,,,,,001,72,2019_Oct_29_1001,ACPT_experiment_5_30_19,3.1.0,59.955461205471394,
,,,C,D,y,b,,,,,,,,,,5,15,115,11,,,,,,,,,,,,,b,1,0.8506090373521147,715.540732740471,None,,,,,001,72,2019_Oct_29_1001,ACPT_experiment_5_30_19,3.1.0,59.955461205471394,
,,,C,D,d,v,,,,,,,,,,5,16,116,18,,,,,,,,,,,,,v,1,1.350762530521024,719.6774403678282,None,,,,,001,72,2019_Oct_29_1001,ACPT_experiment_5_30_19,3.1.0,59.955461205471394,
,,,C,G,g,v,,,,,,,,,,5,17,117,13,,,,,,,,,,,,,v,1,1.6179064497619038,724.3140298190292,None,,,,,001,72,2019_Oct_29_1001,ACPT_experiment_5_30_19,3.1.0,59.955461205471394,
,,,C,U,y,n,,,,,,,,,,5,18,118,8,,,,,,,,,,,,,b,0,1.1008620671445897,729.2177508134237,None,,,,,001,72,2019_Oct_29_1001,ACPT_experiment_5_30_19,3.1.0,59.955461205471394,
,,,C,D,d,v,,,,,,,,,,5,19,119,9,0,0,0,0,0,0,0,0,,,,,v,1,4.052720451357345,733.621453243747,None,,,,,001,72,2019_Oct_29_1001,ACPT_experiment_5_30_19,3.1.0,59.955461205471394,
,,,C,D,d,v,L,U,g,R,u,,,,,5,19,119,9,0,0,0,0,,,,,0,0,0,23,,,,,,up,2.3987179018913594,805.8791104701058,None,001,72,2019_Oct_29_1001,ACPT_experiment_5_30_19,3.1.0,59.955461205471394,
,,,C,D,d,v,R,U,d,L,u,,,,,5,19,119,9,0,0,0,0,,,,,0,1,1,8,,,,,,up,2.55194000575284,809.5621448112215,None,001,72,2019_Oct_29_1001,ACPT_experiment_5_30_19,3.1.0,59.955461205471394,
,,,C,D,d,v,R,U,y,L,u,,,,,5,19,119,9,0,0,0,0,,,,,0,2,2,30,,,,,,down,1.2175941507784955,813.398380126363,None,001,72,2019_Oct_29_1001,ACPT_experiment_5_30_19,3.1.0,59.955461205471394,
,,,C,D,d,v,L,U,d,R,u,,,,,5,19,119,9,0,0,0,0,,,,,0,3,3,21,,,,,,down,1.050791297284377,815.9169636666429,None,001,72,2019_Oct_29_1001,ACPT_experiment_5_30_19,3.1.0,59.955461205471394,
,,,C,D,d,v,R,D,y,R,y,,,,,5,19,119,9,0,0,0,0,,,,,0,4,4,27,,,,,,down,0.800624597967726,818.252050877024,None,001,72,2019_Oct_29_1001,ACPT_experiment_5_30_19,3.1.0,59.955461205471394,
,,,C,D,d,v,L,D,y,R,y,,,,,5,19,119,9,0,0,0,0,,,,,0,5,5,33,,,,,,down,1.7179710165046345,820.3369891975226,None,001,72,2019_Oct_29_1001,ACPT_experiment_5_30_19,3.1.0,59.955461205471394,
,,,C,D,d,v,L,G,d,R,i,,,,,5,19,119,9,0,0,0,0,,,,,0,6,6,17,,,,,,up,1.2843082891440645,823.3392709180098,None,001,72,2019_Oct_29_1001,ACPT_experiment_5_30_19,3.1.0,59.955461205471394,
,,,C,D,d,v,L,D,g,L,i,,,,,5,19,119,9,0,0,0,0,,,,,0,7,7,14,,,,,,up,1.0507958251064338,825.9078929296857,None,001,72,2019_Oct_29_1001,ACPT_experiment_5_30_19,3.1.0,59.955461205471394,
,,,C,D,d,v,L,G,y,R,y,,,,,5,19,119,9,0,0,0,0,,,,,0,8,8,35,,,,,,down,0.7005364865490264,828.242987988292,None,001,72,2019_Oct_29_1001,ACPT_experiment_5_30_19,3.1.0,59.955461205471394,
,,,C,D,d,v,R,D,d,R,c ,,,,,5,19,119,9,0,0,0,0,,,,,0,9,9,1,,,,,,down,0.8840134977390335,830.2278206897927,None,001,72,2019_Oct_29_1001,ACPT_experiment_5_30_19,3.1.0,59.955461205471394,
,,,C,D,d,v,L,D,d,R,c ,,,,,5,19,119,9,0,0,0,0,,,,,0,10,10,13,,,,,,down,0.6505115986201417,832.3961473063537,None,001,72,2019_Oct_29_1001,ACPT_experiment_5_30_19,3.1.0,59.955461205471394,
,,,C,D,d,v,L,D,y,L,y,,,,,5,19,119,9,0,0,0,0,,,,,0,11,11,32,,,,,,down,0.7672445878188228,834.3476262590748,None,001,72,2019_Oct_29_1001,ACPT_experiment_5_30_19,3.1.0,59.955461205471394,
,,,C,D,d,v,R,D,g,R,i,,,,,5,19,119,9,0,0,0,0,,,,,0,12,12,3,,,,,,up,1.4344158551048167,836.4158741217161,None,001,72,2019_Oct_29_1001,ACPT_experiment_5_30_19,3.1.0,59.955461205471394,
,,,C,D,d,v,R,D,g,L,i,,,,,5,19,119,9,0,0,0,0,,,,,0,13,13,2,,,,,,up,0.6838339545001872,839.1346209050753,None,001,72,2019_Oct_29_1001,ACPT_experiment_5_30_19,3.1.0,59.955461205471394,
,,,C,D,d,v,L,D,d,L,c ,,,,,5,19,119,9,0,0,0,0,,,,,0,14,14,12,,,,,,up,0.6504934873310049,841.1027634505754,None,001,72,2019_Oct_29_1001,ACPT_experiment_5_30_19,3.1.0,59.955461205471394,
,,,C,D,d,v,R,G,g,R,c ,,,,,5,19,119,9,0,0,0,0,,,,,0,15,15,7,,,,,,up,0.7839274993048093,843.0375676418898,None,001,72,2019_Oct_29_1001,ACPT_experiment_5_30_19,3.1.0,59.955461205471394,
,,,C,D,d,v,R,U,g,L,u,,,,,5,19,119,9,0,0,0,0,,,,,0,16,16,10,,,,,,up,1.384382817095684,845.1058058451772,None,001,72,2019_Oct_29_1001,ACPT_experiment_5_30_19,3.1.0,59.955461205471394,
,,,C,D,d,v,R,G,d,R,i,,,,,5,19,119,9,0,0,0,0,,,,,0,17,17,5,,,,,,down,0.6004465640016861,847.7745020829498,None,001,72,2019_Oct_29_1001,ACPT_experiment_5_30_19,3.1.0,59.955461205471394,
,,,C,D,d,v,L,U,d,L,u,,,,,5,19,119,9,0,0,0,0,,,,,0,18,18,20,,,,,,up,0.6171240421017501,849.6592714251265,None,001,72,2019_Oct_29_1001,ACPT_experiment_5_30_19,3.1.0,59.955461205471394,
,,,C,D,d,v,R,G,g,L,c ,,,,,5,19,119,9,0,0,0,0,,,,,0,19,19,6,,,,,,up,0.6838472361114327,851.5607116045967,None,001,72,2019_Oct_29_1001,ACPT_experiment_5_30_19,3.1.0,59.955461205471394,
,,,C,D,d,v,R,U,d,R,u,,,,,5,19,119,9,0,0,0,0,,,,,0,20,20,9,,,,,,down,0.5168952663434538,853.5290277166105,None,001,72,2019_Oct_29_1001,ACPT_experiment_5_30_19,3.1.0,59.955461205471394,
,,,C,D,d,v,R,G,d,L,i,,,,,5,19,119,9,0,0,0,0,,,,,0,21,21,4,,,,,,up,0.8006345591757054,855.3302191979055,None,001,72,2019_Oct_29_1001,ACPT_experiment_5_30_19,3.1.0,59.955461205471394,
,,,C,D,d,v,L,U,y,R,u,,,,,5,19,119,9,0,0,0,0,,,,,0,22,22,25,,,,,,down,0.9002698883832636,857.4322201632376,None,001,72,2019_Oct_29_1001,ACPT_experiment_5_30_19,3.1.0,59.955461205471394,
,,,C,D,d,v,R,D,d,L,c,,,,,5,19,119,9,0,0,0,0,,,,,0,23,23,0,,,,,,up,0.6838493490959081,859.6168279225358,None,001,72,2019_Oct_29_1001,ACPT_experiment_5_30_19,3.1.0,59.955461205471394,
,,,C,D,d,v,R,G,y,R,y,,,,,5,19,119,9,0,0,0,0,,,,,0,24,24,29,,,,,,down,0.7839293104334502,861.584989183033,None,001,72,2019_Oct_29_1001,ACPT_experiment_5_30_19,3.1.0,59.955461205471394,
,,,C,D,d,v,L,G,g,L,c ,,,,,5,19,119,9,0,0,0,0,,,,,0,25,25,18,,,,,,up,0.6671604005132394,863.6532352345457,None,001,72,2019_Oct_29_1001,ACPT_experiment_5_30_19,3.1.0,59.955461205471394,
,,,C,D,d,v,L,G,y,L,y,,,,,5,19,119,9,0,0,0,0,,,,,0,26,26,34,,,,,,down,0.6838795345756807,865.5880065236861,None,001,72,2019_Oct_29_1001,ACPT_experiment_5_30_19,3.1.0,59.955461205471394,
,,,C,D,d,v,R,U,g,R,u,,,,,5,19,119,9,0,0,0,0,,,,,0,27,27,11,,,,,,up,2.0349076973279807,867.5561686897481,None,001,72,2019_Oct_29_1001,ACPT_experiment_5_30_19,3.1.0,59.955461205471394,
,,,C,D,d,v,L,G,g,R,c ,,,,,5,19,119,9,0,0,0,0,,,,,0,28,28,19,,,,,,up,0.7172329815011835,870.8586770126394,None,001,72,2019_Oct_29_1001,ACPT_experiment_5_30_19,3.1.0,59.955461205471394,
,,,C,D,d,v,R,G,y,L,y,,,,,5,19,119,9,0,0,0,0,,,,,0,29,29,28,,,,,,down,0.7338763500083587,872.8769072318682,None,001,72,2019_Oct_29_1001,ACPT_experiment_5_30_19,3.1.0,59.955461205471394,
,,,C,D,d,v,L,D,g,R,i,,,,,5,19,119,9,0,0,0,0,,,,,0,30,30,15,,,,,,up,1.3176723009883062,874.91176874541,None,001,72,2019_Oct_29_1001,ACPT_experiment_5_30_19,3.1.0,59.955461205471394,
,,,C,D,d,v,L,U,y,L,u,,,,,5,19,119,9,0,0,0,0,,,,,0,31,31,24,,,,,,down,0.6004589400490659,877.5137595986062,None,001,72,2019_Oct_29_1001,ACPT_experiment_5_30_19,3.1.0,59.955461205471394,
,,,C,D,d,v,L,U,g,L,u,,,,,5,19,119,9,0,0,0,0,,,,,0,32,32,22,,,,,,up,0.7505716375408156,879.3985232055411,None,001,72,2019_Oct_29_1001,ACPT_experiment_5_30_19,3.1.0,59.955461205471394,
,,,C,D,d,v,R,U,y,R,u,,,,,5,19,119,9,0,0,0,0,,,,,0,33,33,31,,,,,,down,1.5511708797048414,881.4334088674686,None,001,72,2019_Oct_29_1001,ACPT_experiment_5_30_19,3.1.0,59.955461205471394,
,,,C,D,d,v,L,G,d,L,i,,,,,5,19,119,9,0,0,0,0,,,,,0,34,34,16,,,,,,up,0.6171611702420705,884.2688889418814,None,001,72,2019_Oct_29_1001,ACPT_experiment_5_30_19,3.1.0,59.955461205471394,
,,,C,D,d,v,R,D,y,L,y,,,,,5,19,119,9,0,0,0,0,,,,,0,35,35,26,,,,,,down,0.7338890279097541,886.1703381769967,None,001,72,2019_Oct_29_1001,ACPT_experiment_5_30_19,3.1.0,59.955461205471394,
,,,C,D,d,v,L,G,y,R,y,,,,,5,19,119,9,0,0,0,0,,,,,1,0,36,35,,,,,,down,0.8006007514377416,888.1885406255824,None,001,72,2019_Oct_29_1001,ACPT_experiment_5_30_19,3.1.0,59.955461205471394,
,,,C,D,d,v,R,D,g,L,i,,,,,5,19,119,9,0,0,0,0,,,,,1,1,37,2,,,,,,up,1.1341904601204078,890.2734523828576,None,001,72,2019_Oct_29_1001,ACPT_experiment_5_30_19,3.1.0,59.955461205471394,
,,,C,D,d,v,L,D,g,L,i,,,,,5,19,119,9,0,0,0,0,,,,,1,2,38,14,,,,,,up,0.6505140134586327,892.6919508302672,None,001,72,2019_Oct_29_1001,ACPT_experiment_5_30_19,3.1.0,59.955461205471394,
,,,C,D,d,v,L,D,d,R,c ,,,,,5,19,119,9,0,0,0,0,,,,,1,3,39,13,,,,,,up,1.401068143421071,894.6100757323529,None,001,72,2019_Oct_29_1001,ACPT_experiment_5_30_19,3.1.0,59.955461205471394,
,,,C,D,d,v,R,U,d,R,u,,,,,5,19,119,9,0,0,0,0,,,,,1,4,40,9,,,,,,up,0.6838484435302234,897.2787728756894,None,001,72,2019_Oct_29_1001,ACPT_experiment_5_30_19,3.1.0,59.955461205471394,
,,,C,D,d,v,L,D,g,R,i,,,,,5,19,119,9,0,0,0,0,,,,,1,5,41,15,,,,,,up,0.5337091828159828,899.2469676420706,None,001,72,2019_Oct_29_1001,ACPT_experiment_5_30_19,3.1.0,59.955461205471394,
,,,C,D,d,v,R,U,g,R,u,,,,,5,19,119,9,0,0,0,0,,,,,1,6,42,11,,,,,,up,0.6671567782559578,901.0649962826583,None,001,72,2019_Oct_29_1001,ACPT_experiment_5_30_19,3.1.0,59.955461205471394,
,,,C,D,d,v,L,U,d,L,u,,,,,5,19,119,9,0,0,0,0,,,,,1,7,43,20,,,,,,up,0.5837696896123816,903.0164652741705,None,001,72,2019_Oct_29_1001,ACPT_experiment_5_30_19,3.1.0,59.955461205471394,
,,,C,D,d,v,R,G,y,R,y,,,,,5,19,119,9,0,0,0,0,,,,,1,8,44,29,,,,,,down,0.7005310531621944,904.8845517048612,None,001,72,2019_Oct_29_1001,ACPT_experiment_5_30_19,3.1.0,59.955461205471394,
,,,C,D,d,v,R,G,d,R,i,,,,,5,19,119,9,0,0,0,0,,,,,1,9,45,5,,,,,,up,0.5837790471105109,906.8527147764871,None,001,72,2019_Oct_29_1001,ACPT_experiment_5_30_19,3.1.0,59.955461205471394,
,,,C,D,d,v,R,U,d,L,u,,,,,5,19,119,9,0,0,0,0,,,,,1,10,46,8,,,,,,up,0.7839516476897188,908.7040926380332,None,001,72,2019_Oct_29_1001,ACPT_experiment_5_30_19,3.1.0,59.955461205471394,
,,,C,D,d,v,L,D,d,L,c ,,,,,5,19,119,9,0,0,0,0,,,,,1,11,47,12,,,,,,up,0.6004535066622338,910.7723583101088,None,001,72,2019_Oct_29_1001,ACPT_experiment_5_30_19,3.1.0,59.955461205471394,
,,,C,D,d,v,R,U,y,L,u,,,,,5,19,119,9,0,0,0,0,,,,,1,12,48,30,,,,,,down,0.717224831421845,912.6737803782908,None,001,72,2019_Oct_29_1001,ACPT_experiment_5_30_19,3.1.0,59.955461205471394,
,,,C,D,d,v,L,G,g,L,c ,,,,,5,19,119,9,0,0,0,0,,,,,1,13,49,18,,,,,,up,0.6671081796312137,914.6920368588871,None,001,72,2019_Oct_29_1001,ACPT_experiment_5_30_19,3.1.0,59.955461205471394,
,,,C,D,d,v,R,G,g,L,c ,,,,,5,19,119,9,0,0,0,0,,,,,1,14,50,6,,,,,,up,0.4836936523852273,916.6434868335464,None,001,72,2019_Oct_29_1001,ACPT_experiment_5_30_19,3.1.0,59.955461205471394,
,,,C,D,d,v,L,D,y,R,y,,,,,5,19,119,9,0,0,0,0,,,,,1,15,51,33,,,,,,down,0.9840783663385082,918.4114930010437,None,001,72,2019_Oct_29_1001,ACPT_experiment_5_30_19,3.1.0,59.955461205471394,
,,,C,D,d,v,L,G,d,L,i,,,,,5,19,119,9,0,0,0,0,,,,,1,16,52,16,,,,,,up,0.700303152782908,920.6967986184709,None,001,72,2019_Oct_29_1001,ACPT_experiment_5_30_19,3.1.0,59.955461205471394,
,,,C,D,d,v,R,G,g,R,c ,,,,,5,19,119,9,0,0,0,0,,,,,1,17,53,7,,,,,,up,1.7179845999717145,922.6814028158833,None,001,72,2019_Oct_29_1001,ACPT_experiment_5_30_19,3.1.0,59.955461205471394,
,,,C,D,d,v,L,U,g,L,u,,,,,5,19,119,9,0,0,0,0,,,,,1,18,54,22,,,,,,up,0.7338823871041313,925.6836908753221,None,001,72,2019_Oct_29_1001,ACPT_experiment_5_30_19,3.1.0,59.955461205471394,
,,,C,D,d,v,L,U,y,L,u,,,,,5,19,119,9,0,0,0,0,,,,,1,19,55,24,,,,,,up,0.5504256001859176,927.7185659723309,None,001,72,2019_Oct_29_1001,ACPT_experiment_5_30_19,3.1.0,59.955461205471394,
,,,C,D,d,v,R,D,g,R,i,,,,,5,19,119,9,0,0,0,0,,,,,1,20,56,3,,,,,,up,1.2009121448563747,929.569967982261,None,001,72,2019_Oct_29_1001,ACPT_experiment_5_30_19,3.1.0,59.955461205471394,
,,,C,D,d,v,R,D,y,L,y,,,,,5,19,119,9,0,0,0,0,,,,,1,21,57,26,,,,,,down,0.6338099721351682,932.0551950570671,None,001,72,2019_Oct_29_1001,ACPT_experiment_5_30_19,3.1.0,59.955461205471394,
,,,C,D,d,v,L,G,g,R,c ,,,,,5,19,119,9,0,0,0,0,,,,,1,22,58,19,,,,,,up,0.7005232049368715,933.9733202610078,None,001,72,2019_Oct_29_1001,ACPT_experiment_5_30_19,3.1.0,59.955461205471394,
,,,C,D,d,v,R,D,y,R,y,,,,,5,19,119,9,0,0,0,0,,,,,1,23,59,27,,,,,,down,0.5670922115123176,935.9581614144436,None,001,72,2019_Oct_29_1001,ACPT_experiment_5_30_19,3.1.0,59.955461205471394,
,,,C,D,d,v,L,D,y,L,y,,,,,5,19,119,9,0,0,0,0,,,,,1,24,60,32,,,,,,down,0.5837651617894153,937.8095745930023,None,001,72,2019_Oct_29_1001,ACPT_experiment_5_30_19,3.1.0,59.955461205471394,
,,,C,D,d,v,L,U,g,R,u,,,,,5,19,119,9,0,0,0,0,,,,,1,25,61,23,,,,,,up,0.6171228346820499,939.6776546847414,None,001,72,2019_Oct_29_1001,ACPT_experiment_5_30_19,3.1.0,59.955461205471394,
,,,C,D,d,v,L,G,y,L,y,,,,,5,19,119,9,0,0,0,0,,,,,1,26,62,34,,,,,,down,0.7505456780281747,941.5791117680819,None,001,72,2019_Oct_29_1001,ACPT_experiment_5_30_19,3.1.0,59.955461205471394,
,,,C,D,d,v,L,G,d,R,i,,,,,5,19,119,9,0,0,0,0,,,,,1,27,63,17,,,,,,down,0.43365276615168113,943.6139738853335,None,001,72,2019_Oct_29_1001,ACPT_experiment_5_30_19,3.1.0,59.955461205471394,
,,,C,D,d,v,R,U,g,L,u,,,,,5,19,119,9,0,0,0,0,,,,,1,28,64,10,,,,,,up,0.6004396213411383,945.3319515426447,None,001,72,2019_Oct_29_1001,ACPT_experiment_5_30_19,3.1.0,59.955461205471394,
,,,C,D,d,v,R,U,y,R,u,,,,,5,19,119,9,0,0,0,0,,,,,1,29,65,31,,,,,,down,0.6504898650746327,947.216708508774,None,001,72,2019_Oct_29_1001,ACPT_experiment_5_30_19,3.1.0,59.955461205471394,
,,,C,D,d,v,R,D,d,R,c ,,,,,5,19,119,9,0,0,0,0,,,,,1,30,66,1,,,,,,up,0.8335898596105835,949.1685735337933,None,001,72,2019_Oct_29_1001,ACPT_experiment_5_30_19,3.1.0,59.955461205471394,
,,,C,D,d,v,L,U,y,R,u,,,,,5,19,119,9,0,0,0,0,,,,,1,31,67,25,,,,,,down,0.5670922115123176,951.2864704751291,None,001,72,2019_Oct_29_1001,ACPT_experiment_5_30_19,3.1.0,59.955461205471394,
,,,C,D,d,v,R,G,y,L,y,,,,,5,19,119,9,0,0,0,0,,,,,1,32,68,28,,,,,,down,0.6504968077351805,953.1378727869142,None,001,72,2019_Oct_29_1001,ACPT_experiment_5_30_19,3.1.0,59.955461205471394,
,,,C,D,d,v,L,U,d,R,u,,,,,5,19,119,9,0,0,0,0,,,,,1,33,69,21,,,,,,up,0.6336493853777938,955.0728164351494,None,001,72,2019_Oct_29_1001,ACPT_experiment_5_30_19,3.1.0,59.955461205471394,
,,,C,D,d,v,R,D,d,L,c,,,,,5,19,119,9,0,0,0,0,,,,,1,34,70,0,,,,,,up,0.6171324940369232,956.9908009747496,None,001,72,2019_Oct_29_1001,ACPT_experiment_5_30_19,3.1.0,59.955461205471394,
,,,C,D,d,v,R,G,d,L,i,,,,,5,19,119,9,0,0,0,0,,,,,1,35,71,4,,,,,,up,0.5504162426859693,958.892244776478,None,001,72,2019_Oct_29_1001,ACPT_experiment_5_30_19,3.1.0,59.955461205471394,
,,,C,D,d,v,,,,,,,,,,5,19,119,9,1,0,1,0,0,0,0,0,,,,,,,,,,,,,,001,72,2019_Oct_29_1001,ACPT_experiment_5_30_19,3.1.0,59.955461205471394,
,,,C,D,d,v,L,U,y,L,u,,,,,5,19,119,9,1,0,1,0,,,,,0,0,0,24,,,,,,down,0.8337021495990484,976.6560104876435,None,001,72,2019_Oct_29_1001,ACPT_experiment_5_30_19,3.1.0,59.955461205471394,
,,,C,D,d,v,R,D,g,L,i,,,,,5,19,119,9,1,0,1,0,,,,,0,1,1,2,,,,,,up,0.5337197477338123,978.7740257560636,None,001,72,2019_Oct_29_1001,ACPT_experiment_5_30_19,3.1.0,59.955461205471394,
,,,C,D,d,v,R,U,y,L,u,,,,,5,19,119,9,1,0,1,0,,,,,0,2,2,30,,,,,,down,0.6504759797535371,980.5920812617296,None,001,72,2019_Oct_29_1001,ACPT_experiment_5_30_19,3.1.0,59.955461205471394,
,,,C,D,d,v,R,U,g,L,u,,,,,5,19,119,9,1,0,1,0,,,,,0,3,3,10,,,,,,up,0.5837627469518338,982.5268721714319,None,001,72,2019_Oct_29_1001,ACPT_experiment_5_30_19,3.1.0,59.955461205471394,
,,,C,D,d,v,R,U,g,R,u,,,,,5,19,119,9,1,0,1,0,,,,,0,4,4,11,,,,,,up,0.8007474528740204,984.3781277817807,None,001,72,2019_Oct_29_1001,ACPT_experiment_5_30_19,3.1.0,59.955461205471394,
,,,C,D,d,v,R,D,d,L,c,,,,,5,19,119,9,1,0,1,0,,,,,0,5,5,0,,,,,,up,0.7338905371834699,986.4631928812978,None,001,72,2019_Oct_29_1001,ACPT_experiment_5_30_19,3.1.0,59.955461205471394,
,,,C,D,d,v,L,U,d,R,u,,,,,5,19,119,9,1,0,1,0,,,,,0,6,6,21,,,,,,up,0.8006028644213075,988.4813944243197,None,001,72,2019_Oct_29_1001,ACPT_experiment_5_30_19,3.1.0,59.955461205471394,
,,,C,D,d,v,R,U,d,L,u,,,,,5,19,119,9,1,0,1,0,,,,,0,7,7,8,,,,,,up,0.5003678100829347,990.566315237239,None,001,72,2019_Oct_29_1001,ACPT_experiment_5_30_19,3.1.0,59.955461205471394,
,,,C,D,d,v,L,D,y,L,y,,,,,5,19,119,9,1,0,1,0,,,,,0,8,8,32,,,,,,down,0.6838590084489624,992.3509934494496,None,001,72,2019_Oct_29_1001,ACPT_experiment_5_30_19,3.1.0,59.955461205471394,
,,,C,D,d,v,R,D,y,R,y,,,,,5,19,119,9,1,0,1,0,,,,,0,9,9,27,,,,,,down,0.6338024257656798,994.3358484882056,None,001,72,2019_Oct_29_1001,ACPT_experiment_5_30_19,3.1.0,59.955461205471394,
,,,C,D,d,v,L,G,y,R,y,,,,,5,19,119,9,1,0,1,0,,,,,0,10,10,35,,,,,,down,0.5670894948189016,996.2706463405693,None,001,72,2019_Oct_29_1001,ACPT_experiment_5_30_19,3.1.0,59.955461205471394,
,,,C,D,d,v,L,G,y,L,y,,,,,5,19,119,9,1,0,1,0,,,,,0,11,11,34,,,,,,down,0.6004471677115362,998.1387276397281,None,001,72,2019_Oct_29_1001,ACPT_experiment_5_30_19,3.1.0,59.955461205471394,
,,,C,D,d,v,L,D,y,R,y,,,,,5,19,119,9,1,0,1,0,,,,,0,12,12,33,,,,,,down,0.48370663214245724,1000.0235190173062,None,001,72,2019_Oct_29_1001,ACPT_experiment_5_30_19,3.1.0,59.955461205471394,
,,,C,D,d,v,R,G,g,R,c ,,,,,5,19,119,9,1,0,1,0,,,,,0,13,13,7,,,,,,up,0.7005081121969852,1001.8248756131807,None,001,72,2019_Oct_29_1001,ACPT_experiment_5_30_19,3.1.0,59.955461205471394,
,,,C,D,d,v,L,D,d,L,c ,,,,,5,19,119,9,1,0,1,0,,,,,0,14,14,12,,,,,,up,0.7839401772071142,1003.809704994279,None,001,72,2019_Oct_29_1001,ACPT_experiment_5_30_19,3.1.0,59.955461205471394,
,,,C,D,d,v,L,U,g,R,u,,,,,5,19,119,9,1,0,1,0,,,,,0,15,15,23,,,,,,up,0.600448676985252,1005.8779453105499,None,001,72,2019_Oct_29_1001,ACPT_experiment_5_30_19,3.1.0,59.955461205471394,
,,,C,D,d,v,R,D,y,L,y,,,,,5,19,119,9,1,0,1,0,,,,,0,16,16,26,,,,,,down,0.5170419677797327,1007.7627197842585,None,001,72,2019_Oct_29_1001,ACPT_experiment_5_30_19,3.1.0,59.955461205471394,
,,,C,D,d,v,R,G,d,L,i,,,,,5,19,119,9,1,0,1,0,,,,,0,17,17,4,,,,,,up,0.5170612864867508,1009.5640778894076,None,001,72,2019_Oct_29_1001,ACPT_experiment_5_30_19,3.1.0,59.955461205471394,
,,,C,D,d,v,R,U,y,R,u,,,,,5,19,119,9,1,0,1,0,,,,,0,18,18,31,,,,,,up,0.40035425680162007,1011.3654435409262,None,001,72,2019_Oct_29_1001,ACPT_experiment_5_30_19,3.1.0,59.955461205471394,
,,,C,D,d,v,L,D,g,R,i,,,,,5,19,119,9,1,0,1,0,,,,,0,19,19,15,,,,,,up,0.7503576224835342,1013.0502232065373,None,001,72,2019_Oct_29_1001,ACPT_experiment_5_30_19,3.1.0,59.955461205471394,
,,,C,D,d,v,L,G,d,R,i,,,,,5,19,119,9,1,0,1,0,,,,,0,20,20,17,,,,,,up,0.6667372000738396,1015.1020115302499,None,001,72,2019_Oct_29_1001,ACPT_experiment_5_30_19,3.1.0,59.955461205471394,
,,,C,D,d,v,R,D,d,R,c ,,,,,5,19,119,9,1,0,1,0,,,,,0,21,21,1,,,,,,up,0.5836643422844645,1017.0531013921245,None,001,72,2019_Oct_29_1001,ACPT_experiment_5_30_19,3.1.0,59.955461205471394,
,,,C,D,d,v,L,G,g,R,c ,,,,,5,19,119,9,1,0,1,0,,,,,0,22,22,19,,,,,,up,0.48369606722462777,1018.9211823894284,None,001,72,2019_Oct_29_1001,ACPT_experiment_5_30_19,3.1.0,59.955461205471394,
,,,C,D,d,v,L,D,g,L,i,,,,,5,19,119,9,1,0,1,0,,,,,0,23,23,14,,,,,,up,0.6171403422613366,1020.6891876513619,None,001,72,2019_Oct_29_1001,ACPT_experiment_5_30_19,3.1.0,59.955461205471394,
,,,C,D,d,v,L,G,g,L,c ,,,,,5,19,119,9,1,0,1,0,,,,,0,24,24,18,,,,,,up,0.6838759123183991,1022.5906399050245,None,001,72,2019_Oct_29_1001,ACPT_experiment_5_30_19,3.1.0,59.955461205471394,
,,,C,D,d,v,R,G,y,R,y,,,,,5,19,119,9,1,0,1,0,,,,,0,25,25,29,,,,,,down,0.6338226500383826,1024.5587839597983,None,001,72,2019_Oct_29_1001,ACPT_experiment_5_30_19,3.1.0,59.955461205471394,
,,,C,D,d,v,R,G,g,L,c ,,,,,5,19,119,9,1,0,1,0,,,,,0,26,26,6,,,,,,up,0.617134003310639,1026.4769209360766,None,001,72,2019_Oct_29_1001,ACPT_experiment_5_30_19,3.1.0,59.955461205471394,
,,,C,D,d,v,R,D,g,R,i,,,,,5,19,119,9,1,0,1,0,,,,,0,27,27,3,,,,,,up,0.5501460826344555,1028.3786345960025,None,001,72,2019_Oct_29_1001,ACPT_experiment_5_30_19,3.1.0,59.955461205471394,
,,,C,D,d,v,R,U,d,R,u,,,,,5,19,119,9,1,0,1,0,,,,,0,28,28,9,,,,,,up,0.500382902822821,1030.2130919863284,None,001,72,2019_Oct_29_1001,ACPT_experiment_5_30_19,3.1.0,59.955461205471394,
,,,C,D,d,v,L,D,d,R,c ,,,,,5,19,119,9,1,0,1,0,,,,,0,29,29,13,,,,,,up,0.483683993032173,1031.997794346924,None,001,72,2019_Oct_29_1001,ACPT_experiment_5_30_19,3.1.0,59.955461205471394,
,,,C,D,d,v,L,G,d,L,i,,,,,5,19,119,9,1,0,1,0,,,,,0,30,30,16,,,,,,up,0.6671730784146348,1033.765791760632,None,001,72,2019_Oct_29_1001,ACPT_experiment_5_30_19,3.1.0,59.955461205471394,
,,,C,D,d,v,R,G,d,R,i,,,,,5,19,119,9,1,0,1,0,,,,,0,31,31,5,,,,,,down,0.7338660869445448,1035.7172876172217,None,001,72,2019_Oct_29_1001,ACPT_experiment_5_30_19,3.1.0,59.955461205471394,
,,,C,D,d,v,R,G,y,L,y,,,,,5,19,119,9,1,0,1,0,,,,,0,32,32,28,,,,,,down,0.9673824750943822,1037.735491575082,None,001,72,2019_Oct_29_1001,ACPT_experiment_5_30_19,3.1.0,59.955461205471394,
,,,C,D,d,v,L,U,g,L,u,,,,,5,19,119,9,1,0,1,0,,,,,0,33,33,22,,,,,,up,0.7338893297646791,1039.9871841504491,None,001,72,2019_Oct_29_1001,ACPT_experiment_5_30_19,3.1.0,59.955461205471394,
,,,C,D,d,v,L,U,y,R,u,,,,,5,19,119,9,1,0,1,0,,,,,0,34,34,25,,,,,,down,1.81804886485952,1042.0053890138743,None,001,72,2019_Oct_29_1001,ACPT_experiment_5_30_19,3.1.0,59.955461205471394,
,,,C,D,d,v,L,U,d,L,u,,,,,5,19,119,9,1,0,1,0,,,,,0,35,35,20,,,,,,up,0.9007217650296298,1045.107745866023,None,001,72,2019_Oct_29_1001,ACPT_experiment_5_30_19,3.1.0,59.955461205471394,
,,,C,D,d,v,L,G,d,R,i,,,,,5,19,119,9,1,0,1,0,,,,,1,0,36,17,,,,,,down,0.7005219975180808,1047.2927345660883,None,001,72,2019_Oct_29_1001,ACPT_experiment_5_30_19,3.1.0,59.955461205471394,
,,,C,D,d,v,L,U,y,L,u,,,,,5,19,119,9,1,0,1,0,,,,,1,1,37,24,,,,,,down,0.5170781903570969,1049.2775733046856,None,001,72,2019_Oct_29_1001,ACPT_experiment_5_30_19,3.1.0,59.955461205471394,
,,,C,D,d,v,L,D,g,R,i,,,,,5,19,119,9,1,0,1,0,,,,,1,2,38,15,,,,,,up,0.48369063383779576,1051.0789501248328,None,001,72,2019_Oct_29_1001,ACPT_experiment_5_30_19,3.1.0,59.955461205471394,
,,,C,D,d,v,R,U,g,L,u,,,,,5,19,119,9,1,0,1,0,,,,,1,3,39,10,,,,,,up,0.6838451231287763,1052.846956896039,None,001,72,2019_Oct_29_1001,ACPT_experiment_5_30_19,3.1.0,59.955461205471394,
,,,C,D,d,v,L,U,d,L,u,,,,,5,19,119,9,1,0,1,0,,,,,1,4,40,20,,,,,,up,0.9173509463598748,1054.8151220806494,None,001,72,2019_Oct_29_1001,ACPT_experiment_5_30_19,3.1.0,59.955461205471394,
,,,C,D,d,v,L,D,d,R,c ,,,,,5,19,119,9,1,0,1,0,,,,,1,5,41,13,,,,,,down,0.6836446915358465,1057.0336368885892,None,001,72,2019_Oct_29_1001,ACPT_experiment_5_30_19,3.1.0,59.955461205471394,
,,,C,D,d,v,R,U,g,R,u,,,,,5,19,119,9,1,0,1,0,,,,,1,6,42,11,,,,,,up,0.6671516467240508,1059.001651447651,None,001,72,2019_Oct_29_1001,ACPT_experiment_5_30_19,3.1.0,59.955461205471394,
,,,C,D,d,v,R,D,d,L,c,,,,,5,19,119,9,1,0,1,0,,,,,1,7,43,0,,,,,,down,0.5837564080002267,1060.953127079969,None,001,72,2019_Oct_29_1001,ACPT_experiment_5_30_19,3.1.0,59.955461205471394,
,,,C,D,d,v,L,G,y,R,y,,,,,5,19,119,9,1,0,1,0,,,,,1,8,44,35,,,,,,down,0.5837847823522679,1062.8211821177592,None,001,72,2019_Oct_29_1001,ACPT_experiment_5_30_19,3.1.0,59.955461205471394,
,,,C,D,d,v,L,G,d,L,i,,,,,5,19,119,9,1,0,1,0,,,,,1,9,45,16,,,,,,up,0.7005358828391763,1064.6892788115138,None,001,72,2019_Oct_29_1001,ACPT_experiment_5_30_19,3.1.0,59.955461205471394,
,,,C,D,d,v,L,G,y,L,y,,,,,5,19,119,9,1,0,1,0,,,,,1,10,46,34,,,,,,down,0.55046816171307,1066.6741263039003,None,001,72,2019_Oct_29_1001,ACPT_experiment_5_30_19,3.1.0,59.955461205471394,
,,,C,D,d,v,L,U,g,R,u,,,,,5,19,119,9,1,0,1,0,,,,,1,11,47,23,,,,,,up,0.6838424064353603,1068.508857476536,None,001,72,2019_Oct_29_1001,ACPT_experiment_5_30_19,3.1.0,59.955461205471394,
,,,C,D,d,v,R,U,y,L,u,,,,,5,19,119,9,1,0,1,0,,,,,1,12,48,30,,,,,,down,0.6838421045804353,1070.4936956114234,None,001,72,2019_Oct_29_1001,ACPT_experiment_5_30_19,3.1.0,59.955461205471394,
,,,C,D,d,v,R,D,g,R,i,,,,,5,19,119,9,1,0,1,0,,,,,1,13,49,3,,,,,,up,0.7005259216302875,1072.4785385759878,None,001,72,2019_Oct_29_1001,ACPT_experiment_5_30_19,3.1.0,59.955461205471394,
,,,C,D,d,v,L,G,g,R,c ,,,,,5,19,119,9,1,0,1,0,,,,,1,14,50,19,,,,,,up,0.5337375571671146,1074.4633764090204,None,001,72,2019_Oct_29_1001,ACPT_experiment_5_30_19,3.1.0,59.955461205471394,
,,,C,D,d,v,R,G,g,L,c ,,,,,5,19,119,9,1,0,1,0,,,,,1,15,51,6,,,,,,up,0.5168234248985755,1076.2983732138873,None,001,72,2019_Oct_29_1001,ACPT_experiment_5_30_19,3.1.0,59.955461205471394,
,,,C,D,d,v,L,D,y,R,y,,,,,5,19,119,9,1,0,1,0,,,,,1,16,52,33,,,,,,down,0.7005081121978947,1078.1161558428075,None,001,72,2019_Oct_29_1001,ACPT_experiment_5_30_19,3.1.0,59.955461205471394,
,,,C,D,d,v,R,G,d,R,i,,,,,5,19,119,9,1,0,1,0,,,,,1,17,53,5,,,,,,up,0.9340302355885797,1080.1176741724876,None,001,72,2019_Oct_29_1001,ACPT_experiment_5_30_19,3.1.0,59.955461205471394,
,,,C,D,d,v,R,U,d,R,u,,,,,5,19,119,9,1,0,1,0,,,,,1,18,54,9,,,,,,down,2.9188904058773915,1082.336013602785,None,001,72,2019_Oct_29_1001,ACPT_experiment_5_30_19,3.1.0,59.955461205471394,
,,,C,D,d,v,L,U,g,L,u,,,,,5,19,119,9,1,0,1,0,,,,,1,19,55,22,,,,,,up,0.6171343051646545,1086.53921441079,None,001,72,2019_Oct_29_1001,ACPT_experiment_5_30_19,3.1.0,59.955461205471394,
,,,C,D,d,v,R,G,y,L,y,,,,,5,19,119,9,1,0,1,0,,,,,1,20,56,28,,,,,,down,0.8006152404677778,1088.4406564013898,None,001,72,2019_Oct_29_1001,ACPT_experiment_5_30_19,3.1.0,59.955461205471394,
,,,C,D,d,v,L,D,g,L,i,,,,,5,19,119,9,1,0,1,0,,,,,1,21,57,14,,,,,,up,1.2342704214588593,1090.5255766105993,None,001,72,2019_Oct_29_1001,ACPT_experiment_5_30_19,3.1.0,59.955461205471394,
,,,C,D,d,v,R,G,g,R,c ,,,,,5,19,119,9,1,0,1,0,,,,,1,22,58,7,,,,,,up,0.7172052108589924,1093.0441580378956,None,001,72,2019_Oct_29_1001,ACPT_experiment_5_30_19,3.1.0,59.955461205471394,
,,,C,D,d,v,R,U,d,L,u,,,,,5,19,119,9,1,0,1,0,,,,,1,23,59,8,,,,,,up,0.6338787950317055,1095.045679084269,None,001,72,2019_Oct_29_1001,ACPT_experiment_5_30_19,3.1.0,59.955461205471394,
,,,C,D,d,v,L,D,d,L,c ,,,,,5,19,119,9,1,0,1,0,,,,,1,24,60,12,,,,,,up,0.6171300791975227,1096.963803382646,None,001,72,2019_Oct_29_1001,ACPT_experiment_5_30_19,3.1.0,59.955461205471394,
,,,C,D,d,v,R,D,y,L,y,,,,,5,19,119,9,1,0,1,0,,,,,1,25,61,26,,,,,,down,0.5166782327369219,1098.8823388072697,None,001,72,2019_Oct_29_1001,ACPT_experiment_5_30_19,3.1.0,59.955461205471394,
,,,C,D,d,v,R,D,d,R,c ,,,,,5,19,119,9,1,0,1,0,,,,,1,26,62,1,,,,,,up,0.5503190454383002,1100.6666819606435,None,001,72,2019_Oct_29_1001,ACPT_experiment_5_30_19,3.1.0,59.955461205471394,
,,,C,D,d,v,L,U,d,R,u,,,,,5,19,119,9,1,0,1,0,,,,,1,27,63,21,,,,,,up,0.5504126204286877,1102.5013446122393,None,001,72,2019_Oct_29_1001,ACPT_experiment_5_30_19,3.1.0,59.955461205471394,
,,,C,D,d,v,R,D,g,L,i,,,,,5,19,119,9,1,0,1,0,,,,,1,28,64,2,,,,,,up,0.6671422892241026,1104.3360938961641,None,001,72,2019_Oct_29_1001,ACPT_experiment_5_30_19,3.1.0,59.955461205471394,
,,,C,D,d,v,R,D,y,R,y,,,,,5,19,119,9,1,0,1,0,,,,,1,29,65,27,,,,,,down,0.6171361162932953,1106.2875487005003,None,001,72,2019_Oct_29_1001,ACPT_experiment_5_30_19,3.1.0,59.955461205471394,
,,,C,D,d,v,R,G,d,L,i,,,,,5,19,119,9,1,0,1,0,,,,,1,30,66,4,,,,,,up,0.7505625818967019,1108.1890024634376,None,001,72,2019_Oct_29_1001,ACPT_experiment_5_30_19,3.1.0,59.955461205471394,
,,,C,D,d,v,L,D,y,L,y,,,,,5,19,119,9,1,0,1,0,,,,,1,31,67,32,,,,,,down,0.7005349772744012,1110.2238675992376,None,001,72,2019_Oct_29_1001,ACPT_experiment_5_30_19,3.1.0,59.955461205471394,
,,,C,D,d,v,R,U,y,R,u,,,,,5,19,119,9,1,0,1,0,,,,,1,32,68,31,,,,,,down,0.6502354014710363,1112.2256461277611,None,001,72,2019_Oct_29_1001,ACPT_experiment_5_30_19,3.1.0,59.955461205471394,
,,,C,D,d,v,L,G,g,L,c ,,,,,5,19,119,9,1,0,1,0,,,,,1,33,69,18,,,,,,up,0.5837790471105109,1114.1601979684574,None,001,72,2019_Oct_29_1001,ACPT_experiment_5_30_19,3.1.0,59.955461205471394,
,,,C,D,d,v,R,G,y,R,y,,,,,5,19,119,9,1,0,1,0,,,,,1,34,70,29,,,,,,down,1.0673006422566687,1116.0451052582812,None,001,72,2019_Oct_29_1001,ACPT_experiment_5_30_19,3.1.0,59.955461205471394,
,,,C,D,d,v,L,U,y,R,u,,,,,5,19,119,9,1,0,1,0,,,,,1,35,71,25,,,,,,down,0.6171303810524478,1118.3967482992748,None,001,72,2019_Oct_29_1001,ACPT_experiment_5_30_19,3.1.0,59.955461205471394,
,,,C,D,d,v,,,,,,,,,,5,19,119,9,2,0,2,0,0,0,0,0,,,,,,,,,,,,,,001,72,2019_Oct_29_1001,ACPT_experiment_5_30_19,3.1.0,59.955461205471394,
,,,C,D,d,v,L,G,y,L,y,,,,,5,19,119,9,2,0,2,0,,,,,0,0,0,34,,,,,,down,0.6171167975862772,1138.4953690944749,None,001,72,2019_Oct_29_1001,ACPT_experiment_5_30_19,3.1.0,59.955461205471394,
,,,C,D,d,v,L,D,y,L,y,,,,,5,19,119,9,2,0,2,0,,,,,0,1,1,32,,,,,,down,0.567107606107129,1140.3967978034634,None,001,72,2019_Oct_29_1001,ACPT_experiment_5_30_19,3.1.0,59.955461205471394,
,,,C,D,d,v,R,D,g,R,i,,,,,5,19,119,9,2,0,2,0,,,,,0,2,2,3,,,,,,up,0.6671824359136735,1142.248206756054,None,001,72,2019_Oct_29_1001,ACPT_experiment_5_30_19,3.1.0,59.955461205471394,
,,,C,D,d,v,R,U,g,L,u,,,,,5,19,119,9,2,0,2,0,,,,,0,3,3,10,,,,,,up,0.5170431751985234,1144.1830118529333,None,001,72,2019_Oct_29_1001,ACPT_experiment_5_30_19,3.1.0,59.955461205471394,
,,,C,D,d,v,R,U,y,R,u,,,,,5,19,119,9,2,0,2,0,,,,,0,4,4,31,,,,,,down,0.7336152456000491,1146.0013245388946,None,001,72,2019_Oct_29_1001,ACPT_experiment_5_30_19,3.1.0,59.955461205471394,
,,,C,D,d,v,L,G,g,L,c ,,,,,5,19,119,9,2,0,2,0,,,,,0,5,5,18,,,,,,up,0.6171472849218844,1148.0192522996058,None,001,72,2019_Oct_29_1001,ACPT_experiment_5_30_19,3.1.0,59.955461205471394,
,,,C,D,d,v,R,G,d,L,i,,,,,5,19,119,9,2,0,2,0,,,,,0,6,6,4,,,,,,up,1.0674654549811748,1149.9207075718168,None,001,72,2019_Oct_29_1001,ACPT_experiment_5_30_19,3.1.0,59.955461205471394,
,,,C,D,d,v,R,G,g,L,c ,,,,,5,19,119,9,2,0,2,0,,,,,0,7,7,6,,,,,,up,0.5338824474747526,1152.2558029322781,None,001,72,2019_Oct_29_1001,ACPT_experiment_5_30_19,3.1.0,59.955461205471394,
,,,C,D,d,v,L,G,d,L,i,,,,,5,19,119,9,2,0,2,0,,,,,0,8,8,16,,,,,,up,0.5504240909112923,1154.0738584379442,None,001,72,2019_Oct_29_1001,ACPT_experiment_5_30_19,3.1.0,59.955461205471394,
,,,C,D,d,v,L,U,g,L,u,,,,,5,19,119,9,2,0,2,0,,,,,0,9,9,22,,,,,,up,0.6004519973885181,1155.9085784419522,None,001,72,2019_Oct_29_1001,ACPT_experiment_5_30_19,3.1.0,59.955461205471394,
,,,C,D,d,v,R,D,g,L,i,,,,,5,19,119,9,2,0,2,0,,,,,0,10,10,2,,,,,,up,0.5170540419721874,1157.7933459730002,None,001,72,2019_Oct_29_1001,ACPT_experiment_5_30_19,3.1.0,59.955461205471394,
,,,C,D,d,v,R,D,y,R,y,,,,,5,19,119,9,2,0,2,0,,,,,0,11,11,27,,,,,,down,0.800605882968739,1159.5947125300836,None,001,72,2019_Oct_29_1001,ACPT_experiment_5_30_19,3.1.0,59.955461205471394,
,,,C,D,d,v,R,G,y,R,y,,,,,5,19,119,9,2,0,2,0,,,,,0,12,12,29,,,,,,down,0.5337330293450577,1161.679633041148,None,001,72,2019_Oct_29_1001,ACPT_experiment_5_30_19,3.1.0,59.955461205471394,
,,,C,D,d,v,R,G,y,L,y,,,,,5,19,119,9,2,0,2,0,,,,,0,13,13,28,,,,,,down,1.3510200126711425,1163.4976810004437,None,001,72,2019_Oct_29_1001,ACPT_experiment_5_30_19,3.1.0,59.955461205471394,
,,,C,D,d,v,L,G,d,R,i,,,,,5,19,119,9,2,0,2,0,,,,,0,14,14,17,,,,,,up,0.7839136139846232,1166.1330280172579,None,001,72,2019_Oct_29_1001,ACPT_experiment_5_30_19,3.1.0,59.955461205471394,
,,,C,D,d,v,L,G,g,R,c ,,,,,5,19,119,9,2,0,2,0,,,,,0,15,15,19,,,,,,up,0.5337598944233832,1168.1845504068851,None,001,72,2019_Oct_29_1001,ACPT_experiment_5_30_19,3.1.0,59.955461205471394,
,,,C,D,d,v,R,U,g,R,u,,,,,5,19,119,9,2,0,2,0,,,,,0,16,16,11,,,,,,up,0.6338178203604912,1170.0026188923075,None,001,72,2019_Oct_29_1001,ACPT_experiment_5_30_19,3.1.0,59.955461205471394,
,,,C,D,d,v,R,D,d,R,c ,,,,,5,19,119,9,2,0,2,0,,,,,0,17,17,1,,,,,,up,0.5504083944615559,1171.9207477185064,None,001,72,2019_Oct_29_1001,ACPT_experiment_5_30_19,3.1.0,59.955461205471394,
,,,C,D,d,v,L,U,y,L,u,,,,,5,19,119,9,2,0,2,0,,,,,0,18,18,24,,,,,,down,0.4336591051023788,1173.7554704392078,None,001,72,2019_Oct_29_1001,ACPT_experiment_5_30_19,3.1.0,59.955461205471394,
,,,C,D,d,v,L,D,d,R,c ,,,,,5,19,119,9,2,0,2,0,,,,,0,19,19,13,,,,,,down,0.8005941106321188,1175.4734453798255,None,001,72,2019_Oct_29_1001,ACPT_experiment_5_30_19,3.1.0,59.955461205471394,
,,,C,D,d,v,R,U,d,L,u,,,,,5,19,119,9,2,0,2,0,,,,,0,20,20,8,,,,,,up,1.1675360588205876,1177.5750500097956,None,001,72,2019_Oct_29_1001,ACPT_experiment_5_30_19,3.1.0,59.955461205471394,
,,,C,D,d,v,R,G,g,R,c ,,,,,5,19,119,9,2,0,2,0,,,,,0,21,21,7,,,,,,up,0.7005307513072694,1180.026900696711,None,001,72,2019_Oct_29_1001,ACPT_experiment_5_30_19,3.1.0,59.955461205471394,
,,,C,D,d,v,R,D,y,L,y,,,,,5,19,119,9,2,0,2,0,,,,,0,22,22,26,,,,,,down,0.6838689696578513,1182.0117204184553,None,001,72,2019_Oct_29_1001,ACPT_experiment_5_30_19,3.1.0,59.955461205471394,
,,,C,D,d,v,L,U,g,R,u,,,,,5,19,119,9,2,0,2,0,,,,,0,23,23,23,,,,,,up,0.550175664404378,1183.9968205633159,None,001,72,2019_Oct_29_1001,ACPT_experiment_5_30_19,3.1.0,59.955461205471394,
,,,C,D,d,v,L,D,y,R,y,,,,,5,19,119,9,2,0,2,0,,,,,0,24,24,33,,,,,,down,0.5837684821917719,1185.8313093465422,None,001,72,2019_Oct_29_1001,ACPT_experiment_5_30_19,3.1.0,59.955461205471394,
,,,C,D,d,v,R,U,y,L,u,,,,,5,19,119,9,2,0,2,0,,,,,0,25,25,30,,,,,,down,0.6338087647163775,1187.6993942679583,None,001,72,2019_Oct_29_1001,ACPT_experiment_5_30_19,3.1.0,59.955461205471394,
,,,C,D,d,v,L,D,d,L,c ,,,,,5,19,119,9,2,0,2,0,,,,,0,26,26,12,,,,,,up,1.401072973098053,1189.6175173589154,None,001,72,2019_Oct_29_1001,ACPT_experiment_5_30_19,3.1.0,59.955461205471394,
,,,C,D,d,v,L,D,g,L,i,,,,,5,19,119,9,2,0,2,0,,,,,0,27,27,14,,,,,,up,0.6171349088745046,1192.286212992978,None,001,72,2019_Oct_29_1001,ACPT_experiment_5_30_19,3.1.0,59.955461205471394,
,,,C,D,d,v,L,U,y,R,u,,,,,5,19,119,9,2,0,2,0,,,,,0,28,28,25,,,,,,down,0.7837611773065873,1194.1877887052578,None,001,72,2019_Oct_29_1001,ACPT_experiment_5_30_19,3.1.0,59.955461205471394,
,,,C,D,d,v,L,G,y,R,y,,,,,5,19,119,9,2,0,2,0,,,,,0,29,29,35,,,,,,down,0.6171490960505253,1196.255875075577,None,001,72,2019_Oct_29_1001,ACPT_experiment_5_30_19,3.1.0,59.955461205471394,
,,,C,D,d,v,L,U,d,L,u,,,,,5,19,119,9,2,0,2,0,,,,,0,30,30,20,,,,,,up,0.8673474901224836,1198.157316160612,None,001,72,2019_Oct_29_1001,ACPT_experiment_5_30_19,3.1.0,59.955461205471394,
,,,C,D,d,v,L,U,d,R,u,,,,,5,19,119,9,2,0,2,0,,,,,0,31,31,21,,,,,,down,0.7339068373439659,1200.3089541304453,None,001,72,2019_Oct_29_1001,ACPT_experiment_5_30_19,3.1.0,59.955461205471394,
,,,C,D,d,v,R,U,d,R,u,,,,,5,19,119,9,2,0,2,0,,,,,0,32,32,9,,,,,,up,0.8006004495828165,1202.327175595884,None,001,72,2019_Oct_29_1001,ACPT_experiment_5_30_19,3.1.0,59.955461205471394,
,,,C,D,d,v,L,D,g,R,i,,,,,5,19,119,9,2,0,2,0,,,,,0,33,33,15,,,,,,up,0.6338078591525118,1204.4120909754165,None,001,72,2019_Oct_29_1001,ACPT_experiment_5_30_19,3.1.0,59.955461205471394,
,,,C,D,d,v,R,D,d,L,c,,,,,5,19,119,9,2,0,2,0,,,,,0,34,34,0,,,,,,down,0.8005992421640258,1206.3302188960506,None,001,72,2019_Oct_29_1001,ACPT_experiment_5_30_19,3.1.0,59.955461205471394,
,,,C,D,d,v,R,G,d,R,i,,,,,5,19,119,9,2,0,2,0,,,,,0,35,35,5,,,,,,up,0.7172166813425065,1208.4151360867127,None,001,72,2019_Oct_29_1001,ACPT_experiment_5_30_19,3.1.0,59.955461205471394,
,,,C,D,d,v,R,G,d,L,i,,,,,5,19,119,9,2,0,2,0,,,,,1,0,36,4,,,,,,down,0.8837632601043879,1210.4335809247086,None,001,72,2019_Oct_29_1001,ACPT_experiment_5_30_19,3.1.0,59.955461205471394,
,,,C,D,d,v,L,G,d,L,i,,,,,5,19,119,9,2,0,2,0,,,,,1,1,37,16,,,,,,down,0.46700470380346815,1212.601657605489,None,001,72,2019_Oct_29_1001,ACPT_experiment_5_30_19,3.1.0,59.955461205471394,
,,,C,D,d,v,L,D,g,R,i,,,,,5,19,119,9,2,0,2,0,,,,,1,2,38,15,,,,,,up,0.5170513252778619,1214.3529769373872,None,001,72,2019_Oct_29_1001,ACPT_experiment_5_30_19,3.1.0,59.955461205471394,
,,,C,D,d,v,R,G,y,L,y,,,,,5,19,119,9,2,0,2,0,,,,,1,3,39,28,,,,,,down,0.6338286871341552,1216.154321760925,None,001,72,2019_Oct_29_1001,ACPT_experiment_5_30_19,3.1.0,59.955461205471394,
,,,C,D,d,v,R,D,g,L,i,,,,,5,19,119,9,2,0,2,0,,,,,1,4,40,2,,,,,,up,0.7338866130712631,1218.0724662835728,None,001,72,2019_Oct_29_1001,ACPT_experiment_5_30_19,3.1.0,59.955461205471394,
,,,C,D,d,v,R,U,d,L,u,,,,,5,19,119,9,2,0,2,0,,,,,1,5,41,8,,,,,,up,0.6838499528048487,1220.0906702414331,None,001,72,2019_Oct_29_1001,ACPT_experiment_5_30_19,3.1.0,59.955461205471394,
,,,C,D,d,v,L,D,g,L,i,,,,,5,19,119,9,2,0,2,0,,,,,1,6,42,14,,,,,,up,0.5003759601622733,1222.0588299926558,None,001,72,2019_Oct_29_1001,ACPT_experiment_5_30_19,3.1.0,59.955461205471394,
,,,C,D,d,v,L,D,y,L,y,,,,,5,19,119,9,2,0,2,0,,,,,1,7,43,32,,,,,,down,0.6338114814097935,1223.8435163549466,None,001,72,2019_Oct_29_1001,ACPT_experiment_5_30_19,3.1.0,59.955461205471394,
,,,C,D,d,v,L,G,g,R,c ,,,,,5,19,119,9,2,0,2,0,,,,,1,8,44,19,,,,,,up,0.5504153371221037,1225.7616439737258,None,001,72,2019_Oct_29_1001,ACPT_experiment_5_30_19,3.1.0,59.955461205471394,
,,,C,D,d,v,R,D,y,L,y,,,,,5,19,119,9,2,0,2,0,,,,,1,9,45,26,,,,,,down,0.700547655176706,1227.596347677575,None,001,72,2019_Oct_29_1001,ACPT_experiment_5_30_19,3.1.0,59.955461205471394,
,,,C,D,d,v,R,D,g,R,i,,,,,5,19,119,9,2,0,2,0,,,,,1,10,46,3,,,,,,up,0.4970477090573695,1229.601213878922,None,001,72,2019_Oct_29_1001,ACPT_experiment_5_30_19,3.1.0,59.955461205471394,
,,,C,D,d,v,L,U,y,R,u,,,,,5,19,119,9,2,0,2,0,,,,,1,11,47,25,,,,,,down,0.6671691543024281,1231.399258825707,None,001,72,2019_Oct_29_1001,ACPT_experiment_5_30_19,3.1.0,59.955461205471394,
,,,C,D,d,v,R,G,g,R,c ,,,,,5,19,119,9,2,0,2,0,,,,,1,12,48,7,,,,,,up,0.4336246936554744,1233.3674388012023,None,001,72,2019_Oct_29_1001,ACPT_experiment_5_30_19,3.1.0,59.955461205471394,
,,,C,D,d,v,R,D,d,R,c ,,,,,5,19,119,9,2,0,2,0,,,,,1,13,49,1,,,,,,up,0.6505583861153355,1235.0853726895657,None,001,72,2019_Oct_29_1001,ACPT_experiment_5_30_19,3.1.0,59.955461205471394,
,,,C,D,d,v,L,U,g,R,u,,,,,5,19,119,9,2,0,2,0,,,,,1,14,50,23,,,,,,up,0.4837181026250619,1237.020172654913,None,001,72,2019_Oct_29_1001,ACPT_experiment_5_30_19,3.1.0,59.955461205471394,
,,,C,D,d,v,R,U,g,L,u,,,,,5,19,119,9,2,0,2,0,,,,,1,15,51,10,,,,,,up,0.6171273625041067,1238.7882050837788,None,001,72,2019_Oct_29_1001,ACPT_experiment_5_30_19,3.1.0,59.955461205471394,
,,,C,D,d,v,L,G,y,L,y,,,,,5,19,119,9,2,0,2,0,,,,,1,16,52,34,,,,,,down,0.7170926190156024,1240.6896485836523,None,001,72,2019_Oct_29_1001,ACPT_experiment_5_30_19,3.1.0,59.955461205471394,
,,,C,D,d,v,L,D,d,R,c ,,,,,5,19,119,9,2,0,2,0,,,,,1,17,53,13,,,,,,up,0.6836063559758259,1242.7080913086647,None,001,72,2019_Oct_29_1001,ACPT_experiment_5_30_19,3.1.0,59.955461205471394,
,,,C,D,d,v,L,D,d,L,c ,,,,,5,19,119,9,2,0,2,0,,,,,1,18,54,12,,,,,,up,0.7672406637057065,1244.6760110853165,None,001,72,2019_Oct_29_1001,ACPT_experiment_5_30_19,3.1.0,59.955461205471394,
,,,C,D,d,v,L,U,d,L,u,,,,,5,19,119,9,2,0,2,0,,,,,1,19,55,20,,,,,,up,0.7505788820562884,1246.7275633585696,None,001,72,2019_Oct_29_1001,ACPT_experiment_5_30_19,3.1.0,59.955461205471394,
,,,C,D,d,v,L,U,g,L,u,,,,,5,19,119,9,2,0,2,0,,,,,1,20,56,22,,,,,,up,0.5671142469127517,1248.7457440736098,None,001,72,2019_Oct_29_1001,ACPT_experiment_5_30_19,3.1.0,59.955461205471394,
,,,C,D,d,v,L,U,d,R,u,,,,,5,19,119,9,2,0,2,0,,,,,1,21,57,21,,,,,,up,1.4010850472895982,1250.5804752462464,None,001,72,2019_Oct_29_1001,ACPT_experiment_5_30_19,3.1.0,59.955461205471394,
,,,C,D,d,v,L,U,y,L,u,,,,,5,19,119,9,2,0,2,0,,,,,1,22,58,24,,,,,,down,0.7172381130330905,1253.2491633339387,None,001,72,2019_Oct_29_1001,ACPT_experiment_5_30_19,3.1.0,59.955461205471394,
,,,C,D,d,v,R,G,y,R,y,,,,,5,19,119,9,2,0,2,0,,,,,1,23,59,29,,,,,,down,1.233887367708121,1255.2677195563583,None,001,72,2019_Oct_29_1001,ACPT_experiment_5_30_19,3.1.0,59.955461205471394,
,,,C,D,d,v,R,D,y,R,y,,,,,5,19,119,9,2,0,2,0,,,,,1,24,60,27,,,,,,down,0.7839054639034657,1257.7859864509455,None,001,72,2019_Oct_29_1001,ACPT_experiment_5_30_19,3.1.0,59.955461205471394,
,,,C,D,d,v,R,U,d,R,u,,,,,5,19,119,9,2,0,2,0,,,,,1,25,61,9,,,,,,up,0.7172734300456796,1259.854214994879,None,001,72,2019_Oct_29_1001,ACPT_experiment_5_30_19,3.1.0,59.955461205471394,
,,,C,D,d,v,R,U,g,R,u,,,,,5,19,119,9,2,0,2,0,,,,,1,26,62,11,,,,,,up,0.917384150388898,1261.839021435012,None,001,72,2019_Oct_29_1001,ACPT_experiment_5_30_19,3.1.0,59.955461205471394,
,,,C,D,d,v,L,D,y,R,y,,,,,5,19,119,9,2,0,2,0,,,,,1,27,63,33,,,,,,down,0.6336167850595302,1264.0575410726296,None,001,72,2019_Oct_29_1001,ACPT_experiment_5_30_19,3.1.0,59.955461205471394,
,,,C,D,d,v,R,G,g,L,c ,,,,,5,19,119,9,2,0,2,0,,,,,1,28,64,6,,,,,,up,1.0007431665353579,1265.9922208997632,None,001,72,2019_Oct_29_1001,ACPT_experiment_5_30_19,3.1.0,59.955461205471394,
,,,C,D,d,v,R,U,y,R,u,,,,,5,19,119,9,2,0,2,0,,,,,1,29,65,31,,,,,,down,0.950736088040685,1268.2772838259252,None,001,72,2019_Oct_29_1001,ACPT_experiment_5_30_19,3.1.0,59.955461205471394,
,,,C,D,d,v,R,D,d,L,c,,,,,5,19,119,9,2,0,2,0,,,,,1,30,66,0,,,,,,down,0.9005841192374646,1270.5122859434368,None,001,72,2019_Oct_29_1001,ACPT_experiment_5_30_19,3.1.0,59.955461205471394,
,,,C,D,d,v,L,G,y,R,y,,,,,5,19,119,9,2,0,2,0,,,,,1,31,67,35,,,,,,down,0.8673136823836103,1272.7306531443764,None,001,72,2019_Oct_29_1001,ACPT_experiment_5_30_19,3.1.0,59.955461205471394,
,,,C,D,d,v,L,G,g,L,c ,,,,,5,19,119,9,2,0,2,0,,,,,1,32,68,18,,,,,,up,1.6477964146288286,1274.9190923467431,None,001,72,2019_Oct_29_1001,ACPT_experiment_5_30_19,3.1.0,59.955461205471394,
,,,C,D,d,v,R,G,d,R,i,,,,,5,19,119,9,2,0,2,0,,,,,1,33,69,5,,,,,,up,1.6512351445935565,1277.8512242174493,None,001,72,2019_Oct_29_1001,ACPT_experiment_5_30_19,3.1.0,59.955461205471394,
,,,C,D,d,v,L,G,d,R,i,,,,,5,19,119,9,2,0,2,0,,,,,1,34,70,17,,,,,,up,0.46701496686637256,1280.7700916823605,None,001,72,2019_Oct_29_1001,ACPT_experiment_5_30_19,3.1.0,59.955461205471394,
,,,C,D,d,v,R,U,y,L,u,,,,,5,19,119,9,2,0,2,0,,,,,1,35,71,30,,,,,,down,0.8838085383249563,1282.5382650774218,None,001,72,2019_Oct_29_1001,ACPT_experiment_5_30_19,3.1.0,59.955461205471394,
,,,C,D,d,v,,,,,,,,,,5,19,119,9,3,0,3,0,0,0,0,0,,,,,,,,,,,,,,001,72,2019_Oct_29_1001,ACPT_experiment_5_30_19,3.1.0,59.955461205471394,
,,,C,D,d,v,L,D,d,R,c ,,,,,5,19,119,9,3,0,3,0,,,,,0,0,0,13,,,,,,up,1.6511391547637686,1286.824692387313,None,001,72,2019_Oct_29_1001,ACPT_experiment_5_30_19,3.1.0,59.955461205471394,
,,,C,D,d,v,R,U,y,R,u,,,,,5,19,119,9,3,0,3,0,,,,,0,1,1,31,,,,,,down,0.597124953702405,1289.7802623782354,None,001,72,2019_Oct_29_1001,ACPT_experiment_5_30_19,3.1.0,59.955461205471394,
,,,C,D,d,v,L,D,d,L,c ,,,,,5,19,119,9,3,0,3,0,,,,,0,2,2,12,,,,,,down,0.7338881223449789,1291.6616926025354,None,001,72,2019_Oct_29_1001,ACPT_experiment_5_30_19,3.1.0,59.955461205471394,
,,,C,D,d,v,R,G,g,R,c ,,,,,5,19,119,9,3,0,3,0,,,,,0,3,3,7,,,,,,up,0.6171623776626802,1293.6798748268484,None,001,72,2019_Oct_29_1001,ACPT_experiment_5_30_19,3.1.0,59.955461205471394,
,,,C,D,d,v,R,D,y,R,y,,,,,5,19,119,9,3,0,3,0,,,,,0,4,4,27,,,,,,down,0.6171309847622979,1295.5813445880904,None,001,72,2019_Oct_29_1001,ACPT_experiment_5_30_19,3.1.0,59.955461205471394,
,,,C,D,d,v,R,G,g,L,c ,,,,,5,19,119,9,3,0,3,0,,,,,0,5,5,6,,,,,,up,0.6838538769170555,1297.4827877861098,None,001,72,2019_Oct_29_1001,ACPT_experiment_5_30_19,3.1.0,59.955461205471394,
,,,C,D,d,v,R,G,y,L,y,,,,,5,19,119,9,3,0,3,0,,,,,0,6,6,28,,,,,,down,0.7672633028169003,1299.4509321427377,None,001,72,2019_Oct_29_1001,ACPT_experiment_5_30_19,3.1.0,59.955461205471394,
,,,C,D,d,v,R,G,d,R,i,,,,,5,19,119,9,3,0,3,0,,,,,0,7,7,5,,,,,,up,0.5504089981704965,1301.519189362878,None,001,72,2019_Oct_29_1001,ACPT_experiment_5_30_19,3.1.0,59.955461205471394,
,,,C,D,d,v,R,G,d,L,i,,,,,5,19,119,9,3,0,3,0,,,,,0,8,8,4,,,,,,up,0.6338093684262276,1303.3372364166098,None,001,72,2019_Oct_29_1001,ACPT_experiment_5_30_19,3.1.0,59.955461205471394,
,,,C,D,d,v,L,U,y,L,u,,,,,5,19,119,9,3,0,3,0,,,,,0,9,9,24,,,,,,down,0.5504053759132148,1305.2553682613561,None,001,72,2019_Oct_29_1001,ACPT_experiment_5_30_19,3.1.0,59.955461205471394,
,,,C,D,d,v,L,G,g,R,c ,,,,,5,19,119,9,3,0,3,0,,,,,0,10,10,19,,,,,,up,0.6004447528730452,1307.0900973210091,None,001,72,2019_Oct_29_1001,ACPT_experiment_5_30_19,3.1.0,59.955461205471394,
,,,C,D,d,v,L,G,y,L,y,,,,,5,19,119,9,3,0,3,0,,,,,0,11,11,34,,,,,,down,0.4636936584229261,1308.994847338441,None,001,72,2019_Oct_29_1001,ACPT_experiment_5_30_19,3.1.0,59.955461205471394,
,,,C,D,d,v,L,G,g,L,c ,,,,,5,19,119,9,3,0,3,0,,,,,0,12,12,18,,,,,,up,0.6338404594716849,1310.7428507952818,None,001,72,2019_Oct_29_1001,ACPT_experiment_5_30_19,3.1.0,59.955461205471394,
,,,C,D,d,v,L,U,d,L,u,,,,,5,19,119,9,3,0,3,0,,,,,0,13,13,20,,,,,,up,0.5670864762705605,1312.6609856585765,None,001,72,2019_Oct_29_1001,ACPT_experiment_5_30_19,3.1.0,59.955461205471394,
,,,C,D,d,v,R,U,d,R,u,,,,,5,19,119,9,3,0,3,0,,,,,0,14,14,9,,,,,,up,0.6171819982246234,1314.4956872494422,None,001,72,2019_Oct_29_1001,ACPT_experiment_5_30_19,3.1.0,59.955461205471394,
,,,C,D,d,v,L,G,d,R,i,,,,,5,19,119,9,3,0,3,0,,,,,0,15,15,17,,,,,,up,0.7172040034402016,1316.3971551995546,None,001,72,2019_Oct_29_1001,ACPT_experiment_5_30_19,3.1.0,59.955461205471394,
,,,C,D,d,v,L,U,y,R,u,,,,,5,19,119,9,3,0,3,0,,,,,0,16,16,25,,,,,,down,0.6505140134586327,1318.398652097544,None,001,72,2019_Oct_29_1001,ACPT_experiment_5_30_19,3.1.0,59.955461205471394,
,,,C,D,d,v,R,G,y,R,y,,,,,5,19,119,9,3,0,3,0,,,,,0,17,17,29,,,,,,down,0.7172314722274677,1320.3334611185355,None,001,72,2019_Oct_29_1001,ACPT_experiment_5_30_19,3.1.0,59.955461205471394,
,,,C,D,d,v,L,G,d,L,i,,,,,5,19,119,9,3,0,3,0,,,,,0,18,18,16,,,,,,up,0.6836302025049008,1322.3519210492714,None,001,72,2019_Oct_29_1001,ACPT_experiment_5_30_19,3.1.0,59.955461205471394,
,,,C,D,d,v,R,D,g,R,i,,,,,5,19,119,9,3,0,3,0,,,,,0,19,19,3,,,,,,up,0.6838357656288281,1324.3198529001156,None,001,72,2019_Oct_29_1001,ACPT_experiment_5_30_19,3.1.0,59.955461205471394,
,,,C,D,d,v,R,D,d,L,c,,,,,5,19,119,9,3,0,3,0,,,,,0,20,20,0,,,,,,up,0.583795950980857,1326.27130257292,None,001,72,2019_Oct_29_1001,ACPT_experiment_5_30_19,3.1.0,59.955461205471394,
,,,C,D,d,v,R,U,g,R,u,,,,,5,19,119,9,3,0,3,0,,,,,0,21,21,11,,,,,,up,0.6171967891095846,1328.1393880980468,None,001,72,2019_Oct_29_1001,ACPT_experiment_5_30_19,3.1.0,59.955461205471394,
,,,C,D,d,v,R,U,g,L,u,,,,,5,19,119,9,3,0,3,0,,,,,0,22,22,10,,,,,,up,0.5167832782090045,1330.0411213785346,None,001,72,2019_Oct_29_1001,ACPT_experiment_5_30_19,3.1.0,59.955461205471394,
,,,C,D,d,v,R,D,g,L,i,,,,,5,19,119,9,3,0,3,0,,,,,0,23,23,2,,,,,,up,0.6337988035074886,1331.8422334720162,None,001,72,2019_Oct_29_1001,ACPT_experiment_5_30_19,3.1.0,59.955461205471394,
,,,C,D,d,v,R,U,d,L,u,,,,,5,19,119,9,3,0,3,0,,,,,0,24,24,8,,,,,,up,0.5670988523179403,1333.7603357349908,None,001,72,2019_Oct_29_1001,ACPT_experiment_5_30_19,3.1.0,59.955461205471394,
,,,C,D,d,v,L,D,y,L,y,,,,,5,19,119,9,3,0,3,0,,,,,0,25,25,32,,,,,,down,0.6004507899697273,1335.6117525358068,None,001,72,2019_Oct_29_1001,ACPT_experiment_5_30_19,3.1.0,59.955461205471394,
,,,C,D,d,v,R,D,d,R,c ,,,,,5,19,119,9,3,0,3,0,,,,,0,26,26,1,,,,,,up,0.650488657654023,1337.496519765,None,001,72,2019_Oct_29_1001,ACPT_experiment_5_30_19,3.1.0,59.955461205471394,
,,,C,D,d,v,L,D,g,L,i,,,,,5,19,119,9,3,0,3,0,,,,,0,27,27,14,,,,,,up,0.7839211603541116,1339.4313191266374,None,001,72,2019_Oct_29_1001,ACPT_experiment_5_30_19,3.1.0,59.955461205471394,
,,,C,D,d,v,R,D,y,L,y,,,,,5,19,119,9,3,0,3,0,,,,,0,28,28,26,,,,,,down,0.6504952984605552,1341.4995518965388,None,001,72,2019_Oct_29_1001,ACPT_experiment_5_30_19,3.1.0,59.955461205471394,
,,,C,D,d,v,R,U,y,L,u,,,,,5,19,119,9,3,0,3,0,,,,,0,29,29,30,,,,,,down,0.46701828727054817,1343.4510380937754,None,001,72,2019_Oct_29_1001,ACPT_experiment_5_30_19,3.1.0,59.955461205471394,
,,,C,D,d,v,L,U,g,L,u,,,,,5,19,119,9,3,0,3,0,,,,,0,30,30,22,,,,,,up,0.5170498160050556,1345.2190521094972,None,001,72,2019_Oct_29_1001,ACPT_experiment_5_30_19,3.1.0,59.955461205471394,
,,,C,D,d,v,L,G,y,R,y,,,,,5,19,119,9,3,0,3,0,,,,,0,31,31,35,,,,,,down,0.6671670413188622,1347.0204192702904,None,001,72,2019_Oct_29_1001,ACPT_experiment_5_30_19,3.1.0,59.955461205471394,
,,,C,D,d,v,L,U,g,R,u,,,,,5,19,119,9,3,0,3,0,,,,,0,32,32,23,,,,,,up,0.7336146418892895,1348.9888455593082,None,001,72,2019_Oct_29_1001,ACPT_experiment_5_30_19,3.1.0,59.955461205471394,
,,,C,D,d,v,L,D,g,R,i,,,,,5,19,119,9,3,0,3,0,,,,,0,33,33,15,,,,,,up,0.7005268271950627,1351.006779357116,None,001,72,2019_Oct_29_1001,ACPT_experiment_5_30_19,3.1.0,59.955461205471394,
,,,C,D,d,v,L,U,d,R,u,,,,,5,19,119,9,3,0,3,0,,,,,0,34,34,21,,,,,,up,0.6672029620413014,1352.9916190012773,None,001,72,2019_Oct_29_1001,ACPT_experiment_5_30_19,3.1.0,59.955461205471394,
,,,C,D,d,v,L,D,y,R,y,,,,,5,19,119,9,3,0,3,0,,,,,0,35,35,33,,,,,,down,2.5686129560317568,1354.943100368837,None,001,72,2019_Oct_29_1001,ACPT_experiment_5_30_19,3.1.0,59.955461205471394,
,,,C,D,d,v,R,D,g,R,i,,,,,5,19,119,9,3,0,3,0,,,,,1,0,36,3,,,,,,up,0.6171666036289025,1358.7960083324006,None,001,72,2019_Oct_29_1001,ACPT_experiment_5_30_19,3.1.0,59.955461205471394,
,,,C,D,d,v,R,U,g,R,u,,,,,5,19,119,9,3,0,3,0,,,,,1,1,37,11,,,,,,up,1.4677714150138854,1360.6974789992064,None,001,72,2019_Oct_29_1001,ACPT_experiment_5_30_19,3.1.0,59.955461205471394,
,,,C,D,d,v,L,D,g,R,i,,,,,5,19,119,9,3,0,3,0,,,,,1,2,38,15,,,,,,up,0.5003832046777461,1363.4495626274775,None,001,72,2019_Oct_29_1001,ACPT_experiment_5_30_19,3.1.0,59.955461205471394,
,,,C,D,d,v,L,U,d,R,u,,,,,5,19,119,9,3,0,3,0,,,,,1,3,39,21,,,,,,up,0.6169380995406755,1365.2344116895092,None,001,72,2019_Oct_29_1001,ACPT_experiment_5_30_19,3.1.0,59.955461205471394,
,,,C,D,d,v,L,G,d,R,i,,,,,5,19,119,9,3,0,3,0,,,,,1,4,40,17,,,,,,up,0.6338057461680364,1367.1356976211728,None,001,72,2019_Oct_29_1001,ACPT_experiment_5_30_19,3.1.0,59.955461205471394,
,,,C,D,d,v,R,G,d,L,i,,,,,5,19,119,9,3,0,3,0,,,,,1,5,41,4,,,,,,up,0.533761403697099,1369.037117878227,None,001,72,2019_Oct_29_1001,ACPT_experiment_5_30_19,3.1.0,59.955461205471394,
,,,C,D,d,v,L,G,g,L,c ,,,,,5,19,119,9,3,0,3,0,,,,,1,6,42,18,,,,,,up,0.5304117209016113,1370.8751866594666,None,001,72,2019_Oct_29_1001,ACPT_experiment_5_30_19,3.1.0,59.955461205471394,
,,,C,D,d,v,R,U,y,R,u,,,,,5,19,119,9,3,0,3,0,,,,,1,7,43,31,,,,,,down,0.6171309847622979,1372.6899154233015,None,001,72,2019_Oct_29_1001,ACPT_experiment_5_30_19,3.1.0,59.955461205471394,
,,,C,D,d,v,R,D,d,R,c ,,,,,5,19,119,9,3,0,3,0,,,,,1,8,44,1,,,,,,down,0.550229092706104,1374.5915095487244,None,001,72,2019_Oct_29_1001,ACPT_experiment_5_30_19,3.1.0,59.955461205471394,
,,,C,D,d,v,R,G,g,R,c ,,,,,5,19,119,9,3,0,3,0,,,,,1,9,45,7,,,,,,up,0.5504020555108582,1376.4260994533115,None,001,72,2019_Oct_29_1001,ACPT_experiment_5_30_19,3.1.0,59.955461205471394,
,,,C,D,d,v,R,U,d,R,u,,,,,5,19,119,9,3,0,3,0,,,,,1,10,46,9,,,,,,up,0.5504123185737626,1378.2608134202237,None,001,72,2019_Oct_29_1001,ACPT_experiment_5_30_19,3.1.0,59.955461205471394,
,,,C,D,d,v,L,U,d,L,u,,,,,5,19,119,9,3,0,3,0,,,,,1,11,47,20,,,,,,down,0.550411714864822,1380.0955473095537,None,001,72,2019_Oct_29_1001,ACPT_experiment_5_30_19,3.1.0,59.955461205471394,
,,,C,D,d,v,R,D,d,L,c,,,,,5,19,119,9,3,0,3,0,,,,,1,12,48,0,,,,,,up,0.7005376939678172,1381.9302718413837,None,001,72,2019_Oct_29_1001,ACPT_experiment_5_30_19,3.1.0,59.955461205471394,
,,,C,D,d,v,L,U,y,R,u,,,,,5,19,119,9,3,0,3,0,,,,,1,13,49,25,,,,,,down,0.8005542657974729,1383.9485225867393,None,001,72,2019_Oct_29_1001,ACPT_experiment_5_30_19,3.1.0,59.955461205471394,
,,,C,D,d,v,L,D,d,R,c ,,,,,5,19,119,9,3,0,3,0,,,,,1,14,50,13,,,,,,up,0.8506238282379854,1386.0500683550217,None,001,72,2019_Oct_29_1001,ACPT_experiment_5_30_19,3.1.0,59.955461205471394,
,,,C,D,d,v,L,G,d,L,i,,,,,5,19,119,9,3,0,3,0,,,,,1,15,51,16,,,,,,down,0.7005615404987111,1388.1849977557094,None,001,72,2019_Oct_29_1001,ACPT_experiment_5_30_19,3.1.0,59.955461205471394,
,,,C,D,d,v,L,G,y,R,y,,,,,5,19,119,9,3,0,3,0,,,,,1,16,52,35,,,,,,down,0.713752897428094,1390.2233444848562,None,001,72,2019_Oct_29_1001,ACPT_experiment_5_30_19,3.1.0,59.955461205471394,
,,,C,D,d,v,R,U,g,L,u,,,,,5,19,119,9,3,0,3,0,,,,,1,17,53,10,,,,,,up,0.7338745388788084,1392.2381003552537,None,001,72,2019_Oct_29_1001,ACPT_experiment_5_30_19,3.1.0,59.955461205471394,
,,,C,D,d,v,L,G,y,L,y,,,,,5,19,119,9,3,0,3,0,,,,,1,18,54,34,,,,,,down,0.6171524164537914,1394.2562822777118,None,001,72,2019_Oct_29_1001,ACPT_experiment_5_30_19,3.1.0,59.955461205471394,
,,,C,D,d,v,L,D,y,R,y,,,,,5,19,119,9,3,0,3,0,,,,,1,19,55,33,,,,,,down,0.6171659999199619,1396.1744080853623,None,001,72,2019_Oct_29_1001,ACPT_experiment_5_30_19,3.1.0,59.955461205471394,
,,,C,D,d,v,R,G,y,L,y,,,,,5,19,119,9,3,0,3,0,,,,,1,20,56,28,,,,,,down,0.7338657850896197,1398.0925646822034,None,001,72,2019_Oct_29_1001,ACPT_experiment_5_30_19,3.1.0,59.955461205471394,
,,,C,D,d,v,R,U,d,L,u,,,,,5,19,119,9,3,0,3,0,,,,,1,21,57,8,,,,,,up,0.5837733118696633,1400.1107456990976,None,001,72,2019_Oct_29_1001,ACPT_experiment_5_30_19,3.1.0,59.955461205471394,
,,,C,D,d,v,L,D,d,L,c ,,,,,5,19,119,9,3,0,3,0,,,,,1,22,58,12,,,,,,up,0.617145171937409,1401.9788306205146,None,001,72,2019_Oct_29_1001,ACPT_experiment_5_30_19,3.1.0,59.955461205471394,
,,,C,D,d,v,R,D,y,L,y,,,,,5,19,119,9,3,0,3,0,,,,,1,23,59,26,,,,,,down,0.5670894948189016,1403.8802729129684,None,001,72,2019_Oct_29_1001,ACPT_experiment_5_30_19,3.1.0,59.955461205471394,
,,,C,D,d,v,L,U,y,L,u,,,,,5,19,119,9,3,0,3,0,,,,,1,24,60,24,,,,,,down,0.4503444314277658,1405.7316749228994,None,001,72,2019_Oct_29_1001,ACPT_experiment_5_30_19,3.1.0,59.955461205471394,
,,,C,D,d,v,R,G,y,R,y,,,,,5,19,119,9,3,0,3,0,,,,,1,25,61,29,,,,,,down,0.9840735366606168,1407.4663348879867,None,001,72,2019_Oct_29_1001,ACPT_experiment_5_30_19,3.1.0,59.955461205471394,
,,,C,D,d,v,R,G,g,L,c ,,,,,5,19,119,9,3,0,3,0,,,,,1,26,62,6,,,,,,up,0.6004670901284044,1409.7347296935486,None,001,72,2019_Oct_29_1001,ACPT_experiment_5_30_19,3.1.0,59.955461205471394,
,,,C,D,d,v,L,U,g,L,u,,,,,5,19,119,9,3,0,3,0,,,,,1,27,63,22,,,,,,up,0.6671597968033893,1411.6194896782263,None,001,72,2019_Oct_29_1001,ACPT_experiment_5_30_19,3.1.0,59.955461205471394,
,,,C,D,d,v,R,U,y,L,u,,,,,5,19,119,9,3,0,3,0,,,,,1,28,64,30,,,,,,down,0.6170096391297193,1413.5709773847366,None,001,72,2019_Oct_29_1001,ACPT_experiment_5_30_19,3.1.0,59.955461205471394,
,,,C,D,d,v,L,D,g,L,i,,,,,5,19,119,9,3,0,3,0,,,,,1,29,65,14,,,,,,up,0.4834524703946954,1415.489337431717,None,001,72,2019_Oct_29_1001,ACPT_experiment_5_30_19,3.1.0,59.955461205471394,
,,,C,D,d,v,L,D,y,L,y,,,,,5,19,119,9,3,0,3,0,,,,,1,30,66,32,,,,,,down,0.5837989695282886,1417.2570773632742,None,001,72,2019_Oct_29_1001,ACPT_experiment_5_30_19,3.1.0,59.955461205471394,
,,,C,D,d,v,L,G,g,R,c ,,,,,5,19,119,9,3,0,3,0,,,,,1,31,67,19,,,,,,up,0.5837965546897976,1419.1251656050936,None,001,72,2019_Oct_29_1001,ACPT_experiment_5_30_19,3.1.0,59.955461205471394,
,,,C,D,d,v,L,U,g,R,u,,,,,5,19,119,9,3,0,3,0,,,,,1,32,68,23,,,,,,up,0.7171523862671165,1420.993305464085,None,001,72,2019_Oct_29_1001,ACPT_experiment_5_30_19,3.1.0,59.955461205471394,
,,,C,D,d,v,R,G,d,R,i,,,,,5,19,119,9,3,0,3,0,,,,,1,33,69,5,,,,,,up,0.7505662041539836,1422.994795117559,None,001,72,2019_Oct_29_1001,ACPT_experiment_5_30_19,3.1.0,59.955461205471394,
,,,C,D,d,v,R,D,g,L,i,,,,,5,19,119,9,3,0,3,0,,,,,1,34,70,2,,,,,,up,0.7672491156408796,1425.0296690071482,None,001,72,2019_Oct_29_1001,ACPT_experiment_5_30_19,3.1.0,59.955461205471394,
,,,C,D,d,v,R,D,y,R,y,,,,,5,19,119,9,3,0,3,0,,,,,1,35,71,27,,,,,,down,0.700547655176706,1427.064534746658,None,001,72,2019_Oct_29_1001,ACPT_experiment_5_30_19,3.1.0,59.955461205471394,
,,,C,D,d,v,,,,,,,,,,5,19,119,9,4,0,4,0,0,0,0,0,,,,,,,,,,,,,,001,72,2019_Oct_29_1001,ACPT_experiment_5_30_19,3.1.0,59.955461205471394,
,,,C,D,d,v,L,U,d,L,u,,,,,5,19,119,9,4,0,4,0,,,,,0,0,0,20,,,,,,up,0.7305825103521784,1448.801038742763,None,001,72,2019_Oct_29_1001,ACPT_experiment_5_30_19,3.1.0,59.955461205471394,
,,,C,D,d,v,R,D,d,L,c,,,,,5,19,119,9,4,0,4,0,,,,,0,1,1,0,,,,,,up,1.3343153676396469,1450.8159461442729,None,001,72,2019_Oct_29_1001,ACPT_experiment_5_30_19,3.1.0,59.955461205471394,
,,,C,D,d,v,R,U,d,R,u,,,,,5,19,119,9,4,0,4,0,,,,,0,2,2,9,,,,,,up,0.5171986304239908,1453.4179016804565,None,001,72,2019_Oct_29_1001,ACPT_experiment_5_30_19,3.1.0,59.955461205471394,
,,,C,D,d,v,L,U,y,L,u,,,,,5,19,119,9,4,0,4,0,,,,,0,3,3,24,,,,,,down,0.7169634251586103,1455.236199273677,None,001,72,2019_Oct_29_1001,ACPT_experiment_5_30_19,3.1.0,59.955461205471394,
,,,C,D,d,v,L,D,y,L,y,,,,,5,19,119,9,4,0,4,0,,,,,0,4,4,32,,,,,,down,0.683738870236084,1457.237473100964,None,001,72,2019_Oct_29_1001,ACPT_experiment_5_30_19,3.1.0,59.955461205471394,
,,,C,D,d,v,L,U,y,R,u,,,,,5,19,119,9,4,0,4,0,,,,,0,5,5,25,,,,,,down,0.8006934208624443,1459.2056367762998,None,001,72,2019_Oct_29_1001,ACPT_experiment_5_30_19,3.1.0,59.955461205471394,
,,,C,D,d,v,R,D,y,R,y,,,,,5,19,119,9,4,0,4,0,,,,,0,6,6,27,,,,,,down,1.1508721641876036,1461.2905494391389,None,001,72,2019_Oct_29_1001,ACPT_experiment_5_30_19,3.1.0,59.955461205471394,
,,,C,D,d,v,R,D,g,R,i,,,,,5,19,119,9,4,0,4,0,,,,,0,7,7,3,,,,,,up,0.984071725531976,1463.7257449852113,None,001,72,2019_Oct_29_1001,ACPT_experiment_5_30_19,3.1.0,59.955461205471394,
,,,C,D,d,v,R,D,d,R,c ,,,,,5,19,119,9,4,0,4,0,,,,,0,8,8,1,,,,,,up,4.353327088962942,1465.977425788241,None,001,72,2019_Oct_29_1001,ACPT_experiment_5_30_19,3.1.0,59.955461205471394,
,,,C,D,d,v,R,U,g,L,u,,,,,5,19,119,9,4,0,4,0,,,,,0,9,9,10,,,,,,up,2.084914775823563,1471.6150620719136,None,001,72,2019_Oct_29_1001,ACPT_experiment_5_30_19,3.1.0,59.955461205471394,
,,,C,D,d,v,R,G,g,L,c ,,,,,5,19,119,9,4,0,4,0,,,,,0,10,10,6,,,,,,up,0.8673200213352175,1474.984290872122,None,001,72,2019_Oct_29_1001,ACPT_experiment_5_30_19,3.1.0,59.955461205471394,
,,,C,D,d,v,L,G,y,R,y,,,,,5,19,119,9,4,0,4,0,,,,,0,11,11,35,,,,,,down,4.82033179276732,1477.135920390021,None,001,72,2019_Oct_29_1001,ACPT_experiment_5_30_19,3.1.0,59.955461205471394,
,,,C,D,d,v,L,D,g,L,i,,,,,5,19,119,9,4,0,4,0,,,,,0,12,12,14,,,,,,up,1.2175914340850795,1483.240558660803,None,001,72,2019_Oct_29_1001,ACPT_experiment_5_30_19,3.1.0,59.955461205471394,
,,,C,D,d,v,L,D,y,R,y,,,,,5,19,119,9,4,0,4,0,,,,,0,13,13,33,,,,,,down,0.7171919292477469,1485.7257793966592,None,001,72,2019_Oct_29_1001,ACPT_experiment_5_30_19,3.1.0,59.955461205471394,
,,,C,D,d,v,L,G,d,L,i,,,,,5,19,119,9,4,0,4,0,,,,,0,14,14,16,,,,,,down,0.7338814815402657,1487.7272995374678,None,001,72,2019_Oct_29_1001,ACPT_experiment_5_30_19,3.1.0,59.955461205471394,
,,,C,D,d,v,L,G,g,L,c ,,,,,5,19,119,9,4,0,4,0,,,,,0,15,15,18,,,,,,up,3.4860224622234455,1489.7454790450884,None,001,72,2019_Oct_29_1001,ACPT_experiment_5_30_19,3.1.0,59.955461205471394,
,,,C,D,d,v,R,U,y,L,u,,,,,5,19,119,9,4,0,4,0,,,,,0,16,16,30,,,,,,down,0.6171418515350524,1494.5324528631081,None,001,72,2019_Oct_29_1001,ACPT_experiment_5_30_19,3.1.0,59.955461205471394,
,,,C,D,d,v,L,G,g,R,c ,,,,,5,19,119,9,4,0,4,0,,,,,0,17,17,19,,,,,,up,0.8339493686862625,1496.450600404305,None,001,72,2019_Oct_29_1001,ACPT_experiment_5_30_19,3.1.0,59.955461205471394,
,,,C,D,d,v,L,U,g,L,u,,,,,5,19,119,9,4,0,4,0,,,,,0,18,18,22,,,,,,up,0.8006076940982894,1498.5688674196335,None,001,72,2019_Oct_29_1001,ACPT_experiment_5_30_19,3.1.0,59.955461205471394,
,,,C,D,d,v,R,U,g,R,u,,,,,5,19,119,9,4,0,4,0,,,,,0,19,19,11,,,,,,up,0.8839742566142377,1500.6537909492463,None,001,72,2019_Oct_29_1001,ACPT_experiment_5_30_19,3.1.0,59.955461205471394,
,,,C,D,d,v,L,G,d,R,i,,,,,5,19,119,9,4,0,4,0,,,,,0,20,20,17,,,,,,up,0.75055775221972,1502.8221063971787,None,001,72,2019_Oct_29_1001,ACPT_experiment_5_30_19,3.1.0,59.955461205471394,
,,,C,D,d,v,L,D,d,R,c ,,,,,5,19,119,9,4,0,4,0,,,,,0,21,21,13,,,,,,up,0.6504995244285965,1504.8569796830589,None,001,72,2019_Oct_29_1001,ACPT_experiment_5_30_19,3.1.0,59.955461205471394,
,,,C,D,d,v,R,G,d,R,i,,,,,5,19,119,9,4,0,4,0,,,,,0,22,22,5,,,,,,up,1.134193780523674,1506.7917796484062,None,001,72,2019_Oct_29_1001,ACPT_experiment_5_30_19,3.1.0,59.955461205471394,
,,,C,D,d,v,L,U,g,R,u,,,,,5,19,119,9,4,0,4,0,,,,,0,23,23,23,,,,,,up,0.9340592136495616,1509.210266927188,None,001,72,2019_Oct_29_1001,ACPT_experiment_5_30_19,3.1.0,59.955461205471394,
,,,C,D,d,v,L,G,y,L,y,,,,,5,19,119,9,4,0,4,0,,,,,0,24,24,34,,,,,,down,1.6174883808535014,1511.4456982822348,None,001,72,2019_Oct_29_1001,ACPT_experiment_5_30_19,3.1.0,59.955461205471394,
,,,C,D,d,v,R,G,y,R,y,,,,,5,19,119,9,4,0,4,0,,,,,0,25,25,29,,,,,,down,0.8673822034252225,1514.3475181950535,None,001,72,2019_Oct_29_1001,ACPT_experiment_5_30_19,3.1.0,59.955461205471394,
,,,C,D,d,v,L,D,d,L,c ,,,,,5,19,119,9,4,0,4,0,,,,,0,26,26,12,,,,,,up,0.7672349284657685,1516.4991628056923,None,001,72,2019_Oct_29_1001,ACPT_experiment_5_30_19,3.1.0,59.955461205471394,
,,,C,D,d,v,R,U,y,R,u,,,,,5,19,119,9,4,0,4,0,,,,,0,27,27,31,,,,,,down,2.368463296417758,1518.567389538497,None,001,72,2019_Oct_29_1001,ACPT_experiment_5_30_19,3.1.0,59.955461205471394,
,,,C,D,d,v,L,D,g,R,i,,,,,5,19,119,9,4,0,4,0,,,,,0,28,28,15,,,,,,up,4.403400877370586,1522.2368220001445,None,001,72,2019_Oct_29_1001,ACPT_experiment_5_30_19,3.1.0,59.955461205471394,
,,,C,D,d,v,R,G,y,L,y,,,,,5,19,119,9,4,0,4,0,,,,,0,29,29,28,,,,,,down,1.801347238375456,1527.9245088294047,None,001,72,2019_Oct_29_1001,ACPT_experiment_5_30_19,3.1.0,59.955461205471394,
,,,C,D,d,v,R,G,g,R,c ,,,,,5,19,119,9,4,0,4,0,,,,,0,30,30,7,,,,,,up,0.6504844316878007,1531.0101782422453,None,001,72,2019_Oct_29_1001,ACPT_experiment_5_30_19,3.1.0,59.955461205471394,
,,,C,D,d,v,R,D,g,L,i,,,,,5,19,119,9,4,0,4,0,,,,,0,31,31,2,,,,,,up,11.391982313723929,1532.928303748041,None,001,72,2019_Oct_29_1001,ACPT_experiment_5_30_19,3.1.0,59.955461205471394,
,,,C,D,d,v,R,D,y,L,y,,,,,5,19,119,9,4,0,4,0,,,,,0,32,32,26,,,,,,down,0.567137187877961,1545.6045741266362,None,001,72,2019_Oct_29_1001,ACPT_experiment_5_30_19,3.1.0,59.955461205471394,
,,,C,D,d,v,L,U,d,R,u,,,,,5,19,119,9,4,0,4,0,,,,,0,33,33,21,,,,,,up,0.5670858725616199,1547.4560069257568,None,001,72,2019_Oct_29_1001,ACPT_experiment_5_30_19,3.1.0,59.955461205471394,
,,,C,D,d,v,R,G,d,L,i,,,,,5,19,119,9,4,0,4,0,,,,,0,34,34,4,,,,,,up,0.7172040034402016,1549.3074107468165,None,001,72,2019_Oct_29_1001,ACPT_experiment_5_30_19,3.1.0,59.955461205471394,
,,,C,D,d,v,R,U,d,L,u,,,,,5,19,119,9,4,0,4,0,,,,,0,35,35,8,,,,,,up,0.5837778396917201,1551.3089308876251,None,001,72,2019_Oct_29_1001,ACPT_experiment_5_30_19,3.1.0,59.955461205471394,
,,,C,D,d,v,R,D,y,R,y,,,,,5,19,119,9,4,0,4,0,,,,,1,0,36,27,,,,,,down,0.6505067689431598,1553.1770188275905,None,001,72,2019_Oct_29_1001,ACPT_experiment_5_30_19,3.1.0,59.955461205471394,
,,,C,D,d,v,L,G,d,R,i,,,,,5,19,119,9,4,0,4,0,,,,,1,1,37,17,,,,,,up,0.8006043736950232,1555.1118203022115,None,001,72,2019_Oct_29_1001,ACPT_experiment_5_30_19,3.1.0,59.955461205471394,
,,,C,D,d,v,R,U,y,L,u,,,,,5,19,119,9,4,0,4,0,,,,,1,2,38,30,,,,,,down,0.5167875041770458,1557.2136881495726,None,001,72,2019_Oct_29_1001,ACPT_experiment_5_30_19,3.1.0,59.955461205471394,
,,,C,D,d,v,L,G,g,R,c ,,,,,5,19,119,9,4,0,4,0,,,,,1,3,39,19,,,,,,up,0.46706265992634144,1559.0147700575735,None,001,72,2019_Oct_29_1001,ACPT_experiment_5_30_19,3.1.0,59.955461205471394,
,,,C,D,d,v,L,G,g,L,c ,,,,,5,19,119,9,4,0,4,0,,,,,1,4,40,18,,,,,,up,0.6671902841389965,1560.7494116095177,None,001,72,2019_Oct_29_1001,ACPT_experiment_5_30_19,3.1.0,59.955461205471394,
,,,C,D,d,v,L,D,g,R,i,,,,,5,19,119,9,4,0,4,0,,,,,1,5,41,15,,,,,,up,0.5837736137236789,1562.7009125976392,None,001,72,2019_Oct_29_1001,ACPT_experiment_5_30_19,3.1.0,59.955461205471394,
,,,C,D,d,v,R,U,d,R,u,,,,,5,19,119,9,4,0,4,0,,,,,1,6,42,9,,,,,,down,0.7637038309294439,1564.6225592397604,None,001,72,2019_Oct_29_1001,ACPT_experiment_5_30_19,3.1.0,59.955461205471394,
,,,C,D,d,v,R,G,d,R,i,,,,,5,19,119,9,4,0,4,0,,,,,1,7,43,5,,,,,,up,0.5170498160041461,1566.6706003378968,None,001,72,2019_Oct_29_1001,ACPT_experiment_5_30_19,3.1.0,59.955461205471394,
,,,C,D,d,v,R,U,g,R,u,,,,,5,19,119,9,4,0,4,0,,,,,1,8,44,11,,,,,,down,0.4836993876269844,1568.4719617634482,None,001,72,2019_Oct_29_1001,ACPT_experiment_5_30_19,3.1.0,59.955461205471394,
,,,C,D,d,v,L,U,d,L,u,,,,,5,19,119,9,4,0,4,0,,,,,1,9,45,20,,,,,,up,0.6504802057197594,1570.2399875515084,None,001,72,2019_Oct_29_1001,ACPT_experiment_5_30_19,3.1.0,59.955461205471394,
,,,C,D,d,v,L,G,y,L,y,,,,,5,19,119,9,4,0,4,0,,,,,1,10,46,34,,,,,,down,0.5670891929639765,1572.1747793667755,None,001,72,2019_Oct_29_1001,ACPT_experiment_5_30_19,3.1.0,59.955461205471394,
,,,C,D,d,v,L,D,d,L,c ,,,,,5,19,119,9,4,0,4,0,,,,,1,11,47,12,,,,,,up,0.800575999342982,1574.0262088454929,None,001,72,2019_Oct_29_1001,ACPT_experiment_5_30_19,3.1.0,59.955461205471394,
,,,C,D,d,v,R,G,g,R,c ,,,,,5,19,119,9,4,0,4,0,,,,,1,12,48,7,,,,,,up,0.6504922799122141,1576.111107019302,None,001,72,2019_Oct_29_1001,ACPT_experiment_5_30_19,3.1.0,59.955461205471394,
,,,C,D,d,v,L,U,y,L,u,,,,,5,19,119,9,4,0,4,0,,,,,1,13,49,24,,,,,,down,0.7003282067316832,1578.062743540232,None,001,72,2019_Oct_29_1001,ACPT_experiment_5_30_19,3.1.0,59.955461205471394,
,,,C,D,d,v,L,U,y,R,u,,,,,5,19,119,9,4,0,4,0,,,,,1,14,50,25,,,,,,down,1.71792302159065,1580.0641456558114,None,001,72,2019_Oct_29_1001,ACPT_experiment_5_30_19,3.1.0,59.955461205471394,
,,,C,D,d,v,R,D,g,L,i,,,,,5,19,119,9,4,0,4,0,,,,,1,15,51,2,,,,,,up,0.6168599191450994,1583.0833357733263,None,001,72,2019_Oct_29_1001,ACPT_experiment_5_30_19,3.1.0,59.955461205471394,
,,,C,D,d,v,R,D,d,L,c,,,,,5,19,119,9,4,0,4,0,,,,,1,16,52,0,,,,,,down,0.5837512764683197,1584.9845242058882,None,001,72,2019_Oct_29_1001,ACPT_experiment_5_30_19,3.1.0,59.955461205471394,
,,,C,D,d,v,L,D,y,R,y,,,,,5,19,119,9,4,0,4,0,,,,,1,17,53,33,,,,,,down,0.9840976850455263,1586.852572301018,None,001,72,2019_Oct_29_1001,ACPT_experiment_5_30_19,3.1.0,59.955461205471394,
,,,C,D,d,v,L,G,y,R,y,,,,,5,19,119,9,4,0,4,0,,,,,1,18,54,35,,,,,,down,0.6337975960886979,1589.1043152861394,None,001,72,2019_Oct_29_1001,ACPT_experiment_5_30_19,3.1.0,59.955461205471394,
,,,C,D,d,v,R,D,d,R,c ,,,,,5,19,119,9,4,0,4,0,,,,,1,19,55,1,,,,,,down,0.7172136627932559,1591.0224284158876,None,001,72,2019_Oct_29_1001,ACPT_experiment_5_30_19,3.1.0,59.955461205471394,
,,,C,D,d,v,R,U,d,L,u,,,,,5,19,119,9,4,0,4,0,,,,,1,20,56,8,,,,,,up,0.7338368070277284,1593.0239491604061,None,001,72,2019_Oct_29_1001,ACPT_experiment_5_30_19,3.1.0,59.955461205471394,
,,,C,D,d,v,R,G,d,L,i,,,,,5,19,119,9,4,0,4,0,,,,,1,21,57,4,,,,,,down,1.0674941311881412,1595.0421289698816,None,001,72,2019_Oct_29_1001,ACPT_experiment_5_30_19,3.1.0,59.955461205471394,
,,,C,D,d,v,R,D,y,L,y,,,,,5,19,119,9,4,0,4,0,,,,,1,22,58,26,,,,,,down,0.6338398557618348,1597.3939368236006,None,001,72,2019_Oct_29_1001,ACPT_experiment_5_30_19,3.1.0,59.955461205471394,
,,,C,D,d,v,R,D,g,R,i,,,,,5,19,119,9,4,0,4,0,,,,,1,23,59,3,,,,,,up,0.6838411990156601,1599.3120653479436,None,001,72,2019_Oct_29_1001,ACPT_experiment_5_30_19,3.1.0,59.955461205471394,
,,,C,D,d,v,R,U,g,L,u,,,,,5,19,119,9,4,0,4,0,,,,,1,24,60,10,,,,,,up,0.6838508583687144,1601.2802193639254,None,001,72,2019_Oct_29_1001,ACPT_experiment_5_30_19,3.1.0,59.955461205471394,
,,,C,D,d,v,L,U,g,L,u,,,,,5,19,119,9,4,0,4,0,,,,,1,25,61,22,,,,,,up,0.5668250700073258,1603.265328866285,None,001,72,2019_Oct_29_1001,ACPT_experiment_5_30_19,3.1.0,59.955461205471394,
,,,C,D,d,v,R,G,y,R,y,,,,,5,19,119,9,4,0,4,0,,,,,1,26,62,29,,,,,,down,0.7839459124488712,1605.1164465289867,None,001,72,2019_Oct_29_1001,ACPT_experiment_5_30_19,3.1.0,59.955461205471394,
,,,C,D,d,v,R,G,g,L,c ,,,,,5,19,119,9,4,0,4,0,,,,,1,27,63,6,,,,,,up,0.7672463989483731,1607.1846983157411,None,001,72,2019_Oct_29_1001,ACPT_experiment_5_30_19,3.1.0,59.955461205471394,
,,,C,D,d,v,L,U,g,R,u,,,,,5,19,119,9,4,0,4,0,,,,,1,28,64,23,,,,,,up,0.817288190745785,1609.2362629650415,None,001,72,2019_Oct_29_1001,ACPT_experiment_5_30_19,3.1.0,59.955461205471394,
,,,C,D,d,v,L,D,d,R,c ,,,,,5,19,119,9,4,0,4,0,,,,,1,29,65,13,,,,,,up,0.7505743542342316,1611.337855822674,None,001,72,2019_Oct_29_1001,ACPT_experiment_5_30_19,3.1.0,59.955461205471394,
,,,C,D,d,v,L,D,y,L,y,,,,,5,19,119,9,4,0,4,0,,,,,1,30,66,32,,,,,,down,0.5670982486080902,1613.3727381641975,None,001,72,2019_Oct_29_1001,ACPT_experiment_5_30_19,3.1.0,59.955461205471394,
,,,C,D,d,v,L,G,d,L,i,,,,,5,19,119,9,4,0,4,0,,,,,1,31,67,16,,,,,,down,0.8172818517950873,1615.2241450038055,None,001,72,2019_Oct_29_1001,ACPT_experiment_5_30_19,3.1.0,59.955461205471394,
,,,C,D,d,v,R,U,y,R,u,,,,,5,19,119,9,4,0,4,0,,,,,1,32,68,31,,,,,,down,1.4845020195598408,1617.3257206557137,None,001,72,2019_Oct_29_1001,ACPT_experiment_5_30_19,3.1.0,59.955461205471394,
,,,C,D,d,v,R,G,y,L,y,,,,,5,19,119,9,4,0,4,0,,,,,1,33,69,28,,,,,,down,0.550223961174197,1620.0946701194835,None,001,72,2019_Oct_29_1001,ACPT_experiment_5_30_19,3.1.0,59.955461205471394,
,,,C,D,d,v,L,D,g,L,i,,,,,5,19,119,9,4,0,4,0,,,,,1,34,70,14,,,,,,up,0.8339692911022212,1621.929234668266,None,001,72,2019_Oct_29_1001,ACPT_experiment_5_30_19,3.1.0,59.955461205471394,
,,,C,D,d,v,L,U,d,R,u,,,,,5,19,119,9,4,0,4,0,,,,,1,35,71,21,,,,,,up,0.7839437994643959,1624.047513154078,None,001,72,2019_Oct_29_1001,ACPT_experiment_5_30_19,3.1.0,59.955461205471394,
,,,C,D,d,v,,,,,,,,,,5,19,119,9,5,0,5,0,0,0,0,0,,,,,,,,,,,,,,001,72,2019_Oct_29_1001,ACPT_experiment_5_30_19,3.1.0,59.955461205471394,
,,,C,D,d,v,L,D,y,R,y,,,,,5,19,119,9,5,0,5,0,,,,,0,0,0,33,,,,,,down,0.8004908762877676,1629.1180339834182,None,001,72,2019_Oct_29_1001,ACPT_experiment_5_30_19,3.1.0,59.955461205471394,
,,,C,D,d,v,R,G,g,L,c ,,,,,5,19,119,9,5,0,5,0,,,,,0,1,1,6,,,,,,up,0.7002560634327892,1631.2199006233604,None,001,72,2019_Oct_29_1001,ACPT_experiment_5_30_19,3.1.0,59.955461205471394,
,,,C,D,d,v,L,G,y,R,y,,,,,5,19,119,9,5,0,5,0,,,,,0,2,2,35,,,,,,down,0.6338335168102276,1633.2211521133913,None,001,72,2019_Oct_29_1001,ACPT_experiment_5_30_19,3.1.0,59.955461205471394,
,,,C,D,d,v,L,U,g,R,u,,,,,5,19,119,9,5,0,5,0,,,,,0,3,3,23,,,,,,up,0.633897510029783,1635.1559560028509,None,001,72,2019_Oct_29_1001,ACPT_experiment_5_30_19,3.1.0,59.955461205471394,
,,,C,D,d,v,R,D,d,L,c,,,,,5,19,119,9,5,0,5,0,,,,,0,4,4,0,,,,,,up,0.7338884242008135,1637.0740812067916,None,001,72,2019_Oct_29_1001,ACPT_experiment_5_30_19,3.1.0,59.955461205471394,
,,,C,D,d,v,L,D,y,L,y,,,,,5,19,119,9,5,0,5,0,,,,,0,5,5,32,,,,,,down,1.1008533133544915,1639.0922525643327,None,001,72,2019_Oct_29_1001,ACPT_experiment_5_30_19,3.1.0,59.955461205471394,
,,,C,D,d,v,R,U,y,L,u,,,,,5,19,119,9,5,0,5,0,,,,,0,6,6,30,,,,,,down,0.6338129906835093,1641.4774232224754,None,001,72,2019_Oct_29_1001,ACPT_experiment_5_30_19,3.1.0,59.955461205471394,
,,,C,D,d,v,L,G,y,L,y,,,,,5,19,119,9,5,0,5,0,,,,,0,7,7,34,,,,,,down,0.5170446844722392,1643.4122289230636,None,001,72,2019_Oct_29_1001,ACPT_experiment_5_30_19,3.1.0,59.955461205471394,
,,,C,D,d,v,R,D,g,L,i,,,,,5,19,119,9,5,0,5,0,,,,,0,8,8,2,,,,,,up,0.533731821926267,1645.230273260102,None,001,72,2019_Oct_29_1001,ACPT_experiment_5_30_19,3.1.0,59.955461205471394,
,,,C,D,d,v,L,D,d,R,c ,,,,,5,19,119,9,5,0,5,0,,,,,0,9,9,13,,,,,,up,1.2175760394893587,1647.0483302750417,None,001,72,2019_Oct_29_1001,ACPT_experiment_5_30_19,3.1.0,59.955461205471394,
,,,C,D,d,v,L,D,g,L,i,,,,,5,19,119,9,5,0,5,0,,,,,0,10,10,14,,,,,,up,0.6171500016153004,1649.5335238439648,None,001,72,2019_Oct_29_1001,ACPT_experiment_5_30_19,3.1.0,59.955461205471394,
,,,C,D,d,v,R,G,d,R,i,,,,,5,19,119,9,5,0,5,0,,,,,0,11,11,5,,,,,,up,0.8141193189785554,1651.4549788082832,None,001,72,2019_Oct_29_1001,ACPT_experiment_5_30_19,3.1.0,59.955461205471394,
,,,C,D,d,v,L,U,g,L,u,,,,,5,19,119,9,5,0,5,0,,,,,0,12,12,22,,,,,,up,0.6338392520519847,1653.5532573001328,None,001,72,2019_Oct_29_1001,ACPT_experiment_5_30_19,3.1.0,59.955461205471394,
,,,C,D,d,v,L,U,d,L,u,,,,,5,19,119,9,5,0,5,0,,,,,0,13,13,20,,,,,,up,0.9340595155053961,1655.4546896313786,None,001,72,2019_Oct_29_1001,ACPT_experiment_5_30_19,3.1.0,59.955461205471394,
,,,C,D,d,v,R,U,y,R,u,,,,,5,19,119,9,5,0,5,0,,,,,0,14,14,31,,,,,,down,0.884032514592036,1657.689736725256,None,001,72,2019_Oct_29_1001,ACPT_experiment_5_30_19,3.1.0,59.955461205471394,
,,,C,D,d,v,R,D,y,R,y,,,,,5,19,119,9,5,0,5,0,,,,,0,15,15,27,,,,,,down,0.9006743738254954,1659.8747329716916,None,001,72,2019_Oct_29_1001,ACPT_experiment_5_30_19,3.1.0,59.955461205471394,
,,,C,D,d,v,R,G,y,L,y,,,,,5,19,119,9,5,0,5,0,,,,,0,16,16,28,,,,,,down,1.167546623738417,1662.059726501434,None,001,72,2019_Oct_29_1001,ACPT_experiment_5_30_19,3.1.0,59.955461205471394,
,,,C,D,d,v,L,D,d,L,c ,,,,,5,19,119,9,5,0,5,0,,,,,0,17,17,12,,,,,,up,0.7338947631506016,1664.5115868477033,None,001,72,2019_Oct_29_1001,ACPT_experiment_5_30_19,3.1.0,59.955461205471394,
,,,C,D,d,v,R,G,g,R,c ,,,,,5,19,119,9,5,0,5,0,,,,,0,18,18,7,,,,,,up,0.8173050946143121,1666.5297911074176,None,001,72,2019_Oct_29_1001,ACPT_experiment_5_30_19,3.1.0,59.955461205471394,
,,,C,D,d,v,R,U,g,L,u,,,,,5,19,119,9,5,0,5,0,,,,,0,19,19,10,,,,,,up,0.8006007514368321,1668.6313857761788,None,001,72,2019_Oct_29_1001,ACPT_experiment_5_30_19,3.1.0,59.955461205471394,
,,,C,D,d,v,R,G,y,R,y,,,,,5,19,119,9,5,0,5,0,,,,,0,20,20,29,,,,,,down,0.7338835945229221,1670.716297835309,None,001,72,2019_Oct_29_1001,ACPT_experiment_5_30_19,3.1.0,59.955461205471394,
,,,C,D,d,v,L,U,d,R,u,,,,,5,19,119,9,5,0,5,0,,,,,0,21,21,21,,,,,,up,1.050781336075488,1672.7345123580872,None,001,72,2019_Oct_29_1001,ACPT_experiment_5_30_19,3.1.0,59.955461205471394,
,,,C,D,d,v,R,U,g,R,u,,,,,5,19,119,9,5,0,5,0,,,,,0,22,22,11,,,,,,up,0.9840844034333713,1675.0696068129837,None,001,72,2019_Oct_29_1001,ACPT_experiment_5_30_19,3.1.0,59.955461205471394,
,,,C,D,d,v,L,U,y,R,u,,,,,5,19,119,9,5,0,5,0,,,,,0,23,23,25,,,,,,down,1.3843568575830432,1677.3380034296742,None,001,72,2019_Oct_29_1001,ACPT_experiment_5_30_19,3.1.0,59.955461205471394,
,,,C,D,d,v,R,D,g,R,i,,,,,5,19,119,9,5,0,5,0,,,,,0,24,24,3,,,,,,up,0.6337963886699072,1680.00670298785,None,001,72,2019_Oct_29_1001,ACPT_experiment_5_30_19,3.1.0,59.955461205471394,
,,,C,D,d,v,R,U,d,R,u,,,,,5,19,119,9,5,0,5,0,,,,,0,25,25,9,,,,,,up,0.6171669054838276,1681.9248260788063,None,001,72,2019_Oct_29_1001,ACPT_experiment_5_30_19,3.1.0,59.955461205471394,
,,,C,D,d,v,R,U,d,L,u,,,,,5,19,119,9,5,0,5,0,,,,,0,26,26,8,,,,,,up,0.5504313354267651,1683.8095552742943,None,001,72,2019_Oct_29_1001,ACPT_experiment_5_30_19,3.1.0,59.955461205471394,
,,,C,D,d,v,L,G,d,L,i,,,,,5,19,119,9,5,0,5,0,,,,,0,27,27,16,,,,,,up,0.6502200068762249,1685.6445716997232,None,001,72,2019_Oct_29_1001,ACPT_experiment_5_30_19,3.1.0,59.955461205471394,
,,,C,D,d,v,L,D,g,R,i,,,,,5,19,119,9,5,0,5,0,,,,,0,28,28,15,,,,,,up,0.5337212570084375,1687.5791147866294,None,001,72,2019_Oct_29_1001,ACPT_experiment_5_30_19,3.1.0,59.955461205471394,
,,,C,D,d,v,R,D,d,R,c ,,,,,5,19,119,9,5,0,5,0,,,,,0,29,29,1,,,,,,up,0.6504596795939506,1689.397167273747,None,001,72,2019_Oct_29_1001,ACPT_experiment_5_30_19,3.1.0,59.955461205471394,
,,,C,D,d,v,L,U,y,L,u,,,,,5,19,119,9,5,0,5,0,,,,,0,30,30,24,,,,,,down,0.5170531364074122,1691.3319624094174,None,001,72,2019_Oct_29_1001,ACPT_experiment_5_30_19,3.1.0,59.955461205471394,
,,,C,D,d,v,L,G,d,R,i,,,,,5,19,119,9,5,0,5,0,,,,,0,31,31,17,,,,,,up,0.6504901669286483,1693.133327759081,None,001,72,2019_Oct_29_1001,ACPT_experiment_5_30_19,3.1.0,59.955461205471394,
,,,C,D,d,v,R,D,y,L,y,,,,,5,19,119,9,5,0,5,0,,,,,0,32,32,26,,,,,,down,0.5837702933213222,1695.0681316485407,None,001,72,2019_Oct_29_1001,ACPT_experiment_5_30_19,3.1.0,59.955461205471394,
,,,C,D,d,v,R,G,d,L,i,,,,,5,19,119,9,5,0,5,0,,,,,0,33,33,4,,,,,,up,0.5503939054306102,1696.9362310589886,None,001,72,2019_Oct_29_1001,ACPT_experiment_5_30_19,3.1.0,59.955461205471394,
,,,C,D,d,v,L,G,g,R,c ,,,,,5,19,119,9,5,0,5,0,,,,,0,34,34,19,,,,,,up,0.5833332075608268,1698.788027291297,None,001,72,2019_Oct_29_1001,ACPT_experiment_5_30_19,3.1.0,59.955461205471394,
,,,C,D,d,v,L,G,g,L,c ,,,,,5,19,119,9,5,0,5,0,,,,,0,35,35,18,,,,,,up,0.46701013719030016,1700.6557134625136,None,001,72,2019_Oct_29_1001,ACPT_experiment_5_30_19,3.1.0,59.955461205471394,
,,,C,D,d,v,L,G,d,R,i,,,,,5,19,119,9,5,0,5,0,,,,,1,0,36,17,,,,,,up,0.7005485607405717,1702.390334488331,None,001,72,2019_Oct_29_1001,ACPT_experiment_5_30_19,3.1.0,59.955461205471394,
,,,C,D,d,v,L,D,g,R,i,,,,,5,19,119,9,5,0,5,0,,,,,1,1,37,15,,,,,,up,0.5504023573648738,1704.3752130717621,None,001,72,2019_Oct_29_1001,ACPT_experiment_5_30_19,3.1.0,59.955461205471394,
,,,C,D,d,v,L,D,y,L,y,,,,,5,19,119,9,5,0,5,0,,,,,1,2,38,32,,,,,,down,0.7505915599585933,1706.1932229973518,None,001,72,2019_Oct_29_1001,ACPT_experiment_5_30_19,3.1.0,59.955461205471394,
,,,C,D,d,v,R,G,d,L,i,,,,,5,19,119,9,5,0,5,0,,,,,1,3,39,4,,,,,,up,0.5504068851878401,1708.228138542905,None,001,72,2019_Oct_29_1001,ACPT_experiment_5_30_19,3.1.0,59.955461205471394,
,,,C,D,d,v,R,G,g,L,c ,,,,,5,19,119,9,5,0,5,0,,,,,1,4,40,6,,,,,,up,0.5003952788702009,1710.0461539018816,None,001,72,2019_Oct_29_1001,ACPT_experiment_5_30_19,3.1.0,59.955461205471394,
,,,C,D,d,v,R,U,g,R,u,,,,,5,19,119,9,5,0,5,0,,,,,1,5,41,11,,,,,,up,0.5001130446253228,1711.8311246114,None,001,72,2019_Oct_29_1001,ACPT_experiment_5_30_19,3.1.0,59.955461205471394,
,,,C,D,d,v,R,G,g,R,c ,,,,,5,19,119,9,5,0,5,0,,,,,1,6,42,7,,,,,,up,0.41701151062898134,1713.5988425075566,None,001,72,2019_Oct_29_1001,ACPT_experiment_5_30_19,3.1.0,59.955461205471394,
,,,C,D,d,v,R,D,y,L,y,,,,,5,19,119,9,5,0,5,0,,,,,1,7,43,26,,,,,,down,1.3343678903765976,1715.300140875639,None,001,72,2019_Oct_29_1001,ACPT_experiment_5_30_19,3.1.0,59.955461205471394,
,,,C,D,d,v,L,D,y,R,y,,,,,5,19,119,9,5,0,5,0,,,,,1,8,44,33,,,,,,down,0.7839229714827525,1717.9521753317613,None,001,72,2019_Oct_29_1001,ACPT_experiment_5_30_19,3.1.0,59.955461205471394,
,,,C,D,d,v,L,U,g,L,u,,,,,5,19,119,9,5,0,5,0,,,,,1,9,45,22,,,,,,up,0.9840678014188597,1720.0537778487478,None,001,72,2019_Oct_29_1001,ACPT_experiment_5_30_19,3.1.0,59.955461205471394,
,,,C,D,d,v,R,U,d,R,u,,,,,5,19,119,9,5,0,5,0,,,,,1,10,46,9,,,,,,up,0.9173642279720298,1722.3221648060844,None,001,72,2019_Oct_29_1001,ACPT_experiment_5_30_19,3.1.0,59.955461205471394,
,,,C,D,d,v,R,U,g,L,u,,,,,5,19,119,9,5,0,5,0,,,,,1,11,47,10,,,,,,up,2.318427239861194,1724.5238391343291,None,001,72,2019_Oct_29_1001,ACPT_experiment_5_30_19,3.1.0,59.955461205471394,
,,,C,D,d,v,R,G,d,R,i,,,,,5,19,119,9,5,0,5,0,,,,,1,12,48,5,,,,,,up,0.7172091349711991,1728.1265740596245,None,001,72,2019_Oct_29_1001,ACPT_experiment_5_30_19,3.1.0,59.955461205471394,
,,,C,D,d,v,R,U,y,L,u,,,,,5,19,119,9,5,0,5,0,,,,,1,13,49,30,,,,,,down,0.8339535946533942,1730.1281008412398,None,001,72,2019_Oct_29_1001,ACPT_experiment_5_30_19,3.1.0,59.955461205471394,
,,,C,D,d,v,R,G,y,R,y,,,,,5,19,119,9,5,0,5,0,,,,,1,14,50,29,,,,,,down,0.7505583559295701,1732.2463757047935,None,001,72,2019_Oct_29_1001,ACPT_experiment_5_30_19,3.1.0,59.955461205471394,
,,,C,D,d,v,R,U,d,L,u,,,,,5,19,119,9,5,0,5,0,,,,,1,15,51,8,,,,,,down,0.8673486975412743,1734.2812320868043,None,001,72,2019_Oct_29_1001,ACPT_experiment_5_30_19,3.1.0,59.955461205471394,
,,,C,D,d,v,L,U,d,R,u,,,,,5,19,119,9,5,0,5,0,,,,,1,16,52,21,,,,,,down,0.5170564568106784,1736.4328836401037,None,001,72,2019_Oct_29_1001,ACPT_experiment_5_30_19,3.1.0,59.955461205471394,
,,,C,D,d,v,L,D,d,R,c ,,,,,5,19,119,9,5,0,5,0,,,,,1,17,53,13,,,,,,up,0.5837579172748519,1738.234264384363,None,001,72,2019_Oct_29_1001,ACPT_experiment_5_30_19,3.1.0,59.955461205471394,
,,,C,D,d,v,L,D,d,L,c ,,,,,5,19,119,9,5,0,5,0,,,,,1,18,54,12,,,,,,up,0.8172909074382915,1740.0856497922787,None,001,72,2019_Oct_29_1001,ACPT_experiment_5_30_19,3.1.0,59.955461205471394,
,,,C,D,d,v,L,U,y,R,u,,,,,5,19,119,9,5,0,5,0,,,,,1,19,55,25,,,,,,down,0.6838445194180167,1742.1872589500708,None,001,72,2019_Oct_29_1001,ACPT_experiment_5_30_19,3.1.0,59.955461205471394,
,,,C,D,d,v,R,D,d,R,c ,,,,,5,19,119,9,5,0,5,0,,,,,1,20,56,1,,,,,,down,0.7172040034392921,1744.1554144753272,None,001,72,2019_Oct_29_1001,ACPT_experiment_5_30_19,3.1.0,59.955461205471394,
,,,C,D,d,v,L,D,g,L,i,,,,,5,19,119,9,5,0,5,0,,,,,1,21,57,14,,,,,,up,0.717197664489504,1746.156948199602,None,001,72,2019_Oct_29_1001,ACPT_experiment_5_30_19,3.1.0,59.955461205471394,
,,,C,D,d,v,L,G,g,L,c ,,,,,5,19,119,9,5,0,5,0,,,,,1,22,58,18,,,,,,up,0.6004634678711227,1748.1584511346873,None,001,72,2019_Oct_29_1001,ACPT_experiment_5_30_19,3.1.0,59.955461205471394,
,,,C,D,d,v,R,D,d,L,c,,,,,5,19,119,9,5,0,5,0,,,,,1,23,59,0,,,,,,down,0.6002566973274952,1750.0600573343027,None,001,72,2019_Oct_29_1001,ACPT_experiment_5_30_19,3.1.0,59.955461205471394,
,,,C,D,d,v,L,U,d,L,u,,,,,5,19,119,9,5,0,5,0,,,,,1,24,60,20,,,,,,up,0.5835737858424181,1751.9615865609412,None,001,72,2019_Oct_29_1001,ACPT_experiment_5_30_19,3.1.0,59.955461205471394,
,,,C,D,d,v,L,U,y,L,u,,,,,5,19,119,9,5,0,5,0,,,,,1,25,61,24,,,,,,down,0.633787333024884,1753.8294493172198,None,001,72,2019_Oct_29_1001,ACPT_experiment_5_30_19,3.1.0,59.955461205471394,
,,,C,D,d,v,R,G,y,L,y,,,,,5,19,119,9,5,0,5,0,,,,,1,26,62,28,,,,,,down,0.5837693877565471,1755.7475518820502,None,001,72,2019_Oct_29_1001,ACPT_experiment_5_30_19,3.1.0,59.955461205471394,
,,,C,D,d,v,R,D,g,R,i,,,,,5,19,119,9,5,0,5,0,,,,,1,27,63,3,,,,,,up,0.9507173730426075,1757.6156410294343,None,001,72,2019_Oct_29_1001,ACPT_experiment_5_30_19,3.1.0,59.955461205471394,
