facing_vig,person_vig,text_vig,facing_train,person_train,food_train,correct_key_train,facing_exp,person_exp,food_exp,showL_R,consistent,vig_random.thisRepN,vig_random.thisTrialN,vig_random.thisN,vig_random.thisIndex,trainTrials.thisRepN,trainTrials.thisTrialN,trainTrials.thisN,trainTrials.thisIndex,expBlock.thisRepN,expBlock.thisTrialN,expBlock.thisN,expBlock.thisIndex,breakLoop.thisRepN,breakLoop.thisTrialN,breakLoop.thisN,breakLoop.thisIndex,expTrials.thisRepN,expTrials.thisTrialN,expTrials.thisN,expTrials.thisIndex,train_resp.keys,train_resp.corr,train_resp.rt,train_resp.started,train_resp.stopped,exp_resp.keys,exp_resp.rt,exp_resp.started,exp_resp.stopped,session,participant,date,expName,psychopyVersion,frameRate,
C,G,"cannot eat dairy products because she is lactose intolerant. She enjoys eating wheat products. She thinks eating insects, like crickets, is disgusting.",,,,,,,,,,0,0,0,0,,,,,,,,,,,,,,,,,,,,,,,,,,001,73,2019_Oct_29_1207,ACPT_experiment_5_30_19,3.1.0,59.955027182932895,
C,D,"is allergic to gluten, meaning she can’t eat wheat products. She enjoys eating dairy products. She thinks eating insects, like crickets, is disgusting.",,,,,,,,,,0,1,1,1,,,,,,,,,,,,,,,,,,,,,,,,,,001,73,2019_Oct_29_1207,ACPT_experiment_5_30_19,3.1.0,59.955027182932895,
C,U,"did not report her food preferences, so her food preferences are unknown.",,,,,,,,,,0,2,2,2,,,,,,,,,,,,,,,,,,,,,,,,,,001,73,2019_Oct_29_1207,ACPT_experiment_5_30_19,3.1.0,59.955027182932895,
,,,C,U,g,n,,,,,,,,,,0,0,0,16,,,,,,,,,,,,,n,1,4.003053865084439,2319.587276940616,None,,,,,001,73,2019_Oct_29_1207,ACPT_experiment_5_30_19,3.1.0,59.955027182932895,
,,,C,D,y,b,,,,,,,,,,0,1,1,2,,,,,,,,,,,,,b,1,3.0189933081819618,2326.8761465577536,None,,,,,001,73,2019_Oct_29_1207,ACPT_experiment_5_30_19,3.1.0,59.955027182932895,
,,,C,G,g,v,,,,,,,,,,0,2,2,19,,,,,,,,,,,,,v,1,3.252499433268895,2333.180941128954,None,,,,,001,73,2019_Oct_29_1207,ACPT_experiment_5_30_19,3.1.0,59.955027182932895,
,,,C,U,y,n,,,,,,,,,,0,3,3,17,,,,,,,,,,,,,n,1,2.8855414867739455,2339.7192463530646,None,,,,,001,73,2019_Oct_29_1207,ACPT_experiment_5_30_19,3.1.0,59.955027182932895,
,,,C,G,d,b,,,,,,,,,,0,4,4,12,,,,,,,,,,,,,b,1,2.535324106032931,2345.8905767268134,None,,,,,001,73,2019_Oct_29_1207,ACPT_experiment_5_30_19,3.1.0,59.955027182932895,
,,,C,U,g,n,,,,,,,,,,0,5,5,7,,,,,,,,,,,,,b,0,2.952268906752579,2351.7116981717554,None,,,,,001,73,2019_Oct_29_1207,ACPT_experiment_5_30_19,3.1.0,59.955027182932895,
,,,C,G,y,b,,,,,,,,,,0,6,6,5,,,,,,,,,,,,,b,1,2.2850852634182957,2357.9498012437016,None,,,,,001,73,2019_Oct_29_1207,ACPT_experiment_5_30_19,3.1.0,59.955027182932895,
,,,C,G,g,v,,,,,,,,,,0,7,7,4,,,,,,,,,,,,,v,1,3.085733707916006,2363.503977088012,None,,,,,001,73,2019_Oct_29_1207,ACPT_experiment_5_30_19,3.1.0,59.955027182932895,
,,,C,D,g,b,,,,,,,,,,0,8,8,10,,,,,,,,,,,,,b,1,3.9864002335143596,2369.8755023995946,None,,,,,001,73,2019_Oct_29_1207,ACPT_experiment_5_30_19,3.1.0,59.955027182932895,
,,,C,U,y,n,,,,,,,,,,0,9,9,8,,,,,,,,,,,,,n,1,1.8679979872322292,2377.147705103549,None,,,,,001,73,2019_Oct_29_1207,ACPT_experiment_5_30_19,3.1.0,59.955027182932895,
,,,C,G,g,v,,,,,,,,,,0,10,10,13,,,,,,,,,,,,,v,1,3.135714826898038,2382.3016444144323,None,,,,,001,73,2019_Oct_29_1207,ACPT_experiment_5_30_19,3.1.0,59.955027182932895,
,,,C,U,d,n,,,,,,,,,,0,11,11,6,,,,,,,,,,,,,v,0,2.6519155253281497,2388.7231755970915,None,,,,,001,73,2019_Oct_29_1207,ACPT_experiment_5_30_19,3.1.0,59.955027182932895,
,,,C,D,d,v,,,,,,,,,,0,12,12,9,,,,,,,,,,,,,b,0,6.571685234259348,2394.6610245978463,None,,,,,001,73,2019_Oct_29_1207,ACPT_experiment_5_30_19,3.1.0,59.955027182932895,
,,,C,U,d,n,,,,,,,,,,0,13,13,15,,,,,,,,,,,,,n,1,2.818824933568976,2404.5185156229472,None,,,,,001,73,2019_Oct_29_1207,ACPT_experiment_5_30_19,3.1.0,59.955027182932895,
,,,C,D,g,b,,,,,,,,,,0,14,14,1,,,,,,,,,,,,,v,0,5.23738043153935,2410.6231605345365,None,,,,,001,73,2019_Oct_29_1207,ACPT_experiment_5_30_19,3.1.0,59.955027182932895,
,,,C,D,y,b,,,,,,,,,,0,15,15,11,,,,,,,,,,,,,b,1,1.334382681261559,2419.1296119264043,None,,,,,001,73,2019_Oct_29_1207,ACPT_experiment_5_30_19,3.1.0,59.955027182932895,
,,,C,D,d,v,,,,,,,,,,0,16,16,0,,,,,,,,,,,,,v,1,2.6354188582590723,2423.733113864764,None,,,,,001,73,2019_Oct_29_1207,ACPT_experiment_5_30_19,3.1.0,59.955027182932895,
,,,C,G,y,b,,,,,,,,,,0,17,17,14,,,,,,,,,,,,,b,1,2.9522806790882896,2429.654280255887,None,,,,,001,73,2019_Oct_29_1207,ACPT_experiment_5_30_19,3.1.0,59.955027182932895,
,,,C,G,d,b,,,,,,,,,,0,18,18,3,,,,,,,,,,,,,b,1,3.4192986645030032,2435.8756747586885,None,,,,,001,73,2019_Oct_29_1207,ACPT_experiment_5_30_19,3.1.0,59.955027182932895,
,,,C,D,d,v,,,,,,,,,,0,19,19,18,,,,,,,,,,,,,v,1,3.7361958023466286,2442.580793099358,None,,,,,001,73,2019_Oct_29_1207,ACPT_experiment_5_30_19,3.1.0,59.955027182932895,
,,,C,G,g,v,,,,,,,,,,1,0,20,19,,,,,,,,,,,,,v,1,2.0682698980417626,2449.602784127628,None,,,,,001,73,2019_Oct_29_1207,ACPT_experiment_5_30_19,3.1.0,59.955027182932895,
,,,C,G,y,b,,,,,,,,,,1,1,21,5,,,,,,,,,,,,,b,1,2.0182160320528055,2454.9401898847846,None,,,,,001,73,2019_Oct_29_1207,ACPT_experiment_5_30_19,3.1.0,59.955027182932895,
,,,C,U,g,n,,,,,,,,,,1,2,22,16,,,,,,,,,,,,,n,1,2.418542518211325,2460.2442231781624,None,,,,,001,73,2019_Oct_29_1207,ACPT_experiment_5_30_19,3.1.0,59.955027182932895,
,,,C,U,g,n,,,,,,,,,,1,3,23,7,,,,,,,,,,,,,n,1,1.6012570441598655,2465.931878916377,None,,,,,001,73,2019_Oct_29_1207,ACPT_experiment_5_30_19,3.1.0,59.955027182932895,
,,,C,U,d,n,,,,,,,,,,1,4,24,6,,,,,,,,,,,,,n,1,1.4678028079142678,2470.8022446527175,None,,,,,001,73,2019_Oct_29_1207,ACPT_experiment_5_30_19,3.1.0,59.955027182932895,
,,,C,U,y,n,,,,,,,,,,1,5,25,8,,,,,,,,,,,,,n,1,1.0508193697824026,2475.5391836215986,None,,,,,001,73,2019_Oct_29_1207,ACPT_experiment_5_30_19,3.1.0,59.955027182932895,
,,,C,G,d,b,,,,,,,,,,1,6,26,3,,,,,,,,,,,,,b,1,4.870136628540422,2479.8927440443294,None,,,,,001,73,2019_Oct_29_1207,ACPT_experiment_5_30_19,3.1.0,59.955027182932895,
,,,C,G,y,b,,,,,,,,,,1,7,27,14,,,,,,,,,,,,,b,1,1.7513495173789124,2488.032014720855,None,,,,,001,73,2019_Oct_29_1207,ACPT_experiment_5_30_19,3.1.0,59.955027182932895,
,,,C,G,g,v,,,,,,,,,,1,8,28,13,,,,,,,,,,,,,v,1,3.686155821676948,2493.052493456542,None,,,,,001,73,2019_Oct_29_1207,ACPT_experiment_5_30_19,3.1.0,59.955027182932895,
,,,C,U,y,n,,,,,,,,,,1,9,29,17,,,,,,,,,,,,,n,1,1.9682192166201276,2500.0244336373707,None,,,,,001,73,2019_Oct_29_1207,ACPT_experiment_5_30_19,3.1.0,59.955027182932895,
,,,C,D,g,b,,,,,,,,,,1,10,30,10,,,,,,,,,,,,,b,1,2.835530786020172,2505.2784580411244,None,,,,,001,73,2019_Oct_29_1207,ACPT_experiment_5_30_19,3.1.0,59.955027182932895,
,,,C,D,y,b,,,,,,,,,,1,11,31,2,,,,,,,,,,,,,b,1,1.584553002836401,2511.383097821181,None,,,,,001,73,2019_Oct_29_1207,ACPT_experiment_5_30_19,3.1.0,59.955027182932895,
,,,C,G,g,v,,,,,,,,,,1,12,32,4,,,,,,,,,,,,,v,1,2.518615536890138,2516.25344906849,None,,,,,001,73,2019_Oct_29_1207,ACPT_experiment_5_30_19,3.1.0,59.955027182932895,
,,,C,G,d,b,,,,,,,,,,1,13,33,12,,,,,,,,,,,,,b,1,2.685391525305022,2522.0578755277547,None,,,,,001,73,2019_Oct_29_1207,ACPT_experiment_5_30_19,3.1.0,59.955027182932895,
,,,C,D,d,v,,,,,,,,,,1,14,34,18,,,,,,,,,,,,,v,1,3.5693887228862877,2528.0290855218045,None,,,,,001,73,2019_Oct_29_1207,ACPT_experiment_5_30_19,3.1.0,59.955027182932895,
,,,C,U,d,n,,,,,,,,,,1,15,35,15,,,,,,,,,,,,,n,1,1.4342893779394217,2534.8676387800115,None,,,,,001,73,2019_Oct_29_1207,ACPT_experiment_5_30_19,3.1.0,59.955027182932895,
,,,C,D,d,v,,,,,,,,,,1,16,36,9,,,,,,,,,,,,,v,1,5.721038766911079,2539.587868877894,None,,,,,001,73,2019_Oct_29_1207,ACPT_experiment_5_30_19,3.1.0,59.955027182932895,
,,,C,D,d,v,,,,,,,,,,1,17,37,0,,,,,,,,,,,,,v,1,1.7346669077487604,2548.5780305241606,None,,,,,001,73,2019_Oct_29_1207,ACPT_experiment_5_30_19,3.1.0,59.955027182932895,
,,,C,D,g,b,,,,,,,,,,1,18,38,1,,,,,,,,,,,,,b,1,1.0508480459884595,2553.5818326873123,None,,,,,001,73,2019_Oct_29_1207,ACPT_experiment_5_30_19,3.1.0,59.955027182932895,
,,,C,D,y,b,,,,,,,,,,1,19,39,11,,,,,,,,,,,,,b,1,1.6675413412813214,2557.9355244168837,None,,,,,001,73,2019_Oct_29_1207,ACPT_experiment_5_30_19,3.1.0,59.955027182932895,
,,,C,U,g,n,,,,,,,,,,2,0,40,7,,,,,,,,,,,,,n,1,1.3510649890376953,2562.888889660295,None,,,,,001,73,2019_Oct_29_1207,ACPT_experiment_5_30_19,3.1.0,59.955027182932895,
,,,C,D,y,b,,,,,,,,,,2,1,41,11,,,,,,,,,,,,,b,1,4.003072278228501,2567.525759534612,None,,,,,001,73,2019_Oct_29_1207,ACPT_experiment_5_30_19,3.1.0,59.955027182932895,
,,,C,U,y,n,,,,,,,,,,2,2,42,8,,,,,,,,,,,,,n,1,1.000803235641797,2574.814618888684,None,,,,,001,73,2019_Oct_29_1207,ACPT_experiment_5_30_19,3.1.0,59.955027182932895,
,,,C,D,d,v,,,,,,,,,,2,3,43,0,,,,,,,,,,,,,v,1,3.8696098919026554,2579.1179280323795,None,,,,,001,73,2019_Oct_29_1207,ACPT_experiment_5_30_19,3.1.0,59.955027182932895,
,,,C,D,d,v,,,,,,,,,,2,4,44,18,,,,,,,,,,,,,v,1,0.7339041206505499,2586.2733536763353,None,,,,,001,73,2019_Oct_29_1207,ACPT_experiment_5_30_19,3.1.0,59.955027182932895,
,,,C,D,g,b,,,,,,,,,,2,5,45,1,,,,,,,,,,,,,b,1,0.8003619842857006,2590.2933406905413,None,,,,,001,73,2019_Oct_29_1207,ACPT_experiment_5_30_19,3.1.0,59.955027182932895,
,,,C,G,y,b,,,,,,,,,,2,6,46,5,,,,,,,,,,,,,b,1,2.2684633266035235,2594.3795126916357,None,,,,,001,73,2019_Oct_29_1207,ACPT_experiment_5_30_19,3.1.0,59.955027182932895,
,,,C,G,d,b,,,,,,,,,,2,7,47,12,,,,,,,,,,,,,b,1,3.6695036993805843,2599.9170327913926,None,,,,,001,73,2019_Oct_29_1207,ACPT_experiment_5_30_19,3.1.0,59.955027182932895,
,,,C,U,d,n,,,,,,,,,,2,8,48,15,,,,,,,,,,,,,n,1,0.8506878214575408,2606.8723172276677,None,,,,,001,73,2019_Oct_29_1207,ACPT_experiment_5_30_19,3.1.0,59.955027182932895,
,,,C,D,d,v,,,,,,,,,,2,9,49,9,,,,,,,,,,,,,v,1,4.219840252399081,2611.00886245714,None,,,,,001,73,2019_Oct_29_1207,ACPT_experiment_5_30_19,3.1.0,59.955027182932895,
,,,C,G,g,v,,,,,,,,,,2,10,50,19,,,,,,,,,,,,,v,1,4.253242901657359,2618.514523894977,None,,,,,001,73,2019_Oct_29_1207,ACPT_experiment_5_30_19,3.1.0,59.955027182932895,
,,,C,G,g,v,,,,,,,,,,2,11,51,13,,,,,,,,,,,,,v,1,1.618060999422596,2626.036756558022,None,,,,,001,73,2019_Oct_29_1207,ACPT_experiment_5_30_19,3.1.0,59.955027182932895,
,,,C,U,g,n,,,,,,,,,,2,12,52,16,,,,,,,,,,,,,n,1,0.8673592624600133,2630.940616405627,None,,,,,001,73,2019_Oct_29_1207,ACPT_experiment_5_30_19,3.1.0,59.955027182932895,
,,,C,G,g,v,,,,,,,,,,2,13,53,4,,,,,,,,,,,,,v,1,2.801915329122494,2635.1106980060376,None,,,,,001,73,2019_Oct_29_1207,ACPT_experiment_5_30_19,3.1.0,59.955027182932895,
,,,C,U,y,n,,,,,,,,,,2,14,54,17,,,,,,,,,,,,,n,1,1.367719224317625,2641.1984251630984,None,,,,,001,73,2019_Oct_29_1207,ACPT_experiment_5_30_19,3.1.0,59.955027182932895,
,,,C,G,y,b,,,,,,,,,,2,15,55,14,,,,,,,,,,,,,b,1,1.5345015516850253,2645.8686551251467,None,,,,,001,73,2019_Oct_29_1207,ACPT_experiment_5_30_19,3.1.0,59.955027182932895,
,,,C,D,g,b,,,,,,,,,,2,16,56,10,,,,,,,,,,,,,v,0,3.6027542440024263,2650.6889700140455,None,,,,,001,73,2019_Oct_29_1207,ACPT_experiment_5_30_19,3.1.0,59.955027182932895,
,,,C,U,d,n,,,,,,,,,,2,17,57,6,,,,,,,,,,,,,n,1,1.167572885107802,2657.577536689696,None,,,,,001,73,2019_Oct_29_1207,ACPT_experiment_5_30_19,3.1.0,59.955027182932895,
,,,C,D,y,b,,,,,,,,,,2,18,58,2,,,,,,,,,,,,,b,1,2.718484471532065,2662.047875681701,None,,,,,001,73,2019_Oct_29_1207,ACPT_experiment_5_30_19,3.1.0,59.955027182932895,
,,,C,G,d,b,,,,,,,,,,2,19,59,3,,,,,,,,,,,,,b,1,3.0523370957525913,2668.052164132947,None,,,,,001,73,2019_Oct_29_1207,ACPT_experiment_5_30_19,3.1.0,59.955027182932895,
,,,C,D,g,b,,,,,,,,,,3,0,60,10,,,,,,,,,,,,,b,1,2.7354565599252965,2674.390292832366,None,,,,,001,73,2019_Oct_29_1207,ACPT_experiment_5_30_19,3.1.0,59.955027182932895,
,,,C,U,d,n,,,,,,,,,,3,1,61,15,,,,,,,,,,,,,n,1,0.9340622321997216,2680.41155880539,None,,,,,001,73,2019_Oct_29_1207,ACPT_experiment_5_30_19,3.1.0,59.955027182932895,
,,,C,G,g,v,,,,,,,,,,3,2,62,13,,,,,,,,,,,,,v,1,3.052082934005739,2684.648359675699,None,,,,,001,73,2019_Oct_29_1207,ACPT_experiment_5_30_19,3.1.0,59.955027182932895,
,,,C,G,d,b,,,,,,,,,,3,3,63,3,,,,,,,,,,,,,b,1,1.6512665374939388,2690.969579978091,None,,,,,001,73,2019_Oct_29_1207,ACPT_experiment_5_30_19,3.1.0,59.955027182932895,
,,,C,U,d,n,,,,,,,,,,3,4,64,6,,,,,,,,,,,,,n,1,0.7506000118937664,2695.906665286184,None,,,,,001,73,2019_Oct_29_1207,ACPT_experiment_5_30_19,3.1.0,59.955027182932895,
,,,C,U,g,n,,,,,,,,,,3,5,65,16,,,,,,,,,,,,,n,1,0.8504070964863786,2699.959993371267,None,,,,,001,73,2019_Oct_29_1207,ACPT_experiment_5_30_19,3.1.0,59.955027182932895,
,,,C,U,y,n,,,,,,,,,,3,6,66,17,,,,,,,,,,,,,n,1,0.8673547346388659,2704.0795167063043,None,,,,,001,73,2019_Oct_29_1207,ACPT_experiment_5_30_19,3.1.0,59.955027182932895,
,,,C,U,y,n,,,,,,,,,,3,7,67,8,,,,,,,,,,,,,n,1,0.5637944477439305,2708.2526944314723,None,,,,,001,73,2019_Oct_29_1207,ACPT_experiment_5_30_19,3.1.0,59.955027182932895,
,,,C,D,d,v,,,,,,,,,,3,8,68,9,,,,,,,,,,,,,b,0,1.4344357775207754,2712.102307649815,None,,,,,001,73,2019_Oct_29_1207,ACPT_experiment_5_30_19,3.1.0,59.955027182932895,
,,,C,G,y,b,,,,,,,,,,3,9,69,5,,,,,,,,,,,,,b,1,0.9340709859880008,2716.822582120354,None,,,,,001,73,2019_Oct_29_1207,ACPT_experiment_5_30_19,3.1.0,59.955027182932895,
,,,C,U,g,n,,,,,,,,,,3,10,70,7,,,,,,,,,,,,,n,1,2.3017953418366233,2721.0424582934756,None,,,,,001,73,2019_Oct_29_1207,ACPT_experiment_5_30_19,3.1.0,59.955027182932895,
,,,C,D,y,b,,,,,,,,,,3,11,71,2,,,,,,,,,,,,,b,1,1.9848619814183621,2726.630010223822,None,,,,,001,73,2019_Oct_29_1207,ACPT_experiment_5_30_19,3.1.0,59.955027182932895,
,,,C,D,g,b,,,,,,,,,,3,12,72,1,,,,,,,,,,,,,b,1,3.1357634255218727,2731.883979086291,None,,,,,001,73,2019_Oct_29_1207,ACPT_experiment_5_30_19,3.1.0,59.955027182932895,
,,,C,G,g,v,,,,,,,,,,3,13,73,19,,,,,,,,,,,,,v,1,2.3352112727079657,2738.3055498119284,None,,,,,001,73,2019_Oct_29_1207,ACPT_experiment_5_30_19,3.1.0,59.955027182932895,
,,,C,D,d,v,,,,,,,,,,3,14,74,18,,,,,,,,,,,,,b,0,1.3010102174830536,2743.926488996938,None,,,,,001,73,2019_Oct_29_1207,ACPT_experiment_5_30_19,3.1.0,59.955027182932895,
,,,C,G,y,b,,,,,,,,,,3,15,75,14,,,,,,,,,,,,,b,1,1.0505467948914884,2748.530252341563,None,,,,,001,73,2019_Oct_29_1207,ACPT_experiment_5_30_19,3.1.0,59.955027182932895,
,,,C,G,g,v,,,,,,,,,,3,16,76,4,,,,,,,,,,,,,v,1,2.2184094606127474,2752.84991326202,None,,,,,001,73,2019_Oct_29_1207,ACPT_experiment_5_30_19,3.1.0,59.955027182932895,
,,,C,D,d,v,,,,,,,,,,3,17,77,0,,,,,,,,,,,,,v,1,1.3510966837930027,2758.354114326301,None,,,,,001,73,2019_Oct_29_1207,ACPT_experiment_5_30_19,3.1.0,59.955027182932895,
,,,C,D,y,b,,,,,,,,,,3,18,78,11,,,,,,,,,,,,,b,1,3.719278953385583,2763.0079179534478,None,,,,,001,73,2019_Oct_29_1207,ACPT_experiment_5_30_19,3.1.0,59.955027182932895,
,,,C,G,d,b,,,,,,,,,,3,19,79,12,,,,,,,,,,,,,b,1,1.4177619216807216,2770.0129743233247,None,,,,,001,73,2019_Oct_29_1207,ACPT_experiment_5_30_19,3.1.0,59.955027182932895,
,,,C,G,g,v,,,,,,,,,,4,0,80,4,,,,,,,,,,,,,v,1,4.769908456491976,2774.716813101464,None,,,,,001,73,2019_Oct_29_1207,ACPT_experiment_5_30_19,3.1.0,59.955027182932895,
,,,C,U,y,n,,,,,,,,,,4,1,81,8,,,,,,,,,,,,,n,1,1.6679240931753156,2782.7726930670888,None,,,,,001,73,2019_Oct_29_1207,ACPT_experiment_5_30_19,3.1.0,59.955027182932895,
,,,C,G,y,b,,,,,,,,,,4,2,82,5,,,,,,,,,,,,,b,1,3.4192835717640264,2787.726434421589,None,,,,,001,73,2019_Oct_29_1207,ACPT_experiment_5_30_19,3.1.0,59.955027182932895,
,,,C,G,d,b,,,,,,,,,,4,3,83,3,,,,,,,,,,,,,b,1,2.3017877954680444,2794.4148281948073,None,,,,,001,73,2019_Oct_29_1207,ACPT_experiment_5_30_19,3.1.0,59.955027182932895,
,,,C,G,g,v,,,,,,,,,,4,4,84,13,,,,,,,,,,,,,v,1,1.5345172481356713,2799.9857458122915,None,,,,,001,73,2019_Oct_29_1207,ACPT_experiment_5_30_19,3.1.0,59.955027182932895,
,,,C,G,g,v,,,,,,,,,,4,5,85,19,,,,,,,,,,,,,v,1,1.4511153686053149,2804.7893977121203,None,,,,,001,73,2019_Oct_29_1207,ACPT_experiment_5_30_19,3.1.0,59.955027182932895,
,,,C,U,d,n,,,,,,,,,,4,6,86,15,,,,,,,,,,,,,n,1,0.9507378991693258,2809.526327021649,None,,,,,001,73,2019_Oct_29_1207,ACPT_experiment_5_30_19,3.1.0,59.955027182932895,
,,,C,D,y,b,,,,,,,,,,4,7,87,2,,,,,,,,,,,,,b,1,2.5519813598621113,2813.7628918414975,None,,,,,001,73,2019_Oct_29_1207,ACPT_experiment_5_30_19,3.1.0,59.955027182932895,
,,,C,D,y,b,,,,,,,,,,4,8,88,11,,,,,,,,,,,,,b,1,1.7513748731835221,2819.5839447654,None,,,,,001,73,2019_Oct_29_1207,ACPT_experiment_5_30_19,3.1.0,59.955027182932895,
,,,C,G,y,b,,,,,,,,,,4,9,89,14,,,,,,,,,,,,,b,1,4.403384275357894,2824.6211030921695,None,,,,,001,73,2019_Oct_29_1207,ACPT_experiment_5_30_19,3.1.0,59.955027182932895,
,,,C,U,g,n,,,,,,,,,,4,10,90,16,,,,,,,,,,,,,n,1,2.235045282748615,2832.3103007047393,None,,,,,001,73,2019_Oct_29_1207,ACPT_experiment_5_30_19,3.1.0,59.955027182932895,
,,,C,D,g,b,,,,,,,,,,4,11,91,1,,,,,,,,,,,,,b,1,2.4352118462320504,2837.8311695877655,None,,,,,001,73,2019_Oct_29_1207,ACPT_experiment_5_30_19,3.1.0,59.955027182932895,
,,,C,G,d,b,,,,,,,,,,4,12,92,12,,,,,,,,,,,,,b,1,1.9514985732821515,2843.5521842062917,None,,,,,001,73,2019_Oct_29_1207,ACPT_experiment_5_30_19,3.1.0,59.955027182932895,
,,,C,D,d,v,,,,,,,,,,4,13,93,0,,,,,,,,,,,,,b,0,2.2684802304720506,2848.789492796386,None,,,,,001,73,2019_Oct_29_1207,ACPT_experiment_5_30_19,3.1.0,59.955027182932895,
,,,C,D,d,v,,,,,,,,,,4,14,94,18,,,,,,,,,,,,,v,1,1.0007827095159882,2854.3270337241247,None,,,,,001,73,2019_Oct_29_1207,ACPT_experiment_5_30_19,3.1.0,59.955027182932895,
,,,C,U,d,n,,,,,,,,,,4,15,95,6,,,,,,,,,,,,,n,1,0.6669762690798962,2858.6305179436076,None,,,,,001,73,2019_Oct_29_1207,ACPT_experiment_5_30_19,3.1.0,59.955027182932895,
,,,C,U,g,n,,,,,,,,,,4,16,96,7,,,,,,,,,,,,,n,1,3.786243329384888,2862.5833066443374,None,,,,,001,73,2019_Oct_29_1207,ACPT_experiment_5_30_19,3.1.0,59.955027182932895,
,,,C,U,y,n,,,,,,,,,,4,17,97,17,,,,,,,,,,,,,n,1,0.7172296610988269,2869.638643573164,None,,,,,001,73,2019_Oct_29_1207,ACPT_experiment_5_30_19,3.1.0,59.955027182932895,
,,,C,D,g,b,,,,,,,,,,4,18,98,10,,,,,,,,,,,,,b,1,2.101611874484661,2873.641708003166,None,,,,,001,73,2019_Oct_29_1207,ACPT_experiment_5_30_19,3.1.0,59.955027182932895,
,,,C,D,d,v,,,,,,,,,,4,19,99,9,,,,,,,,,,,,,b,0,1.6345848334258335,2879.0291380445415,None,,,,,001,73,2019_Oct_29_1207,ACPT_experiment_5_30_19,3.1.0,59.955027182932895,
,,,C,U,d,n,,,,,,,,,,5,0,100,15,,,,,,,,,,,,,n,1,1.2342800808128231,2883.9495398374384,None,,,,,001,73,2019_Oct_29_1207,ACPT_experiment_5_30_19,3.1.0,59.955027182932895,
,,,C,U,y,n,,,,,,,,,,5,1,101,8,,,,,,,,,,,,,n,1,0.9140679734755395,2888.4896326457183,None,,,,,001,73,2019_Oct_29_1207,ACPT_experiment_5_30_19,3.1.0,59.955027182932895,
,,,C,D,d,v,,,,,,,,,,5,2,102,18,,,,,,,,,,,,,v,1,6.271503608220883,2892.6895151638273,None,,,,,001,73,2019_Oct_29_1207,ACPT_experiment_5_30_19,3.1.0,59.955027182932895,
,,,C,U,y,n,,,,,,,,,,5,3,103,17,,,,,,,,,,,,,n,1,0.6338202351998916,2902.2467735494283,None,,,,,001,73,2019_Oct_29_1207,ACPT_experiment_5_30_19,3.1.0,59.955027182932895,
,,,C,U,d,n,,,,,,,,,,5,4,104,6,,,,,,,,,,,,,n,1,0.9504994338713004,2906.183333630157,None,,,,,001,73,2019_Oct_29_1207,ACPT_experiment_5_30_19,3.1.0,59.955027182932895,
,,,C,G,d,b,,,,,,,,,,5,5,105,12,,,,,,,,,,,,,b,1,2.118313500968725,2910.419622856567,None,,,,,001,73,2019_Oct_29_1207,ACPT_experiment_5_30_19,3.1.0,59.955027182932895,
,,,C,G,y,b,,,,,,,,,,5,6,106,14,,,,,,,,,,,,,b,1,1.0174876564014994,2915.823753015151,None,,,,,001,73,2019_Oct_29_1207,ACPT_experiment_5_30_19,3.1.0,59.955027182932895,
,,,C,G,g,v,,,,,,,,,,5,7,107,4,,,,,,,,,,,,,v,1,3.652818674911032,2920.127030765947,None,,,,,001,73,2019_Oct_29_1207,ACPT_experiment_5_30_19,3.1.0,59.955027182932895,
,,,C,U,g,n,,,,,,,,,,5,8,108,16,,,,,,,,,,,,,n,1,0.9173781132922159,2927.0656344037197,None,,,,,001,73,2019_Oct_29_1207,ACPT_experiment_5_30_19,3.1.0,59.955027182932895,
,,,C,U,g,n,,,,,,,,,,5,9,109,7,,,,,,,,,,,,,n,1,0.7669886149415106,2931.269105371777,None,,,,,001,73,2019_Oct_29_1207,ACPT_experiment_5_30_19,3.1.0,59.955027182932895,
,,,C,G,d,b,,,,,,,,,,5,10,110,3,,,,,,,,,,,,,b,1,2.0515839680083445,2935.321895249741,None,,,,,001,73,2019_Oct_29_1207,ACPT_experiment_5_30_19,3.1.0,59.955027182932895,
,,,C,D,d,v,,,,,,,,,,5,11,111,0,,,,,,,,,,,,,b,0,2.301833073688613,2940.6425885136396,None,,,,,001,73,2019_Oct_29_1207,ACPT_experiment_5_30_19,3.1.0,59.955027182932895,
,,,C,D,d,v,,,,,,,,,,5,12,112,9,,,,,,,,,,,,,v,1,1.100852709645551,2946.213505225558,None,,,,,001,73,2019_Oct_29_1207,ACPT_experiment_5_30_19,3.1.0,59.955027182932895,
,,,C,D,g,b,,,,,,,,,,5,13,113,10,,,,,,,,,,,,,b,1,1.0338653926792176,2950.6004384139214,None,,,,,001,73,2019_Oct_29_1207,ACPT_experiment_5_30_19,3.1.0,59.955027182932895,
,,,C,D,y,b,,,,,,,,,,5,14,114,11,,,,,,,,,,,,,b,1,1.0841927391229547,2954.9034242711186,None,,,,,001,73,2019_Oct_29_1207,ACPT_experiment_5_30_19,3.1.0,59.955027182932895,
,,,C,D,g,b,,,,,,,,,,5,15,115,1,,,,,,,,,,,,,b,1,1.1175238487940078,2959.273440912373,None,,,,,001,73,2019_Oct_29_1207,ACPT_experiment_5_30_19,3.1.0,59.955027182932895,
,,,C,G,g,v,,,,,,,,,,5,16,116,19,,,,,,,,,,,,,v,1,2.435201281314221,2963.6767705520106,None,,,,,001,73,2019_Oct_29_1207,ACPT_experiment_5_30_19,3.1.0,59.955027182932895,
,,,C,D,y,b,,,,,,,,,,5,17,117,2,,,,,,,,,,,,,b,1,1.4844956806082337,2969.3977670592485,None,,,,,001,73,2019_Oct_29_1207,ACPT_experiment_5_30_19,3.1.0,59.955027182932895,
,,,C,G,g,v,,,,,,,,,,5,18,118,13,,,,,,,,,,,,,v,1,1.918154785711522,2974.168073662231,None,,,,,001,73,2019_Oct_29_1207,ACPT_experiment_5_30_19,3.1.0,59.955027182932895,
,,,C,G,y,b,,,,,,,,,,5,19,119,5,0,0,0,0,0,0,0,0,,,,,b,1,2.902230435356614,2979.3553528365737,None,,,,,001,73,2019_Oct_29_1207,ACPT_experiment_5_30_19,3.1.0,59.955027182932895,
,,,C,G,y,b,R,U,y,L,u,,,,,5,19,119,5,0,0,0,0,,,,,0,0,0,30,,,,,,down,4.403485698570876,3086.1696988485146,None,001,73,2019_Oct_29_1207,ACPT_experiment_5_30_19,3.1.0,59.955027182932895,
,,,C,G,y,b,R,U,d,L,u,,,,,5,19,119,5,0,0,0,0,,,,,0,1,1,8,,,,,,down,3.435965879540163,3091.874158240138,None,001,73,2019_Oct_29_1207,ACPT_experiment_5_30_19,3.1.0,59.955027182932895,
,,,C,G,y,b,R,G,y,L,y,,,,,5,19,119,5,0,0,0,0,,,,,0,2,2,28,,,,,,down,1.701296556953821,3096.5944278810002,None,001,73,2019_Oct_29_1207,ACPT_experiment_5_30_19,3.1.0,59.955027182932895,
,,,C,G,y,b,L,G,d,L,i,,,,,5,19,119,5,0,0,0,0,,,,,0,3,3,16,,,,,,down,3.18572884805144,3099.5800514420953,None,001,73,2019_Oct_29_1207,ACPT_experiment_5_30_19,3.1.0,59.955027182932895,
,,,C,G,y,b,R,U,g,L,u,,,,,5,19,119,5,0,0,0,0,,,,,0,4,4,10,,,,,,down,1.284308892854824,3104.050092201551,None,001,73,2019_Oct_29_1207,ACPT_experiment_5_30_19,3.1.0,59.955027182932895,
,,,C,G,y,b,L,D,d,R,c ,,,,,5,19,119,5,0,0,0,0,,,,,0,5,5,13,,,,,,up,2.0515649511562515,3106.618709081693,None,001,73,2019_Oct_29_1207,ACPT_experiment_5_30_19,3.1.0,59.955027182932895,
,,,C,G,y,b,R,U,g,R,u,,,,,5,19,119,5,0,0,0,0,,,,,0,6,6,11,,,,,,down,1.7846951160790923,3109.9545747756238,None,001,73,2019_Oct_29_1207,ACPT_experiment_5_30_19,3.1.0,59.955027182932895,
,,,C,G,y,b,R,D,d,R,c ,,,,,5,19,119,5,0,0,0,0,,,,,0,7,7,1,,,,,,up,1.6179233536313404,3113.0235519194794,None,001,73,2019_Oct_29_1207,ACPT_experiment_5_30_19,3.1.0,59.955027182932895,
,,,C,G,y,b,L,D,y,L,y,,,,,5,19,119,5,0,0,0,0,,,,,0,8,8,32,,,,,,down,1.1675656405914197,3115.9424622477727,None,001,73,2019_Oct_29_1207,ACPT_experiment_5_30_19,3.1.0,59.955027182932895,
,,,C,G,y,b,L,G,y,L,y,,,,,5,19,119,5,0,0,0,0,,,,,0,9,9,34,,,,,,down,0.7672116856447246,3118.3943633444414,None,001,73,2019_Oct_29_1207,ACPT_experiment_5_30_19,3.1.0,59.955027182932895,
,,,C,G,y,b,L,D,d,L,c ,,,,,5,19,119,5,0,0,0,0,,,,,0,10,10,12,,,,,,up,1.1675270031755645,3120.4959290351417,None,001,73,2019_Oct_29_1207,ACPT_experiment_5_30_19,3.1.0,59.955027182932895,
,,,C,G,y,b,R,G,g,R,c ,,,,,5,19,119,5,0,0,0,0,,,,,0,11,11,7,,,,,,up,0.9173865652264794,3122.9477573848017,None,001,73,2019_Oct_29_1207,ACPT_experiment_5_30_19,3.1.0,59.955027182932895,
,,,C,G,y,b,L,D,g,R,i,,,,,5,19,119,5,0,0,0,0,,,,,0,12,12,15,,,,,,down,2.2515875298940955,3125.1494597855435,None,001,73,2019_Oct_29_1207,ACPT_experiment_5_30_19,3.1.0,59.955027182932895,
,,,C,G,y,b,L,U,g,L,u,,,,,5,19,119,5,0,0,0,0,,,,,0,13,13,22,,,,,,down,1.2843016483384417,3128.685483289166,None,001,73,2019_Oct_29_1207,ACPT_experiment_5_30_19,3.1.0,59.955027182932895,
,,,C,G,y,b,L,G,g,R,c ,,,,,5,19,119,5,0,0,0,0,,,,,0,14,14,19,,,,,,up,1.300999652565224,3131.2540832654413,None,001,73,2019_Oct_29_1207,ACPT_experiment_5_30_19,3.1.0,59.955027182932895,
,,,C,G,y,b,R,G,d,L,i,,,,,5,19,119,5,0,0,0,0,,,,,0,15,15,4,,,,,,down,4.153032840898959,3133.83939060344,None,001,73,2019_Oct_29_1207,ACPT_experiment_5_30_19,3.1.0,59.955027182932895,
,,,C,G,y,b,R,D,g,L,i,,,,,5,19,119,5,0,0,0,0,,,,,0,16,16,2,,,,,,down,1.7513347264921322,3139.2768449290343,None,001,73,2019_Oct_29_1207,ACPT_experiment_5_30_19,3.1.0,59.955027182932895,
,,,C,G,y,b,R,D,y,R,y,,,,,5,19,119,5,0,0,0,0,,,,,0,17,17,27,,,,,,down,1.33443701512806,3142.312488850237,None,001,73,2019_Oct_29_1207,ACPT_experiment_5_30_19,3.1.0,59.955027182932895,
,,,C,G,y,b,R,G,y,R,y,,,,,5,19,119,5,0,0,0,0,,,,,0,18,18,29,,,,,,down,1.1675822426077502,3144.9311423906474,None,001,73,2019_Oct_29_1207,ACPT_experiment_5_30_19,3.1.0,59.955027182932895,
,,,C,G,y,b,R,G,g,L,c ,,,,,5,19,119,5,0,0,0,0,,,,,0,19,19,6,,,,,,up,2.285095828336125,3147.366305034546,None,001,73,2019_Oct_29_1207,ACPT_experiment_5_30_19,3.1.0,59.955027182932895,
,,,C,G,y,b,L,U,g,R,u,,,,,5,19,119,5,0,0,0,0,,,,,0,20,20,23,,,,,,down,1.067458814175552,3150.9357209243626,None,001,73,2019_Oct_29_1207,ACPT_experiment_5_30_19,3.1.0,59.955027182932895,
,,,C,G,y,b,L,G,y,R,y,,,,,5,19,119,5,0,0,0,0,,,,,0,21,21,35,,,,,,down,2.235028378880088,3153.28749346107,None,001,73,2019_Oct_29_1207,ACPT_experiment_5_30_19,3.1.0,59.955027182932895,
,,,C,G,y,b,R,D,y,L,y,,,,,5,19,119,5,0,0,0,0,,,,,0,22,22,26,,,,,,down,0.9840886294023221,3156.8068295253834,None,001,73,2019_Oct_29_1207,ACPT_experiment_5_30_19,3.1.0,59.955027182932895,
,,,C,G,y,b,L,D,y,R,y,,,,,5,19,119,5,0,0,0,0,,,,,0,23,23,33,,,,,,down,2.6185089519567555,3159.092037945564,None,001,73,2019_Oct_29_1207,ACPT_experiment_5_30_19,3.1.0,59.955027182932895,
,,,C,G,y,b,R,G,d,R,i,,,,,5,19,119,5,0,0,0,0,,,,,0,24,24,5,,,,,,down,1.4344212884916487,3163.01154685194,None,001,73,2019_Oct_29_1207,ACPT_experiment_5_30_19,3.1.0,59.955027182932895,
,,,C,G,y,b,L,U,y,L,u,,,,,5,19,119,5,0,0,0,0,,,,,0,25,25,24,,,,,,down,1.050791900994227,3165.730288201914,None,001,73,2019_Oct_29_1207,ACPT_experiment_5_30_19,3.1.0,59.955027182932895,
,,,C,G,y,b,L,U,d,L,u,,,,,5,19,119,5,0,0,0,0,,,,,0,26,26,20,,,,,,down,1.5512104226836527,3168.0486804266166,None,001,73,2019_Oct_29_1207,ACPT_experiment_5_30_19,3.1.0,59.955027182932895,
,,,C,G,y,b,R,U,d,R,u,,,,,5,19,119,5,0,0,0,0,,,,,0,27,27,9,,,,,,down,1.3843954949988984,3170.8842205701367,None,001,73,2019_Oct_29_1207,ACPT_experiment_5_30_19,3.1.0,59.955027182932895,
,,,C,G,y,b,L,G,d,R,i,,,,,5,19,119,5,0,0,0,0,,,,,0,28,28,17,,,,,,down,1.9514922343314538,3173.5528823964614,None,001,73,2019_Oct_29_1207,ACPT_experiment_5_30_19,3.1.0,59.955027182932895,
,,,C,G,y,b,L,D,g,L,i,,,,,5,19,119,5,0,0,0,0,,,,,0,29,29,14,,,,,,down,2.0015648153221264,3176.788676580987,None,001,73,2019_Oct_29_1207,ACPT_experiment_5_30_19,3.1.0,59.955027182932895,
,,,C,G,y,b,L,G,g,L,c ,,,,,5,19,119,5,0,0,0,0,,,,,0,30,30,18,,,,,,up,1.2342489897673659,3180.0745213111004,None,001,73,2019_Oct_29_1207,ACPT_experiment_5_30_19,3.1.0,59.955027182932895,
,,,C,G,y,b,L,U,d,R,u,,,,,5,19,119,5,0,0,0,0,,,,,0,31,31,21,,,,,,down,1.5845813771884423,3182.593058969449,None,001,73,2019_Oct_29_1207,ACPT_experiment_5_30_19,3.1.0,59.955027182932895,
,,,C,G,y,b,R,U,y,R,u,,,,,5,19,119,5,0,0,0,0,,,,,0,32,32,31,,,,,,down,1.2009106355817494,3185.461931430058,None,001,73,2019_Oct_29_1207,ACPT_experiment_5_30_19,3.1.0,59.955027182932895,
,,,C,G,y,b,L,U,y,R,u,,,,,5,19,119,5,0,0,0,0,,,,,0,33,33,25,,,,,,down,2.6686763153556967,3187.947172390186,None,001,73,2019_Oct_29_1207,ACPT_experiment_5_30_19,3.1.0,59.955027182932895,
,,,C,G,y,b,R,D,d,L,c,,,,,5,19,119,5,0,0,0,0,,,,,0,34,34,0,,,,,,down,0.9674349978322425,3191.9001449204916,None,001,73,2019_Oct_29_1207,ACPT_experiment_5_30_19,3.1.0,59.955027182932895,
,,,C,G,y,b,R,D,g,R,i,,,,,5,19,119,5,0,0,0,0,,,,,0,35,35,3,,,,,,down,2.968918010497873,3194.1518694924707,None,001,73,2019_Oct_29_1207,ACPT_experiment_5_30_19,3.1.0,59.955027182932895,
,,,C,G,y,b,R,G,g,L,c ,,,,,5,19,119,5,0,0,0,0,,,,,1,0,36,6,,,,,,up,1.6512605003972567,3198.4050969995333,None,001,73,2019_Oct_29_1207,ACPT_experiment_5_30_19,3.1.0,59.955027182932895,
,,,C,G,y,b,L,G,d,R,i,,,,,5,19,119,5,0,0,0,0,,,,,1,1,37,17,,,,,,down,2.18499564272679,3201.340659450123,None,001,73,2019_Oct_29_1207,ACPT_experiment_5_30_19,3.1.0,59.955027182932895,
,,,C,G,y,b,L,G,g,L,c ,,,,,5,19,119,5,0,0,0,0,,,,,1,2,38,18,,,,,,up,5.304064988133177,3204.7932623592187,None,001,73,2019_Oct_29_1207,ACPT_experiment_5_30_19,3.1.0,59.955027182932895,
,,,C,G,y,b,R,G,y,L,y,,,,,5,19,119,5,0,0,0,0,,,,,1,3,39,28,,,,,,down,16.81274859629957,3211.3983266980613,None,001,73,2019_Oct_29_1207,ACPT_experiment_5_30_19,3.1.0,59.955027182932895,
,,,C,G,y,b,R,D,d,L,c,,,,,5,19,119,5,0,0,0,0,,,,,1,4,40,0,,,,,,up,3.1357214677027514,3229.512060457895,None,001,73,2019_Oct_29_1207,ACPT_experiment_5_30_19,3.1.0,59.955027182932895,
,,,C,G,y,b,R,G,d,L,i,,,,,5,19,119,5,0,0,0,0,,,,,1,5,41,4,,,,,,down,0.8006170515964186,3233.9320814609528,None,001,73,2019_Oct_29_1207,ACPT_experiment_5_30_19,3.1.0,59.955027182932895,
,,,C,G,y,b,R,U,d,L,u,,,,,5,19,119,5,0,0,0,0,,,,,1,6,42,8,,,,,,down,0.7339300801650097,3236.000325701336,None,001,73,2019_Oct_29_1207,ACPT_experiment_5_30_19,3.1.0,59.955027182932895,
,,,C,G,y,b,R,D,d,R,c ,,,,,5,19,119,5,0,0,0,0,,,,,1,7,43,1,,,,,,up,1.684617267725116,3238.0185184905677,None,001,73,2019_Oct_29_1207,ACPT_experiment_5_30_19,3.1.0,59.955027182932895,
,,,C,G,y,b,L,D,d,L,c ,,,,,5,19,119,5,0,0,0,0,,,,,1,8,44,12,,,,,,up,1.601214482630894,3240.987441934454,None,001,73,2019_Oct_29_1207,ACPT_experiment_5_30_19,3.1.0,59.955027182932895,
,,,C,G,y,b,R,U,d,R,u,,,,,5,19,119,5,0,0,0,0,,,,,1,9,45,9,,,,,,down,1.4177845607919153,3243.872941161555,None,001,73,2019_Oct_29_1207,ACPT_experiment_5_30_19,3.1.0,59.955027182932895,
,,,C,G,y,b,R,G,d,R,i,,,,,5,19,119,5,0,0,0,0,,,,,1,10,46,5,,,,,,down,0.867336321492985,3246.5750137872183,None,001,73,2019_Oct_29_1207,ACPT_experiment_5_30_19,3.1.0,59.955027182932895,
,,,C,G,y,b,R,D,g,R,i,,,,,5,19,119,5,0,0,0,0,,,,,1,11,47,3,,,,,,down,3.002282626053784,3248.7266532663252,None,001,73,2019_Oct_29_1207,ACPT_experiment_5_30_19,3.1.0,59.955027182932895,
,,,C,G,y,b,R,D,y,R,y,,,,,5,19,119,5,0,0,0,0,,,,,1,12,48,27,,,,,,down,1.0841833816248254,3252.9965404420545,None,001,73,2019_Oct_29_1207,ACPT_experiment_5_30_19,3.1.0,59.955027182932895,
,,,C,G,y,b,L,D,d,R,c ,,,,,5,19,119,5,0,0,0,0,,,,,1,13,49,13,,,,,,up,0.9340730989715667,3255.365030603549,None,001,73,2019_Oct_29_1207,ACPT_experiment_5_30_19,3.1.0,59.955027182932895,
,,,C,G,y,b,L,D,g,L,i,,,,,5,19,119,5,0,0,0,0,,,,,1,14,50,14,,,,,,down,1.2509448810105823,3257.5833839191673,None,001,73,2019_Oct_29_1207,ACPT_experiment_5_30_19,3.1.0,59.955027182932895,
,,,C,G,y,b,L,G,y,L,y,,,,,5,19,119,5,0,0,0,0,,,,,1,15,51,34,,,,,,down,2.568619294981545,3260.1186379948867,None,001,73,2019_Oct_29_1207,ACPT_experiment_5_30_19,3.1.0,59.955027182932895,
,,,C,G,y,b,R,G,g,R,c ,,,,,5,19,119,5,0,0,0,0,,,,,1,16,52,7,,,,,,up,0.9006544514068082,3263.9715969719127,None,001,73,2019_Oct_29_1207,ACPT_experiment_5_30_19,3.1.0,59.955027182932895,
,,,C,G,y,b,L,U,d,L,u,,,,,5,19,119,5,0,0,0,0,,,,,1,17,53,20,,,,,,down,1.1342224567288213,3266.1565364696453,None,001,73,2019_Oct_29_1207,ACPT_experiment_5_30_19,3.1.0,59.955027182932895,
,,,C,G,y,b,L,G,y,R,y,,,,,5,19,119,5,0,0,0,0,,,,,1,18,54,35,,,,,,down,1.2510046482639154,3268.575037935603,None,001,73,2019_Oct_29_1207,ACPT_experiment_5_30_19,3.1.0,59.955027182932895,
,,,C,G,y,b,L,U,g,R,u,,,,,5,19,119,5,0,0,0,0,,,,,1,19,55,23,,,,,,down,1.150880012413836,3271.1103224986564,None,001,73,2019_Oct_29_1207,ACPT_experiment_5_30_19,3.1.0,59.955027182932895,
,,,C,G,y,b,L,G,g,R,c ,,,,,5,19,119,5,0,0,0,0,,,,,1,20,56,19,,,,,,up,1.1508009264525754,3273.5455672470616,None,001,73,2019_Oct_29_1207,ACPT_experiment_5_30_19,3.1.0,59.955027182932895,
,,,C,G,y,b,L,D,y,R,y,,,,,5,19,119,5,0,0,0,0,,,,,1,21,57,33,,,,,,down,0.8673743552008091,3275.9806649921775,None,001,73,2019_Oct_29_1207,ACPT_experiment_5_30_19,3.1.0,59.955027182932895,
,,,C,G,y,b,L,D,y,L,y,,,,,5,19,119,5,0,0,0,0,,,,,1,22,58,32,,,,,,down,0.9173910930512648,3278.1322987360436,None,001,73,2019_Oct_29_1207,ACPT_experiment_5_30_19,3.1.0,59.955027182932895,
,,,C,G,y,b,R,U,g,L,u,,,,,5,19,119,5,0,0,0,0,,,,,1,23,59,10,,,,,,down,1.3510779687949253,3280.3339679327564,None,001,73,2019_Oct_29_1207,ACPT_experiment_5_30_19,3.1.0,59.955027182932895,
,,,C,G,y,b,R,D,g,L,i,,,,,5,19,119,5,0,0,0,0,,,,,1,24,60,2,,,,,,down,2.018289986479431,3282.9693312497293,None,001,73,2019_Oct_29_1207,ACPT_experiment_5_30_19,3.1.0,59.955027182932895,
,,,C,G,y,b,L,U,y,L,u,,,,,5,19,119,5,0,0,0,0,,,,,1,25,61,24,,,,,,down,3.11902768944492,3286.2718591931844,None,001,73,2019_Oct_29_1207,ACPT_experiment_5_30_19,3.1.0,59.955027182932895,
,,,C,G,y,b,L,U,g,L,u,,,,,5,19,119,5,0,0,0,0,,,,,1,26,62,22,,,,,,down,1.8180570149397681,3290.6751818901594,None,001,73,2019_Oct_29_1207,ACPT_experiment_5_30_19,3.1.0,59.955027182932895,
,,,C,G,y,b,R,U,y,L,u,,,,,5,19,119,5,0,0,0,0,,,,,1,27,63,30,,,,,,down,0.7839513458329748,3293.7775405534376,None,001,73,2019_Oct_29_1207,ACPT_experiment_5_30_19,3.1.0,59.955027182932895,
,,,C,G,y,b,R,U,g,R,u,,,,,5,19,119,5,0,0,0,0,,,,,1,28,64,11,,,,,,down,0.7839244807564683,3295.845773021485,None,001,73,2019_Oct_29_1207,ACPT_experiment_5_30_19,3.1.0,59.955027182932895,
,,,C,G,y,b,L,D,g,R,i,,,,,5,19,119,5,0,0,0,0,,,,,1,29,65,15,,,,,,down,5.1539269348377275,3297.914017261868,None,001,73,2019_Oct_29_1207,ACPT_experiment_5_30_19,3.1.0,59.955027182932895,
,,,C,G,y,b,R,U,y,R,u,,,,,5,19,119,5,0,0,0,0,,,,,1,30,66,31,,,,,,down,1.8013692737749807,3304.352241920931,None,001,73,2019_Oct_29_1207,ACPT_experiment_5_30_19,3.1.0,59.955027182932895,
,,,C,G,y,b,L,U,d,R,u,,,,,5,19,119,5,0,0,0,0,,,,,1,31,67,21,,,,,,down,1.1675553775276057,3307.4379167671577,None,001,73,2019_Oct_29_1207,ACPT_experiment_5_30_19,3.1.0,59.955027182932895,
,,,C,G,y,b,L,G,d,L,i,,,,,5,19,119,5,0,0,0,0,,,,,1,32,68,16,,,,,,down,2.1016197227108933,3309.8897789245566,None,001,73,2019_Oct_29_1207,ACPT_experiment_5_30_19,3.1.0,59.955027182932895,
,,,C,G,y,b,R,D,y,L,y,,,,,5,19,119,5,0,0,0,0,,,,,1,33,69,26,,,,,,down,4.920411150396831,3313.2756740342375,None,001,73,2019_Oct_29_1207,ACPT_experiment_5_30_19,3.1.0,59.955027182932895,
,,,C,G,y,b,L,U,y,R,u,,,,,5,19,119,5,0,0,0,0,,,,,1,34,70,25,,,,,,down,0.9173935078888462,3319.480389549666,None,001,73,2019_Oct_29_1207,ACPT_experiment_5_30_19,3.1.0,59.955027182932895,
,,,C,G,y,b,R,G,y,R,y,,,,,5,19,119,5,0,0,0,0,,,,,1,35,71,29,,,,,,down,1.5178189420530543,3321.6820726317,None,001,73,2019_Oct_29_1207,ACPT_experiment_5_30_19,3.1.0,59.955027182932895,
,,,C,G,y,b,,,,,,,,,,5,19,119,5,1,0,1,0,0,0,0,0,,,,,,,,,,,,,,001,73,2019_Oct_29_1207,ACPT_experiment_5_30_19,3.1.0,59.955027182932895,
,,,C,G,y,b,R,G,d,R,i,,,,,5,19,119,5,1,0,1,0,,,,,0,0,0,5,,,,,,up,1.4842339724909834,3633.9529055185394,None,001,73,2019_Oct_29_1207,ACPT_experiment_5_30_19,3.1.0,59.955027182932895,
,,,C,G,y,b,L,D,d,R,c ,,,,,5,19,119,5,1,0,1,0,,,,,0,1,1,13,,,,,,up,1.1008352020671737,3636.721402200099,None,001,73,2019_Oct_29_1207,ACPT_experiment_5_30_19,3.1.0,59.955027182932895,
,,,C,G,y,b,L,U,g,R,u,,,,,5,19,119,5,1,0,1,0,,,,,0,2,2,23,,,,,,up,0.8006197682898346,3639.106541767196,None,001,73,2019_Oct_29_1207,ACPT_experiment_5_30_19,3.1.0,59.955027182932895,
,,,C,G,y,b,R,G,d,L,i,,,,,5,19,119,5,1,0,1,0,,,,,0,3,3,4,,,,,,up,0.6838544806287246,3641.1914634856803,None,001,73,2019_Oct_29_1207,ACPT_experiment_5_30_19,3.1.0,59.955027182932895,
,,,C,G,y,b,R,G,y,R,y,,,,,5,19,119,5,1,0,1,0,,,,,0,4,4,29,,,,,,down,1.0174336243908328,3643.1596636854465,None,001,73,2019_Oct_29_1207,ACPT_experiment_5_30_19,3.1.0,59.955027182932895,
,,,C,G,y,b,L,D,g,L,i,,,,,5,19,119,5,1,0,1,0,,,,,0,5,5,14,,,,,,up,3.16907461277151,3645.4613763190664,None,001,73,2019_Oct_29_1207,ACPT_experiment_5_30_19,3.1.0,59.955027182932895,
,,,C,G,y,b,R,U,y,R,u,,,,,5,19,119,5,1,0,1,0,,,,,0,6,6,31,,,,,,down,0.9173929041789961,3649.914729035503,None,001,73,2019_Oct_29_1207,ACPT_experiment_5_30_19,3.1.0,59.955027182932895,
,,,C,G,y,b,R,U,g,R,u,,,,,5,19,119,5,1,0,1,0,,,,,0,7,7,11,,,,,,up,1.1341964972161804,3652.1164332473745,None,001,73,2019_Oct_29_1207,ACPT_experiment_5_30_19,3.1.0,59.955027182932895,
,,,C,G,y,b,R,G,g,R,c ,,,,,5,19,119,5,1,0,1,0,,,,,0,8,8,7,,,,,,up,0.817285775907294,3654.534936524462,None,001,73,2019_Oct_29_1207,ACPT_experiment_5_30_19,3.1.0,59.955027182932895,
,,,C,G,y,b,R,D,d,R,c ,,,,,5,19,119,5,1,0,1,0,,,,,0,9,9,1,,,,,,up,1.0341319304734498,3656.636517609757,None,001,73,2019_Oct_29_1207,ACPT_experiment_5_30_19,3.1.0,59.955027182932895,
,,,C,G,y,b,L,U,y,R,u,,,,,5,19,119,5,1,0,1,0,,,,,0,10,10,25,,,,,,down,0.8840083662089455,3658.971638326022,None,001,73,2019_Oct_29_1207,ACPT_experiment_5_30_19,3.1.0,59.955027182932895,
,,,C,G,y,b,L,U,y,L,u,,,,,5,19,119,5,1,0,1,0,,,,,0,11,11,24,,,,,,down,0.7339177041176299,3661.156604085121,None,001,73,2019_Oct_29_1207,ACPT_experiment_5_30_19,3.1.0,59.955027182932895,
,,,C,G,y,b,R,D,y,L,y,,,,,5,19,119,5,1,0,1,0,,,,,0,12,12,26,,,,,,down,0.8005883753903618,3663.174849095234,None,001,73,2019_Oct_29_1207,ACPT_experiment_5_30_19,3.1.0,59.955027182932895,
,,,C,G,y,b,L,G,g,R,c ,,,,,5,19,119,5,1,0,1,0,,,,,0,13,13,19,,,,,,up,1.8347776582777442,3665.259742741222,None,001,73,2019_Oct_29_1207,ACPT_experiment_5_30_19,3.1.0,59.955027182932895,
,,,C,G,y,b,L,G,y,R,y,,,,,5,19,119,5,1,0,1,0,,,,,0,14,14,35,,,,,,down,0.9174454269141279,3668.3620799728087,None,001,73,2019_Oct_29_1207,ACPT_experiment_5_30_19,3.1.0,59.955027182932895,
,,,C,G,y,b,R,D,g,L,i,,,,,5,19,119,5,1,0,1,0,,,,,0,15,15,2,,,,,,up,1.851402613639948,3670.563775129034,None,001,73,2019_Oct_29_1207,ACPT_experiment_5_30_19,3.1.0,59.955027182932895,
,,,C,G,y,b,R,U,g,L,u,,,,,5,19,119,5,1,0,1,0,,,,,0,16,16,10,,,,,,up,2.1849883982104075,3673.6994932763337,None,001,73,2019_Oct_29_1207,ACPT_experiment_5_30_19,3.1.0,59.955027182932895,
,,,C,G,y,b,R,D,d,L,c,,,,,5,19,119,5,1,0,1,0,,,,,0,17,17,0,,,,,,down,2.685394241998438,3677.168771248691,None,001,73,2019_Oct_29_1207,ACPT_experiment_5_30_19,3.1.0,59.955027182932895,
,,,C,G,y,b,L,G,g,L,c ,,,,,5,19,119,5,1,0,1,0,,,,,0,18,18,18,,,,,,up,1.0341292137800338,3681.138470761287,None,001,73,2019_Oct_29_1207,ACPT_experiment_5_30_19,3.1.0,59.955027182932895,
,,,C,G,y,b,L,D,d,L,c ,,,,,5,19,119,5,1,0,1,0,,,,,0,19,19,12,,,,,,down,0.8172607219585188,3683.4569215458214,None,001,73,2019_Oct_29_1207,ACPT_experiment_5_30_19,3.1.0,59.955027182932895,
,,,C,G,y,b,L,D,y,R,y,,,,,5,19,119,5,1,0,1,0,,,,,0,20,20,33,,,,,,down,0.8673559420567472,3685.5751517348654,None,001,73,2019_Oct_29_1207,ACPT_experiment_5_30_19,3.1.0,59.955027182932895,
,,,C,G,y,b,R,G,y,L,y,,,,,5,19,119,5,1,0,1,0,,,,,0,21,21,28,,,,,,down,0.7339059317782812,3687.7267897046986,None,001,73,2019_Oct_29_1207,ACPT_experiment_5_30_19,3.1.0,59.955027182932895,
,,,C,G,y,b,R,G,g,L,c ,,,,,5,19,119,5,1,0,1,0,,,,,0,22,22,6,,,,,,up,1.5345622245022241,3689.761661783159,None,001,73,2019_Oct_29_1207,ACPT_experiment_5_30_19,3.1.0,59.955027182932895,
,,,C,G,y,b,L,D,y,L,y,,,,,5,19,119,5,1,0,1,0,,,,,0,23,23,32,,,,,,down,0.7505468854469655,3692.580520826321,None,001,73,2019_Oct_29_1207,ACPT_experiment_5_30_19,3.1.0,59.955027182932895,
,,,C,G,y,b,L,D,g,R,i,,,,,5,19,119,5,1,0,1,0,,,,,0,24,24,15,,,,,,up,1.0007612778226758,3694.615379925024,None,001,73,2019_Oct_29_1207,ACPT_experiment_5_30_19,3.1.0,59.955027182932895,
,,,C,G,y,b,R,U,d,R,u,,,,,5,19,119,5,1,0,1,0,,,,,0,25,25,9,,,,,,up,0.8673351140751038,3696.9004365122364,None,001,73,2019_Oct_29_1207,ACPT_experiment_5_30_19,3.1.0,59.955027182932895,
,,,C,G,y,b,R,U,y,L,u,,,,,5,19,119,5,1,0,1,0,,,,,0,26,26,30,,,,,,down,0.6838716863512673,3699.0353785908264,None,001,73,2019_Oct_29_1207,ACPT_experiment_5_30_19,3.1.0,59.955027182932895,
,,,C,G,y,b,L,U,d,R,u,,,,,5,19,119,5,1,0,1,0,,,,,0,27,27,21,,,,,,down,1.1675798277683498,3701.003533210518,None,001,73,2019_Oct_29_1207,ACPT_experiment_5_30_19,3.1.0,59.955027182932895,
,,,C,G,y,b,R,D,g,R,i,,,,,5,19,119,5,1,0,1,0,,,,,0,28,28,3,,,,,,up,1.7346415519441507,3703.4554264589624,None,001,73,2019_Oct_29_1207,ACPT_experiment_5_30_19,3.1.0,59.955027182932895,
,,,C,G,y,b,L,G,d,L,i,,,,,5,19,119,5,1,0,1,0,,,,,0,29,29,16,,,,,,up,1.2676788059579849,3706.474365131422,None,001,73,2019_Oct_29_1207,ACPT_experiment_5_30_19,3.1.0,59.955027182932895,
,,,C,G,y,b,L,G,y,L,y,,,,,5,19,119,5,1,0,1,0,,,,,0,30,30,34,,,,,,down,0.8006239942587854,3709.0096282627856,None,001,73,2019_Oct_29_1207,ACPT_experiment_5_30_19,3.1.0,59.955027182932895,
,,,C,G,y,b,L,U,g,L,u,,,,,5,19,119,5,1,0,1,0,,,,,0,31,31,22,,,,,,up,1.050839594052377,3711.094534586675,None,001,73,2019_Oct_29_1207,ACPT_experiment_5_30_19,3.1.0,59.955027182932895,
,,,C,G,y,b,L,U,d,L,u,,,,,5,19,119,5,1,0,1,0,,,,,0,32,32,20,,,,,,up,1.2342909475846682,3713.412966656211,None,001,73,2019_Oct_29_1207,ACPT_experiment_5_30_19,3.1.0,59.955027182932895,
,,,C,G,y,b,R,D,y,R,y,,,,,5,19,119,5,1,0,1,0,,,,,0,33,33,27,,,,,,down,0.767275377009355,3715.9315674022164,None,001,73,2019_Oct_29_1207,ACPT_experiment_5_30_19,3.1.0,59.955027182932895,
,,,C,G,y,b,R,U,d,L,u,,,,,5,19,119,5,1,0,1,0,,,,,0,34,34,8,,,,,,up,1.651284045072316,3717.9831012623254,None,001,73,2019_Oct_29_1207,ACPT_experiment_5_30_19,3.1.0,59.955027182932895,
,,,C,G,y,b,L,G,d,R,i,,,,,5,19,119,5,1,0,1,0,,,,,0,35,35,17,,,,,,up,1.517812301246522,3720.9186951058164,None,001,73,2019_Oct_29_1207,ACPT_experiment_5_30_19,3.1.0,59.955027182932895,
,,,C,G,y,b,R,U,g,R,u,,,,,5,19,119,5,1,0,1,0,,,,,1,0,36,11,,,,,,up,2.184996246434821,3723.720815092498,None,001,73,2019_Oct_29_1207,ACPT_experiment_5_30_19,3.1.0,59.955027182932895,
,,,C,G,y,b,L,U,g,L,u,,,,,5,19,119,5,1,0,1,0,,,,,1,1,37,22,,,,,,up,4.88704955339017,3727.1901169113844,None,001,73,2019_Oct_29_1207,ACPT_experiment_5_30_19,3.1.0,59.955027182932895,
,,,C,G,y,b,R,G,d,L,i,,,,,5,19,119,5,1,0,1,0,,,,,1,2,38,4,,,,,,down,0.96742654589616,3733.3614466814233,None,001,73,2019_Oct_29_1207,ACPT_experiment_5_30_19,3.1.0,59.955027182932895,
,,,C,G,y,b,L,G,g,R,c ,,,,,5,19,119,5,1,0,1,0,,,,,1,3,39,19,,,,,,up,0.7339038187965343,3735.6131857424316,None,001,73,2019_Oct_29_1207,ACPT_experiment_5_30_19,3.1.0,59.955027182932895,
,,,C,G,y,b,R,G,g,R,c ,,,,,5,19,119,5,1,0,1,0,,,,,1,4,40,7,,,,,,up,0.8172903037302603,3737.6147055813854,None,001,73,2019_Oct_29_1207,ACPT_experiment_5_30_19,3.1.0,59.955027182932895,
,,,C,G,y,b,L,U,d,R,u,,,,,5,19,119,5,1,0,1,0,,,,,1,5,41,21,,,,,,up,1.0508051826054725,3739.716302363131,None,001,73,2019_Oct_29_1207,ACPT_experiment_5_30_19,3.1.0,59.955027182932895,
,,,C,G,y,b,R,U,g,L,u,,,,,5,19,119,5,1,0,1,0,,,,,1,6,42,10,,,,,,up,1.3677379393157025,3742.0513826308506,None,001,73,2019_Oct_29_1207,ACPT_experiment_5_30_19,3.1.0,59.955027182932895,
,,,C,G,y,b,R,D,y,R,y,,,,,5,19,119,5,1,0,1,0,,,,,1,7,43,27,,,,,,down,4.736941685574493,3744.7034219166508,None,001,73,2019_Oct_29_1207,ACPT_experiment_5_30_19,3.1.0,59.955027182932895,
,,,C,G,y,b,L,G,y,R,y,,,,,5,19,119,5,1,0,1,0,,,,,1,8,44,35,,,,,,down,1.1508785031383013,3750.724657704195,None,001,73,2019_Oct_29_1207,ACPT_experiment_5_30_19,3.1.0,59.955027182932895,
,,,C,G,y,b,R,U,d,L,u,,,,,5,19,119,5,1,0,1,0,,,,,1,9,45,8,,,,,,up,2.9355606394619826,3753.1598547595404,None,001,73,2019_Oct_29_1207,ACPT_experiment_5_30_19,3.1.0,59.955027182932895,
,,,C,G,y,b,L,G,g,L,c ,,,,,5,19,119,5,1,0,1,0,,,,,1,10,46,18,,,,,,up,4.036401576768185,3757.3797140287916,None,001,73,2019_Oct_29_1207,ACPT_experiment_5_30_19,3.1.0,59.955027182932895,
,,,C,G,y,b,R,D,d,L,c,,,,,5,19,119,5,1,0,1,0,,,,,1,11,47,0,,,,,,down,2.58528500074317,3762.700437478172,None,001,73,2019_Oct_29_1207,ACPT_experiment_5_30_19,3.1.0,59.955027182932895,
,,,C,G,y,b,L,D,y,R,y,,,,,5,19,119,5,1,0,1,0,,,,,1,12,48,33,,,,,,down,1.217588113682723,3766.5700319754797,None,001,73,2019_Oct_29_1207,ACPT_experiment_5_30_19,3.1.0,59.955027182932895,
,,,C,G,y,b,L,D,d,R,c ,,,,,5,19,119,5,1,0,1,0,,,,,1,13,49,13,,,,,,down,4.98715124827504,3769.0718997020995,None,001,73,2019_Oct_29_1207,ACPT_experiment_5_30_19,3.1.0,59.955027182932895,
,,,C,G,y,b,R,G,y,L,y,,,,,5,19,119,5,1,0,1,0,,,,,1,14,50,28,,,,,,down,0.6337894460084499,3775.343385199032,None,001,73,2019_Oct_29_1207,ACPT_experiment_5_30_19,3.1.0,59.955027182932895,
,,,C,G,y,b,R,G,g,L,c ,,,,,5,19,119,5,1,0,1,0,,,,,1,15,51,6,,,,,,up,0.9507225045726955,3777.261486556443,None,001,73,2019_Oct_29_1207,ACPT_experiment_5_30_19,3.1.0,59.955027182932895,
,,,C,G,y,b,R,D,y,L,y,,,,,5,19,119,5,1,0,1,0,,,,,1,16,52,26,,,,,,down,0.8504403005135828,3779.5133668855015,None,001,73,2019_Oct_29_1207,ACPT_experiment_5_30_19,3.1.0,59.955027182932895,
,,,C,G,y,b,R,U,d,R,u,,,,,5,19,119,5,1,0,1,0,,,,,1,17,53,9,,,,,,down,0.667187869301415,3781.6815066539366,None,001,73,2019_Oct_29_1207,ACPT_experiment_5_30_19,3.1.0,59.955027182932895,
,,,C,G,y,b,R,D,d,R,c ,,,,,5,19,119,5,1,0,1,0,,,,,1,18,54,1,,,,,,up,0.9840874219808029,3783.6329868140765,None,001,73,2019_Oct_29_1207,ACPT_experiment_5_30_19,3.1.0,59.955027182932895,
,,,C,G,y,b,L,D,g,R,i,,,,,5,19,119,5,1,0,1,0,,,,,1,19,55,15,,,,,,up,1.3009981432915083,3785.9013779973793,None,001,73,2019_Oct_29_1207,ACPT_experiment_5_30_19,3.1.0,59.955027182932895,
,,,C,G,y,b,R,G,y,R,y,,,,,5,19,119,5,1,0,1,0,,,,,1,20,56,29,,,,,,down,1.0508057863153226,3788.4866705444947,None,001,73,2019_Oct_29_1207,ACPT_experiment_5_30_19,3.1.0,59.955027182932895,
,,,C,G,y,b,L,D,y,L,y,,,,,5,19,119,5,1,0,1,0,,,,,1,21,57,32,,,,,,down,0.6504895632187981,3790.8051101604015,None,001,73,2019_Oct_29_1207,ACPT_experiment_5_30_19,3.1.0,59.955027182932895,
,,,C,G,y,b,R,U,y,R,u,,,,,5,19,119,5,1,0,1,0,,,,,1,22,58,31,,,,,,down,0.6504952984596457,3792.739908918329,None,001,73,2019_Oct_29_1207,ACPT_experiment_5_30_19,3.1.0,59.955027182932895,
,,,C,G,y,b,R,D,g,L,i,,,,,5,19,119,5,1,0,1,0,,,,,1,23,59,2,,,,,,up,1.3176732065530814,3794.6747079781126,None,001,73,2019_Oct_29_1207,ACPT_experiment_5_30_19,3.1.0,59.955027182932895,
,,,C,G,y,b,L,U,g,R,u,,,,,5,19,119,5,1,0,1,0,,,,,1,24,60,23,,,,,,up,1.134148502302196,3797.2767329409016,None,001,73,2019_Oct_29_1207,ACPT_experiment_5_30_19,3.1.0,59.955027182932895,
,,,C,G,y,b,R,U,y,L,u,,,,,5,19,119,5,1,0,1,0,,,,,1,25,61,30,,,,,,down,0.8336979236300976,3799.712134050096,None,001,73,2019_Oct_29_1207,ACPT_experiment_5_30_19,3.1.0,59.955027182932895,
,,,C,G,y,b,L,G,d,L,i,,,,,5,19,119,5,1,0,1,0,,,,,1,26,62,16,,,,,,up,1.3176563026827353,3801.8301574685975,None,001,73,2019_Oct_29_1207,ACPT_experiment_5_30_19,3.1.0,59.955027182932895,
,,,C,G,y,b,L,U,y,R,u,,,,,5,19,119,5,1,0,1,0,,,,,1,27,63,25,,,,,,down,0.7339140818585292,3804.432099119458,None,001,73,2019_Oct_29_1207,ACPT_experiment_5_30_19,3.1.0,59.955027182932895,
,,,C,G,y,b,L,G,y,L,y,,,,,5,19,119,5,1,0,1,0,,,,,1,28,64,34,,,,,,down,0.6338419687454007,3806.4503172644945,None,001,73,2019_Oct_29_1207,ACPT_experiment_5_30_19,3.1.0,59.955027182932895,
,,,C,G,y,b,R,G,d,R,i,,,,,5,19,119,5,1,0,1,0,,,,,1,29,65,5,,,,,,up,1.8681126920600946,3808.3684400535967,None,001,73,2019_Oct_29_1207,ACPT_experiment_5_30_19,3.1.0,59.955027182932895,
,,,C,G,y,b,L,G,d,R,i,,,,,5,19,119,5,1,0,1,0,,,,,1,30,66,17,,,,,,up,1.1675614146242879,3811.520837188271,None,001,73,2019_Oct_29_1207,ACPT_experiment_5_30_19,3.1.0,59.955027182932895,
,,,C,G,y,b,L,U,y,L,u,,,,,5,19,119,5,1,0,1,0,,,,,1,31,67,24,,,,,,down,0.9507234101383801,3813.972703269781,None,001,73,2019_Oct_29_1207,ACPT_experiment_5_30_19,3.1.0,59.955027182932895,
,,,C,G,y,b,L,D,g,L,i,,,,,5,19,119,5,1,0,1,0,,,,,1,32,68,14,,,,,,up,1.017436944795918,3816.2077340634987,None,001,73,2019_Oct_29_1207,ACPT_experiment_5_30_19,3.1.0,59.955027182932895,
,,,C,G,y,b,L,U,d,L,u,,,,,5,19,119,5,1,0,1,0,,,,,1,33,69,20,,,,,,up,1.1675553775276057,3818.5094838252608,None,001,73,2019_Oct_29_1207,ACPT_experiment_5_30_19,3.1.0,59.955027182932895,
,,,C,G,y,b,R,D,g,R,i,,,,,5,19,119,5,1,0,1,0,,,,,1,34,70,3,,,,,,up,1.4177525641807733,3820.961345680804,None,001,73,2019_Oct_29_1207,ACPT_experiment_5_30_19,3.1.0,59.955027182932895,
,,,C,G,y,b,L,D,d,L,c ,,,,,5,19,119,5,1,0,1,0,,,,,1,35,71,12,,,,,,up,2.6686926155143738,3823.6634023081624,None,001,73,2019_Oct_29_1207,ACPT_experiment_5_30_19,3.1.0,59.955027182932895,
,,,C,G,y,b,,,,,,,,,,5,19,119,5,2,0,2,0,0,0,0,0,,,,,,,,,,,,,,001,73,2019_Oct_29_1207,ACPT_experiment_5_30_19,3.1.0,59.955027182932895,
,,,C,G,y,b,L,G,y,L,y,,,,,5,19,119,5,2,0,2,0,,,,,0,0,0,34,,,,,,down,1.2173270092753228,3955.6972987918853,None,001,73,2019_Oct_29_1207,ACPT_experiment_5_30_19,3.1.0,59.955027182932895,
,,,C,G,y,b,L,G,g,L,c ,,,,,5,19,119,5,2,0,2,0,,,,,0,1,1,18,,,,,,up,0.7339451729039865,3958.1989298643366,None,001,73,2019_Oct_29_1207,ACPT_experiment_5_30_19,3.1.0,59.955027182932895,
,,,C,G,y,b,L,U,y,L,u,,,,,5,19,119,5,2,0,2,0,,,,,0,2,2,24,,,,,,down,0.8838891335581138,3960.2171317092125,None,001,73,2019_Oct_29_1207,ACPT_experiment_5_30_19,3.1.0,59.955027182932895,
,,,C,G,y,b,L,G,d,R,i,,,,,5,19,119,5,2,0,2,0,,,,,0,3,3,17,,,,,,up,0.7839308197071659,3962.3854438367434,None,001,73,2019_Oct_29_1207,ACPT_experiment_5_30_19,3.1.0,59.955027182932895,
,,,C,G,y,b,R,D,g,R,i,,,,,5,19,119,5,2,0,2,0,,,,,0,4,4,3,,,,,,up,0.9340438190556597,3964.4536829455956,None,001,73,2019_Oct_29_1207,ACPT_experiment_5_30_19,3.1.0,59.955027182932895,
,,,C,G,y,b,R,G,d,R,i,,,,,5,19,119,5,2,0,2,0,,,,,0,5,5,5,,,,,,up,0.7505740523793065,3966.6720350537944,None,001,73,2019_Oct_29_1207,ACPT_experiment_5_30_19,3.1.0,59.955027182932895,
,,,C,G,y,b,R,U,g,R,u,,,,,5,19,119,5,2,0,2,0,,,,,0,6,6,11,,,,,,up,0.5003813935491053,3968.7069134712056,None,001,73,2019_Oct_29_1207,ACPT_experiment_5_30_19,3.1.0,59.955027182932895,
,,,C,G,y,b,L,D,g,L,i,,,,,5,19,119,5,2,0,2,0,,,,,0,7,7,14,,,,,,up,1.2342758548456914,3970.474922355397,None,001,73,2019_Oct_29_1207,ACPT_experiment_5_30_19,3.1.0,59.955027182932895,
,,,C,G,y,b,R,U,y,R,u,,,,,5,19,119,5,2,0,2,0,,,,,0,8,8,31,,,,,,down,0.6838728937691485,3972.993483860275,None,001,73,2019_Oct_29_1207,ACPT_experiment_5_30_19,3.1.0,59.955027182932895,
,,,C,G,y,b,R,G,y,R,y,,,,,5,19,119,5,2,0,2,0,,,,,0,9,9,29,,,,,,down,0.8340034006960195,3974.961664741335,None,001,73,2019_Oct_29_1207,ACPT_experiment_5_30_19,3.1.0,59.955027182932895,
,,,C,G,y,b,L,D,y,L,y,,,,,5,19,119,5,2,0,2,0,,,,,0,10,10,32,,,,,,down,0.6338308001177211,3977.0799254177145,None,001,73,2019_Oct_29_1207,ACPT_experiment_5_30_19,3.1.0,59.955027182932895,
,,,C,G,y,b,R,D,g,L,i,,,,,5,19,119,5,2,0,2,0,,,,,0,11,11,2,,,,,,up,0.917363020553239,3978.998065714395,None,001,73,2019_Oct_29_1207,ACPT_experiment_5_30_19,3.1.0,59.955027182932895,
,,,C,G,y,b,R,G,g,R,c ,,,,,5,19,119,5,2,0,2,0,,,,,0,12,12,7,,,,,,up,1.1341786877819686,3981.1997367222357,None,001,73,2019_Oct_29_1207,ACPT_experiment_5_30_19,3.1.0,59.955027182932895,
,,,C,G,y,b,L,U,d,R,u,,,,,5,19,119,5,2,0,2,0,,,,,0,13,13,21,,,,,,up,0.767253643462027,3983.6182369807757,None,001,73,2019_Oct_29_1207,ACPT_experiment_5_30_19,3.1.0,59.955027182932895,
,,,C,G,y,b,R,U,d,R,u,,,,,5,19,119,5,2,0,2,0,,,,,0,14,14,9,,,,,,up,0.733896574278333,3985.6698007245122,None,001,73,2019_Oct_29_1207,ACPT_experiment_5_30_19,3.1.0,59.955027182932895,
,,,C,G,y,b,L,G,d,L,i,,,,,5,19,119,5,2,0,2,0,,,,,0,15,15,16,,,,,,up,1.3643825212784577,3987.7079977336743,None,001,73,2019_Oct_29_1207,ACPT_experiment_5_30_19,3.1.0,59.955027182932895,
,,,C,G,y,b,R,G,y,L,y,,,,,5,19,119,5,2,0,2,0,,,,,0,16,16,28,,,,,,down,1.2009465563041886,3990.3566656031308,None,001,73,2019_Oct_29_1207,ACPT_experiment_5_30_19,3.1.0,59.955027182932895,
,,,C,G,y,b,L,U,y,R,u,,,,,5,19,119,5,2,0,2,0,,,,,0,17,17,25,,,,,,down,0.6671703617230378,3992.841915618903,None,001,73,2019_Oct_29_1207,ACPT_experiment_5_30_19,3.1.0,59.955027182932895,
,,,C,G,y,b,R,G,g,L,c ,,,,,5,19,119,5,2,0,2,0,,,,,0,18,18,6,,,,,,up,0.7506187268918438,3994.7933975901724,None,001,73,2019_Oct_29_1207,ACPT_experiment_5_30_19,3.1.0,59.955027182932895,
,,,C,G,y,b,L,G,g,R,c ,,,,,5,19,119,5,2,0,2,0,,,,,0,19,19,19,,,,,,up,1.184253381754388,3996.8282702723427,None,001,73,2019_Oct_29_1207,ACPT_experiment_5_30_19,3.1.0,59.955027182932895,
,,,C,G,y,b,R,U,g,L,u,,,,,5,19,119,5,2,0,2,0,,,,,0,20,20,10,,,,,,up,2.6687104249485856,3999.2801272982088,None,001,73,2019_Oct_29_1207,ACPT_experiment_5_30_19,3.1.0,59.955027182932895,
,,,C,G,y,b,L,G,y,R,y,,,,,5,19,119,5,2,0,2,0,,,,,0,21,21,35,,,,,,down,0.6671860581700457,4003.233133938109,None,001,73,2019_Oct_29_1207,ACPT_experiment_5_30_19,3.1.0,59.955027182932895,
,,,C,G,y,b,L,D,y,R,y,,,,,5,19,119,5,2,0,2,0,,,,,0,22,22,33,,,,,,down,0.6672017546206916,4005.167917301442,None,001,73,2019_Oct_29_1207,ACPT_experiment_5_30_19,3.1.0,59.955027182932895,
,,,C,G,y,b,R,U,y,L,u,,,,,5,19,119,5,2,0,2,0,,,,,0,23,23,30,,,,,,down,0.6504868465272011,4007.102752281946,None,001,73,2019_Oct_29_1207,ACPT_experiment_5_30_19,3.1.0,59.955027182932895,
,,,C,G,y,b,L,D,d,L,c ,,,,,5,19,119,5,2,0,2,0,,,,,0,24,24,12,,,,,,up,0.8973793267487054,4009.057534129968,None,001,73,2019_Oct_29_1207,ACPT_experiment_5_30_19,3.1.0,59.955027182932895,
,,,C,G,y,b,R,G,d,L,i,,,,,5,19,119,5,2,0,2,0,,,,,0,25,25,4,,,,,,up,1.2509548422185617,4011.2392199347323,None,001,73,2019_Oct_29_1207,ACPT_experiment_5_30_19,3.1.0,59.955027182932895,
,,,C,G,y,b,R,D,y,L,y,,,,,5,19,119,5,2,0,2,0,,,,,0,26,26,26,,,,,,down,0.967402699367085,4013.7744797456926,None,001,73,2019_Oct_29_1207,ACPT_experiment_5_30_19,3.1.0,59.955027182932895,
,,,C,G,y,b,R,U,d,L,u,,,,,5,19,119,5,2,0,2,0,,,,,0,27,27,8,,,,,,up,0.9340450264753599,4016.026189526785,None,001,73,2019_Oct_29_1207,ACPT_experiment_5_30_19,3.1.0,59.955027182932895,
,,,C,G,y,b,R,D,y,R,y,,,,,5,19,119,5,2,0,2,0,,,,,0,28,28,27,,,,,,down,1.0841830797708099,4018.244540427564,None,001,73,2019_Oct_29_1207,ACPT_experiment_5_30_19,3.1.0,59.955027182932895,
,,,C,G,y,b,L,U,g,L,u,,,,,5,19,119,5,2,0,2,0,,,,,0,29,29,22,,,,,,up,0.9006867498719657,4020.613003120272,None,001,73,2019_Oct_29_1207,ACPT_experiment_5_30_19,3.1.0,59.955027182932895,
,,,C,G,y,b,L,U,g,R,u,,,,,5,19,119,5,2,0,2,0,,,,,0,30,30,23,,,,,,up,0.8673429622995172,4022.7979951407415,None,001,73,2019_Oct_29_1207,ACPT_experiment_5_30_19,3.1.0,59.955027182932895,
,,,C,G,y,b,L,D,g,R,i,,,,,5,19,119,5,2,0,2,0,,,,,0,31,31,15,,,,,,up,0.6504584721733409,4024.949655749684,None,001,73,2019_Oct_29_1207,ACPT_experiment_5_30_19,3.1.0,59.955027182932895,
,,,C,G,y,b,L,D,d,R,c ,,,,,5,19,119,5,2,0,2,0,,,,,0,32,32,13,,,,,,up,0.8172890963105601,4026.884432472212,None,001,73,2019_Oct_29_1207,ACPT_experiment_5_30_19,3.1.0,59.955027182932895,
,,,C,G,y,b,L,U,d,L,u,,,,,5,19,119,5,2,0,2,0,,,,,0,33,33,20,,,,,,down,1.1508498269322445,4028.986033781779,None,001,73,2019_Oct_29_1207,ACPT_experiment_5_30_19,3.1.0,59.955027182932895,
,,,C,G,y,b,R,D,d,R,c ,,,,,5,19,119,5,2,0,2,0,,,,,0,34,34,1,,,,,,down,0.7839287067236,4031.421213329546,None,001,73,2019_Oct_29_1207,ACPT_experiment_5_30_19,3.1.0,59.955027182932895,
,,,C,G,y,b,R,D,d,L,c,,,,,5,19,119,5,2,0,2,0,,,,,0,35,35,0,,,,,,up,2.3184266361513437,4033.4894557588013,None,001,73,2019_Oct_29_1207,ACPT_experiment_5_30_19,3.1.0,59.955027182932895,
,,,C,G,y,b,L,U,y,R,u,,,,,5,19,119,5,2,0,2,0,,,,,1,0,36,25,,,,,,down,0.8005959217607597,4037.092200645304,None,001,73,2019_Oct_29_1207,ACPT_experiment_5_30_19,3.1.0,59.955027182932895,
,,,C,G,y,b,R,G,y,L,y,,,,,5,19,119,5,2,0,2,0,,,,,1,1,37,28,,,,,,down,0.6338151036670752,4039.177107271047,None,001,73,2019_Oct_29_1207,ACPT_experiment_5_30_19,3.1.0,59.955027182932895,
,,,C,G,y,b,L,D,d,R,c ,,,,,5,19,119,5,2,0,2,0,,,,,1,2,38,13,,,,,,up,0.6838252007091796,4041.09525451039,None,001,73,2019_Oct_29_1207,ACPT_experiment_5_30_19,3.1.0,59.955027182932895,
,,,C,G,y,b,L,D,y,L,y,,,,,5,19,119,5,2,0,2,0,,,,,1,3,39,32,,,,,,down,2.018204863425126,4043.046709616581,None,001,73,2019_Oct_29_1207,ACPT_experiment_5_30_19,3.1.0,59.955027182932895,
,,,C,G,y,b,R,G,d,R,i,,,,,5,19,119,5,2,0,2,0,,,,,1,4,40,5,,,,,,down,2.285057794631939,4046.349226693261,None,001,73,2019_Oct_29_1207,ACPT_experiment_5_30_19,3.1.0,59.955027182932895,
,,,C,G,y,b,R,D,d,R,c ,,,,,5,19,119,5,2,0,2,0,,,,,1,5,41,1,,,,,,up,0.7172414334363566,4049.918567421233,None,001,73,2019_Oct_29_1207,ACPT_experiment_5_30_19,3.1.0,59.955027182932895,
,,,C,G,y,b,L,U,g,L,u,,,,,5,19,119,5,2,0,2,0,,,,,1,6,42,22,,,,,,up,0.9006604885034903,4051.9201455181646,None,001,73,2019_Oct_29_1207,ACPT_experiment_5_30_19,3.1.0,59.955027182932895,
,,,C,G,y,b,L,D,d,L,c ,,,,,5,19,119,5,2,0,2,0,,,,,1,7,43,12,,,,,,up,1.067501073848689,4054.105133614521,None,001,73,2019_Oct_29_1207,ACPT_experiment_5_30_19,3.1.0,59.955027182932895,
,,,C,G,y,b,L,G,y,L,y,,,,,5,19,119,5,2,0,2,0,,,,,1,8,44,34,,,,,,down,1.8847415715354146,4056.473590873842,None,001,73,2019_Oct_29_1207,ACPT_experiment_5_30_19,3.1.0,59.955027182932895,
,,,C,G,y,b,R,D,g,R,i,,,,,5,19,119,5,2,0,2,0,,,,,1,9,45,3,,,,,,up,4.636860214963235,4059.659330286813,None,001,73,2019_Oct_29_1207,ACPT_experiment_5_30_19,3.1.0,59.955027182932895,
,,,C,G,y,b,R,U,y,L,u,,,,,5,19,119,5,2,0,2,0,,,,,1,10,46,30,,,,,,down,1.734653626137515,4065.5971669115206,None,001,73,2019_Oct_29_1207,ACPT_experiment_5_30_19,3.1.0,59.955027182932895,
,,,C,G,y,b,L,G,g,R,c ,,,,,5,19,119,5,2,0,2,0,,,,,1,11,47,19,,,,,,up,0.5837763304170949,4068.632812040143,None,001,73,2019_Oct_29_1207,ACPT_experiment_5_30_19,3.1.0,59.955027182932895,
,,,C,G,y,b,R,D,y,R,y,,,,,5,19,119,5,2,0,2,0,,,,,1,12,48,27,,,,,,down,0.9173551723270066,4070.5009011875263,None,001,73,2019_Oct_29_1207,ACPT_experiment_5_30_19,3.1.0,59.955027182932895,
,,,C,G,y,b,R,U,g,L,u,,,,,5,19,119,5,2,0,2,0,,,,,1,13,49,10,,,,,,up,1.834744454248721,4072.7025501599674,None,001,73,2019_Oct_29_1207,ACPT_experiment_5_30_19,3.1.0,59.955027182932895,
,,,C,G,y,b,L,G,d,L,i,,,,,5,19,119,5,2,0,2,0,,,,,1,14,50,16,,,,,,down,1.1175132838743593,4075.8216065256165,None,001,73,2019_Oct_29_1207,ACPT_experiment_5_30_19,3.1.0,59.955027182932895,
,,,C,G,y,b,R,G,g,L,c ,,,,,5,19,119,5,2,0,2,0,,,,,1,15,51,6,,,,,,up,1.3176689805859496,4078.2234284004917,None,001,73,2019_Oct_29_1207,ACPT_experiment_5_30_19,3.1.0,59.955027182932895,
,,,C,G,y,b,L,U,d,L,u,,,,,5,19,119,5,2,0,2,0,,,,,1,16,52,20,,,,,,up,0.7172109461007494,4080.82540808506,None,001,73,2019_Oct_29_1207,ACPT_experiment_5_30_19,3.1.0,59.955027182932895,
,,,C,G,y,b,R,G,d,L,i,,,,,5,19,119,5,2,0,2,0,,,,,1,17,53,4,,,,,,up,0.5170667198726733,4082.826919170224,None,001,73,2019_Oct_29_1207,ACPT_experiment_5_30_19,3.1.0,59.955027182932895,
,,,C,G,y,b,L,G,g,L,c ,,,,,5,19,119,5,2,0,2,0,,,,,1,18,54,18,,,,,,up,4.8703705660173,4084.628319233192,None,001,73,2019_Oct_29_1207,ACPT_experiment_5_30_19,3.1.0,59.955027182932895,
,,,C,G,y,b,L,D,y,R,y,,,,,5,19,119,5,2,0,2,0,,,,,1,19,55,33,,,,,,down,0.6338564577763464,4090.7829727325498,None,001,73,2019_Oct_29_1207,ACPT_experiment_5_30_19,3.1.0,59.955027182932895,
,,,C,G,y,b,R,U,d,R,u,,,,,5,19,119,5,2,0,2,0,,,,,1,20,56,9,,,,,,up,0.9507382010251604,4092.701085560442,None,001,73,2019_Oct_29_1207,ACPT_experiment_5_30_19,3.1.0,59.955027182932895,
,,,C,G,y,b,R,U,y,R,u,,,,,5,19,119,5,2,0,2,0,,,,,1,21,57,31,,,,,,down,0.8173038871955214,4094.9360979410176,None,001,73,2019_Oct_29_1207,ACPT_experiment_5_30_19,3.1.0,59.955027182932895,
,,,C,G,y,b,L,U,g,R,u,,,,,5,19,119,5,2,0,2,0,,,,,1,22,58,23,,,,,,up,0.9506998654633207,4097.054415667953,None,001,73,2019_Oct_29_1207,ACPT_experiment_5_30_19,3.1.0,59.955027182932895,
,,,C,G,y,b,L,G,d,R,i,,,,,5,19,119,5,2,0,2,0,,,,,1,23,59,17,,,,,,down,0.8005892809542274,4099.289445254253,None,001,73,2019_Oct_29_1207,ACPT_experiment_5_30_19,3.1.0,59.955027182932895,
,,,C,G,y,b,R,D,d,L,c,,,,,5,19,119,5,2,0,2,0,,,,,1,24,60,0,,,,,,down,0.6171406441153522,4101.374342220643,None,001,73,2019_Oct_29_1207,ACPT_experiment_5_30_19,3.1.0,59.955027182932895,
,,,C,G,y,b,R,U,d,L,u,,,,,5,19,119,5,2,0,2,0,,,,,1,25,61,8,,,,,,up,1.3343389123147062,4103.275787531646,None,001,73,2019_Oct_29_1207,ACPT_experiment_5_30_19,3.1.0,59.955027182932895,
,,,C,G,y,b,L,D,g,L,i,,,,,5,19,119,5,2,0,2,0,,,,,1,26,62,14,,,,,,up,3.102352324327512,4105.894448316571,None,001,73,2019_Oct_29_1207,ACPT_experiment_5_30_19,3.1.0,59.955027182932895,
,,,C,G,y,b,R,G,y,R,y,,,,,5,19,119,5,2,0,2,0,,,,,1,27,63,29,,,,,,down,0.8172942278415576,4110.28110379851,None,001,73,2019_Oct_29_1207,ACPT_experiment_5_30_19,3.1.0,59.955027182932895,
,,,C,G,y,b,R,D,g,L,i,,,,,5,19,119,5,2,0,2,0,,,,,1,28,64,2,,,,,,up,2.5519397038988245,4112.382706315497,None,001,73,2019_Oct_29_1207,ACPT_experiment_5_30_19,3.1.0,59.955027182932895,
,,,C,G,y,b,L,U,y,L,u,,,,,5,19,119,5,2,0,2,0,,,,,1,29,65,24,,,,,,down,1.0842008892032027,4116.218954308539,None,001,73,2019_Oct_29_1207,ACPT_experiment_5_30_19,3.1.0,59.955027182932895,
,,,C,G,y,b,L,G,y,R,y,,,,,5,19,119,5,2,0,2,0,,,,,1,30,66,35,,,,,,down,0.8339732152162469,4118.604096290475,None,001,73,2019_Oct_29_1207,ACPT_experiment_5_30_19,3.1.0,59.955027182932895,
,,,C,G,y,b,R,U,g,R,u,,,,,5,19,119,5,2,0,2,0,,,,,1,31,67,11,,,,,,up,0.8839965938695968,4120.739078515755,None,001,73,2019_Oct_29_1207,ACPT_experiment_5_30_19,3.1.0,59.955027182932895,
,,,C,G,y,b,R,D,y,L,y,,,,,5,19,119,5,2,0,2,0,,,,,1,32,68,26,,,,,,down,1.2843203633365192,4122.907363476352,None,001,73,2019_Oct_29_1207,ACPT_experiment_5_30_19,3.1.0,59.955027182932895,
,,,C,G,y,b,L,D,g,R,i,,,,,5,19,119,5,2,0,2,0,,,,,1,33,69,15,,,,,,up,5.570899808049944,4125.4759906195595,None,001,73,2019_Oct_29_1207,ACPT_experiment_5_30_19,3.1.0,59.955027182932895,
,,,C,G,y,b,R,G,g,R,c ,,,,,5,19,119,5,2,0,2,0,,,,,1,34,70,7,,,,,,up,1.6345537423821952,4132.331196603771,None,001,73,2019_Oct_29_1207,ACPT_experiment_5_30_19,3.1.0,59.955027182932895,
,,,C,G,y,b,L,U,d,R,u,,,,,5,19,119,5,2,0,2,0,,,,,1,35,71,21,,,,,,up,0.6671727765606192,4135.250075539165,None,001,73,2019_Oct_29_1207,ACPT_experiment_5_30_19,3.1.0,59.955027182932895,
,,,C,G,y,b,,,,,,,,,,5,19,119,5,3,0,3,0,0,0,0,0,,,,,,,,,,,,,,001,73,2019_Oct_29_1207,ACPT_experiment_5_30_19,3.1.0,59.955027182932895,
,,,C,G,y,b,R,U,y,R,u,,,,,5,19,119,5,3,0,3,0,,,,,0,0,0,31,,,,,,down,0.7670160837296862,4205.420282409321,None,001,73,2019_Oct_29_1207,ACPT_experiment_5_30_19,3.1.0,59.955027182932895,
,,,C,G,y,b,L,G,d,R,i,,,,,5,19,119,5,3,0,3,0,,,,,0,1,1,17,,,,,,down,0.6671640227705211,4207.4716070840495,None,001,73,2019_Oct_29_1207,ACPT_experiment_5_30_19,3.1.0,59.955027182932895,
,,,C,G,y,b,L,D,g,L,i,,,,,5,19,119,5,3,0,3,0,,,,,0,2,2,14,,,,,,up,0.6505085800727102,4209.423069736609,None,001,73,2019_Oct_29_1207,ACPT_experiment_5_30_19,3.1.0,59.955027182932895,
,,,C,G,y,b,R,G,y,L,y,,,,,5,19,119,5,3,0,3,0,,,,,0,3,3,28,,,,,,down,0.6171186087158276,4211.357906226389,None,001,73,2019_Oct_29_1207,ACPT_experiment_5_30_19,3.1.0,59.955027182932895,
,,,C,G,y,b,L,D,y,L,y,,,,,5,19,119,5,3,0,3,0,,,,,0,4,4,32,,,,,,down,0.6504965058793459,4213.259326181587,None,001,73,2019_Oct_29_1207,ACPT_experiment_5_30_19,3.1.0,59.955027182932895,
,,,C,G,y,b,R,U,d,R,u,,,,,5,19,119,5,3,0,3,0,,,,,0,5,5,9,,,,,,down,1.1342188344715396,4215.194148182336,None,001,73,2019_Oct_29_1207,ACPT_experiment_5_30_19,3.1.0,59.955027182932895,
,,,C,G,y,b,L,G,g,L,c ,,,,,5,19,119,5,3,0,3,0,,,,,0,6,6,18,,,,,,up,0.6672114139746554,4217.612617349829,None,001,73,2019_Oct_29_1207,ACPT_experiment_5_30_19,3.1.0,59.955027182932895,
,,,C,G,y,b,L,U,g,L,u,,,,,5,19,119,5,3,0,3,0,,,,,0,7,7,22,,,,,,up,0.3835644887130911,4219.547498212265,None,001,73,2019_Oct_29_1207,ACPT_experiment_5_30_19,3.1.0,59.955027182932895,
,,,C,G,y,b,L,G,g,R,c ,,,,,5,19,119,5,3,0,3,0,,,,,0,8,8,19,,,,,,up,1.0007763705634716,4221.215378234638,None,001,73,2019_Oct_29_1207,ACPT_experiment_5_30_19,3.1.0,59.955027182932895,
,,,C,G,y,b,R,D,g,L,i,,,,,5,19,119,5,3,0,3,0,,,,,0,9,9,2,,,,,,up,2.68538790304774,4223.500448707171,None,001,73,2019_Oct_29_1207,ACPT_experiment_5_30_19,3.1.0,59.955027182932895,
,,,C,G,y,b,L,U,g,R,u,,,,,5,19,119,5,3,0,3,0,,,,,0,10,10,23,,,,,,up,1.334232357567089,4227.47012588251,None,001,73,2019_Oct_29_1207,ACPT_experiment_5_30_19,3.1.0,59.955027182932895,
,,,C,G,y,b,R,G,d,L,i,,,,,5,19,119,5,3,0,3,0,,,,,0,11,11,4,,,,,,up,0.8339460482839058,4230.088815041787,None,001,73,2019_Oct_29_1207,ACPT_experiment_5_30_19,3.1.0,59.955027182932895,
,,,C,G,y,b,R,D,g,R,i,,,,,5,19,119,5,3,0,3,0,,,,,0,12,12,3,,,,,,up,0.5838056103348208,4232.20706032357,None,001,73,2019_Oct_29_1207,ACPT_experiment_5_30_19,3.1.0,59.955027182932895,
,,,C,G,y,b,R,U,g,L,u,,,,,5,19,119,5,3,0,3,0,,,,,0,13,13,10,,,,,,up,0.6171361162942048,4234.075145848696,None,001,73,2019_Oct_29_1207,ACPT_experiment_5_30_19,3.1.0,59.955027182932895,
,,,C,G,y,b,R,D,y,R,y,,,,,5,19,119,5,3,0,3,0,,,,,0,14,14,27,,,,,,down,0.7505583559304796,4235.993271052637,None,001,73,2019_Oct_29_1207,ACPT_experiment_5_30_19,3.1.0,59.955027182932895,
,,,C,G,y,b,R,U,g,R,u,,,,,5,19,119,5,3,0,3,0,,,,,0,15,15,11,,,,,,up,2.0849546206572995,4238.044829966695,None,001,73,2019_Oct_29_1207,ACPT_experiment_5_30_19,3.1.0,59.955027182932895,
,,,C,G,y,b,R,G,d,R,i,,,,,5,19,119,5,3,0,3,0,,,,,0,16,16,5,,,,,,up,1.0674639457065496,4241.414071142952,None,001,73,2019_Oct_29_1207,ACPT_experiment_5_30_19,3.1.0,59.955027182932895,
,,,C,G,y,b,L,G,y,L,y,,,,,5,19,119,5,3,0,3,0,,,,,0,17,17,34,,,,,,down,0.7672708491863887,4243.7658430759475,None,001,73,2019_Oct_29_1207,ACPT_experiment_5_30_19,3.1.0,59.955027182932895,
,,,C,G,y,b,R,G,g,L,c ,,,,,5,19,119,5,3,0,3,0,,,,,0,18,18,6,,,,,,up,1.5178282995530026,4245.81739897146,None,001,73,2019_Oct_29_1207,ACPT_experiment_5_30_19,3.1.0,59.955027182932895,
,,,C,G,y,b,L,G,y,R,y,,,,,5,19,119,5,3,0,3,0,,,,,0,19,19,35,,,,,,down,0.9340426116359595,4248.619530126769,None,001,73,2019_Oct_29_1207,ACPT_experiment_5_30_19,3.1.0,59.955027182932895,
,,,C,G,y,b,R,U,d,L,u,,,,,5,19,119,5,3,0,3,0,,,,,0,20,20,8,,,,,,down,1.2344213488613605,4250.837851747634,None,001,73,2019_Oct_29_1207,ACPT_experiment_5_30_19,3.1.0,59.955027182932895,
,,,C,G,y,b,L,U,y,L,u,,,,,5,19,119,5,3,0,3,0,,,,,0,21,21,24,,,,,,down,2.1016490026268,4253.356436797187,None,001,73,2019_Oct_29_1207,ACPT_experiment_5_30_19,3.1.0,59.955027182932895,
,,,C,G,y,b,R,D,d,R,c ,,,,,5,19,119,5,3,0,3,0,,,,,0,22,22,1,,,,,,up,2.2017014951761666,4256.742338547674,None,001,73,2019_Oct_29_1207,ACPT_experiment_5_30_19,3.1.0,59.955027182932895,
,,,C,G,y,b,L,U,d,R,u,,,,,5,19,119,5,3,0,3,0,,,,,0,23,23,21,,,,,,up,1.4177978424013418,4260.228321768773,None,001,73,2019_Oct_29_1207,ACPT_experiment_5_30_19,3.1.0,59.955027182932895,
,,,C,G,y,b,R,G,y,R,y,,,,,5,19,119,5,3,0,3,0,,,,,0,24,24,29,,,,,,down,1.0007621833883604,4262.947073683663,None,001,73,2019_Oct_29_1207,ACPT_experiment_5_30_19,3.1.0,59.955027182932895,
,,,C,G,y,b,L,D,y,R,y,,,,,5,19,119,5,3,0,3,0,,,,,0,25,25,33,,,,,,up,1.984839644161184,4265.248828275102,None,001,73,2019_Oct_29_1207,ACPT_experiment_5_30_19,3.1.0,59.955027182932895,
,,,C,G,y,b,L,D,d,L,c ,,,,,5,19,119,5,3,0,3,0,,,,,0,26,26,12,,,,,,up,0.7005358828391763,4268.5179746991325,None,001,73,2019_Oct_29_1207,ACPT_experiment_5_30_19,3.1.0,59.955027182932895,
,,,C,G,y,b,R,D,y,L,y,,,,,5,19,119,5,3,0,3,0,,,,,0,27,27,26,,,,,,down,2.4518733260265435,4270.50281464515,None,001,73,2019_Oct_29_1207,ACPT_experiment_5_30_19,3.1.0,59.955027182932895,
,,,C,G,y,b,R,U,y,L,u,,,,,5,19,119,5,3,0,3,0,,,,,0,28,28,30,,,,,,down,1.4510984647367877,4274.238985997257,None,001,73,2019_Oct_29_1207,ACPT_experiment_5_30_19,3.1.0,59.955027182932895,
,,,C,G,y,b,L,D,d,R,c ,,,,,5,19,119,5,3,0,3,0,,,,,0,29,29,13,,,,,,up,1.1842373834497266,4276.974398486378,None,001,73,2019_Oct_29_1207,ACPT_experiment_5_30_19,3.1.0,59.955027182932895,
,,,C,G,y,b,R,G,g,R,c ,,,,,5,19,119,5,3,0,3,0,,,,,0,30,30,7,,,,,,up,1.7513377450413827,4279.442937518168,None,001,73,2019_Oct_29_1207,ACPT_experiment_5_30_19,3.1.0,59.955027182932895,
,,,C,G,y,b,L,U,y,R,u,,,,,5,19,119,5,3,0,3,0,,,,,0,31,31,25,,,,,,down,1.3510489907330339,4282.478556083566,None,001,73,2019_Oct_29_1207,ACPT_experiment_5_30_19,3.1.0,59.955027182932895,
,,,C,G,y,b,L,U,d,L,u,,,,,5,19,119,5,3,0,3,0,,,,,0,32,32,20,,,,,,up,3.1190808158899017,4285.113915476428,None,001,73,2019_Oct_29_1207,ACPT_experiment_5_30_19,3.1.0,59.955027182932895,
,,,C,G,y,b,R,D,d,L,c,,,,,5,19,119,5,3,0,3,0,,,,,0,33,33,0,,,,,,up,5.93784869890078,4289.517256888401,None,001,73,2019_Oct_29_1207,ACPT_experiment_5_30_19,3.1.0,59.955027182932895,
,,,C,G,y,b,L,G,d,L,i,,,,,5,19,119,5,3,0,3,0,,,,,0,34,34,16,,,,,,down,0.8339665744097147,4296.7394196116875,None,001,73,2019_Oct_29_1207,ACPT_experiment_5_30_19,3.1.0,59.955027182932895,
,,,C,G,y,b,L,D,g,R,i,,,,,5,19,119,5,3,0,3,0,,,,,0,35,35,15,,,,,,up,1.3343715126320603,4298.857662478631,None,001,73,2019_Oct_29_1207,ACPT_experiment_5_30_19,3.1.0,59.955027182932895,
,,,C,G,y,b,R,D,y,L,y,,,,,5,19,119,5,3,0,3,0,,,,,1,0,36,26,,,,,,down,0.9840632735977124,4301.476359184278,None,001,73,2019_Oct_29_1207,ACPT_experiment_5_30_19,3.1.0,59.955027182932895,
,,,C,G,y,b,L,U,g,L,u,,,,,5,19,119,5,3,0,3,0,,,,,1,1,37,22,,,,,,up,0.6838415008696757,4303.744736784116,None,001,73,2019_Oct_29_1207,ACPT_experiment_5_30_19,3.1.0,59.955027182932895,
,,,C,G,y,b,R,G,g,R,c ,,,,,5,19,119,5,3,0,3,0,,,,,1,2,38,7,,,,,,up,0.6171312866172229,4305.712895931631,None,001,73,2019_Oct_29_1207,ACPT_experiment_5_30_19,3.1.0,59.955027182932895,
,,,C,G,y,b,L,G,d,L,i,,,,,5,19,119,5,3,0,3,0,,,,,1,3,39,16,,,,,,up,0.6671422892231931,4307.614371428113,None,001,73,2019_Oct_29_1207,ACPT_experiment_5_30_19,3.1.0,59.955027182932895,
,,,C,G,y,b,L,G,g,R,c ,,,,,5,19,119,5,3,0,3,0,,,,,1,4,40,19,,,,,,up,2.11830384161658,4309.549114342903,None,001,73,2019_Oct_29_1207,ACPT_experiment_5_30_19,3.1.0,59.955027182932895,
,,,C,G,y,b,L,G,y,R,y,,,,,5,19,119,5,3,0,3,0,,,,,1,5,41,35,,,,,,down,0.7172109461007494,4312.951723455115,None,001,73,2019_Oct_29_1207,ACPT_experiment_5_30_19,3.1.0,59.955027182932895,
,,,C,G,y,b,R,U,y,R,u,,,,,5,19,119,5,3,0,3,0,,,,,1,6,42,31,,,,,,down,0.6171587554035796,4314.9532170327,None,001,73,2019_Oct_29_1207,ACPT_experiment_5_30_19,3.1.0,59.955027182932895,
,,,C,G,y,b,R,G,y,L,y,,,,,5,19,119,5,3,0,3,0,,,,,1,7,43,28,,,,,,down,0.6505037503939093,4316.854681360555,None,001,73,2019_Oct_29_1207,ACPT_experiment_5_30_19,3.1.0,59.955027182932895,
,,,C,G,y,b,R,D,d,L,c,,,,,5,19,119,5,3,0,3,0,,,,,1,8,44,0,,,,,,down,1.5011737624190573,4318.789489777837,None,001,73,2019_Oct_29_1207,ACPT_experiment_5_30_19,3.1.0,59.955027182932895,
,,,C,G,y,b,L,D,g,R,i,,,,,5,19,119,5,3,0,3,0,,,,,1,9,45,15,,,,,,up,2.168316353498085,4321.574937719806,None,001,73,2019_Oct_29_1207,ACPT_experiment_5_30_19,3.1.0,59.955027182932895,
,,,C,G,y,b,L,G,y,L,y,,,,,5,19,119,5,3,0,3,0,,,,,1,10,46,34,,,,,,down,1.084141423807523,4325.027580473736,None,001,73,2019_Oct_29_1207,ACPT_experiment_5_30_19,3.1.0,59.955027182932895,
,,,C,G,y,b,L,D,y,R,y,,,,,5,19,119,5,3,0,3,0,,,,,1,11,47,33,,,,,,down,2.385173978545936,4327.396000001207,None,001,73,2019_Oct_29_1207,ACPT_experiment_5_30_19,3.1.0,59.955027182932895,
,,,C,G,y,b,L,D,d,R,c ,,,,,5,19,119,5,3,0,3,0,,,,,1,12,48,13,,,,,,up,2.3518190223476267,4331.065455403819,None,001,73,2019_Oct_29_1207,ACPT_experiment_5_30_19,3.1.0,59.955027182932895,
,,,C,G,y,b,R,D,y,R,y,,,,,5,19,119,5,3,0,3,0,,,,,1,13,49,27,,,,,,down,1.3510595556508633,4334.718257174862,None,001,73,2019_Oct_29_1207,ACPT_experiment_5_30_19,3.1.0,59.955027182932895,
,,,C,G,y,b,R,G,g,L,c ,,,,,5,19,119,5,3,0,3,0,,,,,1,14,50,6,,,,,,up,1.1008330890836078,4337.370270199293,None,001,73,2019_Oct_29_1207,ACPT_experiment_5_30_19,3.1.0,59.955027182932895,
,,,C,G,y,b,L,U,g,R,u,,,,,5,19,119,5,3,0,3,0,,,,,1,15,51,23,,,,,,up,0.6171379274219362,4339.755407955263,None,001,73,2019_Oct_29_1207,ACPT_experiment_5_30_19,3.1.0,59.955027182932895,
,,,C,G,y,b,R,U,y,L,u,,,,,5,19,119,5,3,0,3,0,,,,,1,16,52,30,,,,,,down,0.783920556645171,4341.656867151585,None,001,73,2019_Oct_29_1207,ACPT_experiment_5_30_19,3.1.0,59.955027182932895,
,,,C,G,y,b,L,G,g,L,c ,,,,,5,19,119,5,3,0,3,0,,,,,1,17,53,18,,,,,,up,5.721018542639285,4343.725092676972,None,001,73,2019_Oct_29_1207,ACPT_experiment_5_30_19,3.1.0,59.955027182932895,
,,,C,G,y,b,R,D,d,R,c ,,,,,5,19,119,5,3,0,3,0,,,,,1,18,54,1,,,,,,up,1.6679274135785818,4350.730446675687,None,001,73,2019_Oct_29_1207,ACPT_experiment_5_30_19,3.1.0,59.955027182932895,
,,,C,G,y,b,L,D,g,L,i,,,,,5,19,119,5,3,0,3,0,,,,,1,19,55,14,,,,,,up,1.2342752511358412,4353.682659437445,None,001,73,2019_Oct_29_1207,ACPT_experiment_5_30_19,3.1.0,59.955027182932895,
,,,C,G,y,b,L,G,d,R,i,,,,,5,19,119,5,3,0,3,0,,,,,1,20,56,17,,,,,,down,3.7528491320626927,4356.201240562887,None,001,73,2019_Oct_29_1207,ACPT_experiment_5_30_19,3.1.0,59.955027182932895,
,,,C,G,y,b,R,U,g,L,u,,,,,5,19,119,5,3,0,3,0,,,,,1,21,57,10,,,,,,down,2.501887347181764,4361.238414586107,None,001,73,2019_Oct_29_1207,ACPT_experiment_5_30_19,3.1.0,59.955027182932895,
,,,C,G,y,b,R,U,d,L,u,,,,,5,19,119,5,3,0,3,0,,,,,1,22,58,8,,,,,,down,8.556534537774496,4365.0245827536455,None,001,73,2019_Oct_29_1207,ACPT_experiment_5_30_19,3.1.0,59.955027182932895,
,,,C,G,y,b,L,U,d,L,u,,,,,5,19,119,5,3,0,3,0,,,,,1,23,59,20,,,,,,up,0.8506340913008898,4374.8654189397585,None,001,73,2019_Oct_29_1207,ACPT_experiment_5_30_19,3.1.0,59.955027182932895,
,,,C,G,y,b,R,G,d,L,i,,,,,5,19,119,5,3,0,3,0,,,,,1,24,60,4,,,,,,up,1.0508199734922528,4377.000348944157,None,001,73,2019_Oct_29_1207,ACPT_experiment_5_30_19,3.1.0,59.955027182932895,
,,,C,G,y,b,L,U,y,L,u,,,,,5,19,119,5,3,0,3,0,,,,,1,25,61,24,,,,,,down,3.185778955950809,4379.3354769049365,None,001,73,2019_Oct_29_1207,ACPT_experiment_5_30_19,3.1.0,59.955027182932895,
,,,C,G,y,b,R,D,g,L,i,,,,,5,19,119,5,3,0,3,0,,,,,1,26,62,2,,,,,,up,1.3009821449868468,4383.805534568261,None,001,73,2019_Oct_29_1207,ACPT_experiment_5_30_19,3.1.0,59.955027182932895,
,,,C,G,y,b,R,D,g,R,i,,,,,5,19,119,5,3,0,3,0,,,,,1,27,63,3,,,,,,up,2.451885098364073,4386.374133337116,None,001,73,2019_Oct_29_1207,ACPT_experiment_5_30_19,3.1.0,59.955027182932895,
,,,C,G,y,b,L,D,y,L,y,,,,,5,19,119,5,3,0,3,0,,,,,1,28,64,32,,,,,,down,1.6846230029677827,4390.11032461164,None,001,73,2019_Oct_29_1207,ACPT_experiment_5_30_19,3.1.0,59.955027182932895,
,,,C,G,y,b,L,U,y,R,u,,,,,5,19,119,5,3,0,3,0,,,,,1,29,65,25,,,,,,down,2.2517155163332063,4393.079247451817,None,001,73,2019_Oct_29_1207,ACPT_experiment_5_30_19,3.1.0,59.955027182932895,
,,,C,G,y,b,R,G,y,R,y,,,,,5,19,119,5,3,0,3,0,,,,,1,30,66,29,,,,,,down,0.5504246946202329,4396.615266729472,None,001,73,2019_Oct_29_1207,ACPT_experiment_5_30_19,3.1.0,59.955027182932895,
,,,C,G,y,b,R,U,d,R,u,,,,,5,19,119,5,3,0,3,0,,,,,1,31,67,9,,,,,,down,1.434427929296362,4398.4499924687225,None,001,73,2019_Oct_29_1207,ACPT_experiment_5_30_19,3.1.0,59.955027182932895,
,,,C,G,y,b,R,U,g,R,u,,,,,5,19,119,5,3,0,3,0,,,,,1,32,68,11,,,,,,up,3.986388461178649,4401.152019816163,None,001,73,2019_Oct_29_1207,ACPT_experiment_5_30_19,3.1.0,59.955027182932895,
,,,C,G,y,b,L,D,d,L,c ,,,,,5,19,119,5,3,0,3,0,,,,,1,33,69,12,,,,,,up,4.086441557437865,4406.4227150572115,None,001,73,2019_Oct_29_1207,ACPT_experiment_5_30_19,3.1.0,59.955027182932895,
,,,C,G,y,b,L,U,d,R,u,,,,,5,19,119,5,3,0,3,0,,,,,1,34,70,21,,,,,,down,1.1842573058675043,4411.793435925732,None,001,73,2019_Oct_29_1207,ACPT_experiment_5_30_19,3.1.0,59.955027182932895,
,,,C,G,y,b,R,G,d,R,i,,,,,5,19,119,5,3,0,3,0,,,,,1,35,71,5,,,,,,up,1.5178243754398864,4414.262000615179,None,001,73,2019_Oct_29_1207,ACPT_experiment_5_30_19,3.1.0,59.955027182932895,
,,,C,G,y,b,,,,,,,,,,5,19,119,5,4,0,4,0,0,0,0,0,,,,,,,,,,,,,,001,73,2019_Oct_29_1207,ACPT_experiment_5_30_19,3.1.0,59.955027182932895,
,,,C,G,y,b,L,U,g,L,u,,,,,5,19,119,5,4,0,4,0,,,,,0,0,0,22,,,,,,up,1.2840646923141321,4506.282153951384,None,001,73,2019_Oct_29_1207,ACPT_experiment_5_30_19,3.1.0,59.955027182932895,
,,,C,G,y,b,R,D,d,L,c,,,,,5,19,119,5,4,0,4,0,,,,,0,1,1,0,,,,,,up,0.6839042866704403,4508.85052300873,None,001,73,2019_Oct_29_1207,ACPT_experiment_5_30_19,3.1.0,59.955027182932895,
,,,C,G,y,b,L,U,g,R,u,,,,,5,19,119,5,4,0,4,0,,,,,0,2,2,23,,,,,,up,1.3510345017039072,4510.818686985922,None,001,73,2019_Oct_29_1207,ACPT_experiment_5_30_19,3.1.0,59.955027182932895,
,,,C,G,y,b,R,G,d,L,i,,,,,5,19,119,5,4,0,4,0,,,,,0,3,3,4,,,,,,up,0.5837766322729294,4513.454020117415,None,001,73,2019_Oct_29_1207,ACPT_experiment_5_30_19,3.1.0,59.955027182932895,
,,,C,G,y,b,R,U,g,L,u,,,,,5,19,119,5,4,0,4,0,,,,,0,4,4,10,,,,,,up,1.1342085714095447,4515.322108962944,None,001,73,2019_Oct_29_1207,ACPT_experiment_5_30_19,3.1.0,59.955027182932895,
,,,C,G,y,b,L,G,g,R,c ,,,,,5,19,119,5,4,0,4,0,,,,,0,5,5,19,,,,,,up,0.5671009653015062,4517.7239302341095,None,001,73,2019_Oct_29_1207,ACPT_experiment_5_30_19,3.1.0,59.955027182932895,
,,,C,G,y,b,L,U,d,L,u,,,,,5,19,119,5,4,0,4,0,,,,,0,6,6,20,,,,,,up,0.5003844120965368,4519.575337677426,None,001,73,2019_Oct_29_1207,ACPT_experiment_5_30_19,3.1.0,59.955027182932895,
,,,C,G,y,b,L,G,y,L,y,,,,,5,19,119,5,4,0,4,0,,,,,0,7,7,34,,,,,,down,0.8006073922424548,4521.360026152701,None,001,73,2019_Oct_29_1207,ACPT_experiment_5_30_19,3.1.0,59.955027182932895,
,,,C,G,y,b,R,D,g,L,i,,,,,5,19,119,5,4,0,4,0,,,,,0,8,8,2,,,,,,up,0.783938969787414,4523.444939117395,None,001,73,2019_Oct_29_1207,ACPT_experiment_5_30_19,3.1.0,59.955027182932895,
,,,C,G,y,b,L,D,g,L,i,,,,,5,19,119,5,4,0,4,0,,,,,0,9,9,14,,,,,,up,0.6505013355563278,4525.513177622537,None,001,73,2019_Oct_29_1207,ACPT_experiment_5_30_19,3.1.0,59.955027182932895,
,,,C,G,y,b,L,D,d,R,c ,,,,,5,19,119,5,4,0,4,0,,,,,0,10,10,13,,,,,,down,4.920401189187032,4527.447984228689,None,001,73,2019_Oct_29_1207,ACPT_experiment_5_30_19,3.1.0,59.955027182932895,
,,,C,G,y,b,L,G,g,L,c ,,,,,5,19,119,5,4,0,4,0,,,,,0,11,11,18,,,,,,up,1.1508244711276348,4533.652746229758,None,001,73,2019_Oct_29_1207,ACPT_experiment_5_30_19,3.1.0,59.955027182932895,
,,,C,G,y,b,R,G,y,L,y,,,,,5,19,119,5,4,0,4,0,,,,,0,12,12,28,,,,,,down,0.9173645298251358,4536.0878811030125,None,001,73,2019_Oct_29_1207,ACPT_experiment_5_30_19,3.1.0,59.955027182932895,
,,,C,G,y,b,R,U,d,R,u,,,,,5,19,119,5,4,0,4,0,,,,,0,13,13,9,,,,,,up,2.0182235784213844,4538.289530679163,None,001,73,2019_Oct_29_1207,ACPT_experiment_5_30_19,3.1.0,59.955027182932895,
,,,C,G,y,b,R,G,d,R,i,,,,,5,19,119,5,4,0,4,0,,,,,0,14,14,5,,,,,,up,6.821848915027658,4541.592060131892,None,001,73,2019_Oct_29_1207,ACPT_experiment_5_30_19,3.1.0,59.955027182932895,
,,,C,G,y,b,L,D,y,L,y,,,,,5,19,119,5,4,0,4,0,,,,,0,15,15,32,,,,,,down,0.8673330010915379,4549.698220656468,None,001,73,2019_Oct_29_1207,ACPT_experiment_5_30_19,3.1.0,59.955027182932895,
,,,C,G,y,b,R,D,y,L,y,,,,,5,19,119,5,4,0,4,0,,,,,0,16,16,26,,,,,,down,0.6004809754504095,4551.849826931546,None,001,73,2019_Oct_29_1207,ACPT_experiment_5_30_19,3.1.0,59.955027182932895,
,,,C,G,y,b,R,U,d,L,u,,,,,5,19,119,5,4,0,4,0,,,,,0,17,17,8,,,,,,up,0.7839685515591555,4553.734599292271,None,001,73,2019_Oct_29_1207,ACPT_experiment_5_30_19,3.1.0,59.955027182932895,
,,,C,G,y,b,L,D,d,L,c ,,,,,5,19,119,5,4,0,4,0,,,,,0,18,18,12,,,,,,up,0.7338920464590046,4555.802854399428,None,001,73,2019_Oct_29_1207,ACPT_experiment_5_30_19,3.1.0,59.955027182932895,
,,,C,G,y,b,R,G,g,R,c ,,,,,5,19,119,5,4,0,4,0,,,,,0,19,19,7,,,,,,up,0.6838919106230605,4557.821052018337,None,001,73,2019_Oct_29_1207,ACPT_experiment_5_30_19,3.1.0,59.955027182932895,
,,,C,G,y,b,R,U,y,L,u,,,,,5,19,119,5,4,0,4,0,,,,,0,20,20,30,,,,,,down,0.8505296495386574,4559.789213278835,None,001,73,2019_Oct_29_1207,ACPT_experiment_5_30_19,3.1.0,59.955027182932895,
,,,C,G,y,b,R,G,y,R,y,,,,,5,19,119,5,4,0,4,0,,,,,0,21,21,29,,,,,,down,0.8003770770246774,4561.94108126203,None,001,73,2019_Oct_29_1207,ACPT_experiment_5_30_19,3.1.0,59.955027182932895,
,,,C,G,y,b,R,D,g,R,i,,,,,5,19,119,5,4,0,4,0,,,,,0,22,22,3,,,,,,up,3.2357965993633115,4564.025763609652,None,001,73,2019_Oct_29_1207,ACPT_experiment_5_30_19,3.1.0,59.955027182932895,
,,,C,G,y,b,R,U,y,R,u,,,,,5,19,119,5,4,0,4,0,,,,,0,23,23,31,,,,,,down,0.7839154251123546,4568.5458971743665,None,001,73,2019_Oct_29_1207,ACPT_experiment_5_30_19,3.1.0,59.955027182932895,
,,,C,G,y,b,L,G,y,R,y,,,,,5,19,119,5,4,0,4,0,,,,,0,24,24,35,,,,,,down,0.5337417831342464,4570.614100060642,None,001,73,2019_Oct_29_1207,ACPT_experiment_5_30_19,3.1.0,59.955027182932895,
,,,C,G,y,b,L,U,d,R,u,,,,,5,19,119,5,4,0,4,0,,,,,0,25,25,21,,,,,,up,0.6504666222535889,4572.432172772033,None,001,73,2019_Oct_29_1207,ACPT_experiment_5_30_19,3.1.0,59.955027182932895,
,,,C,G,y,b,L,G,d,R,i,,,,,5,19,119,5,4,0,4,0,,,,,0,26,26,17,,,,,,up,0.7172414334363566,4574.366953116816,None,001,73,2019_Oct_29_1207,ACPT_experiment_5_30_19,3.1.0,59.955027182932895,
,,,C,G,y,b,L,D,y,R,y,,,,,5,19,119,5,4,0,4,0,,,,,0,27,27,33,,,,,,up,0.6338280834243051,4576.3684696353685,None,001,73,2019_Oct_29_1207,ACPT_experiment_5_30_19,3.1.0,59.955027182932895,
,,,C,G,y,b,R,G,g,L,c ,,,,,5,19,119,5,4,0,4,0,,,,,0,28,28,6,,,,,,up,1.1675813370420656,4578.286596046728,None,001,73,2019_Oct_29_1207,ACPT_experiment_5_30_19,3.1.0,59.955027182932895,
,,,C,G,y,b,R,D,d,R,c ,,,,,5,19,119,5,4,0,4,0,,,,,0,29,29,1,,,,,,up,1.934799965345519,4580.738463335658,None,001,73,2019_Oct_29_1207,ACPT_experiment_5_30_19,3.1.0,59.955027182932895,
,,,C,G,y,b,L,G,d,L,i,,,,,5,19,119,5,4,0,4,0,,,,,0,30,30,16,,,,,,down,1.5511799353480455,4583.957567364183,None,001,73,2019_Oct_29_1207,ACPT_experiment_5_30_19,3.1.0,59.955027182932895,
,,,C,G,y,b,L,D,g,R,i,,,,,5,19,119,5,4,0,4,0,,,,,0,31,31,15,,,,,,up,1.0508078992988885,4586.793045023756,None,001,73,2019_Oct_29_1207,ACPT_experiment_5_30_19,3.1.0,59.955027182932895,
,,,C,G,y,b,L,U,y,L,u,,,,,5,19,119,5,4,0,4,0,,,,,0,32,32,24,,,,,,down,0.7672494174948952,4589.128168456715,None,001,73,2019_Oct_29_1207,ACPT_experiment_5_30_19,3.1.0,59.955027182932895,
,,,C,G,y,b,L,U,y,R,u,,,,,5,19,119,5,4,0,4,0,,,,,0,33,33,25,,,,,,down,0.6338093684262276,4591.179730993032,None,001,73,2019_Oct_29_1207,ACPT_experiment_5_30_19,3.1.0,59.955027182932895,
,,,C,G,y,b,R,U,g,R,u,,,,,5,19,119,5,4,0,4,0,,,,,0,34,34,11,,,,,,up,0.9674020956572349,4593.097845632055,None,001,73,2019_Oct_29_1207,ACPT_experiment_5_30_19,3.1.0,59.955027182932895,
,,,C,G,y,b,R,D,y,R,y,,,,,5,19,119,5,4,0,4,0,,,,,0,35,35,27,,,,,,down,0.7172073238434677,4595.349556318712,None,001,73,2019_Oct_29_1207,ACPT_experiment_5_30_19,3.1.0,59.955027182932895,
,,,C,G,y,b,L,U,d,R,u,,,,,5,19,119,5,4,0,4,0,,,,,1,0,36,21,,,,,,up,0.8006040718410077,4597.351080987342,None,001,73,2019_Oct_29_1207,ACPT_experiment_5_30_19,3.1.0,59.955027182932895,
,,,C,G,y,b,L,U,y,R,u,,,,,5,19,119,5,4,0,4,0,,,,,1,1,37,25,,,,,,down,0.8506694083134789,4599.435976746312,None,001,73,2019_Oct_29_1207,ACPT_experiment_5_30_19,3.1.0,59.955027182932895,
,,,C,G,y,b,L,D,g,R,i,,,,,5,19,119,5,4,0,4,0,,,,,1,2,38,15,,,,,,up,0.7338899334736197,4601.570945991836,None,001,73,2019_Oct_29_1207,ACPT_experiment_5_30_19,3.1.0,59.955027182932895,
,,,C,G,y,b,R,D,d,L,c,,,,,5,19,119,5,4,0,4,0,,,,,1,3,39,0,,,,,,down,1.1508700512040377,4603.589152968243,None,001,73,2019_Oct_29_1207,ACPT_experiment_5_30_19,3.1.0,59.955027182932895,
,,,C,G,y,b,R,G,g,L,c ,,,,,5,19,119,5,4,0,4,0,,,,,1,4,40,6,,,,,,up,4.219872550862419,4606.024331006736,None,001,73,2019_Oct_29_1207,ACPT_experiment_5_30_19,3.1.0,59.955027182932895,
,,,C,G,y,b,R,D,y,L,y,,,,,5,19,119,5,4,0,4,0,,,,,1,5,41,26,,,,,,down,0.6004713160964457,4611.528520600534,None,001,73,2019_Oct_29_1207,ACPT_experiment_5_30_19,3.1.0,59.955027182932895,
,,,C,G,y,b,L,G,y,L,y,,,,,5,19,119,5,4,0,4,0,,,,,1,6,42,34,,,,,,down,0.7005331661457603,4613.413278774082,None,001,73,2019_Oct_29_1207,ACPT_experiment_5_30_19,3.1.0,59.955027182932895,
,,,C,G,y,b,L,G,g,L,c ,,,,,5,19,119,5,4,0,4,0,,,,,1,7,43,18,,,,,,up,1.1175621843540284,4615.381414376921,None,001,73,2019_Oct_29_1207,ACPT_experiment_5_30_19,3.1.0,59.955027182932895,
,,,C,G,y,b,L,D,y,L,y,,,,,5,19,119,5,4,0,4,0,,,,,1,8,44,32,,,,,,down,0.6004480732754018,4617.783261607599,None,001,73,2019_Oct_29_1207,ACPT_experiment_5_30_19,3.1.0,59.955027182932895,
,,,C,G,y,b,R,U,d,L,u,,,,,5,19,119,5,4,0,4,0,,,,,1,9,45,8,,,,,,up,0.7338923483130202,4619.668027025664,None,001,73,2019_Oct_29_1207,ACPT_experiment_5_30_19,3.1.0,59.955027182932895,
,,,C,G,y,b,R,U,d,R,u,,,,,5,19,119,5,4,0,4,0,,,,,1,10,46,9,,,,,,up,1.2843671508326224,4621.669526640346,None,001,73,2019_Oct_29_1207,ACPT_experiment_5_30_19,3.1.0,59.955027182932895,
,,,C,G,y,b,L,U,y,L,u,,,,,5,19,119,5,4,0,4,0,,,,,1,11,47,24,,,,,,down,0.934051063570223,4624.25484424141,None,001,73,2019_Oct_29_1207,ACPT_experiment_5_30_19,3.1.0,59.955027182932895,
,,,C,G,y,b,R,D,y,R,y,,,,,5,19,119,5,4,0,4,0,,,,,1,12,48,27,,,,,,down,1.301009915629038,4626.489873827708,None,001,73,2019_Oct_29_1207,ACPT_experiment_5_30_19,3.1.0,59.955027182932895,
,,,C,G,y,b,R,D,g,R,i,,,,,5,19,119,5,4,0,4,0,,,,,1,13,49,3,,,,,,up,0.7172263406955608,4629.05847923737,None,001,73,2019_Oct_29_1207,ACPT_experiment_5_30_19,3.1.0,59.955027182932895,
,,,C,G,y,b,L,G,g,R,c ,,,,,5,19,119,5,4,0,4,0,,,,,1,14,50,19,,,,,,up,0.7672554545915773,4631.060007528258,None,001,73,2019_Oct_29_1207,ACPT_experiment_5_30_19,3.1.0,59.955027182932895,
,,,C,G,y,b,R,G,y,L,y,,,,,5,19,119,5,4,0,4,0,,,,,1,15,51,28,,,,,,down,0.8840074606432609,4633.111568555301,None,001,73,2019_Oct_29_1207,ACPT_experiment_5_30_19,3.1.0,59.955027182932895,
,,,C,G,y,b,L,G,d,L,i,,,,,5,19,119,5,4,0,4,0,,,,,1,16,52,16,,,,,,down,1.017442378180931,4635.279879475413,None,001,73,2019_Oct_29_1207,ACPT_experiment_5_30_19,3.1.0,59.955027182932895,
,,,C,G,y,b,L,D,d,L,c ,,,,,5,19,119,5,4,0,4,0,,,,,1,17,53,12,,,,,,up,0.8006119200654211,4637.581633764996,None,001,73,2019_Oct_29_1207,ACPT_experiment_5_30_19,3.1.0,59.955027182932895,
,,,C,G,y,b,L,U,g,R,u,,,,,5,19,119,5,4,0,4,0,,,,,1,18,54,23,,,,,,up,1.4511099352184829,4639.6665482389635,None,001,73,2019_Oct_29_1207,ACPT_experiment_5_30_19,3.1.0,59.955027182932895,
,,,C,G,y,b,R,U,g,R,u,,,,,5,19,119,5,4,0,4,0,,,,,1,19,55,11,,,,,,up,1.4511256316691288,4642.401941409378,None,001,73,2019_Oct_29_1207,ACPT_experiment_5_30_19,3.1.0,59.955027182932895,
,,,C,G,y,b,L,D,g,L,i,,,,,5,19,119,5,4,0,4,0,,,,,1,20,56,14,,,,,,up,1.5011206359722564,4645.1373937433345,None,001,73,2019_Oct_29_1207,ACPT_experiment_5_30_19,3.1.0,59.955027182932895,
,,,C,G,y,b,L,U,g,L,u,,,,,5,19,119,5,4,0,4,0,,,,,1,21,57,22,,,,,,up,1.301041912238361,4647.922818744339,None,001,73,2019_Oct_29_1207,ACPT_experiment_5_30_19,3.1.0,59.955027182932895,
,,,C,G,y,b,L,D,y,R,y,,,,,5,19,119,5,4,0,4,0,,,,,1,22,58,33,,,,,,down,0.9339263975343783,4650.508116121129,None,001,73,2019_Oct_29_1207,ACPT_experiment_5_30_19,3.1.0,59.955027182932895,
,,,C,G,y,b,R,U,y,R,u,,,,,5,19,119,5,4,0,4,0,,,,,1,23,59,31,,,,,,down,0.9507460492477549,4652.726445288363,None,001,73,2019_Oct_29_1207,ACPT_experiment_5_30_19,3.1.0,59.955027182932895,
,,,C,G,y,b,R,G,g,R,c ,,,,,5,19,119,5,4,0,4,0,,,,,1,24,60,7,,,,,,up,1.0341171395866695,4654.961501437885,None,001,73,2019_Oct_29_1207,ACPT_experiment_5_30_19,3.1.0,59.955027182932895,
,,,C,G,y,b,R,D,g,L,i,,,,,5,19,119,5,4,0,4,0,,,,,1,25,61,2,,,,,,up,0.7672497193507297,4657.279927772181,None,001,73,2019_Oct_29_1207,ACPT_experiment_5_30_19,3.1.0,59.955027182932895,
,,,C,G,y,b,R,G,y,R,y,,,,,5,19,119,5,4,0,4,0,,,,,1,26,62,29,,,,,,down,0.7172498853706202,4659.33147853616,None,001,73,2019_Oct_29_1207,ACPT_experiment_5_30_19,3.1.0,59.955027182932895,
,,,C,G,y,b,R,U,g,L,u,,,,,5,19,119,5,4,0,4,0,,,,,1,27,63,10,,,,,,up,1.4844555339186627,4661.33301497713,None,001,73,2019_Oct_29_1207,ACPT_experiment_5_30_19,3.1.0,59.955027182932895,
,,,C,G,y,b,L,G,y,R,y,,,,,5,19,119,5,4,0,4,0,,,,,1,28,64,35,,,,,,down,0.8006185608701344,4664.118432431764,None,001,73,2019_Oct_29_1207,ACPT_experiment_5_30_19,3.1.0,59.955027182932895,
,,,C,G,y,b,R,G,d,L,i,,,,,5,19,119,5,4,0,4,0,,,,,1,29,65,4,,,,,,up,0.5670955319146742,4666.220047022942,None,001,73,2019_Oct_29_1207,ACPT_experiment_5_30_19,3.1.0,59.955027182932895,
,,,C,G,y,b,R,U,y,L,u,,,,,5,19,119,5,4,0,4,0,,,,,1,30,66,30,,,,,,down,0.9674045104948163,4668.071455069969,None,001,73,2019_Oct_29_1207,ACPT_experiment_5_30_19,3.1.0,59.955027182932895,
,,,C,G,y,b,L,U,d,L,u,,,,,5,19,119,5,4,0,4,0,,,,,1,31,67,20,,,,,,down,2.1016230431123404,4670.3231391934005,None,001,73,2019_Oct_29_1207,ACPT_experiment_5_30_19,3.1.0,59.955027182932895,
,,,C,G,y,b,L,G,d,R,i,,,,,5,19,119,5,4,0,4,0,,,,,1,32,68,17,,,,,,up,1.5845895272686903,4673.709042755016,None,001,73,2019_Oct_29_1207,ACPT_experiment_5_30_19,3.1.0,59.955027182932895,
,,,C,G,y,b,R,G,d,R,i,,,,,5,19,119,5,4,0,4,0,,,,,1,33,69,5,,,,,,up,3.2357993160567275,4676.577913404497,None,001,73,2019_Oct_29_1207,ACPT_experiment_5_30_19,3.1.0,59.955027182932895,
,,,C,G,y,b,L,D,d,R,c ,,,,,5,19,119,5,4,0,4,0,,,,,1,34,70,13,,,,,,up,0.9674048123506509,4681.0813390037765,None,001,73,2019_Oct_29_1207,ACPT_experiment_5_30_19,3.1.0,59.955027182932895,
,,,C,G,y,b,R,D,d,R,c ,,,,,5,19,119,5,4,0,4,0,,,,,1,35,71,1,,,,,,up,0.4670237206573802,4683.316364364107,None,001,73,2019_Oct_29_1207,ACPT_experiment_5_30_19,3.1.0,59.955027182932895,
,,,C,G,y,b,,,,,,,,,,5,19,119,5,5,0,5,0,0,0,0,0,,,,,,,,,,,,,,001,73,2019_Oct_29_1207,ACPT_experiment_5_30_19,3.1.0,59.955027182932895,
,,,C,G,y,b,L,U,y,R,u,,,,,5,19,119,5,5,0,5,0,,,,,0,0,0,25,,,,,,down,0.9173554741810221,4689.370970502447,None,001,73,2019_Oct_29_1207,ACPT_experiment_5_30_19,3.1.0,59.955027182932895,
,,,C,G,y,b,R,D,y,L,y,,,,,5,19,119,5,5,0,5,0,,,,,0,1,1,26,,,,,,down,0.5671151524766174,4691.589317177259,None,001,73,2019_Oct_29_1207,ACPT_experiment_5_30_19,3.1.0,59.955027182932895,
,,,C,G,y,b,L,D,y,R,y,,,,,5,19,119,5,5,0,5,0,,,,,0,2,2,33,,,,,,down,0.5670599130480696,4693.457434095284,None,001,73,2019_Oct_29_1207,ACPT_experiment_5_30_19,3.1.0,59.955027182932895,
,,,C,G,y,b,R,G,g,R,c ,,,,,5,19,119,5,5,0,5,0,,,,,0,3,3,7,,,,,,up,1.1341904601194983,4695.3254927553335,None,001,73,2019_Oct_29_1207,ACPT_experiment_5_30_19,3.1.0,59.955027182932895,
,,,C,G,y,b,R,G,d,L,i,,,,,5,19,119,5,5,0,5,0,,,,,0,4,4,4,,,,,,up,0.9006574699560588,4697.744017162257,None,001,73,2019_Oct_29_1207,ACPT_experiment_5_30_19,3.1.0,59.955027182932895,
,,,C,G,y,b,R,D,g,R,i,,,,,5,19,119,5,5,0,5,0,,,,,0,5,5,3,,,,,,up,0.6504992225727619,4699.928982619502,None,001,73,2019_Oct_29_1207,ACPT_experiment_5_30_19,3.1.0,59.955027182932895,
,,,C,G,y,b,R,G,y,R,y,,,,,5,19,119,5,5,0,5,0,,,,,0,6,6,29,,,,,,down,0.5835155278655293,4701.8807314304195,None,001,73,2019_Oct_29_1207,ACPT_experiment_5_30_19,3.1.0,59.955027182932895,
,,,C,G,y,b,L,D,g,R,i,,,,,5,19,119,5,5,0,5,0,,,,,0,7,7,15,,,,,,up,0.9340474413129414,4703.748554643718,None,001,73,2019_Oct_29_1207,ACPT_experiment_5_30_19,3.1.0,59.955027182932895,
,,,C,G,y,b,R,U,y,L,u,,,,,5,19,119,5,5,0,5,0,,,,,0,8,8,30,,,,,,down,1.8847823219330166,4705.966901620386,None,001,73,2019_Oct_29_1207,ACPT_experiment_5_30_19,3.1.0,59.955027182932895,
,,,C,G,y,b,L,U,y,L,u,,,,,5,19,119,5,5,0,5,0,,,,,0,9,9,24,,,,,,down,0.6670589772984385,4709.152743060282,None,001,73,2019_Oct_29_1207,ACPT_experiment_5_30_19,3.1.0,59.955027182932895,
,,,C,G,y,b,R,D,d,L,c,,,,,5,19,119,5,5,0,5,0,,,,,0,10,10,0,,,,,,up,0.6338157073769253,4711.120815273611,None,001,73,2019_Oct_29_1207,ACPT_experiment_5_30_19,3.1.0,59.955027182932895,
,,,C,G,y,b,R,G,d,R,i,,,,,5,19,119,5,5,0,5,0,,,,,0,11,11,5,,,,,,up,0.9173938097428618,4713.038947722067,None,001,73,2019_Oct_29_1207,ACPT_experiment_5_30_19,3.1.0,59.955027182932895,
,,,C,G,y,b,R,U,g,L,u,,,,,5,19,119,5,5,0,5,0,,,,,0,12,12,10,,,,,,up,0.7172184924711473,4715.240610277975,None,001,73,2019_Oct_29_1207,ACPT_experiment_5_30_19,3.1.0,59.955027182932895,
,,,C,G,y,b,L,U,d,R,u,,,,,5,19,119,5,5,0,5,0,,,,,0,13,13,21,,,,,,up,1.2842983279351756,4717.2421461152335,None,001,73,2019_Oct_29_1207,ACPT_experiment_5_30_19,3.1.0,59.955027182932895,
,,,C,G,y,b,L,G,d,R,i,,,,,5,19,119,5,5,0,5,0,,,,,0,14,14,17,,,,,,down,0.7839890776867833,4719.810721037558,None,001,73,2019_Oct_29_1207,ACPT_experiment_5_30_19,3.1.0,59.955027182932895,
,,,C,G,y,b,L,G,g,L,c ,,,,,5,19,119,5,5,0,5,0,,,,,0,15,15,18,,,,,,up,1.651284045072316,4721.878963466814,None,001,73,2019_Oct_29_1207,ACPT_experiment_5_30_19,3.1.0,59.955027182932895,
,,,C,G,y,b,R,U,d,L,u,,,,,5,19,119,5,5,0,5,0,,,,,0,16,16,8,,,,,,up,1.1175220376644575,4724.814550065788,None,001,73,2019_Oct_29_1207,ACPT_experiment_5_30_19,3.1.0,59.955027182932895,
,,,C,G,y,b,L,U,g,L,u,,,,,5,19,119,5,5,0,5,0,,,,,0,17,17,22,,,,,,up,0.7172052108599019,4727.2163770721945,None,001,73,2019_Oct_29_1207,ACPT_experiment_5_30_19,3.1.0,59.955027182932895,
,,,C,G,y,b,R,G,g,L,c ,,,,,5,19,119,5,5,0,5,0,,,,,0,18,18,6,,,,,,up,0.650523672811687,4729.21789570373,None,001,73,2019_Oct_29_1207,ACPT_experiment_5_30_19,3.1.0,59.955027182932895,
,,,C,G,y,b,L,U,d,L,u,,,,,5,19,119,5,5,0,5,0,,,,,0,19,19,20,,,,,,up,0.533761101842174,4731.15267574666,None,001,73,2019_Oct_29_1207,ACPT_experiment_5_30_19,3.1.0,59.955027182932895,
,,,C,G,y,b,L,U,g,R,u,,,,,5,19,119,5,5,0,5,0,,,,,0,20,20,23,,,,,,up,1.234161150019645,4732.970741817244,None,001,73,2019_Oct_29_1207,ACPT_experiment_5_30_19,3.1.0,59.955027182932895,
,,,C,G,y,b,L,G,g,R,c ,,,,,5,19,119,5,5,0,5,0,,,,,0,21,21,19,,,,,,up,0.9840874219826219,4735.489324753815,None,001,73,2019_Oct_29_1207,ACPT_experiment_5_30_19,3.1.0,59.955027182932895,
,,,C,G,y,b,L,D,g,L,i,,,,,5,19,119,5,5,0,5,0,,,,,0,22,22,14,,,,,,up,0.6838496509499237,4737.757714427844,None,001,73,2019_Oct_29_1207,ACPT_experiment_5_30_19,3.1.0,59.955027182932895,
,,,C,G,y,b,L,G,d,L,i,,,,,5,19,119,5,5,0,5,0,,,,,0,23,23,16,,,,,,up,0.6838469342565077,4739.7258784050355,None,001,73,2019_Oct_29_1207,ACPT_experiment_5_30_19,3.1.0,59.955027182932895,
,,,C,G,y,b,L,D,d,L,c ,,,,,5,19,119,5,5,0,5,0,,,,,0,24,24,12,,,,,,up,0.600481277304425,4741.694049023032,None,001,73,2019_Oct_29_1207,ACPT_experiment_5_30_19,3.1.0,59.955027182932895,
,,,C,G,y,b,R,D,g,L,i,,,,,5,19,119,5,5,0,5,0,,,,,0,25,25,2,,,,,,up,0.4837039154499507,4743.578804178032,None,001,73,2019_Oct_29_1207,ACPT_experiment_5_30_19,3.1.0,59.955027182932895,
,,,C,G,y,b,R,G,y,L,y,,,,,5,19,119,5,5,0,5,0,,,,,0,26,26,28,,,,,,down,0.5504204686549201,4745.346809439965,None,001,73,2019_Oct_29_1207,ACPT_experiment_5_30_19,3.1.0,59.955027182932895,
,,,C,G,y,b,R,U,g,R,u,,,,,5,19,119,5,5,0,5,0,,,,,0,27,27,11,,,,,,up,0.6004616567424819,4747.1815363866335,None,001,73,2019_Oct_29_1207,ACPT_experiment_5_30_19,3.1.0,59.955027182932895,
,,,C,G,y,b,R,D,d,R,c ,,,,,5,19,119,5,5,0,5,0,,,,,0,28,28,1,,,,,,up,0.6838565936104715,4749.06630120099,None,001,73,2019_Oct_29_1207,ACPT_experiment_5_30_19,3.1.0,59.955027182932895,
,,,C,G,y,b,R,D,y,R,y,,,,,5,19,119,5,5,0,5,0,,,,,0,29,29,27,,,,,,down,1.5011622919355432,4751.01776324984,None,001,73,2019_Oct_29_1207,ACPT_experiment_5_30_19,3.1.0,59.955027182932895,
,,,C,G,y,b,R,U,d,R,u,,,,,5,19,119,5,5,0,5,0,,,,,0,30,30,9,,,,,,up,1.0341316286194342,4753.803236849468,None,001,73,2019_Oct_29_1207,ACPT_experiment_5_30_19,3.1.0,59.955027182932895,
,,,C,G,y,b,R,U,y,R,u,,,,,5,19,119,5,5,0,5,0,,,,,0,31,31,31,,,,,,down,1.7179882222280867,4756.121659863362,None,001,73,2019_Oct_29_1207,ACPT_experiment_5_30_19,3.1.0,59.955027182932895,
,,,C,G,y,b,L,D,d,R,c ,,,,,5,19,119,5,5,0,5,0,,,,,0,32,32,13,,,,,,up,1.1508748808792006,4759.123945206107,None,001,73,2019_Oct_29_1207,ACPT_experiment_5_30_19,3.1.0,59.955027182932895,
,,,C,G,y,b,L,G,y,R,y,,,,,5,19,119,5,5,0,5,0,,,,,0,33,33,35,,,,,,down,0.9340450264735409,4761.559126565004,None,001,73,2019_Oct_29_1207,ACPT_experiment_5_30_19,3.1.0,59.955027182932895,
,,,C,G,y,b,L,G,y,L,y,,,,,5,19,119,5,5,0,5,0,,,,,0,34,34,34,,,,,,down,0.8674778913991759,4763.760648154715,None,001,73,2019_Oct_29_1207,ACPT_experiment_5_30_19,3.1.0,59.955027182932895,
,,,C,G,y,b,L,D,y,L,y,,,,,5,19,119,5,5,0,5,0,,,,,0,35,35,32,,,,,,down,0.7672678306389571,4765.929113624488,None,001,73,2019_Oct_29_1207,ACPT_experiment_5_30_19,3.1.0,59.955027182932895,
,,,C,G,y,b,R,D,y,R,y,,,,,5,19,119,5,5,0,5,0,,,,,1,0,36,27,,,,,,down,1.4844561376303318,4767.997358166727,None,001,73,2019_Oct_29_1207,ACPT_experiment_5_30_19,3.1.0,59.955027182932895,
,,,C,G,y,b,L,D,g,L,i,,,,,5,19,119,5,5,0,5,0,,,,,1,1,37,14,,,,,,up,1.2509789906034712,4770.7661144434205,None,001,73,2019_Oct_29_1207,ACPT_experiment_5_30_19,3.1.0,59.955027182932895,
,,,C,G,y,b,R,U,g,R,u,,,,,5,19,119,5,5,0,5,0,,,,,1,2,38,11,,,,,,up,0.767246097091629,4773.301379687768,None,001,73,2019_Oct_29_1207,ACPT_experiment_5_30_19,3.1.0,59.955027182932895,
,,,C,G,y,b,L,U,d,L,u,,,,,5,19,119,5,5,0,5,0,,,,,1,3,39,20,,,,,,up,1.4677690001753945,4775.352952789002,None,001,73,2019_Oct_29_1207,ACPT_experiment_5_30_19,3.1.0,59.955027182932895,
,,,C,G,y,b,R,U,y,R,u,,,,,5,19,119,5,5,0,5,0,,,,,1,4,40,31,,,,,,down,0.6505260876510874,4778.104997176148,None,001,73,2019_Oct_29_1207,ACPT_experiment_5_30_19,3.1.0,59.955027182932895,
,,,C,G,y,b,R,G,d,L,i,,,,,5,19,119,5,5,0,5,0,,,,,1,5,41,4,,,,,,up,1.284316439225222,4780.039831251088,None,001,73,2019_Oct_29_1207,ACPT_experiment_5_30_19,3.1.0,59.955027182932895,
,,,C,G,y,b,L,U,g,R,u,,,,,5,19,119,5,5,0,5,0,,,,,1,6,42,23,,,,,,up,0.6671785118014668,4782.608441188571,None,001,73,2019_Oct_29_1207,ACPT_experiment_5_30_19,3.1.0,59.955027182932895,
,,,C,G,y,b,R,D,g,L,i,,,,,5,19,119,5,5,0,5,0,,,,,1,7,43,2,,,,,,down,0.8006125237734523,4784.559929196936,None,001,73,2019_Oct_29_1207,ACPT_experiment_5_30_19,3.1.0,59.955027182932895,
,,,C,G,y,b,L,D,g,R,i,,,,,5,19,119,5,5,0,5,0,,,,,1,8,44,15,,,,,,up,1.4344345701028942,4786.644859669208,None,001,73,2019_Oct_29_1207,ACPT_experiment_5_30_19,3.1.0,59.955027182932895,
,,,C,G,y,b,R,D,g,R,i,,,,,5,19,119,5,5,0,5,0,,,,,1,9,45,3,,,,,,up,0.6671754932540352,4789.363578078217,None,001,73,2019_Oct_29_1207,ACPT_experiment_5_30_19,3.1.0,59.955027182932895,
,,,C,G,y,b,R,G,d,R,i,,,,,5,19,119,5,5,0,5,0,,,,,1,10,46,5,,,,,,up,0.5003847139523714,4791.315057634647,None,001,73,2019_Oct_29_1207,ACPT_experiment_5_30_19,3.1.0,59.955027182932895,
,,,C,G,y,b,R,G,y,L,y,,,,,5,19,119,5,5,0,5,0,,,,,1,11,47,28,,,,,,down,2.701960939384662,4793.083046596421,None,001,73,2019_Oct_29_1207,ACPT_experiment_5_30_19,3.1.0,59.955027182932895,
,,,C,G,y,b,R,U,g,L,u,,,,,5,19,119,5,5,0,5,0,,,,,1,12,48,10,,,,,,up,0.9340468376030913,4797.069429020501,None,001,73,2019_Oct_29_1207,ACPT_experiment_5_30_19,3.1.0,59.955027182932895,
,,,C,G,y,b,R,G,g,R,c ,,,,,5,19,119,5,5,0,5,0,,,,,1,13,49,7,,,,,,up,1.1341753673805215,4799.287803465957,None,001,73,2019_Oct_29_1207,ACPT_experiment_5_30_19,3.1.0,59.955027182932895,
,,,C,G,y,b,R,G,y,R,y,,,,,5,19,119,5,5,0,5,0,,,,,1,14,50,29,,,,,,down,1.5846034125897859,4801.689583383013,None,001,73,2019_Oct_29_1207,ACPT_experiment_5_30_19,3.1.0,59.955027182932895,
,,,C,G,y,b,R,U,y,L,u,,,,,5,19,119,5,5,0,5,0,,,,,1,15,51,30,,,,,,down,1.2843291171247984,4804.54177323399,None,001,73,2019_Oct_29_1207,ACPT_experiment_5_30_19,3.1.0,59.955027182932895,
,,,C,G,y,b,L,U,y,L,u,,,,,5,19,119,5,5,0,5,0,,,,,1,16,52,24,,,,,,down,1.0172452669921768,4807.127229990119,None,001,73,2019_Oct_29_1207,ACPT_experiment_5_30_19,3.1.0,59.955027182932895,
,,,C,G,y,b,L,D,y,L,y,,,,,5,19,119,5,5,0,5,0,,,,,1,17,53,32,,,,,,down,1.5178129049563722,4809.445501774755,None,001,73,2019_Oct_29_1207,ACPT_experiment_5_30_19,3.1.0,59.955027182932895,
,,,C,G,y,b,L,G,g,R,c ,,,,,5,19,119,5,5,0,5,0,,,,,1,18,54,19,,,,,,up,2.1183068601621926,4812.247596405634,None,001,73,2019_Oct_29_1207,ACPT_experiment_5_30_19,3.1.0,59.955027182932895,
,,,C,G,y,b,L,G,y,L,y,,,,,5,19,119,5,5,0,5,0,,,,,1,19,55,34,,,,,,down,6.304811173215057,4815.6502046122805,None,001,73,2019_Oct_29_1207,ACPT_experiment_5_30_19,3.1.0,59.955027182932895,
,,,C,G,y,b,R,U,d,R,u,,,,,5,19,119,5,5,0,5,0,,,,,1,20,56,9,,,,,,down,1.2175875099710538,4823.239309283756,None,001,73,2019_Oct_29_1207,ACPT_experiment_5_30_19,3.1.0,59.955027182932895,
,,,C,G,y,b,L,G,g,L,c ,,,,,5,19,119,5,5,0,5,0,,,,,1,21,57,18,,,,,,up,1.7346566446831275,4825.741196932793,None,001,73,2019_Oct_29_1207,ACPT_experiment_5_30_19,3.1.0,59.955027182932895,
,,,C,G,y,b,L,G,y,R,y,,,,,5,19,119,5,5,0,5,0,,,,,1,22,58,35,,,,,,down,3.3525543406576617,4828.760163375895,None,001,73,2019_Oct_29_1207,ACPT_experiment_5_30_19,3.1.0,59.955027182932895,
,,,C,G,y,b,L,G,d,R,i,,,,,5,19,119,5,5,0,5,0,,,,,1,23,59,17,,,,,,down,1.734680189360006,4833.396993405377,None,001,73,2019_Oct_29_1207,ACPT_experiment_5_30_19,3.1.0,59.955027182932895,
,,,C,G,y,b,L,D,d,R,c ,,,,,5,19,119,5,5,0,5,0,,,,,1,24,60,13,,,,,,up,0.6671751913982007,4836.415977054205,None,001,73,2019_Oct_29_1207,ACPT_experiment_5_30_19,3.1.0,59.955027182932895,
,,,C,G,y,b,R,D,d,L,c,,,,,5,19,119,5,5,0,5,0,,,,,1,25,61,0,,,,,,up,0.8339750263439782,4838.367458723618,None,001,73,2019_Oct_29_1207,ACPT_experiment_5_30_19,3.1.0,59.955027182932895,
,,,C,G,y,b,L,U,d,R,u,,,,,5,19,119,5,5,0,5,0,,,,,1,26,62,21,,,,,,up,0.9173953190165776,4840.485709136934,None,001,73,2019_Oct_29_1207,ACPT_experiment_5_30_19,3.1.0,59.955027182932895,
,,,C,G,y,b,L,G,d,L,i,,,,,5,19,119,5,5,0,5,0,,,,,1,27,63,16,,,,,,up,3.2191209323937073,4842.687405802433,None,001,73,2019_Oct_29_1207,ACPT_experiment_5_30_19,3.1.0,59.955027182932895,
