facing_vig,person_vig,text_vig,facing_train,person_train,food_train,correct_key_train,facing_exp,person_exp,food_exp,showL_R,consistent,vig_random.thisRepN,vig_random.thisTrialN,vig_random.thisN,vig_random.thisIndex,trainTrials.thisRepN,trainTrials.thisTrialN,trainTrials.thisN,trainTrials.thisIndex,expBlock.thisRepN,expBlock.thisTrialN,expBlock.thisN,expBlock.thisIndex,breakLoop.thisRepN,breakLoop.thisTrialN,breakLoop.thisN,breakLoop.thisIndex,expTrials.thisRepN,expTrials.thisTrialN,expTrials.thisN,expTrials.thisIndex,train_resp.keys,train_resp.corr,train_resp.rt,train_resp.started,train_resp.stopped,exp_resp.keys,exp_resp.rt,exp_resp.started,exp_resp.stopped,session,participant,date,expName,psychopyVersion,frameRate,
C,U,"did not report her food preferences, so her food preferences are unknown.",,,,,,,,,,0,0,0,2,,,,,,,,,,,,,,,,,,,,,,,,,,001,74,2019_Oct_29_1401,ACPT_experiment_5_30_19,3.1.0,59.93843053025092,
C,D,"is allergic to gluten, meaning she can’t eat wheat products. She enjoys eating dairy products. She thinks eating insects, like crickets, is disgusting.",,,,,,,,,,0,1,1,1,,,,,,,,,,,,,,,,,,,,,,,,,,001,74,2019_Oct_29_1401,ACPT_experiment_5_30_19,3.1.0,59.93843053025092,
C,G,"cannot eat dairy products because she is lactose intolerant. She enjoys eating wheat products. She thinks eating insects, like crickets, is disgusting.",,,,,,,,,,0,2,2,0,,,,,,,,,,,,,,,,,,,,,,,,,,001,74,2019_Oct_29_1401,ACPT_experiment_5_30_19,3.1.0,59.93843053025092,
,,,C,D,d,v,,,,,,,,,,0,0,0,9,,,,,,,,,,,,,v,1,11.475437319699267,923.0969572733593,None,,,,,001,74,2019_Oct_29_1401,ACPT_experiment_5_30_19,3.1.0,59.93843053025092,
,,,C,U,g,n,,,,,,,,,,0,1,1,7,,,,,,,,,,,,,n,1,1.1842434205464087,937.858196761641,None,,,,,001,74,2019_Oct_29_1401,ACPT_experiment_5_30_19,3.1.0,59.93843053025092,
,,,C,D,d,v,,,,,,,,,,0,2,2,0,,,,,,,,,,,,,v,1,1.4010799157586007,942.32825834908,None,,,,,001,74,2019_Oct_29_1401,ACPT_experiment_5_30_19,3.1.0,59.93843053025092,
,,,C,G,y,b,,,,,,,,,,0,3,3,5,,,,,,,,,,,,,b,1,1.734682906051603,947.0151573372932,None,,,,,001,74,2019_Oct_29_1401,ACPT_experiment_5_30_19,3.1.0,59.93843053025092,
,,,C,G,d,b,,,,,,,,,,0,4,4,12,,,,,,,,,,,,,b,1,7.856001371626917,952.0189646319741,None,,,,,001,74,2019_Oct_29_1401,ACPT_experiment_5_30_19,3.1.0,59.93843053025092,
,,,C,U,y,n,,,,,,,,,,0,5,5,8,,,,,,,,,,,,,n,1,0.9840922516559658,963.1607702851725,None,,,,,001,74,2019_Oct_29_1401,ACPT_experiment_5_30_19,3.1.0,59.93843053025092,
,,,C,G,g,v,,,,,,,,,,0,6,6,19,,,,,,,,,,,,,v,1,5.68726181769307,967.4477445559751,None,,,,,001,74,2019_Oct_29_1401,ACPT_experiment_5_30_19,3.1.0,59.93843053025092,
,,,C,U,d,n,,,,,,,,,,0,7,7,15,,,,,,,,,,,,,n,1,1.2676579779799795,976.4208360110388,None,,,,,001,74,2019_Oct_29_1401,ACPT_experiment_5_30_19,3.1.0,59.93843053025092,
,,,C,G,g,v,,,,,,,,,,0,8,8,4,,,,,,,,,,,,,v,1,1.534252823323186,980.9912498328486,None,,,,,001,74,2019_Oct_29_1401,ACPT_experiment_5_30_19,3.1.0,59.93843053025092,
,,,C,D,g,b,,,,,,,,,,0,9,9,1,,,,,,,,,,,,,b,1,1.317671395423531,985.811332897254,None,,,,,001,74,2019_Oct_29_1401,ACPT_experiment_5_30_19,3.1.0,59.93843053025092,
,,,C,D,y,b,,,,,,,,,,0,10,10,11,,,,,,,,,,,,,n,0,0.8337392777393688,990.4317607402227,None,,,,,001,74,2019_Oct_29_1401,ACPT_experiment_5_30_19,3.1.0,59.93843053025092,
,,,C,G,g,v,,,,,,,,,,0,11,11,13,,,,,,,,,,,,,v,1,1.3343606458583963,994.5513130533182,None,,,,,001,74,2019_Oct_29_1401,ACPT_experiment_5_30_19,3.1.0,59.93843053025092,
,,,C,U,d,n,,,,,,,,,,0,12,12,6,,,,,,,,,,,,,n,1,1.2673666880873498,999.1884491635756,None,,,,,001,74,2019_Oct_29_1401,ACPT_experiment_5_30_19,3.1.0,59.93843053025092,
,,,C,G,y,b,,,,,,,,,,0,13,13,14,,,,,,,,,,,,,b,1,1.2843227781741007,1003.7416349241175,None,,,,,001,74,2019_Oct_29_1401,ACPT_experiment_5_30_19,3.1.0,59.93843053025092,
,,,C,D,d,v,,,,,,,,,,0,14,14,18,,,,,,,,,,,,,v,1,8.10617652288056,1008.3117764728922,None,,,,,001,74,2019_Oct_29_1401,ACPT_experiment_5_30_19,3.1.0,59.93843053025092,
,,,C,G,d,b,,,,,,,,,,0,15,15,3,,,,,,,,,,,,,b,1,1.0674781328816607,1019.7037747849208,None,,,,,001,74,2019_Oct_29_1401,ACPT_experiment_5_30_19,3.1.0,59.93843053025092,
,,,C,D,y,b,,,,,,,,,,0,16,16,2,,,,,,,,,,,,,b,1,1.7346436649277166,1024.0904507929881,None,,,,,001,74,2019_Oct_29_1401,ACPT_experiment_5_30_19,3.1.0,59.93843053025092,
,,,C,U,g,n,,,,,,,,,,0,17,17,16,,,,,,,,,,,,,n,1,1.267641979669861,1029.1109213785967,None,,,,,001,74,2019_Oct_29_1401,ACPT_experiment_5_30_19,3.1.0,59.93843053025092,
,,,C,U,y,n,,,,,,,,,,0,18,18,17,,,,,,,,,,,,,n,1,1.2808517497469438,1033.684497733222,None,,,,,001,74,2019_Oct_29_1401,ACPT_experiment_5_30_19,3.1.0,59.93843053025092,
,,,C,D,g,b,,,,,,,,,,0,19,19,10,,,,,,,,,,,,,b,1,4.803649786845199,1038.2512207763066,None,,,,,001,74,2019_Oct_29_1401,ACPT_experiment_5_30_19,3.1.0,59.93843053025092,
,,,C,D,g,b,,,,,,,,,,1,0,20,1,,,,,,,,,,,,,b,1,1.0674868866735778,1046.3240154779087,None,,,,,001,74,2019_Oct_29_1401,ACPT_experiment_5_30_19,3.1.0,59.93843053025092,
,,,C,U,d,n,,,,,,,,,,1,1,21,15,,,,,,,,,,,,,n,1,1.0838963177047845,1050.6942739048645,None,,,,,001,74,2019_Oct_29_1401,ACPT_experiment_5_30_19,3.1.0,59.93843053025092,
,,,C,G,d,b,,,,,,,,,,1,2,22,12,,,,,,,,,,,,,b,1,2.034895623135526,1055.063989596878,None,,,,,001,74,2019_Oct_29_1401,ACPT_experiment_5_30_19,3.1.0,59.93843053025092,
,,,C,D,d,v,,,,,,,,,,1,3,23,9,,,,,,,,,,,,,v,1,1.3343558161832334,1060.3847085184352,None,,,,,001,74,2019_Oct_29_1401,ACPT_experiment_5_30_19,3.1.0,59.93843053025092,
,,,C,U,y,n,,,,,,,,,,1,4,24,8,,,,,,,,,,,,,n,1,0.7505680152862624,1065.0048981979562,None,,,,,001,74,2019_Oct_29_1401,ACPT_experiment_5_30_19,3.1.0,59.93843053025092,
,,,C,G,g,v,,,,,,,,,,1,5,25,4,,,,,,,,,,,,,v,1,2.8855414867757645,1069.0412828708577,None,,,,,001,74,2019_Oct_29_1401,ACPT_experiment_5_30_19,3.1.0,59.93843053025092,
,,,C,D,y,b,,,,,,,,,,1,6,26,2,,,,,,,,,,,,,b,1,2.401836665761948,1075.2126382985552,None,,,,,001,74,2019_Oct_29_1401,ACPT_experiment_5_30_19,3.1.0,59.93843053025092,
,,,C,G,y,b,,,,,,,,,,1,7,27,14,,,,,,,,,,,,,b,1,1.851426460169023,1080.9002973571733,None,,,,,001,74,2019_Oct_29_1401,ACPT_experiment_5_30_19,3.1.0,59.93843053025092,
,,,C,U,g,n,,,,,,,,,,1,8,28,16,,,,,,,,,,,,,n,1,1.768014015720837,1086.0375407768115,None,,,,,001,74,2019_Oct_29_1401,ACPT_experiment_5_30_19,3.1.0,59.93843053025092,
,,,C,U,y,n,,,,,,,,,,1,9,29,17,,,,,,,,,,,,,n,1,1.0341219692636514,1091.0913820150672,None,,,,,001,74,2019_Oct_29_1401,ACPT_experiment_5_30_19,3.1.0,59.93843053025092,
,,,C,D,d,v,,,,,,,,,,1,10,30,18,,,,,,,,,,,,,v,1,3.285850767209922,1095.4113278864643,None,,,,,001,74,2019_Oct_29_1401,ACPT_experiment_5_30_19,3.1.0,59.93843053025092,
,,,C,G,d,b,,,,,,,,,,1,11,31,3,,,,,,,,,,,,,b,1,1.0675068090895365,1101.9829901797602,None,,,,,001,74,2019_Oct_29_1401,ACPT_experiment_5_30_19,3.1.0,59.93843053025092,
,,,C,G,g,v,,,,,,,,,,1,12,32,13,,,,,,,,,,,,,b,0,1.5175451597424399,1106.353264303165,None,,,,,001,74,2019_Oct_29_1401,ACPT_experiment_5_30_19,3.1.0,59.93843053025092,
,,,C,U,d,n,,,,,,,,,,1,13,33,6,,,,,,,,,,,,,n,1,1.467799185655167,1111.1566351761685,None,,,,,001,74,2019_Oct_29_1401,ACPT_experiment_5_30_19,3.1.0,59.93843053025092,
,,,C,G,y,b,,,,,,,,,,1,14,34,5,,,,,,,,,,,,,b,1,1.5345570929712267,1115.910245284198,None,,,,,001,74,2019_Oct_29_1401,ACPT_experiment_5_30_19,3.1.0,59.93843053025092,
,,,C,U,g,n,,,,,,,,,,1,15,35,7,,,,,,,,,,,,,n,1,1.451100275866338,1120.7305915659963,None,,,,,001,74,2019_Oct_29_1401,ACPT_experiment_5_30_19,3.1.0,59.93843053025092,
,,,C,D,y,b,,,,,,,,,,1,16,36,11,,,,,,,,,,,,,b,1,1.167344381017756,1125.4844289706962,None,,,,,001,74,2019_Oct_29_1401,ACPT_experiment_5_30_19,3.1.0,59.93843053025092,
,,,C,G,g,v,,,,,,,,,,1,17,37,19,,,,,,,,,,,,,v,1,2.1182857303283527,1129.9375776332854,None,,,,,001,74,2019_Oct_29_1401,ACPT_experiment_5_30_19,3.1.0,59.93843053025092,
,,,C,D,g,b,,,,,,,,,,1,18,38,10,,,,,,,,,,,,,b,1,1.100864180127246,1135.341690586145,None,,,,,001,74,2019_Oct_29_1401,ACPT_experiment_5_30_19,3.1.0,59.93843053025092,
,,,C,D,d,v,,,,,,,,,,1,19,39,0,,,,,,,,,,,,,v,1,2.5349993102609005,1139.7453063841385,None,,,,,001,74,2019_Oct_29_1401,ACPT_experiment_5_30_19,3.1.0,59.93843053025092,
,,,C,D,d,v,,,,,,,,,,2,0,40,18,,,,,,,,,,,,,v,1,1.3343878127925564,1145.5661326150803,None,,,,,001,74,2019_Oct_29_1401,ACPT_experiment_5_30_19,3.1.0,59.93843053025092,
,,,C,U,d,n,,,,,,,,,,2,1,41,15,,,,,,,,,,,,,n,1,1.1506035134079866,1150.2032629900968,None,,,,,001,74,2019_Oct_29_1401,ACPT_experiment_5_30_19,3.1.0,59.93843053025092,
,,,C,D,d,v,,,,,,,,,,2,2,42,9,,,,,,,,,,,,,v,1,3.285834467049426,1154.6396904056382,None,,,,,001,74,2019_Oct_29_1401,ACPT_experiment_5_30_19,3.1.0,59.93843053025092,
,,,C,U,y,n,,,,,,,,,,2,3,43,17,,,,,,,,,,,,,n,1,1.6345866445553838,1161.2113469636897,None,,,,,001,74,2019_Oct_29_1401,ACPT_experiment_5_30_19,3.1.0,59.93843053025092,
,,,C,D,g,b,,,,,,,,,,2,4,44,1,,,,,,,,,,,,,b,1,4.0530926383326005,1166.1317550955355,None,,,,,001,74,2019_Oct_29_1401,ACPT_experiment_5_30_19,3.1.0,59.93843053025092,
,,,C,U,y,n,,,,,,,,,,2,5,45,8,,,,,,,,,,,,,n,1,1.0674657568379189,1173.4706828046292,None,,,,,001,74,2019_Oct_29_1401,ACPT_experiment_5_30_19,3.1.0,59.93843053025092,
,,,C,G,g,v,,,,,,,,,,2,6,46,4,,,,,,,,,,,,,v,1,1.3339416713897663,1177.857713492096,None,,,,,001,74,2019_Oct_29_1401,ACPT_experiment_5_30_19,3.1.0,59.93843053025092,
,,,C,G,d,b,,,,,,,,,,2,7,47,3,,,,,,,,,,,,,b,1,1.6846344734476588,1182.4608305655784,None,,,,,001,74,2019_Oct_29_1401,ACPT_experiment_5_30_19,3.1.0,59.93843053025092,
,,,C,G,y,b,,,,,,,,,,2,8,48,5,,,,,,,,,,,,,b,1,1.0007688241930737,1187.4146015018487,None,,,,,001,74,2019_Oct_29_1401,ACPT_experiment_5_30_19,3.1.0,59.93843053025092,
,,,C,U,d,n,,,,,,,,,,2,9,49,6,,,,,,,,,,,,,n,1,0.6169024806695234,1191.7181146993935,None,,,,,001,74,2019_Oct_29_1401,ACPT_experiment_5_30_19,3.1.0,59.93843053025092,
,,,C,G,d,b,,,,,,,,,,2,10,50,12,,,,,,,,,,,,,v,0,3.586068313969008,1195.6208329321198,None,,,,,001,74,2019_Oct_29_1401,ACPT_experiment_5_30_19,3.1.0,59.93843053025092,
,,,C,G,y,b,,,,,,,,,,2,11,51,14,,,,,,,,,,,,,b,1,1.0341289119241992,1202.4927269593463,None,,,,,001,74,2019_Oct_29_1401,ACPT_experiment_5_30_19,3.1.0,59.93843053025092,
,,,C,D,g,b,,,,,,,,,,2,12,52,10,,,,,,,,,,,,,b,1,2.1850031890971877,1206.812674340017,None,,,,,001,74,2019_Oct_29_1401,ACPT_experiment_5_30_19,3.1.0,59.93843053025092,
,,,C,D,y,b,,,,,,,,,,2,13,53,11,,,,,,,,,,,,,b,1,0.917365737244836,1212.283500525682,None,,,,,001,74,2019_Oct_29_1401,ACPT_experiment_5_30_19,3.1.0,59.93843053025092,
,,,C,U,g,n,,,,,,,,,,2,14,54,7,,,,,,,,,,,,,n,1,1.0673275073349942,1216.5202035950315,None,,,,,001,74,2019_Oct_29_1401,ACPT_experiment_5_30_19,3.1.0,59.93843053025092,
,,,C,G,g,v,,,,,,,,,,2,15,55,13,,,,,,,,,,,,,v,1,7.705867846154433,1220.8733592304634,None,,,,,001,74,2019_Oct_29_1401,ACPT_experiment_5_30_19,3.1.0,59.93843053025092,
,,,C,D,y,b,,,,,,,,,,2,16,56,2,,,,,,,,,,,,,b,1,1.9514861972347717,1231.8650461490724,None,,,,,001,74,2019_Oct_29_1401,ACPT_experiment_5_30_19,3.1.0,59.93843053025092,
,,,C,D,d,v,,,,,,,,,,2,17,57,0,,,,,,,,,,,,,v,1,2.1016034225503972,1237.0856775629218,None,,,,,001,74,2019_Oct_29_1401,ACPT_experiment_5_30_19,3.1.0,59.93843053025092,
,,,C,G,g,v,,,,,,,,,,2,18,58,19,,,,,,,,,,,,,v,1,2.168329936961527,1242.4731033783282,None,,,,,001,74,2019_Oct_29_1401,ACPT_experiment_5_30_19,3.1.0,59.93843053025092,
,,,C,U,g,n,,,,,,,,,,2,19,59,16,,,,,,,,,,,,,n,1,0.9674105475896795,1247.9272511803283,None,,,,,001,74,2019_Oct_29_1401,ACPT_experiment_5_30_19,3.1.0,59.93843053025092,
,,,C,U,g,n,,,,,,,,,,3,0,60,16,,,,,,,,,,,,,n,1,0.8170231622243591,1252.1807560919588,None,,,,,001,74,2019_Oct_29_1401,ACPT_experiment_5_30_19,3.1.0,59.93843053025092,
,,,C,D,d,v,,,,,,,,,,3,1,61,18,,,,,,,,,,,,,v,1,1.851421630490222,1256.2836016470428,None,,,,,001,74,2019_Oct_29_1401,ACPT_experiment_5_30_19,3.1.0,59.93843053025092,
,,,C,D,y,b,,,,,,,,,,3,2,62,11,,,,,,,,,,,,,b,1,1.4177586012774555,1261.4208341999074,None,,,,,001,74,2019_Oct_29_1401,ACPT_experiment_5_30_19,3.1.0,59.93843053025092,
,,,C,U,y,n,,,,,,,,,,3,3,63,17,,,,,,,,,,,,,n,1,1.5978916649146413,1266.177784935091,None,,,,,001,74,2019_Oct_29_1401,ACPT_experiment_5_30_19,3.1.0,59.93843053025092,
,,,C,G,y,b,,,,,,,,,,3,4,64,5,,,,,,,,,,,,,b,1,1.1175253580659046,1271.0615017095552,None,,,,,001,74,2019_Oct_29_1401,ACPT_experiment_5_30_19,3.1.0,59.93843053025092,
,,,C,G,g,v,,,,,,,,,,3,5,65,4,,,,,,,,,,,,,v,1,1.848084625598858,1275.4848554915407,None,,,,,001,74,2019_Oct_29_1401,ACPT_experiment_5_30_19,3.1.0,59.93843053025092,
,,,C,U,y,n,,,,,,,,,,3,6,66,8,,,,,,,,,,,,,n,1,0.8840062532217416,1280.6187625099956,None,,,,,001,74,2019_Oct_29_1401,ACPT_experiment_5_30_19,3.1.0,59.93843053025092,
,,,C,D,g,b,,,,,,,,,,3,7,67,10,,,,,,,,,,,,,b,1,2.1847426883978187,1284.8222069148287,None,,,,,001,74,2019_Oct_29_1401,ACPT_experiment_5_30_19,3.1.0,59.93843053025092,
,,,C,D,g,b,,,,,,,,,,3,8,68,1,,,,,,,,,,,,,b,1,0.9840928553712729,1290.2760993476622,None,,,,,001,74,2019_Oct_29_1401,ACPT_experiment_5_30_19,3.1.0,59.93843053025092,
,,,C,G,d,b,,,,,,,,,,3,9,69,3,,,,,,,,,,,,,b,1,1.6178931681497488,1294.5627023370507,None,,,,,001,74,2019_Oct_29_1401,ACPT_experiment_5_30_19,3.1.0,59.93843053025092,
,,,C,D,y,b,,,,,,,,,,3,10,70,2,,,,,,,,,,,,,b,1,1.9848468886775663,1299.483096281725,None,,,,,001,74,2019_Oct_29_1401,ACPT_experiment_5_30_19,3.1.0,59.93843053025092,
,,,C,G,g,v,,,,,,,,,,3,11,71,13,,,,,,,,,,,,,v,1,2.318440823324636,1304.7537709966455,None,,,,,001,74,2019_Oct_29_1401,ACPT_experiment_5_30_19,3.1.0,59.93843053025092,
,,,C,U,d,n,,,,,,,,,,3,12,72,15,,,,,,,,,,,,,n,1,0.6838553861925902,1310.3580317979904,None,,,,,001,74,2019_Oct_29_1401,ACPT_experiment_5_30_19,3.1.0,59.93843053025092,
,,,C,G,d,b,,,,,,,,,,3,13,73,12,,,,,,,,,,,,,b,1,2.618673764682171,1314.3277125955865,None,,,,,001,74,2019_Oct_29_1401,ACPT_experiment_5_30_19,3.1.0,59.93843053025092,
,,,C,U,g,n,,,,,,,,,,3,14,74,7,,,,,,,,,,,,,n,1,1.2676561668486102,1320.2321945659496,None,,,,,001,74,2019_Oct_29_1401,ACPT_experiment_5_30_19,3.1.0,59.93843053025092,
,,,C,U,d,n,,,,,,,,,,3,15,75,6,,,,,,,,,,,,,n,1,0.6668679032045475,1324.7859758860286,None,,,,,001,74,2019_Oct_29_1401,ACPT_experiment_5_30_19,3.1.0,59.93843053025092,
,,,C,G,g,v,,,,,,,,,,3,16,76,19,,,,,,,,,,,,,v,1,2.301756100714556,1328.738661956122,None,,,,,001,74,2019_Oct_29_1401,ACPT_experiment_5_30_19,3.1.0,59.93843053025092,
,,,C,D,d,v,,,,,,,,,,3,17,77,0,,,,,,,,,,,,,v,1,2.3017585155503184,1334.326239845981,None,,,,,001,74,2019_Oct_29_1401,ACPT_experiment_5_30_19,3.1.0,59.93843053025092,
,,,C,D,d,v,,,,,,,,,,3,18,78,9,,,,,,,,,,,,,v,1,0.8007673752908886,1339.8969872173548,None,,,,,001,74,2019_Oct_29_1401,ACPT_experiment_5_30_19,3.1.0,59.93843053025092,
,,,C,G,y,b,,,,,,,,,,3,19,79,14,,,,,,,,,,,,,b,1,0.8337193553234101,1344.0005140587382,None,,,,,001,74,2019_Oct_29_1401,ACPT_experiment_5_30_19,3.1.0,59.93843053025092,
,,,C,G,d,b,,,,,,,,,,4,0,80,3,,,,,,,,,,,,,b,1,1.1175138875878474,1348.1200705978044,None,,,,,001,74,2019_Oct_29_1401,ACPT_experiment_5_30_19,3.1.0,59.93843053025092,
,,,C,U,g,n,,,,,,,,,,4,1,81,16,,,,,,,,,,,,,n,1,0.9504722669407784,1352.5403285568827,None,,,,,001,74,2019_Oct_29_1401,ACPT_experiment_5_30_19,3.1.0,59.93843053025092,
,,,C,D,g,b,,,,,,,,,,4,2,82,10,,,,,,,,,,,,,b,1,2.4351928293799574,1356.7766319704715,None,,,,,001,74,2019_Oct_29_1401,ACPT_experiment_5_30_19,3.1.0,59.93843053025092,
,,,C,G,y,b,,,,,,,,,,4,3,83,14,,,,,,,,,,,,,b,1,0.7339050262125966,1362.4976435704484,None,,,,,001,74,2019_Oct_29_1401,ACPT_experiment_5_30_19,3.1.0,59.93843053025092,
,,,C,G,g,v,,,,,,,,,,4,4,84,4,,,,,,,,,,,,,v,1,1.1976001939110574,1366.5373652482413,None,,,,,001,74,2019_Oct_29_1401,ACPT_experiment_5_30_19,3.1.0,59.93843053025092,
,,,C,U,y,n,,,,,,,,,,4,5,85,8,,,,,,,,,,,,,n,1,1.000767918631027,1371.0207899479938,None,,,,,001,74,2019_Oct_29_1401,ACPT_experiment_5_30_19,3.1.0,59.93843053025092,
,,,C,D,y,b,,,,,,,,,,4,6,86,11,,,,,,,,,,,,,b,1,0.8670930265179777,1375.3243028436846,None,,,,,001,74,2019_Oct_29_1401,ACPT_experiment_5_30_19,3.1.0,59.93843053025092,
,,,C,G,g,v,,,,,,,,,,4,7,87,19,,,,,,,,,,,,,v,1,1.5345368686976144,1379.4771935109675,None,,,,,001,74,2019_Oct_29_1401,ACPT_experiment_5_30_19,3.1.0,59.93843053025092,
,,,C,U,g,n,,,,,,,,,,4,8,88,7,,,,,,,,,,,,,n,1,1.3009966340141546,1384.2975470372803,None,,,,,001,74,2019_Oct_29_1401,ACPT_experiment_5_30_19,3.1.0,59.93843053025092,
,,,C,U,d,n,,,,,,,,,,4,9,89,6,,,,,,,,,,,,,n,1,0.8837641656682536,1388.901311589325,None,,,,,001,74,2019_Oct_29_1401,ACPT_experiment_5_30_19,3.1.0,59.93843053025092,
,,,C,G,d,b,,,,,,,,,,4,10,90,12,,,,,,,,,,,,,b,1,1.7013056125979347,1393.070870377207,None,,,,,001,74,2019_Oct_29_1401,ACPT_experiment_5_30_19,3.1.0,59.93843053025092,
,,,C,D,d,v,,,,,,,,,,4,11,91,18,,,,,,,,,,,,,v,1,1.968170014286443,1398.058001401212,None,,,,,001,74,2019_Oct_29_1401,ACPT_experiment_5_30_19,3.1.0,59.93843053025092,
,,,C,U,y,n,,,,,,,,,,4,12,92,17,,,,,,,,,,,,,n,1,1.1675496422867582,1403.3119983361757,None,,,,,001,74,2019_Oct_29_1401,ACPT_experiment_5_30_19,3.1.0,59.93843053025092,
,,,C,G,y,b,,,,,,,,,,4,13,93,5,,,,,,,,,,,,,b,1,0.8806710594581091,1407.8187491680146,None,,,,,001,74,2019_Oct_29_1401,ACPT_experiment_5_30_19,3.1.0,59.93843053025092,
,,,C,D,y,b,,,,,,,,,,4,14,94,2,,,,,,,,,,,,,b,1,0.6838559899006214,1411.9852459407339,None,,,,,001,74,2019_Oct_29_1401,ACPT_experiment_5_30_19,3.1.0,59.93843053025092,
,,,C,D,d,v,,,,,,,,,,4,15,95,9,,,,,,,,,,,,,v,1,2.31844474744139,1415.93824352499,None,,,,,001,74,2019_Oct_29_1401,ACPT_experiment_5_30_19,3.1.0,59.93843053025092,
,,,C,G,g,v,,,,,,,,,,4,16,96,13,,,,,,,,,,,,,v,1,3.3525558499313775,1421.5425127782692,None,,,,,001,74,2019_Oct_29_1401,ACPT_experiment_5_30_19,3.1.0,59.93843053025092,
,,,C,U,d,n,,,,,,,,,,4,17,97,15,,,,,,,,,,,,,n,1,0.7005389013866079,1428.1808825691223,None,,,,,001,74,2019_Oct_29_1401,ACPT_experiment_5_30_19,3.1.0,59.93843053025092,
,,,C,D,g,b,,,,,,,,,,4,18,98,1,,,,,,,,,,,,,b,1,3.1690752164795413,1432.1672547301423,None,,,,,001,74,2019_Oct_29_1401,ACPT_experiment_5_30_19,3.1.0,59.93843053025092,
,,,C,D,d,v,,,,,,,,,,4,19,99,0,,,,,,,,,,,,,v,1,1.0341572862780595,1438.605448600014,None,,,,,001,74,2019_Oct_29_1401,ACPT_experiment_5_30_19,3.1.0,59.93843053025092,
,,,C,G,y,b,,,,,,,,,,5,0,100,5,,,,,,,,,,,,,b,1,0.7836999007777194,1442.9423550893189,None,,,,,001,74,2019_Oct_29_1401,ACPT_experiment_5_30_19,3.1.0,59.93843053025092,
,,,C,U,y,n,,,,,,,,,,5,1,101,17,,,,,,,,,,,,,n,1,0.3669570409292646,1447.0118574605403,None,,,,,001,74,2019_Oct_29_1401,ACPT_experiment_5_30_19,3.1.0,59.93843053025092,
,,,C,D,y,b,,,,,,,,,,5,2,102,11,,,,,,,,,,,,,b,1,1.417761016116856,1450.69800090617,None,,,,,001,74,2019_Oct_29_1401,ACPT_experiment_5_30_19,3.1.0,59.93843053025092,
,,,C,G,g,v,,,,,,,,,,5,3,103,13,,,,,,,,,,,,,v,1,1.4677889225931722,1455.4015659020006,None,,,,,001,74,2019_Oct_29_1401,ACPT_experiment_5_30_19,3.1.0,59.93843053025092,
,,,C,U,g,n,,,,,,,,,,5,4,104,16,,,,,,,,,,,,,n,1,0.9841121740755625,1460.1551751044644,None,,,,,001,74,2019_Oct_29_1401,ACPT_experiment_5_30_19,3.1.0,59.93843053025092,
,,,C,G,d,b,,,,,,,,,,5,5,105,12,,,,,,,,,,,,,b,1,1.6345784944751358,1464.4250927675312,None,,,,,001,74,2019_Oct_29_1401,ACPT_experiment_5_30_19,3.1.0,59.93843053025092,
,,,C,D,d,v,,,,,,,,,,5,6,106,18,,,,,,,,,,,,,v,1,1.0174526412447449,1469.345491240023,None,,,,,001,74,2019_Oct_29_1401,ACPT_experiment_5_30_19,3.1.0,59.93843053025092,
,,,C,D,y,b,,,,,,,,,,5,7,107,2,,,,,,,,,,,,,b,1,0.7972214868677838,1473.6688359965483,None,,,,,001,74,2019_Oct_29_1401,ACPT_experiment_5_30_19,3.1.0,59.93843053025092,
,,,C,D,g,b,,,,,,,,,,5,8,108,10,,,,,,,,,,,,,b,1,2.351818116781942,1477.7351800609213,None,,,,,001,74,2019_Oct_29_1401,ACPT_experiment_5_30_19,3.1.0,59.93843053025092,
,,,C,D,g,b,,,,,,,,,,5,9,109,1,,,,,,,,,,,,,b,1,1.167730755169032,1483.3559891465084,None,,,,,001,74,2019_Oct_29_1401,ACPT_experiment_5_30_19,3.1.0,59.93843053025092,
,,,C,G,d,b,,,,,,,,,,5,10,110,3,,,,,,,,,,,,,b,1,1.5344816292672476,1487.8262227911873,None,,,,,001,74,2019_Oct_29_1401,ACPT_experiment_5_30_19,3.1.0,59.93843053025092,
,,,C,G,g,v,,,,,,,,,,5,11,111,4,,,,,,,,,,,,,v,1,1.250956653348112,1492.6465364726646,None,,,,,001,74,2019_Oct_29_1401,ACPT_experiment_5_30_19,3.1.0,59.93843053025092,
,,,C,D,d,v,,,,,,,,,,5,12,112,9,,,,,,,,,,,,,v,1,2.4018357601962634,1497.18330917992,None,,,,,001,74,2019_Oct_29_1401,ACPT_experiment_5_30_19,3.1.0,59.93843053025092,
,,,C,U,d,n,,,,,,,,,,5,13,113,15,,,,,,,,,,,,,n,1,0.9840895349661878,1502.8709640125708,None,,,,,001,74,2019_Oct_29_1401,ACPT_experiment_5_30_19,3.1.0,59.93843053025092,
,,,C,D,d,v,,,,,,,,,,5,14,114,0,,,,,,,,,,,,,v,1,2.418521992087335,1507.1408744311193,None,,,,,001,74,2019_Oct_29_1401,ACPT_experiment_5_30_19,3.1.0,59.93843053025092,
,,,C,G,g,v,,,,,,,,,,5,15,115,19,,,,,,,,,,,,,v,1,1.2009181819521473,1512.845214288238,None,,,,,001,74,2019_Oct_29_1401,ACPT_experiment_5_30_19,3.1.0,59.93843053025092,
,,,C,U,y,n,,,,,,,,,,5,16,116,8,,,,,,,,,,,,,n,1,0.7336553922868916,1517.3488783528155,None,,,,,001,74,2019_Oct_29_1401,ACPT_experiment_5_30_19,3.1.0,59.93843053025092,
,,,C,G,y,b,,,,,,,,,,5,17,117,14,,,,,,,,,,,,,b,1,1.4844344040830038,1521.3683787770715,None,,,,,001,74,2019_Oct_29_1401,ACPT_experiment_5_30_19,3.1.0,59.93843053025092,
,,,C,U,g,n,,,,,,,,,,5,18,118,7,,,,,,,,,,,,,n,1,1.000792368868133,1526.1386204812734,None,,,,,001,74,2019_Oct_29_1401,ACPT_experiment_5_30_19,3.1.0,59.93843053025092,
,,,C,U,d,n,,,,,,,,,,5,19,119,6,0,0,0,0,0,0,0,0,,,,,n,1,1.2506870970028103,1530.4255066104706,None,,,,,001,74,2019_Oct_29_1401,ACPT_experiment_5_30_19,3.1.0,59.93843053025092,
,,,C,U,d,n,L,G,d,L,i,,,,,5,19,119,6,0,0,0,0,,,,,0,0,0,16,,,,,,up,0.917115499607462,1586.084430600713,None,001,74,2019_Oct_29_1401,ACPT_experiment_5_30_19,3.1.0,59.93843053025092,
,,,C,U,d,n,L,G,y,R,y,,,,,5,19,119,6,0,0,0,0,,,,,0,1,1,35,,,,,,down,0.7005265253428661,1588.2858613321296,None,001,74,2019_Oct_29_1401,ACPT_experiment_5_30_19,3.1.0,59.93843053025092,
,,,C,U,d,n,R,D,y,L,y,,,,,5,19,119,6,0,0,0,0,,,,,0,2,2,26,,,,,,down,0.7670520044521254,1590.2875393430004,None,001,74,2019_Oct_29_1401,ACPT_experiment_5_30_19,3.1.0,59.93843053025092,
,,,C,U,d,n,L,G,g,L,c ,,,,,5,19,119,6,0,0,0,0,,,,,0,3,3,18,,,,,,up,0.6671419873673585,1592.3556332596927,None,001,74,2019_Oct_29_1401,ACPT_experiment_5_30_19,3.1.0,59.93843053025092,
,,,C,U,d,n,L,U,y,R,u,,,,,5,19,119,6,0,0,0,0,,,,,0,4,4,25,,,,,,down,0.8172770221171959,1594.3237824459975,None,001,74,2019_Oct_29_1401,ACPT_experiment_5_30_19,3.1.0,59.93843053025092,
,,,C,U,d,n,L,D,g,R,i,,,,,5,19,119,6,0,0,0,0,,,,,0,5,5,15,,,,,,down,0.8005826401495142,1596.4420714967273,None,001,74,2019_Oct_29_1401,ACPT_experiment_5_30_19,3.1.0,59.93843053025092,
,,,C,U,d,n,R,D,g,R,i,,,,,5,19,119,6,0,0,0,0,,,,,0,6,6,3,,,,,,up,0.7505686189906555,1598.5269763113429,None,001,74,2019_Oct_29_1401,ACPT_experiment_5_30_19,3.1.0,59.93843053025092,
,,,C,U,d,n,R,U,g,L,u,,,,,5,19,119,6,0,0,0,0,,,,,0,7,7,10,,,,,,up,0.6671691543015186,1600.5451757413794,None,001,74,2019_Oct_29_1401,ACPT_experiment_5_30_19,3.1.0,59.93843053025092,
,,,C,U,d,n,L,D,d,L,c ,,,,,5,19,119,6,0,0,0,0,,,,,0,8,8,12,,,,,,up,0.7005277327589283,1602.4966592219207,None,001,74,2019_Oct_29_1401,ACPT_experiment_5_30_19,3.1.0,59.93843053025092,
,,,C,U,d,n,R,G,g,R,c ,,,,,5,19,119,6,0,0,0,0,,,,,0,9,9,7,,,,,,up,0.5504065833338245,1604.4815030920508,None,001,74,2019_Oct_29_1401,ACPT_experiment_5_30_19,3.1.0,59.93843053025092,
,,,C,U,d,n,L,D,g,L,i,,,,,5,19,119,6,0,0,0,0,,,,,0,10,10,14,,,,,,up,0.5837730100138288,1606.299548334653,None,001,74,2019_Oct_29_1401,ACPT_experiment_5_30_19,3.1.0,59.93843053025092,
,,,C,U,d,n,L,U,g,L,u,,,,,5,19,119,6,0,0,0,0,,,,,0,11,11,22,,,,,,up,0.6004471677115362,1608.1676392931658,None,001,74,2019_Oct_29_1401,ACPT_experiment_5_30_19,3.1.0,59.93843053025092,
,,,C,U,d,n,L,D,d,R,c ,,,,,5,19,119,6,0,0,0,0,,,,,0,12,12,13,,,,,,up,0.5504126204286877,1610.0524007871172,None,001,74,2019_Oct_29_1401,ACPT_experiment_5_30_19,3.1.0,59.93843053025092,
,,,C,U,d,n,R,U,y,L,u,,,,,5,19,119,6,0,0,0,0,,,,,0,13,13,30,,,,,,down,0.6838415008714946,1611.8871313560448,None,001,74,2019_Oct_29_1401,ACPT_experiment_5_30_19,3.1.0,59.93843053025092,
,,,C,U,d,n,R,G,g,L,c ,,,,,5,19,119,6,0,0,0,0,,,,,0,14,14,6,,,,,,up,0.8006019588538038,1613.8552898998496,None,001,74,2019_Oct_29_1401,ACPT_experiment_5_30_19,3.1.0,59.93843053025092,
,,,C,U,d,n,R,D,d,R,c ,,,,,5,19,119,6,0,0,0,0,,,,,0,15,15,1,,,,,,up,0.6671558726920921,1615.9402188628483,None,001,74,2019_Oct_29_1401,ACPT_experiment_5_30_19,3.1.0,59.93843053025092,
,,,C,U,d,n,R,U,y,R,u,,,,,5,19,119,6,0,0,0,0,,,,,0,16,16,31,,,,,,down,0.7005235067917965,1617.9083695584268,None,001,74,2019_Oct_29_1401,ACPT_experiment_5_30_19,3.1.0,59.93843053025092,
,,,C,U,d,n,L,D,y,R,y,,,,,5,19,119,6,0,0,0,0,,,,,0,17,17,33,,,,,,down,0.6504856391075009,1619.9098927177838,None,001,74,2019_Oct_29_1401,ACPT_experiment_5_30_19,3.1.0,59.93843053025092,
,,,C,U,d,n,R,D,y,R,y,,,,,5,19,119,6,0,0,0,0,,,,,0,18,18,27,,,,,,down,0.6004480732735828,1621.861371670504,None,001,74,2019_Oct_29_1401,ACPT_experiment_5_30_19,3.1.0,59.93843053025092,
,,,C,U,d,n,R,U,d,R,u,,,,,5,19,119,6,0,0,0,0,,,,,0,19,19,9,,,,,,up,0.7336351680169173,1623.763065709867,None,001,74,2019_Oct_29_1401,ACPT_experiment_5_30_19,3.1.0,59.93843053025092,
,,,C,U,d,n,R,G,y,L,y,,,,,5,19,119,6,0,0,0,0,,,,,0,20,20,28,,,,,,down,0.7172127572266618,1625.7810118837224,None,001,74,2019_Oct_29_1401,ACPT_experiment_5_30_19,3.1.0,59.93843053025092,
,,,C,U,d,n,L,U,g,R,u,,,,,5,19,119,6,0,0,0,0,,,,,0,21,21,23,,,,,,up,0.5837696896123816,1627.782535646791,None,001,74,2019_Oct_29_1401,ACPT_experiment_5_30_19,3.1.0,59.93843053025092,
,,,C,U,d,n,R,G,d,R,i,,,,,5,19,119,6,0,0,0,0,,,,,0,22,22,5,,,,,,up,0.5170630976135726,1629.650620870063,None,001,74,2019_Oct_29_1401,ACPT_experiment_5_30_19,3.1.0,59.93843053025092,
,,,C,U,d,n,L,G,d,R,i,,,,,5,19,119,6,0,0,0,0,,,,,0,23,23,17,,,,,,up,0.46703851153870346,1631.4519898419821,None,001,74,2019_Oct_29_1401,ACPT_experiment_5_30_19,3.1.0,59.93843053025092,
,,,C,U,d,n,R,U,g,R,u,,,,,5,19,119,6,0,0,0,0,,,,,0,24,24,11,,,,,,up,0.48370300988608506,1633.203320040655,None,001,74,2019_Oct_29_1401,ACPT_experiment_5_30_19,3.1.0,59.93843053025092,
,,,C,U,d,n,R,D,d,L,c,,,,,5,19,119,6,0,0,0,0,,,,,0,25,25,0,,,,,,up,0.9006948999522137,1634.9713337545218,None,001,74,2019_Oct_29_1401,ACPT_experiment_5_30_19,3.1.0,59.93843053025092,
,,,C,U,d,n,L,U,d,L,u,,,,,5,19,119,6,0,0,0,0,,,,,0,26,26,20,,,,,,up,0.5802829647327599,1637.1764625091819,None,001,74,2019_Oct_29_1401,ACPT_experiment_5_30_19,3.1.0,59.93843053025092,
,,,C,U,d,n,R,G,y,R,y,,,,,5,19,119,6,0,0,0,0,,,,,0,27,27,29,,,,,,down,0.6171343051646545,1639.0410920986178,None,001,74,2019_Oct_29_1401,ACPT_experiment_5_30_19,3.1.0,59.93843053025092,
,,,C,U,d,n,R,D,g,L,i,,,,,5,19,119,6,0,0,0,0,,,,,0,28,28,2,,,,,,up,0.8006067885326047,1640.959218208125,None,001,74,2019_Oct_29_1401,ACPT_experiment_5_30_19,3.1.0,59.93843053025092,
,,,C,U,d,n,L,G,y,L,y,,,,,5,19,119,6,0,0,0,0,,,,,0,29,29,34,,,,,,down,1.150865825238725,1643.0608110657558,None,001,74,2019_Oct_29_1401,ACPT_experiment_5_30_19,3.1.0,59.93843053025092,
,,,C,U,d,n,L,U,d,R,u,,,,,5,19,119,6,0,0,0,0,,,,,0,30,30,21,,,,,,up,0.6671637209146866,1645.512671110173,None,001,74,2019_Oct_29_1401,ACPT_experiment_5_30_19,3.1.0,59.93843053025092,
,,,C,U,d,n,R,G,d,L,i,,,,,5,19,119,6,0,0,0,0,,,,,0,31,31,4,,,,,,up,0.7839284048677655,1647.4641545907143,None,001,74,2019_Oct_29_1401,ACPT_experiment_5_30_19,3.1.0,59.93843053025092,
,,,C,U,d,n,R,U,d,L,u,,,,,5,19,119,6,0,0,0,0,,,,,0,32,32,8,,,,,,up,0.6171349088726856,1649.5323940014205,None,001,74,2019_Oct_29_1401,ACPT_experiment_5_30_19,3.1.0,59.93843053025092,
,,,C,U,d,n,L,U,y,L,u,,,,,5,19,119,6,0,0,0,0,,,,,0,33,33,24,,,,,,down,0.7672476063671638,1651.4338396142775,None,001,74,2019_Oct_29_1401,ACPT_experiment_5_30_19,3.1.0,59.93843053025092,
,,,C,U,d,n,L,D,y,L,y,,,,,5,19,119,6,0,0,0,0,,,,,0,34,34,32,,,,,,down,0.6004568270655,1653.4853915856766,None,001,74,2019_Oct_29_1401,ACPT_experiment_5_30_19,3.1.0,59.93843053025092,
,,,C,U,d,n,L,G,g,R,c ,,,,,5,19,119,6,0,0,0,0,,,,,0,35,35,19,,,,,,up,0.7005349772734917,1655.3701603241461,None,001,74,2019_Oct_29_1401,ACPT_experiment_5_30_19,3.1.0,59.93843053025092,
,,,C,U,d,n,R,G,g,R,c ,,,,,5,19,119,6,0,0,0,0,,,,,1,0,36,7,,,,,,up,0.6004507899669989,1657.3550044961266,None,001,74,2019_Oct_29_1401,ACPT_experiment_5_30_19,3.1.0,59.93843053025092,
,,,C,U,d,n,R,D,g,L,i,,,,,5,19,119,6,0,0,0,0,,,,,1,1,37,2,,,,,,up,0.5337306145047478,1659.239768706775,None,001,74,2019_Oct_29_1401,ACPT_experiment_5_30_19,3.1.0,59.93843053025092,
,,,C,U,d,n,L,G,y,L,y,,,,,5,19,119,6,0,0,0,0,,,,,1,2,38,34,,,,,,up,0.417033847883431,1661.0578124401,None,001,74,2019_Oct_29_1401,ACPT_experiment_5_30_19,3.1.0,59.93843053025092,
,,,C,U,d,n,L,U,g,L,u,,,,,5,19,119,6,0,0,0,0,,,,,1,3,39,22,,,,,,up,0.5501445733571018,1662.7760593519015,None,001,74,2019_Oct_29_1401,ACPT_experiment_5_30_19,3.1.0,59.93843053025092,
,,,C,U,d,n,R,G,y,R,y,,,,,5,19,119,6,0,0,0,0,,,,,1,4,40,29,,,,,,down,0.6671800210751826,1664.6105073847284,None,001,74,2019_Oct_29_1401,ACPT_experiment_5_30_19,3.1.0,59.93843053025092,
,,,C,U,d,n,R,D,y,L,y,,,,,5,19,119,6,0,0,0,0,,,,,1,5,41,26,,,,,,down,0.7005334679997759,1666.5619975060763,None,001,74,2019_Oct_29_1401,ACPT_experiment_5_30_19,3.1.0,59.93843053025092,
,,,C,U,d,n,L,G,d,R,i,,,,,5,19,119,6,0,0,0,0,,,,,1,6,42,17,,,,,,up,0.7672512286262645,1668.5468416780604,None,001,74,2019_Oct_29_1401,ACPT_experiment_5_30_19,3.1.0,59.93843053025092,
,,,C,U,d,n,R,D,y,R,y,,,,,5,19,119,6,0,0,0,0,,,,,1,7,43,27,,,,,,down,0.8673206250459771,1670.5983981772806,None,001,74,2019_Oct_29_1401,ACPT_experiment_5_30_19,3.1.0,59.93843053025092,
,,,C,U,d,n,R,U,d,R,u,,,,,5,19,119,6,0,0,0,0,,,,,1,8,44,9,,,,,,up,0.7005307513099979,1672.750030110019,None,001,74,2019_Oct_29_1401,ACPT_experiment_5_30_19,3.1.0,59.93843053025092,
,,,C,U,d,n,L,U,y,L,u,,,,,5,19,119,6,0,0,0,0,,,,,1,9,45,24,,,,,,down,0.750573750523472,1674.7515511563906,None,001,74,2019_Oct_29_1401,ACPT_experiment_5_30_19,3.1.0,59.93843053025092,
,,,C,U,d,n,L,U,d,R,u,,,,,5,19,119,6,0,0,0,0,,,,,1,10,46,21,,,,,,up,0.5003934677406505,1676.8030877331948,None,001,74,2019_Oct_29_1401,ACPT_experiment_5_30_19,3.1.0,59.93843053025092,
,,,C,U,d,n,L,U,d,L,u,,,,,5,19,119,6,0,0,0,0,,,,,1,11,47,20,,,,,,up,0.6671890767211153,1678.571099032226,None,001,74,2019_Oct_29_1401,ACPT_experiment_5_30_19,3.1.0,59.93843053025092,
,,,C,U,d,n,R,U,d,L,u,,,,,5,19,119,6,0,0,0,0,,,,,1,12,48,8,,,,,,up,0.6171581516973674,1680.5059080532155,None,001,74,2019_Oct_29_1401,ACPT_experiment_5_30_19,3.1.0,59.93843053025092,
,,,C,U,d,n,L,D,g,R,i,,,,,5,19,119,6,0,0,0,0,,,,,1,13,49,15,,,,,,up,0.630479004335939,1682.427372676888,None,001,74,2019_Oct_29_1401,ACPT_experiment_5_30_19,3.1.0,59.93843053025092,
,,,C,U,d,n,R,U,g,R,u,,,,,5,19,119,6,0,0,0,0,,,,,1,14,50,11,,,,,,up,0.5504159408301348,1684.3421705352885,None,001,74,2019_Oct_29_1401,ACPT_experiment_5_30_19,3.1.0,59.93843053025092,
,,,C,U,d,n,L,D,y,R,y,,,,,5,19,119,6,0,0,0,0,,,,,1,15,51,33,,,,,,down,0.6004483751312364,1686.1768995949424,None,001,74,2019_Oct_29_1401,ACPT_experiment_5_30_19,3.1.0,59.93843053025092,
,,,C,U,d,n,R,U,y,R,u,,,,,5,19,119,6,0,0,0,0,,,,,1,16,52,31,,,,,,down,0.6338163110849564,1688.0616616926018,None,001,74,2019_Oct_29_1401,ACPT_experiment_5_30_19,3.1.0,59.93843053025092,
,,,C,U,d,n,L,U,y,R,u,,,,,5,19,119,6,0,0,0,0,,,,,1,17,53,25,,,,,,down,0.7172040034420206,1689.996470713595,None,001,74,2019_Oct_29_1401,ACPT_experiment_5_30_19,3.1.0,59.93843053025092,
,,,C,U,d,n,L,G,y,R,y,,,,,5,19,119,6,0,0,0,0,,,,,1,18,54,35,,,,,,down,0.6338081610047084,1692.01466682323,None,001,74,2019_Oct_29_1401,ACPT_experiment_5_30_19,3.1.0,59.93843053025092,
,,,C,U,d,n,L,G,d,L,i,,,,,5,19,119,6,0,0,0,0,,,,,1,19,55,16,,,,,,up,0.5504111111549719,1693.932791121606,None,001,74,2019_Oct_29_1401,ACPT_experiment_5_30_19,3.1.0,59.93843053025092,
,,,C,U,d,n,L,D,d,R,c ,,,,,5,19,119,6,0,0,0,0,,,,,1,20,56,13,,,,,,up,0.46674269382856437,1695.7844690268284,None,001,74,2019_Oct_29_1401,ACPT_experiment_5_30_19,3.1.0,59.93843053025092,
,,,C,U,d,n,R,G,d,L,i,,,,,5,19,119,6,0,0,0,0,,,,,1,21,57,4,,,,,,up,0.7672479082248174,1697.5355242357728,None,001,74,2019_Oct_29_1401,ACPT_experiment_5_30_19,3.1.0,59.93843053025092,
,,,C,U,d,n,L,D,y,L,y,,,,,5,19,119,6,0,0,0,0,,,,,1,22,58,32,,,,,,down,0.8339704985228309,1699.58708496096,None,001,74,2019_Oct_29_1401,ACPT_experiment_5_30_19,3.1.0,59.93843053025092,
,,,C,U,d,n,R,G,y,L,y,,,,,5,19,119,6,0,0,0,0,,,,,1,23,59,28,,,,,,down,0.6671622116409708,1701.7220391137416,None,001,74,2019_Oct_29_1401,ACPT_experiment_5_30_19,3.1.0,59.93843053025092,
,,,C,U,d,n,R,U,g,L,u,,,,,5,19,119,6,0,0,0,0,,,,,1,24,60,10,,,,,,up,0.5837633506635029,1703.6902030909332,None,001,74,2019_Oct_29_1401,ACPT_experiment_5_30_19,3.1.0,59.93843053025092,
,,,C,U,d,n,L,G,g,L,c ,,,,,5,19,119,6,0,0,0,0,,,,,1,25,61,18,,,,,,up,0.5670928152212582,1705.558288012351,None,001,74,2019_Oct_29_1401,ACPT_experiment_5_30_19,3.1.0,59.93843053025092,
,,,C,U,d,n,R,D,d,L,c,,,,,5,19,119,6,0,0,0,0,,,,,1,26,62,0,,,,,,up,0.5504126204286877,1707.4096954556662,None,001,74,2019_Oct_29_1401,ACPT_experiment_5_30_19,3.1.0,59.93843053025092,
,,,C,U,d,n,R,G,g,L,c ,,,,,5,19,119,6,0,0,0,0,,,,,1,27,63,6,,,,,,up,0.5837705951744283,1709.2444217986267,None,001,74,2019_Oct_29_1401,ACPT_experiment_5_30_19,3.1.0,59.93843053025092,
,,,C,U,d,n,R,D,g,R,i,,,,,5,19,119,6,0,0,0,0,,,,,1,28,64,3,,,,,,up,0.5836570977662632,1711.1125085311724,None,001,74,2019_Oct_29_1401,ACPT_experiment_5_30_19,3.1.0,59.93843053025092,
,,,C,U,d,n,L,D,d,L,c ,,,,,5,19,119,6,0,0,0,0,,,,,1,29,65,12,,,,,,up,0.6004450547261513,1712.9805970748457,None,001,74,2019_Oct_29_1401,ACPT_experiment_5_30_19,3.1.0,59.93843053025092,
,,,C,U,d,n,R,U,y,L,u,,,,,5,19,119,6,0,0,0,0,,,,,1,30,66,30,,,,,,down,0.6805213998450199,1714.8853600720358,None,001,74,2019_Oct_29_1401,ACPT_experiment_5_30_19,3.1.0,59.93843053025092,
,,,C,U,d,n,L,D,g,L,i,,,,,5,19,119,6,0,0,0,0,,,,,1,31,67,14,,,,,,up,0.6171273625041067,1716.8502009296535,None,001,74,2019_Oct_29_1401,ACPT_experiment_5_30_19,3.1.0,59.93843053025092,
,,,C,U,d,n,R,G,d,R,i,,,,,5,19,119,6,0,0,0,0,,,,,1,32,68,5,,,,,,up,0.7505649967351928,1718.7516426183975,None,001,74,2019_Oct_29_1401,ACPT_experiment_5_30_19,3.1.0,59.93843053025092,
,,,C,U,d,n,L,U,g,R,u,,,,,5,19,119,6,0,0,0,0,,,,,1,33,69,23,,,,,,up,0.5837724063057976,1720.7865231487922,None,001,74,2019_Oct_29_1401,ACPT_experiment_5_30_19,3.1.0,59.93843053025092,
,,,C,U,d,n,L,G,g,R,c ,,,,,5,19,119,6,0,0,0,0,,,,,1,34,70,19,,,,,,up,0.5337369534609024,1722.6546068627904,None,001,74,2019_Oct_29_1401,ACPT_experiment_5_30_19,3.1.0,59.93843053025092,
,,,C,U,d,n,R,D,d,R,c ,,,,,5,19,119,6,0,0,0,0,,,,,1,35,71,1,,,,,,up,0.5170455900370143,1724.4726578406335,None,001,74,2019_Oct_29_1401,ACPT_experiment_5_30_19,3.1.0,59.93843053025092,
,,,C,U,d,n,,,,,,,,,,5,19,119,6,1,0,1,0,0,0,0,0,,,,,,,,,,,,,,001,74,2019_Oct_29_1401,ACPT_experiment_5_30_19,3.1.0,59.93843053025092,
,,,C,U,d,n,L,D,g,R,i,,,,,5,19,119,6,1,0,1,0,,,,,0,0,0,15,,,,,,up,0.48037868289247854,1743.323626990772,None,001,74,2019_Oct_29_1401,ACPT_experiment_5_30_19,3.1.0,59.93843053025092,
,,,C,U,d,n,L,U,d,R,u,,,,,5,19,119,6,1,0,1,0,,,,,0,1,1,21,,,,,,up,0.4003059600327106,1745.08831154797,None,001,74,2019_Oct_29_1401,ACPT_experiment_5_30_19,3.1.0,59.93843053025092,
,,,C,U,d,n,L,D,d,L,c ,,,,,5,19,119,6,1,0,1,0,,,,,0,2,2,12,,,,,,up,0.5004529331381491,1746.7729327398083,None,001,74,2019_Oct_29_1401,ACPT_experiment_5_30_19,3.1.0,59.93843053025092,
,,,C,U,d,n,L,G,g,R,c ,,,,,5,19,119,6,1,0,1,0,,,,,0,3,3,19,,,,,,up,0.48369878391895327,1748.5576221206466,None,001,74,2019_Oct_29_1401,ACPT_experiment_5_30_19,3.1.0,59.93843053025092,
,,,C,U,d,n,R,U,g,R,u,,,,,5,19,119,6,1,0,1,0,,,,,0,4,4,11,,,,,,up,0.48342258676711936,1750.3425828689542,None,001,74,2019_Oct_29_1401,ACPT_experiment_5_30_19,3.1.0,59.93843053025092,
,,,C,U,d,n,R,U,y,R,u,,,,,5,19,119,6,1,0,1,0,,,,,0,5,5,31,,,,,,down,0.517060079069779,1752.1103164615633,None,001,74,2019_Oct_29_1401,ACPT_experiment_5_30_19,3.1.0,59.93843053025092,
,,,C,U,d,n,R,D,d,L,c,,,,,5,19,119,6,1,0,1,0,,,,,0,6,6,0,,,,,,up,0.5004034289522679,1753.911662492519,None,001,74,2019_Oct_29_1401,ACPT_experiment_5_30_19,3.1.0,59.93843053025092,
,,,C,U,d,n,R,D,y,R,y,,,,,5,19,119,6,1,0,1,0,,,,,0,7,7,27,,,,,,down,0.5670822503052477,1755.696382360693,None,001,74,2019_Oct_29_1401,ACPT_experiment_5_30_19,3.1.0,59.93843053025092,
,,,C,U,d,n,R,G,y,L,y,,,,,5,19,119,6,1,0,1,0,,,,,0,8,8,28,,,,,,down,0.7672282876592362,1757.5811520047246,None,001,74,2019_Oct_29_1401,ACPT_experiment_5_30_19,3.1.0,59.93843053025092,
,,,C,U,d,n,R,G,g,L,c ,,,,,5,19,119,6,1,0,1,0,,,,,0,9,9,6,,,,,,up,0.48372021560862777,1759.6159957088348,None,001,74,2019_Oct_29_1401,ACPT_experiment_5_30_19,3.1.0,59.93843053025092,
,,,C,U,d,n,R,D,g,L,i,,,,,5,19,119,6,1,0,1,0,,,,,0,10,10,2,,,,,,up,0.5337411794243963,1761.3673482447593,None,001,74,2019_Oct_29_1401,ACPT_experiment_5_30_19,3.1.0,59.93843053025092,
,,,C,U,d,n,R,G,d,R,i,,,,,5,19,119,6,1,0,1,0,,,,,0,11,11,5,,,,,,up,0.6671456096264592,1763.1854245784089,None,001,74,2019_Oct_29_1401,ACPT_experiment_5_30_19,3.1.0,59.93843053025092,
,,,C,U,d,n,L,U,d,L,u,,,,,5,19,119,6,1,0,1,0,,,,,0,12,12,20,,,,,,up,0.5001233076873177,1765.1538098151723,None,001,74,2019_Oct_29_1401,ACPT_experiment_5_30_19,3.1.0,59.93843053025092,
,,,C,U,d,n,L,G,d,R,i,,,,,5,19,119,6,1,0,1,0,,,,,0,13,13,17,,,,,,up,0.6004519973866991,1766.9382504676505,None,001,74,2019_Oct_29_1401,ACPT_experiment_5_30_19,3.1.0,59.93843053025092,
,,,C,U,d,n,R,G,y,R,y,,,,,5,19,119,6,1,0,1,0,,,,,0,14,14,29,,,,,,down,0.5171005276133656,1768.823016489423,None,001,74,2019_Oct_29_1401,ACPT_experiment_5_30_19,3.1.0,59.93843053025092,
,,,C,U,d,n,R,U,d,L,u,,,,,5,19,119,6,1,0,1,0,,,,,0,15,15,8,,,,,,up,0.6838469342583267,1770.6243848576341,None,001,74,2019_Oct_29_1401,ACPT_experiment_5_30_19,3.1.0,59.93843053025092,
,,,C,U,d,n,L,D,g,L,i,,,,,5,19,119,6,1,0,1,0,,,,,0,16,16,14,,,,,,up,0.530407796788495,1772.612554262174,None,001,74,2019_Oct_29_1401,ACPT_experiment_5_30_19,3.1.0,59.93843053025092,
,,,C,U,d,n,L,U,y,R,u,,,,,5,19,119,6,1,0,1,0,,,,,0,17,17,25,,,,,,down,0.5670985504621058,1774.4272694425454,None,001,74,2019_Oct_29_1401,ACPT_experiment_5_30_19,3.1.0,59.93843053025092,
,,,C,U,d,n,R,U,y,L,u,,,,,5,19,119,6,1,0,1,0,,,,,0,18,18,30,,,,,,down,0.5837745192875445,1776.2786747728787,None,001,74,2019_Oct_29_1401,ACPT_experiment_5_30_19,3.1.0,59.93843053025092,
,,,C,U,d,n,L,U,y,L,u,,,,,5,19,119,6,1,0,1,0,,,,,0,19,19,24,,,,,,up,0.583787800900609,1778.1634392853775,None,001,74,2019_Oct_29_1401,ACPT_experiment_5_30_19,3.1.0,59.93843053025092,
,,,C,U,d,n,L,G,d,L,i,,,,,5,19,119,6,1,0,1,0,,,,,0,20,20,16,,,,,,up,0.4836930486781057,1780.048210740537,None,001,74,2019_Oct_29_1401,ACPT_experiment_5_30_19,3.1.0,59.93843053025092,
,,,C,U,d,n,R,U,d,R,u,,,,,5,19,119,6,1,0,1,0,,,,,0,21,21,9,,,,,,up,0.8006016570034262,1781.8162153987614,None,001,74,2019_Oct_29_1401,ACPT_experiment_5_30_19,3.1.0,59.93843053025092,
,,,C,U,d,n,L,G,y,L,y,,,,,5,19,119,6,1,0,1,0,,,,,0,22,22,34,,,,,,down,0.5837757267072448,1783.9011331931324,None,001,74,2019_Oct_29_1401,ACPT_experiment_5_30_19,3.1.0,59.93843053025092,
,,,C,U,d,n,L,G,g,L,c ,,,,,5,19,119,6,1,0,1,0,,,,,0,23,23,18,,,,,,up,0.6835776797670405,1785.7694934061328,None,001,74,2019_Oct_29_1401,ACPT_experiment_5_30_19,3.1.0,59.93843053025092,
,,,C,U,d,n,L,G,y,R,y,,,,,5,19,119,6,1,0,1,0,,,,,0,24,24,35,,,,,,down,0.6004631660180166,1787.7206934450114,None,001,74,2019_Oct_29_1401,ACPT_experiment_5_30_19,3.1.0,59.93843053025092,
,,,C,U,d,n,L,D,y,R,y,,,,,5,19,119,6,1,0,1,0,,,,,0,25,25,33,,,,,,down,0.5003853176640405,1789.605462183481,None,001,74,2019_Oct_29_1401,ACPT_experiment_5_30_19,3.1.0,59.93843053025092,
,,,C,U,d,n,L,U,g,L,u,,,,,5,19,119,6,1,0,1,0,,,,,0,26,26,22,,,,,,up,0.6171343051646545,1791.3901585069798,None,001,74,2019_Oct_29_1401,ACPT_experiment_5_30_19,3.1.0,59.93843053025092,
,,,C,U,d,n,R,D,d,R,c ,,,,,5,19,119,6,1,0,1,0,,,,,0,27,27,1,,,,,,up,0.5170540419712779,1793.2916047235449,None,001,74,2019_Oct_29_1401,ACPT_experiment_5_30_19,3.1.0,59.93843053025092,
,,,C,U,d,n,R,G,g,R,c ,,,,,5,19,119,6,1,0,1,0,,,,,0,28,28,7,,,,,,up,0.4836978783532686,1795.0929670546611,None,001,74,2019_Oct_29_1401,ACPT_experiment_5_30_19,3.1.0,59.93843053025092,
,,,C,U,d,n,L,U,g,R,u,,,,,5,19,119,6,1,0,1,0,,,,,0,29,29,23,,,,,,up,0.43368174421266303,1796.8442803494654,None,001,74,2019_Oct_29_1401,ACPT_experiment_5_30_19,3.1.0,59.93843053025092,
,,,C,U,d,n,R,D,g,R,i,,,,,5,19,119,6,1,0,1,0,,,,,0,30,30,3,,,,,,up,0.4667698607627244,1798.5792273784718,None,001,74,2019_Oct_29_1401,ACPT_experiment_5_30_19,3.1.0,59.93843053025092,
,,,C,U,d,n,L,D,d,R,c ,,,,,5,19,119,6,1,0,1,0,,,,,0,31,31,13,,,,,,up,0.5670937207869429,1800.3302828892702,None,001,74,2019_Oct_29_1401,ACPT_experiment_5_30_19,3.1.0,59.93843053025092,
,,,C,U,d,n,R,U,g,L,u,,,,,5,19,119,6,1,0,1,0,,,,,0,32,32,10,,,,,,up,0.5504138278483879,1802.1816864084758,None,001,74,2019_Oct_29_1401,ACPT_experiment_5_30_19,3.1.0,59.93843053025092,
,,,C,U,d,n,R,D,y,L,y,,,,,5,19,119,6,1,0,1,0,,,,,0,33,33,26,,,,,,down,0.7172000793289044,1804.0164160718377,None,001,74,2019_Oct_29_1401,ACPT_experiment_5_30_19,3.1.0,59.93843053025092,
,,,C,U,d,n,L,D,y,L,y,,,,,5,19,119,6,1,0,1,0,,,,,0,34,34,32,,,,,,down,0.5337384627309802,1806.00125149003,None,001,74,2019_Oct_29_1401,ACPT_experiment_5_30_19,3.1.0,59.93843053025092,
,,,C,U,d,n,R,G,d,L,i,,,,,5,19,119,6,1,0,1,0,,,,,0,35,35,4,,,,,,up,0.5837500690504385,1807.819321182873,None,001,74,2019_Oct_29_1401,ACPT_experiment_5_30_19,3.1.0,59.93843053025092,
,,,C,U,d,n,R,U,y,L,u,,,,,5,19,119,6,1,0,1,0,,,,,1,0,36,30,,,,,,down,0.6171496997594659,1809.70405400062,None,001,74,2019_Oct_29_1401,ACPT_experiment_5_30_19,3.1.0,59.93843053025092,
,,,C,U,d,n,R,U,y,R,u,,,,,5,19,119,6,1,0,1,0,,,,,1,1,37,31,,,,,,down,0.5969924394448753,1811.659007302169,None,001,74,2019_Oct_29_1401,ACPT_experiment_5_30_19,3.1.0,59.93843053025092,
,,,C,U,d,n,R,D,d,L,c,,,,,5,19,119,6,1,0,1,0,,,,,1,2,38,0,,,,,,up,0.6171231365369749,1813.5403198030945,None,001,74,2019_Oct_29_1401,ACPT_experiment_5_30_19,3.1.0,59.93843053025092,
,,,C,U,d,n,L,G,d,R,i,,,,,5,19,119,6,1,0,1,0,,,,,1,3,39,17,,,,,,up,0.48368640787157346,1815.4417636048238,None,001,74,2019_Oct_29_1401,ACPT_experiment_5_30_19,3.1.0,59.93843053025092,
,,,C,U,d,n,L,U,y,R,u,,,,,5,19,119,6,1,0,1,0,,,,,1,4,40,25,,,,,,down,0.533734538621502,1817.2097746019972,None,001,74,2019_Oct_29_1401,ACPT_experiment_5_30_19,3.1.0,59.93843053025092,
,,,C,U,d,n,L,G,y,L,y,,,,,5,19,119,6,1,0,1,0,,,,,1,5,41,34,,,,,,down,0.5670937207869429,1819.0278216557272,None,001,74,2019_Oct_29_1401,ACPT_experiment_5_30_19,3.1.0,59.93843053025092,
,,,C,U,d,n,R,U,d,R,u,,,,,5,19,119,6,1,0,1,0,,,,,1,6,42,9,,,,,,up,0.4670747341187962,1820.8792263823525,None,001,74,2019_Oct_29_1401,ACPT_experiment_5_30_19,3.1.0,59.93843053025092,
,,,C,U,d,n,L,G,d,L,i,,,,,5,19,119,6,1,0,1,0,,,,,1,7,43,16,,,,,,up,0.7338977816980332,1822.630558392153,None,001,74,2019_Oct_29_1401,ACPT_experiment_5_30_19,3.1.0,59.93843053025092,
,,,C,U,d,n,L,D,y,L,y,,,,,5,19,119,6,1,0,1,0,,,,,1,8,44,32,,,,,,down,0.6671290076119476,1824.6821547362088,None,001,74,2019_Oct_29_1401,ACPT_experiment_5_30_19,3.1.0,59.93843053025092,
,,,C,U,d,n,L,D,g,R,i,,,,,5,19,119,6,1,0,1,0,,,,,1,9,45,15,,,,,,up,0.6504892613666016,1826.650273435178,None,001,74,2019_Oct_29_1401,ACPT_experiment_5_30_19,3.1.0,59.93843053025092,
,,,C,U,d,n,R,G,d,R,i,,,,,5,19,119,6,1,0,1,0,,,,,1,10,46,5,,,,,,up,0.9340761175189982,1828.585054987383,None,001,74,2019_Oct_29_1401,ACPT_experiment_5_30_19,3.1.0,59.93843053025092,
,,,C,U,d,n,R,D,y,L,y,,,,,5,19,119,6,1,0,1,0,,,,,1,11,47,26,,,,,,down,0.6671673431737872,1830.8034318476748,None,001,74,2019_Oct_29_1401,ACPT_experiment_5_30_19,3.1.0,59.93843053025092,
,,,C,U,d,n,L,D,y,R,y,,,,,5,19,119,6,1,0,1,0,,,,,1,12,48,33,,,,,,down,0.5667164022779616,1832.7719390337807,None,001,74,2019_Oct_29_1401,ACPT_experiment_5_30_19,3.1.0,59.93843053025092,
,,,C,U,d,n,R,G,g,L,c ,,,,,5,19,119,6,1,0,1,0,,,,,1,13,49,6,,,,,,up,0.6171321921829076,1834.6229966273786,None,001,74,2019_Oct_29_1401,ACPT_experiment_5_30_19,3.1.0,59.93843053025092,
,,,C,U,d,n,R,G,y,R,y,,,,,5,19,119,6,1,0,1,0,,,,,1,14,50,29,,,,,,down,0.5170558530990093,1836.5244425420897,None,001,74,2019_Oct_29_1401,ACPT_experiment_5_30_19,3.1.0,59.93843053025092,
,,,C,U,d,n,R,D,y,R,y,,,,,5,19,119,6,1,0,1,0,,,,,1,15,51,27,,,,,,down,0.583790517594025,1838.32580517506,None,001,74,2019_Oct_29_1401,ACPT_experiment_5_30_19,3.1.0,59.93843053025092,
,,,C,U,d,n,R,U,g,L,u,,,,,5,19,119,6,1,0,1,0,,,,,1,16,52,10,,,,,,up,0.5670940226409584,1840.1938979447004,None,001,74,2019_Oct_29_1401,ACPT_experiment_5_30_19,3.1.0,59.93843053025092,
,,,C,U,d,n,L,U,y,L,u,,,,,5,19,119,6,1,0,1,0,,,,,1,17,53,24,,,,,,down,0.6171330977449543,1842.0619858846658,None,001,74,2019_Oct_29_1401,ACPT_experiment_5_30_19,3.1.0,59.93843053025092,
,,,C,U,d,n,L,U,d,L,u,,,,,5,19,119,6,1,0,1,0,,,,,1,18,54,20,,,,,,up,0.7672334191920527,1843.9801098811877,None,001,74,2019_Oct_29_1401,ACPT_experiment_5_30_19,3.1.0,59.93843053025092,
,,,C,U,d,n,R,U,d,L,u,,,,,5,19,119,6,1,0,1,0,,,,,1,19,55,8,,,,,,up,0.5804498904399225,1846.0516660725152,None,001,74,2019_Oct_29_1401,ACPT_experiment_5_30_19,3.1.0,59.93843053025092,
,,,C,U,d,n,L,U,g,L,u,,,,,5,19,119,6,1,0,1,0,,,,,1,20,56,22,,,,,,up,0.48371629149551154,1847.9164040278301,None,001,74,2019_Oct_29_1401,ACPT_experiment_5_30_19,3.1.0,59.93843053025092,
,,,C,U,d,n,L,U,d,R,u,,,,,5,19,119,6,1,0,1,0,,,,,1,21,57,21,,,,,,up,0.6338335168111371,1849.6677360376307,None,001,74,2019_Oct_29_1401,ACPT_experiment_5_30_19,3.1.0,59.93843053025092,
,,,C,U,d,n,L,G,y,R,y,,,,,5,19,119,6,1,0,1,0,,,,,1,22,58,35,,,,,,down,0.683851462079474,1851.585885691813,None,001,74,2019_Oct_29_1401,ACPT_experiment_5_30_19,3.1.0,59.93843053025092,
,,,C,U,d,n,R,D,g,L,i,,,,,5,19,119,6,1,0,1,0,,,,,1,23,59,2,,,,,,up,0.5504147334140725,1853.5540457448878,None,001,74,2019_Oct_29_1401,ACPT_experiment_5_30_19,3.1.0,59.93843053025092,
,,,C,U,d,n,R,U,g,R,u,,,,,5,19,119,6,1,0,1,0,,,,,1,24,60,11,,,,,,up,0.4169843436939118,1855.372089780074,None,001,74,2019_Oct_29_1401,ACPT_experiment_5_30_19,3.1.0,59.93843053025092,
,,,C,U,d,n,L,U,g,R,u,,,,,5,19,119,6,1,0,1,0,,,,,1,25,61,23,,,,,,up,0.33351394312558114,1857.0734424820184,None,001,74,2019_Oct_29_1401,ACPT_experiment_5_30_19,3.1.0,59.93843053025092,
,,,C,U,d,n,L,G,g,L,c ,,,,,5,19,119,6,1,0,1,0,,,,,1,26,62,18,,,,,,up,0.5001112334975915,1858.7082301618757,None,001,74,2019_Oct_29_1401,ACPT_experiment_5_30_19,3.1.0,59.93843053025092,
,,,C,U,d,n,R,G,y,L,y,,,,,5,19,119,6,1,0,1,0,,,,,1,27,63,28,,,,,,down,0.7005274309049128,1860.4926517975,None,001,74,2019_Oct_29_1401,ACPT_experiment_5_30_19,3.1.0,59.93843053025092,
,,,C,U,d,n,L,G,g,R,c ,,,,,5,19,119,6,1,0,1,0,,,,,1,28,64,19,,,,,,up,0.8171903897891752,1862.477468500696,None,001,74,2019_Oct_29_1401,ACPT_experiment_5_30_19,3.1.0,59.93843053025092,
,,,C,U,d,n,R,G,g,R,c ,,,,,5,19,119,6,1,0,1,0,,,,,1,29,65,7,,,,,,up,0.8006037699851731,1864.5790891289726,None,001,74,2019_Oct_29_1401,ACPT_experiment_5_30_19,3.1.0,59.93843053025092,
,,,C,U,d,n,R,G,d,L,i,,,,,5,19,119,6,1,0,1,0,,,,,1,30,66,4,,,,,,up,0.5837881027546246,1866.6473043912956,None,001,74,2019_Oct_29_1401,ACPT_experiment_5_30_19,3.1.0,59.93843053025092,
,,,C,U,d,n,R,D,d,R,c ,,,,,5,19,119,6,1,0,1,0,,,,,1,31,67,1,,,,,,up,0.667262729290087,1868.4987275310596,None,001,74,2019_Oct_29_1401,ACPT_experiment_5_30_19,3.1.0,59.93843053025092,
,,,C,U,d,n,L,D,d,L,c ,,,,,5,19,119,6,1,0,1,0,,,,,1,32,68,12,,,,,,up,0.5337514424863912,1870.4335338353594,None,001,74,2019_Oct_29_1401,ACPT_experiment_5_30_19,3.1.0,59.93843053025092,
,,,C,U,d,n,L,D,d,R,c ,,,,,5,19,119,6,1,0,1,0,,,,,1,33,69,13,,,,,,up,0.5505804517015349,1872.2347485594728,None,001,74,2019_Oct_29_1401,ACPT_experiment_5_30_19,3.1.0,59.93843053025092,
,,,C,U,d,n,R,D,g,R,i,,,,,5,19,119,6,1,0,1,0,,,,,1,34,70,3,,,,,,up,0.5503923961550754,1874.0696448466915,None,001,74,2019_Oct_29_1401,ACPT_experiment_5_30_19,3.1.0,59.93843053025092,
,,,C,U,d,n,L,D,g,L,i,,,,,5,19,119,6,1,0,1,0,,,,,1,35,71,14,,,,,,up,0.5504132241367188,1875.9043654544075,None,001,74,2019_Oct_29_1401,ACPT_experiment_5_30_19,3.1.0,59.93843053025092,
,,,C,U,d,n,,,,,,,,,,5,19,119,6,2,0,2,0,0,0,0,0,,,,,,,,,,,,,,001,74,2019_Oct_29_1401,ACPT_experiment_5_30_19,3.1.0,59.93843053025092,
,,,C,U,d,n,L,G,d,R,i,,,,,5,19,119,6,2,0,2,0,,,,,0,0,0,17,,,,,,up,0.5167799578084669,1908.5627820267218,None,001,74,2019_Oct_29_1401,ACPT_experiment_5_30_19,3.1.0,59.93843053025092,
,,,C,U,d,n,R,G,d,R,i,,,,,5,19,119,6,2,0,2,0,,,,,0,1,1,5,,,,,,up,0.5670979467540747,1910.3638651421388,None,001,74,2019_Oct_29_1401,ACPT_experiment_5_30_19,3.1.0,59.93843053025092,
,,,C,U,d,n,R,G,g,R,c ,,,,,5,19,119,6,2,0,2,0,,,,,0,2,2,7,,,,,,up,0.5337589888586081,1912.1985703552637,None,001,74,2019_Oct_29_1401,ACPT_experiment_5_30_19,3.1.0,59.93843053025092,
,,,C,U,d,n,R,D,d,R,c ,,,,,5,19,119,6,2,0,2,0,,,,,0,3,3,1,,,,,,up,0.5504129222827032,1914.0166418592344,None,001,74,2019_Oct_29_1401,ACPT_experiment_5_30_19,3.1.0,59.93843053025092,
,,,C,U,d,n,R,G,g,L,c ,,,,,5,19,119,6,2,0,2,0,,,,,0,4,4,6,,,,,,up,1.25058929604711,1915.8684073023505,None,001,74,2019_Oct_29_1401,ACPT_experiment_5_30_19,3.1.0,59.93843053025092,
,,,C,U,d,n,L,G,g,R,c ,,,,,5,19,119,6,2,0,2,0,,,,,0,5,5,19,,,,,,up,0.5504138278483879,1918.4033115283491,None,001,74,2019_Oct_29_1401,ACPT_experiment_5_30_19,3.1.0,59.93843053025092,
,,,C,U,d,n,L,U,y,R,u,,,,,5,19,119,6,2,0,2,0,,,,,0,6,6,25,,,,,,down,0.6004800698865438,1920.2380094969558,None,001,74,2019_Oct_29_1401,ACPT_experiment_5_30_19,3.1.0,59.93843053025092,
,,,C,U,d,n,R,U,d,R,u,,,,,5,19,119,6,2,0,2,0,,,,,0,7,7,9,,,,,,up,0.7005564089668042,1922.1228005726807,None,001,74,2019_Oct_29_1401,ACPT_experiment_5_30_19,3.1.0,59.93843053025092,
,,,C,U,d,n,L,D,g,R,i,,,,,5,19,119,6,2,0,2,0,,,,,0,8,8,15,,,,,,up,0.5003989011274825,1924.107616068457,None,001,74,2019_Oct_29_1401,ACPT_experiment_5_30_19,3.1.0,59.93843053025092,
,,,C,U,d,n,R,D,y,R,y,,,,,5,19,119,6,2,0,2,0,,,,,0,9,9,27,,,,,,down,0.5504108093009563,1925.8923314088097,None,001,74,2019_Oct_29_1401,ACPT_experiment_5_30_19,3.1.0,59.93843053025092,
,,,C,U,d,n,L,U,d,L,u,,,,,5,19,119,6,2,0,2,0,,,,,0,10,10,20,,,,,,up,0.5504174501038506,1927.7270577517666,None,001,74,2019_Oct_29_1401,ACPT_experiment_5_30_19,3.1.0,59.93843053025092,
,,,C,U,d,n,L,D,y,R,y,,,,,5,19,119,6,2,0,2,0,,,,,0,11,11,33,,,,,,down,1.364378295311326,1929.5817852961118,None,001,74,2019_Oct_29_1401,ACPT_experiment_5_30_19,3.1.0,59.93843053025092,
,,,C,U,d,n,R,U,g,R,u,,,,,5,19,119,6,2,0,2,0,,,,,0,12,12,11,,,,,,up,0.5004019196785521,1932.230454976696,None,001,74,2019_Oct_29_1401,ACPT_experiment_5_30_19,3.1.0,59.93843053025092,
,,,C,U,d,n,L,D,g,L,i,,,,,5,19,119,6,2,0,2,0,,,,,0,13,13,14,,,,,,up,0.5337378590229491,1934.0151660910815,None,001,74,2019_Oct_29_1401,ACPT_experiment_5_30_19,3.1.0,59.93843053025092,
,,,C,U,d,n,R,D,g,R,i,,,,,5,19,119,6,2,0,2,0,,,,,0,14,14,3,,,,,,up,0.4336672551835363,1935.8332140503771,None,001,74,2019_Oct_29_1401,ACPT_experiment_5_30_19,3.1.0,59.93843053025092,
,,,C,U,d,n,L,U,g,L,u,,,,,5,19,119,6,2,0,2,0,,,,,0,15,15,22,,,,,,up,0.5504524652642431,1937.5511901984137,None,001,74,2019_Oct_29_1401,ACPT_experiment_5_30_19,3.1.0,59.93843053025092,
,,,C,U,d,n,L,G,g,L,c ,,,,,5,19,119,6,2,0,2,0,,,,,0,16,16,18,,,,,,up,0.5003768657261389,1939.3859111079873,None,001,74,2019_Oct_29_1401,ACPT_experiment_5_30_19,3.1.0,59.93843053025092,
,,,C,U,d,n,R,U,d,L,u,,,,,5,19,119,6,2,0,2,0,,,,,0,17,17,8,,,,,,up,0.5337315200704325,1941.1706044129387,None,001,74,2019_Oct_29_1401,ACPT_experiment_5_30_19,3.1.0,59.93843053025092,
,,,C,U,d,n,L,U,d,R,u,,,,,5,19,119,6,2,0,2,0,,,,,0,18,18,21,,,,,,up,0.566828390412411,1943.0055991048212,None,001,74,2019_Oct_29_1401,ACPT_experiment_5_30_19,3.1.0,59.93843053025092,
,,,C,U,d,n,R,U,g,L,u,,,,,5,19,119,6,2,0,2,0,,,,,0,19,19,10,,,,,,up,0.5504114130089874,1944.8567385010683,None,001,74,2019_Oct_29_1401,ACPT_experiment_5_30_19,3.1.0,59.93843053025092,
,,,C,U,d,n,R,U,y,R,u,,,,,5,19,119,6,2,0,2,0,,,,,0,20,20,31,,,,,,down,0.6671613060752861,1946.6914657495909,None,001,74,2019_Oct_29_1401,ACPT_experiment_5_30_19,3.1.0,59.93843053025092,
,,,C,U,d,n,L,U,g,R,u,,,,,5,19,119,6,2,0,2,0,,,,,0,21,21,23,,,,,,up,0.4503471481220913,1948.6429474190081,None,001,74,2019_Oct_29_1401,ACPT_experiment_5_30_19,3.1.0,59.93843053025092,
,,,C,U,d,n,R,G,d,L,i,,,,,5,19,119,6,2,0,2,0,,,,,0,22,22,4,,,,,,up,0.4665839182016498,1950.3946802919927,None,001,74,2019_Oct_29_1401,ACPT_experiment_5_30_19,3.1.0,59.93843053025092,
,,,C,U,d,n,R,D,d,L,c,,,,,5,19,119,6,2,0,2,0,,,,,0,23,23,0,,,,,,up,0.400294791405031,1952.145608118204,None,001,74,2019_Oct_29_1401,ACPT_experiment_5_30_19,3.1.0,59.93843053025092,
,,,C,U,d,n,R,G,y,L,y,,,,,5,19,119,6,2,0,2,0,,,,,0,24,24,28,,,,,,down,0.667168852447503,1953.830221461816,None,001,74,2019_Oct_29_1401,ACPT_experiment_5_30_19,3.1.0,59.93843053025092,
,,,C,U,d,n,R,G,y,R,y,,,,,5,19,119,6,2,0,2,0,,,,,0,25,25,29,,,,,,down,0.7172169831974315,1955.781704942361,None,001,74,2019_Oct_29_1401,ACPT_experiment_5_30_19,3.1.0,59.93843053025092,
,,,C,U,d,n,L,D,y,L,y,,,,,5,19,119,6,2,0,2,0,,,,,0,26,26,32,,,,,,down,0.5504612190525222,1957.7832196497839,None,001,74,2019_Oct_29_1401,ACPT_experiment_5_30_19,3.1.0,59.93843053025092,
,,,C,U,d,n,R,D,g,L,i,,,,,5,19,119,6,2,0,2,0,,,,,0,27,27,2,,,,,,up,0.5504017536550236,1959.617958368788,None,001,74,2019_Oct_29_1401,ACPT_experiment_5_30_19,3.1.0,59.93843053025092,
,,,C,U,d,n,L,G,y,L,y,,,,,5,19,119,6,2,0,2,0,,,,,0,28,28,34,,,,,,down,0.8339701966688153,1961.4526720338472,None,001,74,2019_Oct_29_1401,ACPT_experiment_5_30_19,3.1.0,59.93843053025092,
,,,C,U,d,n,L,D,d,R,c ,,,,,5,19,119,6,2,0,2,0,,,,,0,29,29,13,,,,,,up,0.7669997835691902,1963.587901478215,None,001,74,2019_Oct_29_1401,ACPT_experiment_5_30_19,3.1.0,59.93843053025092,
,,,C,U,d,n,L,U,y,L,u,,,,,5,19,119,6,2,0,2,0,,,,,0,30,30,24,,,,,,down,0.7505571485089604,1965.6558698233057,None,001,74,2019_Oct_29_1401,ACPT_experiment_5_30_19,3.1.0,59.93843053025092,
,,,C,U,d,n,R,D,y,L,y,,,,,5,19,119,6,2,0,2,0,,,,,0,31,31,26,,,,,,down,0.5837705951744283,1967.7074196817193,None,001,74,2019_Oct_29_1401,ACPT_experiment_5_30_19,3.1.0,59.93843053025092,
,,,C,U,d,n,R,U,y,L,u,,,,,5,19,119,6,2,0,2,0,,,,,0,32,32,30,,,,,,down,0.5170495141501306,1969.5921917405904,None,001,74,2019_Oct_29_1401,ACPT_experiment_5_30_19,3.1.0,59.93843053025092,
,,,C,U,d,n,L,G,y,R,y,,,,,5,19,119,6,2,0,2,0,,,,,0,33,33,35,,,,,,down,0.650534539585351,1971.4102442277072,None,001,74,2019_Oct_29_1401,ACPT_experiment_5_30_19,3.1.0,59.93843053025092,
,,,C,U,d,n,L,G,d,L,i,,,,,5,19,119,6,2,0,2,0,,,,,0,34,34,16,,,,,,up,0.5670961356227053,1973.345037250394,None,001,74,2019_Oct_29_1401,ACPT_experiment_5_30_19,3.1.0,59.93843053025092,
,,,C,U,d,n,L,D,d,L,c ,,,,,5,19,119,6,2,0,2,0,,,,,0,35,35,12,,,,,,up,0.5003946751639887,1975.1797497080333,None,001,74,2019_Oct_29_1401,ACPT_experiment_5_30_19,3.1.0,59.93843053025092,
,,,C,U,d,n,R,U,g,L,u,,,,,5,19,119,6,2,0,2,0,,,,,1,0,36,10,,,,,,up,0.563770299359021,1976.9844593071066,None,001,74,2019_Oct_29_1401,ACPT_experiment_5_30_19,3.1.0,59.93843053025092,
,,,C,U,d,n,L,G,y,L,y,,,,,5,19,119,6,2,0,2,0,,,,,1,1,37,34,,,,,,down,0.4836984820649377,1978.8325424234317,None,001,74,2019_Oct_29_1401,ACPT_experiment_5_30_19,3.1.0,59.93843053025092,
,,,C,U,d,n,L,G,g,L,c ,,,,,5,19,119,6,2,0,2,0,,,,,1,2,38,18,,,,,,up,0.533737255314918,1980.6005546280248,None,001,74,2019_Oct_29_1401,ACPT_experiment_5_30_19,3.1.0,59.93843053025092,
,,,C,U,d,n,R,U,d,L,u,,,,,5,19,119,6,2,0,2,0,,,,,1,3,39,8,,,,,,up,0.6171364181500394,1982.418600474335,None,001,74,2019_Oct_29_1401,ACPT_experiment_5_30_19,3.1.0,59.93843053025092,
,,,C,U,d,n,R,U,d,R,u,,,,,5,19,119,6,2,0,2,0,,,,,1,4,40,9,,,,,,up,0.5668271829927107,1984.3203141342601,None,001,74,2019_Oct_29_1401,ACPT_experiment_5_30_19,3.1.0,59.93843053025092,
,,,C,U,d,n,R,U,y,L,u,,,,,5,19,119,6,2,0,2,0,,,,,1,5,41,30,,,,,,down,0.650491676202364,1986.1547724301527,None,001,74,2019_Oct_29_1401,ACPT_experiment_5_30_19,3.1.0,59.93843053025092,
,,,C,U,d,n,R,U,y,R,u,,,,,5,19,119,6,2,0,2,0,,,,,1,6,42,31,,,,,,down,0.5337556684571609,1988.072875296839,None,001,74,2019_Oct_29_1401,ACPT_experiment_5_30_19,3.1.0,59.93843053025092,
,,,C,U,d,n,L,D,y,R,y,,,,,5,19,119,6,2,0,2,0,,,,,1,7,43,33,,,,,,down,0.7172043052923982,1989.8909480082257,None,001,74,2019_Oct_29_1401,ACPT_experiment_5_30_19,3.1.0,59.93843053025092,
,,,C,U,d,n,L,D,g,L,i,,,,,5,19,119,6,2,0,2,0,,,,,1,8,44,14,,,,,,up,0.583771500740113,1991.8924624137944,None,001,74,2019_Oct_29_1401,ACPT_experiment_5_30_19,3.1.0,59.93843053025092,
,,,C,U,d,n,L,G,d,R,i,,,,,5,19,119,6,2,0,2,0,,,,,1,9,45,17,,,,,,up,0.5337272941069386,1993.7605575982743,None,001,74,2019_Oct_29_1401,ACPT_experiment_5_30_19,3.1.0,59.93843053025092,
,,,C,U,d,n,L,D,d,L,c ,,,,,5,19,119,6,2,0,2,0,,,,,1,10,46,12,,,,,,up,0.583795950977219,1995.5785738628147,None,001,74,2019_Oct_29_1401,ACPT_experiment_5_30_19,3.1.0,59.93843053025092,
,,,C,U,d,n,R,D,d,R,c ,,,,,5,19,119,6,2,0,2,0,,,,,1,11,47,1,,,,,,up,0.4635638608560839,1997.4668157426968,None,001,74,2019_Oct_29_1401,ACPT_experiment_5_30_19,3.1.0,59.93843053025092,
,,,C,U,d,n,L,U,g,L,u,,,,,5,19,119,6,2,0,2,0,,,,,1,12,48,22,,,,,,up,0.9173563797485258,1999.2146978539022,None,001,74,2019_Oct_29_1401,ACPT_experiment_5_30_19,3.1.0,59.93843053025092,
,,,C,U,d,n,R,G,d,R,i,,,,,5,19,119,6,2,0,2,0,,,,,1,13,49,5,,,,,,up,0.4503383943301742,2001.416365239489,None,001,74,2019_Oct_29_1401,ACPT_experiment_5_30_19,3.1.0,59.93843053025092,
,,,C,U,d,n,R,D,g,L,i,,,,,5,19,119,6,2,0,2,0,,,,,1,14,50,2,,,,,,up,0.416977401033364,2003.1510185637708,None,001,74,2019_Oct_29_1401,ACPT_experiment_5_30_19,3.1.0,59.93843053025092,
,,,C,U,d,n,L,U,d,R,u,,,,,5,19,119,6,2,0,2,0,,,,,1,15,51,21,,,,,,up,0.43341339529069955,2004.8692570236344,None,001,74,2019_Oct_29_1401,ACPT_experiment_5_30_19,3.1.0,59.93843053025092,
,,,C,U,d,n,R,G,g,L,c ,,,,,5,19,119,6,2,0,2,0,,,,,1,16,52,6,,,,,,up,0.5170724551171588,2006.5869578800884,None,001,74,2019_Oct_29_1401,ACPT_experiment_5_30_19,3.1.0,59.93843053025092,
,,,C,U,d,n,R,G,g,R,c ,,,,,5,19,119,6,2,0,2,0,,,,,1,17,53,7,,,,,,up,0.43381184363533976,2008.3714951261027,None,001,74,2019_Oct_29_1401,ACPT_experiment_5_30_19,3.1.0,59.93843053025092,
,,,C,U,d,n,L,U,y,L,u,,,,,5,19,119,6,2,0,2,0,,,,,1,18,54,24,,,,,,down,0.5003675082298287,2010.0896234089632,None,001,74,2019_Oct_29_1401,ACPT_experiment_5_30_19,3.1.0,59.93843053025092,
,,,C,U,d,n,R,U,g,R,u,,,,,5,19,119,6,2,0,2,0,,,,,1,19,55,11,,,,,,up,0.5334861121118593,2011.891236883279,None,001,74,2019_Oct_29_1401,ACPT_experiment_5_30_19,3.1.0,59.93843053025092,
,,,C,U,d,n,R,G,y,L,y,,,,,5,19,119,6,2,0,2,0,,,,,1,20,56,28,,,,,,down,0.5337285015230009,2013.7090388309043,None,001,74,2019_Oct_29_1401,ACPT_experiment_5_30_19,3.1.0,59.93843053025092,
,,,C,U,d,n,L,U,g,R,u,,,,,5,19,119,6,2,0,2,0,,,,,1,21,57,23,,,,,,up,0.5671109265094856,2015.527086488346,None,001,74,2019_Oct_29_1401,ACPT_experiment_5_30_19,3.1.0,59.93843053025092,
,,,C,U,d,n,R,D,g,R,i,,,,,5,19,119,6,2,0,2,0,,,,,1,22,58,3,,,,,,down,0.5003901473392034,2017.3617917014672,None,001,74,2019_Oct_29_1401,ACPT_experiment_5_30_19,3.1.0,59.93843053025092,
,,,C,U,d,n,L,D,d,R,c ,,,,,5,19,119,6,2,0,2,0,,,,,1,23,59,13,,,,,,up,0.5304038726753788,2019.1665097524783,None,001,74,2019_Oct_29_1401,ACPT_experiment_5_30_19,3.1.0,59.93843053025092,
,,,C,U,d,n,R,G,y,R,y,,,,,5,19,119,6,2,0,2,0,,,,,1,24,60,29,,,,,,down,0.6838520657875051,2020.9812276495395,None,001,74,2019_Oct_29_1401,ACPT_experiment_5_30_19,3.1.0,59.93843053025092,
,,,C,U,d,n,L,G,y,R,y,,,,,5,19,119,6,2,0,2,0,,,,,1,25,61,35,,,,,,down,0.5670979467540747,2022.9493843822129,None,001,74,2019_Oct_29_1401,ACPT_experiment_5_30_19,3.1.0,59.93843053025092,
,,,C,U,d,n,L,D,y,L,y,,,,,5,19,119,6,2,0,2,0,,,,,1,26,62,32,,,,,,down,0.7839395734954451,2024.8341537243905,None,001,74,2019_Oct_29_1401,ACPT_experiment_5_30_19,3.1.0,59.93843053025092,
,,,C,U,d,n,R,D,y,R,y,,,,,5,19,119,6,2,0,2,0,,,,,1,27,63,27,,,,,,down,0.5337260866836004,2026.9190835929548,None,001,74,2019_Oct_29_1401,ACPT_experiment_5_30_19,3.1.0,59.93843053025092,
,,,C,U,d,n,L,G,d,L,i,,,,,5,19,119,6,2,0,2,0,,,,,1,28,64,16,,,,,,up,0.5170709458398051,2028.7537960505942,None,001,74,2019_Oct_29_1401,ACPT_experiment_5_30_19,3.1.0,59.93843053025092,
,,,C,U,d,n,R,D,y,L,y,,,,,5,19,119,6,2,0,2,0,,,,,1,29,65,26,,,,,,down,0.7172055127157364,2030.5551704559002,None,001,74,2019_Oct_29_1401,ACPT_experiment_5_30_19,3.1.0,59.93843053025092,
,,,C,U,d,n,R,D,d,L,c,,,,,5,19,119,6,2,0,2,0,,,,,1,30,66,0,,,,,,up,0.7172251332740416,2032.5400076852238,None,001,74,2019_Oct_29_1401,ACPT_experiment_5_30_19,3.1.0,59.93843053025092,
,,,C,U,d,n,R,G,d,L,i,,,,,5,19,119,6,2,0,2,0,,,,,1,31,67,4,,,,,,up,0.5670907022395113,2034.5415281278874,None,001,74,2019_Oct_29_1401,ACPT_experiment_5_30_19,3.1.0,59.93843053025092,
,,,C,U,d,n,L,U,d,L,u,,,,,5,19,119,6,2,0,2,0,,,,,1,32,68,20,,,,,,up,0.4670173817030445,2036.3929286285456,None,001,74,2019_Oct_29_1401,ACPT_experiment_5_30_19,3.1.0,59.93843053025092,
,,,C,U,d,n,L,D,g,R,i,,,,,5,19,119,6,2,0,2,0,,,,,1,33,69,15,,,,,,up,0.5670686668381677,2038.1609622648284,None,001,74,2019_Oct_29_1401,ACPT_experiment_5_30_19,3.1.0,59.93843053025092,
,,,C,U,d,n,L,U,y,R,u,,,,,5,19,119,6,2,0,2,0,,,,,1,34,70,25,,,,,,down,0.583771500740113,2040.0123476727458,None,001,74,2019_Oct_29_1401,ACPT_experiment_5_30_19,3.1.0,59.93843053025092,
,,,C,U,d,n,L,G,g,R,c ,,,,,5,19,119,6,2,0,2,0,,,,,1,35,71,19,,,,,,up,0.46701164646219695,2041.8804353108571,None,001,74,2019_Oct_29_1401,ACPT_experiment_5_30_19,3.1.0,59.93843053025092,
,,,C,U,d,n,,,,,,,,,,5,19,119,6,3,0,3,0,0,0,0,0,,,,,,,,,,,,,,001,74,2019_Oct_29_1401,ACPT_experiment_5_30_19,3.1.0,59.93843053025092,
,,,C,U,d,n,R,D,d,R,c ,,,,,5,19,119,6,3,0,3,0,,,,,0,0,0,1,,,,,,up,0.5971143887836661,2085.850503086316,None,001,74,2019_Oct_29_1401,ACPT_experiment_5_30_19,3.1.0,59.93843053025092,
,,,C,U,d,n,R,D,y,L,y,,,,,5,19,119,6,3,0,3,0,,,,,0,1,1,26,,,,,,up,0.5670946263526275,2087.7152494935654,None,001,74,2019_Oct_29_1401,ACPT_experiment_5_30_19,3.1.0,59.93843053025092,
,,,C,U,d,n,L,D,y,L,y,,,,,5,19,119,6,3,0,3,0,,,,,0,2,2,32,,,,,,down,0.7172154739200778,2089.549976440234,None,001,74,2019_Oct_29_1401,ACPT_experiment_5_30_19,3.1.0,59.93843053025092,
,,,C,U,d,n,L,G,d,L,i,,,,,5,19,119,6,3,0,3,0,,,,,0,3,3,16,,,,,,up,0.6504977132972272,2091.551498090317,None,001,74,2019_Oct_29_1401,ACPT_experiment_5_30_19,3.1.0,59.93843053025092,
,,,C,U,d,n,R,U,d,R,u,,,,,5,19,119,6,3,0,3,0,,,,,0,4,4,9,,,,,,up,0.6838668566742854,2093.469608201518,None,001,74,2019_Oct_29_1401,ACPT_experiment_5_30_19,3.1.0,59.93843053025092,
,,,C,U,d,n,R,D,g,R,i,,,,,5,19,119,6,3,0,3,0,,,,,0,5,5,3,,,,,,up,0.5170486085880839,2095.437786064027,None,001,74,2019_Oct_29_1401,ACPT_experiment_5_30_19,3.1.0,59.93843053025092,
,,,C,U,d,n,R,G,g,R,c ,,,,,5,19,119,6,3,0,3,0,,,,,0,6,6,7,,,,,,up,0.43365759582957253,2097.23915503595,None,001,74,2019_Oct_29_1401,ACPT_experiment_5_30_19,3.1.0,59.93843053025092,
,,,C,U,d,n,R,U,g,L,u,,,,,5,19,119,6,3,0,3,0,,,,,0,7,7,10,,,,,,up,0.5001082149465219,2098.9740764072994,None,001,74,2019_Oct_29_1401,ACPT_experiment_5_30_19,3.1.0,59.93843053025092,
,,,C,U,d,n,R,U,y,R,u,,,,,5,19,119,6,3,0,3,0,,,,,0,8,8,31,,,,,,down,0.667171569140919,2100.758491703975,None,001,74,2019_Oct_29_1401,ACPT_experiment_5_30_19,3.1.0,59.93843053025092,
,,,C,U,d,n,R,U,d,L,u,,,,,5,19,119,6,3,0,3,0,,,,,0,9,9,8,,,,,,up,0.617115590168396,2102.7099890698373,None,001,74,2019_Oct_29_1401,ACPT_experiment_5_30_19,3.1.0,59.93843053025092,
,,,C,U,d,n,L,U,g,R,u,,,,,5,19,119,6,3,0,3,0,,,,,0,10,10,23,,,,,,up,0.4503583167497709,2104.6114232122127,None,001,74,2019_Oct_29_1401,ACPT_experiment_5_30_19,3.1.0,59.93843053025092,
,,,C,U,d,n,R,G,d,L,i,,,,,5,19,119,6,3,0,3,0,,,,,0,11,11,4,,,,,,up,0.48342379419045756,2106.3630208542454,None,001,74,2019_Oct_29_1401,ACPT_experiment_5_30_19,3.1.0,59.93843053025092,
,,,C,U,d,n,R,G,d,R,i,,,,,5,19,119,6,3,0,3,0,,,,,0,12,12,5,,,,,,up,0.3837727685313439,2108.113928154329,None,001,74,2019_Oct_29_1401,ACPT_experiment_5_30_19,3.1.0,59.93843053025092,
,,,C,U,d,n,R,D,g,L,i,,,,,5,19,119,6,3,0,3,0,,,,,0,13,13,2,,,,,,up,0.5003765638721234,2109.7820128342646,None,001,74,2019_Oct_29_1401,ACPT_experiment_5_30_19,3.1.0,59.93843053025092,
,,,C,U,d,n,L,D,d,R,c ,,,,,5,19,119,6,3,0,3,0,,,,,0,14,14,13,,,,,,up,0.4836855023058888,2111.5667145911502,None,001,74,2019_Oct_29_1401,ACPT_experiment_5_30_19,3.1.0,59.93843053025092,
,,,C,U,d,n,L,D,d,L,c ,,,,,5,19,119,6,3,0,3,0,,,,,0,15,15,12,,,,,,up,0.5167881078850769,2113.3349836741836,None,001,74,2019_Oct_29_1401,ACPT_experiment_5_30_19,3.1.0,59.93843053025092,
,,,C,U,d,n,R,G,g,L,c ,,,,,5,19,119,6,3,0,3,0,,,,,0,16,16,6,,,,,,up,0.5170854348725697,2115.1360894287136,None,001,74,2019_Oct_29_1401,ACPT_experiment_5_30_19,3.1.0,59.93843053025092,
,,,C,U,d,n,L,U,d,L,u,,,,,5,19,119,6,3,0,3,0,,,,,0,17,17,20,,,,,,up,0.7505755616548413,2116.9374478357167,None,001,74,2019_Oct_29_1401,ACPT_experiment_5_30_19,3.1.0,59.93843053025092,
,,,C,U,d,n,R,G,y,L,y,,,,,5,19,119,6,3,0,3,0,,,,,0,18,18,28,,,,,,down,0.600459543755278,2118.972325347564,None,001,74,2019_Oct_29_1401,ACPT_experiment_5_30_19,3.1.0,59.93843053025092,
,,,C,U,d,n,L,G,g,R,c ,,,,,5,19,119,6,3,0,3,0,,,,,0,19,19,19,,,,,,up,0.667174285834335,2120.8570901619205,None,001,74,2019_Oct_29_1401,ACPT_experiment_5_30_19,3.1.0,59.93843053025092,
,,,C,U,d,n,L,D,y,R,y,,,,,5,19,119,6,3,0,3,0,,,,,0,20,20,33,,,,,,down,0.6504949966074491,2122.8085757554472,None,001,74,2019_Oct_29_1401,ACPT_experiment_5_30_19,3.1.0,59.93843053025092,
,,,C,U,d,n,L,G,y,R,y,,,,,5,19,119,6,3,0,3,0,,,,,0,21,21,35,,,,,,down,0.6338006146361295,2124.7433953413565,None,001,74,2019_Oct_29_1401,ACPT_experiment_5_30_19,3.1.0,59.93843053025092,
,,,C,U,d,n,L,G,y,L,y,,,,,5,19,119,6,3,0,3,0,,,,,0,22,22,34,,,,,,down,1.0838951102850842,2126.6951127593748,None,001,74,2019_Oct_29_1401,ACPT_experiment_5_30_19,3.1.0,59.93843053025092,
,,,C,U,d,n,L,G,g,L,c ,,,,,5,19,119,6,3,0,3,0,,,,,0,23,23,18,,,,,,up,0.633811783267447,2129.0800051073857,None,001,74,2019_Oct_29_1401,ACPT_experiment_5_30_19,3.1.0,59.93843053025092,
,,,C,U,d,n,L,U,y,L,u,,,,,5,19,119,6,3,0,3,0,,,,,0,24,24,24,,,,,,down,0.8170992296363693,2131.031641628313,None,001,74,2019_Oct_29_1401,ACPT_experiment_5_30_19,3.1.0,59.93843053025092,
,,,C,U,d,n,R,D,y,R,y,,,,,5,19,119,6,3,0,3,0,,,,,0,25,25,27,,,,,,down,0.7171883069895557,2133.1664596445808,None,001,74,2019_Oct_29_1401,ACPT_experiment_5_30_19,3.1.0,59.93843053025092,
,,,C,U,d,n,R,D,d,L,c,,,,,5,19,119,6,3,0,3,0,,,,,0,26,26,0,,,,,,up,0.750563487461477,2135.151289025678,None,001,74,2019_Oct_29_1401,ACPT_experiment_5_30_19,3.1.0,59.93843053025092,
,,,C,U,d,n,L,D,g,L,i,,,,,5,19,119,6,3,0,3,0,,,,,0,27,27,14,,,,,,up,0.567094324494974,2137.186163820832,None,001,74,2019_Oct_29_1401,ACPT_experiment_5_30_19,3.1.0,59.93843053025092,
,,,C,U,d,n,R,G,y,R,y,,,,,5,19,119,6,3,0,3,0,,,,,0,28,28,29,,,,,,down,0.6671739839803195,2139.037570358585,None,001,74,2019_Oct_29_1401,ACPT_experiment_5_30_19,3.1.0,59.93843053025092,
,,,C,U,d,n,L,U,y,R,u,,,,,5,19,119,6,3,0,3,0,,,,,0,29,29,25,,,,,,down,0.8338850736108725,2141.0224712792697,None,001,74,2019_Oct_29_1401,ACPT_experiment_5_30_19,3.1.0,59.93843053025092,
,,,C,U,d,n,L,D,g,R,i,,,,,5,19,119,6,3,0,3,0,,,,,0,30,30,15,,,,,,up,0.6504841298337851,2143.1573662685114,None,001,74,2019_Oct_29_1401,ACPT_experiment_5_30_19,3.1.0,59.93843053025092,
,,,C,U,d,n,L,G,d,R,i,,,,,5,19,119,6,3,0,3,0,,,,,0,31,31,17,,,,,,up,0.6003019755480636,2145.092288786909,None,001,74,2019_Oct_29_1401,ACPT_experiment_5_30_19,3.1.0,59.93843053025092,
,,,C,U,d,n,R,U,g,R,u,,,,,5,19,119,6,3,0,3,0,,,,,0,32,32,11,,,,,,up,0.4503335646513733,2146.9769358778904,None,001,74,2019_Oct_29_1401,ACPT_experiment_5_30_19,3.1.0,59.93843053025092,
,,,C,U,d,n,L,U,d,R,u,,,,,5,19,119,6,3,0,3,0,,,,,0,33,33,21,,,,,,up,0.4336500494609936,2148.7115904095917,None,001,74,2019_Oct_29_1401,ACPT_experiment_5_30_19,3.1.0,59.93843053025092,
,,,C,U,d,n,R,U,y,L,u,,,,,5,19,119,6,3,0,3,0,,,,,0,34,34,30,,,,,,down,0.6672074898633582,2150.429538786986,None,001,74,2019_Oct_29_1401,ACPT_experiment_5_30_19,3.1.0,59.93843053025092,
,,,C,U,d,n,L,U,g,L,u,,,,,5,19,119,6,3,0,3,0,,,,,0,35,35,22,,,,,,up,0.600212626526627,2152.3979623593114,None,001,74,2019_Oct_29_1401,ACPT_experiment_5_30_19,3.1.0,59.93843053025092,
,,,C,U,d,n,L,G,g,L,c ,,,,,5,19,119,6,3,0,3,0,,,,,1,0,36,18,,,,,,up,0.6504928836220643,2154.2824832749793,None,001,74,2019_Oct_29_1401,ACPT_experiment_5_30_19,3.1.0,59.93843053025092,
,,,C,U,d,n,L,G,y,R,y,,,,,5,19,119,6,3,0,3,0,,,,,1,1,37,35,,,,,,down,0.8506851047604869,2156.217285655166,None,001,74,2019_Oct_29_1401,ACPT_experiment_5_30_19,3.1.0,59.93843053025092,
,,,C,U,d,n,R,D,g,R,i,,,,,5,19,119,6,3,0,3,0,,,,,1,2,38,3,,,,,,up,0.6838505565137893,2158.3522398079476,None,001,74,2019_Oct_29_1401,ACPT_experiment_5_30_19,3.1.0,59.93843053025092,
,,,C,U,d,n,L,D,d,L,c ,,,,,5,19,119,6,3,0,3,0,,,,,1,3,39,12,,,,,,up,0.6004583363428537,2160.3204155574786,None,001,74,2019_Oct_29_1401,ACPT_experiment_5_30_19,3.1.0,59.93843053025092,
,,,C,U,d,n,L,G,d,L,i,,,,,5,19,119,6,3,0,3,0,,,,,1,4,40,16,,,,,,up,0.5337384627309802,2162.205164071671,None,001,74,2019_Oct_29_1401,ACPT_experiment_5_30_19,3.1.0,59.93843053025092,
,,,C,U,d,n,L,U,d,L,u,,,,,5,19,119,6,3,0,3,0,,,,,1,5,41,20,,,,,,up,0.583774217433529,2164.023218068065,None,001,74,2019_Oct_29_1401,ACPT_experiment_5_30_19,3.1.0,59.93843053025092,
,,,C,U,d,n,L,G,d,R,i,,,,,5,19,119,6,3,0,3,0,,,,,1,6,42,17,,,,,,up,0.7005464477551868,2165.8746040796905,None,001,74,2019_Oct_29_1401,ACPT_experiment_5_30_19,3.1.0,59.93843053025092,
,,,C,U,d,n,R,D,d,L,c,,,,,5,19,119,6,3,0,3,0,,,,,1,7,43,0,,,,,,up,0.5504099037352717,2167.859461533284,None,001,74,2019_Oct_29_1401,ACPT_experiment_5_30_19,3.1.0,59.93843053025092,
,,,C,U,d,n,R,G,g,L,c ,,,,,5,19,119,6,3,0,3,0,,,,,1,8,44,6,,,,,,up,0.5170540419712779,2169.6941839521314,None,001,74,2019_Oct_29_1401,ACPT_experiment_5_30_19,3.1.0,59.93843053025092,
,,,C,U,d,n,R,U,d,L,u,,,,,5,19,119,6,3,0,3,0,,,,,1,9,45,8,,,,,,up,0.5001248169610335,2171.5125075048672,None,001,74,2019_Oct_29_1401,ACPT_experiment_5_30_19,3.1.0,59.93843053025092,
,,,C,U,d,n,R,G,y,R,y,,,,,5,19,119,6,3,0,3,0,,,,,1,10,46,29,,,,,,down,0.7005280346129439,2173.296922499685,None,001,74,2019_Oct_29_1401,ACPT_experiment_5_30_19,3.1.0,59.93843053025092,
,,,C,U,d,n,R,D,y,L,y,,,,,5,19,119,6,3,0,3,0,,,,,1,11,47,26,,,,,,down,0.7171985700515506,2175.2817690865086,None,001,74,2019_Oct_29_1401,ACPT_experiment_5_30_19,3.1.0,59.93843053025092,
,,,C,U,d,n,L,U,g,R,u,,,,,5,19,119,6,3,0,3,0,,,,,1,12,48,23,,,,,,up,0.8339623484425829,2177.283290434734,None,001,74,2019_Oct_29_1401,ACPT_experiment_5_30_19,3.1.0,59.93843053025092,
,,,C,U,d,n,R,U,g,L,u,,,,,5,19,119,6,3,0,3,0,,,,,1,13,49,10,,,,,,up,0.5003687156458909,2179.4015671094166,None,001,74,2019_Oct_29_1401,ACPT_experiment_5_30_19,3.1.0,59.93843053025092,
,,,C,U,d,n,R,D,d,R,c ,,,,,5,19,119,6,3,0,3,0,,,,,1,14,50,1,,,,,,up,0.4837021043204004,2181.1862471327586,None,001,74,2019_Oct_29_1401,ACPT_experiment_5_30_19,3.1.0,59.93843053025092,
,,,C,U,d,n,R,G,d,L,i,,,,,5,19,119,6,3,0,3,0,,,,,1,15,51,4,,,,,,up,0.4003216564815375,2182.937579444413,None,001,74,2019_Oct_29_1401,ACPT_experiment_5_30_19,3.1.0,59.93843053025092,
,,,C,U,d,n,L,D,d,R,c ,,,,,5,19,119,6,3,0,3,0,,,,,1,16,52,13,,,,,,up,0.41365850743386545,2184.642194593118,None,001,74,2019_Oct_29_1401,ACPT_experiment_5_30_19,3.1.0,59.93843053025092,
,,,C,U,d,n,R,U,y,L,u,,,,,5,19,119,6,3,0,3,0,,,,,1,17,53,30,,,,,,down,0.5337324256361171,2186.340167728642,None,001,74,2019_Oct_29_1401,ACPT_experiment_5_30_19,3.1.0,59.93843053025092,
,,,C,U,d,n,R,G,g,R,c ,,,,,5,19,119,6,3,0,3,0,,,,,1,18,54,7,,,,,,up,0.4837386287508707,2188.1582165935033,None,001,74,2019_Oct_29_1401,ACPT_experiment_5_30_19,3.1.0,59.93843053025092,
,,,C,U,d,n,L,D,g,R,i,,,,,5,19,119,6,3,0,3,0,,,,,1,19,55,15,,,,,,up,0.48373198794433847,2189.9262251758373,None,001,74,2019_Oct_29_1401,ACPT_experiment_5_30_19,3.1.0,59.93843053025092,
,,,C,U,d,n,L,D,y,L,y,,,,,5,19,119,6,3,0,3,0,,,,,1,20,56,32,,,,,,down,0.6500132363325974,2191.7280348557797,None,001,74,2019_Oct_29_1401,ACPT_experiment_5_30_19,3.1.0,59.93843053025092,
,,,C,U,d,n,R,G,y,L,y,,,,,5,19,119,6,3,0,3,0,,,,,1,21,57,28,,,,,,down,0.5003620748429967,2193.6790803449985,None,001,74,2019_Oct_29_1401,ACPT_experiment_5_30_19,3.1.0,59.93843053025092,
,,,C,U,d,n,R,U,d,R,u,,,,,5,19,119,6,3,0,3,0,,,,,1,22,58,9,,,,,,up,0.48369395424379036,2195.4637621794645,None,001,74,2019_Oct_29_1401,ACPT_experiment_5_30_19,3.1.0,59.93843053025092,
,,,C,U,d,n,R,U,y,R,u,,,,,5,19,119,6,3,0,3,0,,,,,1,23,59,31,,,,,,down,0.5504150352680881,2197.215090265152,None,001,74,2019_Oct_29_1401,ACPT_experiment_5_30_19,3.1.0,59.93843053025092,
,,,C,U,d,n,R,G,d,R,i,,,,,5,19,119,6,3,0,3,0,,,,,1,24,60,5,,,,,,up,0.6336086349801917,2199.066668860145,None,001,74,2019_Oct_29_1401,ACPT_experiment_5_30_19,3.1.0,59.93843053025092,
,,,C,U,d,n,L,U,d,R,u,,,,,5,19,119,6,3,0,3,0,,,,,1,25,61,21,,,,,,up,0.80060588296692,2200.984619290153,None,001,74,2019_Oct_29_1401,ACPT_experiment_5_30_19,3.1.0,59.93843053025092,
,,,C,U,d,n,R,D,g,L,i,,,,,5,19,119,6,3,0,3,0,,,,,1,26,62,2,,,,,,up,0.5170413640698825,2203.0695612329073,None,001,74,2019_Oct_29_1401,ACPT_experiment_5_30_19,3.1.0,59.93843053025092,
,,,C,U,d,n,L,D,g,L,i,,,,,5,19,119,6,3,0,3,0,,,,,1,27,63,14,,,,,,up,0.45034141288124374,2204.8542261635084,None,001,74,2019_Oct_29_1401,ACPT_experiment_5_30_19,3.1.0,59.93843053025092,
,,,C,U,d,n,L,U,y,R,u,,,,,5,19,119,6,3,0,3,0,,,,,1,28,64,25,,,,,,down,0.6338151036688942,2206.588880393356,None,001,74,2019_Oct_29_1401,ACPT_experiment_5_30_19,3.1.0,59.93843053025092,
,,,C,U,d,n,L,U,g,L,u,,,,,5,19,119,6,3,0,3,0,,,,,1,29,65,22,,,,,,up,0.48372051746264333,2208.490307593067,None,001,74,2019_Oct_29_1401,ACPT_experiment_5_30_19,3.1.0,59.93843053025092,
,,,C,U,d,n,R,D,y,R,y,,,,,5,19,119,6,3,0,3,0,,,,,1,30,66,27,,,,,,down,0.7339602656429633,2210.2583300607257,None,001,74,2019_Oct_29_1401,ACPT_experiment_5_30_19,3.1.0,59.93843053025092,
,,,C,U,d,n,R,U,g,R,u,,,,,5,19,119,6,3,0,3,0,,,,,1,31,67,11,,,,,,up,0.49705978325073374,2212.2965325032746,None,001,74,2019_Oct_29_1401,ACPT_experiment_5_30_19,3.1.0,59.93843053025092,
,,,C,U,d,n,L,G,g,R,c ,,,,,5,19,119,6,3,0,3,0,,,,,1,32,68,19,,,,,,up,0.6505152208774234,2214.0611971380567,None,001,74,2019_Oct_29_1401,ACPT_experiment_5_30_19,3.1.0,59.93843053025092,
,,,C,U,d,n,L,D,y,R,y,,,,,5,19,119,6,3,0,3,0,,,,,1,33,69,33,,,,,,down,0.6004501862589677,2215.996023364769,None,001,74,2019_Oct_29_1401,ACPT_experiment_5_30_19,3.1.0,59.93843053025092,
,,,C,U,d,n,L,U,y,L,u,,,,,5,19,119,6,3,0,3,0,,,,,1,34,70,24,,,,,,down,0.7672457952357945,2217.8807918013845,None,001,74,2019_Oct_29_1401,ACPT_experiment_5_30_19,3.1.0,59.93843053025092,
,,,C,U,d,n,L,G,y,L,y,,,,,5,19,119,6,3,0,3,0,,,,,1,35,71,34,,,,,,down,0.5004088623354619,2219.932324152218,None,001,74,2019_Oct_29_1401,ACPT_experiment_5_30_19,3.1.0,59.93843053025092,
,,,C,U,d,n,,,,,,,,,,5,19,119,6,4,0,4,0,0,0,0,0,,,,,,,,,,,,,,001,74,2019_Oct_29_1401,ACPT_experiment_5_30_19,3.1.0,59.93843053025092,
,,,C,U,d,n,L,G,g,L,c ,,,,,5,19,119,6,4,0,4,0,,,,,0,0,0,18,,,,,,up,0.5470879915810656,2253.5945748842933,None,001,74,2019_Oct_29_1401,ACPT_experiment_5_30_19,3.1.0,59.93843053025092,
,,,C,U,d,n,L,G,g,R,c ,,,,,5,19,119,6,4,0,4,0,,,,,0,1,1,19,,,,,,up,0.4837193100465811,2255.409271349665,None,001,74,2019_Oct_29_1401,ACPT_experiment_5_30_19,3.1.0,59.93843053025092,
,,,C,U,d,n,L,U,d,R,u,,,,,5,19,119,6,4,0,4,0,,,,,0,2,2,21,,,,,,up,0.4003135064012895,2257.177307400787,None,001,74,2019_Oct_29_1401,ACPT_experiment_5_30_19,3.1.0,59.93843053025092,
,,,C,U,d,n,R,U,d,R,u,,,,,5,19,119,6,4,0,4,0,,,,,0,3,3,9,,,,,,up,0.38361791701754555,2258.861921046253,None,001,74,2019_Oct_29_1401,ACPT_experiment_5_30_19,3.1.0,59.93843053025092,
,,,C,U,d,n,R,U,g,R,u,,,,,5,19,119,6,4,0,4,0,,,,,0,4,4,11,,,,,,up,0.41670392058222205,2260.53012344956,None,001,74,2019_Oct_29_1401,ACPT_experiment_5_30_19,3.1.0,59.93843053025092,
,,,C,U,d,n,R,D,g,R,i,,,,,5,19,119,6,4,0,4,0,,,,,0,5,5,3,,,,,,up,0.38362063371096156,2262.231141394528,None,001,74,2019_Oct_29_1401,ACPT_experiment_5_30_19,3.1.0,59.93843053025092,
,,,C,U,d,n,R,U,y,L,u,,,,,5,19,119,6,4,0,4,0,,,,,0,6,6,30,,,,,,down,0.8506721250087139,2263.915758964107,None,001,74,2019_Oct_29_1401,ACPT_experiment_5_30_19,3.1.0,59.93843053025092,
,,,C,U,d,n,L,G,y,L,y,,,,,5,19,119,6,4,0,4,0,,,,,0,7,7,34,,,,,,down,0.5670771187724313,2266.0507276059216,None,001,74,2019_Oct_29_1401,ACPT_experiment_5_30_19,3.1.0,59.93843053025092,
,,,C,U,d,n,L,D,g,L,i,,,,,5,19,119,6,4,0,4,0,,,,,0,8,8,14,,,,,,up,1.1341949879424646,2267.9187953216133,None,001,74,2019_Oct_29_1401,ACPT_experiment_5_30_19,3.1.0,59.93843053025092,
,,,C,U,d,n,R,U,y,R,u,,,,,5,19,119,6,4,0,4,0,,,,,0,9,9,31,,,,,,down,0.7505773727825726,2270.3372995042664,None,001,74,2019_Oct_29_1401,ACPT_experiment_5_30_19,3.1.0,59.93843053025092,
,,,C,U,d,n,R,G,g,R,c ,,,,,5,19,119,6,4,0,4,0,,,,,0,10,10,7,,,,,,up,0.6338120851178246,2272.372180940223,None,001,74,2019_Oct_29_1401,ACPT_experiment_5_30_19,3.1.0,59.93843053025092,
,,,C,U,d,n,L,D,y,R,y,,,,,5,19,119,6,4,0,4,0,,,,,0,11,11,33,,,,,,down,0.5835846526133537,2274.3071390774894,None,001,74,2019_Oct_29_1401,ACPT_experiment_5_30_19,3.1.0,59.93843053025092,
,,,C,U,d,n,R,U,g,L,u,,,,,5,19,119,6,4,0,4,0,,,,,0,12,12,10,,,,,,up,0.6004532048063993,2276.1917475310547,None,001,74,2019_Oct_29_1401,ACPT_experiment_5_30_19,3.1.0,59.93843053025092,
,,,C,U,d,n,L,U,d,L,u,,,,,5,19,119,6,4,0,4,0,,,,,0,13,13,20,,,,,,up,0.6004538085180684,2278.076513250973,None,001,74,2019_Oct_29_1401,ACPT_experiment_5_30_19,3.1.0,59.93843053025092,
,,,C,U,d,n,L,G,d,L,i,,,,,5,19,119,6,4,0,4,0,,,,,0,14,14,16,,,,,,up,0.5504328447022999,2279.944588211183,None,001,74,2019_Oct_29_1401,ACPT_experiment_5_30_19,3.1.0,59.93843053025092,
,,,C,U,d,n,R,G,y,R,y,,,,,5,19,119,6,4,0,4,0,,,,,0,15,15,29,,,,,,down,0.5837727081598132,2281.7793254209137,None,001,74,2019_Oct_29_1401,ACPT_experiment_5_30_19,3.1.0,59.93843053025092,
,,,C,U,d,n,L,G,d,R,i,,,,,5,19,119,6,4,0,4,0,,,,,0,16,16,17,,,,,,up,0.5170540419712779,2283.6474106441856,None,001,74,2019_Oct_29_1401,ACPT_experiment_5_30_19,3.1.0,59.93843053025092,
,,,C,U,d,n,L,U,g,L,u,,,,,5,19,119,6,4,0,4,0,,,,,0,17,17,22,,,,,,up,0.583500736978749,2285.4657323857937,None,001,74,2019_Oct_29_1401,ACPT_experiment_5_30_19,3.1.0,59.93843053025092,
,,,C,U,d,n,L,D,d,L,c ,,,,,5,19,119,6,4,0,4,0,,,,,0,18,18,12,,,,,,up,0.6171349088763236,2287.3335411100597,None,001,74,2019_Oct_29_1401,ACPT_experiment_5_30_19,3.1.0,59.93843053025092,
,,,C,U,d,n,R,D,y,R,y,,,,,5,19,119,6,4,0,4,0,,,,,0,19,19,27,,,,,,down,0.4836936523861368,2289.234989137756,None,001,74,2019_Oct_29_1401,ACPT_experiment_5_30_19,3.1.0,59.93843053025092,
,,,C,U,d,n,L,G,y,R,y,,,,,5,19,119,6,4,0,4,0,,,,,0,20,20,35,,,,,,down,0.6671616079293017,2291.0196824427076,None,001,74,2019_Oct_29_1401,ACPT_experiment_5_30_19,3.1.0,59.93843053025092,
,,,C,U,d,n,R,G,d,R,i,,,,,5,19,119,6,4,0,4,0,,,,,0,21,21,5,,,,,,up,0.7839127084189386,2292.987843099494,None,001,74,2019_Oct_29_1401,ACPT_experiment_5_30_19,3.1.0,59.93843053025092,
,,,C,U,d,n,R,G,g,L,c ,,,,,5,19,119,6,4,0,4,0,,,,,0,22,22,6,,,,,,up,0.7505936729430687,2295.039375148477,None,001,74,2019_Oct_29_1401,ACPT_experiment_5_30_19,3.1.0,59.93843053025092,
,,,C,U,d,n,R,D,d,R,c ,,,,,5,19,119,6,4,0,4,0,,,,,0,23,23,1,,,,,,up,0.6504904687826638,2297.0742774124155,None,001,74,2019_Oct_29_1401,ACPT_experiment_5_30_19,3.1.0,59.93843053025092,
,,,C,U,d,n,R,D,d,L,c,,,,,5,19,119,6,4,0,4,0,,,,,0,24,24,0,,,,,,up,0.6838710826414172,2298.9923796753937,None,001,74,2019_Oct_29_1401,ACPT_experiment_5_30_19,3.1.0,59.93843053025092,
,,,C,U,d,n,R,G,d,L,i,,,,,5,19,119,6,4,0,4,0,,,,,0,25,25,4,,,,,,up,0.46701647614099784,2300.9605623675816,None,001,74,2019_Oct_29_1401,ACPT_experiment_5_30_19,3.1.0,59.93843053025092,
,,,C,U,d,n,L,U,y,R,u,,,,,5,19,119,6,4,0,4,0,,,,,0,26,26,25,,,,,,down,0.6171355125843547,2302.711896490364,None,001,74,2019_Oct_29_1401,ACPT_experiment_5_30_19,3.1.0,59.93843053025092,
,,,C,U,d,n,L,U,y,L,u,,,,,5,19,119,6,4,0,4,0,,,,,0,27,27,24,,,,,,down,0.6838511602254584,2304.61333636798,None,001,74,2019_Oct_29_1401,ACPT_experiment_5_30_19,3.1.0,59.93843053025092,
,,,C,U,d,n,R,D,y,L,y,,,,,5,19,119,6,4,0,4,0,,,,,0,28,28,26,,,,,,down,0.8006116182114056,2306.5814973266242,None,001,74,2019_Oct_29_1401,ACPT_experiment_5_30_19,3.1.0,59.93843053025092,
,,,C,U,d,n,L,D,g,R,i,,,,,5,19,119,6,4,0,4,0,,,,,0,29,29,15,,,,,,up,0.5170591735040944,2308.6664139135755,None,001,74,2019_Oct_29_1401,ACPT_experiment_5_30_19,3.1.0,59.93843053025092,
,,,C,U,d,n,R,G,y,L,y,,,,,5,19,119,6,4,0,4,0,,,,,0,30,30,28,,,,,,down,0.5337336330521794,2310.4677831873523,None,001,74,2019_Oct_29_1401,ACPT_experiment_5_30_19,3.1.0,59.93843053025092,
,,,C,U,d,n,L,D,y,L,y,,,,,5,19,119,6,4,0,4,0,,,,,0,31,31,32,,,,,,down,0.48372383786772843,2312.3025110395865,None,001,74,2019_Oct_29_1401,ACPT_experiment_5_30_19,3.1.0,59.93843053025092,
,,,C,U,d,n,L,D,d,R,c ,,,,,5,19,119,6,4,0,4,0,,,,,0,32,32,13,,,,,,up,0.6338012183441606,2314.087203740826,None,001,74,2019_Oct_29_1401,ACPT_experiment_5_30_19,3.1.0,59.93843053025092,
,,,C,U,d,n,R,U,d,L,u,,,,,5,19,119,6,4,0,4,0,,,,,0,33,33,8,,,,,,up,0.6504931854760798,2316.005323209527,None,001,74,2019_Oct_29_1401,ACPT_experiment_5_30_19,3.1.0,59.93843053025092,
,,,C,U,d,n,R,D,g,L,i,,,,,5,19,119,6,4,0,4,0,,,,,0,34,34,2,,,,,,up,0.6168556931770581,2317.9570774538297,None,001,74,2019_Oct_29_1401,ACPT_experiment_5_30_19,3.1.0,59.93843053025092,
,,,C,U,d,n,L,U,g,R,u,,,,,5,19,119,6,4,0,4,0,,,,,0,35,35,23,,,,,,up,0.4837021043204004,2319.858245360265,None,001,74,2019_Oct_29_1401,ACPT_experiment_5_30_19,3.1.0,59.93843053025092,
,,,C,U,d,n,L,D,d,R,c ,,,,,5,19,119,6,4,0,4,0,,,,,1,0,36,13,,,,,,up,0.600459543758916,2321.6262539426025,None,001,74,2019_Oct_29_1401,ACPT_experiment_5_30_19,3.1.0,59.93843053025092,
,,,C,U,d,n,R,G,g,L,c ,,,,,5,19,119,6,4,0,4,0,,,,,1,1,37,6,,,,,,up,0.4670161742869823,2323.511027208893,None,001,74,2019_Oct_29_1401,ACPT_experiment_5_30_19,3.1.0,59.93843053025092,
,,,C,U,d,n,R,U,y,R,u,,,,,5,19,119,6,4,0,4,0,,,,,1,2,38,31,,,,,,down,0.700252441176417,2325.2793113846674,None,001,74,2019_Oct_29_1401,ACPT_experiment_5_30_19,3.1.0,59.93843053025092,
,,,C,U,d,n,R,D,y,R,y,,,,,5,19,119,6,4,0,4,0,,,,,1,3,39,27,,,,,,down,0.6004504881166213,2327.2472012776925,None,001,74,2019_Oct_29_1401,ACPT_experiment_5_30_19,3.1.0,59.93843053025092,
,,,C,U,d,n,R,D,d,R,c ,,,,,5,19,119,6,4,0,4,0,,,,,1,4,40,1,,,,,,up,0.6504968077351805,2329.1319555271293,None,001,74,2019_Oct_29_1401,ACPT_experiment_5_30_19,3.1.0,59.93843053025092,
,,,C,U,d,n,R,D,g,R,i,,,,,5,19,119,6,4,0,4,0,,,,,1,5,41,3,,,,,,up,0.4836984820649377,2331.066760624006,None,001,74,2019_Oct_29_1401,ACPT_experiment_5_30_19,3.1.0,59.93843053025092,
,,,C,U,d,n,R,G,d,L,i,,,,,5,19,119,6,4,0,4,0,,,,,1,6,42,4,,,,,,up,0.4836951616598526,2332.8347713193252,None,001,74,2019_Oct_29_1401,ACPT_experiment_5_30_19,3.1.0,59.93843053025092,
,,,C,U,d,n,L,D,g,L,i,,,,,5,19,119,6,4,0,4,0,,,,,1,7,43,14,,,,,,up,0.40029509325904655,2334.6027862406154,None,001,74,2019_Oct_29_1401,ACPT_experiment_5_30_19,3.1.0,59.93843053025092,
,,,C,U,d,n,L,D,g,R,i,,,,,5,19,119,6,4,0,4,0,,,,,1,8,44,15,,,,,,up,0.4837573437507672,2336.2706958447598,None,001,74,2019_Oct_29_1401,ACPT_experiment_5_30_19,3.1.0,59.93843053025092,
,,,C,U,d,n,R,D,y,L,y,,,,,5,19,119,6,4,0,4,0,,,,,1,9,45,26,,,,,,down,0.7803583680652082,2338.0589703551414,None,001,74,2019_Oct_29_1401,ACPT_experiment_5_30_19,3.1.0,59.93843053025092,
,,,C,U,d,n,R,U,d,L,u,,,,,5,19,119,6,4,0,4,0,,,,,1,10,46,8,,,,,,up,0.6004474695655517,2340.123645162432,None,001,74,2019_Oct_29_1401,ACPT_experiment_5_30_19,3.1.0,59.93843053025092,
,,,C,U,d,n,R,G,y,R,y,,,,,5,19,119,6,4,0,4,0,,,,,1,11,47,29,,,,,,down,0.617139436697471,2342.008404845252,None,001,74,2019_Oct_29_1401,ACPT_experiment_5_30_19,3.1.0,59.93843053025092,
,,,C,U,d,n,R,U,d,R,u,,,,,5,19,119,6,4,0,4,0,,,,,1,12,48,9,,,,,,up,0.8006007514377416,2343.90985226924,None,001,74,2019_Oct_29_1401,ACPT_experiment_5_30_19,3.1.0,59.93843053025092,
,,,C,U,d,n,L,G,d,L,i,,,,,5,19,119,6,4,0,4,0,,,,,1,13,49,16,,,,,,up,0.5170549475369626,2345.9947691580455,None,001,74,2019_Oct_29_1401,ACPT_experiment_5_30_19,3.1.0,59.93843053025092,
,,,C,U,d,n,R,U,y,L,u,,,,,5,19,119,6,4,0,4,0,,,,,1,14,50,30,,,,,,down,0.6004535066604149,2347.796136016983,None,001,74,2019_Oct_29_1401,ACPT_experiment_5_30_19,3.1.0,59.93843053025092,
,,,C,U,d,n,L,G,g,R,c ,,,,,5,19,119,6,4,0,4,0,,,,,1,15,51,19,,,,,,up,0.7172257369857107,2349.6808797015037,None,001,74,2019_Oct_29_1401,ACPT_experiment_5_30_19,3.1.0,59.93843053025092,
,,,C,U,d,n,L,U,g,R,u,,,,,5,19,119,6,4,0,4,0,,,,,1,16,52,23,,,,,,up,0.5337348404755176,2351.6824185573096,None,001,74,2019_Oct_29_1401,ACPT_experiment_5_30_19,3.1.0,59.93843053025092,
,,,C,U,d,n,L,D,y,L,y,,,,,5,19,119,6,4,0,4,0,,,,,1,17,53,32,,,,,,down,0.5670967393343744,2353.500466214751,None,001,74,2019_Oct_29_1401,ACPT_experiment_5_30_19,3.1.0,59.93843053025092,
,,,C,U,d,n,R,G,d,R,i,,,,,5,19,119,6,4,0,4,0,,,,,1,18,54,5,,,,,,up,0.7839244807546493,2355.3518754691977,None,001,74,2019_Oct_29_1401,ACPT_experiment_5_30_19,3.1.0,59.93843053025092,
,,,C,U,d,n,R,U,g,R,u,,,,,5,19,119,6,4,0,4,0,,,,,1,19,55,11,,,,,,up,0.396965332882246,2357.4401212128178,None,001,74,2019_Oct_29_1401,ACPT_experiment_5_30_19,3.1.0,59.93843053025092,
,,,C,U,d,n,L,D,d,L,c ,,,,,5,19,119,6,4,0,4,0,,,,,1,20,56,12,,,,,,up,0.4336597088149574,2359.1214117387135,None,001,74,2019_Oct_29_1401,ACPT_experiment_5_30_19,3.1.0,59.93843053025092,
,,,C,U,d,n,L,U,d,L,u,,,,,5,19,119,6,4,0,4,0,,,,,1,21,57,20,,,,,,up,0.43365970881131943,2360.8393764162647,None,001,74,2019_Oct_29_1401,ACPT_experiment_5_30_19,3.1.0,59.93843053025092,
,,,C,U,d,n,L,U,g,L,u,,,,,5,19,119,6,4,0,4,0,,,,,1,22,58,22,,,,,,up,0.38370575676162844,2362.557347734626,None,001,74,2019_Oct_29_1401,ACPT_experiment_5_30_19,3.1.0,59.93843053025092,
,,,C,U,d,n,L,G,y,L,y,,,,,5,19,119,6,4,0,4,0,,,,,1,23,59,34,,,,,,up,0.38337522575238836,2364.242204976923,None,001,74,2019_Oct_29_1401,ACPT_experiment_5_30_19,3.1.0,59.93843053025092,
,,,C,U,d,n,L,U,y,L,u,,,,,5,19,119,6,4,0,4,0,,,,,1,24,60,24,,,,,,down,0.5170534382632468,2365.909895132623,None,001,74,2019_Oct_29_1401,ACPT_experiment_5_30_19,3.1.0,59.93843053025092,
,,,C,U,d,n,R,D,g,L,i,,,,,5,19,119,6,4,0,4,0,,,,,1,25,61,2,,,,,,up,0.5837772359809605,2367.711259878575,None,001,74,2019_Oct_29_1401,ACPT_experiment_5_30_19,3.1.0,59.93843053025092,
,,,C,U,d,n,L,D,y,R,y,,,,,5,19,119,6,4,0,4,0,,,,,1,26,62,33,,,,,,down,0.6838565936086525,2369.5960252966397,None,001,74,2019_Oct_29_1401,ACPT_experiment_5_30_19,3.1.0,59.93843053025092,
,,,C,U,d,n,L,U,y,R,u,,,,,5,19,119,6,4,0,4,0,,,,,1,27,63,25,,,,,,down,0.5337441979718278,2371.5808664500764,None,001,74,2019_Oct_29_1401,ACPT_experiment_5_30_19,3.1.0,59.93843053025092,
,,,C,U,d,n,R,G,g,R,c ,,,,,5,19,119,6,4,0,4,0,,,,,1,28,64,7,,,,,,up,0.7838118889121688,2373.398914409372,None,001,74,2019_Oct_29_1401,ACPT_experiment_5_30_19,3.1.0,59.93843053025092,
,,,C,U,d,n,R,G,y,L,y,,,,,5,19,119,6,4,0,4,0,,,,,1,29,65,28,,,,,,down,0.6338051424572768,2375.450477851253,None,001,74,2019_Oct_29_1401,ACPT_experiment_5_30_19,3.1.0,59.93843053025092,
,,,C,U,d,n,R,D,d,L,c,,,,,5,19,119,6,4,0,4,0,,,,,1,30,66,0,,,,,,up,0.5668866483865713,2377.385445949727,None,001,74,2019_Oct_29_1401,ACPT_experiment_5_30_19,3.1.0,59.93843053025092,
,,,C,U,d,n,R,U,g,L,u,,,,,5,19,119,6,4,0,4,0,,,,,1,31,67,10,,,,,,up,0.6504989207169274,2379.236681939514,None,001,74,2019_Oct_29_1401,ACPT_experiment_5_30_19,3.1.0,59.93843053025092,
,,,C,U,d,n,L,G,d,R,i,,,,,5,19,119,6,4,0,4,0,,,,,1,32,68,17,,,,,,up,0.46689845091168536,2381.1714846215546,None,001,74,2019_Oct_29_1401,ACPT_experiment_5_30_19,3.1.0,59.93843053025092,
,,,C,U,d,n,L,U,d,R,u,,,,,5,19,119,6,4,0,4,0,,,,,1,33,69,21,,,,,,up,0.43367208485869924,2382.9227945959537,None,001,74,2019_Oct_29_1401,ACPT_experiment_5_30_19,3.1.0,59.93843053025092,
,,,C,U,d,n,L,G,y,R,y,,,,,5,19,119,6,4,0,4,0,,,,,1,34,70,35,,,,,,down,0.5167799578084669,2384.65774011569,None,001,74,2019_Oct_29_1401,ACPT_experiment_5_30_19,3.1.0,59.93843053025092,
,,,C,U,d,n,L,G,g,L,c ,,,,,5,19,119,6,4,0,4,0,,,,,1,35,71,18,,,,,,up,0.6671887748634617,2386.4588356071545,None,001,74,2019_Oct_29_1401,ACPT_experiment_5_30_19,3.1.0,59.93843053025092,
,,,C,U,d,n,,,,,,,,,,5,19,119,6,5,0,5,0,0,0,0,0,,,,,,,,,,,,,,001,74,2019_Oct_29_1401,ACPT_experiment_5_30_19,3.1.0,59.93843053025092,
,,,C,U,d,n,R,D,g,L,i,,,,,5,19,119,6,5,0,5,0,,,,,0,0,0,2,,,,,,up,0.9671479339085636,2445.1369928801505,None,001,74,2019_Oct_29_1401,ACPT_experiment_5_30_19,3.1.0,59.93843053025092,
,,,C,U,d,n,L,G,g,L,c ,,,,,5,19,119,6,5,0,5,0,,,,,0,1,1,18,,,,,,up,0.46701768356069806,2447.3884500087697,None,001,74,2019_Oct_29_1401,ACPT_experiment_5_30_19,3.1.0,59.93843053025092,
,,,C,U,d,n,L,G,g,R,c ,,,,,5,19,119,6,5,0,5,0,,,,,0,2,2,19,,,,,,up,0.41697498619760154,2449.1231033330514,None,001,74,2019_Oct_29_1401,ACPT_experiment_5_30_19,3.1.0,59.93843053025092,
,,,C,U,d,n,R,G,g,R,c ,,,,,5,19,119,6,5,0,5,0,,,,,0,3,3,7,,,,,,up,0.4335428910017072,2450.8243980788757,None,001,74,2019_Oct_29_1401,ACPT_experiment_5_30_19,3.1.0,59.93843053025092,
,,,C,U,d,n,R,G,y,L,y,,,,,5,19,119,6,5,0,5,0,,,,,0,4,4,28,,,,,,down,0.567088891108142,2452.5423709065108,None,001,74,2019_Oct_29_1401,ACPT_experiment_5_30_19,3.1.0,59.93843053025092,
,,,C,U,d,n,R,D,y,L,y,,,,,5,19,119,6,5,0,5,0,,,,,0,5,5,26,,,,,,down,0.5337327274901327,2454.4104531112353,None,001,74,2019_Oct_29_1401,ACPT_experiment_5_30_19,3.1.0,59.93843053025092,
,,,C,U,d,n,L,D,d,L,c ,,,,,5,19,119,6,5,0,5,0,,,,,0,6,6,12,,,,,,down,0.5170480048764148,2456.245184585725,None,001,74,2019_Oct_29_1401,ACPT_experiment_5_30_19,3.1.0,59.93843053025092,
,,,C,U,d,n,L,G,y,R,y,,,,,5,19,119,6,5,0,5,0,,,,,0,7,7,35,,,,,,down,0.5334559266302676,2458.0635057236213,None,001,74,2019_Oct_29_1401,ACPT_experiment_5_30_19,3.1.0,59.93843053025092,
,,,C,U,d,n,L,G,y,L,y,,,,,5,19,119,6,5,0,5,0,,,,,0,8,8,34,,,,,,down,0.5504099037352717,2459.8812744672214,None,001,74,2019_Oct_29_1401,ACPT_experiment_5_30_19,3.1.0,59.93843053025092,
,,,C,U,d,n,R,D,g,R,i,,,,,5,19,119,6,5,0,5,0,,,,,0,9,9,3,,,,,,up,0.6171312866172229,2461.7160032250176,None,001,74,2019_Oct_29_1401,ACPT_experiment_5_30_19,3.1.0,59.93843053025092,
,,,C,U,d,n,L,D,y,R,y,,,,,5,19,119,6,5,0,5,0,,,,,0,10,10,33,,,,,,down,0.567116058042302,2463.6174455174732,None,001,74,2019_Oct_29_1401,ACPT_experiment_5_30_19,3.1.0,59.93843053025092,
,,,C,U,d,n,L,U,y,L,u,,,,,5,19,119,6,5,0,5,0,,,,,0,11,11,24,,,,,,down,0.7171110321614833,2465.4856886108064,None,001,74,2019_Oct_29_1401,ACPT_experiment_5_30_19,3.1.0,59.93843053025092,
,,,C,U,d,n,R,G,d,L,i,,,,,5,19,119,6,5,0,5,0,,,,,0,12,12,4,,,,,,up,0.48369697278758395,2467.5204148933954,None,001,74,2019_Oct_29_1401,ACPT_experiment_5_30_19,3.1.0,59.93843053025092,
,,,C,U,d,n,L,D,y,L,y,,,,,5,19,119,6,5,0,5,0,,,,,0,13,13,32,,,,,,up,0.6004643734340789,2469.305081031416,None,001,74,2019_Oct_29_1401,ACPT_experiment_5_30_19,3.1.0,59.93843053025092,
,,,C,U,d,n,L,U,g,R,u,,,,,5,19,119,6,5,0,5,0,,,,,0,14,14,23,,,,,,up,0.5170362325370661,2471.223239741237,None,001,74,2019_Oct_29_1401,ACPT_experiment_5_30_19,3.1.0,59.93843053025092,
,,,C,U,d,n,R,G,g,L,c ,,,,,5,19,119,6,5,0,5,0,,,,,0,15,15,6,,,,,,up,0.500380186131224,2473.0245912055834,None,001,74,2019_Oct_29_1401,ACPT_experiment_5_30_19,3.1.0,59.93843053025092,
,,,C,U,d,n,L,U,y,R,u,,,,,5,19,119,6,5,0,5,0,,,,,0,16,16,25,,,,,,down,0.5837808582400612,2474.809279379002,None,001,74,2019_Oct_29_1401,ACPT_experiment_5_30_19,3.1.0,59.93843053025092,
,,,C,U,d,n,R,U,y,L,u,,,,,5,19,119,6,5,0,5,0,,,,,0,17,17,30,,,,,,down,0.5170522308435466,2476.677369431949,None,001,74,2019_Oct_29_1401,ACPT_experiment_5_30_19,3.1.0,59.93843053025092,
,,,C,U,d,n,L,D,g,R,i,,,,,5,19,119,6,5,0,5,0,,,,,0,18,18,15,,,,,,up,0.533468604535301,2478.495670345572,None,001,74,2019_Oct_29_1401,ACPT_experiment_5_30_19,3.1.0,59.93843053025092,
,,,C,U,d,n,R,U,d,L,u,,,,,5,19,119,6,5,0,5,0,,,,,0,19,19,8,,,,,,up,0.5170504197121772,2480.3134650486863,None,001,74,2019_Oct_29_1401,ACPT_experiment_5_30_19,3.1.0,59.93843053025092,
,,,C,U,d,n,R,U,d,R,u,,,,,5,19,119,6,5,0,5,0,,,,,0,20,20,9,,,,,,up,0.5005302079698595,2482.097998974299,None,001,74,2019_Oct_29_1401,ACPT_experiment_5_30_19,3.1.0,59.93843053025092,
,,,C,U,d,n,R,D,d,R,c ,,,,,5,19,119,6,5,0,5,0,,,,,0,21,21,1,,,,,,up,0.4837171970611962,2483.88281845456,None,001,74,2019_Oct_29_1401,ACPT_experiment_5_30_19,3.1.0,59.93843053025092,
,,,C,U,d,n,R,U,g,L,u,,,,,5,19,119,6,5,0,5,0,,,,,0,22,22,10,,,,,,up,0.5170286861684872,2485.6675510006353,None,001,74,2019_Oct_29_1401,ACPT_experiment_5_30_19,3.1.0,59.93843053025092,
,,,C,U,d,n,R,D,d,L,c,,,,,5,19,119,6,5,0,5,0,,,,,0,23,23,0,,,,,,up,0.5837718025977665,2487.4688988427188,None,001,74,2019_Oct_29_1401,ACPT_experiment_5_30_19,3.1.0,59.93843053025092,
,,,C,U,d,n,L,D,g,L,i,,,,,5,19,119,6,5,0,5,0,,,,,0,24,24,14,,,,,,up,0.5670949282066431,2489.336981953009,None,001,74,2019_Oct_29_1401,ACPT_experiment_5_30_19,3.1.0,59.93843053025092,
,,,C,U,d,n,R,U,y,R,u,,,,,5,19,119,6,5,0,5,0,,,,,0,25,25,31,,,,,,down,0.600451393678668,2491.1883866796306,None,001,74,2019_Oct_29_1401,ACPT_experiment_5_30_19,3.1.0,59.93843053025092,
,,,C,U,d,n,R,G,d,R,i,,,,,5,19,119,6,5,0,5,0,,,,,0,26,26,5,,,,,,up,0.68384059530581,2493.0731584366476,None,001,74,2019_Oct_29_1401,ACPT_experiment_5_30_19,3.1.0,59.93843053025092,
,,,C,U,d,n,R,D,y,R,y,,,,,5,19,119,6,5,0,5,0,,,,,0,27,27,27,,,,,,down,0.5003744508867385,2495.0413172823064,None,001,74,2019_Oct_29_1401,ACPT_experiment_5_30_19,3.1.0,59.93843053025092,
,,,C,U,d,n,R,G,y,R,y,,,,,5,19,119,6,5,0,5,0,,,,,0,28,28,29,,,,,,down,0.6171195142778743,2496.842688970919,None,001,74,2019_Oct_29_1401,ACPT_experiment_5_30_19,3.1.0,59.93843053025092,
,,,C,U,d,n,L,G,d,R,i,,,,,5,19,119,6,5,0,5,0,,,,,0,29,29,17,,,,,,up,0.6838967402982234,2498.77749980304,None,001,74,2019_Oct_29_1401,ACPT_experiment_5_30_19,3.1.0,59.93843053025092,
,,,C,U,d,n,L,U,g,L,u,,,,,5,19,119,6,5,0,5,0,,,,,0,30,30,22,,,,,,up,0.8506398265417374,2500.7456480837827,None,001,74,2019_Oct_29_1401,ACPT_experiment_5_30_19,3.1.0,59.93843053025092,
,,,C,U,d,n,R,U,g,R,u,,,,,5,19,119,6,5,0,5,0,,,,,0,31,31,11,,,,,,up,1.0007748612879368,2502.8806049532577,None,001,74,2019_Oct_29_1401,ACPT_experiment_5_30_19,3.1.0,59.93843053025092,
,,,C,U,d,n,L,D,d,R,c ,,,,,5,19,119,6,5,0,5,0,,,,,0,32,32,13,,,,,,up,0.6004698068209109,2505.165672709096,None,001,74,2019_Oct_29_1401,ACPT_experiment_5_30_19,3.1.0,59.93843053025092,
,,,C,U,d,n,L,U,d,L,u,,,,,5,19,119,6,5,0,5,0,,,,,0,33,33,20,,,,,,up,0.6671703617248568,2507.050438730872,None,001,74,2019_Oct_29_1401,ACPT_experiment_5_30_19,3.1.0,59.93843053025092,
,,,C,U,d,n,L,U,d,R,u,,,,,5,19,119,6,5,0,5,0,,,,,0,34,34,21,,,,,,up,0.6171569442740292,2508.9852193775114,None,001,74,2019_Oct_29_1401,ACPT_experiment_5_30_19,3.1.0,59.93843053025092,
,,,C,U,d,n,L,G,d,L,i,,,,,5,19,119,6,5,0,5,0,,,,,0,35,35,16,,,,,,up,0.6671619097869552,2510.8866951758464,None,001,74,2019_Oct_29_1401,ACPT_experiment_5_30_19,3.1.0,59.93843053025092,
,,,C,U,d,n,R,D,y,L,y,,,,,5,19,119,6,5,0,5,0,,,,,1,0,36,26,,,,,,down,0.6834668990559294,2512.855220775098,None,001,74,2019_Oct_29_1401,ACPT_experiment_5_30_19,3.1.0,59.93843053025092,
,,,C,U,d,n,L,D,y,R,y,,,,,5,19,119,6,5,0,5,0,,,,,1,1,37,33,,,,,,down,0.5669769029773306,2514.8230089430544,None,001,74,2019_Oct_29_1401,ACPT_experiment_5_30_19,3.1.0,59.93843053025092,
,,,C,U,d,n,R,U,y,L,u,,,,,5,19,119,6,5,0,5,0,,,,,1,2,38,30,,,,,,down,0.6171361162923859,2516.6744103492747,None,001,74,2019_Oct_29_1401,ACPT_experiment_5_30_19,3.1.0,59.93843053025092,
,,,C,U,d,n,R,D,y,R,y,,,,,5,19,119,6,5,0,5,0,,,,,1,3,39,27,,,,,,down,0.6838571973203216,2518.609214238735,None,001,74,2019_Oct_29_1401,ACPT_experiment_5_30_19,3.1.0,59.93843053025092,
,,,C,U,d,n,R,G,d,R,i,,,,,5,19,119,6,5,0,5,0,,,,,1,4,40,5,,,,,,up,0.6004462621458515,2520.6107361906725,None,001,74,2019_Oct_29_1401,ACPT_experiment_5_30_19,3.1.0,59.93843053025092,
,,,C,U,d,n,R,U,d,L,u,,,,,5,19,119,6,5,0,5,0,,,,,1,5,41,8,,,,,,up,0.7338678980740951,2522.4955191163135,None,001,74,2019_Oct_29_1401,ACPT_experiment_5_30_19,3.1.0,59.93843053025092,
,,,C,U,d,n,L,D,d,R,c ,,,,,5,19,119,6,5,0,5,0,,,,,1,6,42,13,,,,,,up,0.6671730784146348,2524.5137004350654,None,001,74,2019_Oct_29_1401,ACPT_experiment_5_30_19,3.1.0,59.93843053025092,
,,,C,U,d,n,R,U,y,R,u,,,,,5,19,119,6,5,0,5,0,,,,,1,7,43,31,,,,,,down,0.6169248179285205,2526.4987094197713,None,001,74,2019_Oct_29_1401,ACPT_experiment_5_30_19,3.1.0,59.93843053025092,
,,,C,U,d,n,L,G,d,L,i,,,,,5,19,119,6,5,0,5,0,,,,,1,8,44,16,,,,,,up,0.7338869149243692,2528.416666490586,None,001,74,2019_Oct_29_1401,ACPT_experiment_5_30_19,3.1.0,59.93843053025092,
,,,C,U,d,n,R,G,g,L,c ,,,,,5,19,119,6,5,0,5,0,,,,,1,9,45,6,,,,,,up,0.600491540364601,2530.434877391108,None,001,74,2019_Oct_29_1401,ACPT_experiment_5_30_19,3.1.0,59.93843053025092,
,,,C,U,d,n,R,D,g,L,i,,,,,5,19,119,6,5,0,5,0,,,,,1,10,46,2,,,,,,up,0.75056831713664,2532.3196301312673,None,001,74,2019_Oct_29_1401,ACPT_experiment_5_30_19,3.1.0,59.93843053025092,
,,,C,U,d,n,L,G,g,R,c ,,,,,5,19,119,6,5,0,5,0,,,,,1,11,47,19,,,,,,up,0.6338057461689459,2534.3545082468263,None,001,74,2019_Oct_29_1401,ACPT_experiment_5_30_19,3.1.0,59.93843053025092,
,,,C,U,d,n,R,G,g,R,c ,,,,,5,19,119,6,5,0,5,0,,,,,1,12,48,7,,,,,,up,0.5003756583100767,2536.272629828509,None,001,74,2019_Oct_29_1401,ACPT_experiment_5_30_19,3.1.0,59.93843053025092,
,,,C,U,d,n,R,D,d,R,c ,,,,,5,19,119,6,5,0,5,0,,,,,1,13,49,1,,,,,,up,0.5837884046086401,2538.057321020475,None,001,74,2019_Oct_29_1401,ACPT_experiment_5_30_19,3.1.0,59.93843053025092,
,,,C,U,d,n,L,G,d,R,i,,,,,5,19,119,6,5,0,5,0,,,,,1,14,50,17,,,,,,up,0.6004390176312882,2539.9420997201523,None,001,74,2019_Oct_29_1401,ACPT_experiment_5_30_19,3.1.0,59.93843053025092,
,,,C,U,d,n,R,G,y,R,y,,,,,5,19,119,6,5,0,5,0,,,,,1,15,51,29,,,,,,down,0.7172103423908993,2541.8268515547497,None,001,74,2019_Oct_29_1401,ACPT_experiment_5_30_19,3.1.0,59.93843053025092,
,,,C,U,d,n,L,D,g,L,i,,,,,5,19,119,6,5,0,5,0,,,,,1,16,52,14,,,,,,up,0.6504892613666016,2543.828373204833,None,001,74,2019_Oct_29_1401,ACPT_experiment_5_30_19,3.1.0,59.93843053025092,
,,,C,U,d,n,L,U,d,L,u,,,,,5,19,119,6,5,0,5,0,,,,,1,17,53,20,,,,,,up,0.6504756778958836,2545.763190375903,None,001,74,2019_Oct_29_1401,ACPT_experiment_5_30_19,3.1.0,59.93843053025092,
,,,C,U,d,n,R,U,g,R,u,,,,,5,19,119,6,5,0,5,0,,,,,1,18,54,11,,,,,,up,0.7005289401786285,2547.6979788707686,None,001,74,2019_Oct_29_1401,ACPT_experiment_5_30_19,3.1.0,59.93843053025092,
,,,C,U,d,n,R,G,d,L,i,,,,,5,19,119,6,5,0,5,0,,,,,1,19,55,4,,,,,,up,0.5504147334104346,2549.6828197223476,None,001,74,2019_Oct_29_1401,ACPT_experiment_5_30_19,3.1.0,59.93843053025092,
,,,C,U,d,n,L,D,g,R,i,,,,,5,19,119,6,5,0,5,0,,,,,1,20,56,15,,,,,,up,0.4670270410606463,2551.5175454616,None,001,74,2019_Oct_29_1401,ACPT_experiment_5_30_19,3.1.0,59.93843053025092,
,,,C,U,d,n,L,U,y,L,u,,,,,5,19,119,6,5,0,5,0,,,,,1,21,57,24,,,,,,down,0.5834998314167024,2553.2858329577757,None,001,74,2019_Oct_29_1401,ACPT_experiment_5_30_19,3.1.0,59.93843053025092,
,,,C,U,d,n,R,U,g,L,u,,,,,5,19,119,6,5,0,5,0,,,,,1,22,58,10,,,,,,up,0.5670931170752738,2555.15363956906,None,001,74,2019_Oct_29_1401,ACPT_experiment_5_30_19,3.1.0,59.93843053025092,
,,,C,U,d,n,R,D,d,L,c,,,,,5,19,119,6,5,0,5,0,,,,,1,23,59,0,,,,,,up,0.5837748211451981,2557.005047314233,None,001,74,2019_Oct_29_1401,ACPT_experiment_5_30_19,3.1.0,59.93843053025092,
,,,C,U,d,n,L,G,g,L,c ,,,,,5,19,119,6,5,0,5,0,,,,,1,24,60,18,,,,,,up,0.43365759582957253,2558.873135254198,None,001,74,2019_Oct_29_1401,ACPT_experiment_5_30_19,3.1.0,59.93843053025092,
,,,C,U,d,n,L,U,g,R,u,,,,,5,19,119,6,5,0,5,0,,,,,1,25,61,23,,,,,,up,0.483428925719636,2560.608051192161,None,001,74,2019_Oct_29_1401,ACPT_experiment_5_30_19,3.1.0,59.93843053025092,
,,,C,U,d,n,L,U,y,R,u,,,,,5,19,119,6,5,0,5,0,,,,,1,26,62,25,,,,,,down,0.7172018904566357,2562.3924707148035,None,001,74,2019_Oct_29_1401,ACPT_experiment_5_30_19,3.1.0,59.93843053025092,
,,,C,U,d,n,L,U,d,R,u,,,,,5,19,119,6,5,0,5,0,,,,,1,27,63,21,,,,,,up,0.5337158236216055,2564.410687954274,None,001,74,2019_Oct_29_1401,ACPT_experiment_5_30_19,3.1.0,59.93843053025092,
,,,C,U,d,n,L,D,d,L,c ,,,,,5,19,119,6,5,0,5,0,,,,,1,28,64,12,,,,,,up,0.8340034006978385,2566.228715085588,None,001,74,2019_Oct_29_1401,ACPT_experiment_5_30_19,3.1.0,59.93843053025092,
,,,C,U,d,n,R,D,g,R,i,,,,,5,19,119,6,5,0,5,0,,,,,1,29,65,3,,,,,,up,0.5670931170752738,2568.3469920621246,None,001,74,2019_Oct_29_1401,ACPT_experiment_5_30_19,3.1.0,59.93843053025092,
