facing_vig,person_vig,text_vig,facing_train,person_train,food_train,correct_key_train,facing_exp,person_exp,food_exp,showL_R,consistent,vig_random.thisRepN,vig_random.thisTrialN,vig_random.thisN,vig_random.thisIndex,trainTrials.thisRepN,trainTrials.thisTrialN,trainTrials.thisN,trainTrials.thisIndex,expBlock.thisRepN,expBlock.thisTrialN,expBlock.thisN,expBlock.thisIndex,breakLoop.thisRepN,breakLoop.thisTrialN,breakLoop.thisN,breakLoop.thisIndex,expTrials.thisRepN,expTrials.thisTrialN,expTrials.thisN,expTrials.thisIndex,train_resp.keys,train_resp.corr,train_resp.rt,train_resp.started,train_resp.stopped,exp_resp.keys,exp_resp.rt,exp_resp.started,exp_resp.stopped,session,participant,date,expName,psychopyVersion,frameRate,
C,G,"cannot eat dairy products because she is lactose intolerant. She enjoys eating wheat products. She thinks eating insects, like crickets, is disgusting.",,,,,,,,,,0,0,0,0,,,,,,,,,,,,,,,,,,,,,,,,,,001,75,2019_Oct_29_1503,ACPT_experiment_5_30_19,3.1.0,59.95405065544141,
C,U,"did not report her food preferences, so her food preferences are unknown.",,,,,,,,,,0,1,1,2,,,,,,,,,,,,,,,,,,,,,,,,,,001,75,2019_Oct_29_1503,ACPT_experiment_5_30_19,3.1.0,59.95405065544141,
C,D,"is allergic to gluten, meaning she can’t eat wheat products. She enjoys eating dairy products. She thinks eating insects, like crickets, is disgusting.",,,,,,,,,,0,2,2,1,,,,,,,,,,,,,,,,,,,,,,,,,,001,75,2019_Oct_29_1503,ACPT_experiment_5_30_19,3.1.0,59.95405065544141,
,,,C,D,d,v,,,,,,,,,,0,0,0,0,,,,,,,,,,,,,v,1,3.085433060528885,1353.710754573629,None,,,,,001,75,2019_Oct_29_1503,ACPT_experiment_5_30_19,3.1.0,59.95405065544141,
,,,C,D,g,b,,,,,,,,,,0,1,1,10,,,,,,,,,,,,,b,1,2.9356098417956673,1360.0654596297863,None,,,,,001,75,2019_Oct_29_1503,ACPT_experiment_5_30_19,3.1.0,59.95405065544141,
,,,C,G,d,b,,,,,,,,,,0,2,2,12,,,,,,,,,,,,,b,1,1.4511355928771081,1366.2868595659747,None,,,,,001,75,2019_Oct_29_1503,ACPT_experiment_5_30_19,3.1.0,59.95405065544141,
,,,C,D,g,b,,,,,,,,,,0,3,3,1,,,,,,,,,,,,,b,1,2.7020717200975923,1371.0237921959051,None,,,,,001,75,2019_Oct_29_1503,ACPT_experiment_5_30_19,3.1.0,59.95405065544141,
,,,C,G,y,b,,,,,,,,,,0,4,4,5,,,,,,,,,,,,,b,1,2.184975116597343,1377.0117122683732,None,,,,,001,75,2019_Oct_29_1503,ACPT_experiment_5_30_19,3.1.0,59.95405065544141,
,,,C,G,g,v,,,,,,,,,,0,5,5,19,,,,,,,,,,,,,v,1,3.052331058657728,1382.4825097778303,None,,,,,001,75,2019_Oct_29_1503,ACPT_experiment_5_30_19,3.1.0,59.95405065544141,
,,,C,D,d,v,,,,,,,,,,0,6,6,9,,,,,,,,,,,,,v,1,1.7513658175375895,1388.8206384772493,None,,,,,001,75,2019_Oct_29_1503,ACPT_experiment_5_30_19,3.1.0,59.95405065544141,
,,,C,U,d,n,,,,,,,,,,0,7,7,6,,,,,,,,,,,,,n,1,2.635353053912695,1393.8578227635335,None,,,,,001,75,2019_Oct_29_1503,ACPT_experiment_5_30_19,3.1.0,59.95405065544141,
,,,C,U,y,n,,,,,,,,,,0,8,8,17,,,,,,,,,,,,,n,1,0.8006224849850696,1399.7623089598637,None,,,,,001,75,2019_Oct_29_1503,ACPT_experiment_5_30_19,3.1.0,59.95405065544141,
,,,C,U,g,n,,,,,,,,,,0,9,9,7,,,,,,,,,,,,,n,1,0.6169362884102156,1403.8490182625173,None,,,,,001,75,2019_Oct_29_1503,ACPT_experiment_5_30_19,3.1.0,59.95405065544141,
,,,C,U,g,n,,,,,,,,,,0,10,10,16,,,,,,,,,,,,,n,1,0.8339804597308103,1407.735043018838,None,,,,,001,75,2019_Oct_29_1503,ACPT_experiment_5_30_19,3.1.0,59.95405065544141,
,,,C,G,g,v,,,,,,,,,,0,11,11,4,,,,,,,,,,,,,v,1,2.3847634560079314,1411.8717880761906,None,,,,,001,75,2019_Oct_29_1503,ACPT_experiment_5_30_19,3.1.0,59.95405065544141,
,,,C,G,y,b,,,,,,,,,,0,12,12,14,,,,,,,,,,,,,b,1,1.51788112414215,1417.5258271500898,None,,,,,001,75,2019_Oct_29_1503,ACPT_experiment_5_30_19,3.1.0,59.95405065544141,
,,,C,D,y,b,,,,,,,,,,0,13,13,2,,,,,,,,,,,,,b,1,1.4844778711740219,1422.3294733146759,None,,,,,001,75,2019_Oct_29_1503,ACPT_experiment_5_30_19,3.1.0,59.95405065544141,
,,,C,U,d,n,,,,,,,,,,0,14,14,15,,,,,,,,,,,,,n,1,0.8173223003395833,1427.0997702583045,None,,,,,001,75,2019_Oct_29_1503,ACPT_experiment_5_30_19,3.1.0,59.95405065544141,
,,,C,G,g,v,,,,,,,,,,0,15,15,13,,,,,,,,,,,,,v,1,2.5850232926241006,1431.2198544395724,None,,,,,001,75,2019_Oct_29_1503,ACPT_experiment_5_30_19,3.1.0,59.95405065544141,
,,,C,G,d,b,,,,,,,,,,0,16,16,3,,,,,,,,,,,,,b,1,1.334359438442334,1437.0740181191359,None,,,,,001,75,2019_Oct_29_1503,ACPT_experiment_5_30_19,3.1.0,59.95405065544141,
,,,C,D,d,v,,,,,,,,,,0,17,17,18,,,,,,,,,,,,,v,1,2.034883247088146,1441.694211119062,None,,,,,001,75,2019_Oct_29_1503,ACPT_experiment_5_30_19,3.1.0,59.95405065544141,
,,,C,D,y,b,,,,,,,,,,0,18,18,11,,,,,,,,,,,,,b,1,1.417756790149724,1447.0149080052179,None,,,,,001,75,2019_Oct_29_1503,ACPT_experiment_5_30_19,3.1.0,59.95405065544141,
,,,C,U,y,n,,,,,,,,,,0,19,19,8,,,,,,,,,,,,,n,1,1.1475665521938936,1451.7718397235476,None,,,,,001,75,2019_Oct_29_1503,ACPT_experiment_5_30_19,3.1.0,59.95405065544141,
,,,C,D,y,b,,,,,,,,,,1,0,20,2,,,,,,,,,,,,,b,1,1.0341225729716825,1456.205235309404,None,,,,,001,75,2019_Oct_29_1503,ACPT_experiment_5_30_19,3.1.0,59.95405065544141,
,,,C,U,y,n,,,,,,,,,,1,1,21,8,,,,,,,,,,,,,n,1,1.1171477377065457,1460.5422395996684,None,,,,,001,75,2019_Oct_29_1503,ACPT_experiment_5_30_19,3.1.0,59.95405065544141,
,,,C,U,d,n,,,,,,,,,,1,2,22,6,,,,,,,,,,,,,n,1,0.7506030304430169,1464.9285035759203,None,,,,,001,75,2019_Oct_29_1503,ACPT_experiment_5_30_19,3.1.0,59.95405065544141,
,,,C,D,y,b,,,,,,,,,,1,3,23,11,,,,,,,,,,,,,b,1,1.1172850816401478,1468.9818633557625,None,,,,,001,75,2019_Oct_29_1503,ACPT_experiment_5_30_19,3.1.0,59.95405065544141,
,,,C,G,g,v,,,,,,,,,,1,4,24,4,,,,,,,,,,,,,v,1,2.535286072328745,1473.384959963485,None,,,,,001,75,2019_Oct_29_1503,ACPT_experiment_5_30_19,3.1.0,59.95405065544141,
,,,C,G,g,v,,,,,,,,,,1,5,25,19,,,,,,,,,,,,,v,1,1.367863510917232,1479.1892228174438,None,,,,,001,75,2019_Oct_29_1503,ACPT_experiment_5_30_19,3.1.0,59.95405065544141,
,,,C,D,d,v,,,,,,,,,,1,6,26,9,,,,,,,,,,,,,v,1,1.5678734117500426,1483.842908117509,None,,,,,001,75,2019_Oct_29_1503,ACPT_experiment_5_30_19,3.1.0,59.95405065544141,
,,,C,U,d,n,,,,,,,,,,1,7,27,15,,,,,,,,,,,,,n,1,0.8173005667922553,1488.6966036202648,None,,,,,001,75,2019_Oct_29_1503,ACPT_experiment_5_30_19,3.1.0,59.95405065544141,
,,,C,D,g,b,,,,,,,,,,1,8,28,10,,,,,,,,,,,,,b,1,1.8510506509337574,1492.8166376936351,None,,,,,001,75,2019_Oct_29_1503,ACPT_experiment_5_30_19,3.1.0,59.95405065544141,
,,,C,G,y,b,,,,,,,,,,1,9,29,5,,,,,,,,,,,,,b,1,1.1342297012452036,1497.9536172921726,None,,,,,001,75,2019_Oct_29_1503,ACPT_experiment_5_30_19,3.1.0,59.95405065544141,
,,,C,D,d,v,,,,,,,,,,1,10,30,0,,,,,,,,,,,,,v,1,2.0679529504959646,1502.3906689434552,None,,,,,001,75,2019_Oct_29_1503,ACPT_experiment_5_30_19,3.1.0,59.95405065544141,
,,,C,U,y,n,,,,,,,,,,1,11,31,17,,,,,,,,,,,,,n,1,0.6671739839803195,1507.7444243643913,None,,,,,001,75,2019_Oct_29_1503,ACPT_experiment_5_30_19,3.1.0,59.95405065544141,
,,,C,U,g,n,,,,,,,,,,1,12,32,7,,,,,,,,,,,,,n,1,0.7503189850649505,1511.6976842604745,None,,,,,001,75,2019_Oct_29_1503,ACPT_experiment_5_30_19,3.1.0,59.95405065544141,
,,,C,G,d,b,,,,,,,,,,1,13,33,3,,,,,,,,,,,,,b,1,1.2176047156972345,1515.733817488319,None,,,,,001,75,2019_Oct_29_1503,ACPT_experiment_5_30_19,3.1.0,59.95405065544141,
,,,C,D,d,v,,,,,,,,,,1,14,34,18,,,,,,,,,,,,,v,1,1.617910675729945,1520.237245804292,None,,,,,001,75,2019_Oct_29_1503,ACPT_experiment_5_30_19,3.1.0,59.95405065544141,
,,,C,G,y,b,,,,,,,,,,1,15,35,14,,,,,,,,,,,,,b,1,1.2509563514904585,1525.1409785710239,None,,,,,001,75,2019_Oct_29_1503,ACPT_experiment_5_30_19,3.1.0,59.95405065544141,
,,,C,D,g,b,,,,,,,,,,1,16,36,1,,,,,,,,,,,,,b,1,1.434193991819484,1529.6946771828843,None,,,,,001,75,2019_Oct_29_1503,ACPT_experiment_5_30_19,3.1.0,59.95405065544141,
,,,C,G,g,v,,,,,,,,,,1,17,37,13,,,,,,,,,,,,,v,1,1.1175437712081475,1534.4146754562753,None,,,,,001,75,2019_Oct_29_1503,ACPT_experiment_5_30_19,3.1.0,59.95405065544141,
,,,C,U,g,n,,,,,,,,,,1,18,38,16,,,,,,,,,,,,,n,1,0.7002983231031976,1538.8349599785797,None,,,,,001,75,2019_Oct_29_1503,ACPT_experiment_5_30_19,3.1.0,59.95405065544141,
,,,C,G,d,b,,,,,,,,,,1,19,39,12,,,,,,,,,,,,,b,1,1.2176038101315498,1542.8210770722835,None,,,,,001,75,2019_Oct_29_1503,ACPT_experiment_5_30_19,3.1.0,59.95405065544141,
,,,C,G,y,b,,,,,,,,,,2,0,40,14,,,,,,,,,,,,,b,1,0.6972248374586343,1547.3444927043201,None,,,,,001,75,2019_Oct_29_1503,ACPT_experiment_5_30_19,3.1.0,59.95405065544141,
,,,C,D,g,b,,,,,,,,,,2,1,41,1,,,,,,,,,,,,,b,1,0.9841203241558105,1551.3275453680217,None,,,,,001,75,2019_Oct_29_1503,ACPT_experiment_5_30_19,3.1.0,59.95405065544141,
,,,C,U,d,n,,,,,,,,,,2,2,42,15,,,,,,,,,,,,,n,1,0.7668603266502032,1555.6145066590689,None,,,,,001,75,2019_Oct_29_1503,ACPT_experiment_5_30_19,3.1.0,59.95405065544141,
,,,C,D,d,v,,,,,,,,,,2,3,43,0,,,,,,,,,,,,,v,1,1.2342719307307561,1559.6672310345384,None,,,,,001,75,2019_Oct_29_1503,ACPT_experiment_5_30_19,3.1.0,59.95405065544141,
,,,C,U,g,n,,,,,,,,,,2,4,44,7,,,,,,,,,,,,,n,1,0.6502628702619404,1564.2042482441866,None,,,,,001,75,2019_Oct_29_1503,ACPT_experiment_5_30_19,3.1.0,59.95405065544141,
,,,C,D,d,v,,,,,,,,,,2,5,45,9,,,,,,,,,,,,,v,1,2.5519493632491503,1568.140323244239,None,,,,,001,75,2019_Oct_29_1503,ACPT_experiment_5_30_19,3.1.0,59.95405065544141,
,,,C,U,y,n,,,,,,,,,,2,6,46,8,,,,,,,,,,,,,n,1,0.6671824359109451,1573.97809318922,None,,,,,001,75,2019_Oct_29_1503,ACPT_experiment_5_30_19,3.1.0,59.95405065544141,
,,,C,D,y,b,,,,,,,,,,2,7,47,2,,,,,,,,,,,,,b,1,0.8672270500537707,1577.9310802085565,None,,,,,001,75,2019_Oct_29_1503,ACPT_experiment_5_30_19,3.1.0,59.95405065544141,
,,,C,G,g,v,,,,,,,,,,2,8,48,13,,,,,,,,,,,,,v,1,1.3009951247440767,1582.0842564304876,None,,,,,001,75,2019_Oct_29_1503,ACPT_experiment_5_30_19,3.1.0,59.95405065544141,
,,,C,D,y,b,,,,,,,,,,2,9,49,11,,,,,,,,,,,,,b,1,0.7334881647257134,1586.6881396114695,None,,,,,001,75,2019_Oct_29_1503,ACPT_experiment_5_30_19,3.1.0,59.95405065544141,
,,,C,D,g,b,,,,,,,,,,2,10,50,10,,,,,,,,,,,,,b,1,1.3844250767688209,1590.707475223,None,,,,,001,75,2019_Oct_29_1503,ACPT_experiment_5_30_19,3.1.0,59.95405065544141,
,,,C,G,d,b,,,,,,,,,,2,11,51,3,,,,,,,,,,,,,b,1,0.9172051504901901,1595.3945127625702,None,,,,,001,75,2019_Oct_29_1503,ACPT_experiment_5_30_19,3.1.0,59.95405065544141,
,,,C,D,d,v,,,,,,,,,,2,12,52,18,,,,,,,,,,,,,v,1,1.2509608793152438,1599.597560832044,None,,,,,001,75,2019_Oct_29_1503,ACPT_experiment_5_30_19,3.1.0,59.95405065544141,
,,,C,G,g,v,,,,,,,,,,2,13,53,19,,,,,,,,,,,,,v,1,1.3505980196532619,1604.151438745659,None,,,,,001,75,2019_Oct_29_1503,ACPT_experiment_5_30_19,3.1.0,59.95405065544141,
,,,C,U,d,n,,,,,,,,,,2,14,54,6,,,,,,,,,,,,,n,1,0.383620331853308,1608.7878926640515,None,,,,,001,75,2019_Oct_29_1503,ACPT_experiment_5_30_19,3.1.0,59.95405065544141,
,,,C,G,y,b,,,,,,,,,,2,15,55,5,,,,,,,,,,,,,b,1,0.8170771942350257,1612.4742564636908,None,,,,,001,75,2019_Oct_29_1503,ACPT_experiment_5_30_19,3.1.0,59.95405065544141,
,,,C,U,g,n,,,,,,,,,,2,16,56,16,,,,,,,,,,,,,n,1,1.1508824272532365,1616.5771376376397,None,,,,,001,75,2019_Oct_29_1503,ACPT_experiment_5_30_19,3.1.0,59.95405065544141,
,,,C,G,d,b,,,,,,,,,,2,17,57,12,,,,,,,,,,,,,b,1,1.5678818636879441,1621.0138282705739,None,,,,,001,75,2019_Oct_29_1503,ACPT_experiment_5_30_19,3.1.0,59.95405065544141,
,,,C,G,g,v,,,,,,,,,,2,18,58,4,,,,,,,,,,,,,v,1,1.034144004664995,1625.8508423711173,None,,,,,001,75,2019_Oct_29_1503,ACPT_experiment_5_30_19,3.1.0,59.95405065544141,
,,,C,U,y,n,,,,,,,,,,2,19,59,17,,,,,,,,,,,,,n,1,0.6167388753674459,1630.1878647726662,None,,,,,001,75,2019_Oct_29_1503,ACPT_experiment_5_30_19,3.1.0,59.95405065544141,
,,,C,D,y,b,,,,,,,,,,3,0,60,11,,,,,,,,,,,,,b,1,1.1341629913331417,1634.0904891285463,None,,,,,001,75,2019_Oct_29_1503,ACPT_experiment_5_30_19,3.1.0,59.95405065544141,
,,,C,G,g,v,,,,,,,,,,3,1,61,13,,,,,,,,,,,,,v,1,1.1004110960602702,1638.527564928212,None,,,,,001,75,2019_Oct_29_1503,ACPT_experiment_5_30_19,3.1.0,59.95405065544141,
,,,C,U,y,n,,,,,,,,,,3,2,62,8,,,,,,,,,,,,,n,1,0.8673305862539564,1642.9138201506794,None,,,,,001,75,2019_Oct_29_1503,ACPT_experiment_5_30_19,3.1.0,59.95405065544141,
,,,C,G,y,b,,,,,,,,,,3,3,63,14,,,,,,,,,,,,,b,1,0.7336505626117287,1647.083901449234,None,,,,,001,75,2019_Oct_29_1503,ACPT_experiment_5_30_19,3.1.0,59.95405065544141,
,,,C,U,d,n,,,,,,,,,,3,4,64,15,,,,,,,,,,,,,n,1,1.0674829625604616,1651.1033747065594,None,,,,,001,75,2019_Oct_29_1503,ACPT_experiment_5_30_19,3.1.0,59.95405065544141,
,,,C,U,g,n,,,,,,,,,,3,5,65,16,,,,,,,,,,,,,n,1,0.6505097874905914,1655.4566930417313,None,,,,,001,75,2019_Oct_29_1503,ACPT_experiment_5_30_19,3.1.0,59.95405065544141,
,,,C,D,d,v,,,,,,,,,,3,6,66,9,,,,,,,,,,,,,v,1,1.5345401891026995,1659.3930092237752,None,,,,,001,75,2019_Oct_29_1503,ACPT_experiment_5_30_19,3.1.0,59.95405065544141,
,,,C,G,d,b,,,,,,,,,,3,7,67,12,,,,,,,,,,,,,b,1,0.9674165846881806,1664.213329244205,None,,,,,001,75,2019_Oct_29_1503,ACPT_experiment_5_30_19,3.1.0,59.95405065544141,
,,,C,D,d,v,,,,,,,,,,3,8,68,0,,,,,,,,,,,,,v,1,1.3009954265980923,1668.4665772773951,None,,,,,001,75,2019_Oct_29_1503,ACPT_experiment_5_30_19,3.1.0,59.95405065544141,
,,,C,D,g,b,,,,,,,,,,3,9,69,10,,,,,,,,,,,,,b,1,0.95073638989561,1673.0367046389947,None,,,,,001,75,2019_Oct_29_1503,ACPT_experiment_5_30_19,3.1.0,59.95405065544141,
,,,C,G,y,b,,,,,,,,,,3,10,70,5,,,,,,,,,,,,,b,1,0.8170201436769275,1677.2902183044134,None,,,,,001,75,2019_Oct_29_1503,ACPT_experiment_5_30_19,3.1.0,59.95405065544141,
,,,C,D,g,b,,,,,,,,,,3,11,71,1,,,,,,,,,,,,,b,1,1.2009133522733464,1681.3930680854646,None,,,,,001,75,2019_Oct_29_1503,ACPT_experiment_5_30_19,3.1.0,59.95405065544141,
,,,C,U,d,n,,,,,,,,,,3,12,72,6,,,,,,,,,,,,,n,1,0.6336508946551476,1685.8966237841669,None,,,,,001,75,2019_Oct_29_1503,ACPT_experiment_5_30_19,3.1.0,59.95405065544141,
,,,C,G,d,b,,,,,,,,,,3,13,73,3,,,,,,,,,,,,,b,1,1.217596263762971,1689.816126653448,None,,,,,001,75,2019_Oct_29_1503,ACPT_experiment_5_30_19,3.1.0,59.95405065544141,
,,,C,D,d,v,,,,,,,,,,3,14,74,18,,,,,,,,,,,,,v,1,0.7503609428858908,1694.3364458588694,None,,,,,001,75,2019_Oct_29_1503,ACPT_experiment_5_30_19,3.1.0,59.95405065544141,
,,,C,U,y,n,,,,,,,,,,3,15,75,17,,,,,,,,,,,,,n,1,0.8506579378299648,1698.372626176064,None,,,,,001,75,2019_Oct_29_1503,ACPT_experiment_5_30_19,3.1.0,59.95405065544141,
,,,C,G,g,v,,,,,,,,,,3,16,76,19,,,,,,,,,,,,,v,1,1.300773261460563,1702.526017620472,None,,,,,001,75,2019_Oct_29_1503,ACPT_experiment_5_30_19,3.1.0,59.95405065544141,
,,,C,G,g,v,,,,,,,,,,3,17,77,4,,,,,,,,,,,,,v,1,0.8840210441085219,1707.0959164779815,None,,,,,001,75,2019_Oct_29_1503,ACPT_experiment_5_30_19,3.1.0,59.95405065544141,
,,,C,U,g,n,,,,,,,,,,3,18,78,7,,,,,,,,,,,,,n,1,0.5971451779769268,1711.28575538109,None,,,,,001,75,2019_Oct_29_1503,ACPT_experiment_5_30_19,3.1.0,59.95405065544141,
,,,C,D,y,b,,,,,,,,,,3,19,79,2,,,,,,,,,,,,,b,1,0.833971102230862,1715.1687362335324,None,,,,,001,75,2019_Oct_29_1503,ACPT_experiment_5_30_19,3.1.0,59.95405065544141,
,,,C,G,y,b,,,,,,,,,,4,0,80,5,,,,,,,,,,,,,b,1,0.8502887694012315,1719.3055833178114,None,,,,,001,75,2019_Oct_29_1503,ACPT_experiment_5_30_19,3.1.0,59.95405065544141,
,,,C,U,y,n,,,,,,,,,,4,1,81,17,,,,,,,,,,,,,n,1,1.034151551037212,1723.441654031525,None,,,,,001,75,2019_Oct_29_1503,ACPT_experiment_5_30_19,3.1.0,59.95405065544141,
,,,C,D,d,v,,,,,,,,,,4,2,82,9,,,,,,,,,,,,,v,1,1.6012114640834625,1727.76163793663,None,,,,,001,75,2019_Oct_29_1503,ACPT_experiment_5_30_19,3.1.0,59.95405065544141,
,,,C,U,g,n,,,,,,,,,,4,3,83,7,,,,,,,,,,,,,n,1,1.0007558444376627,1732.6486877918724,None,,,,,001,75,2019_Oct_29_1503,ACPT_experiment_5_30_19,3.1.0,59.95405065544141,
,,,C,U,g,n,,,,,,,,,,4,4,84,16,,,,,,,,,,,,,n,1,0.6506453202964622,1736.9351202332982,None,,,,,001,75,2019_Oct_29_1503,ACPT_experiment_5_30_19,3.1.0,59.95405065544141,
,,,C,G,g,v,,,,,,,,,,4,5,85,4,,,,,,,,,,,,,v,1,1.0674917163487407,1740.8715864371807,None,,,,,001,75,2019_Oct_29_1503,ACPT_experiment_5_30_19,3.1.0,59.95405065544141,
,,,C,D,g,b,,,,,,,,,,4,6,86,1,,,,,,,,,,,,,b,1,0.9474205148362671,1745.244884843898,None,,,,,001,75,2019_Oct_29_1503,ACPT_experiment_5_30_19,3.1.0,59.95405065544141,
,,,C,G,d,b,,,,,,,,,,4,7,87,3,,,,,,,,,,,,,b,1,1.0341361564387626,1749.4781286571597,None,,,,,001,75,2019_Oct_29_1503,ACPT_experiment_5_30_19,3.1.0,59.95405065544141,
,,,C,D,y,b,,,,,,,,,,4,8,88,11,,,,,,,,,,,,,b,1,0.7169878753993544,1753.8316727797283,None,,,,,001,75,2019_Oct_29_1503,ACPT_experiment_5_30_19,3.1.0,59.95405065544141,
,,,C,D,d,v,,,,,,,,,,4,9,89,18,,,,,,,,,,,,,v,1,1.6179164109707926,1757.8177971179502,None,,,,,001,75,2019_Oct_29_1503,ACPT_experiment_5_30_19,3.1.0,59.95405065544141,
,,,C,D,d,v,,,,,,,,,,4,10,90,0,,,,,,,,,,,,,v,1,1.0508223883298342,1762.7048439546488,None,,,,,001,75,2019_Oct_29_1503,ACPT_experiment_5_30_19,3.1.0,59.95405065544141,
,,,C,G,g,v,,,,,,,,,,4,11,91,19,,,,,,,,,,,,,v,1,1.334098937742965,1767.0584110181808,None,,,,,001,75,2019_Oct_29_1503,ACPT_experiment_5_30_19,3.1.0,59.95405065544141,
,,,C,G,g,v,,,,,,,,,,4,12,92,13,,,,,,,,,,,,,v,1,1.084162553641363,1771.6616545688266,None,,,,,001,75,2019_Oct_29_1503,ACPT_experiment_5_30_19,3.1.0,59.95405065544141,
,,,C,D,y,b,,,,,,,,,,4,13,93,2,,,,,,,,,,,,,b,1,0.9169691000315652,1776.048687972987,None,,,,,001,75,2019_Oct_29_1503,ACPT_experiment_5_30_19,3.1.0,59.95405065544141,
,,,C,U,d,n,,,,,,,,,,4,14,94,15,,,,,,,,,,,,,n,1,0.783923273338587,1780.251522329254,None,,,,,001,75,2019_Oct_29_1503,ACPT_experiment_5_30_19,3.1.0,59.95405065544141,
,,,C,G,d,b,,,,,,,,,,4,15,95,12,,,,,,,,,,,,,b,1,1.3174099891621154,1784.3382168410208,None,,,,,001,75,2019_Oct_29_1503,ACPT_experiment_5_30_19,3.1.0,59.95405065544141,
,,,C,G,y,b,,,,,,,,,,4,16,96,14,,,,,,,,,,,,,b,1,0.9673927381554677,1788.9414579768309,None,,,,,001,75,2019_Oct_29_1503,ACPT_experiment_5_30_19,3.1.0,59.95405065544141,
,,,C,D,g,b,,,,,,,,,,4,17,97,10,,,,,,,,,,,,,b,1,1.1675611127720913,1793.1946824653423,None,,,,,001,75,2019_Oct_29_1503,ACPT_experiment_5_30_19,3.1.0,59.95405065544141,
,,,C,U,y,n,,,,,,,,,,4,18,98,8,,,,,,,,,,,,,n,1,1.4010904806782492,1797.6480469541166,None,,,,,001,75,2019_Oct_29_1503,ACPT_experiment_5_30_19,3.1.0,59.95405065544141,
,,,C,U,d,n,,,,,,,,,,4,19,99,6,,,,,,,,,,,,,n,1,0.9006810146311182,1802.3182841606795,None,,,,,001,75,2019_Oct_29_1503,ACPT_experiment_5_30_19,3.1.0,59.95405065544141,
,,,C,G,d,b,,,,,,,,,,5,0,100,12,,,,,,,,,,,,,b,1,0.900540350288793,1806.5049137434798,None,,,,,001,75,2019_Oct_29_1503,ACPT_experiment_5_30_19,3.1.0,59.95405065544141,
,,,C,G,g,v,,,,,,,,,,5,1,101,19,,,,,,,,,,,,,v,1,1.217338479757018,1810.708252499131,None,,,,,001,75,2019_Oct_29_1503,ACPT_experiment_5_30_19,3.1.0,59.95405065544141,
,,,C,G,g,v,,,,,,,,,,5,2,102,4,,,,,,,,,,,,,v,1,0.9674371108158084,1815.194722310178,None,,,,,001,75,2019_Oct_29_1503,ACPT_experiment_5_30_19,3.1.0,59.95405065544141,
,,,C,G,d,b,,,,,,,,,,5,3,103,3,,,,,,,,,,,,,b,1,1.00051285131849,1819.4482214865675,None,,,,,001,75,2019_Oct_29_1503,ACPT_experiment_5_30_19,3.1.0,59.95405065544141,
,,,C,D,g,b,,,,,,,,,,5,4,104,1,,,,,,,,,,,,,b,1,0.8673339066554036,1823.7345488825158,None,,,,,001,75,2019_Oct_29_1503,ACPT_experiment_5_30_19,3.1.0,59.95405065544141,
,,,C,U,g,n,,,,,,,,,,5,5,105,16,,,,,,,,,,,,,n,1,0.7501743966131471,1827.9047545452522,None,,,,,001,75,2019_Oct_29_1503,ACPT_experiment_5_30_19,3.1.0,59.95405065544141,
,,,C,G,y,b,,,,,,,,,,5,6,106,14,,,,,,,,,,,,,b,1,0.8172948315514077,1831.9407830294804,None,,,,,001,75,2019_Oct_29_1503,ACPT_experiment_5_30_19,3.1.0,59.95405065544141,
,,,C,D,d,v,,,,,,,,,,5,7,107,18,,,,,,,,,,,,,v,1,1.7013028959045187,1836.043898140906,None,,,,,001,75,2019_Oct_29_1503,ACPT_experiment_5_30_19,3.1.0,59.95405065544141,
,,,C,U,y,n,,,,,,,,,,5,8,108,17,,,,,,,,,,,,,n,1,0.9507566141655843,1841.030998677572,None,,,,,001,75,2019_Oct_29_1503,ACPT_experiment_5_30_19,3.1.0,59.95405065544141,
,,,C,D,y,b,,,,,,,,,,5,9,109,2,,,,,,,,,,,,,b,1,0.9171158014651155,1845.2845129467023,None,,,,,001,75,2019_Oct_29_1503,ACPT_experiment_5_30_19,3.1.0,59.95405065544141,
,,,C,D,d,v,,,,,,,,,,5,10,110,0,,,,,,,,,,,,,v,1,2.068271105461463,1849.4707455904281,None,,,,,001,75,2019_Oct_29_1503,ACPT_experiment_5_30_19,3.1.0,59.95405065544141,
,,,C,G,y,b,,,,,,,,,,5,11,111,5,,,,,,,,,,,,,b,1,0.7339306838730408,1854.8248098088297,None,,,,,001,75,2019_Oct_29_1503,ACPT_experiment_5_30_19,3.1.0,59.95405065544141,
,,,C,U,g,n,,,,,,,,,,5,12,112,7,,,,,,,,,,,,,n,1,0.5166709882214491,1858.861606815397,None,,,,,001,75,2019_Oct_29_1503,ACPT_experiment_5_30_19,3.1.0,59.95405065544141,
,,,C,D,g,b,,,,,,,,,,5,13,113,10,,,,,,,,,,,,,b,1,0.9840916479479347,1862.6641240430072,None,,,,,001,75,2019_Oct_29_1503,ACPT_experiment_5_30_19,3.1.0,59.95405065544141,
,,,C,D,y,b,,,,,,,,,,5,14,114,11,,,,,,,,,,,,,b,1,1.2476419857084693,1866.9540332480974,None,,,,,001,75,2019_Oct_29_1503,ACPT_experiment_5_30_19,3.1.0,59.95405065544141,
,,,C,U,d,n,,,,,,,,,,5,15,115,6,,,,,,,,,,,,,n,1,0.8506075280783989,1871.487537169647,None,,,,,001,75,2019_Oct_29_1503,ACPT_experiment_5_30_19,3.1.0,59.95405065544141,
,,,C,D,d,v,,,,,,,,,,5,16,116,9,,,,,,,,,,,,,v,1,1.5178337329380156,1875.6239728258224,None,,,,,001,75,2019_Oct_29_1503,ACPT_experiment_5_30_19,3.1.0,59.95405065544141,
,,,C,G,g,v,,,,,,,,,,5,17,117,13,,,,,,,,,,,,,v,1,1.7346898487121507,1880.4275999735582,None,,,,,001,75,2019_Oct_29_1503,ACPT_experiment_5_30_19,3.1.0,59.95405065544141,
,,,C,U,y,n,,,,,,,,,,5,18,118,8,,,,,,,,,,,,,n,1,0.8006239942587854,1885.4481004427907,None,,,,,001,75,2019_Oct_29_1503,ACPT_experiment_5_30_19,3.1.0,59.95405065544141,
,,,C,U,d,n,,,,,,,,,,5,19,119,15,0,0,0,0,0,0,0,0,,,,,n,1,0.8838227255037054,1889.5348040101999,None,,,,,001,75,2019_Oct_29_1503,ACPT_experiment_5_30_19,3.1.0,59.95405065544141,
,,,C,U,d,n,L,G,y,L,y,,,,,5,19,119,15,0,0,0,0,,,,,0,0,0,34,,,,,,down,1.664837929627538,1981.7577108055848,None,001,75,2019_Oct_29_1503,ACPT_experiment_5_30_19,3.1.0,59.95405065544141,
,,,C,U,d,n,L,U,d,R,u,,,,,5,19,119,15,0,0,0,0,,,,,0,1,1,21,,,,,,up,1.417780636678799,1984.7068340833903,None,001,75,2019_Oct_29_1503,ACPT_experiment_5_30_19,3.1.0,59.95405065544141,
,,,C,U,d,n,R,U,d,R,u,,,,,5,19,119,15,0,0,0,0,,,,,0,2,2,9,,,,,,up,1.0841776463821589,1987.4088834662325,None,001,75,2019_Oct_29_1503,ACPT_experiment_5_30_19,3.1.0,59.95405065544141,
,,,C,U,d,n,R,U,y,L,u,,,,,5,19,119,15,0,0,0,0,,,,,0,3,3,30,,,,,,down,0.9006692422917695,1989.7607024885801,None,001,75,2019_Oct_29_1503,ACPT_experiment_5_30_19,3.1.0,59.95405065544141,
,,,C,U,d,n,L,D,g,R,i,,,,,5,19,119,15,0,0,0,0,,,,,0,4,4,15,,,,,,up,0.9340426116359595,1991.9456863589694,None,001,75,2019_Oct_29_1503,ACPT_experiment_5_30_19,3.1.0,59.95405065544141,
,,,C,U,d,n,L,U,y,R,u,,,,,5,19,119,15,0,0,0,0,,,,,0,5,5,25,,,,,,down,0.7172055127157364,1994.1807195675246,None,001,75,2019_Oct_29_1503,ACPT_experiment_5_30_19,3.1.0,59.95405065544141,
,,,C,U,d,n,L,G,g,R,c ,,,,,5,19,119,15,0,0,0,0,,,,,0,6,6,19,,,,,,up,1.1175090579090465,1996.198918695707,None,001,75,2019_Oct_29_1503,ACPT_experiment_5_30_19,3.1.0,59.95405065544141,
,,,C,U,d,n,L,U,g,R,u,,,,,5,19,119,15,0,0,0,0,,,,,0,7,7,23,,,,,,up,1.2342695158949937,1998.600742079856,None,001,75,2019_Oct_29_1503,ACPT_experiment_5_30_19,3.1.0,59.95405065544141,
,,,C,U,d,n,R,G,y,L,y,,,,,5,19,119,15,0,0,0,0,,,,,0,8,8,28,,,,,,down,0.9841133814952627,2001.1193277331222,None,001,75,2019_Oct_29_1503,ACPT_experiment_5_30_19,3.1.0,59.95405065544141,
,,,C,U,d,n,L,G,d,R,i,,,,,5,19,119,15,0,0,0,0,,,,,0,9,9,17,,,,,,up,0.8506452599285694,2003.3877168034414,None,001,75,2019_Oct_29_1503,ACPT_experiment_5_30_19,3.1.0,59.95405065544141,
,,,C,U,d,n,R,D,d,R,c ,,,,,5,19,119,15,0,0,0,0,,,,,0,10,10,1,,,,,,up,0.7338848019426223,2005.522670050661,None,001,75,2019_Oct_29_1503,ACPT_experiment_5_30_19,3.1.0,59.95405065544141,
,,,C,U,d,n,R,D,y,L,y,,,,,5,19,119,15,0,0,0,0,,,,,0,11,11,26,,,,,,down,0.917378717003885,2007.5575279419427,None,001,75,2019_Oct_29_1503,ACPT_experiment_5_30_19,3.1.0,59.95405065544141,
,,,C,U,d,n,L,U,g,L,u,,,,,5,19,119,15,0,0,0,0,,,,,0,12,12,22,,,,,,up,2.3018216032069176,2009.775877937158,None,001,75,2019_Oct_29_1503,ACPT_experiment_5_30_19,3.1.0,59.95405065544141,
,,,C,U,d,n,R,G,g,L,c ,,,,,5,19,119,15,0,0,0,0,,,,,0,13,13,6,,,,,,up,0.9507252212679305,2013.3619550049189,None,001,75,2019_Oct_29_1503,ACPT_experiment_5_30_19,3.1.0,59.95405065544141,
,,,C,U,d,n,L,D,y,R,y,,,,,5,19,119,15,0,0,0,0,,,,,0,14,14,33,,,,,,down,0.6171409459711867,2015.5969870060544,None,001,75,2019_Oct_29_1503,ACPT_experiment_5_30_19,3.1.0,59.95405065544141,
,,,C,U,d,n,L,D,d,L,c ,,,,,5,19,119,15,0,0,0,0,,,,,0,15,15,12,,,,,,up,0.6837932041016757,2017.4984851416484,None,001,75,2019_Oct_29_1503,ACPT_experiment_5_30_19,3.1.0,59.95405065544141,
,,,C,U,d,n,R,D,y,R,y,,,,,5,19,119,15,0,0,0,0,,,,,0,16,16,27,,,,,,down,0.7839284048714035,2019.466573655136,None,001,75,2019_Oct_29_1503,ACPT_experiment_5_30_19,3.1.0,59.95405065544141,
,,,C,U,d,n,L,G,g,L,c ,,,,,5,19,119,15,0,0,0,0,,,,,0,17,17,18,,,,,,up,0.8339668762673682,2021.53483087528,None,001,75,2019_Oct_29_1503,ACPT_experiment_5_30_19,3.1.0,59.95405065544141,
,,,C,U,d,n,R,D,g,L,i,,,,,5,19,119,15,0,0,0,0,,,,,0,18,18,2,,,,,,up,1.6512336353189312,2023.6531332076192,None,001,75,2019_Oct_29_1503,ACPT_experiment_5_30_19,3.1.0,59.95405065544141,
,,,C,U,d,n,L,D,g,L,i,,,,,5,19,119,15,0,0,0,0,,,,,0,19,19,14,,,,,,up,0.884008064353111,2026.5886687931306,None,001,75,2019_Oct_29_1503,ACPT_experiment_5_30_19,3.1.0,59.95405065544141,
,,,C,U,d,n,L,D,d,R,c ,,,,,5,19,119,15,0,0,0,0,,,,,0,20,20,13,,,,,,up,0.6671930008342315,2028.7402835201465,None,001,75,2019_Oct_29_1503,ACPT_experiment_5_30_19,3.1.0,59.95405065544141,
,,,C,U,d,n,R,G,y,R,y,,,,,5,19,119,15,0,0,0,0,,,,,0,21,21,29,,,,,,down,0.7002512337567168,2030.7087466354496,None,001,75,2019_Oct_29_1503,ACPT_experiment_5_30_19,3.1.0,59.95405065544141,
,,,C,U,d,n,R,U,y,R,u,,,,,5,19,119,15,0,0,0,0,,,,,0,22,22,31,,,,,,down,0.7171943440844188,2032.6933281937527,None,001,75,2019_Oct_29_1503,ACPT_experiment_5_30_19,3.1.0,59.95405065544141,
,,,C,U,d,n,R,G,g,R,c ,,,,,5,19,119,15,0,0,0,0,,,,,0,23,23,7,,,,,,up,0.7672524360423267,2034.6948293177084,None,001,75,2019_Oct_29_1503,ACPT_experiment_5_30_19,3.1.0,59.95405065544141,
,,,C,U,d,n,R,U,d,L,u,,,,,5,19,119,15,0,0,0,0,,,,,0,24,24,8,,,,,,up,1.701312253404467,2036.746369214914,None,001,75,2019_Oct_29_1503,ACPT_experiment_5_30_19,3.1.0,59.95405065544141,
,,,C,U,d,n,L,U,y,L,u,,,,,5,19,119,15,0,0,0,0,,,,,0,25,25,24,,,,,,down,0.850634695008921,2039.7320009260911,None,001,75,2019_Oct_29_1503,ACPT_experiment_5_30_19,3.1.0,59.95405065544141,
,,,C,U,d,n,R,D,g,R,i,,,,,5,19,119,15,0,0,0,0,,,,,0,26,26,3,,,,,,up,0.9340670618767035,2041.8669194600043,None,001,75,2019_Oct_29_1503,ACPT_experiment_5_30_19,3.1.0,59.95405065544141,
,,,C,U,d,n,R,U,g,R,u,,,,,5,19,119,15,0,0,0,0,,,,,0,27,27,11,,,,,,up,0.8172948315514077,2044.085295414734,None,001,75,2019_Oct_29_1503,ACPT_experiment_5_30_19,3.1.0,59.95405065544141,
,,,C,U,d,n,R,D,d,L,c,,,,,5,19,119,15,0,0,0,0,,,,,0,28,28,0,,,,,,up,1.0172778673113498,2046.1870204847728,None,001,75,2019_Oct_29_1503,ACPT_experiment_5_30_19,3.1.0,59.95405065544141,
,,,C,U,d,n,R,G,d,R,i,,,,,5,19,119,15,0,0,0,0,,,,,0,29,29,5,,,,,,up,0.7672442859620787,2048.488641656386,None,001,75,2019_Oct_29_1503,ACPT_experiment_5_30_19,3.1.0,59.95405065544141,
,,,C,U,d,n,L,G,y,R,y,,,,,5,19,119,15,0,0,0,0,,,,,0,30,30,35,,,,,,down,0.6004737309340271,2050.5568831800774,None,001,75,2019_Oct_29_1503,ACPT_experiment_5_30_19,3.1.0,59.95405065544141,
,,,C,U,d,n,R,U,g,L,u,,,,,5,19,119,15,0,0,0,0,,,,,0,31,31,10,,,,,,up,0.7172215110185789,2052.458307663095,None,001,75,2019_Oct_29_1503,ACPT_experiment_5_30_19,3.1.0,59.95405065544141,
,,,C,U,d,n,L,G,d,L,i,,,,,5,19,119,15,0,0,0,0,,,,,0,32,32,16,,,,,,up,1.0006317821098492,2054.4599373772,None,001,75,2019_Oct_29_1503,ACPT_experiment_5_30_19,3.1.0,59.95405065544141,
,,,C,U,d,n,L,D,y,L,y,,,,,5,19,119,15,0,0,0,0,,,,,0,33,33,32,,,,,,down,0.7839184436634241,2056.7449148784544,None,001,75,2019_Oct_29_1503,ACPT_experiment_5_30_19,3.1.0,59.95405065544141,
,,,C,U,d,n,R,G,d,L,i,,,,,5,19,119,15,0,0,0,0,,,,,0,34,34,4,,,,,,up,0.6338081610083464,2058.8131503650475,None,001,75,2019_Oct_29_1503,ACPT_experiment_5_30_19,3.1.0,59.95405065544141,
,,,C,U,d,n,L,U,d,L,u,,,,,5,19,119,15,0,0,0,0,,,,,0,35,35,20,,,,,,up,0.8673375289108662,2060.7312740597154,None,001,75,2019_Oct_29_1503,ACPT_experiment_5_30_19,3.1.0,59.95405065544141,
,,,C,U,d,n,R,U,d,L,u,,,,,5,19,119,15,0,0,0,0,,,,,1,0,36,8,,,,,,up,0.8339538965083193,2062.8829274241434,None,001,75,2019_Oct_29_1503,ACPT_experiment_5_30_19,3.1.0,59.95405065544141,
,,,C,U,d,n,L,G,d,L,i,,,,,5,19,119,15,0,0,0,0,,,,,1,1,37,16,,,,,,up,0.8673299825459253,2065.0011781393114,None,001,75,2019_Oct_29_1503,ACPT_experiment_5_30_19,3.1.0,59.95405065544141,
,,,C,U,d,n,L,U,y,R,u,,,,,5,19,119,15,0,0,0,0,,,,,1,2,38,25,,,,,,down,0.6505119004759763,2067.1527976960024,None,001,75,2019_Oct_29_1503,ACPT_experiment_5_30_19,3.1.0,59.95405065544141,
,,,C,U,d,n,R,D,d,L,c,,,,,5,19,119,15,0,0,0,0,,,,,1,3,39,0,,,,,,up,0.6504765834615682,2069.087635695054,None,001,75,2019_Oct_29_1503,ACPT_experiment_5_30_19,3.1.0,59.95405065544141,
,,,C,U,d,n,L,U,g,R,u,,,,,5,19,119,15,0,0,0,0,,,,,1,4,40,23,,,,,,up,0.600451393678668,2071.0224247936276,None,001,75,2019_Oct_29_1503,ACPT_experiment_5_30_19,3.1.0,59.95405065544141,
,,,C,U,d,n,L,G,d,R,i,,,,,5,19,119,15,0,0,0,0,,,,,1,5,41,17,,,,,,up,0.7672379470132,2072.907194437659,None,001,75,2019_Oct_29_1503,ACPT_experiment_5_30_19,3.1.0,59.95405065544141,
,,,C,U,d,n,R,G,g,R,c ,,,,,5,19,119,15,0,0,0,0,,,,,1,6,42,7,,,,,,up,0.717213964646362,2074.9587427868028,None,001,75,2019_Oct_29_1503,ACPT_experiment_5_30_19,3.1.0,59.95405065544141,
,,,C,U,d,n,R,D,y,L,y,,,,,5,19,119,15,0,0,0,0,,,,,1,7,43,26,,,,,,down,0.8840017254042323,2076.976947650226,None,001,75,2019_Oct_29_1503,ACPT_experiment_5_30_19,3.1.0,59.95405065544141,
,,,C,U,d,n,L,U,g,L,u,,,,,5,19,119,15,0,0,0,0,,,,,1,8,44,22,,,,,,up,0.7005277327589283,2079.1619420855313,None,001,75,2019_Oct_29_1503,ACPT_experiment_5_30_19,3.1.0,59.95405065544141,
,,,C,U,d,n,R,U,y,L,u,,,,,5,19,119,15,0,0,0,0,,,,,1,9,45,30,,,,,,down,0.7172040034383826,2081.146782937114,None,001,75,2019_Oct_29_1503,ACPT_experiment_5_30_19,3.1.0,59.95405065544141,
,,,C,U,d,n,R,U,y,R,u,,,,,5,19,119,15,0,0,0,0,,,,,1,10,46,31,,,,,,down,0.8673206250459771,2083.1483048890514,None,001,75,2019_Oct_29_1503,ACPT_experiment_5_30_19,3.1.0,59.95405065544141,
,,,C,U,d,n,L,G,g,L,c ,,,,,5,19,119,15,0,0,0,0,,,,,1,11,47,18,,,,,,up,0.7672276839475671,2085.299950405253,None,001,75,2019_Oct_29_1503,ACPT_experiment_5_30_19,3.1.0,59.95405065544141,
,,,C,U,d,n,R,G,d,L,i,,,,,5,19,119,15,0,0,0,0,,,,,1,12,48,4,,,,,,up,1.351025144205778,2087.351498452539,None,001,75,2019_Oct_29_1503,ACPT_experiment_5_30_19,3.1.0,59.95405065544141,
,,,C,U,d,n,L,U,y,L,u,,,,,5,19,119,15,0,0,0,0,,,,,1,13,49,24,,,,,,down,0.8673245491590933,2089.986830980324,None,001,75,2019_Oct_29_1503,ACPT_experiment_5_30_19,3.1.0,59.95405065544141,
,,,C,U,d,n,R,D,g,R,i,,,,,5,19,119,15,0,0,0,0,,,,,1,14,50,3,,,,,,up,0.8673230398817395,2092.1384677427377,None,001,75,2019_Oct_29_1503,ACPT_experiment_5_30_19,3.1.0,59.95405065544141,
,,,C,U,d,n,L,G,g,R,c ,,,,,5,19,119,15,0,0,0,0,,,,,1,15,51,19,,,,,,up,0.7839519495428249,2094.290100882896,None,001,75,2019_Oct_29_1503,ACPT_experiment_5_30_19,3.1.0,59.95405065544141,
,,,C,U,d,n,L,D,y,L,y,,,,,5,19,119,15,0,0,0,0,,,,,1,16,52,32,,,,,,down,0.7672530397503579,2096.3583324453757,None,001,75,2019_Oct_29_1503,ACPT_experiment_5_30_19,3.1.0,59.95405065544141,
,,,C,U,d,n,R,G,g,L,c ,,,,,5,19,119,15,0,0,0,0,,,,,1,17,53,6,,,,,,up,0.7672409655642696,2098.409902226209,None,001,75,2019_Oct_29_1503,ACPT_experiment_5_30_19,3.1.0,59.95405065544141,
,,,C,U,d,n,L,D,d,L,c ,,,,,5,19,119,15,0,0,0,0,,,,,1,18,54,12,,,,,,up,1.2842998372107104,2100.4614578198634,None,001,75,2019_Oct_29_1503,ACPT_experiment_5_30_19,3.1.0,59.95405065544141,
,,,C,U,d,n,R,U,d,R,u,,,,,5,19,119,15,0,0,0,0,,,,,1,19,55,9,,,,,,up,0.9672113234191784,2103.030233777492,None,001,75,2019_Oct_29_1503,ACPT_experiment_5_30_19,3.1.0,59.95405065544141,
,,,C,U,d,n,L,D,g,R,i,,,,,5,19,119,15,0,0,0,0,,,,,1,20,56,15,,,,,,up,0.6671785118014668,2105.281768482797,None,001,75,2019_Oct_29_1503,ACPT_experiment_5_30_19,3.1.0,59.95405065544141,
,,,C,U,d,n,L,G,y,L,y,,,,,5,19,119,15,0,0,0,0,,,,,1,21,57,34,,,,,,down,0.8172875870368443,2107.233263735674,None,001,75,2019_Oct_29_1503,ACPT_experiment_5_30_19,3.1.0,59.95405065544141,
,,,C,U,d,n,R,U,g,R,u,,,,,5,19,119,15,0,0,0,0,,,,,1,22,58,11,,,,,,up,1.0674742087685445,2109.3348653470966,None,001,75,2019_Oct_29_1503,ACPT_experiment_5_30_19,3.1.0,59.95405065544141,
,,,C,U,d,n,R,U,g,L,u,,,,,5,19,119,15,0,0,0,0,,,,,1,23,59,10,,,,,,up,0.733912874442467,2111.6699474259476,None,001,75,2019_Oct_29_1503,ACPT_experiment_5_30_19,3.1.0,59.95405065544141,
,,,C,U,d,n,R,D,d,R,c ,,,,,5,19,119,15,0,0,0,0,,,,,1,24,60,1,,,,,,up,0.7338917446031701,2113.688179154451,None,001,75,2019_Oct_29_1503,ACPT_experiment_5_30_19,3.1.0,59.95405065544141,
,,,C,U,d,n,R,D,y,R,y,,,,,5,19,119,15,0,0,0,0,,,,,1,25,61,27,,,,,,down,0.6004519973866991,2115.7063695288416,None,001,75,2019_Oct_29_1503,ACPT_experiment_5_30_19,3.1.0,59.95405065544141,
,,,C,U,d,n,L,G,y,R,y,,,,,5,19,119,15,0,0,0,0,,,,,1,26,62,35,,,,,,down,0.5670922115095891,2117.591139172873,None,001,75,2019_Oct_29_1503,ACPT_experiment_5_30_19,3.1.0,59.95405065544141,
,,,C,U,d,n,L,D,g,L,i,,,,,5,19,119,15,0,0,0,0,,,,,1,27,63,14,,,,,,up,0.7172130590843153,2119.4425390698198,None,001,75,2019_Oct_29_1503,ACPT_experiment_5_30_19,3.1.0,59.95405065544141,
,,,C,U,d,n,R,G,y,L,y,,,,,5,19,119,15,0,0,0,0,,,,,1,28,64,28,,,,,,down,0.6834318838955369,2121.461134533365,None,001,75,2019_Oct_29_1503,ACPT_experiment_5_30_19,3.1.0,59.95405065544141,
,,,C,U,d,n,R,G,y,R,y,,,,,5,19,119,15,0,0,0,0,,,,,1,29,65,29,,,,,,down,0.6671936045422626,2123.428882554632,None,001,75,2019_Oct_29_1503,ACPT_experiment_5_30_19,3.1.0,59.95405065544141,
,,,C,U,d,n,R,D,g,L,i,,,,,5,19,119,15,0,0,0,0,,,,,1,30,66,2,,,,,,up,0.6671724747066037,2125.3803832408994,None,001,75,2019_Oct_29_1503,ACPT_experiment_5_30_19,3.1.0,59.95405065544141,
,,,C,U,d,n,L,D,d,R,c ,,,,,5,19,119,15,0,0,0,0,,,,,1,31,67,13,,,,,,up,0.550411714863003,2127.331868834426,None,001,75,2019_Oct_29_1503,ACPT_experiment_5_30_19,3.1.0,59.95405065544141,
,,,C,U,d,n,L,U,d,L,u,,,,,5,19,119,15,0,0,0,0,,,,,1,32,68,20,,,,,,up,0.9173651335368049,2129.166592460693,None,001,75,2019_Oct_29_1503,ACPT_experiment_5_30_19,3.1.0,59.95405065544141,
,,,C,U,d,n,R,G,d,R,i,,,,,5,19,119,15,0,0,0,0,,,,,1,33,69,5,,,,,,up,0.7505758635088569,2131.368266788937,None,001,75,2019_Oct_29_1503,ACPT_experiment_5_30_19,3.1.0,59.95405065544141,
,,,C,U,d,n,L,D,y,R,y,,,,,5,19,119,15,0,0,0,0,,,,,1,34,70,33,,,,,,down,0.6338265741505893,2133.403140980383,None,001,75,2019_Oct_29_1503,ACPT_experiment_5_30_19,3.1.0,59.95405065544141,
,,,C,U,d,n,L,U,d,R,u,,,,,5,19,119,15,0,0,0,0,,,,,1,35,71,21,,,,,,up,1.584545456466003,2135.3212438470655,None,001,75,2019_Oct_29_1503,ACPT_experiment_5_30_19,3.1.0,59.95405065544141,
,,,C,U,d,n,,,,,,,,,,5,19,119,15,1,0,1,0,0,0,0,0,,,,,,,,,,,,,,001,75,2019_Oct_29_1503,ACPT_experiment_5_30_19,3.1.0,59.95405065544141,
,,,C,U,d,n,L,U,y,L,u,,,,,5,19,119,15,1,0,1,0,,,,,0,0,0,24,,,,,,down,0.8506349968629365,2163.7428676991512,None,001,75,2019_Oct_29_1503,ACPT_experiment_5_30_19,3.1.0,59.95405065544141,
,,,C,U,d,n,R,U,d,L,u,,,,,5,19,119,15,1,0,1,0,,,,,0,1,1,8,,,,,,up,0.6338135943951784,2165.894495405919,None,001,75,2019_Oct_29_1503,ACPT_experiment_5_30_19,3.1.0,59.95405065544141,
,,,C,U,d,n,L,D,d,R,c ,,,,,5,19,119,15,1,0,1,0,,,,,0,2,2,13,,,,,,up,0.6671655320460559,2167.812622722846,None,001,75,2019_Oct_29_1503,ACPT_experiment_5_30_19,3.1.0,59.95405065544141,
,,,C,U,d,n,L,G,d,L,i,,,,,5,19,119,15,1,0,1,0,,,,,0,3,3,16,,,,,,up,0.6338289889863518,2169.7640892995187,None,001,75,2019_Oct_29_1503,ACPT_experiment_5_30_19,3.1.0,59.95405065544141,
,,,C,U,d,n,R,U,g,L,u,,,,,5,19,119,15,1,0,1,0,,,,,0,4,4,10,,,,,,up,0.700579651787848,2171.6822244646683,None,001,75,2019_Oct_29_1503,ACPT_experiment_5_30_19,3.1.0,59.95405065544141,
,,,C,U,d,n,L,G,y,L,y,,,,,5,19,119,15,1,0,1,0,,,,,0,5,5,34,,,,,,down,0.7839431957545457,2173.6837280034633,None,001,75,2019_Oct_29_1503,ACPT_experiment_5_30_19,3.1.0,59.95405065544141,
,,,C,U,d,n,L,D,g,L,i,,,,,5,19,119,15,1,0,1,0,,,,,0,6,6,14,,,,,,up,0.5837935361414566,2175.768662701703,None,001,75,2019_Oct_29_1503,ACPT_experiment_5_30_19,3.1.0,59.95405065544141,
,,,C,U,d,n,R,D,d,R,c ,,,,,5,19,119,15,1,0,1,0,,,,,0,7,7,1,,,,,,up,1.6012190104520414,2177.636747623117,None,001,75,2019_Oct_29_1503,ACPT_experiment_5_30_19,3.1.0,59.95405065544141,
,,,C,U,d,n,R,G,d,R,i,,,,,5,19,119,15,1,0,1,0,,,,,0,8,8,5,,,,,,up,0.6338289889899897,2180.505576918491,None,001,75,2019_Oct_29_1503,ACPT_experiment_5_30_19,3.1.0,59.95405065544141,
,,,C,U,d,n,R,D,d,L,c,,,,,5,19,119,15,1,0,1,0,,,,,0,9,9,0,,,,,,up,0.6671930008342315,2182.423732911622,None,001,75,2019_Oct_29_1503,ACPT_experiment_5_30_19,3.1.0,59.95405065544141,
,,,C,U,d,n,L,D,y,R,y,,,,,5,19,119,15,1,0,1,0,,,,,0,10,10,33,,,,,,down,0.7338793685557903,2184.3752118643424,None,001,75,2019_Oct_29_1503,ACPT_experiment_5_30_19,3.1.0,59.95405065544141,
,,,C,U,d,n,L,G,g,L,c ,,,,,5,19,119,15,1,0,1,0,,,,,0,11,11,18,,,,,,up,0.7339113651651132,2186.3933753736565,None,001,75,2019_Oct_29_1503,ACPT_experiment_5_30_19,3.1.0,59.95405065544141,
,,,C,U,d,n,L,D,d,L,c ,,,,,5,19,119,15,1,0,1,0,,,,,0,12,12,12,,,,,,up,0.7003309234278277,2188.4117468609365,None,001,75,2019_Oct_29_1503,ACPT_experiment_5_30_19,3.1.0,59.95405065544141,
,,,C,U,d,n,R,G,g,L,c ,,,,,5,19,119,15,1,0,1,0,,,,,0,13,13,6,,,,,,up,0.5837639543678961,2190.3964485574506,None,001,75,2019_Oct_29_1503,ACPT_experiment_5_30_19,3.1.0,59.95405065544141,
,,,C,U,d,n,R,U,g,R,u,,,,,5,19,119,15,1,0,1,0,,,,,0,14,14,11,,,,,,up,0.6502233272767626,2192.2814753817765,None,001,75,2019_Oct_29_1503,ACPT_experiment_5_30_19,3.1.0,59.95405065544141,
,,,C,U,d,n,R,D,g,R,i,,,,,5,19,119,15,1,0,1,0,,,,,0,15,15,3,,,,,,up,0.6004610530326318,2194.21600760191,None,001,75,2019_Oct_29_1503,ACPT_experiment_5_30_19,3.1.0,59.95405065544141,
,,,C,U,d,n,R,U,y,L,u,,,,,5,19,119,15,1,0,1,0,,,,,0,16,16,30,,,,,,down,0.750560167056392,2196.1007887164233,None,001,75,2019_Oct_29_1503,ACPT_experiment_5_30_19,3.1.0,59.95405065544141,
,,,C,U,d,n,R,G,d,L,i,,,,,5,19,119,15,1,0,1,0,,,,,0,17,17,4,,,,,,up,0.7005464477551868,2198.1356330242415,None,001,75,2019_Oct_29_1503,ACPT_experiment_5_30_19,3.1.0,59.95405065544141,
,,,C,U,d,n,R,D,y,L,y,,,,,5,19,119,15,1,0,1,0,,,,,0,18,18,26,,,,,,down,0.8174418348426116,2200.153855093391,None,001,75,2019_Oct_29_1503,ACPT_experiment_5_30_19,3.1.0,59.95405065544141,
,,,C,U,d,n,R,U,y,R,u,,,,,5,19,119,15,1,0,1,0,,,,,0,19,19,31,,,,,,down,0.7338778592820745,2202.272137805172,None,001,75,2019_Oct_29_1503,ACPT_experiment_5_30_19,3.1.0,59.95405065544141,
,,,C,U,d,n,L,G,y,R,y,,,,,5,19,119,15,1,0,1,0,,,,,0,20,20,35,,,,,,down,0.7505767690745415,2204.2903218406136,None,001,75,2019_Oct_29_1503,ACPT_experiment_5_30_19,3.1.0,59.95405065544141,
,,,C,U,d,n,L,G,g,R,c ,,,,,5,19,119,15,1,0,1,0,,,,,0,21,21,19,,,,,,up,0.6838635362728382,2206.3085197613764,None,001,75,2019_Oct_29_1503,ACPT_experiment_5_30_19,3.1.0,59.95405065544141,
,,,C,U,d,n,R,G,g,R,c ,,,,,5,19,119,15,1,0,1,0,,,,,0,22,22,7,,,,,,up,0.5504470318774111,2208.276690077517,None,001,75,2019_Oct_29_1503,ACPT_experiment_5_30_19,3.1.0,59.95405065544141,
,,,C,U,d,n,L,U,d,L,u,,,,,5,19,119,15,1,0,1,0,,,,,0,23,23,20,,,,,,up,0.6838448212729418,2210.111417326043,None,001,75,2019_Oct_29_1503,ACPT_experiment_5_30_19,3.1.0,59.95405065544141,
,,,C,U,d,n,R,G,y,R,y,,,,,5,19,119,15,1,0,1,0,,,,,0,24,24,29,,,,,,down,0.7839676459952898,2212.0795822087966,None,001,75,2019_Oct_29_1503,ACPT_experiment_5_30_19,3.1.0,59.95405065544141,
,,,C,U,d,n,L,U,y,R,u,,,,,5,19,119,15,1,0,1,0,,,,,0,25,25,25,,,,,,down,0.6338157073769253,2214.147813469426,None,001,75,2019_Oct_29_1503,ACPT_experiment_5_30_19,3.1.0,59.95405065544141,
,,,C,U,d,n,R,G,y,L,y,,,,,5,19,119,15,1,0,1,0,,,,,0,26,26,28,,,,,,down,0.7005156585655641,2216.0659549735246,None,001,75,2019_Oct_29_1503,ACPT_experiment_5_30_19,3.1.0,59.95405065544141,
,,,C,U,d,n,R,D,y,R,y,,,,,5,19,119,15,1,0,1,0,,,,,0,27,27,27,,,,,,down,0.7169604066111788,2218.0677081462454,None,001,75,2019_Oct_29_1503,ACPT_experiment_5_30_19,3.1.0,59.95405065544141,
,,,C,U,d,n,L,U,g,R,u,,,,,5,19,119,15,1,0,1,0,,,,,0,28,28,23,,,,,,up,0.6171303810515383,2220.0689810679687,None,001,75,2019_Oct_29_1503,ACPT_experiment_5_30_19,3.1.0,59.95405065544141,
,,,C,U,d,n,L,U,d,R,u,,,,,5,19,119,15,1,0,1,0,,,,,0,29,29,21,,,,,,up,0.6338018220558297,2221.9704336234863,None,001,75,2019_Oct_29_1503,ACPT_experiment_5_30_19,3.1.0,59.95405065544141,
,,,C,U,d,n,L,G,d,R,i,,,,,5,19,119,15,1,0,1,0,,,,,0,30,30,17,,,,,,up,0.9173898856315645,2223.8885564125885,None,001,75,2019_Oct_29_1503,ACPT_experiment_5_30_19,3.1.0,59.95405065544141,
,,,C,U,d,n,R,D,g,L,i,,,,,5,19,119,15,1,0,1,0,,,,,0,31,31,2,,,,,,up,0.7505686189942935,2226.0902385890586,None,001,75,2019_Oct_29_1503,ACPT_experiment_5_30_19,3.1.0,59.95405065544141,
,,,C,U,d,n,L,D,g,R,i,,,,,5,19,119,15,1,0,1,0,,,,,0,32,32,15,,,,,,up,0.6671679468854563,2228.125105535986,None,001,75,2019_Oct_29_1503,ACPT_experiment_5_30_19,3.1.0,59.95405065544141,
,,,C,U,d,n,L,D,y,L,y,,,,,5,19,119,15,1,0,1,0,,,,,0,33,33,32,,,,,,down,0.8340034006978385,2230.059879541819,None,001,75,2019_Oct_29_1503,ACPT_experiment_5_30_19,3.1.0,59.95405065544141,
,,,C,U,d,n,R,U,d,R,u,,,,,5,19,119,15,1,0,1,0,,,,,0,34,34,9,,,,,,up,0.6836938938686217,2232.178302012373,None,001,75,2019_Oct_29_1503,ACPT_experiment_5_30_19,3.1.0,59.95405065544141,
,,,C,U,d,n,L,U,g,L,u,,,,,5,19,119,15,1,0,1,0,,,,,0,35,35,22,,,,,,up,0.7839250844663184,2234.1463413235288,None,001,75,2019_Oct_29_1503,ACPT_experiment_5_30_19,3.1.0,59.95405065544141,
,,,C,U,d,n,R,D,d,L,c,,,,,5,19,119,15,1,0,1,0,,,,,1,0,36,0,,,,,,up,0.967389115900005,2236.214589789881,None,001,75,2019_Oct_29_1503,ACPT_experiment_5_30_19,3.1.0,59.95405065544141,
,,,C,U,d,n,L,G,g,R,c ,,,,,5,19,119,15,1,0,1,0,,,,,1,1,37,19,,,,,,up,0.7839332345465664,2238.466287798634,None,001,75,2019_Oct_29_1503,ACPT_experiment_5_30_19,3.1.0,59.95405065544141,
,,,C,U,d,n,R,G,y,L,y,,,,,5,19,119,15,1,0,1,0,,,,,1,2,38,28,,,,,,down,0.7505689208446711,2240.534526605632,None,001,75,2019_Oct_29_1503,ACPT_experiment_5_30_19,3.1.0,59.95405065544141,
,,,C,U,d,n,R,U,y,L,u,,,,,5,19,119,15,1,0,1,0,,,,,1,3,39,30,,,,,,down,0.7669768426057999,2242.586355679745,None,001,75,2019_Oct_29_1503,ACPT_experiment_5_30_19,3.1.0,59.95405065544141,
,,,C,U,d,n,R,U,g,R,u,,,,,5,19,119,15,1,0,1,0,,,,,1,4,40,11,,,,,,up,0.8006330499010801,2244.620942203557,None,001,75,2019_Oct_29_1503,ACPT_experiment_5_30_19,3.1.0,59.95405065544141,
,,,C,U,d,n,R,G,g,L,c ,,,,,5,19,119,15,1,0,1,0,,,,,1,5,41,6,,,,,,up,0.6837056662079704,2246.7060169624274,None,001,75,2019_Oct_29_1503,ACPT_experiment_5_30_19,3.1.0,59.95405065544141,
,,,C,U,d,n,R,G,g,R,c ,,,,,5,19,119,15,1,0,1,0,,,,,1,6,42,7,,,,,,up,0.6171572461280448,2248.657341667342,None,001,75,2019_Oct_29_1503,ACPT_experiment_5_30_19,3.1.0,59.95405065544141,
,,,C,U,d,n,L,U,g,L,u,,,,,5,19,119,15,1,0,1,0,,,,,1,7,43,22,,,,,,up,0.7172103423908993,2250.54212730968,None,001,75,2019_Oct_29_1503,ACPT_experiment_5_30_19,3.1.0,59.95405065544141,
,,,C,U,d,n,L,U,y,R,u,,,,,5,19,119,15,1,0,1,0,,,,,1,8,44,25,,,,,,down,0.8506443543628848,2252.5436480541975,None,001,75,2019_Oct_29_1503,ACPT_experiment_5_30_19,3.1.0,59.95405065544141,
,,,C,U,d,n,L,D,y,R,y,,,,,5,19,119,15,1,0,1,0,,,,,1,9,45,33,,,,,,down,0.68385417877289,2254.678603716253,None,001,75,2019_Oct_29_1503,ACPT_experiment_5_30_19,3.1.0,59.95405065544141,
,,,C,U,d,n,L,U,g,R,u,,,,,5,19,119,15,1,0,1,0,,,,,1,10,46,23,,,,,,up,0.8506467692022852,2256.6467622600576,None,001,75,2019_Oct_29_1503,ACPT_experiment_5_30_19,3.1.0,59.95405065544141,
,,,C,U,d,n,R,D,y,L,y,,,,,5,19,119,15,1,0,1,0,,,,,1,11,47,26,,,,,,down,0.7339014039571339,2258.781721544372,None,001,75,2019_Oct_29_1503,ACPT_experiment_5_30_19,3.1.0,59.95405065544141,
,,,C,U,d,n,R,D,g,L,i,,,,,5,19,119,15,1,0,1,0,,,,,1,12,48,2,,,,,,up,0.6671570801117923,2260.7999333504595,None,001,75,2019_Oct_29_1503,ACPT_experiment_5_30_19,3.1.0,59.95405065544141,
,,,C,U,d,n,L,G,d,L,i,,,,,5,19,119,15,1,0,1,0,,,,,1,13,49,16,,,,,,up,0.733627923498716,2262.768348470847,None,001,75,2019_Oct_29_1503,ACPT_experiment_5_30_19,3.1.0,59.95405065544141,
,,,C,U,d,n,L,G,y,R,y,,,,,5,19,119,15,1,0,1,0,,,,,1,14,50,35,,,,,,down,0.6004722216603113,2264.7862602332534,None,001,75,2019_Oct_29_1503,ACPT_experiment_5_30_19,3.1.0,59.95405065544141,
,,,C,U,d,n,L,D,g,R,i,,,,,5,19,119,15,1,0,1,0,,,,,1,15,51,15,,,,,,up,0.6504934873300954,2266.6710476867192,None,001,75,2019_Oct_29_1503,ACPT_experiment_5_30_19,3.1.0,59.95405065544141,
,,,C,U,d,n,R,D,g,R,i,,,,,5,19,119,15,1,0,1,0,,,,,1,16,52,3,,,,,,up,0.767253643462027,2268.605846142793,None,001,75,2019_Oct_29_1503,ACPT_experiment_5_30_19,3.1.0,59.95405065544141,
,,,C,U,d,n,R,D,y,R,y,,,,,5,19,119,15,1,0,1,0,,,,,1,17,53,27,,,,,,down,0.6171255513763754,2270.657416527334,None,001,75,2019_Oct_29_1503,ACPT_experiment_5_30_19,3.1.0,59.95405065544141,
,,,C,U,d,n,R,U,g,L,u,,,,,5,19,119,15,1,0,1,0,,,,,1,18,54,10,,,,,,up,0.6671685505934875,2272.558857008662,None,001,75,2019_Oct_29_1503,ACPT_experiment_5_30_19,3.1.0,59.95405065544141,
,,,C,U,d,n,L,D,d,R,c ,,,,,5,19,119,15,1,0,1,0,,,,,1,19,55,13,,,,,,up,0.7338899334718008,2274.510333546543,None,001,75,2019_Oct_29_1503,ACPT_experiment_5_30_19,3.1.0,59.95405065544141,
,,,C,U,d,n,L,G,g,L,c ,,,,,5,19,119,15,1,0,1,0,,,,,1,20,56,18,,,,,,up,0.8339973636029754,2276.528506715211,None,001,75,2019_Oct_29_1503,ACPT_experiment_5_30_19,3.1.0,59.95405065544141,
,,,C,U,d,n,L,G,y,L,y,,,,,5,19,119,15,1,0,1,0,,,,,1,21,57,34,,,,,,down,0.7672485119328485,2278.6468063308603,None,001,75,2019_Oct_29_1503,ACPT_experiment_5_30_19,3.1.0,59.95405065544141,
,,,C,U,d,n,R,D,d,R,c ,,,,,5,19,119,15,1,0,1,0,,,,,1,22,58,1,,,,,,up,0.6505103911986225,2280.6983510577447,None,001,75,2019_Oct_29_1503,ACPT_experiment_5_30_19,3.1.0,59.95405065544141,
,,,C,U,d,n,R,U,d,R,u,,,,,5,19,119,15,1,0,1,0,,,,,1,23,59,9,,,,,,up,0.6838475379699958,2282.616493165555,None,001,75,2019_Oct_29_1503,ACPT_experiment_5_30_19,3.1.0,59.95405065544141,
,,,C,U,d,n,L,D,g,L,i,,,,,5,19,119,15,1,0,1,0,,,,,1,24,60,14,,,,,,up,0.9673927381591056,2284.5846625761296,None,001,75,2019_Oct_29_1503,ACPT_experiment_5_30_19,3.1.0,59.95405065544141,
,,,C,U,d,n,L,D,d,L,c ,,,,,5,19,119,15,1,0,1,0,,,,,1,25,61,12,,,,,,up,0.7672457952394325,2286.8363642071417,None,001,75,2019_Oct_29_1503,ACPT_experiment_5_30_19,3.1.0,59.95405065544141,
,,,C,U,d,n,R,U,d,L,u,,,,,5,19,119,15,1,0,1,0,,,,,1,26,62,8,,,,,,up,0.9507128452169127,2288.887934289829,None,001,75,2019_Oct_29_1503,ACPT_experiment_5_30_19,3.1.0,59.95405065544141,
,,,C,U,d,n,L,D,y,L,y,,,,,5,19,119,15,1,0,1,0,,,,,1,27,63,32,,,,,,down,0.867148567805998,2291.1397729629243,None,001,75,2019_Oct_29_1503,ACPT_experiment_5_30_19,3.1.0,59.95405065544141,
,,,C,U,d,n,R,G,y,R,y,,,,,5,19,119,15,1,0,1,0,,,,,1,28,64,29,,,,,,down,0.7839437994662148,2293.307958311434,None,001,75,2019_Oct_29_1503,ACPT_experiment_5_30_19,3.1.0,59.95405065544141,
,,,C,U,d,n,L,U,y,L,u,,,,,5,19,119,15,1,0,1,0,,,,,1,29,65,24,,,,,,down,0.7505622800417768,2295.3928667483087,None,001,75,2019_Oct_29_1503,ACPT_experiment_5_30_19,3.1.0,59.95405065544141,
,,,C,U,d,n,L,G,d,R,i,,,,,5,19,119,15,1,0,1,0,,,,,1,30,66,17,,,,,,up,0.6338120851214626,2297.4444163048684,None,001,75,2019_Oct_29_1503,ACPT_experiment_5_30_19,3.1.0,59.95405065544141,
,,,C,U,d,n,L,U,d,R,u,,,,,5,19,119,15,1,0,1,0,,,,,1,31,67,21,,,,,,up,0.7171985700515506,2299.362552073726,None,001,75,2019_Oct_29_1503,ACPT_experiment_5_30_19,3.1.0,59.95405065544141,
,,,C,U,d,n,R,G,d,L,i,,,,,5,19,119,15,1,0,1,0,,,,,1,32,68,4,,,,,,up,0.9505308267725923,2301.3809030348784,None,001,75,2019_Oct_29_1503,ACPT_experiment_5_30_19,3.1.0,59.95405065544141,
,,,C,U,d,n,R,U,y,R,u,,,,,5,19,119,15,1,0,1,0,,,,,1,33,69,31,,,,,,down,0.7338860093623225,2303.6157792789345,None,001,75,2019_Oct_29_1503,ACPT_experiment_5_30_19,3.1.0,59.95405065544141,
,,,C,U,d,n,R,G,d,R,i,,,,,5,19,119,15,1,0,1,0,,,,,1,34,70,5,,,,,,up,0.667163419060671,2305.633978708971,None,001,75,2019_Oct_29_1503,ACPT_experiment_5_30_19,3.1.0,59.95405065544141,
,,,C,U,d,n,L,U,d,L,u,,,,,5,19,119,15,1,0,1,0,,,,,1,35,71,20,,,,,,up,0.6838858735281974,2307.585437437421,None,001,75,2019_Oct_29_1503,ACPT_experiment_5_30_19,3.1.0,59.95405065544141,
,,,C,U,d,n,,,,,,,,,,5,19,119,15,2,0,2,0,0,0,0,0,,,,,,,,,,,,,,001,75,2019_Oct_29_1503,ACPT_experiment_5_30_19,3.1.0,59.95405065544141,
,,,C,U,d,n,L,D,y,R,y,,,,,5,19,119,15,2,0,2,0,,,,,0,0,0,33,,,,,,down,0.8505208957467403,2367.130693170322,None,001,75,2019_Oct_29_1503,ACPT_experiment_5_30_19,3.1.0,59.95405065544141,
,,,C,U,d,n,R,D,y,L,y,,,,,5,19,119,15,2,0,2,0,,,,,0,1,1,26,,,,,,down,0.6338084628623619,2369.282328121608,None,001,75,2019_Oct_29_1503,ACPT_experiment_5_30_19,3.1.0,59.95405065544141,
,,,C,U,d,n,R,G,d,L,i,,,,,5,19,119,15,2,0,2,0,,,,,0,2,2,4,,,,,,up,0.6671534578490537,2371.2004672108706,None,001,75,2019_Oct_29_1503,ACPT_experiment_5_30_19,3.1.0,59.95405065544141,
,,,C,U,d,n,R,G,y,L,y,,,,,5,19,119,15,2,0,2,0,,,,,0,3,3,28,,,,,,down,0.7005458440471557,2373.151911148434,None,001,75,2019_Oct_29_1503,ACPT_experiment_5_30_19,3.1.0,59.95405065544141,
,,,C,U,d,n,L,U,d,R,u,,,,,5,19,119,15,2,0,2,0,,,,,0,4,4,21,,,,,,up,0.767269943622523,2375.1534282706925,None,001,75,2019_Oct_29_1503,ACPT_experiment_5_30_19,3.1.0,59.95405065544141,
,,,C,U,d,n,R,U,y,L,u,,,,,5,19,119,15,2,0,2,0,,,,,0,5,5,30,,,,,,down,0.6669865321418911,2377.2218397386423,None,001,75,2019_Oct_29_1503,ACPT_experiment_5_30_19,3.1.0,59.95405065544141,
,,,C,U,d,n,L,G,y,R,y,,,,,5,19,119,15,2,0,2,0,,,,,0,6,6,35,,,,,,down,0.5504289205855457,2379.189831960448,None,001,75,2019_Oct_29_1503,ACPT_experiment_5_30_19,3.1.0,59.95405065544141,
,,,C,U,d,n,L,U,y,L,u,,,,,5,19,119,15,2,0,2,0,,,,,0,7,7,24,,,,,,down,0.6338181222163257,2381.024575509131,None,001,75,2019_Oct_29_1503,ACPT_experiment_5_30_19,3.1.0,59.95405065544141,
,,,C,U,d,n,L,U,y,R,u,,,,,5,19,119,15,2,0,2,0,,,,,0,8,8,25,,,,,,down,0.5670964374803589,2382.9427070520214,None,001,75,2019_Oct_29_1503,ACPT_experiment_5_30_19,3.1.0,59.95405065544141,
,,,C,U,d,n,L,D,d,L,c ,,,,,5,19,119,15,2,0,2,0,,,,,0,9,9,12,,,,,,up,0.6504883558009169,2384.794112986063,None,001,75,2019_Oct_29_1503,ACPT_experiment_5_30_19,3.1.0,59.95405065544141,
,,,C,U,d,n,R,D,y,R,y,,,,,5,19,119,15,2,0,2,0,,,,,0,10,10,27,,,,,,down,0.5001042908370437,2386.745867532223,None,001,75,2019_Oct_29_1503,ACPT_experiment_5_30_19,3.1.0,59.95405065544141,
,,,C,U,d,n,R,U,g,L,u,,,,,5,19,119,15,2,0,2,0,,,,,0,11,11,10,,,,,,up,0.5170594753581099,2388.5302840363183,None,001,75,2019_Oct_29_1503,ACPT_experiment_5_30_19,3.1.0,59.95405065544141,
,,,C,U,d,n,R,U,y,R,u,,,,,5,19,119,15,2,0,2,0,,,,,0,12,12,31,,,,,,down,0.4002851320510672,2390.3316671954162,None,001,75,2019_Oct_29_1503,ACPT_experiment_5_30_19,3.1.0,59.95405065544141,
,,,C,U,d,n,L,G,y,L,y,,,,,5,19,119,15,2,0,2,0,,,,,0,13,13,34,,,,,,down,0.450364353844634,2392.0162609184663,None,001,75,2019_Oct_29_1503,ACPT_experiment_5_30_19,3.1.0,59.95405065544141,
,,,C,U,d,n,L,U,d,L,u,,,,,5,19,119,15,2,0,2,0,,,,,0,14,14,20,,,,,,up,0.8837436395406257,2393.767865503156,None,001,75,2019_Oct_29_1503,ACPT_experiment_5_30_19,3.1.0,59.95405065544141,
,,,C,U,d,n,L,U,g,R,u,,,,,5,19,119,15,2,0,2,0,,,,,0,15,15,23,,,,,,up,0.6338132925375248,2395.9359086780532,None,001,75,2019_Oct_29_1503,ACPT_experiment_5_30_19,3.1.0,59.95405065544141,
,,,C,U,d,n,L,D,d,R,c ,,,,,5,19,119,15,2,0,2,0,,,,,0,16,16,13,,,,,,up,0.5837923287217563,2397.854042635783,None,001,75,2019_Oct_29_1503,ACPT_experiment_5_30_19,3.1.0,59.95405065544141,
,,,C,U,d,n,L,U,g,L,u,,,,,5,19,119,15,2,0,2,0,,,,,0,17,17,22,,,,,,up,0.5671181710240489,2399.722119708975,None,001,75,2019_Oct_29_1503,ACPT_experiment_5_30_19,3.1.0,59.95405065544141,
,,,C,U,d,n,L,D,y,L,y,,,,,5,19,119,15,2,0,2,0,,,,,0,18,18,32,,,,,,down,0.7005186771166336,2401.573538320921,None,001,75,2019_Oct_29_1503,ACPT_experiment_5_30_19,3.1.0,59.95405065544141,
,,,C,U,d,n,L,G,d,R,i,,,,,5,19,119,15,2,0,2,0,,,,,0,19,19,17,,,,,,up,0.583760633966449,2403.5583728335478,None,001,75,2019_Oct_29_1503,ACPT_experiment_5_30_19,3.1.0,59.95405065544141,
,,,C,U,d,n,L,D,g,L,i,,,,,5,19,119,15,2,0,2,0,,,,,0,20,20,14,,,,,,up,0.6338129906835093,2405.4264538308526,None,001,75,2019_Oct_29_1503,ACPT_experiment_5_30_19,3.1.0,59.95405065544141,
,,,C,U,d,n,R,U,d,R,u,,,,,5,19,119,15,2,0,2,0,,,,,0,21,21,9,,,,,,up,0.6171213254056056,2407.3445865811627,None,001,75,2019_Oct_29_1503,ACPT_experiment_5_30_19,3.1.0,59.95405065544141,
,,,C,U,d,n,R,U,d,L,u,,,,,5,19,119,15,2,0,2,0,,,,,0,22,22,8,,,,,,up,0.6506567907854333,2409.229189903199,None,001,75,2019_Oct_29_1503,ACPT_experiment_5_30_19,3.1.0,59.95405065544141,
,,,C,U,d,n,R,D,d,R,c ,,,,,5,19,119,15,2,0,2,0,,,,,0,23,23,1,,,,,,up,0.6338066517309926,2411.1641456256257,None,001,75,2019_Oct_29_1503,ACPT_experiment_5_30_19,3.1.0,59.95405065544141,
,,,C,U,d,n,L,D,g,R,i,,,,,5,19,119,15,2,0,2,0,,,,,0,24,24,15,,,,,,up,0.5167998802244256,2413.099194923041,None,001,75,2019_Oct_29_1503,ACPT_experiment_5_30_19,3.1.0,59.95405065544141,
,,,C,U,d,n,L,G,g,L,c ,,,,,5,19,119,15,2,0,2,0,,,,,0,25,25,18,,,,,,up,0.5670952300606587,2414.900314261038,None,001,75,2019_Oct_29_1503,ACPT_experiment_5_30_19,3.1.0,59.95405065544141,
,,,C,U,d,n,R,G,y,R,y,,,,,5,19,119,15,2,0,2,0,,,,,0,26,26,29,,,,,,down,0.6171333996026078,2416.751722609919,None,001,75,2019_Oct_29_1503,ACPT_experiment_5_30_19,3.1.0,59.95405065544141,
,,,C,U,d,n,R,D,g,L,i,,,,,5,19,119,15,2,0,2,0,,,,,0,27,27,2,,,,,,up,0.6004598456165695,2418.653163996809,None,001,75,2019_Oct_29_1503,ACPT_experiment_5_30_19,3.1.0,59.95405065544141,
,,,C,U,d,n,L,G,g,R,c ,,,,,5,19,119,15,2,0,2,0,,,,,0,28,28,19,,,,,,up,0.617144870084303,2420.5212465033874,None,001,75,2019_Oct_29_1503,ACPT_experiment_5_30_19,3.1.0,59.95405065544141,
,,,C,U,d,n,L,G,d,L,i,,,,,5,19,119,15,2,0,2,0,,,,,0,29,29,16,,,,,,up,0.6338525336650491,2422.4059950175833,None,001,75,2019_Oct_29_1503,ACPT_experiment_5_30_19,3.1.0,59.95405065544141,
,,,C,U,d,n,R,D,d,L,c,,,,,5,19,119,15,2,0,2,0,,,,,0,30,30,0,,,,,,up,0.7172287555331422,2424.324139842087,None,001,75,2019_Oct_29_1503,ACPT_experiment_5_30_19,3.1.0,59.95405065544141,
,,,C,U,d,n,R,U,g,R,u,,,,,5,19,119,15,2,0,2,0,,,,,0,31,31,11,,,,,,up,0.7169685566914268,2426.3426145637095,None,001,75,2019_Oct_29_1503,ACPT_experiment_5_30_19,3.1.0,59.95405065544141,
,,,C,U,d,n,R,G,g,R,c ,,,,,5,19,119,15,2,0,2,0,,,,,0,32,32,7,,,,,,up,0.6171472849237034,2428.3438612240643,None,001,75,2019_Oct_29_1503,ACPT_experiment_5_30_19,3.1.0,59.95405065544141,
,,,C,U,d,n,R,D,g,R,i,,,,,5,19,119,15,2,0,2,0,,,,,0,33,33,3,,,,,,up,0.6671718709949346,2430.2453029128083,None,001,75,2019_Oct_29_1503,ACPT_experiment_5_30_19,3.1.0,59.95405065544141,
,,,C,U,d,n,R,G,g,L,c ,,,,,5,19,119,15,2,0,2,0,,,,,0,34,34,6,,,,,,up,0.7672463989474636,2432.1967918267364,None,001,75,2019_Oct_29_1503,ACPT_experiment_5_30_19,3.1.0,59.95405065544141,
,,,C,U,d,n,R,G,d,R,i,,,,,5,19,119,15,2,0,2,0,,,,,0,35,35,5,,,,,,up,0.6171539257265977,2434.231640662376,None,001,75,2019_Oct_29_1503,ACPT_experiment_5_30_19,3.1.0,59.95405065544141,
,,,C,U,d,n,R,U,g,L,u,,,,,5,19,119,15,2,0,2,0,,,,,1,0,36,10,,,,,,up,0.6171337014566234,2436.133112838459,None,001,75,2019_Oct_29_1503,ACPT_experiment_5_30_19,3.1.0,59.95405065544141,
,,,C,U,d,n,R,U,d,R,u,,,,,5,19,119,15,2,0,2,0,,,,,1,1,37,9,,,,,,up,0.6504859409615165,2438.034555130911,None,001,75,2019_Oct_29_1503,ACPT_experiment_5_30_19,3.1.0,59.95405065544141,
,,,C,U,d,n,R,G,g,L,c ,,,,,5,19,119,15,2,0,2,0,,,,,1,2,38,6,,,,,,up,0.617134003310639,2439.9693587185175,None,001,75,2019_Oct_29_1503,ACPT_experiment_5_30_19,3.1.0,59.95405065544141,
,,,C,U,d,n,R,G,d,L,i,,,,,5,19,119,15,2,0,2,0,,,,,1,3,39,4,,,,,,up,0.6505131078956765,2441.8541030067463,None,001,75,2019_Oct_29_1503,ACPT_experiment_5_30_19,3.1.0,59.95405065544141,
,,,C,U,d,n,L,G,d,L,i,,,,,5,19,119,15,2,0,2,0,,,,,1,4,40,16,,,,,,up,0.6004852014193602,2443.772223381009,None,001,75,2019_Oct_29_1503,ACPT_experiment_5_30_19,3.1.0,59.95405065544141,
,,,C,U,d,n,L,U,d,L,u,,,,,5,19,119,15,2,0,2,0,,,,,1,5,41,20,,,,,,up,0.5837603321124334,2445.6737009904755,None,001,75,2019_Oct_29_1503,ACPT_experiment_5_30_19,3.1.0,59.95405065544141,
,,,C,U,d,n,R,D,y,R,y,,,,,5,19,119,15,2,0,2,0,,,,,1,6,42,27,,,,,,down,0.6004504881129833,2447.541778063667,None,001,75,2019_Oct_29_1503,ACPT_experiment_5_30_19,3.1.0,59.95405065544141,
,,,C,U,d,n,R,D,g,R,i,,,,,5,19,119,15,2,0,2,0,,,,,1,7,43,3,,,,,,up,0.6171337014529854,2449.4265431798776,None,001,75,2019_Oct_29_1503,ACPT_experiment_5_30_19,3.1.0,59.95405065544141,
,,,C,U,d,n,R,U,g,R,u,,,,,5,19,119,15,2,0,2,0,,,,,1,8,44,11,,,,,,up,0.5503933017207601,2451.327983963056,None,001,75,2019_Oct_29_1503,ACPT_experiment_5_30_19,3.1.0,59.95405065544141,
,,,C,U,d,n,L,D,g,L,i,,,,,5,19,119,15,2,0,2,0,,,,,1,9,45,14,,,,,,up,0.6671697580095497,2453.162713626418,None,001,75,2019_Oct_29_1503,ACPT_experiment_5_30_19,3.1.0,59.95405065544141,
,,,C,U,d,n,L,D,d,R,c ,,,,,5,19,119,15,2,0,2,0,,,,,1,10,46,13,,,,,,up,0.5504358632460935,2455.097493669349,None,001,75,2019_Oct_29_1503,ACPT_experiment_5_30_19,3.1.0,59.95405065544141,
,,,C,U,d,n,L,D,g,R,i,,,,,5,19,119,15,2,0,2,0,,,,,1,11,47,15,,,,,,up,0.6004734290800116,2456.9155446471923,None,001,75,2019_Oct_29_1503,ACPT_experiment_5_30_19,3.1.0,59.95405065544141,
,,,C,U,d,n,L,U,d,R,u,,,,,5,19,119,15,2,0,2,0,,,,,1,12,48,21,,,,,,up,0.46700259081990225,2458.817021049239,None,001,75,2019_Oct_29_1503,ACPT_experiment_5_30_19,3.1.0,59.95405065544141,
,,,C,U,d,n,L,D,y,R,y,,,,,5,19,119,15,2,0,2,0,,,,,1,13,49,33,,,,,,down,0.6171705277411093,2460.568326495817,None,001,75,2019_Oct_29_1503,ACPT_experiment_5_30_19,3.1.0,59.95405065544141,
,,,C,U,d,n,R,D,g,L,i,,,,,5,19,119,15,2,0,2,0,,,,,1,14,50,2,,,,,,up,0.5504494467131735,2462.46975158255,None,001,75,2019_Oct_29_1503,ACPT_experiment_5_30_19,3.1.0,59.95405065544141,
,,,C,U,d,n,L,U,g,R,u,,,,,5,19,119,15,2,0,2,0,,,,,1,15,51,23,,,,,,up,0.5504277131694835,2464.3045099221163,None,001,75,2019_Oct_29_1503,ACPT_experiment_5_30_19,3.1.0,59.95405065544141,
,,,C,U,d,n,R,U,y,R,u,,,,,5,19,119,15,2,0,2,0,,,,,1,16,52,31,,,,,,down,0.5837724063021597,2466.139236566931,None,001,75,2019_Oct_29_1503,ACPT_experiment_5_30_19,3.1.0,59.95405065544141,
,,,C,U,d,n,L,U,y,R,u,,,,,5,19,119,15,2,0,2,0,,,,,1,17,53,25,,,,,,down,0.5502143018202332,2468.024169816268,None,001,75,2019_Oct_29_1503,ACPT_experiment_5_30_19,3.1.0,59.95405065544141,
,,,C,U,d,n,R,U,d,L,u,,,,,5,19,119,15,2,0,2,0,,,,,1,18,54,8,,,,,,up,0.6005045201272878,2469.8920844915738,None,001,75,2019_Oct_29_1503,ACPT_experiment_5_30_19,3.1.0,59.95405065544141,
,,,C,U,d,n,R,D,y,L,y,,,,,5,19,119,15,2,0,2,0,,,,,1,19,55,26,,,,,,down,0.8172779276828805,2471.79354187677,None,001,75,2019_Oct_29_1503,ACPT_experiment_5_30_19,3.1.0,59.95405065544141,
,,,C,U,d,n,R,G,g,R,c ,,,,,5,19,119,15,2,0,2,0,,,,,1,20,56,7,,,,,,up,0.583768784046697,2473.895128395452,None,001,75,2019_Oct_29_1503,ACPT_experiment_5_30_19,3.1.0,59.95405065544141,
,,,C,U,d,n,L,D,d,L,c ,,,,,5,19,119,15,2,0,2,0,,,,,1,21,57,12,,,,,,up,0.6338033313295455,2475.7632169391254,None,001,75,2019_Oct_29_1503,ACPT_experiment_5_30_19,3.1.0,59.95405065544141,
,,,C,U,d,n,R,G,d,R,i,,,,,5,19,119,15,2,0,2,0,,,,,1,22,58,5,,,,,,up,0.5837784434006608,2477.6813364078225,None,001,75,2019_Oct_29_1503,ACPT_experiment_5_30_19,3.1.0,59.95405065544141,
,,,C,U,d,n,R,G,y,L,y,,,,,5,19,119,15,2,0,2,0,,,,,1,23,59,28,,,,,,down,0.934037480106781,2479.5494204236747,None,001,75,2019_Oct_29_1503,ACPT_experiment_5_30_19,3.1.0,59.95405065544141,
,,,C,U,d,n,R,U,y,L,u,,,,,5,19,119,15,2,0,2,0,,,,,1,24,60,30,,,,,,down,0.767240663706616,2481.784457254489,None,001,75,2019_Oct_29_1503,ACPT_experiment_5_30_19,3.1.0,59.95405065544141,
,,,C,U,d,n,L,G,d,R,i,,,,,5,19,119,15,2,0,2,0,,,,,1,25,61,17,,,,,,up,0.600448676985252,2483.8526906281004,None,001,75,2019_Oct_29_1503,ACPT_experiment_5_30_19,3.1.0,59.95405065544141,
,,,C,U,d,n,R,D,d,L,c,,,,,5,19,119,15,2,0,2,0,,,,,1,26,62,0,,,,,,up,0.9673921344474365,2485.7374581591503,None,001,75,2019_Oct_29_1503,ACPT_experiment_5_30_19,3.1.0,59.95405065544141,
,,,C,U,d,n,L,G,g,R,c ,,,,,5,19,119,15,2,0,2,0,,,,,1,27,63,19,,,,,,up,0.6171297773435072,2487.9891697513704,None,001,75,2019_Oct_29_1503,ACPT_experiment_5_30_19,3.1.0,59.95405065544141,
,,,C,U,d,n,L,U,y,L,u,,,,,5,19,119,15,2,0,2,0,,,,,1,28,64,24,,,,,,down,0.900680410923087,2489.907289220071,None,001,75,2019_Oct_29_1503,ACPT_experiment_5_30_19,3.1.0,59.95405065544141,
,,,C,U,d,n,L,G,g,L,c ,,,,,5,19,119,15,2,0,2,0,,,,,1,29,65,18,,,,,,up,0.7338694073478109,2492.10897773549,None,001,75,2019_Oct_29_1503,ACPT_experiment_5_30_19,3.1.0,59.95405065544141,
,,,C,U,d,n,R,D,d,R,c ,,,,,5,19,119,15,2,0,2,0,,,,,1,30,66,1,,,,,,up,0.9006632051969063,2494.1271726377054,None,001,75,2019_Oct_29_1503,ACPT_experiment_5_30_19,3.1.0,59.95405065544141,
,,,C,U,d,n,R,G,y,R,y,,,,,5,19,119,15,2,0,2,0,,,,,1,31,67,29,,,,,,down,0.6004698068245489,2496.312129643018,None,001,75,2019_Oct_29_1503,ACPT_experiment_5_30_19,3.1.0,59.95405065544141,
,,,C,U,d,n,L,G,y,R,y,,,,,5,19,119,15,2,0,2,0,,,,,1,32,68,35,,,,,,down,0.5504135259943723,2498.196917398338,None,001,75,2019_Oct_29_1503,ACPT_experiment_5_30_19,3.1.0,59.95405065544141,
,,,C,U,d,n,L,U,g,L,u,,,,,5,19,119,15,2,0,2,0,,,,,1,33,69,22,,,,,,up,0.600215343216405,2500.048563306951,None,001,75,2019_Oct_29_1503,ACPT_experiment_5_30_19,3.1.0,59.95405065544141,
,,,C,U,d,n,L,G,y,L,y,,,,,5,19,119,15,2,0,2,0,,,,,1,34,70,34,,,,,,down,0.6671576838198234,2501.933097202378,None,001,75,2019_Oct_29_1503,ACPT_experiment_5_30_19,3.1.0,59.95405065544141,
,,,C,U,d,n,L,D,y,L,y,,,,,5,19,119,15,2,0,2,0,,,,,1,35,71,32,,,,,,down,0.7672620953962905,2503.9012291829604,None,001,75,2019_Oct_29_1503,ACPT_experiment_5_30_19,3.1.0,59.95405065544141,
,,,C,U,d,n,,,,,,,,,,5,19,119,15,3,0,3,0,0,0,0,0,,,,,,,,,,,,,,001,75,2019_Oct_29_1503,ACPT_experiment_5_30_19,3.1.0,59.95405065544141,
,,,C,U,d,n,R,D,d,L,c,,,,,5,19,119,15,3,0,3,0,,,,,0,0,0,0,,,,,,up,0.6669225389268831,2522.6490672233667,None,001,75,2019_Oct_29_1503,ACPT_experiment_5_30_19,3.1.0,59.95405065544141,
,,,C,U,d,n,L,D,g,L,i,,,,,5,19,119,15,3,0,3,0,,,,,0,1,1,14,,,,,,up,0.5837754248532292,2524.6003086163546,None,001,75,2019_Oct_29_1503,ACPT_experiment_5_30_19,3.1.0,59.95405065544141,
,,,C,U,d,n,R,U,d,L,u,,,,,5,19,119,15,3,0,3,0,,,,,0,2,2,8,,,,,,up,0.5837681803386658,2526.468392934061,None,001,75,2019_Oct_29_1503,ACPT_experiment_5_30_19,3.1.0,59.95405065544141,
,,,C,U,d,n,L,G,g,R,c ,,,,,5,19,119,15,3,0,3,0,,,,,0,3,3,19,,,,,,up,0.6004583363392157,2528.336477251767,None,001,75,2019_Oct_29_1503,ACPT_experiment_5_30_19,3.1.0,59.95405065544141,
,,,C,U,d,n,L,D,g,R,i,,,,,5,19,119,15,3,0,3,0,,,,,0,4,4,15,,,,,,up,0.5334719249367481,2530.2381909116957,None,001,75,2019_Oct_29_1503,ACPT_experiment_5_30_19,3.1.0,59.95405065544141,
,,,C,U,d,n,L,G,d,L,i,,,,,5,19,119,15,3,0,3,0,,,,,0,5,5,16,,,,,,up,0.633835629792884,2532.0559463736827,None,001,75,2019_Oct_29_1503,ACPT_experiment_5_30_19,3.1.0,59.95405065544141,
,,,C,U,d,n,R,G,y,R,y,,,,,5,19,119,15,3,0,3,0,,,,,0,6,6,29,,,,,,down,0.6171343051646545,2534.0074512859173,None,001,75,2019_Oct_29_1503,ACPT_experiment_5_30_19,3.1.0,59.95405065544141,
,,,C,U,d,n,L,D,d,L,c ,,,,,5,19,119,15,3,0,3,0,,,,,0,7,7,12,,,,,,up,0.5170510234238463,2535.942260608761,None,001,75,2019_Oct_29_1503,ACPT_experiment_5_30_19,3.1.0,59.95405065544141,
,,,C,U,d,n,L,G,y,L,y,,,,,5,19,119,15,3,0,3,0,,,,,0,8,8,34,,,,,,down,0.6171373237120861,2537.760291966042,None,001,75,2019_Oct_29_1503,ACPT_experiment_5_30_19,3.1.0,59.95405065544141,
,,,C,U,d,n,R,D,g,R,i,,,,,5,19,119,15,3,0,3,0,,,,,0,9,9,3,,,,,,up,0.4837150840794493,2539.6784069069217,None,001,75,2019_Oct_29_1503,ACPT_experiment_5_30_19,3.1.0,59.95405065544141,
,,,C,U,d,n,L,D,d,R,c ,,,,,5,19,119,15,3,0,3,0,,,,,0,10,10,13,,,,,,up,0.5003792805655394,2541.4464366190914,None,001,75,2019_Oct_29_1503,ACPT_experiment_5_30_19,3.1.0,59.95405065544141,
,,,C,U,d,n,L,D,y,L,y,,,,,5,19,119,15,3,0,3,0,,,,,0,11,11,32,,,,,,down,0.6470692463954038,2543.2511262957487,None,001,75,2019_Oct_29_1503,ACPT_experiment_5_30_19,3.1.0,59.95405065544141,
,,,C,U,d,n,R,G,y,L,y,,,,,5,19,119,15,3,0,3,0,,,,,0,12,12,28,,,,,,down,0.6504898650746327,2545.182608273055,None,001,75,2019_Oct_29_1503,ACPT_experiment_5_30_19,3.1.0,59.95405065544141,
,,,C,U,d,n,L,U,d,R,u,,,,,5,19,119,15,3,0,3,0,,,,,0,13,13,21,,,,,,up,0.5337601962783083,2547.1173871085666,None,001,75,2019_Oct_29_1503,ACPT_experiment_5_30_19,3.1.0,59.95405065544141,
,,,C,U,d,n,L,U,g,R,u,,,,,5,19,119,15,3,0,3,0,,,,,0,14,14,23,,,,,,up,0.5003768657261389,2548.935461329227,None,001,75,2019_Oct_29_1503,ACPT_experiment_5_30_19,3.1.0,59.95405065544141,
,,,C,U,d,n,R,G,g,R,c ,,,,,5,19,119,15,3,0,3,0,,,,,0,15,15,7,,,,,,up,0.5003798842772085,2550.7201440692625,None,001,75,2019_Oct_29_1503,ACPT_experiment_5_30_19,3.1.0,59.95405065544141,
,,,C,U,d,n,L,G,g,L,c ,,,,,5,19,119,15,3,0,3,0,,,,,0,16,16,18,,,,,,up,0.6171500016171194,2552.5048343556628,None,001,75,2019_Oct_29_1503,ACPT_experiment_5_30_19,3.1.0,59.95405065544141,
,,,C,U,d,n,R,U,y,L,u,,,,,5,19,119,15,3,0,3,0,,,,,0,17,17,30,,,,,,down,0.6671604005132394,2554.4229640874255,None,001,75,2019_Oct_29_1503,ACPT_experiment_5_30_19,3.1.0,59.95405065544141,
,,,C,U,d,n,L,U,y,L,u,,,,,5,19,119,15,3,0,3,0,,,,,0,18,18,24,,,,,,down,0.7169812345928221,2556.4247057896646,None,001,75,2019_Oct_29_1503,ACPT_experiment_5_30_19,3.1.0,59.95405065544141,
,,,C,U,d,n,L,D,y,R,y,,,,,5,19,119,15,3,0,3,0,,,,,0,19,19,33,,,,,,down,0.7505652985892084,2558.4260034634826,None,001,75,2019_Oct_29_1503,ACPT_experiment_5_30_19,3.1.0,59.95405065544141,
,,,C,U,d,n,R,G,g,L,c ,,,,,5,19,119,15,3,0,3,0,,,,,0,20,20,6,,,,,,up,0.717211247952946,2560.4608782586365,None,001,75,2019_Oct_29_1503,ACPT_experiment_5_30_19,3.1.0,59.95405065544141,
,,,C,U,d,n,R,D,d,R,c ,,,,,5,19,119,15,3,0,3,0,,,,,0,21,21,1,,,,,,up,1.0674808495787147,2562.462399305008,None,001,75,2019_Oct_29_1503,ACPT_experiment_5_30_19,3.1.0,59.95405065544141,
,,,C,U,d,n,R,D,g,L,i,,,,,5,19,119,15,3,0,3,0,,,,,0,22,22,2,,,,,,up,0.6838520657875051,2564.814183915907,None,001,75,2019_Oct_29_1503,ACPT_experiment_5_30_19,3.1.0,59.95405065544141,
,,,C,U,d,n,R,D,y,L,y,,,,,5,19,119,15,3,0,3,0,,,,,0,23,23,26,,,,,,down,0.6671658339000714,2566.7823481949526,None,001,75,2019_Oct_29_1503,ACPT_experiment_5_30_19,3.1.0,59.95405065544141,
,,,C,U,d,n,L,G,d,R,i,,,,,5,19,119,15,3,0,3,0,,,,,0,24,24,17,,,,,,up,0.6504962040235114,2568.73383137364,None,001,75,2019_Oct_29_1503,ACPT_experiment_5_30_19,3.1.0,59.95405065544141,
,,,C,U,d,n,L,U,y,R,u,,,,,5,19,119,15,3,0,3,0,,,,,0,25,25,25,,,,,,down,0.6004538085180684,2570.6686334519727,None,001,75,2019_Oct_29_1503,ACPT_experiment_5_30_19,3.1.0,59.95405065544141,
,,,C,U,d,n,L,U,d,L,u,,,,,5,19,119,15,3,0,3,0,,,,,0,26,26,20,,,,,,up,0.6338111795557779,2572.5534124535006,None,001,75,2019_Oct_29_1503,ACPT_experiment_5_30_19,3.1.0,59.95405065544141,
,,,C,U,d,n,R,U,d,R,u,,,,,5,19,119,15,3,0,3,0,,,,,0,27,27,9,,,,,,up,0.6004516955326835,2574.471525583249,None,001,75,2019_Oct_29_1503,ACPT_experiment_5_30_19,3.1.0,59.95405065544141,
,,,C,U,d,n,R,G,d,L,i,,,,,5,19,119,15,3,0,3,0,,,,,0,28,28,4,,,,,,up,0.6338295926980209,2576.3562692677697,None,001,75,2019_Oct_29_1503,ACPT_experiment_5_30_19,3.1.0,59.95405065544141,
,,,C,U,d,n,L,U,g,L,u,,,,,5,19,119,15,3,0,3,0,,,,,0,29,29,22,,,,,,up,0.65049439289578,2578.2744050366273,None,001,75,2019_Oct_29_1503,ACPT_experiment_5_30_19,3.1.0,59.95405065544141,
,,,C,U,d,n,R,G,d,R,i,,,,,5,19,119,15,3,0,3,0,,,,,0,30,30,5,,,,,,up,0.5337242755558691,2580.2092252262482,None,001,75,2019_Oct_29_1503,ACPT_experiment_5_30_19,3.1.0,59.95405065544141,
,,,C,U,d,n,R,U,g,R,u,,,,,5,19,119,15,3,0,3,0,,,,,0,31,31,11,,,,,,up,0.4636921491473913,2582.0472662368447,None,001,75,2019_Oct_29_1503,ACPT_experiment_5_30_19,3.1.0,59.95405065544141,
,,,C,U,d,n,R,U,g,L,u,,,,,5,19,119,15,3,0,3,0,,,,,0,32,32,10,,,,,,up,0.6005265555249935,2583.7785704820417,None,001,75,2019_Oct_29_1503,ACPT_experiment_5_30_19,3.1.0,59.95405065544141,
,,,C,U,d,n,L,G,y,R,y,,,,,5,19,119,15,3,0,3,0,,,,,0,33,33,35,,,,,,down,0.6004918422222545,2585.6633531058287,None,001,75,2019_Oct_29_1503,ACPT_experiment_5_30_19,3.1.0,59.95405065544141,
,,,C,U,d,n,R,D,y,R,y,,,,,5,19,119,15,3,0,3,0,,,,,0,34,34,27,,,,,,down,0.617155736854329,2587.5481031292984,None,001,75,2019_Oct_29_1503,ACPT_experiment_5_30_19,3.1.0,59.95405065544141,
,,,C,U,d,n,R,U,y,R,u,,,,,5,19,119,15,3,0,3,0,,,,,0,35,35,31,,,,,,down,0.6671673431737872,2589.4495686645714,None,001,75,2019_Oct_29_1503,ACPT_experiment_5_30_19,3.1.0,59.95405065544141,
,,,C,U,d,n,L,D,y,R,y,,,,,5,19,119,15,3,0,3,0,,,,,1,0,36,33,,,,,,down,0.6171309847632074,2591.4010467117296,None,001,75,2019_Oct_29_1503,ACPT_experiment_5_30_19,3.1.0,59.95405065544141,
,,,C,U,d,n,L,G,y,L,y,,,,,5,19,119,15,3,0,3,0,,,,,1,1,37,34,,,,,,down,0.7505637893154926,2593.3024935320063,None,001,75,2019_Oct_29_1503,ACPT_experiment_5_30_19,3.1.0,59.95405065544141,
,,,C,U,d,n,L,U,y,R,u,,,,,5,19,119,15,3,0,3,0,,,,,1,2,38,25,,,,,,down,0.6669385372297256,2595.3542897039442,None,001,75,2019_Oct_29_1503,ACPT_experiment_5_30_19,3.1.0,59.95405065544141,
,,,C,U,d,n,L,D,d,L,c ,,,,,5,19,119,15,3,0,3,0,,,,,1,3,39,12,,,,,,up,0.5837705951780663,2597.3055298895124,None,001,75,2019_Oct_29_1503,ACPT_experiment_5_30_19,3.1.0,59.95405065544141,
,,,C,U,d,n,R,D,g,L,i,,,,,5,19,119,15,3,0,3,0,,,,,1,4,40,2,,,,,,up,0.6004553177917842,2599.1736181313318,None,001,75,2019_Oct_29_1503,ACPT_experiment_5_30_19,3.1.0,59.95405065544141,
,,,C,U,d,n,L,U,g,L,u,,,,,5,19,119,15,3,0,3,0,,,,,1,5,41,22,,,,,,up,0.5837739155758754,2601.0583868697977,None,001,75,2019_Oct_29_1503,ACPT_experiment_5_30_19,3.1.0,59.95405065544141,
,,,C,U,d,n,L,U,d,L,u,,,,,5,19,119,15,3,0,3,0,,,,,1,6,42,20,,,,,,up,0.5501478937658248,2602.92673832901,None,001,75,2019_Oct_29_1503,ACPT_experiment_5_30_19,3.1.0,59.95405065544141,
,,,C,U,d,n,R,U,d,L,u,,,,,5,19,119,15,3,0,3,0,,,,,1,7,43,8,,,,,,up,0.6505001281402656,2604.761199039738,None,001,75,2019_Oct_29_1503,ACPT_experiment_5_30_19,3.1.0,59.95405065544141,
,,,C,U,d,n,L,U,y,L,u,,,,,5,19,119,15,3,0,3,0,,,,,1,8,44,24,,,,,,down,0.6338311019717366,2606.69597666783,None,001,75,2019_Oct_29_1503,ACPT_experiment_5_30_19,3.1.0,59.95405065544141,
,,,C,U,d,n,R,G,y,R,y,,,,,5,19,119,15,3,0,3,0,,,,,1,9,45,29,,,,,,down,0.6171620758068457,2608.614116058947,None,001,75,2019_Oct_29_1503,ACPT_experiment_5_30_19,3.1.0,59.95405065544141,
,,,C,U,d,n,L,G,d,R,i,,,,,5,19,119,15,3,0,3,0,,,,,1,10,46,17,,,,,,up,0.617115590168396,2610.5155770663987,None,001,75,2019_Oct_29_1503,ACPT_experiment_5_30_19,3.1.0,59.95405065544141,
,,,C,U,d,n,R,D,g,R,i,,,,,5,19,119,15,3,0,3,0,,,,,1,11,47,3,,,,,,up,0.65049439289578,2612.417011208774,None,001,75,2019_Oct_29_1503,ACPT_experiment_5_30_19,3.1.0,59.95405065544141,
,,,C,U,d,n,R,U,d,R,u,,,,,5,19,119,15,3,0,3,0,,,,,1,12,48,9,,,,,,up,0.5170721532631433,2614.3518000054937,None,001,75,2019_Oct_29_1503,ACPT_experiment_5_30_19,3.1.0,59.95405065544141,
,,,C,U,d,n,R,D,y,R,y,,,,,5,19,119,15,3,0,3,0,,,,,1,13,49,27,,,,,,down,0.6169580219575437,2616.2033604891985,None,001,75,2019_Oct_29_1503,ACPT_experiment_5_30_19,3.1.0,59.95405065544141,
,,,C,U,d,n,L,D,g,L,i,,,,,5,19,119,15,3,0,3,0,,,,,1,14,50,14,,,,,,up,0.7672551527357427,2618.1213365768635,None,001,75,2019_Oct_29_1503,ACPT_experiment_5_30_19,3.1.0,59.95405065544141,
,,,C,U,d,n,L,U,d,R,u,,,,,5,19,119,15,3,0,3,0,,,,,1,15,51,21,,,,,,up,0.8840056495137105,2620.1728988113246,None,001,75,2019_Oct_29_1503,ACPT_experiment_5_30_19,3.1.0,59.95405065544141,
,,,C,U,d,n,R,U,y,L,u,,,,,5,19,119,15,3,0,3,0,,,,,1,16,52,30,,,,,,down,0.6338178203623102,2622.3412115425635,None,001,75,2019_Oct_29_1503,ACPT_experiment_5_30_19,3.1.0,59.95405065544141,
,,,C,U,d,n,R,D,d,L,c,,,,,5,19,119,15,3,0,3,0,,,,,1,17,53,0,,,,,,up,0.7005159604232176,2624.259351839246,None,001,75,2019_Oct_29_1503,ACPT_experiment_5_30_19,3.1.0,59.95405065544141,
,,,C,U,d,n,L,G,g,L,c ,,,,,5,19,119,15,3,0,3,0,,,,,1,18,54,18,,,,,,up,0.5837699914663972,2626.2441836351827,None,001,75,2019_Oct_29_1503,ACPT_experiment_5_30_19,3.1.0,59.95405065544141,
,,,C,U,d,n,L,G,d,L,i,,,,,5,19,119,15,3,0,3,0,,,,,1,19,55,16,,,,,,up,0.6171346070186701,2628.0955883618044,None,001,75,2019_Oct_29_1503,ACPT_experiment_5_30_19,3.1.0,59.95405065544141,
,,,C,U,d,n,R,D,y,L,y,,,,,5,19,119,15,3,0,3,0,,,,,1,20,56,26,,,,,,down,0.6004526010983682,2629.99703065426,None,001,75,2019_Oct_29_1503,ACPT_experiment_5_30_19,3.1.0,59.95405065544141,
,,,C,U,d,n,R,G,y,L,y,,,,,5,19,119,15,3,0,3,0,,,,,1,21,57,28,,,,,,down,0.6004978793171176,2631.898476267117,None,001,75,2019_Oct_29_1503,ACPT_experiment_5_30_19,3.1.0,59.95405065544141,
,,,C,U,d,n,R,U,y,R,u,,,,,5,19,119,15,3,0,3,0,,,,,1,22,58,31,,,,,,down,0.7172021923106513,2633.7999239929595,None,001,75,2019_Oct_29_1503,ACPT_experiment_5_30_19,3.1.0,59.95405065544141,
,,,C,U,d,n,L,D,d,R,c ,,,,,5,19,119,15,3,0,3,0,,,,,1,23,59,13,,,,,,up,0.5837841786451463,2635.801436285543,None,001,75,2019_Oct_29_1503,ACPT_experiment_5_30_19,3.1.0,59.95405065544141,
,,,C,U,d,n,L,D,y,L,y,,,,,5,19,119,15,3,0,3,0,,,,,1,24,60,32,,,,,,down,0.6838499528057582,2637.6695272440556,None,001,75,2019_Oct_29_1503,ACPT_experiment_5_30_19,3.1.0,59.95405065544141,
,,,C,U,d,n,L,U,g,R,u,,,,,5,19,119,15,3,0,3,0,,,,,1,25,61,23,,,,,,up,0.6671788136554824,2639.637682769313,None,001,75,2019_Oct_29_1503,ACPT_experiment_5_30_19,3.1.0,59.95405065544141,
,,,C,U,d,n,R,U,g,L,u,,,,,5,19,119,15,3,0,3,0,,,,,1,26,62,10,,,,,,up,0.7502875921672967,2641.6061259622,None,001,75,2019_Oct_29_1503,ACPT_experiment_5_30_19,3.1.0,59.95405065544141,
,,,C,U,d,n,L,D,g,R,i,,,,,5,19,119,15,3,0,3,0,,,,,1,27,63,15,,,,,,up,0.5671000597358216,2643.6407275787533,None,001,75,2019_Oct_29_1503,ACPT_experiment_5_30_19,3.1.0,59.95405065544141,
,,,C,U,d,n,L,G,y,R,y,,,,,5,19,119,15,3,0,3,0,,,,,1,28,64,35,,,,,,down,0.833994948759937,2645.492104836587,None,001,75,2019_Oct_29_1503,ACPT_experiment_5_30_19,3.1.0,59.95405065544141,
,,,C,U,d,n,R,G,g,R,c ,,,,,5,19,119,15,3,0,3,0,,,,,1,29,65,7,,,,,,up,0.6671649283343868,2647.6104129041705,None,001,75,2019_Oct_29_1503,ACPT_experiment_5_30_19,3.1.0,59.95405065544141,
,,,C,U,d,n,R,U,g,R,u,,,,,5,19,119,15,3,0,3,0,,,,,1,30,66,11,,,,,,up,0.5003777712918236,2649.56189547915,None,001,75,2019_Oct_29_1503,ACPT_experiment_5_30_19,3.1.0,59.95405065544141,
,,,C,U,d,n,L,G,g,R,c ,,,,,5,19,119,15,3,0,3,0,,,,,1,31,67,19,,,,,,up,0.5670976449000591,2651.346578822893,None,001,75,2019_Oct_29_1503,ACPT_experiment_5_30_19,3.1.0,59.95405065544141,
,,,C,U,d,n,R,G,d,L,i,,,,,5,19,119,15,3,0,3,0,,,,,1,32,68,4,,,,,,up,0.6004529029523837,2653.1979895866134,None,001,75,2019_Oct_29_1503,ACPT_experiment_5_30_19,3.1.0,59.95405065544141,
,,,C,U,d,n,R,G,g,L,c ,,,,,5,19,119,15,3,0,3,0,,,,,1,33,69,6,,,,,,up,0.5671163598963176,2655.0660506614986,None,001,75,2019_Oct_29_1503,ACPT_experiment_5_30_19,3.1.0,59.95405065544141,
,,,C,U,d,n,R,G,d,R,i,,,,,5,19,119,15,3,0,3,0,,,,,1,34,70,5,,,,,,up,0.7339062336322968,2656.900777608167,None,001,75,2019_Oct_29_1503,ACPT_experiment_5_30_19,3.1.0,59.95405065544141,
,,,C,U,d,n,R,D,d,R,c ,,,,,5,19,119,15,3,0,3,0,,,,,1,35,71,1,,,,,,up,0.6171379274201172,2658.9189993754626,None,001,75,2019_Oct_29_1503,ACPT_experiment_5_30_19,3.1.0,59.95405065544141,
,,,C,U,d,n,,,,,,,,,,5,19,119,15,4,0,4,0,0,0,0,0,,,,,,,,,,,,,,001,75,2019_Oct_29_1503,ACPT_experiment_5_30_19,3.1.0,59.95405065544141,
,,,C,U,d,n,L,D,y,L,y,,,,,5,19,119,15,4,0,4,0,,,,,0,0,0,32,,,,,,down,0.7338902353258163,2697.731815587238,None,001,75,2019_Oct_29_1503,ACPT_experiment_5_30_19,3.1.0,59.95405065544141,
,,,C,U,d,n,R,U,g,R,u,,,,,5,19,119,15,4,0,4,0,,,,,0,1,1,11,,,,,,up,0.5504201667972666,2699.750007470906,None,001,75,2019_Oct_29_1503,ACPT_experiment_5_30_19,3.1.0,59.95405065544141,
,,,C,U,d,n,R,U,y,L,u,,,,,5,19,119,15,4,0,4,0,,,,,0,2,2,30,,,,,,down,0.6338359316468996,2701.568040337461,None,001,75,2019_Oct_29_1503,ACPT_experiment_5_30_19,3.1.0,59.95405065544141,
,,,C,U,d,n,R,G,g,L,c ,,,,,5,19,119,15,4,0,4,0,,,,,0,3,3,6,,,,,,up,1.3343660792488663,2703.4861646358368,None,001,75,2019_Oct_29_1503,ACPT_experiment_5_30_19,3.1.0,59.95405065544141,
,,,C,U,d,n,L,U,d,R,u,,,,,5,19,119,15,4,0,4,0,,,,,0,4,4,21,,,,,,up,0.8172930204236764,2706.1048371930992,None,001,75,2019_Oct_29_1503,ACPT_experiment_5_30_19,3.1.0,59.95405065544141,
,,,C,U,d,n,L,D,d,R,c ,,,,,5,19,119,15,4,0,4,0,,,,,0,5,5,13,,,,,,up,0.5170555512449937,2708.20643940823,None,001,75,2019_Oct_29_1503,ACPT_experiment_5_30_19,3.1.0,59.95405065544141,
,,,C,U,d,n,L,U,y,R,u,,,,,5,19,119,15,4,0,4,0,,,,,0,6,6,25,,,,,,down,0.5170582679384097,2710.0078041541856,None,001,75,2019_Oct_29_1503,ACPT_experiment_5_30_19,3.1.0,59.95405065544141,
,,,C,U,d,n,R,U,g,L,u,,,,,5,19,119,15,4,0,4,0,,,,,0,7,7,10,,,,,,up,0.8170017305346846,2711.8261376681294,None,001,75,2019_Oct_29_1503,ACPT_experiment_5_30_19,3.1.0,59.95405065544141,
,,,C,U,d,n,L,D,g,R,i,,,,,5,19,119,15,4,0,4,0,,,,,0,8,8,15,,,,,,up,0.6838393878861098,2713.927454328612,None,001,75,2019_Oct_29_1503,ACPT_experiment_5_30_19,3.1.0,59.95405065544141,
,,,C,U,d,n,L,G,y,L,y,,,,,5,19,119,15,4,0,4,0,,,,,0,9,9,34,,,,,,down,0.6505052596694441,2715.912270126242,None,001,75,2019_Oct_29_1503,ACPT_experiment_5_30_19,3.1.0,59.95405065544141,
,,,C,U,d,n,L,G,d,R,i,,,,,5,19,119,15,4,0,4,0,,,,,0,10,10,17,,,,,,up,0.4670499820240366,2717.8637520975135,None,001,75,2019_Oct_29_1503,ACPT_experiment_5_30_19,3.1.0,59.95405065544141,
,,,C,U,d,n,L,D,y,R,y,,,,,5,19,119,15,4,0,4,0,,,,,0,11,11,33,,,,,,down,0.5504394855051942,2719.615078372073,None,001,75,2019_Oct_29_1503,ACPT_experiment_5_30_19,3.1.0,59.95405065544141,
,,,C,U,d,n,R,G,y,R,y,,,,,5,19,119,15,4,0,4,0,,,,,0,12,12,29,,,,,,down,0.5504364669614006,2721.466490946921,None,001,75,2019_Oct_29_1503,ACPT_experiment_5_30_19,3.1.0,59.95405065544141,
,,,C,U,d,n,L,D,g,L,i,,,,,5,19,119,15,4,0,4,0,,,,,0,13,13,14,,,,,,up,0.6505016374103434,2723.3179165015245,None,001,75,2019_Oct_29_1503,ACPT_experiment_5_30_19,3.1.0,59.95405065544141,
,,,C,U,d,n,L,G,y,R,y,,,,,5,19,119,15,4,0,4,0,,,,,0,14,14,35,,,,,,down,0.5337740815994039,2725.2527028834083,None,001,75,2019_Oct_29_1503,ACPT_experiment_5_30_19,3.1.0,59.95405065544141,
,,,C,U,d,n,R,G,d,R,i,,,,,5,19,119,15,4,0,4,0,,,,,0,15,15,5,,,,,,up,0.5670810428855475,2727.070779217054,None,001,75,2019_Oct_29_1503,ACPT_experiment_5_30_19,3.1.0,59.95405065544141,
,,,C,U,d,n,L,U,g,R,u,,,,,5,19,119,15,4,0,4,0,,,,,0,16,16,23,,,,,,up,0.6004498844049522,2728.9221788121467,None,001,75,2019_Oct_29_1503,ACPT_experiment_5_30_19,3.1.0,59.95405065544141,
,,,C,U,d,n,L,U,g,L,u,,,,,5,19,119,15,4,0,4,0,,,,,0,17,17,22,,,,,,up,0.6972233281849185,2730.826927320304,None,001,75,2019_Oct_29_1503,ACPT_experiment_5_30_19,3.1.0,59.95405065544141,
,,,C,U,d,n,R,G,g,R,c ,,,,,5,19,119,15,4,0,4,0,,,,,0,18,18,7,,,,,,up,0.45034714811845333,2732.8084562209406,None,001,75,2019_Oct_29_1503,ACPT_experiment_5_30_19,3.1.0,59.95405065544141,
,,,C,U,d,n,L,U,y,L,u,,,,,5,19,119,15,4,0,4,0,,,,,0,19,19,24,,,,,,down,0.9507219008628454,2734.5431122619157,None,001,75,2019_Oct_29_1503,ACPT_experiment_5_30_19,3.1.0,59.95405065544141,
,,,C,U,d,n,R,D,y,R,y,,,,,5,19,119,15,4,0,4,0,,,,,0,20,20,27,,,,,,down,0.6004218119087454,2736.778174448533,None,001,75,2019_Oct_29_1503,ACPT_experiment_5_30_19,3.1.0,59.95405065544141,
,,,C,U,d,n,L,U,d,L,u,,,,,5,19,119,15,4,0,4,0,,,,,0,21,21,20,,,,,,up,0.583785084207193,2738.6629087755537,None,001,75,2019_Oct_29_1503,ACPT_experiment_5_30_19,3.1.0,59.95405065544141,
,,,C,U,d,n,R,G,d,L,i,,,,,5,19,119,15,4,0,4,0,,,,,0,22,22,4,,,,,,up,0.5837935361414566,2740.530968039311,None,001,75,2019_Oct_29_1503,ACPT_experiment_5_30_19,3.1.0,59.95405065544141,
,,,C,U,d,n,R,U,y,R,u,,,,,5,19,119,15,4,0,4,0,,,,,0,23,23,31,,,,,,down,0.750584617300774,2742.399059299678,None,001,75,2019_Oct_29_1503,ACPT_experiment_5_30_19,3.1.0,59.95405065544141,
,,,C,U,d,n,R,G,y,L,y,,,,,5,19,119,15,4,0,4,0,,,,,0,24,24,28,,,,,,down,0.6838457268386264,2744.433957941361,None,001,75,2019_Oct_29_1503,ACPT_experiment_5_30_19,3.1.0,59.95405065544141,
,,,C,U,d,n,R,D,g,L,i,,,,,5,19,119,15,4,0,4,0,,,,,0,25,25,2,,,,,,up,0.7505502058484126,2746.4021306723407,None,001,75,2019_Oct_29_1503,ACPT_experiment_5_30_19,3.1.0,59.95405065544141,
,,,C,U,d,n,L,G,d,L,i,,,,,5,19,119,15,4,0,4,0,,,,,0,26,26,16,,,,,,up,0.9340426116359595,2748.4369967137063,None,001,75,2019_Oct_29_1503,ACPT_experiment_5_30_19,3.1.0,59.95405065544141,
,,,C,U,d,n,R,D,d,R,c ,,,,,5,19,119,15,4,0,4,0,,,,,0,27,27,1,,,,,,up,0.6671857563196681,2750.6553473126296,None,001,75,2019_Oct_29_1503,ACPT_experiment_5_30_19,3.1.0,59.95405065544141,
,,,C,U,d,n,L,G,g,L,c ,,,,,5,19,119,15,4,0,4,0,,,,,0,28,28,18,,,,,,up,0.7505532243958442,2752.6068464896234,None,001,75,2019_Oct_29_1503,ACPT_experiment_5_30_19,3.1.0,59.95405065544141,
,,,C,U,d,n,L,D,d,L,c ,,,,,5,19,119,15,4,0,4,0,,,,,0,29,29,12,,,,,,up,0.617153020160913,2754.6416901937337,None,001,75,2019_Oct_29_1503,ACPT_experiment_5_30_19,3.1.0,59.95405065544141,
,,,C,U,d,n,R,U,d,R,u,,,,,5,19,119,15,4,0,4,0,,,,,0,30,30,9,,,,,,up,0.5337565740228456,2756.543157841992,None,001,75,2019_Oct_29_1503,ACPT_experiment_5_30_19,3.1.0,59.95405065544141,
,,,C,U,d,n,L,G,g,R,c ,,,,,5,19,119,15,4,0,4,0,,,,,0,31,31,19,,,,,,up,0.48368248375845724,2758.3612124420906,None,001,75,2019_Oct_29_1503,ACPT_experiment_5_30_19,3.1.0,59.95405065544141,
,,,C,U,d,n,R,D,d,L,c,,,,,5,19,119,15,4,0,4,0,,,,,0,32,32,0,,,,,,up,0.6338099721360777,2760.1292107613663,None,001,75,2019_Oct_29_1503,ACPT_experiment_5_30_19,3.1.0,59.95405065544141,
,,,C,U,d,n,R,U,d,L,u,,,,,5,19,119,15,4,0,4,0,,,,,0,33,33,8,,,,,,up,0.5003632822626969,2762.064027630582,None,001,75,2019_Oct_29_1503,ACPT_experiment_5_30_19,3.1.0,59.95405065544141,
,,,C,U,d,n,R,D,y,L,y,,,,,5,19,119,15,4,0,4,0,,,,,0,34,34,26,,,,,,down,0.6004568270655,2763.848704635373,None,001,75,2019_Oct_29_1503,ACPT_experiment_5_30_19,3.1.0,59.95405065544141,
,,,C,U,d,n,R,D,g,R,i,,,,,5,19,119,15,4,0,4,0,,,,,0,35,35,3,,,,,,up,0.5504506541328738,2765.7334685441638,None,001,75,2019_Oct_29_1503,ACPT_experiment_5_30_19,3.1.0,59.95405065544141,
,,,C,U,d,n,L,U,y,L,u,,,,,5,19,119,15,4,0,4,0,,,,,1,0,36,24,,,,,,down,0.7172151720697002,2767.5681939815586,None,001,75,2019_Oct_29_1503,ACPT_experiment_5_30_19,3.1.0,59.95405065544141,
,,,C,U,d,n,R,U,g,R,u,,,,,5,19,119,15,4,0,4,0,,,,,1,1,37,11,,,,,,up,0.5504135259943723,2769.5697177446236,None,001,75,2019_Oct_29_1503,ACPT_experiment_5_30_19,3.1.0,59.95405065544141,
,,,C,U,d,n,L,G,d,R,i,,,,,5,19,119,15,4,0,4,0,,,,,1,2,38,17,,,,,,up,0.5504325428446464,2771.4044217503288,None,001,75,2019_Oct_29_1503,ACPT_experiment_5_30_19,3.1.0,59.95405065544141,
,,,C,U,d,n,R,G,g,R,c ,,,,,5,19,119,15,4,0,4,0,,,,,1,3,39,7,,,,,,up,0.5337617055520241,2773.239173147238,None,001,75,2019_Oct_29_1503,ACPT_experiment_5_30_19,3.1.0,59.95405065544141,
,,,C,U,d,n,R,D,d,L,c,,,,,5,19,119,15,4,0,4,0,,,,,1,4,40,0,,,,,,up,0.6835825094458414,2775.0741618020256,None,001,75,2019_Oct_29_1503,ACPT_experiment_5_30_19,3.1.0,59.95405065544141,
,,,C,U,d,n,R,G,d,R,i,,,,,5,19,119,15,4,0,4,0,,,,,1,5,41,5,,,,,,up,0.5504099037352717,2777.0420667877916,None,001,75,2019_Oct_29_1503,ACPT_experiment_5_30_19,3.1.0,59.95405065544141,
,,,C,U,d,n,L,D,g,L,i,,,,,5,19,119,15,4,0,4,0,,,,,1,6,42,14,,,,,,up,0.7505662041512551,2778.8767816602667,None,001,75,2019_Oct_29_1503,ACPT_experiment_5_30_19,3.1.0,59.95405065544141,
,,,C,U,d,n,L,G,d,L,i,,,,,5,19,119,15,4,0,4,0,,,,,1,7,43,16,,,,,,up,0.6004882199667918,2780.9116386459864,None,001,75,2019_Oct_29_1503,ACPT_experiment_5_30_19,3.1.0,59.95405065544141,
,,,C,U,d,n,L,U,y,R,u,,,,,5,19,119,15,4,0,4,0,,,,,1,8,44,25,,,,,,down,0.6671745876919886,2782.796427005018,None,001,75,2019_Oct_29_1503,ACPT_experiment_5_30_19,3.1.0,59.95405065544141,
,,,C,U,d,n,L,U,d,L,u,,,,,5,19,119,15,4,0,4,0,,,,,1,9,45,20,,,,,,up,0.5670852688526793,2784.7479141078184,None,001,75,2019_Oct_29_1503,ACPT_experiment_5_30_19,3.1.0,59.95405065544141,
,,,C,U,d,n,R,D,g,R,i,,,,,5,19,119,15,4,0,4,0,,,,,1,10,46,3,,,,,,up,0.5504162426877883,2786.5993164196043,None,001,75,2019_Oct_29_1503,ACPT_experiment_5_30_19,3.1.0,59.95405065544141,
,,,C,U,d,n,L,D,g,R,i,,,,,5,19,119,15,4,0,4,0,,,,,1,11,47,15,,,,,,up,0.4637072418881871,2788.454038832413,None,001,75,2019_Oct_29_1503,ACPT_experiment_5_30_19,3.1.0,59.95405065544141,
,,,C,U,d,n,L,G,g,R,c ,,,,,5,19,119,15,4,0,4,0,,,,,1,12,48,19,,,,,,up,0.5170455900370143,2790.1853780927668,None,001,75,2019_Oct_29_1503,ACPT_experiment_5_30_19,3.1.0,59.95405065544141,
,,,C,U,d,n,L,D,y,L,y,,,,,5,19,119,15,4,0,4,0,,,,,1,13,49,32,,,,,,down,0.6504789983009687,2791.9867491776713,None,001,75,2019_Oct_29_1503,ACPT_experiment_5_30_19,3.1.0,59.95405065544141,
,,,C,U,d,n,R,G,d,L,i,,,,,5,19,119,15,4,0,4,0,,,,,1,14,50,4,,,,,,up,0.5170537401172624,2793.9215452189055,None,001,75,2019_Oct_29_1503,ACPT_experiment_5_30_19,3.1.0,59.95405065544141,
,,,C,U,d,n,R,U,d,R,u,,,,,5,19,119,15,4,0,4,0,,,,,1,15,51,9,,,,,,up,0.6171442663726339,2795.739604648683,None,001,75,2019_Oct_29_1503,ACPT_experiment_5_30_19,3.1.0,59.95405065544141,
,,,C,U,d,n,R,U,y,R,u,,,,,5,19,119,15,4,0,4,0,,,,,1,16,52,31,,,,,,down,0.5837642562255496,2797.641043620737,None,001,75,2019_Oct_29_1503,ACPT_experiment_5_30_19,3.1.0,59.95405065544141,
,,,C,U,d,n,L,D,d,R,c ,,,,,5,19,119,15,4,0,4,0,,,,,1,17,53,13,,,,,,up,0.4503326590893266,2799.509124618038,None,001,75,2019_Oct_29_1503,ACPT_experiment_5_30_19,3.1.0,59.95405065544141,
,,,C,U,d,n,R,G,g,L,c ,,,,,5,19,119,15,4,0,4,0,,,,,1,18,54,6,,,,,,up,0.8674347261621733,2801.2437788478856,None,001,75,2019_Oct_29_1503,ACPT_experiment_5_30_19,3.1.0,59.95405065544141,
,,,C,U,d,n,L,G,g,L,c ,,,,,5,19,119,15,4,0,4,0,,,,,1,19,55,18,,,,,,up,0.6171578498397139,2803.39538361369,None,001,75,2019_Oct_29_1503,ACPT_experiment_5_30_19,3.1.0,59.95405065544141,
,,,C,U,d,n,R,D,g,L,i,,,,,5,19,119,15,4,0,4,0,,,,,1,20,56,2,,,,,,up,0.4670131557395507,2805.2968551860613,None,001,75,2019_Oct_29_1503,ACPT_experiment_5_30_19,3.1.0,59.95405065544141,
,,,C,U,d,n,L,D,d,L,c ,,,,,5,19,119,15,4,0,4,0,,,,,1,21,57,12,,,,,,up,0.4670185891263827,2807.04818659215,None,001,75,2019_Oct_29_1503,ACPT_experiment_5_30_19,3.1.0,59.95405065544141,
,,,C,U,d,n,R,G,y,L,y,,,,,5,19,119,15,4,0,4,0,,,,,1,22,58,28,,,,,,down,0.6335506788564089,2808.816456580749,None,001,75,2019_Oct_29_1503,ACPT_experiment_5_30_19,3.1.0,59.95405065544141,
,,,C,U,d,n,R,U,g,L,u,,,,,5,19,119,15,4,0,4,0,,,,,1,23,59,10,,,,,,up,0.5837802545283921,2810.7343110209295,None,001,75,2019_Oct_29_1503,ACPT_experiment_5_30_19,3.1.0,59.95405065544141,
,,,C,U,d,n,L,G,y,L,y,,,,,5,19,119,15,4,0,4,0,,,,,1,24,60,34,,,,,,down,0.6171300791975227,2812.602398357183,None,001,75,2019_Oct_29_1503,ACPT_experiment_5_30_19,3.1.0,59.95405065544141,
,,,C,U,d,n,L,G,y,R,y,,,,,5,19,119,15,4,0,4,0,,,,,1,25,61,35,,,,,,down,0.6172891566820908,2814.487013451555,None,001,75,2019_Oct_29_1503,ACPT_experiment_5_30_19,3.1.0,59.95405065544141,
,,,C,U,d,n,R,D,y,R,y,,,,,5,19,119,15,4,0,4,0,,,,,1,26,62,27,,,,,,down,0.5504041684944241,2816.3886127085098,None,001,75,2019_Oct_29_1503,ACPT_experiment_5_30_19,3.1.0,59.95405065544141,
,,,C,U,d,n,L,U,g,L,u,,,,,5,19,119,15,4,0,4,0,,,,,1,27,63,22,,,,,,up,0.6505339358736819,2818.2233191290507,None,001,75,2019_Oct_29_1503,ACPT_experiment_5_30_19,3.1.0,59.95405065544141,
,,,C,U,d,n,L,D,y,R,y,,,,,5,19,119,15,4,0,4,0,,,,,1,28,64,33,,,,,,down,0.6171641887885926,2820.158113057303,None,001,75,2019_Oct_29_1503,ACPT_experiment_5_30_19,3.1.0,59.95405065544141,
,,,C,U,d,n,L,U,d,R,u,,,,,5,19,119,15,4,0,4,0,,,,,1,29,65,21,,,,,,up,0.583363393041509,2822.076648783779,None,001,75,2019_Oct_29_1503,ACPT_experiment_5_30_19,3.1.0,59.95405065544141,
,,,C,U,d,n,L,U,g,R,u,,,,,5,19,119,15,4,0,4,0,,,,,1,30,66,23,,,,,,up,0.5671121339291858,2823.927650232381,None,001,75,2019_Oct_29_1503,ACPT_experiment_5_30_19,3.1.0,59.95405065544141,
,,,C,U,d,n,R,D,d,R,c ,,,,,5,19,119,15,4,0,4,0,,,,,1,31,67,1,,,,,,up,0.5003759601604543,2825.7790782018274,None,001,75,2019_Oct_29_1503,ACPT_experiment_5_30_19,3.1.0,59.95405065544141,
,,,C,U,d,n,R,U,d,L,u,,,,,5,19,119,15,4,0,4,0,,,,,1,32,68,8,,,,,,up,0.6504949966038112,2827.547079841501,None,001,75,2019_Oct_29_1503,ACPT_experiment_5_30_19,3.1.0,59.95405065544141,
,,,C,U,d,n,R,G,y,R,y,,,,,5,19,119,15,4,0,4,0,,,,,1,33,69,29,,,,,,down,0.6004556196457997,2829.481884636527,None,001,75,2019_Oct_29_1503,ACPT_experiment_5_30_19,3.1.0,59.95405065544141,
,,,C,U,d,n,R,D,y,L,y,,,,,5,19,119,15,4,0,4,0,,,,,1,34,70,26,,,,,,down,0.6171358144420083,2831.366647337898,None,001,75,2019_Oct_29_1503,ACPT_experiment_5_30_19,3.1.0,59.95405065544141,
,,,C,U,d,n,R,U,y,L,u,,,,,5,19,119,15,4,0,4,0,,,,,1,35,71,30,,,,,,down,0.566922870966664,2833.2849132061783,None,001,75,2019_Oct_29_1503,ACPT_experiment_5_30_19,3.1.0,59.95405065544141,
,,,C,U,d,n,,,,,,,,,,5,19,119,15,5,0,5,0,0,0,0,0,,,,,,,,,,,,,,001,75,2019_Oct_29_1503,ACPT_experiment_5_30_19,3.1.0,59.95405065544141,
,,,C,U,d,n,R,D,y,L,y,,,,,5,19,119,15,5,0,5,0,,,,,0,0,0,26,,,,,,down,1.8847829256446857,2850.464514099789,None,001,75,2019_Oct_29_1503,ACPT_experiment_5_30_19,3.1.0,59.95405065544141,
,,,C,U,d,n,R,U,g,R,u,,,,,5,19,119,15,5,0,5,0,,,,,0,1,1,11,,,,,,up,0.8172845684894128,2853.6335687901446,None,001,75,2019_Oct_29_1503,ACPT_experiment_5_30_19,3.1.0,59.95405065544141,
,,,C,U,d,n,L,G,d,L,i,,,,,5,19,119,15,5,0,5,0,,,,,0,2,2,16,,,,,,up,1.6012268586819118,2855.7351601385017,None,001,75,2019_Oct_29_1503,ACPT_experiment_5_30_19,3.1.0,59.95405065544141,
,,,C,U,d,n,L,D,d,R,c ,,,,,5,19,119,15,5,0,5,0,,,,,0,3,3,13,,,,,,up,0.617139436697471,2858.6206986067264,None,001,75,2019_Oct_29_1503,ACPT_experiment_5_30_19,3.1.0,59.95405065544141,
,,,C,U,d,n,L,U,d,L,u,,,,,5,19,119,15,5,0,5,0,,,,,0,4,4,20,,,,,,up,0.5671196802977647,2860.5221098081383,None,001,75,2019_Oct_29_1503,ACPT_experiment_5_30_19,3.1.0,59.95405065544141,
,,,C,U,d,n,R,G,y,R,y,,,,,5,19,119,15,5,0,5,0,,,,,0,5,5,29,,,,,,down,0.6671745876919886,2862.373537475727,None,001,75,2019_Oct_29_1503,ACPT_experiment_5_30_19,3.1.0,59.95405065544141,
,,,C,U,d,n,R,G,d,R,i,,,,,5,19,119,15,5,0,5,0,,,,,0,6,6,5,,,,,,up,0.6171303810515383,2864.325018239575,None,001,75,2019_Oct_29_1503,ACPT_experiment_5_30_19,3.1.0,59.95405065544141,
,,,C,U,d,n,R,U,d,R,u,,,,,5,19,119,15,5,0,5,0,,,,,0,7,7,9,,,,,,up,0.5837856879188621,2866.226445137436,None,001,75,2019_Oct_29_1503,ACPT_experiment_5_30_19,3.1.0,59.95405065544141,
,,,C,U,d,n,L,U,y,R,u,,,,,5,19,119,15,5,0,5,0,,,,,0,8,8,25,,,,,,down,0.7005183752589801,2868.1112440613833,None,001,75,2019_Oct_29_1503,ACPT_experiment_5_30_19,3.1.0,59.95405065544141,
,,,C,U,d,n,R,G,g,L,c ,,,,,5,19,119,15,5,0,5,0,,,,,0,9,9,6,,,,,,up,0.7505619781877613,2870.0960734424807,None,001,75,2019_Oct_29_1503,ACPT_experiment_5_30_19,3.1.0,59.95405065544141,
,,,C,U,d,n,R,U,y,R,u,,,,,5,19,119,15,5,0,5,0,,,,,0,10,10,31,,,,,,down,0.6504868465272011,2872.1309542747294,None,001,75,2019_Oct_29_1503,ACPT_experiment_5_30_19,3.1.0,59.95405065544141,
,,,C,U,d,n,L,G,y,L,y,,,,,5,19,119,15,5,0,5,0,,,,,0,11,11,34,,,,,,down,0.6338253667308891,2874.065742769595,None,001,75,2019_Oct_29_1503,ACPT_experiment_5_30_19,3.1.0,59.95405065544141,
,,,C,U,d,n,R,U,d,L,u,,,,,5,19,119,15,5,0,5,0,,,,,0,12,12,8,,,,,,up,0.8339400111872237,2875.983903592405,None,001,75,2019_Oct_29_1503,ACPT_experiment_5_30_19,3.1.0,59.95405065544141,
,,,C,U,d,n,R,D,d,L,c,,,,,5,19,119,15,5,0,5,0,,,,,0,13,13,0,,,,,,up,0.6338637022890907,2878.0854445310106,None,001,75,2019_Oct_29_1503,ACPT_experiment_5_30_19,3.1.0,59.95405065544141,
,,,C,U,d,n,R,U,g,L,u,,,,,5,19,119,15,5,0,5,0,,,,,0,14,14,10,,,,,,up,0.7172290573907958,2880.00361048535,None,001,75,2019_Oct_29_1503,ACPT_experiment_5_30_19,3.1.0,59.95405065544141,
,,,C,U,d,n,L,U,d,R,u,,,,,5,19,119,15,5,0,5,0,,,,,0,15,15,21,,,,,,up,0.7838019277041894,2882.005133040995,None,001,75,2019_Oct_29_1503,ACPT_experiment_5_30_19,3.1.0,59.95405065544141,
,,,C,U,d,n,L,D,d,L,c ,,,,,5,19,119,15,5,0,5,0,,,,,0,16,16,12,,,,,,up,0.7005570126748353,2884.073329588322,None,001,75,2019_Oct_29_1503,ACPT_experiment_5_30_19,3.1.0,59.95405065544141,
,,,C,U,d,n,L,U,g,L,u,,,,,5,19,119,15,5,0,5,0,,,,,0,17,17,22,,,,,,up,0.5837760285612603,2886.0581948901417,None,001,75,2019_Oct_29_1503,ACPT_experiment_5_30_19,3.1.0,59.95405065544141,
,,,C,U,d,n,L,U,y,L,u,,,,,5,19,119,15,5,0,5,0,,,,,0,18,18,24,,,,,,down,0.8172960389711079,2887.94296181748,None,001,75,2019_Oct_29_1503,ACPT_experiment_5_30_19,3.1.0,59.95405065544141,
,,,C,U,d,n,L,D,g,R,i,,,,,5,19,119,15,5,0,5,0,,,,,0,19,19,15,,,,,,up,0.6671948119619628,2890.06121192894,None,001,75,2019_Oct_29_1503,ACPT_experiment_5_30_19,3.1.0,59.95405065544141,
,,,C,U,d,n,L,G,g,L,c ,,,,,5,19,119,15,5,0,5,0,,,,,0,20,20,18,,,,,,up,0.8006098070836742,2892.012715633755,None,001,75,2019_Oct_29_1503,ACPT_experiment_5_30_19,3.1.0,59.95405065544141,
,,,C,U,d,n,L,G,y,R,y,,,,,5,19,119,15,5,0,5,0,,,,,0,21,21,35,,,,,,down,0.6338320075374213,2894.080935725753,None,001,75,2019_Oct_29_1503,ACPT_experiment_5_30_19,3.1.0,59.95405065544141,
,,,C,U,d,n,R,G,y,L,y,,,,,5,19,119,15,5,0,5,0,,,,,0,22,22,28,,,,,,down,0.9840786681925238,2895.999082965096,None,001,75,2019_Oct_29_1503,ACPT_experiment_5_30_19,3.1.0,59.95405065544141,
,,,C,U,d,n,L,U,g,R,u,,,,,5,19,119,15,5,0,5,0,,,,,0,23,23,23,,,,,,up,0.5670988523197593,2898.267468111302,None,001,75,2019_Oct_29_1503,ACPT_experiment_5_30_19,3.1.0,59.95405065544141,
,,,C,U,d,n,L,D,g,L,i,,,,,5,19,119,15,5,0,5,0,,,,,0,24,24,14,,,,,,up,0.7172257369857107,2900.1188752527632,None,001,75,2019_Oct_29_1503,ACPT_experiment_5_30_19,3.1.0,59.95405065544141,
,,,C,U,d,n,R,D,d,R,c ,,,,,5,19,119,15,5,0,5,0,,,,,0,25,25,1,,,,,,up,0.5337414812820498,2902.120397506558,None,001,75,2019_Oct_29_1503,ACPT_experiment_5_30_19,3.1.0,59.95405065544141,
,,,C,U,d,n,R,D,y,R,y,,,,,5,19,119,15,5,0,5,0,,,,,0,26,26,27,,,,,,down,0.6004746364997118,2903.938446371416,None,001,75,2019_Oct_29_1503,ACPT_experiment_5_30_19,3.1.0,59.95405065544141,
,,,C,U,d,n,R,D,g,L,i,,,,,5,19,119,15,5,0,5,0,,,,,0,27,27,2,,,,,,up,0.6804260137250822,2905.843199407398,None,001,75,2019_Oct_29_1503,ACPT_experiment_5_30_19,3.1.0,59.95405065544141,
,,,C,U,d,n,R,G,g,R,c ,,,,,5,19,119,15,5,0,5,0,,,,,0,28,28,7,,,,,,up,0.6171409459711867,2907.808043887275,None,001,75,2019_Oct_29_1503,ACPT_experiment_5_30_19,3.1.0,59.95405065544141,
,,,C,U,d,n,L,G,g,R,c ,,,,,5,19,119,15,5,0,5,0,,,,,0,29,29,19,,,,,,up,0.5504240909103828,2909.70949010384,None,001,75,2019_Oct_29_1503,ACPT_experiment_5_30_19,3.1.0,59.95405065544141,
,,,C,U,d,n,R,G,d,L,i,,,,,5,19,119,15,5,0,5,0,,,,,0,30,30,4,,,,,,up,0.7839401772071142,2911.5442073911545,None,001,75,2019_Oct_29_1503,ACPT_experiment_5_30_19,3.1.0,59.95405065544141,
,,,C,U,d,n,L,D,y,R,y,,,,,5,19,119,15,5,0,5,0,,,,,0,31,31,33,,,,,,down,0.6504986188629118,2913.612453140813,None,001,75,2019_Oct_29_1503,ACPT_experiment_5_30_19,3.1.0,59.95405065544141,
,,,C,U,d,n,R,U,y,L,u,,,,,5,19,119,15,5,0,5,0,,,,,0,32,32,30,,,,,,down,0.8673523198012845,2915.547240730113,None,001,75,2019_Oct_29_1503,ACPT_experiment_5_30_19,3.1.0,59.95405065544141,
,,,C,U,d,n,L,G,d,R,i,,,,,5,19,119,15,5,0,5,0,,,,,0,33,33,17,,,,,,up,0.5837811600940768,2917.698884737041,None,001,75,2019_Oct_29_1503,ACPT_experiment_5_30_19,3.1.0,59.95405065544141,
,,,C,U,d,n,R,D,g,R,i,,,,,5,19,119,15,5,0,5,0,,,,,0,34,34,3,,,,,,up,0.5170664180186577,2919.566979015959,None,001,75,2019_Oct_29_1503,ACPT_experiment_5_30_19,3.1.0,59.95405065544141,
,,,C,U,d,n,L,D,y,L,y,,,,,5,19,119,15,5,0,5,0,,,,,0,35,35,32,,,,,,down,0.6004577326275466,2921.368348893444,None,001,75,2019_Oct_29_1503,ACPT_experiment_5_30_19,3.1.0,59.95405065544141,
,,,C,U,d,n,L,U,d,L,u,,,,,5,19,119,15,5,0,5,0,,,,,1,0,36,20,,,,,,up,0.7670846047694795,2923.253248636898,None,001,75,2019_Oct_29_1503,ACPT_experiment_5_30_19,3.1.0,59.95405065544141,
,,,C,U,d,n,R,D,g,R,i,,,,,5,19,119,15,5,0,5,0,,,,,1,1,37,3,,,,,,up,0.5504213742169668,2925.3046702070205,None,001,75,2019_Oct_29_1503,ACPT_experiment_5_30_19,3.1.0,59.95405065544141,
,,,C,U,d,n,R,U,y,R,u,,,,,5,19,119,15,5,0,5,0,,,,,1,2,38,31,,,,,,down,0.5170597772157635,2927.1393983611088,None,001,75,2019_Oct_29_1503,ACPT_experiment_5_30_19,3.1.0,59.95405065544141,
,,,C,U,d,n,L,G,y,L,y,,,,,5,19,119,15,5,0,5,0,,,,,1,3,39,34,,,,,,down,0.7670541174375103,2928.940928825352,None,001,75,2019_Oct_29_1503,ACPT_experiment_5_30_19,3.1.0,59.95405065544141,
,,,C,U,d,n,L,U,g,L,u,,,,,5,19,119,15,5,0,5,0,,,,,1,4,40,22,,,,,,up,0.6335736198234372,2931.0092458127438,None,001,75,2019_Oct_29_1503,ACPT_experiment_5_30_19,3.1.0,59.95405065544141,
,,,C,U,d,n,L,D,g,R,i,,,,,5,19,119,15,5,0,5,0,,,,,1,5,41,15,,,,,,up,0.683870478933386,2932.927106591873,None,001,75,2019_Oct_29_1503,ACPT_experiment_5_30_19,3.1.0,59.95405065544141,
,,,C,U,d,n,L,D,d,R,c ,,,,,5,19,119,15,5,0,5,0,,,,,1,6,42,13,,,,,,up,0.5837980639626039,2934.8785861483047,None,001,75,2019_Oct_29_1503,ACPT_experiment_5_30_19,3.1.0,59.95405065544141,
,,,C,U,d,n,R,G,y,L,y,,,,,5,19,119,15,5,0,5,0,,,,,1,7,43,28,,,,,,down,0.6671757951080508,2936.7466964255254,None,001,75,2019_Oct_29_1503,ACPT_experiment_5_30_19,3.1.0,59.95405065544141,
,,,C,U,d,n,R,U,y,L,u,,,,,5,19,119,15,5,0,5,0,,,,,1,8,44,30,,,,,,down,0.7172088331171835,2938.698177491231,None,001,75,2019_Oct_29_1503,ACPT_experiment_5_30_19,3.1.0,59.95405065544141,
,,,C,U,d,n,L,U,y,R,u,,,,,5,19,119,15,5,0,5,0,,,,,1,9,45,25,,,,,,down,0.7505770709285571,2940.6996855578473,None,001,75,2019_Oct_29_1503,ACPT_experiment_5_30_19,3.1.0,59.95405065544141,
,,,C,U,d,n,R,G,g,L,c ,,,,,5,19,119,15,5,0,5,0,,,,,1,10,46,6,,,,,,up,0.6004695049668953,2942.7345745401763,None,001,75,2019_Oct_29_1503,ACPT_experiment_5_30_19,3.1.0,59.95405065544141,
,,,C,U,d,n,R,D,y,R,y,,,,,5,19,119,15,5,0,5,0,,,,,1,11,47,27,,,,,,down,0.7505695245563402,2944.619342976788,None,001,75,2019_Oct_29_1503,ACPT_experiment_5_30_19,3.1.0,59.95405065544141,
,,,C,U,d,n,R,D,d,L,c,,,,,5,19,119,15,5,0,5,0,,,,,1,12,48,0,,,,,,up,0.6171192124238587,2946.654237392504,None,001,75,2019_Oct_29_1503,ACPT_experiment_5_30_19,3.1.0,59.95405065544141,
,,,C,U,d,n,R,D,d,R,c ,,,,,5,19,119,15,5,0,5,0,,,,,1,13,49,1,,,,,,up,0.5004016178208985,2948.538966889846,None,001,75,2019_Oct_29_1503,ACPT_experiment_5_30_19,3.1.0,59.95405065544141,
,,,C,U,d,n,L,U,d,R,u,,,,,5,19,119,15,5,0,5,0,,,,,1,14,50,21,,,,,,up,0.4836870115796046,2950.3236783060856,None,001,75,2019_Oct_29_1503,ACPT_experiment_5_30_19,3.1.0,59.95405065544141,
,,,C,U,d,n,L,G,d,R,i,,,,,5,19,119,15,5,0,5,0,,,,,1,15,51,17,,,,,,up,0.5003786768575083,2952.091689001405,None,001,75,2019_Oct_29_1503,ACPT_experiment_5_30_19,3.1.0,59.95405065544141,
,,,C,U,d,n,R,U,d,R,u,,,,,5,19,119,15,5,0,5,0,,,,,1,16,52,9,,,,,,up,0.6338099721360777,2953.876374156276,None,001,75,2019_Oct_29_1503,ACPT_experiment_5_30_19,3.1.0,59.95405065544141,
,,,C,U,d,n,L,U,g,R,u,,,,,5,19,119,15,5,0,5,0,,,,,1,17,53,23,,,,,,up,0.5670964374803589,2955.794501473203,None,001,75,2019_Oct_29_1503,ACPT_experiment_5_30_19,3.1.0,59.95405065544141,
,,,C,U,d,n,L,D,g,L,i,,,,,5,19,119,15,5,0,5,0,,,,,1,18,54,14,,,,,,up,1.1508760882970819,2957.645905294259,None,001,75,2019_Oct_29_1503,ACPT_experiment_5_30_19,3.1.0,59.95405065544141,
,,,C,U,d,n,L,G,g,R,c ,,,,,5,19,119,15,5,0,5,0,,,,,1,19,55,19,,,,,,up,0.5170552493909781,2960.081090275413,None,001,75,2019_Oct_29_1503,ACPT_experiment_5_30_19,3.1.0,59.95405065544141,
,,,C,U,d,n,L,U,y,L,u,,,,,5,19,119,15,5,0,5,0,,,,,1,20,56,24,,,,,,down,0.7839522514004784,2961.899116199311,None,001,75,2019_Oct_29_1503,ACPT_experiment_5_30_19,3.1.0,59.95405065544141,
,,,C,U,d,n,L,G,y,R,y,,,,,5,19,119,15,5,0,5,0,,,,,1,21,57,35,,,,,,down,0.9674365071041393,2963.9840539160978,None,001,75,2019_Oct_29_1503,ACPT_experiment_5_30_19,3.1.0,59.95405065544141,
,,,C,U,d,n,R,G,d,R,i,,,,,5,19,119,15,5,0,5,0,,,,,1,22,58,5,,,,,,up,0.7505671097169397,2966.235765810172,None,001,75,2019_Oct_29_1503,ACPT_experiment_5_30_19,3.1.0,59.95405065544141,
,,,C,U,d,n,L,D,y,L,y,,,,,5,19,119,15,5,0,5,0,,,,,1,23,59,32,,,,,,down,0.733778850906674,2968.2873956601106,None,001,75,2019_Oct_29_1503,ACPT_experiment_5_30_19,3.1.0,59.95405065544141,
,,,C,U,d,n,R,D,g,L,i,,,,,5,19,119,15,5,0,5,0,,,,,1,24,60,2,,,,,,up,0.6671649283380248,2970.322204650918,None,001,75,2019_Oct_29_1503,ACPT_experiment_5_30_19,3.1.0,59.95405065544141,
,,,C,U,d,n,L,G,d,L,i,,,,,5,19,119,15,5,0,5,0,,,,,1,25,61,16,,,,,,up,0.6838451231269573,2972.2736839054924,None,001,75,2019_Oct_29_1503,ACPT_experiment_5_30_19,3.1.0,59.95405065544141,
,,,C,U,d,n,L,G,g,L,c ,,,,,5,19,119,15,5,0,5,0,,,,,1,26,62,18,,,,,,up,0.6171373237120861,2974.241843354863,None,001,75,2019_Oct_29_1503,ACPT_experiment_5_30_19,3.1.0,59.95405065544141,
,,,C,U,d,n,L,D,d,L,c ,,,,,5,19,119,15,5,0,5,0,,,,,1,27,63,12,,,,,,up,0.6004532048063993,2976.1432868547345,None,001,75,2019_Oct_29_1503,ACPT_experiment_5_30_19,3.1.0,59.95405065544141,
