facing_vig,person_vig,text_vig,facing_train,person_train,food_train,correct_key_train,facing_exp,person_exp,food_exp,showL_R,consistent,vig_random.thisRepN,vig_random.thisTrialN,vig_random.thisN,vig_random.thisIndex,trainTrials.thisRepN,trainTrials.thisTrialN,trainTrials.thisN,trainTrials.thisIndex,expBlock.thisRepN,expBlock.thisTrialN,expBlock.thisN,expBlock.thisIndex,breakLoop.thisRepN,breakLoop.thisTrialN,breakLoop.thisN,breakLoop.thisIndex,expTrials.thisRepN,expTrials.thisTrialN,expTrials.thisN,expTrials.thisIndex,train_resp.keys,train_resp.corr,train_resp.rt,train_resp.started,train_resp.stopped,exp_resp.keys,exp_resp.rt,exp_resp.started,exp_resp.stopped,session,participant,date,expName,psychopyVersion,frameRate,
C,U,"did not report her food preferences, so her food preferences are unknown.",,,,,,,,,,0,0,0,2,,,,,,,,,,,,,,,,,,,,,,,,,,001,76,2019_Oct_30_1006,ACPT_experiment_5_30_19,3.1.0,59.95337978464928,
C,G,"cannot eat dairy products because she is lactose intolerant. She enjoys eating wheat products. She thinks eating insects, like crickets, is disgusting.",,,,,,,,,,0,1,1,0,,,,,,,,,,,,,,,,,,,,,,,,,,001,76,2019_Oct_30_1006,ACPT_experiment_5_30_19,3.1.0,59.95337978464928,
C,D,"is allergic to gluten, meaning she can’t eat wheat products. She enjoys eating dairy products. She thinks eating insects, like crickets, is disgusting.",,,,,,,,,,0,2,2,1,,,,,,,,,,,,,,,,,,,,,,,,,,001,76,2019_Oct_30_1006,ACPT_experiment_5_30_19,3.1.0,59.95337978464928,
,,,C,U,y,n,,,,,,,,,,0,0,0,8,,,,,,,,,,,,,n,1,7.756231125804561,782.3934324139288,None,,,,,001,76,2019_Oct_30_1006,ACPT_experiment_5_30_19,3.1.0,59.95337978464928,
,,,C,D,d,v,,,,,,,,,,0,1,1,18,,,,,,,,,,,,,b,0,5.587843116420231,793.4355802052933,None,,,,,001,76,2019_Oct_30_1006,ACPT_experiment_5_30_19,3.1.0,59.95337978464928,
,,,C,U,y,n,,,,,,,,,,0,2,2,17,,,,,,,,,,,,,n,1,2.4185854299965968,802.3093825504327,None,,,,,001,76,2019_Oct_30_1006,ACPT_experiment_5_30_19,3.1.0,59.95337978464928,
,,,C,G,d,b,,,,,,,,,,0,3,3,12,,,,,,,,,,,,,b,1,4.603693516272415,808.0139145307608,None,,,,,001,76,2019_Oct_30_1006,ACPT_experiment_5_30_19,3.1.0,59.95337978464928,
,,,C,U,g,n,,,,,,,,,,0,4,4,7,,,,,,,,,,,,,n,1,3.2359254800580857,815.9035545973645,None,,,,,001,76,2019_Oct_30_1006,ACPT_experiment_5_30_19,3.1.0,59.95337978464928,
,,,C,D,y,b,,,,,,,,,,0,5,5,11,,,,,,,,,,,,,b,1,4.403553088032709,822.4254272314868,None,,,,,001,76,2019_Oct_30_1006,ACPT_experiment_5_30_19,3.1.0,59.95337978464928,
,,,C,D,d,v,,,,,,,,,,0,6,6,0,,,,,,,,,,,,,v,1,2.2851746779992936,830.0982282254724,None,,,,,001,76,2019_Oct_30_1006,ACPT_experiment_5_30_19,3.1.0,59.95337978464928,
,,,C,G,y,b,,,,,,,,,,0,7,7,14,,,,,,,,,,,,,b,1,2.6187497056803295,835.6693470388718,None,,,,,001,76,2019_Oct_30_1006,ACPT_experiment_5_30_19,3.1.0,59.95337978464928,
,,,C,U,g,n,,,,,,,,,,0,8,8,16,,,,,,,,,,,,,n,1,2.502014656216488,841.5740647273965,None,,,,,001,76,2019_Oct_30_1006,ACPT_experiment_5_30_19,3.1.0,59.95337978464928,
,,,C,G,g,v,,,,,,,,,,0,9,9,19,,,,,,,,,,,,,v,1,5.787974790534918,847.3620283488754,None,,,,,001,76,2019_Oct_30_1006,ACPT_experiment_5_30_19,3.1.0,59.95337978464928,
,,,C,D,g,b,,,,,,,,,,0,10,10,10,,,,,,,,,,,,,v,0,7.989733524434769,856.4359400300175,None,,,,,001,76,2019_Oct_30_1006,ACPT_experiment_5_30_19,3.1.0,59.95337978464928,
,,,C,G,y,b,,,,,,,,,,0,11,11,5,,,,,,,,,,,,,b,1,1.8848530695584031,867.7116216141158,None,,,,,001,76,2019_Oct_30_1006,ACPT_experiment_5_30_19,3.1.0,59.95337978464928,
,,,C,D,g,b,,,,,,,,,,0,12,12,1,,,,,,,,,,,,,b,1,2.001611966466271,872.8824200265401,None,,,,,001,76,2019_Oct_30_1006,ACPT_experiment_5_30_19,3.1.0,59.95337978464928,
,,,C,D,y,b,,,,,,,,,,0,13,13,2,,,,,,,,,,,,,b,1,1.3844543040711415,878.1532961997436,None,,,,,001,76,2019_Oct_30_1006,ACPT_experiment_5_30_19,3.1.0,59.95337978464928,
,,,C,G,d,b,,,,,,,,,,0,14,14,3,,,,,,,,,,,,,b,1,3.2024400463183156,882.8404708632534,None,,,,,001,76,2019_Oct_30_1006,ACPT_experiment_5_30_19,3.1.0,59.95337978464928,
,,,C,U,d,n,,,,,,,,,,0,15,15,6,,,,,,,,,,,,,n,1,1.7180450288042266,889.3288973062652,None,,,,,001,76,2019_Oct_30_1006,ACPT_experiment_5_30_19,3.1.0,59.95337978464928,
,,,C,G,g,v,,,,,,,,,,0,16,16,13,,,,,,,,,,,,,v,1,4.57032399922241,894.3328967339264,None,,,,,001,76,2019_Oct_30_1006,ACPT_experiment_5_30_19,3.1.0,59.95337978464928,
,,,C,U,d,n,,,,,,,,,,0,17,17,15,,,,,,,,,,,,,n,1,1.6346493097523762,902.1891775469371,None,,,,,001,76,2019_Oct_30_1006,ACPT_experiment_5_30_19,3.1.0,59.95337978464928,
,,,C,D,d,v,,,,,,,,,,0,18,18,9,,,,,,,,,,,,,v,1,2.985788432721847,907.1097525782407,None,,,,,001,76,2019_Oct_30_1006,ACPT_experiment_5_30_19,3.1.0,59.95337978464928,
,,,C,G,g,v,,,,,,,,,,0,19,19,4,,,,,,,,,,,,,v,1,2.5519276583258943,913.3814425832034,None,,,,,001,76,2019_Oct_30_1006,ACPT_experiment_5_30_19,3.1.0,59.95337978464928,
,,,C,G,y,b,,,,,,,,,,1,0,20,5,,,,,,,,,,,,,b,1,1.2677141228789424,919.20275006309,None,,,,,001,76,2019_Oct_30_1006,ACPT_experiment_5_30_19,3.1.0,59.95337978464928,
,,,C,G,g,v,,,,,,,,,,1,1,21,19,,,,,,,,,,,,,v,1,3.6860749642892188,923.7900419715013,None,,,,,001,76,2019_Oct_30_1006,ACPT_experiment_5_30_19,3.1.0,59.95337978464928,
,,,C,U,y,n,,,,,,,,,,1,2,22,17,,,,,,,,,,,,,n,1,2.385281719817158,930.7620103576392,None,,,,,001,76,2019_Oct_30_1006,ACPT_experiment_5_30_19,3.1.0,59.95337978464928,
,,,C,U,g,n,,,,,,,,,,1,3,23,16,,,,,,,,,,,,,n,1,3.3693778896160893,936.4332018000896,None,,,,,001,76,2019_Oct_30_1006,ACPT_experiment_5_30_19,3.1.0,59.95337978464928,
,,,C,D,d,v,,,,,,,,,,1,4,24,18,,,,,,,,,,,,,v,1,2.6854935696424036,943.0885214101747,None,,,,,001,76,2019_Oct_30_1006,ACPT_experiment_5_30_19,3.1.0,59.95337978464928,
,,,C,D,d,v,,,,,,,,,,1,5,25,9,,,,,,,,,,,,,v,1,1.2344722953073415,949.0431409317528,None,,,,,001,76,2019_Oct_30_1006,ACPT_experiment_5_30_19,3.1.0,59.95337978464928,
,,,C,G,d,b,,,,,,,,,,1,6,26,3,,,,,,,,,,,,,b,1,2.5654023697718458,953.600251635814,None,,,,,001,76,2019_Oct_30_1006,ACPT_experiment_5_30_19,3.1.0,59.95337978464928,
,,,C,G,y,b,,,,,,,,,,1,7,27,14,,,,,,,,,,,,,b,1,1.5846122405610004,959.4349191179222,None,,,,,001,76,2019_Oct_30_1006,ACPT_experiment_5_30_19,3.1.0,59.95337978464928,
,,,C,U,y,n,,,,,,,,,,1,8,28,8,,,,,,,,,,,,,n,1,1.2009723719816066,964.3054730789524,None,,,,,001,76,2019_Oct_30_1006,ACPT_experiment_5_30_19,3.1.0,59.95337978464928,
,,,C,D,g,b,,,,,,,,,,1,9,29,1,,,,,,,,,,,,,b,1,3.833071212693767,968.8290920100799,None,,,,,001,76,2019_Oct_30_1006,ACPT_experiment_5_30_19,3.1.0,59.95337978464928,
,,,C,D,y,b,,,,,,,,,,1,10,30,2,,,,,,,,,,,,,b,1,1.1176240459512883,975.9480895480576,None,,,,,001,76,2019_Oct_30_1006,ACPT_experiment_5_30_19,3.1.0,59.95337978464928,
,,,C,G,g,v,,,,,,,,,,1,11,31,13,,,,,,,,,,,,,v,1,2.0347267082920553,980.3852358361275,None,,,,,001,76,2019_Oct_30_1006,ACPT_experiment_5_30_19,3.1.0,59.95337978464928,
,,,C,D,d,v,,,,,,,,,,1,12,32,0,,,,,,,,,,,,,v,1,1.9682442606144832,985.7059169432769,None,,,,,001,76,2019_Oct_30_1006,ACPT_experiment_5_30_19,3.1.0,59.95337978464928,
,,,C,D,y,b,,,,,,,,,,1,13,33,11,,,,,,,,,,,,,b,1,2.4853265771614588,990.9601156027486,None,,,,,001,76,2019_Oct_30_1006,ACPT_experiment_5_30_19,3.1.0,59.95337978464928,
,,,C,U,d,n,,,,,,,,,,1,14,34,15,,,,,,,,,,,,,n,1,1.567928085768699,996.7313902395731,None,,,,,001,76,2019_Oct_30_1006,ACPT_experiment_5_30_19,3.1.0,59.95337978464928,
,,,C,U,g,n,,,,,,,,,,1,15,35,7,,,,,,,,,,,,,n,1,8.306672695944599,1001.5685906824715,None,,,,,001,76,2019_Oct_30_1006,ACPT_experiment_5_30_19,3.1.0,59.95337978464928,
,,,C,U,d,n,,,,,,,,,,1,16,36,6,,,,,,,,,,,,,n,1,1.2009696551842808,1013.1445052470413,None,,,,,001,76,2019_Oct_30_1006,ACPT_experiment_5_30_19,3.1.0,59.95337978464928,
,,,C,D,g,b,,,,,,,,,,1,17,37,10,,,,,,,,,,,,,b,1,5.237253390261458,1017.6483763814915,None,,,,,001,76,2019_Oct_30_1006,ACPT_experiment_5_30_19,3.1.0,59.95337978464928,
,,,C,G,g,v,,,,,,,,,,1,18,38,4,,,,,,,,,,,,,v,1,1.2009913895633417,1026.171582661278,None,,,,,001,76,2019_Oct_30_1006,ACPT_experiment_5_30_19,3.1.0,59.95337978464928,
,,,C,G,d,b,,,,,,,,,,1,19,39,12,,,,,,,,,,,,,b,1,1.748083148490423,1030.6785056648243,None,,,,,001,76,2019_Oct_30_1006,ACPT_experiment_5_30_19,3.1.0,59.95337978464928,
,,,C,D,g,b,,,,,,,,,,2,0,40,1,,,,,,,,,,,,,b,1,2.4853344256871424,1035.7125395897756,None,,,,,001,76,2019_Oct_30_1006,ACPT_experiment_5_30_19,3.1.0,59.95337978464928,
,,,C,D,y,b,,,,,,,,,,2,1,41,11,,,,,,,,,,,,,b,1,0.9674569930969028,1041.4671376184674,None,,,,,001,76,2019_Oct_30_1006,ACPT_experiment_5_30_19,3.1.0,59.95337978464928,
,,,C,U,g,n,,,,,,,,,,2,2,42,7,,,,,,,,,,,,,n,1,0.8169264931216276,1045.7375972160673,None,,,,,001,76,2019_Oct_30_1006,ACPT_experiment_5_30_19,3.1.0,59.95337978464928,
,,,C,U,d,n,,,,,,,,,,2,3,43,6,,,,,,,,,,,,,n,1,1.3010585850195184,1049.8404916920335,None,,,,,001,76,2019_Oct_30_1006,ACPT_experiment_5_30_19,3.1.0,59.95337978464928,
,,,C,U,y,n,,,,,,,,,,2,4,44,17,,,,,,,,,,,,,n,1,1.8345382832978885,1054.444417645418,None,,,,,001,76,2019_Oct_30_1006,ACPT_experiment_5_30_19,3.1.0,59.95337978464928,
,,,C,G,g,v,,,,,,,,,,2,5,45,13,,,,,,,,,,,,,v,1,5.954766832371206,1059.5649326656853,None,,,,,001,76,2019_Oct_30_1006,ACPT_experiment_5_30_19,3.1.0,59.95337978464928,
,,,C,D,d,v,,,,,,,,,,2,6,46,9,,,,,,,,,,,,,v,1,2.635551890226907,1068.8056490670517,None,,,,,001,76,2019_Oct_30_1006,ACPT_experiment_5_30_19,3.1.0,59.95337978464928,
,,,C,U,y,n,,,,,,,,,,2,7,47,8,,,,,,,,,,,,,n,1,1.3010670372782442,1074.7270246479936,None,,,,,001,76,2019_Oct_30_1006,ACPT_experiment_5_30_19,3.1.0,59.95337978464928,
,,,C,U,g,n,,,,,,,,,,2,8,48,16,,,,,,,,,,,,,n,1,2.6321226881564144,1079.3340501653624,None,,,,,001,76,2019_Oct_30_1006,ACPT_experiment_5_30_19,3.1.0,59.95337978464928,
,,,C,G,y,b,,,,,,,,,,2,9,49,5,,,,,,,,,,,,,b,1,1.1842960657149888,1085.252116988919,None,,,,,001,76,2019_Oct_30_1006,ACPT_experiment_5_30_19,3.1.0,59.95337978464928,
,,,C,G,y,b,,,,,,,,,,2,10,50,14,,,,,,,,,,,,,b,1,1.0641915837238685,1089.7423778739187,None,,,,,001,76,2019_Oct_30_1006,ACPT_experiment_5_30_19,3.1.0,59.95337978464928,
,,,C,G,d,b,,,,,,,,,,2,11,51,3,,,,,,,,,,,,,b,1,2.2351527021266975,1094.0758179673282,None,,,,,001,76,2019_Oct_30_1006,ACPT_experiment_5_30_19,3.1.0,59.95337978464928,
,,,C,D,d,v,,,,,,,,,,2,12,52,0,,,,,,,,,,,,,v,1,1.0174991940166365,1099.59693110564,None,,,,,001,76,2019_Oct_30_1006,ACPT_experiment_5_30_19,3.1.0,59.95337978464928,
,,,C,D,d,v,,,,,,,,,,2,13,53,18,,,,,,,,,,,,,v,1,2.2181860004034206,1103.9006222673545,None,,,,,001,76,2019_Oct_30_1006,ACPT_experiment_5_30_19,3.1.0,59.95337978464928,
,,,C,G,d,b,,,,,,,,,,2,14,54,12,,,,,,,,,,,,,b,1,3.0023977246521554,1109.4047527050245,None,,,,,001,76,2019_Oct_30_1006,ACPT_experiment_5_30_19,3.1.0,59.95337978464928,
,,,C,G,g,v,,,,,,,,,,2,15,55,19,,,,,,,,,,,,,v,1,1.5012225588366164,1115.6764294278667,None,,,,,001,76,2019_Oct_30_1006,ACPT_experiment_5_30_19,3.1.0,59.95337978464928,
,,,C,G,g,v,,,,,,,,,,2,16,56,4,,,,,,,,,,,,,v,1,1.217524309299506,1120.446904420652,None,,,,,001,76,2019_Oct_30_1006,ACPT_experiment_5_30_19,3.1.0,59.95337978464928,
,,,C,D,g,b,,,,,,,,,,2,17,57,10,,,,,,,,,,,,,b,1,1.5508684092005751,1124.9675810601789,None,,,,,001,76,2019_Oct_30_1006,ACPT_experiment_5_30_19,3.1.0,59.95337978464928,
,,,C,D,y,b,,,,,,,,,,2,18,58,2,,,,,,,,,,,,,b,1,1.1342710711790005,1129.7876825838796,None,,,,,001,76,2019_Oct_30_1006,ACPT_experiment_5_30_19,3.1.0,59.95337978464928,
,,,C,U,d,n,,,,,,,,,,2,19,59,15,,,,,,,,,,,,,n,1,1.6510835191822935,1134.2248249476866,None,,,,,001,76,2019_Oct_30_1006,ACPT_experiment_5_30_19,3.1.0,59.95337978464928,
,,,C,U,y,n,,,,,,,,,,3,0,60,8,,,,,,,,,,,,,n,1,1.017485308163259,1139.1451823333305,None,,,,,001,76,2019_Oct_30_1006,ACPT_experiment_5_30_19,3.1.0,59.95337978464928,
,,,C,D,y,b,,,,,,,,,,3,1,61,11,,,,,,,,,,,,,b,1,1.5176377506850258,1143.4655491975786,None,,,,,001,76,2019_Oct_30_1006,ACPT_experiment_5_30_19,3.1.0,59.95337978464928,
,,,C,U,g,n,,,,,,,,,,3,2,62,16,,,,,,,,,,,,,n,1,1.351098974741035,1148.269133498595,None,,,,,001,76,2019_Oct_30_1006,ACPT_experiment_5_30_19,3.1.0,59.95337978464928,
,,,C,D,d,v,,,,,,,,,,3,3,63,9,,,,,,,,,,,,,v,1,2.4348490849222344,1152.9232703962057,None,,,,,001,76,2019_Oct_30_1006,ACPT_experiment_5_30_19,3.1.0,59.95337978464928,
,,,C,D,y,b,,,,,,,,,,3,4,64,2,,,,,,,,,,,,,b,1,22.28450785516702,1158.6440922938343,None,,,,,001,76,2019_Oct_30_1006,ACPT_experiment_5_30_19,3.1.0,59.95337978464928,
,,,C,G,g,v,,,,,,,,,,3,5,65,19,,,,,,,,,,,,,v,1,1.0675335464106865,1184.2144908540524,None,,,,,001,76,2019_Oct_30_1006,ACPT_experiment_5_30_19,3.1.0,59.95337978464928,
,,,C,G,y,b,,,,,,,,,,3,6,66,14,,,,,,,,,,,,,b,1,0.7472783727230308,1188.5880015962694,None,,,,,001,76,2019_Oct_30_1006,ACPT_experiment_5_30_19,3.1.0,59.95337978464928,
,,,C,U,y,n,,,,,,,,,,3,7,67,17,,,,,,,,,,,,,n,1,0.550440664540929,1192.621234669716,None,,,,,001,76,2019_Oct_30_1006,ACPT_experiment_5_30_19,3.1.0,59.95337978464928,
,,,C,D,g,b,,,,,,,,,,3,8,68,10,,,,,,,,,,,,,b,1,1.4509195453649681,1196.4745544754105,None,,,,,001,76,2019_Oct_30_1006,ACPT_experiment_5_30_19,3.1.0,59.95337978464928,
,,,C,D,g,b,,,,,,,,,,3,9,69,1,,,,,,,,,,,,,b,1,6.571942908615256,1201.1947210211295,None,,,,,001,76,2019_Oct_30_1006,ACPT_experiment_5_30_19,3.1.0,59.95337978464928,
,,,C,G,y,b,,,,,,,,,,3,10,70,5,,,,,,,,,,,,,b,1,1.25104113714292,1211.0525917643606,None,,,,,001,76,2019_Oct_30_1006,ACPT_experiment_5_30_19,3.1.0,59.95337978464928,
,,,C,D,d,v,,,,,,,,,,3,11,71,18,,,,,,,,,,,,,v,1,2.3850284539248605,1215.6064746112263,None,,,,,001,76,2019_Oct_30_1006,ACPT_experiment_5_30_19,3.1.0,59.95337978464928,
,,,C,D,d,v,,,,,,,,,,3,12,72,0,,,,,,,,,,,,,v,1,2.919009250393401,1221.2607669700221,None,,,,,001,76,2019_Oct_30_1006,ACPT_experiment_5_30_19,3.1.0,59.95337978464928,
,,,C,U,g,n,,,,,,,,,,3,13,73,7,,,,,,,,,,,,,n,1,7.9397181896229085,1227.4657031494323,None,,,,,001,76,2019_Oct_30_1006,ACPT_experiment_5_30_19,3.1.0,59.95337978464928,
,,,C,G,g,v,,,,,,,,,,3,14,74,13,,,,,,,,,,,,,v,1,1.818160221014523,1238.691360342727,None,,,,,001,76,2019_Oct_30_1006,ACPT_experiment_5_30_19,3.1.0,59.95337978464928,
,,,C,G,d,b,,,,,,,,,,3,15,75,12,,,,,,,,,,,,,b,1,1.734735220923767,1243.7787527726425,None,,,,,001,76,2019_Oct_30_1006,ACPT_experiment_5_30_19,3.1.0,59.95337978464928,
,,,C,G,d,b,,,,,,,,,,3,16,76,3,,,,,,,,,,,,,b,1,1.6514937555921279,1248.7826012671142,None,,,,,001,76,2019_Oct_30_1006,ACPT_experiment_5_30_19,3.1.0,59.95337978464928,
,,,C,G,g,v,,,,,,,,,,3,17,77,4,,,,,,,,,,,,,v,1,1.1509570371692917,1253.7033290428058,None,,,,,001,76,2019_Oct_30_1006,ACPT_experiment_5_30_19,3.1.0,59.95337978464928,
,,,C,U,d,n,,,,,,,,,,3,18,78,15,,,,,,,,,,,,,n,1,0.43342306814565745,1258.1571821256464,None,,,,,001,76,2019_Oct_30_1006,ACPT_experiment_5_30_19,3.1.0,59.95337978464928,
,,,C,U,d,n,,,,,,,,,,3,19,79,6,,,,,,,,,,,,,n,1,0.3503035568312498,1261.8598446474864,None,,,,,001,76,2019_Oct_30_1006,ACPT_experiment_5_30_19,3.1.0,59.95337978464928,
,,,C,G,g,v,,,,,,,,,,4,0,80,13,,,,,,,,,,,,,v,1,1.0837476952501675,1265.5132175212905,None,,,,,001,76,2019_Oct_30_1006,ACPT_experiment_5_30_19,3.1.0,59.95337978464928,
,,,C,D,g,b,,,,,,,,,,4,1,81,10,,,,,,,,,,,,,b,1,1.7514145458540042,1269.8662544781878,None,,,,,001,76,2019_Oct_30_1006,ACPT_experiment_5_30_19,3.1.0,59.95337978464928,
,,,C,D,y,b,,,,,,,,,,4,2,82,11,,,,,,,,,,,,,b,1,1.6346517246834082,1274.9036104426448,None,,,,,001,76,2019_Oct_30_1006,ACPT_experiment_5_30_19,3.1.0,59.95337978464928,
,,,C,D,d,v,,,,,,,,,,4,3,83,0,,,,,,,,,,,,,v,1,1.6346764777265435,1279.8241993598017,None,,,,,001,76,2019_Oct_30_1006,ACPT_experiment_5_30_19,3.1.0,59.95337978464928,
,,,C,U,y,n,,,,,,,,,,4,4,84,17,,,,,,,,,,,,,n,1,0.750609468220091,1284.7448063889415,None,,,,,001,76,2019_Oct_30_1006,ACPT_experiment_5_30_19,3.1.0,59.95337978464928,
,,,C,U,y,n,,,,,,,,,,4,5,85,8,,,,,,,,,,,,,n,1,0.667100247409735,1288.7981519136517,None,,,,,001,76,2019_Oct_30_1006,ACPT_experiment_5_30_19,3.1.0,59.95337978464928,
,,,C,G,y,b,,,,,,,,,,4,6,86,14,,,,,,,,,,,,,b,1,1.267712009814204,1292.751182108742,None,,,,,001,76,2019_Oct_30_1006,ACPT_experiment_5_30_19,3.1.0,59.95337978464928,
,,,C,G,d,b,,,,,,,,,,4,7,87,12,,,,,,,,,,,,,b,1,1.8345594139445893,1297.321794692223,None,,,,,001,76,2019_Oct_30_1006,ACPT_experiment_5_30_19,3.1.0,59.95337978464928,
,,,C,D,d,v,,,,,,,,,,4,8,88,18,,,,,,,,,,,,,v,1,2.218457076412051,1302.4422719791928,None,,,,,001,76,2019_Oct_30_1006,ACPT_experiment_5_30_19,3.1.0,59.95337978464928,
,,,C,U,g,n,,,,,,,,,,4,9,89,7,,,,,,,,,,,,,n,1,3.369375776551351,1307.9466716816735,None,,,,,001,76,2019_Oct_30_1006,ACPT_experiment_5_30_19,3.1.0,59.95337978464928,
,,,C,G,y,b,,,,,,,,,,4,10,90,5,,,,,,,,,,,,,b,1,2.568726522342331,1314.6019855562974,None,,,,,001,76,2019_Oct_30_1006,ACPT_experiment_5_30_19,3.1.0,59.95337978464928,
,,,C,G,d,b,,,,,,,,,,4,11,91,3,,,,,,,,,,,,,b,1,1.4011728716307061,1320.4399820208384,None,,,,,001,76,2019_Oct_30_1006,ACPT_experiment_5_30_19,3.1.0,59.95337978464928,
,,,C,D,y,b,,,,,,,,,,4,12,92,2,,,,,,,,,,,,,b,1,1.0672977887684283,1325.1440065637826,None,,,,,001,76,2019_Oct_30_1006,ACPT_experiment_5_30_19,3.1.0,59.95337978464928,
,,,C,U,g,n,,,,,,,,,,4,13,93,16,,,,,,,,,,,,,n,1,0.8340088096683758,1329.497213169585,None,,,,,001,76,2019_Oct_30_1006,ACPT_experiment_5_30_19,3.1.0,59.95337978464928,
,,,C,D,d,v,,,,,,,,,,4,14,94,9,,,,,,,,,,,,,v,1,1.8181384866352346,1333.6171591717268,None,,,,,001,76,2019_Oct_30_1006,ACPT_experiment_5_30_19,3.1.0,59.95337978464928,
,,,C,U,d,n,,,,,,,,,,4,15,95,6,,,,,,,,,,,,,n,1,1.4344802042064657,1338.7212559814823,None,,,,,001,76,2019_Oct_30_1006,ACPT_experiment_5_30_19,3.1.0,59.95337978464928,
,,,C,G,g,v,,,,,,,,,,4,16,96,19,,,,,,,,,,,,,v,1,4.219783779149793,1343.458629816429,None,,,,,001,76,2019_Oct_30_1006,ACPT_experiment_5_30_19,3.1.0,59.95337978464928,
,,,C,U,d,n,,,,,,,,,,4,17,97,15,,,,,,,,,,,,,n,1,1.6179823613438202,1350.9643438451255,None,,,,,001,76,2019_Oct_30_1006,ACPT_experiment_5_30_19,3.1.0,59.95337978464928,
,,,C,D,g,b,,,,,,,,,,4,18,98,1,,,,,,,,,,,,,b,1,2.2851683388050787,1355.868268228805,None,,,,,001,76,2019_Oct_30_1006,ACPT_experiment_5_30_19,3.1.0,59.95337978464928,
,,,C,G,g,v,,,,,,,,,,4,19,99,4,,,,,,,,,,,,,v,1,7.339218419644794,1361.4393788918123,None,,,,,001,76,2019_Oct_30_1006,ACPT_experiment_5_30_19,3.1.0,59.95337978464928,
,,,C,U,d,n,,,,,,,,,,5,0,100,15,,,,,,,,,,,,,n,1,1.2176513950453227,1372.064536315129,None,,,,,001,76,2019_Oct_30_1006,ACPT_experiment_5_30_19,3.1.0,59.95337978464928,
,,,C,G,d,b,,,,,,,,,,5,1,101,3,,,,,,,,,,,,,b,1,2.051643903929289,1376.5681363735705,None,,,,,001,76,2019_Oct_30_1006,ACPT_experiment_5_30_19,3.1.0,59.95337978464928,
,,,C,U,y,n,,,,,,,,,,5,2,102,17,,,,,,,,,,,,,b,0,0.8173291828718448,1381.9057250166327,None,,,,,001,76,2019_Oct_30_1006,ACPT_experiment_5_30_19,3.1.0,59.95337978464928,
,,,C,U,g,n,,,,,,,,,,5,3,103,16,,,,,,,,,,,,,n,1,0.847356435368738,1386.02901479266,None,,,,,001,76,2019_Oct_30_1006,ACPT_experiment_5_30_19,3.1.0,59.95337978464928,
,,,C,G,g,v,,,,,,,,,,5,4,104,4,,,,,,,,,,,,,v,1,1.134251147997702,1390.1623168727608,None,,,,,001,76,2019_Oct_30_1006,ACPT_experiment_5_30_19,3.1.0,59.95337978464928,
,,,C,D,g,b,,,,,,,,,,5,5,105,10,,,,,,,,,,,,,b,1,1.3339710763709718,1394.5996053398953,None,,,,,001,76,2019_Oct_30_1006,ACPT_experiment_5_30_19,3.1.0,59.95337978464928,
,,,C,U,d,n,,,,,,,,,,5,6,106,6,,,,,,,,,,,,,n,1,1.2343264938460834,1399.2195495308392,None,,,,,001,76,2019_Oct_30_1006,ACPT_experiment_5_30_19,3.1.0,59.95337978464928,
,,,C,D,d,v,,,,,,,,,,5,7,107,18,,,,,,,,,,,,,v,1,2.9187934159319866,1403.7567500341108,None,,,,,001,76,2019_Oct_30_1006,ACPT_experiment_5_30_19,3.1.0,59.95337978464928,
,,,C,D,d,v,,,,,,,,,,5,8,108,9,,,,,,,,,,,,,v,1,1.0006816142847583,1409.944781092539,None,,,,,001,76,2019_Oct_30_1006,ACPT_experiment_5_30_19,3.1.0,59.95337978464928,
,,,C,G,g,v,,,,,,,,,,5,9,109,19,,,,,,,,,,,,,v,1,2.1012583601893766,1414.248646129288,None,,,,,001,76,2019_Oct_30_1006,ACPT_experiment_5_30_19,3.1.0,59.95337978464928,
,,,C,G,y,b,,,,,,,,,,5,10,110,5,,,,,,,,,,,,,b,1,0.9007309392511615,1419.619172016745,None,,,,,001,76,2019_Oct_30_1006,ACPT_experiment_5_30_19,3.1.0,59.95337978464928,
,,,C,G,d,b,,,,,,,,,,5,11,111,12,,,,,,,,,,,,,b,1,1.6179799464125608,1423.8058570529872,None,,,,,001,76,2019_Oct_30_1006,ACPT_experiment_5_30_19,3.1.0,59.95337978464928,
,,,C,U,g,n,,,,,,,,,,5,12,112,7,,,,,,,,,,,,,n,1,0.7005983595374801,1428.7097639284166,None,,,,,001,76,2019_Oct_30_1006,ACPT_experiment_5_30_19,3.1.0,59.95337978464928,
,,,C,D,y,b,,,,,,,,,,5,13,113,2,,,,,,,,,,,,,b,1,0.8671673221192577,1432.713216977931,None,,,,,001,76,2019_Oct_30_1006,ACPT_experiment_5_30_19,3.1.0,59.95337978464928,
,,,C,G,g,v,,,,,,,,,,5,14,114,13,,,,,,,,,,,,,v,1,1.6012855281633165,1436.8662852685584,None,,,,,001,76,2019_Oct_30_1006,ACPT_experiment_5_30_19,3.1.0,59.95337978464928,
,,,C,D,d,v,,,,,,,,,,5,15,115,0,,,,,,,,,,,,,v,1,2.2351466647990037,1441.7534910846782,None,,,,,001,76,2019_Oct_30_1006,ACPT_experiment_5_30_19,3.1.0,59.95337978464928,
,,,C,D,y,b,,,,,,,,,,5,16,116,11,,,,,,,,,,,,,b,1,0.8506923607278623,1447.274581281145,None,,,,,001,76,2019_Oct_30_1006,ACPT_experiment_5_30_19,3.1.0,59.95337978464928,
,,,C,U,y,n,,,,,,,,,,5,17,117,8,,,,,,,,,,,,,b,0,0.6004834691934775,1451.4279043469965,None,,,,,001,76,2019_Oct_30_1006,ACPT_experiment_5_30_19,3.1.0,59.95337978464928,
,,,C,D,g,b,,,,,,,,,,5,18,118,1,,,,,,,,,,,,,b,1,3.2526159740443745,1455.314334970254,None,,,,,001,76,2019_Oct_30_1006,ACPT_experiment_5_30_19,3.1.0,59.95337978464928,
,,,C,G,y,b,,,,,,,,,,5,19,119,14,0,0,0,0,0,0,0,0,,,,,b,1,1.2843913347444413,1461.8528884386383,None,,,,,001,76,2019_Oct_30_1006,ACPT_experiment_5_30_19,3.1.0,59.95337978464928,
,,,C,G,y,b,R,G,y,R,y,,,,,5,19,119,14,0,0,0,0,,,,,0,0,0,29,,,,,,down,1.1843135739652553,1513.2606015472463,None,001,76,2019_Oct_30_1006,ACPT_experiment_5_30_19,3.1.0,59.95337978464928,
,,,C,G,y,b,L,U,y,L,u,,,,,5,19,119,14,0,0,0,0,,,,,0,1,1,24,,,,,,down,0.9841176023114713,1515.729240649085,None,001,76,2019_Oct_30_1006,ACPT_experiment_5_30_19,3.1.0,59.95337978464928,
,,,C,G,y,b,R,D,d,L,c,,,,,5,19,119,14,0,0,0,0,,,,,0,2,2,0,,,,,,up,0.8840347098039274,1517.997717588305,None,001,76,2019_Oct_30_1006,ACPT_experiment_5_30_19,3.1.0,59.95337978464928,
,,,C,G,y,b,R,G,g,R,c ,,,,,5,19,119,14,0,0,0,0,,,,,0,3,3,7,,,,,,up,0.733927426492528,1520.1661273320688,None,001,76,2019_Oct_30_1006,ACPT_experiment_5_30_19,3.1.0,59.95337978464928,
,,,C,G,y,b,L,U,y,R,u,,,,,5,19,119,14,0,0,0,0,,,,,0,4,4,25,,,,,,down,0.5170729586889138,1522.1843950778875,None,001,76,2019_Oct_30_1006,ACPT_experiment_5_30_19,3.1.0,59.95337978464928,
,,,C,G,y,b,R,U,d,R,u,,,,,5,19,119,14,0,0,0,0,,,,,0,5,5,9,,,,,,up,0.8004062517734383,1524.002761473639,None,001,76,2019_Oct_30_1006,ACPT_experiment_5_30_19,3.1.0,59.95337978464928,
,,,C,G,y,b,L,G,d,L,i,,,,,5,19,119,14,0,0,0,0,,,,,0,6,6,16,,,,,,up,0.9674409941787872,1526.0875068372734,None,001,76,2019_Oct_30_1006,ACPT_experiment_5_30_19,3.1.0,59.95337978464928,
,,,C,G,y,b,R,G,d,L,i,,,,,5,19,119,14,0,0,0,0,,,,,0,7,7,4,,,,,,up,0.6838764714477747,1528.3393089795588,None,001,76,2019_Oct_30_1006,ACPT_experiment_5_30_19,3.1.0,59.95337978464928,
,,,C,G,y,b,L,G,y,R,y,,,,,5,19,119,14,0,0,0,0,,,,,0,8,8,35,,,,,,down,0.7339349731521452,1530.3075499196432,None,001,76,2019_Oct_30_1006,ACPT_experiment_5_30_19,3.1.0,59.95337978464928,
,,,C,G,y,b,L,D,d,L,c ,,,,,5,19,119,14,0,0,0,0,,,,,0,9,9,12,,,,,,up,0.7339129369063357,1532.325820080393,None,001,76,2019_Oct_30_1006,ACPT_experiment_5_30_19,3.1.0,59.95337978464928,
,,,C,G,y,b,L,G,y,L,y,,,,,5,19,119,14,0,0,0,0,,,,,0,10,10,34,,,,,,down,0.7005325526668003,1534.3441231445781,None,001,76,2019_Oct_30_1006,ACPT_experiment_5_30_19,3.1.0,59.95337978464928,
,,,C,G,y,b,L,U,g,R,u,,,,,5,19,119,14,0,0,0,0,,,,,0,11,11,23,,,,,,up,0.6838701322535599,1536.329022882679,None,001,76,2019_Oct_30_1006,ACPT_experiment_5_30_19,3.1.0,59.95337978464928,
,,,C,G,y,b,R,D,y,R,y,,,,,5,19,119,14,0,0,0,0,,,,,0,12,12,27,,,,,,down,0.6838698303872661,1538.2972574835694,None,001,76,2019_Oct_30_1006,ACPT_experiment_5_30_19,3.1.0,59.95337978464928,
,,,C,G,y,b,R,U,g,R,u,,,,,5,19,119,14,0,0,0,0,,,,,0,13,13,11,,,,,,up,0.6838680191890489,1540.2654981217872,None,001,76,2019_Oct_30_1006,ACPT_experiment_5_30_19,3.1.0,59.95337978464928,
,,,C,G,y,b,R,D,d,R,c ,,,,,5,19,119,14,0,0,0,0,,,,,0,14,14,1,,,,,,up,0.4503559608344858,1542.2337315152122,None,001,76,2019_Oct_30_1006,ACPT_experiment_5_30_19,3.1.0,59.95337978464928,
,,,C,G,y,b,L,U,d,R,u,,,,,5,19,119,14,0,0,0,0,,,,,0,15,15,21,,,,,,up,0.5304495635616604,1543.9884578371152,None,001,76,2019_Oct_30_1006,ACPT_experiment_5_30_19,3.1.0,59.95337978464928,
,,,C,G,y,b,R,D,y,L,y,,,,,5,19,119,14,0,0,0,0,,,,,0,16,16,26,,,,,,down,0.7339165593029975,1545.803245908805,None,001,76,2019_Oct_30_1006,ACPT_experiment_5_30_19,3.1.0,59.95337978464928,
,,,C,G,y,b,R,G,d,R,i,,,,,5,19,119,14,0,0,0,0,,,,,0,17,17,5,,,,,,up,0.7172287821140344,1547.8215356908695,None,001,76,2019_Oct_30_1006,ACPT_experiment_5_30_19,3.1.0,59.95337978464928,
,,,C,G,y,b,L,D,y,R,y,,,,,5,19,119,14,0,0,0,0,,,,,0,18,18,33,,,,,,down,0.7339479534061866,1549.8231247154908,None,001,76,2019_Oct_30_1006,ACPT_experiment_5_30_19,3.1.0,59.95337978464928,
,,,C,G,y,b,L,G,d,R,i,,,,,5,19,119,14,0,0,0,0,,,,,0,19,19,17,,,,,,up,0.5837950882716996,1551.8414015173012,None,001,76,2019_Oct_30_1006,ACPT_experiment_5_30_19,3.1.0,59.95337978464928,
,,,C,G,y,b,R,G,g,L,c ,,,,,5,19,119,14,0,0,0,0,,,,,0,20,20,6,,,,,,up,0.8339985462114328,1553.7095607723431,None,001,76,2019_Oct_30_1006,ACPT_experiment_5_30_19,3.1.0,59.95337978464928,
,,,C,G,y,b,R,U,y,R,u,,,,,5,19,119,14,0,0,0,0,,,,,0,21,21,31,,,,,,down,0.5671368939881631,1555.8278969210837,None,001,76,2019_Oct_30_1006,ACPT_experiment_5_30_19,3.1.0,59.95337978464928,
,,,C,G,y,b,R,D,g,L,i,,,,,5,19,119,14,0,0,0,0,,,,,0,22,22,2,,,,,,up,1.0007948141769702,1557.6794000949067,None,001,76,2019_Oct_30_1006,ACPT_experiment_5_30_19,3.1.0,59.95337978464928,
,,,C,G,y,b,L,D,d,R,c ,,,,,5,19,119,14,0,0,0,0,,,,,0,23,23,13,,,,,,up,0.8675099404599678,1559.964553340393,None,001,76,2019_Oct_30_1006,ACPT_experiment_5_30_19,3.1.0,59.95337978464928,
,,,C,G,y,b,R,G,y,L,y,,,,,5,19,119,14,0,0,0,0,,,,,0,24,24,28,,,,,,down,0.7674065210383105,1562.1162581005842,None,001,76,2019_Oct_30_1006,ACPT_experiment_5_30_19,3.1.0,59.95337978464928,
,,,C,G,y,b,L,D,g,R,i,,,,,5,19,119,14,0,0,0,0,,,,,0,25,25,15,,,,,,up,0.8006486504762051,1564.1679140791687,None,001,76,2019_Oct_30_1006,ACPT_experiment_5_30_19,3.1.0,59.95337978464928,
,,,C,G,y,b,L,U,g,L,u,,,,,5,19,119,14,0,0,0,0,,,,,0,26,26,22,,,,,,up,0.8673647427312972,1566.2529054639022,None,001,76,2019_Oct_30_1006,ACPT_experiment_5_30_19,3.1.0,59.95337978464928,
,,,C,G,y,b,R,U,g,L,u,,,,,5,19,119,14,0,0,0,0,,,,,0,27,27,10,,,,,,up,0.6170393307741051,1568.4046292416754,None,001,76,2019_Oct_30_1006,ACPT_experiment_5_30_19,3.1.0,59.95337978464928,
,,,C,G,y,b,L,D,y,L,y,,,,,5,19,119,14,0,0,0,0,,,,,0,28,28,32,,,,,,down,0.5504548522606001,1570.3061380905865,None,001,76,2019_Oct_30_1006,ACPT_experiment_5_30_19,3.1.0,59.95337978464928,
,,,C,G,y,b,L,G,g,R,c ,,,,,5,19,119,14,0,0,0,0,,,,,0,29,29,19,,,,,,up,0.5671133484106576,1572.1409396013673,None,001,76,2019_Oct_30_1006,ACPT_experiment_5_30_19,3.1.0,59.95337978464928,
,,,C,G,y,b,R,U,d,L,u,,,,,5,19,119,14,0,0,0,0,,,,,0,30,30,8,,,,,,up,0.7172659116786235,1573.992392363505,None,001,76,2019_Oct_30_1006,ACPT_experiment_5_30_19,3.1.0,59.95337978464928,
,,,C,G,y,b,R,D,g,R,i,,,,,5,19,119,14,0,0,0,0,,,,,0,31,31,3,,,,,,up,0.716970686359673,1576.0109655980998,None,001,76,2019_Oct_30_1006,ACPT_experiment_5_30_19,3.1.0,59.95337978464928,
,,,C,G,y,b,R,U,y,L,u,,,,,5,19,119,14,0,0,0,0,,,,,0,32,32,30,,,,,,down,0.6171504176018061,1578.028975851897,None,001,76,2019_Oct_30_1006,ACPT_experiment_5_30_19,3.1.0,59.95337978464928,
,,,C,G,y,b,L,U,d,L,u,,,,,5,19,119,14,0,0,0,0,,,,,0,33,33,20,,,,,,up,0.6338813616830521,1579.9471712705313,None,001,76,2019_Oct_30_1006,ACPT_experiment_5_30_19,3.1.0,59.95337978464928,
,,,C,G,y,b,L,D,g,L,i,,,,,5,19,119,14,0,0,0,0,,,,,0,34,34,14,,,,,,up,0.5504325141484969,1581.8653914422089,None,001,76,2019_Oct_30_1006,ACPT_experiment_5_30_19,3.1.0,59.95337978464928,
,,,C,G,y,b,L,G,g,L,c ,,,,,5,19,119,14,0,0,0,0,,,,,0,35,35,18,,,,,,up,0.4837399674709104,1583.7001675962138,None,001,76,2019_Oct_30_1006,ACPT_experiment_5_30_19,3.1.0,59.95337978464928,
,,,C,G,y,b,R,U,y,L,u,,,,,5,19,119,14,0,0,0,0,,,,,1,0,36,30,,,,,,down,0.6002875579129068,1585.485082065394,None,001,76,2019_Oct_30_1006,ACPT_experiment_5_30_19,3.1.0,59.95337978464928,
,,,C,G,y,b,L,U,y,R,u,,,,,5,19,119,14,0,0,0,0,,,,,1,1,37,25,,,,,,down,0.8506742487452357,1587.3697624673832,None,001,76,2019_Oct_30_1006,ACPT_experiment_5_30_19,3.1.0,59.95337978464928,
,,,C,G,y,b,R,G,y,L,y,,,,,5,19,119,14,0,0,0,0,,,,,1,2,38,28,,,,,,down,0.6505380466348925,1589.5214808115616,None,001,76,2019_Oct_30_1006,ACPT_experiment_5_30_19,3.1.0,59.95337978464928,
,,,C,G,y,b,L,U,g,R,u,,,,,5,19,119,14,0,0,0,0,,,,,1,3,39,23,,,,,,up,0.5838412738278294,1591.4563573663245,None,001,76,2019_Oct_30_1006,ACPT_experiment_5_30_19,3.1.0,59.95337978464928,
,,,C,G,y,b,L,D,y,R,y,,,,,5,19,119,14,0,0,0,0,,,,,1,4,40,33,,,,,,down,0.6004656590769173,1593.3245157157673,None,001,76,2019_Oct_30_1006,ACPT_experiment_5_30_19,3.1.0,59.95337978464928,
,,,C,G,y,b,L,G,y,R,y,,,,,5,19,119,14,0,0,0,0,,,,,1,5,41,35,,,,,,down,0.6336102856741945,1595.2262829622991,None,001,76,2019_Oct_30_1006,ACPT_experiment_5_30_19,3.1.0,59.95337978464928,
,,,C,G,y,b,R,U,g,R,u,,,,,5,19,119,14,0,0,0,0,,,,,1,6,42,11,,,,,,up,0.5170820146804544,1597.1442507736836,None,001,76,2019_Oct_30_1006,ACPT_experiment_5_30_19,3.1.0,59.95337978464928,
,,,C,G,y,b,R,D,y,R,y,,,,,5,19,119,14,0,0,0,0,,,,,1,7,43,27,,,,,,down,0.717232102644175,1598.9623512251549,None,001,76,2019_Oct_30_1006,ACPT_experiment_5_30_19,3.1.0,59.95337978464928,
,,,C,G,y,b,L,G,g,L,c ,,,,,5,19,119,14,0,0,0,0,,,,,1,8,44,18,,,,,,up,0.7172239522519703,1600.980638290422,None,001,76,2019_Oct_30_1006,ACPT_experiment_5_30_19,3.1.0,59.95337978464928,
,,,C,G,y,b,R,U,g,L,u,,,,,5,19,119,14,0,0,0,0,,,,,1,9,45,10,,,,,,up,0.6171579642614233,1602.982227918776,None,001,76,2019_Oct_30_1006,ACPT_experiment_5_30_19,3.1.0,59.95337978464928,
,,,C,G,y,b,L,G,d,L,i,,,,,5,19,119,14,0,0,0,0,,,,,1,10,46,16,,,,,,up,0.4336799564348439,1604.883742805015,None,001,76,2019_Oct_30_1006,ACPT_experiment_5_30_19,3.1.0,59.95337978464928,
,,,C,G,y,b,L,D,d,L,c ,,,,,5,19,119,14,0,0,0,0,,,,,1,11,47,12,,,,,,up,0.4503490179079108,1606.5851045846257,None,001,76,2019_Oct_30_1006,ACPT_experiment_5_30_19,3.1.0,59.95337978464928,
,,,C,G,y,b,R,D,g,L,i,,,,,5,19,119,14,0,0,0,0,,,,,1,12,48,2,,,,,,up,0.467033776433027,1608.319820184235,None,001,76,2019_Oct_30_1006,ACPT_experiment_5_30_19,3.1.0,59.95337978464928,
,,,C,G,y,b,R,U,d,R,u,,,,,5,19,119,14,0,0,0,0,,,,,1,13,49,9,,,,,,up,0.5170771848183904,1610.0712190330373,None,001,76,2019_Oct_30_1006,ACPT_experiment_5_30_19,3.1.0,59.95337978464928,
,,,C,G,y,b,R,G,g,R,c ,,,,,5,19,119,14,0,0,0,0,,,,,1,14,50,7,,,,,,up,0.4503568664335944,1611.872655554764,None,001,76,2019_Oct_30_1006,ACPT_experiment_5_30_19,3.1.0,59.95337978464928,
,,,C,G,y,b,L,D,g,L,i,,,,,5,19,119,14,0,0,0,0,,,,,1,15,51,14,,,,,,up,0.6838668117234192,1613.6073865495584,None,001,76,2019_Oct_30_1006,ACPT_experiment_5_30_19,3.1.0,59.95337978464928,
,,,C,G,y,b,R,D,d,R,c ,,,,,5,19,119,14,0,0,0,0,,,,,1,16,52,1,,,,,,up,0.416718990172285,1615.5925643065948,None,001,76,2019_Oct_30_1006,ACPT_experiment_5_30_19,3.1.0,59.95337978464928,
,,,C,G,y,b,L,U,d,L,u,,,,,5,19,119,14,0,0,0,0,,,,,1,17,53,20,,,,,,up,0.650538952234001,1617.2936242198264,None,001,76,2019_Oct_30_1006,ACPT_experiment_5_30_19,3.1.0,59.95337978464928,
,,,C,G,y,b,L,U,y,L,u,,,,,5,19,119,14,0,0,0,0,,,,,1,18,54,24,,,,,,down,0.7005799456883324,1619.2285315649597,None,001,76,2019_Oct_30_1006,ACPT_experiment_5_30_19,3.1.0,59.95337978464928,
,,,C,G,y,b,R,G,d,L,i,,,,,5,19,119,14,0,0,0,0,,,,,1,19,55,4,,,,,,up,0.5337447369595338,1621.2134430758492,None,001,76,2019_Oct_30_1006,ACPT_experiment_5_30_19,3.1.0,59.95337978464928,
,,,C,G,y,b,R,G,g,L,c ,,,,,5,19,119,14,0,0,0,0,,,,,1,20,56,6,,,,,,up,0.5504611914543602,1623.014865409856,None,001,76,2019_Oct_30_1006,ACPT_experiment_5_30_19,3.1.0,59.95337978464928,
,,,C,G,y,b,R,U,y,R,u,,,,,5,19,119,14,0,0,0,0,,,,,1,21,57,31,,,,,,down,0.7005506646494268,1624.8663643575499,None,001,76,2019_Oct_30_1006,ACPT_experiment_5_30_19,3.1.0,59.95337978464928,
,,,C,G,y,b,R,G,y,R,y,,,,,5,19,119,14,0,0,0,0,,,,,1,22,58,29,,,,,,down,0.6838743583830365,1626.8679609288308,None,001,76,2019_Oct_30_1006,ACPT_experiment_5_30_19,3.1.0,59.95337978464928,
,,,C,G,y,b,L,G,y,L,y,,,,,5,19,119,14,0,0,0,0,,,,,1,23,59,34,,,,,,down,0.6138277743632443,1628.8562095725451,None,001,76,2019_Oct_30_1006,ACPT_experiment_5_30_19,3.1.0,59.95337978464928,
,,,C,G,y,b,L,D,y,L,y,,,,,5,19,119,14,0,0,0,0,,,,,1,24,60,32,,,,,,down,0.5005167952415377,1630.7543936651527,None,001,76,2019_Oct_30_1006,ACPT_experiment_5_30_19,3.1.0,59.95337978464928,
,,,C,G,y,b,R,D,y,L,y,,,,,5,19,119,14,0,0,0,0,,,,,1,25,61,26,,,,,,down,0.41698946244855506,1632.5558332055432,None,001,76,2019_Oct_30_1006,ACPT_experiment_5_30_19,3.1.0,59.95337978464928,
,,,C,G,y,b,L,D,d,R,c ,,,,,5,19,119,14,0,0,0,0,,,,,1,26,62,13,,,,,,up,0.6505241607812877,1634.2905482014196,None,001,76,2019_Oct_30_1006,ACPT_experiment_5_30_19,3.1.0,59.95337978464928,
,,,C,G,y,b,R,G,d,R,i,,,,,5,19,119,14,0,0,0,0,,,,,1,27,63,5,,,,,,down,0.5838029367976105,1636.2254217375187,None,001,76,2019_Oct_30_1006,ACPT_experiment_5_30_19,3.1.0,59.95337978464928,
,,,C,G,y,b,R,D,d,L,c,,,,,5,19,119,14,0,0,0,0,,,,,1,28,64,0,,,,,,up,1.1509063236178463,1638.0935957840134,None,001,76,2019_Oct_30_1006,ACPT_experiment_5_30_19,3.1.0,59.95337978464928,
,,,C,G,y,b,R,D,g,R,i,,,,,5,19,119,14,0,0,0,0,,,,,1,29,65,3,,,,,,up,0.8006755165840787,1640.5121585740314,None,001,76,2019_Oct_30_1006,ACPT_experiment_5_30_19,3.1.0,59.95337978464928,
,,,C,G,y,b,L,G,g,R,c ,,,,,5,19,119,14,0,0,0,0,,,,,1,30,66,19,,,,,,up,0.8340021686080945,1642.5971783342047,None,001,76,2019_Oct_30_1006,ACPT_experiment_5_30_19,3.1.0,59.95337978464928,
,,,C,G,y,b,L,U,d,R,u,,,,,5,19,119,14,0,0,0,0,,,,,1,31,67,21,,,,,,up,0.46703679509664653,1644.7155377266563,None,001,76,2019_Oct_30_1006,ACPT_experiment_5_30_19,3.1.0,59.95337978464928,
,,,C,G,y,b,L,G,d,R,i,,,,,5,19,119,14,0,0,0,0,,,,,1,32,68,17,,,,,,up,0.5004108401424219,1646.4669281232,None,001,76,2019_Oct_30_1006,ACPT_experiment_5_30_19,3.1.0,59.95337978464928,
,,,C,G,y,b,R,U,d,L,u,,,,,5,19,119,14,0,0,0,0,,,,,1,33,69,8,,,,,,up,0.6505196327855174,1648.2516916591903,None,001,76,2019_Oct_30_1006,ACPT_experiment_5_30_19,3.1.0,59.95337978464928,
,,,C,G,y,b,L,D,g,R,i,,,,,5,19,119,14,0,0,0,0,,,,,1,34,70,15,,,,,,up,0.9174202257720481,1650.1865709307506,None,001,76,2019_Oct_30_1006,ACPT_experiment_5_30_19,3.1.0,59.95337978464928,
,,,C,G,y,b,L,U,g,L,u,,,,,5,19,119,14,0,0,0,0,,,,,1,35,71,22,,,,,,up,0.5004005766854789,1652.3883254385212,None,001,76,2019_Oct_30_1006,ACPT_experiment_5_30_19,3.1.0,59.95337978464928,
,,,C,G,y,b,,,,,,,,,,5,19,119,14,1,0,1,0,0,0,0,0,,,,,,,,,,,,,,001,76,2019_Oct_30_1006,ACPT_experiment_5_30_19,3.1.0,59.95337978464928,
,,,C,G,y,b,L,G,g,L,c ,,,,,5,19,119,14,1,0,1,0,,,,,0,0,0,18,,,,,,up,0.6138751673850038,1675.877067633766,None,001,76,2019_Oct_30_1006,ACPT_experiment_5_30_19,3.1.0,59.95337978464928,
,,,C,G,y,b,L,U,d,L,u,,,,,5,19,119,14,1,0,1,0,,,,,0,1,1,20,,,,,,up,0.5504415701398102,1677.7752595748996,None,001,76,2019_Oct_30_1006,ACPT_experiment_5_30_19,3.1.0,59.95337978464928,
,,,C,G,y,b,R,G,g,L,c ,,,,,5,19,119,14,1,0,1,0,,,,,0,2,2,6,,,,,,up,0.3836398685793938,1679.6100565576849,None,001,76,2019_Oct_30_1006,ACPT_experiment_5_30_19,3.1.0,59.95337978464928,
,,,C,G,y,b,L,G,y,R,y,,,,,5,19,119,14,1,0,1,0,,,,,0,3,3,35,,,,,,down,0.6171501157357397,1681.2780566687716,None,001,76,2019_Oct_30_1006,ACPT_experiment_5_30_19,3.1.0,59.95337978464928,
,,,C,G,y,b,R,U,d,R,u,,,,,5,19,119,14,1,0,1,0,,,,,0,4,4,9,,,,,,up,0.9140719238910151,1683.1995865034335,None,001,76,2019_Oct_30_1006,ACPT_experiment_5_30_19,3.1.0,59.95337978464928,
,,,C,G,y,b,R,U,y,L,u,,,,,5,19,119,14,1,0,1,0,,,,,0,5,5,30,,,,,,down,0.8006507635409434,1685.397998142918,None,001,76,2019_Oct_30_1006,ACPT_experiment_5_30_19,3.1.0,59.95337978464928,
,,,C,G,y,b,R,G,y,L,y,,,,,5,19,119,14,1,0,1,0,,,,,0,6,6,28,,,,,,down,0.6505138973243447,1687.4830070359014,None,001,76,2019_Oct_30_1006,ACPT_experiment_5_30_19,3.1.0,59.95337978464928,
,,,C,G,y,b,L,U,y,R,u,,,,,5,19,119,14,1,0,1,0,,,,,0,7,7,25,,,,,,down,0.8173469929881776,1689.4345429924135,None,001,76,2019_Oct_30_1006,ACPT_experiment_5_30_19,3.1.0,59.95337978464928,
,,,C,G,y,b,L,U,g,R,u,,,,,5,19,119,14,1,0,1,0,,,,,0,8,8,23,,,,,,up,0.5504771903724759,1691.519540716341,None,001,76,2019_Oct_30_1006,ACPT_experiment_5_30_19,3.1.0,59.95337978464928,
,,,C,G,y,b,R,G,d,R,i,,,,,5,19,119,14,1,0,1,0,,,,,0,9,9,5,,,,,,up,0.5170802034822373,1693.3543603391045,None,001,76,2019_Oct_30_1006,ACPT_experiment_5_30_19,3.1.0,59.95337978464928,
,,,C,G,y,b,R,D,d,R,c ,,,,,5,19,119,14,1,0,1,0,,,,,0,10,10,1,,,,,,up,0.6171582661279444,1695.1557965589648,None,001,76,2019_Oct_30_1006,ACPT_experiment_5_30_19,3.1.0,59.95337978464928,
,,,C,G,y,b,L,D,g,R,i,,,,,5,19,119,14,1,0,1,0,,,,,0,11,11,15,,,,,,up,0.8840392377994704,1697.0573156713326,None,001,76,2019_Oct_30_1006,ACPT_experiment_5_30_19,3.1.0,59.95337978464928,
,,,C,G,y,b,L,D,y,R,y,,,,,5,19,119,14,1,0,1,0,,,,,0,12,12,33,,,,,,down,0.6505193309192236,1699.225713944174,None,001,76,2019_Oct_30_1006,ACPT_experiment_5_30_19,3.1.0,59.95337978464928,
,,,C,G,y,b,R,D,g,R,i,,,,,5,19,119,14,1,0,1,0,,,,,0,13,13,3,,,,,,up,0.6171582661279444,1701.1605908008032,None,001,76,2019_Oct_30_1006,ACPT_experiment_5_30_19,3.1.0,59.95337978464928,
,,,C,G,y,b,L,D,g,L,i,,,,,5,19,119,14,1,0,1,0,,,,,0,14,14,14,,,,,,up,0.7172158018595383,1703.0621361755461,None,001,76,2019_Oct_30_1006,ACPT_experiment_5_30_19,3.1.0,59.95337978464928,
,,,C,G,y,b,R,G,y,R,y,,,,,5,19,119,14,1,0,1,0,,,,,0,15,15,29,,,,,,down,0.6838791882451005,1705.063709503116,None,001,76,2019_Oct_30_1006,ACPT_experiment_5_30_19,3.1.0,59.95337978464928,
,,,C,G,y,b,L,U,y,L,u,,,,,5,19,119,14,1,0,1,0,,,,,0,16,16,24,,,,,,down,0.8673623278002651,1707.0319453114716,None,001,76,2019_Oct_30_1006,ACPT_experiment_5_30_19,3.1.0,59.95337978464928,
,,,C,G,y,b,L,G,d,L,i,,,,,5,19,119,14,1,0,1,0,,,,,0,17,17,16,,,,,,up,0.5337939411795105,1709.1836367895423,None,001,76,2019_Oct_30_1006,ACPT_experiment_5_30_19,3.1.0,59.95337978464928,
,,,C,G,y,b,L,D,y,L,y,,,,,5,19,119,14,1,0,1,0,,,,,0,18,18,32,,,,,,down,0.6004783374648923,1711.0017782948412,None,001,76,2019_Oct_30_1006,ACPT_experiment_5_30_19,3.1.0,59.95337978464928,
,,,C,G,y,b,L,G,g,R,c ,,,,,5,19,119,14,1,0,1,0,,,,,0,19,19,19,,,,,,up,0.6171676239857788,1712.8866189878781,None,001,76,2019_Oct_30_1006,ACPT_experiment_5_30_19,3.1.0,59.95337978464928,
,,,C,G,y,b,R,G,g,R,c ,,,,,5,19,119,14,1,0,1,0,,,,,0,20,20,7,,,,,,up,0.48345047761313253,1714.8050857843878,None,001,76,2019_Oct_30_1006,ACPT_experiment_5_30_19,3.1.0,59.95337978464928,
,,,C,G,y,b,R,U,g,R,u,,,,,5,19,119,14,1,0,1,0,,,,,0,21,21,11,,,,,,up,0.4837472122640065,1716.5728645066717,None,001,76,2019_Oct_30_1006,ACPT_experiment_5_30_19,3.1.0,59.95337978464928,
,,,C,G,y,b,L,G,d,R,i,,,,,5,19,119,14,1,0,1,0,,,,,0,22,22,17,,,,,,up,0.5170723549560989,1718.340971961443,None,001,76,2019_Oct_30_1006,ACPT_experiment_5_30_19,3.1.0,59.95337978464928,
,,,C,G,y,b,R,D,y,L,y,,,,,5,19,119,14,1,0,1,0,,,,,0,23,23,26,,,,,,down,0.7005579094425229,1720.1424148223637,None,001,76,2019_Oct_30_1006,ACPT_experiment_5_30_19,3.1.0,59.95337978464928,
,,,C,G,y,b,R,D,g,L,i,,,,,5,19,119,14,1,0,1,0,,,,,0,24,24,2,,,,,,up,0.5835418223794022,1722.127598314861,None,001,76,2019_Oct_30_1006,ACPT_experiment_5_30_19,3.1.0,59.95337978464928,
,,,C,G,y,b,R,D,y,R,y,,,,,5,19,119,14,1,0,1,0,,,,,0,25,25,27,,,,,,down,0.833995829414107,1723.9954843808298,None,001,76,2019_Oct_30_1006,ACPT_experiment_5_30_19,3.1.0,59.95337978464928,
,,,C,G,y,b,L,G,y,L,y,,,,,5,19,119,14,1,0,1,0,,,,,0,26,26,34,,,,,,down,1.134246318135638,1726.113837132221,None,001,76,2019_Oct_30_1006,ACPT_experiment_5_30_19,3.1.0,59.95337978464928,
,,,C,G,y,b,R,G,d,L,i,,,,,5,19,119,14,1,0,1,0,,,,,0,27,27,4,,,,,,up,0.5666901317465545,1728.5495184627514,None,001,76,2019_Oct_30_1006,ACPT_experiment_5_30_19,3.1.0,59.95337978464928,
,,,C,G,y,b,L,U,g,L,u,,,,,5,19,119,14,1,0,1,0,,,,,0,28,28,22,,,,,,up,0.5337583209468448,1730.400597212445,None,001,76,2019_Oct_30_1006,ACPT_experiment_5_30_19,3.1.0,59.95337978464928,
,,,C,G,y,b,R,U,y,R,u,,,,,5,19,119,14,1,0,1,0,,,,,0,29,29,31,,,,,,down,0.6505114823933127,1732.2353963082949,None,001,76,2019_Oct_30_1006,ACPT_experiment_5_30_19,3.1.0,59.95337978464928,
,,,C,G,y,b,R,U,g,L,u,,,,,5,19,119,14,1,0,1,0,,,,,0,30,30,10,,,,,,up,0.7839590620892523,1734.186950074923,None,001,76,2019_Oct_30_1006,ACPT_experiment_5_30_19,3.1.0,59.95337978464928,
,,,C,G,y,b,R,D,d,L,c,,,,,5,19,119,14,1,0,1,0,,,,,0,31,31,0,,,,,,up,0.5171164274477178,1736.255267266455,None,001,76,2019_Oct_30_1006,ACPT_experiment_5_30_19,3.1.0,59.95337978464928,
,,,C,G,y,b,R,U,d,L,u,,,,,5,19,119,14,1,0,1,0,,,,,0,32,32,8,,,,,,up,0.46706698173466066,1738.056681751936,None,001,76,2019_Oct_30_1006,ACPT_experiment_5_30_19,3.1.0,59.95337978464928,
,,,C,G,y,b,L,U,d,R,u,,,,,5,19,119,14,1,0,1,0,,,,,0,33,33,21,,,,,,up,0.8339931126167812,1739.8081056556478,None,001,76,2019_Oct_30_1006,ACPT_experiment_5_30_19,3.1.0,59.95337978464928,
,,,C,G,y,b,L,D,d,L,c ,,,,,5,19,119,14,1,0,1,0,,,,,0,34,34,12,,,,,,up,0.45033301898979516,1741.9264855750132,None,001,76,2019_Oct_30_1006,ACPT_experiment_5_30_19,3.1.0,59.95337978464928,
,,,C,G,y,b,L,D,d,R,c ,,,,,5,19,119,14,1,0,1,0,,,,,0,35,35,13,,,,,,up,0.45037407281733977,1743.644483512662,None,001,76,2019_Oct_30_1006,ACPT_experiment_5_30_19,3.1.0,59.95337978464928,
,,,C,G,y,b,L,D,d,L,c ,,,,,5,19,119,14,1,0,1,0,,,,,1,0,36,12,,,,,,up,0.750604940224548,1745.3625327675954,None,001,76,2019_Oct_30_1006,ACPT_experiment_5_30_19,3.1.0,59.95337978464928,
,,,C,G,y,b,L,G,g,L,c ,,,,,5,19,119,14,1,0,1,0,,,,,1,1,37,18,,,,,,up,0.6805695252608075,1747.4175074651555,None,001,76,2019_Oct_30_1006,ACPT_experiment_5_30_19,3.1.0,59.95337978464928,
,,,C,G,y,b,R,D,g,L,i,,,,,5,19,119,14,1,0,1,0,,,,,1,2,38,2,,,,,,up,0.41699549977602146,1749.3824130836133,None,001,76,2019_Oct_30_1006,ACPT_experiment_5_30_19,3.1.0,59.95337978464928,
,,,C,G,y,b,L,D,y,L,y,,,,,5,19,119,14,1,0,1,0,,,,,1,3,39,32,,,,,,down,0.9507921577528577,1751.100451471357,None,001,76,2019_Oct_30_1006,ACPT_experiment_5_30_19,3.1.0,59.95337978464928,
,,,C,G,y,b,L,D,g,L,i,,,,,5,19,119,14,1,0,1,0,,,,,1,4,40,14,,,,,,up,1.0675178493588646,1753.3522460669828,None,001,76,2019_Oct_30_1006,ACPT_experiment_5_30_19,3.1.0,59.95337978464928,
,,,C,G,y,b,R,D,d,L,c,,,,,5,19,119,14,1,0,1,0,,,,,1,5,41,0,,,,,,up,0.5170714493569903,1755.7041283849785,None,001,76,2019_Oct_30_1006,ACPT_experiment_5_30_19,3.1.0,59.95337978464928,
,,,C,G,y,b,R,G,y,R,y,,,,,5,19,119,14,1,0,1,0,,,,,1,6,42,29,,,,,,down,0.8506956812580029,1757.5055431723258,None,001,76,2019_Oct_30_1006,ACPT_experiment_5_30_19,3.1.0,59.95337978464928,
,,,C,G,y,b,R,G,d,R,i,,,,,5,19,119,14,1,0,1,0,,,,,1,7,43,5,,,,,,up,3.1355911328562343,1759.640846324656,None,001,76,2019_Oct_30_1006,ACPT_experiment_5_30_19,3.1.0,59.95337978464928,
,,,C,G,y,b,L,U,g,R,u,,,,,5,19,119,14,1,0,1,0,,,,,1,8,44,23,,,,,,up,2.151732531898233,1764.0607967944204,None,001,76,2019_Oct_30_1006,ACPT_experiment_5_30_19,3.1.0,59.95337978464928,
,,,C,G,y,b,R,G,d,L,i,,,,,5,19,119,14,1,0,1,0,,,,,1,9,45,4,,,,,,up,1.217643244653118,1767.4968684381795,None,001,76,2019_Oct_30_1006,ACPT_experiment_5_30_19,3.1.0,59.95337978464928,
,,,C,G,y,b,L,G,y,R,y,,,,,5,19,119,14,1,0,1,0,,,,,1,10,46,35,,,,,,down,0.7840689414510962,1769.9988683029433,None,001,76,2019_Oct_30_1006,ACPT_experiment_5_30_19,3.1.0,59.95337978464928,
,,,C,G,y,b,L,U,y,R,u,,,,,5,19,119,14,1,0,1,0,,,,,1,11,47,25,,,,,,down,0.7005488534509823,1772.0671903243372,None,001,76,2019_Oct_30_1006,ACPT_experiment_5_30_19,3.1.0,59.95337978464928,
,,,C,G,y,b,L,U,g,L,u,,,,,5,19,119,14,1,0,1,0,,,,,1,12,48,22,,,,,,up,0.6505105767942041,1774.0521066650888,None,001,76,2019_Oct_30_1006,ACPT_experiment_5_30_19,3.1.0,59.95337978464928,
,,,C,G,y,b,R,U,d,R,u,,,,,5,19,119,14,1,0,1,0,,,,,1,13,49,9,,,,,,up,0.8339979424788453,1775.9869792955888,None,001,76,2019_Oct_30_1006,ACPT_experiment_5_30_19,3.1.0,59.95337978464928,
,,,C,G,y,b,L,U,y,L,u,,,,,5,19,119,14,1,0,1,0,,,,,1,14,50,24,,,,,,down,0.7339129369063357,1778.122010466311,None,001,76,2019_Oct_30_1006,ACPT_experiment_5_30_19,3.1.0,59.95337978464928,
,,,C,G,y,b,R,U,y,R,u,,,,,5,19,119,14,1,0,1,0,,,,,1,15,51,31,,,,,,down,0.8673532718089518,1780.1569771583747,None,001,76,2019_Oct_30_1006,ACPT_experiment_5_30_19,3.1.0,59.95337978464928,
,,,C,G,y,b,R,U,g,L,u,,,,,5,19,119,14,1,0,1,0,,,,,1,16,52,10,,,,,,up,0.9507571412530069,1782.308694596954,None,001,76,2019_Oct_30_1006,ACPT_experiment_5_30_19,3.1.0,59.95337978464928,
,,,C,G,y,b,L,U,d,L,u,,,,,5,19,119,14,1,0,1,0,,,,,1,17,53,20,,,,,,up,0.633854495575406,1784.5438098676495,None,001,76,2019_Oct_30_1006,ACPT_experiment_5_30_19,3.1.0,59.95337978464928,
,,,C,G,y,b,L,G,y,L,y,,,,,5,19,119,14,1,0,1,0,,,,,1,18,54,34,,,,,,down,0.767274001697615,1786.4620110217452,None,001,76,2019_Oct_30_1006,ACPT_experiment_5_30_19,3.1.0,59.95337978464928,
,,,C,G,y,b,L,G,g,R,c ,,,,,5,19,119,14,1,0,1,0,,,,,1,19,55,19,,,,,,up,0.8340045835391265,1788.5136437566184,None,001,76,2019_Oct_30_1006,ACPT_experiment_5_30_19,3.1.0,59.95337978464928,
,,,C,G,y,b,L,D,d,R,c ,,,,,5,19,119,14,1,0,1,0,,,,,1,20,56,13,,,,,,up,0.7506339193967051,1790.631976886695,None,001,76,2019_Oct_30_1006,ACPT_experiment_5_30_19,3.1.0,59.95337978464928,
,,,C,G,y,b,R,U,d,L,u,,,,,5,19,119,14,1,0,1,0,,,,,1,21,57,8,,,,,,up,1.0675426024019998,1792.6669381451638,None,001,76,2019_Oct_30_1006,ACPT_experiment_5_30_19,3.1.0,59.95337978464928,
,,,C,G,y,b,R,D,d,R,c ,,,,,5,19,119,14,1,0,1,0,,,,,1,22,58,1,,,,,,up,0.4670521902821747,1795.018819859427,None,001,76,2019_Oct_30_1006,ACPT_experiment_5_30_19,3.1.0,59.95337978464928,
,,,C,G,y,b,L,D,y,R,y,,,,,5,19,119,14,1,0,1,0,,,,,1,23,59,33,,,,,,down,0.8173125802209142,1796.786915239543,None,001,76,2019_Oct_30_1006,ACPT_experiment_5_30_19,3.1.0,59.95337978464928,
,,,C,G,y,b,R,D,y,L,y,,,,,5,19,119,14,1,0,1,0,,,,,1,24,60,26,,,,,,down,0.8173122783546205,1798.9052743301283,None,001,76,2019_Oct_30_1006,ACPT_experiment_5_30_19,3.1.0,59.95337978464928,
,,,C,G,y,b,L,G,d,R,i,,,,,5,19,119,14,1,0,1,0,,,,,1,25,61,17,,,,,,up,0.9507631785804733,1801.0069471528566,None,001,76,2019_Oct_30_1006,ACPT_experiment_5_30_19,3.1.0,59.95337978464928,
,,,C,G,y,b,R,D,g,R,i,,,,,5,19,119,14,1,0,1,0,,,,,1,26,62,3,,,,,,up,0.9174030193883027,1803.2420663478151,None,001,76,2019_Oct_30_1006,ACPT_experiment_5_30_19,3.1.0,59.95337978464928,
,,,C,G,y,b,R,U,y,L,u,,,,,5,19,119,14,1,0,1,0,,,,,1,27,63,30,,,,,,down,0.9173909447331425,1805.4605140663696,None,001,76,2019_Oct_30_1006,ACPT_experiment_5_30_19,3.1.0,59.95337978464928,
,,,C,G,y,b,R,G,g,R,c ,,,,,5,19,119,14,1,0,1,0,,,,,1,28,64,7,,,,,,up,1.0508228273772602,1807.6789427673418,None,001,76,2019_Oct_30_1006,ACPT_experiment_5_30_19,3.1.0,59.95337978464928,
,,,C,G,y,b,L,G,d,L,i,,,,,5,19,119,14,1,0,1,0,,,,,1,29,65,16,,,,,,up,0.8672533540373024,1810.0142163971402,None,001,76,2019_Oct_30_1006,ACPT_experiment_5_30_19,3.1.0,59.95337978464928,
,,,C,G,y,b,L,U,d,R,u,,,,,5,19,119,14,1,0,1,0,,,,,1,30,66,21,,,,,,up,0.8339931126167812,1812.165867425116,None,001,76,2019_Oct_30_1006,ACPT_experiment_5_30_19,3.1.0,59.95337978464928,
,,,C,G,y,b,R,G,y,L,y,,,,,5,19,119,14,1,0,1,0,,,,,1,31,67,28,,,,,,down,0.7172345175752071,1814.2842225914383,None,001,76,2019_Oct_30_1006,ACPT_experiment_5_30_19,3.1.0,59.95337978464928,
,,,C,G,y,b,R,G,g,L,c ,,,,,5,19,119,14,1,0,1,0,,,,,1,32,68,6,,,,,,up,0.5838225581121606,1816.2858137291244,None,001,76,2019_Oct_30_1006,ACPT_experiment_5_30_19,3.1.0,59.95337978464928,
,,,C,G,y,b,L,D,g,R,i,,,,,5,19,119,14,1,0,1,0,,,,,1,33,69,15,,,,,,up,0.6338532881095489,1818.137263170732,None,001,76,2019_Oct_30_1006,ACPT_experiment_5_30_19,3.1.0,59.95337978464928,
,,,C,G,y,b,R,D,y,R,y,,,,,5,19,119,14,1,0,1,0,,,,,1,34,70,27,,,,,,down,0.6505187271864088,1820.0554878704052,None,001,76,2019_Oct_30_1006,ACPT_experiment_5_30_19,3.1.0,59.95337978464928,
,,,C,G,y,b,R,U,g,R,u,,,,,5,19,119,14,1,0,1,0,,,,,1,35,71,11,,,,,,up,0.8340130357978524,1821.9903635195687,None,001,76,2019_Oct_30_1006,ACPT_experiment_5_30_19,3.1.0,59.95337978464928,
,,,C,G,y,b,,,,,,,,,,5,19,119,14,2,0,2,0,0,0,0,0,,,,,,,,,,,,,,001,76,2019_Oct_30_1006,ACPT_experiment_5_30_19,3.1.0,59.95337978464928,
,,,C,G,y,b,R,D,y,L,y,,,,,5,19,119,14,2,0,2,0,,,,,0,0,0,26,,,,,,down,0.8306701675116983,1847.480704399159,None,001,76,2019_Oct_30_1006,ACPT_experiment_5_30_19,3.1.0,59.95337978464928,
,,,C,G,y,b,R,G,y,L,y,,,,,5,19,119,14,2,0,2,0,,,,,0,1,1,28,,,,,,down,0.6505199346518111,1849.6124090023798,None,001,76,2019_Oct_30_1006,ACPT_experiment_5_30_19,3.1.0,59.95337978464928,
,,,C,G,y,b,R,U,y,R,u,,,,,5,19,119,14,2,0,2,0,,,,,0,2,2,31,,,,,,down,0.7839551378260694,1851.563970013801,None,001,76,2019_Oct_30_1006,ACPT_experiment_5_30_19,3.1.0,59.95337978464928,
,,,C,G,y,b,R,U,g,R,u,,,,,5,19,119,14,2,0,2,0,,,,,0,3,3,11,,,,,,up,0.4670328708339184,1853.6322914314626,None,001,76,2019_Oct_30_1006,ACPT_experiment_5_30_19,3.1.0,59.95337978464928,
,,,C,G,y,b,R,G,g,L,c ,,,,,5,19,119,14,2,0,2,0,,,,,0,4,4,6,,,,,,up,0.6171606810585217,1855.3836860541353,None,001,76,2019_Oct_30_1006,ACPT_experiment_5_30_19,3.1.0,59.95337978464928,
,,,C,G,y,b,L,U,y,L,u,,,,,5,19,119,14,2,0,2,0,,,,,0,5,5,24,,,,,,down,0.6505120861261275,1857.2852039590377,None,001,76,2019_Oct_30_1006,ACPT_experiment_5_30_19,3.1.0,59.95337978464928,
,,,C,G,y,b,R,U,d,R,u,,,,,5,19,119,14,2,0,2,0,,,,,0,6,6,9,,,,,,up,0.5337211913820283,1859.220123680693,None,001,76,2019_Oct_30_1006,ACPT_experiment_5_30_19,3.1.0,59.95337978464928,
,,,C,G,y,b,L,U,d,R,u,,,,,5,19,119,14,2,0,2,0,,,,,0,7,7,21,,,,,,up,0.41702115841826526,1861.0381734186124,None,001,76,2019_Oct_30_1006,ACPT_experiment_5_30_19,3.1.0,59.95337978464928,
,,,C,G,y,b,R,U,y,L,u,,,,,5,19,119,14,2,0,2,0,,,,,0,8,8,30,,,,,,down,0.6172050554168891,1862.7395336888915,None,001,76,2019_Oct_30_1006,ACPT_experiment_5_30_19,3.1.0,59.95337978464928,
,,,C,G,y,b,L,D,g,R,i,,,,,5,19,119,14,2,0,2,0,,,,,0,9,9,15,,,,,,up,0.6838806975765692,1864.6410727244404,None,001,76,2019_Oct_30_1006,ACPT_experiment_5_30_19,3.1.0,59.95337978464928,
,,,C,G,y,b,L,G,d,L,i,,,,,5,19,119,14,2,0,2,0,,,,,0,10,10,16,,,,,,up,0.6335637982519984,1866.626268895326,None,001,76,2019_Oct_30_1006,ACPT_experiment_5_30_19,3.1.0,59.95337978464928,
,,,C,G,y,b,L,U,g,L,u,,,,,5,19,119,14,2,0,2,0,,,,,0,11,11,22,,,,,,up,0.5003966524227508,1868.544190521154,None,001,76,2019_Oct_30_1006,ACPT_experiment_5_30_19,3.1.0,59.95337978464928,
,,,C,G,y,b,R,D,g,R,i,,,,,5,19,119,14,2,0,2,0,,,,,0,12,12,3,,,,,,up,0.8506772674086278,1870.3289492272822,None,001,76,2019_Oct_30_1006,ACPT_experiment_5_30_19,3.1.0,59.95337978464928,
,,,C,G,y,b,L,D,y,R,y,,,,,5,19,119,14,2,0,2,0,,,,,0,13,13,33,,,,,,down,0.7005796438215839,1872.4639888502631,None,001,76,2019_Oct_30_1006,ACPT_experiment_5_30_19,3.1.0,59.95337978464928,
,,,C,G,y,b,R,G,d,L,i,,,,,5,19,119,14,2,0,2,0,,,,,0,14,14,4,,,,,,up,1.234319550919281,1874.448906096614,None,001,76,2019_Oct_30_1006,ACPT_experiment_5_30_19,3.1.0,59.95337978464928,
,,,C,G,y,b,L,G,g,L,c ,,,,,5,19,119,14,2,0,2,0,,,,,0,15,15,18,,,,,,up,0.5337556041495191,1876.967580456446,None,001,76,2019_Oct_30_1006,ACPT_experiment_5_30_19,3.1.0,59.95337978464928,
,,,C,G,y,b,L,D,d,R,c ,,,,,5,19,119,14,2,0,2,0,,,,,0,16,16,13,,,,,,up,0.4670358894977653,1878.785736149465,None,001,76,2019_Oct_30_1006,ACPT_experiment_5_30_19,3.1.0,59.95337978464928,
,,,C,G,y,b,R,G,y,R,y,,,,,5,19,119,14,2,0,2,0,,,,,0,17,17,29,,,,,,down,0.9672381399718688,1880.5539444276071,None,001,76,2019_Oct_30_1006,ACPT_experiment_5_30_19,3.1.0,59.95337978464928,
,,,C,G,y,b,L,U,y,R,u,,,,,5,19,119,14,2,0,2,0,,,,,0,18,18,25,,,,,,down,0.5337743198647331,1882.8055754116551,None,001,76,2019_Oct_30_1006,ACPT_experiment_5_30_19,3.1.0,59.95337978464928,
,,,C,G,y,b,L,U,g,R,u,,,,,5,19,119,14,2,0,2,0,,,,,0,19,19,23,,,,,,up,0.5003954449571211,1884.6403708851083,None,001,76,2019_Oct_30_1006,ACPT_experiment_5_30_19,3.1.0,59.95337978464928,
,,,C,G,y,b,L,D,d,L,c ,,,,,5,19,119,14,2,0,2,0,,,,,0,20,20,12,,,,,,up,0.5004017841511086,1886.4251247613745,None,001,76,2019_Oct_30_1006,ACPT_experiment_5_30_19,3.1.0,59.95337978464928,
,,,C,G,y,b,L,G,y,R,y,,,,,5,19,119,14,2,0,2,0,,,,,0,21,21,35,,,,,,down,0.6172026404856297,1888.2098656573864,None,001,76,2019_Oct_30_1006,ACPT_experiment_5_30_19,3.1.0,59.95337978464928,
,,,C,G,y,b,L,G,g,R,c ,,,,,5,19,119,14,2,0,2,0,,,,,0,22,22,19,,,,,,up,0.7005488534509823,1890.111405296668,None,001,76,2019_Oct_30_1006,ACPT_experiment_5_30_19,3.1.0,59.95337978464928,
,,,C,G,y,b,R,D,d,L,c,,,,,5,19,119,14,2,0,2,0,,,,,0,23,23,0,,,,,,up,0.6835972450467125,1892.113277170087,None,001,76,2019_Oct_30_1006,ACPT_experiment_5_30_19,3.1.0,59.95337978464928,
,,,C,G,y,b,R,D,g,L,i,,,,,5,19,119,14,2,0,2,0,,,,,0,24,24,2,,,,,,up,0.500397558021632,1894.0645526159135,None,001,76,2019_Oct_30_1006,ACPT_experiment_5_30_19,3.1.0,59.95337978464928,
,,,C,G,y,b,R,U,g,L,u,,,,,5,19,119,14,2,0,2,0,,,,,0,25,25,10,,,,,,up,0.4336751265723251,1895.849315246305,None,001,76,2019_Oct_30_1006,ACPT_experiment_5_30_19,3.1.0,59.95337978464928,
,,,C,G,y,b,R,G,g,R,c ,,,,,5,19,119,14,2,0,2,0,,,,,0,26,26,7,,,,,,up,0.5337550004164768,1897.567351520984,None,001,76,2019_Oct_30_1006,ACPT_experiment_5_30_19,3.1.0,59.95337978464928,
,,,C,G,y,b,R,D,d,R,c ,,,,,5,19,119,14,2,0,2,0,,,,,0,27,27,1,,,,,,up,0.7172505164935501,1899.4021635970878,None,001,76,2019_Oct_30_1006,ACPT_experiment_5_30_19,3.1.0,59.95337978464928,
,,,C,G,y,b,L,U,d,L,u,,,,,5,19,119,14,2,0,2,0,,,,,0,28,28,20,,,,,,up,0.4336630519173923,1901.4037668094295,None,001,76,2019_Oct_30_1006,ACPT_experiment_5_30_19,3.1.0,59.95337978464928,
,,,C,G,y,b,R,U,d,L,u,,,,,5,19,119,14,2,0,2,0,,,,,0,29,29,8,,,,,,up,0.45035837576551785,1903.1217855758584,None,001,76,2019_Oct_30_1006,ACPT_experiment_5_30_19,3.1.0,59.95337978464928,
,,,C,G,y,b,R,D,y,R,y,,,,,5,19,119,14,2,0,2,0,,,,,0,30,30,27,,,,,,down,0.7839385351753663,1904.8565235135795,None,001,76,2019_Oct_30_1006,ACPT_experiment_5_30_19,3.1.0,59.95337978464928,
,,,C,G,y,b,L,D,g,L,i,,,,,5,19,119,14,2,0,2,0,,,,,0,31,31,14,,,,,,up,0.5337504724211612,1906.9248238005941,None,001,76,2019_Oct_30_1006,ACPT_experiment_5_30_19,3.1.0,59.95337978464928,
,,,C,G,y,b,L,D,y,L,y,,,,,5,19,119,14,2,0,2,0,,,,,0,32,32,32,,,,,,down,0.6338641552997615,1908.7429154979407,None,001,76,2019_Oct_30_1006,ACPT_experiment_5_30_19,3.1.0,59.95337978464928,
,,,C,G,y,b,L,G,d,R,i,,,,,5,19,119,14,2,0,2,0,,,,,0,33,33,17,,,,,,up,0.4837149125610267,1910.6611389901484,None,001,76,2019_Oct_30_1006,ACPT_experiment_5_30_19,3.1.0,59.95337978464928,
,,,C,G,y,b,R,G,d,R,i,,,,,5,19,119,14,2,0,2,0,,,,,0,34,34,5,,,,,,up,0.39700258759876306,1912.4492324141704,None,001,76,2019_Oct_30_1006,ACPT_experiment_5_30_19,3.1.0,59.95337978464928,
,,,C,G,y,b,L,G,y,L,y,,,,,5,19,119,14,2,0,2,0,,,,,0,35,35,34,,,,,,down,0.6838782826457646,1914.147251325495,None,001,76,2019_Oct_30_1006,ACPT_experiment_5_30_19,3.1.0,59.95337978464928,
,,,C,G,y,b,L,U,d,L,u,,,,,5,19,119,14,2,0,2,0,,,,,1,0,36,20,,,,,,up,0.5671157633414623,1916.1321712886436,None,001,76,2019_Oct_30_1006,ACPT_experiment_5_30_19,3.1.0,59.95337978464928,
,,,C,G,y,b,R,U,d,R,u,,,,,5,19,119,14,2,0,2,0,,,,,1,1,37,9,,,,,,up,0.5671139521432451,1917.9836497094232,None,001,76,2019_Oct_30_1006,ACPT_experiment_5_30_19,3.1.0,59.95337978464928,
,,,C,G,y,b,L,D,d,R,c ,,,,,5,19,119,14,2,0,2,0,,,,,1,2,38,13,,,,,,up,0.45035807389967886,1919.835119979811,None,001,76,2019_Oct_30_1006,ACPT_experiment_5_30_19,3.1.0,59.95337978464928,
,,,C,G,y,b,R,U,g,R,u,,,,,5,19,119,14,2,0,2,0,,,,,1,3,39,11,,,,,,up,0.6671938259873968,1921.56984312608,None,001,76,2019_Oct_30_1006,ACPT_experiment_5_30_19,3.1.0,59.95337978464928,
,,,C,G,y,b,R,D,y,R,y,,,,,5,19,119,14,2,0,2,0,,,,,1,4,40,27,,,,,,down,0.6505259719792775,1923.5213959871091,None,001,76,2019_Oct_30_1006,ACPT_experiment_5_30_19,3.1.0,59.95337978464928,
,,,C,G,y,b,L,D,y,R,y,,,,,5,19,119,14,2,0,2,0,,,,,1,5,41,33,,,,,,down,0.8673348579595768,1925.4896535298442,None,001,76,2019_Oct_30_1006,ACPT_experiment_5_30_19,3.1.0,59.95337978464928,
,,,C,G,y,b,L,G,d,R,i,,,,,5,19,119,14,2,0,2,0,,,,,1,6,42,17,,,,,,up,0.5504346272132352,1927.658037011233,None,001,76,2019_Oct_30_1006,ACPT_experiment_5_30_19,3.1.0,59.95337978464928,
,,,C,G,y,b,R,D,d,L,c,,,,,5,19,119,14,2,0,2,0,,,,,1,7,43,0,,,,,,up,1.0675278109497413,1929.4928345977507,None,001,76,2019_Oct_30_1006,ACPT_experiment_5_30_19,3.1.0,59.95337978464928,
,,,C,G,y,b,L,D,d,L,c ,,,,,5,19,119,14,2,0,2,0,,,,,1,8,44,12,,,,,,up,0.9507948745504109,1931.8447102746861,None,001,76,2019_Oct_30_1006,ACPT_experiment_5_30_19,3.1.0,59.95337978464928,
,,,C,G,y,b,L,D,y,L,y,,,,,5,19,119,14,2,0,2,0,,,,,1,9,45,32,,,,,,down,0.5337845833219035,1934.0631287122017,None,001,76,2019_Oct_30_1006,ACPT_experiment_5_30_19,3.1.0,59.95337978464928,
,,,C,G,y,b,L,G,y,R,y,,,,,5,19,119,14,2,0,2,0,,,,,1,10,46,35,,,,,,down,0.6671932222548094,1935.8812653876387,None,001,76,2019_Oct_30_1006,ACPT_experiment_5_30_19,3.1.0,59.95337978464928,
,,,C,G,y,b,L,G,g,L,c ,,,,,5,19,119,14,2,0,2,0,,,,,1,11,47,18,,,,,,up,0.5838098797244129,1937.8328245878618,None,001,76,2019_Oct_30_1006,ACPT_experiment_5_30_19,3.1.0,59.95337978464928,
,,,C,G,y,b,L,U,y,L,u,,,,,5,19,119,14,2,0,2,0,,,,,1,12,48,24,,,,,,down,0.5667254501131538,1939.7179324326446,None,001,76,2019_Oct_30_1006,ACPT_experiment_5_30_19,3.1.0,59.95337978464928,
,,,C,G,y,b,R,U,g,L,u,,,,,5,19,119,14,2,0,2,0,,,,,1,13,49,10,,,,,,up,0.5504699455796072,1941.5691104963769,None,001,76,2019_Oct_30_1006,ACPT_experiment_5_30_19,3.1.0,59.95337978464928,
,,,C,G,y,b,R,D,g,L,i,,,,,5,19,119,14,2,0,2,0,,,,,1,14,50,2,,,,,,up,0.5671133484106576,1943.4039400807312,None,001,76,2019_Oct_30_1006,ACPT_experiment_5_30_19,3.1.0,59.95337978464928,
,,,C,G,y,b,L,G,y,L,y,,,,,5,19,119,14,2,0,2,0,,,,,1,15,51,34,,,,,,down,0.6505172178544854,1945.2554124641836,None,001,76,2019_Oct_30_1006,ACPT_experiment_5_30_19,3.1.0,59.95337978464928,
,,,C,G,y,b,L,G,g,R,c ,,,,,5,19,119,14,2,0,2,0,,,,,1,16,52,19,,,,,,up,0.7172444791654016,1947.1902941506748,None,001,76,2019_Oct_30_1006,ACPT_experiment_5_30_19,3.1.0,59.95337978464928,
,,,C,G,y,b,R,G,d,R,i,,,,,5,19,119,14,2,0,2,0,,,,,1,17,53,5,,,,,,up,0.7506161092805996,1949.1918759305029,None,001,76,2019_Oct_30_1006,ACPT_experiment_5_30_19,3.1.0,59.95337978464928,
,,,C,G,y,b,R,U,y,L,u,,,,,5,19,119,14,2,0,2,0,,,,,1,18,54,30,,,,,,down,0.6839024319565397,1951.2268205863209,None,001,76,2019_Oct_30_1006,ACPT_experiment_5_30_19,3.1.0,59.95337978464928,
,,,C,G,y,b,L,U,g,L,u,,,,,5,19,119,14,2,0,2,0,,,,,1,19,55,22,,,,,,up,0.5837926733406675,1953.1950832607847,None,001,76,2019_Oct_30_1006,ACPT_experiment_5_30_19,3.1.0,59.95337978464928,
,,,C,G,y,b,L,G,d,L,i,,,,,5,19,119,14,2,0,2,0,,,,,1,20,56,16,,,,,,up,0.6004774318657837,1955.063241912094,None,001,76,2019_Oct_30_1006,ACPT_experiment_5_30_19,3.1.0,59.95337978464928,
,,,C,G,y,b,L,U,g,R,u,,,,,5,19,119,14,2,0,2,0,,,,,1,21,57,23,,,,,,up,0.7172360269069031,1956.9480829069973,None,001,76,2019_Oct_30_1006,ACPT_experiment_5_30_19,3.1.0,59.95337978464928,
,,,C,G,y,b,R,U,y,R,u,,,,,5,19,119,14,2,0,2,0,,,,,1,22,58,31,,,,,,down,0.666952936616326,1958.9665984851138,None,001,76,2019_Oct_30_1006,ACPT_experiment_5_30_19,3.1.0,59.95337978464928,
,,,C,G,y,b,R,U,d,L,u,,,,,5,19,119,14,2,0,2,0,,,,,1,23,59,8,,,,,,up,0.5837944845388847,1960.9179173996988,None,001,76,2019_Oct_30_1006,ACPT_experiment_5_30_19,3.1.0,59.95337978464928,
,,,C,G,y,b,R,G,g,L,c ,,,,,5,19,119,14,2,0,2,0,,,,,1,24,60,6,,,,,,up,0.6505148029236807,1962.7860718248787,None,001,76,2019_Oct_30_1006,ACPT_experiment_5_30_19,3.1.0,59.95337978464928,
,,,C,G,y,b,R,G,y,L,y,,,,,5,19,119,14,2,0,2,0,,,,,1,25,61,28,,,,,,down,0.5335518443430374,1964.7378055038691,None,001,76,2019_Oct_30_1006,ACPT_experiment_5_30_19,3.1.0,59.95337978464928,
,,,C,G,y,b,R,D,y,L,y,,,,,5,19,119,14,2,0,2,0,,,,,1,26,62,26,,,,,,down,0.6338122342822317,1966.57244611987,None,001,76,2019_Oct_30_1006,ACPT_experiment_5_30_19,3.1.0,59.95337978464928,
,,,C,G,y,b,R,D,g,R,i,,,,,5,19,119,14,2,0,2,0,,,,,1,27,63,3,,,,,,up,0.6004701870724602,1968.490627048918,None,001,76,2019_Oct_30_1006,ACPT_experiment_5_30_19,3.1.0,59.95337978464928,
,,,C,G,y,b,R,G,y,R,y,,,,,5,19,119,14,2,0,2,0,,,,,1,28,64,29,,,,,,down,0.6505090674622807,1970.3921431426222,None,001,76,2019_Oct_30_1006,ACPT_experiment_5_30_19,3.1.0,59.95337978464928,
,,,C,G,y,b,L,D,g,R,i,,,,,5,19,119,14,2,0,2,0,,,,,1,29,65,15,,,,,,up,0.5003842759010695,1972.3603928368314,None,001,76,2019_Oct_30_1006,ACPT_experiment_5_30_19,3.1.0,59.95337978464928,
,,,C,G,y,b,R,D,d,R,c ,,,,,5,19,119,14,2,0,2,0,,,,,1,30,66,1,,,,,,up,0.6838843199734583,1974.1451352421752,None,001,76,2019_Oct_30_1006,ACPT_experiment_5_30_19,3.1.0,59.95337978464928,
,,,C,G,y,b,L,U,y,R,u,,,,,5,19,119,14,2,0,2,0,,,,,1,31,67,25,,,,,,down,0.6504061310270117,1976.1133704467986,None,001,76,2019_Oct_30_1006,ACPT_experiment_5_30_19,3.1.0,59.95337978464928,
,,,C,G,y,b,L,D,g,L,i,,,,,5,19,119,14,2,0,2,0,,,,,1,32,68,14,,,,,,up,0.6505175197207791,1978.0482509258243,None,001,76,2019_Oct_30_1006,ACPT_experiment_5_30_19,3.1.0,59.95337978464928,
,,,C,G,y,b,R,G,g,R,c ,,,,,5,19,119,14,2,0,2,0,,,,,1,33,69,7,,,,,,up,0.3836377555148829,1979.9831268768542,None,001,76,2019_Oct_30_1006,ACPT_experiment_5_30_19,3.1.0,59.95337978464928,
,,,C,G,y,b,R,G,d,L,i,,,,,5,19,119,14,2,0,2,0,,,,,1,34,70,4,,,,,,up,0.500418990534854,1981.634427136097,None,001,76,2019_Oct_30_1006,ACPT_experiment_5_30_19,3.1.0,59.95337978464928,
,,,C,G,y,b,L,U,d,R,u,,,,,5,19,119,14,2,0,2,0,,,,,1,35,71,21,,,,,,up,0.5171010322619622,1983.419180710497,None,001,76,2019_Oct_30_1006,ACPT_experiment_5_30_19,3.1.0,59.95337978464928,
,,,C,G,y,b,,,,,,,,,,5,19,119,14,3,0,3,0,0,0,0,0,,,,,,,,,,,,,,001,76,2019_Oct_30_1006,ACPT_experiment_5_30_19,3.1.0,59.95337978464928,
,,,C,G,y,b,R,U,g,R,u,,,,,5,19,119,14,3,0,3,0,,,,,0,0,0,11,,,,,,up,2.8185713630232385,2005.186924416281,None,001,76,2019_Oct_30_1006,ACPT_experiment_5_30_19,3.1.0,59.95337978464928,
,,,C,G,y,b,L,D,y,L,y,,,,,5,19,119,14,3,0,3,0,,,,,0,1,1,32,,,,,,down,0.6004964494477463,2009.2898638703375,None,001,76,2019_Oct_30_1006,ACPT_experiment_5_30_19,3.1.0,59.95337978464928,
,,,C,G,y,b,R,G,y,R,y,,,,,5,19,119,14,3,0,3,0,,,,,0,2,2,29,,,,,,down,0.7506342212632262,2011.1913488718044,None,001,76,2019_Oct_30_1006,ACPT_experiment_5_30_19,3.1.0,59.95337978464928,
,,,C,G,y,b,L,G,g,R,c ,,,,,5,19,119,14,3,0,3,0,,,,,0,3,3,19,,,,,,up,0.5837576568405893,2013.2430501303459,None,001,76,2019_Oct_30_1006,ACPT_experiment_5_30_19,3.1.0,59.95337978464928,
,,,C,G,y,b,L,G,d,L,i,,,,,5,19,119,14,3,0,3,0,,,,,0,4,4,16,,,,,,up,0.533778244127916,2015.0944615367896,None,001,76,2019_Oct_30_1006,ACPT_experiment_5_30_19,3.1.0,59.95337978464928,
,,,C,G,y,b,L,U,d,L,u,,,,,5,19,119,14,3,0,3,0,,,,,0,5,5,20,,,,,,up,0.46703921002790594,2016.89592190596,None,001,76,2019_Oct_30_1006,ACPT_experiment_5_30_19,3.1.0,59.95337978464928,
,,,C,G,y,b,L,U,d,R,u,,,,,5,19,119,14,3,0,3,0,,,,,0,6,6,21,,,,,,up,0.5004217073319523,2018.6306175823881,None,001,76,2019_Oct_30_1006,ACPT_experiment_5_30_19,3.1.0,59.95337978464928,
,,,C,G,y,b,R,G,d,L,i,,,,,5,19,119,14,3,0,3,0,,,,,0,7,7,4,,,,,,up,0.3834246378505668,2020.4323562723605,None,001,76,2019_Oct_30_1006,ACPT_experiment_5_30_19,3.1.0,59.95337978464928,
,,,C,G,y,b,L,U,y,R,u,,,,,5,19,119,14,3,0,3,0,,,,,0,8,8,25,,,,,,down,0.5337513780200425,2022.1167588969076,None,001,76,2019_Oct_30_1006,ACPT_experiment_5_30_19,3.1.0,59.95337978464928,
,,,C,G,y,b,R,G,g,L,c ,,,,,5,19,119,14,3,0,3,0,,,,,0,9,9,6,,,,,,down,0.4336775415035845,2023.9515507479643,None,001,76,2019_Oct_30_1006,ACPT_experiment_5_30_19,3.1.0,59.95337978464928,
,,,C,G,y,b,L,G,d,R,i,,,,,5,19,119,14,3,0,3,0,,,,,0,10,10,17,,,,,,up,0.6672252200910407,2025.669588230109,None,001,76,2019_Oct_30_1006,ACPT_experiment_5_30_19,3.1.0,59.95337978464928,
,,,C,G,y,b,R,G,g,R,c ,,,,,5,19,119,14,3,0,3,0,,,,,0,11,11,7,,,,,,up,0.4803946842539517,2027.641153322764,None,001,76,2019_Oct_30_1006,ACPT_experiment_5_30_19,3.1.0,59.95337978464928,
,,,C,G,y,b,R,G,d,R,i,,,,,5,19,119,14,3,0,3,0,,,,,0,12,12,5,,,,,,up,0.40035783240591627,2029.3892035678189,None,001,76,2019_Oct_30_1006,ACPT_experiment_5_30_19,3.1.0,59.95337978464928,
,,,C,G,y,b,R,U,y,R,u,,,,,5,19,119,14,3,0,3,0,,,,,0,13,13,31,,,,,,down,0.6171564549294999,2031.0739282837928,None,001,76,2019_Oct_30_1006,ACPT_experiment_5_30_19,3.1.0,59.95337978464928,
,,,C,G,y,b,R,U,y,L,u,,,,,5,19,119,14,3,0,3,0,,,,,0,14,14,30,,,,,,down,0.8508315211288391,2032.9585917812653,None,001,76,2019_Oct_30_1006,ACPT_experiment_5_30_19,3.1.0,59.95337978464928,
,,,C,G,y,b,L,D,g,R,i,,,,,5,19,119,14,3,0,3,0,,,,,0,15,15,15,,,,,,up,0.6171371354812436,2035.0938019587504,None,001,76,2019_Oct_30_1006,ACPT_experiment_5_30_19,3.1.0,59.95337978464928,
,,,C,G,y,b,L,D,g,L,i,,,,,5,19,119,14,3,0,3,0,,,,,0,16,16,14,,,,,,up,1.234340077833167,2036.9785943531667,None,001,76,2019_Oct_30_1006,ACPT_experiment_5_30_19,3.1.0,59.95337978464928,
,,,C,G,y,b,L,G,y,L,y,,,,,5,19,119,14,3,0,3,0,,,,,0,17,17,34,,,,,,down,0.7005793419552901,2039.4972955791065,None,001,76,2019_Oct_30_1006,ACPT_experiment_5_30_19,3.1.0,59.95337978464928,
,,,C,G,y,b,L,G,g,L,c ,,,,,5,19,119,14,3,0,3,0,,,,,0,18,18,18,,,,,,up,1.134222168825545,2041.4822282206426,None,001,76,2019_Oct_30_1006,ACPT_experiment_5_30_19,3.1.0,59.95337978464928,
,,,C,G,y,b,R,D,d,L,c,,,,,5,19,119,14,3,0,3,0,,,,,0,19,19,0,,,,,,up,0.5837968994701441,2043.9008106319754,None,001,76,2019_Oct_30_1006,ACPT_experiment_5_30_19,3.1.0,59.95337978464928,
,,,C,G,y,b,L,D,y,R,y,,,,,5,19,119,14,3,0,3,0,,,,,0,20,20,33,,,,,,down,0.7839862300634195,2045.7689390966468,None,001,76,2019_Oct_30_1006,ACPT_experiment_5_30_19,3.1.0,59.95337978464928,
,,,C,G,y,b,R,D,y,L,y,,,,,5,19,119,14,3,0,3,0,,,,,0,21,21,26,,,,,,down,0.717260478083972,2047.837284361752,None,001,76,2019_Oct_30_1006,ACPT_experiment_5_30_19,3.1.0,59.95337978464928,
,,,C,G,y,b,R,U,d,R,u,,,,,5,19,119,14,3,0,3,0,,,,,0,22,22,9,,,,,,up,0.6505045394669651,2049.8388951207526,None,001,76,2019_Oct_30_1006,ACPT_experiment_5_30_19,3.1.0,59.95337978464928,
,,,C,G,y,b,R,D,g,R,i,,,,,5,19,119,14,3,0,3,0,,,,,0,23,23,3,,,,,,up,0.5003990673535554,2051.773758695261,None,001,76,2019_Oct_30_1006,ACPT_experiment_5_30_19,3.1.0,59.95337978464928,
,,,C,G,y,b,L,G,y,R,y,,,,,5,19,119,14,3,0,3,0,,,,,0,24,24,35,,,,,,down,0.7839617788868054,2053.558513778993,None,001,76,2019_Oct_30_1006,ACPT_experiment_5_30_19,3.1.0,59.95337978464928,
,,,C,G,y,b,L,D,d,R,c ,,,,,5,19,119,14,3,0,3,0,,,,,0,25,25,13,,,,,,up,0.6505543474190745,2055.6268053118824,None,001,76,2019_Oct_30_1006,ACPT_experiment_5_30_19,3.1.0,59.95337978464928,
,,,C,G,y,b,R,G,y,L,y,,,,,5,19,119,14,3,0,3,0,,,,,0,26,26,28,,,,,,down,0.7005228929424447,2057.5617259391365,None,001,76,2019_Oct_30_1006,ACPT_experiment_5_30_19,3.1.0,59.95337978464928,
,,,C,G,y,b,R,D,y,R,y,,,,,5,19,119,14,3,0,3,0,,,,,0,27,27,27,,,,,,down,0.6171621903908999,2059.5299472579063,None,001,76,2019_Oct_30_1006,ACPT_experiment_5_30_19,3.1.0,59.95337978464928,
,,,C,G,y,b,L,U,y,L,u,,,,,5,19,119,14,3,0,3,0,,,,,0,28,28,24,,,,,,down,0.6171781893090156,2061.4147644053655,None,001,76,2019_Oct_30_1006,ACPT_experiment_5_30_19,3.1.0,59.95337978464928,
,,,C,G,y,b,L,U,g,L,u,,,,,5,19,119,14,3,0,3,0,,,,,0,29,29,22,,,,,,up,0.6671823550650515,2063.3163112894404,None,001,76,2019_Oct_30_1006,ACPT_experiment_5_30_19,3.1.0,59.95337978464928,
,,,C,G,y,b,L,D,d,L,c ,,,,,5,19,119,14,3,0,3,0,,,,,0,30,30,12,,,,,,up,0.6669435787584916,2065.284798250624,None,001,76,2019_Oct_30_1006,ACPT_experiment_5_30_19,3.1.0,59.95337978464928,
,,,C,G,y,b,R,U,g,L,u,,,,,5,19,119,14,3,0,3,0,,,,,0,31,31,10,,,,,,up,0.5671214988024076,2067.236101166291,None,001,76,2019_Oct_30_1006,ACPT_experiment_5_30_19,3.1.0,59.95337978464928,
,,,C,G,y,b,R,U,d,L,u,,,,,5,19,119,14,3,0,3,0,,,,,0,32,32,8,,,,,,up,1.8514995514265138,2069.070878829628,None,001,76,2019_Oct_30_1006,ACPT_experiment_5_30_19,3.1.0,59.95337978464928,
,,,C,G,y,b,L,U,g,R,u,,,,,5,19,119,14,3,0,3,0,,,,,0,33,33,23,,,,,,up,0.5337562078821065,2072.2067295675706,None,001,76,2019_Oct_30_1006,ACPT_experiment_5_30_19,3.1.0,59.95337978464928,
,,,C,G,y,b,R,D,d,R,c ,,,,,5,19,119,14,3,0,3,0,,,,,0,34,34,1,,,,,,up,0.5170977117322764,2074.0248218686497,None,001,76,2019_Oct_30_1006,ACPT_experiment_5_30_19,3.1.0,59.95337978464928,
,,,C,G,y,b,R,D,g,L,i,,,,,5,19,119,14,3,0,3,0,,,,,0,35,35,2,,,,,,up,0.8506802860729294,2075.826288577014,None,001,76,2019_Oct_30_1006,ACPT_experiment_5_30_19,3.1.0,59.95337978464928,
,,,C,G,y,b,L,U,y,R,u,,,,,5,19,119,14,3,0,3,0,,,,,1,0,36,25,,,,,,down,0.6334189023896215,2077.978407799744,None,001,76,2019_Oct_30_1006,ACPT_experiment_5_30_19,3.1.0,59.95337978464928,
,,,C,G,y,b,L,D,y,L,y,,,,,5,19,119,14,3,0,3,0,,,,,1,1,37,32,,,,,,down,0.6505138973247995,2079.896201434228,None,001,76,2019_Oct_30_1006,ACPT_experiment_5_30_19,3.1.0,59.95337978464928,
,,,C,G,y,b,L,U,d,L,u,,,,,5,19,119,14,3,0,3,0,,,,,1,2,38,20,,,,,,up,0.900716147798903,2081.8310804039215,None,001,76,2019_Oct_30_1006,ACPT_experiment_5_30_19,3.1.0,59.95337978464928,
,,,C,G,y,b,L,G,y,L,y,,,,,5,19,119,14,3,0,3,0,,,,,1,3,39,34,,,,,,down,0.7839596658218397,2084.0161525680983,None,001,76,2019_Oct_30_1006,ACPT_experiment_5_30_19,3.1.0,59.95337978464928,
,,,C,G,y,b,L,D,d,L,c ,,,,,5,19,119,14,3,0,3,0,,,,,1,4,40,12,,,,,,up,0.5671465537125187,2086.084483041751,None,001,76,2019_Oct_30_1006,ACPT_experiment_5_30_19,3.1.0,59.95337978464928,
,,,C,G,y,b,R,G,g,L,c ,,,,,5,19,119,14,3,0,3,0,,,,,1,5,41,6,,,,,,up,0.6338345723938801,2087.9359511990738,None,001,76,2019_Oct_30_1006,ACPT_experiment_5_30_19,3.1.0,59.95337978464928,
,,,C,G,y,b,R,D,y,R,y,,,,,5,19,119,14,3,0,3,0,,,,,1,6,42,27,,,,,,down,0.8006278216962528,2089.8541586923634,None,001,76,2019_Oct_30_1006,ACPT_experiment_5_30_19,3.1.0,59.95337978464928,
,,,C,G,y,b,R,G,y,L,y,,,,,5,19,119,14,3,0,3,0,,,,,1,7,43,28,,,,,,down,0.7839744572743257,2091.955827288962,None,001,76,2019_Oct_30_1006,ACPT_experiment_5_30_19,3.1.0,59.95337978464928,
,,,C,G,y,b,L,U,g,L,u,,,,,5,19,119,14,3,0,3,0,,,,,1,8,44,22,,,,,,up,0.6340498031227071,2094.040822597959,None,001,76,2019_Oct_30_1006,ACPT_experiment_5_30_19,3.1.0,59.95337978464928,
,,,C,G,y,b,R,U,y,L,u,,,,,5,19,119,14,3,0,3,0,,,,,1,9,45,30,,,,,,down,0.5504451925362446,2095.9590237520542,None,001,76,2019_Oct_30_1006,ACPT_experiment_5_30_19,3.1.0,59.95337978464928,
,,,C,G,y,b,R,G,d,R,i,,,,,5,19,119,14,3,0,3,0,,,,,1,10,46,5,,,,,,up,0.7172369325062391,2097.793815603111,None,001,76,2019_Oct_30_1006,ACPT_experiment_5_30_19,3.1.0,59.95337978464928,
,,,C,G,y,b,L,U,y,L,u,,,,,5,19,119,14,3,0,3,0,,,,,1,11,47,24,,,,,,down,0.7339141443717381,2099.7954173061203,None,001,76,2019_Oct_30_1006,ACPT_experiment_5_30_19,3.1.0,59.95337978464928,
,,,C,G,y,b,L,D,g,R,i,,,,,5,19,119,14,3,0,3,0,,,,,1,12,48,15,,,,,,up,0.5504627007862837,2101.813690183668,None,001,76,2019_Oct_30_1006,ACPT_experiment_5_30_19,3.1.0,59.95337978464928,
,,,C,G,y,b,L,G,g,R,c ,,,,,5,19,119,14,3,0,3,0,,,,,1,13,49,19,,,,,,up,0.4837221573543502,2103.6484898832505,None,001,76,2019_Oct_30_1006,ACPT_experiment_5_30_19,3.1.0,59.95337978464928,
,,,C,G,y,b,L,U,d,R,u,,,,,5,19,119,14,3,0,3,0,,,,,1,14,50,21,,,,,,up,0.600504599839951,2105.416543605806,None,001,76,2019_Oct_30_1006,ACPT_experiment_5_30_19,3.1.0,59.95337978464928,
,,,C,G,y,b,L,D,g,L,i,,,,,5,19,119,14,3,0,3,0,,,,,1,15,51,14,,,,,,up,0.6171751706451687,2107.3013830913774,None,001,76,2019_Oct_30_1006,ACPT_experiment_5_30_19,3.1.0,59.95337978464928,
,,,C,G,y,b,R,U,d,R,u,,,,,5,19,119,14,3,0,3,0,,,,,1,16,52,9,,,,,,up,0.6669496160861854,2109.2198520009515,None,001,76,2019_Oct_30_1006,ACPT_experiment_5_30_19,3.1.0,59.95337978464928,
,,,C,G,y,b,R,G,d,L,i,,,,,5,19,119,14,3,0,3,0,,,,,1,17,53,4,,,,,,up,0.45037407281733977,2111.1711383139677,None,001,76,2019_Oct_30_1006,ACPT_experiment_5_30_19,3.1.0,59.95337978464928,
,,,C,G,y,b,R,G,g,R,c ,,,,,5,19,119,14,3,0,3,0,,,,,1,18,54,7,,,,,,up,0.567137497720978,2112.9058566303743,None,001,76,2019_Oct_30_1006,ACPT_experiment_5_30_19,3.1.0,59.95337978464928,
,,,C,G,y,b,L,G,d,L,i,,,,,5,19,119,14,3,0,3,0,,,,,1,19,55,16,,,,,,up,0.5504436832043211,2114.7573582948658,None,001,76,2019_Oct_30_1006,ACPT_experiment_5_30_19,3.1.0,59.95337978464928,
,,,C,G,y,b,L,U,g,R,u,,,,,5,19,119,14,3,0,3,0,,,,,1,20,56,23,,,,,,up,0.46676058735965853,2116.6091044711243,None,001,76,2019_Oct_30_1006,ACPT_experiment_5_30_19,3.1.0,59.95337978464928,
,,,C,G,y,b,R,D,y,L,y,,,,,5,19,119,14,3,0,3,0,,,,,1,21,57,26,,,,,,down,0.8006335571571981,2118.3602316401852,None,001,76,2019_Oct_30_1006,ACPT_experiment_5_30_19,3.1.0,59.95337978464928,
,,,C,G,y,b,R,U,d,L,u,,,,,5,19,119,14,3,0,3,0,,,,,1,22,58,8,,,,,,up,1.1509005881562189,2120.4452420425005,None,001,76,2019_Oct_30_1006,ACPT_experiment_5_30_19,3.1.0,59.95337978464928,
,,,C,G,y,b,R,D,d,R,c ,,,,,5,19,119,14,3,0,3,0,,,,,1,23,59,1,,,,,,up,0.6339021904632318,2122.880489289177,None,001,76,2019_Oct_30_1006,ACPT_experiment_5_30_19,3.1.0,59.95337978464928,
,,,C,G,y,b,R,U,y,R,u,,,,,5,19,119,14,3,0,3,0,,,,,1,24,60,31,,,,,,down,0.6838559445341161,2124.7987245541735,None,001,76,2019_Oct_30_1006,ACPT_experiment_5_30_19,3.1.0,59.95337978464928,
,,,C,G,y,b,L,G,d,R,i,,,,,5,19,119,14,3,0,3,0,,,,,1,25,61,17,,,,,,up,0.683900318891574,2126.76691447884,None,001,76,2019_Oct_30_1006,ACPT_experiment_5_30_19,3.1.0,59.95337978464928,
,,,C,G,y,b,R,D,g,L,i,,,,,5,19,119,14,3,0,3,0,,,,,1,26,62,2,,,,,,up,0.6170637819509466,2128.7351520983943,None,001,76,2019_Oct_30_1006,ACPT_experiment_5_30_19,3.1.0,59.95337978464928,
,,,C,G,y,b,L,D,d,R,c ,,,,,5,19,119,14,3,0,3,0,,,,,1,27,63,13,,,,,,up,0.43367603217166106,2130.6366929451415,None,001,76,2019_Oct_30_1006,ACPT_experiment_5_30_19,3.1.0,59.95337978464928,
,,,C,G,y,b,L,D,y,R,y,,,,,5,19,119,14,3,0,3,0,,,,,1,28,64,33,,,,,,down,1.2676981239605993,2132.3547156358336,None,001,76,2019_Oct_30_1006,ACPT_experiment_5_30_19,3.1.0,59.95337978464928,
,,,C,G,y,b,R,G,y,R,y,,,,,5,19,119,14,3,0,3,0,,,,,1,29,65,29,,,,,,down,1.1008677450940922,2134.9067794358966,None,001,76,2019_Oct_30_1006,ACPT_experiment_5_30_19,3.1.0,59.95337978464928,
,,,C,G,y,b,R,D,g,R,i,,,,,5,19,119,14,3,0,3,0,,,,,1,30,66,3,,,,,,up,0.5671800608802187,2137.291981764856,None,001,76,2019_Oct_30_1006,ACPT_experiment_5_30_19,3.1.0,59.95337978464928,
,,,C,G,y,b,R,D,d,L,c,,,,,5,19,119,14,3,0,3,0,,,,,1,31,67,0,,,,,,up,0.600518485693101,2139.1267887092317,None,001,76,2019_Oct_30_1006,ACPT_experiment_5_30_19,3.1.0,59.95337978464928,
,,,C,G,y,b,L,G,g,L,c ,,,,,5,19,119,14,3,0,3,0,,,,,1,32,68,18,,,,,,up,0.4503568664335944,2141.0116444955875,None,001,76,2019_Oct_30_1006,ACPT_experiment_5_30_19,3.1.0,59.95337978464928,
,,,C,G,y,b,R,U,g,L,u,,,,,5,19,119,14,3,0,3,0,,,,,1,33,69,10,,,,,,up,0.5835209935989951,2142.7633165334632,None,001,76,2019_Oct_30_1006,ACPT_experiment_5_30_19,3.1.0,59.95337978464928,
,,,C,G,y,b,L,G,y,R,y,,,,,5,19,119,14,3,0,3,0,,,,,1,34,70,35,,,,,,down,0.6338101212177207,2144.6478825280947,None,001,76,2019_Oct_30_1006,ACPT_experiment_5_30_19,3.1.0,59.95337978464928,
,,,C,G,y,b,R,U,g,R,u,,,,,5,19,119,14,3,0,3,0,,,,,1,35,71,11,,,,,,up,0.633829440665977,2146.582755158595,None,001,76,2019_Oct_30_1006,ACPT_experiment_5_30_19,3.1.0,59.95337978464928,
,,,C,G,y,b,,,,,,,,,,5,19,119,14,4,0,4,0,0,0,0,0,,,,,,,,,,,,,,001,76,2019_Oct_30_1006,ACPT_experiment_5_30_19,3.1.0,59.95337978464928,
,,,C,G,y,b,R,D,y,R,y,,,,,5,19,119,14,4,0,4,0,,,,,0,0,0,27,,,,,,down,1.4175494245823757,2172.353572165988,None,001,76,2019_Oct_30_1006,ACPT_experiment_5_30_19,3.1.0,59.95337978464928,
,,,C,G,y,b,L,G,y,L,y,,,,,5,19,119,14,4,0,4,0,,,,,0,1,1,34,,,,,,down,0.633862645967838,2175.0554483259098,None,001,76,2019_Oct_30_1006,ACPT_experiment_5_30_19,3.1.0,59.95337978464928,
,,,C,G,y,b,L,D,d,L,c ,,,,,5,19,119,14,4,0,4,0,,,,,0,2,2,12,,,,,,up,1.0508466748210594,2176.9736823834405,None,001,76,2019_Oct_30_1006,ACPT_experiment_5_30_19,3.1.0,59.95337978464928,
,,,C,G,y,b,R,D,d,L,c,,,,,5,19,119,14,4,0,4,0,,,,,0,3,3,0,,,,,,up,0.41698221765545895,2179.3088905082345,None,001,76,2019_Oct_30_1006,ACPT_experiment_5_30_19,3.1.0,59.95337978464928,
,,,C,G,y,b,R,G,d,L,i,,,,,5,19,119,14,4,0,4,0,,,,,0,4,4,4,,,,,,up,0.40004630630255633,2181.0105016294747,None,001,76,2019_Oct_30_1006,ACPT_experiment_5_30_19,3.1.0,59.95337978464928,
,,,C,G,y,b,R,G,g,R,c ,,,,,5,19,119,14,4,0,4,0,,,,,0,5,5,7,,,,,,down,0.550434929079529,2182.6782258346907,None,001,76,2019_Oct_30_1006,ACPT_experiment_5_30_19,3.1.0,59.95337978464928,
,,,C,G,y,b,L,G,y,R,y,,,,,5,19,119,14,4,0,4,0,,,,,0,6,6,35,,,,,,down,0.9007490512340155,2184.512998064433,None,001,76,2019_Oct_30_1006,ACPT_experiment_5_30_19,3.1.0,59.95337978464928,
,,,C,G,y,b,R,G,y,L,y,,,,,5,19,119,14,4,0,4,0,,,,,0,7,7,28,,,,,,down,0.7005847755503964,2186.6981013208465,None,001,76,2019_Oct_30_1006,ACPT_experiment_5_30_19,3.1.0,59.95337978464928,
,,,C,G,y,b,L,D,g,L,i,,,,,5,19,119,14,4,0,4,0,,,,,0,8,8,14,,,,,,up,0.6505241607815151,2188.683017359732,None,001,76,2019_Oct_30_1006,ACPT_experiment_5_30_19,3.1.0,59.95337978464928,
,,,C,G,y,b,L,D,y,L,y,,,,,5,19,119,14,4,0,4,0,,,,,0,9,9,32,,,,,,down,0.7672818502237533,2190.6178963294255,None,001,76,2019_Oct_30_1006,ACPT_experiment_5_30_19,3.1.0,59.95337978464928,
,,,C,G,y,b,R,U,g,R,u,,,,,5,19,119,14,4,0,4,0,,,,,0,10,10,11,,,,,,up,0.8006350664891215,2192.6695369128247,None,001,76,2019_Oct_30_1006,ACPT_experiment_5_30_19,3.1.0,59.95337978464928,
,,,C,G,y,b,L,U,y,R,u,,,,,5,19,119,14,4,0,4,0,,,,,0,11,11,25,,,,,,down,0.5504418720065587,2194.754531919955,None,001,76,2019_Oct_30_1006,ACPT_experiment_5_30_19,3.1.0,59.95337978464928,
,,,C,G,y,b,L,G,d,L,i,,,,,5,19,119,14,4,0,4,0,,,,,0,12,12,16,,,,,,up,0.783980192735271,2196.589331317671,None,001,76,2019_Oct_30_1006,ACPT_experiment_5_30_19,3.1.0,59.95337978464928,
,,,C,G,y,b,L,U,g,R,u,,,,,5,19,119,14,4,0,4,0,,,,,0,13,13,23,,,,,,up,0.7005621355715448,2198.657642471875,None,001,76,2019_Oct_30_1006,ACPT_experiment_5_30_19,3.1.0,59.95337978464928,
,,,C,G,y,b,R,D,d,R,c ,,,,,5,19,119,14,4,0,4,0,,,,,0,14,14,1,,,,,,up,0.4169770859266464,2200.642581754472,None,001,76,2019_Oct_30_1006,ACPT_experiment_5_30_19,3.1.0,59.95337978464928,
,,,C,G,y,b,R,U,d,R,u,,,,,5,19,119,14,4,0,4,0,,,,,0,15,15,9,,,,,,up,0.5170962024003529,2202.3439251202335,None,001,76,2019_Oct_30_1006,ACPT_experiment_5_30_19,3.1.0,59.95337978464928,
,,,C,G,y,b,R,U,d,L,u,,,,,5,19,119,14,4,0,4,0,,,,,0,16,16,8,,,,,,up,0.6505778929968073,2204.1286605826504,None,001,76,2019_Oct_30_1006,ACPT_experiment_5_30_19,3.1.0,59.95337978464928,
,,,C,G,y,b,L,G,g,L,c ,,,,,5,19,119,14,4,0,4,0,,,,,0,17,17,18,,,,,,up,0.4667243633939506,2206.080644810736,None,001,76,2019_Oct_30_1006,ACPT_experiment_5_30_19,3.1.0,59.95337978464928,
,,,C,G,y,b,L,U,d,L,u,,,,,5,19,119,14,4,0,4,0,,,,,0,18,18,20,,,,,,up,0.41703987413393406,2207.8316304044647,None,001,76,2019_Oct_30_1006,ACPT_experiment_5_30_19,3.1.0,59.95337978464928,
,,,C,G,y,b,R,D,g,L,i,,,,,5,19,119,14,4,0,4,0,,,,,0,19,19,2,,,,,,up,0.43367723963729077,2209.532993089675,None,001,76,2019_Oct_30_1006,ACPT_experiment_5_30_19,3.1.0,59.95337978464928,
,,,C,G,y,b,L,U,y,L,u,,,,,5,19,119,14,4,0,4,0,,,,,0,20,20,24,,,,,,down,0.7172511202261376,2211.2510191008973,None,001,76,2019_Oct_30_1006,ACPT_experiment_5_30_19,3.1.0,59.95337978464928,
,,,C,G,y,b,R,U,y,R,u,,,,,5,19,119,14,4,0,4,0,,,,,0,21,21,31,,,,,,down,0.7806340039196584,2213.272632733666,None,001,76,2019_Oct_30_1006,ACPT_experiment_5_30_19,3.1.0,59.95337978464928,
,,,C,G,y,b,R,D,g,R,i,,,,,5,19,119,14,4,0,4,0,,,,,0,22,22,3,,,,,,up,1.4344774874093673,2215.3376260744935,None,001,76,2019_Oct_30_1006,ACPT_experiment_5_30_19,3.1.0,59.95337978464928,
,,,C,G,y,b,R,D,y,L,y,,,,,5,19,119,14,4,0,4,0,,,,,0,23,23,26,,,,,,down,0.7339358787512538,2218.0397606320357,None,001,76,2019_Oct_30_1006,ACPT_experiment_5_30_19,3.1.0,59.95337978464928,
,,,C,G,y,b,R,G,y,R,y,,,,,5,19,119,14,4,0,4,0,,,,,0,24,24,29,,,,,,down,0.700557003843187,2220.041380447028,None,001,76,2019_Oct_30_1006,ACPT_experiment_5_30_19,3.1.0,59.95337978464928,
,,,C,G,y,b,L,U,g,L,u,,,,,5,19,119,14,4,0,4,0,,,,,0,25,25,22,,,,,,up,0.617173057580203,2222.026282901926,None,001,76,2019_Oct_30_1006,ACPT_experiment_5_30_19,3.1.0,59.95337978464928,
,,,C,G,y,b,R,G,d,R,i,,,,,5,19,119,14,4,0,4,0,,,,,0,26,26,5,,,,,,up,0.5971412046401383,2223.947825716842,None,001,76,2019_Oct_30_1006,ACPT_experiment_5_30_19,3.1.0,59.95337978464928,
,,,C,G,y,b,L,D,d,R,c ,,,,,5,19,119,14,4,0,4,0,,,,,0,27,27,13,,,,,,up,0.5504328160145633,2225.829327465856,None,001,76,2019_Oct_30_1006,ACPT_experiment_5_30_19,3.1.0,59.95337978464928,
,,,C,G,y,b,L,D,g,R,i,,,,,5,19,119,14,4,0,4,0,,,,,0,28,28,15,,,,,,up,0.5671405163848249,2227.664103016128,None,001,76,2019_Oct_30_1006,ACPT_experiment_5_30_19,3.1.0,59.95337978464928,
,,,C,G,y,b,R,U,y,L,u,,,,,5,19,119,14,4,0,4,0,,,,,0,29,29,30,,,,,,down,0.5671166689407983,2229.515605284352,None,001,76,2019_Oct_30_1006,ACPT_experiment_5_30_19,3.1.0,59.95337978464928,
,,,C,G,y,b,R,G,g,L,c ,,,,,5,19,119,14,4,0,4,0,,,,,0,30,30,6,,,,,,up,0.6672031838452313,2231.3670806864684,None,001,76,2019_Oct_30_1006,ACPT_experiment_5_30_19,3.1.0,59.95337978464928,
,,,C,G,y,b,R,U,g,L,u,,,,,5,19,119,14,4,0,4,0,,,,,0,31,31,10,,,,,,up,0.5171049565251451,2233.301934903119,None,001,76,2019_Oct_30_1006,ACPT_experiment_5_30_19,3.1.0,59.95337978464928,
,,,C,G,y,b,L,D,y,R,y,,,,,5,19,119,14,4,0,4,0,,,,,0,32,32,33,,,,,,down,0.8340066966038648,2235.1200954260003,None,001,76,2019_Oct_30_1006,ACPT_experiment_5_30_19,3.1.0,59.95337978464928,
,,,C,G,y,b,L,U,d,R,u,,,,,5,19,119,14,4,0,4,0,,,,,0,33,33,21,,,,,,up,0.9174540348067239,2237.271806223519,None,001,76,2019_Oct_30_1006,ACPT_experiment_5_30_19,3.1.0,59.95337978464928,
,,,C,G,y,b,L,G,g,R,c ,,,,,5,19,119,14,4,0,4,0,,,,,0,34,34,19,,,,,,up,0.8006417075494028,2239.4735477510353,None,001,76,2019_Oct_30_1006,ACPT_experiment_5_30_19,3.1.0,59.95337978464928,
,,,C,G,y,b,L,G,d,R,i,,,,,5,19,119,14,4,0,4,0,,,,,0,35,35,17,,,,,,up,0.8173364276649409,2241.541846528718,None,001,76,2019_Oct_30_1006,ACPT_experiment_5_30_19,3.1.0,59.95337978464928,
,,,C,G,y,b,R,D,d,L,c,,,,,5,19,119,14,4,0,4,0,,,,,1,0,36,0,,,,,,up,0.6138416602170764,2243.6635527137187,None,001,76,2019_Oct_30_1006,ACPT_experiment_5_30_19,3.1.0,59.95337978464928,
,,,C,G,y,b,L,D,y,L,y,,,,,5,19,119,14,4,0,4,0,,,,,1,1,37,32,,,,,,down,0.733923200362824,2245.5617410324558,None,001,76,2019_Oct_30_1006,ACPT_experiment_5_30_19,3.1.0,59.95337978464928,
,,,C,G,y,b,R,G,y,R,y,,,,,5,19,119,14,4,0,4,0,,,,,1,2,38,29,,,,,,down,0.7506055439571355,2247.5800199473306,None,001,76,2019_Oct_30_1006,ACPT_experiment_5_30_19,3.1.0,59.95337978464928,
,,,C,G,y,b,L,U,g,R,u,,,,,5,19,119,14,4,0,4,0,,,,,1,3,39,23,,,,,,up,0.6171537381324015,2249.614980903933,None,001,76,2019_Oct_30_1006,ACPT_experiment_5_30_19,3.1.0,59.95337978464928,
,,,C,G,y,b,L,G,y,L,y,,,,,5,19,119,14,4,0,4,0,,,,,1,4,40,34,,,,,,down,0.8673638371319612,2251.5164948845727,None,001,76,2019_Oct_30_1006,ACPT_experiment_5_30_19,3.1.0,59.95337978464928,
,,,C,G,y,b,L,G,g,R,c ,,,,,5,19,119,14,4,0,4,0,,,,,1,5,41,19,,,,,,up,0.7339156537036615,2253.66821413435,None,001,76,2019_Oct_30_1006,ACPT_experiment_5_30_19,3.1.0,59.95337978464928,
,,,C,G,y,b,R,U,d,R,u,,,,,5,19,119,14,4,0,4,0,,,,,1,6,42,9,,,,,,up,1.1508269327600829,2255.6864867100307,None,001,76,2019_Oct_30_1006,ACPT_experiment_5_30_19,3.1.0,59.95337978464928,
,,,C,G,y,b,R,G,d,L,i,,,,,5,19,119,14,4,0,4,0,,,,,1,7,43,4,,,,,,up,0.7172179149247313,2258.121773199337,None,001,76,2019_Oct_30_1006,ACPT_experiment_5_30_19,3.1.0,59.95337978464928,
,,,C,G,y,b,L,D,d,R,c ,,,,,5,19,119,14,4,0,4,0,,,,,1,8,44,13,,,,,,up,0.5002300221808582,2260.1234971582303,None,001,76,2019_Oct_30_1006,ACPT_experiment_5_30_19,3.1.0,59.95337978464928,
,,,C,G,y,b,L,D,g,L,i,,,,,5,19,119,14,4,0,4,0,,,,,1,9,45,14,,,,,,up,0.617154341864989,2261.9081194207547,None,001,76,2019_Oct_30_1006,ACPT_experiment_5_30_19,3.1.0,59.95337978464928,
,,,C,G,y,b,R,G,g,L,c ,,,,,5,19,119,14,4,0,4,0,,,,,1,10,46,6,,,,,,up,0.5337423220285018,2263.8096557395065,None,001,76,2019_Oct_30_1006,ACPT_experiment_5_30_19,3.1.0,59.95337978464928,
,,,C,G,y,b,L,G,d,L,i,,,,,5,19,119,14,4,0,4,0,,,,,1,11,47,16,,,,,,up,0.7339207854320193,2265.6277534741803,None,001,76,2019_Oct_30_1006,ACPT_experiment_5_30_19,3.1.0,59.95337978464928,
,,,C,G,y,b,L,U,y,R,u,,,,,5,19,119,14,4,0,4,0,,,,,1,12,48,25,,,,,,down,0.6671995614483421,2267.646032389055,None,001,76,2019_Oct_30_1006,ACPT_experiment_5_30_19,3.1.0,59.95337978464928,
,,,C,G,y,b,R,D,g,R,i,,,,,5,19,119,14,4,0,4,0,,,,,1,13,49,3,,,,,,up,0.6672022782458953,2269.5975924948775,None,001,76,2019_Oct_30_1006,ACPT_experiment_5_30_19,3.1.0,59.95337978464928,
,,,C,G,y,b,L,U,d,L,u,,,,,5,19,119,14,4,0,4,0,,,,,1,14,50,20,,,,,,up,0.7339337656862881,2271.54914173351,None,001,76,2019_Oct_30_1006,ACPT_experiment_5_30_19,3.1.0,59.95337978464928,
,,,C,G,y,b,L,D,d,L,c ,,,,,5,19,119,14,4,0,4,0,,,,,1,15,51,12,,,,,,up,1.3344057639569655,2273.567406158799,None,001,76,2019_Oct_30_1006,ACPT_experiment_5_30_19,3.1.0,59.95337978464928,
,,,C,G,y,b,L,U,d,R,u,,,,,5,19,119,14,4,0,4,0,,,,,1,16,52,21,,,,,,up,0.483720346156133,2276.186179711923,None,001,76,2019_Oct_30_1006,ACPT_experiment_5_30_19,3.1.0,59.95337978464928,
,,,C,G,y,b,R,U,g,L,u,,,,,5,19,119,14,4,0,4,0,,,,,1,17,53,10,,,,,,up,0.6672176734314235,2277.9542584893884,None,001,76,2019_Oct_30_1006,ACPT_experiment_5_30_19,3.1.0,59.95337978464928,
,,,C,G,y,b,L,G,y,R,y,,,,,5,19,119,14,4,0,4,0,,,,,1,18,54,35,,,,,,down,0.733948557138774,2279.9058113504175,None,001,76,2019_Oct_30_1006,ACPT_experiment_5_30_19,3.1.0,59.95337978464928,
,,,C,G,y,b,R,D,g,L,i,,,,,5,19,119,14,4,0,4,0,,,,,1,19,55,2,,,,,,up,0.6005049017062447,2281.924091472758,None,001,76,2019_Oct_30_1006,ACPT_experiment_5_30_19,3.1.0,59.95337978464928,
,,,C,G,y,b,R,U,g,R,u,,,,,5,19,119,14,4,0,4,0,,,,,1,20,56,11,,,,,,up,0.7506182223451106,2283.808906809019,None,001,76,2019_Oct_30_1006,ACPT_experiment_5_30_19,3.1.0,59.95337978464928,
,,,C,G,y,b,L,U,y,L,u,,,,,5,19,119,14,4,0,4,0,,,,,1,21,57,24,,,,,,down,0.783992871123246,2285.8438870850696,None,001,76,2019_Oct_30_1006,ACPT_experiment_5_30_19,3.1.0,59.95337978464928,
,,,C,G,y,b,L,U,g,L,u,,,,,5,19,119,14,4,0,4,0,,,,,1,22,58,22,,,,,,up,0.717267421010547,2287.912204578468,None,001,76,2019_Oct_30_1006,ACPT_experiment_5_30_19,3.1.0,59.95337978464928,
,,,C,G,y,b,R,G,d,R,i,,,,,5,19,119,14,4,0,4,0,,,,,1,23,59,5,,,,,,up,0.5670188642338871,2289.913869673417,None,001,76,2019_Oct_30_1006,ACPT_experiment_5_30_19,3.1.0,59.95337978464928,
,,,C,G,y,b,L,G,d,R,i,,,,,5,19,119,14,4,0,4,0,,,,,1,24,60,17,,,,,,up,0.567110027880517,2291.765282287326,None,001,76,2019_Oct_30_1006,ACPT_experiment_5_30_19,3.1.0,59.95337978464928,
,,,C,G,y,b,L,G,g,L,c ,,,,,5,19,119,14,4,0,4,0,,,,,1,25,61,18,,,,,,up,0.41671748084036153,2293.617031784115,None,001,76,2019_Oct_30_1006,ACPT_experiment_5_30_19,3.1.0,59.95337978464928,
,,,C,G,y,b,R,D,y,R,y,,,,,5,19,119,14,4,0,4,0,,,,,1,26,62,27,,,,,,down,0.6839163178096896,2295.3347686073457,None,001,76,2019_Oct_30_1006,ACPT_experiment_5_30_19,3.1.0,59.95337978464928,
,,,C,G,y,b,R,D,d,R,c ,,,,,5,19,119,14,4,0,4,0,,,,,1,27,63,1,,,,,,up,0.5671133484106576,2297.3197169459336,None,001,76,2019_Oct_30_1006,ACPT_experiment_5_30_19,3.1.0,59.95337978464928,
,,,C,G,y,b,R,G,g,R,c ,,,,,5,19,119,14,4,0,4,0,,,,,1,28,64,7,,,,,,up,0.43366667431382666,2299.1711944611143,None,001,76,2019_Oct_30_1006,ACPT_experiment_5_30_19,3.1.0,59.95337978464928,
,,,C,G,y,b,R,D,y,L,y,,,,,5,19,119,14,4,0,4,0,,,,,1,29,65,26,,,,,,down,0.6336117950063453,2300.9061310269135,None,001,76,2019_Oct_30_1006,ACPT_experiment_5_30_19,3.1.0,59.95337978464928,
,,,C,G,y,b,R,G,y,L,y,,,,,5,19,119,14,4,0,4,0,,,,,1,30,66,28,,,,,,down,0.6004729038700134,2302.824105479358,None,001,76,2019_Oct_30_1006,ACPT_experiment_5_30_19,3.1.0,59.95337978464928,
,,,C,G,y,b,R,U,y,L,u,,,,,5,19,119,14,4,0,4,0,,,,,1,31,67,30,,,,,,down,0.7672821520895923,2304.7089404369335,None,001,76,2019_Oct_30_1006,ACPT_experiment_5_30_19,3.1.0,59.95337978464928,
,,,C,G,y,b,R,U,y,R,u,,,,,5,19,119,14,4,0,4,0,,,,,1,32,68,31,,,,,,down,0.6004686777409916,2306.760583133397,None,001,76,2019_Oct_30_1006,ACPT_experiment_5_30_19,3.1.0,59.95337978464928,
,,,C,G,y,b,L,D,y,R,y,,,,,5,19,119,14,4,0,4,0,,,,,1,33,69,33,,,,,,down,0.5171360487624952,2308.645403601387,None,001,76,2019_Oct_30_1006,ACPT_experiment_5_30_19,3.1.0,59.95337978464928,
,,,C,G,y,b,L,D,g,R,i,,,,,5,19,119,14,4,0,4,0,,,,,1,34,70,15,,,,,,up,0.5170762792195092,2310.4468521977687,None,001,76,2019_Oct_30_1006,ACPT_experiment_5_30_19,3.1.0,59.95337978464928,
,,,C,G,y,b,R,U,d,L,u,,,,,5,19,119,14,4,0,4,0,,,,,1,35,71,8,,,,,,up,0.6672179752977172,2312.2482703056457,None,001,76,2019_Oct_30_1006,ACPT_experiment_5_30_19,3.1.0,59.95337978464928,
,,,C,G,y,b,,,,,,,,,,5,19,119,14,5,0,5,0,0,0,0,0,,,,,,,,,,,,,,001,76,2019_Oct_30_1006,ACPT_experiment_5_30_19,3.1.0,59.95337978464928,
,,,C,G,y,b,R,D,d,L,c,,,,,5,19,119,14,5,0,5,0,,,,,0,0,0,0,,,,,,up,0.6472163089952119,2317.25560867733,None,001,76,2019_Oct_30_1006,ACPT_experiment_5_30_19,3.1.0,59.95337978464928,
,,,C,G,y,b,L,G,g,R,c ,,,,,5,19,119,14,5,0,5,0,,,,,0,1,1,19,,,,,,up,0.45036954482156943,2319.187164400053,None,001,76,2019_Oct_30_1006,ACPT_experiment_5_30_19,3.1.0,59.95337978464928,
,,,C,G,y,b,L,D,d,L,c ,,,,,5,19,119,14,5,0,5,0,,,,,0,2,2,12,,,,,,up,0.5504379477433758,2320.9218836220584,None,001,76,2019_Oct_30_1006,ACPT_experiment_5_30_19,3.1.0,59.95337978464928,
,,,C,G,y,b,R,D,d,R,c ,,,,,5,19,119,14,5,0,5,0,,,,,0,3,3,1,,,,,,up,0.4337053132103392,2322.7566516256716,None,001,76,2019_Oct_30_1006,ACPT_experiment_5_30_19,3.1.0,59.95337978464928,
,,,C,G,y,b,R,D,g,L,i,,,,,5,19,119,14,5,0,5,0,,,,,0,4,4,2,,,,,,up,0.630522192612716,2324.4947227719545,None,001,76,2019_Oct_30_1006,ACPT_experiment_5_30_19,3.1.0,59.95337978464928,
,,,C,G,y,b,R,U,d,L,u,,,,,5,19,119,14,5,0,5,0,,,,,0,5,5,8,,,,,,up,0.5671012737557248,2326.4096133574667,None,001,76,2019_Oct_30_1006,ACPT_experiment_5_30_19,3.1.0,59.95337978464928,
,,,C,G,y,b,L,G,d,R,i,,,,,5,19,119,14,5,0,5,0,,,,,0,6,6,17,,,,,,up,0.48370978083312366,2328.261070345734,None,001,76,2019_Oct_30_1006,ACPT_experiment_5_30_19,3.1.0,59.95337978464928,
,,,C,G,y,b,L,D,g,R,i,,,,,5,19,119,14,5,0,5,0,,,,,0,7,7,15,,,,,,up,0.4169936885778043,2330.0291503306644,None,001,76,2019_Oct_30_1006,ACPT_experiment_5_30_19,3.1.0,59.95337978464928,
,,,C,G,y,b,R,U,g,R,u,,,,,5,19,119,14,5,0,5,0,,,,,0,8,8,11,,,,,,up,0.39986035661286223,2331.7474999426454,None,001,76,2019_Oct_30_1006,ACPT_experiment_5_30_19,3.1.0,59.95337978464928,
,,,C,G,y,b,R,D,y,L,y,,,,,5,19,119,14,5,0,5,0,,,,,0,9,9,26,,,,,,down,0.6671989577157547,2333.4318645320286,None,001,76,2019_Oct_30_1006,ACPT_experiment_5_30_19,3.1.0,59.95337978464928,
,,,C,G,y,b,L,U,g,L,u,,,,,5,19,119,14,5,0,5,0,,,,,0,10,10,22,,,,,,up,0.5337553022827706,2335.3834219210535,None,001,76,2019_Oct_30_1006,ACPT_experiment_5_30_19,3.1.0,59.95337978464928,
,,,C,G,y,b,L,U,d,L,u,,,,,5,19,119,14,5,0,5,0,,,,,0,11,11,20,,,,,,up,0.4336950497536236,2337.2015130146674,None,001,76,2019_Oct_30_1006,ACPT_experiment_5_30_19,3.1.0,59.95337978464928,
,,,C,G,y,b,R,G,y,R,y,,,,,5,19,119,14,5,0,5,0,,,,,0,12,12,29,,,,,,down,0.616898962907726,2338.9365359142507,None,001,76,2019_Oct_30_1006,ACPT_experiment_5_30_19,3.1.0,59.95337978464928,
,,,C,G,y,b,R,D,g,R,i,,,,,5,19,119,14,5,0,5,0,,,,,0,13,13,3,,,,,,up,0.6838743583830365,2340.8377733852867,None,001,76,2019_Oct_30_1006,ACPT_experiment_5_30_19,3.1.0,59.95337978464928,
,,,C,G,y,b,L,U,y,R,u,,,,,5,19,119,14,5,0,5,0,,,,,0,14,14,25,,,,,,down,0.7339585187296507,2342.822692140969,None,001,76,2019_Oct_30_1006,ACPT_experiment_5_30_19,3.1.0,59.95337978464928,
,,,C,G,y,b,L,D,y,R,y,,,,,5,19,119,14,5,0,5,0,,,,,0,15,15,33,,,,,,down,0.5671115372124405,2344.857647663977,None,001,76,2019_Oct_30_1006,ACPT_experiment_5_30_19,3.1.0,59.95337978464928,
,,,C,G,y,b,L,D,y,L,y,,,,,5,19,119,14,5,0,5,0,,,,,0,16,16,32,,,,,,down,0.6005097315683088,2346.709122764227,None,001,76,2019_Oct_30_1006,ACPT_experiment_5_30_19,3.1.0,59.95337978464928,
,,,C,G,y,b,R,G,g,R,c ,,,,,5,19,119,14,5,0,5,0,,,,,0,17,17,7,,,,,,up,0.5337722068002222,2348.593966777794,None,001,76,2019_Oct_30_1006,ACPT_experiment_5_30_19,3.1.0,59.95337978464928,
,,,C,G,y,b,R,G,y,L,y,,,,,5,19,119,14,5,0,5,0,,,,,0,18,18,28,,,,,,down,0.6838773770464286,2350.4120808132525,None,001,76,2019_Oct_30_1006,ACPT_experiment_5_30_19,3.1.0,59.95337978464928,
,,,C,G,y,b,L,U,g,R,u,,,,,5,19,119,14,5,0,5,0,,,,,0,19,19,23,,,,,,up,0.8840338042045914,2352.380321149604,None,001,76,2019_Oct_30_1006,ACPT_experiment_5_30_19,3.1.0,59.95337978464928,
,,,C,G,y,b,R,U,y,R,u,,,,,5,19,119,14,5,0,5,0,,,,,0,20,20,31,,,,,,down,0.7339126350398146,2354.5653939175136,None,001,76,2019_Oct_30_1006,ACPT_experiment_5_30_19,3.1.0,59.95337978464928,
,,,C,G,y,b,L,U,y,L,u,,,,,5,19,119,14,5,0,5,0,,,,,0,21,21,24,,,,,,down,0.6338267238684239,2356.6003551759823,None,001,76,2019_Oct_30_1006,ACPT_experiment_5_30_19,3.1.0,59.95337978464928,
,,,C,G,y,b,R,G,d,R,i,,,,,5,19,119,14,5,0,5,0,,,,,0,22,22,5,,,,,,up,0.5837996162672425,2358.5185481796857,None,001,76,2019_Oct_30_1006,ACPT_experiment_5_30_19,3.1.0,59.95337978464928,
,,,C,G,y,b,L,G,y,R,y,,,,,5,19,119,14,5,0,5,0,,,,,0,23,23,35,,,,,,down,0.6004716964043837,2360.3867439605597,None,001,76,2019_Oct_30_1006,ACPT_experiment_5_30_19,3.1.0,59.95337978464928,
,,,C,G,y,b,L,D,g,L,i,,,,,5,19,119,14,5,0,5,0,,,,,0,24,24,14,,,,,,up,0.7839581564899163,2362.271546920299,None,001,76,2019_Oct_30_1006,ACPT_experiment_5_30_19,3.1.0,59.95337978464928,
,,,C,G,y,b,R,U,d,R,u,,,,,5,19,119,14,5,0,5,0,,,,,0,25,25,9,,,,,,up,0.6334044128034293,2364.3569548806363,None,001,76,2019_Oct_30_1006,ACPT_experiment_5_30_19,3.1.0,59.95337978464928,
,,,C,G,y,b,L,G,y,L,y,,,,,5,19,119,14,5,0,5,0,,,,,0,26,26,34,,,,,,down,0.8506763618097466,2366.274737949796,None,001,76,2019_Oct_30_1006,ACPT_experiment_5_30_19,3.1.0,59.95337978464928,
,,,C,G,y,b,L,G,g,L,c ,,,,,5,19,119,14,5,0,5,0,,,,,0,27,27,18,,,,,,up,0.7339204835657256,2368.409773346648,None,001,76,2019_Oct_30_1006,ACPT_experiment_5_30_19,3.1.0,59.95337978464928,
,,,C,G,y,b,L,G,d,L,i,,,,,5,19,119,14,5,0,5,0,,,,,0,28,28,16,,,,,,up,0.5004214054656586,2370.4113490891486,None,001,76,2019_Oct_30_1006,ACPT_experiment_5_30_19,3.1.0,59.95337978464928,
,,,C,G,y,b,R,G,g,L,c ,,,,,5,19,119,14,5,0,5,0,,,,,0,29,29,6,,,,,,up,0.5838026349310894,2372.196128624057,None,001,76,2019_Oct_30_1006,ACPT_experiment_5_30_19,3.1.0,59.95337978464928,
,,,C,G,y,b,R,U,g,L,u,,,,,5,19,119,14,5,0,5,0,,,,,0,30,30,10,,,,,,up,0.7506031290263309,2374.064284558569,None,001,76,2019_Oct_30_1006,ACPT_experiment_5_30_19,3.1.0,59.95337978464928,
,,,C,G,y,b,L,D,d,R,c ,,,,,5,19,119,14,5,0,5,0,,,,,0,31,31,13,,,,,,up,0.9007167515314904,2376.0992458170376,None,001,76,2019_Oct_30_1006,ACPT_experiment_5_30_19,3.1.0,59.95337978464928,
,,,C,G,y,b,R,G,d,L,i,,,,,5,19,119,14,5,0,5,0,,,,,0,32,32,4,,,,,,up,0.4503843362740554,2378.2843237166758,None,001,76,2019_Oct_30_1006,ACPT_experiment_5_30_19,3.1.0,59.95337978464928,
,,,C,G,y,b,R,U,y,L,u,,,,,5,19,119,14,5,0,5,0,,,,,0,33,33,30,,,,,,down,0.5838370476985801,2380.0190157707075,None,001,76,2019_Oct_30_1006,ACPT_experiment_5_30_19,3.1.0,59.95337978464928,
,,,C,G,y,b,R,D,y,R,y,,,,,5,19,119,14,5,0,5,0,,,,,0,34,34,27,,,,,,down,0.6837164822663908,2381.9040285275805,None,001,76,2019_Oct_30_1006,ACPT_experiment_5_30_19,3.1.0,59.95337978464928,
,,,C,G,y,b,L,U,d,R,u,,,,,5,19,119,14,5,0,5,0,,,,,0,35,35,21,,,,,,up,0.5170783922840201,2383.8888147639227,None,001,76,2019_Oct_30_1006,ACPT_experiment_5_30_19,3.1.0,59.95337978464928,
,,,C,G,y,b,R,D,d,L,c,,,,,5,19,119,14,5,0,5,0,,,,,1,0,36,0,,,,,,up,0.5171049565251451,2385.6902047982267,None,001,76,2019_Oct_30_1006,ACPT_experiment_5_30_19,3.1.0,59.95337978464928,
,,,C,G,y,b,R,G,d,L,i,,,,,5,19,119,14,5,0,5,0,,,,,1,1,37,4,,,,,,up,0.5670052802465761,2387.474988861131,None,001,76,2019_Oct_30_1006,ACPT_experiment_5_30_19,3.1.0,59.95337978464928,
,,,C,G,y,b,L,U,g,L,u,,,,,5,19,119,14,5,0,5,0,,,,,1,2,38,22,,,,,,up,0.7668151648008461,2389.3435840112247,None,001,76,2019_Oct_30_1006,ACPT_experiment_5_30_19,3.1.0,59.95337978464928,
,,,C,G,y,b,L,U,g,R,u,,,,,5,19,119,14,5,0,5,0,,,,,1,3,39,23,,,,,,up,0.550454550394079,2391.3780831122667,None,001,76,2019_Oct_30_1006,ACPT_experiment_5_30_19,3.1.0,59.95337978464928,
,,,C,G,y,b,R,D,g,R,i,,,,,5,19,119,14,5,0,5,0,,,,,1,4,40,3,,,,,,up,0.5837938808062972,2393.2129018294313,None,001,76,2019_Oct_30_1006,ACPT_experiment_5_30_19,3.1.0,59.95337978464928,
,,,C,G,y,b,R,U,g,L,u,,,,,5,19,119,14,5,0,5,0,,,,,1,5,41,10,,,,,,up,0.6171845285025483,2395.064350969172,None,001,76,2019_Oct_30_1006,ACPT_experiment_5_30_19,3.1.0,59.95337978464928,
,,,C,G,y,b,L,D,d,R,c ,,,,,5,19,119,14,5,0,5,0,,,,,1,6,42,13,,,,,,up,0.5671154614751686,2396.965896947648,None,001,76,2019_Oct_30_1006,ACPT_experiment_5_30_19,3.1.0,59.95337978464928,
,,,C,G,y,b,L,G,d,L,i,,,,,5,19,119,14,5,0,5,0,,,,,1,7,43,16,,,,,,up,0.7506399567246262,2398.817376274027,None,001,76,2019_Oct_30_1006,ACPT_experiment_5_30_19,3.1.0,59.95337978464928,
,,,C,G,y,b,R,D,y,R,y,,,,,5,19,119,14,5,0,5,0,,,,,1,8,44,27,,,,,,down,0.8339698689051147,2400.852344475423,None,001,76,2019_Oct_30_1006,ACPT_experiment_5_30_19,3.1.0,59.95337978464928,
,,,C,G,y,b,L,G,y,L,y,,,,,5,19,119,14,5,0,5,0,,,,,1,9,45,34,,,,,,down,0.5837914658754926,2402.98737021255,None,001,76,2019_Oct_30_1006,ACPT_experiment_5_30_19,3.1.0,59.95337978464928,
,,,C,G,y,b,L,U,y,L,u,,,,,5,19,119,14,5,0,5,0,,,,,1,10,46,24,,,,,,down,0.5837905602761566,2404.8722054719924,None,001,76,2019_Oct_30_1006,ACPT_experiment_5_30_19,3.1.0,59.95337978464928,
,,,C,G,y,b,R,U,g,R,u,,,,,5,19,119,14,5,0,5,0,,,,,1,11,47,11,,,,,,up,0.5004014822848148,2406.7403601990386,None,001,76,2019_Oct_30_1006,ACPT_experiment_5_30_19,3.1.0,59.95337978464928,
,,,C,G,y,b,R,D,g,L,i,,,,,5,19,119,14,5,0,5,0,,,,,1,12,48,2,,,,,,up,0.5833812294658856,2408.542211485171,None,001,76,2019_Oct_30_1006,ACPT_experiment_5_30_19,3.1.0,59.95337978464928,
,,,C,G,y,b,L,G,y,R,y,,,,,5,19,119,14,5,0,5,0,,,,,1,13,49,35,,,,,,down,0.6505114823930853,2410.4099589944713,None,001,76,2019_Oct_30_1006,ACPT_experiment_5_30_19,3.1.0,59.95337978464928,
,,,C,G,y,b,L,U,y,R,u,,,,,5,19,119,14,5,0,5,0,,,,,1,14,50,25,,,,,,down,0.6505132935917572,2412.361513968565,None,001,76,2019_Oct_30_1006,ACPT_experiment_5_30_19,3.1.0,59.95337978464928,
,,,C,G,y,b,R,U,d,L,u,,,,,5,19,119,14,5,0,5,0,,,,,1,15,51,8,,,,,,up,0.46702924843748406,2414.3130728669216,None,001,76,2019_Oct_30_1006,ACPT_experiment_5_30_19,3.1.0,59.95337978464928,
,,,C,G,y,b,L,D,y,L,y,,,,,5,19,119,14,5,0,5,0,,,,,1,16,52,32,,,,,,down,0.6505637052769089,2416.0644514906767,None,001,76,2019_Oct_30_1006,ACPT_experiment_5_30_19,3.1.0,59.95337978464928,
,,,C,G,y,b,L,D,g,L,i,,,,,5,19,119,14,5,0,5,0,,,,,1,17,53,14,,,,,,up,0.5504539466614915,2417.982646909311,None,001,76,2019_Oct_30_1006,ACPT_experiment_5_30_19,3.1.0,59.95337978464928,
,,,C,G,y,b,R,U,y,R,u,,,,,5,19,119,14,5,0,5,0,,,,,1,18,54,31,,,,,,down,0.5836770585174236,2419.8174701544713,None,001,76,2019_Oct_30_1006,ACPT_experiment_5_30_19,3.1.0,59.95337978464928,
,,,C,G,y,b,L,G,g,R,c ,,,,,5,19,119,14,5,0,5,0,,,,,1,19,55,19,,,,,,up,0.6169077170325181,2421.702544492086,None,001,76,2019_Oct_30_1006,ACPT_experiment_5_30_19,3.1.0,59.95337978464928,
,,,C,G,y,b,R,U,d,R,u,,,,,5,19,119,14,5,0,5,0,,,,,1,20,56,9,,,,,,up,0.4503571683003429,2423.6038184889535,None,001,76,2019_Oct_30_1006,ACPT_experiment_5_30_19,3.1.0,59.95337978464928,
,,,C,G,y,b,L,G,g,L,c ,,,,,5,19,119,14,5,0,5,0,,,,,1,21,57,18,,,,,,up,0.5337326623043737,2425.338561256537,None,001,76,2019_Oct_30_1006,ACPT_experiment_5_30_19,3.1.0,59.95337978464928,
,,,C,G,y,b,L,D,d,L,c ,,,,,5,19,119,14,5,0,5,0,,,,,1,22,58,12,,,,,,up,0.5170518280424403,2427.156681329323,None,001,76,2019_Oct_30_1006,ACPT_experiment_5_30_19,3.1.0,59.95337978464928,
,,,C,G,y,b,R,G,g,L,c ,,,,,5,19,119,14,5,0,5,0,,,,,1,23,59,6,,,,,,up,0.5001448958619221,2428.9750513474714,None,001,76,2019_Oct_30_1006,ACPT_experiment_5_30_19,3.1.0,59.95337978464928,
,,,C,G,y,b,R,G,y,R,y,,,,,5,19,119,14,5,0,5,0,,,,,1,24,60,29,,,,,,down,0.6672197864959344,2430.7428279566907,None,001,76,2019_Oct_30_1006,ACPT_experiment_5_30_19,3.1.0,59.95337978464928,
,,,C,G,y,b,L,D,y,R,y,,,,,5,19,119,14,5,0,5,0,,,,,1,25,61,33,,,,,,down,0.583805653595391,2432.694400740901,None,001,76,2019_Oct_30_1006,ACPT_experiment_5_30_19,3.1.0,59.95337978464928,
,,,C,G,y,b,R,D,y,L,y,,,,,5,19,119,14,5,0,5,0,,,,,1,26,62,26,,,,,,down,0.5504608895880665,2434.5625385634303,None,001,76,2019_Oct_30_1006,ACPT_experiment_5_30_19,3.1.0,59.95337978464928,
,,,C,G,y,b,R,U,y,L,u,,,,,5,19,119,14,5,0,5,0,,,,,1,27,63,30,,,,,,down,0.5671115372124405,2436.3973645253877,None,001,76,2019_Oct_30_1006,ACPT_experiment_5_30_19,3.1.0,59.95337978464928,
