facing_vig,person_vig,text_vig,facing_train,person_train,food_train,correct_key_train,facing_exp,person_exp,food_exp,showL_R,consistent,vig_random.thisRepN,vig_random.thisTrialN,vig_random.thisN,vig_random.thisIndex,trainTrials.thisRepN,trainTrials.thisTrialN,trainTrials.thisN,trainTrials.thisIndex,expBlock.thisRepN,expBlock.thisTrialN,expBlock.thisN,expBlock.thisIndex,breakLoop.thisRepN,breakLoop.thisTrialN,breakLoop.thisN,breakLoop.thisIndex,expTrials.thisRepN,expTrials.thisTrialN,expTrials.thisN,expTrials.thisIndex,train_resp.keys,train_resp.corr,train_resp.rt,train_resp.started,train_resp.stopped,exp_resp.keys,exp_resp.rt,exp_resp.started,exp_resp.stopped,session,participant,date,expName,psychopyVersion,frameRate,
C,U,"did not report her food preferences, so her food preferences are unknown.",,,,,,,,,,0,0,0,2,,,,,,,,,,,,,,,,,,,,,,,,,,001,77 ,2019_Oct_30_1105,ACPT_experiment_5_30_19,3.1.0,59.952511772372056,
C,D,"is allergic to gluten, meaning she can’t eat wheat products. She enjoys eating dairy products. She thinks eating insects, like crickets, is disgusting.",,,,,,,,,,0,1,1,1,,,,,,,,,,,,,,,,,,,,,,,,,,001,77 ,2019_Oct_30_1105,ACPT_experiment_5_30_19,3.1.0,59.952511772372056,
C,G,"cannot eat dairy products because she is lactose intolerant. She enjoys eating wheat products. She thinks eating insects, like crickets, is disgusting.",,,,,,,,,,0,2,2,0,,,,,,,,,,,,,,,,,,,,,,,,,,001,77 ,2019_Oct_30_1105,ACPT_experiment_5_30_19,3.1.0,59.952511772372056,
,,,C,G,y,b,,,,,,,,,,0,0,0,14,,,,,,,,,,,,,b,1,2.5520574608690367,1305.80609945169,None,,,,,001,77 ,2019_Oct_30_1105,ACPT_experiment_5_30_19,3.1.0,59.952511772372056,
,,,C,G,g,v,,,,,,,,,,0,1,1,19,,,,,,,,,,,,,v,1,2.368608130348548,1311.6274087427746,None,,,,,001,77 ,2019_Oct_30_1105,ACPT_experiment_5_30_19,3.1.0,59.952511772372056,
,,,C,G,g,v,,,,,,,,,,0,2,2,4,,,,,,,,,,,,,v,1,1.384611878321266,1317.2651062992272,None,,,,,001,77 ,2019_Oct_30_1105,ACPT_experiment_5_30_19,3.1.0,59.952511772372056,
,,,C,U,g,n,,,,,,,,,,0,3,3,7,,,,,,,,,,,,,b,0,1.3977798935256942,1321.9556911472255,None,,,,,001,77 ,2019_Oct_30_1105,ACPT_experiment_5_30_19,3.1.0,59.952511772372056,
,,,C,G,y,b,,,,,,,,,,0,4,4,5,,,,,,,,,,,,,b,1,2.3518925814523755,1326.6394178929486,None,,,,,001,77 ,2019_Oct_30_1105,ACPT_experiment_5_30_19,3.1.0,59.952511772372056,
,,,C,U,y,n,,,,,,,,,,0,5,5,8,,,,,,,,,,,,,b,0,1.8515049850220748,1332.2772588359312,None,,,,,001,77 ,2019_Oct_30_1105,ACPT_experiment_5_30_19,3.1.0,59.952511772372056,
,,,C,G,d,b,,,,,,,,,,0,6,6,12,,,,,,,,,,,,,b,1,3.2359342341833326,1337.4146856182406,None,,,,,001,77 ,2019_Oct_30_1105,ACPT_experiment_5_30_19,3.1.0,59.952511772372056,
,,,C,D,g,b,,,,,,,,,,0,7,7,10,,,,,,,,,,,,,b,1,2.8522967805347434,1343.936555837432,None,,,,,001,77 ,2019_Oct_30_1105,ACPT_experiment_5_30_19,3.1.0,59.952511772372056,
,,,C,G,g,v,,,,,,,,,,0,8,8,13,,,,,,,,,,,,,v,1,1.9015342056864029,1350.0748202989444,None,,,,,001,77 ,2019_Oct_30_1105,ACPT_experiment_5_30_19,3.1.0,59.952511772372056,
,,,C,U,d,n,,,,,,,,,,0,9,9,6,,,,,,,,,,,,,v,0,1.618002586390503,1355.2622760000531,None,,,,,001,77 ,2019_Oct_30_1105,ACPT_experiment_5_30_19,3.1.0,59.952511772372056,
,,,C,D,d,v,,,,,,,,,,0,10,10,18,,,,,,,,,,,,,v,1,2.201779864546552,1360.1661886109441,None,,,,,001,77 ,2019_Oct_30_1105,ACPT_experiment_5_30_19,3.1.0,59.952511772372056,
,,,C,U,y,n,,,,,,,,,,0,11,11,17,,,,,,,,,,,,,b,0,1.1009359668960315,1365.6538878578476,None,,,,,001,77 ,2019_Oct_30_1105,ACPT_experiment_5_30_19,3.1.0,59.952511772372056,
,,,C,U,g,n,,,,,,,,,,0,12,12,16,,,,,,,,,,,,,v,0,1.3644396575145947,1370.060759664856,None,,,,,001,77 ,2019_Oct_30_1105,ACPT_experiment_5_30_19,3.1.0,59.952511772372056,
,,,C,D,d,v,,,,,,,,,,0,13,13,9,,,,,,,,,,,,,b,0,3.269289563512757,1374.7111479857667,None,,,,,001,77 ,2019_Oct_30_1105,ACPT_experiment_5_30_19,3.1.0,59.952511772372056,
,,,C,G,d,b,,,,,,,,,,0,14,14,3,,,,,,,,,,,,,b,1,2.4186150129016823,1381.2663816846798,None,,,,,001,77 ,2019_Oct_30_1105,ACPT_experiment_5_30_19,3.1.0,59.952511772372056,
,,,C,D,y,b,,,,,,,,,,0,15,15,2,,,,,,,,,,,,,b,1,1.7180574053254531,1386.9709384180514,None,,,,,001,77 ,2019_Oct_30_1105,ACPT_experiment_5_30_19,3.1.0,59.952511772372056,
,,,C,U,d,n,,,,,,,,,,0,16,16,15,,,,,,,,,,,,,v,0,1.2176480745147273,1391.9749369401134,None,,,,,001,77 ,2019_Oct_30_1105,ACPT_experiment_5_30_19,3.1.0,59.952511772372056,
,,,C,D,y,b,,,,,,,,,,0,17,17,11,,,,,,,,,,,,,b,1,1.9182117194186503,1396.4785348854903,None,,,,,001,77 ,2019_Oct_30_1105,ACPT_experiment_5_30_19,3.1.0,59.952511772372056,
,,,C,D,d,v,,,,,,,,,,0,18,18,0,,,,,,,,,,,,,b,0,1.7514079047932682,1401.6660129247111,None,,,,,001,77 ,2019_Oct_30_1105,ACPT_experiment_5_30_19,3.1.0,59.952511772372056,
,,,C,D,g,b,,,,,,,,,,0,19,19,1,,,,,,,,,,,,,v,0,2.7522042283026167,1406.68669771463,None,,,,,001,77 ,2019_Oct_30_1105,ACPT_experiment_5_30_19,3.1.0,59.952511772372056,
,,,C,G,g,v,,,,,,,,,,1,0,20,4,,,,,,,,,,,,,v,1,1.751402169332323,1412.7248512100614,None,,,,,001,77 ,2019_Oct_30_1105,ACPT_experiment_5_30_19,3.1.0,59.952511772372056,
,,,C,D,d,v,,,,,,,,,,1,1,21,9,,,,,,,,,,,,,b,0,1.5679787993203718,1417.7621781953467,None,,,,,001,77 ,2019_Oct_30_1105,ACPT_experiment_5_30_19,3.1.0,59.952511772372056,
,,,C,G,g,v,,,,,,,,,,1,2,22,13,,,,,,,,,,,,,b,0,2.401931159975902,1422.616080603153,None,,,,,001,77 ,2019_Oct_30_1105,ACPT_experiment_5_30_19,3.1.0,59.952511772372056,
,,,C,U,g,n,,,,,,,,,,1,3,23,7,,,,,,,,,,,,,v,0,4.186694695965343,1428.303958917193,None,,,,,001,77 ,2019_Oct_30_1105,ACPT_experiment_5_30_19,3.1.0,59.952511772372056,
,,,C,D,g,b,,,,,,,,,,1,4,24,1,,,,,,,,,,,,,v,0,1.8181369773037659,1435.7765962392277,None,,,,,001,77 ,2019_Oct_30_1105,ACPT_experiment_5_30_19,3.1.0,59.952511772372056,
,,,C,U,d,n,,,,,,,,,,1,5,25,15,,,,,,,,,,,,,v,0,1.5679486126828124,1440.880665881009,None,,,,,001,77 ,2019_Oct_30_1105,ACPT_experiment_5_30_19,3.1.0,59.952511772372056,
,,,C,G,y,b,,,,,,,,,,1,6,26,5,,,,,,,,,,,,,b,1,1.0174988921507975,1445.7345426301736,None,,,,,001,77 ,2019_Oct_30_1105,ACPT_experiment_5_30_19,3.1.0,59.952511772372056,
,,,C,U,g,n,,,,,,,,,,1,7,27,16,,,,,,,,,,,,,v,0,2.7519717911900443,1450.0549058720253,None,,,,,001,77 ,2019_Oct_30_1105,ACPT_experiment_5_30_19,3.1.0,59.952511772372056,
,,,C,U,y,n,,,,,,,,,,1,8,28,8,,,,,,,,,,,,,b,0,1.918208097022216,1456.092818478086,None,,,,,001,77 ,2019_Oct_30_1105,ACPT_experiment_5_30_19,3.1.0,59.952511772372056,
,,,C,D,y,b,,,,,,,,,,1,9,29,2,,,,,,,,,,,,,b,1,1.3344030471598671,1461.2969785590349,None,,,,,001,77 ,2019_Oct_30_1105,ACPT_experiment_5_30_19,3.1.0,59.952511772372056,
,,,C,U,d,n,,,,,,,,,,1,10,30,6,,,,,,,,,,,,,v,0,1.7347599739669022,1465.9173209117334,None,,,,,001,77 ,2019_Oct_30_1105,ACPT_experiment_5_30_19,3.1.0,59.952511772372056,
,,,C,G,y,b,,,,,,,,,,1,11,31,14,,,,,,,,,,,,,b,1,1.4178295565825465,1470.9380041923205,None,,,,,001,77 ,2019_Oct_30_1105,ACPT_experiment_5_30_19,3.1.0,59.952511772372056,
,,,C,G,d,b,,,,,,,,,,1,12,32,12,,,,,,,,,,,,,b,1,4.119709037034227,1475.6420290371307,None,,,,,001,77 ,2019_Oct_30_1105,ACPT_experiment_5_30_19,3.1.0,59.952511772372056,
,,,C,D,y,b,,,,,,,,,,1,13,33,11,,,,,,,,,,,,,b,1,1.8681927622101284,1483.0476550415915,None,,,,,001,77 ,2019_Oct_30_1105,ACPT_experiment_5_30_19,3.1.0,59.952511772372056,
,,,C,D,d,v,,,,,,,,,,1,14,34,0,,,,,,,,,,,,,v,1,1.8681704240980253,1488.1851132180045,None,,,,,001,77 ,2019_Oct_30_1105,ACPT_experiment_5_30_19,3.1.0,59.952511772372056,
,,,C,D,d,v,,,,,,,,,,1,15,35,18,,,,,,,,,,,,,v,1,0.8008349020319656,1493.3225502637706,None,,,,,001,77 ,2019_Oct_30_1105,ACPT_experiment_5_30_19,3.1.0,59.952511772372056,
,,,C,G,d,b,,,,,,,,,,1,16,36,3,,,,,,,,,,,,,b,1,0.9140764518870128,1497.4291625260666,None,,,,,001,77 ,2019_Oct_30_1105,ACPT_experiment_5_30_19,3.1.0,59.952511772372056,
,,,C,G,g,v,,,,,,,,,,1,17,37,19,,,,,,,,,,,,,v,1,1.8346816698285693,1501.612503788423,None,,,,,001,77 ,2019_Oct_30_1105,ACPT_experiment_5_30_19,3.1.0,59.952511772372056,
,,,C,D,g,b,,,,,,,,,,1,18,38,10,,,,,,,,,,,,,v,0,2.1850914836250013,1506.7332847529706,None,,,,,001,77 ,2019_Oct_30_1105,ACPT_experiment_5_30_19,3.1.0,59.952511772372056,
,,,C,U,y,n,,,,,,,,,,1,19,39,17,,,,,,,,,,,,,v,0,1.3010498308949536,1512.2042980338838,None,,,,,001,77 ,2019_Oct_30_1105,ACPT_experiment_5_30_19,3.1.0,59.952511772372056,
,,,C,U,d,n,,,,,,,,,,2,0,40,6,,,,,,,,,,,,,v,0,1.2674213124910239,1516.7915621705888,None,,,,,001,77 ,2019_Oct_30_1105,ACPT_experiment_5_30_19,3.1.0,59.952511772372056,
,,,C,G,g,v,,,,,,,,,,2,1,41,13,,,,,,,,,,,,,b,0,2.1850905780256653,1521.3449242979495,None,,,,,001,77 ,2019_Oct_30_1105,ACPT_experiment_5_30_19,3.1.0,59.952511772372056,
,,,C,D,d,v,,,,,,,,,,2,2,42,0,,,,,,,,,,,,,v,1,1.768090248387125,1526.8159623319061,None,,,,,001,77 ,2019_Oct_30_1105,ACPT_experiment_5_30_19,3.1.0,59.952511772372056,
,,,C,G,d,b,,,,,,,,,,2,3,43,12,,,,,,,,,,,,,v,0,3.25261416284593,1531.869998828759,None,,,,,001,77 ,2019_Oct_30_1105,ACPT_experiment_5_30_19,3.1.0,59.952511772372056,
,,,C,D,d,v,,,,,,,,,,2,4,44,9,,,,,,,,,,,,,v,1,1.9515755010079374,1538.4085501840782,None,,,,,001,77 ,2019_Oct_30_1105,ACPT_experiment_5_30_19,3.1.0,59.952511772372056,
,,,C,D,y,b,,,,,,,,,,2,5,45,11,,,,,,,,,,,,,b,1,1.7347303910619303,1543.6460610663617,None,,,,,001,77 ,2019_Oct_30_1105,ACPT_experiment_5_30_19,3.1.0,59.952511772372056,
,,,C,D,d,v,,,,,,,,,,2,6,46,18,,,,,,,,,,,,,v,1,2.7522102656303105,1548.6667395170862,None,,,,,001,77 ,2019_Oct_30_1105,ACPT_experiment_5_30_19,3.1.0,59.952511772372056,
,,,C,G,d,b,,,,,,,,,,2,7,47,3,,,,,,,,,,,,,b,1,1.8348332067507727,1554.7048981442467,None,,,,,001,77 ,2019_Oct_30_1105,ACPT_experiment_5_30_19,3.1.0,59.952511772372056,
,,,C,G,g,v,,,,,,,,,,2,8,48,19,,,,,,,,,,,,,b,0,2.468655402623881,1559.8089723140229,None,,,,,001,77 ,2019_Oct_30_1105,ACPT_experiment_5_30_19,3.1.0,59.952511772372056,
,,,C,G,g,v,,,,,,,,,,2,9,49,4,,,,,,,,,,,,,v,1,1.3178930692683934,1565.5467346510004,None,,,,,001,77 ,2019_Oct_30_1105,ACPT_experiment_5_30_19,3.1.0,59.952511772372056,
,,,C,U,y,n,,,,,,,,,,2,10,50,8,,,,,,,,,,,,,v,0,1.3006948360316528,1570.1676176463843,None,,,,,001,77 ,2019_Oct_30_1105,ACPT_experiment_5_30_19,3.1.0,59.952511772372056,
,,,C,U,g,n,,,,,,,,,,2,11,51,16,,,,,,,,,,,,,v,0,1.0008573005179642,1574.73753533346,None,,,,,001,77 ,2019_Oct_30_1105,ACPT_experiment_5_30_19,3.1.0,59.952511772372056,
,,,C,U,g,n,,,,,,,,,,2,12,52,7,,,,,,,,,,,,,b,0,1.1506675473119685,1579.024581884878,None,,,,,001,77 ,2019_Oct_30_1105,ACPT_experiment_5_30_19,3.1.0,59.952511772372056,
,,,C,U,d,n,,,,,,,,,,2,13,53,15,,,,,,,,,,,,,v,0,1.501227690565429,1583.4445094127977,None,,,,,001,77 ,2019_Oct_30_1105,ACPT_experiment_5_30_19,3.1.0,59.952511772372056,
,,,C,U,y,n,,,,,,,,,,2,14,54,17,,,,,,,,,,,,,n,1,1.951570973012167,1588.2316655417117,None,,,,,001,77 ,2019_Oct_30_1105,ACPT_experiment_5_30_19,3.1.0,59.952511772372056,
,,,C,G,y,b,,,,,,,,,,2,15,55,5,,,,,,,,,,,,,b,1,1.4344871471339502,1593.469183668787,None,,,,,001,77 ,2019_Oct_30_1105,ACPT_experiment_5_30_19,3.1.0,59.952511772372056,
,,,C,D,y,b,,,,,,,,,,2,16,56,2,,,,,,,,,,,,,b,1,1.0641961117198662,1598.2096329184078,None,,,,,001,77 ,2019_Oct_30_1105,ACPT_experiment_5_30_19,3.1.0,59.952511772372056,
,,,C,D,g,b,,,,,,,,,,2,17,57,1,,,,,,,,,,,,,b,1,2.8189360176102127,1602.5430865958042,None,,,,,001,77 ,2019_Oct_30_1105,ACPT_experiment_5_30_19,3.1.0,59.952511772372056,
,,,C,D,g,b,,,,,,,,,,2,18,58,10,,,,,,,,,,,,,b,1,2.702194025218887,1608.6312665951045,None,,,,,001,77 ,2019_Oct_30_1105,ACPT_experiment_5_30_19,3.1.0,59.952511772372056,
,,,C,G,y,b,,,,,,,,,,2,19,59,14,,,,,,,,,,,,,b,1,1.6013193371982197,1614.619402944525,None,,,,,001,77 ,2019_Oct_30_1105,ACPT_experiment_5_30_19,3.1.0,59.952511772372056,
,,,C,D,d,v,,,,,,,,,,3,0,60,18,,,,,,,,,,,,,b,0,1.684695133068999,1619.5066329099554,None,,,,,001,77 ,2019_Oct_30_1105,ACPT_experiment_5_30_19,3.1.0,59.952511772372056,
,,,C,G,y,b,,,,,,,,,,3,1,61,14,,,,,,,,,,,,,b,1,1.951572180477342,1624.4772697634935,None,,,,,001,77 ,2019_Oct_30_1105,ACPT_experiment_5_30_19,3.1.0,59.952511772372056,
,,,C,D,g,b,,,,,,,,,,3,2,62,10,,,,,,,,,,,,,v,0,6.121570948862427,1629.7147857775053,None,,,,,001,77 ,2019_Oct_30_1105,ACPT_experiment_5_30_19,3.1.0,59.952511772372056,
,,,C,U,g,n,,,,,,,,,,3,3,63,16,,,,,,,,,,,,,n,1,3.1858856940689293,1639.1222942207078,None,,,,,001,77 ,2019_Oct_30_1105,ACPT_experiment_5_30_19,3.1.0,59.952511772372056,
,,,C,D,y,b,,,,,,,,,,3,4,64,2,,,,,,,,,,,,,b,1,1.1008988373314423,1645.594132502436,None,,,,,001,77 ,2019_Oct_30_1105,ACPT_experiment_5_30_19,3.1.0,59.952511772372056,
,,,C,G,g,v,,,,,,,,,,3,5,65,19,,,,,,,,,,,,,b,0,3.318924244820664,1649.998022473348,None,,,,,001,77 ,2019_Oct_30_1105,ACPT_experiment_5_30_19,3.1.0,59.952511772372056,
,,,C,D,d,v,,,,,,,,,,3,6,66,9,,,,,,,,,,,,,b,0,2.8022575982786293,1656.6029110786167,None,,,,,001,77 ,2019_Oct_30_1105,ACPT_experiment_5_30_19,3.1.0,59.952511772372056,
,,,C,U,d,n,,,,,,,,,,3,7,67,15,,,,,,,,,,,,,n,1,1.3010253797183395,1662.6911309242787,None,,,,,001,77 ,2019_Oct_30_1105,ACPT_experiment_5_30_19,3.1.0,59.952511772372056,
,,,C,G,y,b,,,,,,,,,,3,8,68,5,,,,,,,,,,,,,b,1,0.750362541521099,1667.2950348414179,None,,,,,001,77 ,2019_Oct_30_1105,ACPT_experiment_5_30_19,3.1.0,59.952511772372056,
,,,C,U,y,n,,,,,,,,,,3,9,69,17,,,,,,,,,,,,,n,1,1.0341637274941604,1671.3313436314047,None,,,,,001,77 ,2019_Oct_30_1105,ACPT_experiment_5_30_19,3.1.0,59.952511772372056,
,,,C,G,g,v,,,,,,,,,,3,10,70,13,,,,,,,,,,,,,v,1,3.2357866215234026,1675.6849514176247,None,,,,,001,77 ,2019_Oct_30_1105,ACPT_experiment_5_30_19,3.1.0,59.952511772372056,
,,,C,G,d,b,,,,,,,,,,3,11,71,12,,,,,,,,,,,,,b,1,1.2843680910336843,1682.190007679481,None,,,,,001,77 ,2019_Oct_30_1105,ACPT_experiment_5_30_19,3.1.0,59.952511772372056,
,,,C,G,g,v,,,,,,,,,,3,12,72,4,,,,,,,,,,,,,b,0,1.817861675165659,1686.7605927931218,None,,,,,001,77 ,2019_Oct_30_1105,ACPT_experiment_5_30_19,3.1.0,59.952511772372056,
,,,C,U,g,n,,,,,,,,,,3,13,73,7,,,,,,,,,,,,,n,1,0.9341170589523244,1691.8643916607607,None,,,,,001,77 ,2019_Oct_30_1105,ACPT_experiment_5_30_19,3.1.0,59.952511772372056,
,,,C,D,y,b,,,,,,,,,,3,14,74,11,,,,,,,,,,,,,b,1,0.8507418668141327,1696.0844287058026,None,,,,,001,77 ,2019_Oct_30_1105,ACPT_experiment_5_30_19,3.1.0,59.952511772372056,
,,,C,U,d,n,,,,,,,,,,3,15,75,6,,,,,,,,,,,,,n,1,0.9341046824301884,1700.2210673149957,None,,,,,001,77 ,2019_Oct_30_1105,ACPT_experiment_5_30_19,3.1.0,59.952511772372056,
,,,C,D,d,v,,,,,,,,,,3,16,76,0,,,,,,,,,,,,,v,1,1.717819232752845,1704.4580212538085,None,,,,,001,77 ,2019_Oct_30_1105,ACPT_experiment_5_30_19,3.1.0,59.952511772372056,
,,,C,U,y,n,,,,,,,,,,3,17,77,8,,,,,,,,,,,,,n,1,0.8173300884709533,1709.461775867836,None,,,,,001,77 ,2019_Oct_30_1105,ACPT_experiment_5_30_19,3.1.0,59.952511772372056,
,,,C,D,g,b,,,,,,,,,,3,18,78,1,,,,,,,,,,,,,b,1,3.3524196401504014,1713.582002303844,None,,,,,001,77 ,2019_Oct_30_1105,ACPT_experiment_5_30_19,3.1.0,59.952511772372056,
,,,C,G,d,b,,,,,,,,,,3,19,79,3,,,,,,,,,,,,,v,0,2.3852370435934063,1720.2203787577837,None,,,,,001,77 ,2019_Oct_30_1105,ACPT_experiment_5_30_19,3.1.0,59.952511772372056,
,,,C,U,y,n,,,,,,,,,,4,0,80,8,,,,,,,,,,,,,n,1,0.6671853737279889,1725.8915798599583,None,,,,,001,77 ,2019_Oct_30_1105,ACPT_experiment_5_30_19,3.1.0,59.952511772372056,
,,,C,D,g,b,,,,,,,,,,4,1,81,10,,,,,,,,,,,,,v,0,2.2017554133699377,1729.8447317071996,None,,,,,001,77 ,2019_Oct_30_1105,ACPT_experiment_5_30_19,3.1.0,59.952511772372056,
,,,C,U,d,n,,,,,,,,,,4,2,82,6,,,,,,,,,,,,,n,1,0.7506124868832558,1735.3324264261073,None,,,,,001,77 ,2019_Oct_30_1105,ACPT_experiment_5_30_19,3.1.0,59.952511772372056,
,,,C,D,d,v,,,,,,,,,,4,3,83,9,,,,,,,,,,,,,v,1,2.585428185384444,1739.3856527135977,None,,,,,001,77 ,2019_Oct_30_1105,ACPT_experiment_5_30_19,3.1.0,59.952511772372056,
,,,C,G,g,v,,,,,,,,,,4,4,84,19,,,,,,,,,,,,,v,1,1.2677204620731573,1745.257012959728,None,,,,,001,77 ,2019_Oct_30_1105,ACPT_experiment_5_30_19,3.1.0,59.952511772372056,
,,,C,G,y,b,,,,,,,,,,4,5,85,14,,,,,,,,,,,,,n,0,0.7305803320768973,1749.830671374977,None,,,,,001,77 ,2019_Oct_30_1105,ACPT_experiment_5_30_19,3.1.0,59.952511772372056,
,,,C,U,g,n,,,,,,,,,,4,6,86,16,,,,,,,,,,,,,n,1,4.586999399889464,1753.847213048838,None,,,,,001,77 ,2019_Oct_30_1105,ACPT_experiment_5_30_19,3.1.0,59.952511772372056,
,,,C,G,g,v,,,,,,,,,,4,7,87,4,,,,,,,,,,,,,v,1,1.8516848973831657,1761.7201523579988,None,,,,,001,77 ,2019_Oct_30_1105,ACPT_experiment_5_30_19,3.1.0,59.952511772372056,
,,,C,G,d,b,,,,,,,,,,4,8,88,12,,,,,,,,,,,,,b,1,0.9841447702856385,1766.8408895519215,None,,,,,001,77 ,2019_Oct_30_1105,ACPT_experiment_5_30_19,3.1.0,59.952511772372056,
,,,C,D,d,v,,,,,,,,,,4,9,89,0,,,,,,,,,,,,,v,1,1.684681549081688,1771.1109857024012,None,,,,,001,77 ,2019_Oct_30_1105,ACPT_experiment_5_30_19,3.1.0,59.952511772372056,
,,,C,G,g,v,,,,,,,,,,4,10,90,13,,,,,,,,,,,,,v,1,1.48453659284678,1776.0816125943484,None,,,,,001,77 ,2019_Oct_30_1105,ACPT_experiment_5_30_19,3.1.0,59.952511772372056,
,,,C,D,g,b,,,,,,,,,,4,11,91,1,,,,,,,,,,,,,b,1,1.551252685100735,1780.852092718862,None,,,,,001,77 ,2019_Oct_30_1105,ACPT_experiment_5_30_19,3.1.0,59.952511772372056,
,,,C,D,d,v,,,,,,,,,,4,12,92,18,,,,,,,,,,,,,v,1,2.4519778888916335,1785.6726011584424,None,,,,,001,77 ,2019_Oct_30_1105,ACPT_experiment_5_30_19,3.1.0,59.952511772372056,
,,,C,D,y,b,,,,,,,,,,4,13,93,2,,,,,,,,,,,,,b,1,1.2677418945859245,1791.3938375186099,None,,,,,001,77 ,2019_Oct_30_1105,ACPT_experiment_5_30_19,3.1.0,59.952511772372056,
,,,C,G,y,b,,,,,,,,,,4,14,94,5,,,,,,,,,,,,,b,1,1.1340582553812055,1795.9643166771511,None,,,,,001,77 ,2019_Oct_30_1105,ACPT_experiment_5_30_19,3.1.0,59.952511772372056,
,,,C,G,d,b,,,,,,,,,,4,15,95,3,,,,,,,,,,,,,v,0,2.0683111542039114,1800.3843661590881,None,,,,,001,77 ,2019_Oct_30_1105,ACPT_experiment_5_30_19,3.1.0,59.952511772372056,
,,,C,U,d,n,,,,,,,,,,4,16,96,15,,,,,,,,,,,,,n,1,0.98413058256574,1805.7386214486933,None,,,,,001,77 ,2019_Oct_30_1105,ACPT_experiment_5_30_19,3.1.0,59.952511772372056,
,,,C,D,y,b,,,,,,,,,,4,17,97,11,,,,,,,,,,,,,b,1,2.318582532079745,1810.0086988834564,None,,,,,001,77 ,2019_Oct_30_1105,ACPT_experiment_5_30_19,3.1.0,59.952511772372056,
,,,C,U,y,n,,,,,,,,,,4,18,98,17,,,,,,,,,,,,,n,1,0.8173300884709533,1815.5964924937907,None,,,,,001,77 ,2019_Oct_30_1105,ACPT_experiment_5_30_19,3.1.0,59.952511772372056,
,,,C,U,g,n,,,,,,,,,,4,19,99,7,,,,,,,,,,,,,n,1,1.3675171852528365,1819.7000311526108,None,,,,,001,77 ,2019_Oct_30_1105,ACPT_experiment_5_30_19,3.1.0,59.952511772372056,
,,,C,G,y,b,,,,,,,,,,5,0,100,5,,,,,,,,,,,,,b,1,0.8173433705915158,1824.3534743612809,None,,,,,001,77 ,2019_Oct_30_1105,ACPT_experiment_5_30_19,3.1.0,59.952511772372056,
,,,C,U,y,n,,,,,,,,,,5,1,101,17,,,,,,,,,,,,,n,1,0.7170546052129794,1828.4736524986693,None,,,,,001,77 ,2019_Oct_30_1105,ACPT_experiment_5_30_19,3.1.0,59.952511772372056,
,,,C,G,d,b,,,,,,,,,,5,2,102,3,,,,,,,,,,,,,b,1,2.919018910117302,1832.4766222601102,None,,,,,001,77 ,2019_Oct_30_1105,ACPT_experiment_5_30_19,3.1.0,59.952511772372056,
,,,C,U,g,n,,,,,,,,,,5,3,103,7,,,,,,,,,,,,,n,1,1.000770363000811,1838.681618812796,None,,,,,001,77 ,2019_Oct_30_1105,ACPT_experiment_5_30_19,3.1.0,59.952511772372056,
,,,C,D,d,v,,,,,,,,,,5,4,104,0,,,,,,,,,,,,,v,1,2.185090879892414,1842.968334820528,None,,,,,001,77 ,2019_Oct_30_1105,ACPT_experiment_5_30_19,3.1.0,59.952511772372056,
,,,C,G,g,v,,,,,,,,,,5,5,105,4,,,,,,,,,,,,,v,1,1.1009247978399799,1848.4393689302215,None,,,,,001,77 ,2019_Oct_30_1105,ACPT_experiment_5_30_19,3.1.0,59.952511772372056,
,,,C,D,d,v,,,,,,,,,,5,6,106,18,,,,,,,,,,,,,v,1,1.400858326863272,1852.8431523423023,None,,,,,001,77 ,2019_Oct_30_1105,ACPT_experiment_5_30_19,3.1.0,59.952511772372056,
,,,C,U,y,n,,,,,,,,,,5,7,107,8,,,,,,,,,,,,,n,1,1.0675299240137974,1857.5299538989666,None,,,,,001,77 ,2019_Oct_30_1105,ACPT_experiment_5_30_19,3.1.0,59.952511772372056,
,,,C,G,g,v,,,,,,,,,,5,8,108,19,,,,,,,,,,,,,v,1,2.935683141728987,1861.9001202635654,None,,,,,001,77 ,2019_Oct_30_1105,ACPT_experiment_5_30_19,3.1.0,59.952511772372056,
,,,C,D,y,b,,,,,,,,,,5,9,109,11,,,,,,,,,,,,,b,1,0.9674539744328285,1868.1217396921693,None,,,,,001,77 ,2019_Oct_30_1105,ACPT_experiment_5_30_19,3.1.0,59.952511772372056,
,,,C,D,g,b,,,,,,,,,,5,10,110,10,,,,,,,,,,,,,b,1,2.3485593728910317,1872.395145807499,None,,,,,001,77 ,2019_Oct_30_1105,ACPT_experiment_5_30_19,3.1.0,59.952511772372056,
,,,C,D,g,b,,,,,,,,,,5,11,111,1,,,,,,,,,,,,,b,1,1.2009971250245144,1878.0129443322176,None,,,,,001,77 ,2019_Oct_30_1105,ACPT_experiment_5_30_19,3.1.0,59.952511772372056,
,,,C,U,g,n,,,,,,,,,,5,12,112,16,,,,,,,,,,,,,n,1,0.9503025304857147,1882.5170044350207,None,,,,,001,77 ,2019_Oct_30_1105,ACPT_experiment_5_30_19,3.1.0,59.952511772372056,
,,,C,U,d,n,,,,,,,,,,5,13,113,15,,,,,,,,,,,,,n,1,0.8674275309376753,1886.736571172244,None,,,,,001,77 ,2019_Oct_30_1105,ACPT_experiment_5_30_19,3.1.0,59.952511772372056,
,,,C,G,g,v,,,,,,,,,,5,14,114,13,,,,,,,,,,,,,v,1,1.934638080323566,1890.9068452427673,None,,,,,001,77 ,2019_Oct_30_1105,ACPT_experiment_5_30_19,3.1.0,59.952511772372056,
,,,C,D,d,v,,,,,,,,,,5,15,115,9,,,,,,,,,,,,,v,1,1.918208097022216,1896.1274271566244,None,,,,,001,77 ,2019_Oct_30_1105,ACPT_experiment_5_30_19,3.1.0,59.952511772372056,
,,,C,G,y,b,,,,,,,,,,5,16,116,14,,,,,,,,,,,,,b,1,0.9340947208393118,1901.331569427456,None,,,,,001,77 ,2019_Oct_30_1105,ACPT_experiment_5_30_19,3.1.0,59.952511772372056,
,,,C,U,d,n,,,,,,,,,,5,17,117,6,,,,,,,,,,,,,n,1,1.1840536670124493,1905.5685294035966,None,,,,,001,77 ,2019_Oct_30_1105,ACPT_experiment_5_30_19,3.1.0,59.952511772372056,
,,,C,G,d,b,,,,,,,,,,5,18,118,12,,,,,,,,,,,,,b,1,2.0016119664660437,1910.0385217724142,None,,,,,001,77 ,2019_Oct_30_1105,ACPT_experiment_5_30_19,3.1.0,59.952511772372056,
,,,C,D,y,b,,,,,,,,,,5,19,119,2,,,,,,,,,,,,,b,1,1.9348880256848133,1915.3260805910786,None,,,,,001,77 ,2019_Oct_30_1105,ACPT_experiment_5_30_19,3.1.0,59.952511772372056,
,,,C,G,g,v,,,,,,,,,,6,0,120,13,,,,,,,,,,,,,v,1,1.417813255798137,1920.5469091297673,None,,,,,001,77 ,2019_Oct_30_1105,ACPT_experiment_5_30_19,3.1.0,59.952511772372056,
,,,C,U,g,n,,,,,,,,,,6,1,121,7,,,,,,,,,,,,,n,1,0.950375582149718,1925.2677138210129,None,,,,,001,77 ,2019_Oct_30_1105,ACPT_experiment_5_30_19,3.1.0,59.952511772372056,
,,,C,U,y,n,,,,,,,,,,6,2,122,17,,,,,,,,,,,,,n,1,1.8348135854366774,1929.487379570408,None,,,,,001,77 ,2019_Oct_30_1105,ACPT_experiment_5_30_19,3.1.0,59.952511772372056,
,,,C,G,g,v,,,,,,,,,,6,3,123,19,,,,,,,,,,,,,v,1,1.0174952697534536,1934.6081294427186,None,,,,,001,77 ,2019_Oct_30_1105,ACPT_experiment_5_30_19,3.1.0,59.952511772372056,
,,,C,G,d,b,,,,,,,,,,6,4,124,12,,,,,,,,,,,,,b,1,1.4645189276252495,1938.9315759477704,None,,,,,001,77 ,2019_Oct_30_1105,ACPT_experiment_5_30_19,3.1.0,59.952511772372056,
,,,C,U,g,n,,,,,,,,,,6,5,125,16,,,,,,,,,,,,,n,1,2.418618937164865,1943.6820381051966,None,,,,,001,77 ,2019_Oct_30_1105,ACPT_experiment_5_30_19,3.1.0,59.952511772372056,
,,,C,D,d,v,,,,,,,,,,6,6,126,0,,,,,,,,,,,,,v,1,2.38525002384813,1949.3865915180377,None,,,,,001,77 ,2019_Oct_30_1105,ACPT_experiment_5_30_19,3.1.0,59.952511772372056,
,,,C,G,d,b,,,,,,,,,,6,7,127,3,,,,,,,,,,,,,b,1,1.80145674677442,1955.04110514489,None,,,,,001,77 ,2019_Oct_30_1105,ACPT_experiment_5_30_19,3.1.0,59.952511772372056,
,,,C,G,g,v,,,,,,,,,,6,8,128,4,,,,,,,,,,,,,v,1,1.4178159725952355,1960.1118134200133,None,,,,,001,77 ,2019_Oct_30_1105,ACPT_experiment_5_30_19,3.1.0,59.952511772372056,
,,,C,D,d,v,,,,,,,,,,6,9,129,18,,,,,,,,,,,,,v,1,1.2674207087575269,1964.8325230233486,None,,,,,001,77 ,2019_Oct_30_1105,ACPT_experiment_5_30_19,3.1.0,59.952511772372056,
,,,C,D,d,v,,,,,,,,,,6,10,130,9,,,,,,,,,,,,,v,1,2.0850321366951903,1969.369203410849,None,,,,,001,77 ,2019_Oct_30_1105,ACPT_experiment_5_30_19,3.1.0,59.952511772372056,
,,,C,D,y,b,,,,,,,,,,6,11,131,2,,,,,,,,,,,,,b,1,0.9507716308389718,1974.7234750012376,None,,,,,001,77 ,2019_Oct_30_1105,ACPT_experiment_5_30_19,3.1.0,59.952511772372056,
,,,C,G,y,b,,,,,,,,,,6,12,132,14,,,,,,,,,,,,,b,1,0.7639643387128672,1978.9801975655082,None,,,,,001,77 ,2019_Oct_30_1105,ACPT_experiment_5_30_19,3.1.0,59.952511772372056,
,,,C,D,g,b,,,,,,,,,,6,13,133,10,,,,,,,,,,,,,v,0,2.168407026965724,1983.0301042284236,None,,,,,001,77 ,2019_Oct_30_1105,ACPT_experiment_5_30_19,3.1.0,59.952511772372056,
,,,C,G,y,b,,,,,,,,,,6,14,134,5,,,,,,,,,,,,,b,1,2.18509631348752,1988.4844565982557,None,,,,,001,77 ,2019_Oct_30_1105,ACPT_experiment_5_30_19,3.1.0,59.952511772372056,
,,,C,U,y,n,,,,,,,,,,6,15,135,8,,,,,,,,,,,,,n,1,1.4011396663290725,1993.955487991152,None,,,,,001,77 ,2019_Oct_30_1105,ACPT_experiment_5_30_19,3.1.0,59.952511772372056,
,,,C,D,g,b,,,,,,,,,,6,16,136,1,,,,,,,,,,,,,b,1,2.351891675853949,1998.6425633406225,None,,,,,001,77 ,2019_Oct_30_1105,ACPT_experiment_5_30_19,3.1.0,59.952511772372056,
,,,C,D,y,b,,,,,,,,,,6,17,137,11,,,,,,,,,,,,,b,1,0.8173485023198737,2004.2803786249624,None,,,,,001,77 ,2019_Oct_30_1105,ACPT_experiment_5_30_19,3.1.0,59.952511772372056,
,,,C,U,d,n,,,,,,,,,,6,18,138,6,,,,,,,,,,,,,n,1,1.067516641893235,2008.4003647753334,None,,,,,001,77 ,2019_Oct_30_1105,ACPT_experiment_5_30_19,3.1.0,59.952511772372056,
,,,C,U,d,n,,,,,,,,,,6,19,139,15,,,,,,,,,,,,,n,1,1.1342731842441935,2012.7371483407615,None,,,,,001,77 ,2019_Oct_30_1105,ACPT_experiment_5_30_19,3.1.0,59.952511772372056,
,,,C,G,y,b,,,,,,,,,,7,0,140,5,,,,,,,,,,,,,b,1,1.2674056154382924,2017.174303684823,None,,,,,001,77 ,2019_Oct_30_1105,ACPT_experiment_5_30_19,3.1.0,59.952511772372056,
,,,C,G,g,v,,,,,,,,,,7,1,141,4,,,,,,,,,,,,,v,1,2.902357395303625,2021.7109514707536,None,,,,,001,77 ,2019_Oct_30_1105,ACPT_experiment_5_30_19,3.1.0,59.952511772372056,
,,,C,G,d,b,,,,,,,,,,7,2,142,12,,,,,,,,,,,,,b,1,4.1366709088961215,2027.8825443954884,None,,,,,001,77 ,2019_Oct_30_1105,ACPT_experiment_5_30_19,3.1.0,59.952511772372056,
,,,C,D,y,b,,,,,,,,,,7,3,143,11,,,,,,,,,,,,,b,1,0.9841275639018932,2035.3051567229868,None,,,,,001,77 ,2019_Oct_30_1105,ACPT_experiment_5_30_19,3.1.0,59.952511772372056,
,,,C,G,y,b,,,,,,,,,,7,4,144,14,,,,,,,,,,,,,b,1,1.183910884215038,2039.6089556509987,None,,,,,001,77 ,2019_Oct_30_1105,ACPT_experiment_5_30_19,3.1.0,59.952511772372056,
,,,C,U,y,n,,,,,,,,,,7,5,145,8,,,,,,,,,,,,,n,1,0.8507150007062592,2044.0787973884935,None,,,,,001,77 ,2019_Oct_30_1105,ACPT_experiment_5_30_19,3.1.0,59.952511772372056,
,,,C,D,d,v,,,,,,,,,,7,6,146,0,,,,,,,,,,,,,v,1,1.7345399133764658,2048.2323009704405,None,,,,,001,77 ,2019_Oct_30_1105,ACPT_experiment_5_30_19,3.1.0,59.952511772372056,
,,,C,G,g,v,,,,,,,,,,7,7,147,19,,,,,,,,,,,,,v,1,1.3677641119511463,2053.252809470394,None,,,,,001,77 ,2019_Oct_30_1105,ACPT_experiment_5_30_19,3.1.0,59.952511772372056,
,,,C,D,d,v,,,,,,,,,,7,8,148,9,,,,,,,,,,,,,v,1,1.3172648853333158,2057.9236438049174,None,,,,,001,77 ,2019_Oct_30_1105,ACPT_experiment_5_30_19,3.1.0,59.952511772372056,
,,,C,D,g,b,,,,,,,,,,7,9,149,1,,,,,,,,,,,,,b,1,1.167628815439457,2062.510176217518,None,,,,,001,77 ,2019_Oct_30_1105,ACPT_experiment_5_30_19,3.1.0,59.952511772372056,
,,,C,G,d,b,,,,,,,,,,7,10,150,3,,,,,,,,,,,,,b,1,2.6518837669545974,2066.9807056066247,None,,,,,001,77 ,2019_Oct_30_1105,ACPT_experiment_5_30_19,3.1.0,59.952511772372056,
,,,C,D,g,b,,,,,,,,,,7,11,151,10,,,,,,,,,,,,,b,1,1.5012171252419648,2072.918502114876,None,,,,,001,77 ,2019_Oct_30_1105,ACPT_experiment_5_30_19,3.1.0,59.952511772372056,
,,,C,D,y,b,,,,,,,,,,7,12,152,2,,,,,,,,,,,,,b,1,0.9507951764171594,2077.6889595994116,None,,,,,001,77 ,2019_Oct_30_1105,ACPT_experiment_5_30_19,3.1.0,59.952511772372056,
,,,C,D,d,v,,,,,,,,,,7,13,153,18,,,,,,,,,,,,,v,1,1.417828047250623,2081.908997248186,None,,,,,001,77 ,2019_Oct_30_1105,ACPT_experiment_5_30_19,3.1.0,59.952511772372056,
,,,C,U,d,n,,,,,,,,,,7,14,154,6,,,,,,,,,,,,,n,1,0.834042618703279,2086.612767921505,None,,,,,001,77 ,2019_Oct_30_1105,ACPT_experiment_5_30_19,3.1.0,59.952511772372056,
,,,C,U,g,n,,,,,,,,,,7,15,155,7,,,,,,,,,,,,,n,1,1.2841096934125744,2090.7329840940565,None,,,,,001,77 ,2019_Oct_30_1105,ACPT_experiment_5_30_19,3.1.0,59.952511772372056,
,,,C,U,g,n,,,,,,,,,,7,16,156,16,,,,,,,,,,,,,n,1,0.8341603465905791,2095.286197703159,None,,,,,001,77 ,2019_Oct_30_1105,ACPT_experiment_5_30_19,3.1.0,59.952511772372056,
,,,C,G,g,v,,,,,,,,,,7,17,157,13,,,,,,,,,,,,,v,1,7.119182582067879,2099.426313511177,None,,,,,001,77 ,2019_Oct_30_1105,ACPT_experiment_5_30_19,3.1.0,59.952511772372056,
,,,C,U,y,n,,,,,,,,,,7,18,158,17,,,,,,,,,,,,,n,1,1.1008912906727346,2109.8312917103867,None,,,,,001,77 ,2019_Oct_30_1105,ACPT_experiment_5_30_19,3.1.0,59.952511772372056,
,,,C,U,d,n,,,,,,,,,,7,19,159,15,,,,,,,,,,,,,n,1,1.5341099952784134,2114.2352441676394,None,,,,,001,77 ,2019_Oct_30_1105,ACPT_experiment_5_30_19,3.1.0,59.952511772372056,
,,,C,G,d,b,,,,,,,,,,8,0,160,3,,,,,,,,,,,,,b,1,2.618791966973731,2119.0552964871204,None,,,,,001,77 ,2019_Oct_30_1105,ACPT_experiment_5_30_19,3.1.0,59.952511772372056,
,,,C,D,d,v,,,,,,,,,,8,1,161,18,0,0,0,0,0,0,0,0,,,,,v,1,3.9699075443650145,2124.9600069308526,None,,,,,001,77 ,2019_Oct_30_1105,ACPT_experiment_5_30_19,3.1.0,59.952511772372056,
,,,C,D,d,v,L,G,y,R,y,,,,,8,1,161,18,0,0,0,0,,,,,0,0,0,35,,,,,,down,1.6816151903994978,2170.6662840007193,None,001,77 ,2019_Oct_30_1105,ACPT_experiment_5_30_19,3.1.0,59.952511772372056,
,,,C,D,d,v,L,G,d,R,i,,,,,8,1,161,18,0,0,0,0,,,,,0,1,1,17,,,,,,up,1.1508803631095361,2173.6322337749843,None,001,77 ,2019_Oct_30_1105,ACPT_experiment_5_30_19,3.1.0,59.952511772372056,
,,,C,D,d,v,R,D,d,R,c ,,,,,8,1,161,18,0,0,0,0,,,,,0,2,2,1,,,,,,down,1.4011348364665537,2176.0674629096784,None,001,77 ,2019_Oct_30_1105,ACPT_experiment_5_30_19,3.1.0,59.952511772372056,
,,,C,D,d,v,L,U,y,R,u,,,,,8,1,161,18,0,0,0,0,,,,,0,3,3,25,,,,,,down,1.1342599021227215,2178.7529377636047,None,001,77 ,2019_Oct_30_1105,ACPT_experiment_5_30_19,3.1.0,59.952511772372056,
,,,C,D,d,v,R,D,g,R,i,,,,,8,1,161,18,0,0,0,0,,,,,0,4,4,3,,,,,,up,1.034161312562901,2181.1715609268986,None,001,77 ,2019_Oct_30_1105,ACPT_experiment_5_30_19,3.1.0,59.952511772372056,
,,,C,D,d,v,R,G,d,R,i,,,,,8,1,161,18,0,0,0,0,,,,,0,5,5,5,,,,,,up,0.7839669106151632,2183.49007493531,None,001,77 ,2019_Oct_30_1105,ACPT_experiment_5_30_19,3.1.0,59.952511772372056,
,,,C,D,d,v,L,G,d,L,i,,,,,8,1,161,18,0,0,0,0,,,,,0,6,6,16,,,,,,up,0.8507032279176201,2185.5583667700657,None,001,77 ,2019_Oct_30_1105,ACPT_experiment_5_30_19,3.1.0,59.952511772372056,
,,,C,D,d,v,R,G,g,L,c ,,,,,8,1,161,18,0,0,0,0,,,,,0,7,7,6,,,,,,up,0.6505163122556041,2187.693432655422,None,001,77 ,2019_Oct_30_1105,ACPT_experiment_5_30_19,3.1.0,59.952511772372056,
,,,C,D,d,v,R,D,g,L,i,,,,,8,1,161,18,0,0,0,0,,,,,0,8,8,2,,,,,,up,0.6172110927445829,2189.611622640462,None,001,77 ,2019_Oct_30_1105,ACPT_experiment_5_30_19,3.1.0,59.952511772372056,
,,,C,D,d,v,L,D,d,R,c ,,,,,8,1,161,18,0,0,0,0,,,,,0,9,9,13,,,,,,up,0.9841154892465056,2191.513150205088,None,001,77 ,2019_Oct_30_1105,ACPT_experiment_5_30_19,3.1.0,59.952511772372056,
,,,C,D,d,v,R,D,d,L,c,,,,,8,1,161,18,0,0,0,0,,,,,0,10,10,0,,,,,,up,0.583801125599166,2193.7649526492396,None,001,77 ,2019_Oct_30_1105,ACPT_experiment_5_30_19,3.1.0,59.952511772372056,
,,,C,D,d,v,L,U,g,L,u,,,,,8,1,161,18,0,0,0,0,,,,,0,11,11,22,,,,,,up,0.7506079588883949,2195.6330968109633,None,001,77 ,2019_Oct_30_1105,ACPT_experiment_5_30_19,3.1.0,59.952511772372056,
,,,C,D,d,v,L,D,d,L,c ,,,,,8,1,161,18,0,0,0,0,,,,,0,12,12,12,,,,,,up,0.7172369325062391,2197.6680571638326,None,001,77 ,2019_Oct_30_1105,ACPT_experiment_5_30_19,3.1.0,59.952511772372056,
,,,C,D,d,v,L,D,y,R,y,,,,,8,1,161,18,0,0,0,0,,,,,0,13,13,33,,,,,,down,0.9341001544353276,2199.669653433247,None,001,77 ,2019_Oct_30_1105,ACPT_experiment_5_30_19,3.1.0,59.952511772372056,
,,,C,D,d,v,L,U,d,L,u,,,,,8,1,161,18,0,0,0,0,,,,,0,14,14,20,,,,,,up,0.7506248634053918,2201.8880700595646,None,001,77 ,2019_Oct_30_1105,ACPT_experiment_5_30_19,3.1.0,59.952511772372056,
,,,C,D,d,v,R,U,d,L,u,,,,,8,1,161,18,0,0,0,0,,,,,0,15,15,8,,,,,,up,0.6672439358062547,2203.923024978839,None,001,77 ,2019_Oct_30_1105,ACPT_experiment_5_30_19,3.1.0,59.952511772372056,
,,,C,D,d,v,L,D,g,L,i,,,,,8,1,161,18,0,0,0,0,,,,,0,16,16,14,,,,,,up,2.3852509294465563,2205.874608328373,None,001,77 ,2019_Oct_30_1105,ACPT_experiment_5_30_19,3.1.0,59.952511772372056,
,,,C,D,d,v,R,G,d,L,i,,,,,8,1,161,18,0,0,0,0,,,,,0,17,17,4,,,,,,up,1.1176364224729696,2209.5442077275384,None,001,77 ,2019_Oct_30_1105,ACPT_experiment_5_30_19,3.1.0,59.952511772372056,
,,,C,D,d,v,L,U,g,R,u,,,,,8,1,161,18,0,0,0,0,,,,,0,18,18,23,,,,,,up,0.5837890509446879,2211.946129529656,None,001,77 ,2019_Oct_30_1105,ACPT_experiment_5_30_19,3.1.0,59.952511772372056,
,,,C,D,d,v,R,G,y,L,y,,,,,8,1,161,18,0,0,0,0,,,,,0,19,19,28,,,,,,down,0.7005521739811229,2213.8142794268406,None,001,77 ,2019_Oct_30_1105,ACPT_experiment_5_30_19,3.1.0,59.952511772372056,
,,,C,D,d,v,R,D,y,R,y,,,,,8,1,161,18,0,0,0,0,,,,,0,20,20,27,,,,,,down,0.8340254123195336,2215.79916920335,None,001,77 ,2019_Oct_30_1105,ACPT_experiment_5_30_19,3.1.0,59.952511772372056,
,,,C,D,d,v,L,D,g,R,i,,,,,8,1,161,18,0,0,0,0,,,,,0,21,21,15,,,,,,up,0.7172631948815251,2217.917569045897,None,001,77 ,2019_Oct_30_1105,ACPT_experiment_5_30_19,3.1.0,59.952511772372056,
,,,C,D,d,v,R,U,d,R,u,,,,,8,1,161,18,0,0,0,0,,,,,0,22,22,9,,,,,,up,0.8840338042045914,2219.919148410794,None,001,77 ,2019_Oct_30_1105,ACPT_experiment_5_30_19,3.1.0,59.952511772372056,
,,,C,D,d,v,L,G,g,L,c ,,,,,8,1,161,18,0,0,0,0,,,,,0,23,23,18,,,,,,up,0.6171603791917732,2222.087542759373,None,001,77 ,2019_Oct_30_1105,ACPT_experiment_5_30_19,3.1.0,59.952511772372056,
,,,C,D,d,v,L,U,d,R,u,,,,,8,1,161,18,0,0,0,0,,,,,0,24,24,21,,,,,,up,0.7839605714216304,2223.9890621736067,None,001,77 ,2019_Oct_30_1105,ACPT_experiment_5_30_19,3.1.0,59.952511772372056,
,,,C,D,d,v,L,G,y,L,y,,,,,8,1,161,18,0,0,0,0,,,,,0,25,25,34,,,,,,down,0.9340778163223149,2226.0573817800696,None,001,77 ,2019_Oct_30_1105,ACPT_experiment_5_30_19,3.1.0,59.952511772372056,
,,,C,D,d,v,L,G,g,R,c ,,,,,8,1,161,18,0,0,0,0,,,,,0,26,26,19,,,,,,up,0.6338523825106677,2228.275820140767,None,001,77 ,2019_Oct_30_1105,ACPT_experiment_5_30_19,3.1.0,59.952511772372056,
,,,C,D,d,v,R,U,g,R,u,,,,,8,1,161,18,0,0,0,0,,,,,0,27,27,11,,,,,,up,0.5337876019857504,2230.1939880895607,None,001,77 ,2019_Oct_30_1105,ACPT_experiment_5_30_19,3.1.0,59.952511772372056,
,,,C,D,d,v,R,U,g,L,u,,,,,8,1,161,18,0,0,0,0,,,,,0,28,28,10,,,,,,up,0.6171803023735265,2231.9954264224853,None,001,77 ,2019_Oct_30_1105,ACPT_experiment_5_30_19,3.1.0,59.952511772372056,
,,,C,D,d,v,L,U,y,L,u,,,,,8,1,161,18,0,0,0,0,,,,,0,29,29,24,,,,,,down,0.7339159555695005,2233.8969745140257,None,001,77 ,2019_Oct_30_1105,ACPT_experiment_5_30_19,3.1.0,59.952511772372056,
,,,C,D,d,v,R,U,y,L,u,,,,,8,1,161,18,0,0,0,0,,,,,0,30,30,30,,,,,,down,0.7505907525046496,2235.9319285277015,None,001,77 ,2019_Oct_30_1105,ACPT_experiment_5_30_19,3.1.0,59.952511772372056,
,,,C,D,d,v,R,G,g,R,c ,,,,,8,1,161,18,0,0,0,0,,,,,0,31,31,7,,,,,,up,0.5337583209466175,2237.98356247004,None,001,77 ,2019_Oct_30_1105,ACPT_experiment_5_30_19,3.1.0,59.952511772372056,
,,,C,D,d,v,L,D,y,L,y,,,,,8,1,161,18,0,0,0,0,,,,,0,32,32,32,,,,,,down,0.5668772889021056,2239.8186051720577,None,001,77 ,2019_Oct_30_1105,ACPT_experiment_5_30_19,3.1.0,59.952511772372056,
,,,C,D,d,v,R,D,y,L,y,,,,,8,1,161,18,0,0,0,0,,,,,0,33,33,26,,,,,,down,0.8339831510256772,2241.66986081545,None,001,77 ,2019_Oct_30_1105,ACPT_experiment_5_30_19,3.1.0,59.952511772372056,
,,,C,D,d,v,R,U,y,R,u,,,,,8,1,161,18,0,0,0,0,,,,,0,34,34,31,,,,,,down,0.6838665098566707,2243.8048847413793,None,001,77 ,2019_Oct_30_1105,ACPT_experiment_5_30_19,3.1.0,59.952511772372056,
,,,C,D,d,v,R,G,y,R,y,,,,,8,1,161,18,0,0,0,0,,,,,0,35,35,29,,,,,,down,0.5671154614756233,2245.773110286278,None,001,77 ,2019_Oct_30_1105,ACPT_experiment_5_30_19,3.1.0,59.952511772372056,
,,,C,D,d,v,R,G,y,L,y,,,,,8,1,161,18,0,0,0,0,,,,,1,0,36,28,,,,,,down,0.7005560982443058,2247.641276484247,None,001,77 ,2019_Oct_30_1105,ACPT_experiment_5_30_19,3.1.0,59.952511772372056,
,,,C,D,d,v,L,G,g,R,c ,,,,,8,1,161,18,0,0,0,0,,,,,1,1,37,19,,,,,,up,0.6838746602488754,2249.626189806335,None,001,77 ,2019_Oct_30_1105,ACPT_experiment_5_30_19,3.1.0,59.952511772372056,
,,,C,D,d,v,R,G,g,L,c ,,,,,8,1,161,18,0,0,0,0,,,,,1,2,38,6,,,,,,up,1.3010456047650223,2251.5777447804285,None,001,77 ,2019_Oct_30_1105,ACPT_experiment_5_30_19,3.1.0,59.952511772372056,
,,,C,D,d,v,L,D,g,R,i,,,,,8,1,161,18,0,0,0,0,,,,,1,3,39,15,,,,,,up,1.0508388262951485,2254.1631385530454,None,001,77 ,2019_Oct_30_1105,ACPT_experiment_5_30_19,3.1.0,59.952511772372056,
,,,C,D,d,v,R,U,y,L,u,,,,,8,1,161,18,0,0,0,0,,,,,1,4,40,30,,,,,,down,0.6672043913104062,2256.4983327919863,None,001,77 ,2019_Oct_30_1105,ACPT_experiment_5_30_19,3.1.0,59.952511772372056,
,,,C,D,d,v,L,G,y,L,y,,,,,8,1,161,18,0,0,0,0,,,,,1,5,41,34,,,,,,down,0.7674327834129144,2258.44989863327,None,001,77 ,2019_Oct_30_1105,ACPT_experiment_5_30_19,3.1.0,59.952511772372056,
,,,C,D,d,v,R,G,d,L,i,,,,,8,1,161,18,0,0,0,0,,,,,1,6,42,4,,,,,,up,1.184274331335473,2260.501538914803,None,001,77 ,2019_Oct_30_1105,ACPT_experiment_5_30_19,3.1.0,59.952511772372056,
,,,C,D,d,v,R,U,y,R,u,,,,,8,1,161,18,0,0,0,0,,,,,1,7,43,31,,,,,,down,1.067501850440749,2262.986853719175,None,001,77 ,2019_Oct_30_1105,ACPT_experiment_5_30_19,3.1.0,59.952511772372056,
,,,C,D,d,v,R,G,y,R,y,,,,,8,1,161,18,0,0,0,0,,,,,1,8,44,29,,,,,,down,0.8173162026168939,2265.3554099285057,None,001,77 ,2019_Oct_30_1105,ACPT_experiment_5_30_19,3.1.0,59.952511772372056,
,,,C,D,d,v,L,U,y,L,u,,,,,8,1,161,18,0,0,0,0,,,,,1,9,45,24,,,,,,down,0.7838962738824193,2267.4738420707554,None,001,77 ,2019_Oct_30_1105,ACPT_experiment_5_30_19,3.1.0,59.952511772372056,
,,,C,D,d,v,L,D,d,L,c ,,,,,8,1,161,18,0,0,0,0,,,,,1,10,46,12,,,,,,up,1.0675075859016943,2269.5587899867296,None,001,77 ,2019_Oct_30_1105,ACPT_experiment_5_30_19,3.1.0,59.952511772372056,
,,,C,D,d,v,L,U,y,R,u,,,,,8,1,161,18,0,0,0,0,,,,,1,11,47,25,,,,,,down,1.5345594743175752,2271.9106397031564,None,001,77 ,2019_Oct_30_1105,ACPT_experiment_5_30_19,3.1.0,59.952511772372056,
,,,C,D,d,v,R,G,d,R,i,,,,,8,1,161,18,0,0,0,0,,,,,1,12,48,5,,,,,,up,6.004798467967703,2274.729557005051,None,001,77 ,2019_Oct_30_1105,ACPT_experiment_5_30_19,3.1.0,59.952511772372056,
,,,C,D,d,v,L,G,d,L,i,,,,,8,1,161,18,0,0,0,0,,,,,1,13,49,16,,,,,,up,0.5838162189184004,2282.018704244603,None,001,77 ,2019_Oct_30_1105,ACPT_experiment_5_30_19,3.1.0,59.952511772372056,
,,,C,D,d,v,R,G,g,R,c ,,,,,8,1,161,18,0,0,0,0,,,,,1,14,50,7,,,,,,up,0.4670346820321356,2283.8868656127106,None,001,77 ,2019_Oct_30_1105,ACPT_experiment_5_30_19,3.1.0,59.952511772372056,
,,,C,D,d,v,L,D,y,R,y,,,,,8,1,161,18,0,0,0,0,,,,,1,15,51,33,,,,,,down,0.9007520698969529,2285.6382602353833,None,001,77 ,2019_Oct_30_1105,ACPT_experiment_5_30_19,3.1.0,59.952511772372056,
,,,C,D,d,v,R,U,d,R,u,,,,,8,1,161,18,0,0,0,0,,,,,1,16,52,9,,,,,,up,0.617127777623864,2287.8233625861976,None,001,77 ,2019_Oct_30_1105,ACPT_experiment_5_30_19,3.1.0,59.952511772372056,
,,,C,D,d,v,L,U,d,L,u,,,,,8,1,161,18,0,0,0,0,,,,,1,17,53,20,,,,,,up,0.5170756754860122,2289.708174903795,None,001,77 ,2019_Oct_30_1105,ACPT_experiment_5_30_19,3.1.0,59.952511772372056,
,,,C,D,d,v,L,D,d,R,c ,,,,,8,1,161,18,0,0,0,0,,,,,1,18,54,13,,,,,,up,0.5003966524227508,2291.5096138404524,None,001,77 ,2019_Oct_30_1105,ACPT_experiment_5_30_19,3.1.0,59.952511772372056,
,,,C,D,d,v,L,G,y,R,y,,,,,8,1,161,18,0,0,0,0,,,,,1,19,55,35,,,,,,down,0.833745280318908,2293.311324456852,None,001,77 ,2019_Oct_30_1105,ACPT_experiment_5_30_19,3.1.0,59.952511772372056,
,,,C,D,d,v,R,D,g,R,i,,,,,8,1,161,18,0,0,0,0,,,,,1,20,56,3,,,,,,up,0.8173195231474892,2295.429406434101,None,001,77 ,2019_Oct_30_1105,ACPT_experiment_5_30_19,3.1.0,59.952511772372056,
,,,C,D,d,v,L,D,g,L,i,,,,,8,1,161,18,0,0,0,0,,,,,1,21,57,14,,,,,,up,0.6170411419725497,2297.5310865016227,None,001,77 ,2019_Oct_30_1105,ACPT_experiment_5_30_19,3.1.0,59.952511772372056,
,,,C,D,d,v,R,D,g,L,i,,,,,8,1,161,18,0,0,0,0,,,,,1,22,58,2,,,,,,up,0.8840368228684383,2299.4326028971927,None,001,77 ,2019_Oct_30_1105,ACPT_experiment_5_30_19,3.1.0,59.952511772372056,
,,,C,D,d,v,L,U,g,L,u,,,,,8,1,161,18,0,0,0,0,,,,,1,23,59,22,,,,,,up,0.9174015100561519,2301.6009996607027,None,001,77 ,2019_Oct_30_1105,ACPT_experiment_5_30_19,3.1.0,59.952511772372056,
,,,C,D,d,v,L,U,g,R,u,,,,,8,1,161,18,0,0,0,0,,,,,1,24,60,23,,,,,,up,0.4336950497536236,2303.7860549203615,None,001,77 ,2019_Oct_30_1105,ACPT_experiment_5_30_19,3.1.0,59.952511772372056,
,,,C,D,d,v,L,D,y,L,y,,,,,8,1,161,18,0,0,0,0,,,,,1,25,61,32,,,,,,down,0.5838077666603567,2305.504113533153,None,001,77 ,2019_Oct_30_1105,ACPT_experiment_5_30_19,3.1.0,59.952511772372056,
,,,C,D,d,v,R,D,y,L,y,,,,,8,1,161,18,0,0,0,0,,,,,1,26,62,26,,,,,,down,0.6169614492482651,2307.4057944459,None,001,77 ,2019_Oct_30_1105,ACPT_experiment_5_30_19,3.1.0,59.952511772372056,
,,,C,D,d,v,R,U,g,R,u,,,,,8,1,161,18,0,0,0,0,,,,,1,27,63,11,,,,,,up,0.550434929079529,2309.3238319884185,None,001,77 ,2019_Oct_30_1105,ACPT_experiment_5_30_19,3.1.0,59.952511772372056,
,,,C,D,d,v,L,G,g,L,c ,,,,,8,1,161,18,0,0,0,0,,,,,1,28,64,18,,,,,,up,0.7172354231752252,2311.15862504694,None,001,77 ,2019_Oct_30_1105,ACPT_experiment_5_30_19,3.1.0,59.952511772372056,
,,,C,D,d,v,L,G,d,R,i,,,,,8,1,161,18,0,0,0,0,,,,,1,29,65,17,,,,,,up,0.5837981069353191,2313.143541991425,None,001,77 ,2019_Oct_30_1105,ACPT_experiment_5_30_19,3.1.0,59.952511772372056,
,,,C,D,d,v,R,D,d,R,c ,,,,,8,1,161,18,0,0,0,0,,,,,1,30,66,1,,,,,,up,1.1175404289642756,2315.028389325522,None,001,77 ,2019_Oct_30_1105,ACPT_experiment_5_30_19,3.1.0,59.952511772372056,
,,,C,D,d,v,L,U,d,R,u,,,,,8,1,161,18,0,0,0,0,,,,,1,31,67,21,,,,,,up,0.7172170093253953,2317.4303168631013,None,001,77 ,2019_Oct_30_1105,ACPT_experiment_5_30_19,3.1.0,59.952511772372056,
,,,C,D,d,v,R,D,y,R,y,,,,,8,1,161,18,0,0,0,0,,,,,1,32,68,27,,,,,,down,0.6004837710597712,2319.4318977373305,None,001,77 ,2019_Oct_30_1105,ACPT_experiment_5_30_19,3.1.0,59.952511772372056,
,,,C,D,d,v,R,U,d,L,u,,,,,8,1,161,18,0,0,0,0,,,,,1,33,69,8,,,,,,up,0.8173122783546205,2321.316738430367,None,001,77 ,2019_Oct_30_1105,ACPT_experiment_5_30_19,3.1.0,59.952511772372056,
,,,C,D,d,v,R,U,g,L,u,,,,,8,1,161,18,0,0,0,0,,,,,1,34,70,10,,,,,,up,0.5838307085050474,2323.401727098303,None,001,77 ,2019_Oct_30_1105,ACPT_experiment_5_30_19,3.1.0,59.952511772372056,
,,,C,D,d,v,R,D,d,L,c,,,,,8,1,161,18,0,0,0,0,,,,,1,35,71,0,,,,,,up,0.733888485729949,2325.269906276527,None,001,77 ,2019_Oct_30_1105,ACPT_experiment_5_30_19,3.1.0,59.952511772372056,
,,,C,D,d,v,,,,,,,,,,8,1,161,18,1,0,1,0,0,0,0,0,,,,,,,,,,,,,,001,77 ,2019_Oct_30_1105,ACPT_experiment_5_30_19,3.1.0,59.952511772372056,
,,,C,D,d,v,R,D,y,L,y,,,,,8,1,161,18,1,0,1,0,,,,,0,0,0,26,,,,,,down,0.6335722505109516,2331.4917859139487,None,001,77 ,2019_Oct_30_1105,ACPT_experiment_5_30_19,3.1.0,59.952511772372056,
,,,C,D,d,v,R,D,y,R,y,,,,,8,1,161,18,1,0,1,0,,,,,0,1,1,27,,,,,,down,0.4169942923108465,2333.4097187088328,None,001,77 ,2019_Oct_30_1105,ACPT_experiment_5_30_19,3.1.0,59.952511772372056,
,,,C,D,d,v,R,D,d,L,c,,,,,8,1,161,18,1,0,1,0,,,,,0,2,2,0,,,,,,up,0.5171091826541669,2335.0943733918066,None,001,77 ,2019_Oct_30_1105,ACPT_experiment_5_30_19,3.1.0,59.952511772372056,
,,,C,D,d,v,L,U,d,L,u,,,,,8,1,161,18,1,0,1,0,,,,,0,3,3,20,,,,,,up,0.583801125599166,2336.8958322516455,None,001,77 ,2019_Oct_30_1105,ACPT_experiment_5_30_19,3.1.0,59.952511772372056,
,,,C,D,d,v,R,U,d,R,u,,,,,8,1,161,18,1,0,1,0,,,,,0,4,4,9,,,,,,up,0.5168230133267571,2338.764256545369,None,001,77 ,2019_Oct_30_1105,ACPT_experiment_5_30_19,3.1.0,59.952511772372056,
,,,C,D,d,v,R,G,g,R,c ,,,,,8,1,161,18,1,0,1,0,,,,,0,5,5,7,,,,,,up,0.6338249126692972,2340.5654379900043,None,001,77 ,2019_Oct_30_1105,ACPT_experiment_5_30_19,3.1.0,59.952511772372056,
,,,C,D,d,v,R,U,y,L,u,,,,,8,1,161,18,1,0,1,0,,,,,0,6,6,30,,,,,,down,0.5170820146804544,2342.4836204283847,None,001,77 ,2019_Oct_30_1105,ACPT_experiment_5_30_19,3.1.0,59.952511772372056,
,,,C,D,d,v,R,G,y,L,y,,,,,8,1,161,18,1,0,1,0,,,,,0,7,7,28,,,,,,down,0.5004195942674414,2344.301725709718,None,001,77 ,2019_Oct_30_1105,ACPT_experiment_5_30_19,3.1.0,59.952511772372056,
,,,C,D,d,v,L,U,g,R,u,,,,,8,1,161,18,1,0,1,0,,,,,0,8,8,23,,,,,,up,0.46702834283860284,2346.11987113928,None,001,77 ,2019_Oct_30_1105,ACPT_experiment_5_30_19,3.1.0,59.952511772372056,
,,,C,D,d,v,R,U,d,L,u,,,,,8,1,161,18,1,0,1,0,,,,,0,9,9,8,,,,,,down,1.317703799048104,2347.871269082483,None,001,77 ,2019_Oct_30_1105,ACPT_experiment_5_30_19,3.1.0,59.952511772372056,
,,,C,D,d,v,L,D,d,R,c ,,,,,8,1,161,18,1,0,1,0,,,,,0,10,10,13,,,,,,up,0.5004108401426492,2350.473336746436,None,001,77 ,2019_Oct_30_1105,ACPT_experiment_5_30_19,3.1.0,59.952511772372056,
,,,C,D,d,v,L,G,g,L,c ,,,,,8,1,161,18,1,0,1,0,,,,,0,11,11,18,,,,,,up,0.517066015761884,2352.258089717103,None,001,77 ,2019_Oct_30_1105,ACPT_experiment_5_30_19,3.1.0,59.952511772372056,
,,,C,D,d,v,R,G,d,L,i,,,,,8,1,161,18,1,0,1,0,,,,,0,12,12,4,,,,,,up,0.4336811639004736,2354.0595262388297,None,001,77 ,2019_Oct_30_1105,ACPT_experiment_5_30_19,3.1.0,59.952511772372056,
,,,C,D,d,v,R,U,g,L,u,,,,,8,1,161,18,1,0,1,0,,,,,0,13,13,10,,,,,,up,0.3166499835178911,2355.7945153293786,None,001,77 ,2019_Oct_30_1105,ACPT_experiment_5_30_19,3.1.0,59.952511772372056,
,,,C,D,d,v,L,U,g,L,u,,,,,8,1,161,18,1,0,1,0,,,,,0,14,14,22,,,,,,up,0.35029812323682563,2357.3955228386067,None,001,77 ,2019_Oct_30_1105,ACPT_experiment_5_30_19,3.1.0,59.952511772372056,
,,,C,D,d,v,L,G,d,R,i,,,,,8,1,161,18,1,0,1,0,,,,,0,15,15,17,,,,,,up,1.0508572401449783,2359.0301449803846,None,001,77 ,2019_Oct_30_1105,ACPT_experiment_5_30_19,3.1.0,59.952511772372056,
,,,C,D,d,v,L,G,y,L,y,,,,,8,1,161,18,1,0,1,0,,,,,0,16,16,34,,,,,,down,0.9507577449858218,2361.365356727575,None,001,77 ,2019_Oct_30_1105,ACPT_experiment_5_30_19,3.1.0,59.952511772372056,
,,,C,D,d,v,L,G,g,R,c ,,,,,8,1,161,18,1,0,1,0,,,,,0,17,17,19,,,,,,up,0.5170720530895778,2363.6004783374647,None,001,77 ,2019_Oct_30_1105,ACPT_experiment_5_30_19,3.1.0,59.952511772372056,
,,,C,D,d,v,L,D,y,L,y,,,,,8,1,161,18,1,0,1,0,,,,,0,18,18,32,,,,,,down,0.6170245393213918,2365.418692894428,None,001,77 ,2019_Oct_30_1105,ACPT_experiment_5_30_19,3.1.0,59.952511772372056,
,,,C,D,d,v,L,D,y,R,y,,,,,8,1,161,18,1,0,1,0,,,,,0,19,19,33,,,,,,down,0.7172490071616267,2367.336793527019,None,001,77 ,2019_Oct_30_1105,ACPT_experiment_5_30_19,3.1.0,59.952511772372056,
,,,C,D,d,v,R,D,g,L,i,,,,,8,1,161,18,1,0,1,0,,,,,0,20,20,2,,,,,,down,0.5337903187828488,2369.3383894945673,None,001,77 ,2019_Oct_30_1105,ACPT_experiment_5_30_19,3.1.0,59.952511772372056,
,,,C,D,d,v,L,U,y,L,u,,,,,8,1,161,18,1,0,1,0,,,,,0,21,21,24,,,,,,down,0.6505090674618259,2371.1731885904173,None,001,77 ,2019_Oct_30_1105,ACPT_experiment_5_30_19,3.1.0,59.952511772372056,
,,,C,D,d,v,R,U,y,R,u,,,,,8,1,161,18,1,0,1,0,,,,,0,22,22,31,,,,,,down,0.7339404067470241,2373.1247194152,None,001,77 ,2019_Oct_30_1105,ACPT_experiment_5_30_19,3.1.0,59.952511772372056,
,,,C,D,d,v,R,G,y,R,y,,,,,8,1,161,18,1,0,1,0,,,,,0,23,23,29,,,,,,down,0.6169173767575558,2375.15993907129,None,001,77 ,2019_Oct_30_1105,ACPT_experiment_5_30_19,3.1.0,59.952511772372056,
,,,C,D,d,v,L,G,d,L,i,,,,,8,1,161,18,1,0,1,0,,,,,0,24,24,16,,,,,,down,0.8507032279167106,2377.0611907300454,None,001,77 ,2019_Oct_30_1105,ACPT_experiment_5_30_19,3.1.0,59.952511772372056,
,,,C,D,d,v,L,U,d,R,u,,,,,8,1,161,18,1,0,1,0,,,,,0,25,25,21,,,,,,up,0.5170777885514326,2379.1962523892726,None,001,77 ,2019_Oct_30_1105,ACPT_experiment_5_30_19,3.1.0,59.952511772372056,
,,,C,D,d,v,R,D,d,R,c ,,,,,8,1,161,18,1,0,1,0,,,,,0,26,26,1,,,,,,up,0.4169970091079449,2380.997691024064,None,001,77 ,2019_Oct_30_1105,ACPT_experiment_5_30_19,3.1.0,59.952511772372056,
,,,C,D,d,v,L,D,g,R,i,,,,,8,1,161,18,1,0,1,0,,,,,0,27,27,15,,,,,,up,0.4503562627014617,2382.699048577545,None,001,77 ,2019_Oct_30_1105,ACPT_experiment_5_30_19,3.1.0,59.952511772372056,
,,,C,D,d,v,R,D,g,R,i,,,,,8,1,161,18,1,0,1,0,,,,,0,28,28,3,,,,,,up,0.3669590343170057,2384.4170863615564,None,001,77 ,2019_Oct_30_1105,ACPT_experiment_5_30_19,3.1.0,59.952511772372056,
,,,C,D,d,v,L,D,d,L,c ,,,,,8,1,161,18,1,0,1,0,,,,,0,29,29,12,,,,,,up,0.917439545220077,2386.0683857152,None,001,77 ,2019_Oct_30_1105,ACPT_experiment_5_30_19,3.1.0,59.952511772372056,
,,,C,D,d,v,L,G,y,R,y,,,,,8,1,161,18,1,0,1,0,,,,,0,30,30,35,,,,,,down,1.8848467303641883,2388.2868319244226,None,001,77 ,2019_Oct_30_1105,ACPT_experiment_5_30_19,3.1.0,59.952511772372056,
,,,C,D,d,v,L,D,g,L,i,,,,,8,1,161,18,1,0,1,0,,,,,0,31,31,14,,,,,,up,0.9007134310013498,2391.4560382935615,None,001,77 ,2019_Oct_30_1105,ACPT_experiment_5_30_19,3.1.0,59.952511772372056,
,,,C,D,d,v,L,U,y,R,u,,,,,8,1,161,18,1,0,1,0,,,,,0,32,32,25,,,,,,down,0.8506715319472278,2393.657798234927,None,001,77 ,2019_Oct_30_1105,ACPT_experiment_5_30_19,3.1.0,59.952511772372056,
,,,C,D,d,v,R,G,g,L,c ,,,,,8,1,161,18,1,0,1,0,,,,,0,33,33,6,,,,,,up,0.5170922781371701,2395.8095126548424,None,001,77 ,2019_Oct_30_1105,ACPT_experiment_5_30_19,3.1.0,59.952511772372056,
,,,C,D,d,v,R,U,g,R,u,,,,,8,1,161,18,1,0,1,0,,,,,0,34,34,11,,,,,,up,0.7339228984974397,2397.6109485728366,None,001,77 ,2019_Oct_30_1105,ACPT_experiment_5_30_19,3.1.0,59.952511772372056,
,,,C,D,d,v,R,G,d,R,i,,,,,8,1,161,18,1,0,1,0,,,,,0,35,35,5,,,,,,up,0.7004552748740025,2399.629224167181,None,001,77 ,2019_Oct_30_1105,ACPT_experiment_5_30_19,3.1.0,59.952511772372056,
,,,C,D,d,v,L,G,g,L,c ,,,,,8,1,161,18,1,0,1,0,,,,,1,0,36,18,,,,,,up,1.2343249845143873,2401.614142620997,None,001,77 ,2019_Oct_30_1105,ACPT_experiment_5_30_19,3.1.0,59.952511772372056,
,,,C,D,d,v,R,G,y,R,y,,,,,8,1,161,18,1,0,1,0,,,,,1,1,37,29,,,,,,down,0.700577530757073,2404.132820603226,None,001,77 ,2019_Oct_30_1105,ACPT_experiment_5_30_19,3.1.0,59.952511772372056,
,,,C,D,d,v,L,G,y,L,y,,,,,8,1,161,18,1,0,1,0,,,,,1,2,38,34,,,,,,down,0.6171570586629969,2406.1177381514426,None,001,77 ,2019_Oct_30_1105,ACPT_experiment_5_30_19,3.1.0,59.952511772372056,
,,,C,D,d,v,L,D,g,R,i,,,,,8,1,161,18,1,0,1,0,,,,,1,3,39,15,,,,,,up,0.5171028434606342,2408.0192506227504,None,001,77 ,2019_Oct_30_1105,ACPT_experiment_5_30_19,3.1.0,59.952511772372056,
,,,C,D,d,v,R,U,g,R,u,,,,,8,1,161,18,1,0,1,0,,,,,1,4,40,11,,,,,,up,0.7339132387724021,2409.82068774821,None,001,77 ,2019_Oct_30_1105,ACPT_experiment_5_30_19,3.1.0,59.952511772372056,
,,,C,D,d,v,R,G,d,L,i,,,,,8,1,161,18,1,0,1,0,,,,,1,5,41,4,,,,,,up,0.8840374266019353,2411.838973304145,None,001,77 ,2019_Oct_30_1105,ACPT_experiment_5_30_19,3.1.0,59.952511772372056,
,,,C,D,d,v,L,D,y,R,y,,,,,8,1,161,18,1,0,1,0,,,,,1,6,42,33,,,,,,down,0.6505169159881916,2414.0240457701884,None,001,77 ,2019_Oct_30_1105,ACPT_experiment_5_30_19,3.1.0,59.952511772372056,
,,,C,D,d,v,L,D,d,R,c ,,,,,8,1,161,18,1,0,1,0,,,,,1,7,43,13,,,,,,up,0.633843628384966,2415.9756113096055,None,001,77 ,2019_Oct_30_1105,ACPT_experiment_5_30_19,3.1.0,59.952511772372056,
,,,C,D,d,v,L,D,d,L,c ,,,,,8,1,161,18,1,0,1,0,,,,,1,8,44,12,,,,,,up,0.6338403078561896,2417.89380250211,None,001,77 ,2019_Oct_30_1105,ACPT_experiment_5_30_19,3.1.0,59.952511772372056,
,,,C,D,d,v,R,U,g,L,u,,,,,8,1,161,18,1,0,1,0,,,,,1,9,45,10,,,,,,up,0.6338626459673833,2419.8119955058137,None,001,77 ,2019_Oct_30_1105,ACPT_experiment_5_30_19,3.1.0,59.952511772372056,
,,,C,D,d,v,L,U,g,R,u,,,,,8,1,161,18,1,0,1,0,,,,,1,10,46,23,,,,,,up,0.6002145062493582,2421.747151286977,None,001,77 ,2019_Oct_30_1105,ACPT_experiment_5_30_19,3.1.0,59.952511772372056,
,,,C,D,d,v,L,G,y,R,y,,,,,8,1,161,18,1,0,1,0,,,,,1,11,47,35,,,,,,down,0.6838794901113943,2423.6317118480138,None,001,77 ,2019_Oct_30_1105,ACPT_experiment_5_30_19,3.1.0,59.952511772372056,
,,,C,D,d,v,R,D,y,R,y,,,,,8,1,161,18,1,0,1,0,,,,,1,12,48,27,,,,,,down,0.6671844681295624,2425.5999657683524,None,001,77 ,2019_Oct_30_1105,ACPT_experiment_5_30_19,3.1.0,59.952511772372056,
,,,C,D,d,v,R,G,g,R,c ,,,,,8,1,161,18,1,0,1,0,,,,,1,13,49,7,,,,,,up,0.71723904557075,2427.551507762192,None,001,77 ,2019_Oct_30_1105,ACPT_experiment_5_30_19,3.1.0,59.952511772372056,
,,,C,D,d,v,L,D,g,L,i,,,,,8,1,161,18,1,0,1,0,,,,,1,14,50,14,,,,,,up,0.5671121409450279,2429.553108861469,None,001,77 ,2019_Oct_30_1105,ACPT_experiment_5_30_19,3.1.0,59.952511772372056,
,,,C,D,d,v,L,U,y,L,u,,,,,8,1,161,18,1,0,1,0,,,,,1,15,51,24,,,,,,down,0.7172499127600531,2431.4045824523864,None,001,77 ,2019_Oct_30_1105,ACPT_experiment_5_30_19,3.1.0,59.952511772372056,
,,,C,D,d,v,L,U,d,L,u,,,,,8,1,161,18,1,0,1,0,,,,,1,16,52,20,,,,,,up,2.902340490786628,2433.389480681156,None,001,77 ,2019_Oct_30_1105,ACPT_experiment_5_30_19,3.1.0,59.952511772372056,
,,,C,D,d,v,R,U,y,L,u,,,,,8,1,161,18,1,0,1,0,,,,,1,17,53,30,,,,,,down,0.7172372343729876,2437.5928510796557,None,001,77 ,2019_Oct_30_1105,ACPT_experiment_5_30_19,3.1.0,59.952511772372056,
,,,C,D,d,v,R,D,g,R,i,,,,,8,1,161,18,1,0,1,0,,,,,1,18,54,3,,,,,,up,1.701401324105973,2439.611109467616,None,001,77 ,2019_Oct_30_1105,ACPT_experiment_5_30_19,3.1.0,59.952511772372056,
,,,C,D,d,v,L,U,g,L,u,,,,,8,1,161,18,1,0,1,0,,,,,1,19,55,22,,,,,,up,0.7839626844861414,2442.5801799365117,None,001,77 ,2019_Oct_30_1105,ACPT_experiment_5_30_19,3.1.0,59.952511772372056,
,,,C,D,d,v,R,G,g,L,c ,,,,,8,1,161,18,1,0,1,0,,,,,1,20,56,6,,,,,,up,1.5846010715049488,2444.6484829403234,None,001,77 ,2019_Oct_30_1105,ACPT_experiment_5_30_19,3.1.0,59.952511772372056,
,,,C,D,d,v,L,U,d,R,u,,,,,8,1,161,18,1,0,1,0,,,,,1,21,57,21,,,,,,up,0.5504382496101243,2447.5174388207406,None,001,77 ,2019_Oct_30_1105,ACPT_experiment_5_30_19,3.1.0,59.952511772372056,
,,,C,D,d,v,L,U,y,R,u,,,,,8,1,161,18,1,0,1,0,,,,,1,22,58,25,,,,,,down,0.6672010707807203,2449.352237614725,None,001,77 ,2019_Oct_30_1105,ACPT_experiment_5_30_19,3.1.0,59.952511772372056,
,,,C,D,d,v,L,G,d,L,i,,,,,8,1,161,18,1,0,1,0,,,,,1,23,59,16,,,,,,up,2.2518051609486065,2451.3037953056155,None,001,77 ,2019_Oct_30_1105,ACPT_experiment_5_30_19,3.1.0,59.952511772372056,
,,,C,D,d,v,R,G,d,R,i,,,,,8,1,161,18,1,0,1,0,,,,,1,24,60,5,,,,,,up,0.8506845122019513,2454.8399504456156,None,001,77 ,2019_Oct_30_1105,ACPT_experiment_5_30_19,3.1.0,59.952511772372056,
,,,C,D,d,v,R,D,d,L,c,,,,,8,1,161,18,1,0,1,0,,,,,1,25,61,0,,,,,,up,1.7680962857148188,2456.974969541682,None,001,77 ,2019_Oct_30_1105,ACPT_experiment_5_30_19,3.1.0,59.952511772372056,
,,,C,D,d,v,R,D,g,L,i,,,,,8,1,161,18,1,0,1,0,,,,,1,26,62,2,,,,,,up,0.5337782441283707,2460.0274272773704,None,001,77 ,2019_Oct_30_1105,ACPT_experiment_5_30_19,3.1.0,59.952511772372056,
,,,C,D,d,v,R,U,d,R,u,,,,,8,1,161,18,1,0,1,0,,,,,1,27,63,9,,,,,,up,0.5671371958542295,2461.845537690432,None,001,77 ,2019_Oct_30_1105,ACPT_experiment_5_30_19,3.1.0,59.952511772372056,
,,,C,D,d,v,R,G,y,L,y,,,,,8,1,161,18,1,0,1,0,,,,,1,28,64,28,,,,,,down,0.6004958457142493,2463.7137044921337,None,001,77 ,2019_Oct_30_1105,ACPT_experiment_5_30_19,3.1.0,59.952511772372056,
,,,C,D,d,v,R,U,y,R,u,,,,,8,1,161,18,1,0,1,0,,,,,1,29,65,31,,,,,,down,0.8006380851529684,2465.6152154541096,None,001,77 ,2019_Oct_30_1105,ACPT_experiment_5_30_19,3.1.0,59.952511772372056,
,,,C,D,d,v,L,G,g,R,c ,,,,,8,1,161,18,1,0,1,0,,,,,1,30,66,19,,,,,,up,0.7339222947639428,2467.700213479904,None,001,77 ,2019_Oct_30_1105,ACPT_experiment_5_30_19,3.1.0,59.952511772372056,
,,,C,D,d,v,L,D,y,L,y,,,,,8,1,161,18,1,0,1,0,,,,,1,31,67,32,,,,,,down,0.6671998633146359,2469.718489376115,None,001,77 ,2019_Oct_30_1105,ACPT_experiment_5_30_19,3.1.0,59.952511772372056,
,,,C,D,d,v,R,D,y,L,y,,,,,8,1,161,18,1,0,1,0,,,,,1,32,68,26,,,,,,down,0.6338436283858755,2471.653371666339,None,001,77 ,2019_Oct_30_1105,ACPT_experiment_5_30_19,3.1.0,59.952511772372056,
,,,C,D,d,v,L,G,d,R,i,,,,,8,1,161,18,1,0,1,0,,,,,1,33,69,17,,,,,,up,0.7172417623687579,2473.571565575641,None,001,77 ,2019_Oct_30_1105,ACPT_experiment_5_30_19,3.1.0,59.952511772372056,
,,,C,D,d,v,R,U,d,L,u,,,,,8,1,161,18,1,0,1,0,,,,,1,34,70,8,,,,,,up,0.9175750832246194,2475.573162146922,None,001,77 ,2019_Oct_30_1105,ACPT_experiment_5_30_19,3.1.0,59.952511772372056,
,,,C,D,d,v,R,D,d,R,c ,,,,,8,1,161,18,1,0,1,0,,,,,1,35,71,1,,,,,,up,0.8173195231483987,2477.7582394428273,None,001,77 ,2019_Oct_30_1105,ACPT_experiment_5_30_19,3.1.0,59.952511772372056,
,,,C,D,d,v,,,,,,,,,,8,1,161,18,2,0,2,0,0,0,0,0,,,,,,,,,,,,,,001,77 ,2019_Oct_30_1105,ACPT_experiment_5_30_19,3.1.0,59.952511772372056,
,,,C,D,d,v,R,U,y,R,u,,,,,8,1,161,18,2,0,2,0,,,,,0,0,0,31,,,,,,down,0.7669905491675308,2483.9634838278107,None,001,77 ,2019_Oct_30_1105,ACPT_experiment_5_30_19,3.1.0,59.952511772372056,
,,,C,D,d,v,R,G,y,L,y,,,,,8,1,161,18,2,0,2,0,,,,,0,1,1,28,,,,,,down,0.6004810542617633,2486.0148273746927,None,001,77 ,2019_Oct_30_1105,ACPT_experiment_5_30_19,3.1.0,59.952511772372056,
,,,C,D,d,v,R,G,d,R,i,,,,,8,1,161,18,2,0,2,0,,,,,0,2,2,5,,,,,,up,0.5170983154648638,2487.8829642916226,None,001,77 ,2019_Oct_30_1105,ACPT_experiment_5_30_19,3.1.0,59.952511772372056,
,,,C,D,d,v,L,D,g,R,i,,,,,8,1,161,18,2,0,2,0,,,,,0,3,3,15,,,,,,up,0.917399396991641,2489.684446395172,None,001,77 ,2019_Oct_30_1105,ACPT_experiment_5_30_19,3.1.0,59.952511772372056,
,,,C,D,d,v,L,U,y,R,u,,,,,8,1,161,18,2,0,2,0,,,,,0,4,4,25,,,,,,down,0.6171564549304094,2491.88617947043,None,001,77 ,2019_Oct_30_1105,ACPT_experiment_5_30_19,3.1.0,59.952511772372056,
,,,C,D,d,v,L,G,y,L,y,,,,,8,1,161,18,2,0,2,0,,,,,0,5,5,34,,,,,,down,0.6338544955751786,2493.804360701344,None,001,77 ,2019_Oct_30_1105,ACPT_experiment_5_30_19,3.1.0,59.952511772372056,
,,,C,D,d,v,R,U,y,L,u,,,,,8,1,161,18,2,0,2,0,,,,,0,6,6,30,,,,,,down,0.5504174208290351,2495.7225923439446,None,001,77 ,2019_Oct_30_1105,ACPT_experiment_5_30_19,3.1.0,59.952511772372056,
,,,C,D,d,v,L,G,d,R,i,,,,,8,1,161,18,2,0,2,0,,,,,0,7,7,17,,,,,,up,0.6171606810585217,2497.5740586900693,None,001,77 ,2019_Oct_30_1105,ACPT_experiment_5_30_19,3.1.0,59.952511772372056,
,,,C,D,d,v,R,G,g,R,c ,,,,,8,1,161,18,2,0,2,0,,,,,0,8,8,7,,,,,,up,0.7005971520711682,2499.475565727782,None,001,77 ,2019_Oct_30_1105,ACPT_experiment_5_30_19,3.1.0,59.952511772372056,
,,,C,D,d,v,R,G,y,R,y,,,,,8,1,161,18,2,0,2,0,,,,,0,9,9,29,,,,,,down,0.5171031453264732,2501.46046486215,None,001,77 ,2019_Oct_30_1105,ACPT_experiment_5_30_19,3.1.0,59.952511772372056,
,,,C,D,d,v,L,U,g,L,u,,,,,8,1,161,18,2,0,2,0,,,,,0,10,10,22,,,,,,up,0.7003170200714521,2503.2788490680177,None,001,77 ,2019_Oct_30_1105,ACPT_experiment_5_30_19,3.1.0,59.952511772372056,
,,,C,D,d,v,L,G,d,L,i,,,,,8,1,161,18,2,0,2,0,,,,,0,11,11,16,,,,,,up,0.6338557030403535,2505.263525726864,None,001,77 ,2019_Oct_30_1105,ACPT_experiment_5_30_19,3.1.0,59.952511772372056,
,,,C,D,d,v,R,D,y,R,y,,,,,8,1,161,18,2,0,2,0,,,,,0,12,12,27,,,,,,down,1.3342850174058185,2507.198556837213,None,001,77 ,2019_Oct_30_1105,ACPT_experiment_5_30_19,3.1.0,59.952511772372056,
,,,C,D,d,v,R,D,g,L,i,,,,,8,1,161,18,2,0,2,0,,,,,0,13,13,2,,,,,,up,0.6171558511969124,2509.83383946263,None,001,77 ,2019_Oct_30_1105,ACPT_experiment_5_30_19,3.1.0,59.952511772372056,
,,,C,D,d,v,R,U,d,L,u,,,,,8,1,161,18,2,0,2,0,,,,,0,14,14,8,,,,,,up,0.43367301350735943,2511.7353534432696,None,001,77 ,2019_Oct_30_1105,ACPT_experiment_5_30_19,3.1.0,59.952511772372056,
,,,C,D,d,v,R,U,g,L,u,,,,,8,1,161,18,2,0,2,0,,,,,0,15,15,10,,,,,,up,0.7506191279444465,2513.43669107357,None,001,77 ,2019_Oct_30_1105,ACPT_experiment_5_30_19,3.1.0,59.952511772372056,
,,,C,D,d,v,R,D,d,R,c ,,,,,8,1,161,18,2,0,2,0,,,,,0,16,16,1,,,,,,up,0.9507981950800968,2515.471671349621,None,001,77 ,2019_Oct_30_1105,ACPT_experiment_5_30_19,3.1.0,59.952511772372056,
,,,C,D,d,v,R,G,g,L,c ,,,,,8,1,161,18,2,0,2,0,,,,,0,17,17,6,,,,,,up,0.6505172178540306,2517.706786620316,None,001,77 ,2019_Oct_30_1105,ACPT_experiment_5_30_19,3.1.0,59.952511772372056,
,,,C,D,d,v,R,D,g,R,i,,,,,8,1,161,18,2,0,2,0,,,,,0,18,18,3,,,,,,up,0.8337081507543189,2519.6586295749357,None,001,77 ,2019_Oct_30_1105,ACPT_experiment_5_30_19,3.1.0,59.952511772372056,
,,,C,D,d,v,R,D,d,L,c,,,,,8,1,161,18,2,0,2,0,,,,,0,19,19,0,,,,,,up,1.8515086074185092,2521.760000531285,None,001,77 ,2019_Oct_30_1105,ACPT_experiment_5_30_19,3.1.0,59.952511772372056,
,,,C,D,d,v,L,U,y,L,u,,,,,8,1,161,18,2,0,2,0,,,,,0,20,20,24,,,,,,down,1.467844891394634,2524.8958573065547,None,001,77 ,2019_Oct_30_1105,ACPT_experiment_5_30_19,3.1.0,59.952511772372056,
,,,C,D,d,v,R,U,g,R,u,,,,,8,1,161,18,2,0,2,0,,,,,0,21,21,11,,,,,,up,4.486915903649788,2527.6480588180602,None,001,77 ,2019_Oct_30_1105,ACPT_experiment_5_30_19,3.1.0,59.952511772372056,
,,,C,D,d,v,R,D,y,L,y,,,,,8,1,161,18,2,0,2,0,,,,,0,22,22,26,,,,,,down,0.7505958842330074,2533.4193268138242,None,001,77 ,2019_Oct_30_1105,ACPT_experiment_5_30_19,3.1.0,59.952511772372056,
,,,C,D,d,v,L,D,d,R,c ,,,,,8,1,161,18,2,0,2,0,,,,,0,23,23,13,,,,,,up,0.8340217899230993,2535.4542802237675,None,001,77 ,2019_Oct_30_1105,ACPT_experiment_5_30_19,3.1.0,59.952511772372056,
,,,C,D,d,v,L,D,y,L,y,,,,,8,1,161,18,2,0,2,0,,,,,0,24,24,32,,,,,,down,0.7005814550193463,2537.555971460345,None,001,77 ,2019_Oct_30_1105,ACPT_experiment_5_30_19,3.1.0,59.952511772372056,
,,,C,D,d,v,L,G,g,R,c ,,,,,8,1,161,18,2,0,2,0,,,,,0,25,25,19,,,,,,up,5.137440064430848,2539.5408739152435,None,001,77 ,2019_Oct_30_1105,ACPT_experiment_5_30_19,3.1.0,59.952511772372056,
,,,C,D,d,v,L,G,g,L,c ,,,,,8,1,161,18,2,0,2,0,,,,,0,26,26,18,,,,,,up,0.6505449895612401,2545.945968031143,None,001,77 ,2019_Oct_30_1105,ACPT_experiment_5_30_19,3.1.0,59.952511772372056,
,,,C,D,d,v,R,G,d,L,i,,,,,8,1,161,18,2,0,2,0,,,,,0,27,27,4,,,,,,up,0.5837848248147566,2547.8808774893414,None,001,77 ,2019_Oct_30_1105,ACPT_experiment_5_30_19,3.1.0,59.952511772372056,
,,,C,D,d,v,L,U,d,L,u,,,,,8,1,161,18,2,0,2,0,,,,,0,28,28,20,,,,,,up,0.3836419816443595,2549.7323387037377,None,001,77 ,2019_Oct_30_1105,ACPT_experiment_5_30_19,3.1.0,59.952511772372056,
,,,C,D,d,v,L,D,y,R,y,,,,,8,1,161,18,2,0,2,0,,,,,0,29,29,33,,,,,,down,0.9338257578956473,2551.417273518711,None,001,77 ,2019_Oct_30_1105,ACPT_experiment_5_30_19,3.1.0,59.952511772372056,
,,,C,D,d,v,L,U,g,R,u,,,,,8,1,161,18,2,0,2,0,,,,,0,30,30,23,,,,,,up,0.6671723934741749,2553.6354782348308,None,001,77 ,2019_Oct_30_1105,ACPT_experiment_5_30_19,3.1.0,59.952511772372056,
,,,C,D,d,v,L,D,g,L,i,,,,,8,1,161,18,2,0,2,0,,,,,0,31,31,14,,,,,,up,0.467064264938017,2555.587014191342,None,001,77 ,2019_Oct_30_1105,ACPT_experiment_5_30_19,3.1.0,59.952511772372056,
,,,C,D,d,v,L,D,d,L,c ,,,,,8,1,161,18,2,0,2,0,,,,,0,32,32,12,,,,,,up,0.45038916613702895,2557.32171077337,None,001,77 ,2019_Oct_30_1105,ACPT_experiment_5_30_19,3.1.0,59.952511772372056,
,,,C,D,d,v,R,U,d,R,u,,,,,8,1,161,18,2,0,2,0,,,,,0,33,33,9,,,,,,up,0.4503632056275819,2559.0564487110914,None,001,77 ,2019_Oct_30_1105,ACPT_experiment_5_30_19,3.1.0,59.952511772372056,
,,,C,D,d,v,L,U,d,R,u,,,,,8,1,161,18,2,0,2,0,,,,,0,34,34,21,,,,,,up,0.5838020311985019,2560.7911667256312,None,001,77 ,2019_Oct_30_1105,ACPT_experiment_5_30_19,3.1.0,59.952511772372056,
,,,C,D,d,v,L,G,y,R,y,,,,,8,1,161,18,2,0,2,0,,,,,0,35,35,35,,,,,,down,0.8840401433990337,2562.6593241694754,None,001,77 ,2019_Oct_30_1105,ACPT_experiment_5_30_19,3.1.0,59.952511772372056,
,,,C,D,d,v,L,U,g,L,u,,,,,8,1,161,18,2,0,2,0,,,,,1,0,36,22,,,,,,up,0.5003972561553383,2564.827731498308,None,001,77 ,2019_Oct_30_1105,ACPT_experiment_5_30_19,3.1.0,59.952511772372056,
,,,C,D,d,v,R,G,d,R,i,,,,,8,1,161,18,2,0,2,0,,,,,1,1,37,5,,,,,,up,0.6672028819784828,2566.6124763185826,None,001,77 ,2019_Oct_30_1105,ACPT_experiment_5_30_19,3.1.0,59.952511772372056,
,,,C,D,d,v,L,U,d,R,u,,,,,8,1,161,18,2,0,2,0,,,,,1,2,38,21,,,,,,up,0.48371793122532836,2568.564038839336,None,001,77 ,2019_Oct_30_1105,ACPT_experiment_5_30_19,3.1.0,59.952511772372056,
,,,C,D,d,v,R,G,g,L,c ,,,,,8,1,161,18,2,0,2,0,,,,,1,3,39,6,,,,,,up,0.40011422623774706,2570.349063791611,None,001,77 ,2019_Oct_30_1105,ACPT_experiment_5_30_19,3.1.0,59.952511772372056,
,,,C,D,d,v,L,U,g,R,u,,,,,8,1,161,18,2,0,2,0,,,,,1,4,40,23,,,,,,up,0.4503580738992241,2572.03347124602,None,001,77 ,2019_Oct_30_1105,ACPT_experiment_5_30_19,3.1.0,59.952511772372056,
,,,C,D,d,v,R,U,d,L,u,,,,,8,1,161,18,2,0,2,0,,,,,1,5,41,8,,,,,,up,0.4336793527018017,2573.768187449362,None,001,77 ,2019_Oct_30_1105,ACPT_experiment_5_30_19,3.1.0,59.952511772372056,
,,,C,D,d,v,R,U,y,R,u,,,,,8,1,161,18,2,0,2,0,,,,,1,6,42,31,,,,,,down,0.8172971850362956,2575.4695552663006,None,001,77 ,2019_Oct_30_1105,ACPT_experiment_5_30_19,3.1.0,59.952511772372056,
,,,C,D,d,v,L,U,y,L,u,,,,,8,1,161,18,2,0,2,0,,,,,1,7,43,24,,,,,,down,0.934006877723732,2577.604656168157,None,001,77 ,2019_Oct_30_1105,ACPT_experiment_5_30_19,3.1.0,59.952511772372056,
,,,C,D,d,v,R,G,g,R,c ,,,,,8,1,161,18,2,0,2,0,,,,,1,8,44,7,,,,,,up,0.66719654278495,2579.839701405852,None,001,77 ,2019_Oct_30_1105,ACPT_experiment_5_30_19,3.1.0,59.952511772372056,
,,,C,D,d,v,L,G,y,L,y,,,,,8,1,161,18,2,0,2,0,,,,,1,9,45,34,,,,,,down,0.7506390511252903,2581.791260002343,None,001,77 ,2019_Oct_30_1105,ACPT_experiment_5_30_19,3.1.0,59.952511772372056,
,,,C,D,d,v,R,D,g,L,i,,,,,8,1,161,18,2,0,2,0,,,,,1,10,46,2,,,,,,up,0.817324353010008,2583.8262173365483,None,001,77 ,2019_Oct_30_1105,ACPT_experiment_5_30_19,3.1.0,59.952511772372056,
,,,C,D,d,v,R,G,d,L,i,,,,,8,1,161,18,2,0,2,0,,,,,1,11,47,4,,,,,,up,0.45034931977443193,2585.927898309669,None,001,77 ,2019_Oct_30_1105,ACPT_experiment_5_30_19,3.1.0,59.952511772372056,
,,,C,D,d,v,L,D,y,R,y,,,,,8,1,161,18,2,0,2,0,,,,,1,12,48,33,,,,,,down,0.9341240018793542,2587.662614814877,None,001,77 ,2019_Oct_30_1105,ACPT_experiment_5_30_19,3.1.0,59.952511772372056,
,,,C,D,d,v,L,D,g,R,i,,,,,8,1,161,18,2,0,2,0,,,,,1,13,49,15,,,,,,up,0.7172435735665204,2589.881049855044,None,001,77 ,2019_Oct_30_1105,ACPT_experiment_5_30_19,3.1.0,59.952511772372056,
,,,C,D,d,v,L,D,d,L,c ,,,,,8,1,161,18,2,0,2,0,,,,,1,14,50,12,,,,,,up,1.0842228329311183,2591.8659480838123,None,001,77 ,2019_Oct_30_1105,ACPT_experiment_5_30_19,3.1.0,59.952511772372056,
,,,C,D,d,v,R,D,d,R,c ,,,,,8,1,161,18,2,0,2,0,,,,,1,15,51,1,,,,,,up,0.633817667877338,2594.234541724575,None,001,77 ,2019_Oct_30_1105,ACPT_experiment_5_30_19,3.1.0,59.952511772372056,
,,,C,D,d,v,L,G,g,R,c ,,,,,8,1,161,18,2,0,2,0,,,,,1,16,52,19,,,,,,up,0.6171655109210405,2596.1527190312263,None,001,77 ,2019_Oct_30_1105,ACPT_experiment_5_30_19,3.1.0,59.952511772372056,
,,,C,D,d,v,L,G,d,R,i,,,,,8,1,161,18,2,0,2,0,,,,,1,17,53,17,,,,,,up,0.5004023878836961,2598.0542318044,None,001,77 ,2019_Oct_30_1105,ACPT_experiment_5_30_19,3.1.0,59.952511772372056,
,,,C,D,d,v,L,U,y,R,u,,,,,8,1,161,18,2,0,2,0,,,,,1,18,54,25,,,,,,down,0.934103173098265,2599.8389754172094,None,001,77 ,2019_Oct_30_1105,ACPT_experiment_5_30_19,3.1.0,59.952511772372056,
,,,C,D,d,v,L,G,d,L,i,,,,,8,1,161,18,2,0,2,0,,,,,1,19,55,16,,,,,,up,0.7673035846028142,2602.057408042445,None,001,77 ,2019_Oct_30_1105,ACPT_experiment_5_30_19,3.1.0,59.952511772372056,
,,,C,D,d,v,R,D,y,R,y,,,,,8,1,161,18,2,0,2,0,,,,,1,20,56,27,,,,,,down,0.8006643475282544,2604.109049531443,None,001,77 ,2019_Oct_30_1105,ACPT_experiment_5_30_19,3.1.0,59.952511772372056,
,,,C,D,d,v,L,U,d,L,u,,,,,8,1,161,18,2,0,2,0,,,,,1,21,57,20,,,,,,up,0.7839605714216304,2606.1940659710863,None,001,77 ,2019_Oct_30_1105,ACPT_experiment_5_30_19,3.1.0,59.952511772372056,
,,,C,D,d,v,R,U,g,R,u,,,,,8,1,161,18,2,0,2,0,,,,,1,22,58,11,,,,,,up,0.7505850170437043,2608.2623994634023,None,001,77 ,2019_Oct_30_1105,ACPT_experiment_5_30_19,3.1.0,59.952511772372056,
,,,C,D,d,v,R,G,y,R,y,,,,,8,1,161,18,2,0,2,0,,,,,1,23,59,29,,,,,,down,1.2343512468896733,2610.297322384841,None,001,77 ,2019_Oct_30_1105,ACPT_experiment_5_30_19,3.1.0,59.952511772372056,
,,,C,D,d,v,L,D,d,R,c ,,,,,8,1,161,18,2,0,2,0,,,,,1,24,60,13,,,,,,up,0.583799012534655,2612.816018479052,None,001,77 ,2019_Oct_30_1105,ACPT_experiment_5_30_19,3.1.0,59.952511772372056,
,,,C,D,d,v,R,D,d,L,c,,,,,8,1,161,18,2,0,2,0,,,,,1,25,61,0,,,,,,up,0.6171597754600953,2614.684176526629,None,001,77 ,2019_Oct_30_1105,ACPT_experiment_5_30_19,3.1.0,59.952511772372056,
,,,C,D,d,v,R,D,y,L,y,,,,,8,1,161,18,2,0,2,0,,,,,1,26,62,26,,,,,,down,0.7005847755508512,2616.5689864292954,None,001,77 ,2019_Oct_30_1105,ACPT_experiment_5_30_19,3.1.0,59.952511772372056,
,,,C,D,d,v,R,D,g,R,i,,,,,8,1,161,18,2,0,2,0,,,,,1,27,63,3,,,,,,up,0.5671136502769514,2618.5539317492194,None,001,77 ,2019_Oct_30_1105,ACPT_experiment_5_30_19,3.1.0,59.952511772372056,
,,,C,D,d,v,R,U,g,L,u,,,,,8,1,161,18,2,0,2,0,,,,,1,28,64,10,,,,,,up,0.45034418804516463,2620.4054412622363,None,001,77 ,2019_Oct_30_1105,ACPT_experiment_5_30_19,3.1.0,59.952511772372056,
,,,C,D,d,v,L,G,g,L,c ,,,,,8,1,161,18,2,0,2,0,,,,,1,29,65,18,,,,,,up,0.3834098463976261,2622.157050813771,None,001,77 ,2019_Oct_30_1105,ACPT_experiment_5_30_19,3.1.0,59.952511772372056,
,,,C,D,d,v,R,U,d,R,u,,,,,8,1,161,18,2,0,2,0,,,,,1,30,66,9,,,,,,up,0.5003978598879257,2623.824802790695,None,001,77 ,2019_Oct_30_1105,ACPT_experiment_5_30_19,3.1.0,59.952511772372056,
,,,C,D,d,v,L,D,g,L,i,,,,,8,1,161,18,2,0,2,0,,,,,1,31,67,14,,,,,,up,0.9841109612507353,2625.6095717602793,None,001,77 ,2019_Oct_30_1105,ACPT_experiment_5_30_19,3.1.0,59.952511772372056,
,,,C,D,d,v,L,D,y,L,y,,,,,8,1,161,18,2,0,2,0,,,,,1,32,68,32,,,,,,down,1.7013759673309323,2627.878020625926,None,001,77 ,2019_Oct_30_1105,ACPT_experiment_5_30_19,3.1.0,59.952511772372056,
,,,C,D,d,v,R,G,y,L,y,,,,,8,1,161,18,2,0,2,0,,,,,1,33,69,28,,,,,,down,0.7338676569488598,2630.863805436251,None,001,77 ,2019_Oct_30_1105,ACPT_experiment_5_30_19,3.1.0,59.952511772372056,
,,,C,D,d,v,R,U,y,L,u,,,,,8,1,161,18,2,0,2,0,,,,,1,34,70,30,,,,,,down,0.6672025801126438,2632.8987105475735,None,001,77 ,2019_Oct_30_1105,ACPT_experiment_5_30_19,3.1.0,59.952511772372056,
,,,C,D,d,v,L,G,y,R,y,,,,,8,1,161,18,2,0,2,0,,,,,1,35,71,35,,,,,,down,0.6839111860808771,2634.850236240629,None,001,77 ,2019_Oct_30_1105,ACPT_experiment_5_30_19,3.1.0,59.952511772372056,
,,,C,D,d,v,,,,,,,,,,8,1,161,18,3,0,3,0,0,0,0,0,,,,,,,,,,,,,,001,77 ,2019_Oct_30_1105,ACPT_experiment_5_30_19,3.1.0,59.952511772372056,
,,,C,D,d,v,R,G,d,L,i,,,,,8,1,161,18,3,0,3,0,,,,,0,0,0,4,,,,,,up,1.4174449788142738,2800.4494482486316,None,001,77 ,2019_Oct_30_1105,ACPT_experiment_5_30_19,3.1.0,59.952511772372056,
,,,C,D,d,v,R,U,y,R,u,,,,,8,1,161,18,3,0,3,0,,,,,0,1,1,31,,,,,,down,0.7339328600864974,2803.151238074769,None,001,77 ,2019_Oct_30_1105,ACPT_experiment_5_30_19,3.1.0,59.952511772372056,
,,,C,D,d,v,L,D,g,L,i,,,,,8,1,161,18,3,0,3,0,,,,,0,2,2,14,,,,,,up,0.6338339686617473,2805.169537818424,None,001,77 ,2019_Oct_30_1105,ACPT_experiment_5_30_19,3.1.0,59.952511772372056,
,,,C,D,d,v,R,G,g,L,c ,,,,,8,1,161,18,3,0,3,0,,,,,0,3,3,6,,,,,,up,0.5337553022827706,2807.0877359538554,None,001,77 ,2019_Oct_30_1105,ACPT_experiment_5_30_19,3.1.0,59.952511772372056,
,,,C,D,d,v,R,D,g,R,i,,,,,8,1,161,18,3,0,3,0,,,,,0,4,4,3,,,,,,up,0.6502395007855739,2808.9228064275803,None,001,77 ,2019_Oct_30_1105,ACPT_experiment_5_30_19,3.1.0,59.952511772372056,
,,,C,D,d,v,R,G,y,L,y,,,,,8,1,161,18,3,0,3,0,,,,,0,5,5,28,,,,,,down,0.6004822617278478,2810.8574028503435,None,001,77 ,2019_Oct_30_1105,ACPT_experiment_5_30_19,3.1.0,59.952511772372056,
,,,C,D,d,v,L,D,g,R,i,,,,,8,1,161,18,3,0,3,0,,,,,0,6,6,15,,,,,,up,0.5838234637112691,2812.7422187903367,None,001,77 ,2019_Oct_30_1105,ACPT_experiment_5_30_19,3.1.0,59.952511772372056,
,,,C,D,d,v,L,U,y,L,u,,,,,8,1,161,18,3,0,3,0,,,,,0,7,7,24,,,,,,down,0.6169632604460276,2814.6272418106673,None,001,77 ,2019_Oct_30_1105,ACPT_experiment_5_30_19,3.1.0,59.952511772372056,
,,,C,D,d,v,L,G,y,L,y,,,,,8,1,161,18,3,0,3,0,,,,,0,8,8,34,,,,,,down,0.7339216910313553,2816.5286021413194,None,001,77 ,2019_Oct_30_1105,ACPT_experiment_5_30_19,3.1.0,59.952511772372056,
,,,C,D,d,v,R,D,d,L,c,,,,,8,1,161,18,3,0,3,0,,,,,0,9,9,0,,,,,,up,0.7338987491866646,2818.5635766819087,None,001,77 ,2019_Oct_30_1105,ACPT_experiment_5_30_19,3.1.0,59.952511772372056,
,,,C,D,d,v,R,D,d,R,c ,,,,,8,1,161,18,3,0,3,0,,,,,0,10,10,1,,,,,,up,0.8506766636764951,2820.565153330009,None,001,77 ,2019_Oct_30_1105,ACPT_experiment_5_30_19,3.1.0,59.952511772372056,
,,,C,D,d,v,L,G,d,R,i,,,,,8,1,161,18,3,0,3,0,,,,,0,11,11,17,,,,,,up,1.6511973228070929,2822.700192651124,None,001,77 ,2019_Oct_30_1105,ACPT_experiment_5_30_19,3.1.0,59.952511772372056,
,,,C,D,d,v,L,D,d,L,c ,,,,,8,1,161,18,3,0,3,0,,,,,0,12,12,12,,,,,,up,0.6505102749279104,2825.6358794152484,None,001,77 ,2019_Oct_30_1105,ACPT_experiment_5_30_19,3.1.0,59.952511772372056,
,,,C,D,d,v,R,D,y,R,y,,,,,8,1,161,18,3,0,3,0,,,,,0,13,13,27,,,,,,down,0.850489808387465,2827.5875780777387,None,001,77 ,2019_Oct_30_1105,ACPT_experiment_5_30_19,3.1.0,59.952511772372056,
,,,C,D,d,v,R,G,g,R,c ,,,,,8,1,161,18,3,0,3,0,,,,,0,14,14,7,,,,,,up,0.6171558511969124,2829.739141564465,None,001,77 ,2019_Oct_30_1105,ACPT_experiment_5_30_19,3.1.0,59.952511772372056,
,,,C,D,d,v,L,D,y,L,y,,,,,8,1,161,18,3,0,3,0,,,,,0,15,15,32,,,,,,down,0.7672631345085392,2831.6573508689526,None,001,77 ,2019_Oct_30_1105,ACPT_experiment_5_30_19,3.1.0,59.952511772372056,
,,,C,D,d,v,R,U,y,L,u,,,,,8,1,161,18,3,0,3,0,,,,,0,16,16,30,,,,,,down,1.4678388540669403,2833.708973340369,None,001,77 ,2019_Oct_30_1105,ACPT_experiment_5_30_19,3.1.0,59.952511772372056,
,,,C,D,d,v,R,G,d,R,i,,,,,8,1,161,18,3,0,3,0,,,,,0,17,17,5,,,,,,up,0.8173183156814048,2836.477854780537,None,001,77 ,2019_Oct_30_1105,ACPT_experiment_5_30_19,3.1.0,59.952511772372056,
,,,C,D,d,v,L,D,d,R,c ,,,,,8,1,161,18,3,0,3,0,,,,,0,18,18,13,,,,,,up,50.82393130245691,2838.5628473727365,None,001,77 ,2019_Oct_30_1105,ACPT_experiment_5_30_19,3.1.0,59.952511772372056,
,,,C,D,d,v,R,D,y,L,y,,,,,8,1,161,18,3,0,3,0,,,,,0,19,19,26,,,,,,down,0.9007421083069858,2890.671071299632,None,001,77 ,2019_Oct_30_1105,ACPT_experiment_5_30_19,3.1.0,59.952511772372056,
,,,C,D,d,v,R,U,d,L,u,,,,,8,1,161,18,3,0,3,0,,,,,0,20,20,8,,,,,,up,0.7172604780835172,2892.856148595537,None,001,77 ,2019_Oct_30_1105,ACPT_experiment_5_30_19,3.1.0,59.952511772372056,
,,,C,D,d,v,R,U,d,R,u,,,,,8,1,161,18,3,0,3,0,,,,,0,21,21,9,,,,,,up,1.5180268564481594,2894.8409387561414,None,001,77 ,2019_Oct_30_1105,ACPT_experiment_5_30_19,3.1.0,59.952511772372056,
,,,C,D,d,v,R,U,g,R,u,,,,,8,1,161,18,3,0,3,0,,,,,0,22,22,11,,,,,,up,0.850719830568778,2897.626625097654,None,001,77 ,2019_Oct_30_1105,ACPT_experiment_5_30_19,3.1.0,59.952511772372056,
,,,C,D,d,v,L,U,g,R,u,,,,,8,1,161,18,3,0,3,0,,,,,0,23,23,23,,,,,,up,0.7672794352920391,2899.761678908355,None,001,77 ,2019_Oct_30_1105,ACPT_experiment_5_30_19,3.1.0,59.952511772372056,
,,,C,D,d,v,L,G,y,R,y,,,,,8,1,161,18,3,0,3,0,,,,,0,24,24,35,,,,,,down,0.733633106772686,2901.8302855897446,None,001,77 ,2019_Oct_30_1105,ACPT_experiment_5_30_19,3.1.0,59.952511772372056,
,,,C,D,d,v,R,D,g,L,i,,,,,8,1,161,18,3,0,3,0,,,,,0,25,25,2,,,,,,up,0.6838957908967132,2903.8482732035627,None,001,77 ,2019_Oct_30_1105,ACPT_experiment_5_30_19,3.1.0,59.952511772372056,
,,,C,D,d,v,L,U,y,R,u,,,,,8,1,161,18,3,0,3,0,,,,,0,26,26,25,,,,,,down,0.6838640949263208,2905.8332396541336,None,001,77 ,2019_Oct_30_1105,ACPT_experiment_5_30_19,3.1.0,59.952511772372056,
,,,C,D,d,v,R,U,g,L,u,,,,,8,1,161,18,3,0,3,0,,,,,0,27,27,10,,,,,,up,0.9007116198026779,2907.818114337325,None,001,77 ,2019_Oct_30_1105,ACPT_experiment_5_30_19,3.1.0,59.952511772372056,
,,,C,D,d,v,L,D,y,R,y,,,,,8,1,161,18,3,0,3,0,,,,,0,28,28,33,,,,,,down,0.6171742650458327,2910.003185897769,None,001,77 ,2019_Oct_30_1105,ACPT_experiment_5_30_19,3.1.0,59.952511772372056,
,,,C,D,d,v,L,G,d,L,i,,,,,8,1,161,18,3,0,3,0,,,,,0,29,29,16,,,,,,up,1.6679819991040858,2911.9047216127874,None,001,77 ,2019_Oct_30_1105,ACPT_experiment_5_30_19,3.1.0,59.952511772372056,
,,,C,D,d,v,L,U,d,R,u,,,,,8,1,161,18,3,0,3,0,,,,,0,30,30,21,,,,,,up,2.0182843484699333,2914.857058118938,None,001,77 ,2019_Oct_30_1105,ACPT_experiment_5_30_19,3.1.0,59.952511772372056,
,,,C,D,d,v,R,G,y,R,y,,,,,8,1,161,18,3,0,3,0,,,,,0,31,31,29,,,,,,down,0.6004759225334055,2918.159696974454,None,001,77 ,2019_Oct_30_1105,ACPT_experiment_5_30_19,3.1.0,59.952511772372056,
,,,C,D,d,v,L,U,g,L,u,,,,,8,1,161,18,3,0,3,0,,,,,0,32,32,22,,,,,,up,1.4678367410024293,2920.04453434696,None,001,77 ,2019_Oct_30_1105,ACPT_experiment_5_30_19,3.1.0,59.952511772372056,
,,,C,D,d,v,L,G,g,L,c ,,,,,8,1,161,18,3,0,3,0,,,,,0,33,33,18,,,,,,up,0.6005115427669807,2922.79672378381,None,001,77 ,2019_Oct_30_1105,ACPT_experiment_5_30_19,3.1.0,59.952511772372056,
,,,C,D,d,v,L,U,d,L,u,,,,,8,1,161,18,3,0,3,0,,,,,0,34,34,20,,,,,,up,4.737110607464274,2924.681566891779,None,001,77 ,2019_Oct_30_1105,ACPT_experiment_5_30_19,3.1.0,59.952511772372056,
,,,C,D,d,v,L,G,g,R,c ,,,,,8,1,161,18,3,0,3,0,,,,,0,35,35,19,,,,,,up,0.6505141991910932,2930.7030407604134,None,001,77 ,2019_Oct_30_1105,ACPT_experiment_5_30_19,3.1.0,59.952511772372056,
,,,C,D,d,v,L,D,g,R,i,,,,,8,1,161,18,3,0,3,0,,,,,1,0,36,15,,,,,,up,0.6838785845120583,2932.6212349715825,None,001,77 ,2019_Oct_30_1105,ACPT_experiment_5_30_19,3.1.0,59.952511772372056,
,,,C,D,d,v,L,G,y,L,y,,,,,8,1,161,18,3,0,3,0,,,,,1,1,37,34,,,,,,down,1.2509852918628894,2934.58947893033,None,001,77 ,2019_Oct_30_1105,ACPT_experiment_5_30_19,3.1.0,59.952511772372056,
,,,C,D,d,v,L,G,g,R,c ,,,,,8,1,161,18,3,0,3,0,,,,,1,2,38,19,,,,,,up,0.600503392374776,2937.12480363592,None,001,77 ,2019_Oct_30_1105,ACPT_experiment_5_30_19,3.1.0,59.952511772372056,
,,,C,D,d,v,L,U,d,R,u,,,,,8,1,161,18,3,0,3,0,,,,,1,3,39,21,,,,,,up,0.6004882990555416,2939.009655196147,None,001,77 ,2019_Oct_30_1105,ACPT_experiment_5_30_19,3.1.0,59.952511772372056,
,,,C,D,d,v,L,D,d,L,c ,,,,,8,1,161,18,3,0,3,0,,,,,1,4,40,12,,,,,,up,0.6004789411972524,2940.894501020912,None,001,77 ,2019_Oct_30_1105,ACPT_experiment_5_30_19,3.1.0,59.952511772372056,
,,,C,D,d,v,R,U,y,L,u,,,,,8,1,161,18,3,0,3,0,,,,,1,5,41,30,,,,,,down,0.6005368995420213,2942.7793175646384,None,001,77 ,2019_Oct_30_1105,ACPT_experiment_5_30_19,3.1.0,59.952511772372056,
,,,C,D,d,v,L,U,y,L,u,,,,,8,1,161,18,3,0,3,0,,,,,1,6,42,24,,,,,,down,0.91739728392713,2944.6641757659254,None,001,77 ,2019_Oct_30_1105,ACPT_experiment_5_30_19,3.1.0,59.952511772372056,
,,,C,D,d,v,R,U,d,R,u,,,,,8,1,161,18,3,0,3,0,,,,,1,7,43,9,,,,,,up,0.6004931289180604,2946.865916085976,None,001,77 ,2019_Oct_30_1105,ACPT_experiment_5_30_19,3.1.0,59.952511772372056,
,,,C,D,d,v,L,G,d,L,i,,,,,8,1,161,18,3,0,3,0,,,,,1,8,44,16,,,,,,up,0.46703860629531846,2948.7340886231395,None,001,77 ,2019_Oct_30_1105,ACPT_experiment_5_30_19,3.1.0,59.952511772372056,
,,,C,D,d,v,L,G,d,R,i,,,,,8,1,161,18,3,0,3,0,,,,,1,9,45,17,,,,,,up,0.984145977751723,2950.4687921480936,None,001,77 ,2019_Oct_30_1105,ACPT_experiment_5_30_19,3.1.0,59.952511772372056,
,,,C,D,d,v,R,D,y,L,y,,,,,8,1,161,18,3,0,3,0,,,,,1,10,46,26,,,,,,down,0.6004786393314134,2952.73728689743,None,001,77 ,2019_Oct_30_1105,ACPT_experiment_5_30_19,3.1.0,59.952511772372056,
,,,C,D,d,v,L,U,g,R,u,,,,,8,1,161,18,3,0,3,0,,,,,1,11,47,23,,,,,,up,0.6171594735933468,2954.6221206475393,None,001,77 ,2019_Oct_30_1105,ACPT_experiment_5_30_19,3.1.0,59.952511772372056,
,,,C,D,d,v,R,G,y,R,y,,,,,8,1,161,18,3,0,3,0,,,,,1,12,48,29,,,,,,down,1.1675784037552148,2956.5236566644253,None,001,77 ,2019_Oct_30_1105,ACPT_experiment_5_30_19,3.1.0,59.952511772372056,
,,,C,D,d,v,L,U,g,L,u,,,,,8,1,161,18,3,0,3,0,,,,,1,13,49,22,,,,,,up,0.683873754650449,2958.9756001405494,None,001,77 ,2019_Oct_30_1105,ACPT_experiment_5_30_19,3.1.0,59.952511772372056,
,,,C,D,d,v,L,D,g,L,i,,,,,8,1,161,18,3,0,3,0,,,,,1,14,50,14,,,,,,up,1.2842382884900871,2960.9438362507717,None,001,77 ,2019_Oct_30_1105,ACPT_experiment_5_30_19,3.1.0,59.952511772372056,
,,,C,D,d,v,L,G,y,R,y,,,,,8,1,161,18,3,0,3,0,,,,,1,15,51,35,,,,,,down,1.3344084807549734,2963.5125386238033,None,001,77 ,2019_Oct_30_1105,ACPT_experiment_5_30_19,3.1.0,59.952511772372056,
,,,C,D,d,v,R,G,d,L,i,,,,,8,1,161,18,3,0,3,0,,,,,1,16,52,4,,,,,,up,2.9189974776045347,2966.131306441466,None,001,77 ,2019_Oct_30_1105,ACPT_experiment_5_30_19,3.1.0,59.952511772372056,
,,,C,D,d,v,L,D,d,R,c ,,,,,8,1,161,18,3,0,3,0,,,,,1,17,53,13,,,,,,up,5.571104927546912,2970.3346750287683,None,001,77 ,2019_Oct_30_1105,ACPT_experiment_5_30_19,3.1.0,59.952511772372056,
,,,C,D,d,v,R,U,y,R,u,,,,,8,1,161,18,3,0,3,0,,,,,1,18,54,31,,,,,,down,0.7839657031499883,2977.1901332558946,None,001,77 ,2019_Oct_30_1105,ACPT_experiment_5_30_19,3.1.0,59.952511772372056,
,,,C,D,d,v,R,D,g,R,i,,,,,8,1,161,18,3,0,3,0,,,,,1,19,55,3,,,,,,up,0.7339222947639428,2979.258449239961,None,001,77 ,2019_Oct_30_1105,ACPT_experiment_5_30_19,3.1.0,59.952511772372056,
,,,C,D,d,v,L,U,d,L,u,,,,,8,1,161,18,3,0,3,0,,,,,1,20,56,20,,,,,,up,0.7171832002904921,2981.276777359056,None,001,77 ,2019_Oct_30_1105,ACPT_experiment_5_30_19,3.1.0,59.952511772372056,
,,,C,D,d,v,L,U,y,R,u,,,,,8,1,161,18,3,0,3,0,,,,,1,21,57,25,,,,,,down,13.127189285916756,2983.2616221574754,None,001,77 ,2019_Oct_30_1105,ACPT_experiment_5_30_19,3.1.0,59.952511772372056,
,,,C,D,d,v,R,G,g,L,c ,,,,,8,1,161,18,3,0,3,0,,,,,1,22,58,6,,,,,,up,0.9174015100561519,2997.6731436123264,None,001,77 ,2019_Oct_30_1105,ACPT_experiment_5_30_19,3.1.0,59.952511772372056,
,,,C,D,d,v,R,U,d,L,u,,,,,8,1,161,18,3,0,3,0,,,,,1,23,59,8,,,,,,up,0.4837297040139674,2999.874892384636,None,001,77 ,2019_Oct_30_1105,ACPT_experiment_5_30_19,3.1.0,59.952511772372056,
,,,C,D,d,v,R,D,y,R,y,,,,,8,1,161,18,3,0,3,0,,,,,1,24,60,27,,,,,,down,0.5838367458318316,3001.6429765956964,None,001,77 ,2019_Oct_30_1105,ACPT_experiment_5_30_19,3.1.0,59.952511772372056,
,,,C,D,d,v,R,G,g,R,c ,,,,,8,1,161,18,3,0,3,0,,,,,1,25,61,7,,,,,,up,0.9007267131219123,3003.51116150938,None,001,77 ,2019_Oct_30_1105,ACPT_experiment_5_30_19,3.1.0,59.952511772372056,
,,,C,D,d,v,R,U,g,R,u,,,,,8,1,161,18,3,0,3,0,,,,,1,26,62,11,,,,,,up,0.7172106701318626,3005.6962240138328,None,001,77 ,2019_Oct_30_1105,ACPT_experiment_5_30_19,3.1.0,59.952511772372056,
,,,C,D,d,v,R,D,g,L,i,,,,,8,1,161,18,3,0,3,0,,,,,1,27,63,2,,,,,,up,0.550432816015018,3007.6811346191234,None,001,77 ,2019_Oct_30_1105,ACPT_experiment_5_30_19,3.1.0,59.952511772372056,
,,,C,D,d,v,R,D,d,R,c ,,,,,8,1,161,18,3,0,3,0,,,,,1,28,64,1,,,,,,up,0.5504636063851649,3009.4992251090043,None,001,77 ,2019_Oct_30_1105,ACPT_experiment_5_30_19,3.1.0,59.952511772372056,
,,,C,D,d,v,R,D,d,L,c,,,,,8,1,161,18,3,0,3,0,,,,,1,29,65,0,,,,,,up,0.5337860926538269,3011.31733854073,None,001,77 ,2019_Oct_30_1105,ACPT_experiment_5_30_19,3.1.0,59.952511772372056,
,,,C,D,d,v,R,G,d,R,i,,,,,8,1,161,18,3,0,3,0,,,,,1,30,66,5,,,,,,up,0.4837550607899175,3013.118801324831,None,001,77 ,2019_Oct_30_1105,ACPT_experiment_5_30_19,3.1.0,59.952511772372056,
,,,C,D,d,v,L,D,y,R,y,,,,,8,1,161,18,3,0,3,0,,,,,1,31,67,33,,,,,,down,0.633465389812045,3014.903904460499,None,001,77 ,2019_Oct_30_1105,ACPT_experiment_5_30_19,3.1.0,59.952511772372056,
,,,C,D,d,v,L,G,g,L,c ,,,,,8,1,161,18,3,0,3,0,,,,,1,32,68,18,,,,,,up,0.600503694240615,3016.8217548458615,None,001,77 ,2019_Oct_30_1105,ACPT_experiment_5_30_19,3.1.0,59.952511772372056,
,,,C,D,d,v,R,G,y,L,y,,,,,8,1,161,18,3,0,3,0,,,,,1,33,69,28,,,,,,down,0.6672215976941516,3018.7065946332987,None,001,77 ,2019_Oct_30_1105,ACPT_experiment_5_30_19,3.1.0,59.952511772372056,
,,,C,D,d,v,L,D,y,L,y,,,,,8,1,161,18,3,0,3,0,,,,,1,34,70,32,,,,,,down,1.9515510498304138,3020.6581535316554,None,001,77 ,2019_Oct_30_1105,ACPT_experiment_5_30_19,3.1.0,59.952511772372056,
,,,C,D,d,v,R,U,g,L,u,,,,,8,1,161,18,3,0,3,0,,,,,1,35,71,10,,,,,,up,0.7004365591583337,3023.8940726725195,None,001,77 ,2019_Oct_30_1105,ACPT_experiment_5_30_19,3.1.0,59.952511772372056,
,,,C,D,d,v,,,,,,,,,,8,1,161,18,4,0,4,0,0,0,0,0,,,,,,,,,,,,,,001,77 ,2019_Oct_30_1105,ACPT_experiment_5_30_19,3.1.0,59.952511772372056,
,,,C,D,d,v,R,U,y,L,u,,,,,8,1,161,18,4,0,4,0,,,,,0,0,0,30,,,,,,down,0.7639435099335969,3085.0128407920492,None,001,77 ,2019_Oct_30_1105,ACPT_experiment_5_30_19,3.1.0,59.952511772372056,
,,,C,D,d,v,R,U,g,R,u,,,,,8,1,161,18,4,0,4,0,,,,,0,1,1,11,,,,,,up,0.583801427465005,3087.0611442426234,None,001,77 ,2019_Oct_30_1105,ACPT_experiment_5_30_19,3.1.0,59.952511772372056,
,,,C,D,d,v,R,U,y,R,u,,,,,8,1,161,18,4,0,4,0,,,,,0,2,2,31,,,,,,down,0.5504313066830946,3088.9293050069973,None,001,77 ,2019_Oct_30_1105,ACPT_experiment_5_30_19,3.1.0,59.952511772372056,
,,,C,D,d,v,L,U,d,R,u,,,,,8,1,161,18,4,0,4,0,,,,,0,3,3,21,,,,,,up,0.5169392318830432,3090.764127044692,None,001,77 ,2019_Oct_30_1105,ACPT_experiment_5_30_19,3.1.0,59.952511772372056,
,,,C,D,d,v,L,G,d,L,i,,,,,8,1,161,18,4,0,4,0,,,,,0,4,4,16,,,,,,up,0.5170777885514326,3092.5655427376387,None,001,77 ,2019_Oct_30_1105,ACPT_experiment_5_30_19,3.1.0,59.952511772372056,
,,,C,D,d,v,L,U,y,L,u,,,,,8,1,161,18,4,0,4,0,,,,,0,5,5,24,,,,,,down,0.6004828654604353,3094.366975636968,None,001,77 ,2019_Oct_30_1105,ACPT_experiment_5_30_19,3.1.0,59.952511772372056,
,,,C,D,d,v,L,D,d,R,c ,,,,,8,1,161,18,4,0,4,0,,,,,0,6,6,13,,,,,,up,0.5504352309462774,3096.2518148206736,None,001,77 ,2019_Oct_30_1105,ACPT_experiment_5_30_19,3.1.0,59.952511772372056,
,,,C,D,d,v,R,U,g,L,u,,,,,8,1,161,18,4,0,4,0,,,,,0,7,7,10,,,,,,up,0.5304489598293003,3098.1066155828257,None,001,77 ,2019_Oct_30_1105,ACPT_experiment_5_30_19,3.1.0,59.952511772372056,
,,,C,D,d,v,R,G,g,R,c ,,,,,8,1,161,18,4,0,4,0,,,,,0,8,8,7,,,,,,up,0.400304100190624,3099.9214290112914,None,001,77 ,2019_Oct_30_1105,ACPT_experiment_5_30_19,3.1.0,59.952511772372056,
,,,C,D,d,v,R,D,y,R,y,,,,,8,1,161,18,4,0,4,0,,,,,0,9,9,27,,,,,,down,0.5838059554607753,3101.6060891278603,None,001,77 ,2019_Oct_30_1105,ACPT_experiment_5_30_19,3.1.0,59.952511772372056,
,,,C,D,d,v,R,G,g,L,c ,,,,,8,1,161,18,4,0,4,0,,,,,0,10,10,6,,,,,,up,0.7005736064947996,3103.4742468735703,None,001,77 ,2019_Oct_30_1105,ACPT_experiment_5_30_19,3.1.0,59.952511772372056,
,,,C,D,d,v,R,D,g,R,i,,,,,8,1,161,18,4,0,4,0,,,,,0,11,11,3,,,,,,up,0.45009333708458144,3105.4594348940627,None,001,77 ,2019_Oct_30_1105,ACPT_experiment_5_30_19,3.1.0,59.952511772372056,
,,,C,D,d,v,R,U,d,L,u,,,,,8,1,161,18,4,0,4,0,,,,,0,12,12,8,,,,,,up,0.38366945148482046,3107.193857079552,None,001,77 ,2019_Oct_30_1105,ACPT_experiment_5_30_19,3.1.0,59.952511772372056,
,,,C,D,d,v,R,D,d,R,c ,,,,,8,1,161,18,4,0,4,0,,,,,0,13,13,1,,,,,,up,0.717240856769422,3108.861881339949,None,001,77 ,2019_Oct_30_1105,ACPT_experiment_5_30_19,3.1.0,59.952511772372056,
,,,C,D,d,v,R,G,y,L,y,,,,,8,1,161,18,4,0,4,0,,,,,0,14,14,28,,,,,,down,0.567137497720978,3110.8634570824497,None,001,77 ,2019_Oct_30_1105,ACPT_experiment_5_30_19,3.1.0,59.952511772372056,
,,,C,D,d,v,L,G,y,L,y,,,,,8,1,161,18,4,0,4,0,,,,,0,15,15,34,,,,,,down,0.7172311970443843,3112.748318000534,None,001,77 ,2019_Oct_30_1105,ACPT_experiment_5_30_19,3.1.0,59.952511772372056,
,,,C,D,d,v,R,D,y,L,y,,,,,8,1,161,18,4,0,4,0,,,,,0,16,16,26,,,,,,down,0.5837987106679066,3114.749911553151,None,001,77 ,2019_Oct_30_1105,ACPT_experiment_5_30_19,3.1.0,59.952511772372056,
,,,C,D,d,v,R,G,d,L,i,,,,,8,1,161,18,4,0,4,0,,,,,0,17,17,4,,,,,,up,0.6838885461029349,3116.634752849921,None,001,77 ,2019_Oct_30_1105,ACPT_experiment_5_30_19,3.1.0,59.952511772372056,
,,,C,D,d,v,L,G,g,R,c ,,,,,8,1,161,18,4,0,4,0,,,,,0,18,18,19,,,,,,up,0.5504288917518352,3118.6029853377468,None,001,77 ,2019_Oct_30_1105,ACPT_experiment_5_30_19,3.1.0,59.952511772372056,
,,,C,D,d,v,L,D,y,L,y,,,,,8,1,161,18,4,0,4,0,,,,,0,19,19,32,,,,,,down,1.2343110986612373,3120.437788357859,None,001,77 ,2019_Oct_30_1105,ACPT_experiment_5_30_19,3.1.0,59.952511772372056,
,,,C,D,d,v,L,U,g,L,u,,,,,8,1,161,18,4,0,4,0,,,,,0,20,20,22,,,,,,up,0.48376653171271755,3122.956436455316,None,001,77 ,2019_Oct_30_1105,ACPT_experiment_5_30_19,3.1.0,59.952511772372056,
,,,C,D,d,v,L,G,g,L,c ,,,,,8,1,161,18,4,0,4,0,,,,,0,21,21,18,,,,,,up,0.5504642101186619,3124.724514629049,None,001,77 ,2019_Oct_30_1105,ACPT_experiment_5_30_19,3.1.0,59.952511772372056,
,,,C,D,d,v,L,D,g,L,i,,,,,8,1,161,18,4,0,4,0,,,,,0,22,22,14,,,,,,up,0.5171097863876639,3126.559338779808,None,001,77 ,2019_Oct_30_1105,ACPT_experiment_5_30_19,3.1.0,59.952511772372056,
,,,C,D,d,v,R,D,d,L,c,,,,,8,1,161,18,4,0,4,0,,,,,0,23,23,0,,,,,,up,0.6004695833398728,3128.3607813388617,None,001,77 ,2019_Oct_30_1105,ACPT_experiment_5_30_19,3.1.0,59.952511772372056,
,,,C,D,d,v,L,D,d,L,c ,,,,,8,1,161,18,4,0,4,0,,,,,0,24,24,12,,,,,,up,0.7005570038427322,3130.245610862843,None,001,77 ,2019_Oct_30_1105,ACPT_experiment_5_30_19,3.1.0,59.952511772372056,
,,,C,D,d,v,L,U,d,L,u,,,,,8,1,161,18,4,0,4,0,,,,,0,25,25,20,,,,,,up,0.4837200442898393,3132.23052841106,None,001,77 ,2019_Oct_30_1105,ACPT_experiment_5_30_19,3.1.0,59.952511772372056,
,,,C,D,d,v,L,D,g,R,i,,,,,8,1,161,18,4,0,4,0,,,,,0,26,26,15,,,,,,up,0.8173174100829783,3133.998611414655,None,001,77 ,2019_Oct_30_1105,ACPT_experiment_5_30_19,3.1.0,59.952511772372056,
,,,C,D,d,v,L,G,d,R,i,,,,,8,1,161,18,4,0,4,0,,,,,0,27,27,17,,,,,,up,1.651341614937337,3136.1002606918055,None,001,77 ,2019_Oct_30_1105,ACPT_experiment_5_30_19,3.1.0,59.952511772372056,
,,,C,D,d,v,R,G,d,R,i,,,,,8,1,161,18,4,0,4,0,,,,,0,28,28,5,,,,,,up,0.6672040894436577,3139.0359537951244,None,001,77 ,2019_Oct_30_1105,ACPT_experiment_5_30_19,3.1.0,59.952511772372056,
,,,C,D,d,v,R,G,y,R,y,,,,,8,1,161,18,4,0,4,0,,,,,0,29,29,29,,,,,,down,1.2844064280634484,3140.987518428942,None,001,77 ,2019_Oct_30_1105,ACPT_experiment_5_30_19,3.1.0,59.952511772372056,
,,,C,D,d,v,R,U,d,R,u,,,,,8,1,161,18,4,0,4,0,,,,,0,30,30,9,,,,,,up,1.2676978220943056,3143.556238310224,None,001,77 ,2019_Oct_30_1105,ACPT_experiment_5_30_19,3.1.0,59.952511772372056,
,,,C,D,d,v,L,D,y,R,y,,,,,8,1,161,18,4,0,4,0,,,,,0,31,31,33,,,,,,down,0.8673611203348628,3146.108271018051,None,001,77 ,2019_Oct_30_1105,ACPT_experiment_5_30_19,3.1.0,59.952511772372056,
,,,C,D,d,v,L,G,y,R,y,,,,,8,1,161,18,4,0,4,0,,,,,0,32,32,35,,,,,,down,4.837008154015166,3148.276823846478,None,001,77 ,2019_Oct_30_1105,ACPT_experiment_5_30_19,3.1.0,59.952511772372056,
,,,C,D,d,v,L,U,y,R,u,,,,,8,1,161,18,4,0,4,0,,,,,0,33,33,25,,,,,,down,0.8006380851529684,3154.4149005471027,None,001,77 ,2019_Oct_30_1105,ACPT_experiment_5_30_19,3.1.0,59.952511772372056,
,,,C,D,d,v,R,D,g,L,i,,,,,8,1,161,18,4,0,4,0,,,,,0,34,34,2,,,,,,up,2.034944052085848,3156.4999097419523,None,001,77 ,2019_Oct_30_1105,ACPT_experiment_5_30_19,3.1.0,59.952511772372056,
,,,C,D,d,v,L,U,g,R,u,,,,,8,1,161,18,4,0,4,0,,,,,0,35,35,23,,,,,,up,4.520282100169425,3159.819208904817,None,001,77 ,2019_Oct_30_1105,ACPT_experiment_5_30_19,3.1.0,59.952511772372056,
,,,C,D,d,v,L,D,d,L,c ,,,,,8,1,161,18,4,0,4,0,,,,,1,0,36,12,,,,,,up,1.2509976683832065,3165.6238476250965,None,001,77 ,2019_Oct_30_1105,ACPT_experiment_5_30_19,3.1.0,59.952511772372056,
,,,C,D,d,v,L,G,d,L,i,,,,,8,1,161,18,4,0,4,0,,,,,1,1,37,16,,,,,,up,0.600476224400154,3168.1425253054585,None,001,77 ,2019_Oct_30_1105,ACPT_experiment_5_30_19,3.1.0,59.952511772372056,
,,,C,D,d,v,L,D,g,L,i,,,,,8,1,161,18,4,0,4,0,,,,,1,2,38,14,,,,,,up,0.7005307414683557,3170.0273874310087,None,001,77 ,2019_Oct_30_1105,ACPT_experiment_5_30_19,3.1.0,59.952511772372056,
,,,C,D,d,v,R,G,d,R,i,,,,,8,1,161,18,4,0,4,0,,,,,1,3,39,5,,,,,,up,0.7839801927357257,3172.012256378738,None,001,77 ,2019_Oct_30_1105,ACPT_experiment_5_30_19,3.1.0,59.952511772372056,
,,,C,D,d,v,L,U,d,R,u,,,,,8,1,161,18,4,0,4,0,,,,,1,4,40,21,,,,,,up,0.9007188645955466,3174.080591682253,None,001,77 ,2019_Oct_30_1105,ACPT_experiment_5_30_19,3.1.0,59.952511772372056,
,,,C,D,d,v,L,D,y,L,y,,,,,8,1,161,18,4,0,4,0,,,,,1,5,41,32,,,,,,down,0.9841396385572807,3176.265647847512,None,001,77 ,2019_Oct_30_1105,ACPT_experiment_5_30_19,3.1.0,59.952511772372056,
,,,C,D,d,v,R,G,g,L,c ,,,,,8,1,161,18,4,0,4,0,,,,,1,6,42,6,,,,,,up,2.7687619010821436,3178.534147124844,None,001,77 ,2019_Oct_30_1105,ACPT_experiment_5_30_19,3.1.0,59.952511772372056,
,,,C,D,d,v,R,G,g,R,c ,,,,,8,1,161,18,4,0,4,0,,,,,1,7,43,7,,,,,,up,1.451234995732193,3182.5706744660893,None,001,77 ,2019_Oct_30_1105,ACPT_experiment_5_30_19,3.1.0,59.952511772372056,
,,,C,D,d,v,R,U,y,L,u,,,,,8,1,161,18,4,0,4,0,,,,,1,8,44,30,,,,,,down,0.9007176571303717,3185.3062180851775,None,001,77 ,2019_Oct_30_1105,ACPT_experiment_5_30_19,3.1.0,59.952511772372056,
,,,C,D,d,v,L,U,g,R,u,,,,,8,1,161,18,4,0,4,0,,,,,1,9,45,23,,,,,,up,5.921416634770139,3187.4912718355044,None,001,77 ,2019_Oct_30_1105,ACPT_experiment_5_30_19,3.1.0,59.952511772372056,
,,,C,D,d,v,R,D,g,L,i,,,,,8,1,161,18,4,0,4,0,,,,,1,10,46,2,,,,,,up,0.5671181782727217,3194.6970465997165,None,001,77 ,2019_Oct_30_1105,ACPT_experiment_5_30_19,3.1.0,59.952511772372056,
,,,C,D,d,v,R,U,y,R,u,,,,,8,1,161,18,4,0,4,0,,,,,1,11,47,31,,,,,,down,0.7172574594196703,3196.548499059988,None,001,77 ,2019_Oct_30_1105,ACPT_experiment_5_30_19,3.1.0,59.952511772372056,
,,,C,D,d,v,R,U,d,R,u,,,,,8,1,161,18,4,0,4,0,,,,,1,12,48,9,,,,,,down,1.267672767185104,3198.5501227992436,None,001,77 ,2019_Oct_30_1105,ACPT_experiment_5_30_19,3.1.0,59.952511772372056,
,,,C,D,d,v,R,D,y,R,y,,,,,8,1,161,18,4,0,4,0,,,,,1,13,49,27,,,,,,down,0.8673517624765736,3201.1021591294657,None,001,77 ,2019_Oct_30_1105,ACPT_experiment_5_30_19,3.1.0,59.952511772372056,
,,,C,D,d,v,R,U,d,L,u,,,,,8,1,161,18,4,0,4,0,,,,,1,14,50,8,,,,,,up,0.9340787219225604,3203.253870530717,None,001,77 ,2019_Oct_30_1105,ACPT_experiment_5_30_19,3.1.0,59.952511772372056,
,,,C,D,d,v,R,D,d,L,c,,,,,8,1,161,18,4,0,4,0,,,,,1,15,51,0,,,,,,up,1.0007996440390343,3205.4556265478195,None,001,77 ,2019_Oct_30_1105,ACPT_experiment_5_30_19,3.1.0,59.952511772372056,
,,,C,D,d,v,L,G,g,L,c ,,,,,8,1,161,18,4,0,4,0,,,,,1,16,52,18,,,,,,up,5.037352643927079,3207.740789151164,None,001,77 ,2019_Oct_30_1105,ACPT_experiment_5_30_19,3.1.0,59.952511772372056,
,,,C,D,d,v,R,D,y,L,y,,,,,8,1,161,18,4,0,4,0,,,,,1,17,53,26,,,,,,down,1.7347276742648319,3214.062493887206,None,001,77 ,2019_Oct_30_1105,ACPT_experiment_5_30_19,3.1.0,59.952511772372056,
,,,C,D,d,v,L,D,g,R,i,,,,,8,1,161,18,4,0,4,0,,,,,1,18,54,15,,,,,,up,1.067553771457824,3217.08157244612,None,001,77 ,2019_Oct_30_1105,ACPT_experiment_5_30_19,3.1.0,59.952511772372056,
,,,C,D,d,v,L,U,y,L,u,,,,,8,1,161,18,4,0,4,0,,,,,1,19,55,24,,,,,,down,0.5838307085050474,3219.433447217456,None,001,77 ,2019_Oct_30_1105,ACPT_experiment_5_30_19,3.1.0,59.952511772372056,
,,,C,D,d,v,L,G,g,R,c ,,,,,8,1,161,18,4,0,4,0,,,,,1,20,56,19,,,,,,up,0.7672842651545579,3221.3016067743647,None,001,77 ,2019_Oct_30_1105,ACPT_experiment_5_30_19,3.1.0,59.952511772372056,
,,,C,D,d,v,R,D,d,R,c ,,,,,8,1,161,18,4,0,4,0,,,,,1,21,57,1,,,,,,up,0.8006477448761871,3223.353245244699,None,001,77 ,2019_Oct_30_1105,ACPT_experiment_5_30_19,3.1.0,59.952511772372056,
,,,C,D,d,v,L,U,d,L,u,,,,,8,1,161,18,4,0,4,0,,,,,1,22,58,20,,,,,,up,0.5671393089187404,3225.438241157428,None,001,77 ,2019_Oct_30_1105,ACPT_experiment_5_30_19,3.1.0,59.952511772372056,
,,,C,D,d,v,R,U,g,R,u,,,,,8,1,161,18,4,0,4,0,,,,,1,23,59,11,,,,,,up,0.6338466470497224,3227.289716861411,None,001,77 ,2019_Oct_30_1105,ACPT_experiment_5_30_19,3.1.0,59.952511772372056,
,,,C,D,d,v,R,U,g,L,u,,,,,8,1,161,18,4,0,4,0,,,,,1,24,60,10,,,,,,up,1.3177499846051433,3229.2079062427174,None,001,77 ,2019_Oct_30_1105,ACPT_experiment_5_30_19,3.1.0,59.952511772372056,
,,,C,D,d,v,L,G,y,R,y,,,,,8,1,161,18,4,0,4,0,,,,,1,25,61,35,,,,,,down,0.7506176186125231,3231.8099941317178,None,001,77 ,2019_Oct_30_1105,ACPT_experiment_5_30_19,3.1.0,59.952511772372056,
,,,C,D,d,v,L,U,y,R,u,,,,,8,1,161,18,4,0,4,0,,,,,1,26,62,25,,,,,,down,1.1676339471687243,3233.8449245998163,None,001,77 ,2019_Oct_30_1105,ACPT_experiment_5_30_19,3.1.0,59.952511772372056,
,,,C,D,d,v,R,G,d,L,i,,,,,8,1,161,18,4,0,4,0,,,,,1,27,63,4,,,,,,up,0.45036501682625385,3236.296902488707,None,001,77 ,2019_Oct_30_1105,ACPT_experiment_5_30_19,3.1.0,59.952511772372056,
,,,C,D,d,v,L,G,y,L,y,,,,,8,1,161,18,4,0,4,0,,,,,1,28,64,34,,,,,,down,0.6004831673271838,3238.0316238237774,None,001,77 ,2019_Oct_30_1105,ACPT_experiment_5_30_19,3.1.0,59.952511772372056,
,,,C,D,d,v,L,D,y,R,y,,,,,8,1,161,18,4,0,4,0,,,,,1,29,65,33,,,,,,down,4.42018683113929,3239.9164774970686,None,001,77 ,2019_Oct_30_1105,ACPT_experiment_5_30_19,3.1.0,59.952511772372056,
,,,C,D,d,v,L,D,d,R,c ,,,,,8,1,161,18,4,0,4,0,,,,,1,30,66,13,,,,,,up,0.7339156537036615,3245.621013703526,None,001,77 ,2019_Oct_30_1105,ACPT_experiment_5_30_19,3.1.0,59.952511772372056,
,,,C,D,d,v,R,G,y,R,y,,,,,8,1,161,18,4,0,4,0,,,,,1,31,67,29,,,,,,down,3.369360079499529,3247.6392874866724,None,001,77 ,2019_Oct_30_1105,ACPT_experiment_5_30_19,3.1.0,59.952511772372056,
,,,C,D,d,v,R,G,y,L,y,,,,,8,1,161,18,4,0,4,0,,,,,1,32,68,28,,,,,,down,0.5337616414772128,3252.2930020732183,None,001,77 ,2019_Oct_30_1105,ACPT_experiment_5_30_19,3.1.0,59.952511772372056,
,,,C,D,d,v,R,D,g,R,i,,,,,8,1,161,18,4,0,4,0,,,,,1,33,69,3,,,,,,down,0.5170850333433918,3254.111118221742,None,001,77 ,2019_Oct_30_1105,ACPT_experiment_5_30_19,3.1.0,59.952511772372056,
,,,C,D,d,v,L,G,d,R,i,,,,,8,1,161,18,4,0,4,0,,,,,1,34,70,17,,,,,,up,2.2851629052102,3255.912555649067,None,001,77 ,2019_Oct_30_1105,ACPT_experiment_5_30_19,3.1.0,59.952511772372056,
,,,C,D,d,v,L,U,g,L,u,,,,,8,1,161,18,4,0,4,0,,,,,1,35,71,22,,,,,,up,0.5337151540543346,3259.4821159263493,None,001,77 ,2019_Oct_30_1105,ACPT_experiment_5_30_19,3.1.0,59.952511772372056,
,,,C,D,d,v,,,,,,,,,,8,1,161,18,5,0,5,0,0,0,0,0,,,,,,,,,,,,,,001,77 ,2019_Oct_30_1105,ACPT_experiment_5_30_19,3.1.0,59.952511772372056,
,,,C,D,d,v,L,G,y,R,y,,,,,8,1,161,18,5,0,5,0,,,,,0,0,0,35,,,,,,down,0.8673789304511956,3294.910360476756,None,001,77 ,2019_Oct_30_1105,ACPT_experiment_5_30_19,3.1.0,59.952511772372056,
,,,C,D,d,v,L,G,y,L,y,,,,,8,1,161,18,5,0,5,0,,,,,0,1,1,34,,,,,,down,0.5172486449218923,3297.078747278675,None,001,77 ,2019_Oct_30_1105,ACPT_experiment_5_30_19,3.1.0,59.952511772372056,
,,,C,D,d,v,L,D,y,L,y,,,,,8,1,161,18,5,0,5,0,,,,,0,2,2,32,,,,,,down,0.6004798467965884,3298.880179574272,None,001,77 ,2019_Oct_30_1105,ACPT_experiment_5_30_19,3.1.0,59.952511772372056,
,,,C,D,d,v,L,G,g,L,c ,,,,,8,1,161,18,5,0,5,0,,,,,0,3,3,18,,,,,,up,0.5671169708066373,3300.7650217766404,None,001,77 ,2019_Oct_30_1105,ACPT_experiment_5_30_19,3.1.0,59.952511772372056,
,,,C,D,d,v,L,U,g,R,u,,,,,8,1,161,18,5,0,5,0,,,,,0,4,4,23,,,,,,up,1.1339830906536008,3302.633434599442,None,001,77 ,2019_Oct_30_1105,ACPT_experiment_5_30_19,3.1.0,59.952511772372056,
,,,C,D,d,v,L,D,g,R,i,,,,,8,1,161,18,5,0,5,0,,,,,0,5,5,15,,,,,,up,0.80066314006217,3305.0517507646273,None,001,77 ,2019_Oct_30_1105,ACPT_experiment_5_30_19,3.1.0,59.952511772372056,
,,,C,D,d,v,L,D,y,R,y,,,,,8,1,161,18,5,0,5,0,,,,,0,6,6,33,,,,,,down,0.7839527228952647,3307.136776863995,None,001,77 ,2019_Oct_30_1105,ACPT_experiment_5_30_19,3.1.0,59.952511772372056,
,,,C,D,d,v,R,U,g,L,u,,,,,8,1,161,18,5,0,5,0,,,,,0,7,7,10,,,,,,up,0.6500903787937204,3309.2221709384785,None,001,77 ,2019_Oct_30_1105,ACPT_experiment_5_30_19,3.1.0,59.952511772372056,
,,,C,D,d,v,R,G,y,R,y,,,,,8,1,161,18,5,0,5,0,,,,,0,8,8,29,,,,,,down,0.6171630959897811,3311.1566496333535,None,001,77 ,2019_Oct_30_1105,ACPT_experiment_5_30_19,3.1.0,59.952511772372056,
,,,C,D,d,v,L,D,d,L,c ,,,,,8,1,161,18,5,0,5,0,,,,,0,9,9,12,,,,,,up,0.6338397041226926,3313.058170858786,None,001,77 ,2019_Oct_30_1105,ACPT_experiment_5_30_19,3.1.0,59.952511772372056,
,,,C,D,d,v,L,D,d,R,c ,,,,,8,1,161,18,5,0,5,0,,,,,0,10,10,13,,,,,,up,0.53375771721403,3314.9596851412916,None,001,77 ,2019_Oct_30_1105,ACPT_experiment_5_30_19,3.1.0,59.952511772372056,
,,,C,D,d,v,R,G,y,L,y,,,,,8,1,161,18,5,0,5,0,,,,,0,11,11,28,,,,,,down,0.6505181234542761,3316.777806119677,None,001,77 ,2019_Oct_30_1105,ACPT_experiment_5_30_19,3.1.0,59.952511772372056,
,,,C,D,d,v,L,G,d,L,i,,,,,8,1,161,18,5,0,5,0,,,,,0,12,12,16,,,,,,up,1.1175494849558163,3318.7126869005688,None,001,77 ,2019_Oct_30_1105,ACPT_experiment_5_30_19,3.1.0,59.952511772372056,
,,,C,D,d,v,R,G,g,L,c ,,,,,8,1,161,18,5,0,5,0,,,,,0,13,13,6,,,,,,up,0.46704102122657787,3321.114593609368,None,001,77 ,2019_Oct_30_1105,ACPT_experiment_5_30_19,3.1.0,59.952511772372056,
,,,C,D,d,v,R,D,y,L,y,,,,,8,1,161,18,5,0,5,0,,,,,0,14,14,26,,,,,,down,0.567163156362767,3322.8826808390922,None,001,77 ,2019_Oct_30_1105,ACPT_experiment_5_30_19,3.1.0,59.952511772372056,
,,,C,D,d,v,R,U,d,L,u,,,,,8,1,161,18,5,0,5,0,,,,,0,15,15,8,,,,,,up,0.9007179589962107,3324.750832245608,None,001,77 ,2019_Oct_30_1105,ACPT_experiment_5_30_19,3.1.0,59.952511772372056,
,,,C,D,d,v,L,U,d,R,u,,,,,8,1,161,18,5,0,5,0,,,,,0,16,16,21,,,,,,up,0.6838770751801349,3326.9192323296475,None,001,77 ,2019_Oct_30_1105,ACPT_experiment_5_30_19,3.1.0,59.952511772372056,
,,,C,D,d,v,L,U,g,L,u,,,,,8,1,161,18,5,0,5,0,,,,,0,17,17,22,,,,,,up,0.7839789852696413,3328.8707658712283,None,001,77 ,2019_Oct_30_1105,ACPT_experiment_5_30_19,3.1.0,59.952511772372056,
,,,C,D,d,v,R,U,y,L,u,,,,,8,1,161,18,5,0,5,0,,,,,0,18,18,30,,,,,,down,0.7172662135444625,3330.955790461264,None,001,77 ,2019_Oct_30_1105,ACPT_experiment_5_30_19,3.1.0,59.952511772372056,
,,,C,D,d,v,L,U,d,L,u,,,,,8,1,161,18,5,0,5,0,,,,,0,19,19,20,,,,,,up,0.9006992432814513,3332.9740751116005,None,001,77 ,2019_Oct_30_1105,ACPT_experiment_5_30_19,3.1.0,59.952511772372056,
,,,C,D,d,v,R,U,d,R,u,,,,,8,1,161,18,5,0,5,0,,,,,0,20,20,9,,,,,,up,1.4344744687450657,3335.1591412384496,None,001,77 ,2019_Oct_30_1105,ACPT_experiment_5_30_19,3.1.0,59.952511772372056,
,,,C,D,d,v,R,D,y,R,y,,,,,8,1,161,18,5,0,5,0,,,,,0,21,21,27,,,,,,down,1.4344750724776532,3337.8946537653,None,001,77 ,2019_Oct_30_1105,ACPT_experiment_5_30_19,3.1.0,59.952511772372056,
,,,C,D,d,v,L,G,d,R,i,,,,,8,1,161,18,5,0,5,0,,,,,0,22,22,17,,,,,,up,1.2342760821602496,3340.646880331715,None,001,77 ,2019_Oct_30_1105,ACPT_experiment_5_30_19,3.1.0,59.952511772372056,
