facing_vig,person_vig,text_vig,facing_train,person_train,food_train,correct_key_train,facing_exp,person_exp,food_exp,showL_R,consistent,vig_random.thisRepN,vig_random.thisTrialN,vig_random.thisN,vig_random.thisIndex,trainTrials.thisRepN,trainTrials.thisTrialN,trainTrials.thisN,trainTrials.thisIndex,expBlock.thisRepN,expBlock.thisTrialN,expBlock.thisN,expBlock.thisIndex,breakLoop.thisRepN,breakLoop.thisTrialN,breakLoop.thisN,breakLoop.thisIndex,expTrials.thisRepN,expTrials.thisTrialN,expTrials.thisN,expTrials.thisIndex,train_resp.keys,train_resp.corr,train_resp.rt,train_resp.started,train_resp.stopped,exp_resp.keys,exp_resp.rt,exp_resp.started,exp_resp.stopped,session,participant,date,expName,psychopyVersion,frameRate,
C,G,"cannot eat dairy products because she is lactose intolerant. She enjoys eating wheat products. She thinks eating insects, like crickets, is disgusting.",,,,,,,,,,0,0,0,0,,,,,,,,,,,,,,,,,,,,,,,,,,001,78,2019_Oct_30_1206,ACPT_experiment_5_30_19,3.1.0,59.95262027264454,
C,U,"did not report her food preferences, so her food preferences are unknown.",,,,,,,,,,0,1,1,2,,,,,,,,,,,,,,,,,,,,,,,,,,001,78,2019_Oct_30_1206,ACPT_experiment_5_30_19,3.1.0,59.95262027264454,
C,D,"is allergic to gluten, meaning she can’t eat wheat products. She enjoys eating dairy products. She thinks eating insects, like crickets, is disgusting.",,,,,,,,,,0,2,2,1,,,,,,,,,,,,,,,,,,,,,,,,,,001,78,2019_Oct_30_1206,ACPT_experiment_5_30_19,3.1.0,59.95262027264454,
,,,C,U,d,n,,,,,,,,,,0,0,0,6,,,,,,,,,,,,,n,1,7.189094231816853,587.6590389057465,None,,,,,001,78,2019_Oct_30_1206,ACPT_experiment_5_30_19,3.1.0,59.95262027264454,
,,,C,U,y,n,,,,,,,,,,0,1,1,8,,,,,,,,,,,,,n,1,2.3852584761061735,598.1173928163034,None,,,,,001,78,2019_Oct_30_1206,ACPT_experiment_5_30_19,3.1.0,59.95262027264454,
,,,C,D,d,v,,,,,,,,,,0,2,2,0,,,,,,,,,,,,,b,0,5.0873972597782995,603.7885936166122,None,,,,,001,78,2019_Oct_30_1206,ACPT_experiment_5_30_19,3.1.0,59.95262027264454,
,,,C,G,g,v,,,,,,,,,,0,3,3,19,,,,,,,,,,,,,v,1,4.270067473173185,612.1619612741661,None,,,,,001,78,2019_Oct_30_1206,ACPT_experiment_5_30_19,3.1.0,59.95262027264454,
,,,C,D,d,v,,,,,,,,,,0,4,4,18,,,,,,,,,,,,,b,0,7.05563518119925,619.7179837499289,None,,,,,001,78,2019_Oct_30_1206,ACPT_experiment_5_30_19,3.1.0,59.95262027264454,
,,,C,U,y,n,,,,,,,,,,0,5,5,17,,,,,,,,,,,,,n,1,1.9515573890257656,630.0595745374494,None,,,,,001,78,2019_Oct_30_1206,ACPT_experiment_5_30_19,3.1.0,59.95262027264454,
,,,C,G,d,b,,,,,,,,,,0,6,6,3,,,,,,,,,,,,,b,1,13.043736212252043,635.2971017205173,None,,,,,001,78,2019_Oct_30_1206,ACPT_experiment_5_30_19,3.1.0,59.95262027264454,
,,,C,D,g,b,,,,,,,,,,0,7,7,10,,,,,,,,,,,,,v,0,8.156507756155406,651.6267850868344,None,,,,,001,78,2019_Oct_30_1206,ACPT_experiment_5_30_19,3.1.0,59.95262027264454,
,,,C,U,d,n,,,,,,,,,,0,8,8,15,,,,,,,,,,,,,b,0,18.064473828788323,663.0692526754419,None,,,,,001,78,2019_Oct_30_1206,ACPT_experiment_5_30_19,3.1.0,59.95262027264454,
,,,C,G,g,v,,,,,,,,,,0,9,9,4,,,,,,,,,,,,,v,1,12.4099285059674,684.4196313970015,None,,,,,001,78,2019_Oct_30_1206,ACPT_experiment_5_30_19,3.1.0,59.95262027264454,
,,,C,U,g,n,,,,,,,,,,0,10,10,16,,,,,,,,,,,,,n,1,2.285215128094933,700.0987966398652,None,,,,,001,78,2019_Oct_30_1206,ACPT_experiment_5_30_19,3.1.0,59.95262027264454,
,,,C,D,g,b,,,,,,,,,,0,11,11,1,,,,,,,,,,,,,b,1,5.754597123093845,705.6699417156387,None,,,,,001,78,2019_Oct_30_1206,ACPT_experiment_5_30_19,3.1.0,59.95262027264454,
,,,C,D,y,b,,,,,,,,,,0,12,12,2,,,,,,,,,,,,,b,1,4.603688384544512,714.6938018380033,None,,,,,001,78,2019_Oct_30_1206,ACPT_experiment_5_30_19,3.1.0,59.95262027264454,
,,,C,G,y,b,,,,,,,,,,0,13,13,14,,,,,,,,,,,,,b,1,1.3344087826208124,722.5834316411501,None,,,,,001,78,2019_Oct_30_1206,ACPT_experiment_5_30_19,3.1.0,59.95262027264454,
,,,C,D,y,b,,,,,,,,,,0,14,14,11,,,,,,,,,,,,,b,1,2.5184515824439586,727.2207080940034,None,,,,,001,78,2019_Oct_30_1206,ACPT_experiment_5_30_19,3.1.0,59.95262027264454,
,,,C,G,d,b,,,,,,,,,,0,15,15,12,,,,,,,,,,,,,v,0,4.403553389898661,733.0250787569375,None,,,,,001,78,2019_Oct_30_1206,ACPT_experiment_5_30_19,3.1.0,59.95262027264454,
,,,C,G,y,b,,,,,,,,,,0,16,16,5,,,,,,,,,,,,,b,1,1.0508593532103987,740.6978860901172,None,,,,,001,78,2019_Oct_30_1206,ACPT_experiment_5_30_19,3.1.0,59.95262027264454,
,,,C,D,d,v,,,,,,,,,,0,17,17,9,,,,,,,,,,,,,v,1,3.36907602323663,745.0516602047128,None,,,,,001,78,2019_Oct_30_1206,ACPT_experiment_5_30_19,3.1.0,59.95262027264454,
,,,C,G,g,v,,,,,,,,,,0,18,18,13,,,,,,,,,,,,,v,1,5.854702051847198,751.706678552152,None,,,,,001,78,2019_Oct_30_1206,ACPT_experiment_5_30_19,3.1.0,59.95262027264454,
,,,C,U,g,n,,,,,,,,,,0,19,19,7,,,,,,,,,,,,,n,1,2.752214491758423,760.8473075330139,None,,,,,001,78,2019_Oct_30_1206,ACPT_experiment_5_30_19,3.1.0,59.95262027264454,
,,,C,G,g,v,,,,,,,,,,1,0,20,4,,,,,,,,,,,,,v,1,7.172389248244144,766.8854755180319,None,,,,,001,78,2019_Oct_30_1206,ACPT_experiment_5_30_19,3.1.0,59.95262027264454,
,,,C,G,g,v,,,,,,,,,,1,1,21,13,,,,,,,,,,,,,v,1,2.8524350353363843,777.3269913219456,None,,,,,001,78,2019_Oct_30_1206,ACPT_experiment_5_30_19,3.1.0,59.95262027264454,
,,,C,D,y,b,,,,,,,,,,1,2,22,2,,,,,,,,,,,,,n,0,1.9348889312841493,783.4653683796178,None,,,,,001,78,2019_Oct_30_1206,ACPT_experiment_5_30_19,3.1.0,59.95262027264454,
,,,C,G,d,b,,,,,,,,,,1,3,23,3,,,,,,,,,,,,,b,1,10.775284629808084,788.6862123134915,None,,,,,001,78,2019_Oct_30_1206,ACPT_experiment_5_30_19,3.1.0,59.95262027264454,
,,,C,U,g,n,,,,,,,,,,1,4,24,7,,,,,,,,,,,,,n,1,1.984915133287359,802.7474471160285,None,,,,,001,78,2019_Oct_30_1206,ACPT_experiment_5_30_19,3.1.0,59.95262027264454,
,,,C,D,d,v,,,,,,,,,,1,5,25,18,,,,,,,,,,,,,v,1,3.6362528239587846,808.0183133276414,None,,,,,001,78,2019_Oct_30_1206,ACPT_experiment_5_30_19,3.1.0,59.95262027264454,
,,,C,G,y,b,,,,,,,,,,1,6,26,14,,,,,,,,,,,,,b,1,6.405209730723072,814.940495193684,None,,,,,001,78,2019_Oct_30_1206,ACPT_experiment_5_30_19,3.1.0,59.95262027264454,
,,,C,D,d,v,,,,,,,,,,1,7,27,0,,,,,,,,,,,,,v,1,3.135834437156518,824.6315738950789,None,,,,,001,78,2019_Oct_30_1206,ACPT_experiment_5_30_19,3.1.0,59.95262027264454,
,,,C,G,y,b,,,,,,,,,,1,8,28,5,,,,,,,,,,,,,b,1,1.801446785184453,831.053353373235,None,,,,,001,78,2019_Oct_30_1206,ACPT_experiment_5_30_19,3.1.0,59.95262027264454,
,,,C,D,y,b,,,,,,,,,,1,9,29,11,,,,,,,,,,,,,b,1,1.5011972020620306,836.1407599908716,None,,,,,001,78,2019_Oct_30_1206,ACPT_experiment_5_30_19,3.1.0,59.95262027264454,
,,,C,U,d,n,,,,,,,,,,1,10,30,15,,,,,,,,,,,,,n,1,1.6680188268019265,840.9279031395299,None,,,,,001,78,2019_Oct_30_1206,ACPT_experiment_5_30_19,3.1.0,59.95262027264454,
,,,C,G,d,b,,,,,,,,,,1,11,31,12,,,,,,,,,,,,,v,0,2.4352768295830174,845.8818694222637,None,,,,,001,78,2019_Oct_30_1206,ACPT_experiment_5_30_19,3.1.0,59.95262027264454,
,,,C,U,y,n,,,,,,,,,,1,12,32,8,,,,,,,,,,,,,n,1,3.6028959852974367,851.6030861611171,None,,,,,001,78,2019_Oct_30_1206,ACPT_experiment_5_30_19,3.1.0,59.95262027264454,
,,,C,D,g,b,,,,,,,,,,1,13,33,10,,,,,,,,,,,,,v,0,6.62196729941752,858.4919211500865,None,,,,,001,78,2019_Oct_30_1206,ACPT_experiment_5_30_19,3.1.0,59.95262027264454,
,,,C,D,d,v,,,,,,,,,,1,14,34,9,,,,,,,,,,,,,v,1,5.521111327112521,868.3831242808037,None,,,,,001,78,2019_Oct_30_1206,ACPT_experiment_5_30_19,3.1.0,59.95262027264454,
,,,C,U,y,n,,,,,,,,,,1,15,35,17,,,,,,,,,,,,,n,1,1.5345552481885534,877.1901740078547,None,,,,,001,78,2019_Oct_30_1206,ACPT_experiment_5_30_19,3.1.0,59.95262027264454,
,,,C,D,g,b,,,,,,,,,,1,16,36,1,,,,,,,,,,,,,v,0,4.236718483036384,882.010707804212,None,,,,,001,78,2019_Oct_30_1206,ACPT_experiment_5_30_19,3.1.0,59.95262027264454,
,,,C,U,d,n,,,,,,,,,,1,17,37,6,,,,,,,,,,,,,b,0,7.756227503408809,889.5333652909203,None,,,,,001,78,2019_Oct_30_1206,ACPT_experiment_5_30_19,3.1.0,59.95262027264454,
,,,C,U,g,n,,,,,,,,,,1,18,38,16,,,,,,,,,,,,,v,0,31.625267906410954,900.558830134959,None,,,,,001,78,2019_Oct_30_1206,ACPT_experiment_5_30_19,3.1.0,59.95262027264454,
,,,C,G,g,v,,,,,,,,,,1,19,39,19,,,,,,,,,,,,,v,1,2.351862998548313,935.4700663260801,None,,,,,001,78,2019_Oct_30_1206,ACPT_experiment_5_30_19,3.1.0,59.95262027264454,
,,,C,U,d,n,,,,,,,,,,2,0,40,6,,,,,,,,,,,,,v,0,1.4011375532645616,941.1078616872392,None,,,,,001,78,2019_Oct_30_1206,ACPT_experiment_5_30_19,3.1.0,59.95262027264454,
,,,C,U,y,n,,,,,,,,,,2,1,41,8,,,,,,,,,,,,,b,0,2.8853831469205033,945.7952014716584,None,,,,,001,78,2019_Oct_30_1206,ACPT_experiment_5_30_19,3.1.0,59.95262027264454,
,,,C,U,g,n,,,,,,,,,,2,2,42,16,,,,,,,,,,,,,n,1,16.396443229197757,951.9498427879889,None,,,,,001,78,2019_Oct_30_1206,ACPT_experiment_5_30_19,3.1.0,59.95262027264454,
,,,C,D,d,v,,,,,,,,,,2,3,43,0,,,,,,,,,,,,,b,0,12.19314195809784,971.6322334731167,None,,,,,001,78,2019_Oct_30_1206,ACPT_experiment_5_30_19,3.1.0,59.95262027264454,
,,,C,G,d,b,,,,,,,,,,2,4,44,3,,,,,,,,,,,,,None,0,,987.1112401757591,None,,,,,001,78,2019_Oct_30_1206,ACPT_experiment_5_30_19,3.1.0,59.95262027264454,
,,,C,G,g,v,,,,,,,,,,2,5,45,13,,,,,,,,,,,,,v,1,46.22022420219764,1050.345039007173,None,,,,,001,78,2019_Oct_30_1206,ACPT_experiment_5_30_19,3.1.0,59.95262027264454,
,,,C,D,y,b,,,,,,,,,,2,6,46,2,,,,,,,,,,,,,b,1,3.7363284716757335,1099.8512239474212,None,,,,,001,78,2019_Oct_30_1206,ACPT_experiment_5_30_19,3.1.0,59.95262027264454,
,,,C,G,g,v,,,,,,,,,,2,7,47,19,,,,,,,,,,,,,b,0,15.112081175491767,1106.8734868947731,None,,,,,001,78,2019_Oct_30_1206,ACPT_experiment_5_30_19,3.1.0,59.95262027264454,
,,,C,G,d,b,,,,,,,,,,2,8,48,12,,,,,,,,,,,,,b,1,10.324947384689949,1125.2548039015628,None,,,,,001,78,2019_Oct_30_1206,ACPT_experiment_5_30_19,3.1.0,59.95262027264454,
,,,C,D,y,b,,,,,,,,,,2,9,49,11,,,,,,,,,,,,,b,1,2.4686387999718136,1138.865703873912,None,,,,,001,78,2019_Oct_30_1206,ACPT_experiment_5_30_19,3.1.0,59.95262027264454,
,,,C,U,g,n,,,,,,,,,,2,10,50,7,,,,,,,,,,,,,n,1,3.7196597120673687,1144.6202949596764,None,,,,,001,78,2019_Oct_30_1206,ACPT_experiment_5_30_19,3.1.0,59.95262027264454,
,,,C,D,d,v,,,,,,,,,,2,11,51,9,,,,,,,,,,,,,b,0,14.127962667580505,1151.6258758652993,None,,,,,001,78,2019_Oct_30_1206,ACPT_experiment_5_30_19,3.1.0,59.95262027264454,
,,,C,U,y,n,,,,,,,,,,2,12,52,17,,,,,,,,,,,,,b,0,30.574440249172767,1169.03978689441,None,,,,,001,78,2019_Oct_30_1206,ACPT_experiment_5_30_19,3.1.0,59.95262027264454,
,,,C,G,g,v,,,,,,,,,,2,13,53,4,,,,,,,,,,,,,v,1,17.597396583596492,1202.9001383755485,None,,,,,001,78,2019_Oct_30_1206,ACPT_experiment_5_30_19,3.1.0,59.95262027264454,
,,,C,D,g,b,,,,,,,,,,2,14,54,10,,,,,,,,,,,,,b,1,3.3360071651004546,1223.7834706422864,None,,,,,001,78,2019_Oct_30_1206,ACPT_experiment_5_30_19,3.1.0,59.95262027264454,
,,,C,G,y,b,,,,,,,,,,2,15,55,5,,,,,,,,,,,,,b,1,1.801442559053612,1230.4054337155767,None,,,,,001,78,2019_Oct_30_1206,ACPT_experiment_5_30_19,3.1.0,59.95262027264454,
,,,C,U,d,n,,,,,,,,,,2,16,56,15,,,,,,,,,,,,,n,1,4.937274279414851,1235.4928279566911,None,,,,,001,78,2019_Oct_30_1206,ACPT_experiment_5_30_19,3.1.0,59.95262027264454,
,,,C,D,d,v,,,,,,,,,,2,17,57,18,,,,,,,,,,,,,b,0,10.958751770445815,1243.716058144294,None,,,,,001,78,2019_Oct_30_1206,ACPT_experiment_5_30_19,3.1.0,59.95262027264454,
,,,C,D,g,b,,,,,,,,,,2,18,58,1,,,,,,,,,,,,,v,0,17.313857719507723,1257.9440487647016,None,,,,,001,78,2019_Oct_30_1206,ACPT_experiment_5_30_19,3.1.0,59.95262027264454,
,,,C,G,y,b,,,,,,,,,,2,19,59,14,,,,,,,,,,,,,b,1,8.390023135039883,1278.5438623923992,None,,,,,001,78,2019_Oct_30_1206,ACPT_experiment_5_30_19,3.1.0,59.95262027264454,
,,,C,G,d,b,,,,,,,,,,3,0,60,3,,,,,,,,,,,,,v,0,7.239124358082336,1290.2198347945678,None,,,,,001,78,2019_Oct_30_1206,ACPT_experiment_5_30_19,3.1.0,59.95262027264454,
,,,C,G,y,b,,,,,,,,,,3,1,61,5,,,,,,,,,,,,,b,1,30.691234766312846,1300.7281986063435,None,,,,,001,78,2019_Oct_30_1206,ACPT_experiment_5_30_19,3.1.0,59.95262027264454,
,,,C,U,g,n,,,,,,,,,,3,2,62,7,,,,,,,,,,,,,v,0,27.989038929896196,1334.705333435565,None,,,,,001,78,2019_Oct_30_1206,ACPT_experiment_5_30_19,3.1.0,59.95262027264454,
,,,C,G,d,b,,,,,,,,,,3,3,63,12,,,,,,,,,,,,,v,0,34.89453271688217,1365.9803171045942,None,,,,,001,78,2019_Oct_30_1206,ACPT_experiment_5_30_19,3.1.0,59.95262027264454,
,,,C,G,y,b,,,,,,,,,,3,4,64,14,,,,,,,,,,,,,b,1,22.23442580788469,1404.1440989348948,None,,,,,001,78,2019_Oct_30_1206,ACPT_experiment_5_30_19,3.1.0,59.95262027264454,
,,,C,U,y,n,,,,,,,,,,3,5,65,17,,,,,,,,,,,,,b,0,1.2841957253294822,1429.6646083404476,None,,,,,001,78,2019_Oct_30_1206,ACPT_experiment_5_30_19,3.1.0,59.95262027264454,
,,,C,D,d,v,,,,,,,,,,3,6,66,0,,,,,,,,,,,,,b,0,5.504144927255766,1434.268455808572,None,,,,,001,78,2019_Oct_30_1206,ACPT_experiment_5_30_19,3.1.0,59.95262027264454,
,,,C,G,g,v,,,,,,,,,,3,7,67,4,,,,,,,,,,,,,v,1,29.05655859045146,1443.058502911802,None,,,,,001,78,2019_Oct_30_1206,ACPT_experiment_5_30_19,3.1.0,59.95262027264454,
,,,C,G,g,v,,,,,,,,,,3,8,68,13,,,,,,,,,,,,,v,1,3.1360043879303703,1475.384137344373,None,,,,,001,78,2019_Oct_30_1206,ACPT_experiment_5_30_19,3.1.0,59.95262027264454,
,,,C,D,y,b,,,,,,,,,,3,9,69,11,,,,,,,,,,,,,b,1,5.787953961755193,1481.8061082058148,None,,,,,001,78,2019_Oct_30_1206,ACPT_experiment_5_30_19,3.1.0,59.95262027264454,
,,,C,U,g,n,,,,,,,,,,3,10,70,16,,,,,,,,,,,,,n,1,1.9515510498295043,1490.8800050955042,None,,,,,001,78,2019_Oct_30_1206,ACPT_experiment_5_30_19,3.1.0,59.95262027264454,
,,,C,U,d,n,,,,,,,,,,3,11,71,6,,,,,,,,,,,,,n,1,1.1842894246547075,1496.1008242763355,None,,,,,001,78,2019_Oct_30_1206,ACPT_experiment_5_30_19,3.1.0,59.95262027264454,
,,,C,D,d,v,,,,,,,,,,3,12,72,18,,,,,,,,,,,,,v,1,5.787939472167636,1500.5877622162307,None,,,,,001,78,2019_Oct_30_1206,ACPT_experiment_5_30_19,3.1.0,59.95262027264454,
,,,C,D,d,v,,,,,,,,,,3,13,73,9,,,,,,,,,,,,,b,0,4.903923176214448,1509.6616530685924,None,,,,,001,78,2019_Oct_30_1206,ACPT_experiment_5_30_19,3.1.0,59.95262027264454,
,,,C,D,y,b,,,,,,,,,,3,14,74,2,,,,,,,,,,,,,b,1,7.072326278917899,1517.8348395459443,None,,,,,001,78,2019_Oct_30_1206,ACPT_experiment_5_30_19,3.1.0,59.95262027264454,
,,,C,U,y,n,,,,,,,,,,3,15,75,8,,,,,,,,,,,,,n,1,10.074724305433847,1528.193110563995,None,,,,,001,78,2019_Oct_30_1206,ACPT_experiment_5_30_19,3.1.0,59.95262027264454,
,,,C,D,g,b,,,,,,,,,,3,16,76,1,,,,,,,,,,,,,v,0,5.037249707493174,1541.5537768917666,None,,,,,001,78,2019_Oct_30_1206,ACPT_experiment_5_30_19,3.1.0,59.95262027264454,
,,,C,D,g,b,,,,,,,,,,3,17,77,10,,,,,,,,,,,,,b,1,28.85640488009267,1549.8604085338839,None,,,,,001,78,2019_Oct_30_1206,ACPT_experiment_5_30_19,3.1.0,59.95262027264454,
,,,C,G,g,v,,,,,,,,,,3,18,78,19,,,,,,,,,,,,,b,0,12.04296615111889,1582.0027267590058,None,,,,,001,78,2019_Oct_30_1206,ACPT_experiment_5_30_19,3.1.0,59.95262027264454,
,,,C,U,d,n,,,,,,,,,,3,19,79,15,,,,,,,,,,,,,n,1,1.4845628552211565,1597.3316319137966,None,,,,,001,78,2019_Oct_30_1206,ACPT_experiment_5_30_19,3.1.0,59.95262027264454,
,,,C,G,y,b,,,,,,,,,,4,0,80,14,,,,,,,,,,,,,b,1,1.4177981624798122,1602.1021168681718,None,,,,,001,78,2019_Oct_30_1206,ACPT_experiment_5_30_19,3.1.0,59.95262027264454,
,,,C,U,y,n,,,,,,,,,,4,1,81,8,,,,,,,,,,,,,n,1,0.8837627281973255,1606.8228267733748,None,,,,,001,78,2019_Oct_30_1206,ACPT_experiment_5_30_19,3.1.0,59.95262027264454,
,,,C,D,d,v,,,,,,,,,,4,2,82,9,,,,,,,,,,,,,v,1,5.0707617054740695,1610.9925137137898,None,,,,,001,78,2019_Oct_30_1206,ACPT_experiment_5_30_19,3.1.0,59.95262027264454,
,,,C,D,y,b,,,,,,,,,,4,3,83,2,,,,,,,,,,,,,b,1,1.484521197660797,1619.3492165359976,None,,,,,001,78,2019_Oct_30_1206,ACPT_experiment_5_30_19,3.1.0,59.95262027264454,
,,,C,G,y,b,,,,,,,,,,4,4,84,5,,,,,,,,,,,,,b,1,2.618764798999109,1624.1196773410638,None,,,,,001,78,2019_Oct_30_1206,ACPT_experiment_5_30_19,3.1.0,59.95262027264454,
,,,C,D,d,v,,,,,,,,,,4,5,85,0,,,,,,,,,,,,,v,1,6.7887949614887475,1630.0243953314557,None,,,,,001,78,2019_Oct_30_1206,ACPT_experiment_5_30_19,3.1.0,59.95262027264454,
,,,C,G,d,b,,,,,,,,,,4,6,86,12,,,,,,,,,,,,,v,0,4.403526221925858,1640.099106052904,None,,,,,001,78,2019_Oct_30_1206,ACPT_experiment_5_30_19,3.1.0,59.95262027264454,
,,,C,D,g,b,,,,,,,,,,4,7,87,10,,,,,,,,,,,,,None,0,,1647.7885899942166,None,,,,,001,78,2019_Oct_30_1206,ACPT_experiment_5_30_19,3.1.0,59.95262027264454,
,,,C,D,d,v,,,,,,,,,,4,8,88,18,,,,,,,,,,,,,v,1,16.62996887153895,1711.0223842976347,None,,,,,001,78,2019_Oct_30_1206,ACPT_experiment_5_30_19,3.1.0,59.95262027264454,
,,,C,U,d,n,,,,,,,,,,4,9,89,15,,,,,,,,,,,,,n,1,2.4019335749071615,1730.9382725515306,None,,,,,001,78,2019_Oct_30_1206,ACPT_experiment_5_30_19,3.1.0,59.95262027264454,
,,,C,U,y,n,,,,,,,,,,4,10,90,17,,,,,,,,,,,,,b,0,1.5512551000319945,1736.6094645977146,None,,,,,001,78,2019_Oct_30_1206,ACPT_experiment_5_30_19,3.1.0,59.95262027264454,
,,,C,U,g,n,,,,,,,,,,4,11,91,7,,,,,,,,,,,,,n,1,9.174070945844505,1741.429961868239,None,,,,,001,78,2019_Oct_30_1206,ACPT_experiment_5_30_19,3.1.0,59.95262027264454,
,,,C,D,g,b,,,,,,,,,,4,12,92,1,,,,,,,,,,,,,v,0,8.306640396242074,1753.889931971392,None,,,,,001,78,2019_Oct_30_1206,ACPT_experiment_5_30_19,3.1.0,59.95262027264454,
,,,C,G,g,v,,,,,,,,,,4,13,93,13,,,,,,,,,,,,,v,1,20.5664193576049,1765.4825328038196,None,,,,,001,78,2019_Oct_30_1206,ACPT_experiment_5_30_19,3.1.0,59.95262027264454,
,,,C,G,d,b,,,,,,,,,,4,14,94,3,,,,,,,,,,,,,b,1,2.485327784626861,1789.334889052031,None,,,,,001,78,2019_Oct_30_1206,ACPT_experiment_5_30_19,3.1.0,59.95262027264454,
,,,C,G,g,v,,,,,,,,,,4,15,95,4,,,,,,,,,,,,,v,1,2.7355236959083413,1795.106162783256,None,,,,,001,78,2019_Oct_30_1206,ACPT_experiment_5_30_19,3.1.0,59.95262027264454,
,,,C,D,y,b,,,,,,,,,,4,16,96,11,,,,,,,,,,,,,b,1,2.9023311329274293,1801.127636048158,None,,,,,001,78,2019_Oct_30_1206,ACPT_experiment_5_30_19,3.1.0,59.95262027264454,
,,,C,U,d,n,,,,,,,,,,4,17,97,6,,,,,,,,,,,,,n,1,2.2018025045254035,1807.3159070903575,None,,,,,001,78,2019_Oct_30_1206,ACPT_experiment_5_30_19,3.1.0,59.95262027264454,
,,,C,U,g,n,,,,,,,,,,4,18,98,16,,,,,,,,,,,,,n,1,3.1191430375729396,1812.8036392406966,None,,,,,001,78,2019_Oct_30_1206,ACPT_experiment_5_30_19,3.1.0,59.95262027264454,
,,,C,G,g,v,,,,,,,,,,4,19,99,19,,,,,,,,,,,,,v,1,6.321725866688212,1819.2087393939246,None,,,,,001,78,2019_Oct_30_1206,ACPT_experiment_5_30_19,3.1.0,59.95262027264454,
,,,C,U,d,n,,,,,,,,,,5,0,100,6,,,,,,,,,,,,,n,1,3.18589233513012,1828.8164036605513,None,,,,,001,78,2019_Oct_30_1206,ACPT_experiment_5_30_19,3.1.0,59.95262027264454,
,,,C,D,g,b,,,,,,,,,,5,1,101,1,,,,,,,,,,,,,v,0,30.97474887735916,1835.2882413385478,None,,,,,001,78,2019_Oct_30_1206,ACPT_experiment_5_30_19,3.1.0,59.95262027264454,
,,,C,D,d,v,,,,,,,,,,5,2,102,18,,,,,,,,,,,,,v,1,28.706266806411804,1869.5489201635874,None,,,,,001,78,2019_Oct_30_1206,ACPT_experiment_5_30_19,3.1.0,59.95262027264454,
,,,C,U,g,n,,,,,,,,,,5,3,103,16,,,,,,,,,,,,,n,1,1.9682490904779115,1901.5411223512738,None,,,,,001,78,2019_Oct_30_1206,ACPT_experiment_5_30_19,3.1.0,59.95262027264454,
,,,C,G,y,b,,,,,,,,,,5,4,104,14,,,,,,,,,,,,,b,1,7.355869671002438,1906.7953282555382,None,,,,,001,78,2019_Oct_30_1206,ACPT_experiment_5_30_19,3.1.0,59.95262027264454,
,,,C,G,y,b,,,,,,,,,,5,5,105,5,,,,,,,,,,,,,b,1,1.7013934755796072,1917.4204325503715,None,,,,,001,78,2019_Oct_30_1206,ACPT_experiment_5_30_19,3.1.0,59.95262027264454,
,,,C,U,y,n,,,,,,,,,,5,6,106,17,,,,,,,,,,,,,n,1,2.502015863683482,1922.4077689538872,None,,,,,001,78,2019_Oct_30_1206,ACPT_experiment_5_30_19,3.1.0,59.95262027264454,
,,,C,U,g,n,,,,,,,,,,5,7,107,7,,,,,,,,,,,,,n,1,6.938897414936946,1928.1790366477862,None,,,,,001,78,2019_Oct_30_1206,ACPT_experiment_5_30_19,3.1.0,59.95262027264454,
,,,C,D,d,v,,,,,,,,,,5,8,108,9,,,,,,,,,,,,,v,1,25.72057044293433,1938.4038736701268,None,,,,,001,78,2019_Oct_30_1206,ACPT_experiment_5_30_19,3.1.0,59.95262027264454,
,,,C,G,g,v,,,,,,,,,,5,9,109,13,,,,,,,,,,,,,v,1,5.637831585125241,1967.410374664475,None,,,,,001,78,2019_Oct_30_1206,ACPT_experiment_5_30_19,3.1.0,59.95262027264454,
,,,C,G,d,b,,,,,,,,,,5,10,110,12,,,,,,,,,,,,,b,1,5.521090498334161,1976.3174722675349,None,,,,,001,78,2019_Oct_30_1206,ACPT_experiment_5_30_19,3.1.0,59.95262027264454,
,,,C,G,d,b,,,,,,,,,,5,11,111,3,,,,,,,,,,,,,b,1,1.2343234751824639,1985.107822444611,None,,,,,001,78,2019_Oct_30_1206,ACPT_experiment_5_30_19,3.1.0,59.95262027264454,
,,,C,U,d,n,,,,,,,,,,5,12,112,15,,,,,,,,,,,,,n,1,7.122367574236705,1989.6280909607913,None,,,,,001,78,2019_Oct_30_1206,ACPT_experiment_5_30_19,3.1.0,59.95262027264454,
,,,C,G,g,v,,,,,,,,,,5,13,113,19,,,,,,,,,,,,,v,1,7.656126498917729,2000.0364056890949,None,,,,,001,78,2019_Oct_30_1206,ACPT_experiment_5_30_19,3.1.0,59.95262027264454,
,,,C,D,d,v,,,,,,,,,,5,14,114,0,,,,,,,,,,,,,v,1,7.055643029723797,2010.9784727010147,None,,,,,001,78,2019_Oct_30_1206,ACPT_experiment_5_30_19,3.1.0,59.95262027264454,
,,,C,D,y,b,,,,,,,,,,5,15,115,2,,,,,,,,,,,,,b,1,6.922203600421199,2021.3033865785374,None,,,,,001,78,2019_Oct_30_1206,ACPT_experiment_5_30_19,3.1.0,59.95262027264454,
,,,C,D,g,b,,,,,,,,,,5,16,116,10,,,,,,,,,,,,,b,1,15.49571772354102,2031.4948480465018,None,,,,,001,78,2019_Oct_30_1206,ACPT_experiment_5_30_19,3.1.0,59.95262027264454,
,,,C,G,g,v,,,,,,,,,,5,17,117,4,,,,,,,,,,,,,v,1,8.890434277047461,2050.27651594277,None,,,,,001,78,2019_Oct_30_1206,ACPT_experiment_5_30_19,3.1.0,59.95262027264454,
,,,C,D,y,b,,,,,,,,,,5,18,118,11,,,,,,,,,,,,,b,1,7.5560363616150426,2062.452891034688,None,,,,,001,78,2019_Oct_30_1206,ACPT_experiment_5_30_19,3.1.0,59.95262027264454,
,,,C,U,y,n,,,,,,,,,,5,19,119,8,,,,,,,,,,,,,n,1,4.136634081196462,2073.294893869818,None,,,,,001,78,2019_Oct_30_1206,ACPT_experiment_5_30_19,3.1.0,59.95262027264454,
,,,C,U,d,n,,,,,,,,,,6,0,120,6,,,,,,,,,,,,,n,1,2.5353742116767535,2080.7007918558857,None,,,,,001,78,2019_Oct_30_1206,ACPT_experiment_5_30_19,3.1.0,59.95262027264454,
,,,C,G,g,v,,,,,,,,,,6,1,121,19,,,,,,,,,,,,,v,1,16.229645753766818,2086.5221174477565,None,,,,,001,78,2019_Oct_30_1206,ACPT_experiment_5_30_19,3.1.0,59.95262027264454,
,,,C,G,y,b,,,,,,,,,,6,2,122,14,,,,,,,,,,,,,b,1,2.068351604299096,2106.020979713371,None,,,,,001,78,2019_Oct_30_1206,ACPT_experiment_5_30_19,3.1.0,59.95262027264454,
,,,C,D,g,b,,,,,,,,,,6,3,123,1,,,,,,,,,,,,,b,1,13.961186020929745,2111.375267604545,None,,,,,001,78,2019_Oct_30_1206,ACPT_experiment_5_30_19,3.1.0,59.95262027264454,
,,,C,G,g,v,,,,,,,,,,6,4,124,4,,,,,,,,,,,,,v,1,11.842824213548738,2128.6223603294447,None,,,,,001,78,2019_Oct_30_1206,ACPT_experiment_5_30_19,3.1.0,59.95262027264454,
,,,C,G,d,b,,,,,,,,,,6,5,125,12,,,,,,,,,,,,,b,1,8.957187800733664,2143.7344134313635,None,,,,,001,78,2019_Oct_30_1206,ACPT_experiment_5_30_19,3.1.0,59.95262027264454,
,,,C,U,d,n,,,,,,,,,,6,6,126,15,,,,,,,,,,,,,n,1,1.6680230529309483,2155.9775677056105,None,,,,,001,78,2019_Oct_30_1206,ACPT_experiment_5_30_19,3.1.0,59.95262027264454,
,,,C,D,d,v,,,,,,,,,,6,7,127,0,,,,,,,,,,,,,v,1,7.455970373626769,2160.9314986699765,None,,,,,001,78,2019_Oct_30_1206,ACPT_experiment_5_30_19,3.1.0,59.95262027264454,
,,,C,U,g,n,,,,,,,,,,6,8,128,16,,,,,,,,,,,,,n,1,6.872148117381585,2171.6734201219288,None,,,,,001,78,2019_Oct_30_1206,ACPT_experiment_5_30_19,3.1.0,59.95262027264454,
,,,C,D,y,b,,,,,,,,,,6,9,129,2,,,,,,,,,,,,,b,1,4.47027310455087,2181.831515997107,None,,,,,001,78,2019_Oct_30_1206,ACPT_experiment_5_30_19,3.1.0,59.95262027264454,
,,,C,D,d,v,,,,,,,,,,6,10,130,18,,,,,,,,,,,,,v,1,8.123162690280878,2189.5877072765497,None,,,,,001,78,2019_Oct_30_1206,ACPT_experiment_5_30_19,3.1.0,59.95262027264454,
,,,C,G,d,b,,,,,,,,,,6,11,131,3,,,,,,,,,,,,,b,1,1.6179545896375203,2200.9968258750205,None,,,,,001,78,2019_Oct_30_1206,ACPT_experiment_5_30_19,3.1.0,59.95262027264454,
,,,C,U,g,n,,,,,,,,,,6,12,132,7,,,,,,,,,,,,,n,1,1.4511565104730835,2205.9007384859096,None,,,,,001,78,2019_Oct_30_1206,ACPT_experiment_5_30_19,3.1.0,59.95262027264454,
,,,C,D,d,v,,,,,,,,,,6,13,133,9,,,,,,,,,,,,,v,1,2.2184462092227477,2210.6378412448476,None,,,,,001,78,2019_Oct_30_1206,ACPT_experiment_5_30_19,3.1.0,59.95262027264454,
,,,C,D,y,b,,,,,,,,,,6,14,134,11,,,,,,,,,,,,,n,0,1.3844518891401094,2216.1422361174673,None,,,,,001,78,2019_Oct_30_1206,ACPT_experiment_5_30_19,3.1.0,59.95262027264454,
,,,C,U,y,n,,,,,,,,,,6,15,135,8,,,,,,,,,,,,,n,1,1.9849190575478133,2220.8293178061313,None,,,,,001,78,2019_Oct_30_1206,ACPT_experiment_5_30_19,3.1.0,59.95262027264454,
,,,C,G,y,b,,,,,,,,,,6,16,136,5,,,,,,,,,,,,,b,1,0.9841269601693057,2226.1001861308096,None,,,,,001,78,2019_Oct_30_1206,ACPT_experiment_5_30_19,3.1.0,59.95262027264454,
,,,C,D,g,b,,,,,,,,,,6,17,137,10,,,,,,,,,,,,,b,1,4.16972980544233,2230.387216683309,None,,,,,001,78,2019_Oct_30_1206,ACPT_experiment_5_30_19,3.1.0,59.95262027264454,
,,,C,G,g,v,,,,,,,,,,6,18,138,13,,,,,,,,,,,,,v,1,2.6020942281938915,2237.842901491341,None,,,,,001,78,2019_Oct_30_1206,ACPT_experiment_5_30_19,3.1.0,59.95262027264454,
,,,C,U,y,n,,,,,,,,,,6,19,139,17,,,,,,,,,,,,,n,1,2.301872416777769,2243.7308988011073,None,,,,,001,78,2019_Oct_30_1206,ACPT_experiment_5_30_19,3.1.0,59.95262027264454,
,,,C,D,d,v,,,,,,,,,,7,0,140,0,,,,,,,,,,,,,v,1,6.138230048745754,2249.318736483933,None,,,,,001,78,2019_Oct_30_1206,ACPT_experiment_5_30_19,3.1.0,59.95262027264454,
,,,C,D,d,v,,,,,,,,,,7,1,141,9,,,,,,,,,,,,,v,1,3.3360065613687766,2258.7262283244845,None,,,,,001,78,2019_Oct_30_1206,ACPT_experiment_5_30_19,3.1.0,59.95262027264454,
,,,C,U,y,n,,,,,,,,,,7,2,142,8,,,,,,,,,,,,,v,0,2.568721088746315,2265.348191397773,None,,,,,001,78,2019_Oct_30_1206,ACPT_experiment_5_30_19,3.1.0,59.95262027264454,
,,,C,D,y,b,,,,,,,,,,7,3,143,11,,,,,,,,,,,,,b,1,0.46703347456605115,2271.2028680928443,None,,,,,001,78,2019_Oct_30_1206,ACPT_experiment_5_30_19,3.1.0,59.95262027264454,
,,,C,G,y,b,,,,,,,,,,7,4,144,14,,,,,,,,,,,,,b,1,4.920651101630938,2274.97254676212,None,,,,,001,78,2019_Oct_30_1206,ACPT_experiment_5_30_19,3.1.0,59.95262027264454,
,,,C,U,d,n,,,,,,,,,,7,5,145,15,,,,,,,,,,,,,n,1,1.834799397716779,2283.1790867576046,None,,,,,001,78,2019_Oct_30_1206,ACPT_experiment_5_30_19,3.1.0,59.95262027264454,
,,,C,U,g,n,,,,,,,,,,7,6,146,16,,,,,,,,,,,,,n,1,2.5353464399686345,2288.283160927381,None,,,,,001,78,2019_Oct_30_1206,ACPT_experiment_5_30_19,3.1.0,59.95262027264454,
,,,C,D,g,b,,,,,,,,,,7,7,147,1,,,,,,,,,,,,,b,1,0.9674458240424428,2294.104473538996,None,,,,,001,78,2019_Oct_30_1206,ACPT_experiment_5_30_19,3.1.0,59.95262027264454,
,,,C,G,g,v,,,,,,,,,,7,8,148,4,,,,,,,,,,,,,v,1,6.455041228909977,2298.3578791954887,None,,,,,001,78,2019_Oct_30_1206,ACPT_experiment_5_30_19,3.1.0,59.95262027264454,
,,,C,U,g,n,,,,,,,,,,7,9,149,7,,,,,,,,,,,,,n,1,1.7514127346566966,2308.0989735335634,None,,,,,001,78,2019_Oct_30_1206,ACPT_experiment_5_30_19,3.1.0,59.95262027264454,
,,,C,G,d,b,,,,,,,,,,7,10,150,12,,,,,,,,,,,,,b,1,1.2009708626501379,2313.1363301017527,None,,,,,001,78,2019_Oct_30_1206,ACPT_experiment_5_30_19,3.1.0,59.95262027264454,
,,,C,D,y,b,,,,,,,,,,7,11,151,2,,,,,,,,,,,,,b,1,1.6842528988217964,2317.640329529414,None,,,,,001,78,2019_Oct_30_1206,ACPT_experiment_5_30_19,3.1.0,59.95262027264454,
,,,C,G,d,b,,,,,,,,,,7,12,152,3,,,,,,,,,,,,,b,1,3.3526834713666176,2322.610563391335,None,,,,,001,78,2019_Oct_30_1206,ACPT_experiment_5_30_19,3.1.0,59.95262027264454,
,,,C,U,y,n,,,,,,,,,,7,13,153,17,,,,,,,,,,,,,b,0,1.3510884094175708,2329.249191601836,None,,,,,001,78,2019_Oct_30_1206,ACPT_experiment_5_30_19,3.1.0,59.95262027264454,
,,,C,D,d,v,,,,,,,,,,7,14,154,18,,,,,,,,,,,,,v,1,4.369923060297879,2333.9031570393427,None,,,,,001,78,2019_Oct_30_1206,ACPT_experiment_5_30_19,3.1.0,59.95262027264454,
,,,C,U,d,n,,,,,,,,,,7,15,155,6,,,,,,,,,,,,,n,1,2.201769601089836,2341.5590344984967,None,,,,,001,78,2019_Oct_30_1206,ACPT_experiment_5_30_19,3.1.0,59.95262027264454,
,,,C,D,g,b,,,,,,,,,,7,16,156,10,,,,,,,,,,,,,b,1,1.6680115820090577,2347.0467349528653,None,,,,,001,78,2019_Oct_30_1206,ACPT_experiment_5_30_19,3.1.0,59.95262027264454,
,,,C,G,g,v,,,,,,,,,,7,17,157,13,,,,,,,,,,,,,b,0,11.79276329691129,2352.000694292673,None,,,,,001,78,2019_Oct_30_1206,ACPT_experiment_5_30_19,3.1.0,59.95262027264454,
,,,C,G,y,b,,,,,,,,,,7,18,158,5,,,,,,,,,,,,,b,1,6.03816919248311,2367.062716060861,None,,,,,001,78,2019_Oct_30_1206,ACPT_experiment_5_30_19,3.1.0,59.95262027264454,
,,,C,G,g,v,,,,,,,,,,7,19,159,19,,,,,,,,,,,,,v,1,9.440768986489275,2376.3701431208874,None,,,,,001,78,2019_Oct_30_1206,ACPT_experiment_5_30_19,3.1.0,59.95262027264454,
,,,C,U,d,n,,,,,,,,,,8,0,160,6,,,,,,,,,,,,,n,1,13.24391346818993,2389.0969721594674,None,,,,,001,78,2019_Oct_30_1206,ACPT_experiment_5_30_19,3.1.0,59.95262027264454,
,,,C,D,g,b,,,,,,,,,,8,1,161,1,,,,,,,,,,,,,b,1,10.641827390389153,2405.6268496862403,None,,,,,001,78,2019_Oct_30_1206,ACPT_experiment_5_30_19,3.1.0,59.95262027264454,
,,,C,G,d,b,,,,,,,,,,8,2,162,12,,,,,,,,,,,,,b,1,9.123964145519494,2419.554613967236,None,,,,,001,78,2019_Oct_30_1206,ACPT_experiment_5_30_19,3.1.0,59.95262027264454,
,,,C,G,g,v,,,,,,,,,,8,3,163,4,,,,,,,,,,,,,v,1,1.8014507094467263,2431.947842621358,None,,,,,001,78,2019_Oct_30_1206,ACPT_experiment_5_30_19,3.1.0,59.95262027264454,
,,,C,U,y,n,,,,,,,,,,8,4,164,17,,,,,,,,,,,,,n,1,4.620357747882736,2437.0352465221977,None,,,,,001,78,2019_Oct_30_1206,ACPT_experiment_5_30_19,3.1.0,59.95262027264454,
,,,C,D,d,v,,,,,,,,,,8,5,165,18,,,,,,,,,,,,,v,1,4.403744773182552,2444.941547801748,None,,,,,001,78,2019_Oct_30_1206,ACPT_experiment_5_30_19,3.1.0,59.95262027264454,
,,,C,U,d,n,,,,,,,,,,8,6,166,15,,,,,,,,,,,,,n,1,2.4853392555487517,2452.630999141492,None,,,,,001,78,2019_Oct_30_1206,ACPT_experiment_5_30_19,3.1.0,59.95262027264454,
,,,C,D,g,b,,,,,,,,,,8,7,167,10,,,,,,,,,,,,,b,1,20.63318012608397,2458.4022927958986,None,,,,,001,78,2019_Oct_30_1206,ACPT_experiment_5_30_19,3.1.0,59.95262027264454,
,,,C,G,d,b,,,,,,,,,,8,8,168,3,,,,,,,,,,,,,v,0,8.023037234614094,2482.321433660033,None,,,,,001,78,2019_Oct_30_1206,ACPT_experiment_5_30_19,3.1.0,59.95262027264454,
,,,C,G,g,v,,,,,,,,,,8,9,169,19,,,,,,,,,,,,,v,1,16.496517065714215,2493.6137275547253,None,,,,,001,78,2019_Oct_30_1206,ACPT_experiment_5_30_19,3.1.0,59.95262027264454,
,,,C,D,d,v,,,,,,,,,,8,10,170,0,,,,,,,,,,,,,v,1,18.481431897133007,2513.396186039042,None,,,,,001,78,2019_Oct_30_1206,ACPT_experiment_5_30_19,3.1.0,59.95262027264454,
,,,C,U,g,n,,,,,,,,,,8,11,171,7,,,,,,,,,,,,,n,1,22.818219688691897,2535.163574749963,None,,,,,001,78,2019_Oct_30_1206,ACPT_experiment_5_30_19,3.1.0,59.95262027264454,
,,,C,D,y,b,,,,,,,,,,8,12,172,11,,,,,,,,,,,,,b,1,13.494131717583514,2561.2677101986164,None,,,,,001,78,2019_Oct_30_1206,ACPT_experiment_5_30_19,3.1.0,59.95262027264454,
,,,C,U,y,n,,,,,,,,,,8,13,173,8,,,,,,,,,,,,,n,1,3.1358335315599106,2578.047802050517,None,,,,,001,78,2019_Oct_30_1206,ACPT_experiment_5_30_19,3.1.0,59.95262027264454,
,,,C,D,y,b,,,,,,,,,,8,14,174,2,,,,,,,,,,,,,b,1,1.9682261486323114,2584.469595716396,None,,,,,001,78,2019_Oct_30_1206,ACPT_experiment_5_30_19,3.1.0,59.95262027264454,
,,,C,G,y,b,,,,,,,,,,8,15,175,14,,,,,,,,,,,,,b,1,1.0508400337603234,2589.7237774713494,None,,,,,001,78,2019_Oct_30_1206,ACPT_experiment_5_30_19,3.1.0,59.95262027264454,
,,,C,U,g,n,,,,,,,,,,8,16,176,16,,,,,,,,,,,,,n,1,3.8528422530816897,2594.0775029854585,None,,,,,001,78,2019_Oct_30_1206,ACPT_experiment_5_30_19,3.1.0,59.95262027264454,
,,,C,G,y,b,,,,,,,,,,8,17,177,5,,,,,,,,,,,,,b,1,5.854677600669675,2601.216288468341,None,,,,,001,78,2019_Oct_30_1206,ACPT_experiment_5_30_19,3.1.0,59.95262027264454,
,,,C,D,d,v,,,,,,,,,,8,18,178,9,,,,,,,,,,,,,v,1,2.919012872789608,2610.356903563351,None,,,,,001,78,2019_Oct_30_1206,ACPT_experiment_5_30_19,3.1.0,59.95262027264454,
,,,C,G,g,v,,,,,,,,,,8,19,179,13,,,,,,,,,,,,,v,1,1.6014400837502762,2616.5618623827404,None,,,,,001,78,2019_Oct_30_1206,ACPT_experiment_5_30_19,3.1.0,59.95262027264454,
,,,C,G,d,b,,,,,,,,,,9,0,180,12,,,,,,,,,,,,,v,0,1.0508524102824595,2621.4324136269724,None,,,,,001,78,2019_Oct_30_1206,ACPT_experiment_5_30_19,3.1.0,59.95262027264454,
,,,C,D,g,b,,,,,,,,,,9,1,181,10,,,,,,,,,,,,,b,1,3.5191863252111943,2625.7861886471683,None,,,,,001,78,2019_Oct_30_1206,ACPT_experiment_5_30_19,3.1.0,59.95262027264454,
,,,C,G,g,v,,,,,,,,,,9,2,182,13,,,,,,,,,,,,,v,1,1.4011203468799067,2632.59133571043,None,,,,,001,78,2019_Oct_30_1206,ACPT_experiment_5_30_19,3.1.0,59.95262027264454,
,,,C,U,g,n,,,,,,,,,,9,3,183,16,,,,,,,,,,,,,n,1,1.3508197483388358,2637.2953514992487,None,,,,,001,78,2019_Oct_30_1206,ACPT_experiment_5_30_19,3.1.0,59.95262027264454,
,,,C,U,d,n,,,,,,,,,,9,4,184,15,,,,,,,,,,,,,n,1,1.9515797271360498,2641.915422775938,None,,,,,001,78,2019_Oct_30_1206,ACPT_experiment_5_30_19,3.1.0,59.95262027264454,
,,,C,D,d,v,,,,,,,,,,9,5,185,18,,,,,,,,,,,,,v,1,2.401932065575238,2647.152946940342,None,,,,,001,78,2019_Oct_30_1206,ACPT_experiment_5_30_19,3.1.0,59.95262027264454,
,,,C,G,y,b,,,,,,,,,,9,6,186,14,,,,,,,,,,,,,b,1,0.9340817405845883,2652.840832499175,None,,,,,001,78,2019_Oct_30_1206,ACPT_experiment_5_30_19,3.1.0,59.95262027264454,
,,,C,G,d,b,,,,,,,,,,9,7,187,3,,,,,,,,,,,,,b,1,4.436879136323114,2657.044179955831,None,,,,,001,78,2019_Oct_30_1206,ACPT_experiment_5_30_19,3.1.0,59.95262027264454,
,,,C,G,g,v,,,,,,,,,,9,8,188,4,,,,,,,,,,,,,v,1,5.671204724570998,2664.750329939953,None,,,,,001,78,2019_Oct_30_1206,ACPT_experiment_5_30_19,3.1.0,59.95262027264454,
,,,C,U,y,n,,,,,,,,,,9,9,189,17,,,,,,,,,,,,,b,0,0.8006163507743622,2673.707499024972,None,,,,,001,78,2019_Oct_30_1206,ACPT_experiment_5_30_19,3.1.0,59.95262027264454,
,,,C,U,y,n,,,,,,,,,,9,10,190,8,,,,,,,,,,,,,n,1,1.4344949956594064,2677.7940740007316,None,,,,,001,78,2019_Oct_30_1206,ACPT_experiment_5_30_19,3.1.0,59.95262027264454,
,,,C,U,d,n,,,,,,,,,,9,11,191,6,,,,,,,,,,,,,n,1,1.434505862849619,2682.4978253546024,None,,,,,001,78,2019_Oct_30_1206,ACPT_experiment_5_30_19,3.1.0,59.95262027264454,
,,,C,D,d,v,,,,,,,,,,9,12,192,9,,,,,,,,,,,,,v,1,4.933988162008973,2687.2382758116883,None,,,,,001,78,2019_Oct_30_1206,ACPT_experiment_5_30_19,3.1.0,59.95262027264454,
,,,C,G,g,v,,,,,,,,,,9,13,193,19,,,,,,,,,,,,,v,1,9.674387603676223,2695.4581884877816,None,,,,,001,78,2019_Oct_30_1206,ACPT_experiment_5_30_19,3.1.0,59.95262027264454,
,,,C,U,g,n,,,,,,,,,,9,14,194,7,,,,,,,,,,,,,n,1,8.139848656272079,2708.4018363739333,None,,,,,001,78,2019_Oct_30_1206,ACPT_experiment_5_30_19,3.1.0,59.95262027264454,
,,,C,D,d,v,,,,,,,,,,9,15,195,0,,,,,,,,,,,,,b,0,1.8848551826231414,2719.82764124026,None,,,,,001,78,2019_Oct_30_1206,ACPT_experiment_5_30_19,3.1.0,59.95262027264454,
,,,C,D,y,b,,,,,,,,,,9,16,196,2,,,,,,,,,,,,,b,1,10.441713224523482,2724.9817401027058,None,,,,,001,78,2019_Oct_30_1206,ACPT_experiment_5_30_19,3.1.0,59.95262027264454,
,,,C,D,g,b,,,,,,,,,,9,17,197,1,,,,,,,,,,,,,b,1,17.230442681007844,2738.692682517468,None,,,,,001,78,2019_Oct_30_1206,ACPT_experiment_5_30_19,3.1.0,59.95262027264454,
,,,C,G,y,b,,,,,,,,,,9,18,198,5,0,0,0,0,0,0,0,0,,,,,b,1,1.884842504236076,2759.209072956274,None,,,,,001,78,2019_Oct_30_1206,ACPT_experiment_5_30_19,3.1.0,59.95262027264454,
,,,C,G,y,b,L,G,g,R,c ,,,,,9,18,198,5,0,0,0,0,,,,,0,0,0,19,,,,,,up,22.851574716156392,2792.2521115553236,None,001,78,2019_Oct_30_1206,ACPT_experiment_5_30_19,3.1.0,59.95262027264454,
,,,C,G,y,b,R,D,g,R,i,,,,,9,18,198,5,0,0,0,0,,,,,0,1,1,3,,,,,,down,5.8713575293331814,2816.388037156129,None,001,78,2019_Oct_30_1206,ACPT_experiment_5_30_19,3.1.0,59.95262027264454,
,,,C,G,y,b,L,D,y,R,y,,,,,9,18,198,5,0,0,0,0,,,,,0,2,2,33,,,,,,down,2.8189163962961175,2823.5437525130374,None,001,78,2019_Oct_30_1206,ACPT_experiment_5_30_19,3.1.0,59.95262027264454,
,,,C,G,y,b,L,U,d,L,u,,,,,9,18,198,5,0,0,0,0,,,,,0,3,3,20,,,,,,up,15.262204457720145,2827.647044245158,None,001,78,2019_Oct_30_1206,ACPT_experiment_5_30_19,3.1.0,59.95262027264454,
,,,C,G,y,b,L,G,d,R,i,,,,,9,18,198,5,0,0,0,0,,,,,0,4,4,17,,,,,,down,4.069932478527335,2844.1935850979435,None,001,78,2019_Oct_30_1206,ACPT_experiment_5_30_19,3.1.0,59.95262027264454,
,,,C,G,y,b,R,G,y,L,y,,,,,9,18,198,5,0,0,0,0,,,,,0,5,5,28,,,,,,down,21.417122283653953,2849.5478464248745,None,001,78,2019_Oct_30_1206,ACPT_experiment_5_30_19,3.1.0,59.95262027264454,
,,,C,G,y,b,L,D,d,R,c ,,,,,9,18,198,5,0,0,0,0,,,,,0,6,6,13,,,,,,up,13.477417678019265,2872.249311442788,None,001,78,2019_Oct_30_1206,ACPT_experiment_5_30_19,3.1.0,59.95262027264454,
,,,C,G,y,b,R,D,d,L,c,,,,,9,18,198,5,0,0,0,0,,,,,0,7,7,0,,,,,,up,4.803723461416666,2887.011080307323,None,001,78,2019_Oct_30_1206,ACPT_experiment_5_30_19,3.1.0,59.95262027264454,
,,,C,G,y,b,R,G,y,R,y,,,,,9,18,198,5,0,0,0,0,,,,,0,8,8,29,,,,,,down,1.1175666913404712,2893.0992717775453,None,001,78,2019_Oct_30_1206,ACPT_experiment_5_30_19,3.1.0,59.95262027264454,
,,,C,G,y,b,R,D,y,L,y,,,,,9,18,198,5,0,0,0,0,,,,,0,9,9,26,,,,,,down,1.0173633541453455,2895.501195994596,None,001,78,2019_Oct_30_1206,ACPT_experiment_5_30_19,3.1.0,59.95262027264454,
,,,C,G,y,b,L,U,d,R,u,,,,,9,18,198,5,0,0,0,0,,,,,0,10,10,21,,,,,,down,4.186655151470404,2897.803045167663,None,001,78,2019_Oct_30_1206,ACPT_experiment_5_30_19,3.1.0,59.95262027264454,
,,,C,G,y,b,R,G,g,L,c ,,,,,9,18,198,5,0,0,0,0,,,,,0,11,11,6,,,,,,up,6.054820443840072,2903.2740650896367,None,001,78,2019_Oct_30_1206,ACPT_experiment_5_30_19,3.1.0,59.95262027264454,
,,,C,G,y,b,L,U,g,L,u,,,,,9,18,198,5,0,0,0,0,,,,,0,12,12,22,,,,,,down,2.535337383978913,2910.613272943957,None,001,78,2019_Oct_30_1206,ACPT_experiment_5_30_19,3.1.0,59.95262027264454,
,,,C,G,y,b,R,U,d,R,u,,,,,9,18,198,5,0,0,0,0,,,,,0,13,13,9,,,,,,down,0.9340726845948666,2914.4329729853735,None,001,78,2019_Oct_30_1206,ACPT_experiment_5_30_19,3.1.0,59.95262027264454,
,,,C,G,y,b,R,D,y,R,y,,,,,9,18,198,5,0,0,0,0,,,,,0,14,14,27,,,,,,down,0.9507468777956092,2916.6514330804503,None,001,78,2019_Oct_30_1206,ACPT_experiment_5_30_19,3.1.0,59.95262027264454,
,,,C,G,y,b,L,D,g,L,i,,,,,9,18,198,5,0,0,0,0,,,,,0,15,15,14,,,,,,down,2.218433530835682,2918.886523899969,None,001,78,2019_Oct_30_1206,ACPT_experiment_5_30_19,3.1.0,59.95262027264454,
,,,C,G,y,b,L,U,y,L,u,,,,,9,18,198,5,0,0,0,0,,,,,0,16,16,24,,,,,,down,1.3509109119877394,2922.4061455164983,None,001,78,2019_Oct_30_1206,ACPT_experiment_5_30_19,3.1.0,59.95262027264454,
,,,C,G,y,b,L,D,y,L,y,,,,,9,18,198,5,0,0,0,0,,,,,0,17,17,32,,,,,,down,1.2176200009416789,2925.058128597492,None,001,78,2019_Oct_30_1206,ACPT_experiment_5_30_19,3.1.0,59.95262027264454,
,,,C,G,y,b,R,G,d,R,i,,,,,9,18,198,5,0,0,0,0,,,,,0,18,18,5,,,,,,down,2.135020303532656,2927.5601290659897,None,001,78,2019_Oct_30_1206,ACPT_experiment_5_30_19,3.1.0,59.95262027264454,
,,,C,G,y,b,L,U,y,R,u,,,,,9,18,198,5,0,0,0,0,,,,,0,19,19,25,,,,,,down,0.7005582113088167,2930.9795096120297,None,001,78,2019_Oct_30_1206,ACPT_experiment_5_30_19,3.1.0,59.95262027264454,
,,,C,G,y,b,L,G,y,R,y,,,,,9,18,198,5,0,0,0,0,,,,,0,20,20,35,,,,,,down,1.8348033219790523,2932.964422028518,None,001,78,2019_Oct_30_1206,ACPT_experiment_5_30_19,3.1.0,59.95262027264454,
,,,C,G,y,b,R,U,y,L,u,,,,,9,18,198,5,0,0,0,0,,,,,0,21,21,30,,,,,,down,0.8173210324785032,2936.083593743396,None,001,78,2019_Oct_30_1206,ACPT_experiment_5_30_19,3.1.0,59.95262027264454,
,,,C,G,y,b,R,D,g,L,i,,,,,9,18,198,5,0,0,0,0,,,,,0,22,22,2,,,,,,down,2.235117685626392,2938.1852584157323,None,001,78,2019_Oct_30_1206,ACPT_experiment_5_30_19,3.1.0,59.95262027264454,
,,,C,G,y,b,R,D,d,R,c ,,,,,9,18,198,5,0,0,0,0,,,,,0,23,23,1,,,,,,up,1.5512608354947588,2941.688034680824,None,001,78,2019_Oct_30_1206,ACPT_experiment_5_30_19,3.1.0,59.95262027264454,
,,,C,G,y,b,L,D,d,L,c ,,,,,9,18,198,5,0,0,0,0,,,,,0,24,24,12,,,,,,up,1.9015200179674139,2944.523647608433,None,001,78,2019_Oct_30_1206,ACPT_experiment_5_30_19,3.1.0,59.95262027264454,
,,,C,G,y,b,L,D,g,R,i,,,,,9,18,198,5,0,0,0,0,,,,,0,25,25,15,,,,,,down,1.617960626965214,2947.709525755842,None,001,78,2019_Oct_30_1206,ACPT_experiment_5_30_19,3.1.0,59.95262027264454,
,,,C,G,y,b,L,G,y,L,y,,,,,9,18,198,5,0,0,0,0,,,,,0,26,26,34,,,,,,up,1.651339200005168,2950.6118442103843,None,001,78,2019_Oct_30_1206,ACPT_experiment_5_30_19,3.1.0,59.95262027264454,
,,,C,G,y,b,R,G,d,L,i,,,,,9,18,198,5,0,0,0,0,,,,,0,27,27,4,,,,,,down,3.202545095817186,2953.5475342950385,None,001,78,2019_Oct_30_1206,ACPT_experiment_5_30_19,3.1.0,59.95262027264454,
,,,C,G,y,b,L,G,d,L,i,,,,,9,18,198,5,0,0,0,0,,,,,0,28,28,16,,,,,,down,3.386028839106075,2958.017764232697,None,001,78,2019_Oct_30_1206,ACPT_experiment_5_30_19,3.1.0,59.95262027264454,
,,,C,G,y,b,R,U,g,R,u,,,,,9,18,198,5,0,0,0,0,,,,,0,29,29,11,,,,,,down,1.7680685140076093,2962.6881632759023,None,001,78,2019_Oct_30_1206,ACPT_experiment_5_30_19,3.1.0,59.95262027264454,
,,,C,G,y,b,L,G,g,L,c ,,,,,9,18,198,5,0,0,0,0,,,,,0,30,30,18,,,,,,up,3.6695837021143234,2965.7406028996074,None,001,78,2019_Oct_30_1206,ACPT_experiment_5_30_19,3.1.0,59.95262027264454,
,,,C,G,y,b,L,U,g,R,u,,,,,9,18,198,5,0,0,0,0,,,,,0,31,31,23,,,,,,down,1.4344723556805548,2970.694545636762,None,001,78,2019_Oct_30_1206,ACPT_experiment_5_30_19,3.1.0,59.95262027264454,
,,,C,G,y,b,R,G,g,R,c ,,,,,9,18,198,5,0,0,0,0,,,,,0,32,32,7,,,,,,up,2.1517204572428454,2973.4133818573473,None,001,78,2019_Oct_30_1206,ACPT_experiment_5_30_19,3.1.0,59.95262027264454,
,,,C,G,y,b,R,U,y,R,u,,,,,9,18,198,5,0,0,0,0,,,,,0,33,33,31,,,,,,down,1.1508211972995923,2976.8662203672857,None,001,78,2019_Oct_30_1206,ACPT_experiment_5_30_19,3.1.0,59.95262027264454,
,,,C,G,y,b,R,U,g,L,u,,,,,9,18,198,5,0,0,0,0,,,,,0,34,34,10,,,,,,down,5.337596491588556,2979.318100451471,None,001,78,2019_Oct_30_1206,ACPT_experiment_5_30_19,3.1.0,59.95262027264454,
,,,C,G,y,b,R,U,d,L,u,,,,,9,18,198,5,0,0,0,0,,,,,0,35,35,8,,,,,,down,2.1850730697751715,2985.9400463183765,None,001,78,2019_Oct_30_1206,ACPT_experiment_5_30_19,3.1.0,59.95262027264454,
,,,C,G,y,b,R,D,y,R,y,,,,,9,18,198,5,0,0,0,0,,,,,1,0,36,27,,,,,,down,3.886455678168204,2989.409461216811,None,001,78,2019_Oct_30_1206,ACPT_experiment_5_30_19,3.1.0,59.95262027264454,
,,,C,G,y,b,L,D,d,L,c ,,,,,9,18,198,5,0,0,0,0,,,,,1,1,37,12,,,,,,down,2.1517138161816547,2994.580278043085,None,001,78,2019_Oct_30_1206,ACPT_experiment_5_30_19,3.1.0,59.95262027264454,
,,,C,G,y,b,L,G,d,L,i,,,,,9,18,198,5,0,0,0,0,,,,,1,2,38,16,,,,,,down,1.834798190251604,2998.0163524036407,None,001,78,2019_Oct_30_1206,ACPT_experiment_5_30_19,3.1.0,59.95262027264454,
,,,C,G,y,b,L,U,y,L,u,,,,,9,18,198,5,0,0,0,0,,,,,1,3,39,24,,,,,,down,1.0842004948190151,3001.13550328974,None,001,78,2019_Oct_30_1206,ACPT_experiment_5_30_19,3.1.0,59.95262027264454,
,,,C,G,y,b,R,U,g,R,u,,,,,9,18,198,5,0,0,0,0,,,,,1,4,40,11,,,,,,down,0.6505021245357057,3003.504078516652,None,001,78,2019_Oct_30_1206,ACPT_experiment_5_30_19,3.1.0,59.95262027264454,
,,,C,G,y,b,L,U,y,R,u,,,,,9,18,198,5,0,0,0,0,,,,,1,5,41,25,,,,,,down,1.2009403741449205,3005.438966240471,None,001,78,2019_Oct_30_1206,ACPT_experiment_5_30_19,3.1.0,59.95262027264454,
,,,C,G,y,b,L,G,g,R,c ,,,,,9,18,198,5,0,0,0,0,,,,,1,6,42,19,,,,,,up,2.268478448551832,3007.924257499267,None,001,78,2019_Oct_30_1206,ACPT_experiment_5_30_19,3.1.0,59.95262027264454,
,,,C,G,y,b,R,G,d,L,i,,,,,9,18,198,5,0,0,0,0,,,,,1,7,43,4,,,,,,down,3.436064700832503,3011.4771085668463,None,001,78,2019_Oct_30_1206,ACPT_experiment_5_30_19,3.1.0,59.95262027264454,
,,,C,G,y,b,R,U,y,L,u,,,,,9,18,198,5,0,0,0,0,,,,,1,8,44,30,,,,,,down,2.351877790000799,3016.1975313971225,None,001,78,2019_Oct_30_1206,ACPT_experiment_5_30_19,3.1.0,59.95262027264454,
,,,C,G,y,b,R,U,y,R,u,,,,,9,18,198,5,0,0,0,0,,,,,1,9,45,31,,,,,,down,0.8006368776877935,3019.833769127762,None,001,78,2019_Oct_30_1206,ACPT_experiment_5_30_19,3.1.0,59.95262027264454,
,,,C,G,y,b,R,D,y,L,y,,,,,9,18,198,5,0,0,0,0,,,,,1,10,46,26,,,,,,down,1.4845169715317752,3021.9187671535574,None,001,78,2019_Oct_30_1206,ACPT_experiment_5_30_19,3.1.0,59.95262027264454,
,,,C,G,y,b,L,G,d,R,i,,,,,9,18,198,5,0,0,0,0,,,,,1,11,47,17,,,,,,up,3.2692741683276836,3024.6876440657297,None,001,78,2019_Oct_30_1206,ACPT_experiment_5_30_19,3.1.0,59.95262027264454,
,,,C,G,y,b,R,G,g,R,c ,,,,,9,18,198,5,0,0,0,0,,,,,1,12,48,7,,,,,,up,3.302659684297396,3029.241253119789,None,001,78,2019_Oct_30_1206,ACPT_experiment_5_30_19,3.1.0,59.95262027264454,
,,,C,G,y,b,R,G,y,L,y,,,,,9,18,198,5,0,0,0,0,,,,,1,13,49,28,,,,,,down,2.1183482233955147,3033.8282784801877,None,001,78,2019_Oct_30_1206,ACPT_experiment_5_30_19,3.1.0,59.95262027264454,
,,,C,G,y,b,L,D,d,R,c ,,,,,9,18,198,5,0,0,0,0,,,,,1,14,50,13,,,,,,up,4.15332759384728,3037.230970645306,None,001,78,2019_Oct_30_1206,ACPT_experiment_5_30_19,3.1.0,59.95262027264454,
,,,C,G,y,b,R,G,g,L,c ,,,,,9,18,198,5,0,0,0,0,,,,,1,15,51,6,,,,,,up,2.7188226365979062,3042.6686726693797,None,001,78,2019_Oct_30_1206,ACPT_experiment_5_30_19,3.1.0,59.95262027264454,
,,,C,G,y,b,L,D,g,R,i,,,,,9,18,198,5,0,0,0,0,,,,,1,16,52,15,,,,,,up,1.11756035214421,3046.655173506758,None,001,78,2019_Oct_30_1206,ACPT_experiment_5_30_19,3.1.0,59.95262027264454,
,,,C,G,y,b,R,D,g,R,i,,,,,9,18,198,5,0,0,0,0,,,,,1,17,53,3,,,,,,up,1.1508972676256235,3049.057114628323,None,001,78,2019_Oct_30_1206,ACPT_experiment_5_30_19,3.1.0,59.95262027264454,
,,,C,G,y,b,L,U,g,L,u,,,,,9,18,198,5,0,0,0,0,,,,,1,18,54,22,,,,,,down,2.9523639759900107,3051.4923648936647,None,001,78,2019_Oct_30_1206,ACPT_experiment_5_30_19,3.1.0,59.95262027264454,
,,,C,G,y,b,L,U,d,L,u,,,,,9,18,198,5,0,0,0,0,,,,,1,19,55,20,,,,,,down,0.5671371958542295,3055.7123820155257,None,001,78,2019_Oct_30_1206,ACPT_experiment_5_30_19,3.1.0,59.95262027264454,
,,,C,G,y,b,R,U,g,L,u,,,,,9,18,198,5,0,0,0,0,,,,,1,20,56,10,,,,,,down,0.4170320256071136,3057.563868888564,None,001,78,2019_Oct_30_1206,ACPT_experiment_5_30_19,3.1.0,59.95262027264454,
,,,C,G,y,b,L,G,y,L,y,,,,,9,18,198,5,0,0,0,0,,,,,1,21,57,34,,,,,,down,0.9507592543177452,3059.265237309236,None,001,78,2019_Oct_30_1206,ACPT_experiment_5_30_19,3.1.0,59.95262027264454,
,,,C,G,y,b,R,U,d,R,u,,,,,9,18,198,5,0,0,0,0,,,,,1,22,58,9,,,,,,down,0.7673081125976751,3061.5003565041943,None,001,78,2019_Oct_30_1206,ACPT_experiment_5_30_19,3.1.0,59.95262027264454,
,,,C,G,y,b,R,G,d,R,i,,,,,9,18,198,5,0,0,0,0,,,,,1,23,59,5,,,,,,down,2.3852128942835407,3063.552010973447,None,001,78,2019_Oct_30_1206,ACPT_experiment_5_30_19,3.1.0,59.95262027264454,
,,,C,G,y,b,L,D,y,L,y,,,,,9,18,198,5,0,0,0,0,,,,,1,24,60,32,,,,,,down,1.8848065821348428,3067.221619126737,None,001,78,2019_Oct_30_1206,ACPT_experiment_5_30_19,3.1.0,59.95262027264454,
,,,C,G,y,b,L,U,g,R,u,,,,,9,18,198,5,0,0,0,0,,,,,1,25,61,23,,,,,,down,2.235165380514445,3070.3907883663114,None,001,78,2019_Oct_30_1206,ACPT_experiment_5_30_19,3.1.0,59.95262027264454,
,,,C,G,y,b,L,G,g,L,c ,,,,,9,18,198,5,0,0,0,0,,,,,1,26,62,18,,,,,,up,2.6520020985753945,3073.91026508698,None,001,78,2019_Oct_30_1206,ACPT_experiment_5_30_19,3.1.0,59.95262027264454,
,,,C,G,y,b,R,D,d,R,c ,,,,,9,18,198,5,0,0,0,0,,,,,1,27,63,1,,,,,,down,1.217630566265143,3077.846744854084,None,001,78,2019_Oct_30_1206,ACPT_experiment_5_30_19,3.1.0,59.95262027264454,
,,,C,G,y,b,L,U,d,R,u,,,,,9,18,198,5,0,0,0,0,,,,,1,28,64,21,,,,,,down,7.739511954512636,3080.332055734193,None,001,78,2019_Oct_30_1206,ACPT_experiment_5_30_19,3.1.0,59.95262027264454,
,,,C,G,y,b,L,G,y,R,y,,,,,9,18,198,5,0,0,0,0,,,,,1,29,65,35,,,,,,down,0.9174163015086378,3089.355925214416,None,001,78,2019_Oct_30_1206,ACPT_experiment_5_30_19,3.1.0,59.95262027264454,
,,,C,G,y,b,R,D,g,L,i,,,,,9,18,198,5,0,0,0,0,,,,,1,30,66,2,,,,,,down,0.21687469285097905,3091.55768183525,None,001,78,2019_Oct_30_1206,ACPT_experiment_5_30_19,3.1.0,59.95262027264454,
,,,C,G,y,b,R,U,d,L,u,,,,,9,18,198,5,0,0,0,0,,,,,1,31,67,8,,,,,,down,1.3510328660049709,3093.0589022810227,None,001,78,2019_Oct_30_1206,ACPT_experiment_5_30_19,3.1.0,59.95262027264454,
,,,C,G,y,b,R,G,y,R,y,,,,,9,18,198,5,0,0,0,0,,,,,1,32,68,29,,,,,,down,0.7505684143925464,3095.694322557508,None,001,78,2019_Oct_30_1206,ACPT_experiment_5_30_19,3.1.0,59.95262027264454,
,,,C,G,y,b,R,D,d,L,c,,,,,9,18,198,5,0,0,0,0,,,,,1,33,69,0,,,,,,down,1.0174521028620802,3097.7292868346403,None,001,78,2019_Oct_30_1206,ACPT_experiment_5_30_19,3.1.0,59.95262027264454,
,,,C,G,y,b,L,D,y,R,y,,,,,9,18,198,5,0,0,0,0,,,,,1,34,70,33,,,,,,down,1.1509005881562189,3100.0311151789274,None,001,78,2019_Oct_30_1206,ACPT_experiment_5_30_19,3.1.0,59.95262027264454,
,,,C,G,y,b,L,D,g,L,i,,,,,9,18,198,5,0,0,0,0,,,,,1,35,71,14,,,,,,up,1.0174539140589332,3102.466398347703,None,001,78,2019_Oct_30_1206,ACPT_experiment_5_30_19,3.1.0,59.95262027264454,
,,,C,G,y,b,,,,,,,,,,9,18,198,5,1,0,1,0,0,0,0,0,,,,,,,,,,,,,,001,78,2019_Oct_30_1206,ACPT_experiment_5_30_19,3.1.0,59.95262027264454,
,,,C,G,y,b,L,D,g,L,i,,,,,9,18,198,5,1,0,1,0,,,,,0,0,0,14,,,,,,down,8.723528129721672,3115.6936173976455,None,001,78,2019_Oct_30_1206,ACPT_experiment_5_30_19,3.1.0,59.95262027264454,
,,,C,G,y,b,L,G,d,R,i,,,,,9,18,198,5,1,0,1,0,,,,,0,1,1,17,,,,,,up,1.5678991065960872,3125.7016228940292,None,001,78,2019_Oct_30_1206,ACPT_experiment_5_30_19,3.1.0,59.95262027264454,
,,,C,G,y,b,R,U,d,R,u,,,,,9,18,198,5,1,0,1,0,,,,,0,2,2,9,,,,,,down,2.702155990056781,3128.5538849599297,None,001,78,2019_Oct_30_1206,ACPT_experiment_5_30_19,3.1.0,59.95262027264454,
,,,C,G,y,b,L,U,d,L,u,,,,,9,18,198,5,1,0,1,0,,,,,0,3,3,20,,,,,,down,2.0681412034336972,3132.557222394621,None,001,78,2019_Oct_30_1206,ACPT_experiment_5_30_19,3.1.0,59.95262027264454,
,,,C,G,y,b,L,U,y,L,u,,,,,9,18,198,5,1,0,1,0,,,,,0,4,4,24,,,,,,down,0.9174199239059817,3135.909738028281,None,001,78,2019_Oct_30_1206,ACPT_experiment_5_30_19,3.1.0,59.95262027264454,
,,,C,G,y,b,R,U,g,R,u,,,,,9,18,198,5,1,0,1,0,,,,,0,5,5,11,,,,,,down,1.234319852786939,3138.1115124592334,None,001,78,2019_Oct_30_1206,ACPT_experiment_5_30_19,3.1.0,59.95262027264454,
,,,C,G,y,b,L,G,g,L,c ,,,,,9,18,198,5,1,0,1,0,,,,,0,6,6,18,,,,,,up,1.5512167630022304,3140.630202516116,None,001,78,2019_Oct_30_1206,ACPT_experiment_5_30_19,3.1.0,59.95262027264454,
,,,C,G,y,b,L,U,g,L,u,,,,,9,18,198,5,1,0,1,0,,,,,0,7,7,22,,,,,,up,7.806276345387232,3143.4657906906823,None,001,78,2019_Oct_30_1206,ACPT_experiment_5_30_19,3.1.0,59.95262027264454,
,,,C,G,y,b,R,D,y,R,y,,,,,9,18,198,5,1,0,1,0,,,,,0,8,8,27,,,,,,down,4.486909564455345,3152.556378979957,None,001,78,2019_Oct_30_1206,ACPT_experiment_5_30_19,3.1.0,59.95262027264454,
,,,C,G,y,b,L,U,g,R,u,,,,,9,18,198,5,1,0,1,0,,,,,0,9,9,23,,,,,,down,3.1191526972961583,3158.3276502962517,None,001,78,2019_Oct_30_1206,ACPT_experiment_5_30_19,3.1.0,59.95262027264454,
,,,C,G,y,b,R,U,y,R,u,,,,,9,18,198,5,1,0,1,0,,,,,0,10,10,31,,,,,,down,0.5837938808072067,3162.7311644435204,None,001,78,2019_Oct_30_1206,ACPT_experiment_5_30_19,3.1.0,59.95262027264454,
,,,C,G,y,b,L,D,y,R,y,,,,,9,18,198,5,1,0,1,0,,,,,0,11,11,33,,,,,,down,5.237330366187962,3164.6161415801607,None,001,78,2019_Oct_30_1206,ACPT_experiment_5_30_19,3.1.0,59.95262027264454,
,,,C,G,y,b,L,D,d,L,c ,,,,,9,18,198,5,1,0,1,0,,,,,0,12,12,12,,,,,,down,3.2525854855412035,3171.154558001209,None,001,78,2019_Oct_30_1206,ACPT_experiment_5_30_19,3.1.0,59.95262027264454,
,,,C,G,y,b,R,D,g,R,i,,,,,9,18,198,5,1,0,1,0,,,,,0,13,13,3,,,,,,down,6.104888001535073,3175.6915079553864,None,001,78,2019_Oct_30_1206,ACPT_experiment_5_30_19,3.1.0,59.95262027264454,
,,,C,G,y,b,R,G,d,R,i,,,,,9,18,198,5,1,0,1,0,,,,,0,14,14,5,,,,,,down,2.185098124684373,3183.080719371731,None,001,78,2019_Oct_30_1206,ACPT_experiment_5_30_19,3.1.0,59.95262027264454,
,,,C,G,y,b,L,G,y,L,y,,,,,9,18,198,5,1,0,1,0,,,,,0,15,15,34,,,,,,down,1.5512182723341539,3186.5501934359754,None,001,78,2019_Oct_30_1206,ACPT_experiment_5_30_19,3.1.0,59.95262027264454,
,,,C,G,y,b,L,G,g,R,c ,,,,,9,18,198,5,1,0,1,0,,,,,0,16,16,19,,,,,,up,20.533050746153094,3189.385787044136,None,001,78,2019_Oct_30_1206,ACPT_experiment_5_30_19,3.1.0,59.95262027264454,
,,,C,G,y,b,L,D,g,R,i,,,,,9,18,198,5,1,0,1,0,,,,,0,17,17,15,,,,,,down,8.990511434094515,3211.203188976805,None,001,78,2019_Oct_30_1206,ACPT_experiment_5_30_19,3.1.0,59.95262027264454,
,,,C,G,y,b,R,G,d,L,i,,,,,9,18,198,5,1,0,1,0,,,,,0,18,18,4,,,,,,down,24.85319483301282,3221.4780712187303,None,001,78,2019_Oct_30_1206,ACPT_experiment_5_30_19,3.1.0,59.95262027264454,
,,,C,G,y,b,R,G,g,L,c ,,,,,9,18,198,5,1,0,1,0,,,,,0,19,19,6,,,,,,up,0.7839744572756899,3247.598885690447,None,001,78,2019_Oct_30_1206,ACPT_experiment_5_30_19,3.1.0,59.95262027264454,
,,,C,G,y,b,R,U,g,L,u,,,,,9,18,198,5,1,0,1,0,,,,,0,20,20,10,,,,,,up,0.6005148632957571,3249.6505392540994,None,001,78,2019_Oct_30_1206,ACPT_experiment_5_30_19,3.1.0,59.95262027264454,
,,,C,G,y,b,R,D,d,L,c,,,,,9,18,198,5,1,0,1,0,,,,,0,21,21,0,,,,,,down,1.200982635436958,3251.5353787396716,None,001,78,2019_Oct_30_1206,ACPT_experiment_5_30_19,3.1.0,59.95262027264454,
,,,C,G,y,b,R,U,y,L,u,,,,,9,18,198,5,1,0,1,0,,,,,0,22,22,30,,,,,,down,0.9174199239059817,3254.0206730171294,None,001,78,2019_Oct_30_1206,ACPT_experiment_5_30_19,3.1.0,59.95262027264454,
,,,C,G,y,b,R,U,d,L,u,,,,,9,18,198,5,1,0,1,0,,,,,0,23,23,8,,,,,,down,0.5337709993345925,3256.222455598473,None,001,78,2019_Oct_30_1206,ACPT_experiment_5_30_19,3.1.0,59.95262027264454,
,,,C,G,y,b,R,G,g,R,c ,,,,,9,18,198,5,1,0,1,0,,,,,0,24,24,7,,,,,,down,0.5671006700231374,3258.040585029118,None,001,78,2019_Oct_30_1206,ACPT_experiment_5_30_19,3.1.0,59.95262027264454,
,,,C,G,y,b,L,G,d,L,i,,,,,9,18,198,5,1,0,1,0,,,,,0,25,25,16,,,,,,down,3.019077351447777,3259.892045639782,None,001,78,2019_Oct_30_1206,ACPT_experiment_5_30_19,3.1.0,59.95262027264454,
,,,C,G,y,b,L,D,y,L,y,,,,,9,18,198,5,1,0,1,0,,,,,0,26,26,32,,,,,,down,0.9841429590869666,3264.1954838374704,None,001,78,2019_Oct_30_1206,ACPT_experiment_5_30_19,3.1.0,59.95262027264454,
,,,C,G,y,b,R,D,d,R,c ,,,,,9,18,198,5,1,0,1,0,,,,,0,27,27,1,,,,,,up,5.320725481506088,3266.4807804694856,None,001,78,2019_Oct_30_1206,ACPT_experiment_5_30_19,3.1.0,59.95262027264454,
,,,C,G,y,b,L,U,y,R,u,,,,,9,18,198,5,1,0,1,0,,,,,0,28,28,25,,,,,,down,0.8673396878220956,3273.1026010618452,None,001,78,2019_Oct_30_1206,ACPT_experiment_5_30_19,3.1.0,59.95262027264454,
,,,C,G,y,b,R,G,y,L,y,,,,,9,18,198,5,1,0,1,0,,,,,0,29,29,28,,,,,,down,4.270076227297977,3275.2543112556314,None,001,78,2019_Oct_30_1206,ACPT_experiment_5_30_19,3.1.0,59.95262027264454,
,,,C,G,y,b,L,D,d,R,c ,,,,,9,18,198,5,1,0,1,0,,,,,0,30,30,13,,,,,,up,3.336011693096225,3280.8087495366353,None,001,78,2019_Oct_30_1206,ACPT_experiment_5_30_19,3.1.0,59.95262027264454,
,,,C,G,y,b,R,D,g,L,i,,,,,9,18,198,5,1,0,1,0,,,,,0,31,31,2,,,,,,down,6.338435981990187,3285.4290967191946,None,001,78,2019_Oct_30_1206,ACPT_experiment_5_30_19,3.1.0,59.95262027264454,
,,,C,G,y,b,L,U,d,R,u,,,,,9,18,198,5,1,0,1,0,,,,,0,32,32,21,,,,,,down,1.017474139107435,3293.051850984265,None,001,78,2019_Oct_30_1206,ACPT_experiment_5_30_19,3.1.0,59.95262027264454,
,,,C,G,y,b,L,G,y,R,y,,,,,9,18,198,5,1,0,1,0,,,,,0,33,33,35,,,,,,down,1.0174641775174678,3295.370374350535,None,001,78,2019_Oct_30_1206,ACPT_experiment_5_30_19,3.1.0,59.95262027264454,
,,,C,G,y,b,R,D,y,L,y,,,,,9,18,198,5,1,0,1,0,,,,,0,34,34,26,,,,,,down,0.6504957853412634,3297.705581267862,None,001,78,2019_Oct_30_1206,ACPT_experiment_5_30_19,3.1.0,59.95262027264454,
,,,C,G,y,b,R,G,y,R,y,,,,,9,18,198,5,1,0,1,0,,,,,0,35,35,29,,,,,,down,1.050823732975914,3299.6404593319576,None,001,78,2019_Oct_30_1206,ACPT_experiment_5_30_19,3.1.0,59.95262027264454,
,,,C,G,y,b,R,G,y,R,y,,,,,9,18,198,5,1,0,1,0,,,,,1,0,36,29,,,,,,down,0.5170780904172716,3301.9923132745125,None,001,78,2019_Oct_30_1206,ACPT_experiment_5_30_19,3.1.0,59.95262027264454,
,,,C,G,y,b,R,D,y,L,y,,,,,9,18,198,5,1,0,1,0,,,,,1,1,37,26,,,,,,down,1.0341296165934182,3303.7937848127394,None,001,78,2019_Oct_30_1206,ACPT_experiment_5_30_19,3.1.0,59.95262027264454,
,,,C,G,y,b,R,D,d,R,c ,,,,,9,18,198,5,1,0,1,0,,,,,1,2,38,1,,,,,,up,2.051633338605825,3306.128958222901,None,001,78,2019_Oct_30_1206,ACPT_experiment_5_30_19,3.1.0,59.95262027264454,
,,,C,G,y,b,R,D,d,L,c,,,,,9,18,198,5,1,0,1,0,,,,,1,3,39,0,,,,,,up,5.354294532233325,3309.4482507447037,None,001,78,2019_Oct_30_1206,ACPT_experiment_5_30_19,3.1.0,59.95262027264454,
,,,C,G,y,b,R,D,g,R,i,,,,,9,18,198,5,1,0,1,0,,,,,1,4,40,3,,,,,,down,1.3510992766077834,3316.0701993284065,None,001,78,2019_Oct_30_1206,ACPT_experiment_5_30_19,3.1.0,59.95262027264454,
,,,C,G,y,b,R,U,g,L,u,,,,,9,18,198,5,1,0,1,0,,,,,1,5,41,10,,,,,,down,6.088171848907223,3318.7056784688366,None,001,78,2019_Oct_30_1206,ACPT_experiment_5_30_19,3.1.0,59.95262027264454,
,,,C,G,y,b,L,D,d,L,c ,,,,,9,18,198,5,1,0,1,0,,,,,1,6,42,12,,,,,,up,2.1350360005853872,3326.0782117677163,None,001,78,2019_Oct_30_1206,ACPT_experiment_5_30_19,3.1.0,59.95262027264454,
,,,C,G,y,b,L,U,d,R,u,,,,,9,18,198,5,1,0,1,0,,,,,1,7,43,21,,,,,,down,4.803860810619881,3329.4809042347015,None,001,78,2019_Oct_30_1206,ACPT_experiment_5_30_19,3.1.0,59.95262027264454,
,,,C,G,y,b,L,D,y,L,y,,,,,9,18,198,5,1,0,1,0,,,,,1,8,44,32,,,,,,down,0.0667142810561927,3335.569123174765,None,001,78,2019_Oct_30_1206,ACPT_experiment_5_30_19,3.1.0,59.95262027264454,
,,,C,G,y,b,L,G,g,R,c ,,,,,9,18,198,5,1,0,1,0,,,,,1,9,45,19,,,,,,up,7.922966416761483,3336.920223960705,None,001,78,2019_Oct_30_1206,ACPT_experiment_5_30_19,3.1.0,59.95262027264454,
,,,C,G,y,b,L,G,y,R,y,,,,,9,18,198,5,1,0,1,0,,,,,1,10,46,35,,,,,,down,0.8173143914191314,3346.1275469975762,None,001,78,2019_Oct_30_1206,ACPT_experiment_5_30_19,3.1.0,59.95262027264454,
,,,C,G,y,b,L,D,d,R,c ,,,,,9,18,198,5,1,0,1,0,,,,,1,11,47,13,,,,,,up,1.8514554789362592,3348.2292415546844,None,001,78,2019_Oct_30_1206,ACPT_experiment_5_30_19,3.1.0,59.95262027264454,
,,,C,G,y,b,L,G,d,R,i,,,,,9,18,198,5,1,0,1,0,,,,,1,12,48,17,,,,,,down,1.5512348749853118,3351.365061804122,None,001,78,2019_Oct_30_1206,ACPT_experiment_5_30_19,3.1.0,59.95262027264454,
,,,C,G,y,b,L,U,y,L,u,,,,,9,18,198,5,1,0,1,0,,,,,1,13,49,24,,,,,,down,0.8506763618097466,3354.200657827213,None,001,78,2019_Oct_30_1206,ACPT_experiment_5_30_19,3.1.0,59.95262027264454,
,,,C,G,y,b,L,U,g,L,u,,,,,9,18,198,5,1,0,1,0,,,,,1,14,50,22,,,,,,down,1.0174744409741834,3356.3356968464623,None,001,78,2019_Oct_30_1206,ACPT_experiment_5_30_19,3.1.0,59.95262027264454,
,,,C,G,y,b,R,G,d,R,i,,,,,9,18,198,5,1,0,1,0,,,,,1,15,51,5,,,,,,down,1.7180248037566344,3358.6375451139293,None,001,78,2019_Oct_30_1206,ACPT_experiment_5_30_19,3.1.0,59.95262027264454,
,,,C,G,y,b,L,G,d,L,i,,,,,9,18,198,5,1,0,1,0,,,,,1,16,52,16,,,,,,down,0.8173008074318204,3361.6399425367154,None,001,78,2019_Oct_30_1206,ACPT_experiment_5_30_19,3.1.0,59.95262027264454,
,,,C,G,y,b,R,G,g,L,c ,,,,,9,18,198,5,1,0,1,0,,,,,1,17,53,6,,,,,,up,0.9174341116249707,3363.741605397853,None,001,78,2019_Oct_30_1206,ACPT_experiment_5_30_19,3.1.0,59.95262027264454,
,,,C,G,y,b,R,U,g,R,u,,,,,9,18,198,5,1,0,1,0,,,,,1,18,54,11,,,,,,down,1.2676673335899977,3365.943381941869,None,001,78,2019_Oct_30_1206,ACPT_experiment_5_30_19,3.1.0,59.95262027264454,
,,,C,G,y,b,R,D,y,R,y,,,,,9,18,198,5,1,0,1,0,,,,,1,19,55,27,,,,,,down,1.0675208680240758,3368.4953983489113,None,001,78,2019_Oct_30_1206,ACPT_experiment_5_30_19,3.1.0,59.95262027264454,
,,,C,G,y,b,R,D,g,L,i,,,,,9,18,198,5,1,0,1,0,,,,,1,20,56,2,,,,,,down,0.7505998084961902,3370.847274931445,None,001,78,2019_Oct_30_1206,ACPT_experiment_5_30_19,3.1.0,59.95262027264454,
,,,C,G,y,b,R,U,y,L,u,,,,,9,18,198,5,1,0,1,0,,,,,1,21,57,30,,,,,,down,0.5838041442621034,3372.8822334731167,None,001,78,2019_Oct_30_1206,ACPT_experiment_5_30_19,3.1.0,59.95262027264454,
,,,C,G,y,b,L,U,g,R,u,,,,,9,18,198,5,1,0,1,0,,,,,1,22,58,23,,,,,,down,0.767269775567911,3374.7504038972156,None,001,78,2019_Oct_30_1206,ACPT_experiment_5_30_19,3.1.0,59.95262027264454,
,,,C,G,y,b,R,G,y,L,y,,,,,9,18,198,5,1,0,1,0,,,,,1,23,59,28,,,,,,down,0.5337604340111284,3376.80202817983,None,001,78,2019_Oct_30_1206,ACPT_experiment_5_30_19,3.1.0,59.95262027264454,
,,,C,G,y,b,R,G,g,R,c ,,,,,9,18,198,5,1,0,1,0,,,,,1,24,60,7,,,,,,down,0.48371581816172693,3378.6201515731454,None,001,78,2019_Oct_30_1206,ACPT_experiment_5_30_19,3.1.0,59.95262027264454,
,,,C,G,y,b,L,U,y,R,u,,,,,9,18,198,5,1,0,1,0,,,,,1,25,61,25,,,,,,down,2.3684013518777647,3380.4217254440746,None,001,78,2019_Oct_30_1206,ACPT_experiment_5_30_19,3.1.0,59.95262027264454,
,,,C,G,y,b,R,U,d,R,u,,,,,9,18,198,5,1,0,1,0,,,,,1,26,62,9,,,,,,down,2.1016688984655048,3384.09118809777,None,001,78,2019_Oct_30_1206,ACPT_experiment_5_30_19,3.1.0,59.95262027264454,
,,,C,G,y,b,L,U,d,L,u,,,,,9,18,198,5,1,0,1,0,,,,,1,27,63,20,,,,,,down,4.953956321141959,3387.4605373100812,None,001,78,2019_Oct_30_1206,ACPT_experiment_5_30_19,3.1.0,59.95262027264454,
,,,C,G,y,b,R,U,d,L,u,,,,,9,18,198,5,1,0,1,0,,,,,1,28,64,8,,,,,,down,1.1342372621438699,3393.698851760665,None,001,78,2019_Oct_30_1206,ACPT_experiment_5_30_19,3.1.0,59.95262027264454,
,,,C,G,y,b,R,U,y,R,u,,,,,9,18,198,5,1,0,1,0,,,,,1,29,65,31,,,,,,down,0.7005874923488591,3396.100750620938,None,001,78,2019_Oct_30_1206,ACPT_experiment_5_30_19,3.1.0,59.95262027264454,
,,,C,G,y,b,L,D,g,L,i,,,,,9,18,198,5,1,0,1,0,,,,,1,30,66,14,,,,,,down,3.235899519550003,3398.08570288379,None,001,78,2019_Oct_30_1206,ACPT_experiment_5_30_19,3.1.0,59.95262027264454,
,,,C,G,y,b,L,G,y,L,y,,,,,9,18,198,5,1,0,1,0,,,,,1,31,67,34,,,,,,down,0.8673632333993737,3402.6059593253167,None,001,78,2019_Oct_30_1206,ACPT_experiment_5_30_19,3.1.0,59.95262027264454,
,,,C,G,y,b,L,G,g,L,c ,,,,,9,18,198,5,1,0,1,0,,,,,1,32,68,18,,,,,,up,3.569535524238745,3404.7576698209696,None,001,78,2019_Oct_30_1206,ACPT_experiment_5_30_19,3.1.0,59.95262027264454,
,,,C,G,y,b,L,D,g,R,i,,,,,9,18,198,5,1,0,1,0,,,,,1,33,69,15,,,,,,down,2.5019956386349804,3409.6115556261257,None,001,78,2019_Oct_30_1206,ACPT_experiment_5_30_19,3.1.0,59.95262027264454,
,,,C,G,y,b,R,G,d,L,i,,,,,9,18,198,5,1,0,1,0,,,,,1,34,70,4,,,,,,down,4.253394789302547,3413.397913016598,None,001,78,2019_Oct_30_1206,ACPT_experiment_5_30_19,3.1.0,59.95262027264454,
,,,C,G,y,b,L,D,y,R,y,,,,,9,18,198,5,1,0,1,0,,,,,1,35,71,33,,,,,,down,1.484532970451255,3418.9523419397456,None,001,78,2019_Oct_30_1206,ACPT_experiment_5_30_19,3.1.0,59.95262027264454,
,,,C,G,y,b,,,,,,,,,,9,18,198,5,2,0,2,0,0,0,0,0,,,,,,,,,,,,,,001,78,2019_Oct_30_1206,ACPT_experiment_5_30_19,3.1.0,59.95262027264454,
,,,C,G,y,b,R,D,d,R,c ,,,,,9,18,198,5,2,0,2,0,,,,,0,0,0,1,,,,,,down,1.5009363895096612,3430.2616272892037,None,001,78,2019_Oct_30_1206,ACPT_experiment_5_30_19,3.1.0,59.95262027264454,
,,,C,G,y,b,R,D,g,L,i,,,,,9,18,198,5,2,0,2,0,,,,,0,1,1,2,,,,,,down,3.953159695767681,3433.030249728018,None,001,78,2019_Oct_30_1206,ACPT_experiment_5_30_19,3.1.0,59.95262027264454,
,,,C,G,y,b,R,U,g,R,u,,,,,9,18,198,5,2,0,2,0,,,,,0,2,2,11,,,,,,down,1.4011088759598351,3438.267772684957,None,001,78,2019_Oct_30_1206,ACPT_experiment_5_30_19,3.1.0,59.95262027264454,
,,,C,G,y,b,R,U,d,L,u,,,,,9,18,198,5,2,0,2,0,,,,,0,3,3,8,,,,,,down,0.600464753477354,3440.9532442183527,None,001,78,2019_Oct_30_1206,ACPT_experiment_5_30_19,3.1.0,59.95262027264454,
,,,C,G,y,b,R,D,d,L,c,,,,,9,18,198,5,2,0,2,0,,,,,0,4,4,0,,,,,,up,7.405916701784008,3442.838071025536,None,001,78,2019_Oct_30_1206,ACPT_experiment_5_30_19,3.1.0,59.95262027264454,
,,,C,G,y,b,L,G,d,R,i,,,,,9,18,198,5,2,0,2,0,,,,,0,5,5,17,,,,,,up,6.171570284755944,3451.5283772508656,None,001,78,2019_Oct_30_1206,ACPT_experiment_5_30_19,3.1.0,59.95262027264454,
,,,C,G,y,b,R,G,y,L,y,,,,,9,18,198,5,2,0,2,0,,,,,0,6,6,28,,,,,,down,1.18430270677527,3458.9842941941433,None,001,78,2019_Oct_30_1206,ACPT_experiment_5_30_19,3.1.0,59.95262027264454,
,,,C,G,y,b,L,D,d,R,c ,,,,,9,18,198,5,2,0,2,0,,,,,0,7,7,13,,,,,,up,1.2343047594677046,3461.4529492948996,None,001,78,2019_Oct_30_1206,ACPT_experiment_5_30_19,3.1.0,59.95262027264454,
,,,C,G,y,b,R,G,d,R,i,,,,,9,18,198,5,2,0,2,0,,,,,0,8,8,5,,,,,,down,1.3344256871387188,3463.9715964867582,None,001,78,2019_Oct_30_1206,ACPT_experiment_5_30_19,3.1.0,59.95262027264454,
,,,C,G,y,b,L,D,d,L,c ,,,,,9,18,198,5,2,0,2,0,,,,,0,9,9,12,,,,,,up,3.5528353705285554,3466.59036611562,None,001,78,2019_Oct_30_1206,ACPT_experiment_5_30_19,3.1.0,59.95262027264454,
,,,C,G,y,b,L,D,y,R,y,,,,,9,18,198,5,2,0,2,0,,,,,0,10,10,33,,,,,,down,0.9340784200558119,3471.4275623323892,None,001,78,2019_Oct_30_1206,ACPT_experiment_5_30_19,3.1.0,59.95262027264454,
,,,C,G,y,b,L,U,y,L,u,,,,,9,18,198,5,2,0,2,0,,,,,0,11,11,24,,,,,,down,1.2176387166564382,3473.6460022024175,None,001,78,2019_Oct_30_1206,ACPT_experiment_5_30_19,3.1.0,59.95262027264454,
,,,C,G,y,b,R,G,y,R,y,,,,,9,18,198,5,2,0,2,0,,,,,0,12,12,29,,,,,,down,0.934062421136332,3476.1480105194396,None,001,78,2019_Oct_30_1206,ACPT_experiment_5_30_19,3.1.0,59.95262027264454,
,,,C,G,y,b,L,U,g,R,u,,,,,9,18,198,5,2,0,2,0,,,,,0,13,13,23,,,,,,down,1.4177990680782386,3478.366441635343,None,001,78,2019_Oct_30_1206,ACPT_experiment_5_30_19,3.1.0,59.95262027264454,
,,,C,G,y,b,L,U,d,L,u,,,,,9,18,198,5,2,0,2,0,,,,,0,14,14,20,,,,,,down,0.8173285791399394,3481.051894453024,None,001,78,2019_Oct_30_1206,ACPT_experiment_5_30_19,3.1.0,59.95262027264454,
,,,C,G,y,b,L,G,g,R,c ,,,,,9,18,198,5,2,0,2,0,,,,,0,15,15,19,,,,,,up,1.4177939363489713,3483.153592330661,None,001,78,2019_Oct_30_1206,ACPT_experiment_5_30_19,3.1.0,59.95262027264454,
,,,C,G,y,b,R,U,y,R,u,,,,,9,18,198,5,2,0,2,0,,,,,0,16,16,31,,,,,,down,0.9507553300554719,3485.855750735648,None,001,78,2019_Oct_30_1206,ACPT_experiment_5_30_19,3.1.0,59.95262027264454,
,,,C,G,y,b,R,D,g,R,i,,,,,9,18,198,5,2,0,2,0,,,,,0,17,17,3,,,,,,up,10.258211972986828,3488.090869025008,None,001,78,2019_Oct_30_1206,ACPT_experiment_5_30_19,3.1.0,59.95262027264454,
,,,C,G,y,b,L,G,g,L,c ,,,,,9,18,198,5,2,0,2,0,,,,,0,18,18,18,,,,,,up,11.325695409579566,3499.6334252415827,None,001,78,2019_Oct_30_1206,ACPT_experiment_5_30_19,3.1.0,59.95262027264454,
,,,C,G,y,b,R,U,g,L,u,,,,,9,18,198,5,2,0,2,0,,,,,0,19,19,10,,,,,,down,1.8014410497235076,3512.2434757619403,None,001,78,2019_Oct_30_1206,ACPT_experiment_5_30_19,3.1.0,59.95262027264454,
,,,C,G,y,b,R,G,g,L,c ,,,,,9,18,198,5,2,0,2,0,,,,,0,20,20,6,,,,,,up,1.4678282887434762,3515.3292836952305,None,001,78,2019_Oct_30_1206,ACPT_experiment_5_30_19,3.1.0,59.95262027264454,
,,,C,G,y,b,R,G,d,L,i,,,,,9,18,198,5,2,0,2,0,,,,,0,21,21,4,,,,,,down,6.171572397821365,3518.081485508602,None,001,78,2019_Oct_30_1206,ACPT_experiment_5_30_19,3.1.0,59.95262027264454,
,,,C,G,y,b,L,U,g,L,u,,,,,9,18,198,5,2,0,2,0,,,,,0,22,22,22,,,,,,down,4.737116946658716,3525.5374223750596,None,001,78,2019_Oct_30_1206,ACPT_experiment_5_30_19,3.1.0,59.95262027264454,
,,,C,G,y,b,R,G,g,R,c ,,,,,9,18,198,5,2,0,2,0,,,,,0,23,23,7,,,,,,up,9.224028624177663,3531.558901677289,None,001,78,2019_Oct_30_1206,ACPT_experiment_5_30_19,3.1.0,59.95262027264454,
,,,C,G,y,b,L,D,g,R,i,,,,,9,18,198,5,2,0,2,0,,,,,0,24,24,15,,,,,,up,9.390828212672204,3542.0672805823842,None,001,78,2019_Oct_30_1206,ACPT_experiment_5_30_19,3.1.0,59.95262027264454,
,,,C,G,y,b,L,D,g,L,i,,,,,9,18,198,5,2,0,2,0,,,,,0,25,25,14,,,,,,down,2.702134557543104,3552.742479904754,None,001,78,2019_Oct_30_1206,ACPT_experiment_5_30_19,3.1.0,59.95262027264454,
,,,C,G,y,b,R,D,y,R,y,,,,,9,18,198,5,2,0,2,0,,,,,0,26,26,27,,,,,,up,1.2508708845052752,3556.745750023244,None,001,78,2019_Oct_30_1206,ACPT_experiment_5_30_19,3.1.0,59.95262027264454,
,,,C,G,y,b,R,D,y,L,y,,,,,9,18,198,5,2,0,2,0,,,,,0,27,27,26,,,,,,down,0.9008589305958594,3559.280876704489,None,001,78,2019_Oct_30_1206,ACPT_experiment_5_30_19,3.1.0,59.95262027264454,
,,,C,G,y,b,R,U,y,L,u,,,,,9,18,198,5,2,0,2,0,,,,,0,28,28,30,,,,,,up,0.13342433598518255,3561.4661010093196,None,001,78,2019_Oct_30_1206,ACPT_experiment_5_30_19,3.1.0,59.95262027264454,
,,,C,G,y,b,R,U,d,R,u,,,,,9,18,198,5,2,0,2,0,,,,,0,29,29,9,,,,,,down,0.08004922836880723,3562.920742265277,None,001,78,2019_Oct_30_1206,ACPT_experiment_5_30_19,3.1.0,59.95262027264454,
,,,C,G,y,b,L,U,y,R,u,,,,,9,18,198,5,2,0,2,0,,,,,0,30,30,25,,,,,,up,0.13300474171774113,3564.302060479532,None,001,78,2019_Oct_30_1206,ACPT_experiment_5_30_19,3.1.0,59.95262027264454,
,,,C,G,y,b,L,G,y,R,y,,,,,9,18,198,5,2,0,2,0,,,,,0,31,31,35,,,,,,up,0.10005180027110328,3565.736189311273,None,001,78,2019_Oct_30_1206,ACPT_experiment_5_30_19,3.1.0,59.95262027264454,
,,,C,G,y,b,L,U,d,R,u,,,,,9,18,198,5,2,0,2,0,,,,,0,32,32,21,,,,,,up,0.033344764007779304,3567.137293961102,None,001,78,2019_Oct_30_1206,ACPT_experiment_5_30_19,3.1.0,59.95262027264454,
,,,C,G,y,b,L,G,d,L,i,,,,,9,18,198,5,2,0,2,0,,,,,0,33,33,16,,,,,,up,0.18335514821046672,3568.4550240225262,None,001,78,2019_Oct_30_1206,ACPT_experiment_5_30_19,3.1.0,59.95262027264454,
,,,C,G,y,b,L,D,y,L,y,,,,,9,18,198,5,2,0,2,0,,,,,0,34,34,32,,,,,,down,1.7012407311922288,3569.9396046878637,None,001,78,2019_Oct_30_1206,ACPT_experiment_5_30_19,3.1.0,59.95262027264454,
,,,C,G,y,b,L,G,y,L,y,,,,,9,18,198,5,2,0,2,0,,,,,0,35,35,34,,,,,,down,0.9841079425877979,3572.941927247787,None,001,78,2019_Oct_30_1206,ACPT_experiment_5_30_19,3.1.0,59.95262027264454,
,,,C,G,y,b,R,G,d,L,i,,,,,9,18,198,5,2,0,2,0,,,,,1,0,36,4,,,,,,up,2.8189028123088065,3575.2104201859247,None,001,78,2019_Oct_30_1206,ACPT_experiment_5_30_19,3.1.0,59.95262027264454,
,,,C,G,y,b,R,D,g,R,i,,,,,9,18,198,5,2,0,2,0,,,,,1,1,37,3,,,,,,down,7.055634577465753,3579.313677807145,None,001,78,2019_Oct_30_1206,ACPT_experiment_5_30_19,3.1.0,59.95262027264454,
,,,C,G,y,b,R,G,y,R,y,,,,,9,18,198,5,2,0,2,0,,,,,1,2,38,29,,,,,,down,1.100892800002839,3587.653683796175,None,001,78,2019_Oct_30_1206,ACPT_experiment_5_30_19,3.1.0,59.95262027264454,
,,,C,G,y,b,R,G,d,R,i,,,,,9,18,198,5,2,0,2,0,,,,,1,3,39,5,,,,,,down,3.0524625655507407,3590.0222058946047,None,001,78,2019_Oct_30_1206,ACPT_experiment_5_30_19,3.1.0,59.95262027264454,
,,,C,G,y,b,L,D,y,R,y,,,,,9,18,198,5,2,0,2,0,,,,,1,4,40,33,,,,,,down,1.0841878164319496,3594.375706518261,None,001,78,2019_Oct_30_1206,ACPT_experiment_5_30_19,3.1.0,59.95262027264454,
,,,C,G,y,b,R,G,g,R,c ,,,,,9,18,198,5,2,0,2,0,,,,,1,5,41,7,,,,,,up,9.657697713422749,3596.7609429581216,None,001,78,2019_Oct_30_1206,ACPT_experiment_5_30_19,3.1.0,59.95262027264454,
,,,C,G,y,b,R,D,y,R,y,,,,,9,18,198,5,2,0,2,0,,,,,1,6,42,27,,,,,,down,1.0008310381435876,3607.7030099700432,None,001,78,2019_Oct_30_1206,ACPT_experiment_5_30_19,3.1.0,59.95262027264454,
,,,C,G,y,b,L,G,y,L,y,,,,,9,18,198,5,2,0,2,0,,,,,1,7,43,34,,,,,,down,0.8172090400512388,3609.9881604987304,None,001,78,2019_Oct_30_1206,ACPT_experiment_5_30_19,3.1.0,59.95262027264454,
,,,C,G,y,b,L,U,y,L,u,,,,,9,18,198,5,2,0,2,0,,,,,1,8,44,24,,,,,,down,0.6004671684095229,3612.106524117312,None,001,78,2019_Oct_30_1206,ACPT_experiment_5_30_19,3.1.0,59.95262027264454,
,,,C,G,y,b,L,G,d,R,i,,,,,9,18,198,5,2,0,2,0,,,,,1,9,45,17,,,,,,down,4.069944553184541,3614.0080353811545,None,001,78,2019_Oct_30_1206,ACPT_experiment_5_30_19,3.1.0,59.95262027264454,
,,,C,G,y,b,R,U,g,R,u,,,,,9,18,198,5,2,0,2,0,,,,,1,10,46,11,,,,,,down,1.4344572623613203,3619.362315725669,None,001,78,2019_Oct_30_1206,ACPT_experiment_5_30_19,3.1.0,59.95262027264454,
,,,C,G,y,b,R,G,g,L,c ,,,,,9,18,198,5,2,0,2,0,,,,,1,11,47,6,,,,,,up,4.336800168079208,3622.0811525499857,None,001,78,2019_Oct_30_1206,ACPT_experiment_5_30_19,3.1.0,59.95262027264454,
,,,C,G,y,b,L,G,d,L,i,,,,,9,18,198,5,2,0,2,0,,,,,1,12,48,16,,,,,,down,1.4011164226176334,3627.7023042064475,None,001,78,2019_Oct_30_1206,ACPT_experiment_5_30_19,3.1.0,59.95262027264454,
,,,C,G,y,b,R,U,d,L,u,,,,,9,18,198,5,2,0,2,0,,,,,1,13,49,8,,,,,,down,2.068310248605485,3630.3877935499595,None,001,78,2019_Oct_30_1206,ACPT_experiment_5_30_19,3.1.0,59.95262027264454,
,,,C,G,y,b,L,D,d,L,c ,,,,,9,18,198,5,2,0,2,0,,,,,1,14,50,12,,,,,,down,6.104865965289719,3633.7404577018797,None,001,78,2019_Oct_30_1206,ACPT_experiment_5_30_19,3.1.0,59.95262027264454,
,,,C,G,y,b,L,U,d,R,u,,,,,9,18,198,5,2,0,2,0,,,,,1,15,51,21,,,,,,down,2.385227987600956,3641.129698701129,None,001,78,2019_Oct_30_1206,ACPT_experiment_5_30_19,3.1.0,59.95262027264454,
,,,C,G,y,b,R,U,y,R,u,,,,,9,18,198,5,2,0,2,0,,,,,1,16,52,31,,,,,,down,1.1008783104171016,3644.7992911573683,None,001,78,2019_Oct_30_1206,ACPT_experiment_5_30_19,3.1.0,59.95262027264454,
,,,C,G,y,b,L,U,g,L,u,,,,,9,18,198,5,2,0,2,0,,,,,1,17,53,22,,,,,,down,3.035753053982262,3647.1845203524344,None,001,78,2019_Oct_30_1206,ACPT_experiment_5_30_19,3.1.0,59.95262027264454,
,,,C,G,y,b,L,D,g,R,i,,,,,9,18,198,5,2,0,2,0,,,,,1,18,54,15,,,,,,down,2.818912472032025,3651.5046375731863,None,001,78,2019_Oct_30_1206,ACPT_experiment_5_30_19,3.1.0,59.95262027264454,
,,,C,G,y,b,R,D,g,L,i,,,,,9,18,198,5,2,0,2,0,,,,,1,19,55,2,,,,,,down,1.3844241174338094,3655.607922664248,None,001,78,2019_Oct_30_1206,ACPT_experiment_5_30_19,3.1.0,59.95262027264454,
,,,C,G,y,b,L,G,y,R,y,,,,,9,18,198,5,2,0,2,0,,,,,1,20,56,35,,,,,,down,4.420189246071459,3658.293391480848,None,001,78,2019_Oct_30_1206,ACPT_experiment_5_30_19,3.1.0,59.95262027264454,
,,,C,G,y,b,R,G,y,L,y,,,,,9,18,198,5,2,0,2,0,,,,,1,21,57,28,,,,,,down,3.419390205765012,3664.014617577558,None,001,78,2019_Oct_30_1206,ACPT_experiment_5_30_19,3.1.0,59.95262027264454,
,,,C,G,y,b,R,D,y,L,y,,,,,9,18,198,5,2,0,2,0,,,,,1,22,58,26,,,,,,down,0.8673517624774831,3668.7350503694242,None,001,78,2019_Oct_30_1206,ACPT_experiment_5_30_19,3.1.0,59.95262027264454,
,,,C,G,y,b,L,G,g,L,c ,,,,,9,18,198,5,2,0,2,0,,,,,1,23,59,18,,,,,,down,1.484399545510314,3670.9034549814596,None,001,78,2019_Oct_30_1206,ACPT_experiment_5_30_19,3.1.0,59.95262027264454,
,,,C,G,y,b,L,U,y,R,u,,,,,9,18,198,5,2,0,2,0,,,,,1,24,60,25,,,,,,down,0.8006429150154872,3673.6723258563043,None,001,78,2019_Oct_30_1206,ACPT_experiment_5_30_19,3.1.0,59.95262027264454,
,,,C,G,y,b,L,U,g,R,u,,,,,9,18,198,5,2,0,2,0,,,,,1,25,61,23,,,,,,down,0.6672143529012828,3675.7573130149076,None,001,78,2019_Oct_30_1206,ACPT_experiment_5_30_19,3.1.0,59.95262027264454,
,,,C,G,y,b,L,U,d,L,u,,,,,9,18,198,5,2,0,2,0,,,,,1,26,62,20,,,,,,down,0.46705551081140584,3677.692180211813,None,001,78,2019_Oct_30_1206,ACPT_experiment_5_30_19,3.1.0,59.95262027264454,
,,,C,G,y,b,R,U,y,L,u,,,,,9,18,198,5,2,0,2,0,,,,,1,27,63,30,,,,,,down,0.7334667783979967,3679.4607000160586,None,001,78,2019_Oct_30_1206,ACPT_experiment_5_30_19,3.1.0,59.95262027264454,
,,,C,G,y,b,R,D,d,R,c ,,,,,9,18,198,5,2,0,2,0,,,,,1,28,64,1,,,,,,down,1.0341510491070949,3681.478572015055,None,001,78,2019_Oct_30_1206,ACPT_experiment_5_30_19,3.1.0,59.95262027264454,
,,,C,G,y,b,R,U,g,L,u,,,,,9,18,198,5,2,0,2,0,,,,,1,29,65,10,,,,,,down,1.2510160822330363,3683.7970591573585,None,001,78,2019_Oct_30_1206,ACPT_experiment_5_30_19,3.1.0,59.95262027264454,
,,,C,G,y,b,R,D,d,L,c,,,,,9,18,198,5,2,0,2,0,,,,,1,30,66,0,,,,,,down,1.0174753465744288,3686.3324348783653,None,001,78,2019_Oct_30_1206,ACPT_experiment_5_30_19,3.1.0,59.95262027264454,
,,,C,G,y,b,L,D,g,L,i,,,,,9,18,198,5,2,0,2,0,,,,,1,31,67,14,,,,,,down,0.3335786500792892,3688.6342825421007,None,001,78,2019_Oct_30_1206,ACPT_experiment_5_30_19,3.1.0,59.95262027264454,
,,,C,G,y,b,L,G,g,R,c ,,,,,9,18,198,5,2,0,2,0,,,,,1,32,68,19,,,,,,down,0.3669403186013369,3690.252241357867,None,001,78,2019_Oct_30_1206,ACPT_experiment_5_30_19,3.1.0,59.95262027264454,
,,,C,G,y,b,L,D,d,R,c ,,,,,9,18,198,5,2,0,2,0,,,,,1,33,69,13,,,,,,up,0.6168766247956228,3691.9205065076358,None,001,78,2019_Oct_30_1206,ACPT_experiment_5_30_19,3.1.0,59.95262027264454,
,,,C,G,y,b,R,U,d,R,u,,,,,9,18,198,5,2,0,2,0,,,,,1,34,70,9,,,,,,down,0.3336194020394032,3693.8217448842706,None,001,78,2019_Oct_30_1206,ACPT_experiment_5_30_19,3.1.0,59.95262027264454,
,,,C,G,y,b,L,D,y,L,y,,,,,9,18,198,5,2,0,2,0,,,,,1,35,71,32,,,,,,down,0.2835370528900967,3695.4397061149675,None,001,78,2019_Oct_30_1206,ACPT_experiment_5_30_19,3.1.0,59.95262027264454,
,,,C,G,y,b,,,,,,,,,,9,18,198,5,3,0,3,0,0,0,0,0,,,,,,,,,,,,,,001,78,2019_Oct_30_1206,ACPT_experiment_5_30_19,3.1.0,59.95262027264454,
,,,C,G,y,b,R,D,d,L,c,,,,,9,18,198,5,3,0,3,0,,,,,0,0,0,0,,,,,,up,1.934614534744469,3783.743796344036,None,001,78,2019_Oct_30_1206,ACPT_experiment_5_30_19,3.1.0,59.95262027264454,
,,,C,G,y,b,R,G,d,R,i,,,,,9,18,198,5,3,0,3,0,,,,,0,1,1,5,,,,,,down,1.4678439857943886,3786.962776253017,None,001,78,2019_Oct_30_1206,ACPT_experiment_5_30_19,3.1.0,59.95262027264454,
,,,C,G,y,b,L,G,d,R,i,,,,,9,18,198,5,3,0,3,0,,,,,0,2,2,17,,,,,,down,1.417774013169037,3789.71497716079,None,001,78,2019_Oct_30_1206,ACPT_experiment_5_30_19,3.1.0,59.95262027264454,
,,,C,G,y,b,R,G,d,L,i,,,,,9,18,198,5,3,0,3,0,,,,,0,3,3,4,,,,,,down,1.2343005333368637,3792.417133452712,None,001,78,2019_Oct_30_1206,ACPT_experiment_5_30_19,3.1.0,59.95262027264454,
,,,C,G,y,b,R,U,y,R,u,,,,,9,18,198,5,3,0,3,0,,,,,0,4,4,31,,,,,,down,0.8340272235182056,3794.935792719224,None,001,78,2019_Oct_30_1206,ACPT_experiment_5_30_19,3.1.0,59.95262027264454,
,,,C,G,y,b,R,U,d,R,u,,,,,9,18,198,5,3,0,3,0,,,,,0,5,5,9,,,,,,down,0.4837137050944875,3797.0541509042096,None,001,78,2019_Oct_30_1206,ACPT_experiment_5_30_19,3.1.0,59.95262027264454,
,,,C,G,y,b,L,U,y,R,u,,,,,9,18,198,5,3,0,3,0,,,,,0,6,6,25,,,,,,down,2.9189986850688,3798.8222296816757,None,001,78,2019_Oct_30_1206,ACPT_experiment_5_30_19,3.1.0,59.95262027264454,
,,,C,G,y,b,R,U,y,L,u,,,,,9,18,198,5,3,0,3,0,,,,,0,7,7,30,,,,,,down,0.5337356809686753,3803.025599476442,None,001,78,2019_Oct_30_1206,ACPT_experiment_5_30_19,3.1.0,59.95262027264454,
,,,C,G,y,b,R,G,y,L,y,,,,,9,18,198,5,3,0,3,0,,,,,0,8,8,28,,,,,,down,2.3185176308070368,3804.8437047577763,None,001,78,2019_Oct_30_1206,ACPT_experiment_5_30_19,3.1.0,59.95262027264454,
,,,C,G,y,b,R,U,d,L,u,,,,,9,18,198,5,3,0,3,0,,,,,0,9,9,8,,,,,,down,1.5679087663211249,3808.446583234824,None,001,78,2019_Oct_30_1206,ACPT_experiment_5_30_19,3.1.0,59.95262027264454,
,,,C,G,y,b,R,D,g,R,i,,,,,9,18,198,5,3,0,3,0,,,,,0,10,10,3,,,,,,down,5.471041656353918,3811.2988640164413,None,001,78,2019_Oct_30_1206,ACPT_experiment_5_30_19,3.1.0,59.95262027264454,
,,,C,G,y,b,L,G,y,R,y,,,,,9,18,198,5,3,0,3,0,,,,,0,11,11,35,,,,,,down,0.850679078606845,3818.0542478033176,None,001,78,2019_Oct_30_1206,ACPT_experiment_5_30_19,3.1.0,59.95262027264454,
,,,C,G,y,b,L,D,d,L,c ,,,,,9,18,198,5,3,0,3,0,,,,,0,12,12,12,,,,,,down,3.2025369454258907,3820.1893097644106,None,001,78,2019_Oct_30_1206,ACPT_experiment_5_30_19,3.1.0,59.95262027264454,
,,,C,G,y,b,L,U,g,L,u,,,,,9,18,198,5,3,0,3,0,,,,,0,13,13,22,,,,,,up,1.4012875808548415,3824.676197896354,None,001,78,2019_Oct_30_1206,ACPT_experiment_5_30_19,3.1.0,59.95262027264454,
,,,C,G,y,b,L,G,g,L,c ,,,,,9,18,198,5,3,0,3,0,,,,,0,14,14,18,,,,,,up,1.5512113294080336,3827.3616996163883,None,001,78,2019_Oct_30_1206,ACPT_experiment_5_30_19,3.1.0,59.95262027264454,
,,,C,G,y,b,R,D,d,R,c ,,,,,9,18,198,5,3,0,3,0,,,,,0,15,15,1,,,,,,up,1.5844163292804296,3830.2140929941643,None,001,78,2019_Oct_30_1206,ACPT_experiment_5_30_19,3.1.0,59.95262027264454,
,,,C,G,y,b,R,G,g,R,c ,,,,,9,18,198,5,3,0,3,0,,,,,0,16,16,7,,,,,,up,1.1175280524421396,3833.0829374858868,None,001,78,2019_Oct_30_1206,ACPT_experiment_5_30_19,3.1.0,59.95262027264454,
,,,C,G,y,b,L,D,y,L,y,,,,,9,18,198,5,3,0,3,0,,,,,0,17,17,32,,,,,,down,1.0675181512251584,3835.4848179323117,None,001,78,2019_Oct_30_1206,ACPT_experiment_5_30_19,3.1.0,59.95262027264454,
,,,C,G,y,b,L,U,g,R,u,,,,,9,18,198,5,3,0,3,0,,,,,0,18,18,23,,,,,,down,1.4678370428682683,3837.8367032689703,None,001,78,2019_Oct_30_1206,ACPT_experiment_5_30_19,3.1.0,59.95262027264454,
,,,C,G,y,b,R,D,y,L,y,,,,,9,18,198,5,3,0,3,0,,,,,0,19,19,26,,,,,,down,1.8514693647884997,3840.5889050823434,None,001,78,2019_Oct_30_1206,ACPT_experiment_5_30_19,3.1.0,59.95262027264454,
,,,C,G,y,b,L,D,d,R,c ,,,,,9,18,198,5,3,0,3,0,,,,,0,20,20,13,,,,,,down,2.9523769562438247,3843.724736802703,None,001,78,2019_Oct_30_1206,ACPT_experiment_5_30_19,3.1.0,59.95262027264454,
,,,C,G,y,b,R,G,g,L,c ,,,,,9,18,198,5,3,0,3,0,,,,,0,21,21,6,,,,,,down,1.5011787882122007,3847.9614649454643,None,001,78,2019_Oct_30_1206,ACPT_experiment_5_30_19,3.1.0,59.95262027264454,
,,,C,G,y,b,R,U,g,L,u,,,,,9,18,198,5,3,0,3,0,,,,,0,22,22,10,,,,,,down,1.0007933048455016,3850.747008202313,None,001,78,2019_Oct_30_1206,ACPT_experiment_5_30_19,3.1.0,59.95262027264454,
,,,C,G,y,b,R,D,g,L,i,,,,,9,18,198,5,3,0,3,0,,,,,0,23,23,2,,,,,,down,0.6338381947898597,3853.0321593347353,None,001,78,2019_Oct_30_1206,ACPT_experiment_5_30_19,3.1.0,59.95262027264454,
,,,C,G,y,b,R,G,y,R,y,,,,,9,18,198,5,3,0,3,0,,,,,0,24,24,29,,,,,,down,0.4336473548646609,3854.950375280282,None,001,78,2019_Oct_30_1206,ACPT_experiment_5_30_19,3.1.0,59.95262027264454,
,,,C,G,y,b,R,D,y,R,y,,,,,9,18,198,5,3,0,3,0,,,,,0,25,25,27,,,,,,down,0.7670083592838637,3856.6853465607155,None,001,78,2019_Oct_30_1206,ACPT_experiment_5_30_19,3.1.0,59.95262027264454,
,,,C,G,y,b,L,U,d,L,u,,,,,9,18,198,5,3,0,3,0,,,,,0,26,26,20,,,,,,down,1.8681411430588923,3858.7367308595576,None,001,78,2019_Oct_30_1206,ACPT_experiment_5_30_19,3.1.0,59.95262027264454,
,,,C,G,y,b,L,U,d,R,u,,,,,9,18,198,5,3,0,3,0,,,,,0,27,27,21,,,,,,down,1.0841944574913214,3861.8725532220606,None,001,78,2019_Oct_30_1206,ACPT_experiment_5_30_19,3.1.0,59.95262027264454,
,,,C,G,y,b,L,D,g,L,i,,,,,9,18,198,5,3,0,3,0,,,,,0,28,28,14,,,,,,down,1.7513879816124245,3864.24109373434,None,001,78,2019_Oct_30_1206,ACPT_experiment_5_30_19,3.1.0,59.95262027264454,
,,,C,G,y,b,L,D,y,R,y,,,,,9,18,198,5,3,0,3,0,,,,,0,29,29,33,,,,,,down,0.7339123331730661,3867.276869730168,None,001,78,2019_Oct_30_1206,ACPT_experiment_5_30_19,3.1.0,59.95262027264454,
,,,C,G,y,b,R,U,g,R,u,,,,,9,18,198,5,3,0,3,0,,,,,0,30,30,11,,,,,,down,1.2843424323909858,3869.2951577010344,None,001,78,2019_Oct_30_1206,ACPT_experiment_5_30_19,3.1.0,59.95262027264454,
,,,C,G,y,b,L,U,y,L,u,,,,,9,18,198,5,3,0,3,0,,,,,0,31,31,24,,,,,,down,0.7837773385290348,3871.8806833892586,None,001,78,2019_Oct_30_1206,ACPT_experiment_5_30_19,3.1.0,59.95262027264454,
,,,C,G,y,b,L,G,d,L,i,,,,,9,18,198,5,3,0,3,0,,,,,0,32,32,16,,,,,,down,2.385235836127322,3873.965536821056,None,001,78,2019_Oct_30_1206,ACPT_experiment_5_30_19,3.1.0,59.95262027264454,
,,,C,G,y,b,L,G,y,L,y,,,,,9,18,198,5,3,0,3,0,,,,,0,33,33,34,,,,,,down,0.867073743542278,3877.65194655516,None,001,78,2019_Oct_30_1206,ACPT_experiment_5_30_19,3.1.0,59.95262027264454,
,,,C,G,y,b,L,G,g,R,c ,,,,,9,18,198,5,3,0,3,0,,,,,0,34,34,19,,,,,,down,0.7505961861006654,3879.82021079933,None,001,78,2019_Oct_30_1206,ACPT_experiment_5_30_19,3.1.0,59.95262027264454,
,,,C,G,y,b,L,D,g,R,i,,,,,9,18,198,5,3,0,3,0,,,,,0,35,35,15,,,,,,down,2.0015567249174637,3881.8551808119237,None,001,78,2019_Oct_30_1206,ACPT_experiment_5_30_19,3.1.0,59.95262027264454,
,,,C,G,y,b,R,D,g,R,i,,,,,9,18,198,5,3,0,3,0,,,,,1,0,36,3,,,,,,down,3.936482785768021,3885.1411243435914,None,001,78,2019_Oct_30_1206,ACPT_experiment_5_30_19,3.1.0,59.95262027264454,
,,,C,G,y,b,L,U,y,R,u,,,,,9,18,198,5,3,0,3,0,,,,,1,1,37,25,,,,,,down,0.8506763618097466,3890.3619537878794,None,001,78,2019_Oct_30_1206,ACPT_experiment_5_30_19,3.1.0,59.95262027264454,
,,,C,G,y,b,R,G,y,R,y,,,,,9,18,198,5,3,0,3,0,,,,,1,2,38,29,,,,,,down,0.6505114823939948,3892.4969946183255,None,001,78,2019_Oct_30_1206,ACPT_experiment_5_30_19,3.1.0,59.95262027264454,
,,,C,G,y,b,L,G,g,L,c ,,,,,9,18,198,5,3,0,3,0,,,,,1,3,39,18,,,,,,up,2.802260315076637,3894.431847929377,None,001,78,2019_Oct_30_1206,ACPT_experiment_5_30_19,3.1.0,59.95262027264454,
,,,C,G,y,b,R,G,y,L,y,,,,,9,18,198,5,3,0,3,0,,,,,1,4,40,28,,,,,,down,1.2176344905274163,3898.518469694426,None,001,78,2019_Oct_30_1206,ACPT_experiment_5_30_19,3.1.0,59.95262027264454,
,,,C,G,y,b,R,D,y,R,y,,,,,9,18,198,5,3,0,3,0,,,,,1,5,41,27,,,,,,down,5.938092639169554,3901.0037823857338,None,001,78,2019_Oct_30_1206,ACPT_experiment_5_30_19,3.1.0,59.95262027264454,
,,,C,G,y,b,R,D,d,L,c,,,,,9,18,198,5,3,0,3,0,,,,,1,6,42,0,,,,,,up,2.885624338157868,3908.226224702087,None,001,78,2019_Oct_30_1206,ACPT_experiment_5_30_19,3.1.0,59.95262027264454,
,,,C,G,y,b,L,G,y,L,y,,,,,9,18,198,5,3,0,3,0,,,,,1,7,43,34,,,,,,down,1.6011022952716303,3912.4130277680842,None,001,78,2019_Oct_30_1206,ACPT_experiment_5_30_19,3.1.0,59.95262027264454,
,,,C,G,y,b,L,D,y,R,y,,,,,9,18,198,5,3,0,3,0,,,,,1,8,44,33,,,,,,down,1.1842707089381292,3915.3152118920852,None,001,78,2019_Oct_30_1206,ACPT_experiment_5_30_19,3.1.0,59.95262027264454,
,,,C,G,y,b,L,D,g,L,i,,,,,9,18,198,5,3,0,3,0,,,,,1,9,45,14,,,,,,down,2.985718701587757,3917.783841032334,None,001,78,2019_Oct_30_1206,ACPT_experiment_5_30_19,3.1.0,59.95262027264454,
,,,C,G,y,b,R,G,d,R,i,,,,,9,18,198,5,3,0,3,0,,,,,1,10,46,5,,,,,,up,1.301029303980613,3922.0539272212236,None,001,78,2019_Oct_30_1206,ACPT_experiment_5_30_19,3.1.0,59.95262027264454,
,,,C,G,y,b,R,G,g,L,c ,,,,,9,18,198,5,3,0,3,0,,,,,1,11,47,6,,,,,,up,1.3510757310286863,3924.639314956513,None,001,78,2019_Oct_30_1206,ACPT_experiment_5_30_19,3.1.0,59.95262027264454,
,,,C,G,y,b,L,G,d,L,i,,,,,9,18,198,5,3,0,3,0,,,,,1,12,48,16,,,,,,up,2.6187488000814483,3927.274757872977,None,001,78,2019_Oct_30_1206,ACPT_experiment_5_30_19,3.1.0,59.95262027264454,
,,,C,G,y,b,R,U,y,R,u,,,,,9,18,198,5,3,0,3,0,,,,,1,13,49,31,,,,,,down,0.8006356702207995,3931.1778648025,None,001,78,2019_Oct_30_1206,ACPT_experiment_5_30_19,3.1.0,59.95262027264454,
,,,C,G,y,b,L,U,d,L,u,,,,,9,18,198,5,3,0,3,0,,,,,1,14,50,20,,,,,,down,2.1850800127012917,3933.262859507765,None,001,78,2019_Oct_30_1206,ACPT_experiment_5_30_19,3.1.0,59.95262027264454,
,,,C,G,y,b,L,D,d,L,c ,,,,,9,18,198,5,3,0,3,0,,,,,1,15,51,12,,,,,,down,2.501985978909943,3936.732316969358,None,001,78,2019_Oct_30_1206,ACPT_experiment_5_30_19,3.1.0,59.95262027264454,
,,,C,G,y,b,R,G,d,L,i,,,,,9,18,198,5,3,0,3,0,,,,,1,16,52,4,,,,,,down,2.101679463788969,3940.5186547385174,None,001,78,2019_Oct_30_1206,ACPT_experiment_5_30_19,3.1.0,59.95262027264454,
,,,C,G,y,b,R,U,d,R,u,,,,,9,18,198,5,3,0,3,0,,,,,1,17,53,9,,,,,,down,1.718064046386644,3943.887982518313,None,001,78,2019_Oct_30_1206,ACPT_experiment_5_30_19,3.1.0,59.95262027264454,
,,,C,G,y,b,L,D,g,R,i,,,,,9,18,198,5,3,0,3,0,,,,,1,18,54,15,,,,,,down,0.05003767292328121,3946.8904028829447,None,001,78,2019_Oct_30_1206,ACPT_experiment_5_30_19,3.1.0,59.95262027264454,
,,,C,G,y,b,L,D,d,R,c ,,,,,9,18,198,5,3,0,3,0,,,,,1,19,55,13,,,,,,up,3.8363802719450177,3948.2248189103584,None,001,78,2019_Oct_30_1206,ACPT_experiment_5_30_19,3.1.0,59.95262027264454,
,,,C,G,y,b,L,U,g,R,u,,,,,9,18,198,5,3,0,3,0,,,,,1,20,56,23,,,,,,down,2.9023139265464124,3953.345557311747,None,001,78,2019_Oct_30_1206,ACPT_experiment_5_30_19,3.1.0,59.95262027264454,
,,,C,G,y,b,L,G,g,R,c ,,,,,9,18,198,5,3,0,3,0,,,,,1,21,57,19,,,,,,down,0.533755906015358,3957.5322281602685,None,001,78,2019_Oct_30_1206,ACPT_experiment_5_30_19,3.1.0,59.95262027264454,
,,,C,G,y,b,R,U,g,L,u,,,,,9,18,198,5,3,0,3,0,,,,,1,22,58,10,,,,,,down,2.9857030045368447,3959.350359703977,None,001,78,2019_Oct_30_1206,ACPT_experiment_5_30_19,3.1.0,59.95262027264454,
,,,C,G,y,b,R,D,d,R,c ,,,,,9,18,198,5,3,0,3,0,,,,,1,23,59,1,,,,,,up,7.70613881506506,3963.6204323088796,None,001,78,2019_Oct_30_1206,ACPT_experiment_5_30_19,3.1.0,59.95262027264454,
,,,C,G,y,b,R,U,d,L,u,,,,,9,18,198,5,3,0,3,0,,,,,1,24,60,8,,,,,,up,6.571926607830392,3972.610915971266,None,001,78,2019_Oct_30_1206,ACPT_experiment_5_30_19,3.1.0,59.95262027264454,
,,,C,G,y,b,L,U,d,R,u,,,,,9,18,198,5,3,0,3,0,,,,,1,25,61,21,,,,,,up,3.436055342974214,3980.4672167074577,None,001,78,2019_Oct_30_1206,ACPT_experiment_5_30_19,3.1.0,59.95262027264454,
,,,C,G,y,b,L,D,y,L,y,,,,,9,18,198,5,3,0,3,0,,,,,1,26,62,32,,,,,,down,1.2676812194440572,3985.187637122802,None,001,78,2019_Oct_30_1206,ACPT_experiment_5_30_19,3.1.0,59.95262027264454,
,,,C,G,y,b,L,G,d,R,i,,,,,9,18,198,5,3,0,3,0,,,,,1,27,63,17,,,,,,down,1.5011965983285336,3987.7396749623576,None,001,78,2019_Oct_30_1206,ACPT_experiment_5_30_19,3.1.0,59.95262027264454,
,,,C,G,y,b,R,U,g,R,u,,,,,9,18,198,5,3,0,3,0,,,,,1,28,64,11,,,,,,down,1.7680576468192157,3990.525245387179,None,001,78,2019_Oct_30_1206,ACPT_experiment_5_30_19,3.1.0,59.95262027264454,
,,,C,G,y,b,R,D,g,L,i,,,,,9,18,198,5,3,0,3,0,,,,,1,29,65,2,,,,,,down,1.1342363565436244,3993.577665389571,None,001,78,2019_Oct_30_1206,ACPT_experiment_5_30_19,3.1.0,59.95262027264454,
,,,C,G,y,b,L,U,g,L,u,,,,,9,18,198,5,3,0,3,0,,,,,1,30,66,22,,,,,,down,3.219229552476463,3995.996271648347,None,001,78,2019_Oct_30_1206,ACPT_experiment_5_30_19,3.1.0,59.95262027264454,
,,,C,G,y,b,R,U,y,L,u,,,,,9,18,198,5,3,0,3,0,,,,,1,31,67,30,,,,,,down,1.1175642764064833,4000.4998502742756,None,001,78,2019_Oct_30_1206,ACPT_experiment_5_30_19,3.1.0,59.95262027264454,
,,,C,G,y,b,R,G,g,R,c ,,,,,9,18,198,5,3,0,3,0,,,,,1,32,68,7,,,,,,up,2.6187500075466232,4002.901777811855,None,001,78,2019_Oct_30_1206,ACPT_experiment_5_30_19,3.1.0,59.95262027264454,
,,,C,G,y,b,L,U,y,L,u,,,,,9,18,198,5,3,0,3,0,,,,,1,33,69,24,,,,,,down,1.0341516528405919,4006.804899230964,None,001,78,2019_Oct_30_1206,ACPT_experiment_5_30_19,3.1.0,59.95262027264454,
,,,C,G,y,b,R,D,y,L,y,,,,,9,18,198,5,3,0,3,0,,,,,1,34,70,26,,,,,,down,1.5011950889966101,4009.123410220712,None,001,78,2019_Oct_30_1206,ACPT_experiment_5_30_19,3.1.0,59.95262027264454,
,,,C,G,y,b,L,G,y,R,y,,,,,9,18,198,5,3,0,3,0,,,,,1,35,71,35,,,,,,down,0.9174042268532503,4011.9089643447505,None,001,78,2019_Oct_30_1206,ACPT_experiment_5_30_19,3.1.0,59.95262027264454,
,,,C,G,y,b,,,,,,,,,,9,18,198,5,4,0,4,0,0,0,0,0,,,,,,,,,,,,,,001,78,2019_Oct_30_1206,ACPT_experiment_5_30_19,3.1.0,59.95262027264454,
,,,C,G,y,b,R,G,g,L,c ,,,,,9,18,198,5,4,0,4,0,,,,,0,0,0,6,,,,,,down,0.5304239049182797,4027.141113476401,None,001,78,2019_Oct_30_1206,ACPT_experiment_5_30_19,3.1.0,59.95262027264454,
,,,C,G,y,b,R,U,d,L,u,,,,,9,18,198,5,4,0,4,0,,,,,0,1,1,8,,,,,,up,0.11675497264513979,4028.9558982275603,None,001,78,2019_Oct_30_1206,ACPT_experiment_5_30_19,3.1.0,59.95262027264454,
,,,C,G,y,b,R,D,y,R,y,,,,,9,18,198,5,4,0,4,0,,,,,0,2,2,27,,,,,,down,9.357857743452769e-05,4030.357012838981,None,001,78,2019_Oct_30_1206,ACPT_experiment_5_30_19,3.1.0,59.95262027264454,
,,,C,G,y,b,R,G,d,L,i,,,,,9,18,198,5,4,0,4,0,,,,,0,3,3,4,,,,,,down,7.27497972548008e-05,4031.641379420681,None,001,78,2019_Oct_30_1206,ACPT_experiment_5_30_19,3.1.0,59.95262027264454,
,,,C,G,y,b,L,G,y,L,y,,,,,9,18,198,5,4,0,4,0,,,,,0,4,4,34,,,,,,down,0.016653364422381856,4032.9257339277274,None,001,78,2019_Oct_30_1206,ACPT_experiment_5_30_19,3.1.0,59.95262027264454,
,,,C,G,y,b,R,D,y,L,y,,,,,9,18,198,5,4,0,4,0,,,,,0,5,5,26,,,,,,down,0.04977655850598239,4034.2437042747906,None,001,78,2019_Oct_30_1206,ACPT_experiment_5_30_19,3.1.0,59.95262027264454,
,,,C,G,y,b,L,U,d,R,u,,,,,9,18,198,5,4,0,4,0,,,,,0,6,6,21,,,,,,down,0.18348917688308575,4035.5778640176477,None,001,78,2019_Oct_30_1206,ACPT_experiment_5_30_19,3.1.0,59.95262027264454,
,,,C,G,y,b,L,D,d,R,c ,,,,,9,18,198,5,4,0,4,0,,,,,0,7,7,13,,,,,,up,0.08338153133263404,4037.0456914007927,None,001,78,2019_Oct_30_1206,ACPT_experiment_5_30_19,3.1.0,59.95262027264454,
,,,C,G,y,b,R,D,d,R,c ,,,,,9,18,198,5,4,0,4,0,,,,,0,8,8,1,,,,,,up,0.16678841943939915,4038.413447966085,None,001,78,2019_Oct_30_1206,ACPT_experiment_5_30_19,3.1.0,59.95262027264454,
,,,C,G,y,b,R,G,g,R,c ,,,,,9,18,198,5,4,0,4,0,,,,,0,9,9,7,,,,,,up,0.25019319448256283,4039.864620173609,None,001,78,2019_Oct_30_1206,ACPT_experiment_5_30_19,3.1.0,59.95262027264454,
,,,C,G,y,b,R,D,g,R,i,,,,,9,18,198,5,4,0,4,0,,,,,0,10,10,3,,,,,,down,0.09674515594997501,4041.419176484368,None,001,78,2019_Oct_30_1206,ACPT_experiment_5_30_19,3.1.0,59.95262027264454,
,,,C,G,y,b,L,D,g,L,i,,,,,9,18,198,5,4,0,4,0,,,,,0,11,11,14,,,,,,down,0.5670949345603731,4042.800289429485,None,001,78,2019_Oct_30_1206,ACPT_experiment_5_30_19,3.1.0,59.95262027264454,
,,,C,G,y,b,R,G,y,L,y,,,,,9,18,198,5,4,0,4,0,,,,,0,12,12,28,,,,,,up,0.3168815150311275,4044.651762416669,None,001,78,2019_Oct_30_1206,ACPT_experiment_5_30_19,3.1.0,59.95262027264454,
,,,C,G,y,b,L,G,y,R,y,,,,,9,18,198,5,4,0,4,0,,,,,0,13,13,35,,,,,,down,0.10005391333652369,4046.2363556396476,None,001,78,2019_Oct_30_1206,ACPT_experiment_5_30_19,3.1.0,59.95262027264454,
,,,C,G,y,b,L,U,y,R,u,,,,,9,18,198,5,4,0,4,0,,,,,0,14,14,25,,,,,,down,0.41696833180321846,4047.6208020951935,None,001,78,2019_Oct_30_1206,ACPT_experiment_5_30_19,3.1.0,59.95262027264454,
,,,C,G,y,b,L,G,d,L,i,,,,,9,18,198,5,4,0,4,0,,,,,0,15,15,16,,,,,,down,0.016704681705959956,4049.3221285564387,None,001,78,2019_Oct_30_1206,ACPT_experiment_5_30_19,3.1.0,59.95262027264454,
,,,C,G,y,b,R,U,y,R,u,,,,,9,18,198,5,4,0,4,0,,,,,0,16,16,31,,,,,,down,1.718008502972225,4050.6231925750535,None,001,78,2019_Oct_30_1206,ACPT_experiment_5_30_19,3.1.0,59.95262027264454,
,,,C,G,y,b,R,U,g,R,u,,,,,9,18,198,5,4,0,4,0,,,,,0,17,17,11,,,,,,down,0.10005421520145319,4053.6256044874253,None,001,78,2019_Oct_30_1206,ACPT_experiment_5_30_19,3.1.0,59.95262027264454,
,,,C,G,y,b,R,U,y,L,u,,,,,9,18,198,5,4,0,4,0,,,,,0,18,18,30,,,,,,up,0.4002959497975098,4054.9933359978068,None,001,78,2019_Oct_30_1206,ACPT_experiment_5_30_19,3.1.0,59.95262027264454,
,,,C,G,y,b,L,U,d,L,u,,,,,9,18,198,5,4,0,4,0,,,,,0,19,19,20,,,,,,up,1.4345233710992034,4056.678026301014,None,001,78,2019_Oct_30_1206,ACPT_experiment_5_30_19,3.1.0,59.95262027264454,
,,,C,G,y,b,R,G,y,R,y,,,,,9,18,198,5,4,0,4,0,,,,,0,20,20,29,,,,,,up,1.3177225147646823,4059.396897236232,None,001,78,2019_Oct_30_1206,ACPT_experiment_5_30_19,3.1.0,59.95262027264454,
,,,C,G,y,b,L,U,g,R,u,,,,,9,18,198,5,4,0,4,0,,,,,0,21,21,23,,,,,,up,0.4836847259248316,4061.998940449007,None,001,78,2019_Oct_30_1206,ACPT_experiment_5_30_19,3.1.0,59.95262027264454,
,,,C,G,y,b,L,U,g,L,u,,,,,9,18,198,5,4,0,4,0,,,,,0,22,22,22,,,,,,down,0.5004156700033491,4063.7503187708962,None,001,78,2019_Oct_30_1206,ACPT_experiment_5_30_19,3.1.0,59.95262027264454,
,,,C,G,y,b,R,U,d,R,u,,,,,9,18,198,5,4,0,4,0,,,,,0,23,23,9,,,,,,down,0.26686618021994946,4065.5351088711277,None,001,78,2019_Oct_30_1206,ACPT_experiment_5_30_19,3.1.0,59.95262027264454,
,,,C,G,y,b,R,U,g,L,u,,,,,9,18,198,5,4,0,4,0,,,,,0,24,24,10,,,,,,down,0.05004763451506733,4067.0696387625403,None,001,78,2019_Oct_30_1206,ACPT_experiment_5_30_19,3.1.0,59.95262027264454,
,,,C,G,y,b,L,U,y,L,u,,,,,9,18,198,5,4,0,4,0,,,,,0,25,25,24,,,,,,down,0.9006811312992795,4068.4207347186175,None,001,78,2019_Oct_30_1206,ACPT_experiment_5_30_19,3.1.0,59.95262027264454,
,,,C,G,y,b,L,D,y,R,y,,,,,9,18,198,5,4,0,4,0,,,,,0,26,26,33,,,,,,down,1.8514379706866748,4070.605815938786,None,001,78,2019_Oct_30_1206,ACPT_experiment_5_30_19,3.1.0,59.95262027264454,
,,,C,G,y,b,L,G,d,R,i,,,,,9,18,198,5,4,0,4,0,,,,,0,27,27,17,,,,,,down,0.416954445949159,4073.7583333232715,None,001,78,2019_Oct_30_1206,ACPT_experiment_5_30_19,3.1.0,59.95262027264454,
,,,C,G,y,b,L,G,g,R,c ,,,,,9,18,198,5,4,0,4,0,,,,,0,28,28,19,,,,,,down,1.6346281791047659,4075.4429849875805,None,001,78,2019_Oct_30_1206,ACPT_experiment_5_30_19,3.1.0,59.95262027264454,
,,,C,G,y,b,L,G,g,L,c ,,,,,9,18,198,5,4,0,4,0,,,,,0,29,29,18,,,,,,down,2.568688185312567,4078.3620045014313,None,001,78,2019_Oct_30_1206,ACPT_experiment_5_30_19,3.1.0,59.95262027264454,
,,,C,G,y,b,L,D,g,R,i,,,,,9,18,198,5,4,0,4,0,,,,,0,30,30,15,,,,,,down,0.18345174545174814,4082.2150755692282,None,001,78,2019_Oct_30_1206,ACPT_experiment_5_30_19,3.1.0,59.95262027264454,
,,,C,G,y,b,R,D,g,L,i,,,,,9,18,198,5,4,0,4,0,,,,,0,31,31,2,,,,,,up,2.1183442991332413,4083.6829168382274,None,001,78,2019_Oct_30_1206,ACPT_experiment_5_30_19,3.1.0,59.95262027264454,
,,,C,G,y,b,L,D,y,L,y,,,,,9,18,198,5,4,0,4,0,,,,,0,32,32,32,,,,,,up,1.584565451272283,4087.0856334545215,None,001,78,2019_Oct_30_1206,ACPT_experiment_5_30_19,3.1.0,59.95262027264454,
,,,C,G,y,b,L,D,d,L,c ,,,,,9,18,198,5,4,0,4,0,,,,,0,33,33,12,,,,,,up,0.48368593338818755,4089.954589938673,None,001,78,2019_Oct_30_1206,ACPT_experiment_5_30_19,3.1.0,59.95262027264454,
,,,C,G,y,b,R,G,d,R,i,,,,,9,18,198,5,4,0,4,0,,,,,0,34,34,5,,,,,,down,0.8006241992989089,4091.7226699236026,None,001,78,2019_Oct_30_1206,ACPT_experiment_5_30_19,3.1.0,59.95262027264454,
,,,C,G,y,b,R,D,d,L,c,,,,,9,18,198,5,4,0,4,0,,,,,0,35,35,0,,,,,,down,0.36693337567521667,4093.8076670437977,None,001,78,2019_Oct_30_1206,ACPT_experiment_5_30_19,3.1.0,59.95262027264454,
,,,C,G,y,b,R,U,y,L,u,,,,,9,18,198,5,4,0,4,0,,,,,1,0,36,30,,,,,,down,0.1334370143722481,4095.4589823963606,None,001,78,2019_Oct_30_1206,ACPT_experiment_5_30_19,3.1.0,59.95262027264454,
,,,C,G,y,b,L,U,g,L,u,,,,,9,18,198,5,4,0,4,0,,,,,1,1,37,22,,,,,,up,0.4336340727440984,4096.876804406283,None,001,78,2019_Oct_30_1206,ACPT_experiment_5_30_19,3.1.0,59.95262027264454,
,,,C,G,y,b,R,D,y,L,y,,,,,9,18,198,5,4,0,4,0,,,,,1,2,38,26,,,,,,up,0.7335555271129124,4098.61188616981,None,001,78,2019_Oct_30_1206,ACPT_experiment_5_30_19,3.1.0,59.95262027264454,
,,,C,G,y,b,R,G,y,L,y,,,,,9,18,198,5,4,0,4,0,,,,,1,3,39,28,,,,,,down,0.10006961038743611,4100.646459831848,None,001,78,2019_Oct_30_1206,ACPT_experiment_5_30_19,3.1.0,59.95262027264454,
,,,C,G,y,b,R,U,y,R,u,,,,,9,18,198,5,4,0,4,0,,,,,1,4,40,31,,,,,,up,0.26687221754582424,4102.047569613406,None,001,78,2019_Oct_30_1206,ACPT_experiment_5_30_19,3.1.0,59.95262027264454,
,,,C,G,y,b,L,D,d,R,c ,,,,,9,18,198,5,4,0,4,0,,,,,1,5,41,13,,,,,,down,0.08339209665427916,4103.598811733184,None,001,78,2019_Oct_30_1206,ACPT_experiment_5_30_19,3.1.0,59.95262027264454,
,,,C,G,y,b,R,U,d,R,u,,,,,9,18,198,5,4,0,4,0,,,,,1,6,42,9,,,,,,down,6.731620305799879e-05,4104.986573285308,None,001,78,2019_Oct_30_1206,ACPT_experiment_5_30_19,3.1.0,59.95262027264454,
,,,C,G,y,b,R,G,d,L,i,,,,,9,18,198,5,4,0,4,0,,,,,1,7,43,4,,,,,,up,0.09673942048902973,4106.287614663944,None,001,78,2019_Oct_30_1206,ACPT_experiment_5_30_19,3.1.0,59.95262027264454,
,,,C,G,y,b,R,U,g,R,u,,,,,9,18,198,5,4,0,4,0,,,,,1,8,44,11,,,,,,up,0.3167930681811413,4107.668739381849,None,001,78,2019_Oct_30_1206,ACPT_experiment_5_30_19,3.1.0,59.95262027264454,
,,,C,G,y,b,R,D,d,L,c,,,,,9,18,198,5,4,0,4,0,,,,,1,9,45,0,,,,,,down,0.7338948249234818,4109.270019476419,None,001,78,2019_Oct_30_1206,ACPT_experiment_5_30_19,3.1.0,59.95262027264454,
,,,C,G,y,b,L,D,y,R,y,,,,,9,18,198,5,4,0,4,0,,,,,1,10,46,33,,,,,,up,0.00021040086721768603,4111.3049659434355,None,001,78,2019_Oct_30_1206,ACPT_experiment_5_30_19,3.1.0,59.95262027264454,
,,,C,G,y,b,L,G,g,L,c ,,,,,9,18,198,5,4,0,4,0,,,,,1,11,47,18,,,,,,up,0.06672031838388648,4112.606010038869,None,001,78,2019_Oct_30_1206,ACPT_experiment_5_30_19,3.1.0,59.95262027264454,
,,,C,G,y,b,R,D,y,R,y,,,,,9,18,198,5,4,0,4,0,,,,,1,12,48,27,,,,,,up,0.30011978057882516,4113.957084864299,None,001,78,2019_Oct_30_1206,ACPT_experiment_5_30_19,3.1.0,59.95262027264454,
,,,C,G,y,b,L,G,d,R,i,,,,,9,18,198,5,4,0,4,0,,,,,1,13,49,17,,,,,,down,0.4670301540354558,4115.541675672347,None,001,78,2019_Oct_30_1206,ACPT_experiment_5_30_19,3.1.0,59.95262027264454,
,,,C,G,y,b,R,G,d,R,i,,,,,9,18,198,5,4,0,4,0,,,,,1,14,50,5,,,,,,down,0.16677996717953647,4117.293079652877,None,001,78,2019_Oct_30_1206,ACPT_experiment_5_30_19,3.1.0,59.95262027264454,
,,,C,G,y,b,R,U,d,L,u,,,,,9,18,198,5,4,0,4,0,,,,,1,15,51,8,,,,,,down,0.08340900117218553,4118.744220466299,None,001,78,2019_Oct_30_1206,ACPT_experiment_5_30_19,3.1.0,59.95262027264454,
,,,C,G,y,b,L,D,g,L,i,,,,,9,18,198,5,4,0,4,0,,,,,1,16,52,14,,,,,,down,0.7839334034470085,4120.111994237975,None,001,78,2019_Oct_30_1206,ACPT_experiment_5_30_19,3.1.0,59.95262027264454,
,,,C,G,y,b,L,U,d,R,u,,,,,9,18,198,5,4,0,4,0,,,,,1,17,53,21,,,,,,down,0.11672538974016788,4122.180314146303,None,001,78,2019_Oct_30_1206,ACPT_experiment_5_30_19,3.1.0,59.95262027264454,
,,,C,G,y,b,R,D,g,L,i,,,,,9,18,198,5,4,0,4,0,,,,,1,18,54,2,,,,,,down,0.1667974754309398,4123.581428455857,None,001,78,2019_Oct_30_1206,ACPT_experiment_5_30_19,3.1.0,59.95262027264454,
,,,C,G,y,b,L,G,d,L,i,,,,,9,18,198,5,4,0,4,0,,,,,1,19,55,16,,,,,,up,0.2999549615360593,4125.066219823927,None,001,78,2019_Oct_30_1206,ACPT_experiment_5_30_19,3.1.0,59.95262027264454,
,,,C,G,y,b,R,D,d,R,c ,,,,,9,18,198,5,4,0,4,0,,,,,1,20,56,1,,,,,,up,0.13344335356669035,4126.650562497812,None,001,78,2019_Oct_30_1206,ACPT_experiment_5_30_19,3.1.0,59.95262027264454,
,,,C,G,y,b,R,G,g,R,c ,,,,,9,18,198,5,4,0,4,0,,,,,1,21,57,7,,,,,,up,0.05003918225520465,4128.0683356053805,None,001,78,2019_Oct_30_1206,ACPT_experiment_5_30_19,3.1.0,59.95262027264454,
,,,C,G,y,b,L,U,g,R,u,,,,,9,18,198,5,4,0,4,0,,,,,1,22,58,23,,,,,,up,0.4003179860446835,4129.402738954407,None,001,78,2019_Oct_30_1206,ACPT_experiment_5_30_19,3.1.0,59.95262027264454,
,,,C,G,y,b,L,D,d,L,c ,,,,,9,18,198,5,4,0,4,0,,,,,1,23,59,12,,,,,,down,0.11677308462822111,4131.087419899756,None,001,78,2019_Oct_30_1206,ACPT_experiment_5_30_19,3.1.0,59.95262027264454,
,,,C,G,y,b,L,G,y,R,y,,,,,9,18,198,5,4,0,4,0,,,,,1,24,60,35,,,,,,up,0.28351562037823896,4132.488545076499,None,001,78,2019_Oct_30_1206,ACPT_experiment_5_30_19,3.1.0,59.95262027264454,
,,,C,G,y,b,L,D,y,L,y,,,,,9,18,198,5,4,0,4,0,,,,,1,25,61,32,,,,,,down,0.4336606369852234,4134.056462295078,None,001,78,2019_Oct_30_1206,ACPT_experiment_5_30_19,3.1.0,59.95262027264454,
,,,C,G,y,b,R,D,g,R,i,,,,,9,18,198,5,4,0,4,0,,,,,1,26,62,3,,,,,,up,0.4502424590773444,4135.77449826789,None,001,78,2019_Oct_30_1206,ACPT_experiment_5_30_19,3.1.0,59.95262027264454,
,,,C,G,y,b,L,D,g,R,i,,,,,9,18,198,5,4,0,4,0,,,,,1,27,63,15,,,,,,down,6.641060281253885e-05,4137.526138911663,None,001,78,2019_Oct_30_1206,ACPT_experiment_5_30_19,3.1.0,59.95262027264454,
,,,C,G,y,b,L,G,g,R,c ,,,,,9,18,198,5,4,0,4,0,,,,,1,28,64,19,,,,,,up,0.09980970343531226,4138.827184214561,None,001,78,2019_Oct_30_1206,ACPT_experiment_5_30_19,3.1.0,59.95262027264454,
,,,C,G,y,b,L,U,y,R,u,,,,,9,18,198,5,4,0,4,0,,,,,1,29,65,25,,,,,,up,0.10006387492649083,4140.211356877301,None,001,78,2019_Oct_30_1206,ACPT_experiment_5_30_19,3.1.0,59.95262027264454,
,,,C,G,y,b,L,U,y,L,u,,,,,9,18,198,5,4,0,4,0,,,,,1,30,66,24,,,,,,up,0.050010806817226694,4141.595809370173,None,001,78,2019_Oct_30_1206,ACPT_experiment_5_30_19,3.1.0,59.95262027264454,
