facing_vig,person_vig,text_vig,facing_train,person_train,food_train,correct_key_train,facing_exp,person_exp,food_exp,showL_R,consistent,vig_random.thisRepN,vig_random.thisTrialN,vig_random.thisN,vig_random.thisIndex,trainTrials.thisRepN,trainTrials.thisTrialN,trainTrials.thisN,trainTrials.thisIndex,expBlock.thisRepN,expBlock.thisTrialN,expBlock.thisN,expBlock.thisIndex,breakLoop.thisRepN,breakLoop.thisTrialN,breakLoop.thisN,breakLoop.thisIndex,expTrials.thisRepN,expTrials.thisTrialN,expTrials.thisN,expTrials.thisIndex,train_resp.keys,train_resp.corr,train_resp.rt,train_resp.started,train_resp.stopped,exp_resp.keys,exp_resp.rt,exp_resp.started,exp_resp.stopped,session,participant,date,expName,psychopyVersion,frameRate,
C,D,"is allergic to gluten, meaning she can’t eat wheat products. She enjoys eating dairy products. She thinks eating insects, like crickets, is disgusting.",,,,,,,,,,0,0,0,1,,,,,,,,,,,,,,,,,,,,,,,,,,001,79,2019_Oct_30_1402,ACPT_experiment_5_30_19,3.1.0,59.953922305566564,
C,G,"cannot eat dairy products because she is lactose intolerant. She enjoys eating wheat products. She thinks eating insects, like crickets, is disgusting.",,,,,,,,,,0,1,1,0,,,,,,,,,,,,,,,,,,,,,,,,,,001,79,2019_Oct_30_1402,ACPT_experiment_5_30_19,3.1.0,59.953922305566564,
C,U,"did not report her food preferences, so her food preferences are unknown.",,,,,,,,,,0,2,2,2,,,,,,,,,,,,,,,,,,,,,,,,,,001,79,2019_Oct_30_1402,ACPT_experiment_5_30_19,3.1.0,59.953922305566564,
,,,C,D,y,b,,,,,,,,,,0,0,0,11,,,,,,,,,,,,,b,1,2.952326544560492,709.4086905519453,None,,,,,001,79,2019_Oct_30_1402,ACPT_experiment_5_30_19,3.1.0,59.953922305566564,
,,,C,G,y,b,,,,,,,,,,0,1,1,14,,,,,,,,,,,,,b,1,1.5846182778896036,715.6469633449688,None,,,,,001,79,2019_Oct_30_1402,ACPT_experiment_5_30_19,3.1.0,59.953922305566564,
,,,C,G,g,v,,,,,,,,,,0,2,2,19,,,,,,,,,,,,,v,1,9.941334080351226,720.5008364717378,None,,,,,001,79,2019_Oct_30_1402,ACPT_experiment_5_30_19,3.1.0,59.953922305566564,
,,,C,U,y,n,,,,,,,,,,0,3,3,17,,,,,,,,,,,,,n,1,6.038170399948285,733.7280748411285,None,,,,,001,79,2019_Oct_30_1402,ACPT_experiment_5_30_19,3.1.0,59.953922305566564,
,,,C,G,y,b,,,,,,,,,,0,4,4,5,,,,,,,,,,,,,b,1,3.035772373430518,743.0521872634126,None,,,,,001,79,2019_Oct_30_1402,ACPT_experiment_5_30_19,3.1.0,59.953922305566564,
,,,C,D,g,b,,,,,,,,,,0,5,5,10,,,,,,,,,,,,,b,1,6.955573721203109,749.3739049797096,None,,,,,001,79,2019_Oct_30_1402,ACPT_experiment_5_30_19,3.1.0,59.953922305566564,
,,,C,G,d,b,,,,,,,,,,0,6,6,12,,,,,,,,,,,,,b,1,2.8022572964127903,759.6154309867052,None,,,,,001,79,2019_Oct_30_1402,ACPT_experiment_5_30_19,3.1.0,59.953922305566564,
,,,C,D,y,b,,,,,,,,,,0,7,7,2,,,,,,,,,,,,,b,1,1.2676957090297947,765.7036194382636,None,,,,,001,79,2019_Oct_30_1402,ACPT_experiment_5_30_19,3.1.0,59.953922305566564,
,,,C,D,d,v,,,,,,,,,,0,8,8,18,,,,,,,,,,,,,v,1,4.216710477539891,770.2772754385824,None,,,,,001,79,2019_Oct_30_1402,ACPT_experiment_5_30_19,3.1.0,59.953922305566564,
,,,C,D,d,v,,,,,,,,,,0,9,9,9,,,,,,,,,,,,,v,1,2.1350595461608464,777.7632449911307,None,,,,,001,79,2019_Oct_30_1402,ACPT_experiment_5_30_19,3.1.0,59.953922305566564,
,,,C,G,g,v,,,,,,,,,,0,10,10,13,,,,,,,,,,,,,v,1,3.936498180954004,783.1842459558957,None,,,,,001,79,2019_Oct_30_1402,ACPT_experiment_5_30_19,3.1.0,59.953922305566564,
,,,C,D,g,b,,,,,,,,,,0,11,11,1,,,,,,,,,,,,,b,1,5.0206920347136474,790.4066861591855,None,,,,,001,79,2019_Oct_30_1402,ACPT_experiment_5_30_19,3.1.0,59.953922305566564,
,,,C,D,d,v,,,,,,,,,,0,12,12,0,,,,,,,,,,,,,v,1,4.88727132112399,798.7132963687891,None,,,,,001,79,2019_Oct_30_1402,ACPT_experiment_5_30_19,3.1.0,59.953922305566564,
,,,C,G,g,v,,,,,,,,,,0,13,13,4,,,,,,,,,,,,,b,0,1.801446181450956,806.8865175607752,None,,,,,001,79,2019_Oct_30_1402,ACPT_experiment_5_30_19,3.1.0,59.953922305566564,
,,,C,U,d,n,,,,,,,,,,0,14,14,6,,,,,,,,,,,,,n,1,1.6513506709288777,811.9738882563106,None,,,,,001,79,2019_Oct_30_1402,ACPT_experiment_5_30_19,3.1.0,59.953922305566564,
,,,C,G,d,b,,,,,,,,,,0,15,15,3,,,,,,,,,,,,,b,1,6.571922079834621,816.9111963447613,None,,,,,001,79,2019_Oct_30_1402,ACPT_experiment_5_30_19,3.1.0,59.953922305566564,
,,,C,U,y,n,,,,,,,,,,0,16,16,8,,,,,,,,,,,,,n,1,1.301079413800835,826.7690384106863,None,,,,,001,79,2019_Oct_30_1402,ACPT_experiment_5_30_19,3.1.0,59.953922305566564,
,,,C,U,g,n,,,,,,,,,,0,17,17,7,,,,,,,,,,,,,n,1,1.3644366388507478,831.3760681541844,None,,,,,001,79,2019_Oct_30_1402,ACPT_experiment_5_30_19,3.1.0,59.953922305566564,
,,,C,U,d,n,,,,,,,,,,0,18,18,15,,,,,,,,,,,,,n,1,1.3177324763546494,836.0097774520309,None,,,,,001,79,2019_Oct_30_1402,ACPT_experiment_5_30_19,3.1.0,59.953922305566564,
,,,C,U,g,n,,,,,,,,,,0,19,19,16,,,,,,,,,,,,,n,1,0.7670497149774747,840.6137169894027,None,,,,,001,79,2019_Oct_30_1402,ACPT_experiment_5_30_19,3.1.0,59.953922305566564,
,,,C,G,d,b,,,,,,,,,,1,0,20,3,,,,,,,,,,,,,b,1,5.771303012263161,844.6666930296633,None,,,,,001,79,2019_Oct_30_1402,ACPT_experiment_5_30_19,3.1.0,59.953922305566564,
,,,C,U,d,n,,,,,,,,,,1,1,21,15,,,,,,,,,,,,,n,1,1.1342508461329999,853.72392417841,None,,,,,001,79,2019_Oct_30_1402,ACPT_experiment_5_30_19,3.1.0,59.953922305566564,
,,,C,D,y,b,,,,,,,,,,1,2,22,11,,,,,,,,,,,,,b,1,1.7511984095253865,858.1610378649111,None,,,,,001,79,2019_Oct_30_1402,ACPT_experiment_5_30_19,3.1.0,59.953922305566564,
,,,C,G,g,v,,,,,,,,,,1,3,23,4,,,,,,,,,,,,,v,1,4.119994904494888,863.1981668258504,None,,,,,001,79,2019_Oct_30_1402,ACPT_experiment_5_30_19,3.1.0,59.953922305566564,
,,,C,D,g,b,,,,,,,,,,1,4,24,1,,,,,,,,,,,,,b,1,1.467873870567928,870.6040693399154,None,,,,,001,79,2019_Oct_30_1402,ACPT_experiment_5_30_19,3.1.0,59.953922305566564,
,,,C,D,d,v,,,,,,,,,,1,5,25,18,,,,,,,,,,,,,v,1,4.0032338945238735,875.3411829660436,None,,,,,001,79,2019_Oct_30_1402,ACPT_experiment_5_30_19,3.1.0,59.953922305566564,
,,,C,U,y,n,,,,,,,,,,1,6,26,8,,,,,,,,,,,,,n,1,2.0016146832640516,882.6303377522545,None,,,,,001,79,2019_Oct_30_1402,ACPT_experiment_5_30_19,3.1.0,59.953922305566564,
,,,C,G,g,v,,,,,,,,,,1,7,27,13,,,,,,,,,,,,,v,1,2.7689104193414096,887.9178796664019,None,,,,,001,79,2019_Oct_30_1402,ACPT_experiment_5_30_19,3.1.0,59.953922305566564,
,,,C,U,g,n,,,,,,,,,,1,8,28,16,,,,,,,,,,,,,n,1,1.1175908406494273,893.9727109774321,None,,,,,001,79,2019_Oct_30_1402,ACPT_experiment_5_30_19,3.1.0,59.953922305566564,
,,,C,D,d,v,,,,,,,,,,1,9,29,9,,,,,,,,,,,,,v,1,2.585162542971375,898.393178242437,None,,,,,001,79,2019_Oct_30_1402,ACPT_experiment_5_30_19,3.1.0,59.953922305566564,
,,,C,G,y,b,,,,,,,,,,1,10,30,14,,,,,,,,,,,,,b,1,2.2518314233257115,904.2642668088265,None,,,,,001,79,2019_Oct_30_1402,ACPT_experiment_5_30_19,3.1.0,59.953922305566564,
,,,C,U,y,n,,,,,,,,,,1,11,31,17,,,,,,,,,,,,,n,1,1.1509274542640924,909.80205323474,None,,,,,001,79,2019_Oct_30_1402,ACPT_experiment_5_30_19,3.1.0,59.953922305566564,
,,,C,D,y,b,,,,,,,,,,1,12,32,2,,,,,,,,,,,,,b,1,1.2173763947739644,914.2558719048138,None,,,,,001,79,2019_Oct_30_1402,ACPT_experiment_5_30_19,3.1.0,59.953922305566564,
,,,C,U,g,n,,,,,,,,,,1,13,33,7,,,,,,,,,,,,,n,1,1.484532970449436,918.7591888125917,None,,,,,001,79,2019_Oct_30_1402,ACPT_experiment_5_30_19,3.1.0,59.953922305566564,
,,,C,G,d,b,,,,,,,,,,1,14,34,12,,,,,,,,,,,,,b,1,1.9515809346012247,923.5296598811128,None,,,,,001,79,2019_Oct_30_1402,ACPT_experiment_5_30_19,3.1.0,59.953922305566564,
,,,C,D,d,v,,,,,,,,,,1,15,35,0,,,,,,,,,,,,,v,1,1.0174810820335551,928.7838697096413,None,,,,,001,79,2019_Oct_30_1402,ACPT_experiment_5_30_19,3.1.0,59.953922305566564,
,,,C,D,g,b,,,,,,,,,,1,16,36,10,,,,,,,,,,,,,b,1,1.7314056347586302,933.1073089699003,None,,,,,001,79,2019_Oct_30_1402,ACPT_experiment_5_30_19,3.1.0,59.953922305566564,
,,,C,G,y,b,,,,,,,,,,1,17,37,5,,,,,,,,,,,,,b,1,1.4511604347353568,938.1246671923163,None,,,,,001,79,2019_Oct_30_1402,ACPT_experiment_5_30_19,3.1.0,59.953922305566564,
,,,C,G,g,v,,,,,,,,,,1,18,38,19,,,,,,,,,,,,,v,1,5.154135690145267,942.8450857964635,None,,,,,001,79,2019_Oct_30_1402,ACPT_experiment_5_30_19,3.1.0,59.953922305566564,
,,,C,U,d,n,,,,,,,,,,1,19,39,6,,,,,,,,,,,,,n,1,1.3177442491432885,951.2851441894945,None,,,,,001,79,2019_Oct_30_1402,ACPT_experiment_5_30_19,3.1.0,59.953922305566564,
,,,C,G,g,v,,,,,,,,,,2,0,40,4,,,,,,,,,,,,,v,1,2.8853925047787925,955.9057696928576,None,,,,,001,79,2019_Oct_30_1402,ACPT_experiment_5_30_19,3.1.0,59.953922305566564,
,,,C,D,y,b,,,,,,,,,,2,1,41,11,,,,,,,,,,,,,b,1,1.4011444961906818,962.0771168983592,None,,,,,001,79,2019_Oct_30_1402,ACPT_experiment_5_30_19,3.1.0,59.953922305566564,
,,,C,G,g,v,,,,,,,,,,2,2,42,13,,,,,,,,,,,,,v,1,2.6517346449618344,966.7812458870703,None,,,,,001,79,2019_Oct_30_1402,ACPT_experiment_5_30_19,3.1.0,59.953922305566564,
,,,C,D,y,b,,,,,,,,,,2,3,43,2,,,,,,,,,,,,,b,1,3.0357551670458633,972.718958778336,None,,,,,001,79,2019_Oct_30_1402,ACPT_experiment_5_30_19,3.1.0,59.953922305566564,
,,,C,D,d,v,,,,,,,,,,2,4,44,9,,,,,,,,,,,,,v,1,2.0683395296437084,979.0406541565189,None,,,,,001,79,2019_Oct_30_1402,ACPT_experiment_5_30_19,3.1.0,59.953922305566564,
,,,C,G,y,b,,,,,,,,,,2,5,45,5,,,,,,,,,,,,,b,1,1.2343841503261501,984.3949317842362,None,,,,,001,79,2019_Oct_30_1402,ACPT_experiment_5_30_19,3.1.0,59.953922305566564,
,,,C,G,g,v,,,,,,,,,,2,6,46,19,,,,,,,,,,,,,v,1,4.50365228132614,988.9151921500252,None,,,,,001,79,2019_Oct_30_1402,ACPT_experiment_5_30_19,3.1.0,59.953922305566564,
,,,C,U,y,n,,,,,,,,,,2,7,47,8,,,,,,,,,,,,,n,1,1.0175215321287396,996.7047339289365,None,,,,,001,79,2019_Oct_30_1402,ACPT_experiment_5_30_19,3.1.0,59.953922305566564,
,,,C,U,y,n,,,,,,,,,,2,8,48,17,,,,,,,,,,,,,n,1,0.9807979777360742,1001.0282048851641,None,,,,,001,79,2019_Oct_30_1402,ACPT_experiment_5_30_19,3.1.0,59.953922305566564,
,,,C,G,y,b,,,,,,,,,,2,9,49,14,,,,,,,,,,,,,b,1,1.584636389870866,1005.2949539412275,None,,,,,001,79,2019_Oct_30_1402,ACPT_experiment_5_30_19,3.1.0,59.953922305566564,
,,,C,U,d,n,,,,,,,,,,2,10,50,15,,,,,,,,,,,,,n,1,1.4511924325706786,1010.1654828473493,None,,,,,001,79,2019_Oct_30_1402,ACPT_experiment_5_30_19,3.1.0,59.953922305566564,
,,,C,D,d,v,,,,,,,,,,2,11,51,0,,,,,,,,,,,,,v,1,1.6179693810881872,1014.9026209246531,None,,,,,001,79,2019_Oct_30_1402,ACPT_experiment_5_30_19,3.1.0,59.953922305566564,
,,,C,G,d,b,,,,,,,,,,2,12,52,12,,,,,,,,,,,,,b,1,1.5678855226105952,1019.806564627781,None,,,,,001,79,2019_Oct_30_1402,ACPT_experiment_5_30_19,3.1.0,59.953922305566564,
,,,C,U,g,n,,,,,,,,,,2,13,53,16,,,,,,,,,,,,,n,1,1.2010058791493066,1024.6604102847086,None,,,,,001,79,2019_Oct_30_1402,ACPT_experiment_5_30_19,3.1.0,59.953922305566564,
,,,C,U,g,n,,,,,,,,,,2,14,54,7,,,,,,,,,,,,,n,1,0.9504933100379276,1029.1475978680992,None,,,,,001,79,2019_Oct_30_1402,ACPT_experiment_5_30_19,3.1.0,59.953922305566564,
,,,C,U,d,n,,,,,,,,,,2,15,55,6,,,,,,,,,,,,,n,1,0.9340941171085433,1033.3673541774078,None,,,,,001,79,2019_Oct_30_1402,ACPT_experiment_5_30_19,3.1.0,59.953922305566564,
,,,C,D,d,v,,,,,,,,,,2,16,56,18,,,,,,,,,,,,,v,1,1.267699633292068,1037.587397561645,None,,,,,001,79,2019_Oct_30_1402,ACPT_experiment_5_30_19,3.1.0,59.953922305566564,
,,,C,G,d,b,,,,,,,,,,2,17,57,3,,,,,,,,,,,,,b,1,0.8506808898055169,1042.1410422359368,None,,,,,001,79,2019_Oct_30_1402,ACPT_experiment_5_30_19,3.1.0,59.953922305566564,
,,,C,D,g,b,,,,,,,,,,2,18,58,10,,,,,,,,,,,,,b,1,2.76861972201732,1046.2946173602159,None,,,,,001,79,2019_Oct_30_1402,ACPT_experiment_5_30_19,3.1.0,59.953922305566564,
,,,C,D,g,b,,,,,,,,,,2,19,59,1,,,,,,,,,,,,,b,1,1.9350688436479686,1052.3323500539136,None,,,,,001,79,2019_Oct_30_1402,ACPT_experiment_5_30_19,3.1.0,59.953922305566564,
,,,C,G,g,v,,,,,,,,,,3,0,60,4,,,,,,,,,,,,,v,1,1.251023930759402,1057.5533340537877,None,,,,,001,79,2019_Oct_30_1402,ACPT_experiment_5_30_19,3.1.0,59.953922305566564,
,,,C,U,d,n,,,,,,,,,,3,1,61,15,,,,,,,,,,,,,n,1,0.9836826128594112,1062.1073928887527,None,,,,,001,79,2019_Oct_30_1402,ACPT_experiment_5_30_19,3.1.0,59.953922305566564,
,,,C,D,d,v,,,,,,,,,,3,2,62,9,,,,,,,,,,,,,v,1,1.4011801164233475,1066.3770452956542,None,,,,,001,79,2019_Oct_30_1402,ACPT_experiment_5_30_19,3.1.0,59.953922305566564,
,,,C,U,g,n,,,,,,,,,,3,3,63,16,,,,,,,,,,,,,n,1,1.6346411593603989,1071.0641321160474,None,,,,,001,79,2019_Oct_30_1402,ACPT_experiment_5_30_19,3.1.0,59.953922305566564,
,,,C,G,g,v,,,,,,,,,,3,4,64,13,,,,,,,,,,,,,b,0,2.652125863789479,1075.984716203342,None,,,,,001,79,2019_Oct_30_1402,ACPT_experiment_5_30_19,3.1.0,59.953922305566564,
,,,C,U,y,n,,,,,,,,,,3,5,65,8,,,,,,,,,,,,,n,1,1.284391334746033,1081.9227638644206,None,,,,,001,79,2019_Oct_30_1402,ACPT_experiment_5_30_19,3.1.0,59.953922305566564,
,,,C,G,d,b,,,,,,,,,,3,6,66,12,,,,,,,,,,,,,b,1,1.501225879366757,1086.4931041644286,None,,,,,001,79,2019_Oct_30_1402,ACPT_experiment_5_30_19,3.1.0,59.953922305566564,
,,,C,G,y,b,,,,,,,,,,3,7,67,14,,,,,,,,,,,,,b,1,1.5012213513709867,1091.2802406720275,None,,,,,001,79,2019_Oct_30_1402,ACPT_experiment_5_30_19,3.1.0,59.953922305566564,
,,,C,D,d,v,,,,,,,,,,3,8,68,0,,,,,,,,,,,,,v,1,1.8348341123491991,1096.0673886505483,None,,,,,001,79,2019_Oct_30_1402,ACPT_experiment_5_30_19,3.1.0,59.953922305566564,
,,,C,D,d,v,,,,,,,,,,3,9,69,18,,,,,,,,,,,,,v,1,1.3510914280814177,1101.1714818379078,None,,,,,001,79,2019_Oct_30_1402,ACPT_experiment_5_30_19,3.1.0,59.953922305566564,
,,,C,G,y,b,,,,,,,,,,3,10,70,5,,,,,,,,,,,,,b,1,1.3344253852719703,1105.8085089491306,None,,,,,001,79,2019_Oct_30_1402,ACPT_experiment_5_30_19,3.1.0,59.953922305566564,
,,,C,U,g,n,,,,,,,,,,3,11,71,7,,,,,,,,,,,,,n,1,1.7847876852993068,1110.4288884313937,None,,,,,001,79,2019_Oct_30_1402,ACPT_experiment_5_30_19,3.1.0,59.953922305566564,
,,,C,D,g,b,,,,,,,,,,3,12,72,10,,,,,,,,,,,,,b,1,3.936488219362218,1115.4995906691893,None,,,,,001,79,2019_Oct_30_1402,ACPT_experiment_5_30_19,3.1.0,59.953922305566564,
,,,C,U,d,n,,,,,,,,,,3,13,73,6,,,,,,,,,,,,,n,1,1.0675365650749882,1122.7220157791598,None,,,,,001,79,2019_Oct_30_1402,ACPT_experiment_5_30_19,3.1.0,59.953922305566564,
,,,C,D,y,b,,,,,,,,,,3,14,74,11,,,,,,,,,,,,,b,1,1.6346616862738301,1127.1088662985512,None,,,,,001,79,2019_Oct_30_1402,ACPT_experiment_5_30_19,3.1.0,59.953922305566564,
,,,C,G,d,b,,,,,,,,,,3,15,75,3,,,,,,,,,,,,,b,1,3.419445145445934,1132.0294491783807,None,,,,,001,79,2019_Oct_30_1402,ACPT_experiment_5_30_19,3.1.0,59.953922305566564,
,,,C,D,y,b,,,,,,,,,,3,16,76,2,,,,,,,,,,,,,b,1,0.9674376736493286,1138.7348137061836,None,,,,,001,79,2019_Oct_30_1402,ACPT_experiment_5_30_19,3.1.0,59.953922305566564,
,,,C,D,g,b,,,,,,,,,,3,17,77,1,,,,,,,,,,,,,b,1,2.3318842740900436,1143.008200502065,None,,,,,001,79,2019_Oct_30_1402,ACPT_experiment_5_30_19,3.1.0,59.953922305566564,
,,,C,G,g,v,,,,,,,,,,3,18,78,19,,,,,,,,,,,,,v,1,1.6846845677446254,1148.6260319302182,None,,,,,001,79,2019_Oct_30_1402,ACPT_experiment_5_30_19,3.1.0,59.953922305566564,
,,,C,U,y,n,,,,,,,,,,3,19,79,17,,,,,,,,,,,,,n,1,0.9007366747118795,1153.5966624445628,None,,,,,001,79,2019_Oct_30_1402,ACPT_experiment_5_30_19,3.1.0,59.953922305566564,
,,,C,D,g,b,,,,,,,,,,4,0,80,1,,,,,,,,,,,,,b,1,1.9513306873741385,1157.800258639114,None,,,,,001,79,2019_Oct_30_1402,ACPT_experiment_5_30_19,3.1.0,59.953922305566564,
,,,C,U,d,n,,,,,,,,,,4,1,81,6,,,,,,,,,,,,,n,1,0.6672209939606546,1163.0375265189614,None,,,,,001,79,2019_Oct_30_1402,ACPT_experiment_5_30_19,3.1.0,59.953922305566564,
,,,C,G,d,b,,,,,,,,,,4,2,82,3,,,,,,,,,,,,,b,1,1.868166197968094,1166.990689233393,None,,,,,001,79,2019_Oct_30_1402,ACPT_experiment_5_30_19,3.1.0,59.953922305566564,
,,,C,D,g,b,,,,,,,,,,4,3,83,10,,,,,,,,,,,,,b,1,0.9007393915107968,1172.1447965480984,None,,,,,001,79,2019_Oct_30_1402,ACPT_experiment_5_30_19,3.1.0,59.953922305566564,
,,,C,U,g,n,,,,,,,,,,4,4,84,16,,,,,,,,,,,,,n,1,0.7169891002104123,1176.348422929288,None,,,,,001,79,2019_Oct_30_1402,ACPT_experiment_5_30_19,3.1.0,59.953922305566564,
,,,C,U,y,n,,,,,,,,,,4,5,85,8,,,,,,,,,,,,,n,1,0.9174090567157691,1180.3346720101035,None,,,,,001,79,2019_Oct_30_1402,ACPT_experiment_5_30_19,3.1.0,59.953922305566564,
,,,C,G,g,v,,,,,,,,,,4,6,86,13,,,,,,,,,,,,,v,1,1.0339267623858177,1184.5549487370517,None,,,,,001,79,2019_Oct_30_1402,ACPT_experiment_5_30_19,3.1.0,59.953922305566564,
,,,C,G,y,b,,,,,,,,,,4,7,87,5,,,,,,,,,,,,,b,1,0.9174156977751409,1188.8581351781795,None,,,,,001,79,2019_Oct_30_1402,ACPT_experiment_5_30_19,3.1.0,59.953922305566564,
,,,C,D,d,v,,,,,,,,,,4,8,88,18,,,,,,,,,,,,,v,1,1.4008553082003345,1193.0784520533562,None,,,,,001,79,2019_Oct_30_1402,ACPT_experiment_5_30_19,3.1.0,59.953922305566564,
,,,C,U,d,n,,,,,,,,,,4,9,89,15,,,,,,,,,,,,,n,1,0.7839445725039695,1197.7652714201377,None,,,,,001,79,2019_Oct_30_1402,ACPT_experiment_5_30_19,3.1.0,59.953922305566564,
,,,C,D,d,v,,,,,,,,,,4,10,90,9,,,,,,,,,,,,,v,1,2.034583321761602,1201.852207729953,None,,,,,001,79,2019_Oct_30_1402,ACPT_experiment_5_30_19,3.1.0,59.953922305566564,
,,,C,G,d,b,,,,,,,,,,4,11,91,12,,,,,,,,,,,,,b,1,1.7514269223756855,1207.1727382057798,None,,,,,001,79,2019_Oct_30_1402,ACPT_experiment_5_30_19,3.1.0,59.953922305566564,
,,,C,D,y,b,,,,,,,,,,4,12,92,11,,,,,,,,,,,,,b,1,0.8507146988413297,1212.210088132908,None,,,,,001,79,2019_Oct_30_1402,ACPT_experiment_5_30_19,3.1.0,59.953922305566564,
,,,C,U,y,n,,,,,,,,,,4,13,93,17,,,,,,,,,,,,,n,1,1.1841101160262042,1216.3635953372523,None,,,,,001,79,2019_Oct_30_1402,ACPT_experiment_5_30_19,3.1.0,59.953922305566564,
,,,C,G,g,v,,,,,,,,,,4,14,94,19,,,,,,,,,,,,,v,1,1.884839485572229,1220.8503427994601,None,,,,,001,79,2019_Oct_30_1402,ACPT_experiment_5_30_19,3.1.0,59.953922305566564,
,,,C,G,g,v,,,,,,,,,,4,15,95,4,,,,,,,,,,,,,v,1,1.217805346899695,1226.0043049164378,None,,,,,001,79,2019_Oct_30_1402,ACPT_experiment_5_30_19,3.1.0,59.953922305566564,
,,,C,G,y,b,,,,,,,,,,4,16,96,14,,,,,,,,,,,,,b,1,0.8507216417656309,1230.4913868465956,None,,,,,001,79,2019_Oct_30_1402,ACPT_experiment_5_30_19,3.1.0,59.953922305566564,
,,,C,D,d,v,,,,,,,,,,4,17,97,0,,,,,,,,,,,,,v,1,2.0683371147133585,1234.6280028158108,None,,,,,001,79,2019_Oct_30_1402,ACPT_experiment_5_30_19,3.1.0,59.953922305566564,
,,,C,U,g,n,,,,,,,,,,4,18,98,7,,,,,,,,,,,,,n,1,0.7840046439123398,1239.9822532755516,None,,,,,001,79,2019_Oct_30_1402,ACPT_experiment_5_30_19,3.1.0,59.953922305566564,
,,,C,D,y,b,,,,,,,,,,4,19,99,2,,,,,,,,,,,,,b,1,0.9338526240044303,1244.069116231838,None,,,,,001,79,2019_Oct_30_1402,ACPT_experiment_5_30_19,3.1.0,59.953922305566564,
,,,C,G,y,b,,,,,,,,,,5,0,100,5,,,,,,,,,,,,,b,1,0.9174090567157691,1248.2889093688464,None,,,,,001,79,2019_Oct_30_1402,ACPT_experiment_5_30_19,3.1.0,59.953922305566564,
,,,C,G,g,v,,,,,,,,,,5,1,101,4,,,,,,,,,,,,,v,1,3.953174487218348,1252.4922622590966,None,,,,,001,79,2019_Oct_30_1402,ACPT_experiment_5_30_19,3.1.0,59.953922305566564,
,,,C,U,y,n,,,,,,,,,,5,2,102,17,,,,,,,,,,,,,n,1,1.0008482445264235,1259.73134465775,None,,,,,001,79,2019_Oct_30_1402,ACPT_experiment_5_30_19,3.1.0,59.953922305566564,
,,,C,G,g,v,,,,,,,,,,5,3,103,13,,,,,,,,,,,,,v,1,1.467444012843771,1264.03519550678,None,,,,,001,79,2019_Oct_30_1402,ACPT_experiment_5_30_19,3.1.0,59.953922305566564,
,,,C,D,y,b,,,,,,,,,,5,4,104,11,,,,,,,,,,,,,b,1,1.4511546992744115,1268.7886355760402,None,,,,,001,79,2019_Oct_30_1402,ACPT_experiment_5_30_19,3.1.0,59.953922305566564,
,,,C,U,d,n,,,,,,,,,,5,5,105,6,,,,,,,,,,,,,n,1,1.0174904398918443,1273.5257277696546,None,,,,,001,79,2019_Oct_30_1402,ACPT_experiment_5_30_19,3.1.0,59.953922305566564,
,,,C,G,g,v,,,,,,,,,,5,6,106,19,,,,,,,,,,,,,v,1,2.2184570764111413,1277.8291490628253,None,,,,,001,79,2019_Oct_30_1402,ACPT_experiment_5_30_19,3.1.0,59.953922305566564,
,,,C,U,d,n,,,,,,,,,,5,7,107,15,,,,,,,,,,,,,n,1,1.0842186068020965,1283.3335532933015,None,,,,,001,79,2019_Oct_30_1402,ACPT_experiment_5_30_19,3.1.0,59.953922305566564,
,,,C,U,g,n,,,,,,,,,,5,8,108,16,,,,,,,,,,,,,n,1,1.3341428383409948,1287.703965980867,None,,,,,001,79,2019_Oct_30_1402,ACPT_experiment_5_30_19,3.1.0,59.953922305566564,
,,,C,G,y,b,,,,,,,,,,5,9,109,14,,,,,,,,,,,,,b,1,1.3510902206162427,1292.3240532564741,None,,,,,001,79,2019_Oct_30_1402,ACPT_experiment_5_30_19,3.1.0,59.953922305566564,
,,,C,U,g,n,,,,,,,,,,5,10,110,7,,,,,,,,,,,,,n,1,0.9836729531361925,1296.978198002611,None,,,,,001,79,2019_Oct_30_1402,ACPT_experiment_5_30_19,3.1.0,59.953922305566564,
,,,C,D,d,v,,,,,,,,,,5,11,111,18,,,,,,,,,,,,,v,1,1.0341685573566792,1301.2478422591194,None,,,,,001,79,2019_Oct_30_1402,ACPT_experiment_5_30_19,3.1.0,59.953922305566564,
,,,C,D,g,b,,,,,,,,,,5,12,112,1,,,,,,,,,,,,,b,1,1.8512242492870428,1305.5682260278863,None,,,,,001,79,2019_Oct_30_1402,ACPT_experiment_5_30_19,3.1.0,59.953922305566564,
,,,C,G,d,b,,,,,,,,,,5,13,113,12,,,,,,,,,,,,,b,1,1.4344949956594064,1310.7053874696485,None,,,,,001,79,2019_Oct_30_1402,ACPT_experiment_5_30_19,3.1.0,59.953922305566564,
,,,C,D,d,v,,,,,,,,,,5,14,114,9,,,,,,,,,,,,,v,1,1.1842803686649859,1315.4258347510986,None,,,,,001,79,2019_Oct_30_1402,ACPT_experiment_5_30_19,3.1.0,59.953922305566564,
,,,C,D,d,v,,,,,,,,,,5,15,115,0,,,,,,,,,,,,,v,1,1.9012652427427383,1319.896326105043,None,,,,,001,79,2019_Oct_30_1402,ACPT_experiment_5_30_19,3.1.0,59.953922305566564,
,,,C,U,y,n,,,,,,,,,,5,16,116,8,,,,,,,,,,,,,n,1,1.0508478822866891,1325.0835288421258,None,,,,,001,79,2019_Oct_30_1402,ACPT_experiment_5_30_19,3.1.0,59.953922305566564,
,,,C,D,y,b,,,,,,,,,,5,17,117,2,,,,,,,,,,,,,b,1,1.984913322086868,1329.4370207116572,None,,,,,001,79,2019_Oct_30_1402,ACPT_experiment_5_30_19,3.1.0,59.953922305566564,
,,,C,G,d,b,,,,,,,,,,5,18,118,3,,,,,,,,,,,,,b,1,1.8514889861035044,1334.7078796784772,None,,,,,001,79,2019_Oct_30_1402,ACPT_experiment_5_30_19,3.1.0,59.953922305566564,
,,,C,D,g,b,,,,,,,,,,5,19,119,10,0,0,0,0,0,0,0,0,,,,,b,1,2.3352358965003077,1339.8453103850497,None,,,,,001,79,2019_Oct_30_1402,ACPT_experiment_5_30_19,3.1.0,59.953922305566564,
,,,C,D,g,b,L,D,y,L,y,,,,,5,19,119,10,0,0,0,0,,,,,0,0,0,32,,,,,,down,1.197975744433279,1407.135340281895,None,001,79,2019_Oct_30_1402,ACPT_experiment_5_30_19,3.1.0,59.953922305566564,
,,,C,D,g,b,L,G,d,L,i,,,,,5,19,119,10,0,0,0,0,,,,,0,1,1,16,,,,,,up,0.8339922070172179,1409.634356197499,None,001,79,2019_Oct_30_1402,ACPT_experiment_5_30_19,3.1.0,59.953922305566564,
,,,C,D,g,b,R,D,g,R,i,,,,,5,19,119,10,0,0,0,0,,,,,0,2,2,3,,,,,,up,1.684682454681024,1411.7527086470236,None,001,79,2019_Oct_30_1402,ACPT_experiment_5_30_19,3.1.0,59.953922305566564,
,,,C,D,g,b,L,U,y,L,u,,,,,5,19,119,10,0,0,0,0,,,,,0,3,3,24,,,,,,down,1.084218908668845,1414.721745910616,None,001,79,2019_Oct_30_1402,ACPT_experiment_5_30_19,3.1.0,59.953922305566564,
,,,C,D,g,b,L,D,g,L,i,,,,,5,19,119,10,0,0,0,0,,,,,0,4,4,14,,,,,,up,0.917397887660627,1417.0903036292802,None,001,79,2019_Oct_30_1402,ACPT_experiment_5_30_19,3.1.0,59.953922305566564,
,,,C,D,g,b,R,U,y,R,u,,,,,5,19,119,10,0,0,0,0,,,,,0,5,5,31,,,,,,down,0.6838755658482114,1419.2920611557147,None,001,79,2019_Oct_30_1402,ACPT_experiment_5_30_19,3.1.0,59.953922305566564,
,,,C,D,g,b,R,G,g,R,c ,,,,,5,19,119,10,0,0,0,0,,,,,0,6,6,7,,,,,,up,0.7172351213066577,1421.2603002846008,None,001,79,2019_Oct_30_1402,ACPT_experiment_5_30_19,3.1.0,59.953922305566564,
,,,C,D,g,b,L,G,d,R,i,,,,,5,19,119,10,0,0,0,0,,,,,0,7,7,17,,,,,,up,0.884033502337843,1423.2619071193385,None,001,79,2019_Oct_30_1402,ACPT_experiment_5_30_19,3.1.0,59.953922305566564,
,,,C,D,g,b,L,G,y,R,y,,,,,5,19,119,10,0,0,0,0,,,,,0,8,8,35,,,,,,down,0.7673017734032328,1425.4135967862094,None,001,79,2019_Oct_30_1402,ACPT_experiment_5_30_19,3.1.0,59.953922305566564,
,,,C,D,g,b,R,G,d,R,i,,,,,5,19,119,10,0,0,0,0,,,,,0,9,9,5,,,,,,up,0.7005437217230792,1427.4652663487814,None,001,79,2019_Oct_30_1402,ACPT_experiment_5_30_19,3.1.0,59.953922305566564,
,,,C,D,g,b,R,U,d,R,u,,,,,5,19,119,10,0,0,0,0,,,,,0,10,10,9,,,,,,up,0.6672019763791468,1429.4501669924812,None,001,79,2019_Oct_30_1402,ACPT_experiment_5_30_19,3.1.0,59.953922305566564,
,,,C,D,g,b,L,G,g,L,c ,,,,,5,19,119,10,0,0,0,0,,,,,0,11,11,18,,,,,,up,0.7005539851797948,1431.4017316262998,None,001,79,2019_Oct_30_1402,ACPT_experiment_5_30_19,3.1.0,59.953922305566564,
,,,C,D,g,b,R,G,y,L,y,,,,,5,19,119,10,0,0,0,0,,,,,0,12,12,28,,,,,,down,0.8506990017885983,1433.3866494763824,None,001,79,2019_Oct_30_1402,ACPT_experiment_5_30_19,3.1.0,59.953922305566564,
,,,C,D,g,b,R,U,g,L,u,,,,,5,19,119,10,0,0,0,0,,,,,0,13,13,10,,,,,,up,0.8337304888664221,1435.5386337648415,None,001,79,2019_Oct_30_1402,ACPT_experiment_5_30_19,3.1.0,59.953922305566564,
,,,C,D,g,b,L,D,d,R,c ,,,,,5,19,119,10,0,0,0,0,,,,,0,14,14,13,,,,,,up,0.7506067514223105,1437.6567199682195,None,001,79,2019_Oct_30_1402,ACPT_experiment_5_30_19,3.1.0,59.953922305566564,
,,,C,D,g,b,L,U,y,R,u,,,,,5,19,119,10,0,0,0,0,,,,,0,15,15,25,,,,,,down,0.7839826076669851,1439.6916779061594,None,001,79,2019_Oct_30_1402,ACPT_experiment_5_30_19,3.1.0,59.953922305566564,
,,,C,D,g,b,L,U,g,L,u,,,,,5,19,119,10,0,0,0,0,,,,,0,16,16,22,,,,,,up,0.5671269323975139,1441.7433070186344,None,001,79,2019_Oct_30_1402,ACPT_experiment_5_30_19,3.1.0,59.953922305566564,
,,,C,D,g,b,R,G,y,R,y,,,,,5,19,119,10,0,0,0,0,,,,,0,17,17,29,,,,,,down,0.6838831125096476,1443.594790269277,None,001,79,2019_Oct_30_1402,ACPT_experiment_5_30_19,3.1.0,59.953922305566564,
,,,C,D,g,b,R,G,d,L,i,,,,,5,19,119,10,0,0,0,0,,,,,0,18,18,4,,,,,,up,0.5170913725396531,1445.5463328668502,None,001,79,2019_Oct_30_1402,ACPT_experiment_5_30_19,3.1.0,59.953922305566564,
,,,C,D,g,b,L,U,d,R,u,,,,,5,19,119,10,0,0,0,0,,,,,0,19,19,21,,,,,,up,0.7672791334262001,1447.3477871986925,None,001,79,2019_Oct_30_1402,ACPT_experiment_5_30_19,3.1.0,59.953922305566564,
,,,C,D,g,b,L,G,y,L,y,,,,,5,19,119,10,0,0,0,0,,,,,0,20,20,34,,,,,,down,0.5671202913363231,1449.3994253671608,None,001,79,2019_Oct_30_1402,ACPT_experiment_5_30_19,3.1.0,59.953922305566564,
,,,C,D,g,b,L,G,g,R,c ,,,,,5,19,119,10,0,0,0,0,,,,,0,21,21,19,,,,,,up,0.46706577426994045,1451.2341978987697,None,001,79,2019_Oct_30_1402,ACPT_experiment_5_30_19,3.1.0,59.953922305566564,
,,,C,D,g,b,R,D,d,L,c,,,,,5,19,119,10,0,0,0,0,,,,,0,22,22,0,,,,,,up,0.4837034416395909,1452.9856329715367,None,001,79,2019_Oct_30_1402,ACPT_experiment_5_30_19,3.1.0,59.953922305566564,
,,,C,D,g,b,R,U,d,L,u,,,,,5,19,119,10,0,0,0,0,,,,,0,23,23,8,,,,,,up,0.7639513584599626,1454.7737052649118,None,001,79,2019_Oct_30_1402,ACPT_experiment_5_30_19,3.1.0,59.953922305566564,
,,,C,D,g,b,L,U,d,L,u,,,,,5,19,119,10,0,0,0,0,,,,,0,24,24,20,,,,,,up,0.48371793122532836,1456.8220162621456,None,001,79,2019_Oct_30_1402,ACPT_experiment_5_30_19,3.1.0,59.953922305566564,
,,,C,D,g,b,L,D,y,R,y,,,,,5,19,119,10,0,0,0,0,,,,,0,25,25,33,,,,,,down,0.7005482497188495,1458.5901167739903,None,001,79,2019_Oct_30_1402,ACPT_experiment_5_30_19,3.1.0,59.953922305566564,
,,,C,D,g,b,R,G,g,L,c ,,,,,5,19,119,10,0,0,0,0,,,,,0,26,26,6,,,,,,up,0.56711153721335,1460.5750159083582,None,001,79,2019_Oct_30_1402,ACPT_experiment_5_30_19,3.1.0,59.953922305566564,
,,,C,D,g,b,R,U,g,R,u,,,,,5,19,119,10,0,0,0,0,,,,,0,27,27,11,,,,,,up,0.583786032280841,1462.4098189284705,None,001,79,2019_Oct_30_1402,ACPT_experiment_5_30_19,3.1.0,59.953922305566564,
,,,C,D,g,b,R,D,y,L,y,,,,,5,19,119,10,0,0,0,0,,,,,0,28,28,26,,,,,,down,0.6338635515676287,1464.27794346888,None,001,79,2019_Oct_30_1402,ACPT_experiment_5_30_19,3.1.0,59.953922305566564,
,,,C,D,g,b,R,D,d,R,c ,,,,,5,19,119,10,0,0,0,0,,,,,0,29,29,1,,,,,,up,0.5337598302794504,1466.196163338691,None,001,79,2019_Oct_30_1402,ACPT_experiment_5_30_19,3.1.0,59.953922305566564,
,,,C,D,g,b,R,U,y,L,u,,,,,5,19,119,10,0,0,0,0,,,,,0,30,30,30,,,,,,down,0.6500831340017612,1468.031388066136,None,001,79,2019_Oct_30_1402,ACPT_experiment_5_30_19,3.1.0,59.953922305566564,
,,,C,D,g,b,L,U,g,R,u,,,,,5,19,119,10,0,0,0,0,,,,,0,31,31,23,,,,,,up,0.600478337464665,1469.9658356687723,None,001,79,2019_Oct_30_1402,ACPT_experiment_5_30_19,3.1.0,59.953922305566564,
,,,C,D,g,b,L,D,g,R,i,,,,,5,19,119,10,0,0,0,0,,,,,0,32,32,15,,,,,,up,0.8673173497099924,1471.8507479041418,None,001,79,2019_Oct_30_1402,ACPT_experiment_5_30_19,3.1.0,59.953922305566564,
,,,C,D,g,b,L,D,d,L,c ,,,,,5,19,119,10,0,0,0,0,,,,,0,33,33,12,,,,,,up,0.5170946930684295,1474.002375084674,None,001,79,2019_Oct_30_1402,ACPT_experiment_5_30_19,3.1.0,59.953922305566564,
,,,C,D,g,b,R,D,y,R,y,,,,,5,19,119,10,0,0,0,0,,,,,0,34,34,27,,,,,,down,0.7339358787503443,1475.803815832529,None,001,79,2019_Oct_30_1402,ACPT_experiment_5_30_19,3.1.0,59.953922305566564,
,,,C,D,g,b,R,D,g,L,i,,,,,5,19,119,10,0,0,0,0,,,,,0,35,35,2,,,,,,up,0.48376713544530503,1477.822109840723,None,001,79,2019_Oct_30_1402,ACPT_experiment_5_30_19,3.1.0,59.953922305566564,
,,,C,D,g,b,L,D,y,R,y,,,,,5,19,119,10,0,0,0,0,,,,,1,0,36,33,,,,,,down,0.633829742531816,1479.590193146185,None,001,79,2019_Oct_30_1402,ACPT_experiment_5_30_19,3.1.0,59.953922305566564,
,,,C,D,g,b,L,U,d,R,u,,,,,5,19,119,10,0,0,0,0,,,,,1,1,37,21,,,,,,up,0.6671956371847045,1481.5083882629533,None,001,79,2019_Oct_30_1402,ACPT_experiment_5_30_19,3.1.0,59.953922305566564,
,,,C,D,g,b,R,U,g,R,u,,,,,5,19,119,10,0,0,0,0,,,,,1,2,38,11,,,,,,up,0.5671145558771968,1483.4599429351802,None,001,79,2019_Oct_30_1402,ACPT_experiment_5_30_19,3.1.0,59.953922305566564,
,,,C,D,g,b,R,U,y,R,u,,,,,5,19,119,10,0,0,0,0,,,,,1,3,39,31,,,,,,down,0.7839696274131711,1485.3280880025031,None,001,79,2019_Oct_30_1402,ACPT_experiment_5_30_19,3.1.0,59.953922305566564,
,,,C,D,g,b,R,D,g,L,i,,,,,5,19,119,10,0,0,0,0,,,,,1,4,40,2,,,,,,up,0.5170847314766434,1487.4297952379984,None,001,79,2019_Oct_30_1402,ACPT_experiment_5_30_19,3.1.0,59.953922305566564,
,,,C,D,g,b,R,U,d,L,u,,,,,5,19,119,10,0,0,0,0,,,,,1,5,41,8,,,,,,up,0.5837884472111909,1489.2312251186631,None,001,79,2019_Oct_30_1402,ACPT_experiment_5_30_19,3.1.0,59.953922305566564,
,,,C,D,g,b,L,U,y,L,u,,,,,5,19,119,10,0,0,0,0,,,,,1,6,42,24,,,,,,down,0.5837881453444425,1491.0993858830388,None,001,79,2019_Oct_30_1402,ACPT_experiment_5_30_19,3.1.0,59.953922305566564,
,,,C,D,g,b,L,G,d,R,i,,,,,5,19,119,10,0,0,0,0,,,,,1,7,43,17,,,,,,up,0.5504300992179196,1492.9675412138167,None,001,79,2019_Oct_30_1402,ACPT_experiment_5_30_19,3.1.0,59.953922305566564,
,,,C,D,g,b,L,G,d,L,i,,,,,5,19,119,10,0,0,0,0,,,,,1,8,44,16,,,,,,up,0.5668567619886744,1494.8025978016885,None,001,79,2019_Oct_30_1402,ACPT_experiment_5_30_19,3.1.0,59.953922305566564,
,,,C,D,g,b,R,G,d,L,i,,,,,5,19,119,10,0,0,0,0,,,,,1,9,45,4,,,,,,up,0.7339186723675084,1496.6538060520597,None,001,79,2019_Oct_30_1402,ACPT_experiment_5_30_19,3.1.0,59.953922305566564,
,,,C,D,g,b,R,D,y,R,y,,,,,5,19,119,10,0,0,0,0,,,,,1,10,46,27,,,,,,down,0.6505027282673836,1498.67209704159,None,001,79,2019_Oct_30_1402,ACPT_experiment_5_30_19,3.1.0,59.953922305566564,
,,,C,D,g,b,L,G,g,R,c ,,,,,5,19,119,10,0,0,0,0,,,,,1,11,47,19,,,,,,up,0.5504294954844227,1500.6069660496923,None,001,79,2019_Oct_30_1402,ACPT_experiment_5_30_19,3.1.0,59.953922305566564,
,,,C,D,g,b,R,D,d,L,c,,,,,5,19,119,10,0,0,0,0,,,,,1,12,48,0,,,,,,up,0.6338312518637395,1502.4417639380772,None,001,79,2019_Oct_30_1402,ACPT_experiment_5_30_19,3.1.0,59.953922305566564,
,,,C,D,g,b,L,D,d,L,c ,,,,,5,19,119,10,0,0,0,0,,,,,1,13,49,12,,,,,,up,0.5003930300263164,1504.3599644884398,None,001,79,2019_Oct_30_1402,ACPT_experiment_5_30_19,3.1.0,59.953922305566564,
,,,C,D,g,b,R,G,g,L,c ,,,,,5,19,119,10,0,0,0,0,,,,,1,14,50,6,,,,,,up,0.5170811090811185,1506.1447132329777,None,001,79,2019_Oct_30_1402,ACPT_experiment_5_30_19,3.1.0,59.953922305566564,
,,,C,D,g,b,L,G,y,L,y,,,,,5,19,119,10,0,0,0,0,,,,,1,15,51,34,,,,,,down,0.7170585294770717,1507.9963622082614,None,001,79,2019_Oct_30_1402,ACPT_experiment_5_30_19,3.1.0,59.953922305566564,
,,,C,D,g,b,L,U,g,L,u,,,,,5,19,119,10,0,0,0,0,,,,,1,16,52,22,,,,,,up,0.5337507742879097,1510.0144717760977,None,001,79,2019_Oct_30_1402,ACPT_experiment_5_30_19,3.1.0,59.953922305566564,
,,,C,D,g,b,R,U,y,L,u,,,,,5,19,119,10,0,0,0,0,,,,,1,17,53,30,,,,,,down,0.45036018696373503,1511.83258550969,None,001,79,2019_Oct_30_1402,ACPT_experiment_5_30_19,3.1.0,59.953922305566564,
,,,C,D,g,b,R,G,d,R,i,,,,,5,19,119,10,0,0,0,0,,,,,1,18,54,5,,,,,,up,0.5504497205311054,1513.5673044298292,None,001,79,2019_Oct_30_1402,ACPT_experiment_5_30_19,3.1.0,59.953922305566564,
,,,C,D,g,b,R,G,y,L,y,,,,,5,19,119,10,0,0,0,0,,,,,1,19,55,28,,,,,,down,0.613825359432667,1515.4221136442393,None,001,79,2019_Oct_30_1402,ACPT_experiment_5_30_19,3.1.0,59.953922305566564,
,,,C,D,g,b,L,D,y,L,y,,,,,5,19,119,10,0,0,0,0,,,,,1,20,56,32,,,,,,down,0.7005880960805371,1517.3202947181835,None,001,79,2019_Oct_30_1402,ACPT_experiment_5_30_19,3.1.0,59.953922305566564,
,,,C,D,g,b,R,D,d,R,c ,,,,,5,19,119,10,0,0,0,0,,,,,1,21,57,1,,,,,,up,0.650519029053612,1519.3052180018622,None,001,79,2019_Oct_30_1402,ACPT_experiment_5_30_19,3.1.0,59.953922305566564,
,,,C,D,g,b,L,U,y,R,u,,,,,5,19,119,10,0,0,0,0,,,,,1,22,58,25,,,,,,down,0.5504400608078868,1521.2400897267635,None,001,79,2019_Oct_30_1402,ACPT_experiment_5_30_19,3.1.0,59.953922305566564,
,,,C,D,g,b,L,U,d,L,u,,,,,5,19,119,10,0,0,0,0,,,,,1,23,59,20,,,,,,up,0.4837324208110658,1523.0748788610217,None,001,79,2019_Oct_30_1402,ACPT_experiment_5_30_19,3.1.0,59.953922305566564,
,,,C,D,g,b,R,U,d,R,u,,,,,5,19,119,10,0,0,0,0,,,,,1,24,60,9,,,,,,up,0.48371581816172693,1524.842968807543,None,001,79,2019_Oct_30_1402,ACPT_experiment_5_30_19,3.1.0,59.953922305566564,
,,,C,D,g,b,R,D,g,R,i,,,,,5,19,119,10,0,0,0,0,,,,,1,25,61,3,,,,,,up,0.6671941278527811,1526.6110566410007,None,001,79,2019_Oct_30_1402,ACPT_experiment_5_30_19,3.1.0,59.953922305566564,
,,,C,D,g,b,L,D,g,R,i,,,,,5,19,119,10,0,0,0,0,,,,,1,26,62,15,,,,,,up,0.5833857574616559,1528.5796758196575,None,001,79,2019_Oct_30_1402,ACPT_experiment_5_30_19,3.1.0,59.953922305566564,
,,,C,D,g,b,R,D,y,L,y,,,,,5,19,119,10,0,0,0,0,,,,,1,27,63,26,,,,,,down,0.6838148907063442,1530.464176309286,None,001,79,2019_Oct_30_1402,ACPT_experiment_5_30_19,3.1.0,59.953922305566564,
,,,C,D,g,b,L,U,g,R,u,,,,,5,19,119,10,0,0,0,0,,,,,1,28,64,23,,,,,,up,0.6672119379691139,1532.4490226170365,None,001,79,2019_Oct_30_1402,ACPT_experiment_5_30_19,3.1.0,59.953922305566564,
,,,C,D,g,b,L,D,g,L,i,,,,,5,19,119,10,0,0,0,0,,,,,1,29,65,14,,,,,,up,0.5170940893367515,1534.4006023441743,None,001,79,2019_Oct_30_1402,ACPT_experiment_5_30_19,3.1.0,59.953922305566564,
,,,C,D,g,b,R,G,y,R,y,,,,,5,19,119,10,0,0,0,0,,,,,1,30,66,29,,,,,,down,0.550447607467504,1536.2020385640335,None,001,79,2019_Oct_30_1402,ACPT_experiment_5_30_19,3.1.0,59.953922305566564,
,,,C,D,g,b,L,G,y,R,y,,,,,5,19,119,10,0,0,0,0,,,,,1,31,67,35,,,,,,down,0.8840606703124649,1538.0534898168407,None,001,79,2019_Oct_30_1402,ACPT_experiment_5_30_19,3.1.0,59.953922305566564,
,,,C,D,g,b,R,G,g,R,c ,,,,,5,19,119,10,0,0,0,0,,,,,1,32,68,7,,,,,,up,0.7339120313081366,1540.2385948844512,None,001,79,2019_Oct_30_1402,ACPT_experiment_5_30_19,3.1.0,59.953922305566564,
,,,C,D,g,b,L,G,g,L,c ,,,,,5,19,119,10,0,0,0,0,,,,,1,33,69,18,,,,,,up,0.5170916744045826,1542.2568686675986,None,001,79,2019_Oct_30_1402,ACPT_experiment_5_30_19,3.1.0,59.953922305566564,
,,,C,D,g,b,L,D,d,R,c ,,,,,5,19,119,10,0,0,0,0,,,,,1,34,70,13,,,,,,up,0.4837653242466331,1544.058283454946,None,001,79,2019_Oct_30_1402,ACPT_experiment_5_30_19,3.1.0,59.953922305566564,
,,,C,D,g,b,R,U,g,L,u,,,,,5,19,119,10,0,0,0,0,,,,,1,35,71,10,,,,,,up,0.6338424209207005,1545.8263842686574,None,001,79,2019_Oct_30_1402,ACPT_experiment_5_30_19,3.1.0,59.953922305566564,
,,,C,D,g,b,,,,,,,,,,5,19,119,10,1,0,1,0,0,0,0,0,,,,,,,,,,,,,,001,79,2019_Oct_30_1402,ACPT_experiment_5_30_19,3.1.0,59.953922305566564,
,,,C,D,g,b,L,D,y,L,y,,,,,5,19,119,10,1,0,1,0,,,,,0,0,0,32,,,,,,down,0.6502588202347397,1555.0840365813765,None,001,79,2019_Oct_30_1402,ACPT_experiment_5_30_19,3.1.0,59.953922305566564,
,,,C,D,g,b,R,U,g,R,u,,,,,5,19,119,10,1,0,1,0,,,,,0,1,1,11,,,,,,up,0.5170723549563263,1557.018652625453,None,001,79,2019_Oct_30_1402,ACPT_experiment_5_30_19,3.1.0,59.953922305566564,
,,,C,D,g,b,R,G,d,L,i,,,,,5,19,119,10,1,0,1,0,,,,,0,2,2,4,,,,,,up,0.5671196876046452,1558.8200979013054,None,001,79,2019_Oct_30_1402,ACPT_experiment_5_30_19,3.1.0,59.953922305566564,
,,,C,D,g,b,L,G,g,L,c ,,,,,5,19,119,10,1,0,1,0,,,,,0,3,3,18,,,,,,up,0.5337510761528392,1560.6715763220836,None,001,79,2019_Oct_30_1402,ACPT_experiment_5_30_19,3.1.0,59.953922305566564,
,,,C,D,g,b,R,G,g,L,c ,,,,,5,19,119,10,1,0,1,0,,,,,0,4,4,6,,,,,,up,0.43367754150494875,1562.4730004672892,None,001,79,2019_Oct_30_1402,ACPT_experiment_5_30_19,3.1.0,59.953922305566564,
,,,C,D,g,b,R,U,y,L,u,,,,,5,19,119,10,1,0,1,0,,,,,0,5,5,30,,,,,,down,0.6672010707807203,1564.1910391569,None,001,79,2019_Oct_30_1402,ACPT_experiment_5_30_19,3.1.0,59.953922305566564,
,,,C,D,g,b,R,D,g,L,i,,,,,5,19,119,10,1,0,1,0,,,,,0,6,6,2,,,,,,up,0.6171652090542921,1566.142596244059,None,001,79,2019_Oct_30_1402,ACPT_experiment_5_30_19,3.1.0,59.953922305566564,
,,,C,D,g,b,R,D,g,R,i,,,,,5,19,119,10,1,0,1,0,,,,,0,7,7,3,,,,,,up,0.5668449891982164,1568.0443873380336,None,001,79,2019_Oct_30_1402,ACPT_experiment_5_30_19,3.1.0,59.953922305566564,
,,,C,D,g,b,R,U,y,R,u,,,,,5,19,119,10,1,0,1,0,,,,,0,8,8,31,,,,,,down,0.7669724371844495,1569.912432185718,None,001,79,2019_Oct_30_1402,ACPT_experiment_5_30_19,3.1.0,59.953922305566564,
,,,C,D,g,b,R,G,g,R,c ,,,,,5,19,119,10,1,0,1,0,,,,,0,9,9,7,,,,,,up,0.5837830136169941,1571.9805990477926,None,001,79,2019_Oct_30_1402,ACPT_experiment_5_30_19,3.1.0,59.953922305566564,
,,,C,D,g,b,L,G,d,R,i,,,,,5,19,119,10,1,0,1,0,,,,,0,10,10,17,,,,,,up,0.5504294954844227,1573.8487549823058,None,001,79,2019_Oct_30_1402,ACPT_experiment_5_30_19,3.1.0,59.953922305566564,
,,,C,D,g,b,R,G,y,R,y,,,,,5,19,119,10,1,0,1,0,,,,,0,11,11,29,,,,,,down,0.5504331178799475,1575.6835495501582,None,001,79,2019_Oct_30_1402,ACPT_experiment_5_30_19,3.1.0,59.953922305566564,
,,,C,D,g,b,R,U,d,L,u,,,,,5,19,119,10,1,0,1,0,,,,,0,12,12,8,,,,,,up,0.600476526265993,1577.5183450236127,None,001,79,2019_Oct_30_1402,ACPT_experiment_5_30_19,3.1.0,59.953922305566564,
,,,C,D,g,b,L,G,d,L,i,,,,,5,19,119,10,1,0,1,0,,,,,0,13,13,16,,,,,,up,0.6505193309185415,1579.3865057879866,None,001,79,2019_Oct_30_1402,ACPT_experiment_5_30_19,3.1.0,59.953922305566564,
,,,C,D,g,b,R,D,d,L,c,,,,,5,19,119,10,1,0,1,0,,,,,0,14,14,0,,,,,,up,0.616951487658298,1581.3382289016536,None,001,79,2019_Oct_30_1402,ACPT_experiment_5_30_19,3.1.0,59.953922305566564,
,,,C,D,g,b,R,D,y,L,y,,,,,5,19,119,10,1,0,1,0,,,,,0,15,15,26,,,,,,down,0.6838794901123038,1583.2395729315213,None,001,79,2019_Oct_30_1402,ACPT_experiment_5_30_19,3.1.0,59.953922305566564,
,,,C,D,g,b,L,D,g,R,i,,,,,5,19,119,10,1,0,1,0,,,,,0,16,16,15,,,,,,up,0.483741174935858,1585.2078120604074,None,001,79,2019_Oct_30_1402,ACPT_experiment_5_30_19,3.1.0,59.953922305566564,
,,,C,D,g,b,L,G,g,R,c ,,,,,5,19,119,10,1,0,1,0,,,,,0,17,17,19,,,,,,up,0.500403293483032,1586.9758911397385,None,001,79,2019_Oct_30_1402,ACPT_experiment_5_30_19,3.1.0,59.953922305566564,
,,,C,D,g,b,L,G,y,R,y,,,,,5,19,119,10,1,0,1,0,,,,,0,18,18,35,,,,,,down,0.5504376458775369,1588.760651657065,None,001,79,2019_Oct_30_1402,ACPT_experiment_5_30_19,3.1.0,59.953922305566564,
,,,C,D,g,b,L,D,d,L,c ,,,,,5,19,119,10,1,0,1,0,,,,,0,19,19,12,,,,,,up,0.6171884527666407,1590.595457695843,None,001,79,2019_Oct_30_1402,ACPT_experiment_5_30_19,3.1.0,59.953922305566564,
,,,C,D,g,b,R,D,y,R,y,,,,,5,19,119,10,1,0,1,0,,,,,0,20,20,27,,,,,,down,0.7172299895792094,1592.5136500958124,None,001,79,2019_Oct_30_1402,ACPT_experiment_5_30_19,3.1.0,59.953922305566564,
,,,C,D,g,b,R,D,d,R,c ,,,,,5,19,119,10,1,0,1,0,,,,,0,21,21,1,,,,,,up,0.49694299917609897,1594.5687319559383,None,001,79,2019_Oct_30_1402,ACPT_experiment_5_30_19,3.1.0,59.953922305566564,
,,,C,D,g,b,L,U,d,R,u,,,,,5,19,119,10,1,0,1,0,,,,,0,22,22,21,,,,,,up,0.6171558511978219,1596.3500536114698,None,001,79,2019_Oct_30_1402,ACPT_experiment_5_30_19,3.1.0,59.953922305566564,
,,,C,D,g,b,R,G,y,L,y,,,,,5,19,119,10,1,0,1,0,,,,,0,23,23,28,,,,,,down,1.0675169437599834,1598.251561252915,None,001,79,2019_Oct_30_1402,ACPT_experiment_5_30_19,3.1.0,59.953922305566564,
,,,C,D,g,b,L,D,y,R,y,,,,,5,19,119,10,1,0,1,0,,,,,0,24,24,33,,,,,,down,0.7339367843505897,1600.6034468914404,None,001,79,2019_Oct_30_1402,ACPT_experiment_5_30_19,3.1.0,59.953922305566564,
,,,C,D,g,b,R,U,g,L,u,,,,,5,19,119,10,1,0,1,0,,,,,0,25,25,10,,,,,,up,0.5337522836180142,1602.6217170521904,None,001,79,2019_Oct_30_1402,ACPT_experiment_5_30_19,3.1.0,59.953922305566564,
,,,C,D,g,b,L,G,y,L,y,,,,,5,19,119,10,1,0,1,0,,,,,0,26,26,34,,,,,,down,0.6505145010578417,1604.439833200713,None,001,79,2019_Oct_30_1402,ACPT_experiment_5_30_19,3.1.0,59.953922305566564,
,,,C,D,g,b,L,U,g,R,u,,,,,5,19,119,10,1,0,1,0,,,,,0,27,27,23,,,,,,up,0.6505640071445669,1606.3747091517434,None,001,79,2019_Oct_30_1402,ACPT_experiment_5_30_19,3.1.0,59.953922305566564,
,,,C,D,g,b,L,U,y,L,u,,,,,5,19,119,10,1,0,1,0,,,,,0,28,28,24,,,,,,down,0.5838128983868955,1608.3095881214376,None,001,79,2019_Oct_30_1402,ACPT_experiment_5_30_19,3.1.0,59.953922305566564,
,,,C,D,g,b,L,D,d,R,c ,,,,,5,19,119,10,1,0,1,0,,,,,0,29,29,13,,,,,,up,0.7339183705025789,1610.1777461690144,None,001,79,2019_Oct_30_1402,ACPT_experiment_5_30_19,3.1.0,59.953922305566564,
,,,C,D,g,b,R,U,d,R,u,,,,,5,19,119,10,1,0,1,0,,,,,0,30,30,9,,,,,,up,0.5670985569577169,1612.1960356492127,None,001,79,2019_Oct_30_1402,ACPT_experiment_5_30_19,3.1.0,59.953922305566564,
,,,C,D,g,b,L,U,y,R,u,,,,,5,19,119,10,1,0,1,0,,,,,0,31,31,25,,,,,,down,0.6004943363823259,1614.0641613970856,None,001,79,2019_Oct_30_1402,ACPT_experiment_5_30_19,3.1.0,59.953922305566564,
,,,C,D,g,b,R,G,d,R,i,,,,,5,19,119,10,1,0,1,0,,,,,0,32,32,5,,,,,,up,0.7172499127609626,1615.9823824743635,None,001,79,2019_Oct_30_1402,ACPT_experiment_5_30_19,3.1.0,59.953922305566564,
,,,C,D,g,b,L,D,g,L,i,,,,,5,19,119,10,1,0,1,0,,,,,0,33,33,14,,,,,,up,0.5671269323975139,1617.9839721027165,None,001,79,2019_Oct_30_1402,ACPT_experiment_5_30_19,3.1.0,59.953922305566564,
,,,C,D,g,b,L,U,d,L,u,,,,,5,19,119,10,1,0,1,0,,,,,0,34,34,20,,,,,,up,0.6333935456150357,1619.8525554800217,None,001,79,2019_Oct_30_1402,ACPT_experiment_5_30_19,3.1.0,59.953922305566564,
,,,C,D,g,b,L,U,g,L,u,,,,,5,19,119,10,1,0,1,0,,,,,0,35,35,22,,,,,,up,0.6672315592841187,1621.7536275282819,None,001,79,2019_Oct_30_1402,ACPT_experiment_5_30_19,3.1.0,59.953922305566564,
,,,C,D,g,b,R,G,d,L,i,,,,,5,19,119,10,1,0,1,0,,,,,1,0,36,4,,,,,,up,0.5671178764077922,1623.7052081610182,None,001,79,2019_Oct_30_1402,ACPT_experiment_5_30_19,3.1.0,59.953922305566564,
,,,C,D,g,b,L,G,g,L,c ,,,,,5,19,119,10,1,0,1,0,,,,,1,1,37,18,,,,,,up,0.5003963505569118,1625.5566865817982,None,001,79,2019_Oct_30_1402,ACPT_experiment_5_30_19,3.1.0,59.953922305566564,
,,,C,D,g,b,L,G,g,R,c ,,,,,5,19,119,10,1,0,1,0,,,,,1,2,38,19,,,,,,up,0.7005850774166902,1627.3247387950214,None,001,79,2019_Oct_30_1402,ACPT_experiment_5_30_19,3.1.0,59.953922305566564,
,,,C,D,g,b,R,D,d,L,c,,,,,5,19,119,10,1,0,1,0,,,,,1,3,39,0,,,,,,up,0.4837109882992081,1629.3096880392095,None,001,79,2019_Oct_30_1402,ACPT_experiment_5_30_19,3.1.0,59.953922305566564,
,,,C,D,g,b,L,U,d,L,u,,,,,5,19,119,10,1,0,1,0,,,,,1,4,40,20,,,,,,up,0.567122706268492,1631.0777505158894,None,001,79,2019_Oct_30_1402,ACPT_experiment_5_30_19,3.1.0,59.953922305566564,
,,,C,D,g,b,L,G,y,R,y,,,,,5,19,119,10,1,0,1,0,,,,,1,5,41,35,,,,,,down,0.6669239574439416,1632.9461947327945,None,001,79,2019_Oct_30_1402,ACPT_experiment_5_30_19,3.1.0,59.953922305566564,
,,,C,D,g,b,L,U,y,L,u,,,,,5,19,119,10,1,0,1,0,,,,,1,6,42,24,,,,,,down,0.6839280905987835,1634.897471687953,None,001,79,2019_Oct_30_1402,ACPT_experiment_5_30_19,3.1.0,59.953922305566564,
,,,C,D,g,b,L,G,d,R,i,,,,,5,19,119,10,1,0,1,0,,,,,1,7,43,17,,,,,,up,0.43367512657277985,1636.865710816839,None,001,79,2019_Oct_30_1402,ACPT_experiment_5_30_19,3.1.0,59.953922305566564,
,,,C,D,g,b,R,D,g,R,i,,,,,5,19,119,10,1,0,1,0,,,,,1,8,44,3,,,,,,up,0.4837118938976346,1638.583754940044,None,001,79,2019_Oct_30_1402,ACPT_experiment_5_30_19,3.1.0,59.953922305566564,
,,,C,D,g,b,R,U,y,R,u,,,,,5,19,119,10,1,0,1,0,,,,,1,9,45,31,,,,,,down,0.5003990673521912,1640.351824057785,None,001,79,2019_Oct_30_1402,ACPT_experiment_5_30_19,3.1.0,59.953922305566564,
,,,C,D,g,b,R,U,d,L,u,,,,,5,19,119,10,1,0,1,0,,,,,1,10,46,8,,,,,,up,0.667195939051453,1642.1365845751116,None,001,79,2019_Oct_30_1402,ACPT_experiment_5_30_19,3.1.0,59.953922305566564,
,,,C,D,g,b,L,D,d,R,c ,,,,,5,19,119,10,1,0,1,0,,,,,1,11,47,13,,,,,,up,0.5671371958542295,1644.0881175129598,None,001,79,2019_Oct_30_1402,ACPT_experiment_5_30_19,3.1.0,59.953922305566564,
,,,C,D,g,b,L,U,g,R,u,,,,,5,19,119,10,1,0,1,0,,,,,1,12,48,23,,,,,,up,0.6169152636939543,1645.9732163017507,None,001,79,2019_Oct_30_1402,ACPT_experiment_5_30_19,3.1.0,59.953922305566564,
,,,C,D,g,b,R,D,y,L,y,,,,,5,19,119,10,1,0,1,0,,,,,1,13,49,26,,,,,,down,0.7005835680847667,1647.874494826614,None,001,79,2019_Oct_30_1402,ACPT_experiment_5_30_19,3.1.0,59.953922305566564,
,,,C,D,g,b,R,U,d,R,u,,,,,5,19,119,10,1,0,1,0,,,,,1,14,50,9,,,,,,up,0.6171531343989045,1649.8594159972272,None,001,79,2019_Oct_30_1402,ACPT_experiment_5_30_19,3.1.0,59.953922305566564,
,,,C,D,g,b,L,D,d,L,c ,,,,,5,19,119,10,1,0,1,0,,,,,1,15,51,12,,,,,,up,0.5671377995877265,1651.7442268054929,None,001,79,2019_Oct_30_1402,ACPT_experiment_5_30_19,3.1.0,59.953922305566564,
,,,C,D,g,b,R,D,d,R,c ,,,,,5,19,119,10,1,0,1,0,,,,,1,16,52,1,,,,,,up,0.5337275305755611,1653.629128475539,None,001,79,2019_Oct_30_1402,ACPT_experiment_5_30_19,3.1.0,59.953922305566564,
,,,C,D,g,b,R,U,g,L,u,,,,,5,19,119,10,1,0,1,0,,,,,1,17,53,10,,,,,,up,0.6171558511960029,1655.447205985165,None,001,79,2019_Oct_30_1402,ACPT_experiment_5_30_19,3.1.0,59.953922305566564,
,,,C,D,g,b,L,D,g,R,i,,,,,5,19,119,10,1,0,1,0,,,,,1,18,54,15,,,,,,up,0.5170762792185997,1657.3487202676715,None,001,79,2019_Oct_30_1402,ACPT_experiment_5_30_19,3.1.0,59.953922305566564,
,,,C,D,g,b,L,U,d,R,u,,,,,5,19,119,10,1,0,1,0,,,,,1,19,55,21,,,,,,up,0.7339609336613648,1659.1501604117948,None,001,79,2019_Oct_30_1402,ACPT_experiment_5_30_19,3.1.0,59.953922305566564,
,,,C,D,g,b,R,U,y,L,u,,,,,5,19,119,10,1,0,1,0,,,,,1,20,56,30,,,,,,down,0.6505181234533666,1661.1684390248029,None,001,79,2019_Oct_30_1402,ACPT_experiment_5_30_19,3.1.0,59.953922305566564,
,,,C,D,g,b,L,U,g,L,u,,,,,5,19,119,10,1,0,1,0,,,,,1,21,57,22,,,,,,up,0.6338644571660552,1663.1032896190573,None,001,79,2019_Oct_30_1402,ACPT_experiment_5_30_19,3.1.0,59.953922305566564,
,,,C,D,g,b,L,G,y,L,y,,,,,5,19,119,10,1,0,1,0,,,,,1,22,58,34,,,,,,down,0.6337177501063707,1665.0382869203713,None,001,79,2019_Oct_30_1402,ACPT_experiment_5_30_19,3.1.0,59.953922305566564,
,,,C,D,g,b,R,U,g,R,u,,,,,5,19,119,10,1,0,1,0,,,,,1,23,59,11,,,,,,up,0.4670349838979746,1666.9730717077546,None,001,79,2019_Oct_30_1402,ACPT_experiment_5_30_19,3.1.0,59.953922305566564,
,,,C,D,g,b,L,D,y,L,y,,,,,5,19,119,10,1,0,1,0,,,,,1,24,60,32,,,,,,down,0.7005666635668604,1668.724463613631,None,001,79,2019_Oct_30_1402,ACPT_experiment_5_30_19,3.1.0,59.953922305566564,
,,,C,D,g,b,L,D,y,R,y,,,,,5,19,119,10,1,0,1,0,,,,,1,25,61,33,,,,,,down,0.7339174649005145,1670.726064411041,None,001,79,2019_Oct_30_1402,ACPT_experiment_5_30_19,3.1.0,59.953922305566564,
,,,C,D,g,b,R,G,d,R,i,,,,,5,19,119,10,1,0,1,0,,,,,1,26,62,5,,,,,,up,0.5837295832679956,1672.7945977389008,None,001,79,2019_Oct_30_1402,ACPT_experiment_5_30_19,3.1.0,59.953922305566564,
,,,C,D,g,b,L,U,y,R,u,,,,,5,19,119,10,1,0,1,0,,,,,1,27,63,25,,,,,,down,0.7005711915626307,1674.6625245568302,None,001,79,2019_Oct_30_1402,ACPT_experiment_5_30_19,3.1.0,59.953922305566564,
,,,C,D,g,b,R,G,g,L,c ,,,,,5,19,119,10,1,0,1,0,,,,,1,28,64,6,,,,,,up,0.5504379477442853,1676.6474565946337,None,001,79,2019_Oct_30_1402,ACPT_experiment_5_30_19,3.1.0,59.953922305566564,
,,,C,D,g,b,R,D,y,R,y,,,,,5,19,119,10,1,0,1,0,,,,,1,29,65,27,,,,,,down,0.7339081070440443,1678.498940449008,None,001,79,2019_Oct_30_1402,ACPT_experiment_5_30_19,3.1.0,59.953922305566564,
,,,C,D,g,b,R,D,g,L,i,,,,,5,19,119,10,1,0,1,0,,,,,1,30,66,2,,,,,,up,0.5337468500256364,1680.5338950664172,None,001,79,2019_Oct_30_1402,ACPT_experiment_5_30_19,3.1.0,59.953922305566564,
,,,C,D,g,b,R,G,y,L,y,,,,,5,19,119,10,1,0,1,0,,,,,1,31,67,28,,,,,,down,0.7672806427581236,1682.3520100074747,None,001,79,2019_Oct_30_1402,ACPT_experiment_5_30_19,3.1.0,59.953922305566564,
,,,C,D,g,b,R,G,y,R,y,,,,,5,19,119,10,1,0,1,0,,,,,1,32,68,29,,,,,,down,0.6338686832950771,1684.386826973814,None,001,79,2019_Oct_30_1402,ACPT_experiment_5_30_19,3.1.0,59.953922305566564,
,,,C,D,g,b,R,G,g,R,c ,,,,,5,19,119,10,1,0,1,0,,,,,1,33,69,7,,,,,,up,0.6005052035725384,1686.2884653234014,None,001,79,2019_Oct_30_1402,ACPT_experiment_5_30_19,3.1.0,59.953922305566564,
,,,C,D,g,b,L,G,d,L,i,,,,,5,19,119,10,1,0,1,0,,,,,1,34,70,16,,,,,,up,0.5337553022836801,1688.17332261909,None,001,79,2019_Oct_30_1402,ACPT_experiment_5_30_19,3.1.0,59.953922305566564,
,,,C,D,g,b,L,D,g,L,i,,,,,5,19,119,10,1,0,1,0,,,,,1,35,71,14,,,,,,up,0.5170738642882498,1689.991445106807,None,001,79,2019_Oct_30_1402,ACPT_experiment_5_30_19,3.1.0,59.953922305566564,
,,,C,D,g,b,,,,,,,,,,5,19,119,10,2,0,2,0,0,0,0,0,,,,,,,,,,,,,,001,79,2019_Oct_30_1402,ACPT_experiment_5_30_19,3.1.0,59.953922305566564,
,,,C,D,g,b,L,D,g,R,i,,,,,5,19,119,10,2,0,2,0,,,,,0,0,0,15,,,,,,up,0.5334706422872841,1695.5961966647392,None,001,79,2019_Oct_30_1402,ACPT_experiment_5_30_19,3.1.0,59.953922305566564,
,,,C,D,g,b,L,D,d,R,c ,,,,,5,19,119,10,2,0,2,0,,,,,0,1,1,13,,,,,,up,0.5838198413148348,1697.4140103431491,None,001,79,2019_Oct_30_1402,ACPT_experiment_5_30_19,3.1.0,59.953922305566564,
,,,C,D,g,b,R,D,y,L,y,,,,,5,19,119,10,2,0,2,0,,,,,0,2,2,26,,,,,,down,0.6505157085230167,1699.3155454544358,None,001,79,2019_Oct_30_1402,ACPT_experiment_5_30_19,3.1.0,59.953922305566564,
,,,C,D,g,b,L,G,d,R,i,,,,,5,19,119,10,2,0,2,0,,,,,0,3,3,17,,,,,,up,0.5004189905357634,1701.2670829202798,None,001,79,2019_Oct_30_1402,ACPT_experiment_5_30_19,3.1.0,59.953922305566564,
,,,C,D,g,b,L,U,d,R,u,,,,,5,19,119,10,2,0,2,0,,,,,0,4,4,21,,,,,,up,0.4837191386905033,1703.0351837339913,None,001,79,2019_Oct_30_1402,ACPT_experiment_5_30_19,3.1.0,59.953922305566564,
,,,C,D,g,b,L,U,y,R,u,,,,,5,19,119,10,2,0,2,0,,,,,0,5,5,25,,,,,,down,0.5171016359945497,1704.7865644708108,None,001,79,2019_Oct_30_1402,ACPT_experiment_5_30_19,3.1.0,59.953922305566564,
,,,C,D,g,b,R,D,y,R,y,,,,,5,19,119,10,2,0,2,0,,,,,0,6,6,27,,,,,,down,0.6338487601133238,1706.6046791100016,None,001,79,2019_Oct_30_1402,ACPT_experiment_5_30_19,3.1.0,59.953922305566564,
,,,C,D,g,b,L,G,g,R,c ,,,,,5,19,119,10,2,0,2,0,,,,,0,7,7,19,,,,,,up,0.5504137984316912,1708.5562757416556,None,001,79,2019_Oct_30_1402,ACPT_experiment_5_30_19,3.1.0,59.953922305566564,
,,,C,D,g,b,L,U,g,R,u,,,,,5,19,119,10,2,0,2,0,,,,,0,8,8,23,,,,,,up,0.5003993692207587,1710.3743749856621,None,001,79,2019_Oct_30_1402,ACPT_experiment_5_30_19,3.1.0,59.953922305566564,
,,,C,D,g,b,R,U,g,L,u,,,,,5,19,119,10,2,0,2,0,,,,,0,9,9,10,,,,,,up,0.5504421738733072,1712.1591318805913,None,001,79,2019_Oct_30_1402,ACPT_experiment_5_30_19,3.1.0,59.953922305566564,
,,,C,D,g,b,L,U,d,L,u,,,,,5,19,119,10,2,0,2,0,,,,,0,10,10,20,,,,,,up,0.6838643967930693,1713.9939424473632,None,001,79,2019_Oct_30_1402,ACPT_experiment_5_30_19,3.1.0,59.953922305566564,
,,,C,D,g,b,L,G,y,L,y,,,,,5,19,119,10,2,0,2,0,,,,,0,11,11,34,,,,,,down,0.6338237052041222,1715.9621785575855,None,001,79,2019_Oct_30_1402,ACPT_experiment_5_30_19,3.1.0,59.953922305566564,
,,,C,D,g,b,L,D,y,L,y,,,,,5,19,119,10,2,0,2,0,,,,,0,12,12,32,,,,,,down,0.6838927722328663,1717.8803628071637,None,001,79,2019_Oct_30_1402,ACPT_experiment_5_30_19,3.1.0,59.953922305566564,
,,,C,D,g,b,L,G,g,L,c ,,,,,5,19,119,10,2,0,2,0,,,,,0,13,13,18,,,,,,up,0.6005088259698823,1719.84860284165,None,001,79,2019_Oct_30_1402,ACPT_experiment_5_30_19,3.1.0,59.953922305566564,
,,,C,D,g,b,R,U,y,L,u,,,,,5,19,119,10,2,0,2,0,,,,,0,14,14,30,,,,,,down,0.6502597258331662,1721.7503758236435,None,001,79,2019_Oct_30_1402,ACPT_experiment_5_30_19,3.1.0,59.953922305566564,
,,,C,D,g,b,R,G,d,L,i,,,,,5,19,119,10,2,0,2,0,,,,,0,15,15,4,,,,,,up,0.5335932000361936,1723.6851313299867,None,001,79,2019_Oct_30_1402,ACPT_experiment_5_30_19,3.1.0,59.953922305566564,
,,,C,D,g,b,R,G,y,R,y,,,,,5,19,119,10,2,0,2,0,,,,,0,16,16,29,,,,,,down,0.6838915647676913,1725.5030983565193,None,001,79,2019_Oct_30_1402,ACPT_experiment_5_30_19,3.1.0,59.953922305566564,
,,,C,D,g,b,L,G,d,L,i,,,,,5,19,119,10,2,0,2,0,,,,,0,17,17,16,,,,,,up,0.4336817676339706,1727.488038544714,None,001,79,2019_Oct_30_1402,ACPT_experiment_5_30_19,3.1.0,59.953922305566564,
,,,C,D,g,b,L,G,y,R,y,,,,,5,19,119,10,2,0,2,0,,,,,0,18,18,35,,,,,,down,0.45035143283894286,1729.2060724044622,None,001,79,2019_Oct_30_1402,ACPT_experiment_5_30_19,3.1.0,59.953922305566564,
,,,C,D,g,b,R,U,g,R,u,,,,,5,19,119,10,2,0,2,0,,,,,0,19,19,11,,,,,,up,0.717240253035925,1730.9407858910072,None,001,79,2019_Oct_30_1402,ACPT_experiment_5_30_19,3.1.0,59.953922305566564,
,,,C,D,g,b,L,U,y,L,u,,,,,5,19,119,10,2,0,2,0,,,,,0,20,20,24,,,,,,down,0.43366939111183456,1732.9423924238781,None,001,79,2019_Oct_30_1402,ACPT_experiment_5_30_19,3.1.0,59.953922305566564,
,,,C,D,g,b,R,U,y,R,u,,,,,5,19,119,10,2,0,2,0,,,,,0,21,21,31,,,,,,down,0.700293474494174,1734.6773682323073,None,001,79,2019_Oct_30_1402,ACPT_experiment_5_30_19,3.1.0,59.953922305566564,
,,,C,D,g,b,R,D,g,R,i,,,,,5,19,119,10,2,0,2,0,,,,,0,22,22,3,,,,,,up,0.46704464362301223,1736.6620198362434,None,001,79,2019_Oct_30_1402,ACPT_experiment_5_30_19,3.1.0,59.953922305566564,
,,,C,D,g,b,R,D,g,L,i,,,,,5,19,119,10,2,0,2,0,,,,,0,23,23,2,,,,,,up,0.5671284417294373,1738.396719738801,None,001,79,2019_Oct_30_1402,ACPT_experiment_5_30_19,3.1.0,59.953922305566564,
,,,C,D,g,b,R,G,y,L,y,,,,,5,19,119,10,2,0,2,0,,,,,0,24,24,28,,,,,,down,0.6505193309203605,1740.248216573431,None,001,79,2019_Oct_30_1402,ACPT_experiment_5_30_19,3.1.0,59.953922305566564,
,,,C,D,g,b,L,D,g,L,i,,,,,5,19,119,10,2,0,2,0,,,,,0,25,25,14,,,,,,up,0.5166594017500756,1742.200163068219,None,001,79,2019_Oct_30_1402,ACPT_experiment_5_30_19,3.1.0,59.953922305566564,
,,,C,D,g,b,R,G,g,R,c ,,,,,5,19,119,10,2,0,2,0,,,,,0,26,26,7,,,,,,up,0.6338336667940894,1744.0012177289755,None,001,79,2019_Oct_30_1402,ACPT_experiment_5_30_19,3.1.0,59.953922305566564,
,,,C,D,g,b,R,D,d,R,c ,,,,,5,19,119,10,2,0,2,0,,,,,0,27,27,1,,,,,,up,0.6839184308737458,1745.9193896020315,None,001,79,2019_Oct_30_1402,ACPT_experiment_5_30_19,3.1.0,59.953922305566564,
,,,C,D,g,b,R,U,d,R,u,,,,,5,19,119,10,2,0,2,0,,,,,0,28,28,9,,,,,,up,0.46703679509664653,1747.8876474466342,None,001,79,2019_Oct_30_1402,ACPT_experiment_5_30_19,3.1.0,59.953922305566564,
,,,C,D,g,b,R,G,g,L,c ,,,,,5,19,119,10,2,0,2,0,,,,,0,29,29,6,,,,,,up,0.5337598302794504,1749.6390502196991,None,001,79,2019_Oct_30_1402,ACPT_experiment_5_30_19,3.1.0,59.953922305566564,
,,,C,D,g,b,R,G,d,R,i,,,,,5,19,119,10,2,0,2,0,,,,,0,30,30,5,,,,,,up,0.5003996710856882,1751.4571624439595,None,001,79,2019_Oct_30_1402,ACPT_experiment_5_30_19,3.1.0,59.953922305566564,
,,,C,D,g,b,L,U,g,L,u,,,,,5,19,119,10,2,0,2,0,,,,,0,31,31,22,,,,,,up,0.800661932596995,1753.24189760451,None,001,79,2019_Oct_30_1402,ACPT_experiment_5_30_19,3.1.0,59.953922305566564,
,,,C,D,g,b,R,D,d,L,c,,,,,5,19,119,10,2,0,2,0,,,,,0,32,32,0,,,,,,up,0.5504144021651882,1755.3436114810647,None,001,79,2019_Oct_30_1402,ACPT_experiment_5_30_19,3.1.0,59.953922305566564,
,,,C,D,g,b,L,D,d,L,c ,,,,,5,19,119,10,2,0,2,0,,,,,0,33,33,12,,,,,,up,0.5671124428099574,1757.1784000115913,None,001,79,2019_Oct_30_1402,ACPT_experiment_5_30_19,3.1.0,59.953922305566564,
,,,C,D,g,b,R,U,d,L,u,,,,,5,19,119,10,2,0,2,0,,,,,0,34,34,8,,,,,,up,0.6672083155735891,1759.0298754137075,None,001,79,2019_Oct_30_1402,ACPT_experiment_5_30_19,3.1.0,59.953922305566564,
,,,C,D,g,b,L,D,y,R,y,,,,,5,19,119,10,2,0,2,0,,,,,0,35,35,33,,,,,,down,0.7003589794985601,1760.9982790597714,None,001,79,2019_Oct_30_1402,ACPT_experiment_5_30_19,3.1.0,59.953922305566564,
,,,C,D,g,b,L,U,y,L,u,,,,,5,19,119,10,2,0,2,0,,,,,1,0,36,24,,,,,,down,0.7172444791649468,1762.9996981336208,None,001,79,2019_Oct_30_1402,ACPT_experiment_5_30_19,3.1.0,59.953922305566564,
,,,C,D,g,b,R,U,d,L,u,,,,,5,19,119,10,2,0,2,0,,,,,1,1,37,8,,,,,,up,0.4670298521705263,1765.0013094963542,None,001,79,2019_Oct_30_1402,ACPT_experiment_5_30_19,3.1.0,59.953922305566564,
,,,C,D,g,b,R,U,g,L,u,,,,,5,19,119,10,2,0,2,0,,,,,1,2,38,10,,,,,,up,0.4336977665516315,1766.7527086470236,None,001,79,2019_Oct_30_1402,ACPT_experiment_5_30_19,3.1.0,59.953922305566564,
,,,C,D,g,b,R,G,g,R,c ,,,,,5,19,119,10,2,0,2,0,,,,,1,3,39,7,,,,,,up,0.6669118827903731,1768.4877080010283,None,001,79,2019_Oct_30_1402,ACPT_experiment_5_30_19,3.1.0,59.953922305566564,
,,,C,D,g,b,L,G,y,R,y,,,,,5,19,119,10,2,0,2,0,,,,,1,4,40,35,,,,,,down,0.5837950882723817,1770.4389807300577,None,001,79,2019_Oct_30_1402,ACPT_experiment_5_30_19,3.1.0,59.953922305566564,
,,,C,D,g,b,L,U,d,L,u,,,,,5,19,119,10,2,0,2,0,,,,,1,5,41,20,,,,,,up,0.46705520894647634,1772.3071414944316,None,001,79,2019_Oct_30_1402,ACPT_experiment_5_30_19,3.1.0,59.953922305566564,
,,,C,D,g,b,L,G,d,R,i,,,,,5,19,119,10,2,0,2,0,,,,,1,6,42,17,,,,,,up,0.5670970476257935,1774.058553323488,None,001,79,2019_Oct_30_1402,ACPT_experiment_5_30_19,3.1.0,59.953922305566564,
,,,C,D,g,b,L,D,d,R,c ,,,,,5,19,119,10,2,0,2,0,,,,,1,7,43,13,,,,,,up,0.5671124428117764,1775.9100196696145,None,001,79,2019_Oct_30_1402,ACPT_experiment_5_30_19,3.1.0,59.953922305566564,
,,,C,D,g,b,R,U,g,R,u,,,,,5,19,119,10,2,0,2,0,,,,,1,8,44,11,,,,,,up,0.4837242704197706,1777.7614917512,None,001,79,2019_Oct_30_1402,ACPT_experiment_5_30_19,3.1.0,59.953922305566564,
,,,C,D,g,b,R,D,y,R,y,,,,,5,19,119,10,2,0,2,0,,,,,1,9,45,27,,,,,,down,0.6171576623964938,1779.529571132398,None,001,79,2019_Oct_30_1402,ACPT_experiment_5_30_19,3.1.0,59.953922305566564,
,,,C,D,g,b,R,U,y,R,u,,,,,5,19,119,10,2,0,2,0,,,,,1,10,46,31,,,,,,down,0.7002237433607661,1781.464746836742,None,001,79,2019_Oct_30_1402,ACPT_experiment_5_30_19,3.1.0,59.953922305566564,
,,,C,D,g,b,R,G,y,R,y,,,,,5,19,119,10,2,0,2,0,,,,,1,11,47,29,,,,,,down,0.5337492649541673,1783.4660457677728,None,001,79,2019_Oct_30_1402,ACPT_experiment_5_30_19,3.1.0,59.953922305566564,
,,,C,D,g,b,R,G,d,L,i,,,,,5,19,119,10,2,0,2,0,,,,,1,12,48,4,,,,,,up,0.5003984636205132,1785.2841607088303,None,001,79,2019_Oct_30_1402,ACPT_experiment_5_30_19,3.1.0,59.953922305566564,
,,,C,D,g,b,R,D,y,L,y,,,,,5,19,119,10,2,0,2,0,,,,,1,13,49,26,,,,,,down,0.6504951816095854,1787.0689402437401,None,001,79,2019_Oct_30_1402,ACPT_experiment_5_30_19,3.1.0,59.953922305566564,
,,,C,D,g,b,L,U,y,R,u,,,,,5,19,119,10,2,0,2,0,,,,,1,14,50,25,,,,,,down,0.6503004777932802,1789.0206521883501,None,001,79,2019_Oct_30_1402,ACPT_experiment_5_30_19,3.1.0,59.953922305566564,
,,,C,D,g,b,R,U,d,R,u,,,,,5,19,119,10,2,0,2,0,,,,,1,15,51,9,,,,,,up,0.5504657194487663,1790.9720088362337,None,001,79,2019_Oct_30_1402,ACPT_experiment_5_30_19,3.1.0,59.953922305566564,
,,,C,D,g,b,L,D,g,L,i,,,,,5,19,119,10,2,0,2,0,,,,,1,16,52,14,,,,,,up,0.5838098797230487,1792.8068335907246,None,001,79,2019_Oct_30_1402,ACPT_experiment_5_30_19,3.1.0,59.953922305566564,
,,,C,D,g,b,L,D,y,R,y,,,,,5,19,119,10,2,0,2,0,,,,,1,17,53,33,,,,,,down,0.5971614296868211,1794.694995417669,None,001,79,2019_Oct_30_1402,ACPT_experiment_5_30_19,3.1.0,59.953922305566564,
,,,C,D,g,b,L,G,g,R,c ,,,,,5,19,119,10,2,0,2,0,,,,,1,18,54,19,,,,,,up,0.5504382496110338,1796.576507128273,None,001,79,2019_Oct_30_1402,ACPT_experiment_5_30_19,3.1.0,59.953922305566564,
,,,C,D,g,b,L,D,g,R,i,,,,,5,19,119,10,2,0,2,0,,,,,1,19,55,15,,,,,,up,0.46701747564839025,1798.4113029035925,None,001,79,2019_Oct_30_1402,ACPT_experiment_5_30_19,3.1.0,59.953922305566564,
,,,C,D,g,b,L,U,g,L,u,,,,,5,19,119,10,2,0,2,0,,,,,1,20,56,22,,,,,,up,0.58380021999983,1800.1626984318646,None,001,79,2019_Oct_30_1402,ACPT_experiment_5_30_19,3.1.0,59.953922305566564,
,,,C,D,g,b,R,G,y,L,y,,,,,5,19,119,10,2,0,2,0,,,,,1,21,57,28,,,,,,down,0.6002320144998521,1802.0477815236045,None,001,79,2019_Oct_30_1402,ACPT_experiment_5_30_19,3.1.0,59.953922305566564,
,,,C,D,g,b,R,D,g,L,i,,,,,5,19,119,10,2,0,2,0,,,,,1,22,58,2,,,,,,up,0.5337296436409815,1803.932401552318,None,001,79,2019_Oct_30_1402,ACPT_experiment_5_30_19,3.1.0,59.953922305566564,
,,,C,D,g,b,R,D,d,R,c ,,,,,5,19,119,10,2,0,2,0,,,,,1,23,59,1,,,,,,up,0.517093183736506,1805.7337946052867,None,001,79,2019_Oct_30_1402,ACPT_experiment_5_30_19,3.1.0,59.953922305566564,
,,,C,D,g,b,R,D,g,R,i,,,,,5,19,119,10,2,0,2,0,,,,,1,24,60,3,,,,,,up,0.5504799071713933,1807.5185508964823,None,001,79,2019_Oct_30_1402,ACPT_experiment_5_30_19,3.1.0,59.953922305566564,
,,,C,D,g,b,L,G,d,L,i,,,,,5,19,119,10,2,0,2,0,,,,,1,25,61,16,,,,,,up,0.6667814765132789,1809.370454043259,None,001,79,2019_Oct_30_1402,ACPT_experiment_5_30_19,3.1.0,59.953922305566564,
,,,C,D,g,b,L,G,y,L,y,,,,,5,19,119,10,2,0,2,0,,,,,1,26,62,34,,,,,,down,0.6338499675784988,1811.3049152298845,None,001,79,2019_Oct_30_1402,ACPT_experiment_5_30_19,3.1.0,59.953922305566564,
,,,C,D,g,b,L,U,d,R,u,,,,,5,19,119,10,2,0,2,0,,,,,1,27,63,21,,,,,,up,0.5671036886851653,1813.2231375146257,None,001,79,2019_Oct_30_1402,ACPT_experiment_5_30_19,3.1.0,59.953922305566564,
,,,C,D,g,b,R,G,g,L,c ,,,,,5,19,119,10,2,0,2,0,,,,,1,28,64,6,,,,,,up,0.6004931289171509,1815.0745993327546,None,001,79,2019_Oct_30_1402,ACPT_experiment_5_30_19,3.1.0,59.953922305566564,
,,,C,D,g,b,R,U,y,L,u,,,,,5,19,119,10,2,0,2,0,,,,,1,29,65,30,,,,,,down,0.6505114823939948,1816.9594451575194,None,001,79,2019_Oct_30_1402,ACPT_experiment_5_30_19,3.1.0,59.953922305566564,
,,,C,D,g,b,R,D,d,L,c,,,,,5,19,119,10,2,0,2,0,,,,,1,30,66,0,,,,,,up,0.5004244241281413,1818.894320806683,None,001,79,2019_Oct_30_1402,ACPT_experiment_5_30_19,3.1.0,59.953922305566564,
,,,C,D,g,b,L,D,d,L,c ,,,,,5,19,119,10,2,0,2,0,,,,,1,31,67,12,,,,,,up,0.46705762387682626,1820.6623739255065,None,001,79,2019_Oct_30_1402,ACPT_experiment_5_30_19,3.1.0,59.953922305566564,
,,,C,D,g,b,L,U,g,R,u,,,,,5,19,119,10,2,0,2,0,,,,,1,32,68,23,,,,,,up,0.6669523328837386,1822.4307147229902,None,001,79,2019_Oct_30_1402,ACPT_experiment_5_30_19,3.1.0,59.953922305566564,
,,,C,D,g,b,R,G,d,R,i,,,,,5,19,119,10,2,0,2,0,,,,,1,33,69,5,,,,,,up,0.5837978050676611,1824.38202910958,None,001,79,2019_Oct_30_1402,ACPT_experiment_5_30_19,3.1.0,59.953922305566564,
,,,C,D,g,b,L,D,y,L,y,,,,,5,19,119,10,2,0,2,0,,,,,1,34,70,32,,,,,,down,0.5004005766859336,1826.2501850440913,None,001,79,2019_Oct_30_1402,ACPT_experiment_5_30_19,3.1.0,59.953922305566564,
,,,C,D,g,b,L,G,g,L,c ,,,,,5,19,119,10,2,0,2,0,,,,,1,35,71,18,,,,,,up,0.6671989577171189,1828.0349455614178,None,001,79,2019_Oct_30_1402,ACPT_experiment_5_30_19,3.1.0,59.953922305566564,
,,,C,D,g,b,,,,,,,,,,5,19,119,10,3,0,3,0,0,0,0,0,,,,,,,,,,,,,,001,79,2019_Oct_30_1402,ACPT_experiment_5_30_19,3.1.0,59.953922305566564,
,,,C,D,g,b,L,G,d,R,i,,,,,5,19,119,10,3,0,3,0,,,,,0,0,0,17,,,,,,up,0.5337827721232316,1832.5385157350865,None,001,79,2019_Oct_30_1402,ACPT_experiment_5_30_19,3.1.0,59.953922305566564,
,,,C,D,g,b,L,U,d,R,u,,,,,5,19,119,10,3,0,3,0,,,,,0,1,1,21,,,,,,up,0.43367180604218447,1834.356658749719,None,001,79,2019_Oct_30_1402,ACPT_experiment_5_30_19,3.1.0,59.953922305566564,
,,,C,D,g,b,L,G,g,L,c ,,,,,5,19,119,10,3,0,3,0,,,,,0,2,2,18,,,,,,up,0.5170768829520966,1836.0746950243974,None,001,79,2019_Oct_30_1402,ACPT_experiment_5_30_19,3.1.0,59.953922305566564,
,,,C,D,g,b,R,D,y,R,y,,,,,5,19,119,10,3,0,3,0,,,,,0,3,3,27,,,,,,up,0.5838005218665785,1837.8761227919986,None,001,79,2019_Oct_30_1402,ACPT_experiment_5_30_19,3.1.0,59.953922305566564,
,,,C,D,g,b,L,D,y,R,y,,,,,5,19,119,10,3,0,3,0,,,,,0,4,4,33,,,,,,down,0.6839078655502817,1839.7442684630532,None,001,79,2019_Oct_30_1402,ACPT_experiment_5_30_19,3.1.0,59.953922305566564,
,,,C,D,g,b,R,U,y,L,u,,,,,5,19,119,10,3,0,3,0,,,,,0,5,5,30,,,,,,down,0.6167096926874365,1841.7296282455172,None,001,79,2019_Oct_30_1402,ACPT_experiment_5_30_19,3.1.0,59.953922305566564,
,,,C,D,g,b,L,U,g,R,u,,,,,5,19,119,10,3,0,3,0,,,,,0,6,6,23,,,,,,up,0.48374268426778144,1843.6307030105745,None,001,79,2019_Oct_30_1402,ACPT_experiment_5_30_19,3.1.0,59.953922305566564,
,,,C,D,g,b,R,U,g,R,u,,,,,5,19,119,10,3,0,3,0,,,,,0,7,7,11,,,,,,up,0.5003878982970491,1845.3988089560135,None,001,79,2019_Oct_30_1402,ACPT_experiment_5_30_19,3.1.0,59.953922305566564,
,,,C,D,g,b,R,D,g,R,i,,,,,5,19,119,10,3,0,3,0,,,,,0,8,8,3,,,,,,up,0.5671184801394702,1847.1835598136167,None,001,79,2019_Oct_30_1402,ACPT_experiment_5_30_19,3.1.0,59.953922305566564,
,,,C,D,g,b,L,U,y,L,u,,,,,5,19,119,10,3,0,3,0,,,,,0,9,9,24,,,,,,down,0.5500428046525485,1849.0520858363088,None,001,79,2019_Oct_30_1402,ACPT_experiment_5_30_19,3.1.0,59.953922305566564,
,,,C,D,g,b,L,D,d,L,c ,,,,,5,19,119,10,3,0,3,0,,,,,0,10,10,12,,,,,,up,0.5504515317297773,1850.8865148439781,None,001,79,2019_Oct_30_1402,ACPT_experiment_5_30_19,3.1.0,59.953922305566564,
,,,C,D,g,b,R,G,y,L,y,,,,,5,19,119,10,3,0,3,0,,,,,0,11,11,28,,,,,,down,0.6671732990726014,1852.7380153010035,None,001,79,2019_Oct_30_1402,ACPT_experiment_5_30_19,3.1.0,59.953922305566564,
,,,C,D,g,b,L,G,g,R,c ,,,,,5,19,119,10,3,0,3,0,,,,,0,12,12,19,,,,,,up,1.3176005607456318,1854.7229153409698,None,001,79,2019_Oct_30_1402,ACPT_experiment_5_30_19,3.1.0,59.953922305566564,
,,,C,D,g,b,R,G,d,L,i,,,,,5,19,119,10,3,0,3,0,,,,,0,13,13,4,,,,,,up,0.5170708456244029,1857.324999003842,None,001,79,2019_Oct_30_1402,ACPT_experiment_5_30_19,3.1.0,59.953922305566564,
,,,C,D,g,b,R,G,g,L,c ,,,,,5,19,119,10,3,0,3,0,,,,,0,14,14,6,,,,,,up,0.5504542485268757,1859.1097263158663,None,001,79,2019_Oct_30_1402,ACPT_experiment_5_30_19,3.1.0,59.953922305566564,
,,,C,D,g,b,R,G,y,R,y,,,,,5,19,119,10,3,0,3,0,,,,,0,15,15,29,,,,,,down,0.7172305933127063,1860.9445465423632,None,001,79,2019_Oct_30_1402,ACPT_experiment_5_30_19,3.1.0,59.953922305566564,
,,,C,D,g,b,R,U,d,R,u,,,,,5,19,119,10,3,0,3,0,,,,,0,16,16,9,,,,,,up,0.5671208950698201,1862.946136472583,None,001,79,2019_Oct_30_1402,ACPT_experiment_5_30_19,3.1.0,59.953922305566564,
,,,C,D,g,b,L,U,g,L,u,,,,,5,19,119,10,3,0,3,0,,,,,0,17,17,22,,,,,,up,0.53375771721403,1864.797616402695,None,001,79,2019_Oct_30_1402,ACPT_experiment_5_30_19,3.1.0,59.953922305566564,
,,,C,D,g,b,R,D,y,L,y,,,,,5,19,119,10,3,0,3,0,,,,,0,18,18,26,,,,,,down,0.6336368499160017,1866.6325851474503,None,001,79,2019_Oct_30_1402,ACPT_experiment_5_30_19,3.1.0,59.953922305566564,
,,,C,D,g,b,L,D,d,R,c ,,,,,5,19,119,10,3,0,3,0,,,,,0,19,19,13,,,,,,up,0.9838733924098051,1868.5842228329311,None,001,79,2019_Oct_30_1402,ACPT_experiment_5_30_19,3.1.0,59.953922305566564,
,,,C,D,g,b,L,D,y,L,y,,,,,5,19,119,10,3,0,3,0,,,,,0,20,20,32,,,,,,down,0.68377896860693,1870.8524305073406,None,001,79,2019_Oct_30_1402,ACPT_experiment_5_30_19,3.1.0,59.953922305566564,
,,,C,D,g,b,R,D,d,L,c,,,,,5,19,119,10,3,0,3,0,,,,,0,21,21,0,,,,,,up,0.6171516250669811,1872.8540506241989,None,001,79,2019_Oct_30_1402,ACPT_experiment_5_30_19,3.1.0,59.953922305566564,
,,,C,D,g,b,R,D,d,R,c ,,,,,5,19,119,10,3,0,3,0,,,,,0,22,22,1,,,,,,up,0.6505428764958197,1874.755545587257,None,001,79,2019_Oct_30_1402,ACPT_experiment_5_30_19,3.1.0,59.953922305566564,
,,,C,D,g,b,R,D,g,L,i,,,,,5,19,119,10,3,0,3,0,,,,,0,23,23,2,,,,,,up,0.7839940785888757,1876.6904236513528,None,001,79,2019_Oct_30_1402,ACPT_experiment_5_30_19,3.1.0,59.953922305566564,
,,,C,D,g,b,L,G,d,L,i,,,,,5,19,119,10,3,0,3,0,,,,,0,24,24,16,,,,,,up,0.5337625470747298,1878.7587619735295,None,001,79,2019_Oct_30_1402,ACPT_experiment_5_30_19,3.1.0,59.953922305566564,
,,,C,D,g,b,R,U,y,R,u,,,,,5,19,119,10,3,0,3,0,,,,,0,25,25,31,,,,,,down,0.7339068995788693,1880.5768850649802,None,001,79,2019_Oct_30_1402,ACPT_experiment_5_30_19,3.1.0,59.953922305566564,
,,,C,D,g,b,L,G,y,R,y,,,,,5,19,119,10,3,0,3,0,,,,,0,26,26,35,,,,,,down,0.6671995614487969,1882.5951585462608,None,001,79,2019_Oct_30_1402,ACPT_experiment_5_30_19,3.1.0,59.953922305566564,
,,,C,D,g,b,L,U,d,L,u,,,,,5,19,119,10,3,0,3,0,,,,,0,27,27,20,,,,,,up,0.5337797534593847,1884.5466911822423,None,001,79,2019_Oct_30_1402,ACPT_experiment_5_30_19,3.1.0,59.953922305566564,
,,,C,D,g,b,R,G,d,R,i,,,,,5,19,119,10,3,0,3,0,,,,,0,28,28,5,,,,,,up,0.5671172726742952,1886.3648332912744,None,001,79,2019_Oct_30_1402,ACPT_experiment_5_30_19,3.1.0,59.953922305566564,
,,,C,D,g,b,R,U,g,L,u,,,,,5,19,119,10,3,0,3,0,,,,,0,29,29,10,,,,,,up,0.5167143414309976,1888.2333517673069,None,001,79,2019_Oct_30_1402,ACPT_experiment_5_30_19,3.1.0,59.953922305566564,
,,,C,D,g,b,R,G,g,R,c ,,,,,5,19,119,10,3,0,3,0,,,,,0,30,30,7,,,,,,up,0.6839045450215053,1890.0177249900698,None,001,79,2019_Oct_30_1402,ACPT_experiment_5_30_19,3.1.0,59.953922305566564,
,,,C,D,g,b,L,G,y,L,y,,,,,5,19,119,10,3,0,3,0,,,,,0,31,31,34,,,,,,down,0.6672019763791468,1891.9859822309372,None,001,79,2019_Oct_30_1402,ACPT_experiment_5_30_19,3.1.0,59.953922305566564,
,,,C,D,g,b,L,U,y,R,u,,,,,5,19,119,10,3,0,3,0,,,,,0,32,32,25,,,,,,down,0.6004792430630914,1893.9375435442253,None,001,79,2019_Oct_30_1402,ACPT_experiment_5_30_19,3.1.0,59.953922305566564,
,,,C,D,g,b,R,U,d,L,u,,,,,5,19,119,10,3,0,3,0,,,,,0,33,33,8,,,,,,up,0.850637722913234,1895.8224192537618,None,001,79,2019_Oct_30_1402,ACPT_experiment_5_30_19,3.1.0,59.953922305566564,
,,,C,D,g,b,L,D,g,L,i,,,,,5,19,119,10,3,0,3,0,,,,,0,34,34,14,,,,,,up,0.5671178764059732,1897.957414804252,None,001,79,2019_Oct_30_1402,ACPT_experiment_5_30_19,3.1.0,59.953922305566564,
,,,C,D,g,b,L,D,g,R,i,,,,,5,19,119,10,3,0,3,0,,,,,0,35,35,15,,,,,,up,1.0175076462746802,1899.7921894489245,None,001,79,2019_Oct_30_1402,ACPT_experiment_5_30_19,3.1.0,59.953922305566564,
,,,C,D,g,b,R,G,g,L,c ,,,,,5,19,119,10,3,0,3,0,,,,,1,0,36,6,,,,,,up,0.4670373988301435,1902.0940525078458,None,001,79,2019_Oct_30_1402,ACPT_experiment_5_30_19,3.1.0,59.953922305566564,
,,,C,D,g,b,L,U,d,L,u,,,,,5,19,119,10,3,0,3,0,,,,,1,1,37,20,,,,,,up,0.5503226347864256,1903.8455718013338,None,001,79,2019_Oct_30_1402,ACPT_experiment_5_30_19,3.1.0,59.953922305566564,
,,,C,D,g,b,L,G,y,L,y,,,,,5,19,119,10,3,0,3,0,,,,,1,2,38,34,,,,,,down,0.6338345723943348,1905.6802453207692,None,001,79,2019_Oct_30_1402,ACPT_experiment_5_30_19,3.1.0,59.953922305566564,
,,,C,D,g,b,L,G,g,R,c ,,,,,5,19,119,10,3,0,3,0,,,,,1,3,39,19,,,,,,up,1.2340463618456852,1907.5987136266103,None,001,79,2019_Oct_30_1402,ACPT_experiment_5_30_19,3.1.0,59.953922305566564,
,,,C,D,g,b,L,U,y,R,u,,,,,5,19,119,10,3,0,3,0,,,,,1,4,40,25,,,,,,down,0.6336600936265313,1910.133957130145,None,001,79,2019_Oct_30_1402,ACPT_experiment_5_30_19,3.1.0,59.953922305566564,
,,,C,D,g,b,R,G,g,R,c ,,,,,5,19,119,10,3,0,3,0,,,,,1,5,41,7,,,,,,up,0.6171498138701281,1912.0686830535833,None,001,79,2019_Oct_30_1402,ACPT_experiment_5_30_19,3.1.0,59.953922305566564,
,,,C,D,g,b,L,G,d,R,i,,,,,5,19,119,10,3,0,3,0,,,,,1,6,42,17,,,,,,up,0.6168382877640397,1913.987189696456,None,001,79,2019_Oct_30_1402,ACPT_experiment_5_30_19,3.1.0,59.953922305566564,
,,,C,D,g,b,R,D,d,L,c,,,,,5,19,119,10,3,0,3,0,,,,,1,7,43,0,,,,,,up,0.6171492101366312,1915.888405433112,None,001,79,2019_Oct_30_1402,ACPT_experiment_5_30_19,3.1.0,59.953922305566564,
,,,C,D,g,b,L,U,y,L,u,,,,,5,19,119,10,3,0,3,0,,,,,1,8,44,24,,,,,,down,0.6005335790123354,1917.7898916420454,None,001,79,2019_Oct_30_1402,ACPT_experiment_5_30_19,3.1.0,59.953922305566564,
,,,C,D,g,b,L,D,d,L,c ,,,,,5,19,119,10,3,0,3,0,,,,,1,9,45,12,,,,,,up,0.8006426131487387,1919.6747531638612,None,001,79,2019_Oct_30_1402,ACPT_experiment_5_30_19,3.1.0,59.953922305566564,
,,,C,D,g,b,L,D,g,R,i,,,,,5,19,119,10,3,0,3,0,,,,,1,10,46,15,,,,,,up,1.2009793149081815,1921.7430449986186,None,001,79,2019_Oct_30_1402,ACPT_experiment_5_30_19,3.1.0,59.953922305566564,
,,,C,D,g,b,L,D,y,R,y,,,,,5,19,119,10,3,0,3,0,,,,,1,11,47,33,,,,,,down,0.6504064328928507,1924.228382141102,None,001,79,2019_Oct_30_1402,ACPT_experiment_5_30_19,3.1.0,59.953922305566564,
,,,C,D,g,b,R,G,y,L,y,,,,,5,19,119,10,3,0,3,0,,,,,1,12,48,28,,,,,,down,0.7172348194417282,1926.163262620128,None,001,79,2019_Oct_30_1402,ACPT_experiment_5_30_19,3.1.0,59.953922305566564,
,,,C,D,g,b,L,G,y,R,y,,,,,5,19,119,10,3,0,3,0,,,,,1,13,49,35,,,,,,down,0.5504252693554008,1928.1648700585993,None,001,79,2019_Oct_30_1402,ACPT_experiment_5_30_19,3.1.0,59.953922305566564,
,,,C,D,g,b,R,D,y,R,y,,,,,5,19,119,10,3,0,3,0,,,,,1,14,50,27,,,,,,down,0.8339801323636493,1929.999669758181,None,001,79,2019_Oct_30_1402,ACPT_experiment_5_30_19,3.1.0,59.953922305566564,
,,,C,D,g,b,L,G,d,L,i,,,,,5,19,119,10,3,0,3,0,,,,,1,15,51,16,,,,,,up,0.6505214439839619,1932.1180140573142,None,001,79,2019_Oct_30_1402,ACPT_experiment_5_30_19,3.1.0,59.953922305566564,
,,,C,D,g,b,R,D,g,R,i,,,,,5,19,119,10,3,0,3,0,,,,,1,16,52,3,,,,,,up,0.8173219380787486,1934.0529192893828,None,001,79,2019_Oct_30_1402,ACPT_experiment_5_30_19,3.1.0,59.953922305566564,
,,,C,D,g,b,L,U,g,L,u,,,,,5,19,119,10,3,0,3,0,,,,,1,17,53,22,,,,,,up,0.5671214988033171,1936.1545800374552,None,001,79,2019_Oct_30_1402,ACPT_experiment_5_30_19,3.1.0,59.953922305566564,
,,,C,D,g,b,R,U,y,R,u,,,,,5,19,119,10,3,0,3,0,,,,,1,18,54,31,,,,,,down,0.733916559303907,1938.00604728918,None,001,79,2019_Oct_30_1402,ACPT_experiment_5_30_19,3.1.0,59.953922305566564,
,,,C,D,g,b,L,G,g,L,c ,,,,,5,19,119,10,3,0,3,0,,,,,1,19,55,18,,,,,,up,0.5337568116137845,1940.0243265059216,None,001,79,2019_Oct_30_1402,ACPT_experiment_5_30_19,3.1.0,59.953922305566564,
,,,C,D,g,b,R,G,d,R,i,,,,,5,19,119,10,3,0,3,0,,,,,1,20,56,5,,,,,,up,0.650520236518787,1941.8424396357805,None,001,79,2019_Oct_30_1402,ACPT_experiment_5_30_19,3.1.0,59.953922305566564,
,,,C,D,g,b,R,U,g,R,u,,,,,5,19,119,10,3,0,3,0,,,,,1,21,57,11,,,,,,up,0.4170163285562012,1943.7773198129398,None,001,79,2019_Oct_30_1402,ACPT_experiment_5_30_19,3.1.0,59.953922305566564,
,,,C,D,g,b,R,G,d,L,i,,,,,5,19,119,10,3,0,3,0,,,,,1,22,58,4,,,,,,up,0.4834776455863903,1945.4956005993845,None,001,79,2019_Oct_30_1402,ACPT_experiment_5_30_19,3.1.0,59.953922305566564,
,,,C,D,g,b,L,D,d,R,c ,,,,,5,19,119,10,3,0,3,0,,,,,1,23,59,13,,,,,,up,0.533745340690075,1947.2634445248077,None,001,79,2019_Oct_30_1402,ACPT_experiment_5_30_19,3.1.0,59.953922305566564,
,,,C,D,g,b,L,U,g,R,u,,,,,5,19,119,10,3,0,3,0,,,,,1,24,60,23,,,,,,up,0.5004084252141183,1949.0815489005436,None,001,79,2019_Oct_30_1402,ACPT_experiment_5_30_19,3.1.0,59.953922305566564,
,,,C,D,g,b,R,D,g,L,i,,,,,5,19,119,10,3,0,3,0,,,,,1,25,61,2,,,,,,up,0.46706667986654793,1950.849602321232,None,001,79,2019_Oct_30_1402,ACPT_experiment_5_30_19,3.1.0,59.953922305566564,
,,,C,D,g,b,R,U,d,L,u,,,,,5,19,119,10,3,0,3,0,,,,,1,26,62,8,,,,,,up,0.44702999706714763,1952.6210348341738,None,001,79,2019_Oct_30_1402,ACPT_experiment_5_30_19,3.1.0,59.953922305566564,
,,,C,D,g,b,R,U,y,L,u,,,,,5,19,119,10,3,0,3,0,,,,,1,27,63,30,,,,,,down,0.7005754176898336,1954.3357475600133,None,001,79,2019_Oct_30_1402,ACPT_experiment_5_30_19,3.1.0,59.953922305566564,
,,,C,D,g,b,L,D,y,L,y,,,,,5,19,119,10,3,0,3,0,,,,,1,28,64,32,,,,,,down,0.5671148577457643,1956.3206635989009,None,001,79,2019_Oct_30_1402,ACPT_experiment_5_30_19,3.1.0,59.953922305566564,
,,,C,D,g,b,R,U,g,L,u,,,,,5,19,119,10,3,0,3,0,,,,,1,29,65,10,,,,,,up,0.4503505272405164,1958.1721423215458,None,001,79,2019_Oct_30_1402,ACPT_experiment_5_30_19,3.1.0,59.953922305566564,
,,,C,D,g,b,R,U,d,R,u,,,,,5,19,119,10,3,0,3,0,,,,,1,30,66,9,,,,,,up,0.4334064654940448,1959.9071292990302,None,001,79,2019_Oct_30_1402,ACPT_experiment_5_30_19,3.1.0,59.953922305566564,
,,,C,D,g,b,R,D,d,R,c ,,,,,5,19,119,10,3,0,3,0,,,,,1,31,67,1,,,,,,up,0.4003152692494041,1961.624893592103,None,001,79,2019_Oct_30_1402,ACPT_experiment_5_30_19,3.1.0,59.953922305566564,
,,,C,D,g,b,R,G,y,R,y,,,,,5,19,119,10,3,0,3,0,,,,,1,32,68,29,,,,,,down,0.6838816031740862,1963.3095718206532,None,001,79,2019_Oct_30_1402,ACPT_experiment_5_30_19,3.1.0,59.953922305566564,
,,,C,D,g,b,L,D,g,L,i,,,,,5,19,119,10,3,0,3,0,,,,,1,33,69,14,,,,,,up,0.4837118938958156,1965.2778148738034,None,001,79,2019_Oct_30_1402,ACPT_experiment_5_30_19,3.1.0,59.953922305566564,
,,,C,D,g,b,L,U,d,R,u,,,,,5,19,119,10,3,0,3,0,,,,,1,34,70,21,,,,,,up,0.7836822506178578,1967.0628461652705,None,001,79,2019_Oct_30_1402,ACPT_experiment_5_30_19,3.1.0,59.953922305566564,
,,,C,D,g,b,R,D,y,L,y,,,,,5,19,119,10,3,0,3,0,,,,,1,35,71,26,,,,,,down,0.900709204870509,1969.1475700963929,None,001,79,2019_Oct_30_1402,ACPT_experiment_5_30_19,3.1.0,59.953922305566564,
,,,C,D,g,b,,,,,,,,,,5,19,119,10,4,0,4,0,0,0,0,0,,,,,,,,,,,,,,001,79,2019_Oct_30_1402,ACPT_experiment_5_30_19,3.1.0,59.953922305566564,
,,,C,D,g,b,L,G,d,R,i,,,,,5,19,119,10,4,0,4,0,,,,,0,0,0,17,,,,,,up,0.4836980080435751,1973.2508551874525,None,001,79,2019_Oct_30_1402,ACPT_experiment_5_30_19,3.1.0,59.953922305566564,
,,,C,D,g,b,L,D,g,R,i,,,,,5,19,119,10,4,0,4,0,,,,,0,1,1,15,,,,,,up,0.5837968994710536,1975.0189173622675,None,001,79,2019_Oct_30_1402,ACPT_experiment_5_30_19,3.1.0,59.953922305566564,
,,,C,D,g,b,R,U,d,R,u,,,,,5,19,119,10,4,0,4,0,,,,,0,2,2,9,,,,,,up,0.500404500948207,1976.8870959367596,None,001,79,2019_Oct_30_1402,ACPT_experiment_5_30_19,3.1.0,59.953922305566564,
,,,C,D,g,b,L,U,g,L,u,,,,,5,19,119,10,4,0,4,0,,,,,0,3,3,22,,,,,,up,0.5004144625418121,1978.6718117778619,None,001,79,2019_Oct_30_1402,ACPT_experiment_5_30_19,3.1.0,59.953922305566564,
,,,C,D,g,b,L,D,d,R,c ,,,,,5,19,119,10,4,0,4,0,,,,,0,4,4,13,,,,,,up,0.6333995829409105,1980.4736811759758,None,001,79,2019_Oct_30_1402,ACPT_experiment_5_30_19,3.1.0,59.953922305566564,
,,,C,D,g,b,L,D,g,L,i,,,,,5,19,119,10,4,0,4,0,,,,,0,5,5,14,,,,,,up,0.48371762935857987,1982.3747861276715,None,001,79,2019_Oct_30_1402,ACPT_experiment_5_30_19,3.1.0,59.953922305566564,
,,,C,D,g,b,R,D,y,L,y,,,,,5,19,119,10,4,0,4,0,,,,,0,6,6,26,,,,,,down,0.5671224044017436,1984.1428636976707,None,001,79,2019_Oct_30_1402,ACPT_experiment_5_30_19,3.1.0,59.953922305566564,
,,,C,D,g,b,R,U,y,R,u,,,,,5,19,119,10,4,0,4,0,,,,,0,7,7,31,,,,,,down,0.7672966416757845,1985.9943203840703,None,001,79,2019_Oct_30_1402,ACPT_experiment_5_30_19,3.1.0,59.953922305566564,
,,,C,D,g,b,L,G,d,L,i,,,,,5,19,119,10,4,0,4,0,,,,,0,8,8,16,,,,,,up,0.5170771848170261,1988.045980588784,None,001,79,2019_Oct_30_1402,ACPT_experiment_5_30_19,3.1.0,59.953922305566564,
,,,C,D,g,b,R,G,g,L,c ,,,,,5,19,119,10,4,0,4,0,,,,,0,9,9,6,,,,,,up,0.5337498686858453,1989.847422544106,None,001,79,2019_Oct_30_1402,ACPT_experiment_5_30_19,3.1.0,59.953922305566564,
,,,C,D,g,b,R,G,d,R,i,,,,,5,19,119,10,4,0,4,0,,,,,0,10,10,5,,,,,,up,0.6005287491498166,1991.6655299385056,None,001,79,2019_Oct_30_1402,ACPT_experiment_5_30_19,3.1.0,59.953922305566564,
,,,C,D,g,b,R,D,y,R,y,,,,,5,19,119,10,4,0,4,0,,,,,0,11,11,27,,,,,,down,0.7172179149238218,1993.5670689740546,None,001,79,2019_Oct_30_1402,ACPT_experiment_5_30_19,3.1.0,59.953922305566564,
,,,C,D,g,b,L,U,d,R,u,,,,,5,19,119,10,4,0,4,0,,,,,0,12,12,21,,,,,,up,0.5337610377428064,1995.5686522632132,None,001,79,2019_Oct_30_1402,ACPT_experiment_5_30_19,3.1.0,59.953922305566564,
,,,C,D,g,b,R,G,y,R,y,,,,,5,19,119,10,4,0,4,0,,,,,0,13,13,29,,,,,,down,0.5170916744064016,1997.386773543465,None,001,79,2019_Oct_30_1402,ACPT_experiment_5_30_19,3.1.0,59.953922305566564,
,,,C,D,g,b,L,U,d,L,u,,,,,5,19,119,10,4,0,4,0,,,,,0,14,14,20,,,,,,up,0.6672496712672,1999.188207348394,None,001,79,2019_Oct_30_1402,ACPT_experiment_5_30_19,3.1.0,59.953922305566564,
,,,C,D,g,b,R,D,g,R,i,,,,,5,19,119,10,4,0,4,0,,,,,0,15,15,3,,,,,,up,0.4670183812486357,2001.1397804344706,None,001,79,2019_Oct_30_1402,ACPT_experiment_5_30_19,3.1.0,59.953922305566564,
,,,C,D,g,b,R,G,g,R,c ,,,,,5,19,119,10,4,0,4,0,,,,,0,16,16,7,,,,,,up,0.7005536833130463,2002.8911684160848,None,001,79,2019_Oct_30_1402,ACPT_experiment_5_30_19,3.1.0,59.953922305566564,
,,,C,D,g,b,L,D,y,R,y,,,,,5,19,119,10,4,0,4,0,,,,,0,17,17,33,,,,,,down,0.6338237052077602,2004.8927755526893,None,001,79,2019_Oct_30_1402,ACPT_experiment_5_30_19,3.1.0,59.953922305566564,
,,,C,D,g,b,L,G,g,L,c ,,,,,5,19,119,10,4,0,4,0,,,,,0,18,18,18,,,,,,up,0.4670458510881872,2006.844306377472,None,001,79,2019_Oct_30_1402,ACPT_experiment_5_30_19,3.1.0,59.953922305566564,
,,,C,D,g,b,R,G,d,L,i,,,,,5,19,119,10,4,0,4,0,,,,,0,19,19,4,,,,,,up,0.45035475336771924,2008.5957215270573,None,001,79,2019_Oct_30_1402,ACPT_experiment_5_30_19,3.1.0,59.953922305566564,
,,,C,D,g,b,R,D,d,L,c,,,,,5,19,119,10,4,0,4,0,,,,,0,20,20,0,,,,,,up,0.5837917677417863,2010.3304437677289,None,001,79,2019_Oct_30_1402,ACPT_experiment_5_30_19,3.1.0,59.953922305566564,
,,,C,D,g,b,L,G,g,R,c ,,,,,5,19,119,10,4,0,4,0,,,,,0,21,21,19,,,,,,up,0.6671787326704361,2012.1986147955577,None,001,79,2019_Oct_30_1402,ACPT_experiment_5_30_19,3.1.0,59.953922305566564,
,,,C,D,g,b,L,D,y,L,y,,,,,5,19,119,10,4,0,4,0,,,,,0,22,22,32,,,,,,down,0.7002762681113381,2014.1671105108653,None,001,79,2019_Oct_30_1402,ACPT_experiment_5_30_19,3.1.0,59.953922305566564,
,,,C,D,g,b,L,U,g,R,u,,,,,5,19,119,10,4,0,4,0,,,,,0,23,23,23,,,,,,up,0.6839063562183583,2016.1517222684415,None,001,79,2019_Oct_30_1402,ACPT_experiment_5_30_19,3.1.0,59.953922305566564,
,,,C,D,g,b,R,U,d,L,u,,,,,5,19,119,10,4,0,4,0,,,,,0,24,24,8,,,,,,up,0.5504400608078868,2018.1199849429067,None,001,79,2019_Oct_30_1402,ACPT_experiment_5_30_19,3.1.0,59.953922305566564,
,,,C,D,g,b,R,U,g,R,u,,,,,5,19,119,10,4,0,4,0,,,,,0,25,25,11,,,,,,up,0.48375536265666597,2019.938079055184,None,001,79,2019_Oct_30_1402,ACPT_experiment_5_30_19,3.1.0,59.953922305566564,
,,,C,D,g,b,R,D,g,L,i,,,,,5,19,119,10,4,0,4,0,,,,,0,26,26,2,,,,,,up,0.4837218554894207,2021.7061768502317,None,001,79,2019_Oct_30_1402,ACPT_experiment_5_30_19,3.1.0,59.953922305566564,
,,,C,D,g,b,R,D,d,R,c ,,,,,5,19,119,10,4,0,4,0,,,,,0,27,27,1,,,,,,up,0.5837947864056332,2023.4742583444931,None,001,79,2019_Oct_30_1402,ACPT_experiment_5_30_19,3.1.0,59.953922305566564,
,,,C,D,g,b,L,G,y,R,y,,,,,5,19,119,10,4,0,4,0,,,,,0,28,28,35,,,,,,down,0.78396087328656,2025.3424115622074,None,001,79,2019_Oct_30_1402,ACPT_experiment_5_30_19,3.1.0,59.953922305566564,
,,,C,D,g,b,L,G,y,L,y,,,,,5,19,119,10,4,0,4,0,,,,,0,29,29,34,,,,,,down,0.7137817699258449,2027.4308439218003,None,001,79,2019_Oct_30_1402,ACPT_experiment_5_30_19,3.1.0,59.953922305566564,
,,,C,D,g,b,R,U,g,L,u,,,,,5,19,119,10,4,0,4,0,,,,,0,30,30,10,,,,,,down,0.8006139358440123,2029.4290387608526,None,001,79,2019_Oct_30_1402,ACPT_experiment_5_30_19,3.1.0,59.953922305566564,
,,,C,D,g,b,L,U,y,R,u,,,,,5,19,119,10,4,0,4,0,,,,,0,31,31,25,,,,,,down,1.150893947098666,2031.5140225989235,None,001,79,2019_Oct_30_1402,ACPT_experiment_5_30_19,3.1.0,59.953922305566564,
,,,C,D,g,b,R,G,y,L,y,,,,,5,19,119,10,4,0,4,0,,,,,0,32,32,28,,,,,,down,0.7002590617266833,2033.9662833366128,None,001,79,2019_Oct_30_1402,ACPT_experiment_5_30_19,3.1.0,59.953922305566564,
,,,C,D,g,b,L,U,y,L,u,,,,,5,19,119,10,4,0,4,0,,,,,0,33,33,24,,,,,,down,0.6503173823111865,2035.9677295784386,None,001,79,2019_Oct_30_1402,ACPT_experiment_5_30_19,3.1.0,59.953922305566564,
,,,C,D,g,b,R,U,y,L,u,,,,,5,19,119,10,4,0,4,0,,,,,0,34,34,30,,,,,,down,0.6671847699944919,2037.9191263745488,None,001,79,2019_Oct_30_1402,ACPT_experiment_5_30_19,3.1.0,59.953922305566564,
,,,C,D,g,b,L,D,d,L,c ,,,,,5,19,119,10,4,0,4,0,,,,,0,35,35,12,,,,,,up,0.667197146514809,2039.8706765187817,None,001,79,2019_Oct_30_1402,ACPT_experiment_5_30_19,3.1.0,59.953922305566564,
,,,C,D,g,b,L,G,y,R,y,,,,,5,19,119,10,4,0,4,0,,,,,1,0,36,35,,,,,,down,0.6171486064049532,2041.8389204775303,None,001,79,2019_Oct_30_1402,ACPT_experiment_5_30_19,3.1.0,59.953922305566564,
,,,C,D,g,b,R,G,g,R,c ,,,,,5,19,119,10,4,0,4,0,,,,,1,1,37,7,,,,,,up,0.66719654278495,2043.757115594297,None,001,79,2019_Oct_30_1402,ACPT_experiment_5_30_19,3.1.0,59.953922305566564,
,,,C,D,g,b,L,U,y,L,u,,,,,5,19,119,10,4,0,4,0,,,,,1,2,38,24,,,,,,down,0.7171973880103906,2045.725380381824,None,001,79,2019_Oct_30_1402,ACPT_experiment_5_30_19,3.1.0,59.953922305566564,
,,,C,D,g,b,L,G,g,L,c ,,,,,5,19,119,10,4,0,4,0,,,,,1,3,39,18,,,,,,up,0.5671012737548153,2047.7603211133792,None,001,79,2019_Oct_30_1402,ACPT_experiment_5_30_19,3.1.0,59.953922305566564,
,,,C,D,g,b,L,G,g,R,c ,,,,,5,19,119,10,4,0,4,0,,,,,1,4,40,19,,,,,,up,0.6839084692837787,2049.6117850445735,None,001,79,2019_Oct_30_1402,ACPT_experiment_5_30_19,3.1.0,59.953922305566564,
,,,C,D,g,b,R,G,d,R,i,,,,,5,19,119,10,4,0,4,0,,,,,1,5,41,5,,,,,,up,0.6672173715669487,2051.5800226641295,None,001,79,2019_Oct_30_1402,ACPT_experiment_5_30_19,3.1.0,59.953922305566564,
,,,C,D,g,b,L,D,d,L,c ,,,,,5,19,119,10,4,0,4,0,,,,,1,6,42,12,,,,,,up,0.5337673769354296,2053.531582166219,None,001,79,2019_Oct_30_1402,ACPT_experiment_5_30_19,3.1.0,59.953922305566564,
,,,C,D,g,b,L,G,d,R,i,,,,,5,19,119,10,4,0,4,0,,,,,1,7,43,17,,,,,,up,0.6171510213353031,2055.3496986166065,None,001,79,2019_Oct_30_1402,ACPT_experiment_5_30_19,3.1.0,59.953922305566564,
,,,C,D,g,b,L,U,y,R,u,,,,,5,19,119,10,4,0,4,0,,,,,1,8,44,25,,,,,,down,0.6838915647676913,2057.2512128991148,None,001,79,2019_Oct_30_1402,ACPT_experiment_5_30_19,3.1.0,59.953922305566564,
,,,C,D,g,b,L,D,g,L,i,,,,,5,19,119,10,4,0,4,0,,,,,1,9,45,14,,,,,,up,0.6004807523931959,2059.219450820532,None,001,79,2019_Oct_30_1402,ACPT_experiment_5_30_19,3.1.0,59.953922305566564,
,,,C,D,g,b,L,D,y,L,y,,,,,5,19,119,10,4,0,4,0,,,,,1,10,46,32,,,,,,down,0.967427410192613,2061.1043023807615,None,001,79,2019_Oct_30_1402,ACPT_experiment_5_30_19,3.1.0,59.953922305566564,
,,,C,D,g,b,L,U,g,L,u,,,,,5,19,119,10,4,0,4,0,,,,,1,11,47,22,,,,,,up,0.5003990673540102,2063.356085807329,None,001,79,2019_Oct_30_1402,ACPT_experiment_5_30_19,3.1.0,59.953922305566564,
,,,C,D,g,b,L,D,d,R,c ,,,,,5,19,119,10,4,0,4,0,,,,,1,12,48,13,,,,,,up,0.6004801486633369,2065.140845117192,None,001,79,2019_Oct_30_1402,ACPT_experiment_5_30_19,3.1.0,59.953922305566564,
,,,C,D,g,b,R,U,y,R,u,,,,,5,19,119,10,4,0,4,0,,,,,1,13,49,31,,,,,,down,0.6002039409249846,2067.04263832423,None,001,79,2019_Oct_30_1402,ACPT_experiment_5_30_19,3.1.0,59.953922305566564,
,,,C,D,g,b,R,D,d,L,c,,,,,5,19,119,10,4,0,4,0,,,,,1,14,50,0,,,,,,up,0.5671163670740498,2068.927200394599,None,001,79,2019_Oct_30_1402,ACPT_experiment_5_30_19,3.1.0,59.953922305566564,
,,,C,D,g,b,L,D,g,R,i,,,,,5,19,119,10,4,0,4,0,,,,,1,15,51,15,,,,,,up,0.683846888543485,2070.778706285222,None,001,79,2019_Oct_30_1402,ACPT_experiment_5_30_19,3.1.0,59.953922305566564,
,,,C,D,g,b,L,U,d,L,u,,,,,5,19,119,10,4,0,4,0,,,,,1,16,52,20,,,,,,up,0.5837993144014035,2072.746910699472,None,001,79,2019_Oct_30_1402,ACPT_experiment_5_30_19,3.1.0,59.953922305566564,
,,,C,D,g,b,R,U,g,L,u,,,,,5,19,119,10,4,0,4,0,,,,,1,17,53,10,,,,,,up,0.4834489682834828,2074.6320200535883,None,001,79,2019_Oct_30_1402,ACPT_experiment_5_30_19,3.1.0,59.953922305566564,
,,,C,D,g,b,R,D,g,L,i,,,,,5,19,119,10,4,0,4,0,,,,,1,18,54,2,,,,,,up,0.48371038456389215,2076.399842546496,None,001,79,2019_Oct_30_1402,ACPT_experiment_5_30_19,3.1.0,59.953922305566564,
,,,C,D,g,b,R,U,d,L,u,,,,,5,19,119,10,4,0,4,0,,,,,1,19,55,8,,,,,,up,0.45035686643677764,2078.1679086455733,None,001,79,2019_Oct_30_1402,ACPT_experiment_5_30_19,3.1.0,59.953922305566564,
,,,C,D,g,b,R,G,y,L,y,,,,,5,19,119,10,4,0,4,0,,,,,1,20,56,28,,,,,,down,0.6505181234533666,2079.9026272638475,None,001,79,2019_Oct_30_1402,ACPT_experiment_5_30_19,3.1.0,59.953922305566564,
,,,C,D,g,b,R,U,d,R,u,,,,,5,19,119,10,4,0,4,0,,,,,1,21,57,9,,,,,,up,0.5168969705919153,2081.8543322655314,None,001,79,2019_Oct_30_1402,ACPT_experiment_5_30_19,3.1.0,59.953922305566564,
,,,C,D,g,b,R,U,g,R,u,,,,,5,19,119,10,4,0,4,0,,,,,1,22,58,11,,,,,,up,0.5337432276282925,2083.655635664185,None,001,79,2019_Oct_30_1402,ACPT_experiment_5_30_19,3.1.0,59.953922305566564,
,,,C,D,g,b,L,U,g,R,u,,,,,5,19,119,10,4,0,4,0,,,,,1,23,59,23,,,,,,up,0.5671447425120277,2085.473742756716,None,001,79,2019_Oct_30_1402,ACPT_experiment_5_30_19,3.1.0,59.953922305566564,
,,,C,D,g,b,R,G,d,L,i,,,,,5,19,119,10,4,0,4,0,,,,,1,24,60,4,,,,,,up,0.583787843479513,2087.3252247998935,None,001,79,2019_Oct_30_1402,ACPT_experiment_5_30_19,3.1.0,59.953922305566564,
,,,C,D,g,b,R,D,d,R,c ,,,,,5,19,119,10,4,0,4,0,,,,,1,25,61,1,,,,,,up,0.4837052528382628,2089.1933867717344,None,001,79,2019_Oct_30_1402,ACPT_experiment_5_30_19,3.1.0,59.953922305566564,
,,,C,D,g,b,R,G,y,R,y,,,,,5,19,119,10,4,0,4,0,,,,,1,26,62,29,,,,,,down,0.7672960379459255,2090.961476718254,None,001,79,2019_Oct_30_1402,ACPT_experiment_5_30_19,3.1.0,59.953922305566564,
,,,C,D,g,b,R,D,y,R,y,,,,,5,19,119,10,4,0,4,0,,,,,1,27,63,27,,,,,,down,0.533771904934838,2093.013072927297,None,001,79,2019_Oct_30_1402,ACPT_experiment_5_30_19,3.1.0,59.953922305566564,
,,,C,D,g,b,L,U,d,R,u,,,,,5,19,119,10,4,0,4,0,,,,,1,28,64,21,,,,,,up,0.6002205435761425,2094.8481427972874,None,001,79,2019_Oct_30_1402,ACPT_experiment_5_30_19,3.1.0,59.953922305566564,
,,,C,D,g,b,L,G,d,L,i,,,,,5,19,119,10,4,0,4,0,,,,,1,29,65,16,,,,,,up,0.46704766228504013,2096.7327223759057,None,001,79,2019_Oct_30_1402,ACPT_experiment_5_30_19,3.1.0,59.953922305566564,
,,,C,D,g,b,R,D,g,R,i,,,,,5,19,119,10,4,0,4,0,,,,,1,30,66,3,,,,,,up,0.6004840729292482,2098.484123337774,None,001,79,2019_Oct_30_1402,ACPT_experiment_5_30_19,3.1.0,59.953922305566564,
,,,C,D,g,b,R,U,y,L,u,,,,,5,19,119,10,4,0,4,0,,,,,1,31,67,30,,,,,,down,0.5504433813366632,2100.3689598046803,None,001,79,2019_Oct_30_1402,ACPT_experiment_5_30_19,3.1.0,59.953922305566564,
,,,C,D,g,b,L,D,y,R,y,,,,,5,19,119,10,4,0,4,0,,,,,1,32,68,33,,,,,,down,0.5836465700122062,2102.2205840269235,None,001,79,2019_Oct_30_1402,ACPT_experiment_5_30_19,3.1.0,59.953922305566564,
,,,C,D,g,b,R,G,g,L,c ,,,,,5,19,119,10,4,0,4,0,,,,,1,33,69,6,,,,,,up,0.50040389721471,2104.088596574904,None,001,79,2019_Oct_30_1402,ACPT_experiment_5_30_19,3.1.0,59.953922305566564,
,,,C,D,g,b,L,G,y,L,y,,,,,5,19,119,10,4,0,4,0,,,,,1,34,70,34,,,,,,down,0.6505129917277372,2105.873360412759,None,001,79,2019_Oct_30_1402,ACPT_experiment_5_30_19,3.1.0,59.953922305566564,
,,,C,D,g,b,R,D,y,L,y,,,,,5,19,119,10,4,0,4,0,,,,,1,35,71,26,,,,,,down,0.6171486064013152,2107.808244514181,None,001,79,2019_Oct_30_1402,ACPT_experiment_5_30_19,3.1.0,59.953922305566564,
,,,C,D,g,b,,,,,,,,,,5,19,119,10,5,0,5,0,0,0,0,0,,,,,,,,,,,,,,001,79,2019_Oct_30_1402,ACPT_experiment_5_30_19,3.1.0,59.953922305566564,
,,,C,D,g,b,L,G,d,R,i,,,,,5,19,119,10,5,0,5,0,,,,,0,0,0,17,,,,,,up,0.5004072177434864,2112.1283490565474,None,001,79,2019_Oct_30_1402,ACPT_experiment_5_30_19,3.1.0,59.953922305566564,
,,,C,D,g,b,L,D,d,R,c ,,,,,5,19,119,10,5,0,5,0,,,,,0,1,1,13,,,,,,up,0.41698553818423534,2113.9131156112016,None,001,79,2019_Oct_30_1402,ACPT_experiment_5_30_19,3.1.0,59.953922305566564,
,,,C,D,g,b,R,G,g,L,c ,,,,,5,19,119,10,5,0,5,0,,,,,0,2,2,6,,,,,,up,0.5170705437558354,2115.6144650142924,None,001,79,2019_Oct_30_1402,ACPT_experiment_5_30_19,3.1.0,59.953922305566564,
,,,C,D,g,b,L,D,d,L,c ,,,,,5,19,119,10,5,0,5,0,,,,,0,3,3,12,,,,,,up,0.5504343253487605,2117.415902441615,None,001,79,2019_Oct_30_1402,ACPT_experiment_5_30_19,3.1.0,59.953922305566564,
,,,C,D,g,b,R,U,d,R,u,,,,,5,19,119,10,5,0,5,0,,,,,0,4,4,9,,,,,,up,0.5504412682712427,2119.2506951982723,None,001,79,2019_Oct_30_1402,ACPT_experiment_5_30_19,3.1.0,59.953922305566564,
,,,C,D,g,b,R,D,y,L,y,,,,,5,19,119,10,5,0,5,0,,,,,0,5,5,26,,,,,,up,0.4167307629613788,2121.1024474118567,None,001,79,2019_Oct_30_1402,ACPT_experiment_5_30_19,3.1.0,59.953922305566564,
,,,C,D,g,b,R,U,g,R,u,,,,,5,19,119,10,5,0,5,0,,,,,0,6,6,11,,,,,,up,0.9173960764601361,2122.80353479493,None,001,79,2019_Oct_30_1402,ACPT_experiment_5_30_19,3.1.0,59.953922305566564,
,,,C,D,g,b,L,U,d,R,u,,,,,5,19,119,10,5,0,5,0,,,,,0,7,7,21,,,,,,up,0.5003957468215958,2125.005294132563,None,001,79,2019_Oct_30_1402,ACPT_experiment_5_30_19,3.1.0,59.953922305566564,
,,,C,D,g,b,L,U,y,L,u,,,,,5,19,119,10,5,0,5,0,,,,,0,8,8,24,,,,,,down,0.6338170641465695,2126.790079101065,None,001,79,2019_Oct_30_1402,ACPT_experiment_5_30_19,3.1.0,59.953922305566564,
,,,C,D,g,b,L,U,g,L,u,,,,,5,19,119,10,5,0,5,0,,,,,0,9,9,22,,,,,,up,0.7339120313044987,2128.724931808385,None,001,79,2019_Oct_30_1402,ACPT_experiment_5_30_19,3.1.0,59.953922305566564,
,,,C,D,g,b,L,G,y,L,y,,,,,5,19,119,10,5,0,5,0,,,,,0,10,10,34,,,,,,down,0.5838183319829113,2130.7431817440884,None,001,79,2019_Oct_30_1402,ACPT_experiment_5_30_19,3.1.0,59.953922305566564,
,,,C,D,g,b,L,D,y,R,y,,,,,5,19,119,10,5,0,5,0,,,,,0,11,11,33,,,,,,down,0.7007683103074669,2132.6113645447076,None,001,79,2019_Oct_30_1402,ACPT_experiment_5_30_19,3.1.0,59.953922305566564,
,,,C,D,g,b,R,D,y,R,y,,,,,5,19,119,10,5,0,5,0,,,,,0,12,12,27,,,,,,down,0.7672740016969328,2134.5962817910586,None,001,79,2019_Oct_30_1402,ACPT_experiment_5_30_19,3.1.0,59.953922305566564,
,,,C,D,g,b,L,G,g,R,c ,,,,,5,19,119,10,5,0,5,0,,,,,0,13,13,19,,,,,,up,0.5504385514759633,2136.6479208651253,None,001,79,2019_Oct_30_1402,ACPT_experiment_5_30_19,3.1.0,59.953922305566564,
,,,C,D,g,b,L,D,g,L,i,,,,,5,19,119,10,5,0,5,0,,,,,0,14,14,14,,,,,,up,0.4837064603016188,2138.4660448621726,None,001,79,2019_Oct_30_1402,ACPT_experiment_5_30_19,3.1.0,59.953922305566564,
,,,C,D,g,b,R,G,y,R,y,,,,,5,19,119,10,5,0,5,0,,,,,0,15,15,29,,,,,,down,0.5334803020086838,2140.251075248045,None,001,79,2019_Oct_30_1402,ACPT_experiment_5_30_19,3.1.0,59.953922305566564,
,,,C,D,g,b,R,D,d,R,c ,,,,,5,19,119,10,5,0,5,0,,,,,0,16,16,1,,,,,,up,0.5004407249143696,2142.0688862096576,None,001,79,2019_Oct_30_1402,ACPT_experiment_5_30_19,3.1.0,59.953922305566564,
,,,C,D,g,b,L,D,y,L,y,,,,,5,19,119,10,5,0,5,0,,,,,0,17,17,32,,,,,,down,0.5840217899203708,2143.85367117816,None,001,79,2019_Oct_30_1402,ACPT_experiment_5_30_19,3.1.0,59.953922305566564,
,,,C,D,g,b,L,G,d,L,i,,,,,5,19,119,10,5,0,5,0,,,,,0,18,18,16,,,,,,up,0.7672761147623532,2145.7218207734804,None,001,79,2019_Oct_30_1402,ACPT_experiment_5_30_19,3.1.0,59.953922305566564,
,,,C,D,g,b,R,U,y,L,u,,,,,5,19,119,10,5,0,5,0,,,,,0,19,19,30,,,,,,down,0.6670060650976666,2147.790302784055,None,001,79,2019_Oct_30_1402,ACPT_experiment_5_30_19,3.1.0,59.953922305566564,
,,,C,D,g,b,R,G,d,R,i,,,,,5,19,119,10,5,0,5,0,,,,,0,20,20,5,,,,,,up,0.5504291936194932,2149.758384338689,None,001,79,2019_Oct_30_1402,ACPT_experiment_5_30_19,3.1.0,59.953922305566564,
,,,C,D,g,b,R,U,g,L,u,,,,,5,19,119,10,5,0,5,0,,,,,0,21,21,10,,,,,,up,0.5838077666594472,2151.5931822270722,None,001,79,2019_Oct_30_1402,ACPT_experiment_5_30_19,3.1.0,59.953922305566564,
,,,C,D,g,b,R,G,g,R,c ,,,,,5,19,119,10,5,0,5,0,,,,,0,22,22,7,,,,,,up,0.6335991166197346,2153.478268035611,None,001,79,2019_Oct_30_1402,ACPT_experiment_5_30_19,3.1.0,59.953922305566564,
,,,C,D,g,b,R,G,d,L,i,,,,,5,19,119,10,5,0,5,0,,,,,0,23,23,4,,,,,,up,0.5336641386347765,2155.3795109402417,None,001,79,2019_Oct_30_1402,ACPT_experiment_5_30_19,3.1.0,59.953922305566564,
,,,C,D,g,b,R,D,g,R,i,,,,,5,19,119,10,5,0,5,0,,,,,0,24,24,3,,,,,,up,0.583802031196683,2157.1976464082145,None,001,79,2019_Oct_30_1402,ACPT_experiment_5_30_19,3.1.0,59.953922305566564,
,,,C,D,g,b,L,G,y,R,y,,,,,5,19,119,10,5,0,5,0,,,,,0,25,25,35,,,,,,down,0.5169232329644728,2159.0826253560517,None,001,79,2019_Oct_30_1402,ACPT_experiment_5_30_19,3.1.0,59.953922305566564,
,,,C,D,g,b,L,G,g,L,c ,,,,,5,19,119,10,5,0,5,0,,,,,0,26,26,18,,,,,,up,0.45034962163845194,2160.9006083815,None,001,79,2019_Oct_30_1402,ACPT_experiment_5_30_19,3.1.0,59.953922305566564,
,,,C,D,g,b,L,U,d,L,u,,,,,5,19,119,10,5,0,5,0,,,,,0,27,27,20,,,,,,up,0.4837173274936504,2162.6353254904425,None,001,79,2019_Oct_30_1402,ACPT_experiment_5_30_19,3.1.0,59.953922305566564,
,,,C,D,g,b,L,U,y,R,u,,,,,5,19,119,10,5,0,5,0,,,,,0,28,28,25,,,,,,down,0.416995197909273,2164.4034042679086,None,001,79,2019_Oct_30_1402,ACPT_experiment_5_30_19,3.1.0,59.953922305566564,
,,,C,D,g,b,R,U,y,R,u,,,,,5,19,119,10,5,0,5,0,,,,,0,29,29,31,,,,,,down,0.48347553252096986,2166.1216814319596,None,001,79,2019_Oct_30_1402,ACPT_experiment_5_30_19,3.1.0,59.953922305566564,
,,,C,D,g,b,L,D,g,R,i,,,,,5,19,119,10,5,0,5,0,,,,,0,30,30,15,,,,,,up,0.5337598302758124,2167.889514490191,None,001,79,2019_Oct_30_1402,ACPT_experiment_5_30_19,3.1.0,59.953922305566564,
,,,C,D,g,b,R,D,g,L,i,,,,,5,19,119,10,5,0,5,0,,,,,0,31,31,2,,,,,,up,0.4837224592229177,2169.7076333555124,None,001,79,2019_Oct_30_1402,ACPT_experiment_5_30_19,3.1.0,59.953922305566564,
,,,C,D,g,b,L,U,g,R,u,,,,,5,19,119,10,5,0,5,0,,,,,0,32,32,23,,,,,,up,0.6171600773232058,2171.475710019913,None,001,79,2019_Oct_30_1402,ACPT_experiment_5_30_19,3.1.0,59.953922305566564,
,,,C,D,g,b,R,G,y,L,y,,,,,5,19,119,10,5,0,5,0,,,,,0,33,33,28,,,,,,down,0.5168079200084321,2173.3941807406845,None,001,79,2019_Oct_30_1402,ACPT_experiment_5_30_19,3.1.0,59.953922305566564,
,,,C,D,g,b,R,D,d,L,c,,,,,5,19,119,10,5,0,5,0,,,,,0,34,34,0,,,,,,up,0.4837248741496296,2175.1953458845346,None,001,79,2019_Oct_30_1402,ACPT_experiment_5_30_19,3.1.0,59.953922305566564,
,,,C,D,g,b,R,U,d,L,u,,,,,5,19,119,10,5,0,5,0,,,,,0,35,35,8,,,,,,up,0.5170605821658683,2176.963438245988,None,001,79,2019_Oct_30_1402,ACPT_experiment_5_30_19,3.1.0,59.953922305566564,
,,,C,D,g,b,R,U,y,R,u,,,,,5,19,119,10,5,0,5,0,,,,,1,0,36,31,,,,,,down,0.6171787930397841,2178.764862089327,None,001,79,2019_Oct_30_1402,ACPT_experiment_5_30_19,3.1.0,59.953922305566564,
,,,C,D,g,b,R,G,g,R,c ,,,,,5,19,119,10,5,0,5,0,,,,,1,1,37,7,,,,,,up,0.5971487512979365,2180.6863898109223,None,001,79,2019_Oct_30_1402,ACPT_experiment_5_30_19,3.1.0,59.953922305566564,
,,,C,D,g,b,L,G,d,R,i,,,,,5,19,119,10,5,0,5,0,,,,,1,2,38,17,,,,,,up,0.5337408126979426,2182.567911784983,None,001,79,2019_Oct_30_1402,ACPT_experiment_5_30_19,3.1.0,59.953922305566564,
,,,C,D,g,b,L,D,g,R,i,,,,,5,19,119,10,5,0,5,0,,,,,1,3,39,15,,,,,,up,0.5003791441704379,2184.386021896182,None,001,79,2019_Oct_30_1402,ACPT_experiment_5_30_19,3.1.0,59.953922305566564,
,,,C,D,g,b,L,D,d,R,c ,,,,,5,19,119,10,5,0,5,0,,,,,1,4,40,13,,,,,,up,0.5004214054642944,2186.1540828635298,None,001,79,2019_Oct_30_1402,ACPT_experiment_5_30_19,3.1.0,59.953922305566564,
,,,C,D,g,b,R,U,d,R,u,,,,,5,19,119,10,5,0,5,0,,,,,1,5,41,9,,,,,,up,0.6168877938544028,2187.939123814722,None,001,79,2019_Oct_30_1402,ACPT_experiment_5_30_19,3.1.0,59.953922305566564,
,,,C,D,g,b,L,D,g,L,i,,,,,5,19,119,10,5,0,5,0,,,,,1,6,42,14,,,,,,up,0.9007188645991846,2189.8403709454833,None,001,79,2019_Oct_30_1402,ACPT_experiment_5_30_19,3.1.0,59.953922305566564,
,,,C,D,g,b,L,U,g,L,u,,,,,5,19,119,10,5,0,5,0,,,,,1,7,43,22,,,,,,up,0.5671251212006609,2192.0254500525843,None,001,79,2019_Oct_30_1402,ACPT_experiment_5_30_19,3.1.0,59.953922305566564,
,,,C,D,g,b,R,U,d,L,u,,,,,5,19,119,10,5,0,5,0,,,,,1,8,44,8,,,,,,up,0.667197146518447,2193.8769299826963,None,001,79,2019_Oct_30_1402,ACPT_experiment_5_30_19,3.1.0,59.953922305566564,
,,,C,D,g,b,R,U,g,L,u,,,,,5,19,119,10,5,0,5,0,,,,,1,9,45,10,,,,,,up,0.46706667986654793,2195.81177574709,None,001,79,2019_Oct_30_1402,ACPT_experiment_5_30_19,3.1.0,59.953922305566564,
,,,C,D,g,b,R,D,d,L,c,,,,,5,19,119,10,5,0,5,0,,,,,1,10,46,0,,,,,,up,0.5169866249016195,2197.5631733884256,None,001,79,2019_Oct_30_1402,ACPT_experiment_5_30_19,3.1.0,59.953922305566564,
,,,C,D,g,b,R,D,y,R,y,,,,,5,19,119,10,5,0,5,0,,,,,1,11,47,27,,,,,,down,0.667156394556514,2199.364678131955,None,001,79,2019_Oct_30_1402,ACPT_experiment_5_30_19,3.1.0,59.953922305566564,
,,,C,D,g,b,R,D,d,R,c ,,,,,5,19,119,10,5,0,5,0,,,,,1,12,48,1,,,,,,up,0.5671100278814265,2201.3162062399424,None,001,79,2019_Oct_30_1402,ACPT_experiment_5_30_19,3.1.0,59.953922305566564,
,,,C,D,g,b,R,G,y,R,y,,,,,5,19,119,10,5,0,5,0,,,,,1,13,49,29,,,,,,down,0.3836389629796031,2203.167669567403,None,001,79,2019_Oct_30_1402,ACPT_experiment_5_30_19,3.1.0,59.953922305566564,
,,,C,D,g,b,R,D,g,L,i,,,,,5,19,119,10,5,0,5,0,,,,,1,14,50,2,,,,,,up,0.5003969542885898,2204.8356699803553,None,001,79,2019_Oct_30_1402,ACPT_experiment_5_30_19,3.1.0,59.953922305566564,
,,,C,D,g,b,L,D,d,L,c ,,,,,5,19,119,10,5,0,5,0,,,,,1,15,51,12,,,,,,up,0.4667922833286866,2206.637363994105,None,001,79,2019_Oct_30_1402,ACPT_experiment_5_30_19,3.1.0,59.953922305566564,
,,,C,D,g,b,R,G,g,L,c ,,,,,5,19,119,10,5,0,5,0,,,,,1,16,52,6,,,,,,up,0.483714610694733,2208.388509275148,None,001,79,2019_Oct_30_1402,ACPT_experiment_5_30_19,3.1.0,59.953922305566564,
,,,C,D,g,b,R,U,g,R,u,,,,,5,19,119,10,5,0,5,0,,,,,1,17,53,11,,,,,,up,0.6338623441006348,2210.1565614883693,None,001,79,2019_Oct_30_1402,ACPT_experiment_5_30_19,3.1.0,59.953922305566564,
,,,C,D,g,b,L,G,d,L,i,,,,,5,19,119,10,5,0,5,0,,,,,1,18,54,16,,,,,,up,0.48372366668627365,2212.0747810563153,None,001,79,2019_Oct_30_1402,ACPT_experiment_5_30_19,3.1.0,59.953922305566564,
,,,C,D,g,b,L,G,g,L,c ,,,,,5,19,119,10,5,0,5,0,,,,,1,19,55,18,,,,,,up,0.5668489134623087,2213.8431324191224,None,001,79,2019_Oct_30_1402,ACPT_experiment_5_30_19,3.1.0,59.953922305566564,
,,,C,D,g,b,L,U,g,R,u,,,,,5,19,119,10,5,0,5,0,,,,,1,20,56,23,,,,,,up,0.5003927281613869,2215.6776619482953,None,001,79,2019_Oct_30_1402,ACPT_experiment_5_30_19,3.1.0,59.953922305566564,
,,,C,D,g,b,R,D,g,R,i,,,,,5,19,119,10,5,0,5,0,,,,,1,21,57,3,,,,,,up,0.5170750717516057,2217.462414918962,None,001,79,2019_Oct_30_1402,ACPT_experiment_5_30_19,3.1.0,59.953922305566564,
,,,C,D,g,b,L,G,y,R,y,,,,,5,19,119,10,5,0,5,0,,,,,1,22,58,35,,,,,,down,0.5170952968001075,2219.263840271633,None,001,79,2019_Oct_30_1402,ACPT_experiment_5_30_19,3.1.0,59.953922305566564,
,,,C,D,g,b,R,G,d,R,i,,,,,5,19,119,10,5,0,5,0,,,,,1,23,59,5,,,,,,up,0.5668359332084947,2221.082252852939,None,001,79,2019_Oct_30_1402,ACPT_experiment_5_30_19,3.1.0,59.953922305566564,
,,,C,D,g,b,L,G,y,L,y,,,,,5,19,119,10,5,0,5,0,,,,,1,24,60,34,,,,,,down,0.6505172178549401,2222.9334451043906,None,001,79,2019_Oct_30_1402,ACPT_experiment_5_30_19,3.1.0,59.953922305566564,
