facing_vig,person_vig,text_vig,facing_train,person_train,food_train,correct_key_train,facing_exp,person_exp,food_exp,showL_R,consistent,vig_random.thisRepN,vig_random.thisTrialN,vig_random.thisN,vig_random.thisIndex,trainTrials.thisRepN,trainTrials.thisTrialN,trainTrials.thisN,trainTrials.thisIndex,expBlock.thisRepN,expBlock.thisTrialN,expBlock.thisN,expBlock.thisIndex,breakLoop.thisRepN,breakLoop.thisTrialN,breakLoop.thisN,breakLoop.thisIndex,expTrials.thisRepN,expTrials.thisTrialN,expTrials.thisN,expTrials.thisIndex,train_resp.keys,train_resp.corr,train_resp.rt,train_resp.started,train_resp.stopped,exp_resp.keys,exp_resp.rt,exp_resp.started,exp_resp.stopped,session,participant,date,expName,psychopyVersion,frameRate,
C,D,"is allergic to gluten, meaning she can’t eat wheat products. She enjoys eating dairy products. She thinks eating insects, like crickets, is disgusting.",,,,,,,,,,0,0,0,1,,,,,,,,,,,,,,,,,,,,,,,,,,001,7,2019_Jun_05_1534,ACPT_experiment_5_30_19,3.1.0,59.954195185378616,
C,G,"cannot eat dairy products because she is lactose intolerant. She enjoys eating wheat products. She thinks eating insects, like crickets, is disgusting.",,,,,,,,,,0,1,1,0,,,,,,,,,,,,,,,,,,,,,,,,,,001,7,2019_Jun_05_1534,ACPT_experiment_5_30_19,3.1.0,59.954195185378616,
C,U,"did not report her food preferences, so her food preferences are unknown.",,,,,,,,,,0,2,2,2,,,,,,,,,,,,,,,,,,,,,,,,,,001,7,2019_Jun_05_1534,ACPT_experiment_5_30_19,3.1.0,59.954195185378616,
,,,C,D,g,b,,,,,,,,,,0,0,0,10,,,,,,,,,,,,,b,1,3.302299446305824,214.1183214044986,None,,,,,001,7,2019_Jun_05_1534,ACPT_experiment_5_30_19,3.1.0,59.954195185378616,
,,,C,U,y,n,,,,,,,,,,0,1,1,17,,,,,,,,,,,,,b,0,1.951550346062504,220.7064287117919,None,,,,,001,7,2019_Jun_05_1534,ACPT_experiment_5_30_19,3.1.0,59.954195185378616,
,,,C,U,y,n,,,,,,,,,,0,2,2,8,,,,,,,,,,,,,n,1,2.1183144618171355,225.92707829926076,None,,,,,001,7,2019_Jun_05_1534,ACPT_experiment_5_30_19,3.1.0,59.954195185378616,
,,,C,G,y,b,,,,,,,,,,0,3,3,5,,,,,,,,,,,,,b,1,1.5511997104599686,231.33120213134316,None,,,,,001,7,2019_Jun_05_1534,ACPT_experiment_5_30_19,3.1.0,59.954195185378616,
,,,C,D,y,b,,,,,,,,,,0,4,4,11,,,,,,,,,,,,,b,1,2.018227557555747,236.16823868093888,None,,,,,001,7,2019_Jun_05_1534,ACPT_experiment_5_30_19,3.1.0,59.954195185378616,
,,,C,G,d,b,,,,,,,,,,0,5,5,12,,,,,,,,,,,,,b,1,3.9863841941100873,241.4722867774217,None,,,,,001,7,2019_Jun_05_1534,ACPT_experiment_5_30_19,3.1.0,59.954195185378616,
,,,C,D,d,v,,,,,,,,,,0,6,6,9,,,,,,,,,,,,,v,1,4.236577004450282,248.74450056613068,None,,,,,001,7,2019_Jun_05_1534,ACPT_experiment_5_30_19,3.1.0,59.954195185378616,
,,,C,D,g,b,,,,,,,,,,0,7,7,1,,,,,,,,,,,,,b,1,1.3677182213091328,256.2669092781698,None,,,,,001,7,2019_Jun_05_1534,ACPT_experiment_5_30_19,3.1.0,59.954195185378616,
,,,C,U,d,n,,,,,,,,,,0,8,8,6,,,,,,,,,,,,,n,1,1.2676427875653644,260.9204592070673,None,,,,,001,7,2019_Jun_05_1534,ACPT_experiment_5_30_19,3.1.0,59.954195185378616,
,,,C,G,g,v,,,,,,,,,,0,9,9,19,,,,,,,,,,,,,b,0,4.6202018146959745,265.4739300799529,None,,,,,001,7,2019_Jun_05_1534,ACPT_experiment_5_30_19,3.1.0,59.954195185378616,
,,,C,U,d,n,,,,,,,,,,0,10,10,15,,,,,,,,,,,,,n,1,1.2843290698224337,273.37995726326744,None,,,,,001,7,2019_Jun_05_1534,ACPT_experiment_5_30_19,3.1.0,59.954195185378616,
,,,C,G,g,v,,,,,,,,,,0,11,11,13,,,,,,,,,,,,,v,1,4.219624787305293,277.96706391885436,None,,,,,001,7,2019_Jun_05_1534,ACPT_experiment_5_30_19,3.1.0,59.954195185378616,
,,,C,D,d,v,,,,,,,,,,0,12,12,0,,,,,,,,,,,,,v,1,2.0682507853530296,285.4725186026135,None,,,,,001,7,2019_Jun_05_1534,ACPT_experiment_5_30_19,3.1.0,59.954195185378616,
,,,C,D,d,v,,,,,,,,,,0,13,13,18,,,,,,,,,,,,,v,1,3.1357602130615305,290.80990062607907,None,,,,,001,7,2019_Jun_05_1534,ACPT_experiment_5_30_19,3.1.0,59.954195185378616,
,,,C,G,y,b,,,,,,,,,,0,14,14,14,,,,,,,,,,,,,b,1,1.7346670123920376,297.23149013188413,None,,,,,001,7,2019_Jun_05_1534,ACPT_experiment_5_30_19,3.1.0,59.954195185378616,
,,,C,U,g,n,,,,,,,,,,0,15,15,16,,,,,,,,,,,,,n,1,1.6179273318580272,302.2519622885616,None,,,,,001,7,2019_Jun_05_1534,ACPT_experiment_5_30_19,3.1.0,59.954195185378616,
,,,C,G,g,v,,,,,,,,,,0,16,16,4,,,,,,,,,,,,,v,1,3.2024519136293748,307.1557225354313,None,,,,,001,7,2019_Jun_05_1534,ACPT_experiment_5_30_19,3.1.0,59.954195185378616,
,,,C,G,d,b,,,,,,,,,,0,17,17,3,,,,,,,,,,,,,b,1,1.8013843706958141,313.62732742078515,None,,,,,001,7,2019_Jun_05_1534,ACPT_experiment_5_30_19,3.1.0,59.954195185378616,
,,,C,D,y,b,,,,,,,,,,0,18,18,2,,,,,,,,,,,,,b,1,1.5011532397720657,318.7145425935023,None,,,,,001,7,2019_Jun_05_1534,ACPT_experiment_5_30_19,3.1.0,59.954195185378616,
,,,C,U,g,n,,,,,,,,,,0,19,19,7,,,,,,,,,,,,,n,1,1.2843652925089373,323.5181842412603,None,,,,,001,7,2019_Jun_05_1534,ACPT_experiment_5_30_19,3.1.0,59.954195185378616,
,,,C,D,d,v,,,,,,,,,,1,0,20,18,,,,,,,,,,,,,b,0,3.0185695600844156,328.1054234115072,None,,,,,001,7,2019_Jun_05_1534,ACPT_experiment_5_30_19,3.1.0,59.954195185378616,
,,,C,U,y,n,,,,,,,,,,1,1,21,8,,,,,,,,,,,,,n,1,1.3510376743101915,334.40985214805096,None,,,,,001,7,2019_Jun_05_1534,ACPT_experiment_5_30_19,3.1.0,59.954195185378616,
,,,C,U,d,n,,,,,,,,,,1,2,22,15,,,,,,,,,,,,,n,1,1.3476973389306295,339.0667324510896,None,,,,,001,7,2019_Jun_05_1534,ACPT_experiment_5_30_19,3.1.0,59.954195185378616,
,,,C,D,d,v,,,,,,,,,,1,3,23,9,,,,,,,,,,,,,v,1,4.036416477579223,343.70026874214636,None,,,,,001,7,2019_Jun_05_1534,ACPT_experiment_5_30_19,3.1.0,59.954195185378616,
,,,C,D,d,v,,,,,,,,,,1,4,24,0,,,,,,,,,,,,,b,0,3.30257292758688,351.02251904030436,None,,,,,001,7,2019_Jun_05_1534,ACPT_experiment_5_30_19,3.1.0,59.954195185378616,
,,,C,G,y,b,,,,,,,,,,1,5,25,5,,,,,,,,,,,,,b,1,1.317704652894463,357.61085153196336,None,,,,,001,7,2019_Jun_05_1534,ACPT_experiment_5_30_19,3.1.0,59.954195185378616,
,,,C,D,y,b,,,,,,,,,,1,6,26,2,,,,,,,,,,,,,b,1,1.0338808895444345,362.2313171685573,None,,,,,001,7,2019_Jun_05_1534,ACPT_experiment_5_30_19,3.1.0,59.954195185378616,
,,,C,G,g,v,,,,,,,,,,1,7,27,19,,,,,,,,,,,,,v,1,3.235813309482637,366.5510291619794,None,,,,,001,7,2019_Jun_05_1534,ACPT_experiment_5_30_19,3.1.0,59.954195185378616,
,,,C,G,g,v,,,,,,,,,,1,8,28,4,,,,,,,,,,,,,v,1,1.034129618656607,373.05599242462904,None,,,,,001,7,2019_Jun_05_1534,ACPT_experiment_5_30_19,3.1.0,59.954195185378616,
,,,C,D,g,b,,,,,,,,,,1,9,29,10,,,,,,,,,,,,,b,1,2.83507992082923,377.39306927196367,None,,,,,001,7,2019_Jun_05_1534,ACPT_experiment_5_30_19,3.1.0,59.954195185378616,
,,,C,G,d,b,,,,,,,,,,1,10,30,3,,,,,,,,,,,,,b,1,2.6853905756420318,383.5139667131625,None,,,,,001,7,2019_Jun_05_1534,ACPT_experiment_5_30_19,3.1.0,59.954195185378616,
,,,C,G,g,v,,,,,,,,,,1,11,31,13,,,,,,,,,,,,,v,1,1.217551340375394,389.46856097228965,None,,,,,001,7,2019_Jun_05_1534,ACPT_experiment_5_30_19,3.1.0,59.954195185378616,
,,,C,U,g,n,,,,,,,,,,1,12,32,7,,,,,,,,,,,,,n,1,1.5842824934852615,393.9888926151302,None,,,,,001,7,2019_Jun_05_1534,ACPT_experiment_5_30_19,3.1.0,59.954195185378616,
,,,C,U,g,n,,,,,,,,,,1,13,33,16,,,,,,,,,,,,,n,1,1.017443940110752,398.84232687291706,None,,,,,001,7,2019_Jun_05_1534,ACPT_experiment_5_30_19,3.1.0,59.954195185378616,
,,,C,D,y,b,,,,,,,,,,1,14,34,11,,,,,,,,,,,,,b,1,1.7008908667817195,403.1626691410788,None,,,,,001,7,2019_Jun_05_1534,ACPT_experiment_5_30_19,3.1.0,59.954195185378616,
,,,C,D,g,b,,,,,,,,,,1,15,35,1,,,,,,,,,,,,,b,1,2.8188470258610323,408.1327181111319,None,,,,,001,7,2019_Jun_05_1534,ACPT_experiment_5_30_19,3.1.0,59.954195185378616,
,,,C,G,d,b,,,,,,,,,,1,16,36,12,,,,,,,,,,,,,b,1,1.4344573132248115,414.237373903547,None,,,,,001,7,2019_Jun_05_1534,ACPT_experiment_5_30_19,3.1.0,59.954195185378616,
,,,C,U,d,n,,,,,,,,,,1,17,37,6,,,,,,,,,,,,,n,1,1.967899757338273,418.97461333037154,None,,,,,001,7,2019_Jun_05_1534,ACPT_experiment_5_30_19,3.1.0,59.954195185378616,
,,,C,G,y,b,,,,,,,,,,1,18,38,14,,,,,,,,,,,,,b,1,1.6679387872827647,424.22835626581536,None,,,,,001,7,2019_Jun_05_1534,ACPT_experiment_5_30_19,3.1.0,59.954195185378616,
,,,C,U,y,n,,,,,,,,,,1,19,39,17,,,,,,,,,,,,,n,1,1.200878339769588,429.1821720390449,None,,,,,001,7,2019_Jun_05_1534,ACPT_experiment_5_30_19,3.1.0,59.954195185378616,
,,,C,G,y,b,,,,,,,,,,2,0,40,5,,,,,,,,,,,,,b,1,1.334099342528134,433.7024916076566,None,,,,,001,7,2019_Jun_05_1534,ACPT_experiment_5_30_19,3.1.0,59.954195185378616,
,,,C,D,d,v,,,,,,,,,,2,1,41,18,,,,,,,,,,,,,v,1,2.785458462992665,438.32243261901203,None,,,,,001,7,2019_Jun_05_1534,ACPT_experiment_5_30_19,3.1.0,59.954195185378616,
,,,C,G,d,b,,,,,,,,,,2,2,42,3,,,,,,,,,,,,,b,1,1.367715504607986,444.3937273174297,None,,,,,001,7,2019_Jun_05_1534,ACPT_experiment_5_30_19,3.1.0,59.954195185378616,
,,,C,G,g,v,,,,,,,,,,2,3,43,4,,,,,,,,,,,,,v,1,1.3810457549875537,449.06729480829335,None,,,,,001,7,2019_Jun_05_1534,ACPT_experiment_5_30_19,3.1.0,59.954195185378616,
,,,C,U,g,n,,,,,,,,,,2,4,44,7,,,,,,,,,,,,,n,1,1.1675658445424233,453.73417951540705,None,,,,,001,7,2019_Jun_05_1534,ACPT_experiment_5_30_19,3.1.0,59.954195185378616,
,,,C,D,y,b,,,,,,,,,,2,5,45,2,,,,,,,,,,,,,b,1,1.3341108130452994,458.2045021176691,None,,,,,001,7,2019_Jun_05_1534,ACPT_experiment_5_30_19,3.1.0,59.954195185378616,
,,,C,U,y,n,,,,,,,,,,2,6,46,8,,,,,,,,,,,,,n,1,1.9514981250231358,462.8244449401586,None,,,,,001,7,2019_Jun_05_1534,ACPT_experiment_5_30_19,3.1.0,59.954195185378616,
,,,C,G,g,v,,,,,,,,,,2,7,47,13,,,,,,,,,,,,,v,1,1.8680968993076021,468.0617726597807,None,,,,,001,7,2019_Jun_05_1534,ACPT_experiment_5_30_19,3.1.0,59.954195185378616,
,,,C,U,g,n,,,,,,,,,,2,8,48,16,,,,,,,,,,,,,n,1,1.5845423912587648,473.2157067000803,None,,,,,001,7,2019_Jun_05_1534,ACPT_experiment_5_30_19,3.1.0,59.954195185378616,
,,,C,U,y,n,,,,,,,,,,2,9,49,17,,,,,,,,,,,,,n,1,1.0174892184686541,478.08605604675904,None,,,,,001,7,2019_Jun_05_1534,ACPT_experiment_5_30_19,3.1.0,59.954195185378616,
,,,C,U,d,n,,,,,,,,,,2,10,50,6,,,,,,,,,,,,,n,1,1.2006830391192125,482.40628994871804,None,,,,,001,7,2019_Jun_05_1534,ACPT_experiment_5_30_19,3.1.0,59.954195185378616,
,,,C,G,d,b,,,,,,,,,,2,11,51,12,,,,,,,,,,,,,b,1,1.2676391652962593,486.8927944323318,None,,,,,001,7,2019_Jun_05_1534,ACPT_experiment_5_30_19,3.1.0,59.954195185378616,
,,,C,U,d,n,,,,,,,,,,2,12,52,15,,,,,,,,,,,,,n,1,0.7972797366369377,491.4662825653272,None,,,,,001,7,2019_Jun_05_1534,ACPT_experiment_5_30_19,3.1.0,59.954195185378616,
,,,C,D,g,b,,,,,,,,,,2,13,53,10,,,,,,,,,,,,,b,1,2.468560972289197,495.5493943114084,None,,,,,001,7,2019_Jun_05_1534,ACPT_experiment_5_30_19,3.1.0,59.954195185378616,
,,,C,D,g,b,,,,,,,,,,2,14,54,1,,,,,,,,,,,,,b,1,2.018232990958495,501.2870841069648,None,,,,,001,7,2019_Jun_05_1534,ACPT_experiment_5_30_19,3.1.0,59.954195185378616,
,,,C,D,d,v,,,,,,,,,,2,15,55,9,,,,,,,,,,,,,v,1,1.7013025979813392,506.5744685603686,None,,,,,001,7,2019_Jun_05_1534,ACPT_experiment_5_30_19,3.1.0,59.954195185378616,
,,,C,D,d,v,,,,,,,,,,2,16,56,0,,,,,,,,,,,,,v,1,1.1843903767189659,511.5447753152057,None,,,,,001,7,2019_Jun_05_1534,ACPT_experiment_5_30_19,3.1.0,59.954195185378616,
,,,C,G,g,v,,,,,,,,,,2,17,57,19,,,,,,,,,,,,,v,1,1.1842479008196278,516.0150007199263,None,,,,,001,7,2019_Jun_05_1534,ACPT_experiment_5_30_19,3.1.0,59.954195185378616,
,,,C,D,y,b,,,,,,,,,,2,18,58,11,,,,,,,,,,,,,b,1,1.2176005428573262,520.4850718763746,None,,,,,001,7,2019_Jun_05_1534,ACPT_experiment_5_30_19,3.1.0,59.954195185378616,
,,,C,G,y,b,,,,,,,,,,2,19,59,14,,,,,,,,,,,,,b,1,1.0505433252005787,525.0054548346875,None,,,,,001,7,2019_Jun_05_1534,ACPT_experiment_5_30_19,3.1.0,59.954195185378616,
,,,C,U,g,n,,,,,,,,,,3,0,60,7,,,,,,,,,,,,,n,1,1.4177737476684342,529.3418078320092,None,,,,,001,7,2019_Jun_05_1534,ACPT_experiment_5_30_19,3.1.0,59.954195185378616,
,,,C,U,d,n,,,,,,,,,,3,1,61,6,,,,,,,,,,,,,n,1,0.8504015133839857,534.0623715415259,None,,,,,001,7,2019_Jun_05_1534,ACPT_experiment_5_30_19,3.1.0,59.954195185378616,
,,,C,U,d,n,,,,,,,,,,3,2,62,15,,,,,,,,,,,,,n,1,1.451116730323065,538.198577595484,None,,,,,001,7,2019_Jun_05_1534,ACPT_experiment_5_30_19,3.1.0,59.954195185378616,
,,,C,D,y,b,,,,,,,,,,3,3,63,2,,,,,,,,,,,,,b,1,1.7013022961259594,542.9355251278284,None,,,,,001,7,2019_Jun_05_1534,ACPT_experiment_5_30_19,3.1.0,59.954195185378616,
,,,C,D,g,b,,,,,,,,,,3,4,64,10,,,,,,,,,,,,,b,1,2.8188132180202956,547.9226630556677,None,,,,,001,7,2019_Jun_05_1534,ACPT_experiment_5_30_19,3.1.0,59.954195185378616,
,,,C,D,d,v,,,,,,,,,,3,5,65,18,,,,,,,,,,,,,v,1,1.7179870691047654,554.0106268305667,None,,,,,001,7,2019_Jun_05_1534,ACPT_experiment_5_30_19,3.1.0,59.954195185378616,
,,,C,G,d,b,,,,,,,,,,3,6,66,12,,,,,,,,,,,,,b,1,1.6346072751452994,559.0144290051953,None,,,,,001,7,2019_Jun_05_1534,ACPT_experiment_5_30_19,3.1.0,59.954195185378616,
,,,C,G,g,v,,,,,,,,,,3,7,67,19,,,,,,,,,,,,,v,1,0.833972110342529,563.9181943836124,None,,,,,001,7,2019_Jun_05_1534,ACPT_experiment_5_30_19,3.1.0,59.954195185378616,
,,,C,U,g,n,,,,,,,,,,3,8,68,16,,,,,,,,,,,,,n,1,1.050557210563511,568.0549259683762,None,,,,,001,7,2019_Jun_05_1534,ACPT_experiment_5_30_19,3.1.0,59.954195185378616,
,,,C,D,d,v,,,,,,,,,,3,9,69,0,,,,,,,,,,,,,v,1,2.8188225755479834,572.3913100568366,None,,,,,001,7,2019_Jun_05_1534,ACPT_experiment_5_30_19,3.1.0,59.954195185378616,
,,,C,U,y,n,,,,,,,,,,3,10,70,8,,,,,,,,,,,,,n,1,0.700576333123081,578.4959676603858,None,,,,,001,7,2019_Jun_05_1534,ACPT_experiment_5_30_19,3.1.0,59.954195185378616,
,,,C,U,y,n,,,,,,,,,,3,11,71,17,,,,,,,,,,,,,n,1,1.2676295059136464,582.4823521563517,None,,,,,001,7,2019_Jun_05_1534,ACPT_experiment_5_30_19,3.1.0,59.954195185378616,
,,,C,G,y,b,,,,,,,,,,3,12,72,5,,,,,,,,,,,,,b,1,0.6838541300353427,587.03581367171,None,,,,,001,7,2019_Jun_05_1534,ACPT_experiment_5_30_19,3.1.0,59.954195185378616,
,,,C,G,g,v,,,,,,,,,,3,13,73,13,,,,,,,,,,,,,v,1,1.0508032229736273,591.005506753871,None,,,,,001,7,2019_Jun_05_1534,ACPT_experiment_5_30_19,3.1.0,59.954195185378616,
,,,C,G,y,b,,,,,,,,,,3,14,74,14,,,,,,,,,,,,,b,1,0.8673244505248476,595.3421450048463,None,,,,,001,7,2019_Jun_05_1534,ACPT_experiment_5_30_19,3.1.0,59.954195185378616,
,,,C,G,d,b,,,,,,,,,,3,15,75,3,,,,,,,,,,,,,b,1,2.2350435774010293,599.4953099167756,None,,,,,001,7,2019_Jun_05_1534,ACPT_experiment_5_30_19,3.1.0,59.954195185378616,
,,,C,D,y,b,,,,,,,,,,3,16,76,11,,,,,,,,,,,,,b,1,1.0007742599177618,605.0161824850638,None,,,,,001,7,2019_Jun_05_1534,ACPT_experiment_5_30_19,3.1.0,59.954195185378616,
,,,C,D,d,v,,,,,,,,,,3,17,77,9,,,,,,,,,,,,,v,1,1.3507931711783385,609.3030565004478,None,,,,,001,7,2019_Jun_05_1534,ACPT_experiment_5_30_19,3.1.0,59.954195185378616,
,,,C,D,g,b,,,,,,,,,,3,18,78,1,,,,,,,,,,,,,b,1,1.4177592585942875,613.9229697410774,None,,,,,001,7,2019_Jun_05_1534,ACPT_experiment_5_30_19,3.1.0,59.954195185378616,
,,,C,G,g,v,,,,,,,,,,3,19,79,4,,,,,,,,,,,,,v,1,1.0174599384636167,618.6265441051955,None,,,,,001,7,2019_Jun_05_1534,ACPT_experiment_5_30_19,3.1.0,59.954195185378616,
,,,C,U,g,n,,,,,,,,,,4,0,80,16,,,,,,,,,,,,,n,1,1.0174532976375303,622.9298387698054,None,,,,,001,7,2019_Jun_05_1534,ACPT_experiment_5_30_19,3.1.0,59.954195185378616,
,,,C,G,g,v,,,,,,,,,,4,1,81,13,,,,,,,,,,,,,v,1,0.7839537122367801,627.2331014377087,None,,,,,001,7,2019_Jun_05_1534,ACPT_experiment_5_30_19,3.1.0,59.954195185378616,
,,,C,U,d,n,,,,,,,,,,4,2,82,6,,,,,,,,,,,,,n,1,0.9006879593680424,631.3028916872258,None,,,,,001,7,2019_Jun_05_1534,ACPT_experiment_5_30_19,3.1.0,59.954195185378616,
,,,C,U,d,n,,,,,,,,,,4,3,83,15,,,,,,,,,,,,,n,1,0.9507471079955394,635.472719638522,None,,,,,001,7,2019_Jun_05_1534,ACPT_experiment_5_30_19,3.1.0,59.954195185378616,
,,,C,G,g,v,,,,,,,,,,4,4,84,4,,,,,,,,,,,,,v,1,1.1508777511508015,639.7093023782309,None,,,,,001,7,2019_Jun_05_1534,ACPT_experiment_5_30_19,3.1.0,59.954195185378616,
,,,C,G,d,b,,,,,,,,,,4,5,85,3,,,,,,,,,,,,,b,1,1.3477097150152986,644.1660224562547,None,,,,,001,7,2019_Jun_05_1534,ACPT_experiment_5_30_19,3.1.0,59.954195185378616,
,,,C,D,g,b,,,,,,,,,,4,6,86,10,,,,,,,,,,,,,b,1,1.250952279327521,648.7995641807138,None,,,,,001,7,2019_Jun_05_1534,ACPT_experiment_5_30_19,3.1.0,59.954195185378616,
,,,C,D,d,v,,,,,,,,,,4,7,87,0,,,,,,,,,,,,,v,1,1.3007300984263566,653.336624969324,None,,,,,001,7,2019_Jun_05_1534,ACPT_experiment_5_30_19,3.1.0,59.954195185378616,
,,,C,G,g,v,,,,,,,,,,4,8,88,19,,,,,,,,,,,,,v,1,0.9340466385197033,657.9231825493589,None,,,,,001,7,2019_Jun_05_1534,ACPT_experiment_5_30_19,3.1.0,59.954195185378616,
,,,C,G,y,b,,,,,,,,,,4,9,89,5,,,,,,,,,,,,,b,1,0.8172785835477043,662.1263984598118,None,,,,,001,7,2019_Jun_05_1534,ACPT_experiment_5_30_19,3.1.0,59.954195185378616,
,,,C,D,d,v,,,,,,,,,,4,10,90,18,,,,,,,,,,,,,v,1,1.6012491997053075,666.229489734038,None,,,,,001,7,2019_Jun_05_1534,ACPT_experiment_5_30_19,3.1.0,59.954195185378616,
,,,C,U,y,n,,,,,,,,,,4,11,91,17,,,,,,,,,,,,,b,0,0.7505726957620027,671.1165781877248,None,,,,,001,7,2019_Jun_05_1534,ACPT_experiment_5_30_19,3.1.0,59.954195185378616,
,,,C,D,g,b,,,,,,,,,,4,12,92,1,,,,,,,,,,,,,b,1,1.7677781698544095,675.1699025096586,None,,,,,001,7,2019_Jun_05_1534,ACPT_experiment_5_30_19,3.1.0,59.954195185378616,
,,,C,G,d,b,,,,,,,,,,4,13,93,12,,,,,,,,,,,,,b,1,2.3684767847294097,680.2235157075152,None,,,,,001,7,2019_Jun_05_1534,ACPT_experiment_5_30_19,3.1.0,59.954195185378616,
,,,C,D,y,b,,,,,,,,,,4,14,94,11,,,,,,,,,,,,,b,1,1.084169750374258,685.8778232942664,None,,,,,001,7,2019_Jun_05_1534,ACPT_experiment_5_30_19,3.1.0,59.954195185378616,
,,,C,D,y,b,,,,,,,,,,4,15,95,2,,,,,,,,,,,,,b,1,0.7668424171279185,690.2648853355777,None,,,,,001,7,2019_Jun_05_1534,ACPT_experiment_5_30_19,3.1.0,59.954195185378616,
,,,C,U,y,n,,,,,,,,,,4,16,96,8,,,,,,,,,,,,,n,1,0.8673350154745094,694.3175881365873,None,,,,,001,7,2019_Jun_05_1534,ACPT_experiment_5_30_19,3.1.0,59.954195185378616,
,,,C,G,y,b,,,,,,,,,,4,17,97,14,,,,,,,,,,,,,b,1,1.067078377742746,698.4878139337206,None,,,,,001,7,2019_Jun_05_1534,ACPT_experiment_5_30_19,3.1.0,59.954195185378616,
,,,C,U,g,n,,,,,,,,,,4,18,98,7,,,,,,,,,,,,,n,1,1.1342038449779466,702.8407536009126,None,,,,,001,7,2019_Jun_05_1534,ACPT_experiment_5_30_19,3.1.0,59.954195185378616,
,,,C,D,d,v,,,,,,,,,,4,19,99,9,,,,,,,,,,,,,v,1,3.886032260527827,707.2777386539228,None,,,,,001,7,2019_Jun_05_1534,ACPT_experiment_5_30_19,3.1.0,59.954195185378616,
,,,C,U,d,n,,,,,,,,,,5,0,100,15,,,,,,,,,,,,,n,1,0.9507576729461107,714.4495766624477,None,,,,,001,7,2019_Jun_05_1534,ACPT_experiment_5_30_19,3.1.0,59.954195185378616,
,,,C,U,g,n,,,,,,,,,,5,1,101,16,,,,,,,,,,,,,n,1,0.9671149324703947,718.7031418048741,None,,,,,001,7,2019_Jun_05_1534,ACPT_experiment_5_30_19,3.1.0,59.954195185378616,
,,,C,D,d,v,,,,,,,,,,5,2,102,18,,,,,,,,,,,,,v,1,2.0682477667960484,722.956084218953,None,,,,,001,7,2019_Jun_05_1534,ACPT_experiment_5_30_19,3.1.0,59.954195185378616,
,,,C,G,y,b,,,,,,,,,,5,3,103,5,,,,,,,,,,,,,b,1,0.7005343751779947,728.3101685230295,None,,,,,001,7,2019_Jun_05_1534,ACPT_experiment_5_30_19,3.1.0,59.954195185378616,
,,,C,G,g,v,,,,,,,,,,5,4,104,4,,,,,,,,,,,,,v,1,1.1842590694814135,732.2798416827131,None,,,,,001,7,2019_Jun_05_1534,ACPT_experiment_5_30_19,3.1.0,59.954195185378616,
,,,C,D,y,b,,,,,,,,,,5,5,105,11,,,,,,,,,,,,,b,1,0.9507661249062949,736.7499321579276,None,,,,,001,7,2019_Jun_05_1534,ACPT_experiment_5_30_19,3.1.0,59.954195185378616,
,,,C,D,g,b,,,,,,,,,,5,6,106,10,,,,,,,,,,,,,b,1,1.2976886002074934,741.0065071037216,None,,,,,001,7,2019_Jun_05_1534,ACPT_experiment_5_30_19,3.1.0,59.954195185378616,
,,,C,G,d,b,,,,,,,,,,5,7,107,3,,,,,,,,,,,,,b,1,1.901460106295417,745.5900008482149,None,,,,,001,7,2019_Jun_05_1534,ACPT_experiment_5_30_19,3.1.0,59.954195185378616,
,,,C,G,g,v,,,,,,,,,,5,8,108,19,,,,,,,,,,,,,v,1,0.9840903925060047,750.7606109076773,None,,,,,001,7,2019_Jun_05_1534,ACPT_experiment_5_30_19,3.1.0,59.954195185378616,
,,,C,U,d,n,,,,,,,,,,5,9,109,6,,,,,,,,,,,,,n,1,1.250993029849269,755.0305302910706,None,,,,,001,7,2019_Jun_05_1534,ACPT_experiment_5_30_19,3.1.0,59.954195185378616,
,,,C,G,y,b,,,,,,,,,,5,10,110,14,,,,,,,,,,,,,b,1,0.783931978624878,759.5673266540716,None,,,,,001,7,2019_Jun_05_1534,ACPT_experiment_5_30_19,3.1.0,59.954195185378616,
,,,C,U,y,n,,,,,,,,,,5,11,111,8,,,,,,,,,,,,,n,1,0.947389868695609,763.6737860344037,None,,,,,001,7,2019_Jun_05_1534,ACPT_experiment_5_30_19,3.1.0,59.954195185378616,
,,,C,D,y,b,,,,,,,,,,5,12,112,2,,,,,,,,,,,,,b,1,1.3009981463042095,767.9070127422356,None,,,,,001,7,2019_Jun_05_1534,ACPT_experiment_5_30_19,3.1.0,59.954195185378616,
,,,C,U,g,n,,,,,,,,,,5,13,113,7,,,,,,,,,,,,,n,1,1.050565058812026,772.5107631184233,None,,,,,001,7,2019_Jun_05_1534,ACPT_experiment_5_30_19,3.1.0,59.954195185378616,
,,,C,U,y,n,,,,,,,,,,5,14,114,17,,,,,,,,,,,,,n,1,1.1842415618498308,776.8304832619497,None,,,,,001,7,2019_Jun_05_1534,ACPT_experiment_5_30_19,3.1.0,59.954195185378616,
,,,C,D,d,v,,,,,,,,,,5,15,115,0,,,,,,,,,,,,,v,1,2.551530846183141,781.3176306982436,None,,,,,001,7,2019_Jun_05_1534,ACPT_experiment_5_30_19,3.1.0,59.954195185378616,
,,,C,G,d,b,,,,,,,,,,5,16,116,12,,,,,,,,,,,,,b,1,0.9340466385197033,787.1550183060403,None,,,,,001,7,2019_Jun_05_1534,ACPT_experiment_5_30_19,3.1.0,59.954195185378616,
,,,C,G,g,v,,,,,,,,,,5,17,117,13,,,,,,,,,,,,,v,1,0.8006010551066538,791.3582345183486,None,,,,,001,7,2019_Jun_05_1534,ACPT_experiment_5_30_19,3.1.0,59.954195185378616,
,,,C,D,g,b,,,,,,,,,,5,18,118,1,,,,,,,,,,,,,b,1,0.9840873739485687,795.4446715070239,None,,,,,001,7,2019_Jun_05_1534,ACPT_experiment_5_30_19,3.1.0,59.954195185378616,
,,,C,D,d,v,,,,,,,,,,5,19,119,9,0,0,0,0,0,0,0,0,,,,,v,1,1.6676770783747088,799.7148622587079,None,,,,,001,7,2019_Jun_05_1534,ACPT_experiment_5_30_19,3.1.0,59.954195185378616,
,,,C,D,d,v,R,G,y,R,y,,,,,5,19,119,9,0,0,0,0,,,,,0,0,0,29,,,,,,down,1.7513508798037947,887.0311487934378,None,001,7,2019_Jun_05_1534,ACPT_experiment_5_30_19,3.1.0,59.954195185378616,
,,,C,D,d,v,R,G,g,L,c ,,,,,5,19,119,9,0,0,0,0,,,,,0,1,1,6,,,,,,up,1.3677049396574148,890.0667967463578,None,001,7,2019_Jun_05_1534,ACPT_experiment_5_30_19,3.1.0,59.954195185378616,
,,,C,D,d,v,R,U,d,R,u,,,,,5,19,119,9,0,0,0,0,,,,,0,2,2,9,,,,,,down,1.5512217459277053,892.7187969479974,None,001,7,2019_Jun_05_1534,ACPT_experiment_5_30_19,3.1.0,59.954195185378616,
,,,C,D,d,v,R,D,y,L,y,,,,,5,19,119,9,0,0,0,0,,,,,0,3,3,26,,,,,,down,1.6512534105922896,895.5543118429168,None,001,7,2019_Jun_05_1534,ACPT_experiment_5_30_19,3.1.0,59.954195185378616,
,,,C,D,d,v,R,U,g,L,u,,,,,5,19,119,9,0,0,0,0,,,,,0,4,4,10,,,,,,down,1.367703128523317,898.4898831546702,None,001,7,2019_Jun_05_1534,ACPT_experiment_5_30_19,3.1.0,59.954195185378616,
,,,C,D,d,v,L,G,g,R,c ,,,,,5,19,119,9,0,0,0,0,,,,,0,5,5,19,,,,,,up,0.9507229595383251,901.1419011657972,None,001,7,2019_Jun_05_1534,ACPT_experiment_5_30_19,3.1.0,59.954195185378616,
,,,C,D,d,v,L,U,g,R,u,,,,,5,19,119,9,0,0,0,0,,,,,0,6,6,23,,,,,,down,1.3176678264971997,903.3769381023722,None,001,7,2019_Jun_05_1534,ACPT_experiment_5_30_19,3.1.0,59.954195185378616,
,,,C,D,d,v,L,G,d,R,i,,,,,5,19,119,9,0,0,0,0,,,,,0,7,7,17,,,,,,down,1.1175184682874715,905.978922924463,None,001,7,2019_Jun_05_1534,ACPT_experiment_5_30_19,3.1.0,59.954195185378616,
,,,C,D,d,v,L,U,y,R,u,,,,,5,19,119,9,0,0,0,0,,,,,0,8,8,25,,,,,,down,1.0507959784367813,908.3807562753541,None,001,7,2019_Jun_05_1534,ACPT_experiment_5_30_19,3.1.0,59.954195185378616,
,,,C,D,d,v,L,U,d,L,u,,,,,5,19,119,9,0,0,0,0,,,,,0,9,9,20,,,,,,down,1.1508699029022864,910.715870154952,None,001,7,2019_Jun_05_1534,ACPT_experiment_5_30_19,3.1.0,59.954195185378616,
,,,C,D,d,v,L,U,d,R,u,,,,,5,19,119,9,0,0,0,0,,,,,0,10,10,21,,,,,,down,0.7006813789134867,913.1342270878681,None,001,7,2019_Jun_05_1534,ACPT_experiment_5_30_19,3.1.0,59.954195185378616,
,,,C,D,d,v,L,D,g,L,i,,,,,5,19,119,9,0,0,0,0,,,,,0,11,11,14,,,,,,down,1.1842355247354135,915.1192227456736,None,001,7,2019_Jun_05_1534,ACPT_experiment_5_30_19,3.1.0,59.954195185378616,
,,,C,D,d,v,R,D,g,R,i,,,,,5,19,119,9,0,0,0,0,,,,,0,12,12,3,,,,,,down,1.6512519013140263,917.5877737567243,None,001,7,2019_Jun_05_1534,ACPT_experiment_5_30_19,3.1.0,59.954195185378616,
,,,C,D,d,v,L,D,d,R,c ,,,,,5,19,119,9,0,0,0,0,,,,,0,13,13,13,,,,,,up,0.9340306401668386,920.5233447666219,None,001,7,2019_Jun_05_1534,ACPT_experiment_5_30_19,3.1.0,59.954195185378616,
,,,C,D,d,v,L,G,g,L,c ,,,,,5,19,119,9,0,0,0,0,,,,,0,14,14,18,,,,,,up,1.0674949386338994,922.7416773095965,None,001,7,2019_Jun_05_1534,ACPT_experiment_5_30_19,3.1.0,59.954195185378616,
,,,C,D,d,v,L,D,y,R,y,,,,,5,19,119,9,0,0,0,0,,,,,0,15,15,33,,,,,,down,1.0841646188273444,925.0934871308345,None,001,7,2019_Jun_05_1534,ACPT_experiment_5_30_19,3.1.0,59.954195185378616,
,,,C,D,d,v,L,G,y,R,y,,,,,5,19,119,9,0,0,0,0,,,,,0,16,16,35,,,,,,down,1.0507914506006273,927.4619666322656,None,001,7,2019_Jun_05_1534,ACPT_experiment_5_30_19,3.1.0,59.954195185378616,
,,,C,D,d,v,L,G,d,L,i,,,,,5,19,119,9,0,0,0,0,,,,,0,17,17,16,,,,,,down,1.3510729914291915,929.7803709867153,None,001,7,2019_Jun_05_1534,ACPT_experiment_5_30_19,3.1.0,59.954195185378616,
,,,C,D,d,v,R,U,y,L,u,,,,,5,19,119,9,0,0,0,0,,,,,0,18,18,30,,,,,,down,0.6838450743634894,932.4157407494054,None,001,7,2019_Jun_05_1534,ACPT_experiment_5_30_19,3.1.0,59.954195185378616,
,,,C,D,d,v,R,D,g,L,i,,,,,5,19,119,9,0,0,0,0,,,,,0,19,19,2,,,,,,up,1.6345610912203483,934.3839194214274,None,001,7,2019_Jun_05_1534,ACPT_experiment_5_30_19,3.1.0,59.954195185378616,
,,,C,D,d,v,R,D,d,L,c,,,,,5,19,119,9,0,0,0,0,,,,,0,20,20,0,,,,,,up,0.9006807148302869,937.3027938859732,None,001,7,2019_Jun_05_1534,ACPT_experiment_5_30_19,3.1.0,59.954195185378616,
,,,C,D,d,v,R,D,d,R,c ,,,,,5,19,119,9,0,0,0,0,,,,,0,21,21,1,,,,,,down,0.6671575846835367,939.4878069910392,None,001,7,2019_Jun_05_1534,ACPT_experiment_5_30_19,3.1.0,59.954195185378616,
,,,C,D,d,v,R,D,y,R,y,,,,,5,19,119,9,0,0,0,0,,,,,0,22,22,27,,,,,,down,1.7847011069952714,941.4392927399776,None,001,7,2019_Jun_05_1534,ACPT_experiment_5_30_19,3.1.0,59.954195185378616,
,,,C,D,d,v,R,U,g,R,u,,,,,5,19,119,9,0,0,0,0,,,,,0,23,23,11,,,,,,down,1.0007386409429273,944.5249799190487,None,001,7,2019_Jun_05_1534,ACPT_experiment_5_30_19,3.1.0,59.954195185378616,
,,,C,D,d,v,R,G,g,R,c ,,,,,5,19,119,9,0,0,0,0,,,,,0,24,24,7,,,,,,up,1.5011342228622198,946.8100455168242,None,001,7,2019_Jun_05_1534,ACPT_experiment_5_30_19,3.1.0,59.954195185378616,
,,,C,D,d,v,L,U,g,L,u,,,,,5,19,119,9,0,0,0,0,,,,,0,25,25,22,,,,,,down,1.1175094126156182,949.5954973389912,None,001,7,2019_Jun_05_1534,ACPT_experiment_5_30_19,3.1.0,59.954195185378616,
,,,C,D,d,v,L,U,y,L,u,,,,,5,19,119,9,0,0,0,0,,,,,0,26,26,24,,,,,,down,0.6338348263620901,951.9806272018491,None,001,7,2019_Jun_05_1534,ACPT_experiment_5_30_19,3.1.0,59.954195185378616,
,,,C,D,d,v,R,G,d,L,i,,,,,5,19,119,9,0,0,0,0,,,,,0,27,27,4,,,,,,down,1.5011405618320168,953.8987781182377,None,001,7,2019_Jun_05_1534,ACPT_experiment_5_30_19,3.1.0,59.954195185378616,
,,,C,D,d,v,R,U,y,R,u,,,,,5,19,119,9,0,0,0,0,,,,,0,28,28,31,,,,,,down,0.8172822058163547,956.6842356756633,None,001,7,2019_Jun_05_1534,ACPT_experiment_5_30_19,3.1.0,59.954195185378616,
,,,C,D,d,v,R,G,d,R,i,,,,,5,19,119,9,0,0,0,0,,,,,0,29,29,5,,,,,,down,0.8339494711640327,958.7858427253227,None,001,7,2019_Jun_05_1534,ACPT_experiment_5_30_19,3.1.0,59.954195185378616,
,,,C,D,d,v,R,U,d,L,u,,,,,5,19,119,9,0,0,0,0,,,,,0,30,30,8,,,,,,down,0.6338197335762743,960.9041185496076,None,001,7,2019_Jun_05_1534,ACPT_experiment_5_30_19,3.1.0,59.954195185378616,
,,,C,D,d,v,L,D,y,L,y,,,,,5,19,119,9,0,0,0,0,,,,,0,31,31,32,,,,,,down,1.7313245640220885,962.858942822792,None,001,7,2019_Jun_05_1534,ACPT_experiment_5_30_19,3.1.0,59.954195185378616,
,,,C,D,d,v,L,D,d,L,c ,,,,,5,19,119,9,0,0,0,0,,,,,0,32,32,12,,,,,,up,1.1508985791952,965.8578679145785,None,001,7,2019_Jun_05_1534,ACPT_experiment_5_30_19,3.1.0,59.954195185378616,
,,,C,D,d,v,L,G,y,L,y,,,,,5,19,119,9,0,0,0,0,,,,,0,33,33,34,,,,,,down,2.3684595789536615,968.3097649419337,None,001,7,2019_Jun_05_1534,ACPT_experiment_5_30_19,3.1.0,59.954195185378616,
,,,C,D,d,v,R,G,y,L,y,,,,,5,19,119,9,0,0,0,0,,,,,0,34,34,28,,,,,,down,0.8673169041317124,971.9625457424613,None,001,7,2019_Jun_05_1534,ACPT_experiment_5_30_19,3.1.0,59.954195185378616,
,,,C,D,d,v,L,D,g,R,i,,,,,5,19,119,9,0,0,0,0,,,,,0,35,35,15,,,,,,down,1.9348254262731643,974.1308432852652,None,001,7,2019_Jun_05_1534,ACPT_experiment_5_30_19,3.1.0,59.954195185378616,
,,,C,D,d,v,L,G,y,R,y,,,,,5,19,119,9,0,0,0,0,,,,,1,0,36,35,,,,,,down,0.8339585268354313,977.3499848015649,None,001,7,2019_Jun_05_1534,ACPT_experiment_5_30_19,3.1.0,59.954195185378616,
,,,C,D,d,v,R,D,g,L,i,,,,,5,19,119,9,0,0,0,0,,,,,1,1,37,2,,,,,,down,2.1516574444713115,979.4682397978054,None,001,7,2019_Jun_05_1534,ACPT_experiment_5_30_19,3.1.0,59.954195185378616,
,,,C,D,d,v,L,U,d,R,u,,,,,5,19,119,9,0,0,0,0,,,,,1,2,38,21,,,,,,down,1.0174379029963347,982.9042154452932,None,001,7,2019_Jun_05_1534,ACPT_experiment_5_30_19,3.1.0,59.954195185378616,
,,,C,D,d,v,L,G,y,L,y,,,,,5,19,119,9,0,0,0,0,,,,,1,3,39,34,,,,,,down,1.7513336740280465,985.205970645739,None,001,7,2019_Jun_05_1534,ACPT_experiment_5_30_19,3.1.0,59.954195185378616,
,,,C,D,d,v,L,D,d,L,c ,,,,,5,19,119,9,0,0,0,0,,,,,1,4,40,12,,,,,,up,1.2676316189035788,988.2416176930919,None,001,7,2019_Jun_05_1534,ACPT_experiment_5_30_19,3.1.0,59.954195185378616,
,,,C,D,d,v,L,D,g,R,i,,,,,5,19,119,9,0,0,0,0,,,,,1,5,41,15,,,,,,down,1.6679765192475315,990.7935611760422,None,001,7,2019_Jun_05_1534,ACPT_experiment_5_30_19,3.1.0,59.954195185378616,
,,,C,D,d,v,R,D,y,R,y,,,,,5,19,119,9,0,0,0,0,,,,,1,6,42,27,,,,,,down,0.7505687716375178,993.74581122366,None,001,7,2019_Jun_05_1534,ACPT_experiment_5_30_19,3.1.0,59.954195185378616,
,,,C,D,d,v,R,G,d,R,i,,,,,5,19,119,9,0,0,0,0,,,,,1,7,43,5,,,,,,down,1.2509737110835886,995.7806704275881,None,001,7,2019_Jun_05_1534,ACPT_experiment_5_30_19,3.1.0,59.954195185378616,
,,,C,D,d,v,R,G,g,L,c ,,,,,5,19,119,9,0,0,0,0,,,,,1,8,44,6,,,,,,up,1.284307638066366,998.2992941707739,None,001,7,2019_Jun_05_1534,ACPT_experiment_5_30_19,3.1.0,59.954195185378616,
,,,C,D,d,v,L,G,d,R,i,,,,,5,19,119,9,0,0,0,0,,,,,1,9,45,17,,,,,,down,1.4510874503180275,1000.8679194081456,None,001,7,2019_Jun_05_1534,ACPT_experiment_5_30_19,3.1.0,59.954195185378616,
,,,C,D,d,v,L,G,d,L,i,,,,,5,19,119,9,0,0,0,0,,,,,1,10,46,16,,,,,,down,0.9173621673967318,1003.5866424014916,None,001,7,2019_Jun_05_1534,ACPT_experiment_5_30_19,3.1.0,59.954195185378616,
,,,C,D,d,v,R,U,y,R,u,,,,,5,19,119,9,0,0,0,0,,,,,1,11,47,31,,,,,,down,0.7172034516597705,1005.7883251867506,None,001,7,2019_Jun_05_1534,ACPT_experiment_5_30_19,3.1.0,59.954195185378616,
,,,C,D,d,v,R,D,d,L,c,,,,,5,19,119,9,0,0,0,0,,,,,1,12,48,0,,,,,,up,1.5511773731368521,1007.789848350706,None,001,7,2019_Jun_05_1534,ACPT_experiment_5_30_19,3.1.0,59.954195185378616,
,,,C,D,d,v,R,G,y,L,y,,,,,5,19,119,9,0,0,0,0,,,,,1,13,49,28,,,,,,down,0.600348764096907,1010.6253445305706,None,001,7,2019_Jun_05_1534,ACPT_experiment_5_30_19,3.1.0,59.954195185378616,
,,,C,D,d,v,L,U,y,L,u,,,,,5,19,119,9,0,0,0,0,,,,,1,14,50,24,,,,,,down,0.7839235266651485,1012.5101168453302,None,001,7,2019_Jun_05_1534,ACPT_experiment_5_30_19,3.1.0,59.954195185378616,
,,,C,D,d,v,R,D,d,R,c ,,,,,5,19,119,9,0,0,0,0,,,,,1,15,51,1,,,,,,up,1.250934167984724,1014.5950481776822,None,001,7,2019_Jun_05_1534,ACPT_experiment_5_30_19,3.1.0,59.954195185378616,
,,,C,D,d,v,R,G,y,R,y,,,,,5,19,119,9,0,0,0,0,,,,,1,16,52,29,,,,,,down,0.7671599693435383,1017.1302760983704,None,001,7,2019_Jun_05_1534,ACPT_experiment_5_30_19,3.1.0,59.954195185378616,
,,,C,D,d,v,L,G,g,R,c ,,,,,5,19,119,9,0,0,0,0,,,,,1,17,53,19,,,,,,up,1.4677827882474048,1019.181863844356,None,001,7,2019_Jun_05_1534,ACPT_experiment_5_30_19,3.1.0,59.954195185378616,
,,,C,D,d,v,R,U,d,R,u,,,,,5,19,119,9,0,0,0,0,,,,,1,18,54,9,,,,,,down,1.2509462422135584,1021.9339633263417,None,001,7,2019_Jun_05_1534,ACPT_experiment_5_30_19,3.1.0,59.954195185378616,
,,,C,D,d,v,L,U,d,L,u,,,,,5,19,119,9,0,0,0,0,,,,,1,19,55,20,,,,,,down,1.2342838065574142,1024.4692190177557,None,001,7,2019_Jun_05_1534,ACPT_experiment_5_30_19,3.1.0,59.954195185378616,
,,,C,D,d,v,L,U,g,L,u,,,,,5,19,119,9,0,0,0,0,,,,,1,20,56,22,,,,,,down,0.9173763546154987,1026.9711130114606,None,001,7,2019_Jun_05_1534,ACPT_experiment_5_30_19,3.1.0,59.954195185378616,
,,,C,D,d,v,L,D,y,R,y,,,,,5,19,119,9,0,0,0,0,,,,,1,21,57,33,,,,,,down,1.451091676298347,1029.1728229637342,None,001,7,2019_Jun_05_1534,ACPT_experiment_5_30_19,3.1.0,59.954195185378616,
,,,C,D,d,v,L,D,y,L,y,,,,,5,19,119,9,0,0,0,0,,,,,1,22,58,32,,,,,,down,0.683842961373557,1031.9082316356266,None,001,7,2019_Jun_05_1534,ACPT_experiment_5_30_19,3.1.0,59.954195185378616,
,,,C,D,d,v,R,G,d,L,i,,,,,5,19,119,9,0,0,0,0,,,,,1,23,59,4,,,,,,down,1.3510461262703757,1033.876400044554,None,001,7,2019_Jun_05_1534,ACPT_experiment_5_30_19,3.1.0,59.954195185378616,
,,,C,D,d,v,R,D,y,L,y,,,,,5,19,119,9,0,0,0,0,,,,,1,24,60,26,,,,,,down,0.7505672623587998,1036.511736603115,None,001,7,2019_Jun_05_1534,ACPT_experiment_5_30_19,3.1.0,59.954195185378616,
,,,C,D,d,v,L,D,d,R,c ,,,,,5,19,119,9,0,0,0,0,,,,,1,25,61,13,,,,,,up,0.9507184317026258,1038.5466238796248,None,001,7,2019_Jun_05_1534,ACPT_experiment_5_30_19,3.1.0,59.954195185378616,
,,,C,D,d,v,R,U,g,R,u,,,,,5,19,119,9,0,0,0,0,,,,,1,26,62,11,,,,,,down,0.9173869195656152,1040.7816345547526,None,001,7,2019_Jun_05_1534,ACPT_experiment_5_30_19,3.1.0,59.954195185378616,
,,,C,D,d,v,L,U,y,R,u,,,,,5,19,119,9,0,0,0,0,,,,,1,27,63,25,,,,,,down,0.9173863158544009,1042.9833170381557,None,001,7,2019_Jun_05_1534,ACPT_experiment_5_30_19,3.1.0,59.954195185378616,
,,,C,D,d,v,R,D,g,R,i,,,,,5,19,119,9,0,0,0,0,,,,,1,28,64,3,,,,,,down,1.28437102776752,1045.1850140106335,None,001,7,2019_Jun_05_1534,ACPT_experiment_5_30_19,3.1.0,59.954195185378616,
,,,C,D,d,v,L,G,g,L,c ,,,,,5,19,119,9,0,0,0,0,,,,,1,29,65,18,,,,,,up,0.9004084409725692,1047.7539112200075,None,001,7,2019_Jun_05_1534,ACPT_experiment_5_30_19,3.1.0,59.954195185378616,
,,,C,D,d,v,R,U,y,L,u,,,,,5,19,119,9,0,0,0,0,,,,,1,30,66,30,,,,,,down,0.8006037718082553,1049.9386345435837,None,001,7,2019_Jun_05_1534,ACPT_experiment_5_30_19,3.1.0,59.954195185378616,
,,,C,D,d,v,R,U,d,L,u,,,,,5,19,119,9,0,0,0,0,,,,,1,31,67,8,,,,,,down,2.151671027978864,1052.0235580276872,None,001,7,2019_Jun_05_1534,ACPT_experiment_5_30_19,3.1.0,59.954195185378616,
,,,C,D,d,v,L,D,g,L,i,,,,,5,19,119,9,0,0,0,0,,,,,1,32,68,14,,,,,,down,1.4010859561321922,1055.4594841708372,None,001,7,2019_Jun_05_1534,ACPT_experiment_5_30_19,3.1.0,59.954195185378616,
,,,C,D,d,v,R,G,g,R,c ,,,,,5,19,119,9,0,0,0,0,,,,,1,33,69,7,,,,,,up,1.45109710970155,1058.1448928578225,None,001,7,2019_Jun_05_1534,ACPT_experiment_5_30_19,3.1.0,59.954195185378616,
,,,C,D,d,v,L,U,g,R,u,,,,,5,19,119,9,0,0,0,0,,,,,1,34,70,23,,,,,,down,0.9673977712782289,1060.880309377963,None,001,7,2019_Jun_05_1534,ACPT_experiment_5_30_19,3.1.0,59.954195185378616,
,,,C,D,d,v,R,U,g,L,u,,,,,5,19,119,9,0,0,0,0,,,,,1,35,71,10,,,,,,down,1.3510219778131614,1063.1320268615368,None,001,7,2019_Jun_05_1534,ACPT_experiment_5_30_19,3.1.0,59.954195185378616,
,,,C,D,d,v,,,,,,,,,,5,19,119,9,1,0,1,0,0,0,0,0,,,,,,,,,,,,,,001,7,2019_Jun_05_1534,ACPT_experiment_5_30_19,3.1.0,59.954195185378616,
,,,C,D,d,v,L,G,g,R,c ,,,,,5,19,119,9,1,0,1,0,,,,,0,0,0,19,,,,,,up,2.11802498218276,1092.821568557018,None,001,7,2019_Jun_05_1534,ACPT_experiment_5_30_19,3.1.0,59.954195185378616,
,,,C,D,d,v,R,G,y,L,y,,,,,5,19,119,9,1,0,1,0,,,,,0,1,1,28,,,,,,down,0.8840040919558305,1096.2239132514965,None,001,7,2019_Jun_05_1534,ACPT_experiment_5_30_19,3.1.0,59.954195185378616,
,,,C,D,d,v,R,G,d,R,i,,,,,5,19,119,9,1,0,1,0,,,,,0,2,2,5,,,,,,down,1.1008352045869287,1098.3755519809133,None,001,7,2019_Jun_05_1534,ACPT_experiment_5_30_19,3.1.0,59.954195185378616,
,,,C,D,d,v,L,D,y,R,y,,,,,5,19,119,9,1,0,1,0,,,,,0,3,3,33,,,,,,down,1.0841459037724235,1100.7773826151033,None,001,7,2019_Jun_05_1534,ACPT_experiment_5_30_19,3.1.0,59.954195185378616,
,,,C,D,d,v,L,U,d,R,u,,,,,5,19,119,9,1,0,1,0,,,,,0,4,4,21,,,,,,down,1.4344050921849885,1103.162530589304,None,001,7,2019_Jun_05_1534,ACPT_experiment_5_30_19,3.1.0,59.954195185378616,
,,,C,D,d,v,L,D,g,L,i,,,,,5,19,119,9,1,0,1,0,,,,,0,5,5,14,,,,,,down,2.535304592040575,1105.881275316262,None,001,7,2019_Jun_05_1534,ACPT_experiment_5_30_19,3.1.0,59.954195185378616,
,,,C,D,d,v,L,G,y,L,y,,,,,5,19,119,9,1,0,1,0,,,,,0,6,6,34,,,,,,down,1.367703128523317,1109.7008540403845,None,001,7,2019_Jun_05_1534,ACPT_experiment_5_30_19,3.1.0,59.954195185378616,
,,,C,D,d,v,R,U,d,L,u,,,,,5,19,119,9,1,0,1,0,,,,,0,7,7,8,,,,,,down,0.6504873007793321,1112.3528723533668,None,001,7,2019_Jun_05_1534,ACPT_experiment_5_30_19,3.1.0,59.954195185378616,
,,,C,D,d,v,R,U,y,R,u,,,,,5,19,119,9,1,0,1,0,,,,,0,8,8,31,,,,,,down,0.7172351465101201,1114.2709755765522,None,001,7,2019_Jun_05_1534,ACPT_experiment_5_30_19,3.1.0,59.954195185378616,
,,,C,D,d,v,L,G,y,R,y,,,,,5,19,119,9,1,0,1,0,,,,,0,9,9,35,,,,,,down,1.634570750603416,1116.2725316427805,None,001,7,2019_Jun_05_1534,ACPT_experiment_5_30_19,3.1.0,59.954195185378616,
,,,C,D,d,v,R,G,d,L,i,,,,,5,19,119,9,1,0,1,0,,,,,0,10,10,4,,,,,,down,2.068263765149368,1119.1914215019679,None,001,7,2019_Jun_05_1534,ACPT_experiment_5_30_19,3.1.0,59.954195185378616,
,,,C,D,d,v,R,U,g,L,u,,,,,5,19,119,9,1,0,1,0,,,,,0,11,11,10,,,,,,down,0.7005226028049947,1122.5439735864175,None,001,7,2019_Jun_05_1534,ACPT_experiment_5_30_19,3.1.0,59.954195185378616,
,,,C,D,d,v,R,D,y,R,y,,,,,5,19,119,9,1,0,1,0,,,,,0,12,12,27,,,,,,down,1.0339865390460545,1124.528842464821,None,001,7,2019_Jun_05_1534,ACPT_experiment_5_30_19,3.1.0,59.954195185378616,
,,,C,D,d,v,L,U,y,R,u,,,,,5,19,119,9,1,0,1,0,,,,,0,13,13,25,,,,,,down,0.783921715530596,1126.8472528563852,None,001,7,2019_Jun_05_1534,ACPT_experiment_5_30_19,3.1.0,59.954195185378616,
,,,C,D,d,v,R,D,d,R,c ,,,,,5,19,119,9,1,0,1,0,,,,,0,14,14,1,,,,,,up,1.6512763516266205,1128.9154749654454,None,001,7,2019_Jun_05_1534,ACPT_experiment_5_30_19,3.1.0,59.954195185378616,
,,,C,D,d,v,R,G,g,L,c ,,,,,5,19,119,9,1,0,1,0,,,,,0,15,15,6,,,,,,up,0.7338827912358283,1131.851067407099,None,001,7,2019_Jun_05_1534,ACPT_experiment_5_30_19,3.1.0,59.954195185378616,
,,,C,D,d,v,L,G,d,R,i,,,,,5,19,119,9,1,0,1,0,,,,,0,16,16,17,,,,,,down,1.401077202317083,1133.8692496862968,None,001,7,2019_Jun_05_1534,ACPT_experiment_5_30_19,3.1.0,59.954195185378616,
,,,C,D,d,v,L,G,g,L,c ,,,,,5,19,119,9,1,0,1,0,,,,,0,17,17,18,,,,,,up,2.1683147485800873,1136.554652939879,None,001,7,2019_Jun_05_1534,ACPT_experiment_5_30_19,3.1.0,59.954195185378616,
,,,C,D,d,v,L,U,g,L,u,,,,,5,19,119,9,1,0,1,0,,,,,0,18,18,22,,,,,,down,0.7505883922590328,1139.9905854219992,None,001,7,2019_Jun_05_1534,ACPT_experiment_5_30_19,3.1.0,59.954195185378616,
,,,C,D,d,v,L,D,d,L,c ,,,,,5,19,119,9,1,0,1,0,,,,,0,19,19,12,,,,,,up,1.6345749765832807,1142.0254862820161,None,001,7,2019_Jun_05_1534,ACPT_experiment_5_30_19,3.1.0,59.954195185378616,
,,,C,D,d,v,L,U,d,L,u,,,,,5,19,119,9,1,0,1,0,,,,,0,20,20,20,,,,,,down,0.9674207123130145,1144.9443522946017,None,001,7,2019_Jun_05_1534,ACPT_experiment_5_30_19,3.1.0,59.954195185378616,
,,,C,D,d,v,R,G,g,R,c ,,,,,5,19,119,9,1,0,1,0,,,,,0,21,21,7,,,,,,up,0.9673908285967627,1147.1960960396232,None,001,7,2019_Jun_05_1534,ACPT_experiment_5_30_19,3.1.0,59.954195185378616,
,,,C,D,d,v,L,G,d,L,i,,,,,5,19,119,9,1,0,1,0,,,,,0,22,22,16,,,,,,down,2.0682414278257966,1149.4478105046396,None,001,7,2019_Jun_05_1534,ACPT_experiment_5_30_19,3.1.0,59.954195185378616,
,,,C,D,d,v,R,D,g,R,i,,,,,5,19,119,9,1,0,1,0,,,,,0,23,23,3,,,,,,down,1.6512479771890867,1152.8003710410494,None,001,7,2019_Jun_05_1534,ACPT_experiment_5_30_19,3.1.0,59.954195185378616,
,,,C,D,d,v,R,G,y,R,y,,,,,5,19,119,9,1,0,1,0,,,,,0,24,24,29,,,,,,down,1.1508759400167037,1155.7359357119767,None,001,7,2019_Jun_05_1534,ACPT_experiment_5_30_19,3.1.0,59.954195185378616,
,,,C,D,d,v,R,D,g,L,i,,,,,5,19,119,9,1,0,1,0,,,,,0,25,25,2,,,,,,down,0.9339563836601883,1158.171137401403,None,001,7,2019_Jun_05_1534,ACPT_experiment_5_30_19,3.1.0,59.954195185378616,
,,,C,D,d,v,R,D,d,L,c,,,,,5,19,119,9,1,0,1,0,,,,,0,26,26,0,,,,,,down,1.7179719763184949,1160.389482924173,None,001,7,2019_Jun_05_1534,ACPT_experiment_5_30_19,3.1.0,59.954195185378616,
,,,C,D,d,v,R,U,y,L,u,,,,,5,19,119,9,1,0,1,0,,,,,0,27,27,30,,,,,,down,1.3843833736664237,1163.391775216499,None,001,7,2019_Jun_05_1534,ACPT_experiment_5_30_19,3.1.0,59.954195185378616,
,,,C,D,d,v,L,D,d,R,c ,,,,,5,19,119,9,1,0,1,0,,,,,0,28,28,13,,,,,,up,1.2676249780779472,1166.0604716616344,None,001,7,2019_Jun_05_1534,ACPT_experiment_5_30_19,3.1.0,59.954195185378616,
,,,C,D,d,v,R,U,d,R,u,,,,,5,19,119,9,1,0,1,0,,,,,0,29,29,9,,,,,,down,0.6671660366432661,1168.612415748296,None,001,7,2019_Jun_05_1534,ACPT_experiment_5_30_19,3.1.0,59.954195185378616,
,,,C,D,d,v,L,D,g,R,i,,,,,5,19,119,9,1,0,1,0,,,,,0,30,30,15,,,,,,down,0.867322035678626,1170.5639017990907,None,001,7,2019_Jun_05_1534,ACPT_experiment_5_30_19,3.1.0,59.954195185378616,
,,,C,D,d,v,L,D,y,L,y,,,,,5,19,119,9,1,0,1,0,,,,,0,31,31,32,,,,,,down,0.7839525048138967,1172.7155148707711,None,001,7,2019_Jun_05_1534,ACPT_experiment_5_30_19,3.1.0,59.954195185378616,
,,,C,D,d,v,L,U,g,R,u,,,,,5,19,119,9,1,0,1,0,,,,,0,32,32,23,,,,,,down,0.700533167755566,1174.7837837674674,None,001,7,2019_Jun_05_1534,ACPT_experiment_5_30_19,3.1.0,59.954195185378616,
,,,C,D,d,v,R,U,g,R,u,,,,,5,19,119,9,1,0,1,0,,,,,0,33,33,11,,,,,,down,0.8506420923913538,1176.7686342326724,None,001,7,2019_Jun_05_1534,ACPT_experiment_5_30_19,3.1.0,59.954195185378616,
,,,C,D,d,v,R,D,y,L,y,,,,,5,19,119,9,1,0,1,0,,,,,0,34,34,26,,,,,,down,1.2676222613763457,1178.9035942262249,None,001,7,2019_Jun_05_1534,ACPT_experiment_5_30_19,3.1.0,59.954195185378616,
,,,C,D,d,v,L,U,y,L,u,,,,,5,19,119,9,1,0,1,0,,,,,0,35,35,24,,,,,,down,1.0007854285790927,1181.4555108440159,None,001,7,2019_Jun_05_1534,ACPT_experiment_5_30_19,3.1.0,59.954195185378616,
,,,C,D,d,v,R,D,y,L,y,,,,,5,19,119,9,1,0,1,0,,,,,1,0,36,26,,,,,,down,0.7839274507891787,1183.7406099477762,None,001,7,2019_Jun_05_1534,ACPT_experiment_5_30_19,3.1.0,59.954195185378616,
,,,C,D,d,v,L,U,d,L,u,,,,,5,19,119,9,1,0,1,0,,,,,1,1,37,20,,,,,,down,1.1005596103159405,1185.8258096298619,None,001,7,2019_Jun_05_1534,ACPT_experiment_5_30_19,3.1.0,59.954195185378616,
,,,C,D,d,v,R,G,y,R,y,,,,,5,19,119,9,1,0,1,0,,,,,1,2,38,29,,,,,,down,0.8339606398258184,1188.210687141339,None,001,7,2019_Jun_05_1534,ACPT_experiment_5_30_19,3.1.0,59.954195185378616,
,,,C,D,d,v,R,U,y,L,u,,,,,5,19,119,9,1,0,1,0,,,,,1,3,39,30,,,,,,down,0.9674161844773153,1190.3289430431464,None,001,7,2019_Jun_05_1534,ACPT_experiment_5_30_19,3.1.0,59.954195185378616,
,,,C,D,d,v,R,U,y,R,u,,,,,5,19,119,9,1,0,1,0,,,,,1,4,40,31,,,,,,down,0.7505877885478185,1192.5639811871442,None,001,7,2019_Jun_05_1534,ACPT_experiment_5_30_19,3.1.0,59.954195185378616,
,,,C,D,d,v,R,D,d,L,c,,,,,5,19,119,9,1,0,1,0,,,,,1,5,41,0,,,,,,up,0.90066652761152,1194.598898951082,None,001,7,2019_Jun_05_1534,ACPT_experiment_5_30_19,3.1.0,59.954195185378616,
,,,C,D,d,v,R,D,y,R,y,,,,,5,19,119,9,1,0,1,0,,,,,1,6,42,27,,,,,,down,0.7005268287853141,1196.783881870576,None,001,7,2019_Jun_05_1534,ACPT_experiment_5_30_19,3.1.0,59.954195185378616,
,,,C,D,d,v,L,U,y,L,u,,,,,5,19,119,9,1,0,1,0,,,,,1,7,43,24,,,,,,down,0.6004562247326248,1198.7687314302138,None,001,7,2019_Jun_05_1534,ACPT_experiment_5_30_19,3.1.0,59.954195185378616,
,,,C,D,d,v,L,G,d,R,i,,,,,5,19,119,9,1,0,1,0,,,,,1,8,44,17,,,,,,down,1.3009884869211419,1200.6535025375501,None,001,7,2019_Jun_05_1534,ACPT_experiment_5_30_19,3.1.0,59.954195185378616,
,,,C,D,d,v,R,D,d,R,c ,,,,,5,19,119,9,1,0,1,0,,,,,1,9,45,1,,,,,,up,1.4344259202298417,1203.238800775528,None,001,7,2019_Jun_05_1534,ACPT_experiment_5_30_19,3.1.0,59.954195185378616,
,,,C,D,d,v,L,G,y,L,y,,,,,5,19,119,9,1,0,1,0,,,,,1,10,46,34,,,,,,down,0.7172103943412367,1205.95753886166,None,001,7,2019_Jun_05_1534,ACPT_experiment_5_30_19,3.1.0,59.954195185378616,
,,,C,D,d,v,R,G,d,L,i,,,,,5,19,119,9,1,0,1,0,,,,,1,11,47,4,,,,,,down,1.3176868434075004,1207.9590475365408,None,001,7,2019_Jun_05_1534,ACPT_experiment_5_30_19,3.1.0,59.954195185378616,
,,,C,D,d,v,L,U,g,L,u,,,,,5,19,119,9,1,0,1,0,,,,,1,12,48,22,,,,,,down,0.6504873007788774,1210.5610492625515,None,001,7,2019_Jun_05_1534,ACPT_experiment_5_30_19,3.1.0,59.954195185378616,
,,,C,D,d,v,L,D,y,R,y,,,,,5,19,119,9,1,0,1,0,,,,,1,13,49,33,,,,,,down,0.6504900174804789,1212.495861407173,None,001,7,2019_Jun_05_1534,ACPT_experiment_5_30_19,3.1.0,59.954195185378616,
,,,C,D,d,v,L,G,y,R,y,,,,,5,19,119,9,1,0,1,0,,,,,1,14,50,35,,,,,,down,0.7672420740987036,1214.4306690239587,None,001,7,2019_Jun_05_1534,ACPT_experiment_5_30_19,3.1.0,59.954195185378616,
,,,C,D,d,v,L,D,d,L,c ,,,,,5,19,119,9,1,0,1,0,,,,,1,15,51,12,,,,,,up,1.017441827120365,1216.482227791796,None,001,7,2019_Jun_05_1534,ACPT_experiment_5_30_19,3.1.0,59.954195185378616,
,,,C,D,d,v,L,D,g,R,i,,,,,5,19,119,9,1,0,1,0,,,,,1,16,52,15,,,,,,down,1.084175183777461,1218.7672837301884,None,001,7,2019_Jun_05_1534,ACPT_experiment_5_30_19,3.1.0,59.954195185378616,
,,,C,D,d,v,R,G,d,R,i,,,,,5,19,119,9,1,0,1,0,,,,,1,17,53,5,,,,,,down,1.4010443000433952,1221.152466115941,None,001,7,2019_Jun_05_1534,ACPT_experiment_5_30_19,3.1.0,59.954195185378616,
,,,C,D,d,v,L,G,d,L,i,,,,,5,19,119,9,1,0,1,0,,,,,1,18,54,16,,,,,,down,1.701289316330076,1223.837836165394,None,001,7,2019_Jun_05_1534,ACPT_experiment_5_30_19,3.1.0,59.954195185378616,
,,,C,D,d,v,L,U,g,R,u,,,,,5,19,119,9,1,0,1,0,,,,,1,19,55,23,,,,,,down,0.7672689392579741,1226.8234225548408,None,001,7,2019_Jun_05_1534,ACPT_experiment_5_30_19,3.1.0,59.954195185378616,
,,,C,D,d,v,R,D,g,R,i,,,,,5,19,119,9,1,0,1,0,,,,,1,20,56,3,,,,,,down,1.3677161083187457,1228.8750087915482,None,001,7,2019_Jun_05_1534,ACPT_experiment_5_30_19,3.1.0,59.954195185378616,
,,,C,D,d,v,L,D,y,L,y,,,,,5,19,119,9,1,0,1,0,,,,,1,21,57,32,,,,,,down,0.7672438852332562,1231.5270289156651,None,001,7,2019_Jun_05_1534,ACPT_experiment_5_30_19,3.1.0,59.954195185378616,
,,,C,D,d,v,L,G,g,L,c ,,,,,5,19,119,9,1,0,1,0,,,,,1,22,58,18,,,,,,up,0.8339968625118672,1233.5785674591689,None,001,7,2019_Jun_05_1534,ACPT_experiment_5_30_19,3.1.0,59.954195185378616,
,,,C,D,d,v,L,U,y,R,u,,,,,5,19,119,9,1,0,1,0,,,,,1,23,59,25,,,,,,down,0.700531658476848,1235.6968698467572,None,001,7,2019_Jun_05_1534,ACPT_experiment_5_30_19,3.1.0,59.954195185378616,
,,,C,D,d,v,R,G,y,L,y,,,,,5,19,119,9,1,0,1,0,,,,,1,24,60,28,,,,,,down,0.7839512973910132,1237.6816910319576,None,001,7,2019_Jun_05_1534,ACPT_experiment_5_30_19,3.1.0,59.954195185378616,
,,,C,D,d,v,L,G,g,R,c ,,,,,5,19,119,9,1,0,1,0,,,,,1,25,61,19,,,,,,up,0.9340412051169551,1239.749962645355,None,001,7,2019_Jun_05_1534,ACPT_experiment_5_30_19,3.1.0,59.954195185378616,
,,,C,D,d,v,R,D,g,L,i,,,,,5,19,119,9,1,0,1,0,,,,,1,26,62,2,,,,,,down,1.8680914659053087,1241.9683166200857,None,001,7,2019_Jun_05_1534,ACPT_experiment_5_30_19,3.1.0,59.954195185378616,
,,,C,D,d,v,R,U,g,L,u,,,,,5,19,119,9,1,0,1,0,,,,,1,27,63,10,,,,,,down,0.6671732811805668,1245.1207235723055,None,001,7,2019_Jun_05_1534,ACPT_experiment_5_30_19,3.1.0,59.954195185378616,
,,,C,D,d,v,L,D,g,L,i,,,,,5,19,119,9,1,0,1,0,,,,,1,28,64,14,,,,,,down,1.2843245419867344,1247.0722072082544,None,001,7,2019_Jun_05_1534,ACPT_experiment_5_30_19,3.1.0,59.954195185378616,
,,,C,D,d,v,R,U,g,R,u,,,,,5,19,119,9,1,0,1,0,,,,,1,29,65,11,,,,,,down,0.8506635241474214,1249.6241349947072,None,001,7,2019_Jun_05_1534,ACPT_experiment_5_30_19,3.1.0,59.954195185378616,
,,,C,D,d,v,R,G,g,L,c ,,,,,5,19,119,9,1,0,1,0,,,,,1,30,66,6,,,,,,up,0.8506288107396358,1251.7591306072345,None,001,7,2019_Jun_05_1534,ACPT_experiment_5_30_19,3.1.0,59.954195185378616,
,,,C,D,d,v,L,D,d,R,c ,,,,,5,19,119,9,1,0,1,0,,,,,1,31,67,13,,,,,,up,1.2342711286173653,1253.8940736968666,None,001,7,2019_Jun_05_1534,ACPT_experiment_5_30_19,3.1.0,59.954195185378616,
,,,C,D,d,v,R,U,d,L,u,,,,,5,19,119,9,1,0,1,0,,,,,1,32,68,8,,,,,,down,0.6304857371665094,1256.4326636865458,None,001,7,2019_Jun_05_1534,ACPT_experiment_5_30_19,3.1.0,59.954195185378616,
,,,C,D,d,v,R,G,g,R,c ,,,,,5,19,119,9,1,0,1,0,,,,,1,33,69,7,,,,,,up,0.6004495839069932,1258.3474664193063,None,001,7,2019_Jun_05_1534,ACPT_experiment_5_30_19,3.1.0,59.954195185378616,
,,,C,D,d,v,L,U,d,R,u,,,,,5,19,119,9,1,0,1,0,,,,,1,34,70,21,,,,,,down,1.6512730312142594,1260.2322148874637,None,001,7,2019_Jun_05_1534,ACPT_experiment_5_30_19,3.1.0,59.954195185378616,
,,,C,D,d,v,R,U,d,R,u,,,,,5,19,119,9,1,0,1,0,,,,,1,35,71,9,,,,,,down,0.9340396958382371,1263.1678076309731,None,001,7,2019_Jun_05_1534,ACPT_experiment_5_30_19,3.1.0,59.954195185378616,
,,,C,D,d,v,,,,,,,,,,5,19,119,9,2,0,2,0,0,0,0,0,,,,,,,,,,,,,,001,7,2019_Jun_05_1534,ACPT_experiment_5_30_19,3.1.0,59.954195185378616,
,,,C,D,d,v,R,G,y,R,y,,,,,5,19,119,9,2,0,2,0,,,,,0,0,0,29,,,,,,down,0.783677212398743,1284.5843745594793,None,001,7,2019_Jun_05_1534,ACPT_experiment_5_30_19,3.1.0,59.954195185378616,
,,,C,D,d,v,R,D,g,L,i,,,,,5,19,119,9,2,0,2,0,,,,,0,1,1,2,,,,,,down,1.1508686954789482,1286.6523766157206,None,001,7,2019_Jun_05_1534,ACPT_experiment_5_30_19,3.1.0,59.954195185378616,
,,,C,D,d,v,L,D,d,R,c ,,,,,5,19,119,9,2,0,2,0,,,,,0,2,2,13,,,,,,up,1.0174318658819175,1289.087565325351,None,001,7,2019_Jun_05_1534,ACPT_experiment_5_30_19,3.1.0,59.954195185378616,
,,,C,D,d,v,R,U,g,L,u,,,,,5,19,119,9,2,0,2,0,,,,,0,3,3,10,,,,,,down,0.9507407690257423,1291.3892939624934,None,001,7,2019_Jun_05_1534,ACPT_experiment_5_30_19,3.1.0,59.954195185378616,
,,,C,D,d,v,R,D,d,R,c ,,,,,5,19,119,9,2,0,2,0,,,,,0,4,4,1,,,,,,up,0.833973619621247,1293.624357160516,None,001,7,2019_Jun_05_1534,ACPT_experiment_5_30_19,3.1.0,59.954195185378616,
,,,C,D,d,v,L,U,d,L,u,,,,,5,19,119,9,2,0,2,0,,,,,0,5,5,20,,,,,,down,1.1341724519829768,1295.7426462664525,None,001,7,2019_Jun_05_1534,ACPT_experiment_5_30_19,3.1.0,59.954195185378616,
,,,C,D,d,v,L,G,y,R,y,,,,,5,19,119,9,2,0,2,0,,,,,0,6,6,35,,,,,,down,0.7338800745342269,1298.1611495993925,None,001,7,2019_Jun_05_1534,ACPT_experiment_5_30_19,3.1.0,59.954195185378616,
,,,C,D,d,v,L,D,y,R,y,,,,,5,19,119,9,2,0,2,0,,,,,0,7,7,33,,,,,,down,0.8506454128041696,1300.1793463676645,None,001,7,2019_Jun_05_1534,ACPT_experiment_5_30_19,3.1.0,59.954195185378616,
,,,C,D,d,v,R,U,d,R,u,,,,,5,19,119,9,2,0,2,0,,,,,0,8,8,9,,,,,,down,1.0341151295820055,1302.3143093797744,None,001,7,2019_Jun_05_1534,ACPT_experiment_5_30_19,3.1.0,59.954195185378616,
,,,C,D,d,v,L,U,g,R,u,,,,,5,19,119,9,2,0,2,0,,,,,0,9,9,23,,,,,,down,0.7005250176512163,1304.6327517680447,None,001,7,2019_Jun_05_1534,ACPT_experiment_5_30_19,3.1.0,59.954195185378616,
,,,C,D,d,v,L,U,y,L,u,,,,,5,19,119,9,2,0,2,0,,,,,0,10,10,24,,,,,,down,0.6171449218359157,1306.6175717458218,None,001,7,2019_Jun_05_1534,ACPT_experiment_5_30_19,3.1.0,59.954195185378616,
,,,C,D,d,v,R,G,g,R,c ,,,,,5,19,119,9,2,0,2,0,,,,,0,11,11,7,,,,,,up,1.317660581959899,1308.5190418133561,None,001,7,2019_Jun_05_1534,ACPT_experiment_5_30_19,3.1.0,59.954195185378616,
,,,C,D,d,v,R,D,g,R,i,,,,,5,19,119,9,2,0,2,0,,,,,0,12,12,3,,,,,,down,1.4010642225207448,1311.1210212020442,None,001,7,2019_Jun_05_1534,ACPT_experiment_5_30_19,3.1.0,59.954195185378616,
,,,C,D,d,v,R,G,g,L,c ,,,,,5,19,119,9,2,0,2,0,,,,,0,13,13,6,,,,,,up,1.150833378360403,1313.8064196259347,None,001,7,2019_Jun_05_1534,ACPT_experiment_5_30_19,3.1.0,59.954195185378616,
,,,C,D,d,v,R,D,d,L,c,,,,,5,19,119,9,2,0,2,0,,,,,0,14,14,0,,,,,,up,1.4010192460186772,1316.2416358044352,None,001,7,2019_Jun_05_1534,ACPT_experiment_5_30_19,3.1.0,59.954195185378616,
,,,C,D,d,v,R,G,d,R,i,,,,,5,19,119,9,2,0,2,0,,,,,0,15,15,5,,,,,,down,0.9673971675670145,1318.926972951615,None,001,7,2019_Jun_05_1534,ACPT_experiment_5_30_19,3.1.0,59.954195185378616,
,,,C,D,d,v,L,G,g,L,c ,,,,,5,19,119,9,2,0,2,0,,,,,0,16,16,18,,,,,,up,1.1341932800273753,1321.1786883221985,None,001,7,2019_Jun_05_1534,ACPT_experiment_5_30_19,3.1.0,59.954195185378616,
,,,C,D,d,v,R,D,y,R,y,,,,,5,19,119,9,2,0,2,0,,,,,0,17,17,27,,,,,,down,0.7338873190715276,1323.5971976922528,None,001,7,2019_Jun_05_1534,ACPT_experiment_5_30_19,3.1.0,59.954195185378616,
,,,C,D,d,v,L,U,y,R,u,,,,,5,19,119,9,2,0,2,0,,,,,0,18,18,25,,,,,,down,0.7172327316643532,1325.615399893928,None,001,7,2019_Jun_05_1534,ACPT_experiment_5_30_19,3.1.0,59.954195185378616,
,,,C,D,d,v,L,D,g,R,i,,,,,5,19,119,9,2,0,2,0,,,,,0,19,19,15,,,,,,down,1.300977318259811,1327.6169303024203,None,001,7,2019_Jun_05_1534,ACPT_experiment_5_30_19,3.1.0,59.954195185378616,
,,,C,D,d,v,L,U,g,L,u,,,,,5,19,119,9,2,0,2,0,,,,,0,20,20,22,,,,,,down,0.9674161844773153,1330.2022306533881,None,001,7,2019_Jun_05_1534,ACPT_experiment_5_30_19,3.1.0,59.954195185378616,
,,,C,D,d,v,R,G,d,L,i,,,,,5,19,119,9,2,0,2,0,,,,,0,21,21,4,,,,,,down,0.9507205446925582,1332.4539469295391,None,001,7,2019_Jun_05_1534,ACPT_experiment_5_30_19,3.1.0,59.954195185378616,
,,,C,D,d,v,R,U,y,R,u,,,,,5,19,119,9,2,0,2,0,,,,,0,22,22,31,,,,,,down,0.8673208282557425,1334.688985979104,None,001,7,2019_Jun_05_1534,ACPT_experiment_5_30_19,3.1.0,59.954195185378616,
,,,C,D,d,v,R,U,d,L,u,,,,,5,19,119,9,2,0,2,0,,,,,0,23,23,8,,,,,,down,0.9507169224239078,1336.8406228973863,None,001,7,2019_Jun_05_1534,ACPT_experiment_5_30_19,3.1.0,59.954195185378616,
,,,C,D,d,v,L,G,g,R,c ,,,,,5,19,119,9,2,0,2,0,,,,,0,24,24,19,,,,,,up,0.950723865105374,1339.0756616450958,None,001,7,2019_Jun_05_1534,ACPT_experiment_5_30_19,3.1.0,59.954195185378616,
,,,C,D,d,v,R,U,y,L,u,,,,,5,19,119,9,2,0,2,0,,,,,0,25,25,30,,,,,,down,0.9174017104955965,1341.3106964686808,None,001,7,2019_Jun_05_1534,ACPT_experiment_5_30_19,3.1.0,59.954195185378616,
,,,C,D,d,v,L,G,d,R,i,,,,,5,19,119,9,2,0,2,0,,,,,0,26,26,17,,,,,,down,1.1508741288821511,1343.5123714056908,None,001,7,2019_Jun_05_1534,ACPT_experiment_5_30_19,3.1.0,59.954195185378616,
,,,C,D,d,v,L,D,d,L,c ,,,,,5,19,119,9,2,0,2,0,,,,,0,27,27,12,,,,,,up,1.1675501480453931,1345.947565548724,None,001,7,2019_Jun_05_1534,ACPT_experiment_5_30_19,3.1.0,59.954195185378616,
,,,C,D,d,v,L,U,d,R,u,,,,,5,19,119,9,2,0,2,0,,,,,0,28,28,21,,,,,,down,0.9006921853479071,1348.3994139773085,None,001,7,2019_Jun_05_1534,ACPT_experiment_5_30_19,3.1.0,59.954195185378616,
,,,C,D,d,v,R,D,y,L,y,,,,,5,19,119,9,2,0,2,0,,,,,0,29,29,26,,,,,,down,1.2509510719046375,1350.5844261768075,None,001,7,2019_Jun_05_1534,ACPT_experiment_5_30_19,3.1.0,59.954195185378616,
,,,C,D,d,v,L,D,y,L,y,,,,,5,19,119,9,2,0,2,0,,,,,0,30,30,32,,,,,,down,0.6838499040550232,1353.1196948480174,None,001,7,2019_Jun_05_1534,ACPT_experiment_5_30_19,3.1.0,59.954195185378616,
,,,C,D,d,v,L,G,d,L,i,,,,,5,19,119,9,2,0,2,0,,,,,0,31,31,16,,,,,,down,1.1508786567178504,1355.0878620495218,None,001,7,2019_Jun_05_1534,ACPT_experiment_5_30_19,3.1.0,59.954195185378616,
,,,C,D,d,v,L,G,y,L,y,,,,,5,19,119,9,2,0,2,0,,,,,0,32,32,34,,,,,,down,0.6838761655026246,1357.5063539119446,None,001,7,2019_Jun_05_1534,ACPT_experiment_5_30_19,3.1.0,59.954195185378616,
,,,C,D,d,v,L,D,g,L,i,,,,,5,19,119,9,2,0,2,0,,,,,0,33,33,14,,,,,,down,2.8521688786149753,1359.4745401303594,None,001,7,2019_Jun_05_1534,ACPT_experiment_5_30_19,3.1.0,59.954195185378616,
,,,C,D,d,v,R,G,y,L,y,,,,,5,19,119,9,2,0,2,0,,,,,0,34,34,28,,,,,,down,0.7005223009496149,1363.6110238915785,None,001,7,2019_Jun_05_1534,ACPT_experiment_5_30_19,3.1.0,59.954195185378616,
,,,C,D,d,v,R,U,g,R,u,,,,,5,19,119,9,2,0,2,0,,,,,0,35,35,11,,,,,,down,1.18423431731253,1365.595867414102,None,001,7,2019_Jun_05_1534,ACPT_experiment_5_30_19,3.1.0,59.954195185378616,
,,,C,D,d,v,R,U,y,L,u,,,,,5,19,119,9,2,0,2,0,,,,,1,0,36,30,,,,,,down,0.8506378664114891,1368.064419028864,None,001,7,2019_Jun_05_1534,ACPT_experiment_5_30_19,3.1.0,59.954195185378616,
,,,C,D,d,v,L,D,d,R,c ,,,,,5,19,119,9,2,0,2,0,,,,,1,1,37,13,,,,,,up,1.4344135441456274,1370.2160622861165,None,001,7,2019_Jun_05_1534,ACPT_experiment_5_30_19,3.1.0,59.954195185378616,
,,,C,D,d,v,L,G,y,L,y,,,,,5,19,119,9,2,0,2,0,,,,,1,2,38,34,,,,,,down,0.6671944110807999,1372.9347952407015,None,001,7,2019_Jun_05_1534,ACPT_experiment_5_30_19,3.1.0,59.954195185378616,
,,,C,D,d,v,R,D,g,L,i,,,,,5,19,119,9,2,0,2,0,,,,,1,3,39,2,,,,,,down,1.6009576070809999,1374.9032326030742,None,001,7,2019_Jun_05_1534,ACPT_experiment_5_30_19,3.1.0,59.954195185378616,
,,,C,D,d,v,L,D,y,L,y,,,,,5,19,119,9,2,0,2,0,,,,,1,4,40,32,,,,,,down,0.6004447542154594,1377.7885002630674,None,001,7,2019_Jun_05_1534,ACPT_experiment_5_30_19,3.1.0,59.954195185378616,
,,,C,D,d,v,R,D,y,L,y,,,,,5,19,119,9,2,0,2,0,,,,,1,5,41,26,,,,,,down,0.7338939598971592,1379.673262918444,None,001,7,2019_Jun_05_1534,ACPT_experiment_5_30_19,3.1.0,59.954195185378616,
,,,C,D,d,v,L,G,d,L,i,,,,,5,19,119,9,2,0,2,0,,,,,1,6,42,16,,,,,,down,0.6504945453161781,1381.6914687423878,None,001,7,2019_Jun_05_1534,ACPT_experiment_5_30_19,3.1.0,59.954195185378616,
,,,C,D,d,v,R,G,g,L,c ,,,,,5,19,119,9,2,0,2,0,,,,,1,7,43,6,,,,,,up,1.3843821662435403,1383.6262787740193,None,001,7,2019_Jun_05_1534,ACPT_experiment_5_30_19,3.1.0,59.954195185378616,
,,,C,D,d,v,L,G,g,R,c ,,,,,5,19,119,9,2,0,2,0,,,,,1,8,44,19,,,,,,up,0.8673078484598591,1386.278312179788,None,001,7,2019_Jun_05_1534,ACPT_experiment_5_30_19,3.1.0,59.954195185378616,
,,,C,D,d,v,R,D,g,R,i,,,,,5,19,119,9,2,0,2,0,,,,,1,9,45,3,,,,,,down,1.0174357900059476,1388.429935816419,None,001,7,2019_Jun_05_1534,ACPT_experiment_5_30_19,3.1.0,59.954195185378616,
,,,C,D,d,v,R,G,g,R,c ,,,,,5,19,119,9,2,0,2,0,,,,,1,10,46,7,,,,,,up,0.7839250359434118,1390.73169131872,None,001,7,2019_Jun_05_1534,ACPT_experiment_5_30_19,3.1.0,59.954195185378616,
,,,C,D,d,v,R,D,d,L,c,,,,,5,19,119,9,2,0,2,0,,,,,1,11,47,0,,,,,,up,1.0841694485188782,1392.799936368815,None,001,7,2019_Jun_05_1534,ACPT_experiment_5_30_19,3.1.0,59.954195185378616,
,,,C,D,d,v,R,G,d,L,i,,,,,5,19,119,9,2,0,2,0,,,,,1,12,48,4,,,,,,up,1.1008336953086655,1395.1517268712869,None,001,7,2019_Jun_05_1534,ACPT_experiment_5_30_19,3.1.0,59.954195185378616,
,,,C,D,d,v,L,U,y,L,u,,,,,5,19,119,9,2,0,2,0,,,,,1,13,49,24,,,,,,down,0.5837744703112548,1397.5368772603338,None,001,7,2019_Jun_05_1534,ACPT_experiment_5_30_19,3.1.0,59.954195185378616,
,,,C,D,d,v,L,U,d,R,u,,,,,5,19,119,9,2,0,2,0,,,,,1,14,50,21,,,,,,down,0.9840997500332378,1399.404944577781,None,001,7,2019_Jun_05_1534,ACPT_experiment_5_30_19,3.1.0,59.954195185378616,
,,,C,D,d,v,R,U,d,L,u,,,,,5,19,119,9,2,0,2,0,,,,,1,15,51,8,,,,,,down,1.3510259019371915,1401.6733619271195,None,001,7,2019_Jun_05_1534,ACPT_experiment_5_30_19,3.1.0,59.954195185378616,
,,,C,D,d,v,R,D,d,R,c ,,,,,5,19,119,9,2,0,2,0,,,,,1,16,52,1,,,,,,up,1.8514290302491645,1404.2920040533186,None,001,7,2019_Jun_05_1534,ACPT_experiment_5_30_19,3.1.0,59.954195185378616,
,,,C,D,d,v,R,G,d,R,i,,,,,5,19,119,9,2,0,2,0,,,,,1,17,53,5,,,,,,down,0.8173024301499936,1407.4277461550373,None,001,7,2019_Jun_05_1534,ACPT_experiment_5_30_19,3.1.0,59.954195185378616,
,,,C,D,d,v,L,U,g,R,u,,,,,5,19,119,9,2,0,2,0,,,,,1,18,54,23,,,,,,down,1.000778184041792,1409.5293284525278,None,001,7,2019_Jun_05_1534,ACPT_experiment_5_30_19,3.1.0,59.954195185378616,
,,,C,D,d,v,L,U,g,L,u,,,,,5,19,119,9,2,0,2,0,,,,,1,19,55,22,,,,,,down,0.9507785009905092,1411.7977225589761,None,001,7,2019_Jun_05_1534,ACPT_experiment_5_30_19,3.1.0,59.954195185378616,
,,,C,D,d,v,R,G,y,R,y,,,,,5,19,119,9,2,0,2,0,,,,,1,20,56,29,,,,,,down,2.2350245604907286,1414.0494623798731,None,001,7,2019_Jun_05_1534,ACPT_experiment_5_30_19,3.1.0,59.954195185378616,
,,,C,D,d,v,R,G,y,L,y,,,,,5,19,119,9,2,0,2,0,,,,,1,21,57,28,,,,,,down,0.7338843005140916,1417.5854917274933,None,001,7,2019_Jun_05_1534,ACPT_experiment_5_30_19,3.1.0,59.954195185378616,
,,,C,D,d,v,L,D,g,R,i,,,,,5,19,119,9,2,0,2,0,,,,,1,22,58,15,,,,,,down,1.4177477880766673,1419.6036881939099,None,001,7,2019_Jun_05_1534,ACPT_experiment_5_30_19,3.1.0,59.954195185378616,
,,,C,D,d,v,L,D,y,R,y,,,,,5,19,119,9,2,0,2,0,,,,,1,23,59,33,,,,,,down,0.7503764895450331,1422.3225938099658,None,001,7,2019_Jun_05_1534,ACPT_experiment_5_30_19,3.1.0,59.954195185378616,
,,,C,D,d,v,L,G,g,L,c ,,,,,5,19,119,9,2,0,2,0,,,,,1,24,60,18,,,,,,up,1.0674695827538017,1424.374000140665,None,001,7,2019_Jun_05_1534,ACPT_experiment_5_30_19,3.1.0,59.954195185378616,
,,,C,D,d,v,R,U,g,R,u,,,,,5,19,119,9,2,0,2,0,,,,,1,25,61,11,,,,,,down,0.7672985211183914,1426.725761966844,None,001,7,2019_Jun_05_1534,ACPT_experiment_5_30_19,3.1.0,59.954195185378616,
,,,C,D,d,v,R,U,d,R,u,,,,,5,19,119,9,2,0,2,0,,,,,1,26,62,9,,,,,,down,0.9840680551824335,1428.777353033243,None,001,7,2019_Jun_05_1534,ACPT_experiment_5_30_19,3.1.0,59.954195185378616,
,,,C,D,d,v,R,U,g,L,u,,,,,5,19,119,9,2,0,2,0,,,,,1,27,63,10,,,,,,down,0.8506448090925005,1431.0457453285567,None,001,7,2019_Jun_05_1534,ACPT_experiment_5_30_19,3.1.0,59.954195185378616,
,,,C,D,d,v,L,D,d,L,c ,,,,,5,19,119,9,2,0,2,0,,,,,1,28,64,12,,,,,,up,1.0508750646349654,1433.1807044165416,None,001,7,2019_Jun_05_1534,ACPT_experiment_5_30_19,3.1.0,59.954195185378616,
,,,C,D,d,v,L,U,y,R,u,,,,,5,19,119,9,2,0,2,0,,,,,1,29,65,25,,,,,,down,0.9005635948119561,1435.5158234276864,None,001,7,2019_Jun_05_1534,ACPT_experiment_5_30_19,3.1.0,59.954195185378616,
,,,C,D,d,v,L,D,g,L,i,,,,,5,19,119,9,2,0,2,0,,,,,1,30,66,14,,,,,,down,1.1842237523624135,1437.7008202325437,None,001,7,2019_Jun_05_1534,ACPT_experiment_5_30_19,3.1.0,59.954195185378616,
,,,C,D,d,v,L,G,d,R,i,,,,,5,19,119,9,2,0,2,0,,,,,1,31,67,17,,,,,,down,0.7172348446542856,1440.1693383413212,None,001,7,2019_Jun_05_1534,ACPT_experiment_5_30_19,3.1.0,59.954195185378616,
,,,C,D,d,v,R,U,y,R,u,,,,,5,19,119,9,2,0,2,0,,,,,1,32,68,31,,,,,,down,0.9173531117248785,1442.1709028595096,None,001,7,2019_Jun_05_1534,ACPT_experiment_5_30_19,3.1.0,59.954195185378616,
,,,C,D,d,v,L,G,y,R,y,,,,,5,19,119,9,2,0,2,0,,,,,1,33,69,35,,,,,,down,0.8172997134483921,1444.3725494220826,None,001,7,2019_Jun_05_1534,ACPT_experiment_5_30_19,3.1.0,59.954195185378616,
,,,C,D,d,v,L,U,d,L,u,,,,,5,19,119,9,2,0,2,0,,,,,1,34,70,20,,,,,,down,1.1008342990203346,1446.4741727719502,None,001,7,2019_Jun_05_1534,ACPT_experiment_5_30_19,3.1.0,59.954195185378616,
,,,C,D,d,v,R,D,y,R,y,,,,,5,19,119,9,2,0,2,0,,,,,1,35,71,27,,,,,,down,0.867347089703344,1448.8760025005731,None,001,7,2019_Jun_05_1534,ACPT_experiment_5_30_19,3.1.0,59.954195185378616,
,,,C,D,d,v,,,,,,,,,,5,19,119,9,3,0,3,0,0,0,0,0,,,,,,,,,,,,,,001,7,2019_Jun_05_1534,ACPT_experiment_5_30_19,3.1.0,59.954195185378616,
,,,C,D,d,v,L,D,g,R,i,,,,,5,19,119,9,3,0,3,0,,,,,0,0,0,15,,,,,,down,1.9681593532559418,1453.5462260337881,None,001,7,2019_Jun_05_1534,ACPT_experiment_5_30_19,3.1.0,59.954195185378616,
,,,C,D,d,v,R,U,y,L,u,,,,,5,19,119,9,3,0,3,0,,,,,0,1,1,30,,,,,,down,0.6338058482128872,1456.7987096271754,None,001,7,2019_Jun_05_1534,ACPT_experiment_5_30_19,3.1.0,59.954195185378616,
,,,C,D,d,v,R,U,d,R,u,,,,,5,19,119,9,3,0,3,0,,,,,0,2,2,9,,,,,,down,0.8506426961025682,1458.7168330746936,None,001,7,2019_Jun_05_1534,ACPT_experiment_5_30_19,3.1.0,59.954195185378616,
,,,C,D,d,v,L,U,d,L,u,,,,,5,19,119,9,3,0,3,0,,,,,0,3,3,20,,,,,,down,0.6838499040550232,1460.8351149360929,None,001,7,2019_Jun_05_1534,ACPT_experiment_5_30_19,3.1.0,59.954195185378616,
,,,C,D,d,v,L,U,y,R,u,,,,,5,19,119,9,3,0,3,0,,,,,0,4,4,25,,,,,,down,0.583765112783567,1462.8032803264632,None,001,7,2019_Jun_05_1534,ACPT_experiment_5_30_19,3.1.0,59.954195185378616,
,,,C,D,d,v,L,U,y,L,u,,,,,5,19,119,9,3,0,3,0,,,,,0,5,5,24,,,,,,down,0.500359057377409,1464.688065017307,None,001,7,2019_Jun_05_1534,ACPT_experiment_5_30_19,3.1.0,59.954195185378616,
,,,C,D,d,v,L,D,d,L,c ,,,,,5,19,119,9,3,0,3,0,,,,,0,6,6,12,,,,,,up,1.0841769949115587,1466.472721751512,None,001,7,2019_Jun_05_1534,ACPT_experiment_5_30_19,3.1.0,59.954195185378616,
,,,C,D,d,v,R,U,d,L,u,,,,,5,19,119,9,3,0,3,0,,,,,0,7,7,8,,,,,,down,0.867323544957344,1468.84121272346,None,001,7,2019_Jun_05_1534,ACPT_experiment_5_30_19,3.1.0,59.954195185378616,
,,,C,D,d,v,R,D,d,R,c ,,,,,5,19,119,9,3,0,3,0,,,,,0,8,8,1,,,,,,up,1.2843423514741517,1470.99283575638,None,001,7,2019_Jun_05_1534,ACPT_experiment_5_30_19,3.1.0,59.954195185378616,
,,,C,D,d,v,L,D,y,R,y,,,,,5,19,119,9,3,0,3,0,,,,,0,9,9,33,,,,,,down,1.4344183738367065,1473.578159048382,None,001,7,2019_Jun_05_1534,ACPT_experiment_5_30_19,3.1.0,59.954195185378616,
,,,C,D,d,v,R,U,g,L,u,,,,,5,19,119,9,3,0,3,0,,,,,0,10,10,10,,,,,,down,0.75055518813042,1476.3302582285114,None,001,7,2019_Jun_05_1534,ACPT_experiment_5_30_19,3.1.0,59.954195185378616,
,,,C,D,d,v,L,U,d,R,u,,,,,5,19,119,9,3,0,3,0,,,,,0,11,11,21,,,,,,down,0.4336540751578468,1478.3651388641956,None,001,7,2019_Jun_05_1534,ACPT_experiment_5_30_19,3.1.0,59.954195185378616,
,,,C,D,d,v,L,D,g,L,i,,,,,5,19,119,9,3,0,3,0,,,,,0,12,12,14,,,,,,down,0.9841009574561213,1480.08309212546,None,001,7,2019_Jun_05_1534,ACPT_experiment_5_30_19,3.1.0,59.954195185378616,
,,,C,D,d,v,R,D,g,R,i,,,,,5,19,119,9,3,0,3,0,,,,,0,13,13,3,,,,,,down,0.93403758284785,1482.3515188323258,None,001,7,2019_Jun_05_1534,ACPT_experiment_5_30_19,3.1.0,59.954195185378616,
,,,C,D,d,v,R,G,y,R,y,,,,,5,19,119,9,3,0,3,0,,,,,0,14,14,29,,,,,,down,1.0674768272911024,1484.569871901489,None,001,7,2019_Jun_05_1534,ACPT_experiment_5_30_19,3.1.0,59.954195185378616,
,,,C,D,d,v,L,U,g,R,u,,,,,5,19,119,9,3,0,3,0,,,,,0,15,15,23,,,,,,down,0.8339621491040816,1486.9216657243737,None,001,7,2019_Jun_05_1534,ACPT_experiment_5_30_19,3.1.0,59.954195185378616,
,,,C,D,d,v,R,G,d,R,i,,,,,5,19,119,9,3,0,3,0,,,,,0,16,16,5,,,,,,down,0.9340357717137522,1489.0399469820618,None,001,7,2019_Jun_05_1534,ACPT_experiment_5_30_19,3.1.0,59.954195185378616,
,,,C,D,d,v,R,D,g,L,i,,,,,5,19,119,9,3,0,3,0,,,,,0,17,17,2,,,,,,down,0.8506460165158387,1491.2582967308122,None,001,7,2019_Jun_05_1534,ACPT_experiment_5_30_19,3.1.0,59.954195185378616,
,,,C,D,d,v,L,G,d,R,i,,,,,5,19,119,9,3,0,3,0,,,,,0,18,18,17,,,,,,down,1.2840338549299304,1493.4102077340872,None,001,7,2019_Jun_05_1534,ACPT_experiment_5_30_19,3.1.0,59.954195185378616,
,,,C,D,d,v,R,D,y,R,y,,,,,5,19,119,9,3,0,3,0,,,,,0,19,19,27,,,,,,down,0.800606488509402,1495.978562810591,None,001,7,2019_Jun_05_1534,ACPT_experiment_5_30_19,3.1.0,59.954195185378616,
,,,C,D,d,v,L,D,y,L,y,,,,,5,19,119,9,3,0,3,0,,,,,0,20,20,32,,,,,,down,1.050825258441364,1498.0634573165453,None,001,7,2019_Jun_05_1534,ACPT_experiment_5_30_19,3.1.0,59.954195185378616,
,,,C,D,d,v,L,G,g,L,c ,,,,,5,19,119,9,3,0,3,0,,,,,0,21,21,18,,,,,,up,1.034130222368276,1500.3986016835702,None,001,7,2019_Jun_05_1534,ACPT_experiment_5_30_19,3.1.0,59.954195185378616,
,,,C,D,d,v,R,G,d,L,i,,,,,5,19,119,9,3,0,3,0,,,,,0,22,22,4,,,,,,down,0.9507256762394718,1502.7170329031792,None,001,7,2019_Jun_05_1534,ACPT_experiment_5_30_19,3.1.0,59.954195185378616,
,,,C,D,d,v,L,G,g,R,c ,,,,,5,19,119,9,3,0,3,0,,,,,0,23,23,19,,,,,,up,1.1175426167451405,1504.952037843048,None,001,7,2019_Jun_05_1534,ACPT_experiment_5_30_19,3.1.0,59.954195185378616,
,,,C,D,d,v,R,D,y,L,y,,,,,5,19,119,9,3,0,3,0,,,,,0,24,24,26,,,,,,down,0.6171316401846525,1507.3538992665208,None,001,7,2019_Jun_05_1534,ACPT_experiment_5_30_19,3.1.0,59.954195185378616,
,,,C,D,d,v,R,D,d,L,c,,,,,5,19,119,9,3,0,3,0,,,,,0,25,25,0,,,,,,up,1.2843061287881028,1509.2553512227123,None,001,7,2019_Jun_05_1534,ACPT_experiment_5_30_19,3.1.0,59.954195185378616,
,,,C,D,d,v,L,D,d,R,c ,,,,,5,19,119,9,3,0,3,0,,,,,0,26,26,13,,,,,,up,1.484461825967628,1511.8239722341036,None,001,7,2019_Jun_05_1534,ACPT_experiment_5_30_19,3.1.0,59.954195185378616,
,,,C,D,d,v,L,G,d,L,i,,,,,5,19,119,9,3,0,3,0,,,,,0,27,27,16,,,,,,down,1.0341106017463062,1514.5927507538095,None,001,7,2019_Jun_05_1534,ACPT_experiment_5_30_19,3.1.0,59.954195185378616,
,,,C,D,d,v,L,U,g,L,u,,,,,5,19,119,9,3,0,3,0,,,,,0,28,28,22,,,,,,down,0.68384839477676,1516.911178954861,None,001,7,2019_Jun_05_1534,ACPT_experiment_5_30_19,3.1.0,59.954195185378616,
,,,C,D,d,v,R,G,g,R,c ,,,,,5,19,119,9,3,0,3,0,,,,,0,29,29,7,,,,,,up,1.3176835229942299,1518.8793277431669,None,001,7,2019_Jun_05_1534,ACPT_experiment_5_30_19,3.1.0,59.954195185378616,
,,,C,D,d,v,L,G,y,L,y,,,,,5,19,119,9,3,0,3,0,,,,,0,30,30,34,,,,,,down,0.6338158094517894,1521.481332487735,None,001,7,2019_Jun_05_1534,ACPT_experiment_5_30_19,3.1.0,59.954195185378616,
,,,C,D,d,v,R,U,y,R,u,,,,,5,19,119,9,3,0,3,0,,,,,0,31,31,31,,,,,,down,0.700531658476848,1523.399458350099,None,001,7,2019_Jun_05_1534,ACPT_experiment_5_30_19,3.1.0,59.954195185378616,
,,,C,D,d,v,R,U,g,R,u,,,,,5,19,119,9,3,0,3,0,,,,,0,32,32,11,,,,,,down,0.9504968696055585,1525.3845279625557,None,001,7,2019_Jun_05_1534,ACPT_experiment_5_30_19,3.1.0,59.954195185378616,
,,,C,D,d,v,R,G,g,L,c ,,,,,5,19,119,9,3,0,3,0,,,,,0,33,33,6,,,,,,up,0.9173603562621793,1527.6026633937458,None,001,7,2019_Jun_05_1534,ACPT_experiment_5_30_19,3.1.0,59.954195185378616,
,,,C,D,d,v,L,G,y,R,y,,,,,5,19,119,9,3,0,3,0,,,,,0,34,34,35,,,,,,down,0.7839380157392952,1529.804343764159,None,001,7,2019_Jun_05_1534,ACPT_experiment_5_30_19,3.1.0,59.954195185378616,
,,,C,D,d,v,R,G,y,L,y,,,,,5,19,119,9,3,0,3,0,,,,,0,35,35,28,,,,,,down,0.6502452124932461,1531.8895032994342,None,001,7,2019_Jun_05_1534,ACPT_experiment_5_30_19,3.1.0,59.954195185378616,
,,,C,D,d,v,R,G,g,R,c ,,,,,5,19,119,9,3,0,3,0,,,,,1,0,36,7,,,,,,up,0.8840056012345485,1533.8240691297892,None,001,7,2019_Jun_05_1534,ACPT_experiment_5_30_19,3.1.0,59.954195185378616,
,,,C,D,d,v,L,G,g,R,c ,,,,,5,19,119,9,3,0,3,0,,,,,1,1,37,19,,,,,,up,0.7505660549359163,1535.992388406205,None,001,7,2019_Jun_05_1534,ACPT_experiment_5_30_19,3.1.0,59.954195185378616,
,,,C,D,d,v,R,G,y,R,y,,,,,5,19,119,9,3,0,3,0,,,,,1,2,38,29,,,,,,down,0.7005343751784494,1538.0272747771478,None,001,7,2019_Jun_05_1534,ACPT_experiment_5_30_19,3.1.0,59.954195185378616,
,,,C,D,d,v,R,G,d,L,i,,,,,5,19,119,9,3,0,3,0,,,,,1,3,39,4,,,,,,down,1.2009335793654827,1539.995418735762,None,001,7,2019_Jun_05_1534,ACPT_experiment_5_30_19,3.1.0,59.954195185378616,
,,,C,D,d,v,L,U,g,L,u,,,,,5,19,119,9,3,0,3,0,,,,,1,4,40,22,,,,,,down,0.9674022991139282,1542.48066448103,None,001,7,2019_Jun_05_1534,ACPT_experiment_5_30_19,3.1.0,59.954195185378616,
,,,C,D,d,v,L,G,y,L,y,,,,,5,19,119,9,3,0,3,0,,,,,1,5,41,34,,,,,,down,0.967398374989898,1544.7323861905843,None,001,7,2019_Jun_05_1534,ACPT_experiment_5_30_19,3.1.0,59.954195185378616,
,,,C,D,d,v,L,G,y,R,y,,,,,5,19,119,9,3,0,3,0,,,,,1,6,42,35,,,,,,down,0.6838677135424405,1546.9841075982822,None,001,7,2019_Jun_05_1534,ACPT_experiment_5_30_19,3.1.0,59.954195185378616,
,,,C,D,d,v,R,D,g,L,i,,,,,5,19,119,9,3,0,3,0,,,,,1,7,43,2,,,,,,down,1.1008346008757144,1548.9522645366924,None,001,7,2019_Jun_05_1534,ACPT_experiment_5_30_19,3.1.0,59.954195185378616,
,,,C,D,d,v,R,U,g,R,u,,,,,5,19,119,9,3,0,3,0,,,,,1,8,44,11,,,,,,down,0.8673458822804605,1551.320729247193,None,001,7,2019_Jun_05_1534,ACPT_experiment_5_30_19,3.1.0,59.954195185378616,
,,,C,D,d,v,R,U,y,R,u,,,,,5,19,119,9,3,0,3,0,,,,,1,9,45,31,,,,,,down,0.6170199535686152,1553.4723770322817,None,001,7,2019_Jun_05_1534,ACPT_experiment_5_30_19,3.1.0,59.954195185378616,
,,,C,D,d,v,L,U,d,L,u,,,,,5,19,119,9,3,0,3,0,,,,,1,10,46,20,,,,,,down,0.9507202428371784,1555.373826573627,None,001,7,2019_Jun_05_1534,ACPT_experiment_5_30_19,3.1.0,59.954195185378616,
,,,C,D,d,v,L,D,d,L,c ,,,,,5,19,119,9,3,0,3,0,,,,,1,11,47,12,,,,,,up,1.067474110589501,1557.608863510202,None,001,7,2019_Jun_05_1534,ACPT_experiment_5_30_19,3.1.0,59.954195185378616,
,,,C,D,d,v,R,U,d,L,u,,,,,5,19,119,9,3,0,3,0,,,,,1,12,48,8,,,,,,down,1.1341818095106646,1559.9606678980372,None,001,7,2019_Jun_05_1534,ACPT_experiment_5_30_19,3.1.0,59.954195185378616,
,,,C,D,d,v,L,D,g,R,i,,,,,5,19,119,9,3,0,3,0,,,,,1,13,49,15,,,,,,down,1.3176675246413652,1562.379163684584,None,001,7,2019_Jun_05_1534,ACPT_experiment_5_30_19,3.1.0,59.954195185378616,
,,,C,D,d,v,R,U,d,R,u,,,,,5,19,119,9,3,0,3,0,,,,,1,14,50,9,,,,,,down,0.900681318541956,1564.9811479029631,None,001,7,2019_Jun_05_1534,ACPT_experiment_5_30_19,3.1.0,59.954195185378616,
,,,C,D,d,v,L,D,d,R,c ,,,,,5,19,119,9,3,0,3,0,,,,,1,15,51,13,,,,,,up,1.1008255452038611,1567.1661471226662,None,001,7,2019_Jun_05_1534,ACPT_experiment_5_30_19,3.1.0,59.954195185378616,
,,,C,D,d,v,R,D,g,R,i,,,,,5,19,119,9,3,0,3,0,,,,,1,16,52,3,,,,,,down,0.8673413544447612,1569.551273966967,None,001,7,2019_Jun_05_1534,ACPT_experiment_5_30_19,3.1.0,59.954195185378616,
,,,C,D,d,v,L,G,d,R,i,,,,,5,19,119,9,3,0,3,0,,,,,1,17,53,17,,,,,,down,1.384383373665969,1571.7029374485528,None,001,7,2019_Jun_05_1534,ACPT_experiment_5_30_19,3.1.0,59.954195185378616,
,,,C,D,d,v,L,U,d,R,u,,,,,5,19,119,9,3,0,3,0,,,,,1,18,54,21,,,,,,down,1.1175199775657347,1574.3716332899771,None,001,7,2019_Jun_05_1534,ACPT_experiment_5_30_19,3.1.0,59.954195185378616,
,,,C,D,d,v,L,U,g,R,u,,,,,5,19,119,9,3,0,3,0,,,,,1,19,55,23,,,,,,down,1.184256956491481,1576.7567655676808,None,001,7,2019_Jun_05_1534,ACPT_experiment_5_30_19,3.1.0,59.954195185378616,
,,,C,D,d,v,R,D,y,R,y,,,,,5,19,119,9,3,0,3,0,,,,,1,20,56,27,,,,,,down,0.9671740961912292,1579.2421975579273,None,001,7,2019_Jun_05_1534,ACPT_experiment_5_30_19,3.1.0,59.954195185378616,
,,,C,D,d,v,R,U,y,L,u,,,,,5,19,119,9,3,0,3,0,,,,,1,21,57,30,,,,,,down,0.8673163004200433,1581.5104102490886,None,001,7,2019_Jun_05_1534,ACPT_experiment_5_30_19,3.1.0,59.954195185378616,
,,,C,D,d,v,R,D,d,R,c ,,,,,5,19,119,9,3,0,3,0,,,,,1,22,58,1,,,,,,up,1.2676488246797817,1583.6620257356149,None,001,7,2019_Jun_05_1534,ACPT_experiment_5_30_19,3.1.0,59.954195185378616,
,,,C,D,d,v,L,D,y,R,y,,,,,5,19,119,9,3,0,3,0,,,,,1,23,59,33,,,,,,down,1.0174388085633836,1586.213993065167,None,001,7,2019_Jun_05_1534,ACPT_experiment_5_30_19,3.1.0,59.954195185378616,
,,,C,D,d,v,L,D,g,L,i,,,,,5,19,119,9,3,0,3,0,,,,,1,24,60,14,,,,,,down,0.9674016954027138,1588.5157449452,None,001,7,2019_Jun_05_1534,ACPT_experiment_5_30_19,3.1.0,59.954195185378616,
,,,C,D,d,v,R,G,g,L,c ,,,,,5,19,119,9,3,0,3,0,,,,,1,25,61,6,,,,,,up,0.8673256579472763,1590.7674633343408,None,001,7,2019_Jun_05_1534,ACPT_experiment_5_30_19,3.1.0,59.954195185378616,
,,,C,D,d,v,L,U,y,R,u,,,,,5,19,119,9,3,0,3,0,,,,,1,26,62,25,,,,,,down,0.667162112519236,1592.9191068934492,None,001,7,2019_Jun_05_1534,ACPT_experiment_5_30_19,3.1.0,59.954195185378616,
,,,C,D,d,v,R,U,g,L,u,,,,,5,19,119,9,3,0,3,0,,,,,1,27,63,10,,,,,,down,0.8172788854039936,1594.870589020119,None,001,7,2019_Jun_05_1534,ACPT_experiment_5_30_19,3.1.0,59.954195185378616,
,,,C,D,d,v,R,D,d,L,c,,,,,5,19,119,9,3,0,3,0,,,,,1,28,64,0,,,,,,up,1.2676445986994622,1596.9721731287436,None,001,7,2019_Jun_05_1534,ACPT_experiment_5_30_19,3.1.0,59.954195185378616,
,,,C,D,d,v,R,D,y,L,y,,,,,5,19,119,9,3,0,3,0,,,,,1,29,65,26,,,,,,down,0.6171497515274496,1599.5074433092323,None,001,7,2019_Jun_05_1534,ACPT_experiment_5_30_19,3.1.0,59.954195185378616,
,,,C,D,d,v,R,G,y,L,y,,,,,5,19,119,9,3,0,3,0,,,,,1,30,66,28,,,,,,down,0.7173338533298192,1601.4089079433638,None,001,7,2019_Jun_05_1534,ACPT_experiment_5_30_19,3.1.0,59.954195185378616,
,,,C,D,d,v,L,D,y,L,y,,,,,5,19,119,9,3,0,3,0,,,,,1,31,67,32,,,,,,down,0.8172882429312267,1603.4104280887614,None,001,7,2019_Jun_05_1534,ACPT_experiment_5_30_19,3.1.0,59.954195185378616,
,,,C,D,d,v,L,G,d,L,i,,,,,5,19,119,9,3,0,3,0,,,,,1,32,68,16,,,,,,down,1.1842258653523459,1605.5120393644006,None,001,7,2019_Jun_05_1534,ACPT_experiment_5_30_19,3.1.0,59.954195185378616,
,,,C,D,d,v,L,U,y,L,u,,,,,5,19,119,9,3,0,3,0,,,,,1,33,69,24,,,,,,down,0.5504136781692068,1607.9805819234912,None,001,7,2019_Jun_05_1534,ACPT_experiment_5_30_19,3.1.0,59.954195185378616,
,,,C,D,d,v,L,G,g,L,c ,,,,,5,19,119,9,3,0,3,0,,,,,1,34,70,18,,,,,,up,0.8172767724136065,1609.8153198417917,None,001,7,2019_Jun_05_1534,ACPT_experiment_5_30_19,3.1.0,59.954195185378616,
,,,C,D,d,v,R,G,d,R,i,,,,,5,19,119,9,3,0,3,0,,,,,1,35,71,5,,,,,,down,1.0674780347139858,1611.9169142135106,None,001,7,2019_Jun_05_1534,ACPT_experiment_5_30_19,3.1.0,59.954195185378616,
,,,C,D,d,v,,,,,,,,,,5,19,119,9,4,0,4,0,0,0,0,0,,,,,,,,,,,,,,001,7,2019_Jun_05_1534,ACPT_experiment_5_30_19,3.1.0,59.954195185378616,
,,,C,D,d,v,R,G,g,R,c ,,,,,5,19,119,9,4,0,4,0,,,,,0,0,0,7,,,,,,up,0.8003339127958498,1638.0871288419821,None,001,7,2019_Jun_05_1534,ACPT_experiment_5_30_19,3.1.0,59.954195185378616,
,,,C,D,d,v,L,G,g,L,c ,,,,,5,19,119,9,4,0,4,0,,,,,0,1,1,18,,,,,,up,0.6838432632293916,1640.171783674496,None,001,7,2019_Jun_05_1534,ACPT_experiment_5_30_19,3.1.0,59.954195185378616,
,,,C,D,d,v,R,G,y,L,y,,,,,5,19,119,9,4,0,4,0,,,,,0,2,2,28,,,,,,down,0.6003261249184106,1642.1399457444536,None,001,7,2019_Jun_05_1534,ACPT_experiment_5_30_19,3.1.0,59.954195185378616,
,,,C,D,d,v,L,D,y,L,y,,,,,5,19,119,9,4,0,4,0,,,,,0,3,3,32,,,,,,down,0.6838471873538765,1644.0247189647798,None,001,7,2019_Jun_05_1534,ACPT_experiment_5_30_19,3.1.0,59.954195185378616,
,,,C,D,d,v,R,D,d,R,c ,,,,,5,19,119,9,4,0,4,0,,,,,0,4,4,1,,,,,,up,1.117530542516306,1645.9928641308175,None,001,7,2019_Jun_05_1534,ACPT_experiment_5_30_19,3.1.0,59.954195185378616,
,,,C,D,d,v,R,G,g,L,c ,,,,,5,19,119,9,4,0,4,0,,,,,0,5,5,6,,,,,,up,1.0674837699725686,1648.394713178206,None,001,7,2019_Jun_05_1534,ACPT_experiment_5_30_19,3.1.0,59.954195185378616,
,,,C,D,d,v,L,U,g,L,u,,,,,5,19,119,9,4,0,4,0,,,,,0,6,6,22,,,,,,down,1.167551959179491,1650.7465073029466,None,001,7,2019_Jun_05_1534,ACPT_experiment_5_30_19,3.1.0,59.954195185378616,
,,,C,D,d,v,R,U,d,L,u,,,,,5,19,119,9,4,0,4,0,,,,,0,7,7,8,,,,,,down,1.8847692962021938,1653.1983753521527,None,001,7,2019_Jun_05_1534,ACPT_experiment_5_30_19,3.1.0,59.954195185378616,
,,,C,D,d,v,R,U,g,R,u,,,,,5,19,119,9,4,0,4,0,,,,,0,8,8,11,,,,,,down,0.5337765983940699,1656.3507753616914,None,001,7,2019_Jun_05_1534,ACPT_experiment_5_30_19,3.1.0,59.954195185378616,
,,,C,D,d,v,R,U,y,L,u,,,,,5,19,119,9,4,0,4,0,,,,,0,9,9,30,,,,,,down,0.5003747538744392,1658.152153393417,None,001,7,2019_Jun_05_1534,ACPT_experiment_5_30_19,3.1.0,59.954195185378616,
,,,C,D,d,v,R,G,y,R,y,,,,,5,19,119,9,4,0,4,0,,,,,0,10,10,29,,,,,,down,0.850638771978538,1659.920172444135,None,001,7,2019_Jun_05_1534,ACPT_experiment_5_30_19,3.1.0,59.954195185378616,
,,,C,D,d,v,R,D,g,R,i,,,,,5,19,119,9,4,0,4,0,,,,,0,11,11,3,,,,,,down,1.0505427214889096,1662.088730488424,None,001,7,2019_Jun_05_1534,ACPT_experiment_5_30_19,3.1.0,59.954195185378616,
,,,C,D,d,v,L,U,y,L,u,,,,,5,19,119,9,4,0,4,0,,,,,0,12,12,24,,,,,,down,0.7672287924474404,1664.4402870527142,None,001,7,2019_Jun_05_1534,ACPT_experiment_5_30_19,3.1.0,59.954195185378616,
,,,C,D,d,v,R,D,y,R,y,,,,,5,19,119,9,4,0,4,0,,,,,0,13,13,27,,,,,,down,0.8172837150950727,1666.5085191230128,None,001,7,2019_Jun_05_1534,ACPT_experiment_5_30_19,3.1.0,59.954195185378616,
,,,C,D,d,v,L,D,g,R,i,,,,,5,19,119,9,4,0,4,0,,,,,0,14,14,15,,,,,,down,2.3351111628962826,1668.610120739269,None,001,7,2019_Jun_05_1534,ACPT_experiment_5_30_19,3.1.0,59.954195185378616,
,,,C,D,d,v,L,D,d,R,c ,,,,,5,19,119,9,4,0,4,0,,,,,0,15,15,13,,,,,,up,1.0841552613001113,1672.2128686526157,None,001,7,2019_Jun_05_1534,ACPT_experiment_5_30_19,3.1.0,59.954195185378616,
,,,C,D,d,v,R,G,d,R,i,,,,,5,19,119,9,4,0,4,0,,,,,0,16,16,5,,,,,,down,0.8172873373641778,1674.5813384946637,None,001,7,2019_Jun_05_1534,ACPT_experiment_5_30_19,3.1.0,59.954195185378616,
,,,C,D,d,v,L,D,d,L,c ,,,,,5,19,119,9,4,0,4,0,,,,,0,17,17,12,,,,,,up,1.2342874288260646,1676.6829395072086,None,001,7,2019_Jun_05_1534,ACPT_experiment_5_30_19,3.1.0,59.954195185378616,
,,,C,D,d,v,R,U,g,L,u,,,,,5,19,119,9,4,0,4,0,,,,,0,18,18,10,,,,,,down,0.9173576395610326,1679.201530649977,None,001,7,2019_Jun_05_1534,ACPT_experiment_5_30_19,3.1.0,59.954195185378616,
,,,C,D,d,v,R,G,d,L,i,,,,,5,19,119,9,4,0,4,0,,,,,0,19,19,4,,,,,,down,1.1508723177475986,1681.4032001535843,None,001,7,2019_Jun_05_1534,ACPT_experiment_5_30_19,3.1.0,59.954195185378616,
,,,C,D,d,v,R,U,d,R,u,,,,,5,19,119,9,4,0,4,0,,,,,0,20,20,9,,,,,,down,1.3843866940792395,1683.8383921836275,None,001,7,2019_Jun_05_1534,ACPT_experiment_5_30_19,3.1.0,59.954195185378616,
,,,C,D,d,v,L,G,d,R,i,,,,,5,19,119,9,4,0,4,0,,,,,0,21,21,17,,,,,,down,1.4510877521743168,1686.5070928547434,None,001,7,2019_Jun_05_1534,ACPT_experiment_5_30_19,3.1.0,59.954195185378616,
,,,C,D,d,v,R,D,d,L,c,,,,,5,19,119,9,4,0,4,0,,,,,0,22,22,0,,,,,,up,1.8347524073751629,1689.2425093748843,None,001,7,2019_Jun_05_1534,ACPT_experiment_5_30_19,3.1.0,59.954195185378616,
,,,C,D,d,v,R,U,y,R,u,,,,,5,19,119,9,4,0,4,0,,,,,0,23,23,31,,,,,,down,1.250940506954521,1692.3615564405295,None,001,7,2019_Jun_05_1534,ACPT_experiment_5_30_19,3.1.0,59.954195185378616,
,,,C,D,d,v,L,G,y,R,y,,,,,5,19,119,9,4,0,4,0,,,,,0,24,24,35,,,,,,down,1.267663615609763,1694.8968223950383,None,001,7,2019_Jun_05_1534,ACPT_experiment_5_30_19,3.1.0,59.954195185378616,
,,,C,D,d,v,L,D,y,R,y,,,,,5,19,119,9,4,0,4,0,,,,,0,25,25,33,,,,,,down,1.117511827461385,1697.4487679909785,None,001,7,2019_Jun_05_1534,ACPT_experiment_5_30_19,3.1.0,59.954195185378616,
,,,C,D,d,v,L,U,d,L,u,,,,,5,19,119,9,4,0,4,0,,,,,0,26,26,20,,,,,,down,1.317666920929696,1699.850596512178,None,001,7,2019_Jun_05_1534,ACPT_experiment_5_30_19,3.1.0,59.954195185378616,
,,,C,D,d,v,L,G,d,L,i,,,,,5,19,119,9,4,0,4,0,,,,,0,27,27,16,,,,,,down,1.4177426565297537,1702.452582239836,None,001,7,2019_Jun_05_1534,ACPT_experiment_5_30_19,3.1.0,59.954195185378616,
,,,C,D,d,v,L,U,g,R,u,,,,,5,19,119,9,4,0,4,0,,,,,0,28,28,23,,,,,,down,0.9340460348084889,1705.1546367604124,None,001,7,2019_Jun_05_1534,ACPT_experiment_5_30_19,3.1.0,59.954195185378616,
,,,C,D,d,v,L,G,g,R,c ,,,,,5,19,119,9,4,0,4,0,,,,,0,29,29,19,,,,,,up,0.917358846983916,1707.3730009982369,None,001,7,2019_Jun_05_1534,ACPT_experiment_5_30_19,3.1.0,59.954195185378616,
,,,C,D,d,v,R,D,g,L,i,,,,,5,19,119,9,4,0,4,0,,,,,0,30,30,2,,,,,,down,0.934040601405286,1709.5746732185457,None,001,7,2019_Jun_05_1534,ACPT_experiment_5_30_19,3.1.0,59.954195185378616,
,,,C,D,d,v,L,G,y,L,y,,,,,5,19,119,9,4,0,4,0,,,,,0,31,31,34,,,,,,down,0.6504776413962645,1711.7930365508037,None,001,7,2019_Jun_05_1534,ACPT_experiment_5_30_19,3.1.0,59.954195185378616,
,,,C,D,d,v,L,U,y,R,u,,,,,5,19,119,9,4,0,4,0,,,,,0,32,32,25,,,,,,down,0.8172755649911778,1713.7278483935693,None,001,7,2019_Jun_05_1534,ACPT_experiment_5_30_19,3.1.0,59.954195185378616,
,,,C,D,d,v,L,D,g,L,i,,,,,5,19,119,9,4,0,4,0,,,,,0,33,33,14,,,,,,down,1.4177239414748328,1715.8294424634328,None,001,7,2019_Jun_05_1534,ACPT_experiment_5_30_19,3.1.0,59.954195185378616,
,,,C,D,d,v,R,D,y,L,y,,,,,5,19,119,9,4,0,4,0,,,,,0,34,34,26,,,,,,down,0.683842357661888,1718.5314960784417,None,001,7,2019_Jun_05_1534,ACPT_experiment_5_30_19,3.1.0,59.954195185378616,
,,,C,D,d,v,L,U,d,R,u,,,,,5,19,119,9,4,0,4,0,,,,,0,35,35,21,,,,,,down,1.2843034120865013,1720.4996681096377,None,001,7,2019_Jun_05_1534,ACPT_experiment_5_30_19,3.1.0,59.954195185378616,
,,,C,D,d,v,L,D,y,L,y,,,,,5,19,119,9,4,0,4,0,,,,,1,0,36,32,,,,,,down,0.8673214319674116,1723.068292139587,None,001,7,2019_Jun_05_1534,ACPT_experiment_5_30_19,3.1.0,59.954195185378616,
,,,C,D,d,v,R,D,d,R,c ,,,,,5,19,119,9,4,0,4,0,,,,,1,1,37,1,,,,,,up,1.1675516573236564,1725.2199341894166,None,001,7,2019_Jun_05_1534,ACPT_experiment_5_30_19,3.1.0,59.954195185378616,
,,,C,D,d,v,R,D,y,R,y,,,,,5,19,119,9,4,0,4,0,,,,,1,2,38,27,,,,,,down,0.6004716193742752,1727.6550960338877,None,001,7,2019_Jun_05_1534,ACPT_experiment_5_30_19,3.1.0,59.954195185378616,
,,,C,D,d,v,L,G,d,R,i,,,,,5,19,119,9,4,0,4,0,,,,,1,3,39,17,,,,,,down,0.9840746960089746,1729.5398915915375,None,001,7,2019_Jun_05_1534,ACPT_experiment_5_30_19,3.1.0,59.954195185378616,
,,,C,D,d,v,L,G,y,L,y,,,,,5,19,119,9,4,0,4,0,,,,,1,4,40,34,,,,,,down,1.1842319024667631,1731.8082838868513,None,001,7,2019_Jun_05_1534,ACPT_experiment_5_30_19,3.1.0,59.954195185378616,
,,,C,D,d,v,L,D,d,R,c ,,,,,5,19,119,9,4,0,4,0,,,,,1,5,41,13,,,,,,up,2.285074049735613,1734.2768291626435,None,001,7,2019_Jun_05_1534,ACPT_experiment_5_30_19,3.1.0,59.954195185378616,
,,,C,D,d,v,L,U,y,L,u,,,,,5,19,119,9,4,0,4,0,,,,,1,6,42,24,,,,,,down,1.2175830352257435,1737.8462223209626,None,001,7,2019_Jun_05_1534,ACPT_experiment_5_30_19,3.1.0,59.954195185378616,
,,,C,D,d,v,L,D,y,R,y,,,,,5,19,119,9,4,0,4,0,,,,,1,7,43,33,,,,,,down,0.7339147879415577,1740.3481286907522,None,001,7,2019_Jun_05_1534,ACPT_experiment_5_30_19,3.1.0,59.954195185378616,
,,,C,D,d,v,L,U,g,L,u,,,,,5,19,119,9,4,0,4,0,,,,,1,8,44,22,,,,,,down,0.8339645639498485,1742.3663296850045,None,001,7,2019_Jun_05_1534,ACPT_experiment_5_30_19,3.1.0,59.954195185378616,
,,,C,D,d,v,R,G,d,L,i,,,,,5,19,119,9,4,0,4,0,,,,,1,9,45,4,,,,,,down,2.1182703908821168,1744.484614866817,None,001,7,2019_Jun_05_1534,ACPT_experiment_5_30_19,3.1.0,59.954195185378616,
,,,C,D,d,v,L,D,d,L,c ,,,,,5,19,119,9,4,0,4,0,,,,,1,10,46,12,,,,,,up,1.7680042597876309,1747.8872067811285,None,001,7,2019_Jun_05_1534,ACPT_experiment_5_30_19,3.1.0,59.954195185378616,
,,,C,D,d,v,R,G,g,L,c ,,,,,5,19,119,9,4,0,4,0,,,,,1,11,47,6,,,,,,up,1.2341540085985798,1750.9395307532118,None,001,7,2019_Jun_05_1534,ACPT_experiment_5_30_19,3.1.0,59.954195185378616,
,,,C,D,d,v,R,D,d,L,c,,,,,5,19,119,9,4,0,4,0,,,,,1,12,48,0,,,,,,up,0.9006804129749071,1753.4581179718557,None,001,7,2019_Jun_05_1534,ACPT_experiment_5_30_19,3.1.0,59.954195185378616,
,,,C,D,d,v,R,U,g,L,u,,,,,5,19,119,9,4,0,4,0,,,,,1,13,49,10,,,,,,down,0.8006076959322854,1755.6431159841359,None,001,7,2019_Jun_05_1534,ACPT_experiment_5_30_19,3.1.0,59.954195185378616,
,,,C,D,d,v,L,G,g,R,c ,,,,,5,19,119,9,4,0,4,0,,,,,1,14,50,19,,,,,,up,1.084183635737645,1757.728036449682,None,001,7,2019_Jun_05_1534,ACPT_experiment_5_30_19,3.1.0,59.954195185378616,
,,,C,D,d,v,L,G,d,L,i,,,,,5,19,119,9,4,0,4,0,,,,,1,15,51,16,,,,,,down,0.9674004879798304,1760.0798275558654,None,001,7,2019_Jun_05_1534,ACPT_experiment_5_30_19,3.1.0,59.954195185378616,
,,,C,D,d,v,L,U,d,L,u,,,,,5,19,119,9,4,0,4,0,,,,,1,16,52,20,,,,,,down,1.3844123518151719,1762.3315444357277,None,001,7,2019_Jun_05_1534,ACPT_experiment_5_30_19,3.1.0,59.954195185378616,
,,,C,D,d,v,L,U,y,R,u,,,,,5,19,119,9,4,0,4,0,,,,,1,17,53,25,,,,,,down,0.6171298290500999,1765.0002442012765,None,001,7,2019_Jun_05_1534,ACPT_experiment_5_30_19,3.1.0,59.954195185378616,
,,,C,D,d,v,L,G,y,R,y,,,,,5,19,119,9,4,0,4,0,,,,,1,18,54,35,,,,,,down,0.8005986402604321,1766.9016946481888,None,001,7,2019_Jun_05_1534,ACPT_experiment_5_30_19,3.1.0,59.954195185378616,
,,,C,D,d,v,L,G,g,L,c ,,,,,5,19,119,9,4,0,4,0,,,,,1,19,55,18,,,,,,up,0.8673268653701598,1768.9866142081678,None,001,7,2019_Jun_05_1534,ACPT_experiment_5_30_19,3.1.0,59.954195185378616,
,,,C,D,d,v,R,D,g,R,i,,,,,5,19,119,9,4,0,4,0,,,,,1,20,56,3,,,,,,down,1.167549544333724,1771.138258974699,None,001,7,2019_Jun_05_1534,ACPT_experiment_5_30_19,3.1.0,59.954195185378616,
,,,C,D,d,v,L,D,g,L,i,,,,,5,19,119,9,4,0,4,0,,,,,1,21,57,14,,,,,,down,1.3176916730985795,1773.5734193098915,None,001,7,2019_Jun_05_1534,ACPT_experiment_5_30_19,3.1.0,59.954195185378616,
,,,C,D,d,v,R,G,y,R,y,,,,,5,19,119,9,4,0,4,0,,,,,1,22,58,29,,,,,,down,1.017440317841647,1776.17542616745,None,001,7,2019_Jun_05_1534,ACPT_experiment_5_30_19,3.1.0,59.954195185378616,
,,,C,D,d,v,L,U,d,R,u,,,,,5,19,119,9,4,0,4,0,,,,,1,23,59,21,,,,,,down,0.8339663750844011,1778.4771807641841,None,001,7,2019_Jun_05_1534,ACPT_experiment_5_30_19,3.1.0,59.954195185378616,
,,,C,D,d,v,R,D,g,L,i,,,,,5,19,119,9,4,0,4,0,,,,,1,24,60,2,,,,,,down,0.8006016588183229,1780.5954656441409,None,001,7,2019_Jun_05_1534,ACPT_experiment_5_30_19,3.1.0,59.954195185378616,
,,,C,D,d,v,R,U,y,L,u,,,,,5,19,119,9,4,0,4,0,,,,,1,25,61,30,,,,,,down,1.4177411472510357,1782.6803864115423,None,001,7,2019_Jun_05_1534,ACPT_experiment_5_30_19,3.1.0,59.954195185378616,
,,,C,D,d,v,L,U,g,R,u,,,,,5,19,119,9,4,0,4,0,,,,,1,26,62,23,,,,,,down,0.6838348112692074,1785.38245210078,None,001,7,2019_Jun_05_1534,ACPT_experiment_5_30_19,3.1.0,59.954195185378616,
,,,C,D,d,v,R,G,g,R,c ,,,,,5,19,119,9,4,0,4,0,,,,,1,27,63,7,,,,,,up,0.8006031680965862,1787.3506108503248,None,001,7,2019_Jun_05_1534,ACPT_experiment_5_30_19,3.1.0,59.954195185378616,
,,,C,D,d,v,L,D,g,R,i,,,,,5,19,119,9,4,0,4,0,,,,,1,28,64,15,,,,,,down,1.351025600081357,1789.4355346362836,None,001,7,2019_Jun_05_1534,ACPT_experiment_5_30_19,3.1.0,59.954195185378616,
,,,C,D,d,v,R,U,g,R,u,,,,,5,19,119,9,4,0,4,0,,,,,1,29,65,11,,,,,,down,0.6171280179155474,1792.0708736096904,None,001,7,2019_Jun_05_1534,ACPT_experiment_5_30_19,3.1.0,59.954195185378616,
,,,C,D,d,v,R,D,y,L,y,,,,,5,19,119,9,4,0,4,0,,,,,1,30,66,26,,,,,,down,0.7505699790604012,1793.9723222454686,None,001,7,2019_Jun_05_1534,ACPT_experiment_5_30_19,3.1.0,59.954195185378616,
,,,C,D,d,v,R,U,y,R,u,,,,,5,19,119,9,4,0,4,0,,,,,1,31,67,31,,,,,,down,0.6838489984879743,1796.00721012569,None,001,7,2019_Jun_05_1534,ACPT_experiment_5_30_19,3.1.0,59.954195185378616,
,,,C,D,d,v,R,G,d,R,i,,,,,5,19,119,9,4,0,4,0,,,,,1,32,68,5,,,,,,down,1.2676198465305788,1797.9753761197717,None,001,7,2019_Jun_05_1534,ACPT_experiment_5_30_19,3.1.0,59.954195185378616,
,,,C,D,d,v,R,G,y,L,y,,,,,5,19,119,9,4,0,4,0,,,,,1,33,69,28,,,,,,down,0.6838764673580044,1800.5106173221116,None,001,7,2019_Jun_05_1534,ACPT_experiment_5_30_19,3.1.0,59.954195185378616,
,,,C,D,d,v,R,U,d,R,u,,,,,5,19,119,9,4,0,4,0,,,,,1,34,70,9,,,,,,down,0.7172122054757892,1802.4788047479492,None,001,7,2019_Jun_05_1534,ACPT_experiment_5_30_19,3.1.0,59.954195185378616,
,,,C,D,d,v,R,U,d,L,u,,,,,5,19,119,9,4,0,4,0,,,,,1,35,71,8,,,,,,down,1.2509471477806073,1804.480331232317,None,001,7,2019_Jun_05_1534,ACPT_experiment_5_30_19,3.1.0,59.954195185378616,
,,,C,D,d,v,,,,,,,,,,5,19,119,9,5,0,5,0,0,0,0,0,,,,,,,,,,,,,,001,7,2019_Jun_05_1534,ACPT_experiment_5_30_19,3.1.0,59.954195185378616,
,,,C,D,d,v,L,G,y,R,y,,,,,5,19,119,9,5,0,5,0,,,,,0,0,0,35,,,,,,down,0.8673172059875469,1829.749585325707,None,001,7,2019_Jun_05_1534,ACPT_experiment_5_30_19,3.1.0,59.954195185378616,
,,,C,D,d,v,L,U,g,L,u,,,,,5,19,119,9,5,0,5,0,,,,,0,1,1,22,,,,,,down,1.034105168343558,1831.917910639237,None,001,7,2019_Jun_05_1534,ACPT_experiment_5_30_19,3.1.0,59.954195185378616,
,,,C,D,d,v,R,D,g,L,i,,,,,5,19,119,9,5,0,5,0,,,,,0,2,2,2,,,,,,down,0.8840001678318004,1834.2363415569903,None,001,7,2019_Jun_05_1534,ACPT_experiment_5_30_19,3.1.0,59.954195185378616,
,,,C,D,d,v,L,G,g,L,c ,,,,,5,19,119,9,5,0,5,0,,,,,0,3,3,18,,,,,,up,0.8840059030903831,1836.404657211137,None,001,7,2019_Jun_05_1534,ACPT_experiment_5_30_19,3.1.0,59.954195185378616,
,,,C,D,d,v,R,G,g,L,c ,,,,,5,19,119,9,5,0,5,0,,,,,0,4,4,6,,,,,,up,0.7505705827716156,1838.5562989591112,None,001,7,2019_Jun_05_1534,ACPT_experiment_5_30_19,3.1.0,59.954195185378616,
,,,C,D,d,v,R,D,d,L,c,,,,,5,19,119,9,5,0,5,0,,,,,0,5,5,0,,,,,,up,1.0341305242236558,1840.5911832170636,None,001,7,2019_Jun_05_1534,ACPT_experiment_5_30_19,3.1.0,59.954195185378616,
,,,C,D,d,v,L,U,y,L,u,,,,,5,19,119,9,5,0,5,0,,,,,0,6,6,24,,,,,,down,0.6338363356403534,1842.9095914956379,None,001,7,2019_Jun_05_1534,ACPT_experiment_5_30_19,3.1.0,59.954195185378616,
,,,C,D,d,v,L,G,g,R,c ,,,,,5,19,119,9,5,0,5,0,,,,,0,7,7,19,,,,,,up,1.1175326555062384,1844.8277433175936,None,001,7,2019_Jun_05_1534,ACPT_experiment_5_30_19,3.1.0,59.954195185378616,
,,,C,D,d,v,R,U,g,R,u,,,,,5,19,119,9,5,0,5,0,,,,,0,8,8,11,,,,,,down,0.6838683172541096,1847.2128816324116,None,001,7,2019_Jun_05_1534,ACPT_experiment_5_30_19,3.1.0,59.954195185378616,
,,,C,D,d,v,L,D,y,R,y,,,,,5,19,119,9,5,0,5,0,,,,,0,9,9,33,,,,,,down,0.7005328658997314,1849.1810672471152,None,001,7,2019_Jun_05_1534,ACPT_experiment_5_30_19,3.1.0,59.954195185378616,
,,,C,D,d,v,R,D,g,R,i,,,,,5,19,119,9,5,0,5,0,,,,,0,10,10,3,,,,,,down,0.9340378847036845,1851.1659152974744,None,001,7,2019_Jun_05_1534,ACPT_experiment_5_30_19,3.1.0,59.954195185378616,
,,,C,D,d,v,L,U,d,L,u,,,,,5,19,119,9,5,0,5,0,,,,,0,11,11,20,,,,,,down,1.1008557307759474,1853.3842454256032,None,001,7,2019_Jun_05_1534,ACPT_experiment_5_30_19,3.1.0,59.954195185378616,
,,,C,D,d,v,L,G,d,R,i,,,,,5,19,119,9,5,0,5,0,,,,,0,12,12,17,,,,,,down,1.4344201849708043,1855.7694181519732,None,001,7,2019_Jun_05_1534,ACPT_experiment_5_30_19,3.1.0,59.954195185378616,
,,,C,D,d,v,L,G,y,L,y,,,,,5,19,119,9,5,0,5,0,,,,,0,13,13,34,,,,,,down,0.5837907705199541,1858.4714596927533,None,001,7,2019_Jun_05_1534,ACPT_experiment_5_30_19,3.1.0,59.954195185378616,
,,,C,D,d,v,L,D,d,R,c ,,,,,5,19,119,9,5,0,5,0,,,,,0,14,14,13,,,,,,up,1.0841558650113257,1860.3395710811355,None,001,7,2019_Jun_05_1534,ACPT_experiment_5_30_19,3.1.0,59.954195185378616,
,,,C,D,d,v,R,U,y,R,u,,,,,5,19,119,9,5,0,5,0,,,,,0,15,15,31,,,,,,down,0.6004483764841098,1862.7080415268952,None,001,7,2019_Jun_05_1534,ACPT_experiment_5_30_19,3.1.0,59.954195185378616,
,,,C,D,d,v,R,D,y,R,y,,,,,5,19,119,9,5,0,5,0,,,,,0,16,16,27,,,,,,down,0.9840783182771702,1864.5928159546447,None,001,7,2019_Jun_05_1534,ACPT_experiment_5_30_19,3.1.0,59.954195185378616,
,,,C,D,d,v,L,D,d,L,c ,,,,,5,19,119,9,5,0,5,0,,,,,0,17,17,12,,,,,,up,1.3844102388252395,1866.8611862144912,None,001,7,2019_Jun_05_1534,ACPT_experiment_5_30_19,3.1.0,59.954195185378616,
,,,C,D,d,v,L,U,d,R,u,,,,,5,19,119,9,5,0,5,0,,,,,0,18,18,21,,,,,,down,0.8172867336525087,1869.5299071099398,None,001,7,2019_Jun_05_1534,ACPT_experiment_5_30_19,3.1.0,59.954195185378616,
,,,C,D,d,v,L,U,g,R,u,,,,,5,19,119,9,5,0,5,0,,,,,0,19,19,23,,,,,,down,0.9674533127308678,1871.6148052381627,None,001,7,2019_Jun_05_1534,ACPT_experiment_5_30_19,3.1.0,59.954195185378616,
,,,C,D,d,v,R,U,g,L,u,,,,,5,19,119,9,5,0,5,0,,,,,0,20,20,10,,,,,,down,1.1842273746310639,1873.8665489831842,None,001,7,2019_Jun_05_1534,ACPT_experiment_5_30_19,3.1.0,59.954195185378616,
,,,C,D,d,v,R,G,g,R,c ,,,,,5,19,119,9,5,0,5,0,,,,,0,21,21,7,,,,,,up,0.7505651493688674,1876.3350915422748,None,001,7,2019_Jun_05_1534,ACPT_experiment_5_30_19,3.1.0,59.954195185378616,
,,,C,D,d,v,R,G,y,R,y,,,,,5,19,119,9,5,0,5,0,,,,,0,22,22,29,,,,,,down,0.650486697067663,1878.36997912064,None,001,7,2019_Jun_05_1534,ACPT_experiment_5_30_19,3.1.0,59.954195185378616,
,,,C,D,d,v,R,D,d,R,c ,,,,,5,19,119,9,5,0,5,0,,,,,0,23,23,1,,,,,,up,0.9507262799511409,1880.30478220959,None,001,7,2019_Jun_05_1534,ACPT_experiment_5_30_19,3.1.0,59.954195185378616,
,,,C,D,d,v,R,U,d,R,u,,,,,5,19,119,9,5,0,5,0,,,,,0,24,24,9,,,,,,down,1.1674502338023558,1882.5399060806121,None,001,7,2019_Jun_05_1534,ACPT_experiment_5_30_19,3.1.0,59.954195185378616,
,,,C,D,d,v,R,G,y,L,y,,,,,5,19,119,9,5,0,5,0,,,,,0,25,25,28,,,,,,down,0.8006082996434998,1885.008375288763,None,001,7,2019_Jun_05_1534,ACPT_experiment_5_30_19,3.1.0,59.954195185378616,
,,,C,D,d,v,R,G,d,L,i,,,,,5,19,119,9,5,0,5,0,,,,,0,26,26,4,,,,,,down,1.1175377870536067,1887.1099464175918,None,001,7,2019_Jun_05_1534,ACPT_experiment_5_30_19,3.1.0,59.954195185378616,
,,,C,D,d,v,R,D,y,L,y,,,,,5,19,119,9,5,0,5,0,,,,,0,27,27,26,,,,,,down,0.6838480929204707,1889.511803313229,None,001,7,2019_Jun_05_1534,ACPT_experiment_5_30_19,3.1.0,59.954195185378616,
,,,C,D,d,v,L,G,d,L,i,,,,,5,19,119,9,5,0,5,0,,,,,0,28,28,16,,,,,,down,1.1175118274618399,1891.4799690054551,None,001,7,2019_Jun_05_1534,ACPT_experiment_5_30_19,3.1.0,59.954195185378616,
,,,C,D,d,v,R,G,d,R,i,,,,,5,19,119,9,5,0,5,0,,,,,0,29,29,5,,,,,,down,0.76723694255179,1893.881802658202,None,001,7,2019_Jun_05_1534,ACPT_experiment_5_30_19,3.1.0,59.954195185378616,
,,,C,D,d,v,L,D,y,L,y,,,,,5,19,119,9,5,0,5,0,,,,,0,30,30,32,,,,,,down,0.7671687231591022,1895.9500181264361,None,001,7,2019_Jun_05_1534,ACPT_experiment_5_30_19,3.1.0,59.954195185378616,
,,,C,D,d,v,L,U,y,R,u,,,,,5,19,119,9,5,0,5,0,,,,,0,31,31,25,,,,,,down,0.6838502059108578,1898.0182855138537,None,001,7,2019_Jun_05_1534,ACPT_experiment_5_30_19,3.1.0,59.954195185378616,
,,,C,D,d,v,L,D,g,R,i,,,,,5,19,119,9,5,0,5,0,,,,,0,32,32,15,,,,,,down,1.1508738270263166,1900.0031299419443,None,001,7,2019_Jun_05_1534,ACPT_experiment_5_30_19,3.1.0,59.954195185378616,
,,,C,D,d,v,R,U,d,L,u,,,,,5,19,119,9,5,0,5,0,,,,,0,33,33,8,,,,,,down,0.8840010733988493,1902.4383204627088,None,001,7,2019_Jun_05_1534,ACPT_experiment_5_30_19,3.1.0,59.954195185378616,
,,,C,D,d,v,R,U,y,L,u,,,,,5,19,119,9,5,0,5,0,,,,,0,34,34,30,,,,,,down,0.7672459982236433,1904.606638833557,None,001,7,2019_Jun_05_1534,ACPT_experiment_5_30_19,3.1.0,59.954195185378616,
,,,C,D,d,v,L,D,g,L,i,,,,,5,19,119,9,5,0,5,0,,,,,0,35,35,14,,,,,,down,1.3677293899709184,1906.6581776789167,None,001,7,2019_Jun_05_1534,ACPT_experiment_5_30_19,3.1.0,59.954195185378616,
,,,C,D,d,v,R,D,y,L,y,,,,,5,19,119,9,5,0,5,0,,,,,1,0,36,26,,,,,,down,0.6338094704819923,1909.3102228570588,None,001,7,2019_Jun_05_1534,ACPT_experiment_5_30_19,3.1.0,59.954195185378616,
,,,C,D,d,v,R,G,g,L,c ,,,,,5,19,119,9,5,0,5,0,,,,,1,1,37,6,,,,,,up,0.6504821692319638,1911.2283641140643,None,001,7,2019_Jun_05_1534,ACPT_experiment_5_30_19,3.1.0,59.954195185378616,
,,,C,D,d,v,R,D,g,L,i,,,,,5,19,119,9,5,0,5,0,,,,,1,2,38,2,,,,,,down,0.9173564321381491,1913.1631605621883,None,001,7,2019_Jun_05_1534,ACPT_experiment_5_30_19,3.1.0,59.954195185378616,
,,,C,D,d,v,L,U,y,L,u,,,,,5,19,119,9,5,0,5,0,,,,,1,3,39,24,,,,,,down,0.6171322438958668,1915.364837008477,None,001,7,2019_Jun_05_1534,ACPT_experiment_5_30_19,3.1.0,59.954195185378616,
,,,C,D,d,v,R,G,y,L,y,,,,,5,19,119,9,5,0,5,0,,,,,1,4,40,28,,,,,,down,0.7672387536858878,1917.266287153534,None,001,7,2019_Jun_05_1534,ACPT_experiment_5_30_19,3.1.0,59.954195185378616,
,,,C,D,d,v,L,D,d,L,c ,,,,,5,19,119,9,5,0,5,0,,,,,1,5,41,12,,,,,,up,0.8672830962909757,1919.3178809366345,None,001,7,2019_Jun_05_1534,ACPT_experiment_5_30_19,3.1.0,59.954195185378616,
,,,C,D,d,v,L,D,y,R,y,,,,,5,19,119,9,5,0,5,0,,,,,1,6,42,33,,,,,,down,0.8172927707664712,1921.4861664052096,None,001,7,2019_Jun_05_1534,ACPT_experiment_5_30_19,3.1.0,59.954195185378616,
,,,C,D,d,v,L,G,d,R,i,,,,,5,19,119,9,5,0,5,0,,,,,1,7,43,17,,,,,,down,1.284297374972084,1923.6211321340206,None,001,7,2019_Jun_05_1534,ACPT_experiment_5_30_19,3.1.0,59.954195185378616,
,,,C,D,d,v,L,G,d,L,i,,,,,5,19,119,9,5,0,5,0,,,,,1,8,44,16,,,,,,down,0.8339739214770816,1926.189737147059,None,001,7,2019_Jun_05_1534,ACPT_experiment_5_30_19,3.1.0,59.954195185378616,
,,,C,D,d,v,R,D,d,L,c,,,,,5,19,119,9,5,0,5,0,,,,,1,9,45,0,,,,,,up,0.900711202257753,1928.2913348391912,None,001,7,2019_Jun_05_1534,ACPT_experiment_5_30_19,3.1.0,59.954195185378616,
,,,C,D,d,v,L,D,d,R,c ,,,,,5,19,119,9,5,0,5,0,,,,,1,10,46,13,,,,,,up,1.1341920726049466,1930.4763530758041,None,001,7,2019_Jun_05_1534,ACPT_experiment_5_30_19,3.1.0,59.954195185378616,
,,,C,D,d,v,L,U,y,R,u,,,,,5,19,119,9,5,0,5,0,,,,,1,11,47,25,,,,,,down,0.8840019789658982,1932.8948645588484,None,001,7,2019_Jun_05_1534,ACPT_experiment_5_30_19,3.1.0,59.954195185378616,
,,,C,D,d,v,R,D,y,R,y,,,,,5,19,119,9,5,0,5,0,,,,,1,12,48,27,,,,,,down,1.0341057720547724,1935.0631877593887,None,001,7,2019_Jun_05_1534,ACPT_experiment_5_30_19,3.1.0,59.954195185378616,
,,,C,D,d,v,R,D,d,R,c ,,,,,5,19,119,9,5,0,5,0,,,,,1,13,49,1,,,,,,up,0.9505819929177051,1937.381791036757,None,001,7,2019_Jun_05_1534,ACPT_experiment_5_30_19,3.1.0,59.954195185378616,
,,,C,D,d,v,L,U,g,L,u,,,,,5,19,119,9,5,0,5,0,,,,,1,14,50,22,,,,,,down,1.0174599384636167,1939.6166281448463,None,001,7,2019_Jun_05_1534,ACPT_experiment_5_30_19,3.1.0,59.954195185378616,
,,,C,D,d,v,L,G,g,R,c ,,,,,5,19,119,9,5,0,5,0,,,,,1,15,51,19,,,,,,up,0.9841365764309558,1941.9184077956052,None,001,7,2019_Jun_05_1534,ACPT_experiment_5_30_19,3.1.0,59.954195185378616,
,,,C,D,d,v,R,D,g,R,i,,,,,5,19,119,9,5,0,5,0,,,,,1,16,52,3,,,,,,down,1.4511930998196476,1944.1867997890636,None,001,7,2019_Jun_05_1534,ACPT_experiment_5_30_19,3.1.0,59.954195185378616,
,,,C,D,d,v,L,U,d,L,u,,,,,5,19,119,9,5,0,5,0,,,,,1,17,53,20,,,,,,down,1.067484977395452,1946.9222175166274,None,001,7,2019_Jun_05_1534,ACPT_experiment_5_30_19,3.1.0,59.954195185378616,
,,,C,D,d,v,L,D,g,L,i,,,,,5,19,119,9,5,0,5,0,,,,,1,18,54,14,,,,,,down,1.134194185594879,1949.274012546935,None,001,7,2019_Jun_05_1534,ACPT_experiment_5_30_19,3.1.0,59.954195185378616,
,,,C,D,d,v,R,G,d,L,i,,,,,5,19,119,9,5,0,5,0,,,,,1,19,55,4,,,,,,down,1.1175374851977722,1951.6924992778104,None,001,7,2019_Jun_05_1534,ACPT_experiment_5_30_19,3.1.0,59.954195185378616,
,,,C,D,d,v,L,D,g,R,i,,,,,5,19,119,9,5,0,5,0,,,,,1,20,56,15,,,,,,down,1.1175347684961707,1954.094326591587,None,001,7,2019_Jun_05_1534,ACPT_experiment_5_30_19,3.1.0,59.954195185378616,
,,,C,D,d,v,R,U,g,L,u,,,,,5,19,119,9,5,0,5,0,,,,,1,21,57,10,,,,,,down,0.7672592798749065,1956.4961780538215,None,001,7,2019_Jun_05_1534,ACPT_experiment_5_30_19,3.1.0,59.954195185378616,
,,,C,D,d,v,R,U,y,L,u,,,,,5,19,119,9,5,0,5,0,,,,,1,22,58,30,,,,,,down,0.6838713358110908,1958.5310399744512,None,001,7,2019_Jun_05_1534,ACPT_experiment_5_30_19,3.1.0,59.954195185378616,
,,,C,D,d,v,R,G,y,R,y,,,,,5,19,119,9,5,0,5,0,,,,,1,23,59,29,,,,,,down,0.7505669605025105,1960.499231324413,None,001,7,2019_Jun_05_1534,ACPT_experiment_5_30_19,3.1.0,59.954195185378616,
,,,C,D,d,v,L,U,g,R,u,,,,,5,19,119,9,5,0,5,0,,,,,1,24,60,23,,,,,,down,0.9173609599738484,1962.5341152805104,None,001,7,2019_Jun_05_1534,ACPT_experiment_5_30_19,3.1.0,59.954195185378616,
,,,C,D,d,v,R,U,d,R,u,,,,,5,19,119,9,5,0,5,0,,,,,1,25,61,9,,,,,,down,0.8173890627404035,1964.735795952779,None,001,7,2019_Jun_05_1534,ACPT_experiment_5_30_19,3.1.0,59.954195185378616,
,,,C,D,d,v,L,G,y,R,y,,,,,5,19,119,9,5,0,5,0,,,,,1,26,62,35,,,,,,down,1.2676292040578119,1966.837394852334,None,001,7,2019_Jun_05_1534,ACPT_experiment_5_30_19,3.1.0,59.954195185378616,
,,,C,D,d,v,L,U,d,R,u,,,,,5,19,119,9,5,0,5,0,,,,,1,27,63,21,,,,,,down,0.7005413178603703,1969.389323242498,None,001,7,2019_Jun_05_1534,ACPT_experiment_5_30_19,3.1.0,59.954195185378616,
,,,C,D,d,v,L,D,y,L,y,,,,,5,19,119,9,5,0,5,0,,,,,1,28,64,32,,,,,,down,0.7005458456951601,1971.374167066877,None,001,7,2019_Jun_05_1534,ACPT_experiment_5_30_19,3.1.0,59.954195185378616,
