facing_vig,person_vig,text_vig,facing_train,person_train,food_train,correct_key_train,facing_exp,person_exp,food_exp,showL_R,consistent,vig_random.thisRepN,vig_random.thisTrialN,vig_random.thisN,vig_random.thisIndex,trainTrials.thisRepN,trainTrials.thisTrialN,trainTrials.thisN,trainTrials.thisIndex,expBlock.thisRepN,expBlock.thisTrialN,expBlock.thisN,expBlock.thisIndex,breakLoop.thisRepN,breakLoop.thisTrialN,breakLoop.thisN,breakLoop.thisIndex,expTrials.thisRepN,expTrials.thisTrialN,expTrials.thisN,expTrials.thisIndex,train_resp.keys,train_resp.corr,train_resp.rt,train_resp.started,train_resp.stopped,exp_resp.keys,exp_resp.rt,exp_resp.started,exp_resp.stopped,session,participant,date,expName,psychopyVersion,frameRate,
C,G,"cannot eat dairy products because she is lactose intolerant. She enjoys eating wheat products. She thinks eating insects, like crickets, is disgusting.",,,,,,,,,,0,0,0,0,,,,,,,,,,,,,,,,,,,,,,,,,,001,80,2019_Oct_30_1459,ACPT_experiment_5_30_19,3.1.0,59.952294773985926,
C,D,"is allergic to gluten, meaning she can’t eat wheat products. She enjoys eating dairy products. She thinks eating insects, like crickets, is disgusting.",,,,,,,,,,0,1,1,1,,,,,,,,,,,,,,,,,,,,,,,,,,001,80,2019_Oct_30_1459,ACPT_experiment_5_30_19,3.1.0,59.952294773985926,
C,U,"did not report her food preferences, so her food preferences are unknown.",,,,,,,,,,0,2,2,2,,,,,,,,,,,,,,,,,,,,,,,,,,001,80,2019_Oct_30_1459,ACPT_experiment_5_30_19,3.1.0,59.952294773985926,
,,,C,D,y,b,,,,,,,,,,0,0,0,2,,,,,,,,,,,,,b,1,3.6696404529902793,1282.2631354136356,None,,,,,001,80,2019_Oct_30_1459,ACPT_experiment_5_30_19,3.1.0,59.952294773985926,
,,,C,G,y,b,,,,,,,,,,0,1,1,5,,,,,,,,,,,,,b,1,1.4511755280545913,1289.2187009844456,None,,,,,001,80,2019_Oct_30_1459,ACPT_experiment_5_30_19,3.1.0,59.952294773985926,
,,,C,U,y,n,,,,,,,,,,0,2,2,17,,,,,,,,,,,,,n,1,1.6676094959912007,1293.9728975308535,None,,,,,001,80,2019_Oct_30_1459,ACPT_experiment_5_30_19,3.1.0,59.952294773985926,
,,,C,G,d,b,,,,,,,,,,0,3,3,12,,,,,,,,,,,,,v,0,2.685502625634399,1298.9264617275694,None,,,,,001,80,2019_Oct_30_1459,ACPT_experiment_5_30_19,3.1.0,59.952294773985926,
,,,C,G,g,v,,,,,,,,,,0,4,4,13,,,,,,,,,,,,,v,1,1.751428431707609,1304.881206825561,None,,,,,001,80,2019_Oct_30_1459,ACPT_experiment_5_30_19,3.1.0,59.952294773985926,
,,,C,U,d,n,,,,,,,,,,0,5,5,15,,,,,,,,,,,,,v,0,2.101685199249914,1309.9185812038668,None,,,,,001,80,2019_Oct_30_1459,ACPT_experiment_5_30_19,3.1.0,59.952294773985926,
,,,C,D,d,v,,,,,,,,,,0,6,6,0,,,,,,,,,,,,,v,1,2.7021934214862995,1315.3061791444125,None,,,,,001,80,2019_Oct_30_1459,ACPT_experiment_5_30_19,3.1.0,59.952294773985926,
,,,C,D,d,v,,,,,,,,,,0,7,7,9,,,,,,,,,,,,,v,1,0.9841332993637479,1321.2943145882346,None,,,,,001,80,2019_Oct_30_1459,ACPT_experiment_5_30_19,3.1.0,59.952294773985926,
,,,C,G,y,b,,,,,,,,,,0,8,8,14,,,,,,,,,,,,,b,1,1.4340572894070647,1325.5814755470128,None,,,,,001,80,2019_Oct_30_1459,ACPT_experiment_5_30_19,3.1.0,59.952294773985926,
,,,C,U,d,n,,,,,,,,,,0,9,9,6,,,,,,,,,,,,,n,1,1.6012906598916743,1330.3015110827218,None,,,,,001,80,2019_Oct_30_1459,ACPT_experiment_5_30_19,3.1.0,59.952294773985926,
,,,C,G,g,v,,,,,,,,,,0,10,10,4,,,,,,,,,,,,,v,1,4.486979295586934,1335.188721426839,None,,,,,001,80,2019_Oct_30_1459,ACPT_experiment_5_30_19,3.1.0,59.952294773985926,
,,,C,U,g,n,,,,,,,,,,0,11,11,7,,,,,,,,,,,,,n,1,1.9015302814259485,1342.9616222178483,None,,,,,001,80,2019_Oct_30_1459,ACPT_experiment_5_30_19,3.1.0,59.952294773985926,
,,,C,U,g,n,,,,,,,,,,0,12,12,16,,,,,,,,,,,,,n,1,0.717252629558061,1348.132413989213,None,,,,,001,80,2019_Oct_30_1459,ACPT_experiment_5_30_19,3.1.0,59.952294773985926,
,,,C,U,y,n,,,,,,,,,,0,13,13,8,,,,,,,,,,,,,n,1,0.9340820424513367,1352.1356261493565,None,,,,,001,80,2019_Oct_30_1459,ACPT_experiment_5_30_19,3.1.0,59.952294773985926,
,,,C,D,g,b,,,,,,,,,,0,14,14,1,,,,,,,,,,,,,b,1,3.202593394438736,1356.3556281778983,None,,,,,001,80,2019_Oct_30_1459,ACPT_experiment_5_30_19,3.1.0,59.952294773985926,
,,,C,D,g,b,,,,,,,,,,0,15,15,10,,,,,,,,,,,,,b,1,0.7674385188729502,1362.827336657083,None,,,,,001,80,2019_Oct_30_1459,ACPT_experiment_5_30_19,3.1.0,59.952294773985926,
,,,C,G,d,b,,,,,,,,,,0,16,16,3,,,,,,,,,,,,,b,1,1.7011097211870947,1366.8976775608244,None,,,,,001,80,2019_Oct_30_1459,ACPT_experiment_5_30_19,3.1.0,59.952294773985926,
,,,C,D,y,b,,,,,,,,,,0,17,17,11,,,,,,,,,,,,,b,1,1.2009618066585972,1371.8847247763479,None,,,,,001,80,2019_Oct_30_1459,ACPT_experiment_5_30_19,3.1.0,59.952294773985926,
,,,C,G,g,v,,,,,,,,,,0,18,18,19,,,,,,,,,,,,,v,1,2.284928656899865,1376.3885645166956,None,,,,,001,80,2019_Oct_30_1459,ACPT_experiment_5_30_19,3.1.0,59.952294773985926,
,,,C,D,d,v,,,,,,,,,,0,19,19,18,,,,,,,,,,,,,v,1,3.1859137676437967,1381.9594309698005,None,,,,,001,80,2019_Oct_30_1459,ACPT_experiment_5_30_19,3.1.0,59.952294773985926,
,,,C,D,d,v,,,,,,,,,,1,0,20,18,,,,,,,,,,,,,b,0,1.017495873486041,1388.4646218640628,None,,,,,001,80,2019_Oct_30_1459,ACPT_experiment_5_30_19,3.1.0,59.952294773985926,
,,,C,D,d,v,,,,,,,,,,1,1,21,0,,,,,,,,,,,,,v,1,0.7837133428547531,1392.7850092552217,None,,,,,001,80,2019_Oct_30_1459,ACPT_experiment_5_30_19,3.1.0,59.952294773985926,
,,,C,U,d,n,,,,,,,,,,1,2,22,15,,,,,,,,,,,,,n,1,1.301078810069157,1396.8546606961536,None,,,,,001,80,2019_Oct_30_1459,ACPT_experiment_5_30_19,3.1.0,59.952294773985926,
,,,C,U,g,n,,,,,,,,,,1,3,23,7,,,,,,,,,,,,,n,1,0.6002199398426455,1401.4419236253925,None,,,,,001,80,2019_Oct_30_1459,ACPT_experiment_5_30_19,3.1.0,59.952294773985926,
,,,C,G,g,v,,,,,,,,,,1,4,24,19,,,,,,,,,,,,,b,0,3.6029044375572994,1405.3280997752918,None,,,,,001,80,2019_Oct_30_1459,ACPT_experiment_5_30_19,3.1.0,59.952294773985926,
,,,C,D,g,b,,,,,,,,,,1,5,25,1,,,,,,,,,,,,,b,1,8.756881345983857,1412.2169302362636,None,,,,,001,80,2019_Oct_30_1459,ACPT_experiment_5_30_19,3.1.0,59.952294773985926,
,,,C,G,d,b,,,,,,,,,,1,6,26,12,,,,,,,,,,,,,v,0,3.402741671205149,1424.2598812940669,None,,,,,001,80,2019_Oct_30_1459,ACPT_experiment_5_30_19,3.1.0,59.952294773985926,
,,,C,G,y,b,,,,,,,,,,1,7,27,5,,,,,,,,,,,,,b,1,1.9182905065426894,1430.9485529129488,None,,,,,001,80,2019_Oct_30_1459,ACPT_experiment_5_30_19,3.1.0,59.952294773985926,
,,,C,U,g,n,,,,,,,,,,1,8,28,16,,,,,,,,,,,,,n,1,0.7673008678066253,1436.1527126920337,None,,,,,001,80,2019_Oct_30_1459,ACPT_experiment_5_30_19,3.1.0,59.952294773985926,
,,,C,U,y,n,,,,,,,,,,1,9,29,8,,,,,,,,,,,,,n,1,0.7973241960389714,1440.2259484943497,None,,,,,001,80,2019_Oct_30_1459,ACPT_experiment_5_30_19,3.1.0,59.952294773985926,
,,,C,D,y,b,,,,,,,,,,1,10,30,11,,,,,,,,,,,,,n,0,0.9507616692499141,1444.3092337303096,None,,,,,001,80,2019_Oct_30_1459,ACPT_experiment_5_30_19,3.1.0,59.952294773985926,
,,,C,D,d,v,,,,,,,,,,1,11,31,9,,,,,,,,,,,,,b,0,3.5025688828864077,1448.5628588436593,None,,,,,001,80,2019_Oct_30_1459,ACPT_experiment_5_30_19,3.1.0,59.952294773985926,
,,,C,D,g,b,,,,,,,,,,1,12,32,10,,,,,,,,,,,,,b,1,1.6680079596153519,1455.3346955556808,None,,,,,001,80,2019_Oct_30_1459,ACPT_experiment_5_30_19,3.1.0,59.952294773985926,
,,,C,G,g,v,,,,,,,,,,1,13,33,13,,,,,,,,,,,,,v,1,2.3852560611740046,1460.2886437264315,None,,,,,001,80,2019_Oct_30_1459,ACPT_experiment_5_30_19,3.1.0,59.952294773985926,
,,,C,G,d,b,,,,,,,,,,1,14,34,3,,,,,,,,,,,,,b,1,2.485380309375614,1465.9431630887448,None,,,,,001,80,2019_Oct_30_1459,ACPT_experiment_5_30_19,3.1.0,59.952294773985926,
,,,C,U,y,n,,,,,,,,,,1,15,35,17,,,,,,,,,,,,,n,1,1.1176249515519885,1471.7144147837244,None,,,,,001,80,2019_Oct_30_1459,ACPT_experiment_5_30_19,3.1.0,59.952294773985926,
,,,C,G,y,b,,,,,,,,,,1,16,36,14,,,,,,,,,,,,,b,1,1.764562939744792,1476.1381292253755,None,,,,,001,80,2019_Oct_30_1459,ACPT_experiment_5_30_19,3.1.0,59.952294773985926,
,,,C,U,d,n,,,,,,,,,,1,17,37,6,,,,,,,,,,,,,n,1,1.7180637445198954,1481.1886682983568,None,,,,,001,80,2019_Oct_30_1459,ACPT_experiment_5_30_19,3.1.0,59.952294773985926,
,,,C,G,g,v,,,,,,,,,,1,18,38,4,,,,,,,,,,,,,v,1,2.3685987724893494,1486.1926396524432,None,,,,,001,80,2019_Oct_30_1459,ACPT_experiment_5_30_19,3.1.0,59.952294773985926,
,,,C,D,y,b,,,,,,,,,,1,19,39,2,,,,,,,,,,,,,b,1,1.2510040075758297,1491.8471855789976,None,,,,,001,80,2019_Oct_30_1459,ACPT_experiment_5_30_19,3.1.0,59.952294773985926,
,,,C,D,d,v,,,,,,,,,,2,0,40,0,,,,,,,,,,,,,v,1,2.5187163192604203,1496.3674670754335,None,,,,,001,80,2019_Oct_30_1459,ACPT_experiment_5_30_19,3.1.0,59.952294773985926,
,,,C,G,y,b,,,,,,,,,,2,1,41,5,,,,,,,,,,,,,b,1,0.9174326022912282,1502.1720650437528,None,,,,,001,80,2019_Oct_30_1459,ACPT_experiment_5_30_19,3.1.0,59.952294773985926,
,,,C,U,d,n,,,,,,,,,,2,2,42,15,,,,,,,,,,,,,n,1,2.3683276964802644,1506.3923710517374,None,,,,,001,80,2019_Oct_30_1459,ACPT_experiment_5_30_19,3.1.0,59.952294773985926,
,,,C,G,d,b,,,,,,,,,,2,3,43,12,,,,,,,,,,,,,b,1,3.352697357218858,1512.0466368462949,None,,,,,001,80,2019_Oct_30_1459,ACPT_experiment_5_30_19,3.1.0,59.952294773985926,
,,,C,G,g,v,,,,,,,,,,2,4,44,13,,,,,,,,,,,,,v,1,2.3685779437109886,1518.6685938822557,None,,,,,001,80,2019_Oct_30_1459,ACPT_experiment_5_30_19,3.1.0,59.952294773985926,
,,,C,U,y,n,,,,,,,,,,2,5,45,8,,,,,,,,,,,,,n,1,1.0341845562761591,1524.3231066035078,None,,,,,001,80,2019_Oct_30_1459,ACPT_experiment_5_30_19,3.1.0,59.952294773985926,
,,,C,U,g,n,,,,,,,,,,2,6,46,16,,,,,,,,,,,,,n,1,1.3677810164663242,1528.6265318209444,None,,,,,001,80,2019_Oct_30_1459,ACPT_experiment_5_30_19,3.1.0,59.952294773985926,
,,,C,D,d,v,,,,,,,,,,2,7,47,9,,,,,,,,,,,,,v,1,2.652125863791298,1533.2802630101396,None,,,,,001,80,2019_Oct_30_1459,ACPT_experiment_5_30_19,3.1.0,59.952294773985926,
,,,C,U,g,n,,,,,,,,,,2,8,48,7,,,,,,,,,,,,,n,1,1.501212899111124,1539.2183299906646,None,,,,,001,80,2019_Oct_30_1459,ACPT_experiment_5_30_19,3.1.0,59.952294773985926,
,,,C,G,g,v,,,,,,,,,,2,9,49,4,,,,,,,,,,,,,v,1,2.3185408745193854,1544.0054852139801,None,,,,,001,80,2019_Oct_30_1459,ACPT_experiment_5_30_19,3.1.0,59.952294773985926,
,,,C,D,y,b,,,,,,,,,,2,10,50,2,,,,,,,,,,,,,b,1,0.817338238863158,1549.6099581492454,None,,,,,001,80,2019_Oct_30_1459,ACPT_experiment_5_30_19,3.1.0,59.952294773985926,
,,,C,G,d,b,,,,,,,,,,2,11,51,3,,,,,,,,,,,,,b,1,2.9020829987639445,1553.7301643602077,None,,,,,001,80,2019_Oct_30_1459,ACPT_experiment_5_30_19,3.1.0,59.952294773985926,
,,,C,G,y,b,,,,,,,,,,2,12,52,14,,,,,,,,,,,,,b,1,1.3010483215657587,1559.9181911925043,None,,,,,001,80,2019_Oct_30_1459,ACPT_experiment_5_30_19,3.1.0,59.952294773985926,
,,,C,D,y,b,,,,,,,,,,2,13,53,11,,,,,,,,,,,,,b,1,0.8337280739324342,1564.5388212238613,None,,,,,001,80,2019_Oct_30_1459,ACPT_experiment_5_30_19,3.1.0,59.952294773985926,
,,,C,D,d,v,,,,,,,,,,2,14,54,18,,,,,,,,,,,,,v,1,3.5696025385732355,1568.6418014298797,None,,,,,001,80,2019_Oct_30_1459,ACPT_experiment_5_30_19,3.1.0,59.952294773985926,
,,,C,U,y,n,,,,,,,,,,2,15,55,17,,,,,,,,,,,,,n,1,1.3010730746063928,1575.4972898436463,None,,,,,001,80,2019_Oct_30_1459,ACPT_experiment_5_30_19,3.1.0,59.952294773985926,
,,,C,D,g,b,,,,,,,,,,2,16,56,10,,,,,,,,,,,,,b,1,1.417531916329608,1580.1012456818025,None,,,,,001,80,2019_Oct_30_1459,ACPT_experiment_5_30_19,3.1.0,59.952294773985926,
,,,C,G,g,v,,,,,,,,,,2,17,57,19,,,,,,,,,,,,,v,1,2.0016572464228375,1584.804718111136,None,,,,,001,80,2019_Oct_30_1459,ACPT_experiment_5_30_19,3.1.0,59.952294773985926,
,,,C,D,g,b,,,,,,,,,,2,18,58,1,,,,,,,,,,,,,b,1,1.0842131732097187,1590.0922775335348,None,,,,,001,80,2019_Oct_30_1459,ACPT_experiment_5_30_19,3.1.0,59.952294773985926,
,,,C,U,d,n,,,,,,,,,,2,19,59,6,,,,,,,,,,,,,n,1,0.44997138307007845,1594.4794806328573,None,,,,,001,80,2019_Oct_30_1459,ACPT_experiment_5_30_19,3.1.0,59.952294773985926,
,,,C,U,y,n,,,,,,,,,,3,0,60,17,,,,,,,,,,,,,n,1,0.9007354672467045,1598.1987476167633,None,,,,,001,80,2019_Oct_30_1459,ACPT_experiment_5_30_19,3.1.0,59.952294773985926,
,,,C,G,y,b,,,,,,,,,,3,1,61,14,,,,,,,,,,,,,b,1,1.1142528022246552,1602.40541922599,None,,,,,001,80,2019_Oct_30_1459,ACPT_experiment_5_30_19,3.1.0,59.952294773985926,
,,,C,U,d,n,,,,,,,,,,3,2,62,15,,,,,,,,,,,,,n,1,0.7339542925983551,1606.8055920143051,None,,,,,001,80,2019_Oct_30_1459,ACPT_experiment_5_30_19,3.1.0,59.952294773985926,
,,,C,G,y,b,,,,,,,,,,3,3,63,5,,,,,,,,,,,,,b,1,0.9004474867178942,1610.8424547290997,None,,,,,001,80,2019_Oct_30_1459,ACPT_experiment_5_30_19,3.1.0,59.952294773985926,
,,,C,G,g,v,,,,,,,,,,3,4,64,19,,,,,,,,,,,,,v,1,2.735555693743663,1615.0121458956455,None,,,,,001,80,2019_Oct_30_1459,ACPT_experiment_5_30_19,3.1.0,59.952294773985926,
,,,C,D,d,v,,,,,,,,,,3,5,65,0,,,,,,,,,,,,,v,1,3.4361117919870594,1621.0336164437504,None,,,,,001,80,2019_Oct_30_1459,ACPT_experiment_5_30_19,3.1.0,59.952294773985926,
,,,C,D,y,b,,,,,,,,,,3,6,66,2,,,,,,,,,,,,,b,1,0.9174371302906366,1627.7556759935323,None,,,,,001,80,2019_Oct_30_1459,ACPT_experiment_5_30_19,3.1.0,59.952294773985926,
,,,C,D,g,b,,,,,,,,,,3,7,67,10,,,,,,,,,,,,,b,1,1.0505819380050525,1631.9592984504598,None,,,,,001,80,2019_Oct_30_1459,ACPT_experiment_5_30_19,3.1.0,59.952294773985926,
,,,C,U,g,n,,,,,,,,,,3,8,68,7,,,,,,,,,,,,,n,1,0.6171796986418485,1636.2958166753415,None,,,,,001,80,2019_Oct_30_1459,ACPT_experiment_5_30_19,3.1.0,59.952294773985926,
,,,C,D,d,v,,,,,,,,,,3,9,69,18,,,,,,,,,,,,,v,1,1.4845465544349281,1640.1989450373767,None,,,,,001,80,2019_Oct_30_1459,ACPT_experiment_5_30_19,3.1.0,59.952294773985926,
,,,C,G,g,v,,,,,,,,,,3,10,70,4,,,,,,,,,,,,,v,1,1.7847704789201089,1644.9694136909675,None,,,,,001,80,2019_Oct_30_1459,ACPT_experiment_5_30_19,3.1.0,59.952294773985926,
,,,C,G,g,v,,,,,,,,,,3,11,71,13,,,,,,,,,,,,,v,1,1.851500457025395,1650.023451999019,None,,,,,001,80,2019_Oct_30_1459,ACPT_experiment_5_30_19,3.1.0,59.952294773985926,
,,,C,D,g,b,,,,,,,,,,3,12,72,1,,,,,,,,,,,,,b,1,0.7839826076669851,1655.1608881391876,None,,,,,001,80,2019_Oct_30_1459,ACPT_experiment_5_30_19,3.1.0,59.952294773985926,
,,,C,U,d,n,,,,,,,,,,3,13,73,6,,,,,,,,,,,,,n,1,0.6004834691921133,1659.2307997889366,None,,,,,001,80,2019_Oct_30_1459,ACPT_experiment_5_30_19,3.1.0,59.952294773985926,
,,,C,D,y,b,,,,,,,,,,3,14,74,11,,,,,,,,,,,,,b,1,0.8840781785620493,1663.1172364495214,None,,,,,001,80,2019_Oct_30_1459,ACPT_experiment_5_30_19,3.1.0,59.952294773985926,
,,,C,U,g,n,,,,,,,,,,3,15,75,16,,,,,,,,,,,,,n,1,0.8340069984697038,1667.2872376328378,None,,,,,001,80,2019_Oct_30_1459,ACPT_experiment_5_30_19,3.1.0,59.952294773985926,
,,,C,G,d,b,,,,,,,,,,3,16,76,12,,,,,,,,,,,,,b,1,3.3026636085596692,1671.4071833331109,None,,,,,001,80,2019_Oct_30_1459,ACPT_experiment_5_30_19,3.1.0,59.952294773985926,
,,,C,G,d,b,,,,,,,,,,3,17,77,3,,,,,,,,,,,,,b,1,1.8515040794227389,1677.9790900177613,None,,,,,001,80,2019_Oct_30_1459,ACPT_experiment_5_30_19,3.1.0,59.952294773985926,
,,,C,U,y,n,,,,,,,,,,3,18,78,8,,,,,,,,,,,,,n,1,0.6338883046119008,1683.1165192150038,None,,,,,001,80,2019_Oct_30_1459,ACPT_experiment_5_30_19,3.1.0,59.952294773985926,
,,,C,D,d,v,,,,,,,,,,3,19,79,9,,,,,,,,,,,,,v,1,0.9670464548180462,1687.0533808430773,None,,,,,001,80,2019_Oct_30_1459,ACPT_experiment_5_30_19,3.1.0,59.952294773985926,
,,,C,D,y,b,,,,,,,,,,4,0,80,11,,,,,,,,,,,,,b,1,0.8507165100381826,1691.3063714332966,None,,,,,001,80,2019_Oct_30_1459,ACPT_experiment_5_30_19,3.1.0,59.952294773985926,
,,,C,G,d,b,,,,,,,,,,4,1,81,3,,,,,,,,,,,,,b,1,2.9354733445943566,1695.4599480669094,None,,,,,001,80,2019_Oct_30_1459,ACPT_experiment_5_30_19,3.1.0,59.952294773985926,
,,,C,G,g,v,,,,,,,,,,4,2,82,4,,,,,,,,,,,,,v,1,1.5846089200276765,1701.66466660066,None,,,,,001,80,2019_Oct_30_1459,ACPT_experiment_5_30_19,3.1.0,59.952294773985926,
,,,C,D,d,v,,,,,,,,,,4,3,83,0,,,,,,,,,,,,,v,1,2.1017075373601983,1706.535199732909,None,,,,,001,80,2019_Oct_30_1459,ACPT_experiment_5_30_19,3.1.0,59.952294773985926,
,,,C,D,y,b,,,,,,,,,,4,4,84,2,,,,,,,,,,,,,b,1,0.8840513124559948,1711.9228498963384,None,,,,,001,80,2019_Oct_30_1459,ACPT_experiment_5_30_19,3.1.0,59.952294773985926,
,,,C,G,y,b,,,,,,,,,,4,5,85,14,,,,,,,,,,,,,b,1,1.4811979506921489,1716.1295375044829,None,,,,,001,80,2019_Oct_30_1459,ACPT_experiment_5_30_19,3.1.0,59.952294773985926,
,,,C,U,y,n,,,,,,,,,,4,6,86,17,,,,,,,,,,,,,n,1,0.7839623826184834,1720.896691665228,None,,,,,001,80,2019_Oct_30_1459,ACPT_experiment_5_30_19,3.1.0,59.952294773985926,
,,,C,U,d,n,,,,,,,,,,4,7,87,6,,,,,,,,,,,,,n,1,0.7672715867665829,1724.9499306311045,None,,,,,001,80,2019_Oct_30_1459,ACPT_experiment_5_30_19,3.1.0,59.952294773985926,
,,,C,U,g,n,,,,,,,,,,4,8,88,16,,,,,,,,,,,,,n,1,1.050877465189842,1728.9864649152769,None,,,,,001,80,2019_Oct_30_1459,ACPT_experiment_5_30_19,3.1.0,59.952294773985926,
,,,C,G,d,b,,,,,,,,,,4,9,89,12,,,,,,,,,,,,,v,0,2.735092932583939,1733.3403594745578,None,,,,,001,80,2019_Oct_30_1459,ACPT_experiment_5_30_19,3.1.0,59.952294773985926,
,,,C,D,d,v,,,,,,,,,,4,10,90,9,,,,,,,,,,,,,v,1,1.7347325041264412,1739.361414654526,None,,,,,001,80,2019_Oct_30_1459,ACPT_experiment_5_30_19,3.1.0,59.952294773985926,
,,,C,D,g,b,,,,,,,,,,4,11,91,10,,,,,,,,,,,,,b,1,2.1183808249661524,1744.3654134784556,None,,,,,001,80,2019_Oct_30_1459,ACPT_experiment_5_30_19,3.1.0,59.952294773985926,
,,,C,G,g,v,,,,,,,,,,4,12,92,13,,,,,,,,,,,,,v,1,1.9182391892572923,1749.7697203268363,None,,,,,001,80,2019_Oct_30_1459,ACPT_experiment_5_30_19,3.1.0,59.952294773985926,
,,,C,G,g,v,,,,,,,,,,4,13,93,19,,,,,,,,,,,,,v,1,0.8005487327063747,1754.9571769335453,None,,,,,001,80,2019_Oct_30_1459,ACPT_experiment_5_30_19,3.1.0,59.952294773985926,
,,,C,U,d,n,,,,,,,,,,4,14,94,15,,,,,,,,,,,,,n,1,0.6169545063239639,1759.0607110643687,None,,,,,001,80,2019_Oct_30_1459,ACPT_experiment_5_30_19,3.1.0,59.952294773985926,
,,,C,G,y,b,,,,,,,,,,4,15,95,5,,,,,,,,,,,,,b,1,0.7172529314229905,1762.96358736798,None,,,,,001,80,2019_Oct_30_1459,ACPT_experiment_5_30_19,3.1.0,59.952294773985926,
,,,C,D,d,v,,,,,,,,,,4,16,96,18,,,,,,,,,,,,,v,1,1.6677715982405061,1766.9837040453713,None,,,,,001,80,2019_Oct_30_1459,ACPT_experiment_5_30_19,3.1.0,59.952294773985926,
,,,C,U,y,n,,,,,,,,,,4,17,97,8,,,,,,,,,,,,,n,1,0.41699308484385256,1771.9374312499313,None,,,,,001,80,2019_Oct_30_1459,ACPT_experiment_5_30_19,3.1.0,59.952294773985926,
,,,C,D,g,b,,,,,,,,,,4,18,98,1,,,,,,,,,,,,,b,1,1.5009626518840378,1775.6573046833983,None,,,,,001,80,2019_Oct_30_1459,ACPT_experiment_5_30_19,3.1.0,59.952294773985926,
,,,C,U,g,n,,,,,,,,,,4,19,99,7,,,,,,,,,,,,,n,1,1.4010071469892864,1780.4442057352207,None,,,,,001,80,2019_Oct_30_1459,ACPT_experiment_5_30_19,3.1.0,59.952294773985926,
,,,C,D,y,b,,,,,,,,,,5,0,100,11,,,,,,,,,,,,,b,1,0.7334906258438423,1785.1483757777605,None,,,,,001,80,2019_Oct_30_1459,ACPT_experiment_5_30_19,3.1.0,59.952294773985926,
,,,C,G,d,b,,,,,,,,,,5,1,101,12,,,,,,,,,,,,,b,1,3.419383262837073,1789.1678618562837,None,,,,,001,80,2019_Oct_30_1459,ACPT_experiment_5_30_19,3.1.0,59.952294773985926,
,,,C,G,d,b,,,,,,,,,,5,2,102,3,,,,,,,,,,,,,b,1,1.901530583290878,1795.8565120426574,None,,,,,001,80,2019_Oct_30_1459,ACPT_experiment_5_30_19,3.1.0,59.952294773985926,
,,,C,G,g,v,,,,,,,,,,5,3,103,13,,,,,,,,,,,,,v,1,1.1342517517332453,1801.0273020028217,None,,,,,001,80,2019_Oct_30_1459,ACPT_experiment_5_30_19,3.1.0,59.952294773985926,
,,,C,D,d,v,,,,,,,,,,5,4,104,18,,,,,,,,,,,,,v,1,1.5179767466288467,1805.4474806835715,None,,,,,001,80,2019_Oct_30_1459,ACPT_experiment_5_30_19,3.1.0,59.952294773985926,
,,,C,U,d,n,,,,,,,,,,5,5,105,6,,,,,,,,,,,,,n,1,0.4003309662984975,1810.2513354568619,None,,,,,001,80,2019_Oct_30_1459,ACPT_experiment_5_30_19,3.1.0,59.952294773985926,
,,,C,U,g,n,,,,,,,,,,5,6,106,16,,,,,,,,,,,,,n,1,0.5838026349301799,1813.9209387802912,None,,,,,001,80,2019_Oct_30_1459,ACPT_experiment_5_30_19,3.1.0,59.952294773985926,
,,,C,U,g,n,,,,,,,,,,5,7,107,7,,,,,,,,,,,,,n,1,0.4837444954646344,1817.7740038107622,None,,,,,001,80,2019_Oct_30_1459,ACPT_experiment_5_30_19,3.1.0,59.952294773985926,
,,,C,D,y,b,,,,,,,,,,5,8,108,2,,,,,,,,,,,,,b,1,0.8171054998856562,1821.5605824692902,None,,,,,001,80,2019_Oct_30_1459,ACPT_experiment_5_30_19,3.1.0,59.952294773985926,
,,,C,D,d,v,,,,,,,,,,5,9,109,0,,,,,,,,,,,,,v,1,1.584650577591674,1825.6469328564635,None,,,,,001,80,2019_Oct_30_1459,ACPT_experiment_5_30_19,3.1.0,59.952294773985926,
,,,C,G,y,b,,,,,,,,,,5,10,110,5,,,,,,,,,,,,,b,1,0.6171694351869519,1830.517517004133,None,,,,,001,80,2019_Oct_30_1459,ACPT_experiment_5_30_19,3.1.0,59.952294773985926,
,,,C,U,y,n,,,,,,,,,,5,11,111,17,,,,,,,,,,,,,b,0,0.8170858785706514,1834.4542421886035,None,,,,,001,80,2019_Oct_30_1459,ACPT_experiment_5_30_19,3.1.0,59.952294773985926,
,,,C,D,g,b,,,,,,,,,,5,12,112,1,,,,,,,,,,,,,b,1,1.2009651271910116,1838.5572643540472,None,,,,,001,80,2019_Oct_30_1459,ACPT_experiment_5_30_19,3.1.0,59.952294773985926,
,,,C,G,g,v,,,,,,,,,,5,13,113,19,,,,,,,,,,,,,v,1,1.1340271631415817,1843.061105301862,None,,,,,001,80,2019_Oct_30_1459,ACPT_experiment_5_30_19,3.1.0,59.952294773985926,
,,,C,U,d,n,,,,,,,,,,5,14,114,15,,,,,,,,,,,,,n,1,0.8507255660297233,1847.481022868189,None,,,,,001,80,2019_Oct_30_1459,ACPT_experiment_5_30_19,3.1.0,59.952294773985926,
,,,C,D,g,b,,,,,,,,,,5,15,115,10,,,,,,,,,,,,,b,1,1.0339080466728774,1851.6346299903053,None,,,,,001,80,2019_Oct_30_1459,ACPT_experiment_5_30_19,3.1.0,59.952294773985926,
,,,C,U,y,n,,,,,,,,,,5,16,116,8,,,,,,,,,,,,,n,1,1.1008777066854236,1855.9544900209003,None,,,,,001,80,2019_Oct_30_1459,ACPT_experiment_5_30_19,3.1.0,59.952294773985926,
,,,C,G,g,v,,,,,,,,,,5,17,117,4,,,,,,,,,,,,,v,1,1.517471120445407,1860.3584059523237,None,,,,,001,80,2019_Oct_30_1459,ACPT_experiment_5_30_19,3.1.0,59.952294773985926,
,,,C,G,y,b,,,,,,,,,,5,18,118,14,,,,,,,,,,,,,b,1,1.6680130913409812,1865.145144600032,None,,,,,001,80,2019_Oct_30_1459,ACPT_experiment_5_30_19,3.1.0,59.952294773985926,
,,,C,D,d,v,,,,,,,,,,5,19,119,9,0,0,0,0,0,0,0,0,,,,,v,1,2.0183009511201817,1870.0991012230406,None,,,,,001,80,2019_Oct_30_1459,ACPT_experiment_5_30_19,3.1.0,59.952294773985926,
,,,C,D,d,v,R,U,g,R,u,,,,,5,19,119,9,0,0,0,0,,,,,0,0,0,11,,,,,,up,2.10166980406575,1963.8739701828454,None,001,80,2019_Oct_30_1459,ACPT_experiment_5_30_19,3.1.0,59.952294773985926,
,,,C,D,d,v,L,U,y,R,u,,,,,5,19,119,9,0,0,0,0,,,,,0,1,1,25,,,,,,down,0.8340039798058569,1967.276662046097,None,001,80,2019_Oct_30_1459,ACPT_experiment_5_30_19,3.1.0,59.952294773985926,
,,,C,D,d,v,L,D,y,R,y,,,,,5,19,119,9,0,0,0,0,,,,,0,2,2,33,,,,,,down,0.8173104671550391,1969.4117176679974,None,001,80,2019_Oct_30_1459,ACPT_experiment_5_30_19,3.1.0,59.952294773985926,
,,,C,D,d,v,L,G,y,R,y,,,,,5,19,119,9,0,0,0,0,,,,,0,3,3,35,,,,,,down,0.83400337607236,1971.513392301924,None,001,80,2019_Oct_30_1459,ACPT_experiment_5_30_19,3.1.0,59.952294773985926,
,,,C,D,d,v,L,G,g,L,c ,,,,,5,19,119,9,0,0,0,0,,,,,0,4,4,18,,,,,,up,0.8840419545958866,1973.6150654265184,None,001,80,2019_Oct_30_1459,ACPT_experiment_5_30_19,3.1.0,59.952294773985926,
,,,C,D,d,v,L,G,g,R,c ,,,,,5,19,119,9,0,0,0,0,,,,,0,5,5,19,,,,,,up,0.7507525528817496,1975.7666346487058,None,001,80,2019_Oct_30_1459,ACPT_experiment_5_30_19,3.1.0,59.952294773985926,
,,,C,D,d,v,R,D,d,L,c,,,,,5,19,119,9,0,0,0,0,,,,,0,6,6,0,,,,,,up,1.0675619218527572,1977.8017438216993,None,001,80,2019_Oct_30_1459,ACPT_experiment_5_30_19,3.1.0,59.952294773985926,
,,,C,D,d,v,L,D,g,L,i,,,,,5,19,119,9,0,0,0,0,,,,,0,7,7,14,,,,,,up,1.0008198690884456,1980.1536001791865,None,001,80,2019_Oct_30_1459,ACPT_experiment_5_30_19,3.1.0,59.952294773985926,
,,,C,D,d,v,L,G,d,R,i,,,,,5,19,119,9,0,0,0,0,,,,,0,8,8,17,,,,,,up,1.2343207583871845,1982.4387787814485,None,001,80,2019_Oct_30_1459,ACPT_experiment_5_30_19,3.1.0,59.952294773985926,
,,,C,D,d,v,R,G,g,R,c ,,,,,5,19,119,9,0,0,0,0,,,,,0,9,9,7,,,,,,up,0.8506727394124027,1984.9574576692794,None,001,80,2019_Oct_30_1459,ACPT_experiment_5_30_19,3.1.0,59.952294773985926,
,,,C,D,d,v,R,G,d,L,i,,,,,5,19,119,9,0,0,0,0,,,,,0,10,10,4,,,,,,up,0.7840351324157382,1987.0757938180177,None,001,80,2019_Oct_30_1459,ACPT_experiment_5_30_19,3.1.0,59.952294773985926,
,,,C,D,d,v,R,D,y,R,y,,,,,5,19,119,9,0,0,0,0,,,,,0,11,11,27,,,,,,down,0.6338412134537066,1989.1441273103337,None,001,80,2019_Oct_30_1459,ACPT_experiment_5_30_19,3.1.0,59.952294773985926,
,,,C,D,d,v,R,D,g,L,i,,,,,5,19,119,9,0,0,0,0,,,,,0,12,12,2,,,,,,up,0.6338363835930068,1991.0623302756285,None,001,80,2019_Oct_30_1459,ACPT_experiment_5_30_19,3.1.0,59.952294773985926,
,,,C,D,d,v,R,D,d,R,c ,,,,,5,19,119,9,0,0,0,0,,,,,0,13,13,1,,,,,,up,0.9007387877754809,1992.9805287129275,None,001,80,2019_Oct_30_1459,ACPT_experiment_5_30_19,3.1.0,59.952294773985926,
,,,C,D,d,v,L,G,y,L,y,,,,,5,19,119,9,0,0,0,0,,,,,0,14,14,34,,,,,,down,0.650532613039104,1995.165587293115,None,001,80,2019_Oct_30_1459,ACPT_experiment_5_30_19,3.1.0,59.952294773985926,
,,,C,D,d,v,R,D,g,R,i,,,,,5,19,119,9,0,0,0,0,,,,,0,15,15,3,,,,,,up,0.7005660598333634,1997.1004768281346,None,001,80,2019_Oct_30_1459,ACPT_experiment_5_30_19,3.1.0,59.952294773985926,
,,,C,D,d,v,R,G,g,L,c ,,,,,5,19,119,9,0,0,0,0,,,,,0,16,16,6,,,,,,up,0.7005588150386757,1999.0854016211451,None,001,80,2019_Oct_30_1459,ACPT_experiment_5_30_19,3.1.0,59.952294773985926,
,,,C,D,d,v,R,U,y,L,u,,,,,5,19,119,9,0,0,0,0,,,,,0,17,17,30,,,,,,down,0.6838834143745771,2001.070319169361,None,001,80,2019_Oct_30_1459,ACPT_experiment_5_30_19,3.1.0,59.952294773985926,
,,,C,D,d,v,L,D,y,L,y,,,,,5,19,119,9,0,0,0,0,,,,,0,18,18,32,,,,,,down,0.6838800938458007,2003.038555883315,None,001,80,2019_Oct_30_1459,ACPT_experiment_5_30_19,3.1.0,59.952294773985926,
,,,C,D,d,v,L,U,d,L,u,,,,,5,19,119,9,0,0,0,0,,,,,0,19,19,20,,,,,,up,0.8006531784703839,2005.006775390888,None,001,80,2019_Oct_30_1459,ACPT_experiment_5_30_19,3.1.0,59.952294773985926,
,,,C,D,d,v,R,U,d,R,u,,,,,5,19,119,9,0,0,0,0,,,,,0,20,20,9,,,,,,up,0.6171640015891171,2007.0917936417281,None,001,80,2019_Oct_30_1459,ACPT_experiment_5_30_19,3.1.0,59.952294773985926,
,,,C,D,d,v,L,D,g,R,i,,,,,5,19,119,9,0,0,0,0,,,,,0,21,21,15,,,,,,up,0.7172435735665204,2008.9933039999705,None,001,80,2019_Oct_30_1459,ACPT_experiment_5_30_19,3.1.0,59.952294773985926,
,,,C,D,d,v,R,U,d,L,u,,,,,5,19,119,9,0,0,0,0,,,,,0,22,22,8,,,,,,up,0.7005533814481169,2010.9949044955138,None,001,80,2019_Oct_30_1459,ACPT_experiment_5_30_19,3.1.0,59.952294773985926,
,,,C,D,d,v,L,U,g,L,u,,,,,5,19,119,9,0,0,0,0,,,,,0,23,23,22,,,,,,up,0.6838794901123038,2012.9798262698605,None,001,80,2019_Oct_30_1459,ACPT_experiment_5_30_19,3.1.0,59.952294773985926,
,,,C,D,d,v,R,D,y,L,y,,,,,5,19,119,9,0,0,0,0,,,,,0,24,24,26,,,,,,down,0.7505813946481794,2014.9647501572726,None,001,80,2019_Oct_30_1459,ACPT_experiment_5_30_19,3.1.0,59.952294773985926,
,,,C,D,d,v,L,U,d,R,u,,,,,5,19,119,9,0,0,0,0,,,,,0,25,25,21,,,,,,up,0.6338243089376192,2017.0330634245402,None,001,80,2019_Oct_30_1459,ACPT_experiment_5_30_19,3.1.0,59.952294773985926,
,,,C,D,d,v,R,U,y,R,u,,,,,5,19,119,9,0,0,0,0,,,,,0,26,26,31,,,,,,down,0.717226669050433,2019.0012965161004,None,001,80,2019_Oct_30_1459,ACPT_experiment_5_30_19,3.1.0,59.952294773985926,
,,,C,D,d,v,L,D,d,L,c ,,,,,5,19,119,9,0,0,0,0,,,,,0,27,27,12,,,,,,up,0.5671326678602782,2021.0195509797995,None,001,80,2019_Oct_30_1459,ACPT_experiment_5_30_19,3.1.0,59.952294773985926,
,,,C,D,d,v,L,G,d,L,i,,,,,5,19,119,9,0,0,0,0,,,,,0,28,28,16,,,,,,up,0.6505114823921758,2022.8710511349564,None,001,80,2019_Oct_30_1459,ACPT_experiment_5_30_19,3.1.0,59.952294773985926,
,,,C,D,d,v,R,G,d,R,i,,,,,5,19,119,9,0,0,0,0,,,,,0,29,29,5,,,,,,up,1.0508312796373502,2024.805936443845,None,001,80,2019_Oct_30_1459,ACPT_experiment_5_30_19,3.1.0,59.952294773985926,
,,,C,D,d,v,R,G,y,R,y,,,,,5,19,119,9,0,0,0,0,,,,,0,30,30,29,,,,,,down,0.6671908073221857,2027.141124947324,None,001,80,2019_Oct_30_1459,ACPT_experiment_5_30_19,3.1.0,59.952294773985926,
,,,C,D,d,v,L,U,g,R,u,,,,,5,19,119,9,0,0,0,0,,,,,0,31,31,23,,,,,,up,0.7505862245088792,2029.0926883736756,None,001,80,2019_Oct_30_1459,ACPT_experiment_5_30_19,3.1.0,59.952294773985926,
,,,C,D,d,v,R,U,g,L,u,,,,,5,19,119,9,0,0,0,0,,,,,0,32,32,10,,,,,,up,0.7839838151303411,2031.1276417836198,None,001,80,2019_Oct_30_1459,ACPT_experiment_5_30_19,3.1.0,59.952294773985926,
,,,C,D,d,v,L,U,y,L,u,,,,,5,19,119,9,0,0,0,0,,,,,0,33,33,24,,,,,,down,0.5838288973063754,2033.1959589751532,None,001,80,2019_Oct_30_1459,ACPT_experiment_5_30_19,3.1.0,59.952294773985926,
,,,C,D,d,v,L,D,d,R,c ,,,,,5,19,119,9,0,0,0,0,,,,,0,34,34,13,,,,,,up,0.6336238696603687,2035.0810094653207,None,001,80,2019_Oct_30_1459,ACPT_experiment_5_30_19,3.1.0,59.952294773985926,
,,,C,D,d,v,R,G,y,L,y,,,,,5,19,119,9,0,0,0,0,,,,,0,35,35,28,,,,,,down,0.5837881453444425,2037.0156768266825,None,001,80,2019_Oct_30_1459,ACPT_experiment_5_30_19,3.1.0,59.952294773985926,
,,,C,D,d,v,L,U,d,L,u,,,,,5,19,119,9,0,0,0,0,,,,,1,0,36,20,,,,,,up,0.600475922536134,2038.900512991724,None,001,80,2019_Oct_30_1459,ACPT_experiment_5_30_19,3.1.0,59.952294773985926,
,,,C,D,d,v,L,U,g,L,u,,,,,5,19,119,9,0,0,0,0,,,,,1,1,37,22,,,,,,up,0.5838322178387898,2040.7686480974553,None,001,80,2019_Oct_30_1459,ACPT_experiment_5_30_19,3.1.0,59.952294773985926,
,,,C,D,d,v,L,U,y,L,u,,,,,5,19,119,9,0,0,0,0,,,,,1,2,38,24,,,,,,down,0.6004750169340696,2042.6368176159558,None,001,80,2019_Oct_30_1459,ACPT_experiment_5_30_19,3.1.0,59.952294773985926,
,,,C,D,d,v,L,G,g,L,c ,,,,,5,19,119,9,0,0,0,0,,,,,1,3,39,18,,,,,,up,0.5337897150493518,2044.538343671251,None,001,80,2019_Oct_30_1459,ACPT_experiment_5_30_19,3.1.0,59.952294773985926,
,,,C,D,d,v,R,U,y,L,u,,,,,5,19,119,9,0,0,0,0,,,,,1,4,40,30,,,,,,down,0.60047712999949,2046.3564598197736,None,001,80,2019_Oct_30_1459,ACPT_experiment_5_30_19,3.1.0,59.952294773985926,
,,,C,D,d,v,L,U,g,R,u,,,,,5,19,119,9,0,0,0,0,,,,,1,5,41,23,,,,,,up,0.5502209058140579,2048.2581983890013,None,001,80,2019_Oct_30_1459,ACPT_experiment_5_30_19,3.1.0,59.952294773985926,
,,,C,D,d,v,R,G,d,R,i,,,,,5,19,119,9,0,0,0,0,,,,,1,6,42,5,,,,,,up,0.6505081618597615,2050.092807309029,None,001,80,2019_Oct_30_1459,ACPT_experiment_5_30_19,3.1.0,59.952294773985926,
,,,C,D,d,v,R,G,g,R,c ,,,,,5,19,119,9,0,0,0,0,,,,,1,7,43,7,,,,,,up,0.71723904557075,2052.027655488353,None,001,80,2019_Oct_30_1459,ACPT_experiment_5_30_19,3.1.0,59.952294773985926,
,,,C,D,d,v,R,G,y,R,y,,,,,5,19,119,9,0,0,0,0,,,,,1,8,44,29,,,,,,down,0.6171576623964938,2054.0459283659,None,001,80,2019_Oct_30_1459,ACPT_experiment_5_30_19,3.1.0,59.952294773985926,
,,,C,D,d,v,R,D,g,R,i,,,,,5,19,119,9,0,0,0,0,,,,,1,9,45,3,,,,,,up,0.7005476459853526,2055.964137066654,None,001,80,2019_Oct_30_1459,ACPT_experiment_5_30_19,3.1.0,59.952294773985926,
,,,C,D,d,v,L,G,d,L,i,,,,,5,19,119,9,0,0,0,0,,,,,1,10,46,16,,,,,,up,0.617113288037217,2057.949091744438,None,001,80,2019_Oct_30_1459,ACPT_experiment_5_30_19,3.1.0,59.952294773985926,
,,,C,D,d,v,L,G,d,R,i,,,,,5,19,119,9,0,0,0,0,,,,,1,11,47,17,,,,,,up,0.600504901707609,2059.8338587820763,None,001,80,2019_Oct_30_1459,ACPT_experiment_5_30_19,3.1.0,59.952294773985926,
,,,C,D,d,v,L,D,g,R,i,,,,,5,19,119,9,0,0,0,0,,,,,1,12,48,15,,,,,,up,0.6505223495842074,2061.7187193982973,None,001,80,2019_Oct_30_1459,ACPT_experiment_5_30_19,3.1.0,59.952294773985926,
,,,C,D,d,v,R,U,g,L,u,,,,,5,19,119,9,0,0,0,0,,,,,1,13,49,10,,,,,,up,0.5003960486901633,2063.6536001791865,None,001,80,2019_Oct_30_1459,ACPT_experiment_5_30_19,3.1.0,59.952294773985926,
,,,C,D,d,v,R,D,y,L,y,,,,,5,19,119,9,0,0,0,0,,,,,1,14,50,26,,,,,,down,0.6338529862441646,2065.4383398677346,None,001,80,2019_Oct_30_1459,ACPT_experiment_5_30_19,3.1.0,59.952294773985926,
,,,C,D,d,v,R,U,g,R,u,,,,,5,19,119,9,0,0,0,0,,,,,1,15,51,11,,,,,,up,0.6002009222611377,2067.3735059123537,None,001,80,2019_Oct_30_1459,ACPT_experiment_5_30_19,3.1.0,59.952294773985926,
,,,C,D,d,v,R,U,d,R,u,,,,,5,19,119,9,0,0,0,0,,,,,1,16,52,9,,,,,,up,0.5170783922840201,2069.2413910727264,None,001,80,2019_Oct_30_1459,ACPT_experiment_5_30_19,3.1.0,59.952294773985926,
,,,C,D,d,v,L,D,d,R,c ,,,,,5,19,119,9,0,0,0,0,,,,,1,17,53,13,,,,,,up,0.5170850333415729,2071.0261440433933,None,001,80,2019_Oct_30_1459,ACPT_experiment_5_30_19,3.1.0,59.952294773985926,
,,,C,D,d,v,R,G,g,L,c ,,,,,5,19,119,9,0,0,0,0,,,,,1,18,54,6,,,,,,up,0.6338590235718584,2072.8275847912482,None,001,80,2019_Oct_30_1459,ACPT_experiment_5_30_19,3.1.0,59.952294773985926,
,,,C,D,d,v,L,D,d,L,c ,,,,,5,19,119,9,0,0,0,0,,,,,1,19,55,12,,,,,,up,0.6470768467261223,2074.765894170476,None,001,80,2019_Oct_30_1459,ACPT_experiment_5_30_19,3.1.0,59.952294773985926,
,,,C,D,d,v,R,G,y,L,y,,,,,5,19,119,9,0,0,0,0,,,,,1,20,56,28,,,,,,down,0.6670196490849776,2076.714164838362,None,001,80,2019_Oct_30_1459,ACPT_experiment_5_30_19,3.1.0,59.952294773985926,
,,,C,D,d,v,L,D,y,R,y,,,,,5,19,119,9,0,0,0,0,,,,,1,21,57,33,,,,,,down,0.6338825691491365,2078.682279598299,None,001,80,2019_Oct_30_1459,ACPT_experiment_5_30_19,3.1.0,59.952294773985926,
,,,C,D,d,v,R,U,d,L,u,,,,,5,19,119,9,0,0,0,0,,,,,1,22,58,8,,,,,,up,0.6505141991910932,2080.6004593198813,None,001,80,2019_Oct_30_1459,ACPT_experiment_5_30_19,3.1.0,59.952294773985926,
,,,C,D,d,v,R,D,d,R,c ,,,,,5,19,119,9,0,0,0,0,,,,,1,23,59,1,,,,,,up,0.8507035297843686,2082.535310819738,None,001,80,2019_Oct_30_1459,ACPT_experiment_5_30_19,3.1.0,59.952294773985926,
,,,C,D,d,v,L,G,g,R,c ,,,,,5,19,119,9,0,0,0,0,,,,,1,24,60,19,,,,,,up,0.6671847699944919,2084.6703833461543,None,001,80,2019_Oct_30_1459,ACPT_experiment_5_30_19,3.1.0,59.952294773985926,
,,,C,D,d,v,L,U,d,R,u,,,,,5,19,119,9,0,0,0,0,,,,,1,25,61,21,,,,,,up,0.6171437765442533,2086.6219458669075,None,001,80,2019_Oct_30_1459,ACPT_experiment_5_30_19,3.1.0,59.952294773985926,
,,,C,D,d,v,R,G,d,L,i,,,,,5,19,119,9,0,0,0,0,,,,,1,26,62,4,,,,,,up,0.8173023167655629,2088.523461960609,None,001,80,2019_Oct_30_1459,ACPT_experiment_5_30_19,3.1.0,59.952294773985926,
,,,C,D,d,v,R,U,y,R,u,,,,,5,19,119,9,0,0,0,0,,,,,1,27,63,31,,,,,,down,0.6671811476007861,2090.625145650527,None,001,80,2019_Oct_30_1459,ACPT_experiment_5_30_19,3.1.0,59.952294773985926,
,,,C,D,d,v,R,D,y,R,y,,,,,5,19,119,9,0,0,0,0,,,,,1,28,64,27,,,,,,down,0.7005802475541714,2092.5766598726623,None,001,80,2019_Oct_30_1459,ACPT_experiment_5_30_19,3.1.0,59.952294773985926,
,,,C,D,d,v,L,G,y,R,y,,,,,5,19,119,9,0,0,0,0,,,,,1,29,65,35,,,,,,down,0.5671462518475892,2094.5448950772843,None,001,80,2019_Oct_30_1459,ACPT_experiment_5_30_19,3.1.0,59.952294773985926,
,,,C,D,d,v,R,D,d,L,c,,,,,5,19,119,9,0,0,0,0,,,,,1,30,66,0,,,,,,up,0.5671365921189135,2096.396376818593,None,001,80,2019_Oct_30_1459,ACPT_experiment_5_30_19,3.1.0,59.952294773985926,
,,,C,D,d,v,R,D,g,L,i,,,,,5,19,119,9,0,0,0,0,,,,,1,31,67,2,,,,,,up,0.5671160652054823,2098.2478739550897,None,001,80,2019_Oct_30_1459,ACPT_experiment_5_30_19,3.1.0,59.952294773985926,
,,,C,D,d,v,L,D,g,L,i,,,,,5,19,119,9,0,0,0,0,,,,,1,32,68,14,,,,,,up,0.5668510265277291,2100.0996195276166,None,001,80,2019_Oct_30_1459,ACPT_experiment_5_30_19,3.1.0,59.952294773985926,
,,,C,D,d,v,L,U,y,R,u,,,,,5,19,119,9,0,0,0,0,,,,,1,33,69,25,,,,,,down,0.6504544296476524,2101.9675683817914,None,001,80,2019_Oct_30_1459,ACPT_experiment_5_30_19,3.1.0,59.952294773985926,
,,,C,D,d,v,L,G,y,L,y,,,,,5,19,119,9,0,0,0,0,,,,,1,34,70,34,,,,,,down,0.4002965535291878,2103.9190813964597,None,001,80,2019_Oct_30_1459,ACPT_experiment_5_30_19,3.1.0,59.952294773985926,
,,,C,D,d,v,L,D,y,L,y,,,,,5,19,119,9,0,0,0,0,,,,,1,35,71,32,,,,,,down,0.5504406645413837,2105.6037457391576,None,001,80,2019_Oct_30_1459,ACPT_experiment_5_30_19,3.1.0,59.952294773985926,
,,,C,D,d,v,,,,,,,,,,5,19,119,9,1,0,1,0,0,0,0,0,,,,,,,,,,,,,,001,80,2019_Oct_30_1459,ACPT_experiment_5_30_19,3.1.0,59.952294773985926,
,,,C,D,d,v,L,D,y,L,y,,,,,5,19,119,9,1,0,1,0,,,,,0,0,0,32,,,,,,down,0.6171643034540466,2115.1613705216623,None,001,80,2019_Oct_30_1459,ACPT_experiment_5_30_19,3.1.0,59.952294773985926,
,,,C,D,d,v,L,G,g,L,c ,,,,,5,19,119,9,1,0,1,0,,,,,0,1,1,18,,,,,,up,0.7672830576884735,2117.0628887284292,None,001,80,2019_Oct_30_1459,ACPT_experiment_5_30_19,3.1.0,59.952294773985926,
,,,C,D,d,v,R,G,g,R,c ,,,,,5,19,119,9,1,0,1,0,,,,,0,2,2,7,,,,,,up,0.6004873934543866,2119.1145338398237,None,001,80,2019_Oct_30_1459,ACPT_experiment_5_30_19,3.1.0,59.952294773985926,
,,,C,D,d,v,L,U,g,R,u,,,,,5,19,119,9,1,0,1,0,,,,,0,3,3,23,,,,,,up,0.5337767347955378,2120.999366080603,None,001,80,2019_Oct_30_1459,ACPT_experiment_5_30_19,3.1.0,59.952294773985926,
,,,C,D,d,v,L,U,y,R,u,,,,,5,19,119,9,1,0,1,0,,,,,0,4,4,25,,,,,,down,0.5671541003721359,2122.800785697811,None,001,80,2019_Oct_30_1459,ACPT_experiment_5_30_19,3.1.0,59.952294773985926,
,,,C,D,d,v,R,U,g,R,u,,,,,5,19,119,9,1,0,1,0,,,,,0,5,5,11,,,,,,up,0.5170826184112229,2124.6522816268443,None,001,80,2019_Oct_30_1459,ACPT_experiment_5_30_19,3.1.0,59.952294773985926,
,,,C,D,d,v,R,U,g,L,u,,,,,5,19,119,9,1,0,1,0,,,,,0,6,6,10,,,,,,up,0.6505380466333008,2126.4370189004585,None,001,80,2019_Oct_30_1459,ACPT_experiment_5_30_19,3.1.0,59.952294773985926,
,,,C,D,d,v,R,G,d,L,i,,,,,5,19,119,9,1,0,1,0,,,,,0,7,7,4,,,,,,down,0.49708366890990874,2128.391913422307,None,001,80,2019_Oct_30_1459,ACPT_experiment_5_30_19,3.1.0,59.952294773985926,
,,,C,D,d,v,L,G,d,R,i,,,,,5,19,119,9,1,0,1,0,,,,,0,8,8,17,,,,,,down,0.7172194242557453,2130.1733793699677,None,001,80,2019_Oct_30_1459,ACPT_experiment_5_30_19,3.1.0,59.952294773985926,
,,,C,D,d,v,L,D,g,R,i,,,,,5,19,119,9,1,0,1,0,,,,,0,9,9,15,,,,,,up,0.8173152970193769,2132.1749566218023,None,001,80,2019_Oct_30_1459,ACPT_experiment_5_30_19,3.1.0,59.952294773985926,
,,,C,D,d,v,R,D,y,L,y,,,,,5,19,119,9,1,0,1,0,,,,,0,10,10,26,,,,,,down,0.7005588150423137,2134.276633670659,None,001,80,2019_Oct_30_1459,ACPT_experiment_5_30_19,3.1.0,59.952294773985926,
,,,C,D,d,v,R,U,y,R,u,,,,,5,19,119,9,1,0,1,0,,,,,0,11,11,31,,,,,,down,0.6338448358510504,2136.2448667622193,None,001,80,2019_Oct_30_1459,ACPT_experiment_5_30_19,3.1.0,59.952294773985926,
,,,C,D,d,v,L,U,y,L,u,,,,,5,19,119,9,1,0,1,0,,,,,0,12,12,24,,,,,,down,0.6671923166541092,2138.1463885913836,None,001,80,2019_Oct_30_1459,ACPT_experiment_5_30_19,3.1.0,59.952294773985926,
,,,C,D,d,v,L,G,g,R,c ,,,,,5,19,119,9,1,0,1,0,,,,,0,13,13,19,,,,,,up,0.6171839247690514,2140.097918812433,None,001,80,2019_Oct_30_1459,ACPT_experiment_5_30_19,3.1.0,59.952294773985926,
,,,C,D,d,v,L,U,d,R,u,,,,,5,19,119,9,1,0,1,0,,,,,0,14,14,21,,,,,,up,0.5838089741228032,2141.999454829318,None,001,80,2019_Oct_30_1459,ACPT_experiment_5_30_19,3.1.0,59.952294773985926,
,,,C,D,d,v,L,D,y,R,y,,,,,5,19,119,9,1,0,1,0,,,,,0,15,15,33,,,,,,down,0.7339144462384866,2143.8676198198227,None,001,80,2019_Oct_30_1459,ACPT_experiment_5_30_19,3.1.0,59.952294773985926,
,,,C,D,d,v,L,D,d,R,c ,,,,,5,19,119,9,1,0,1,0,,,,,0,16,16,13,,,,,,up,0.8006275198276853,2145.885899942161,None,001,80,2019_Oct_30_1459,ACPT_experiment_5_30_19,3.1.0,59.952294773985926,
,,,C,D,d,v,L,U,g,L,u,,,,,5,19,119,9,1,0,1,0,,,,,0,17,17,22,,,,,,up,0.6171492101384501,2147.9708985716898,None,001,80,2019_Oct_30_1459,ACPT_experiment_5_30_19,3.1.0,59.952294773985926,
,,,C,D,d,v,R,D,g,L,i,,,,,5,19,119,9,1,0,1,0,,,,,0,18,18,2,,,,,,up,0.5337562078821065,2149.8724110429976,None,001,80,2019_Oct_30_1459,ACPT_experiment_5_30_19,3.1.0,59.952294773985926,
,,,C,D,d,v,L,G,d,L,i,,,,,5,19,119,9,1,0,1,0,,,,,0,19,19,16,,,,,,up,0.8840845177583105,2151.690502136611,None,001,80,2019_Oct_30_1459,ACPT_experiment_5_30_19,3.1.0,59.952294773985926,
,,,C,D,d,v,R,G,d,R,i,,,,,5,19,119,9,1,0,1,0,,,,,0,20,20,5,,,,,,up,0.7639459248675848,2153.8789310549255,None,001,80,2019_Oct_30_1459,ACPT_experiment_5_30_19,3.1.0,59.952294773985926,
,,,C,D,d,v,L,D,g,L,i,,,,,5,19,119,9,1,0,1,0,,,,,0,21,21,14,,,,,,up,0.550460587721318,2155.927245070823,None,001,80,2019_Oct_30_1459,ACPT_experiment_5_30_19,3.1.0,59.952294773985926,
,,,C,D,d,v,R,U,y,L,u,,,,,5,19,119,9,1,0,1,0,,,,,0,22,22,30,,,,,,down,0.600476526265993,2157.7620411480093,None,001,80,2019_Oct_30_1459,ACPT_experiment_5_30_19,3.1.0,59.952294773985926,
,,,C,D,d,v,R,D,g,R,i,,,,,5,19,119,9,1,0,1,0,,,,,0,23,23,3,,,,,,up,0.6505440839646326,2159.6468528618752,None,001,80,2019_Oct_30_1459,ACPT_experiment_5_30_19,3.1.0,59.952294773985926,
,,,C,D,d,v,R,U,d,L,u,,,,,5,19,119,9,1,0,1,0,,,,,0,24,24,8,,,,,,up,0.650504841334623,2161.581770470464,None,001,80,2019_Oct_30_1459,ACPT_experiment_5_30_19,3.1.0,59.952294773985926,
,,,C,D,d,v,R,U,d,R,u,,,,,5,19,119,9,1,0,1,0,,,,,0,25,25,9,,,,,,up,0.6005218062236963,2163.516627102046,None,001,80,2019_Oct_30_1459,ACPT_experiment_5_30_19,3.1.0,59.952294773985926,
,,,C,D,d,v,R,D,d,L,c,,,,,5,19,119,9,1,0,1,0,,,,,0,26,26,0,,,,,,up,0.5004217073328618,2165.4014442495063,None,001,80,2019_Oct_30_1459,ACPT_experiment_5_30_19,3.1.0,59.952294773985926,
,,,C,D,d,v,R,D,y,R,y,,,,,5,19,119,9,1,0,1,0,,,,,0,27,27,27,,,,,,down,0.667156998290011,2167.219602961188,None,001,80,2019_Oct_30_1459,ACPT_experiment_5_30_19,3.1.0,59.952294773985926,
,,,C,D,d,v,R,G,y,R,y,,,,,5,19,119,9,1,0,1,0,,,,,0,28,28,29,,,,,,down,0.6838683210553427,2169.1878297135518,None,001,80,2019_Oct_30_1459,ACPT_experiment_5_30_19,3.1.0,59.952294773985926,
,,,C,D,d,v,L,U,d,L,u,,,,,5,19,119,9,1,0,1,0,,,,,0,29,29,20,,,,,,up,1.384434380888706,2171.156065823776,None,001,80,2019_Oct_30_1459,ACPT_experiment_5_30_19,3.1.0,59.952294773985926,
,,,C,D,d,v,L,G,y,R,y,,,,,5,19,119,9,1,0,1,0,,,,,0,30,30,35,,,,,,down,0.6839078655502817,2173.824836599728,None,001,80,2019_Oct_30_1459,ACPT_experiment_5_30_19,3.1.0,59.952294773985926,
,,,C,D,d,v,R,G,g,L,c ,,,,,5,19,119,9,1,0,1,0,,,,,0,31,31,6,,,,,,up,0.5838053517290973,2175.793094142464,None,001,80,2019_Oct_30_1459,ACPT_experiment_5_30_19,3.1.0,59.952294773985926,
,,,C,D,d,v,L,D,d,L,c ,,,,,5,19,119,9,1,0,1,0,,,,,0,32,32,12,,,,,,up,0.8840168996866851,2177.661275433751,None,001,80,2019_Oct_30_1459,ACPT_experiment_5_30_19,3.1.0,59.952294773985926,
,,,C,D,d,v,R,D,d,R,c ,,,,,5,19,119,9,1,0,1,0,,,,,0,33,33,1,,,,,,up,0.5338117512983445,2179.8296486516847,None,001,80,2019_Oct_30_1459,ACPT_experiment_5_30_19,3.1.0,59.952294773985926,
,,,C,D,d,v,R,G,y,L,y,,,,,5,19,119,9,1,0,1,0,,,,,0,34,34,28,,,,,,down,0.6837608566238487,2181.6477750636623,None,001,80,2019_Oct_30_1459,ACPT_experiment_5_30_19,3.1.0,59.952294773985926,
,,,C,D,d,v,L,G,y,L,y,,,,,5,19,119,9,1,0,1,0,,,,,0,35,35,34,,,,,,down,0.6505446876944916,2183.615989137641,None,001,80,2019_Oct_30_1459,ACPT_experiment_5_30_19,3.1.0,59.952294773985926,
,,,C,D,d,v,R,U,g,L,u,,,,,5,19,119,9,1,0,1,0,,,,,1,0,36,10,,,,,,up,0.6004970531830622,2185.5508650886695,None,001,80,2019_Oct_30_1459,ACPT_experiment_5_30_19,3.1.0,59.952294773985926,
,,,C,D,d,v,R,U,d,R,u,,,,,5,19,119,9,1,0,1,0,,,,,1,1,37,9,,,,,,up,0.5671390070529014,2187.4190201175843,None,001,80,2019_Oct_30_1459,ACPT_experiment_5_30_19,3.1.0,59.952294773985926,
,,,C,D,d,v,L,G,d,L,i,,,,,5,19,119,9,1,0,1,0,,,,,1,2,38,16,,,,,,up,0.7172894572577206,2189.2705208764746,None,001,80,2019_Oct_30_1459,ACPT_experiment_5_30_19,3.1.0,59.952294773985926,
,,,C,D,d,v,R,D,y,L,y,,,,,5,19,119,9,1,0,1,0,,,,,1,3,39,26,,,,,,down,0.6503068169877224,2191.289021965007,None,001,80,2019_Oct_30_1459,ACPT_experiment_5_30_19,3.1.0,59.952294773985926,
,,,C,D,d,v,L,D,d,L,c ,,,,,5,19,119,9,1,0,1,0,,,,,1,4,40,12,,,,,,up,0.500255680821283,2193.240491209046,None,001,80,2019_Oct_30_1459,ACPT_experiment_5_30_19,3.1.0,59.952294773985926,
,,,C,D,d,v,L,G,d,R,i,,,,,5,19,119,9,1,0,1,0,,,,,1,5,41,17,,,,,,up,0.500431668922829,2195.025092039061,None,001,80,2019_Oct_30_1459,ACPT_experiment_5_30_19,3.1.0,59.952294773985926,
,,,C,D,d,v,L,D,g,L,i,,,,,5,19,119,9,1,0,1,0,,,,,1,6,42,14,,,,,,up,0.6671998633173644,2196.8098736870306,None,001,80,2019_Oct_30_1459,ACPT_experiment_5_30_19,3.1.0,59.952294773985926,
,,,C,D,d,v,L,U,g,R,u,,,,,5,19,119,9,1,0,1,0,,,,,1,7,43,23,,,,,,up,0.917398491394124,2198.761431377923,None,001,80,2019_Oct_30_1459,ACPT_experiment_5_30_19,3.1.0,59.952294773985926,
,,,C,D,d,v,L,U,y,R,u,,,,,5,19,119,9,1,0,1,0,,,,,1,8,44,25,,,,,,down,0.6505253682480543,2200.963182263298,None,001,80,2019_Oct_30_1459,ACPT_experiment_5_30_19,3.1.0,59.952294773985926,
,,,C,D,d,v,L,G,y,L,y,,,,,5,19,119,9,1,0,1,0,,,,,1,9,45,34,,,,,,down,0.7839557415572926,2202.8980488564703,None,001,80,2019_Oct_30_1459,ACPT_experiment_5_30_19,3.1.0,59.952294773985926,
,,,C,D,d,v,R,G,d,L,i,,,,,5,19,119,9,1,0,1,0,,,,,1,10,46,4,,,,,,up,0.7505961860988464,2204.966379933856,None,001,80,2019_Oct_30_1459,ACPT_experiment_5_30_19,3.1.0,59.952294773985926,
,,,C,D,d,v,R,D,d,R,c ,,,,,5,19,119,9,1,0,1,0,,,,,1,11,47,1,,,,,,up,0.4837197424240003,2207.0013342493985,None,001,80,2019_Oct_30_1459,ACPT_experiment_5_30_19,3.1.0,59.952294773985926,
,,,C,D,d,v,L,D,d,R,c ,,,,,5,19,119,9,1,0,1,0,,,,,1,12,48,13,,,,,,up,0.5337604340129474,2208.7694148380615,None,001,80,2019_Oct_30_1459,ACPT_experiment_5_30_19,3.1.0,59.952294773985926,
,,,C,D,d,v,R,U,d,L,u,,,,,5,19,119,9,1,0,1,0,,,,,1,13,49,8,,,,,,up,0.5170608840344357,2210.604226310432,None,001,80,2019_Oct_30_1459,ACPT_experiment_5_30_19,3.1.0,59.952294773985926,
,,,C,D,d,v,L,U,d,R,u,,,,,5,19,119,9,1,0,1,0,,,,,1,14,50,21,,,,,,up,0.6004804505319044,2212.4056498519058,None,001,80,2019_Oct_30_1459,ACPT_experiment_5_30_19,3.1.0,59.952294773985926,
,,,C,D,d,v,L,U,d,L,u,,,,,5,19,119,9,1,0,1,0,,,,,1,15,51,20,,,,,,up,0.4670594350754982,2214.2737900893662,None,001,80,2019_Oct_30_1459,ACPT_experiment_5_30_19,3.1.0,59.952294773985926,
,,,C,D,d,v,R,U,y,R,u,,,,,5,19,119,9,1,0,1,0,,,,,1,16,52,31,,,,,,down,0.6338484582483943,2216.0252082576153,None,001,80,2019_Oct_30_1459,ACPT_experiment_5_30_19,3.1.0,59.952294773985926,
,,,C,D,d,v,R,D,y,R,y,,,,,5,19,119,9,1,0,1,0,,,,,1,17,53,27,,,,,,down,0.6171570586629969,2217.9600875291762,None,001,80,2019_Oct_30_1459,ACPT_experiment_5_30_19,3.1.0,59.952294773985926,
,,,C,D,d,v,L,D,g,R,i,,,,,5,19,119,9,1,0,1,0,,,,,1,18,54,15,,,,,,up,0.5837745613571315,2219.8782980411306,None,001,80,2019_Oct_30_1459,ACPT_experiment_5_30_19,3.1.0,59.952294773985926,
,,,C,D,d,v,L,D,y,R,y,,,,,5,19,119,9,1,0,1,0,,,,,1,19,55,33,,,,,,down,0.6171685295848874,2221.746427109534,None,001,80,2019_Oct_30_1459,ACPT_experiment_5_30_19,3.1.0,59.952294773985926,
,,,C,D,d,v,R,G,g,L,c ,,,,,5,19,119,9,1,0,1,0,,,,,1,20,56,6,,,,,,up,0.6171413616102654,2223.6813308322708,None,001,80,2019_Oct_30_1459,ACPT_experiment_5_30_19,3.1.0,59.952294773985926,
,,,C,D,d,v,R,G,y,R,y,,,,,5,19,119,9,1,0,1,0,,,,,1,21,57,29,,,,,,down,0.6171187216314138,2225.582832738255,None,001,80,2019_Oct_30_1459,ACPT_experiment_5_30_19,3.1.0,59.952294773985926,
,,,C,D,d,v,L,G,g,L,c ,,,,,5,19,119,9,1,0,1,0,,,,,1,22,58,18,,,,,,up,0.5170741661531792,2227.501034496083,None,001,80,2019_Oct_30_1459,ACPT_experiment_5_30_19,3.1.0,59.952294773985926,
,,,C,D,d,v,L,U,y,L,u,,,,,5,19,119,9,1,0,1,0,,,,,1,23,59,24,,,,,,down,0.5672093419161683,2229.3024501890286,None,001,80,2019_Oct_30_1459,ACPT_experiment_5_30_19,3.1.0,59.952294773985926,
,,,C,D,d,v,R,U,y,L,u,,,,,5,19,119,9,1,0,1,0,,,,,1,24,60,30,,,,,,down,0.8340003574085131,2231.1539494385906,None,001,80,2019_Oct_30_1459,ACPT_experiment_5_30_19,3.1.0,59.952294773985926,
,,,C,D,d,v,L,G,y,R,y,,,,,5,19,119,9,1,0,1,0,,,,,1,25,61,35,,,,,,down,0.5504436832015926,2233.2556210538532,None,001,80,2019_Oct_30_1459,ACPT_experiment_5_30_19,3.1.0,59.952294773985926,
,,,C,D,d,v,R,D,g,L,i,,,,,5,19,119,9,1,0,1,0,,,,,1,26,62,2,,,,,,up,0.5337498686894833,2235.0904270926294,None,001,80,2019_Oct_30_1459,ACPT_experiment_5_30_19,3.1.0,59.952294773985926,
,,,C,D,d,v,L,U,g,L,u,,,,,5,19,119,9,1,0,1,0,,,,,1,27,63,22,,,,,,up,0.4834477608164889,2236.925491227161,None,001,80,2019_Oct_30_1459,ACPT_experiment_5_30_19,3.1.0,59.952294773985926,
,,,C,D,d,v,L,G,g,R,c ,,,,,5,19,119,9,1,0,1,0,,,,,1,28,64,19,,,,,,up,0.6171597754582763,2238.6933025510116,None,001,80,2019_Oct_30_1459,ACPT_experiment_5_30_19,3.1.0,59.952294773985926,
,,,C,D,d,v,R,G,y,L,y,,,,,5,19,119,9,1,0,1,0,,,,,1,29,65,28,,,,,,down,0.5004144625381741,2240.5947969103363,None,001,80,2019_Oct_30_1459,ACPT_experiment_5_30_19,3.1.0,59.952294773985926,
,,,C,D,d,v,R,D,g,R,i,,,,,5,19,119,9,1,0,1,0,,,,,1,30,66,3,,,,,,up,0.6505220477156399,2242.3795685967198,None,001,80,2019_Oct_30_1459,ACPT_experiment_5_30_19,3.1.0,59.952294773985926,
,,,C,D,d,v,L,D,y,L,y,,,,,5,19,119,9,1,0,1,0,,,,,1,31,67,32,,,,,,down,0.6171636997241876,2244.314453301875,None,001,80,2019_Oct_30_1459,ACPT_experiment_5_30_19,3.1.0,59.952294773985926,
,,,C,D,d,v,R,D,d,L,c,,,,,5,19,119,9,1,0,1,0,,,,,1,32,68,0,,,,,,up,0.8006558952693013,2246.215979055305,None,001,80,2019_Oct_30_1459,ACPT_experiment_5_30_19,3.1.0,59.952294773985926,
,,,C,D,d,v,R,G,g,R,c ,,,,,5,19,119,9,1,0,1,0,,,,,1,33,69,7,,,,,,up,0.5671263286640169,2248.3009616859126,None,001,80,2019_Oct_30_1459,ACPT_experiment_5_30_19,3.1.0,59.952294773985926,
,,,C,D,d,v,R,G,d,R,i,,,,,5,19,119,9,1,0,1,0,,,,,1,34,70,5,,,,,,up,0.48039619358678465,2250.1724405655295,None,001,80,2019_Oct_30_1459,ACPT_experiment_5_30_19,3.1.0,59.952294773985926,
,,,C,D,d,v,R,U,g,R,u,,,,,5,19,119,9,1,0,1,0,,,,,1,35,71,11,,,,,,up,0.6838822069075832,2251.9372012277527,None,001,80,2019_Oct_30_1459,ACPT_experiment_5_30_19,3.1.0,59.952294773985926,
,,,C,D,d,v,,,,,,,,,,5,19,119,9,2,0,2,0,0,0,0,0,,,,,,,,,,,,,,001,80,2019_Oct_30_1459,ACPT_experiment_5_30_19,3.1.0,59.952294773985926,
,,,C,D,d,v,L,D,y,L,y,,,,,5,19,119,9,2,0,2,0,,,,,0,0,0,32,,,,,,down,0.61670878708901,2260.310977310517,None,001,80,2019_Oct_30_1459,ACPT_experiment_5_30_19,3.1.0,59.952294773985926,
,,,C,D,d,v,L,G,y,L,y,,,,,5,19,119,9,2,0,2,0,,,,,0,1,1,34,,,,,,down,0.6338572123713675,2262.212051471841,None,001,80,2019_Oct_30_1459,ACPT_experiment_5_30_19,3.1.0,59.952294773985926,
,,,C,D,d,v,R,D,g,L,i,,,,,5,19,119,9,2,0,2,0,,,,,0,2,2,2,,,,,,up,0.5337658676071442,2264.13025987073,None,001,80,2019_Oct_30_1459,ACPT_experiment_5_30_19,3.1.0,59.952294773985926,
,,,C,D,d,v,R,G,d,R,i,,,,,5,19,119,9,2,0,2,0,,,,,0,3,3,5,,,,,,up,0.5838053517290973,2265.9483814528467,None,001,80,2019_Oct_30_1459,ACPT_experiment_5_30_19,3.1.0,59.952294773985926,
,,,C,D,d,v,L,G,y,R,y,,,,,5,19,119,9,2,0,2,0,,,,,0,4,4,35,,,,,,down,0.5337749235950469,2267.8165548956094,None,001,80,2019_Oct_30_1459,ACPT_experiment_5_30_19,3.1.0,59.952294773985926,
,,,C,D,d,v,L,D,d,L,c ,,,,,5,19,119,9,2,0,2,0,,,,,0,5,5,12,,,,,,up,0.6672025801126438,2269.6346601769437,None,001,80,2019_Oct_30_1459,ACPT_experiment_5_30_19,3.1.0,59.952294773985926,
,,,C,D,d,v,L,U,y,R,u,,,,,5,19,119,9,2,0,2,0,,,,,0,6,6,25,,,,,,down,0.5671121409432089,2271.586219679033,None,001,80,2019_Oct_30_1459,ACPT_experiment_5_30_19,3.1.0,59.952294773985926,
,,,C,D,d,v,R,G,g,L,c ,,,,,5,19,119,9,2,0,2,0,,,,,0,7,7,6,,,,,,up,0.6167534633132163,2273.4547674361056,None,001,80,2019_Oct_30_1459,ACPT_experiment_5_30_19,3.1.0,59.952294773985926,
,,,C,D,d,v,L,D,d,R,c ,,,,,5,19,119,9,2,0,2,0,,,,,0,8,8,13,,,,,,up,0.517094994935178,2275.3558950277766,None,001,80,2019_Oct_30_1459,ACPT_experiment_5_30_19,3.1.0,59.952294773985926,
,,,C,D,d,v,L,G,d,L,i,,,,,5,19,119,9,2,0,2,0,,,,,0,9,9,16,,,,,,up,0.6839009226241615,2277.1573116263244,None,001,80,2019_Oct_30_1459,ACPT_experiment_5_30_19,3.1.0,59.952294773985926,
,,,C,D,d,v,L,G,d,R,i,,,,,5,19,119,9,2,0,2,0,,,,,0,10,10,17,,,,,,up,0.7505967898323433,2279.1088922590607,None,001,80,2019_Oct_30_1459,ACPT_experiment_5_30_19,3.1.0,59.952294773985926,
,,,C,D,d,v,R,G,y,L,y,,,,,5,19,119,9,2,0,2,0,,,,,0,11,11,28,,,,,,down,0.700561531841231,2281.1438465746032,None,001,80,2019_Oct_30_1459,ACPT_experiment_5_30_19,3.1.0,59.952294773985926,
,,,C,D,d,v,R,U,d,R,u,,,,,5,19,119,9,2,0,2,0,,,,,0,12,12,9,,,,,,up,0.8673445176827954,2283.1287683489463,None,001,80,2019_Oct_30_1459,ACPT_experiment_5_30_19,3.1.0,59.952294773985926,
,,,C,D,d,v,L,D,y,R,y,,,,,5,19,119,9,2,0,2,0,,,,,0,13,13,33,,,,,,down,0.600516674494429,2285.2804601288844,None,001,80,2019_Oct_30_1459,ACPT_experiment_5_30_19,3.1.0,59.952294773985926,
,,,C,D,d,v,R,G,y,R,y,,,,,5,19,119,9,2,0,2,0,,,,,0,14,14,29,,,,,,down,0.7839545340939367,2287.1653210469703,None,001,80,2019_Oct_30_1459,ACPT_experiment_5_30_19,3.1.0,59.952294773985926,
,,,C,D,d,v,R,D,y,R,y,,,,,5,19,119,9,2,0,2,0,,,,,0,15,15,27,,,,,,down,0.5671405163848249,2289.233609863062,None,001,80,2019_Oct_30_1459,ACPT_experiment_5_30_19,3.1.0,59.952294773985926,
,,,C,D,d,v,R,G,d,L,i,,,,,5,19,119,9,2,0,2,0,,,,,0,16,16,4,,,,,,up,1.0675368669399177,2291.085113036883,None,001,80,2019_Oct_30_1459,ACPT_experiment_5_30_19,3.1.0,59.952294773985926,
,,,C,D,d,v,L,U,g,L,u,,,,,5,19,119,9,2,0,2,0,,,,,0,17,17,22,,,,,,up,0.5504337216116255,2293.436993241816,None,001,80,2019_Oct_30_1459,ACPT_experiment_5_30_19,3.1.0,59.952294773985926,
,,,C,D,d,v,R,D,y,L,y,,,,,5,19,119,9,2,0,2,0,,,,,0,18,18,26,,,,,,down,0.6505401596987213,2295.2717672827566,None,001,80,2019_Oct_30_1459,ACPT_experiment_5_30_19,3.1.0,59.952294773985926,
,,,C,D,d,v,L,D,g,R,i,,,,,5,19,119,9,2,0,2,0,,,,,0,19,19,15,,,,,,up,0.7672857744873909,2297.2066622513667,None,001,80,2019_Oct_30_1459,ACPT_experiment_5_30_19,3.1.0,59.952294773985926,
,,,C,D,d,v,L,G,g,L,c ,,,,,5,19,119,9,2,0,2,0,,,,,0,20,20,18,,,,,,up,0.6171603791917732,2299.2583040422323,None,001,80,2019_Oct_30_1459,ACPT_experiment_5_30_19,3.1.0,59.952294773985926,
,,,C,D,d,v,R,U,d,L,u,,,,,5,19,119,9,2,0,2,0,,,,,0,21,21,8,,,,,,up,0.5337550004187506,2301.159822550868,None,001,80,2019_Oct_30_1459,ACPT_experiment_5_30_19,3.1.0,59.952294773985926,
,,,C,D,d,v,L,U,y,L,u,,,,,5,19,119,9,2,0,2,0,,,,,0,22,22,24,,,,,,down,0.6005015811751946,2302.977953490845,None,001,80,2019_Oct_30_1459,ACPT_experiment_5_30_19,3.1.0,59.952294773985926,
,,,C,D,d,v,R,D,d,R,c ,,,,,5,19,119,9,2,0,2,0,,,,,0,23,23,1,,,,,,up,0.5671157633441908,2304.8627772793625,None,001,80,2019_Oct_30_1459,ACPT_experiment_5_30_19,3.1.0,59.952294773985926,
,,,C,D,d,v,L,D,g,L,i,,,,,5,19,119,9,2,0,2,0,,,,,0,24,24,14,,,,,,up,0.5337522836198332,2306.714263548667,None,001,80,2019_Oct_30_1459,ACPT_experiment_5_30_19,3.1.0,59.952294773985926,
,,,C,D,d,v,L,G,g,R,c ,,,,,5,19,119,9,2,0,2,0,,,,,0,25,25,19,,,,,,up,0.5504364384105429,2308.5323739617306,None,001,80,2019_Oct_30_1459,ACPT_experiment_5_30_19,3.1.0,59.952294773985926,
,,,C,D,d,v,R,D,d,L,c,,,,,5,19,119,9,2,0,2,0,,,,,0,26,26,0,,,,,,up,0.6004689796063758,2310.383862947834,None,001,80,2019_Oct_30_1459,ACPT_experiment_5_30_19,3.1.0,59.952294773985926,
,,,C,D,d,v,R,U,y,R,u,,,,,5,19,119,9,2,0,2,0,,,,,0,27,27,31,,,,,,down,0.5504379477461043,2312.3020474992773,None,001,80,2019_Oct_30_1459,ACPT_experiment_5_30_19,3.1.0,59.952294773985926,
,,,C,D,d,v,R,U,g,R,u,,,,,5,19,119,9,2,0,2,0,,,,,0,28,28,11,,,,,,up,0.6171558511996409,2314.153527429389,None,001,80,2019_Oct_30_1459,ACPT_experiment_5_30_19,3.1.0,59.952294773985926,
,,,C,D,d,v,R,U,g,L,u,,,,,5,19,119,9,2,0,2,0,,,,,0,29,29,10,,,,,,up,0.4837239685548411,2316.055042315631,None,001,80,2019_Oct_30_1459,ACPT_experiment_5_30_19,3.1.0,59.952294773985926,
,,,C,D,d,v,R,G,g,R,c ,,,,,5,19,119,9,2,0,2,0,,,,,0,30,30,7,,,,,,up,0.5170497149811126,2317.806473162269,None,001,80,2019_Oct_30_1459,ACPT_experiment_5_30_19,3.1.0,59.952294773985926,
,,,C,D,d,v,R,D,g,R,i,,,,,5,19,119,9,2,0,2,0,,,,,0,31,31,3,,,,,,up,0.6003681562397105,2319.607878591756,None,001,80,2019_Oct_30_1459,ACPT_experiment_5_30_19,3.1.0,59.952294773985926,
,,,C,D,d,v,L,U,g,R,u,,,,,5,19,119,9,2,0,2,0,,,,,0,32,32,23,,,,,,up,0.43368237136746757,2321.4927153605313,None,001,80,2019_Oct_30_1459,ACPT_experiment_5_30_19,3.1.0,59.952294773985926,
,,,C,D,d,v,L,U,d,R,u,,,,,5,19,119,9,2,0,2,0,,,,,0,33,33,21,,,,,,up,0.7169966468682105,2323.2110215037537,None,001,80,2019_Oct_30_1459,ACPT_experiment_5_30_19,3.1.0,59.952294773985926,
,,,C,D,d,v,R,U,y,L,u,,,,,5,19,119,9,2,0,2,0,,,,,0,34,34,30,,,,,,down,0.6004789411963429,2325.2123488102225,None,001,80,2019_Oct_30_1459,ACPT_experiment_5_30_19,3.1.0,59.952294773985926,
,,,C,D,d,v,L,U,d,L,u,,,,,5,19,119,9,2,0,2,0,,,,,0,35,35,20,,,,,,up,0.567122706266673,2327.0971882957965,None,001,80,2019_Oct_30_1459,ACPT_experiment_5_30_19,3.1.0,59.952294773985926,
,,,C,D,d,v,R,G,g,L,c ,,,,,5,19,119,9,2,0,2,0,,,,,1,0,36,6,,,,,,up,0.46704494548612274,2328.9486636979127,None,001,80,2019_Oct_30_1459,ACPT_experiment_5_30_19,3.1.0,59.952294773985926,
,,,C,D,d,v,R,D,y,L,y,,,,,5,19,119,9,2,0,2,0,,,,,1,1,37,26,,,,,,down,0.6004638478771085,2330.7167560593625,None,001,80,2019_Oct_30_1459,ACPT_experiment_5_30_19,3.1.0,59.952294773985926,
,,,C,D,d,v,R,D,y,R,y,,,,,5,19,119,9,2,0,2,0,,,,,1,2,38,27,,,,,,down,0.55044640000051,2332.6182851333215,None,001,80,2019_Oct_30_1459,ACPT_experiment_5_30_19,3.1.0,59.952294773985926,
,,,C,D,d,v,R,U,y,L,u,,,,,5,19,119,9,2,0,2,0,,,,,1,3,39,30,,,,,,down,0.4837200442889298,2334.436377434402,None,001,80,2019_Oct_30_1459,ACPT_experiment_5_30_19,3.1.0,59.952294773985926,
,,,C,D,d,v,L,U,d,L,u,,,,,5,19,119,9,2,0,2,0,,,,,1,4,40,20,,,,,,up,0.4503656205597508,2336.2211530450477,None,001,80,2019_Oct_30_1459,ACPT_experiment_5_30_19,3.1.0,59.952294773985926,
,,,C,D,d,v,L,U,y,R,u,,,,,5,19,119,9,2,0,2,0,,,,,1,5,41,25,,,,,,down,0.5003900113624695,2337.9558638147937,None,001,80,2019_Oct_30_1459,ACPT_experiment_5_30_19,3.1.0,59.952294773985926,
,,,C,D,d,v,R,U,d,R,u,,,,,5,19,119,9,2,0,2,0,,,,,1,6,42,9,,,,,,up,0.5671163670740498,2339.7406152761287,None,001,80,2019_Oct_30_1459,ACPT_experiment_5_30_19,3.1.0,59.952294773985926,
,,,C,D,d,v,L,G,g,R,c ,,,,,5,19,119,9,2,0,2,0,,,,,1,7,43,19,,,,,,up,0.5837950882742007,2341.592094300642,None,001,80,2019_Oct_30_1459,ACPT_experiment_5_30_19,3.1.0,59.952294773985926,
,,,C,D,d,v,L,D,y,L,y,,,,,5,19,119,9,2,0,2,0,,,,,1,8,44,32,,,,,,down,0.6001969979988644,2343.477208484619,None,001,80,2019_Oct_30_1459,ACPT_experiment_5_30_19,3.1.0,59.952294773985926,
,,,C,D,d,v,R,G,y,L,y,,,,,5,19,119,9,2,0,2,0,,,,,1,9,45,28,,,,,,down,0.55043462721369,2345.361795911762,None,001,80,2019_Oct_30_1459,ACPT_experiment_5_30_19,3.1.0,59.952294773985926,
,,,C,D,d,v,L,G,y,R,y,,,,,5,19,119,9,2,0,2,0,,,,,1,10,46,35,,,,,,down,0.5504316085498431,2347.213245957104,None,001,80,2019_Oct_30_1459,ACPT_experiment_5_30_19,3.1.0,59.952294773985926,
,,,C,D,d,v,L,D,g,L,i,,,,,5,19,119,9,2,0,2,0,,,,,1,11,47,14,,,,,,up,0.5003987654890807,2349.0647292077447,None,001,80,2019_Oct_30_1459,ACPT_experiment_5_30_19,3.1.0,59.952294773985926,
,,,C,D,d,v,L,U,g,L,u,,,,,5,19,119,9,2,0,2,0,,,,,1,12,48,22,,,,,,up,0.41367195093698683,2350.869483240982,None,001,80,2019_Oct_30_1459,ACPT_experiment_5_30_19,3.1.0,59.952294773985926,
,,,C,D,d,v,R,D,d,L,c,,,,,5,19,119,9,2,0,2,0,,,,,1,13,49,0,,,,,,up,0.4503345283192175,2352.5675429042676,None,001,80,2019_Oct_30_1459,ACPT_experiment_5_30_19,3.1.0,59.952294773985926,
,,,C,D,d,v,R,G,d,R,i,,,,,5,19,119,9,2,0,2,0,,,,,1,14,50,5,,,,,,up,0.5004057084152009,2354.3022295247065,None,001,80,2019_Oct_30_1459,ACPT_experiment_5_30_19,3.1.0,59.952294773985926,
,,,C,D,d,v,R,D,g,L,i,,,,,5,19,119,9,2,0,2,0,,,,,1,15,51,2,,,,,,up,0.43370229454740183,2356.087015096942,None,001,80,2019_Oct_30_1459,ACPT_experiment_5_30_19,3.1.0,59.952294773985926,
,,,C,D,d,v,L,U,d,R,u,,,,,5,19,119,9,2,0,2,0,,,,,1,16,52,21,,,,,,up,0.5837525251117768,2357.821753034663,None,001,80,2019_Oct_30_1459,ACPT_experiment_5_30_19,3.1.0,59.952294773985926,
,,,C,D,d,v,R,U,g,R,u,,,,,5,19,119,9,2,0,2,0,,,,,1,17,53,11,,,,,,up,0.46702019244548865,2359.6898836123983,None,001,80,2019_Oct_30_1459,ACPT_experiment_5_30_19,3.1.0,59.952294773985926,
,,,C,D,d,v,R,U,y,R,u,,,,,5,19,119,9,2,0,2,0,,,,,1,18,54,31,,,,,,down,0.5838077666594472,2361.441251067099,None,001,80,2019_Oct_30_1459,ACPT_experiment_5_30_19,3.1.0,59.952294773985926,
,,,C,D,d,v,L,D,y,R,y,,,,,5,19,119,9,2,0,2,0,,,,,1,19,55,33,,,,,,down,0.617154643729009,2363.3261056459887,None,001,80,2019_Oct_30_1459,ACPT_experiment_5_30_19,3.1.0,59.952294773985926,
,,,C,D,d,v,R,G,g,R,c ,,,,,5,19,119,9,2,0,2,0,,,,,1,20,56,7,,,,,,up,0.5170744680217467,2365.227628984485,None,001,80,2019_Oct_30_1459,ACPT_experiment_5_30_19,3.1.0,59.952294773985926,
,,,C,D,d,v,L,G,g,L,c ,,,,,5,19,119,9,2,0,2,0,,,,,1,21,57,18,,,,,,up,0.5170765810835292,2367.0290588651515,None,001,80,2019_Oct_30_1459,ACPT_experiment_5_30_19,3.1.0,59.952294773985926,
,,,C,D,d,v,L,G,y,L,y,,,,,5,19,119,9,2,0,2,0,,,,,1,22,58,34,,,,,,down,0.5170992210623808,2368.8305008204734,None,001,80,2019_Oct_30_1459,ACPT_experiment_5_30_19,3.1.0,59.952294773985926,
,,,C,D,d,v,R,D,g,R,i,,,,,5,19,119,9,2,0,2,0,,,,,1,23,59,3,,,,,,up,0.5333683095850574,2370.648973775056,None,001,80,2019_Oct_30_1459,ACPT_experiment_5_30_19,3.1.0,59.952294773985926,
,,,C,D,d,v,R,U,g,L,u,,,,,5,19,119,9,2,0,2,0,,,,,1,24,60,10,,,,,,up,0.4336422231353936,2372.4667515313668,None,001,80,2019_Oct_30_1459,ACPT_experiment_5_30_19,3.1.0,59.952294773985926,
,,,C,D,d,v,R,G,y,R,y,,,,,5,19,119,9,2,0,2,0,,,,,1,25,61,29,,,,,,down,0.5671175745410437,2374.184768184732,None,001,80,2019_Oct_30_1459,ACPT_experiment_5_30_19,3.1.0,59.952294773985926,
,,,C,D,d,v,L,D,d,R,c ,,,,,5,19,119,9,2,0,2,0,,,,,1,26,62,13,,,,,,up,0.6004925251836539,2376.036231210328,None,001,80,2019_Oct_30_1459,ACPT_experiment_5_30_19,3.1.0,59.952294773985926,
,,,C,D,d,v,R,U,d,L,u,,,,,5,19,119,9,2,0,2,0,,,,,1,27,63,8,,,,,,up,1.067431515577482,2377.9378481274034,None,001,80,2019_Oct_30_1459,ACPT_experiment_5_30_19,3.1.0,59.952294773985926,
,,,C,D,d,v,L,D,d,L,c ,,,,,5,19,119,9,2,0,2,0,,,,,1,28,64,12,,,,,,up,1.0175031182807288,2380.272959956823,None,001,80,2019_Oct_30_1459,ACPT_experiment_5_30_19,3.1.0,59.952294773985926,
,,,C,D,d,v,L,D,g,R,i,,,,,5,19,119,9,2,0,2,0,,,,,1,29,65,15,,,,,,up,0.600504297974112,2382.5580987127214,None,001,80,2019_Oct_30_1459,ACPT_experiment_5_30_19,3.1.0,59.952294773985926,
,,,C,D,d,v,R,G,d,L,i,,,,,5,19,119,9,2,0,2,0,,,,,1,30,66,4,,,,,,up,0.5837929752087803,2384.442964460668,None,001,80,2019_Oct_30_1459,ACPT_experiment_5_30_19,3.1.0,59.952294773985926,
,,,C,D,d,v,L,U,y,L,u,,,,,5,19,119,9,2,0,2,0,,,,,1,31,67,24,,,,,,down,0.48371521442822996,2386.311117980247,None,001,80,2019_Oct_30_1459,ACPT_experiment_5_30_19,3.1.0,59.952294773985926,
,,,C,D,d,v,L,G,d,L,i,,,,,5,19,119,9,2,0,2,0,,,,,1,32,68,16,,,,,,up,0.4670693966654653,2388.0791710990707,None,001,80,2019_Oct_30_1459,ACPT_experiment_5_30_19,3.1.0,59.952294773985926,
,,,C,D,d,v,L,G,d,R,i,,,,,5,19,119,9,2,0,2,0,,,,,1,33,69,17,,,,,,up,0.8006558952693013,2389.813893339742,None,001,80,2019_Oct_30_1459,ACPT_experiment_5_30_19,3.1.0,59.952294773985926,
,,,C,D,d,v,R,D,d,R,c ,,,,,5,19,119,9,2,0,2,0,,,,,1,34,70,1,,,,,,up,0.5337788478609582,2391.8821993622187,None,001,80,2019_Oct_30_1459,ACPT_experiment_5_30_19,3.1.0,59.952294773985926,
,,,C,D,d,v,L,U,g,R,u,,,,,5,19,119,9,2,0,2,0,,,,,1,35,71,23,,,,,,up,0.5501701922657958,2393.717302135643,None,001,80,2019_Oct_30_1459,ACPT_experiment_5_30_19,3.1.0,59.952294773985926,
,,,C,D,d,v,,,,,,,,,,5,19,119,9,3,0,3,0,0,0,0,0,,,,,,,,,,,,,,001,80,2019_Oct_30_1459,ACPT_experiment_5_30_19,3.1.0,59.952294773985926,
,,,C,D,d,v,L,G,d,L,i,,,,,5,19,119,9,3,0,3,0,,,,,0,0,0,16,,,,,,up,0.6168874919858354,2425.7762198118544,None,001,80,2019_Oct_30_1459,ACPT_experiment_5_30_19,3.1.0,59.952294773985926,
,,,C,D,d,v,L,G,y,L,y,,,,,5,19,119,9,3,0,3,0,,,,,0,1,1,34,,,,,,down,0.6004840729256102,2427.6774690556776,None,001,80,2019_Oct_30_1459,ACPT_experiment_5_30_19,3.1.0,59.952294773985926,
,,,C,D,d,v,R,D,d,L,c,,,,,5,19,119,9,3,0,3,0,,,,,0,2,2,0,,,,,,up,0.5171040509267186,2429.562303107654,None,001,80,2019_Oct_30_1459,ACPT_experiment_5_30_19,3.1.0,59.952294773985926,
,,,C,D,d,v,L,U,d,R,u,,,,,5,19,119,9,3,0,3,0,,,,,0,3,3,21,,,,,,up,0.4670425305594108,2431.363742044312,None,001,80,2019_Oct_30_1459,ACPT_experiment_5_30_19,3.1.0,59.952294773985926,
,,,C,D,d,v,R,G,g,R,c ,,,,,5,19,119,9,3,0,3,0,,,,,0,4,4,7,,,,,,up,0.46702804097367334,2433.131825651639,None,001,80,2019_Oct_30_1459,ACPT_experiment_5_30_19,3.1.0,59.952294773985926,
,,,C,D,d,v,L,D,y,L,y,,,,,5,19,119,9,3,0,3,0,,,,,0,5,5,32,,,,,,down,0.7839509116965928,2434.8998983917772,None,001,80,2019_Oct_30_1459,ACPT_experiment_5_30_19,3.1.0,59.952294773985926,
,,,C,D,d,v,R,D,g,L,i,,,,,5,19,119,9,3,0,3,0,,,,,0,6,6,2,,,,,,up,0.4503610925639805,2436.984899134368,None,001,80,2019_Oct_30_1459,ACPT_experiment_5_30_19,3.1.0,59.952294773985926,
,,,C,D,d,v,R,G,d,R,i,,,,,5,19,119,9,3,0,3,0,,,,,0,7,7,5,,,,,,up,0.533650856516033,2438.7196174507735,None,001,80,2019_Oct_30_1459,ACPT_experiment_5_30_19,3.1.0,59.952294773985926,
,,,C,D,d,v,R,G,y,L,y,,,,,5,19,119,9,3,0,3,0,,,,,0,8,8,28,,,,,,down,0.600462338545185,2440.5377502019473,None,001,80,2019_Oct_30_1459,ACPT_experiment_5_30_19,3.1.0,59.952294773985926,
,,,C,D,d,v,L,U,g,R,u,,,,,5,19,119,9,3,0,3,0,,,,,0,9,9,23,,,,,,up,0.5170762792185997,2442.4225736886037,None,001,80,2019_Oct_30_1459,ACPT_experiment_5_30_19,3.1.0,59.952294773985926,
,,,C,D,d,v,R,G,d,L,i,,,,,5,19,119,9,3,0,3,0,,,,,0,10,10,4,,,,,,up,0.4837085733670392,2444.224016851389,None,001,80,2019_Oct_30_1459,ACPT_experiment_5_30_19,3.1.0,59.952294773985926,
,,,C,D,d,v,L,D,g,R,i,,,,,5,19,119,9,3,0,3,0,,,,,0,11,11,15,,,,,,up,0.5001270857464988,2446.009042407397,None,001,80,2019_Oct_30_1459,ACPT_experiment_5_30_19,3.1.0,59.952294773985926,
,,,C,D,d,v,R,D,y,R,y,,,,,5,19,119,9,3,0,3,0,,,,,0,12,12,27,,,,,,down,0.5170865426771343,2447.7935273207186,None,001,80,2019_Oct_30_1459,ACPT_experiment_5_30_19,3.1.0,59.952294773985926,
,,,C,D,d,v,L,G,g,L,c ,,,,,5,19,119,9,3,0,3,0,,,,,0,13,13,18,,,,,,up,0.416994594175776,2449.59496444618,None,001,80,2019_Oct_30_1459,ACPT_experiment_5_30_19,3.1.0,59.952294773985926,
,,,C,D,d,v,R,D,d,R,c ,,,,,5,19,119,9,3,0,3,0,,,,,0,14,14,1,,,,,,up,0.43366335378595977,2451.296333470582,None,001,80,2019_Oct_30_1459,ACPT_experiment_5_30_19,3.1.0,59.952294773985926,
,,,C,D,d,v,L,G,y,R,y,,,,,5,19,119,9,3,0,3,0,,,,,0,15,15,35,,,,,,down,0.5170632989647856,2453.0310529944545,None,001,80,2019_Oct_30_1459,ACPT_experiment_5_30_19,3.1.0,59.952294773985926,
,,,C,D,d,v,R,G,y,R,y,,,,,5,19,119,9,3,0,3,0,,,,,0,16,16,29,,,,,,down,0.5170877501404902,2454.8324753284614,None,001,80,2019_Oct_30_1459,ACPT_experiment_5_30_19,3.1.0,59.952294773985926,
,,,C,D,d,v,L,D,g,L,i,,,,,5,19,119,9,3,0,3,0,,,,,0,17,17,14,,,,,,up,0.46690729441979784,2456.6339329808325,None,001,80,2019_Oct_30_1459,ACPT_experiment_5_30_19,3.1.0,59.952294773985926,
,,,C,D,d,v,L,D,y,R,y,,,,,5,19,119,9,3,0,3,0,,,,,0,18,18,33,,,,,,down,0.5504355328121164,2458.3853076803243,None,001,80,2019_Oct_30_1459,ACPT_experiment_5_30_19,3.1.0,59.952294773985926,
,,,C,D,d,v,L,G,g,R,c ,,,,,5,19,119,9,3,0,3,0,,,,,0,19,19,19,,,,,,up,0.7339618392616103,2460.2534578793784,None,001,80,2019_Oct_30_1459,ACPT_experiment_5_30_19,3.1.0,59.952294773985926,
,,,C,D,d,v,R,U,d,R,u,,,,,5,19,119,9,3,0,3,0,,,,,0,20,20,9,,,,,,up,0.5504430794717337,2462.2717521894374,None,001,80,2019_Oct_30_1459,ACPT_experiment_5_30_19,3.1.0,59.952294773985926,
,,,C,D,d,v,L,U,y,R,u,,,,,5,19,119,9,3,0,3,0,,,,,0,21,21,25,,,,,,down,0.9005250663794868,2464.123387278869,None,001,80,2019_Oct_30_1459,ACPT_experiment_5_30_19,3.1.0,59.952294773985926,
,,,C,D,d,v,R,U,y,R,u,,,,,5,19,119,9,3,0,3,0,,,,,0,22,22,31,,,,,,down,0.6671974483833765,2466.3249833067894,None,001,80,2019_Oct_30_1459,ACPT_experiment_5_30_19,3.1.0,59.952294773985926,
,,,C,D,d,v,L,U,y,L,u,,,,,5,19,119,9,3,0,3,0,,,,,0,23,23,24,,,,,,down,0.6171561530645704,2468.276542507014,None,001,80,2019_Oct_30_1459,ACPT_experiment_5_30_19,3.1.0,59.952294773985926,
,,,C,D,d,v,L,G,d,R,i,,,,,5,19,119,9,3,0,3,0,,,,,0,24,24,17,,,,,,up,0.5504596821228915,2470.178035055138,None,001,80,2019_Oct_30_1459,ACPT_experiment_5_30_19,3.1.0,59.952294773985926,
,,,C,D,d,v,R,U,d,L,u,,,,,5,19,119,9,3,0,3,0,,,,,0,25,25,8,,,,,,up,0.6838743583830365,2472.012852262971,None,001,80,2019_Oct_30_1459,ACPT_experiment_5_30_19,3.1.0,59.952294773985926,
,,,C,D,d,v,L,U,g,L,u,,,,,5,19,119,9,3,0,3,0,,,,,0,26,26,22,,,,,,up,0.6004569049509882,2473.9977885269036,None,001,80,2019_Oct_30_1459,ACPT_experiment_5_30_19,3.1.0,59.952294773985926,
,,,C,D,d,v,R,U,g,R,u,,,,,5,19,119,9,3,0,3,0,,,,,0,27,27,11,,,,,,up,0.4670395118955639,2475.8826105042244,None,001,80,2019_Oct_30_1459,ACPT_experiment_5_30_19,3.1.0,59.952294773985926,
,,,C,D,d,v,R,G,g,L,c ,,,,,5,19,119,9,3,0,3,0,,,,,0,28,28,6,,,,,,up,0.5504310048163461,2477.617333046761,None,001,80,2019_Oct_30_1459,ACPT_experiment_5_30_19,3.1.0,59.952294773985926,
,,,C,D,d,v,R,U,y,L,u,,,,,5,19,119,9,3,0,3,0,,,,,0,29,29,30,,,,,,down,0.6004825635936868,2479.4521267090167,None,001,80,2019_Oct_30_1459,ACPT_experiment_5_30_19,3.1.0,59.952294773985926,
,,,C,D,d,v,L,D,d,L,c ,,,,,5,19,119,9,3,0,3,0,,,,,0,30,30,12,,,,,,up,0.46703045590402326,2481.336970722583,None,001,80,2019_Oct_30_1459,ACPT_experiment_5_30_19,3.1.0,59.952294773985926,
,,,C,D,d,v,R,D,y,L,y,,,,,5,19,119,9,3,0,3,0,,,,,0,31,31,26,,,,,,down,0.4837381562720111,2483.088343610878,None,001,80,2019_Oct_30_1459,ACPT_experiment_5_30_19,3.1.0,59.952294773985926,
,,,C,D,d,v,L,D,d,R,c ,,,,,5,19,119,9,3,0,3,0,,,,,0,32,32,13,,,,,,up,0.5504636063851649,2484.856445330188,None,001,80,2019_Oct_30_1459,ACPT_experiment_5_30_19,3.1.0,59.952294773985926,
,,,C,D,d,v,R,U,g,L,u,,,,,5,19,119,9,3,0,3,0,,,,,0,33,33,10,,,,,,up,0.517054242973245,2486.70793763682,None,001,80,2019_Oct_30_1459,ACPT_experiment_5_30_19,3.1.0,59.952294773985926,
,,,C,D,d,v,L,U,d,L,u,,,,,5,19,119,9,3,0,3,0,,,,,0,34,34,20,,,,,,up,0.5004011804157926,2488.5093563484297,None,001,80,2019_Oct_30_1459,ACPT_experiment_5_30_19,3.1.0,59.952294773985926,
,,,C,D,d,v,R,D,g,R,i,,,,,5,19,119,9,3,0,3,0,,,,,0,35,35,3,,,,,,up,0.41701783788812463,2490.294091810847,None,001,80,2019_Oct_30_1459,ACPT_experiment_5_30_19,3.1.0,59.952294773985926,
,,,C,D,d,v,R,U,y,R,u,,,,,5,19,119,9,3,0,3,0,,,,,1,0,36,31,,,,,,down,0.583799616266333,2491.9954723061746,None,001,80,2019_Oct_30_1459,ACPT_experiment_5_30_19,3.1.0,59.952294773985926,
,,,C,D,d,v,L,U,d,R,u,,,,,5,19,119,9,3,0,3,0,,,,,1,1,37,21,,,,,,up,0.5637001452596451,2493.8836960157278,None,001,80,2019_Oct_30_1459,ACPT_experiment_5_30_19,3.1.0,59.952294773985926,
,,,C,D,d,v,L,D,y,L,y,,,,,5,19,119,9,3,0,3,0,,,,,1,2,38,32,,,,,,down,0.550459983991459,2495.7317838733325,None,001,80,2019_Oct_30_1459,ACPT_experiment_5_30_19,3.1.0,59.952294773985926,
,,,C,D,d,v,L,U,d,L,u,,,,,5,19,119,9,3,0,3,0,,,,,1,3,39,20,,,,,,up,0.6004514713567914,2497.5666040998294,None,001,80,2019_Oct_30_1459,ACPT_experiment_5_30_19,3.1.0,59.952294773985926,
,,,C,D,d,v,L,D,g,L,i,,,,,5,19,119,9,3,0,3,0,,,,,1,4,40,14,,,,,,up,0.450402146390843,2499.45142366222,None,001,80,2019_Oct_30_1459,ACPT_experiment_5_30_19,3.1.0,59.952294773985926,
,,,C,D,d,v,R,G,d,R,i,,,,,5,19,119,9,3,0,3,0,,,,,1,5,41,5,,,,,,down,0.6305089104935178,2501.20614847479,None,001,80,2019_Oct_30_1459,ACPT_experiment_5_30_19,3.1.0,59.952294773985926,
,,,C,D,d,v,L,G,g,L,c ,,,,,5,19,119,9,3,0,3,0,,,,,1,6,42,18,,,,,,up,0.5170774866855936,2503.1210212501865,None,001,80,2019_Oct_30_1459,ACPT_experiment_5_30_19,3.1.0,59.952294773985926,
,,,C,D,d,v,L,G,g,R,c ,,,,,5,19,119,9,3,0,3,0,,,,,1,7,43,19,,,,,,up,0.5004268390584912,2504.9224508289844,None,001,80,2019_Oct_30_1459,ACPT_experiment_5_30_19,3.1.0,59.952294773985926,
,,,C,D,d,v,L,U,y,R,u,,,,,5,19,119,9,3,0,3,0,,,,,1,8,44,25,,,,,,down,0.5838234637121786,2506.7072149687083,None,001,80,2019_Oct_30_1459,ACPT_experiment_5_30_19,3.1.0,59.952294773985926,
,,,C,D,d,v,R,U,y,L,u,,,,,5,19,119,9,3,0,3,0,,,,,1,9,45,30,,,,,,down,0.5837923714752833,2508.575378449881,None,001,80,2019_Oct_30_1459,ACPT_experiment_5_30_19,3.1.0,59.952294773985926,
,,,C,D,d,v,L,U,g,L,u,,,,,5,19,119,9,3,0,3,0,,,,,1,10,46,22,,,,,,up,0.5504602858563885,2510.443506612686,None,001,80,2019_Oct_30_1459,ACPT_experiment_5_30_19,3.1.0,59.952294773985926,
,,,C,D,d,v,R,G,g,L,c ,,,,,5,19,119,9,3,0,3,0,,,,,1,11,47,6,,,,,,up,0.4837357413416612,2512.278330159712,None,001,80,2019_Oct_30_1459,ACPT_experiment_5_30_19,3.1.0,59.952294773985926,
,,,C,D,d,v,R,D,g,L,i,,,,,5,19,119,9,3,0,3,0,,,,,1,12,48,2,,,,,,up,0.5001412734636688,2514.063340018667,None,001,80,2019_Oct_30_1459,ACPT_experiment_5_30_19,3.1.0,59.952294773985926,
,,,C,D,d,v,R,G,g,R,c ,,,,,5,19,119,9,3,0,3,0,,,,,1,13,49,7,,,,,,up,0.6005039961091825,2515.8478705138114,None,001,80,2019_Oct_30_1459,ACPT_experiment_5_30_19,3.1.0,59.952294773985926,
,,,C,D,d,v,L,G,d,L,i,,,,,5,19,119,9,3,0,3,0,,,,,1,14,50,16,,,,,,up,0.6004988643799152,2517.732658983965,None,001,80,2019_Oct_30_1459,ACPT_experiment_5_30_19,3.1.0,59.952294773985926,
,,,C,D,d,v,R,U,d,L,u,,,,,5,19,119,9,3,0,3,0,,,,,1,15,51,8,,,,,,up,0.5337785459960287,2519.6175189964524,None,001,80,2019_Oct_30_1459,ACPT_experiment_5_30_19,3.1.0,59.952294773985926,
,,,C,D,d,v,R,D,d,L,c,,,,,5,19,119,9,3,0,3,0,,,,,1,16,52,0,,,,,,up,0.5335853515098279,2521.4524660068273,None,001,80,2019_Oct_30_1459,ACPT_experiment_5_30_19,3.1.0,59.952294773985926,
,,,C,D,d,v,R,D,y,L,y,,,,,5,19,119,9,3,0,3,0,,,,,1,17,53,26,,,,,,down,0.6838764714448189,2523.2704378632225,None,001,80,2019_Oct_30_1459,ACPT_experiment_5_30_19,3.1.0,59.952294773985926,
,,,C,D,d,v,R,G,y,L,y,,,,,5,19,119,9,3,0,3,0,,,,,1,18,54,28,,,,,,down,0.6004858841261012,2525.2386715585126,None,001,80,2019_Oct_30_1459,ACPT_experiment_5_30_19,3.1.0,59.952294773985926,
,,,C,D,d,v,R,D,d,R,c ,,,,,5,19,119,9,3,0,3,0,,,,,1,19,55,1,,,,,,up,0.5170273768671905,2527.123530967263,None,001,80,2019_Oct_30_1459,ACPT_experiment_5_30_19,3.1.0,59.952294773985926,
,,,C,D,d,v,L,U,g,R,u,,,,,5,19,119,9,3,0,3,0,,,,,1,20,56,23,,,,,,up,0.6505033320026996,2528.9249575274007,None,001,80,2019_Oct_30_1459,ACPT_experiment_5_30_19,3.1.0,59.952294773985926,
,,,C,D,d,v,R,D,g,R,i,,,,,5,19,119,9,3,0,3,0,,,,,1,21,57,3,,,,,,up,0.53374352949686,2530.859840421359,None,001,80,2019_Oct_30_1459,ACPT_experiment_5_30_19,3.1.0,59.952294773985926,
,,,C,D,d,v,L,G,d,R,i,,,,,5,19,119,9,3,0,3,0,,,,,1,22,58,17,,,,,,up,0.5671175745410437,2532.677946004558,None,001,80,2019_Oct_30_1459,ACPT_experiment_5_30_19,3.1.0,59.952294773985926,
,,,C,D,d,v,L,G,y,R,y,,,,,5,19,119,9,3,0,3,0,,,,,1,23,59,35,,,,,,down,0.964114124810294,2534.549423374843,None,001,80,2019_Oct_30_1459,ACPT_experiment_5_30_19,3.1.0,59.952294773985926,
,,,C,D,d,v,L,D,y,R,y,,,,,5,19,119,9,3,0,3,0,,,,,1,24,60,33,,,,,,down,0.6838770751819538,2536.79790196829,None,001,80,2019_Oct_30_1459,ACPT_experiment_5_30_19,3.1.0,59.952294773985926,
,,,C,D,d,v,R,U,g,L,u,,,,,5,19,119,9,3,0,3,0,,,,,1,25,61,10,,,,,,up,0.5004518939713307,2538.7661347579815,None,001,80,2019_Oct_30_1459,ACPT_experiment_5_30_19,3.1.0,59.952294773985926,
,,,C,D,d,v,L,D,d,R,c ,,,,,5,19,119,9,3,0,3,0,,,,,1,26,62,13,,,,,,up,0.4837221573543502,2540.550891954779,None,001,80,2019_Oct_30_1459,ACPT_experiment_5_30_19,3.1.0,59.952294773985926,
,,,C,D,d,v,L,U,y,L,u,,,,,5,19,119,9,3,0,3,0,,,,,1,27,63,24,,,,,,down,0.8006317459585262,2542.3189749583726,None,001,80,2019_Oct_30_1459,ACPT_experiment_5_30_19,3.1.0,59.952294773985926,
,,,C,D,d,v,L,G,y,L,y,,,,,5,19,119,9,3,0,3,0,,,,,1,28,64,34,,,,,,down,0.6004834691921133,2544.3872873200417,None,001,80,2019_Oct_30_1459,ACPT_experiment_5_30_19,3.1.0,59.952294773985926,
,,,C,D,d,v,R,U,d,R,u,,,,,5,19,119,9,3,0,3,0,,,,,1,29,65,9,,,,,,up,0.6004750169340696,2546.272129824276,None,001,80,2019_Oct_30_1459,ACPT_experiment_5_30_19,3.1.0,59.952294773985926,
,,,C,D,d,v,R,G,y,R,y,,,,,5,19,119,9,3,0,3,0,,,,,1,30,66,29,,,,,,down,0.5671184801358322,2548.1569641781207,None,001,80,2019_Oct_30_1459,ACPT_experiment_5_30_19,3.1.0,59.952294773985926,
,,,C,D,d,v,R,G,d,L,i,,,,,5,19,119,9,3,0,3,0,,,,,1,31,67,4,,,,,,up,0.5171103901193419,2550.008426599983,None,001,80,2019_Oct_30_1459,ACPT_experiment_5_30_19,3.1.0,59.952294773985926,
,,,C,D,d,v,L,D,g,R,i,,,,,5,19,119,9,3,0,3,0,,,,,1,32,68,15,,,,,,up,0.5671151596070558,2551.8098833467557,None,001,80,2019_Oct_30_1459,ACPT_experiment_5_30_19,3.1.0,59.952294773985926,
,,,C,D,d,v,R,U,g,R,u,,,,,5,19,119,9,3,0,3,0,,,,,1,33,69,11,,,,,,up,0.5501698903972283,2553.661628013684,None,001,80,2019_Oct_30_1459,ACPT_experiment_5_30_19,3.1.0,59.952294773985926,
,,,C,D,d,v,R,D,y,R,y,,,,,5,19,119,9,3,0,3,0,,,,,1,34,70,27,,,,,,down,0.6171790949083515,2555.4961312804808,None,001,80,2019_Oct_30_1459,ACPT_experiment_5_30_19,3.1.0,59.952294773985926,
,,,C,D,d,v,L,D,d,L,c ,,,,,5,19,119,9,3,0,3,0,,,,,1,35,71,12,,,,,,up,0.8006643475273449,2557.3976549208455,None,001,80,2019_Oct_30_1459,ACPT_experiment_5_30_19,3.1.0,59.952294773985926,
,,,C,D,d,v,,,,,,,,,,5,19,119,9,4,0,4,0,0,0,0,0,,,,,,,,,,,,,,001,80,2019_Oct_30_1459,ACPT_experiment_5_30_19,3.1.0,59.952294773985926,
,,,C,D,d,v,R,D,y,L,y,,,,,5,19,119,9,4,0,4,0,,,,,0,0,0,26,,,,,,down,0.6333935456132167,2565.0708833576246,None,001,80,2019_Oct_30_1459,ACPT_experiment_5_30_19,3.1.0,59.952294773985926,
,,,C,D,d,v,R,D,g,R,i,,,,,5,19,119,9,4,0,4,0,,,,,0,1,1,3,,,,,,up,0.5170747698903142,2566.988663709988,None,001,80,2019_Oct_30_1459,ACPT_experiment_5_30_19,3.1.0,59.952294773985926,
,,,C,D,d,v,L,D,d,L,c ,,,,,5,19,119,9,4,0,4,0,,,,,0,2,2,12,,,,,,up,0.5171055602586421,2568.7901023447776,None,001,80,2019_Oct_30_1459,ACPT_experiment_5_30_19,3.1.0,59.952294773985926,
,,,C,D,d,v,L,G,y,L,y,,,,,5,19,119,9,4,0,4,0,,,,,0,3,3,34,,,,,,down,0.5837999181312625,2570.5915397721037,None,001,80,2019_Oct_30_1459,ACPT_experiment_5_30_19,3.1.0,59.952294773985926,
,,,C,D,d,v,L,D,d,R,c ,,,,,5,19,119,9,4,0,4,0,,,,,0,4,4,13,,,,,,up,0.5504931892901368,2572.459691782351,None,001,80,2019_Oct_30_1459,ACPT_experiment_5_30_19,3.1.0,59.952294773985926,
,,,C,D,d,v,R,D,d,R,c ,,,,,5,19,119,9,4,0,4,0,,,,,0,5,5,1,,,,,,up,0.6839087711487082,2574.2944969155287,None,001,80,2019_Oct_30_1459,ACPT_experiment_5_30_19,3.1.0,59.952294773985926,
,,,C,D,d,v,L,U,g,L,u,,,,,5,19,119,9,4,0,4,0,,,,,0,6,6,22,,,,,,up,0.8173155988843064,2576.2627360444167,None,001,80,2019_Oct_30_1459,ACPT_experiment_5_30_19,3.1.0,59.952294773985926,
,,,C,D,d,v,L,G,y,R,y,,,,,5,19,119,9,4,0,4,0,,,,,0,7,7,35,,,,,,down,0.6002024315930612,2578.381367418475,None,001,80,2019_Oct_30_1459,ACPT_experiment_5_30_19,3.1.0,59.952294773985926,
,,,C,D,d,v,R,U,g,L,u,,,,,5,19,119,9,4,0,4,0,,,,,0,8,8,10,,,,,,up,0.6004904121218715,2580.2659267720446,None,001,80,2019_Oct_30_1459,ACPT_experiment_5_30_19,3.1.0,59.952294773985926,
,,,C,D,d,v,L,G,g,L,c ,,,,,5,19,119,9,4,0,4,0,,,,,0,9,9,18,,,,,,up,0.5671251212006609,2582.1507614277543,None,001,80,2019_Oct_30_1459,ACPT_experiment_5_30_19,3.1.0,59.952294773985926,
,,,C,D,d,v,L,G,d,R,i,,,,,5,19,119,9,4,0,4,0,,,,,0,10,10,17,,,,,,up,0.517094391201681,2583.9855719945263,None,001,80,2019_Oct_30_1459,ACPT_experiment_5_30_19,3.1.0,59.952294773985926,
,,,C,D,d,v,L,G,d,L,i,,,,,5,19,119,9,4,0,4,0,,,,,0,11,11,16,,,,,,up,0.4670367951002845,2585.770318927869,None,001,80,2019_Oct_30_1459,ACPT_experiment_5_30_19,3.1.0,59.952294773985926,
,,,C,D,d,v,L,U,d,R,u,,,,,5,19,119,9,4,0,4,0,,,,,0,12,12,21,,,,,,up,0.5837984087993391,2587.521719286,None,001,80,2019_Oct_30_1459,ACPT_experiment_5_30_19,3.1.0,59.952294773985926,
,,,C,D,d,v,R,U,y,R,u,,,,,5,19,119,9,4,0,4,0,,,,,0,13,13,31,,,,,,down,0.6004931289171509,2589.389876729845,None,001,80,2019_Oct_30_1459,ACPT_experiment_5_30_19,3.1.0,59.952294773985926,
,,,C,D,d,v,R,G,y,L,y,,,,,5,19,119,9,4,0,4,0,,,,,0,14,14,28,,,,,,down,0.6169131506248959,2591.2749803484985,None,001,80,2019_Oct_30_1459,ACPT_experiment_5_30_19,3.1.0,59.952294773985926,
,,,C,D,d,v,R,U,d,L,u,,,,,5,19,119,9,4,0,4,0,,,,,0,15,15,8,,,,,,up,0.46701777751513873,2593.1762504211038,None,001,80,2019_Oct_30_1459,ACPT_experiment_5_30_19,3.1.0,59.952294773985926,
,,,C,D,d,v,R,D,d,L,c,,,,,5,19,119,9,4,0,4,0,,,,,0,16,16,0,,,,,,up,0.41699066991350264,2594.9276278373945,None,001,80,2019_Oct_30_1459,ACPT_experiment_5_30_19,3.1.0,59.952294773985926,
,,,C,D,d,v,L,D,y,L,y,,,,,5,19,119,9,4,0,4,0,,,,,0,17,17,32,,,,,,down,0.5005240400350885,2596.6289887114035,None,001,80,2019_Oct_30_1459,ACPT_experiment_5_30_19,3.1.0,59.952294773985926,
,,,C,D,d,v,L,U,d,L,u,,,,,5,19,119,9,4,0,4,0,,,,,0,18,18,20,,,,,,up,0.666753101071663,2598.4308396956694,None,001,80,2019_Oct_30_1459,ACPT_experiment_5_30_19,3.1.0,59.952294773985926,
,,,C,D,d,v,R,G,g,L,c ,,,,,5,19,119,9,4,0,4,0,,,,,0,19,19,6,,,,,,up,0.4336712023105065,2600.3819862445525,None,001,80,2019_Oct_30_1459,ACPT_experiment_5_30_19,3.1.0,59.952294773985926,
,,,C,D,d,v,R,G,g,R,c ,,,,,5,19,119,9,4,0,4,0,,,,,0,20,20,7,,,,,,up,0.8506983980551013,2602.0833169319267,None,001,80,2019_Oct_30_1459,ACPT_experiment_5_30_19,3.1.0,59.952294773985926,
,,,C,D,d,v,R,G,d,R,i,,,,,5,19,119,9,4,0,4,0,,,,,0,21,21,5,,,,,,up,0.5003960486901633,2604.2016941344955,None,001,80,2019_Oct_30_1459,ACPT_experiment_5_30_19,3.1.0,59.952294773985926,
,,,C,D,d,v,R,D,y,R,y,,,,,5,19,119,9,4,0,4,0,,,,,0,22,22,27,,,,,,down,0.6171615866587672,2605.9864543499534,None,001,80,2019_Oct_30_1459,ACPT_experiment_5_30_19,3.1.0,59.952294773985926,
,,,C,D,d,v,L,U,y,R,u,,,,,5,19,119,9,4,0,4,0,,,,,0,23,23,25,,,,,,down,0.6171709445152374,2607.8879592746016,None,001,80,2019_Oct_30_1459,ACPT_experiment_5_30_19,3.1.0,59.952294773985926,
,,,C,D,d,v,L,U,y,L,u,,,,,5,19,119,9,4,0,4,0,,,,,0,24,24,24,,,,,,down,0.7338235844581504,2609.8062506867464,None,001,80,2019_Oct_30_1459,ACPT_experiment_5_30_19,3.1.0,59.952294773985926,
,,,C,D,d,v,L,G,g,R,c ,,,,,5,19,119,9,4,0,4,0,,,,,0,25,25,19,,,,,,up,0.6836283372831531,2611.874731187989,None,001,80,2019_Oct_30_1459,ACPT_experiment_5_30_19,3.1.0,59.952294773985926,
,,,C,D,d,v,R,G,d,L,i,,,,,5,19,119,9,4,0,4,0,,,,,0,26,26,4,,,,,,up,0.6505187271868635,2613.8427264088423,None,001,80,2019_Oct_30_1459,ACPT_experiment_5_30_19,3.1.0,59.952294773985926,
,,,C,D,d,v,R,U,y,L,u,,,,,5,19,119,9,4,0,4,0,,,,,0,27,27,30,,,,,,down,0.617153436265653,2615.777605982268,None,001,80,2019_Oct_30_1459,ACPT_experiment_5_30_19,3.1.0,59.952294773985926,
,,,C,D,d,v,L,D,g,R,i,,,,,5,19,119,9,4,0,4,0,,,,,0,28,28,15,,,,,,up,0.4670340783013671,2617.6791229815717,None,001,80,2019_Oct_30_1459,ACPT_experiment_5_30_19,3.1.0,59.952294773985926,
,,,C,D,d,v,L,D,g,L,i,,,,,5,19,119,9,4,0,4,0,,,,,0,29,29,14,,,,,,up,0.5471159082371742,2619.4505168556134,None,001,80,2019_Oct_30_1459,ACPT_experiment_5_30_19,3.1.0,59.952294773985926,
,,,C,D,d,v,L,U,g,R,u,,,,,5,19,119,9,4,0,4,0,,,,,0,30,30,23,,,,,,up,0.5004150662716711,2621.281999647421,None,001,80,2019_Oct_30_1459,ACPT_experiment_5_30_19,3.1.0,59.952294773985926,
,,,C,D,d,v,R,D,g,L,i,,,,,5,19,119,9,4,0,4,0,,,,,0,31,31,2,,,,,,up,0.5004467622420634,2623.050074198756,None,001,80,2019_Oct_30_1459,ACPT_experiment_5_30_19,3.1.0,59.952294773985926,
,,,C,D,d,v,R,U,d,R,u,,,,,5,19,119,9,4,0,4,0,,,,,0,32,32,9,,,,,,up,0.4503529421708663,2624.834840149677,None,001,80,2019_Oct_30_1459,ACPT_experiment_5_30_19,3.1.0,59.952294773985926,
,,,C,D,d,v,L,D,y,R,y,,,,,5,19,119,9,4,0,4,0,,,,,0,33,33,33,,,,,,down,0.583530955191236,2626.5864989054317,None,001,80,2019_Oct_30_1459,ACPT_experiment_5_30_19,3.1.0,59.952294773985926,
,,,C,D,d,v,R,U,g,R,u,,,,,5,19,119,9,4,0,4,0,,,,,0,34,34,11,,,,,,up,0.5170786941489496,2628.454387386333,None,001,80,2019_Oct_30_1459,ACPT_experiment_5_30_19,3.1.0,59.952294773985926,
,,,C,D,d,v,R,G,y,R,y,,,,,5,19,119,9,4,0,4,0,,,,,0,35,35,29,,,,,,down,0.5504361365419754,2630.2558257192577,None,001,80,2019_Oct_30_1459,ACPT_experiment_5_30_19,3.1.0,59.952294773985926,
,,,C,D,d,v,L,G,d,R,i,,,,,5,19,119,9,4,0,4,0,,,,,1,0,36,17,,,,,,up,0.9340672510006698,2632.090631456169,None,001,80,2019_Oct_30_1459,ACPT_experiment_5_30_19,3.1.0,59.952294773985926,
,,,C,D,d,v,R,U,d,R,u,,,,,5,19,119,9,4,0,4,0,,,,,1,1,37,9,,,,,,up,0.4836904613839579,2634.309087023248,None,001,80,2019_Oct_30_1459,ACPT_experiment_5_30_19,3.1.0,59.952294773985926,
,,,C,D,d,v,R,G,d,L,i,,,,,5,19,119,9,4,0,4,0,,,,,1,2,38,4,,,,,,up,0.6505368391699449,2636.077147990596,None,001,80,2019_Oct_30_1459,ACPT_experiment_5_30_19,3.1.0,59.952294773985926,
,,,C,D,d,v,R,U,y,L,u,,,,,5,19,119,9,4,0,4,0,,,,,1,3,39,30,,,,,,down,0.6171576623964938,2638.0120151875017,None,001,80,2019_Oct_30_1459,ACPT_experiment_5_30_19,3.1.0,59.952294773985926,
,,,C,D,d,v,L,D,y,R,y,,,,,5,19,119,9,4,0,4,0,,,,,1,4,40,33,,,,,,down,0.5668413668026915,2639.930488926937,None,001,80,2019_Oct_30_1459,ACPT_experiment_5_30_19,3.1.0,59.952294773985926,
,,,C,D,d,v,L,U,y,L,u,,,,,5,19,119,9,4,0,4,0,,,,,1,5,41,24,,,,,,down,0.617154643729009,2641.7816926493106,None,001,80,2019_Oct_30_1459,ACPT_experiment_5_30_19,3.1.0,59.952294773985926,
,,,C,D,d,v,R,U,g,L,u,,,,,5,19,119,9,4,0,4,0,,,,,1,6,42,10,,,,,,up,0.5170747698866762,2643.683212365413,None,001,80,2019_Oct_30_1459,ACPT_experiment_5_30_19,3.1.0,59.952294773985926,
,,,C,D,d,v,R,G,g,R,c ,,,,,5,19,119,9,4,0,4,0,,,,,1,7,43,7,,,,,,up,0.6004801486633369,2645.4846494908707,None,001,80,2019_Oct_30_1459,ACPT_experiment_5_30_19,3.1.0,59.952294773985926,
,,,C,D,d,v,L,U,d,L,u,,,,,5,19,119,9,4,0,4,0,,,,,1,8,44,20,,,,,,up,0.617262711894,2647.369484750314,None,001,80,2019_Oct_30_1459,ACPT_experiment_5_30_19,3.1.0,59.952294773985926,
,,,C,D,d,v,R,U,g,R,u,,,,,5,19,119,9,4,0,4,0,,,,,1,9,45,11,,,,,,up,0.6839066580869257,2649.2709788077736,None,001,80,2019_Oct_30_1459,ACPT_experiment_5_30_19,3.1.0,59.952294773985926,
,,,C,D,d,v,L,D,d,R,c ,,,,,5,19,119,9,4,0,4,0,,,,,1,10,46,13,,,,,,up,0.45035988509698655,2651.2392378598415,None,001,80,2019_Oct_30_1459,ACPT_experiment_5_30_19,3.1.0,59.952294773985926,
,,,C,D,d,v,R,D,d,L,c,,,,,5,19,119,9,4,0,4,0,,,,,1,11,47,0,,,,,,up,0.46701204205237445,2652.9906575374225,None,001,80,2019_Oct_30_1459,ACPT_experiment_5_30_19,3.1.0,59.952294773985926,
,,,C,D,d,v,R,D,y,L,y,,,,,5,19,119,9,4,0,4,0,,,,,1,12,48,26,,,,,,down,0.5837908621433598,2654.742040085439,None,001,80,2019_Oct_30_1459,ACPT_experiment_5_30_19,3.1.0,59.952294773985926,
,,,C,D,d,v,R,G,y,L,y,,,,,5,19,119,9,4,0,4,0,,,,,1,13,49,28,,,,,,down,0.567097953226039,2656.626889834468,None,001,80,2019_Oct_30_1459,ACPT_experiment_5_30_19,3.1.0,59.952294773985926,
,,,C,D,d,v,L,D,y,L,y,,,,,5,19,119,9,4,0,4,0,,,,,1,14,50,32,,,,,,down,0.583785428549163,2658.478361010457,None,001,80,2019_Oct_30_1459,ACPT_experiment_5_30_19,3.1.0,59.952294773985926,
,,,C,D,d,v,L,D,d,L,c ,,,,,5,19,119,9,4,0,4,0,,,,,1,15,51,12,,,,,,up,0.5171040509267186,2660.329804414734,None,001,80,2019_Oct_30_1459,ACPT_experiment_5_30_19,3.1.0,59.952294773985926,
,,,C,D,d,v,R,G,g,L,c ,,,,,5,19,119,9,4,0,4,0,,,,,1,16,52,6,,,,,,up,0.5003987654890807,2662.131265689506,None,001,80,2019_Oct_30_1459,ACPT_experiment_5_30_19,3.1.0,59.952294773985926,
,,,C,D,d,v,L,D,g,L,i,,,,,5,19,119,9,4,0,4,0,,,,,1,17,53,14,,,,,,up,0.41699338670878205,2663.9160234900337,None,001,80,2019_Oct_30_1459,ACPT_experiment_5_30_19,3.1.0,59.952294773985926,
,,,C,D,d,v,L,G,g,R,c ,,,,,5,19,119,9,4,0,4,0,,,,,1,18,54,19,,,,,,up,0.4500885072229721,2665.6176527232565,None,001,80,2019_Oct_30_1459,ACPT_experiment_5_30_19,3.1.0,59.952294773985926,
,,,C,D,d,v,L,G,g,L,c ,,,,,5,19,119,9,4,0,4,0,,,,,1,19,55,18,,,,,,up,0.45052953400227125,2667.33526427194,None,001,80,2019_Oct_30_1459,ACPT_experiment_5_30_19,3.1.0,59.952294773985926,
,,,C,D,d,v,L,D,g,R,i,,,,,5,19,119,9,4,0,4,0,,,,,1,20,56,15,,,,,,up,0.4170250826791744,2669.053431858494,None,001,80,2019_Oct_30_1459,ACPT_experiment_5_30_19,3.1.0,59.952294773985926,
,,,C,D,d,v,L,U,y,R,u,,,,,5,19,119,9,4,0,4,0,,,,,1,21,57,25,,,,,,down,0.700601680069667,2670.754824428477,None,001,80,2019_Oct_30_1459,ACPT_experiment_5_30_19,3.1.0,59.952294773985926,
,,,C,D,d,v,L,U,g,L,u,,,,,5,19,119,9,4,0,4,0,,,,,1,22,58,22,,,,,,up,0.48344353468564805,2672.7399958463175,None,001,80,2019_Oct_30_1459,ACPT_experiment_5_30_19,3.1.0,59.952294773985926,
,,,C,D,d,v,R,D,y,R,y,,,,,5,19,119,9,4,0,4,0,,,,,1,23,59,27,,,,,,down,0.5337317567064019,2674.5245154742734,None,001,80,2019_Oct_30_1459,ACPT_experiment_5_30_19,3.1.0,59.952294773985926,
,,,C,D,d,v,L,G,y,L,y,,,,,5,19,119,9,4,0,4,0,,,,,1,24,60,34,,,,,,down,0.6003645338387287,2676.359286798419,None,001,80,2019_Oct_30_1459,ACPT_experiment_5_30_19,3.1.0,59.952294773985926,
,,,C,D,d,v,R,U,d,L,u,,,,,5,19,119,9,4,0,4,0,,,,,1,25,61,8,,,,,,up,0.5003794460390054,2678.244142584772,None,001,80,2019_Oct_30_1459,ACPT_experiment_5_30_19,3.1.0,59.952294773985926,
,,,C,D,d,v,R,D,g,L,i,,,,,5,19,119,9,4,0,4,0,,,,,1,26,62,2,,,,,,up,0.433657920188125,2680.0455788046347,None,001,80,2019_Oct_30_1459,ACPT_experiment_5_30_19,3.1.0,59.952294773985926,
,,,C,D,d,v,R,G,y,R,y,,,,,5,19,119,9,4,0,4,0,,,,,1,27,63,29,,,,,,down,0.5337568116156035,2681.763603910258,None,001,80,2019_Oct_30_1459,ACPT_experiment_5_30_19,3.1.0,59.952294773985926,
,,,C,D,d,v,L,G,d,L,i,,,,,5,19,119,9,4,0,4,0,,,,,1,28,64,16,,,,,,up,0.48373966560393455,2683.5816968150684,None,001,80,2019_Oct_30_1459,ACPT_experiment_5_30_19,3.1.0,59.952294773985926,
,,,C,D,d,v,R,D,g,R,i,,,,,5,19,119,9,4,0,4,0,,,,,1,29,65,3,,,,,,up,0.5171297095694172,2685.349803062374,None,001,80,2019_Oct_30_1459,ACPT_experiment_5_30_19,3.1.0,59.952294773985926,
,,,C,D,d,v,L,G,y,R,y,,,,,5,19,119,9,4,0,4,0,,,,,1,30,66,35,,,,,,down,0.4971096294175368,2687.1712252514844,None,001,80,2019_Oct_30_1459,ACPT_experiment_5_30_19,3.1.0,59.952294773985926,
,,,C,D,d,v,L,U,g,R,u,,,,,5,19,119,9,4,0,4,0,,,,,1,31,67,23,,,,,,up,0.6004704889382992,2688.9526782188914,None,001,80,2019_Oct_30_1459,ACPT_experiment_5_30_19,3.1.0,59.952294773985926,
,,,C,D,d,v,R,D,d,R,c ,,,,,5,19,119,9,4,0,4,0,,,,,1,32,68,1,,,,,,up,0.4670624537393451,2690.837489027159,None,001,80,2019_Oct_30_1459,ACPT_experiment_5_30_19,3.1.0,59.952294773985926,
,,,C,D,d,v,R,G,d,R,i,,,,,5,19,119,9,4,0,4,0,,,,,1,33,69,5,,,,,,up,0.46704403988769627,2692.588903874879,None,001,80,2019_Oct_30_1459,ACPT_experiment_5_30_19,3.1.0,59.952294773985926,
,,,C,D,d,v,R,U,y,R,u,,,,,5,19,119,9,4,0,4,0,,,,,1,34,70,31,,,,,,down,0.5502501868541003,2694.373818645923,None,001,80,2019_Oct_30_1459,ACPT_experiment_5_30_19,3.1.0,59.952294773985926,
,,,C,D,d,v,L,U,d,R,u,,,,,5,19,119,9,4,0,4,0,,,,,1,35,71,21,,,,,,up,0.7672854726224614,2696.2251403980517,None,001,80,2019_Oct_30_1459,ACPT_experiment_5_30_19,3.1.0,59.952294773985926,
,,,C,D,d,v,,,,,,,,,,5,19,119,9,5,0,5,0,0,0,0,0,,,,,,,,,,,,,,001,80,2019_Oct_30_1459,ACPT_experiment_5_30_19,3.1.0,59.952294773985926,
,,,C,D,d,v,L,D,d,R,c ,,,,,5,19,119,9,5,0,5,0,,,,,0,0,0,13,,,,,,up,0.8337422616532422,2723.513861704145,None,001,80,2019_Oct_30_1459,ACPT_experiment_5_30_19,3.1.0,59.952294773985926,
,,,C,D,d,v,R,G,d,R,i,,,,,5,19,119,9,5,0,5,0,,,,,0,1,1,5,,,,,,up,0.4837354394767317,2725.631950322455,None,001,80,2019_Oct_30_1459,ACPT_experiment_5_30_19,3.1.0,59.952294773985926,
,,,C,D,d,v,R,D,y,R,y,,,,,5,19,119,9,5,0,5,0,,,,,0,2,2,27,,,,,,down,0.5671172726724762,2727.4000269868557,None,001,80,2019_Oct_30_1459,ACPT_experiment_5_30_19,3.1.0,59.952294773985926,
,,,C,D,d,v,R,G,g,R,c ,,,,,5,19,119,9,5,0,5,0,,,,,0,3,3,7,,,,,,up,0.5504171189604676,2729.251528953213,None,001,80,2019_Oct_30_1459,ACPT_experiment_5_30_19,3.1.0,59.952294773985926,
,,,C,D,d,v,L,G,d,R,i,,,,,5,19,119,9,5,0,5,0,,,,,0,4,4,17,,,,,,up,0.4002956479343993,2731.0863274453295,None,001,80,2019_Oct_30_1459,ACPT_experiment_5_30_19,3.1.0,59.952294773985926,
,,,C,D,d,v,L,U,d,R,u,,,,,5,19,119,9,5,0,5,0,,,,,0,5,5,21,,,,,,up,0.4503798082805588,2732.770963110721,None,001,80,2019_Oct_30_1459,ACPT_experiment_5_30_19,3.1.0,59.952294773985926,
,,,C,D,d,v,L,D,y,L,y,,,,,5,19,119,9,5,0,5,0,,,,,0,6,6,32,,,,,,down,0.5838319159702223,2734.5056759935323,None,001,80,2019_Oct_30_1459,ACPT_experiment_5_30_19,3.1.0,59.952294773985926,
,,,C,D,d,v,L,D,g,L,i,,,,,5,19,119,9,5,0,5,0,,,,,0,7,7,14,,,,,,up,0.5471560564656102,2736.3938559324597,None,001,80,2019_Oct_30_1459,ACPT_experiment_5_30_19,3.1.0,59.952294773985926,
,,,C,D,d,v,R,D,g,L,i,,,,,5,19,119,9,5,0,5,0,,,,,0,8,8,2,,,,,,up,0.5671142540122673,2738.225336309333,None,001,80,2019_Oct_30_1459,ACPT_experiment_5_30_19,3.1.0,59.952294773985926,
,,,C,D,d,v,R,G,d,L,i,,,,,5,19,119,9,5,0,5,0,,,,,0,9,9,4,,,,,,up,0.41699217924906407,2740.0768159375802,None,001,80,2019_Oct_30_1459,ACPT_experiment_5_30_19,3.1.0,59.952294773985926,
,,,C,D,d,v,R,D,d,L,c,,,,,5,19,119,9,5,0,5,0,,,,,0,10,10,0,,,,,,up,0.40031677857768955,2741.7781689630647,None,001,80,2019_Oct_30_1459,ACPT_experiment_5_30_19,3.1.0,59.952294773985926,
,,,C,D,d,v,L,D,g,R,i,,,,,5,19,119,9,5,0,5,0,,,,,0,11,11,15,,,,,,up,0.6000677991905832,2743.4799159241775,None,001,80,2019_Oct_30_1459,ACPT_experiment_5_30_19,3.1.0,59.952294773985926,
,,,C,D,d,v,L,U,y,L,u,,,,,5,19,119,9,5,0,5,0,,,,,0,12,12,24,,,,,,down,0.567136893987481,2745.3643442677385,None,001,80,2019_Oct_30_1459,ACPT_experiment_5_30_19,3.1.0,59.952294773985926,
,,,C,D,d,v,R,D,g,R,i,,,,,5,19,119,9,5,0,5,0,,,,,0,13,13,3,,,,,,up,0.5337679806725646,2747.215833555707,None,001,80,2019_Oct_30_1459,ACPT_experiment_5_30_19,3.1.0,59.952294773985926,
,,,C,D,d,v,L,G,g,R,c ,,,,,5,19,119,9,5,0,5,0,,,,,0,14,14,19,,,,,,up,0.4837173274900124,2749.0339693255446,None,001,80,2019_Oct_30_1459,ACPT_experiment_5_30_19,3.1.0,59.952294773985926,
,,,C,D,d,v,R,G,g,L,c ,,,,,5,19,119,9,5,0,5,0,,,,,0,15,15,6,,,,,,up,0.5335083755853702,2750.818992466622,None,001,80,2019_Oct_30_1459,ACPT_experiment_5_30_19,3.1.0,59.952294773985926,
,,,C,D,d,v,R,U,y,L,u,,,,,5,19,119,9,5,0,5,0,,,,,0,16,16,30,,,,,,down,0.5837972013359831,2752.6368387466027,None,001,80,2019_Oct_30_1459,ACPT_experiment_5_30_19,3.1.0,59.952294773985926,
,,,C,D,d,v,L,U,y,R,u,,,,,5,19,119,9,5,0,5,0,,,,,0,17,17,25,,,,,,down,0.5504442869350896,2754.5049943792474,None,001,80,2019_Oct_30_1459,ACPT_experiment_5_30_19,3.1.0,59.952294773985926,
,,,C,D,d,v,L,G,d,L,i,,,,,5,19,119,9,5,0,5,0,,,,,0,18,18,16,,,,,,up,0.5337888094545633,2756.3398046441544,None,001,80,2019_Oct_30_1459,ACPT_experiment_5_30_19,3.1.0,59.952294773985926,
,,,C,D,d,v,R,D,y,L,y,,,,,5,19,119,9,5,0,5,0,,,,,0,19,19,26,,,,,,down,0.5835375962487888,2758.1748705898826,None,001,80,2019_Oct_30_1459,ACPT_experiment_5_30_19,3.1.0,59.952294773985926,
,,,C,D,d,v,R,G,y,R,y,,,,,5,19,119,9,5,0,5,0,,,,,0,20,20,29,,,,,,down,0.5838044461306708,2760.042746392395,None,001,80,2019_Oct_30_1459,ACPT_experiment_5_30_19,3.1.0,59.952294773985926,
,,,C,D,d,v,R,U,d,R,u,,,,,5,19,119,9,5,0,5,0,,,,,0,21,21,9,,,,,,up,0.45036531869118335,2761.9109053455722,None,001,80,2019_Oct_30_1459,ACPT_experiment_5_30_19,3.1.0,59.952294773985926,
,,,C,D,d,v,R,D,d,R,c ,,,,,5,19,119,9,5,0,5,0,,,,,0,22,22,1,,,,,,up,0.4336917292239377,2763.6456085686586,None,001,80,2019_Oct_30_1459,ACPT_experiment_5_30_19,3.1.0,59.952294773985926,
,,,C,D,d,v,L,U,g,L,u,,,,,5,19,119,9,5,0,5,0,,,,,0,23,23,22,,,,,,up,0.433483139553573,2765.397258268422,None,001,80,2019_Oct_30_1459,ACPT_experiment_5_30_19,3.1.0,59.952294773985926,
,,,C,D,d,v,R,U,d,L,u,,,,,5,19,119,9,5,0,5,0,,,,,0,24,24,8,,,,,,up,0.4837227610878472,2767.115057879859,None,001,80,2019_Oct_30_1459,ACPT_experiment_5_30_19,3.1.0,59.952294773985926,
,,,C,D,d,v,L,G,y,R,y,,,,,5,19,119,9,5,0,5,0,,,,,0,25,25,35,,,,,,down,0.5004265371935617,2768.883115526678,None,001,80,2019_Oct_30_1459,ACPT_experiment_5_30_19,3.1.0,59.952294773985926,
,,,C,D,d,v,L,D,d,L,c ,,,,,5,19,119,9,5,0,5,0,,,,,0,26,26,12,,,,,,up,0.7339256152918097,2770.6678944578525,None,001,80,2019_Oct_30_1459,ACPT_experiment_5_30_19,3.1.0,59.952294773985926,
,,,C,D,d,v,L,D,y,R,y,,,,,5,19,119,9,5,0,5,0,,,,,0,27,27,33,,,,,,down,0.6338212902737723,2772.702862659251,None,001,80,2019_Oct_30_1459,ACPT_experiment_5_30_19,3.1.0,59.952294773985926,
,,,C,D,d,v,L,U,g,R,u,,,,,5,19,119,9,5,0,5,0,,,,,0,28,28,23,,,,,,up,0.5003869926986226,2774.637736497214,None,001,80,2019_Oct_30_1459,ACPT_experiment_5_30_19,3.1.0,59.952294773985926,
,,,C,D,d,v,L,G,y,L,y,,,,,5,19,119,9,5,0,5,0,,,,,0,29,29,34,,,,,,down,0.5337562078821065,2776.422493392147,None,001,80,2019_Oct_30_1459,ACPT_experiment_5_30_19,3.1.0,59.952294773985926,
,,,C,D,d,v,R,U,y,R,u,,,,,5,19,119,9,5,0,5,0,,,,,0,30,30,31,,,,,,down,0.4836702363390941,2778.2406656878156,None,001,80,2019_Oct_30_1459,ACPT_experiment_5_30_19,3.1.0,59.952294773985926,
,,,C,D,d,v,L,G,g,L,c ,,,,,5,19,119,9,5,0,5,0,,,,,0,31,31,18,,,,,,up,0.5502239244815428,2780.0256124566986,None,001,80,2019_Oct_30_1459,ACPT_experiment_5_30_19,3.1.0,59.952294773985926,
,,,C,D,d,v,R,U,g,L,u,,,,,5,19,119,9,5,0,5,0,,,,,0,32,32,10,,,,,,up,0.4503580739001336,2781.8601670407807,None,001,80,2019_Oct_30_1459,ACPT_experiment_5_30_19,3.1.0,59.952294773985926,
,,,C,D,d,v,R,U,g,R,u,,,,,5,19,119,9,5,0,5,0,,,,,0,33,33,11,,,,,,up,0.4169758784628357,2783.5782244461043,None,001,80,2019_Oct_30_1459,ACPT_experiment_5_30_19,3.1.0,59.952294773985926,
,,,C,D,d,v,R,G,y,L,y,,,,,5,19,119,9,5,0,5,0,,,,,0,34,34,28,,,,,,down,0.5003963505550928,2785.2795602652077,None,001,80,2019_Oct_30_1459,ACPT_experiment_5_30_19,3.1.0,59.952294773985926,
,,,C,D,d,v,L,U,d,L,u,,,,,5,19,119,9,5,0,5,0,,,,,0,35,35,20,,,,,,up,0.4168116631517478,2787.0811851515537,None,001,80,2019_Oct_30_1459,ACPT_experiment_5_30_19,3.1.0,59.952294773985926,
,,,C,D,d,v,R,D,y,L,y,,,,,5,19,119,9,5,0,5,0,,,,,1,0,36,26,,,,,,down,0.5671172726724762,2788.7823600758784,None,001,80,2019_Oct_30_1459,ACPT_experiment_5_30_19,3.1.0,59.952294773985926,
,,,C,D,d,v,L,U,g,R,u,,,,,5,19,119,9,5,0,5,0,,,,,1,1,37,23,,,,,,up,0.45035384777293075,2790.633836383593,None,001,80,2019_Oct_30_1459,ACPT_experiment_5_30_19,3.1.0,59.952294773985926,
,,,C,D,d,v,L,G,y,R,y,,,,,5,19,119,9,5,0,5,0,,,,,1,2,38,35,,,,,,down,0.5838017293317534,2792.368550172003,None,001,80,2019_Oct_30_1459,ACPT_experiment_5_30_19,3.1.0,59.952294773985926,
,,,C,D,d,v,L,D,y,R,y,,,,,5,19,119,9,5,0,5,0,,,,,1,3,39,33,,,,,,down,0.6305397008618456,2794.256710489615,None,001,80,2019_Oct_30_1459,ACPT_experiment_5_30_19,3.1.0,59.952294773985926,
,,,C,D,d,v,L,D,g,L,i,,,,,5,19,119,9,5,0,5,0,,,,,1,4,40,14,,,,,,up,0.4670672836000449,2796.1715893023393,None,001,80,2019_Oct_30_1459,ACPT_experiment_5_30_19,3.1.0,59.952294773985926,
,,,C,D,d,v,L,D,y,L,y,,,,,5,19,119,9,5,0,5,0,,,,,1,5,41,32,,,,,,down,0.5504560597255477,2797.9062858843645,None,001,80,2019_Oct_30_1459,ACPT_experiment_5_30_19,3.1.0,59.952294773985926,
,,,C,D,d,v,R,U,d,L,u,,,,,5,19,119,9,5,0,5,0,,,,,1,6,42,8,,,,,,up,0.5504288917509257,2799.74110701646,None,001,80,2019_Oct_30_1459,ACPT_experiment_5_30_19,3.1.0,59.952294773985926,
,,,C,D,d,v,R,D,g,R,i,,,,,5,19,119,9,5,0,5,0,,,,,1,7,43,3,,,,,,up,0.5638036854252277,2801.5958929871595,None,001,80,2019_Oct_30_1459,ACPT_experiment_5_30_19,3.1.0,59.952294773985926,
,,,C,D,d,v,R,G,y,R,y,,,,,5,19,119,9,5,0,5,0,,,,,1,8,44,29,,,,,,down,0.5671088204144326,2803.444070197216,None,001,80,2019_Oct_30_1459,ACPT_experiment_5_30_19,3.1.0,59.952294773985926,
,,,C,D,d,v,L,U,y,L,u,,,,,5,19,119,9,5,0,5,0,,,,,1,9,45,24,,,,,,down,0.6338372891914332,2805.295535335874,None,001,80,2019_Oct_30_1459,ACPT_experiment_5_30_19,3.1.0,59.952294773985926,
,,,C,D,d,v,L,D,d,L,c ,,,,,5,19,119,9,5,0,5,0,,,,,1,10,46,12,,,,,,up,0.5504545503972622,2807.213733471308,None,001,80,2019_Oct_30_1459,ACPT_experiment_5_30_19,3.1.0,59.952294773985926,
,,,C,D,d,v,R,D,y,R,y,,,,,5,19,119,9,5,0,5,0,,,,,1,11,47,27,,,,,,down,0.5671350827869901,2809.065191063306,None,001,80,2019_Oct_30_1459,ACPT_experiment_5_30_19,3.1.0,59.952294773985926,
,,,C,D,d,v,L,G,d,L,i,,,,,5,19,119,9,5,0,5,0,,,,,1,12,48,16,,,,,,up,0.7005521739811229,2810.9333723545933,None,001,80,2019_Oct_30_1459,ACPT_experiment_5_30_19,3.1.0,59.952294773985926,
,,,C,D,d,v,R,G,y,L,y,,,,,5,19,119,9,5,0,5,0,,,,,1,13,49,28,,,,,,down,0.5170699400259764,2812.9182905065427,None,001,80,2019_Oct_30_1459,ACPT_experiment_5_30_19,3.1.0,59.952294773985926,
,,,C,D,d,v,R,U,g,L,u,,,,,5,19,119,9,5,0,5,0,,,,,1,14,50,10,,,,,,up,0.48345621307453257,2814.7366716937468,None,001,80,2019_Oct_30_1459,ACPT_experiment_5_30_19,3.1.0,59.952294773985926,
,,,C,D,d,v,R,G,g,L,c ,,,,,5,19,119,9,5,0,5,0,,,,,1,15,51,6,,,,,,up,0.400304100188805,2816.504499016519,None,001,80,2019_Oct_30_1459,ACPT_experiment_5_30_19,3.1.0,59.952294773985926,
,,,C,D,d,v,R,U,g,R,u,,,,,5,19,119,9,5,0,5,0,,,,,1,16,52,11,,,,,,up,0.5671172726724762,2818.189164264815,None,001,80,2019_Oct_30_1459,ACPT_experiment_5_30_19,3.1.0,59.952294773985926,
,,,C,D,d,v,L,D,d,R,c ,,,,,5,19,119,9,5,0,5,0,,,,,1,17,53,13,,,,,,up,0.48360774999673595,2820.0406363464026,None,001,80,2019_Oct_30_1459,ACPT_experiment_5_30_19,3.1.0,59.952294773985926,
,,,C,D,d,v,R,G,d,R,i,,,,,5,19,119,9,5,0,5,0,,,,,1,18,54,5,,,,,,up,0.6671868830599124,2821.8254092402494,None,001,80,2019_Oct_30_1459,ACPT_experiment_5_30_19,3.1.0,59.952294773985926,
,,,C,D,d,v,L,G,d,R,i,,,,,5,19,119,9,5,0,5,0,,,,,1,19,55,17,,,,,,up,0.4503526403022988,2823.776959988216,None,001,80,2019_Oct_30_1459,ACPT_experiment_5_30_19,3.1.0,59.952294773985926,
,,,C,D,d,v,L,U,d,R,u,,,,,5,19,119,9,5,0,5,0,,,,,1,20,56,21,,,,,,up,0.5171118994512653,2825.511654759044,None,001,80,2019_Oct_30_1459,ACPT_experiment_5_30_19,3.1.0,59.952294773985926,
,,,C,D,d,v,L,G,y,L,y,,,,,5,19,119,9,5,0,5,0,,,,,1,21,57,34,,,,,,down,0.7003837325428321,2827.3299541404594,None,001,80,2019_Oct_30_1459,ACPT_experiment_5_30_19,3.1.0,59.952294773985926,
,,,C,D,d,v,R,U,y,L,u,,,,,5,19,119,9,5,0,5,0,,,,,1,22,58,30,,,,,,down,0.6004774318680575,2829.3313904206916,None,001,80,2019_Oct_30_1459,ACPT_experiment_5_30_19,3.1.0,59.952294773985926,
,,,C,D,d,v,R,G,d,L,i,,,,,5,19,119,9,5,0,5,0,,,,,1,23,59,4,,,,,,up,0.8506639852894295,2831.2162431883844,None,001,80,2019_Oct_30_1459,ACPT_experiment_5_30_19,3.1.0,59.952294773985926,
,,,C,D,d,v,R,G,g,R,c ,,,,,5,19,119,9,5,0,5,0,,,,,1,24,60,7,,,,,,up,0.4670594350754982,2833.3345612251433,None,001,80,2019_Oct_30_1459,ACPT_experiment_5_30_19,3.1.0,59.952294773985926,
,,,C,D,d,v,L,G,g,R,c ,,,,,5,19,119,9,5,0,5,0,,,,,1,25,61,19,,,,,,up,0.450104506140633,2835.10291077675,None,001,80,2019_Oct_30_1459,ACPT_experiment_5_30_19,3.1.0,59.952294773985926,
,,,C,D,d,v,L,U,g,L,u,,,,,5,19,119,9,5,0,5,0,,,,,1,26,62,22,,,,,,up,0.5004002748210041,2836.837376732863,None,001,80,2019_Oct_30_1459,ACPT_experiment_5_30_19,3.1.0,59.952294773985926,
