facing_vig,person_vig,text_vig,facing_train,person_train,food_train,correct_key_train,facing_exp,person_exp,food_exp,showL_R,consistent,vig_random.thisRepN,vig_random.thisTrialN,vig_random.thisN,vig_random.thisIndex,trainTrials.thisRepN,trainTrials.thisTrialN,trainTrials.thisN,trainTrials.thisIndex,expBlock.thisRepN,expBlock.thisTrialN,expBlock.thisN,expBlock.thisIndex,breakLoop.thisRepN,breakLoop.thisTrialN,breakLoop.thisN,breakLoop.thisIndex,expTrials.thisRepN,expTrials.thisTrialN,expTrials.thisN,expTrials.thisIndex,train_resp.keys,train_resp.corr,train_resp.rt,train_resp.started,train_resp.stopped,exp_resp.keys,exp_resp.rt,exp_resp.started,exp_resp.stopped,session,participant,date,expName,psychopyVersion,frameRate,
C,D,"is allergic to gluten, meaning she can’t eat wheat products. She enjoys eating dairy products. She thinks eating insects, like crickets, is disgusting.",,,,,,,,,,0,0,0,1,,,,,,,,,,,,,,,,,,,,,,,,,,001,81,2019_Oct_31_0903,ACPT_experiment_5_30_19,3.1.0,59.95457334241837,
C,U,"did not report her food preferences, so her food preferences are unknown.",,,,,,,,,,0,1,1,2,,,,,,,,,,,,,,,,,,,,,,,,,,001,81,2019_Oct_31_0903,ACPT_experiment_5_30_19,3.1.0,59.95457334241837,
C,G,"cannot eat dairy products because she is lactose intolerant. She enjoys eating wheat products. She thinks eating insects, like crickets, is disgusting.",,,,,,,,,,0,2,2,0,,,,,,,,,,,,,,,,,,,,,,,,,,001,81,2019_Oct_31_0903,ACPT_experiment_5_30_19,3.1.0,59.95457334241837,
,,,C,D,d,v,,,,,,,,,,0,0,0,18,,,,,,,,,,,,,b,0,3.2858502549497643,467.2723402251431,None,,,,,001,81,2019_Oct_31_0903,ACPT_experiment_5_30_19,3.1.0,59.95457334241837,
,,,C,D,y,b,,,,,,,,,,0,1,1,2,,,,,,,,,,,,,b,1,2.368577038112562,473.82744170658407,None,,,,,001,81,2019_Oct_31_0903,ACPT_experiment_5_30_19,3.1.0,59.95457334241837,
,,,C,G,g,v,,,,,,,,,,0,2,2,19,,,,,,,,,,,,,b,0,3.3860970609093783,479.48196348382044,None,,,,,001,81,2019_Oct_31_0903,ACPT_experiment_5_30_19,3.1.0,59.95457334241837,
,,,C,U,d,n,,,,,,,,,,0,3,3,15,,,,,,,,,,,,,n,1,5.25420922478952,486.1539651356288,None,,,,,001,81,2019_Oct_31_0903,ACPT_experiment_5_30_19,3.1.0,59.95457334241837,
,,,C,G,g,v,,,,,,,,,,0,4,4,4,,,,,,,,,,,,,b,0,1.9515803308604518,494.69411849582684,None,,,,,001,81,2019_Oct_31_0903,ACPT_experiment_5_30_19,3.1.0,59.95457334241837,
,,,C,U,d,n,,,,,,,,,,0,5,5,6,,,,,,,,,,,,,n,1,2.8356328507798025,499.9316417546361,None,,,,,001,81,2019_Oct_31_0903,ACPT_experiment_5_30_19,3.1.0,59.95457334241837,
,,,C,D,y,b,,,,,,,,,,0,6,6,11,,,,,,,,,,,,,b,1,1.8681831024878193,506.0531994213816,None,,,,,001,81,2019_Oct_31_0903,ACPT_experiment_5_30_19,3.1.0,59.95457334241837,
,,,C,G,y,b,,,,,,,,,,0,7,7,5,,,,,,,,,,,,,b,1,2.9690668464900227,511.2073157920677,None,,,,,001,81,2019_Oct_31_0903,ACPT_experiment_5_30_19,3.1.0,59.95457334241837,
,,,C,D,d,v,,,,,,,,,,0,8,8,9,,,,,,,,,,,,,v,1,2.7688702711020596,517.4957017246197,None,,,,,001,81,2019_Oct_31_0903,ACPT_experiment_5_30_19,3.1.0,59.95457334241837,
,,,C,U,y,n,,,,,,,,,,0,9,9,17,,,,,,,,,,,,,n,1,0.9841329975024564,523.5505203572538,None,,,,,001,81,2019_Oct_31_0903,ACPT_experiment_5_30_19,3.1.0,59.95457334241837,
,,,C,U,y,n,,,,,,,,,,0,10,10,8,,,,,,,,,,,,,n,1,1.3677770922076888,527.8205974901502,None,,,,,001,81,2019_Oct_31_0903,ACPT_experiment_5_30_19,3.1.0,59.95457334241837,
,,,C,G,y,b,,,,,,,,,,0,11,11,14,,,,,,,,,,,,,b,1,2.001600797419087,532.4743226420251,None,,,,,001,81,2019_Oct_31_0903,ACPT_experiment_5_30_19,3.1.0,59.95457334241837,
,,,C,G,d,b,,,,,,,,,,0,12,12,12,,,,,,,,,,,,,b,1,1.9182111156842439,537.7451985133666,None,,,,,001,81,2019_Oct_31_0903,ACPT_experiment_5_30_19,3.1.0,59.95457334241837,
,,,C,U,g,n,,,,,,,,,,0,13,13,16,,,,,,,,,,,,,n,1,5.671239439208875,542.9493525569851,None,,,,,001,81,2019_Oct_31_0903,ACPT_experiment_5_30_19,3.1.0,59.95457334241837,
,,,C,D,d,v,,,,,,,,,,0,14,14,0,,,,,,,,,,,,,v,1,1.5012611977290362,551.9064926628344,None,,,,,001,81,2019_Oct_31_0903,ACPT_experiment_5_30_19,3.1.0,59.95457334241837,
,,,C,D,g,b,,,,,,,,,,0,15,15,1,,,,,,,,,,,,,b,1,1.167641191961593,556.6769718817523,None,,,,,001,81,2019_Oct_31_0903,ACPT_experiment_5_30_19,3.1.0,59.95457334241837,
,,,C,G,g,v,,,,,,,,,,0,16,16,13,,,,,,,,,,,,,v,1,6.288398309072363,561.1305409083288,None,,,,,001,81,2019_Oct_31_0903,ACPT_experiment_5_30_19,3.1.0,59.95457334241837,
,,,C,D,g,b,,,,,,,,,,0,17,17,10,,,,,,,,,,,,,b,1,0.8673725912522059,570.7048851639847,None,,,,,001,81,2019_Oct_31_0903,ACPT_experiment_5_30_19,3.1.0,59.95457334241837,
,,,C,G,d,b,,,,,,,,,,0,18,18,3,,,,,,,,,,,,,b,1,3.0021728341962444,574.8751136526844,None,,,,,001,81,2019_Oct_31_0903,ACPT_experiment_5_30_19,3.1.0,59.95457334241837,
,,,C,U,g,n,,,,,,,,,,0,19,19,7,,,,,,,,,,,,,n,1,2.5019992610177724,581.1632580921287,None,,,,,001,81,2019_Oct_31_0903,ACPT_experiment_5_30_19,3.1.0,59.95457334241837,
,,,C,D,d,v,,,,,,,,,,1,0,20,18,,,,,,,,,,,,,v,1,2.251860704374849,586.9511670757929,None,,,,,001,81,2019_Oct_31_0903,ACPT_experiment_5_30_19,3.1.0,59.95457334241837,
,,,C,U,y,n,,,,,,,,,,1,1,21,8,,,,,,,,,,,,,n,1,1.2509807638562052,592.488979462214,None,,,,,001,81,2019_Oct_31_0903,ACPT_experiment_5_30_19,3.1.0,59.95457334241837,
,,,C,D,g,b,,,,,,,,,,1,2,22,10,,,,,,,,,,,,,b,1,4.103252791363047,597.0426235327759,None,,,,,001,81,2019_Oct_31_0903,ACPT_experiment_5_30_19,3.1.0,59.95457334241837,
,,,C,U,g,n,,,,,,,,,,1,3,23,7,,,,,,,,,,,,,n,1,1.2343292106379522,604.4318334397831,None,,,,,001,81,2019_Oct_31_0903,ACPT_experiment_5_30_19,3.1.0,59.95457334241837,
,,,C,U,d,n,,,,,,,,,,1,4,24,15,,,,,,,,,,,,,n,1,1.2476937408646336,608.9721126782679,None,,,,,001,81,2019_Oct_31_0903,ACPT_experiment_5_30_19,3.1.0,59.95457334241837,
,,,C,G,d,b,,,,,,,,,,1,5,25,3,,,,,,,,,,,,,b,1,2.2017699029529467,613.5057520638511,None,,,,,001,81,2019_Oct_31_0903,ACPT_experiment_5_30_19,3.1.0,59.95457334241837,
,,,C,U,g,n,,,,,,,,,,1,6,26,16,,,,,,,,,,,,,n,1,1.4011378551222151,618.9934664040775,None,,,,,001,81,2019_Oct_31_0903,ACPT_experiment_5_30_19,3.1.0,59.95457334241837,
,,,C,D,d,v,,,,,,,,,,1,7,27,0,,,,,,,,,,,,,v,1,1.3506848140677903,623.6976156178425,None,,,,,001,81,2019_Oct_31_0903,ACPT_experiment_5_30_19,3.1.0,59.95457334241837,
,,,C,D,d,v,,,,,,,,,,1,8,28,9,,,,,,,,,,,,,v,1,1.5012180308403913,628.3342702259542,None,,,,,001,81,2019_Oct_31_0903,ACPT_experiment_5_30_19,3.1.0,59.95457334241837,
,,,C,U,d,n,,,,,,,,,,1,9,29,6,,,,,,,,,,,,,n,1,0.9340874760528095,633.1214278642001,None,,,,,001,81,2019_Oct_31_0903,ACPT_experiment_5_30_19,3.1.0,59.95457334241837,
,,,C,G,y,b,,,,,,,,,,1,10,30,14,,,,,,,,,,,,,b,1,2.068075094706728,637.3584168195084,None,,,,,001,81,2019_Oct_31_0903,ACPT_experiment_5_30_19,3.1.0,59.95457334241837,
,,,C,G,y,b,,,,,,,,,,1,11,31,5,,,,,,,,,,,,,b,1,2.118417652658536,642.6957208025706,None,,,,,001,81,2019_Oct_31_0903,ACPT_experiment_5_30_19,3.1.0,59.95457334241837,
,,,C,G,g,v,,,,,,,,,,1,12,32,13,,,,,,,,,,,,,b,0,2.0183094033709494,648.0833604006766,None,,,,,001,81,2019_Oct_31_0903,ACPT_experiment_5_30_19,3.1.0,59.95457334241837,
,,,C,D,y,b,,,,,,,,,,1,13,33,11,,,,,,,,,,,,,b,1,1.8848880860459758,653.3876193730539,None,,,,,001,81,2019_Oct_31_0903,ACPT_experiment_5_30_19,3.1.0,59.95457334241837,
,,,C,G,d,b,,,,,,,,,,1,14,34,12,,,,,,,,,,,,,b,1,1.834811774242553,658.558418691071,None,,,,,001,81,2019_Oct_31_0903,ACPT_experiment_5_30_19,3.1.0,59.95457334241837,
,,,C,D,y,b,,,,,,,,,,1,15,35,2,,,,,,,,,,,,,b,1,2.1184007481497247,663.6791776193859,None,,,,,001,81,2019_Oct_31_0903,ACPT_experiment_5_30_19,3.1.0,59.95457334241837,
,,,C,G,g,v,,,,,,,,,,1,16,36,19,,,,,,,,,,,,,v,1,2.7022000625438523,669.0834953349549,None,,,,,001,81,2019_Oct_31_0903,ACPT_experiment_5_30_19,3.1.0,59.95457334241837,
,,,C,U,y,n,,,,,,,,,,1,17,37,17,,,,,,,,,,,,,n,1,1.2843674873001873,675.071615383582,None,,,,,001,81,2019_Oct_31_0903,ACPT_experiment_5_30_19,3.1.0,59.95457334241837,
,,,C,D,g,b,,,,,,,,,,1,18,38,1,,,,,,,,,,,,,b,1,2.0680618125770707,679.6588861613563,None,,,,,001,81,2019_Oct_31_0903,ACPT_experiment_5_30_19,3.1.0,59.95457334241837,
,,,C,G,g,v,,,,,,,,,,1,19,39,4,,,,,,,,,,,,,v,1,3.7530331533926073,685.0128887887986,None,,,,,001,81,2019_Oct_31_0903,ACPT_experiment_5_30_19,3.1.0,59.95457334241837,
,,,C,U,y,n,,,,,,,,,,2,0,40,8,,,,,,,,,,,,,n,1,1.0842092489474453,692.0518537010648,None,,,,,001,81,2019_Oct_31_0903,ACPT_experiment_5_30_19,3.1.0,59.95457334241837,
,,,C,G,y,b,,,,,,,,,,2,1,41,14,,,,,,,,,,,,,b,1,2.685311242355965,696.438926695977,None,,,,,001,81,2019_Oct_31_0903,ACPT_experiment_5_30_19,3.1.0,59.95457334241837,
,,,C,U,y,n,,,,,,,,,,2,2,42,17,,,,,,,,,,,,,n,1,8.590216993630747,702.4101244172489,None,,,,,001,81,2019_Oct_31_0903,ACPT_experiment_5_30_19,3.1.0,59.95457334241837,
,,,C,G,d,b,,,,,,,,,,2,3,43,12,,,,,,,,,,,,,b,1,2.4853389536729082,714.2862804145407,None,,,,,001,81,2019_Oct_31_0903,ACPT_experiment_5_30_19,3.1.0,59.95457334241837,
,,,C,G,g,v,,,,,,,,,,2,4,44,13,,,,,,,,,,,,,v,1,3.052340611538966,720.0408657648513,None,,,,,001,81,2019_Oct_31_0903,ACPT_experiment_5_30_19,3.1.0,59.95457334241837,
,,,C,U,g,n,,,,,,,,,,2,5,45,7,,,,,,,,,,,,,n,1,2.502011335687712,726.3792800124502,None,,,,,001,81,2019_Oct_31_0903,ACPT_experiment_5_30_19,3.1.0,59.95457334241837,
,,,C,D,g,b,,,,,,,,,,2,6,46,1,,,,,,,,,,,,,b,1,2.4854026474931743,732.167274122432,None,,,,,001,81,2019_Oct_31_0903,ACPT_experiment_5_30_19,3.1.0,59.95457334241837,
,,,C,D,d,v,,,,,,,,,,2,7,47,0,,,,,,,,,,,,,v,1,2.0516807316307677,737.9218353234319,None,,,,,001,81,2019_Oct_31_0903,ACPT_experiment_5_30_19,3.1.0,59.95457334241837,
,,,C,D,d,v,,,,,,,,,,2,8,48,9,,,,,,,,,,,,,v,1,2.6855780922196573,743.2427552068839,None,,,,,001,81,2019_Oct_31_0903,ACPT_experiment_5_30_19,3.1.0,59.95457334241837,
,,,C,G,y,b,,,,,,,,,,2,9,49,5,,,,,,,,,,,,,b,1,1.701370533730369,749.2141968361975,None,,,,,001,81,2019_Oct_31_0903,ACPT_experiment_5_30_19,3.1.0,59.95457334241837,
,,,C,G,d,b,,,,,,,,,,2,10,50,3,,,,,,,,,,,,,b,1,9.490955479544937,754.2015145240002,None,,,,,001,81,2019_Oct_31_0903,ACPT_experiment_5_30_19,3.1.0,59.95457334241837,
,,,C,U,d,n,,,,,,,,,,2,11,51,6,,,,,,,,,,,,,n,1,1.4344892601948231,766.9784183650627,None,,,,,001,81,2019_Oct_31_0903,ACPT_experiment_5_30_19,3.1.0,59.95457334241837,
,,,C,G,g,v,,,,,,,,,,2,12,52,19,,,,,,,,,,,,,v,1,4.720458450508886,771.6988167441596,None,,,,,001,81,2019_Oct_31_0903,ACPT_experiment_5_30_19,3.1.0,59.95457334241837,
,,,C,U,g,n,,,,,,,,,,2,13,53,16,,,,,,,,,,,,,n,1,0.9841329975024564,779.7052208394016,None,,,,,001,81,2019_Oct_31_0903,ACPT_experiment_5_30_19,3.1.0,59.95457334241837,
,,,C,D,d,v,,,,,,,,,,2,14,54,18,,,,,,,,,,,,,v,1,1.6844693370221648,783.9922036970092,None,,,,,001,81,2019_Oct_31_0903,ACPT_experiment_5_30_19,3.1.0,59.95457334241837,
,,,C,D,y,b,,,,,,,,,,2,15,55,11,,,,,,,,,,,,,b,1,2.2518093870749,788.9626171694254,None,,,,,001,81,2019_Oct_31_0903,ACPT_experiment_5_30_19,3.1.0,59.95457334241837,
,,,C,G,g,v,,,,,,,,,,2,16,56,4,,,,,,,,,,,,,v,1,18.564846030029003,794.50038095536,None,,,,,001,81,2019_Oct_31_0903,ACPT_experiment_5_30_19,3.1.0,59.95457334241837,
,,,C,D,y,b,,,,,,,,,,2,17,57,2,,,,,,,,,,,,,b,1,0.9174250556243351,816.3511650834698,None,,,,,001,81,2019_Oct_31_0903,ACPT_experiment_5_30_19,3.1.0,59.95457334241837,
,,,C,U,d,n,,,,,,,,,,2,18,58,15,,,,,,,,,,,,,n,1,4.069937610256602,820.5545270297152,None,,,,,001,81,2019_Oct_31_0903,ACPT_experiment_5_30_19,3.1.0,59.95457334241837,
,,,C,D,g,b,,,,,,,,,,2,19,59,10,,,,,,,,,,,,,b,1,3.9031259471084923,827.9104021343082,None,,,,,001,81,2019_Oct_31_0903,ACPT_experiment_5_30_19,3.1.0,59.95457334241837,
,,,C,U,g,n,,,,,,,,,,3,0,60,7,,,,,,,,,,,,,n,1,3.085808537027333,835.0994812728022,None,,,,,001,81,2019_Oct_31_0903,ACPT_experiment_5_30_19,3.1.0,59.95457334241837,
,,,C,D,d,v,,,,,,,,,,3,1,61,18,,,,,,,,,,,,,v,1,4.336814657668583,841.4712348508328,None,,,,,001,81,2019_Oct_31_0903,ACPT_experiment_5_30_19,3.1.0,59.95457334241837,
,,,C,U,g,n,,,,,,,,,,3,2,62,16,,,,,,,,,,,,,n,1,1.8848763132700697,849.0939909270965,None,,,,,001,81,2019_Oct_31_0903,ACPT_experiment_5_30_19,3.1.0,59.95457334241837,
,,,C,U,y,n,,,,,,,,,,3,3,63,8,,,,,,,,,,,,,n,1,1.000835566141177,854.24808677088,None,,,,,001,81,2019_Oct_31_0903,ACPT_experiment_5_30_19,3.1.0,59.95457334241837,
,,,C,D,g,b,,,,,,,,,,3,4,64,10,,,,,,,,,,,,,b,1,1.751131395198172,858.5518262312107,None,,,,,001,81,2019_Oct_31_0903,ACPT_experiment_5_30_19,3.1.0,59.95457334241837,
,,,C,D,d,v,,,,,,,,,,3,5,65,0,,,,,,,,,,,,,v,1,2.53536968366825,863.5722257574089,None,,,,,001,81,2019_Oct_31_0903,ACPT_experiment_5_30_19,3.1.0,59.95457334241837,
,,,C,D,g,b,,,,,,,,,,3,6,66,1,,,,,,,,,,,,,b,1,0.9841492982814088,869.3768524030311,None,,,,,001,81,2019_Oct_31_0903,ACPT_experiment_5_30_19,3.1.0,59.95457334241837,
,,,C,D,y,b,,,,,,,,,,3,7,67,11,,,,,,,,,,,,,b,1,0.8837814439175418,873.6472063474066,None,,,,,001,81,2019_Oct_31_0903,ACPT_experiment_5_30_19,3.1.0,59.95457334241837,
,,,C,U,d,n,,,,,,,,,,3,8,68,15,,,,,,,,,,,,,n,1,1.0675398856110405,877.8169355491118,None,,,,,001,81,2019_Oct_31_0903,ACPT_experiment_5_30_19,3.1.0,59.95457334241837,
,,,C,D,d,v,,,,,,,,,,3,9,69,9,,,,,,,,,,,,,v,1,1.8846321033779532,882.1873349545494,None,,,,,001,81,2019_Oct_31_0903,ACPT_experiment_5_30_19,3.1.0,59.95457334241837,
,,,C,U,y,n,,,,,,,,,,3,10,70,17,,,,,,,,,,,,,n,1,1.6346565545391059,887.3578897608095,None,,,,,001,81,2019_Oct_31_0903,ACPT_experiment_5_30_19,3.1.0,59.95457334241837,
,,,C,G,g,v,,,,,,,,,,3,11,71,4,,,,,,,,,,,,,v,1,2.218393382601789,892.2785478053702,None,,,,,001,81,2019_Oct_31_0903,ACPT_experiment_5_30_19,3.1.0,59.95457334241837,
,,,C,G,y,b,,,,,,,,,,3,12,72,14,,,,,,,,,,,,,b,1,0.9841287713643396,897.7828798897826,None,,,,,001,81,2019_Oct_31_0903,ACPT_experiment_5_30_19,3.1.0,59.95457334241837,
,,,C,U,d,n,,,,,,,,,,3,13,73,6,,,,,,,,,,,,,n,1,2.9190077410603408,902.0529621543974,None,,,,,001,81,2019_Oct_31_0903,ACPT_experiment_5_30_19,3.1.0,59.95457334241837,
,,,C,G,y,b,,,,,,,,,,3,14,74,5,,,,,,,,,,,,,b,1,2.1350465659052134,908.2579179551249,None,,,,,001,81,2019_Oct_31_0903,ACPT_experiment_5_30_19,3.1.0,59.95457334241837,
,,,C,D,y,b,,,,,,,,,,3,15,75,2,,,,,,,,,,,,,b,1,0.9841336012323154,913.6789077508438,None,,,,,001,81,2019_Oct_31_0903,ACPT_experiment_5_30_19,3.1.0,59.95457334241837,
,,,C,G,g,v,,,,,,,,,,3,16,76,13,,,,,,,,,,,,,v,1,2.334981725012767,917.9658969476441,None,,,,,001,81,2019_Oct_31_0903,ACPT_experiment_5_30_19,3.1.0,59.95457334241837,
,,,C,G,d,b,,,,,,,,,,3,17,77,3,,,,,,,,,,,,,b,1,1.4011894742725417,923.5701214468718,None,,,,,001,81,2019_Oct_31_0903,ACPT_experiment_5_30_19,3.1.0,59.95457334241837,
,,,C,G,d,b,,,,,,,,,,3,18,78,12,,,,,,,,,,,,,b,1,1.050580428680405,928.2574920216721,None,,,,,001,81,2019_Oct_31_0903,ACPT_experiment_5_30_19,3.1.0,59.95457334241837,
,,,C,G,g,v,,,,,,,,,,3,19,79,19,,,,,,,,,,,,,v,1,0.9507704233838012,932.5773357514845,None,,,,,001,81,2019_Oct_31_0903,ACPT_experiment_5_30_19,3.1.0,59.95457334241837,
,,,C,G,g,v,,,,,,,,,,4,0,80,13,,,,,,,,,,,,,v,1,2.1181043153628707,936.8143244049279,None,,,,,001,81,2019_Oct_31_0903,ACPT_experiment_5_30_19,3.1.0,59.95457334241837,
,,,C,U,d,n,,,,,,,,,,4,1,81,15,,,,,,,,,,,,,n,1,1.2843819768895628,942.2183622903685,None,,,,,001,81,2019_Oct_31_0903,ACPT_experiment_5_30_19,3.1.0,59.95457334241837,
,,,C,D,y,b,,,,,,,,,,4,2,82,11,,,,,,,,,,,,,b,1,1.0339243474591058,946.8056484633125,None,,,,,001,81,2019_Oct_31_0903,ACPT_experiment_5_30_19,3.1.0,59.95457334241837,
,,,C,D,d,v,,,,,,,,,,4,3,83,18,,,,,,,,,,,,,v,1,2.335209030396072,951.1088044159405,None,,,,,001,81,2019_Oct_31_0903,ACPT_experiment_5_30_19,3.1.0,59.95457334241837,
,,,C,G,y,b,,,,,,,,,,4,4,84,5,,,,,,,,,,,,,b,1,1.1175781622587238,956.7299560724059,None,,,,,001,81,2019_Oct_31_0903,ACPT_experiment_5_30_19,3.1.0,59.95457334241837,
,,,C,U,d,n,,,,,,,,,,4,5,85,6,,,,,,,,,,,,,n,1,1.0508563345501898,961.1334702196618,None,,,,,001,81,2019_Oct_31_0903,ACPT_experiment_5_30_19,3.1.0,59.95457334241837,
,,,C,U,y,n,,,,,,,,,,4,6,86,8,,,,,,,,,,,,,n,1,1.5679286895028781,965.4535895534791,None,,,,,001,81,2019_Oct_31_0903,ACPT_experiment_5_30_19,3.1.0,59.95457334241837,
,,,C,D,y,b,,,,,,,,,,4,7,87,2,,,,,,,,,,,,,b,1,1.5346225643879734,970.307445775732,None,,,,,001,81,2019_Oct_31_0903,ACPT_experiment_5_30_19,3.1.0,59.95457334241837,
,,,C,G,y,b,,,,,,,,,,4,8,88,14,,,,,,,,,,,,,b,1,0.8673991554969689,975.1279563283751,None,,,,,001,81,2019_Oct_31_0903,ACPT_experiment_5_30_19,3.1.0,59.95457334241837,
,,,C,U,y,n,,,,,,,,,,4,9,89,17,,,,,,,,,,,,,n,1,0.8674308514600853,979.2812938838179,None,,,,,001,81,2019_Oct_31_0903,ACPT_experiment_5_30_19,3.1.0,59.95457334241837,
,,,C,D,d,v,,,,,,,,,,4,10,90,0,,,,,,,,,,,,,v,1,1.4845568178861868,983.4346139310073,None,,,,,001,81,2019_Oct_31_0903,ACPT_experiment_5_30_19,3.1.0,59.95457334241837,
,,,C,U,g,n,,,,,,,,,,4,11,91,7,,,,,,,,,,,,,n,1,1.1175718230661005,988.2050877163274,None,,,,,001,81,2019_Oct_31_0903,ACPT_experiment_5_30_19,3.1.0,59.95457334241837,
,,,C,G,g,v,,,,,,,,,,4,12,92,4,,,,,,,,,,,,,v,1,5.1372124571789755,992.6255386805424,None,,,,,001,81,2019_Oct_31_0903,ACPT_experiment_5_30_19,3.1.0,59.95457334241837,
,,,C,G,d,b,,,,,,,,,,4,13,93,3,,,,,,,,,,,,,b,1,13.260627507755999,1001.0319996474136,None,,,,,001,81,2019_Oct_31_0903,ACPT_experiment_5_30_19,3.1.0,59.95457334241837,
,,,C,G,g,v,,,,,,,,,,4,14,94,19,,,,,,,,,,,,,v,1,0.7673020752699813,1017.5618515155511,None,,,,,001,81,2019_Oct_31_0903,ACPT_experiment_5_30_19,3.1.0,59.95457334241837,
,,,C,D,g,b,,,,,,,,,,4,15,95,10,,,,,,,,,,,,,b,1,1.417543085393845,1021.6320502402232,None,,,,,001,81,2019_Oct_31_0903,ACPT_experiment_5_30_19,3.1.0,59.95457334241837,
,,,C,D,g,b,,,,,,,,,,4,16,96,1,,,,,,,,,,,,,b,1,1.2344819550344255,1026.318704486097,None,,,,,001,81,2019_Oct_31_0903,ACPT_experiment_5_30_19,3.1.0,59.95457334241837,
,,,C,D,d,v,,,,,,,,,,4,17,97,9,,,,,,,,,,,,,v,1,1.2507284035673365,1030.8394140290475,None,,,,,001,81,2019_Oct_31_0903,ACPT_experiment_5_30_19,3.1.0,59.95457334241837,
,,,C,G,d,b,,,,,,,,,,4,18,98,12,,,,,,,,,,,,,b,1,1.2176471689163009,1035.376089888552,None,,,,,001,81,2019_Oct_31_0903,ACPT_experiment_5_30_19,3.1.0,59.95457334241837,
,,,C,U,g,n,,,,,,,,,,4,19,99,16,,,,,,,,,,,,,n,1,0.967440390450065,1039.8796863245952,None,,,,,001,81,2019_Oct_31_0903,ACPT_experiment_5_30_19,3.1.0,59.95457334241837,
,,,C,U,y,n,,,,,,,,,,5,0,100,17,,,,,,,,,,,,,n,1,1.1008931018732255,1044.1163972609793,None,,,,,001,81,2019_Oct_31_0903,ACPT_experiment_5_30_19,3.1.0,59.95457334241837,
,,,C,G,g,v,,,,,,,,,,5,1,101,19,,,,,,,,,,,,,v,1,1.5674777011299739,1048.5203400585015,None,,,,,001,81,2019_Oct_31_0903,ACPT_experiment_5_30_19,3.1.0,59.95457334241837,
,,,C,D,d,v,,,,,,,,,,5,2,102,18,,,,,,,,,,,,,v,1,3.7029456724994816,1053.3738110992563,None,,,,,001,81,2019_Oct_31_0903,ACPT_experiment_5_30_19,3.1.0,59.95457334241837,
,,,C,D,d,v,,,,,,,,,,5,3,103,0,,,,,,,,,,,,,v,1,1.4511649627384031,1059.6621393753303,None,,,,,001,81,2019_Oct_31_0903,ACPT_experiment_5_30_19,3.1.0,59.95457334241837,
,,,C,G,d,b,,,,,,,,,,5,4,104,3,,,,,,,,,,,,,b,1,2.568727126068552,1064.3992593406438,None,,,,,001,81,2019_Oct_31_0903,ACPT_experiment_5_30_19,3.1.0,59.95457334241837,
,,,C,U,d,n,,,,,,,,,,5,5,105,15,,,,,,,,,,,,,n,1,1.3344205554167274,1070.2539333189197,None,,,,,001,81,2019_Oct_31_0903,ACPT_experiment_5_30_19,3.1.0,59.95457334241837,
,,,C,U,d,n,,,,,,,,,,5,6,106,6,,,,,,,,,,,,,n,1,0.967588606843492,1074.857464431072,None,,,,,001,81,2019_Oct_31_0903,ACPT_experiment_5_30_19,3.1.0,59.95457334241837,
,,,C,G,g,v,,,,,,,,,,5,7,107,4,,,,,,,,,,,,,v,1,1.5177627233642852,1079.1110044181114,None,,,,,001,81,2019_Oct_31_0903,ACPT_experiment_5_30_19,3.1.0,59.95457334241837,
,,,C,U,g,n,,,,,,,,,,5,8,108,7,,,,,,,,,,,,,n,1,1.1509211150696501,1083.9148537578149,None,,,,,001,81,2019_Oct_31_0903,ACPT_experiment_5_30_19,3.1.0,59.95457334241837,
,,,C,D,y,b,,,,,,,,,,5,9,109,2,,,,,,,,,,,,,b,1,1.367747509299079,1088.3684104078711,None,,,,,001,81,2019_Oct_31_0903,ACPT_experiment_5_30_19,3.1.0,59.95457334241837,
,,,C,G,y,b,,,,,,,,,,5,10,110,14,,,,,,,,,,,,,b,1,1.0675281128060305,1093.022107788027,None,,,,,001,81,2019_Oct_31_0903,ACPT_experiment_5_30_19,3.1.0,59.95457334241837,
,,,C,G,y,b,,,,,,,,,,5,11,111,5,,,,,,,,,,,,,b,1,1.5843662194674835,1097.3925111177377,None,,,,,001,81,2019_Oct_31_0903,ACPT_experiment_5_30_19,3.1.0,59.95457334241837,
,,,C,D,g,b,,,,,,,,,,5,12,112,1,,,,,,,,,,,,,b,1,2.368571302649798,1102.262817246461,None,,,,,001,81,2019_Oct_31_0903,ACPT_experiment_5_30_19,3.1.0,59.95457334241837,
,,,C,D,y,b,,,,,,,,,,5,13,113,11,,,,,,,,,,,,,b,1,0.7339262190362206,1107.9173311751802,None,,,,,001,81,2019_Oct_31_0903,ACPT_experiment_5_30_19,3.1.0,59.95457334241837,
,,,C,U,g,n,,,,,,,,,,5,14,114,16,,,,,,,,,,,,,n,1,0.7639462267252384,1111.973898217897,None,,,,,001,81,2019_Oct_31_0903,ACPT_experiment_5_30_19,3.1.0,59.95457334241837,
,,,C,U,y,n,,,,,,,,,,5,15,115,8,,,,,,,,,,,,,n,1,1.2509934422560036,1116.0071291782806,None,,,,,001,81,2019_Oct_31_0903,ACPT_experiment_5_30_19,3.1.0,59.95457334241837,
,,,C,G,g,v,,,,,,,,,,5,16,116,13,,,,,,,,,,,,,v,1,1.3007950556784635,1120.5610123270162,None,,,,,001,81,2019_Oct_31_0903,ACPT_experiment_5_30_19,3.1.0,59.95457334241837,
,,,C,G,d,b,,,,,,,,,,5,17,117,12,,,,,,,,,,,,,b,1,1.184319309424609,1125.1477249538439,None,,,,,001,81,2019_Oct_31_0903,ACPT_experiment_5_30_19,3.1.0,59.95457334241837,
,,,C,D,g,b,,,,,,,,,,5,18,118,10,,,,,,,,,,,,,b,1,3.068722899944987,1129.6350586405606,None,,,,,001,81,2019_Oct_31_0903,ACPT_experiment_5_30_19,3.1.0,59.95457334241837,
,,,C,D,d,v,,,,,,,,,,5,19,119,9,0,0,0,0,0,0,0,0,,,,,v,1,6.238340712952777,1135.989742278558,None,,,,,001,81,2019_Oct_31_0903,ACPT_experiment_5_30_19,3.1.0,59.95457334241837,
,,,C,D,d,v,L,U,y,R,u,,,,,5,19,119,9,0,0,0,0,,,,,0,0,0,25,,,,,,down,1.5178783381852554,1184.6285712301906,None,001,81,2019_Oct_31_0903,ACPT_experiment_5_30_19,3.1.0,59.95457334241837,
,,,C,D,d,v,L,D,y,R,y,,,,,5,19,119,9,0,0,0,0,,,,,0,1,1,33,,,,,,down,0.5837947864056332,1187.4141283728968,None,001,81,2019_Oct_31_0903,ACPT_experiment_5_30_19,3.1.0,59.95457334241837,
,,,C,D,d,v,L,D,y,L,y,,,,,5,19,119,9,0,0,0,0,,,,,0,2,2,32,,,,,,down,0.9841637878707843,1189.282263176763,None,001,81,2019_Oct_31_0903,ACPT_experiment_5_30_19,3.1.0,59.95457334241837,
,,,C,D,d,v,R,D,d,R,c ,,,,,5,19,119,9,0,0,0,0,,,,,0,3,3,1,,,,,,up,0.9340805331157753,1191.5507618503616,None,001,81,2019_Oct_31_0903,ACPT_experiment_5_30_19,3.1.0,59.95457334241837,
,,,C,D,d,v,R,U,d,R,u,,,,,5,19,119,9,0,0,0,0,,,,,0,4,4,9,,,,,,up,0.8173569545760984,1193.7691784766794,None,001,81,2019_Oct_31_0903,ACPT_experiment_5_30_19,3.1.0,59.95457334241837,
,,,C,D,d,v,R,G,g,R,c ,,,,,5,19,119,9,0,0,0,0,,,,,0,5,5,7,,,,,,up,0.6338381948007736,1195.8708790711098,None,001,81,2019_Oct_31_0903,ACPT_experiment_5_30_19,3.1.0,59.95457334241837,
,,,C,D,d,v,L,D,g,R,i,,,,,5,19,119,9,0,0,0,0,,,,,0,6,6,15,,,,,,up,0.46704102122748736,1197.7890753953543,None,001,81,2019_Oct_31_0903,ACPT_experiment_5_30_19,3.1.0,59.95457334241837,
,,,C,D,d,v,L,G,g,R,c ,,,,,5,19,119,9,0,0,0,0,,,,,0,7,7,19,,,,,,up,0.6669236555753741,1199.557429474953,None,001,81,2019_Oct_31_0903,ACPT_experiment_5_30_19,3.1.0,59.95457334241837,
,,,C,D,d,v,R,U,g,L,u,,,,,5,19,119,9,0,0,0,0,,,,,0,8,8,10,,,,,,up,0.9508099678641884,1201.4920301238453,None,001,81,2019_Oct_31_0903,ACPT_experiment_5_30_19,3.1.0,59.95457334241837,
,,,C,D,d,v,R,D,y,R,y,,,,,5,19,119,9,0,0,0,0,,,,,0,9,9,27,,,,,,down,0.7339358787430683,1203.7438298511988,None,001,81,2019_Oct_31_0903,ACPT_experiment_5_30_19,3.1.0,59.95457334241837,
,,,C,D,d,v,R,D,y,L,y,,,,,5,19,119,9,0,0,0,0,,,,,0,10,10,26,,,,,,down,0.7672474374558078,1205.7788170701824,None,001,81,2019_Oct_31_0903,ACPT_experiment_5_30_19,3.1.0,59.95457334241837,
,,,C,D,d,v,R,G,d,L,i,,,,,5,19,119,9,0,0,0,0,,,,,0,11,11,4,,,,,,up,0.8339882827567635,1207.8304295800044,None,001,81,2019_Oct_31_0903,ACPT_experiment_5_30_19,3.1.0,59.95457334241837,
,,,C,D,d,v,L,G,g,L,c ,,,,,5,19,119,9,0,0,0,0,,,,,0,12,12,18,,,,,,up,0.6004768281418364,1209.9487850481964,None,001,81,2019_Oct_31_0903,ACPT_experiment_5_30_19,3.1.0,59.95457334241837,
,,,C,D,d,v,R,D,g,L,i,,,,,5,19,119,9,0,0,0,0,,,,,0,13,13,2,,,,,,up,0.6171537381305825,1211.833624231891,None,001,81,2019_Oct_31_0903,ACPT_experiment_5_30_19,3.1.0,59.95457334241837,
,,,C,D,d,v,L,G,d,R,i,,,,,5,19,119,9,0,0,0,0,,,,,0,14,14,17,,,,,,up,0.7672764166345587,1213.735142438658,None,001,81,2019_Oct_31_0903,ACPT_experiment_5_30_19,3.1.0,59.95457334241837,
,,,C,D,d,v,L,U,g,L,u,,,,,5,19,119,9,0,0,0,0,,,,,0,15,15,22,,,,,,up,0.5337106260703877,1215.7868213590991,None,001,81,2019_Oct_31_0903,ACPT_experiment_5_30_19,3.1.0,59.95457334241837,
,,,C,D,d,v,R,U,g,R,u,,,,,5,19,119,9,0,0,0,0,,,,,0,16,16,11,,,,,,up,0.5838005218683975,1217.604894944452,None,001,81,2019_Oct_31_0903,ACPT_experiment_5_30_19,3.1.0,59.95457334241837,
,,,C,D,d,v,L,G,d,L,i,,,,,5,19,119,9,0,0,0,0,,,,,0,17,17,16,,,,,,up,0.5168006752064684,1219.4900058079074,None,001,81,2019_Oct_31_0903,ACPT_experiment_5_30_19,3.1.0,59.95457334241837,
,,,C,D,d,v,R,G,y,R,y,,,,,5,19,119,9,0,0,0,0,,,,,0,18,18,29,,,,,,down,0.8506778711307561,1221.2911679330864,None,001,81,2019_Oct_31_0903,ACPT_experiment_5_30_19,3.1.0,59.95457334241837,
,,,C,D,d,v,R,U,y,L,u,,,,,5,19,119,9,0,0,0,0,,,,,0,19,19,30,,,,,,down,0.35030355682829395,1223.426207857934,None,001,81,2019_Oct_31_0903,ACPT_experiment_5_30_19,3.1.0,59.95457334241837,
,,,C,D,d,v,L,U,y,L,u,,,,,5,19,119,9,0,0,0,0,,,,,0,20,20,24,,,,,,down,0.31697358428209554,1225.044138600133,None,001,81,2019_Oct_31_0903,ACPT_experiment_5_30_19,3.1.0,59.95457334241837,
,,,C,D,d,v,L,U,g,R,u,,,,,5,19,119,9,0,0,0,0,,,,,0,21,21,23,,,,,,up,0.9004502035240876,1226.645719051754,None,001,81,2019_Oct_31_0903,ACPT_experiment_5_30_19,3.1.0,59.95457334241837,
,,,C,D,d,v,L,D,g,L,i,,,,,5,19,119,9,0,0,0,0,,,,,0,22,22,14,,,,,,up,0.6338276294700336,1228.8305319127103,None,001,81,2019_Oct_31_0903,ACPT_experiment_5_30_19,3.1.0,59.95457334241837,
,,,C,D,d,v,R,G,y,L,y,,,,,5,19,119,9,0,0,0,0,,,,,0,23,23,28,,,,,,down,0.7340481730498141,1230.7487170678796,None,001,81,2019_Oct_31_0903,ACPT_experiment_5_30_19,3.1.0,59.95457334241837,
,,,C,D,d,v,L,D,d,L,c ,,,,,5,19,119,9,0,0,0,0,,,,,0,24,24,12,,,,,,down,1.251092454433092,1232.7669703241118,None,001,81,2019_Oct_31_0903,ACPT_experiment_5_30_19,3.1.0,59.95457334241837,
,,,C,D,d,v,R,D,g,R,i,,,,,5,19,119,9,0,0,0,0,,,,,0,25,25,3,,,,,,up,1.084313392842887,1235.3023348760616,None,001,81,2019_Oct_31_0903,ACPT_experiment_5_30_19,3.1.0,59.95457334241837,
,,,C,D,d,v,R,G,g,L,c ,,,,,5,19,119,9,0,0,0,0,,,,,0,26,26,6,,,,,,up,0.6171443802741123,1237.6709206683008,None,001,81,2019_Oct_31_0903,ACPT_experiment_5_30_19,3.1.0,59.95457334241837,
,,,C,D,d,v,L,U,d,L,u,,,,,5,19,119,9,0,0,0,0,,,,,0,27,27,20,,,,,,up,0.3669614492537221,1239.5724252910877,None,001,81,2019_Oct_31_0903,ACPT_experiment_5_30_19,3.1.0,59.95457334241837,
,,,C,D,d,v,R,U,d,L,u,,,,,5,19,119,9,0,0,0,0,,,,,0,28,28,8,,,,,,up,0.46677447321417276,1241.2406901389913,None,001,81,2019_Oct_31_0903,ACPT_experiment_5_30_19,3.1.0,59.95457334241837,
,,,C,D,d,v,L,U,d,R,u,,,,,5,19,119,9,0,0,0,0,,,,,0,29,29,21,,,,,,down,0.7172333101043478,1242.9918227416347,None,001,81,2019_Oct_31_0903,ACPT_experiment_5_30_19,3.1.0,59.95457334241837,
,,,C,D,d,v,L,G,y,L,y,,,,,5,19,119,9,0,0,0,0,,,,,0,30,30,34,,,,,,down,0.8507002092519542,1244.9934238409187,None,001,81,2019_Oct_31_0903,ACPT_experiment_5_30_19,3.1.0,59.95457334241837,
,,,C,D,d,v,L,D,d,R,c ,,,,,5,19,119,9,0,0,0,0,,,,,0,31,31,13,,,,,,down,0.6338327612029389,1247.1284619545622,None,001,81,2019_Oct_31_0903,ACPT_experiment_5_30_19,3.1.0,59.95457334241837,
,,,C,D,d,v,L,G,y,R,y,,,,,5,19,119,9,0,0,0,0,,,,,0,32,32,35,,,,,,down,0.633855703039444,1249.0466362425504,None,001,81,2019_Oct_31_0903,ACPT_experiment_5_30_19,3.1.0,59.95457334241837,
,,,C,D,d,v,R,D,d,L,c,,,,,5,19,119,9,0,0,0,0,,,,,0,33,33,0,,,,,,down,0.36697322202962823,1250.9648337742547,None,001,81,2019_Oct_31_0903,ACPT_experiment_5_30_19,3.1.0,59.95457334241837,
,,,C,D,d,v,R,G,d,R,i,,,,,5,19,119,9,0,0,0,0,,,,,0,34,34,5,,,,,,up,0.7505982991715427,1252.6161714649352,None,001,81,2019_Oct_31_0903,ACPT_experiment_5_30_19,3.1.0,59.95457334241837,
,,,C,D,d,v,R,U,y,R,u,,,,,5,19,119,9,0,0,0,0,,,,,0,35,35,31,,,,,,down,0.7506176186143421,1254.651109177823,None,001,81,2019_Oct_31_0903,ACPT_experiment_5_30_19,3.1.0,59.95457334241837,
,,,C,D,d,v,R,U,y,L,u,,,,,5,19,119,9,0,0,0,0,,,,,1,0,36,30,,,,,,down,0.7339090126333758,1256.686103641594,None,001,81,2019_Oct_31_0903,ACPT_experiment_5_30_19,3.1.0,59.95457334241837,
,,,C,D,d,v,L,U,d,L,u,,,,,5,19,119,9,0,0,0,0,,,,,1,1,37,20,,,,,,up,1.8347990958573064,1258.7043701799412,None,001,81,2019_Oct_31_0903,ACPT_experiment_5_30_19,3.1.0,59.95457334241837,
,,,C,D,d,v,L,U,g,L,u,,,,,5,19,119,9,0,0,0,0,,,,,1,2,38,22,,,,,,up,0.6505477063474245,1261.8068206104654,None,001,81,2019_Oct_31_0903,ACPT_experiment_5_30_19,3.1.0,59.95457334241837,
,,,C,D,d,v,L,G,g,L,c ,,,,,5,19,119,9,0,0,0,0,,,,,1,3,39,18,,,,,,up,0.6338656646257732,1263.7417182958743,None,001,81,2019_Oct_31_0903,ACPT_experiment_5_30_19,3.1.0,59.95457334241837,
,,,C,D,d,v,R,D,y,R,y,,,,,5,19,119,9,0,0,0,0,,,,,1,4,40,27,,,,,,down,0.8838089137570933,1265.6768399661378,None,001,81,2019_Oct_31_0903,ACPT_experiment_5_30_19,3.1.0,59.95457334241837,
,,,C,D,d,v,R,D,y,L,y,,,,,5,19,119,9,0,0,0,0,,,,,1,5,41,26,,,,,,down,1.1175606540055014,1267.8449952365481,None,001,81,2019_Oct_31_0903,ACPT_experiment_5_30_19,3.1.0,59.95457334241837,
,,,C,D,d,v,R,U,d,R,u,,,,,5,19,119,9,0,0,0,0,,,,,1,6,42,9,,,,,,up,2.8689646345446818,1270.2469091901294,None,001,81,2019_Oct_31_0903,ACPT_experiment_5_30_19,3.1.0,59.95457334241837,
,,,C,D,d,v,L,U,d,R,u,,,,,5,19,119,9,0,0,0,0,,,,,1,7,43,21,,,,,,down,0.7172227447881596,1274.4002370858507,None,001,81,2019_Oct_31_0903,ACPT_experiment_5_30_19,3.1.0,59.95457334241837,
,,,C,D,d,v,L,D,d,R,c ,,,,,5,19,119,9,0,0,0,0,,,,,1,8,44,13,,,,,,up,1.5512864941265434,1276.4018164507434,None,001,81,2019_Oct_31_0903,ACPT_experiment_5_30_19,3.1.0,59.95457334241837,
,,,C,D,d,v,L,U,y,L,u,,,,,5,19,119,9,0,0,0,0,,,,,1,9,45,24,,,,,,down,0.6671905054536182,1279.2541023640952,None,001,81,2019_Oct_31_0903,ACPT_experiment_5_30_19,3.1.0,59.95457334241837,
,,,C,D,d,v,R,D,g,R,i,,,,,5,19,119,9,0,0,0,0,,,,,1,10,46,3,,,,,,up,1.6846912088076351,1281.222336059378,None,001,81,2019_Oct_31_0903,ACPT_experiment_5_30_19,3.1.0,59.95457334241837,
,,,C,D,d,v,R,G,y,R,y,,,,,5,19,119,9,0,0,0,0,,,,,1,11,47,29,,,,,,down,0.7005591168999672,1284.191377850977,None,001,81,2019_Oct_31_0903,ACPT_experiment_5_30_19,3.1.0,59.95457334241837,
,,,C,D,d,v,R,G,d,L,i,,,,,5,19,119,9,0,0,0,0,,,,,1,12,48,4,,,,,,down,1.3677595839544665,1286.1762899655878,None,001,81,2019_Oct_31_0903,ACPT_experiment_5_30_19,3.1.0,59.95457334241837,
,,,C,D,d,v,L,D,y,R,y,,,,,5,19,119,9,0,0,0,0,,,,,1,13,49,33,,,,,,down,0.7837359828408808,1288.8452750666765,None,001,81,2019_Oct_31_0903,ACPT_experiment_5_30_19,3.1.0,59.95457334241837,
,,,C,D,d,v,R,D,d,R,c ,,,,,5,19,119,9,0,0,0,0,,,,,1,14,50,1,,,,,,down,0.7505982991569908,1290.946763147178,None,001,81,2019_Oct_31_0903,ACPT_experiment_5_30_19,3.1.0,59.95457334241837,
,,,C,D,d,v,R,G,g,R,c ,,,,,5,19,119,9,0,0,0,0,,,,,1,15,51,7,,,,,,down,0.8006462355406256,1292.9817259149859,None,001,81,2019_Oct_31_0903,ACPT_experiment_5_30_19,3.1.0,59.95457334241837,
,,,C,D,d,v,L,D,g,R,i,,,,,5,19,119,9,0,0,0,0,,,,,1,16,52,15,,,,,,up,0.6505166141287191,1295.0667221295735,None,001,81,2019_Oct_31_0903,ACPT_experiment_5_30_19,3.1.0,59.95457334241837,
,,,C,D,d,v,R,D,g,L,i,,,,,5,19,119,9,0,0,0,0,,,,,1,17,53,2,,,,,,up,0.583530351461377,1297.018542746082,None,001,81,2019_Oct_31_0903,ACPT_experiment_5_30_19,3.1.0,59.95457334241837,
,,,C,D,d,v,R,G,g,L,c ,,,,,5,19,119,9,0,0,0,0,,,,,1,18,54,6,,,,,,up,0.45035445150278974,1298.8864387736394,None,001,81,2019_Oct_31_0903,ACPT_experiment_5_30_19,3.1.0,59.95457334241837,
,,,C,D,d,v,R,U,y,R,u,,,,,5,19,119,9,0,0,0,0,,,,,1,19,55,31,,,,,,down,1.2843391118658474,1300.6211576937785,None,001,81,2019_Oct_31_0903,ACPT_experiment_5_30_19,3.1.0,59.95457334241837,
,,,C,D,d,v,L,U,y,R,u,,,,,5,19,119,9,0,0,0,0,,,,,1,20,56,25,,,,,,down,1.66803029771836,1303.1898700284073,None,001,81,2019_Oct_31_0903,ACPT_experiment_5_30_19,3.1.0,59.95457334241837,
,,,C,D,d,v,R,U,d,L,u,,,,,5,19,119,9,0,0,0,0,,,,,1,21,57,8,,,,,,up,1.9015224329050398,1306.1422246465372,None,001,81,2019_Oct_31_0903,ACPT_experiment_5_30_19,3.1.0,59.95457334241837,
,,,C,D,d,v,L,D,d,L,c ,,,,,5,19,119,9,0,0,0,0,,,,,1,22,58,12,,,,,,down,5.604496480838861,1309.3280804558308,None,001,81,2019_Oct_31_0903,ACPT_experiment_5_30_19,3.1.0,59.95457334241837,
,,,C,D,d,v,L,G,d,R,i,,,,,5,19,119,9,0,0,0,0,,,,,1,23,59,17,,,,,,up,1.2510166859719902,1316.2169145392108,None,001,81,2019_Oct_31_0903,ACPT_experiment_5_30_19,3.1.0,59.95457334241837,
,,,C,D,d,v,L,G,y,R,y,,,,,5,19,119,9,0,0,0,0,,,,,1,24,60,35,,,,,,down,0.7839500060945284,1318.752292071411,None,001,81,2019_Oct_31_0903,ACPT_experiment_5_30_19,3.1.0,59.95457334241837,
,,,C,D,d,v,R,D,d,L,c,,,,,5,19,119,9,0,0,0,0,,,,,1,25,61,0,,,,,,up,1.6346357257571071,1320.8372916065418,None,001,81,2019_Oct_31_0903,ACPT_experiment_5_30_19,3.1.0,59.95457334241837,
,,,C,D,d,v,R,G,d,R,i,,,,,5,19,119,9,0,0,0,0,,,,,1,26,62,5,,,,,,up,0.5337673769390676,1323.7396182114753,None,001,81,2019_Oct_31_0903,ACPT_experiment_5_30_19,3.1.0,59.95457334241837,
,,,C,D,d,v,R,U,g,L,u,,,,,5,19,119,9,0,0,0,0,,,,,1,27,63,10,,,,,,up,0.7005576075753197,1325.5577247002657,None,001,81,2019_Oct_31_0903,ACPT_experiment_5_30_19,3.1.0,59.95457334241837,
,,,C,D,d,v,L,G,y,L,y,,,,,5,19,119,9,0,0,0,0,,,,,1,28,64,34,,,,,,down,0.5668458948057378,1327.5595935550227,None,001,81,2019_Oct_31_0903,ACPT_experiment_5_30_19,3.1.0,59.95457334241837,
,,,C,D,d,v,R,U,g,R,u,,,,,5,19,119,9,0,0,0,0,,,,,1,29,65,11,,,,,,up,1.4344859396660468,1329.410800296071,None,001,81,2019_Oct_31_0903,ACPT_experiment_5_30_19,3.1.0,59.95457334241837,
,,,C,D,d,v,L,D,y,L,y,,,,,5,19,119,9,0,0,0,0,,,,,1,30,66,32,,,,,,down,0.7339156537054805,1332.1296353091893,None,001,81,2019_Oct_31_0903,ACPT_experiment_5_30_19,3.1.0,59.95457334241837,
,,,C,D,d,v,L,G,d,L,i,,,,,5,19,119,9,0,0,0,0,,,,,1,31,67,16,,,,,,up,0.917384303669678,1334.1479247893876,None,001,81,2019_Oct_31_0903,ACPT_experiment_5_30_19,3.1.0,59.95457334241837,
,,,C,D,d,v,R,G,y,L,y,,,,,5,19,119,9,0,0,0,0,,,,,1,32,68,28,,,,,,down,1.1008801216230495,1336.3663471511682,None,001,81,2019_Oct_31_0903,ACPT_experiment_5_30_19,3.1.0,59.95457334241837,
,,,C,D,d,v,L,G,g,R,c ,,,,,5,19,119,9,0,0,0,0,,,,,1,33,69,19,,,,,,up,1.3510736179596279,1338.768270160741,None,001,81,2019_Oct_31_0903,ACPT_experiment_5_30_19,3.1.0,59.95457334241837,
,,,C,D,d,v,L,D,g,L,i,,,,,5,19,119,9,0,0,0,0,,,,,1,34,70,14,,,,,,up,0.6171612847829238,1341.4037000969547,None,001,81,2019_Oct_31_0903,ACPT_experiment_5_30_19,3.1.0,59.95457334241837,
,,,C,D,d,v,L,U,g,R,u,,,,,5,19,119,9,0,0,0,0,,,,,1,35,71,23,,,,,,up,0.9007239963248139,1343.305216794397,None,001,81,2019_Oct_31_0903,ACPT_experiment_5_30_19,3.1.0,59.95457334241837,
,,,C,D,d,v,,,,,,,,,,5,19,119,9,1,0,1,0,0,0,0,0,,,,,,,,,,,,,,001,81,2019_Oct_31_0903,ACPT_experiment_5_30_19,3.1.0,59.95457334241837,
,,,C,D,d,v,R,D,d,R,c ,,,,,5,19,119,9,1,0,1,0,,,,,0,0,0,1,,,,,,up,0.7836822506069439,1420.2669289684272,None,001,81,2019_Oct_31_0903,ACPT_experiment_5_30_19,3.1.0,59.95457334241837,
,,,C,D,d,v,R,D,y,L,y,,,,,5,19,119,9,1,0,1,0,,,,,0,1,1,26,,,,,,down,0.6338689851545496,1422.334968744748,None,001,81,2019_Oct_31_0903,ACPT_experiment_5_30_19,3.1.0,59.95457334241837,
,,,C,D,d,v,L,D,y,R,y,,,,,5,19,119,9,1,0,1,0,,,,,0,2,2,33,,,,,,down,0.6338312518637395,1424.2531702007109,None,001,81,2019_Oct_31_0903,ACPT_experiment_5_30_19,3.1.0,59.95457334241837,
,,,C,D,d,v,R,G,y,R,y,,,,,5,19,119,9,1,0,1,0,,,,,0,3,3,29,,,,,,down,0.6838722453103401,1426.1713686380099,None,001,81,2019_Oct_31_0903,ACPT_experiment_5_30_19,3.1.0,59.95457334241837,
,,,C,D,d,v,L,D,y,L,y,,,,,5,19,119,9,1,0,1,0,,,,,0,4,4,32,,,,,,down,0.6838945834169863,1428.1396020314278,None,001,81,2019_Oct_31_0903,ACPT_experiment_5_30_19,3.1.0,59.95457334241837,
,,,C,D,d,v,L,U,d,R,u,,,,,5,19,119,9,1,0,1,0,,,,,0,5,5,21,,,,,,up,1.1175796715979232,1430.107815803538,None,001,81,2019_Oct_31_0903,ACPT_experiment_5_30_19,3.1.0,59.95457334241837,
,,,C,D,d,v,L,U,d,L,u,,,,,5,19,119,9,1,0,1,0,,,,,0,6,6,20,,,,,,up,0.7839660050085513,1432.4930658273952,None,001,81,2019_Oct_31_0903,ACPT_experiment_5_30_19,3.1.0,59.95457334241837,
,,,C,D,d,v,L,U,g,L,u,,,,,5,19,119,9,1,0,1,0,,,,,0,7,7,22,,,,,,up,0.3836588861740893,1434.5446922230767,None,001,81,2019_Oct_31_0903,ACPT_experiment_5_30_19,3.1.0,59.95457334241837,
,,,C,D,d,v,R,U,g,R,u,,,,,5,19,119,9,1,0,1,0,,,,,0,8,8,11,,,,,,up,0.5671067073417362,1436.212724935729,None,001,81,2019_Oct_31_0903,ACPT_experiment_5_30_19,3.1.0,59.95457334241837,
,,,C,D,d,v,R,U,y,R,u,,,,,5,19,119,9,1,0,1,0,,,,,0,9,9,31,,,,,,up,0.4336712023068685,1438.0641949042474,None,001,81,2019_Oct_31_0903,ACPT_experiment_5_30_19,3.1.0,59.95457334241837,
,,,C,D,d,v,R,D,d,L,c,,,,,5,19,119,9,1,0,1,0,,,,,0,10,10,0,,,,,,up,0.5804709357034881,1439.802231939626,None,001,81,2019_Oct_31_0903,ACPT_experiment_5_30_19,3.1.0,59.95457334241837,
,,,C,D,d,v,R,G,g,L,c ,,,,,5,19,119,9,1,0,1,0,,,,,0,11,11,6,,,,,,up,0.63384151532955,1441.6670703626296,None,001,81,2019_Oct_31_0903,ACPT_experiment_5_30_19,3.1.0,59.95457334241837,
,,,C,D,d,v,L,D,d,L,c ,,,,,5,19,119,9,1,0,1,0,,,,,0,12,12,12,,,,,,up,0.5337546985538211,1443.585264573805,None,001,81,2019_Oct_31_0903,ACPT_experiment_5_30_19,3.1.0,59.95457334241837,
,,,C,D,d,v,R,D,g,R,i,,,,,5,19,119,9,1,0,1,0,,,,,0,13,13,3,,,,,,up,1.01745753645082,1445.4034060791018,None,001,81,2019_Oct_31_0903,ACPT_experiment_5_30_19,3.1.0,59.95457334241837,
,,,C,D,d,v,R,G,y,L,y,,,,,5,19,119,9,1,0,1,0,,,,,0,14,14,28,,,,,,down,0.733917163030128,1447.7218989568646,None,001,81,2019_Oct_31_0903,ACPT_experiment_5_30_19,3.1.0,59.95457334241837,
,,,C,D,d,v,L,D,g,L,i,,,,,5,19,119,9,1,0,1,0,,,,,0,15,15,14,,,,,,up,0.6171549456048524,1449.7568556873448,None,001,81,2019_Oct_31_0903,ACPT_experiment_5_30_19,3.1.0,59.95457334241837,
,,,C,D,d,v,L,D,d,R,c ,,,,,5,19,119,9,1,0,1,0,,,,,0,16,16,13,,,,,,up,0.6838985076901736,1451.6416731366626,None,001,81,2019_Oct_31_0903,ACPT_experiment_5_30_19,3.1.0,59.95457334241837,
,,,C,D,d,v,R,U,g,L,u,,,,,5,19,119,9,1,0,1,0,,,,,0,17,17,10,,,,,,up,0.8840419546031626,1453.609927962607,None,001,81,2019_Oct_31_0903,ACPT_experiment_5_30_19,3.1.0,59.95457334241837,
,,,C,D,d,v,L,G,d,L,i,,,,,5,19,119,9,1,0,1,0,,,,,0,18,18,16,,,,,,up,0.5837830136151752,1455.778338913835,None,001,81,2019_Oct_31_0903,ACPT_experiment_5_30_19,3.1.0,59.95457334241837,
,,,C,D,d,v,L,U,y,L,u,,,,,5,19,119,9,1,0,1,0,,,,,0,19,19,24,,,,,,down,0.6004840729292482,1457.6464876035461,None,001,81,2019_Oct_31_0903,ACPT_experiment_5_30_19,3.1.0,59.95457334241837,
,,,C,D,d,v,R,U,y,L,u,,,,,5,19,119,9,1,0,1,0,,,,,0,20,20,30,,,,,,down,0.8006423112819903,1459.548008527112,None,001,81,2019_Oct_31_0903,ACPT_experiment_5_30_19,3.1.0,59.95457334241837,
,,,C,D,d,v,L,G,g,L,c ,,,,,5,19,119,9,1,0,1,0,,,,,0,21,21,18,,,,,,up,1.2176535081089241,1461.6496632378548,None,001,81,2019_Oct_31_0903,ACPT_experiment_5_30_19,3.1.0,59.95457334241837,
,,,C,D,d,v,L,G,y,R,y,,,,,5,19,119,9,1,0,1,0,,,,,0,22,22,35,,,,,,down,0.7839650994137628,1464.1516794034105,None,001,81,2019_Oct_31_0903,ACPT_experiment_5_30_19,3.1.0,59.95457334241837,
,,,C,D,d,v,R,G,g,R,c ,,,,,5,19,119,9,1,0,1,0,,,,,0,23,23,7,,,,,,up,0.9007327504368732,1466.2199984061444,None,001,81,2019_Oct_31_0903,ACPT_experiment_5_30_19,3.1.0,59.95457334241837,
,,,C,D,d,v,R,U,d,R,u,,,,,5,19,119,9,1,0,1,0,,,,,0,24,24,9,,,,,,down,1.0675063784292433,1468.405078418844,None,001,81,2019_Oct_31_0903,ACPT_experiment_5_30_19,3.1.0,59.95457334241837,
,,,C,D,d,v,L,G,y,L,y,,,,,5,19,119,9,1,0,1,0,,,,,0,25,25,34,,,,,,down,0.5337725086719729,1470.773630402051,None,001,81,2019_Oct_31_0903,ACPT_experiment_5_30_19,3.1.0,59.95457334241837,
,,,C,D,d,v,L,U,g,R,u,,,,,5,19,119,9,1,0,1,0,,,,,0,26,26,23,,,,,,up,1.0174566308560316,1472.625120293742,None,001,81,2019_Oct_31_0903,ACPT_experiment_5_30_19,3.1.0,59.95457334241837,
,,,C,D,d,v,L,G,g,R,c ,,,,,5,19,119,9,1,0,1,0,,,,,0,27,27,19,,,,,,up,0.9174006044631824,1474.9102641813806,None,001,81,2019_Oct_31_0903,ACPT_experiment_5_30_19,3.1.0,59.95457334241837,
,,,C,D,d,v,R,G,d,L,i,,,,,5,19,119,9,1,0,1,0,,,,,0,28,28,4,,,,,,up,1.5011809012794401,1477.1120407253911,None,001,81,2019_Oct_31_0903,ACPT_experiment_5_30_19,3.1.0,59.95457334241837,
,,,C,D,d,v,R,U,d,L,u,,,,,5,19,119,9,1,0,1,0,,,,,0,29,29,8,,,,,,up,0.6671941278473241,1479.8808992237173,None,001,81,2019_Oct_31_0903,ACPT_experiment_5_30_19,3.1.0,59.95457334241837,
,,,C,D,d,v,L,G,d,R,i,,,,,5,19,119,9,1,0,1,0,,,,,0,30,30,17,,,,,,up,0.9507668009755434,1481.8324581220659,None,001,81,2019_Oct_31_0903,ACPT_experiment_5_30_19,3.1.0,59.95457334241837,
,,,C,D,d,v,L,U,y,R,u,,,,,5,19,119,9,1,0,1,0,,,,,0,31,31,25,,,,,,down,0.8173098634288181,1484.067574902103,None,001,81,2019_Oct_31_0903,ACPT_experiment_5_30_19,3.1.0,59.95457334241837,
,,,C,D,d,v,R,D,y,R,y,,,,,5,19,119,9,1,0,1,0,,,,,0,32,32,27,,,,,,down,0.8006492542044725,1486.169247724829,None,001,81,2019_Oct_31_0903,ACPT_experiment_5_30_19,3.1.0,59.95457334241837,
,,,C,D,d,v,L,D,g,R,i,,,,,5,19,119,9,1,0,1,0,,,,,0,33,33,15,,,,,,up,1.61795941949822,1488.2542460524855,None,001,81,2019_Oct_31_0903,ACPT_experiment_5_30_19,3.1.0,59.95457334241837,
,,,C,D,d,v,R,D,g,L,i,,,,,5,19,119,9,1,0,1,0,,,,,0,34,34,2,,,,,,up,1.3844603413890582,1491.1565639032924,None,001,81,2019_Oct_31_0903,ACPT_experiment_5_30_19,3.1.0,59.95457334241837,
,,,C,D,d,v,R,G,d,R,i,,,,,5,19,119,9,1,0,1,0,,,,,0,35,35,5,,,,,,up,0.7506049402290955,1493.8253615453577,None,001,81,2019_Oct_31_0903,ACPT_experiment_5_30_19,3.1.0,59.95457334241837,
,,,C,D,d,v,R,U,d,R,u,,,,,5,19,119,9,1,0,1,0,,,,,1,0,36,9,,,,,,up,0.8673617240565363,1495.8603282374243,None,001,81,2019_Oct_31_0903,ACPT_experiment_5_30_19,3.1.0,59.95457334241837,
,,,C,D,d,v,R,U,g,L,u,,,,,5,19,119,9,1,0,1,0,,,,,1,1,37,10,,,,,,up,0.6505422727641417,1497.995328617777,None,001,81,2019_Oct_31_0903,ACPT_experiment_5_30_19,3.1.0,59.95457334241837,
,,,C,D,d,v,L,D,y,L,y,,,,,5,19,119,9,1,0,1,0,,,,,1,2,38,32,,,,,,down,0.8007099293463398,1499.9302081912028,None,001,81,2019_Oct_31_0903,ACPT_experiment_5_30_19,3.1.0,59.95457334241837,
,,,C,D,d,v,L,U,y,L,u,,,,,5,19,119,9,1,0,1,0,,,,,1,3,39,24,,,,,,down,1.0508059228595812,1502.0319320293493,None,001,81,2019_Oct_31_0903,ACPT_experiment_5_30_19,3.1.0,59.95457334241837,
,,,C,D,d,v,R,G,y,L,y,,,,,5,19,119,9,1,0,1,0,,,,,1,4,40,28,,,,,,down,0.5504294954880606,1504.3671075525635,None,001,81,2019_Oct_31_0903,ACPT_experiment_5_30_19,3.1.0,59.95457334241837,
,,,C,D,d,v,R,G,y,R,y,,,,,5,19,119,9,1,0,1,0,,,,,1,5,41,29,,,,,,down,1.0341549733711872,1506.218584464019,None,001,81,2019_Oct_31_0903,ACPT_experiment_5_30_19,3.1.0,59.95457334241837,
,,,C,D,d,v,R,U,y,R,u,,,,,5,19,119,9,1,0,1,0,,,,,1,6,42,31,,,,,,down,0.6171836229041219,1508.5370999817678,None,001,81,2019_Oct_31_0903,ACPT_experiment_5_30_19,3.1.0,59.95457334241837,
,,,C,D,d,v,L,U,d,L,u,,,,,5,19,119,9,1,0,1,0,,,,,1,7,43,20,,,,,,up,0.7339180686249165,1510.438614566141,None,001,81,2019_Oct_31_0903,ACPT_experiment_5_30_19,3.1.0,59.95457334241837,
,,,C,D,d,v,L,G,g,L,c ,,,,,5,19,119,9,1,0,1,0,,,,,1,8,44,18,,,,,,up,1.0508406375010964,1512.4568901604798,None,001,81,2019_Oct_31_0903,ACPT_experiment_5_30_19,3.1.0,59.95457334241837,
,,,C,D,d,v,L,G,d,R,i,,,,,5,19,119,9,1,0,1,0,,,,,1,9,45,17,,,,,,down,1.3674830743548227,1514.80904928995,None,001,81,2019_Oct_31_0903,ACPT_experiment_5_30_19,3.1.0,59.95457334241837,
,,,C,D,d,v,L,G,d,L,i,,,,,5,19,119,9,1,0,1,0,,,,,1,10,46,16,,,,,,up,1.1175540129479486,1517.460890795599,None,001,81,2019_Oct_31_0903,ACPT_experiment_5_30_19,3.1.0,59.95457334241837,
,,,C,D,d,v,R,D,g,L,i,,,,,5,19,119,9,1,0,1,0,,,,,1,11,47,2,,,,,,up,4.01990688026126,1519.8628026361403,None,001,81,2019_Oct_31_0903,ACPT_experiment_5_30_19,3.1.0,59.95457334241837,
,,,C,D,d,v,R,U,d,L,u,,,,,5,19,119,9,1,0,1,0,,,,,1,12,48,8,,,,,,down,0.8338877612404758,1525.1671231892542,None,001,81,2019_Oct_31_0903,ACPT_experiment_5_30_19,3.1.0,59.95457334241837,
,,,C,D,d,v,L,D,d,R,c ,,,,,5,19,119,9,1,0,1,0,,,,,1,13,49,13,,,,,,up,1.0341567845607642,1527.2853992665769,None,001,81,2019_Oct_31_0903,ACPT_experiment_5_30_19,3.1.0,59.95457334241837,
,,,C,D,d,v,L,G,y,R,y,,,,,5,19,119,9,1,0,1,0,,,,,1,14,50,35,,,,,,down,1.1842782556050224,1529.6039099544578,None,001,81,2019_Oct_31_0903,ACPT_experiment_5_30_19,3.1.0,59.95457334241837,
,,,C,D,d,v,R,D,y,R,y,,,,,5,19,119,9,1,0,1,0,,,,,1,15,51,27,,,,,,down,0.800648348609684,1532.0725460376416,None,001,81,2019_Oct_31_0903,ACPT_experiment_5_30_19,3.1.0,59.95457334241837,
,,,C,D,d,v,R,U,g,R,u,,,,,5,19,119,9,1,0,1,0,,,,,1,16,52,11,,,,,,up,0.9674331456481013,1534.157550100761,None,001,81,2019_Oct_31_0903,ACPT_experiment_5_30_19,3.1.0,59.95457334241837,
,,,C,D,d,v,R,G,g,L,c ,,,,,5,19,119,9,1,0,1,0,,,,,1,17,53,6,,,,,,up,6.938875076826662,1536.409341073988,None,001,81,2019_Oct_31_0903,ACPT_experiment_5_30_19,3.1.0,59.95457334241837,
,,,C,D,d,v,R,G,d,R,i,,,,,5,19,119,9,1,0,1,0,,,,,1,18,54,5,,,,,,up,1.0675392818666296,1544.615873824674,None,001,81,2019_Oct_31_0903,ACPT_experiment_5_30_19,3.1.0,59.95457334241837,
,,,C,D,d,v,L,D,d,L,c ,,,,,5,19,119,9,1,0,1,0,,,,,1,19,55,12,,,,,,down,0.5170690344239119,1546.9677676135907,None,001,81,2019_Oct_31_0903,ACPT_experiment_5_30_19,3.1.0,59.95457334241837,
,,,C,D,d,v,R,U,y,L,u,,,,,5,19,119,9,1,0,1,0,,,,,1,20,56,30,,,,,,down,2.151731928155641,1548.785888591985,None,001,81,2019_Oct_31_0903,ACPT_experiment_5_30_19,3.1.0,59.95457334241837,
,,,C,D,d,v,R,G,d,L,i,,,,,5,19,119,9,1,0,1,0,,,,,1,21,57,4,,,,,,up,0.9007131291291444,1552.221963556265,None,001,81,2019_Oct_31_0903,ACPT_experiment_5_30_19,3.1.0,59.95457334241837,
,,,C,D,d,v,L,U,d,R,u,,,,,5,19,119,9,1,0,1,0,,,,,1,22,58,21,,,,,,up,1.1342297154915286,1554.40704205964,None,001,81,2019_Oct_31_0903,ACPT_experiment_5_30_19,3.1.0,59.95457334241837,
,,,C,D,d,v,L,D,g,R,i,,,,,5,19,119,9,1,0,1,0,,,,,1,23,59,15,,,,,,up,0.8339903958258219,1556.8256392624317,None,001,81,2019_Oct_31_0903,ACPT_experiment_5_30_19,3.1.0,59.95457334241837,
,,,C,D,d,v,R,G,g,R,c ,,,,,5,19,119,9,1,0,1,0,,,,,1,24,60,7,,,,,,up,0.8506842103379313,1558.9439923156897,None,001,81,2019_Oct_31_0903,ACPT_experiment_5_30_19,3.1.0,59.95457334241837,
,,,C,D,d,v,L,U,g,L,u,,,,,5,19,119,9,1,0,1,0,,,,,1,25,61,22,,,,,,up,0.5170762792113237,1561.0790292218735,None,001,81,2019_Oct_31_0903,ACPT_experiment_5_30_19,3.1.0,59.95457334241837,
,,,C,D,d,v,R,D,y,L,y,,,,,5,19,119,9,1,0,1,0,,,,,1,26,62,26,,,,,,down,0.7506248634017538,1562.8804645361233,None,001,81,2019_Oct_31_0903,ACPT_experiment_5_30_19,3.1.0,59.95457334241837,
,,,C,D,d,v,L,D,y,R,y,,,,,5,19,119,9,1,0,1,0,,,,,1,27,63,33,,,,,,down,2.668827526838868,1564.915426096457,None,001,81,2019_Oct_31_0903,ACPT_experiment_5_30_19,3.1.0,59.95457334241837,
,,,C,D,d,v,L,U,y,R,u,,,,,5,19,119,9,1,0,1,0,,,,,1,28,64,25,,,,,,down,0.6836699948471505,1568.8854260119406,None,001,81,2019_Oct_31_0903,ACPT_experiment_5_30_19,3.1.0,59.95457334241837,
,,,C,D,d,v,L,U,g,R,u,,,,,5,19,119,9,1,0,1,0,,,,,1,29,65,23,,,,,,up,0.7505952805076959,1570.8701793448417,None,001,81,2019_Oct_31_0903,ACPT_experiment_5_30_19,3.1.0,59.95457334241837,
,,,C,D,d,v,L,G,y,L,y,,,,,5,19,119,9,1,0,1,0,,,,,1,30,66,34,,,,,,down,0.9173649842268787,1572.9218169095839,None,001,81,2019_Oct_31_0903,ACPT_experiment_5_30_19,3.1.0,59.95457334241837,
,,,C,D,d,v,R,D,d,R,c ,,,,,5,19,119,9,1,0,1,0,,,,,1,31,67,1,,,,,,up,0.8006356702098856,1575.1402519497497,None,001,81,2019_Oct_31_0903,ACPT_experiment_5_30_19,3.1.0,59.95457334241837,
,,,C,D,d,v,L,G,g,R,c ,,,,,5,19,119,9,1,0,1,0,,,,,1,32,68,19,,,,,,up,0.6004925251909299,1577.2252481643518,None,001,81,2019_Oct_31_0903,ACPT_experiment_5_30_19,3.1.0,59.95457334241837,
,,,C,D,d,v,R,D,d,L,c,,,,,5,19,119,9,1,0,1,0,,,,,1,33,69,0,,,,,,up,0.5337504724302562,1579.1100930835091,None,001,81,2019_Oct_31_0903,ACPT_experiment_5_30_19,3.1.0,59.95457334241837,
,,,C,D,d,v,L,D,g,L,i,,,,,5,19,119,9,1,0,1,0,,,,,1,34,70,14,,,,,,up,0.8005825417349115,1580.928255417588,None,001,81,2019_Oct_31_0903,ACPT_experiment_5_30_19,3.1.0,59.95457334241837,
,,,C,D,d,v,R,D,g,R,i,,,,,5,19,119,9,1,0,1,0,,,,,1,35,71,3,,,,,,up,0.7005787382222479,1583.0132006167696,None,001,81,2019_Oct_31_0903,ACPT_experiment_5_30_19,3.1.0,59.95457334241837,
,,,C,D,d,v,,,,,,,,,,5,19,119,9,2,0,2,0,0,0,0,0,,,,,,,,,,,,,,001,81,2019_Oct_31_0903,ACPT_experiment_5_30_19,3.1.0,59.95457334241837,
,,,C,D,d,v,R,U,g,R,u,,,,,5,19,119,9,2,0,2,0,,,,,0,0,0,11,,,,,,up,0.5637825547746615,1587.0364096133562,None,001,81,2019_Oct_31_0903,ACPT_experiment_5_30_19,3.1.0,59.95457334241837,
,,,C,D,d,v,R,G,g,R,c ,,,,,5,19,119,9,2,0,2,0,,,,,0,1,1,7,,,,,,up,0.5837908621469978,1588.884560259161,None,001,81,2019_Oct_31_0903,ACPT_experiment_5_30_19,3.1.0,59.95457334241837,
,,,C,D,d,v,R,D,g,L,i,,,,,5,19,119,9,2,0,2,0,,,,,0,2,2,2,,,,,,up,0.6171549455903005,1590.7527125712804,None,001,81,2019_Oct_31_0903,ACPT_experiment_5_30_19,3.1.0,59.95457334241837,
,,,C,D,d,v,L,U,d,L,u,,,,,5,19,119,9,2,0,2,0,,,,,0,3,3,20,,,,,,up,0.4336727116460679,1592.6542307780473,None,001,81,2019_Oct_31_0903,ACPT_experiment_5_30_19,3.1.0,59.95457334241837,
,,,C,D,d,v,L,G,g,L,c ,,,,,5,19,119,9,2,0,2,0,,,,,0,4,4,18,,,,,,up,0.3969844756211387,1594.3922826048802,None,001,81,2019_Oct_31_0903,ACPT_experiment_5_30_19,3.1.0,59.95457334241837,
,,,C,D,d,v,L,G,y,L,y,,,,,5,19,119,9,2,0,2,0,,,,,0,5,5,34,,,,,,down,0.7672776240942767,1596.0736261155398,None,001,81,2019_Oct_31_0903,ACPT_experiment_5_30_19,3.1.0,59.95457334241837,
,,,C,D,d,v,L,U,g,L,u,,,,,5,19,119,9,2,0,2,0,,,,,0,6,6,22,,,,,,up,0.5170750717516057,1598.125261265348,None,001,81,2019_Oct_31_0903,ACPT_experiment_5_30_19,3.1.0,59.95457334241837,
,,,C,D,d,v,R,D,d,R,c ,,,,,5,19,119,9,2,0,2,0,,,,,0,7,7,1,,,,,,up,0.6338587217032909,1599.9266766564251,None,001,81,2019_Oct_31_0903,ACPT_experiment_5_30_19,3.1.0,59.95457334241837,
,,,C,D,d,v,R,D,d,L,c,,,,,5,19,119,9,2,0,2,0,,,,,0,8,8,0,,,,,,up,0.633817969734082,1601.8282338039571,None,001,81,2019_Oct_31_0903,ACPT_experiment_5_30_19,3.1.0,59.95457334241837,
,,,C,D,d,v,R,U,d,L,u,,,,,5,19,119,9,2,0,2,0,,,,,0,9,9,8,,,,,,up,0.5337697918730555,1603.7297302763473,None,001,81,2019_Oct_31_0903,ACPT_experiment_5_30_19,3.1.0,59.95457334241837,
,,,C,D,d,v,L,D,y,L,y,,,,,5,19,119,9,2,0,2,0,,,,,0,10,10,32,,,,,,down,0.7506248634163057,1605.5478249923617,None,001,81,2019_Oct_31_0903,ACPT_experiment_5_30_19,3.1.0,59.95457334241837,
,,,C,D,d,v,L,G,d,L,i,,,,,5,19,119,9,2,0,2,0,,,,,0,11,11,16,,,,,,up,0.7002989080792759,1607.599762310405,None,001,81,2019_Oct_31_0903,ACPT_experiment_5_30_19,3.1.0,59.95457334241837,
,,,C,D,d,v,L,G,d,R,i,,,,,5,19,119,9,2,0,2,0,,,,,0,12,12,17,,,,,,up,0.5840208843292203,1609.5675785244966,None,001,81,2019_Oct_31_0903,ACPT_experiment_5_30_19,3.1.0,59.95457334241837,
,,,C,D,d,v,R,U,g,L,u,,,,,5,19,119,9,2,0,2,0,,,,,0,13,13,10,,,,,,up,0.600476526262355,1611.435886297797,None,001,81,2019_Oct_31_0903,ACPT_experiment_5_30_19,3.1.0,59.95457334241837,
,,,C,D,d,v,L,U,y,R,u,,,,,5,19,119,9,2,0,2,0,,,,,0,14,14,25,,,,,,down,0.6838966965005966,1613.3374057120382,None,001,81,2019_Oct_31_0903,ACPT_experiment_5_30_19,3.1.0,59.95457334241837,
,,,C,D,d,v,L,G,g,R,c ,,,,,5,19,119,9,2,0,2,0,,,,,0,15,15,19,,,,,,up,0.5837790893419879,1615.3223344293074,None,001,81,2019_Oct_31_0903,ACPT_experiment_5_30_19,3.1.0,59.95457334241837,
,,,C,D,d,v,L,D,d,L,c ,,,,,5,19,119,9,2,0,2,0,,,,,0,16,16,12,,,,,,up,0.4670319652359467,1617.1904797984898,None,001,81,2019_Oct_31_0903,ACPT_experiment_5_30_19,3.1.0,59.95457334241837,
,,,C,D,d,v,L,D,d,R,c ,,,,,5,19,119,9,2,0,2,0,,,,,0,17,17,13,,,,,,up,0.5339104615995893,1618.9250450686523,None,001,81,2019_Oct_31_0903,ACPT_experiment_5_30_19,3.1.0,59.95457334241837,
,,,C,D,d,v,R,U,y,R,u,,,,,5,19,119,9,2,0,2,0,,,,,0,18,18,31,,,,,,down,0.8306949205434648,1620.7633243819873,None,001,81,2019_Oct_31_0903,ACPT_experiment_5_30_19,3.1.0,59.95457334241837,
,,,C,D,d,v,R,G,y,L,y,,,,,5,19,119,9,2,0,2,0,,,,,0,19,19,28,,,,,,down,0.5504678325087298,1622.8783481509454,None,001,81,2019_Oct_31_0903,ACPT_experiment_5_30_19,3.1.0,59.95457334241837,
,,,C,D,d,v,L,U,d,R,u,,,,,5,19,119,9,2,0,2,0,,,,,0,20,20,21,,,,,,up,0.5170762792258756,1624.713147548653,None,001,81,2019_Oct_31_0903,ACPT_experiment_5_30_19,3.1.0,59.95457334241837,
,,,C,D,d,v,R,G,y,R,y,,,,,5,19,119,9,2,0,2,0,,,,,0,21,21,29,,,,,,down,0.5504370421404019,1626.5145861834462,None,001,81,2019_Oct_31_0903,ACPT_experiment_5_30_19,3.1.0,59.95457334241837,
,,,C,D,d,v,R,D,y,R,y,,,,,5,19,119,9,2,0,2,0,,,,,0,22,22,27,,,,,,down,0.48372910027683247,1628.3493822606397,None,001,81,2019_Oct_31_0903,ACPT_experiment_5_30_19,3.1.0,59.95457334241837,
,,,C,D,d,v,R,G,d,L,i,,,,,5,19,119,9,2,0,2,0,,,,,0,23,23,4,,,,,,up,0.5671335734514287,1630.1174374925176,None,001,81,2019_Oct_31_0903,ACPT_experiment_5_30_19,3.1.0,59.95457334241837,
,,,C,D,d,v,L,G,y,R,y,,,,,5,19,119,9,2,0,2,0,,,,,0,24,24,35,,,,,,down,0.6004795449262019,1631.9689382514189,None,001,81,2019_Oct_31_0903,ACPT_experiment_5_30_19,3.1.0,59.95457334241837,
,,,C,D,d,v,L,D,g,L,i,,,,,5,19,119,9,2,0,2,0,,,,,0,25,25,14,,,,,,up,1.0839276076148963,1633.8707278360525,None,001,81,2019_Oct_31_0903,ACPT_experiment_5_30_19,3.1.0,59.95457334241837,
,,,C,D,d,v,L,D,y,R,y,,,,,5,19,119,9,2,0,2,0,,,,,0,26,26,33,,,,,,down,0.5171028434560867,1636.2223052690097,None,001,81,2019_Oct_31_0903,ACPT_experiment_5_30_19,3.1.0,59.95457334241837,
,,,C,D,d,v,R,D,y,L,y,,,,,5,19,119,9,2,0,2,0,,,,,0,27,27,26,,,,,,down,0.5504409663990373,1638.0237876744213,None,001,81,2019_Oct_31_0903,ACPT_experiment_5_30_19,3.1.0,59.95457334241837,
,,,C,D,d,v,R,U,d,R,u,,,,,5,19,119,9,2,0,2,0,,,,,0,28,28,9,,,,,,up,0.8506836065935204,1639.8585656396317,None,001,81,2019_Oct_31_0903,ACPT_experiment_5_30_19,3.1.0,59.95457334241837,
,,,C,D,d,v,R,G,d,R,i,,,,,5,19,119,9,2,0,2,0,,,,,0,29,29,5,,,,,,up,0.5336460266553331,1641.9936040551402,None,001,81,2019_Oct_31_0903,ACPT_experiment_5_30_19,3.1.0,59.95457334241837,
,,,C,D,d,v,L,U,g,R,u,,,,,5,19,119,9,2,0,2,0,,,,,0,30,30,23,,,,,,up,0.7005615318339551,1643.8117223167355,None,001,81,2019_Oct_31_0903,ACPT_experiment_5_30_19,3.1.0,59.95457334241837,
,,,C,D,d,v,L,U,y,L,u,,,,,5,19,119,9,2,0,2,0,,,,,0,31,31,24,,,,,,up,0.4170051594992401,1645.7799578232225,None,001,81,2019_Oct_31_0903,ACPT_experiment_5_30_19,3.1.0,59.95457334241837,
,,,C,D,d,v,R,G,g,L,c ,,,,,5,19,119,9,2,0,2,0,,,,,0,32,32,6,,,,,,up,3.86987506353762,1647.4813196028408,None,001,81,2019_Oct_31_0903,ACPT_experiment_5_30_19,3.1.0,59.95457334241837,
,,,C,D,d,v,R,D,g,R,i,,,,,5,19,119,9,2,0,2,0,,,,,0,33,33,3,,,,,,up,0.5504430794680957,1652.6354293324694,None,001,81,2019_Oct_31_0903,ACPT_experiment_5_30_19,3.1.0,59.95457334241837,
,,,C,D,d,v,R,U,y,L,u,,,,,5,19,119,9,2,0,2,0,,,,,0,34,34,30,,,,,,down,0.7005530795868253,1654.4869056401803,None,001,81,2019_Oct_31_0903,ACPT_experiment_5_30_19,3.1.0,59.95457334241837,
,,,C,D,d,v,L,D,g,R,i,,,,,5,19,119,9,2,0,2,0,,,,,0,35,35,15,,,,,,up,1.0341543696413282,1656.4885073431942,None,001,81,2019_Oct_31_0903,ACPT_experiment_5_30_19,3.1.0,59.95457334241837,
,,,C,D,d,v,R,G,y,L,y,,,,,5,19,119,9,2,0,2,0,,,,,1,0,36,28,,,,,,down,0.6171567567944294,1658.807021351604,None,001,81,2019_Oct_31_0903,ACPT_experiment_5_30_19,3.1.0,59.95457334241837,
,,,C,D,d,v,L,G,y,R,y,,,,,5,19,119,9,2,0,2,0,,,,,1,1,37,35,,,,,,down,0.6171609829325462,1660.7252155627793,None,001,81,2019_Oct_31_0903,ACPT_experiment_5_30_19,3.1.0,59.95457334241837,
,,,C,D,d,v,R,G,d,L,i,,,,,5,19,119,9,2,0,2,0,,,,,1,2,38,4,,,,,,up,0.7005609281040961,1662.6434170187422,None,001,81,2019_Oct_31_0903,ACPT_experiment_5_30_19,3.1.0,59.95457334241837,
,,,C,D,d,v,R,G,d,R,i,,,,,5,19,119,9,2,0,2,0,,,,,1,3,39,5,,,,,,down,1.0508349020237802,1664.6116585625568,None,001,81,2019_Oct_31_0903,ACPT_experiment_5_30_19,3.1.0,59.95457334241837,
,,,C,D,d,v,L,G,d,R,i,,,,,5,19,119,9,2,0,2,0,,,,,1,4,40,17,,,,,,up,0.9841176023037406,1666.9468537070934,None,001,81,2019_Oct_31_0903,ACPT_experiment_5_30_19,3.1.0,59.95457334241837,
,,,C,D,d,v,L,G,y,L,y,,,,,5,19,119,9,2,0,2,0,,,,,1,5,41,34,,,,,,down,0.7337161200266564,1669.2155990055326,None,001,81,2019_Oct_31_0903,ACPT_experiment_5_30_19,3.1.0,59.95457334241837,
,,,C,D,d,v,L,U,g,L,u,,,,,5,19,119,9,2,0,2,0,,,,,1,6,42,22,,,,,,up,0.9507876297575422,1671.233605636924,None,001,81,2019_Oct_31_0903,ACPT_experiment_5_30_19,3.1.0,59.95457334241837,
,,,C,D,d,v,R,G,g,L,c ,,,,,5,19,119,9,2,0,2,0,,,,,1,7,43,6,,,,,,up,0.4336977665516315,1673.4687248318805,None,001,81,2019_Oct_31_0903,ACPT_experiment_5_30_19,3.1.0,59.95457334241837,
,,,C,D,d,v,R,D,y,L,y,,,,,5,19,119,9,2,0,2,0,,,,,1,8,44,26,,,,,,down,0.5669110979360994,1675.203615212129,None,001,81,2019_Oct_31_0903,ACPT_experiment_5_30_19,3.1.0,59.95457334241837,
,,,C,D,d,v,R,U,g,R,u,,,,,5,19,119,9,2,0,2,0,,,,,1,9,45,11,,,,,,up,0.8673547811340541,1677.0715975734784,None,001,81,2019_Oct_31_0903,ACPT_experiment_5_30_19,3.1.0,59.95457334241837,
,,,C,D,d,v,R,D,d,R,c ,,,,,5,19,119,9,2,0,2,0,,,,,1,10,46,1,,,,,,up,0.5504355328157544,1679.2233186344529,None,001,81,2019_Oct_31_0903,ACPT_experiment_5_30_19,3.1.0,59.95457334241837,
,,,C,D,d,v,R,U,g,L,u,,,,,5,19,119,9,2,0,2,0,,,,,1,11,47,10,,,,,,up,0.5337912243849132,1681.0580911660509,None,001,81,2019_Oct_31_0903,ACPT_experiment_5_30_19,3.1.0,59.95457334241837,
,,,C,D,d,v,R,U,d,R,u,,,,,5,19,119,9,2,0,2,0,,,,,1,12,48,9,,,,,,up,0.5838174263917608,1682.8595307064534,None,001,81,2019_Oct_31_0903,ACPT_experiment_5_30_19,3.1.0,59.95457334241837,
,,,C,D,d,v,R,U,y,R,u,,,,,5,19,119,9,2,0,2,0,,,,,1,13,49,31,,,,,,down,0.7339401048811851,1684.7110100328282,None,001,81,2019_Oct_31_0903,ACPT_experiment_5_30_19,3.1.0,59.95457334241837,
,,,C,D,d,v,L,D,d,R,c ,,,,,5,19,119,9,2,0,2,0,,,,,1,14,50,13,,,,,,down,0.45037709147436544,1686.729285627167,None,001,81,2019_Oct_31_0903,ACPT_experiment_5_30_19,3.1.0,59.95457334241837,
,,,C,D,d,v,R,D,g,L,i,,,,,5,19,119,9,2,0,2,0,,,,,1,15,51,2,,,,,,up,0.5168157685257029,1688.4809781919612,None,001,81,2019_Oct_31_0903,ACPT_experiment_5_30_19,3.1.0,59.95457334241837,
,,,C,D,d,v,L,U,d,L,u,,,,,5,19,119,9,2,0,2,0,,,,,1,16,52,20,,,,,,down,0.6838957908912562,1690.2821185827634,None,001,81,2019_Oct_31_0903,ACPT_experiment_5_30_19,3.1.0,59.95457334241837,
,,,C,D,d,v,L,U,g,R,u,,,,,5,19,119,9,2,0,2,0,,,,,1,17,53,23,,,,,,up,0.7339186723693274,1692.2503779366962,None,001,81,2019_Oct_31_0903,ACPT_experiment_5_30_19,3.1.0,59.95457334241837,
,,,C,D,d,v,L,D,y,R,y,,,,,5,19,119,9,2,0,2,0,,,,,1,18,54,33,,,,,,down,0.6839033375581494,1694.2686296836036,None,001,81,2019_Oct_31_0903,ACPT_experiment_5_30_19,3.1.0,59.95457334241837,
,,,C,D,d,v,R,D,d,L,c,,,,,5,19,119,9,2,0,2,0,,,,,1,19,55,0,,,,,,up,1.5512608354911208,1696.2368703218235,None,001,81,2019_Oct_31_0903,ACPT_experiment_5_30_19,3.1.0,59.95457334241837,
,,,C,D,d,v,L,D,g,L,i,,,,,5,19,119,9,2,0,2,0,,,,,1,20,56,14,,,,,,up,0.517079599754652,1699.0724874755542,None,001,81,2019_Oct_31_0903,ACPT_experiment_5_30_19,3.1.0,59.95457334241837,
,,,C,D,d,v,L,U,y,R,u,,,,,5,19,119,9,2,0,2,0,,,,,1,21,57,25,,,,,,down,0.9171237929840572,1700.8908837560884,None,001,81,2019_Oct_31_0903,ACPT_experiment_5_30_19,3.1.0,59.95457334241837,
,,,C,D,d,v,L,D,d,L,c ,,,,,5,19,119,9,2,0,2,0,,,,,1,22,58,12,,,,,,up,0.5671115372242639,1703.0923659803811,None,001,81,2019_Oct_31_0903,ACPT_experiment_5_30_19,3.1.0,59.95457334241837,
,,,C,D,d,v,L,D,g,R,i,,,,,5,19,119,9,2,0,2,0,,,,,1,23,59,15,,,,,,up,0.6004762243974255,1704.9438440992963,None,001,81,2019_Oct_31_0903,ACPT_experiment_5_30_19,3.1.0,59.95457334241837,
,,,C,D,d,v,L,G,g,L,c ,,,,,5,19,119,9,2,0,2,0,,,,,1,24,60,18,,,,,,up,0.56711274466943,1706.8286790568673,None,001,81,2019_Oct_31_0903,ACPT_experiment_5_30_19,3.1.0,59.95457334241837,
,,,C,D,d,v,L,U,y,L,u,,,,,5,19,119,9,2,0,2,0,,,,,1,25,61,24,,,,,,down,0.7839605714252684,1708.6801550627133,None,001,81,2019_Oct_31_0903,ACPT_experiment_5_30_19,3.1.0,59.95457334241837,
,,,C,D,d,v,R,D,g,R,i,,,,,5,19,119,9,2,0,2,0,,,,,1,26,62,3,,,,,,up,0.5837636941723758,1710.748498214758,None,001,81,2019_Oct_31_0903,ACPT_experiment_5_30_19,3.1.0,59.95457334241837,
,,,C,D,d,v,R,U,d,L,u,,,,,5,19,119,9,2,0,2,0,,,,,1,27,63,8,,,,,,up,0.45035414963786025,1712.6166336223541,None,001,81,2019_Oct_31_0903,ACPT_experiment_5_30_19,3.1.0,59.95457334241837,
,,,C,D,d,v,R,G,g,R,c ,,,,,5,19,119,9,2,0,2,0,,,,,1,28,64,7,,,,,,up,0.3336055161780678,1714.3513486182346,None,001,81,2019_Oct_31_0903,ACPT_experiment_5_30_19,3.1.0,59.95457334241837,
,,,C,D,d,v,R,D,y,R,y,,,,,5,19,119,9,2,0,2,0,,,,,1,29,65,27,,,,,,down,0.7839714386063861,1715.9693020004052,None,001,81,2019_Oct_31_0903,ACPT_experiment_5_30_19,3.1.0,59.95457334241837,
,,,C,D,d,v,L,D,y,L,y,,,,,5,19,119,9,2,0,2,0,,,,,1,30,66,32,,,,,,down,0.7172411586361704,1718.020941074472,None,001,81,2019_Oct_31_0903,ACPT_experiment_5_30_19,3.1.0,59.95457334241837,
,,,C,D,d,v,L,G,d,L,i,,,,,5,19,119,9,2,0,2,0,,,,,1,31,67,16,,,,,,up,0.600208468924393,1720.0394895560166,None,001,81,2019_Oct_31_0903,ACPT_experiment_5_30_19,3.1.0,59.95457334241837,
,,,C,D,d,v,R,U,y,L,u,,,,,5,19,119,9,2,0,2,0,,,,,1,32,68,30,,,,,,down,0.8340154507313855,1721.9240621917124,None,001,81,2019_Oct_31_0903,ACPT_experiment_5_30_19,3.1.0,59.95457334241837,
,,,C,D,d,v,L,G,g,R,c ,,,,,5,19,119,9,2,0,2,0,,,,,1,33,69,19,,,,,,up,0.7506185242091306,1724.0424158487003,None,001,81,2019_Oct_31_0903,ACPT_experiment_5_30_19,3.1.0,59.95457334241837,
,,,C,D,d,v,L,U,d,R,u,,,,,5,19,119,9,2,0,2,0,,,,,1,34,70,21,,,,,,up,0.6505193309276365,1726.0773737866402,None,001,81,2019_Oct_31_0903,ACPT_experiment_5_30_19,3.1.0,59.95457334241837,
,,,C,D,d,v,R,G,y,R,y,,,,,5,19,119,9,2,0,2,0,,,,,1,35,71,29,,,,,,down,0.6839217514061602,1728.0122255883616,None,001,81,2019_Oct_31_0903,ACPT_experiment_5_30_19,3.1.0,59.95457334241837,
,,,C,D,d,v,,,,,,,,,,5,19,119,9,3,0,3,0,0,0,0,0,,,,,,,,,,,,,,001,81,2019_Oct_31_0903,ACPT_experiment_5_30_19,3.1.0,59.95457334241837,
,,,C,D,d,v,L,U,g,L,u,,,,,5,19,119,9,3,0,3,0,,,,,0,0,0,22,,,,,,up,0.4503616962902015,1731.5484069907397,None,001,81,2019_Oct_31_0903,ACPT_experiment_5_30_19,3.1.0,59.95457334241837,
,,,C,D,d,v,R,G,y,R,y,,,,,5,19,119,9,3,0,3,0,,,,,0,1,1,29,,,,,,down,0.7336008070706157,1733.3001249123045,None,001,81,2019_Oct_31_0903,ACPT_experiment_5_30_19,3.1.0,59.95457334241837,
,,,C,D,d,v,R,U,y,R,u,,,,,5,19,119,9,3,0,3,0,,,,,0,2,2,31,,,,,,down,0.5837932770664338,1735.3180865656177,None,001,81,2019_Oct_31_0903,ACPT_experiment_5_30_19,3.1.0,59.95457334241837,
,,,C,D,d,v,R,G,d,R,i,,,,,5,19,119,9,3,0,3,0,,,,,0,3,3,5,,,,,,up,5.2375389558583265,1737.1862177470757,None,001,81,2019_Oct_31_0903,ACPT_experiment_5_30_19,3.1.0,59.95457334241837,
,,,C,D,d,v,L,U,g,R,u,,,,,5,19,119,9,3,0,3,0,,,,,0,4,4,23,,,,,,up,0.5337519817549037,1743.7081106062542,None,001,81,2019_Oct_31_0903,ACPT_experiment_5_30_19,3.1.0,59.95457334241837,
,,,C,D,d,v,L,G,g,R,c ,,,,,5,19,119,9,3,0,3,0,,,,,0,5,5,19,,,,,,up,0.4837432880012784,1745.5262035110645,None,001,81,2019_Oct_31_0903,ACPT_experiment_5_30_19,3.1.0,59.95457334241837,
,,,C,D,d,v,L,U,d,L,u,,,,,5,19,119,9,3,0,3,0,,,,,0,6,6,20,,,,,,up,0.6338312518637395,1747.294311871432,None,001,81,2019_Oct_31_0903,ACPT_experiment_5_30_19,3.1.0,59.95457334241837,
,,,C,D,d,v,L,U,y,R,u,,,,,5,19,119,9,3,0,3,0,,,,,0,7,7,25,,,,,,down,0.7172284802509239,1749.2125027620787,None,001,81,2019_Oct_31_0903,ACPT_experiment_5_30_19,3.1.0,59.95457334241837,
,,,C,D,d,v,R,U,g,L,u,,,,,5,19,119,9,3,0,3,0,,,,,0,8,8,10,,,,,,up,3.7529881752852816,1751.214106880012,None,001,81,2019_Oct_31_0903,ACPT_experiment_5_30_19,3.1.0,59.95457334241837,
,,,C,D,d,v,R,G,g,R,c ,,,,,5,19,119,9,3,0,3,0,,,,,0,9,9,7,,,,,,up,0.3669777500326745,1756.2514290354302,None,001,81,2019_Oct_31_0903,ACPT_experiment_5_30_19,3.1.0,59.95457334241837,
,,,C,D,d,v,R,D,d,L,c,,,,,5,19,119,9,3,0,3,0,,,,,0,10,10,0,,,,,,up,0.533636668784311,1757.902776385832,None,001,81,2019_Oct_31_0903,ACPT_experiment_5_30_19,3.1.0,59.95457334241837,
,,,C,D,d,v,R,D,g,L,i,,,,,5,19,119,9,3,0,3,0,,,,,0,11,11,2,,,,,,up,0.4670223054999951,1759.7042246803467,None,001,81,2019_Oct_31_0903,ACPT_experiment_5_30_19,3.1.0,59.95457334241837,
,,,C,D,d,v,L,D,g,R,i,,,,,5,19,119,9,3,0,3,0,,,,,0,12,12,15,,,,,,up,0.5167267179494957,1761.4726276623114,None,001,81,2019_Oct_31_0903,ACPT_experiment_5_30_19,3.1.0,59.95457334241837,
,,,C,D,d,v,L,D,d,R,c ,,,,,5,19,119,9,3,0,3,0,,,,,0,13,13,13,,,,,,up,0.33361245911510196,1763.2570241287758,None,001,81,2019_Oct_31_0903,ACPT_experiment_5_30_19,3.1.0,59.95457334241837,
,,,C,D,d,v,L,D,d,L,c ,,,,,5,19,119,9,3,0,3,0,,,,,0,14,14,12,,,,,,up,0.46709445158194285,1764.858300600943,None,001,81,2019_Oct_31_0903,ACPT_experiment_5_30_19,3.1.0,59.95457334241837,
,,,C,D,d,v,L,D,y,R,y,,,,,5,19,119,9,3,0,3,0,,,,,0,15,15,33,,,,,,down,0.9007273168535903,1766.5930364256055,None,001,81,2019_Oct_31_0903,ACPT_experiment_5_30_19,3.1.0,59.95457334241837,
,,,C,D,d,v,R,U,y,L,u,,,,,5,19,119,9,3,0,3,0,,,,,0,16,16,30,,,,,,down,0.6503037983347895,1768.794977184938,None,001,81,2019_Oct_31_0903,ACPT_experiment_5_30_19,3.1.0,59.95457334241837,
,,,C,D,d,v,L,G,y,L,y,,,,,5,19,119,9,3,0,3,0,,,,,0,17,17,34,,,,,,down,0.6170417457033182,1770.746434958055,None,001,81,2019_Oct_31_0903,ACPT_experiment_5_30_19,3.1.0,59.95457334241837,
,,,C,D,d,v,R,G,y,L,y,,,,,5,19,119,9,3,0,3,0,,,,,0,18,18,28,,,,,,down,0.45035777203156613,1772.647869547829,None,001,81,2019_Oct_31_0903,ACPT_experiment_5_30_19,3.1.0,59.95457334241837,
,,,C,D,d,v,R,D,y,R,y,,,,,5,19,119,9,3,0,3,0,,,,,0,19,19,27,,,,,,down,0.567138101454475,1774.3825854493043,None,001,81,2019_Oct_31_0903,ACPT_experiment_5_30_19,3.1.0,59.95457334241837,
,,,C,D,d,v,R,G,g,L,c ,,,,,5,19,119,9,3,0,3,0,,,,,0,20,20,6,,,,,,up,0.8340024704812095,1776.2507480248896,None,001,81,2019_Oct_31_0903,ACPT_experiment_5_30_19,3.1.0,59.95457334241837,
,,,C,D,d,v,L,U,y,L,u,,,,,5,19,119,9,3,0,3,0,,,,,0,21,21,24,,,,,,down,0.6338294406741625,1778.3858190419705,None,001,81,2019_Oct_31_0903,ACPT_experiment_5_30_19,3.1.0,59.95457334241837,
,,,C,D,d,v,L,D,g,L,i,,,,,5,19,119,9,3,0,3,0,,,,,0,22,22,14,,,,,,up,1.2509970646497095,1780.3206648063642,None,001,81,2019_Oct_31_0903,ACPT_experiment_5_30_19,3.1.0,59.95457334241837,
,,,C,D,d,v,R,U,d,R,u,,,,,5,19,119,9,3,0,3,0,,,,,0,23,23,9,,,,,,up,0.6338394022604916,1782.8560178873886,None,001,81,2019_Oct_31_0903,ACPT_experiment_5_30_19,3.1.0,59.95457334241837,
,,,C,D,d,v,R,D,d,R,c ,,,,,5,19,119,9,3,0,3,0,,,,,0,24,24,1,,,,,,up,0.5504400608042488,1784.7742148153484,None,001,81,2019_Oct_31_0903,ACPT_experiment_5_30_19,3.1.0,59.95457334241837,
,,,C,D,d,v,L,G,y,R,y,,,,,5,19,119,9,3,0,3,0,,,,,0,25,25,35,,,,,,down,0.6338967568590306,1786.6090139112057,None,001,81,2019_Oct_31_0903,ACPT_experiment_5_30_19,3.1.0,59.95457334241837,
,,,C,D,d,v,L,G,d,L,i,,,,,5,19,119,9,3,0,3,0,,,,,0,26,26,16,,,,,,up,1.1009039690543432,1788.5271848786651,None,001,81,2019_Oct_31_0903,ACPT_experiment_5_30_19,3.1.0,59.95457334241837,
,,,C,D,d,v,R,G,d,L,i,,,,,5,19,119,9,3,0,3,0,,,,,0,27,27,4,,,,,,up,0.6670887764776126,1790.9124484865024,None,001,81,2019_Oct_31_0903,ACPT_experiment_5_30_19,3.1.0,59.95457334241837,
,,,C,D,d,v,R,D,g,R,i,,,,,5,19,119,9,3,0,3,0,,,,,0,28,28,3,,,,,,up,0.8173162026068894,1792.8640031587274,None,001,81,2019_Oct_31_0903,ACPT_experiment_5_30_19,3.1.0,59.95457334241837,
,,,C,D,d,v,L,D,y,L,y,,,,,5,19,119,9,3,0,3,0,,,,,0,29,29,32,,,,,,down,0.6338348742574453,1794.9656811131863,None,001,81,2019_Oct_31_0903,ACPT_experiment_5_30_19,3.1.0,59.95457334241837,
,,,C,D,d,v,R,U,g,R,u,,,,,5,19,119,9,3,0,3,0,,,,,0,30,30,11,,,,,,up,0.6671986558503704,1796.8838792486058,None,001,81,2019_Oct_31_0903,ACPT_experiment_5_30_19,3.1.0,59.95457334241837,
,,,C,D,d,v,L,U,d,R,u,,,,,5,19,119,9,3,0,3,0,,,,,0,31,31,21,,,,,,up,0.5504325141519075,1798.835458975751,None,001,81,2019_Oct_31_0903,ACPT_experiment_5_30_19,3.1.0,59.95457334241837,
,,,C,D,d,v,L,G,g,L,c ,,,,,5,19,119,9,3,0,3,0,,,,,0,32,32,18,,,,,,up,0.45035867764090654,1800.670233620418,None,001,81,2019_Oct_31_0903,ACPT_experiment_5_30_19,3.1.0,59.95457334241837,
,,,C,D,d,v,R,U,d,L,u,,,,,5,19,119,9,3,0,3,0,,,,,0,33,33,8,,,,,,up,0.5170949949388159,1802.4049549554911,None,001,81,2019_Oct_31_0903,ACPT_experiment_5_30_19,3.1.0,59.95457334241837,
,,,C,D,d,v,L,G,d,R,i,,,,,5,19,119,9,3,0,3,0,,,,,0,34,34,17,,,,,,down,0.9841139799245866,1804.2063890622958,None,001,81,2019_Oct_31_0903,ACPT_experiment_5_30_19,3.1.0,59.95457334241837,
,,,C,D,d,v,R,D,y,L,y,,,,,5,19,119,9,3,0,3,0,,,,,0,35,35,26,,,,,,up,0.8673457251570653,1806.4915598160296,None,001,81,2019_Oct_31_0903,ACPT_experiment_5_30_19,3.1.0,59.95457334241837,
,,,C,D,d,v,R,D,d,R,c ,,,,,5,19,119,9,3,0,3,0,,,,,1,0,36,1,,,,,,up,0.6505380466260249,1808.6265608001122,None,001,81,2019_Oct_31_0903,ACPT_experiment_5_30_19,3.1.0,59.95457334241837,
,,,C,D,d,v,R,G,g,R,c ,,,,,5,19,119,9,3,0,3,0,,,,,1,1,37,7,,,,,,up,0.6004741113283671,1810.56146180605,None,001,81,2019_Oct_31_0903,ACPT_experiment_5_30_19,3.1.0,59.95457334241837,
,,,C,D,d,v,R,U,g,L,u,,,,,5,19,119,9,3,0,3,0,,,,,1,2,38,10,,,,,,up,0.7005536833166843,1812.4462997822848,None,001,81,2019_Oct_31_0903,ACPT_experiment_5_30_19,3.1.0,59.95457334241837,
,,,C,D,d,v,R,U,y,L,u,,,,,5,19,119,9,3,0,3,0,,,,,1,3,39,30,,,,,,down,0.6171800004958641,1814.4145147618692,None,001,81,2019_Oct_31_0903,ACPT_experiment_5_30_19,3.1.0,59.95457334241837,
,,,C,D,d,v,R,U,y,R,u,,,,,5,19,119,9,3,0,3,0,,,,,1,4,40,31,,,,,,down,0.46707211346074473,1816.2993599828915,None,001,81,2019_Oct_31_0903,ACPT_experiment_5_30_19,3.1.0,59.95457334241837,
,,,C,D,d,v,R,D,g,L,i,,,,,5,19,119,9,3,0,3,0,,,,,1,5,41,2,,,,,,up,0.9674760106718168,1818.050776339951,None,001,81,2019_Oct_31_0903,ACPT_experiment_5_30_19,3.1.0,59.95457334241837,
,,,C,D,d,v,L,D,d,L,c ,,,,,5,19,119,9,3,0,3,0,,,,,1,6,42,12,,,,,,down,0.7005515702476259,1820.3025676150428,None,001,81,2019_Oct_31_0903,ACPT_experiment_5_30_19,3.1.0,59.95457334241837,
,,,C,D,d,v,L,G,y,L,y,,,,,5,19,119,9,3,0,3,0,,,,,1,7,43,34,,,,,,down,0.7172698359354399,1822.287477918464,None,001,81,2019_Oct_31_0903,ACPT_experiment_5_30_19,3.1.0,59.95457334241837,
,,,C,D,d,v,L,D,g,L,i,,,,,5,19,119,9,3,0,3,0,,,,,1,8,44,14,,,,,,up,0.6672104286262766,1824.289081734547,None,001,81,2019_Oct_31_0903,ACPT_experiment_5_30_19,3.1.0,59.95457334241837,
,,,C,D,d,v,R,D,y,R,y,,,,,5,19,119,9,3,0,3,0,,,,,1,9,45,27,,,,,,down,0.6338375910563627,1826.2406430478295,None,001,81,2019_Oct_31_0903,ACPT_experiment_5_30_19,3.1.0,59.95457334241837,
,,,C,D,d,v,L,D,d,R,c ,,,,,5,19,119,9,3,0,3,0,,,,,1,10,46,13,,,,,,up,0.6837575360987103,1828.1588423907233,None,001,81,2019_Oct_31_0903,ACPT_experiment_5_30_19,3.1.0,59.95457334241837,
,,,C,D,d,v,R,G,y,L,y,,,,,5,19,119,9,3,0,3,0,,,,,1,11,47,28,,,,,,down,0.7506227503472473,1830.1270510311151,None,001,81,2019_Oct_31_0903,ACPT_experiment_5_30_19,3.1.0,59.95457334241837,
,,,C,D,d,v,R,G,g,L,c ,,,,,5,19,119,9,3,0,3,0,,,,,1,12,48,6,,,,,,up,0.700574512098683,1832.1453332665114,None,001,81,2019_Oct_31_0903,ACPT_experiment_5_30_19,3.1.0,59.95457334241837,
,,,C,D,d,v,R,U,g,R,u,,,,,5,19,119,9,3,0,3,0,,,,,1,13,49,11,,,,,,up,0.6671938259823946,1834.1135896017804,None,001,81,2019_Oct_31_0903,ACPT_experiment_5_30_19,3.1.0,59.95457334241837,
,,,C,D,d,v,L,U,y,L,u,,,,,5,19,119,9,3,0,3,0,,,,,1,14,50,24,,,,,,down,0.7339376899471972,1836.0651475945488,None,001,81,2019_Oct_31_0903,ACPT_experiment_5_30_19,3.1.0,59.95457334241837,
,,,C,D,d,v,R,U,d,R,u,,,,,5,19,119,9,3,0,3,0,,,,,1,15,51,9,,,,,,up,0.6338400059903506,1838.0834228870226,None,001,81,2019_Oct_31_0903,ACPT_experiment_5_30_19,3.1.0,59.95457334241837,
,,,C,D,d,v,L,G,g,L,c ,,,,,5,19,119,9,3,0,3,0,,,,,1,16,52,18,,,,,,up,0.9007306373823667,1840.0016231355112,None,001,81,2019_Oct_31_0903,ACPT_experiment_5_30_19,3.1.0,59.95457334241837,
,,,C,D,d,v,L,U,d,R,u,,,,,5,19,119,9,3,0,3,0,,,,,1,17,53,21,,,,,,up,0.7672746054304298,1842.1867028463603,None,001,81,2019_Oct_31_0903,ACPT_experiment_5_30_19,3.1.0,59.95457334241837,
,,,C,D,d,v,R,G,d,L,i,,,,,5,19,119,9,3,0,3,0,,,,,1,18,54,4,,,,,,down,0.6838701322558336,1844.238337090559,None,001,81,2019_Oct_31_0903,ACPT_experiment_5_30_19,3.1.0,59.95457334241837,
,,,C,D,d,v,R,D,y,L,y,,,,,5,19,119,9,3,0,3,0,,,,,1,19,55,26,,,,,,down,0.7172529314266285,1846.2065535794682,None,001,81,2019_Oct_31_0903,ACPT_experiment_5_30_19,3.1.0,59.95457334241837,
,,,C,D,d,v,R,D,d,L,c,,,,,5,19,119,9,3,0,3,0,,,,,1,20,56,0,,,,,,up,0.8673804397840286,1848.2081700739218,None,001,81,2019_Oct_31_0903,ACPT_experiment_5_30_19,3.1.0,59.95457334241837,
,,,C,D,d,v,L,U,d,L,u,,,,,5,19,119,9,3,0,3,0,,,,,1,21,57,20,,,,,,up,0.6504825032316148,1850.3432410910173,None,001,81,2019_Oct_31_0903,ACPT_experiment_5_30_19,3.1.0,59.95457334241837,
,,,C,D,d,v,L,G,y,R,y,,,,,5,19,119,9,3,0,3,0,,,,,1,22,58,35,,,,,,down,0.8506724375474732,1852.2947664821986,None,001,81,2019_Oct_31_0903,ACPT_experiment_5_30_19,3.1.0,59.95457334241837,
,,,C,D,d,v,L,U,y,R,u,,,,,5,19,119,9,3,0,3,0,,,,,1,23,59,25,,,,,,down,0.8173074484802783,1854.4464884487825,None,001,81,2019_Oct_31_0903,ACPT_experiment_5_30_19,3.1.0,59.95457334241837,
,,,C,D,d,v,L,G,g,R,c ,,,,,5,19,119,9,3,0,3,0,,,,,1,24,60,19,,,,,,up,0.667208919316181,1856.5481612715084,None,001,81,2019_Oct_31_0903,ACPT_experiment_5_30_19,3.1.0,59.95457334241837,
,,,C,D,d,v,L,D,y,L,y,,,,,5,19,119,9,3,0,3,0,,,,,1,25,61,32,,,,,,down,0.6838779807731044,1858.4997159437335,None,001,81,2019_Oct_31_0903,ACPT_experiment_5_30_19,3.1.0,59.95457334241837,
,,,C,D,d,v,R,U,d,L,u,,,,,5,19,119,9,3,0,3,0,,,,,1,26,62,8,,,,,,down,1.401111290892004,1860.4679596006172,None,001,81,2019_Oct_31_0903,ACPT_experiment_5_30_19,3.1.0,59.95457334241837,
,,,C,D,d,v,L,U,g,L,u,,,,,5,19,119,9,3,0,3,0,,,,,1,27,63,22,,,,,,up,0.6003642319701612,1863.1534308321425,None,001,81,2019_Oct_31_0903,ACPT_experiment_5_30_19,3.1.0,59.95457334241837,
,,,C,D,d,v,L,D,g,R,i,,,,,5,19,119,9,3,0,3,0,,,,,1,28,64,15,,,,,,up,0.5337546985538211,1865.0382657897135,None,001,81,2019_Oct_31_0903,ACPT_experiment_5_30_19,3.1.0,59.95457334241837,
,,,C,D,d,v,L,G,d,R,i,,,,,5,19,119,9,3,0,3,0,,,,,1,29,65,17,,,,,,up,0.43366697618330363,1866.8563976352889,None,001,81,2019_Oct_31_0903,ACPT_experiment_5_30_19,3.1.0,59.95457334241837,
,,,C,D,d,v,R,D,g,R,i,,,,,5,19,119,9,3,0,3,0,,,,,1,30,66,3,,,,,,up,0.8337374317925423,1868.5913643877284,None,001,81,2019_Oct_31_0903,ACPT_experiment_5_30_19,3.1.0,59.95457334241837,
,,,C,D,d,v,L,G,d,L,i,,,,,5,19,119,9,3,0,3,0,,,,,1,31,67,16,,,,,,up,0.5838135021185735,1870.7094590433699,None,001,81,2019_Oct_31_0903,ACPT_experiment_5_30_19,3.1.0,59.95457334241837,
,,,C,D,d,v,R,G,d,R,i,,,,,5,19,119,9,3,0,3,0,,,,,1,32,68,5,,,,,,up,0.6171709445188753,1872.5776195058716,None,001,81,2019_Oct_31_0903,ACPT_experiment_5_30_19,3.1.0,59.95457334241837,
,,,C,D,d,v,L,U,g,R,u,,,,,5,19,119,9,3,0,3,0,,,,,1,33,69,23,,,,,,up,0.5337731124018319,1874.479135599584,None,001,81,2019_Oct_31_0903,ACPT_experiment_5_30_19,3.1.0,59.95457334241837,
,,,C,D,d,v,R,G,y,R,y,,,,,5,19,119,9,3,0,3,0,,,,,1,34,70,29,,,,,,up,0.4670367951039225,1876.2972544648946,None,001,81,2019_Oct_31_0903,ACPT_experiment_5_30_19,3.1.0,59.95457334241837,
,,,C,D,d,v,L,D,y,R,y,,,,,5,19,119,9,3,0,3,0,,,,,1,35,71,33,,,,,,down,0.46707181159581523,1878.0486282587954,None,001,81,2019_Oct_31_0903,ACPT_experiment_5_30_19,3.1.0,59.95457334241837,
,,,C,D,d,v,,,,,,,,,,5,19,119,9,4,0,4,0,0,0,0,0,,,,,,,,,,,,,,001,81,2019_Oct_31_0903,ACPT_experiment_5_30_19,3.1.0,59.95457334241837,
,,,C,D,d,v,R,U,y,L,u,,,,,5,19,119,9,4,0,4,0,,,,,0,0,0,30,,,,,,down,0.70033422645065,1881.067919029767,None,001,81,2019_Oct_31_0903,ACPT_experiment_5_30_19,3.1.0,59.95457334241837,
,,,C,D,d,v,R,U,g,R,u,,,,,5,19,119,9,4,0,4,0,,,,,0,1,1,11,,,,,,up,0.7172296877106419,1883.0693263308349,None,001,81,2019_Oct_31_0903,ACPT_experiment_5_30_19,3.1.0,59.95457334241837,
,,,C,D,d,v,L,D,y,R,y,,,,,5,19,119,9,4,0,4,0,,,,,0,2,2,33,,,,,,down,0.650521443982143,1885.070921996521,None,001,81,2019_Oct_31_0903,ACPT_experiment_5_30_19,3.1.0,59.95457334241837,
,,,C,D,d,v,R,G,g,R,c ,,,,,5,19,119,9,4,0,4,0,,,,,0,3,3,7,,,,,,up,0.6005272398178931,1887.005773194498,None,001,81,2019_Oct_31_0903,ACPT_experiment_5_30_19,3.1.0,59.95457334241837,
,,,C,D,d,v,R,G,y,R,y,,,,,5,19,119,9,4,0,4,0,,,,,0,4,4,29,,,,,,up,0.400315872990177,1888.8906347163138,None,001,81,2019_Oct_31_0903,ACPT_experiment_5_30_19,3.1.0,59.95457334241837,
,,,C,D,d,v,L,G,y,R,y,,,,,5,19,119,9,4,0,4,0,,,,,0,5,5,35,,,,,,down,0.5170904669357697,1890.575318982199,None,001,81,2019_Oct_31_0903,ACPT_experiment_5_30_19,3.1.0,59.95457334241837,
,,,C,D,d,v,R,G,d,L,i,,,,,5,19,119,9,4,0,4,0,,,,,0,6,6,4,,,,,,up,0.5838038423971739,1892.3767500703252,None,001,81,2019_Oct_31_0903,ACPT_experiment_5_30_19,3.1.0,59.95457334241837,
,,,C,D,d,v,R,U,d,L,u,,,,,5,19,119,9,4,0,4,0,,,,,0,7,7,8,,,,,,up,0.4803907599853119,1894.2649182364694,None,001,81,2019_Oct_31_0903,ACPT_experiment_5_30_19,3.1.0,59.95457334241837,
,,,C,D,d,v,R,G,d,R,i,,,,,5,19,119,9,4,0,4,0,,,,,0,8,8,5,,,,,,down,0.617140456015477,1896.0296788986889,None,001,81,2019_Oct_31_0903,ACPT_experiment_5_30_19,3.1.0,59.95457334241837,
,,,C,D,d,v,L,D,g,R,i,,,,,5,19,119,9,4,0,4,0,,,,,0,9,9,15,,,,,,up,0.5170705437631113,1897.9311871438695,None,001,81,2019_Oct_31_0903,ACPT_experiment_5_30_19,3.1.0,59.95457334241837,
,,,C,D,d,v,R,D,y,R,y,,,,,5,19,119,9,4,0,4,0,,,,,0,10,10,27,,,,,,down,0.516894253785722,1899.7494584517117,None,001,81,2019_Oct_31_0903,ACPT_experiment_5_30_19,3.1.0,59.95457334241837,
,,,C,D,d,v,L,D,g,L,i,,,,,5,19,119,9,4,0,4,0,,,,,0,11,11,14,,,,,,up,0.5001454995945096,1901.5843465981452,None,001,81,2019_Oct_31_0903,ACPT_experiment_5_30_19,3.1.0,59.95457334241837,
,,,C,D,d,v,L,G,d,L,i,,,,,5,19,119,9,4,0,4,0,,,,,0,12,12,16,,,,,,up,0.533758320947527,1903.3688556607813,None,001,81,2019_Oct_31_0903,ACPT_experiment_5_30_19,3.1.0,59.95457334241837,
,,,C,D,d,v,L,U,y,L,u,,,,,5,19,119,9,4,0,4,0,,,,,0,13,13,24,,,,,,down,1.050889841717435,1905.1869500749162,None,001,81,2019_Oct_31_0903,ACPT_experiment_5_30_19,3.1.0,59.95457334241837,
,,,C,D,d,v,L,G,g,R,c ,,,,,5,19,119,9,4,0,4,0,,,,,0,14,14,19,,,,,,up,0.5504548522585537,1907.5221726892923,None,001,81,2019_Oct_31_0903,ACPT_experiment_5_30_19,3.1.0,59.95457334241837,
,,,C,D,d,v,L,G,y,L,y,,,,,5,19,119,9,4,0,4,0,,,,,0,15,15,34,,,,,,down,0.6670809279603418,1909.3736508082075,None,001,81,2019_Oct_31_0903,ACPT_experiment_5_30_19,3.1.0,59.95457334241837,
,,,C,D,d,v,L,D,d,L,c ,,,,,5,19,119,9,4,0,4,0,,,,,0,16,16,12,,,,,,up,0.5670870860340074,1911.341915897603,None,001,81,2019_Oct_31_0903,ACPT_experiment_5_30_19,3.1.0,59.95457334241837,
,,,C,D,d,v,R,D,g,L,i,,,,,5,19,119,9,4,0,4,0,,,,,0,17,17,2,,,,,,up,0.7505937711684965,1913.1933662448137,None,001,81,2019_Oct_31_0903,ACPT_experiment_5_30_19,3.1.0,59.95457334241837,
,,,C,D,d,v,L,U,d,R,u,,,,,5,19,119,9,4,0,4,0,,,,,0,18,18,21,,,,,,up,1.8679189694084926,1915.2452730743535,None,001,81,2019_Oct_31_0903,ACPT_experiment_5_30_19,3.1.0,59.95457334241837,
,,,C,D,d,v,L,D,y,L,y,,,,,5,19,119,9,4,0,4,0,,,,,0,19,19,32,,,,,,down,0.6004774318716954,1918.3975172697683,None,001,81,2019_Oct_31_0903,ACPT_experiment_5_30_19,3.1.0,59.95457334241837,
,,,C,D,d,v,R,D,d,R,c ,,,,,5,19,119,9,4,0,4,0,,,,,0,20,20,1,,,,,,up,1.100895214927732,1920.2823588684114,None,001,81,2019_Oct_31_0903,ACPT_experiment_5_30_19,3.1.0,59.95457334241837,
,,,C,D,d,v,R,D,g,R,i,,,,,5,19,119,9,4,0,4,0,,,,,0,21,21,3,,,,,,up,0.7839817020721966,1922.650889419092,None,001,81,2019_Oct_31_0903,ACPT_experiment_5_30_19,3.1.0,59.95457334241837,
,,,C,D,d,v,L,G,d,R,i,,,,,5,19,119,9,4,0,4,0,,,,,0,22,22,17,,,,,,up,0.7673579205584247,1924.7192253263493,None,001,81,2019_Oct_31_0903,ACPT_experiment_5_30_19,3.1.0,59.95457334241837,
,,,C,D,d,v,L,U,g,L,u,,,,,5,19,119,9,4,0,4,0,,,,,0,23,23,22,,,,,,up,0.6338415153149981,1926.7708662116056,None,001,81,2019_Oct_31_0903,ACPT_experiment_5_30_19,3.1.0,59.95457334241837,
,,,C,D,d,v,L,U,y,R,u,,,,,5,19,119,9,4,0,4,0,,,,,0,24,24,25,,,,,,up,0.8173424649867229,1928.672361476536,None,001,81,2019_Oct_31_0903,ACPT_experiment_5_30_19,3.1.0,59.95457334241837,
,,,C,D,d,v,R,G,g,L,c ,,,,,5,19,119,9,4,0,4,0,,,,,0,25,25,6,,,,,,up,1.050849693478085,1930.7740602597623,None,001,81,2019_Oct_31_0903,ACPT_experiment_5_30_19,3.1.0,59.95457334241837,
,,,C,D,d,v,R,U,g,L,u,,,,,5,19,119,9,4,0,4,0,,,,,0,26,26,10,,,,,,up,0.4836949893797282,1933.1092819685437,None,001,81,2019_Oct_31_0903,ACPT_experiment_5_30_19,3.1.0,59.95457334241837,
,,,C,D,d,v,L,U,g,R,u,,,,,5,19,119,9,4,0,4,0,,,,,0,27,27,23,,,,,,up,0.43366425938438624,1934.8773492750915,None,001,81,2019_Oct_31_0903,ACPT_experiment_5_30_19,3.1.0,59.95457334241837,
,,,C,D,d,v,R,G,y,L,y,,,,,5,19,119,9,4,0,4,0,,,,,0,28,28,28,,,,,,up,0.566841064937762,1936.612321159264,None,001,81,2019_Oct_31_0903,ACPT_experiment_5_30_19,3.1.0,59.95457334241837,
,,,C,D,d,v,R,U,y,R,u,,,,,5,19,119,9,4,0,4,0,,,,,0,29,29,31,,,,,,down,0.48373151521082036,1938.4468494809698,None,001,81,2019_Oct_31_0903,ACPT_experiment_5_30_19,3.1.0,59.95457334241837,
,,,C,D,d,v,R,D,d,L,c,,,,,5,19,119,9,4,0,4,0,,,,,0,30,30,0,,,,,,down,1.467844287661137,1940.2149285602936,None,001,81,2019_Oct_31_0903,ACPT_experiment_5_30_19,3.1.0,59.95457334241837,
,,,C,D,d,v,L,G,g,L,c ,,,,,5,19,119,9,4,0,4,0,,,,,0,31,31,18,,,,,,down,0.5170738642773358,1942.9671294680738,None,001,81,2019_Oct_31_0903,ACPT_experiment_5_30_19,3.1.0,59.95457334241837,
,,,C,D,d,v,L,U,d,L,u,,,,,5,19,119,9,4,0,4,0,,,,,0,32,32,20,,,,,,down,0.600518485691282,1944.7685617636744,None,001,81,2019_Oct_31_0903,ACPT_experiment_5_30_19,3.1.0,59.95457334241837,
,,,C,D,d,v,R,U,d,R,u,,,,,5,19,119,9,4,0,4,0,,,,,0,33,33,9,,,,,,up,0.6338336667977273,1946.653402758573,None,001,81,2019_Oct_31_0903,ACPT_experiment_5_30_19,3.1.0,59.95457334241837,
,,,C,D,d,v,R,D,y,L,y,,,,,5,19,119,9,4,0,4,0,,,,,0,34,34,26,,,,,,down,0.7838416360609699,1948.5883571948652,None,001,81,2019_Oct_31_0903,ACPT_experiment_5_30_19,3.1.0,59.95457334241837,
,,,C,D,d,v,L,D,d,R,c ,,,,,5,19,119,9,4,0,4,0,,,,,0,35,35,13,,,,,,up,0.9007122235343559,1950.6732731130032,None,001,81,2019_Oct_31_0903,ACPT_experiment_5_30_19,3.1.0,59.95457334241837,
,,,C,D,d,v,L,D,g,L,i,,,,,5,19,119,9,4,0,4,0,,,,,1,0,36,14,,,,,,up,0.4003197972342605,1952.841666857843,None,001,81,2019_Oct_31_0903,ACPT_experiment_5_30_19,3.1.0,59.95457334241837,
,,,C,D,d,v,L,U,d,L,u,,,,,5,19,119,9,4,0,4,0,,,,,1,1,37,20,,,,,,up,0.3836286995210685,1954.526351425593,None,001,81,2019_Oct_31_0903,ACPT_experiment_5_30_19,3.1.0,59.95457334241837,
,,,C,D,d,v,R,U,y,R,u,,,,,5,19,119,9,4,0,4,0,,,,,1,2,38,31,,,,,,down,0.7002880408981582,1956.2112980133534,None,001,81,2019_Oct_31_0903,ACPT_experiment_5_30_19,3.1.0,59.95457334241837,
,,,C,D,d,v,R,G,y,R,y,,,,,5,19,119,9,4,0,4,0,,,,,1,3,39,29,,,,,,down,0.6171821135794744,1958.1959215437091,None,001,81,2019_Oct_31_0903,ACPT_experiment_5_30_19,3.1.0,59.95457334241837,
,,,C,D,d,v,R,D,g,R,i,,,,,5,19,119,9,4,0,4,0,,,,,1,4,40,3,,,,,,up,0.6004982606536942,1960.0974642016663,None,001,81,2019_Oct_31_0903,ACPT_experiment_5_30_19,3.1.0,59.95457334241837,
,,,C,D,d,v,L,G,y,R,y,,,,,5,19,119,9,4,0,4,0,,,,,1,5,41,35,,,,,,down,0.5504137984389672,1961.9823251197522,None,001,81,2019_Oct_31_0903,ACPT_experiment_5_30_19,3.1.0,59.95457334241837,
,,,C,D,d,v,L,U,g,R,u,,,,,5,19,119,9,4,0,4,0,,,,,1,6,42,23,,,,,,up,1.050822525518015,1963.8171097260056,None,001,81,2019_Oct_31_0903,ACPT_experiment_5_30_19,3.1.0,59.95457334241837,
,,,C,D,d,v,L,D,d,L,c ,,,,,5,19,119,9,4,0,4,0,,,,,1,7,43,12,,,,,,down,0.6171549455903005,1966.1522973238898,None,001,81,2019_Oct_31_0903,ACPT_experiment_5_30_19,3.1.0,59.95457334241837,
,,,C,D,d,v,L,U,y,R,u,,,,,5,19,119,9,4,0,4,0,,,,,1,8,44,25,,,,,,down,0.6004979587742127,1968.053791079481,None,001,81,2019_Oct_31_0903,ACPT_experiment_5_30_19,3.1.0,59.95457334241837,
,,,C,D,d,v,L,D,g,R,i,,,,,5,19,119,9,4,0,4,0,,,,,1,9,45,15,,,,,,down,0.5838207469205372,1969.9386266407964,None,001,81,2019_Oct_31_0903,ACPT_experiment_5_30_19,3.1.0,59.95457334241837,
,,,C,D,d,v,R,G,d,R,i,,,,,5,19,119,9,4,0,4,0,,,,,1,10,46,5,,,,,,up,0.7172559500904754,1971.8067822734301,None,001,81,2019_Oct_31_0903,ACPT_experiment_5_30_19,3.1.0,59.95457334241837,
,,,C,D,d,v,L,G,g,L,c ,,,,,5,19,119,9,4,0,4,0,,,,,1,11,47,18,,,,,,up,4.937258884223411,1973.808423822804,None,001,81,2019_Oct_31_0903,ACPT_experiment_5_30_19,3.1.0,59.95457334241837,
,,,C,D,d,v,R,U,g,R,u,,,,,5,19,119,9,4,0,4,0,,,,,1,12,48,11,,,,,,up,0.6839311092626303,1980.0300372140773,None,001,81,2019_Oct_31_0903,ACPT_experiment_5_30_19,3.1.0,59.95457334241837,
,,,C,D,d,v,R,U,d,L,u,,,,,5,19,119,9,4,0,4,0,,,,,1,13,49,8,,,,,,up,0.7672794352984056,1981.9982730224438,None,001,81,2019_Oct_31_0903,ACPT_experiment_5_30_19,3.1.0,59.95457334241837,
,,,C,D,d,v,R,D,y,R,y,,,,,5,19,119,9,4,0,4,0,,,,,1,14,50,27,,,,,,down,0.7339388974069152,1984.0498870415904,None,001,81,2019_Oct_31_0903,ACPT_experiment_5_30_19,3.1.0,59.95457334241837,
,,,C,D,d,v,L,G,d,R,i,,,,,5,19,119,9,4,0,4,0,,,,,1,15,51,17,,,,,,up,0.6838819050317397,1986.0681898039184,None,001,81,2019_Oct_31_0903,ACPT_experiment_5_30_19,3.1.0,59.95457334241837,
,,,C,D,d,v,L,U,d,R,u,,,,,5,19,119,9,4,0,4,0,,,,,1,16,52,21,,,,,,up,0.483728194682044,1988.0364250085404,None,001,81,2019_Oct_31_0903,ACPT_experiment_5_30_19,3.1.0,59.95457334241837,
,,,C,D,d,v,R,U,g,L,u,,,,,5,19,119,9,4,0,4,0,,,,,1,17,53,10,,,,,,up,0.7506082607578719,1989.8045031822694,None,001,81,2019_Oct_31_0903,ACPT_experiment_5_30_19,3.1.0,59.95457334241837,
,,,C,D,d,v,R,G,d,L,i,,,,,5,19,119,9,4,0,4,0,,,,,1,18,54,4,,,,,,up,2.5687558033823734,1991.8394372727635,None,001,81,2019_Oct_31_0903,ACPT_experiment_5_30_19,3.1.0,59.95457334241837,
,,,C,D,d,v,L,U,y,L,u,,,,,5,19,119,9,4,0,4,0,,,,,1,19,55,24,,,,,,down,1.0007975309708854,1995.6925343010662,None,001,81,2019_Oct_31_0903,ACPT_experiment_5_30_19,3.1.0,59.95457334241837,
,,,C,D,d,v,R,G,g,R,c ,,,,,5,19,119,9,4,0,4,0,,,,,1,20,56,7,,,,,,up,0.6505410653044237,1997.9776670196443,None,001,81,2019_Oct_31_0903,ACPT_experiment_5_30_19,3.1.0,59.95457334241837,
,,,C,D,d,v,L,G,g,R,c ,,,,,5,19,119,9,4,0,4,0,,,,,1,21,57,19,,,,,,up,0.5004355931741884,1999.8958621364145,None,001,81,2019_Oct_31_0903,ACPT_experiment_5_30_19,3.1.0,59.95457334241837,
,,,C,D,d,v,L,U,g,L,u,,,,,5,19,119,9,4,0,4,0,,,,,1,22,58,22,,,,,,up,0.4970610289310571,2001.70066326081,None,001,81,2019_Oct_31_0903,ACPT_experiment_5_30_19,3.1.0,59.95457334241837,
,,,C,D,d,v,L,D,y,L,y,,,,,5,19,119,9,4,0,4,0,,,,,1,23,59,32,,,,,,down,0.6171790949156275,2003.4820618922677,None,001,81,2019_Oct_31_0903,ACPT_experiment_5_30_19,3.1.0,59.95457334241837,
,,,C,D,d,v,R,G,g,L,c ,,,,,5,19,119,9,4,0,4,0,,,,,1,24,60,6,,,,,,up,0.600492525176378,2005.3836003240722,None,001,81,2019_Oct_31_0903,ACPT_experiment_5_30_19,3.1.0,59.95457334241837,
,,,C,D,d,v,R,D,g,L,i,,,,,5,19,119,9,4,0,4,0,,,,,1,25,61,2,,,,,,up,0.43368448443652596,2007.2684395077813,None,001,81,2019_Oct_31_0903,ACPT_experiment_5_30_19,3.1.0,59.95457334241837,
,,,C,D,d,v,R,D,d,L,c,,,,,5,19,119,9,4,0,4,0,,,,,1,26,62,0,,,,,,up,0.666926070509362,2008.9867495752696,None,001,81,2019_Oct_31_0903,ACPT_experiment_5_30_19,3.1.0,59.95457334241837,
,,,C,D,d,v,L,G,y,L,y,,,,,5,19,119,9,4,0,4,0,,,,,1,27,63,34,,,,,,down,0.6337180519622052,2010.9547976227332,None,001,81,2019_Oct_31_0903,ACPT_experiment_5_30_19,3.1.0,59.95457334241837,
,,,C,D,d,v,R,D,y,L,y,,,,,5,19,119,9,4,0,4,0,,,,,1,28,64,26,,,,,,down,0.5337553022836801,2012.8729130467837,None,001,81,2019_Oct_31_0903,ACPT_experiment_5_30_19,3.1.0,59.95457334241837,
,,,C,D,d,v,R,U,y,L,u,,,,,5,19,119,9,4,0,4,0,,,,,1,29,65,30,,,,,,down,0.6505410653044237,2014.7077136519656,None,001,81,2019_Oct_31_0903,ACPT_experiment_5_30_19,3.1.0,59.95457334241837,
,,,C,D,d,v,R,U,d,R,u,,,,,5,19,119,9,4,0,4,0,,,,,1,30,66,9,,,,,,down,0.5170983154675923,2016.6258882418188,None,001,81,2019_Oct_31_0903,ACPT_experiment_5_30_19,3.1.0,59.95457334241837,
,,,C,D,d,v,L,G,d,L,i,,,,,5,19,119,9,4,0,4,0,,,,,1,31,67,16,,,,,,up,0.9007158459280618,2018.4273464979196,None,001,81,2019_Oct_31_0903,ACPT_experiment_5_30_19,3.1.0,59.95457334241837,
,,,C,D,d,v,L,D,y,R,y,,,,,5,19,119,9,4,0,4,0,,,,,1,32,68,33,,,,,,down,0.8173023167619249,2020.6124310386222,None,001,81,2019_Oct_31_0903,ACPT_experiment_5_30_19,3.1.0,59.95457334241837,
,,,C,D,d,v,R,D,d,R,c ,,,,,5,19,119,9,4,0,4,0,,,,,1,33,69,1,,,,,,up,0.8840054287575185,2022.7141431039781,None,001,81,2019_Oct_31_0903,ACPT_experiment_5_30_19,3.1.0,59.95457334241837,
,,,C,D,d,v,R,G,y,L,y,,,,,5,19,119,9,4,0,4,0,,,,,1,34,70,28,,,,,,down,0.7839883431297494,2024.8824665139546,None,001,81,2019_Oct_31_0903,ACPT_experiment_5_30_19,3.1.0,59.95457334241837,
,,,C,D,d,v,L,D,d,R,c ,,,,,5,19,119,9,4,0,4,0,,,,,1,35,71,13,,,,,,up,0.9174039249919588,2026.950813288393,None,001,81,2019_Oct_31_0903,ACPT_experiment_5_30_19,3.1.0,59.95457334241837,
,,,C,D,d,v,,,,,,,,,,5,19,119,9,5,0,5,0,0,0,0,0,,,,,,,,,,,,,,001,81,2019_Oct_31_0903,ACPT_experiment_5_30_19,3.1.0,59.95457334241837,
,,,C,D,d,v,L,D,g,R,i,,,,,5,19,119,9,5,0,5,0,,,,,0,0,0,15,,,,,,up,0.5504705493076472,2030.620388538242,None,001,81,2019_Oct_31_0903,ACPT_experiment_5_30_19,3.1.0,59.95457334241837,
,,,C,D,d,v,R,U,y,L,u,,,,,5,19,119,9,5,0,5,0,,,,,0,1,1,30,,,,,,down,0.6004985625040717,2032.4551855210302,None,001,81,2019_Oct_31_0903,ACPT_experiment_5_30_19,3.1.0,59.95457334241837,
,,,C,D,d,v,R,D,d,R,c ,,,,,5,19,119,9,5,0,5,0,,,,,0,2,2,1,,,,,,up,0.8837763121846365,2034.3569926139317,None,001,81,2019_Oct_31_0903,ACPT_experiment_5_30_19,3.1.0,59.95457334241837,
,,,C,D,d,v,L,G,g,L,c ,,,,,5,19,119,9,5,0,5,0,,,,,0,3,3,18,,,,,,up,0.5504412682639668,2036.5251192070282,None,001,81,2019_Oct_31_0903,ACPT_experiment_5_30_19,3.1.0,59.95457334241837,
,,,C,D,d,v,L,D,d,R,c ,,,,,5,19,119,9,5,0,5,0,,,,,0,4,4,13,,,,,,up,0.4170012352260528,2038.3599164916814,None,001,81,2019_Oct_31_0903,ACPT_experiment_5_30_19,3.1.0,59.95457334241837,
,,,C,D,d,v,R,U,g,L,u,,,,,5,19,119,9,5,0,5,0,,,,,0,5,5,10,,,,,,up,0.3836489245732082,2040.0612743470265,None,001,81,2019_Oct_31_0903,ACPT_experiment_5_30_19,3.1.0,59.95457334241837,
,,,C,D,d,v,R,G,g,R,c ,,,,,5,19,119,9,5,0,5,0,,,,,0,6,6,7,,,,,,up,0.48346466533257626,2041.7462130862696,None,001,81,2019_Oct_31_0903,ACPT_experiment_5_30_19,3.1.0,59.95457334241837,
,,,C,D,d,v,L,G,y,R,y,,,,,5,19,119,9,5,0,5,0,,,,,0,7,7,35,,,,,,up,0.26689455565065145,2043.514030447448,None,001,81,2019_Oct_31_0903,ACPT_experiment_5_30_19,3.1.0,59.95457334241837,
,,,C,D,d,v,L,G,y,L,y,,,,,5,19,119,9,5,0,5,0,,,,,0,8,8,34,,,,,,down,0.45037497841985896,2045.0652680392232,None,001,81,2019_Oct_31_0903,ACPT_experiment_5_30_19,3.1.0,59.95457334241837,
,,,C,D,d,v,R,G,d,R,i,,,,,5,19,119,9,5,0,5,0,,,,,0,9,9,5,,,,,,up,0.5838216525153257,2046.7999619044567,None,001,81,2019_Oct_31_0903,ACPT_experiment_5_30_19,3.1.0,59.95457334241837,
,,,C,D,d,v,L,U,g,R,u,,,,,5,19,119,9,5,0,5,0,,,,,0,10,10,23,,,,,,up,0.5670997644338058,2048.684837613997,None,001,81,2019_Oct_31_0903,ACPT_experiment_5_30_19,3.1.0,59.95457334241837,
,,,C,D,d,v,L,D,y,L,y,,,,,5,19,119,9,5,0,5,0,,,,,0,11,11,32,,,,,,down,0.41699851844168734,2050.536300337728,None,001,81,2019_Oct_31_0903,ACPT_experiment_5_30_19,3.1.0,59.95457334241837,
,,,C,D,d,v,L,U,d,R,u,,,,,5,19,119,9,5,0,5,0,,,,,0,12,12,21,,,,,,up,0.5170955986686749,2052.237634345627,None,001,81,2019_Oct_31_0903,ACPT_experiment_5_30_19,3.1.0,59.95457334241837,
,,,C,D,d,v,R,U,d,R,u,,,,,5,19,119,9,5,0,5,0,,,,,0,13,13,9,,,,,,up,0.3336003844597144,2054.039094412932,None,001,81,2019_Oct_31_0903,ACPT_experiment_5_30_19,3.1.0,59.95457334241837,
,,,C,D,d,v,R,D,d,L,c,,,,,5,19,119,9,5,0,5,0,,,,,0,14,14,0,,,,,,up,0.283326048287563,2055.674007855763,None,001,81,2019_Oct_31_0903,ACPT_experiment_5_30_19,3.1.0,59.95457334241837,
,,,C,D,d,v,L,D,g,L,i,,,,,5,19,119,9,5,0,5,0,,,,,0,15,15,14,,,,,,up,0.46706486867333297,2057.2416491684708,None,001,81,2019_Oct_31_0903,ACPT_experiment_5_30_19,3.1.0,59.95457334241837,
,,,C,D,d,v,L,U,y,R,u,,,,,5,19,119,9,5,0,5,0,,,,,0,16,16,25,,,,,,down,0.5337540948239621,2058.99305314901,None,001,81,2019_Oct_31_0903,ACPT_experiment_5_30_19,3.1.0,59.95457334241837,
,,,C,D,d,v,L,U,d,L,u,,,,,5,19,119,9,5,0,5,0,,,,,0,17,17,20,,,,,,up,0.5003948412340833,2060.811167184467,None,001,81,2019_Oct_31_0903,ACPT_experiment_5_30_19,3.1.0,59.95457334241837,
,,,C,D,d,v,R,U,y,R,u,,,,,5,19,119,9,5,0,5,0,,,,,0,18,18,31,,,,,,down,0.5001240670826519,2062.6128841400496,None,001,81,2019_Oct_31_0903,ACPT_experiment_5_30_19,3.1.0,59.95457334241837,
,,,C,D,d,v,L,G,d,R,i,,,,,5,19,119,9,5,0,5,0,,,,,0,19,19,17,,,,,,down,0.48373785441799555,2064.3973397723457,None,001,81,2019_Oct_31_0903,ACPT_experiment_5_30_19,3.1.0,59.95457334241837,
,,,C,D,d,v,R,D,g,R,i,,,,,5,19,119,9,5,0,5,0,,,,,0,20,20,3,,,,,,up,0.9841646934655728,2066.1654420953855,None,001,81,2019_Oct_31_0903,ACPT_experiment_5_30_19,3.1.0,59.95457334241837,
,,,C,D,d,v,L,D,y,R,y,,,,,5,19,119,9,5,0,5,0,,,,,0,21,21,33,,,,,,down,0.6838927722274093,2068.4338909610233,None,001,81,2019_Oct_31_0903,ACPT_experiment_5_30_19,3.1.0,59.95457334241837,
,,,C,D,d,v,L,U,g,L,u,,,,,5,19,119,9,5,0,5,0,,,,,0,22,22,22,,,,,,up,1.1676052698603598,2070.402154541094,None,001,81,2019_Oct_31_0903,ACPT_experiment_5_30_19,3.1.0,59.95457334241837,
,,,C,D,d,v,R,D,y,R,y,,,,,5,19,119,9,5,0,5,0,,,,,0,23,23,27,,,,,,down,0.6004961475846358,2072.8540934892226,None,001,81,2019_Oct_31_0903,ACPT_experiment_5_30_19,3.1.0,59.95457334241837,
,,,C,D,d,v,R,D,g,L,i,,,,,5,19,119,9,5,0,5,0,,,,,0,24,24,2,,,,,,up,0.7839687218074687,2074.7389519923745,None,001,81,2019_Oct_31_0903,ACPT_experiment_5_30_19,3.1.0,59.95457334241837,
,,,C,D,d,v,L,U,y,L,u,,,,,5,19,119,9,5,0,5,0,,,,,0,25,25,24,,,,,,down,0.6504891442746157,2076.80729423881,None,001,81,2019_Oct_31_0903,ACPT_experiment_5_30_19,3.1.0,59.95457334241837,
,,,C,D,d,v,R,G,d,L,i,,,,,5,19,119,9,5,0,5,0,,,,,0,26,26,4,,,,,,up,0.6672215977014275,2078.7421439274767,None,001,81,2019_Oct_31_0903,ACPT_experiment_5_30_19,3.1.0,59.95457334241837,
,,,C,D,d,v,L,G,d,L,i,,,,,5,19,119,9,5,0,5,0,,,,,0,27,27,16,,,,,,up,0.583800823733327,2080.6770201803592,None,001,81,2019_Oct_31_0903,ACPT_experiment_5_30_19,3.1.0,59.95457334241837,
,,,C,D,d,v,R,D,y,L,y,,,,,5,19,119,9,5,0,5,0,,,,,0,28,28,26,,,,,,down,1.0174741391092539,2082.5451788316714,None,001,81,2019_Oct_31_0903,ACPT_experiment_5_30_19,3.1.0,59.95457334241837,
,,,C,D,d,v,R,G,y,L,y,,,,,5,19,119,9,5,0,5,0,,,,,0,29,29,28,,,,,,down,0.6838791882473743,2084.8470183450117,None,001,81,2019_Oct_31_0903,ACPT_experiment_5_30_19,3.1.0,59.95457334241837,
,,,C,D,d,v,R,U,g,R,u,,,,,5,19,119,9,5,0,5,0,,,,,0,30,30,11,,,,,,up,0.7339331619441509,2086.8152538515133,None,001,81,2019_Oct_31_0903,ACPT_experiment_5_30_19,3.1.0,59.95457334241837,
,,,C,D,d,v,R,G,g,L,c ,,,,,5,19,119,9,5,0,5,0,,,,,0,31,31,6,,,,,,down,0.600477129992214,2088.833529445852,None,001,81,2019_Oct_31_0903,ACPT_experiment_5_30_19,3.1.0,59.95457334241837,
,,,C,D,d,v,R,G,y,R,y,,,,,5,19,119,9,5,0,5,0,,,,,0,32,32,29,,,,,,down,0.9507592543232022,2090.7183704407507,None,001,81,2019_Oct_31_0903,ACPT_experiment_5_30_19,3.1.0,59.95457334241837,
,,,C,D,d,v,R,U,d,L,u,,,,,5,19,119,9,5,0,5,0,,,,,0,33,33,8,,,,,,up,0.9841169985738816,2092.953487220788,None,001,81,2019_Oct_31_0903,ACPT_experiment_5_30_19,3.1.0,59.95457334241837,
,,,C,D,d,v,L,G,g,R,c ,,,,,5,19,119,9,5,0,5,0,,,,,0,34,34,19,,,,,,up,0.5337637545308098,2095.2219584245468,None,001,81,2019_Oct_31_0903,ACPT_experiment_5_30_19,3.1.0,59.95457334241837,
,,,C,D,d,v,L,D,d,L,c ,,,,,5,19,119,9,5,0,5,0,,,,,0,35,35,12,,,,,,up,10.675186945853056,2097.040078195467,None,001,81,2019_Oct_31_0903,ACPT_experiment_5_30_19,3.1.0,59.95457334241837,
,,,C,D,d,v,L,G,d,R,i,,,,,5,19,119,9,5,0,5,0,,,,,1,0,36,17,,,,,,up,0.55044760745659,2108.9996244782233,None,001,81,2019_Oct_31_0903,ACPT_experiment_5_30_19,3.1.0,59.95457334241837,
,,,C,D,d,v,L,G,g,R,c ,,,,,5,19,119,9,5,0,5,0,,,,,1,1,37,19,,,,,,up,0.5004217073437758,2110.817722212887,None,001,81,2019_Oct_31_0903,ACPT_experiment_5_30_19,3.1.0,59.95457334241837,
,,,C,D,d,v,R,D,d,R,c ,,,,,5,19,119,9,5,0,5,0,,,,,1,2,38,1,,,,,,up,0.500364352716133,2112.6025183504535,None,001,81,2019_Oct_31_0903,ACPT_experiment_5_30_19,3.1.0,59.95457334241837,
,,,C,D,d,v,L,U,g,L,u,,,,,5,19,119,9,5,0,5,0,,,,,1,3,39,22,,,,,,up,0.5337679806834785,2114.403950344189,None,001,81,2019_Oct_31_0903,ACPT_experiment_5_30_19,3.1.0,59.95457334241837,
,,,C,D,d,v,R,G,d,L,i,,,,,5,19,119,9,5,0,5,0,,,,,1,4,40,4,,,,,,up,4.4535545369872125,2116.2220583423186,None,001,81,2019_Oct_31_0903,ACPT_experiment_5_30_19,3.1.0,59.95457334241837,
,,,C,D,d,v,L,U,d,R,u,,,,,5,19,119,9,5,0,5,0,,,,,1,5,41,21,,,,,,up,0.7005805494118249,2121.943265421447,None,001,81,2019_Oct_31_0903,ACPT_experiment_5_30_19,3.1.0,59.95457334241837,
,,,C,D,d,v,L,G,g,L,c ,,,,,5,19,119,9,5,0,5,0,,,,,1,6,42,18,,,,,,up,0.617154039995512,2123.928205005912,None,001,81,2019_Oct_31_0903,ACPT_experiment_5_30_19,3.1.0,59.95457334241837,
,,,C,D,d,v,R,U,d,L,u,,,,,5,19,119,9,5,0,5,0,,,,,1,7,43,8,,,,,,up,1.7514226962521207,2125.8297214014747,None,001,81,2019_Oct_31_0903,ACPT_experiment_5_30_19,3.1.0,59.95457334241837,
,,,C,D,d,v,L,U,y,R,u,,,,,5,19,119,9,5,0,5,0,,,,,1,8,44,25,,,,,,down,0.3669566193857463,2128.8654765685205,None,001,81,2019_Oct_31_0903,ACPT_experiment_5_30_19,3.1.0,59.95457334241837,
,,,C,D,d,v,R,U,g,L,u,,,,,5,19,119,9,5,0,5,0,,,,,1,9,45,10,,,,,,up,0.6838800938421628,2130.516794637879,None,001,81,2019_Oct_31_0903,ACPT_experiment_5_30_19,3.1.0,59.95457334241837,
,,,C,D,d,v,R,D,y,L,y,,,,,5,19,119,9,5,0,5,0,,,,,1,10,46,26,,,,,,down,0.6838737546495395,2132.4850355779636,None,001,81,2019_Oct_31_0903,ACPT_experiment_5_30_19,3.1.0,59.95457334241837,
,,,C,D,d,v,L,D,g,R,i,,,,,5,19,119,9,5,0,5,0,,,,,1,11,47,15,,,,,,up,0.6004831673344597,2134.453268669531,None,001,81,2019_Oct_31_0903,ACPT_experiment_5_30_19,3.1.0,59.95457334241837,
,,,C,D,d,v,L,D,y,R,y,,,,,5,19,119,9,5,0,5,0,,,,,1,12,48,33,,,,,,up,0.4503834306669887,2136.321404680857,None,001,81,2019_Oct_31_0903,ACPT_experiment_5_30_19,3.1.0,59.95457334241837,
,,,C,D,d,v,R,D,g,L,i,,,,,5,19,119,9,5,0,5,0,,,,,1,13,49,2,,,,,,up,0.5170777885505231,2138.056144429778,None,001,81,2019_Oct_31_0903,ACPT_experiment_5_30_19,3.1.0,59.95457334241837,
,,,C,D,d,v,R,U,y,R,u,,,,,5,19,119,9,5,0,5,0,,,,,1,14,50,31,,,,,,down,0.5168266357213724,2139.8745135423233,None,001,81,2019_Oct_31_0903,ACPT_experiment_5_30_19,3.1.0,59.95457334241837,
,,,C,D,d,v,L,U,g,R,u,,,,,5,19,119,9,5,0,5,0,,,,,1,15,51,23,,,,,,up,0.5838153133227024,2141.675701628017,None,001,81,2019_Oct_31_0903,ACPT_experiment_5_30_19,3.1.0,59.95457334241837,
,,,C,D,d,v,L,U,d,L,u,,,,,5,19,119,9,5,0,5,0,,,,,1,16,52,20,,,,,,up,0.5337779422698077,2143.5438623923983,None,001,81,2019_Oct_31_0903,ACPT_experiment_5_30_19,3.1.0,59.95457334241837,
,,,C,D,d,v,L,U,y,L,u,,,,,5,19,119,9,5,0,5,0,,,,,1,17,53,24,,,,,,down,0.767296943537076,2145.3619534860045,None,001,81,2019_Oct_31_0903,ACPT_experiment_5_30_19,3.1.0,59.95457334241837,
,,,C,D,d,v,R,G,d,R,i,,,,,5,19,119,9,5,0,5,0,,,,,1,18,54,5,,,,,,up,1.0174508953932673,2147.4136278784426,None,001,81,2019_Oct_31_0903,ACPT_experiment_5_30_19,3.1.0,59.95457334241837,
,,,C,D,d,v,R,D,y,R,y,,,,,5,19,119,9,5,0,5,0,,,,,1,19,55,27,,,,,,down,0.7003662242932478,2149.732299762967,None,001,81,2019_Oct_31_0903,ACPT_experiment_5_30_19,3.1.0,59.95457334241837,
,,,C,D,d,v,R,D,g,R,i,,,,,5,19,119,9,5,0,5,0,,,,,1,20,56,3,,,,,,up,0.5337580190680455,2151.733725779748,None,001,81,2019_Oct_31_0903,ACPT_experiment_5_30_19,3.1.0,59.95457334241837,
,,,C,D,d,v,R,G,y,R,y,,,,,5,19,119,9,5,0,5,0,,,,,1,21,57,29,,,,,,down,0.6505277831747662,2153.5518334760127,None,001,81,2019_Oct_31_0903,ACPT_experiment_5_30_19,3.1.0,59.95457334241837,
,,,C,D,d,v,R,G,y,L,y,,,,,5,19,119,9,5,0,5,0,,,,,1,22,58,28,,,,,,down,0.5838041442621034,2155.4867239166197,None,001,81,2019_Oct_31_0903,ACPT_experiment_5_30_19,3.1.0,59.95457334241837,
,,,C,D,d,v,L,D,d,R,c ,,,,,5,19,119,9,5,0,5,0,,,,,1,23,59,13,,,,,,up,0.9841188097780105,2157.354882266067,None,001,81,2019_Oct_31_0903,ACPT_experiment_5_30_19,3.1.0,59.95457334241837,
,,,C,D,d,v,L,G,y,L,y,,,,,5,19,119,9,5,0,5,0,,,,,1,24,60,34,,,,,,down,0.7505913562345086,2159.6233616202226,None,001,81,2019_Oct_31_0903,ACPT_experiment_5_30_19,3.1.0,59.95457334241837,
,,,C,D,d,v,R,G,g,R,c ,,,,,5,19,119,9,5,0,5,0,,,,,1,25,61,7,,,,,,up,0.583827991707949,2161.65828756032,None,001,81,2019_Oct_31_0903,ACPT_experiment_5_30_19,3.1.0,59.95457334241837,
,,,C,D,d,v,L,G,d,L,i,,,,,5,19,119,9,5,0,5,0,,,,,1,26,62,16,,,,,,up,0.7672809446230531,2163.5264733796066,None,001,81,2019_Oct_31_0903,ACPT_experiment_5_30_19,3.1.0,59.95457334241837,
,,,C,D,d,v,R,U,g,R,u,,,,,5,19,119,9,5,0,5,0,,,,,1,27,63,11,,,,,,up,0.6003666469041491,2165.5781067182106,None,001,81,2019_Oct_31_0903,ACPT_experiment_5_30_19,3.1.0,59.95457334241837,
,,,C,D,d,v,R,G,g,L,c ,,,,,5,19,119,9,5,0,5,0,,,,,1,28,64,6,,,,,,up,0.6672412190091563,2167.462944996325,None,001,81,2019_Oct_31_0903,ACPT_experiment_5_30_19,3.1.0,59.95457334241837,
,,,C,D,d,v,L,D,d,L,c ,,,,,5,19,119,9,5,0,5,0,,,,,1,29,65,12,,,,,,up,0.45037950640835334,2169.4144806509576,None,001,81,2019_Oct_31_0903,ACPT_experiment_5_30_19,3.1.0,59.95457334241837,
