facing_vig,person_vig,text_vig,facing_train,person_train,food_train,correct_key_train,facing_exp,person_exp,food_exp,showL_R,consistent,vig_random.thisRepN,vig_random.thisTrialN,vig_random.thisN,vig_random.thisIndex,trainTrials.thisRepN,trainTrials.thisTrialN,trainTrials.thisN,trainTrials.thisIndex,expBlock.thisRepN,expBlock.thisTrialN,expBlock.thisN,expBlock.thisIndex,breakLoop.thisRepN,breakLoop.thisTrialN,breakLoop.thisN,breakLoop.thisIndex,expTrials.thisRepN,expTrials.thisTrialN,expTrials.thisN,expTrials.thisIndex,train_resp.keys,train_resp.corr,train_resp.rt,train_resp.started,train_resp.stopped,exp_resp.keys,exp_resp.rt,exp_resp.started,exp_resp.stopped,session,participant,date,expName,psychopyVersion,frameRate,
C,U,"did not report her food preferences, so her food preferences are unknown.",,,,,,,,,,0,0,0,2,,,,,,,,,,,,,,,,,,,,,,,,,,001,82,2019_Oct_31_1024,ACPT_experiment_5_30_19,3.1.0,59.952945778106674,
C,G,"cannot eat dairy products because she is lactose intolerant. She enjoys eating wheat products. She thinks eating insects, like crickets, is disgusting.",,,,,,,,,,0,1,1,0,,,,,,,,,,,,,,,,,,,,,,,,,,001,82,2019_Oct_31_1024,ACPT_experiment_5_30_19,3.1.0,59.952945778106674,
C,D,"is allergic to gluten, meaning she can’t eat wheat products. She enjoys eating dairy products. She thinks eating insects, like crickets, is disgusting.",,,,,,,,,,0,2,2,1,,,,,,,,,,,,,,,,,,,,,,,,,,001,82,2019_Oct_31_1024,ACPT_experiment_5_30_19,3.1.0,59.952945778106674,
,,,C,G,y,b,,,,,,,,,,0,0,0,14,,,,,,,,,,,,,b,1,2.00161679633311,65.22756981867133,None,,,,,001,82,2019_Oct_31_1024,ACPT_experiment_5_30_19,3.1.0,59.952945778106674,
,,,C,D,g,b,,,,,,,,,,0,1,1,1,,,,,,,,,,,,,b,1,2.0016512090951437,70.51510629922268,None,,,,,001,82,2019_Oct_31_1024,ACPT_experiment_5_30_19,3.1.0,59.952945778106674,
,,,C,U,y,n,,,,,,,,,,0,2,2,8,,,,,,,,,,,,,b,0,1.2009772018354852,75.80267870187527,None,,,,,001,82,2019_Oct_31_1024,ACPT_experiment_5_30_19,3.1.0,59.952945778106674,
,,,C,D,d,v,,,,,,,,,,0,3,3,9,,,,,,,,,,,,,v,1,1.5510042490786873,80.30651632916124,None,,,,,001,82,2019_Oct_31_1024,ACPT_experiment_5_30_19,3.1.0,59.952945778106674,
,,,C,G,d,b,,,,,,,,,,0,4,4,12,,,,,,,,,,,,,b,1,1.3010646223410731,85.14346743043279,None,,,,,001,82,2019_Oct_31_1024,ACPT_experiment_5_30_19,3.1.0,59.952945778106674,
,,,C,U,d,n,,,,,,,,,,0,5,5,15,,,,,,,,,,,,,n,1,1.0506085022352636,89.74738523342239,None,,,,,001,82,2019_Oct_31_1024,ACPT_experiment_5_30_19,3.1.0,59.952945778106674,
,,,C,U,y,n,,,,,,,,,,0,6,6,17,,,,,,,,,,,,,n,1,1.217645961442031,94.08394270093413,None,,,,,001,82,2019_Oct_31_1024,ACPT_experiment_5_30_19,3.1.0,59.952945778106674,
,,,C,G,g,v,,,,,,,,,,0,7,7,4,,,,,,,,,,,,,v,1,1.6513114283006871,98.60423144216475,None,,,,,001,82,2019_Oct_31_1024,ACPT_experiment_5_30_19,3.1.0,59.952945778106674,
,,,C,U,g,n,,,,,,,,,,0,8,8,16,,,,,,,,,,,,,n,1,1.5512469496316044,103.54148791145417,None,,,,,001,82,2019_Oct_31_1024,ACPT_experiment_5_30_19,3.1.0,59.952945778106674,
,,,C,G,g,v,,,,,,,,,,0,9,9,19,,,,,,,,,,,,,v,1,1.034187574929092,108.36198065397912,None,,,,,001,82,2019_Oct_31_1024,ACPT_experiment_5_30_19,3.1.0,59.952945778106674,
,,,C,D,d,v,,,,,,,,,,0,10,10,18,,,,,,,,,,,,,b,0,1.000822585891001,112.68210149713559,None,,,,,001,82,2019_Oct_31_1024,ACPT_experiment_5_30_19,3.1.0,59.952945778106674,
,,,C,U,d,n,,,,,,,,,,0,11,11,6,,,,,,,,,,,,,n,1,1.5846040901815286,116.96887516134302,None,,,,,001,82,2019_Oct_31_1024,ACPT_experiment_5_30_19,3.1.0,59.952945778106674,
,,,C,D,y,b,,,,,,,,,,0,12,12,2,,,,,,,,,,,,,b,1,1.3344395729945973,121.8394010487973,None,,,,,001,82,2019_Oct_31_1024,ACPT_experiment_5_30_19,3.1.0,59.952945778106674,
,,,C,G,d,b,,,,,,,,,,0,13,13,3,,,,,,,,,,,,,b,1,1.5343300558743067,126.47670014163305,None,,,,,001,82,2019_Oct_31_1024,ACPT_experiment_5_30_19,3.1.0,59.952945778106674,
,,,C,D,y,b,,,,,,,,,,0,14,14,11,,,,,,,,,,,,,b,1,1.1175642764137592,131.29697886090435,None,,,,,001,82,2019_Oct_31_1024,ACPT_experiment_5_30_19,3.1.0,59.952945778106674,
,,,C,D,g,b,,,,,,,,,,0,15,15,10,,,,,,,,,,,,,b,1,3.4525251726445276,135.71741171313624,None,,,,,001,82,2019_Oct_31_1024,ACPT_experiment_5_30_19,3.1.0,59.952945778106674,
,,,C,G,y,b,,,,,,,,,,0,16,16,5,,,,,,,,,,,,,b,1,1.6346610825421521,142.4558843417035,None,,,,,001,82,2019_Oct_31_1024,ACPT_experiment_5_30_19,3.1.0,59.952945778106674,
,,,C,G,g,v,,,,,,,,,,0,17,17,13,,,,,,,,,,,,,v,1,1.4011245730216615,147.3764789943234,None,,,,,001,82,2019_Oct_31_1024,ACPT_experiment_5_30_19,3.1.0,59.952945778106674,
,,,C,D,d,v,,,,,,,,,,0,18,18,0,,,,,,,,,,,,,v,1,1.2839409501029877,152.08063273607695,None,,,,,001,82,2019_Oct_31_1024,ACPT_experiment_5_30_19,3.1.0,59.952945778106674,
,,,C,U,g,n,,,,,,,,,,0,19,19,7,,,,,,,,,,,,,n,1,0.8340024704812095,156.66723065367842,None,,,,,001,82,2019_Oct_31_1024,ACPT_experiment_5_30_19,3.1.0,59.952945778106674,
,,,C,D,g,b,,,,,,,,,,1,0,20,10,,,,,,,,,,,,,b,1,1.6676414938265225,160.80419829723542,None,,,,,001,82,2019_Oct_31_1024,ACPT_experiment_5_30_19,3.1.0,59.952945778106674,
,,,C,G,g,v,,,,,,,,,,1,1,21,19,,,,,,,,,,,,,v,1,1.5846185797563521,165.75781652802834,None,,,,,001,82,2019_Oct_31_1024,ACPT_experiment_5_30_19,3.1.0,59.952945778106674,
,,,C,U,g,n,,,,,,,,,,1,2,22,16,,,,,,,,,,,,,n,1,0.7839820039371261,170.62836897972738,None,,,,,001,82,2019_Oct_31_1024,ACPT_experiment_5_30_19,3.1.0,59.952945778106674,
,,,C,U,y,n,,,,,,,,,,1,3,23,17,,,,,,,,,,,,,n,1,0.7639637349784607,174.7182822957693,None,,,,,001,82,2019_Oct_31_1024,ACPT_experiment_5_30_19,3.1.0,59.952945778106674,
,,,C,G,g,v,,,,,,,,,,1,4,24,13,,,,,,,,,,,,,v,1,0.8340088096738327,178.76820103335194,None,,,,,001,82,2019_Oct_31_1024,ACPT_experiment_5_30_19,3.1.0,59.952945778106674,
,,,C,D,d,v,,,,,,,,,,1,5,25,0,,,,,,,,,,,,,v,1,0.6171501157223247,182.90484658547211,None,,,,,001,82,2019_Oct_31_1024,ACPT_experiment_5_30_19,3.1.0,59.952945778106674,
,,,C,U,d,n,,,,,,,,,,1,6,26,15,,,,,,,,,,,,,n,1,0.6338487601024099,186.8079474776605,None,,,,,001,82,2019_Oct_31_1024,ACPT_experiment_5_30_19,3.1.0,59.952945778106674,
,,,C,G,g,v,,,,,,,,,,1,7,27,4,,,,,,,,,,,,,v,1,0.8837790289835539,190.7446974151826,None,,,,,001,82,2019_Oct_31_1024,ACPT_experiment_5_30_19,3.1.0,59.952945778106674,
,,,C,G,d,b,,,,,,,,,,1,8,28,3,,,,,,,,,,,,,b,1,0.7506139962206362,194.89774276396201,None,,,,,001,82,2019_Oct_31_1024,ACPT_experiment_5_30_19,3.1.0,59.952945778106674,
,,,C,D,d,v,,,,,,,,,,1,9,29,9,,,,,,,,,,,,,v,1,0.9338508128130343,198.95122714720492,None,,,,,001,82,2019_Oct_31_1024,ACPT_experiment_5_30_19,3.1.0,59.952945778106674,
,,,C,G,y,b,,,,,,,,,,1,10,30,5,,,,,,,,,,,,,b,1,1.3344133106147638,203.17100881328224,None,,,,,001,82,2019_Oct_31_1024,ACPT_experiment_5_30_19,3.1.0,59.952945778106674,
,,,C,U,y,n,,,,,,,,,,1,11,31,8,,,,,,,,,,,,,n,1,0.6305378896649927,207.81136007708847,None,,,,,001,82,2019_Oct_31_1024,ACPT_experiment_5_30_19,3.1.0,59.952945778106674,
,,,C,D,y,b,,,,,,,,,,1,12,32,11,,,,,,,,,,,,,b,1,1.2176625641004648,211.7278236882994,None,,,,,001,82,2019_Oct_31_1024,ACPT_experiment_5_30_19,3.1.0,59.952945778106674,
,,,C,G,y,b,,,,,,,,,,1,13,33,14,,,,,,,,,,,,,b,1,0.9505512683681445,216.26506071740005,None,,,,,001,82,2019_Oct_31_1024,ACPT_experiment_5_30_19,3.1.0,59.952945778106674,
,,,C,D,y,b,,,,,,,,,,1,14,34,2,,,,,,,,,,,,,b,1,0.8340100171335507,220.50151023748913,None,,,,,001,82,2019_Oct_31_1024,ACPT_experiment_5_30_19,3.1.0,59.952945778106674,
,,,C,U,d,n,,,,,,,,,,1,15,35,6,,,,,,,,,,,,,n,1,0.5671290454629343,224.62146891801967,None,,,,,001,82,2019_Oct_31_1024,ACPT_experiment_5_30_19,3.1.0,59.952945778106674,
,,,C,G,d,b,,,,,,,,,,1,16,36,12,,,,,,,,,,,,,b,1,0.8840422564680921,228.4745475324744,None,,,,,001,82,2019_Oct_31_1024,ACPT_experiment_5_30_19,3.1.0,59.952945778106674,
,,,C,D,d,v,,,,,,,,,,1,17,37,18,,,,,,,,,,,,,v,1,2.1848167852149345,232.6614915700775,None,,,,,001,82,2019_Oct_31_1024,ACPT_experiment_5_30_19,3.1.0,59.952945778106674,
,,,C,U,g,n,,,,,,,,,,1,18,38,7,,,,,,,,,,,,,n,1,0.6171745669125812,238.13224886830722,None,,,,,001,82,2019_Oct_31_1024,ACPT_experiment_5_30_19,3.1.0,59.952945778106674,
,,,C,D,g,b,,,,,,,,,,1,19,39,1,,,,,,,,,,,,,b,1,0.9171391881682212,242.0523176696879,None,,,,,001,82,2019_Oct_31_1024,ACPT_experiment_5_30_19,3.1.0,59.952945778106674,
,,,C,G,g,v,,,,,,,,,,2,0,40,19,,,,,,,,,,,,,v,1,1.6846872845489997,246.25540129512956,None,,,,,001,82,2019_Oct_31_1024,ACPT_experiment_5_30_19,3.1.0,59.952945778106674,
,,,C,G,d,b,,,,,,,,,,2,1,41,12,,,,,,,,,,,,,b,1,1.0675220754928887,251.20935731439386,None,,,,,001,82,2019_Oct_31_1024,ACPT_experiment_5_30_19,3.1.0,59.952945778106674,
,,,C,G,g,v,,,,,,,,,,2,2,42,4,,,,,,,,,,,,,v,1,0.650263951960369,255.56309701623104,None,,,,,001,82,2019_Oct_31_1024,ACPT_experiment_5_30_19,3.1.0,59.952945778106674,
,,,C,D,d,v,,,,,,,,,,2,3,43,0,,,,,,,,,,,,,v,1,1.0341670480120229,259.4993069147895,None,,,,,001,82,2019_Oct_31_1024,ACPT_experiment_5_30_19,3.1.0,59.952945778106674,
,,,C,U,d,n,,,,,,,,,,2,4,44,15,,,,,,,,,,,,,n,1,0.700601680073305,263.81943138033967,None,,,,,001,82,2019_Oct_31_1024,ACPT_experiment_5_30_19,3.1.0,59.952945778106674,
,,,C,U,g,n,,,,,,,,,,2,5,45,16,,,,,,,,,,,,,n,1,0.9507674047199544,267.789257118915,None,,,,,001,82,2019_Oct_31_1024,ACPT_experiment_5_30_19,3.1.0,59.952945778106674,
,,,C,G,y,b,,,,,,,,,,2,6,46,14,,,,,,,,,,,,,b,1,1.5508321852248628,272.0430425233062,None,,,,,001,82,2019_Oct_31_1024,ACPT_experiment_5_30_19,3.1.0,59.952945778106674,
,,,C,G,d,b,,,,,,,,,,2,7,47,3,,,,,,,,,,,,,b,1,1.15094949050399,276.8798206551437,None,,,,,001,82,2019_Oct_31_1024,ACPT_experiment_5_30_19,3.1.0,59.952945778106674,
,,,C,D,g,b,,,,,,,,,,2,8,48,10,,,,,,,,,,,,,b,1,0.8335877060744679,281.333786032279,None,,,,,001,82,2019_Oct_31_1024,ACPT_experiment_5_30_19,3.1.0,59.952945778106674,
,,,C,D,d,v,,,,,,,,,,2,9,49,18,,,,,,,,,,,,,v,1,0.8506884364614962,285.43667748957523,None,,,,,001,82,2019_Oct_31_1024,ACPT_experiment_5_30_19,3.1.0,59.952945778106674,
,,,C,D,y,b,,,,,,,,,,2,10,50,2,,,,,,,,,,,,,b,1,1.1008638208295451,289.5733227398305,None,,,,,001,82,2019_Oct_31_1024,ACPT_experiment_5_30_19,3.1.0,59.952945778106674,
,,,C,G,y,b,,,,,,,,,,2,11,51,5,,,,,,,,,,,,,b,1,0.7005663617019309,293.96014699684747,None,,,,,001,82,2019_Oct_31_1024,ACPT_experiment_5_30_19,3.1.0,59.952945778106674,
,,,C,G,g,v,,,,,,,,,,2,12,52,13,,,,,,,,,,,,,v,1,0.8169192483328516,297.96372320785304,None,,,,,001,82,2019_Oct_31_1024,ACPT_experiment_5_30_19,3.1.0,59.952945778106674,
,,,C,U,d,n,,,,,,,,,,2,13,53,6,,,,,,,,,,,,,n,1,0.6171697370591573,302.06661708008323,None,,,,,001,82,2019_Oct_31_1024,ACPT_experiment_5_30_19,3.1.0,59.952945778106674,
,,,C,U,y,n,,,,,,,,,,2,14,54,8,,,,,,,,,,,,,n,1,0.8337766744225519,305.98664482764434,None,,,,,001,82,2019_Oct_31_1024,ACPT_experiment_5_30_19,3.1.0,59.952945778106674,
,,,C,U,g,n,,,,,,,,,,2,15,55,7,,,,,,,,,,,,,n,1,0.600474715072778,310.10637680652144,None,,,,,001,82,2019_Oct_31_1024,ACPT_experiment_5_30_19,3.1.0,59.952945778106674,
,,,C,D,y,b,,,,,,,,,,2,16,56,11,,,,,,,,,,,,,b,1,1.3174568723479751,314.0097499821859,None,,,,,001,82,2019_Oct_31_1024,ACPT_experiment_5_30_19,3.1.0,59.952945778106674,
,,,C,D,d,v,,,,,,,,,,2,17,57,9,,,,,,,,,,,,,v,1,1.0507226077315863,318.59647830606264,None,,,,,001,82,2019_Oct_31_1024,ACPT_experiment_5_30_19,3.1.0,59.952945778106674,
,,,C,U,y,n,,,,,,,,,,2,18,58,17,,,,,,,,,,,,,b,0,0.6169783537625335,322.95011205280025,None,,,,,001,82,2019_Oct_31_1024,ACPT_experiment_5_30_19,3.1.0,59.952945778106674,
,,,C,D,g,b,,,,,,,,,,2,19,59,1,,,,,,,,,,,,,b,1,2.035002010423341,326.8530384662299,None,,,,,001,82,2019_Oct_31_1024,ACPT_experiment_5_30_19,3.1.0,59.952945778106674,
,,,C,G,y,b,,,,,,,,,,3,0,60,14,,,,,,,,,,,,,b,1,0.8340082059294218,332.17397676352994,None,,,,,001,82,2019_Oct_31_1024,ACPT_experiment_5_30_19,3.1.0,59.952945778106674,
,,,C,U,g,n,,,,,,,,,,3,1,61,16,,,,,,,,,,,,,n,1,0.7337885679589817,336.3274284244544,None,,,,,001,82,2019_Oct_31_1024,ACPT_experiment_5_30_19,3.1.0,59.952945778106674,
,,,C,D,d,v,,,,,,,,,,3,2,62,0,,,,,,,,,,,,,v,1,0.8507029260508716,340.3471707875433,None,,,,,001,82,2019_Oct_31_1024,ACPT_experiment_5_30_19,3.1.0,59.952945778106674,
,,,C,G,g,v,,,,,,,,,,3,3,63,4,,,,,,,,,,,,,v,1,2.3015953034337144,344.50073474275996,None,,,,,001,82,2019_Oct_31_1024,ACPT_experiment_5_30_19,3.1.0,59.952945778106674,
,,,C,G,y,b,,,,,,,,,,3,4,64,5,,,,,,,,,,,,,b,1,1.100907591462601,350.07159757347836,None,,,,,001,82,2019_Oct_31_1024,ACPT_experiment_5_30_19,3.1.0,59.952945778106674,
,,,C,U,d,n,,,,,,,,,,3,5,65,6,,,,,,,,,,,,,n,1,0.650520840252284,354.4584357163403,None,,,,,001,82,2019_Oct_31_1024,ACPT_experiment_5_30_19,3.1.0,59.952945778106674,
,,,C,D,y,b,,,,,,,,,,3,6,66,11,,,,,,,,,,,,,b,1,1.050866296121967,358.39488408934267,None,,,,,001,82,2019_Oct_31_1024,ACPT_experiment_5_30_19,3.1.0,59.952945778106674,
,,,C,U,y,n,,,,,,,,,,3,7,67,17,,,,,,,,,,,,,n,1,0.6004819598601898,362.73170146381017,None,,,,,001,82,2019_Oct_31_1024,ACPT_experiment_5_30_19,3.1.0,59.952945778106674,
,,,C,G,d,b,,,,,,,,,,3,8,68,3,,,,,,,,,,,,,b,1,3.5528631422348553,366.61813299266214,None,,,,,001,82,2019_Oct_31_1024,ACPT_experiment_5_30_19,3.1.0,59.952945778106674,
,,,C,D,d,v,,,,,,,,,,3,9,69,9,,,,,,,,,,,,,v,1,0.7672948304680176,373.4569212527131,None,,,,,001,82,2019_Oct_31_1024,ACPT_experiment_5_30_19,3.1.0,59.952945778106674,
,,,C,U,y,n,,,,,,,,,,3,10,70,8,,,,,,,,,,,,,n,1,1.9682626744615845,377.5101641428628,None,,,,,001,82,2019_Oct_31_1024,ACPT_experiment_5_30_19,3.1.0,59.952945778106674,
,,,C,U,d,n,,,,,,,,,,3,11,71,15,,,,,,,,,,,,,n,1,2.0182840466004563,382.747678043801,None,,,,,001,82,2019_Oct_31_1024,ACPT_experiment_5_30_19,3.1.0,59.952945778106674,
,,,C,D,g,b,,,,,,,,,,3,12,72,10,,,,,,,,,,,,,b,1,3.7029882356582675,388.0518887175567,None,,,,,001,82,2019_Oct_31_1024,ACPT_experiment_5_30_19,3.1.0,59.952945778106674,
,,,C,D,d,v,,,,,,,,,,3,13,73,18,,,,,,,,,,,,,v,1,0.91740090631356,395.02414387675526,None,,,,,001,82,2019_Oct_31_1024,ACPT_experiment_5_30_19,3.1.0,59.952945778106674,
,,,C,G,g,v,,,,,,,,,,3,14,74,19,,,,,,,,,,,,,v,1,1.4008688921894645,399.24445079034194,None,,,,,001,82,2019_Oct_31_1024,ACPT_experiment_5_30_19,3.1.0,59.952945778106674,
,,,C,D,y,b,,,,,,,,,,3,15,75,2,,,,,,,,,,,,,b,1,0.7172408567712409,403.9312511395401,None,,,,,001,82,2019_Oct_31_1024,ACPT_experiment_5_30_19,3.1.0,59.952945778106674,
,,,C,U,g,n,,,,,,,,,,3,16,76,7,,,,,,,,,,,,,n,1,1.047537011836539,407.9711204434716,None,,,,,001,82,2019_Oct_31_1024,ACPT_experiment_5_30_19,3.1.0,59.952945778106674,
,,,C,G,g,v,,,,,,,,,,3,17,77,13,,,,,,,,,,,,,v,1,1.117570917471312,412.3045997795125,None,,,,,001,82,2019_Oct_31_1024,ACPT_experiment_5_30_19,3.1.0,59.952945778106674,
,,,C,G,d,b,,,,,,,,,,3,18,78,12,,,,,,,,,,,,,b,1,0.8337549400312128,416.72506040346343,None,,,,,001,82,2019_Oct_31_1024,ACPT_experiment_5_30_19,3.1.0,59.952945778106674,
,,,C,D,g,b,,,,,,,,,,3,19,79,1,,,,,,,,,,,,,b,1,1.3344121031550458,420.84475072477653,None,,,,,001,82,2019_Oct_31_1024,ACPT_experiment_5_30_19,3.1.0,59.952945778106674,
,,,C,G,g,v,,,,,,,,,,4,0,80,19,,,,,,,,,,,,,v,1,1.1506539633264765,425.48205766612955,None,,,,,001,82,2019_Oct_31_1024,ACPT_experiment_5_30_19,3.1.0,59.952945778106674,
,,,C,U,g,n,,,,,,,,,,4,1,81,16,,,,,,,,,,,,,n,1,0.7672700774419354,429.91865968912316,None,,,,,001,82,2019_Oct_31_1024,ACPT_experiment_5_30_19,3.1.0,59.952945778106674,
,,,C,G,y,b,,,,,,,,,,4,2,82,5,,,,,,,,,,,,,b,1,1.0339240455796244,433.98881917116523,None,,,,,001,82,2019_Oct_31_1024,ACPT_experiment_5_30_19,3.1.0,59.952945778106674,
,,,C,D,d,v,,,,,,,,,,4,3,83,18,,,,,,,,,,,,,v,1,1.0842062302690465,438.30868976708734,None,,,,,001,82,2019_Oct_31_1024,ACPT_experiment_5_30_19,3.1.0,59.952945778106674,
,,,C,D,g,b,,,,,,,,,,4,4,84,10,,,,,,,,,,,,,b,1,0.9007122235343559,442.6788576410181,None,,,,,001,82,2019_Oct_31_1024,ACPT_experiment_5_30_19,3.1.0,59.952945778106674,
,,,C,G,d,b,,,,,,,,,,4,5,85,12,,,,,,,,,,,,,b,1,1.200969655183144,446.8655130943516,None,,,,,001,82,2019_Oct_31_1024,ACPT_experiment_5_30_19,3.1.0,59.952945778106674,
,,,C,U,g,n,,,,,,,,,,4,6,86,7,,,,,,,,,,,,,n,1,0.5835318607860245,451.3693845306698,None,,,,,001,82,2019_Oct_31_1024,ACPT_experiment_5_30_19,3.1.0,59.952945778106674,
,,,C,D,y,b,,,,,,,,,,4,7,87,2,,,,,,,,,,,,,b,1,0.7006095285905758,455.2388674697868,None,,,,,001,82,2019_Oct_31_1024,ACPT_experiment_5_30_19,3.1.0,59.952945778106674,
,,,C,G,g,v,,,,,,,,,,4,8,88,13,,,,,,,,,,,,,v,1,1.2310011338122422,459.2620659010572,None,,,,,001,82,2019_Oct_31_1024,ACPT_experiment_5_30_19,3.1.0,59.952945778106674,
,,,C,U,y,n,,,,,,,,,,4,9,89,17,,,,,,,,,,,,,n,1,2.4019335749035235,463.77901509452204,None,,,,,001,82,2019_Oct_31_1024,ACPT_experiment_5_30_19,3.1.0,59.952945778106674,
,,,C,U,d,n,,,,,,,,,,4,10,90,6,,,,,,,,,,,,,n,1,1.1009109119768254,469.45021076309786,None,,,,,001,82,2019_Oct_31_1024,ACPT_experiment_5_30_19,3.1.0,59.952945778106674,
,,,C,G,y,b,,,,,,,,,,4,11,91,14,,,,,,,,,,,,,n,0,0.5333335949544562,473.85413484492165,None,,,,,001,82,2019_Oct_31_1024,ACPT_experiment_5_30_19,3.1.0,59.952945778106674,
,,,C,D,g,b,,,,,,,,,,4,12,92,1,,,,,,,,,,,,,b,1,1.3510865982243558,477.67344155443425,None,,,,,001,82,2019_Oct_31_1024,ACPT_experiment_5_30_19,3.1.0,59.952945778106674,
,,,C,D,d,v,,,,,,,,,,4,13,93,9,,,,,,,,,,,,,v,1,1.1006232333311345,482.31073672301136,None,,,,,001,82,2019_Oct_31_1024,ACPT_experiment_5_30_19,3.1.0,59.952945778106674,
,,,C,D,d,v,,,,,,,,,,4,14,94,0,,,,,,,,,,,,,v,1,1.1008931018732255,486.6806220500148,None,,,,,001,82,2019_Oct_31_1024,ACPT_experiment_5_30_19,3.1.0,59.952945778106674,
,,,C,D,y,b,,,,,,,,,,4,15,95,11,,,,,,,,,,,,,b,1,1.3508227669954067,491.06772492968594,None,,,,,001,82,2019_Oct_31_1024,ACPT_experiment_5_30_19,3.1.0,59.952945778106674,
,,,C,U,y,n,,,,,,,,,,4,16,96,8,,,,,,,,,,,,,n,1,1.1342457144055516,495.7044954544981,None,,,,,001,82,2019_Oct_31_1024,ACPT_experiment_5_30_19,3.1.0,59.952945778106674,
,,,C,U,d,n,,,,,,,,,,4,17,97,15,,,,,,,,,,,,,n,1,0.766972739060293,500.1416523078806,None,,,,,001,82,2019_Oct_31_1024,ACPT_experiment_5_30_19,3.1.0,59.952945778106674,
,,,C,G,g,v,,,,,,,,,,4,18,98,4,,,,,,,,,,,,,v,1,1.2343292106379522,504.1946084249648,None,,,,,001,82,2019_Oct_31_1024,ACPT_experiment_5_30_19,3.1.0,59.952945778106674,
,,,C,G,d,b,,,,,,,,,,4,19,99,3,,,,,,,,,,,,,b,1,3.669596380495932,508.7148917325976,None,,,,,001,82,2019_Oct_31_1024,ACPT_experiment_5_30_19,3.1.0,59.952945778106674,
,,,C,G,y,b,,,,,,,,,,5,0,100,5,,,,,,,,,,,,,b,1,2.6354380866105203,515.6537535273092,None,,,,,001,82,2019_Oct_31_1024,ACPT_experiment_5_30_19,3.1.0,59.952945778106674,
,,,C,U,g,n,,,,,,,,,,5,1,101,7,,,,,,,,,,,,,n,1,6.98892814492865,521.5751451071701,None,,,,,001,82,2019_Oct_31_1024,ACPT_experiment_5_30_19,3.1.0,59.952945778106674,
,,,C,D,g,b,,,,,,,,,,5,2,102,10,,,,,,,,,,,,,b,1,2.5353944367234362,531.8499850877997,None,,,,,001,82,2019_Oct_31_1024,ACPT_experiment_5_30_19,3.1.0,59.952945778106674,
,,,C,D,y,b,,,,,,,,,,5,3,103,2,,,,,,,,,,,,,b,1,0.750620637278189,537.6546361845976,None,,,,,001,82,2019_Oct_31_1024,ACPT_experiment_5_30_19,3.1.0,59.952945778106674,
,,,C,D,d,v,,,,,,,,,,5,4,104,18,,,,,,,,,,,,,v,1,0.9171419049671385,541.6914614679554,None,,,,,001,82,2019_Oct_31_1024,ACPT_experiment_5_30_19,3.1.0,59.952945778106674,
,,,C,G,y,b,,,,,,,,,,5,5,105,14,,,,,,,,,,,,,b,1,0.7506499183218693,545.8945526400639,None,,,,,001,82,2019_Oct_31_1024,ACPT_experiment_5_30_19,3.1.0,59.952945778106674,
,,,C,G,d,b,,,,,,,,,,5,6,106,12,,,,,,,,,,,,,b,1,0.8807286692172056,549.951104287582,None,,,,,001,82,2019_Oct_31_1024,ACPT_experiment_5_30_19,3.1.0,59.952945778106674,
,,,C,U,y,n,,,,,,,,,,5,7,107,17,,,,,,,,,,,,,n,1,0.6005061091855168,554.1177589802246,None,,,,,001,82,2019_Oct_31_1024,ACPT_experiment_5_30_19,3.1.0,59.952945778106674,
,,,C,G,d,b,,,,,,,,,,5,8,108,3,,,,,,,,,,,,,b,1,1.1675895728112664,558.0209130009025,None,,,,,001,82,2019_Oct_31_1024,ACPT_experiment_5_30_19,3.1.0,59.952945778106674,
,,,C,G,g,v,,,,,,,,,,5,9,109,13,,,,,,,,,,,,,v,1,0.8006537821929669,562.4577691953746,None,,,,,001,82,2019_Oct_31_1024,ACPT_experiment_5_30_19,3.1.0,59.952945778106674,
,,,C,U,d,n,,,,,,,,,,5,10,110,15,,,,,,,,,,,,,n,1,0.7172782881971216,566.5443689241802,None,,,,,001,82,2019_Oct_31_1024,ACPT_experiment_5_30_19,3.1.0,59.952945778106674,
,,,C,G,g,v,,,,,,,,,,5,11,111,19,,,,,,,,,,,,,v,1,1.701368722540792,570.5475653872709,None,,,,,001,82,2019_Oct_31_1024,ACPT_experiment_5_30_19,3.1.0,59.952945778106674,
,,,C,D,d,v,,,,,,,,,,5,12,112,0,,,,,,,,,,,,,v,1,2.6020842666039243,575.5348785470851,None,,,,,001,82,2019_Oct_31_1024,ACPT_experiment_5_30_19,3.1.0,59.952945778106674,
,,,C,D,y,b,,,,,,,,,,5,13,113,11,,,,,,,,,,,,,b,1,1.0508566364151193,581.4229078546778,None,,,,,001,82,2019_Oct_31_1024,ACPT_experiment_5_30_19,3.1.0,59.952945778106674,
,,,C,U,y,n,,,,,,,,,,5,14,114,8,,,,,,,,,,,,,n,1,1.2341046220535645,585.7766544994374,None,,,,,001,82,2019_Oct_31_1024,ACPT_experiment_5_30_19,3.1.0,59.952945778106674,
,,,C,D,d,v,,,,,,,,,,5,15,115,9,,,,,,,,,,,,,v,1,1.000805983232567,590.2966594862664,None,,,,,001,82,2019_Oct_31_1024,ACPT_experiment_5_30_19,3.1.0,59.952945778106674,
,,,C,U,d,n,,,,,,,,,,5,16,116,6,,,,,,,,,,,,,n,1,1.0839451158535667,594.600369665568,None,,,,,001,82,2019_Oct_31_1024,ACPT_experiment_5_30_19,3.1.0,59.952945778106674,
,,,C,G,g,v,,,,,,,,,,5,17,117,4,,,,,,,,,,,,,v,1,1.167625796777429,598.9702501627035,None,,,,,001,82,2019_Oct_31_1024,ACPT_experiment_5_30_19,3.1.0,59.952945778106674,
,,,C,D,g,b,,,,,,,,,,5,18,118,1,,,,,,,,,,,,,b,1,0.9007402971037664,603.4237874933169,None,,,,,001,82,2019_Oct_31_1024,ACPT_experiment_5_30_19,3.1.0,59.952945778106674,
,,,C,U,g,n,,,,,,,,,,5,19,119,16,0,0,0,0,0,0,0,0,,,,,n,1,1.0008111149509205,607.6104719258146,None,,,,,001,82,2019_Oct_31_1024,ACPT_experiment_5_30_19,3.1.0,59.952945778106674,
,,,C,U,g,n,L,G,d,R,i,,,,,5,19,119,16,0,0,0,0,,,,,0,0,0,17,,,,,,up,0.8974369733186904,628.3636535974656,None,001,82,2019_Oct_31_1024,ACPT_experiment_5_30_19,3.1.0,59.952945778106674,
,,,C,U,g,n,R,G,g,R,c ,,,,,5,19,119,16,0,0,0,0,,,,,0,1,1,7,,,,,,up,0.800635972089367,630.5454435684951,None,001,82,2019_Oct_31_1024,ACPT_experiment_5_30_19,3.1.0,59.952945778106674,
,,,C,U,g,n,R,U,d,L,u,,,,,5,19,119,16,0,0,0,0,,,,,0,2,2,8,,,,,,up,0.7506007141055306,632.6304412924219,None,001,82,2019_Oct_31_1024,ACPT_experiment_5_30_19,3.1.0,59.952945778106674,
,,,C,U,g,n,R,U,y,R,u,,,,,5,19,119,16,0,0,0,0,,,,,0,3,3,31,,,,,,down,0.7172598743636627,634.6653802127694,None,001,82,2019_Oct_31_1024,ACPT_experiment_5_30_19,3.1.0,59.952945778106674,
,,,C,U,g,n,L,D,g,L,i,,,,,5,19,119,16,0,0,0,0,,,,,0,4,4,14,,,,,,up,0.7339198798290454,636.6669970091025,None,001,82,2019_Oct_31_1024,ACPT_experiment_5_30_19,3.1.0,59.952945778106674,
,,,C,U,g,n,L,G,g,L,c ,,,,,5,19,119,16,0,0,0,0,,,,,0,5,5,18,,,,,,up,0.6004985625186237,638.6852541895933,None,001,82,2019_Oct_31_1024,ACPT_experiment_5_30_19,3.1.0,59.952945778106674,
,,,C,U,g,n,R,D,y,L,y,,,,,5,19,119,16,0,0,0,0,,,,,0,6,6,26,,,,,,down,0.6505075581371784,640.5867971494154,None,001,82,2019_Oct_31_1024,ACPT_experiment_5_30_19,3.1.0,59.952945778106674,
,,,C,U,g,n,R,U,y,L,u,,,,,5,19,119,16,0,0,0,0,,,,,0,7,7,30,,,,,,down,0.5337480574817164,642.5383587645629,None,001,82,2019_Oct_31_1024,ACPT_experiment_5_30_19,3.1.0,59.952945778106674,
,,,C,U,g,n,R,D,d,L,c,,,,,5,19,119,16,0,0,0,0,,,,,0,8,8,0,,,,,,up,0.7005733046244131,644.3564749130892,None,001,82,2019_Oct_31_1024,ACPT_experiment_5_30_19,3.1.0,59.952945778106674,
,,,C,U,g,n,R,G,y,R,y,,,,,5,19,119,16,0,0,0,0,,,,,0,9,9,29,,,,,,down,0.8840636889799498,646.3580678619765,None,001,82,2019_Oct_31_1024,ACPT_experiment_5_30_19,3.1.0,59.952945778106674,
,,,C,U,g,n,L,D,d,L,c ,,,,,5,19,119,16,0,0,0,0,,,,,0,10,10,12,,,,,,up,0.5837932770664338,648.5431478746759,None,001,82,2019_Oct_31_1024,ACPT_experiment_5_30_19,3.1.0,59.952945778106674,
,,,C,U,g,n,R,G,d,R,i,,,,,5,19,119,16,0,0,0,0,,,,,0,11,11,5,,,,,,up,0.6838767733133864,650.4113038091891,None,001,82,2019_Oct_31_1024,ACPT_experiment_5_30_19,3.1.0,59.952945778106674,
,,,C,U,g,n,L,U,g,L,u,,,,,5,19,119,16,0,0,0,0,,,,,0,12,12,22,,,,,,up,0.7339201816939749,652.3795369007421,None,001,82,2019_Oct_31_1024,ACPT_experiment_5_30_19,3.1.0,59.952945778106674,
,,,C,U,g,n,L,D,g,R,i,,,,,5,19,119,16,0,0,0,0,,,,,0,13,13,15,,,,,,up,0.6171727557084523,654.397818834288,None,001,82,2019_Oct_31_1024,ACPT_experiment_5_30_19,3.1.0,59.952945778106674,
,,,C,U,g,n,R,U,g,L,u,,,,,5,19,119,16,0,0,0,0,,,,,0,14,14,10,,,,,,up,0.5671190838766051,656.2993382485147,None,001,82,2019_Oct_31_1024,ACPT_experiment_5_30_19,3.1.0,59.952945778106674,
,,,C,U,g,n,R,D,g,R,i,,,,,5,19,119,16,0,0,0,0,,,,,0,15,15,3,,,,,,up,0.5838110871845856,658.1341147043859,None,001,82,2019_Oct_31_1024,ACPT_experiment_5_30_19,3.1.0,59.952945778106674,
,,,C,U,g,n,R,U,g,R,u,,,,,5,19,119,16,0,0,0,0,,,,,0,16,16,11,,,,,,up,0.5804751618270529,660.0222895115876,None,001,82,2019_Oct_31_1024,ACPT_experiment_5_30_19,3.1.0,59.952945778106674,
,,,C,U,g,n,R,D,g,L,i,,,,,5,19,119,16,0,0,0,0,,,,,0,17,17,2,,,,,,up,2.235120704281144,661.8871306513902,None,001,82,2019_Oct_31_1024,ACPT_experiment_5_30_19,3.1.0,59.952945778106674,
,,,C,U,g,n,R,U,d,R,u,,,,,5,19,119,16,0,0,0,0,,,,,0,18,18,9,,,,,,up,1.568000231840415,665.4066016365978,None,001,82,2019_Oct_31_1024,ACPT_experiment_5_30_19,3.1.0,59.952945778106674,
,,,C,U,g,n,L,U,y,L,u,,,,,5,19,119,16,0,0,0,0,,,,,0,19,19,24,,,,,,down,0.9173912466067122,668.2588790976879,None,001,82,2019_Oct_31_1024,ACPT_experiment_5_30_19,3.1.0,59.952945778106674,
,,,C,U,g,n,L,U,y,R,u,,,,,5,19,119,16,0,0,0,0,,,,,0,20,20,25,,,,,,down,0.7674291610164801,670.4438024417323,None,001,82,2019_Oct_31_1024,ACPT_experiment_5_30_19,3.1.0,59.952945778106674,
,,,C,U,g,n,R,D,y,R,y,,,,,5,19,119,16,0,0,0,0,,,,,0,21,21,27,,,,,,down,0.7339775363070657,672.5122738869832,None,001,82,2019_Oct_31_1024,ACPT_experiment_5_30_19,3.1.0,59.952945778106674,
,,,C,U,g,n,L,G,g,R,c ,,,,,5,19,119,16,0,0,0,0,,,,,0,22,22,19,,,,,,up,0.7339416142058326,674.547211298006,None,001,82,2019_Oct_31_1024,ACPT_experiment_5_30_19,3.1.0,59.952945778106674,
,,,C,U,g,n,L,D,y,L,y,,,,,5,19,119,16,0,0,0,0,,,,,0,23,23,32,,,,,,down,0.7339150499756215,676.5655146640638,None,001,82,2019_Oct_31_1024,ACPT_experiment_5_30_19,3.1.0,59.952945778106674,
,,,C,U,g,n,R,G,d,L,i,,,,,5,19,119,16,0,0,0,0,,,,,0,24,24,4,,,,,,up,0.5838174263917608,678.5837615811033,None,001,82,2019_Oct_31_1024,ACPT_experiment_5_30_19,3.1.0,59.952945778106674,
,,,C,U,g,n,R,G,g,L,c ,,,,,5,19,119,16,0,0,0,0,,,,,0,25,25,6,,,,,,up,0.6669556534179719,680.4688655016216,None,001,82,2019_Oct_31_1024,ACPT_experiment_5_30_19,3.1.0,59.952945778106674,
,,,C,U,g,n,L,G,y,R,y,,,,,5,19,119,16,0,0,0,0,,,,,0,26,26,35,,,,,,down,0.783957854626351,682.420182906877,None,001,82,2019_Oct_31_1024,ACPT_experiment_5_30_19,3.1.0,59.952945778106674,
,,,C,U,g,n,L,G,y,L,y,,,,,5,19,119,16,0,0,0,0,,,,,0,27,27,34,,,,,,down,0.7841036560857901,684.4716665197484,None,001,82,2019_Oct_31_1024,ACPT_experiment_5_30_19,3.1.0,59.952945778106674,
,,,C,U,g,n,L,D,y,R,y,,,,,5,19,119,16,0,0,0,0,,,,,0,28,28,33,,,,,,down,0.7172565538203344,686.556792536896,None,001,82,2019_Oct_31_1024,ACPT_experiment_5_30_19,3.1.0,59.952945778106674,
,,,C,U,g,n,L,U,d,L,u,,,,,5,19,119,16,0,0,0,0,,,,,0,29,29,20,,,,,,up,0.5503658016823465,688.5917743222817,None,001,82,2019_Oct_31_1024,ACPT_experiment_5_30_19,3.1.0,59.952945778106674,
,,,C,U,g,n,L,U,g,R,u,,,,,5,19,119,16,0,0,0,0,,,,,0,30,30,23,,,,,,up,0.5337607358815148,690.426566173337,None,001,82,2019_Oct_31_1024,ACPT_experiment_5_30_19,3.1.0,59.952945778106674,
,,,C,U,g,n,R,D,d,R,c ,,,,,5,19,119,16,0,0,0,0,,,,,0,31,31,1,,,,,,up,0.5504349290858954,692.2446883591911,None,001,82,2019_Oct_31_1024,ACPT_experiment_5_30_19,3.1.0,59.952945778106674,
,,,C,U,g,n,L,U,d,R,u,,,,,5,19,119,16,0,0,0,0,,,,,0,32,32,21,,,,,,up,0.7973290259105852,694.0994791597477,None,001,82,2019_Oct_31_1024,ACPT_experiment_5_30_19,3.1.0,59.952945778106674,
,,,C,U,g,n,L,D,d,R,c ,,,,,5,19,119,16,0,0,0,0,,,,,0,33,33,13,,,,,,up,0.5337489630910568,696.1811660132225,None,001,82,2019_Oct_31_1024,ACPT_experiment_5_30_19,3.1.0,59.952945778106674,
,,,C,U,g,n,L,G,d,L,i,,,,,5,19,119,16,0,0,0,0,,,,,0,34,34,16,,,,,,up,0.5170735624124063,697.9992857841426,None,001,82,2019_Oct_31_1024,ACPT_experiment_5_30_19,3.1.0,59.952945778106674,
,,,C,U,g,n,R,G,y,L,y,,,,,5,19,119,16,0,0,0,0,,,,,0,35,35,28,,,,,,down,0.800622991839191,699.8174076681316,None,001,82,2019_Oct_31_1024,ACPT_experiment_5_30_19,3.1.0,59.952945778106674,
,,,C,U,g,n,R,U,g,R,u,,,,,5,19,119,16,0,0,0,0,,,,,1,0,36,11,,,,,,up,0.6505090674618259,701.9190783777885,None,001,82,2019_Oct_31_1024,ACPT_experiment_5_30_19,3.1.0,59.952945778106674,
,,,C,U,g,n,L,U,y,L,u,,,,,5,19,119,16,0,0,0,0,,,,,1,1,37,24,,,,,,down,0.6671950334421126,703.8539567437547,None,001,82,2019_Oct_31_1024,ACPT_experiment_5_30_19,3.1.0,59.952945778106674,
,,,C,U,g,n,R,U,d,R,u,,,,,5,19,119,16,0,0,0,0,,,,,1,2,38,9,,,,,,up,0.633857514243573,705.8054878703988,None,001,82,2019_Oct_31_1024,ACPT_experiment_5_30_19,3.1.0,59.952945778106674,
,,,C,U,g,n,R,D,g,R,i,,,,,5,19,119,16,0,0,0,0,,,,,1,3,39,3,,,,,,up,0.7506004122406011,707.7237095514138,None,001,82,2019_Oct_31_1024,ACPT_experiment_5_30_19,3.1.0,59.952945778106674,
,,,C,U,g,n,L,D,d,L,c ,,,,,5,19,119,16,0,0,0,0,,,,,1,4,40,12,,,,,,up,0.7172417623660294,709.7586659800145,None,001,82,2019_Oct_31_1024,ACPT_experiment_5_30_19,3.1.0,59.952945778106674,
,,,C,U,g,n,L,G,g,R,c ,,,,,5,19,119,16,0,0,0,0,,,,,1,5,41,19,,,,,,up,0.6338406097202096,711.7602649662294,None,001,82,2019_Oct_31_1024,ACPT_experiment_5_30_19,3.1.0,59.952945778106674,
,,,C,U,g,n,R,D,g,L,i,,,,,5,19,119,16,0,0,0,0,,,,,1,6,42,2,,,,,,up,0.5668461966706673,713.6787317627459,None,001,82,2019_Oct_31_1024,ACPT_experiment_5_30_19,3.1.0,59.952945778106674,
,,,C,U,g,n,R,D,d,R,c ,,,,,5,19,119,16,0,0,0,0,,,,,1,7,43,1,,,,,,up,0.6672203902271576,715.52991163767,None,001,82,2019_Oct_31_1024,ACPT_experiment_5_30_19,3.1.0,59.952945778106674,
,,,C,U,g,n,R,G,d,L,i,,,,,5,19,119,16,0,0,0,0,,,,,1,8,44,4,,,,,,up,0.9842262742022285,717.4814657061652,None,001,82,2019_Oct_31_1024,ACPT_experiment_5_30_19,3.1.0,59.952945778106674,
,,,C,U,g,n,L,D,g,R,i,,,,,5,19,119,16,0,0,0,0,,,,,1,9,45,15,,,,,,up,0.5170557523088064,719.7499894346693,None,001,82,2019_Oct_31_1024,ACPT_experiment_5_30_19,3.1.0,59.952945778106674,
,,,C,U,g,n,L,D,g,L,i,,,,,5,19,119,16,0,0,0,0,,,,,1,10,46,14,,,,,,up,0.4171696766716195,721.5345594743121,None,001,82,2019_Oct_31_1024,ACPT_experiment_5_30_19,3.1.0,59.952945778106674,
,,,C,U,g,n,R,G,y,L,y,,,,,5,19,119,16,0,0,0,0,,,,,1,11,47,28,,,,,,down,0.7839421575772576,723.2527708314883,None,001,82,2019_Oct_31_1024,ACPT_experiment_5_30_19,3.1.0,59.952945778106674,
,,,C,U,g,n,L,U,g,L,u,,,,,5,19,119,16,0,0,0,0,,,,,1,12,48,22,,,,,,up,0.7172462903690757,725.3377619143575,None,001,82,2019_Oct_31_1024,ACPT_experiment_5_30_19,3.1.0,59.952945778106674,
,,,C,U,g,n,L,D,y,L,y,,,,,5,19,119,16,0,0,0,0,,,,,1,13,49,32,,,,,,down,0.5504288917582016,727.3393660323054,None,001,82,2019_Oct_31_1024,ACPT_experiment_5_30_19,3.1.0,59.952945778106674,
,,,C,U,g,n,R,U,y,R,u,,,,,5,19,119,16,0,0,0,0,,,,,1,14,50,31,,,,,,down,0.7172354231734062,729.1741660337575,None,001,82,2019_Oct_31_1024,ACPT_experiment_5_30_19,3.1.0,59.952945778106674,
,,,C,U,g,n,R,G,g,R,c ,,,,,5,19,119,16,0,0,0,0,,,,,1,15,51,7,,,,,,up,0.5671166689426173,731.1757580770354,None,001,82,2019_Oct_31_1024,ACPT_experiment_5_30_19,3.1.0,59.952945778106674,
,,,C,U,g,n,R,U,y,L,u,,,,,5,19,119,16,0,0,0,0,,,,,1,16,52,30,,,,,,down,0.6338221958721988,733.0606054111267,None,001,82,2019_Oct_31_1024,ACPT_experiment_5_30_19,3.1.0,59.952945778106674,
,,,C,U,g,n,L,U,d,R,u,,,,,5,19,119,16,0,0,0,0,,,,,1,17,53,21,,,,,,up,0.583784824819304,734.9954765323055,None,001,82,2019_Oct_31_1024,ACPT_experiment_5_30_19,3.1.0,59.952945778106674,
,,,C,U,g,n,L,G,y,R,y,,,,,5,19,119,16,0,0,0,0,,,,,1,18,54,35,,,,,,down,0.5170726568176178,736.8636333724135,None,001,82,2019_Oct_31_1024,ACPT_experiment_5_30_19,3.1.0,59.952945778106674,
,,,C,U,g,n,R,G,y,R,y,,,,,5,19,119,16,0,0,0,0,,,,,1,19,55,29,,,,,,down,0.517094994924264,738.6650717053417,None,001,82,2019_Oct_31_1024,ACPT_experiment_5_30_19,3.1.0,59.952945778106674,
,,,C,U,g,n,R,D,y,R,y,,,,,5,19,119,16,0,0,0,0,,,,,1,20,56,27,,,,,,down,0.4834809661260806,740.4834236114984,None,001,82,2019_Oct_31_1024,ACPT_experiment_5_30_19,3.1.0,59.952945778106674,
,,,C,U,g,n,R,D,y,L,y,,,,,5,19,119,16,0,0,0,0,,,,,1,21,57,26,,,,,,down,0.5339026130677667,742.2344354676025,None,001,82,2019_Oct_31_1024,ACPT_experiment_5_30_19,3.1.0,59.952945778106674,
,,,C,U,g,n,R,D,d,L,c,,,,,5,19,119,16,0,0,0,0,,,,,1,22,58,0,,,,,,up,0.7172468940843828,744.0527022474562,None,001,82,2019_Oct_31_1024,ACPT_experiment_5_30_19,3.1.0,59.952945778106674,
,,,C,U,g,n,R,U,g,L,u,,,,,5,19,119,16,0,0,0,0,,,,,1,23,59,10,,,,,,up,0.6505154066690011,746.0543006299267,None,001,82,2019_Oct_31_1024,ACPT_experiment_5_30_19,3.1.0,59.952945778106674,
,,,C,U,g,n,L,G,d,L,i,,,,,5,19,119,16,0,0,0,0,,,,,1,24,60,16,,,,,,up,0.5836827939783689,747.9891741660249,None,001,82,2019_Oct_31_1024,ACPT_experiment_5_30_19,3.1.0,59.952945778106674,
,,,C,U,g,n,L,D,d,R,c ,,,,,5,19,119,16,0,0,0,0,,,,,1,25,61,13,,,,,,up,0.7005573057103902,749.8573307042825,None,001,82,2019_Oct_31_1024,ACPT_experiment_5_30_19,3.1.0,59.952945778106674,
,,,C,U,g,n,L,G,y,L,y,,,,,5,19,119,16,0,0,0,0,,,,,1,26,62,34,,,,,,down,0.7506013178353896,751.8422470450314,None,001,82,2019_Oct_31_1024,ACPT_experiment_5_30_19,3.1.0,59.952945778106674,
,,,C,U,g,n,R,G,g,L,c ,,,,,5,19,119,16,0,0,0,0,,,,,1,27,63,6,,,,,,up,0.6838800938421628,753.8772025680373,None,001,82,2019_Oct_31_1024,ACPT_experiment_5_30_19,3.1.0,59.952945778106674,
,,,C,U,g,n,L,U,d,L,u,,,,,5,19,119,16,0,0,0,0,,,,,1,28,64,20,,,,,,up,0.4503586776263546,755.8454423006478,None,001,82,2019_Oct_31_1024,ACPT_experiment_5_30_19,3.1.0,59.952945778106674,
,,,C,U,g,n,L,G,g,L,c ,,,,,5,19,119,16,0,0,0,0,,,,,1,29,65,18,,,,,,up,0.5170626952312887,757.5801766159711,None,001,82,2019_Oct_31_1024,ACPT_experiment_5_30_19,3.1.0,59.952945778106674,
,,,C,U,g,n,R,G,d,R,i,,,,,5,19,119,16,0,0,0,0,,,,,1,30,66,5,,,,,,up,0.5502341879328014,759.3984482256928,None,001,82,2019_Oct_31_1024,ACPT_experiment_5_30_19,3.1.0,59.952945778106674,
,,,C,U,g,n,L,G,d,R,i,,,,,5,19,119,16,0,0,0,0,,,,,1,31,67,17,,,,,,up,0.4670310596411582,761.2330797856994,None,001,82,2019_Oct_31_1024,ACPT_experiment_5_30_19,3.1.0,59.952945778106674,
,,,C,U,g,n,R,U,d,L,u,,,,,5,19,119,16,0,0,0,0,,,,,1,32,68,8,,,,,,up,0.6004653572163079,762.9844843699539,None,001,82,2019_Oct_31_1024,ACPT_experiment_5_30_19,3.1.0,59.952945778106674,
,,,C,U,g,n,L,D,y,R,y,,,,,5,19,119,16,0,0,0,0,,,,,1,33,69,33,,,,,,down,0.6171573605242884,764.8693147995364,None,001,82,2019_Oct_31_1024,ACPT_experiment_5_30_19,3.1.0,59.952945778106674,
,,,C,U,g,n,L,U,y,R,u,,,,,5,19,119,16,0,0,0,0,,,,,1,34,70,25,,,,,,down,0.5670387874270091,766.7875757231814,None,001,82,2019_Oct_31_1024,ACPT_experiment_5_30_19,3.1.0,59.952945778106674,
,,,C,U,g,n,L,U,g,R,u,,,,,5,19,119,16,0,0,0,0,,,,,1,35,71,23,,,,,,up,0.5337525854847627,768.6556700769434,None,001,82,2019_Oct_31_1024,ACPT_experiment_5_30_19,3.1.0,59.952945778106674,
,,,C,U,g,n,,,,,,,,,,5,19,119,16,1,0,1,0,0,0,0,0,,,,,,,,,,,,,,001,82,2019_Oct_31_1024,ACPT_experiment_5_30_19,3.1.0,59.952945778106674,
,,,C,U,g,n,L,U,y,R,u,,,,,5,19,119,16,1,0,1,0,,,,,0,0,0,25,,,,,,down,0.6972479445830686,774.8639331257291,None,001,82,2019_Oct_31_1024,ACPT_experiment_5_30_19,3.1.0,59.952945778106674,
,,,C,U,g,n,L,G,y,L,y,,,,,5,19,119,16,1,0,1,0,,,,,0,1,1,34,,,,,,down,0.6005000718432711,776.8455132392555,None,001,82,2019_Oct_31_1024,ACPT_experiment_5_30_19,3.1.0,59.952945778106674,
,,,C,U,g,n,L,U,d,R,u,,,,,5,19,119,16,1,0,1,0,,,,,0,2,2,21,,,,,,up,0.5003936337598134,778.7303777797351,None,001,82,2019_Oct_31_1024,ACPT_experiment_5_30_19,3.1.0,59.952945778106674,
,,,C,U,g,n,R,G,y,L,y,,,,,5,19,119,16,1,0,1,0,,,,,0,3,3,28,,,,,,down,0.5837884472130099,780.5151361839962,None,001,82,2019_Oct_31_1024,ACPT_experiment_5_30_19,3.1.0,59.952945778106674,
,,,C,U,g,n,L,D,g,R,i,,,,,5,19,119,16,1,0,1,0,,,,,0,4,4,15,,,,,,up,0.6171513231965946,782.3832945334434,None,001,82,2019_Oct_31_1024,ACPT_experiment_5_30_19,3.1.0,59.952945778106674,
,,,C,U,g,n,R,D,d,R,c ,,,,,5,19,119,16,1,0,1,0,,,,,0,5,5,1,,,,,,up,0.5003975580330007,784.2848015711497,None,001,82,2019_Oct_31_1024,ACPT_experiment_5_30_19,3.1.0,59.952945778106674,
,,,C,U,g,n,R,U,d,R,u,,,,,5,19,119,16,1,0,1,0,,,,,0,6,6,9,,,,,,up,0.567110933479853,786.0695714463363,None,001,82,2019_Oct_31_1024,ACPT_experiment_5_30_19,3.1.0,59.952945778106674,
,,,C,U,g,n,L,G,g,R,c ,,,,,5,19,119,16,1,0,1,0,,,,,0,7,7,19,,,,,,up,0.4832624148693867,787.9381400321872,None,001,82,2019_Oct_31_1024,ACPT_experiment_5_30_19,3.1.0,59.952945778106674,
,,,C,U,g,n,R,G,y,R,y,,,,,5,19,119,16,1,0,1,0,,,,,0,8,8,29,,,,,,down,0.617179396780557,789.7057762735349,None,001,82,2019_Oct_31_1024,ACPT_experiment_5_30_19,3.1.0,59.952945778106674,
,,,C,U,g,n,L,D,y,L,y,,,,,5,19,119,16,1,0,1,0,,,,,0,9,9,32,,,,,,down,0.6171498138719471,791.6073228557507,None,001,82,2019_Oct_31_1024,ACPT_experiment_5_30_19,3.1.0,59.952945778106674,
,,,C,U,g,n,R,U,g,L,u,,,,,5,19,119,16,1,0,1,0,,,,,0,10,10,10,,,,,,up,0.750581092768698,793.5088413643825,None,001,82,2019_Oct_31_1024,ACPT_experiment_5_30_19,3.1.0,59.952945778106674,
,,,C,U,g,n,R,U,y,R,u,,,,,5,19,119,16,1,0,1,0,,,,,0,11,11,31,,,,,,down,0.6672203902271576,795.5270888851519,None,001,82,2019_Oct_31_1024,ACPT_experiment_5_30_19,3.1.0,59.952945778106674,
,,,C,U,g,n,L,D,d,R,c ,,,,,5,19,119,16,1,0,1,0,,,,,0,12,12,13,,,,,,up,0.6004683758801548,797.4786752533546,None,001,82,2019_Oct_31_1024,ACPT_experiment_5_30_19,3.1.0,59.952945778106674,
,,,C,U,g,n,L,D,g,L,i,,,,,5,19,119,16,1,0,1,0,,,,,0,13,13,14,,,,,,up,0.5671142540086294,799.3635096071957,None,001,82,2019_Oct_31_1024,ACPT_experiment_5_30_19,3.1.0,59.952945778106674,
,,,C,U,g,n,L,G,d,R,i,,,,,5,19,119,16,1,0,1,0,,,,,0,14,14,17,,,,,,up,0.8006516691384604,801.2316522595938,None,001,82,2019_Oct_31_1024,ACPT_experiment_5_30_19,3.1.0,59.952945778106674,
,,,C,U,g,n,L,U,y,L,u,,,,,5,19,119,16,1,0,1,0,,,,,0,15,15,24,,,,,,down,0.5170741661568172,803.3166656805697,None,001,82,2019_Oct_31_1024,ACPT_experiment_5_30_19,3.1.0,59.952945778106674,
,,,C,U,g,n,L,G,g,L,c ,,,,,5,19,119,16,1,0,1,0,,,,,0,16,16,18,,,,,,up,0.5337586228124565,805.1181070321618,None,001,82,2019_Oct_31_1024,ACPT_experiment_5_30_19,3.1.0,59.952945778106674,
,,,C,U,g,n,L,G,y,R,y,,,,,5,19,119,16,1,0,1,0,,,,,0,17,17,35,,,,,,down,0.5504331178817665,806.936218652685,None,001,82,2019_Oct_31_1024,ACPT_experiment_5_30_19,3.1.0,59.952945778106674,
,,,C,U,g,n,L,G,d,L,i,,,,,5,19,119,16,1,0,1,0,,,,,0,18,18,16,,,,,,up,0.5671045942872297,808.7710234839906,None,001,82,2019_Oct_31_1024,ACPT_experiment_5_30_19,3.1.0,59.952945778106674,
,,,C,U,g,n,L,D,y,R,y,,,,,5,19,119,16,1,0,1,0,,,,,0,19,19,33,,,,,,down,0.5838219543802552,810.6224690013332,None,001,82,2019_Oct_31_1024,ACPT_experiment_5_30_19,3.1.0,59.952945778106674,
,,,C,U,g,n,L,U,d,L,u,,,,,5,19,119,16,1,0,1,0,,,,,0,20,20,20,,,,,,up,0.7005452310550027,812.4906581411487,None,001,82,2019_Oct_31_1024,ACPT_experiment_5_30_19,3.1.0,59.952945778106674,
,,,C,U,g,n,R,D,y,L,y,,,,,5,19,119,16,1,0,1,0,,,,,0,21,21,26,,,,,,down,0.5837815042759757,814.4922616553667,None,001,82,2019_Oct_31_1024,ACPT_experiment_5_30_19,3.1.0,59.952945778106674,
,,,C,U,g,n,L,D,d,L,c ,,,,,5,19,119,16,1,0,1,0,,,,,0,22,22,12,,,,,,up,0.517093787464546,816.3603855920373,None,001,82,2019_Oct_31_1024,ACPT_experiment_5_30_19,3.1.0,59.952945778106674,
,,,C,U,g,n,R,G,g,L,c ,,,,,5,19,119,16,1,0,1,0,,,,,0,23,23,6,,,,,,up,0.617180000510416,818.1618200006924,None,001,82,2019_Oct_31_1024,ACPT_experiment_5_30_19,3.1.0,59.952945778106674,
,,,C,U,g,n,R,U,g,R,u,,,,,5,19,119,16,1,0,1,0,,,,,0,24,24,11,,,,,,up,0.7172324045095593,820.063365073569,None,001,82,2019_Oct_31_1024,ACPT_experiment_5_30_19,3.1.0,59.952945778106674,
,,,C,U,g,n,R,G,g,R,c ,,,,,5,19,119,16,1,0,1,0,,,,,0,25,25,7,,,,,,up,0.41699580164276995,822.0649574187264,None,001,82,2019_Oct_31_1024,ACPT_experiment_5_30_19,3.1.0,59.952945778106674,
,,,C,U,g,n,L,U,g,R,u,,,,,5,19,119,16,1,0,1,0,,,,,0,26,26,23,,,,,,up,0.48371521443186793,823.7663397252472,None,001,82,2019_Oct_31_1024,ACPT_experiment_5_30_19,3.1.0,59.952945778106674,
,,,C,U,g,n,R,G,d,L,i,,,,,5,19,119,16,1,0,1,0,,,,,0,27,27,4,,,,,,up,0.5504376458702609,825.5343952590047,None,001,82,2019_Oct_31_1024,ACPT_experiment_5_30_19,3.1.0,59.952945778106674,
,,,C,U,g,n,R,D,g,L,i,,,,,5,19,119,16,1,0,1,0,,,,,0,28,28,2,,,,,,up,0.5471210399700794,827.3891830408975,None,001,82,2019_Oct_31_1024,ACPT_experiment_5_30_19,3.1.0,59.952945778106674,
,,,C,U,g,n,R,U,y,L,u,,,,,5,19,119,16,1,0,1,0,,,,,0,29,29,30,,,,,,down,0.6838737546495395,829.2206691532338,None,001,82,2019_Oct_31_1024,ACPT_experiment_5_30_19,3.1.0,59.952945778106674,
,,,C,U,g,n,R,D,d,L,c,,,,,5,19,119,16,1,0,1,0,,,,,0,30,30,0,,,,,,up,0.5170675250992645,831.188908282129,None,001,82,2019_Oct_31_1024,ACPT_experiment_5_30_19,3.1.0,59.952945778106674,
,,,C,U,g,n,L,U,g,L,u,,,,,5,19,119,16,1,0,1,0,,,,,0,31,31,22,,,,,,up,0.500392728150473,832.9903478225169,None,001,82,2019_Oct_31_1024,ACPT_experiment_5_30_19,3.1.0,59.952945778106674,
,,,C,U,g,n,R,G,d,R,i,,,,,5,19,119,16,1,0,1,0,,,,,0,32,32,5,,,,,,up,0.5671350827906281,834.7750790588034,None,001,82,2019_Oct_31_1024,ACPT_experiment_5_30_19,3.1.0,59.952945778106674,
,,,C,U,g,n,R,D,g,R,i,,,,,5,19,119,16,1,0,1,0,,,,,0,33,33,3,,,,,,up,0.48371702563599683,836.6265816288942,None,001,82,2019_Oct_31_1024,ACPT_experiment_5_30_19,3.1.0,59.952945778106674,
,,,C,U,g,n,R,D,y,R,y,,,,,5,19,119,16,1,0,1,0,,,,,0,34,34,27,,,,,,down,0.6338336667831754,838.3779789683613,None,001,82,2019_Oct_31_1024,ACPT_experiment_5_30_19,3.1.0,59.952945778106674,
,,,C,U,g,n,R,U,d,L,u,,,,,5,19,119,16,1,0,1,0,,,,,0,35,35,8,,,,,,up,0.5334881505259546,840.313120561812,None,001,82,2019_Oct_31_1024,ACPT_experiment_5_30_19,3.1.0,59.952945778106674,
,,,C,U,g,n,L,D,y,L,y,,,,,5,19,119,16,1,0,1,0,,,,,1,0,36,32,,,,,,down,0.6838779807876563,842.1476516003167,None,001,82,2019_Oct_31_1024,ACPT_experiment_5_30_19,3.1.0,59.952945778106674,
,,,C,U,g,n,L,D,d,L,c ,,,,,5,19,119,16,1,0,1,0,,,,,1,1,37,12,,,,,,up,0.5003912188258255,844.1325721671892,None,001,82,2019_Oct_31_1024,ACPT_experiment_5_30_19,3.1.0,59.952945778106674,
,,,C,U,g,n,R,U,d,R,u,,,,,5,19,119,16,1,0,1,0,,,,,1,2,38,9,,,,,,up,0.5837920696067158,845.9173275527864,None,001,82,2019_Oct_31_1024,ACPT_experiment_5_30_19,3.1.0,59.952945778106674,
,,,C,U,g,n,R,D,g,L,i,,,,,5,19,119,16,1,0,1,0,,,,,1,3,39,2,,,,,,up,0.5004268390621291,847.7854575267993,None,001,82,2019_Oct_31_1024,ACPT_experiment_5_30_19,3.1.0,59.952945778106674,
,,,C,U,g,n,R,G,y,L,y,,,,,5,19,119,16,1,0,1,0,,,,,1,4,40,28,,,,,,down,0.6505199346574955,849.5702391747618,None,001,82,2019_Oct_31_1024,ACPT_experiment_5_30_19,3.1.0,59.952945778106674,
,,,C,U,g,n,L,D,d,R,c ,,,,,5,19,119,16,1,0,1,0,,,,,1,5,41,13,,,,,,up,0.5837923714716453,851.5051187481877,None,001,82,2019_Oct_31_1024,ACPT_experiment_5_30_19,3.1.0,59.952945778106674,
,,,C,U,g,n,L,D,g,R,i,,,,,5,19,119,16,1,0,1,0,,,,,1,6,42,15,,,,,,up,0.5168299562647007,853.3902018399385,None,001,82,2019_Oct_31_1024,ACPT_experiment_5_30_19,3.1.0,59.952945778106674,
,,,C,U,g,n,L,D,y,R,y,,,,,5,19,119,16,1,0,1,0,,,,,1,7,43,33,,,,,,down,0.650521443982143,855.1913971704198,None,001,82,2019_Oct_31_1024,ACPT_experiment_5_30_19,3.1.0,59.952945778106674,
,,,C,U,g,n,L,D,g,L,i,,,,,5,19,119,16,1,0,1,0,,,,,1,8,44,14,,,,,,up,0.5504388533445308,857.126273121452,None,001,82,2019_Oct_31_1024,ACPT_experiment_5_30_19,3.1.0,59.952945778106674,
,,,C,U,g,n,L,U,y,R,u,,,,,5,19,119,16,1,0,1,0,,,,,1,9,45,25,,,,,,down,0.5504316085425671,858.9610746322287,None,001,82,2019_Oct_31_1024,ACPT_experiment_5_30_19,3.1.0,59.952945778106674,
,,,C,U,g,n,L,G,g,L,c ,,,,,5,19,119,16,1,0,1,0,,,,,1,10,46,18,,,,,,up,0.5837999181385385,860.7958628608903,None,001,82,2019_Oct_31_1024,ACPT_experiment_5_30_19,3.1.0,59.952945778106674,
,,,C,U,g,n,R,G,d,R,i,,,,,5,19,119,16,1,0,1,0,,,,,1,11,47,5,,,,,,up,0.8506823991483543,862.6640221159323,None,001,82,2019_Oct_31_1024,ACPT_experiment_5_30_19,3.1.0,59.952945778106674,
,,,C,U,g,n,R,G,d,L,i,,,,,5,19,119,16,1,0,1,0,,,,,1,12,48,4,,,,,,up,0.7339497646171367,864.782365207604,None,001,82,2019_Oct_31_1024,ACPT_experiment_5_30_19,3.1.0,59.952945778106674,
,,,C,U,g,n,L,U,y,L,u,,,,,5,19,119,16,1,0,1,0,,,,,1,13,49,24,,,,,,down,0.5971725987474201,866.8206545428984,None,001,82,2019_Oct_31_1024,ACPT_experiment_5_30_19,3.1.0,59.952945778106674,
,,,C,U,g,n,L,G,g,R,c ,,,,,5,19,119,16,1,0,1,0,,,,,1,14,50,19,,,,,,up,0.6837596491532167,868.7021777244372,None,001,82,2019_Oct_31_1024,ACPT_experiment_5_30_19,3.1.0,59.952945778106674,
,,,C,U,g,n,R,U,y,R,u,,,,,5,19,119,16,1,0,1,0,,,,,1,15,51,31,,,,,,down,0.6671926185226766,870.670416249588,None,001,82,2019_Oct_31_1024,ACPT_experiment_5_30_19,3.1.0,59.952945778106674,
,,,C,U,g,n,R,G,y,R,y,,,,,5,19,119,16,1,0,1,0,,,,,1,16,52,29,,,,,,down,0.5838198413111968,872.6052641270362,None,001,82,2019_Oct_31_1024,ACPT_experiment_5_30_19,3.1.0,59.952945778106674,
,,,C,U,g,n,R,D,y,L,y,,,,,5,19,119,16,1,0,1,0,,,,,1,17,53,26,,,,,,down,0.5504288917436497,874.4901344029786,None,001,82,2019_Oct_31_1024,ACPT_experiment_5_30_19,3.1.0,59.952945778106674,
,,,C,U,g,n,R,D,d,R,c ,,,,,5,19,119,16,1,0,1,0,,,,,1,18,54,1,,,,,,up,0.6004626404173905,876.3416122200288,None,001,82,2019_Oct_31_1024,ACPT_experiment_5_30_19,3.1.0,59.952945778106674,
,,,C,U,g,n,R,U,g,R,u,,,,,5,19,119,16,1,0,1,0,,,,,1,19,55,11,,,,,,up,0.5504113834904274,878.2264707231807,None,001,82,2019_Oct_31_1024,ACPT_experiment_5_30_19,3.1.0,59.952945778106674,
,,,C,U,g,n,R,D,g,R,i,,,,,5,19,119,16,1,0,1,0,,,,,1,20,56,3,,,,,,up,0.5835572175710695,880.0781728269503,None,001,82,2019_Oct_31_1024,ACPT_experiment_5_30_19,3.1.0,59.952945778106674,
,,,C,U,g,n,L,G,d,R,i,,,,,5,19,119,16,1,0,1,0,,,,,1,21,57,17,,,,,,up,0.5170729586825473,881.9460776086344,None,001,82,2019_Oct_31_1024,ACPT_experiment_5_30_19,3.1.0,59.952945778106674,
,,,C,U,g,n,R,U,y,L,u,,,,,5,19,119,16,1,0,1,0,,,,,1,22,58,30,,,,,,down,0.5336819487565663,883.7642659032281,None,001,82,2019_Oct_31_1024,ACPT_experiment_5_30_19,3.1.0,59.952945778106674,
,,,C,U,g,n,R,G,g,L,c ,,,,,5,19,119,16,1,0,1,0,,,,,1,23,59,6,,,,,,up,0.500391520690755,885.5989967772766,None,001,82,2019_Oct_31_1024,ACPT_experiment_5_30_19,3.1.0,59.952945778106674,
,,,C,U,g,n,R,D,y,R,y,,,,,5,19,119,16,1,0,1,0,,,,,1,24,60,27,,,,,,down,0.6169074151694076,887.4006811313011,None,001,82,2019_Oct_31_1024,ACPT_experiment_5_30_19,3.1.0,59.952945778106674,
,,,C,U,g,n,R,G,g,R,c ,,,,,5,19,119,16,1,0,1,0,,,,,1,25,61,7,,,,,,up,0.5671184801321942,889.3019490908337,None,001,82,2019_Oct_31_1024,ACPT_experiment_5_30_19,3.1.0,59.952945778106674,
,,,C,U,g,n,L,U,g,L,u,,,,,5,19,119,16,1,0,1,0,,,,,1,26,62,22,,,,,,up,0.6338336667831754,891.1534266060189,None,001,82,2019_Oct_31_1024,ACPT_experiment_5_30_19,3.1.0,59.952945778106674,
,,,C,U,g,n,L,U,d,R,u,,,,,5,19,119,16,1,0,1,0,,,,,1,27,63,21,,,,,,up,0.5170952967891935,893.0715978753433,None,001,82,2019_Oct_31_1024,ACPT_experiment_5_30_19,3.1.0,59.952945778106674,
,,,C,U,g,n,L,U,g,R,u,,,,,5,19,119,16,1,0,1,0,,,,,1,28,64,23,,,,,,up,0.5170771848206641,894.8730609613121,None,001,82,2019_Oct_31_1024,ACPT_experiment_5_30_19,3.1.0,59.952945778106674,
,,,C,U,g,n,R,D,d,L,c,,,,,5,19,119,16,1,0,1,0,,,,,1,29,65,0,,,,,,up,0.5170693363033934,896.6745023129042,None,001,82,2019_Oct_31_1024,ACPT_experiment_5_30_19,3.1.0,59.952945778106674,
,,,C,U,g,n,L,G,y,L,y,,,,,5,19,119,16,1,0,1,0,,,,,1,30,66,34,,,,,,down,0.5337510761601152,898.4926193670253,None,001,82,2019_Oct_31_1024,ACPT_experiment_5_30_19,3.1.0,59.952945778106674,
,,,C,U,g,n,L,U,d,L,u,,,,,5,19,119,16,1,0,1,0,,,,,1,31,67,20,,,,,,up,0.5001298025454162,900.3276768604846,None,001,82,2019_Oct_31_1024,ACPT_experiment_5_30_19,3.1.0,59.952945778106674,
,,,C,U,g,n,L,G,d,L,i,,,,,5,19,119,16,1,0,1,0,,,,,1,32,68,16,,,,,,up,0.8340115264727501,902.1121690186119,None,001,82,2019_Oct_31_1024,ACPT_experiment_5_30_19,3.1.0,59.952945778106674,
,,,C,U,g,n,R,U,d,L,u,,,,,5,19,119,16,1,0,1,0,,,,,1,33,69,8,,,,,,up,0.5337734142667614,904.2305087897403,None,001,82,2019_Oct_31_1024,ACPT_experiment_5_30_19,3.1.0,59.952945778106674,
,,,C,U,g,n,R,U,g,L,u,,,,,5,19,119,16,1,0,1,0,,,,,1,34,70,10,,,,,,up,0.5838204450410558,906.0319407834759,None,001,82,2019_Oct_31_1024,ACPT_experiment_5_30_19,3.1.0,59.952945778106674,
,,,C,U,g,n,L,G,y,R,y,,,,,5,19,119,16,1,0,1,0,,,,,1,35,71,35,,,,,,down,0.6338644571660552,907.9000982273137,None,001,82,2019_Oct_31_1024,ACPT_experiment_5_30_19,3.1.0,59.952945778106674,
,,,C,U,g,n,,,,,,,,,,5,19,119,16,2,0,2,0,0,0,0,0,,,,,,,,,,,,,,001,82,2019_Oct_31_1024,ACPT_experiment_5_30_19,3.1.0,59.952945778106674,
,,,C,U,g,n,R,G,g,R,c ,,,,,5,19,119,16,2,0,2,0,,,,,0,0,0,7,,,,,,up,0.5835291439871071,922.6454986892932,None,001,82,2019_Oct_31_1024,ACPT_experiment_5_30_19,3.1.0,59.952945778106674,
,,,C,U,g,n,L,U,g,L,u,,,,,5,19,119,16,2,0,2,0,,,,,0,1,1,22,,,,,,up,0.7339232003578218,924.5133796235314,None,001,82,2019_Oct_31_1024,ACPT_experiment_5_30_19,3.1.0,59.952945778106674,
,,,C,U,g,n,R,G,g,L,c ,,,,,5,19,119,16,2,0,2,0,,,,,0,2,2,6,,,,,,up,0.5004105382686248,926.5316594440083,None,001,82,2019_Oct_31_1024,ACPT_experiment_5_30_19,3.1.0,59.952945778106674,
,,,C,U,g,n,L,U,g,R,u,,,,,5,19,119,16,2,0,2,0,,,,,0,3,3,23,,,,,,up,0.5504403626837302,928.3164184519992,None,001,82,2019_Oct_31_1024,ACPT_experiment_5_30_19,3.1.0,59.952945778106674,
,,,C,U,g,n,L,D,g,R,i,,,,,5,19,119,16,2,0,2,0,,,,,0,4,4,15,,,,,,up,0.4003149673808366,930.151219660911,None,001,82,2019_Oct_31_1024,ACPT_experiment_5_30_19,3.1.0,59.952945778106674,
,,,C,U,g,n,L,G,y,R,y,,,,,5,19,119,16,2,0,2,0,,,,,0,5,5,35,,,,,,down,0.5504373440198833,931.8358963801293,None,001,82,2019_Oct_31_1024,ACPT_experiment_5_30_19,3.1.0,59.952945778106674,
,,,C,U,g,n,R,G,y,L,y,,,,,5,19,119,16,2,0,2,0,,,,,0,6,6,28,,,,,,down,0.5837920696067158,933.6706900423887,None,001,82,2019_Oct_31_1024,ACPT_experiment_5_30_19,3.1.0,59.952945778106674,
,,,C,U,g,n,L,U,y,L,u,,,,,5,19,119,16,2,0,2,0,,,,,0,7,7,24,,,,,,down,0.5168462570436532,935.5557677005418,None,001,82,2019_Oct_31_1024,ACPT_experiment_5_30_19,3.1.0,59.952945778106674,
,,,C,U,g,n,R,D,y,R,y,,,,,5,19,119,16,2,0,2,0,,,,,0,8,8,27,,,,,,down,0.6505081618670374,937.3569687664858,None,001,82,2019_Oct_31_1024,ACPT_experiment_5_30_19,3.1.0,59.952945778106674,
,,,C,U,g,n,L,D,y,L,y,,,,,5,19,119,16,2,0,2,0,,,,,0,9,9,32,,,,,,down,0.6504852200159803,939.2918664518947,None,001,82,2019_Oct_31_1024,ACPT_experiment_5_30_19,3.1.0,59.952945778106674,
,,,C,U,g,n,R,G,y,R,y,,,,,5,19,119,16,2,0,2,0,,,,,0,10,10,29,,,,,,down,0.6505205383873545,941.2267221778748,None,001,82,2019_Oct_31_1024,ACPT_experiment_5_30_19,3.1.0,59.952945778106674,
,,,C,U,g,n,L,D,d,R,c ,,,,,5,19,119,16,2,0,2,0,,,,,0,11,11,13,,,,,,up,0.550473567971494,943.1615984307718,None,001,82,2019_Oct_31_1024,ACPT_experiment_5_30_19,3.1.0,59.952945778106674,
,,,C,U,g,n,R,G,d,R,i,,,,,5,19,119,16,2,0,2,0,,,,,0,12,12,5,,,,,,up,0.45035324402851984,944.996398130359,None,001,82,2019_Oct_31_1024,ACPT_experiment_5_30_19,3.1.0,59.952945778106674,
,,,C,U,g,n,R,G,d,L,i,,,,,5,19,119,16,2,0,2,0,,,,,0,13,13,4,,,,,,up,0.5838255767739611,946.7144126706553,None,001,82,2019_Oct_31_1024,ACPT_experiment_5_30_19,3.1.0,59.952945778106674,
,,,C,U,g,n,R,U,g,R,u,,,,,5,19,119,16,2,0,2,0,,,,,0,14,14,11,,,,,,up,0.4303627467888873,948.602587477857,None,001,82,2019_Oct_31_1024,ACPT_experiment_5_30_19,3.1.0,59.952945778106674,
,,,C,U,g,n,R,D,d,L,c,,,,,5,19,119,16,2,0,2,0,,,,,0,15,15,0,,,,,,up,0.46704615294584073,950.3173086559545,None,001,82,2019_Oct_31_1024,ACPT_experiment_5_30_19,3.1.0,59.952945778106674,
,,,C,U,g,n,L,G,g,R,c ,,,,,5,19,119,16,2,0,2,0,,,,,0,16,16,19,,,,,,up,0.4837185349460924,952.0687047879619,None,001,82,2019_Oct_31_1024,ACPT_experiment_5_30_19,3.1.0,59.952945778106674,
,,,C,U,g,n,L,G,y,L,y,,,,,5,19,119,16,2,0,2,0,,,,,0,17,17,34,,,,,,down,0.6004677721357439,953.8367853766249,None,001,82,2019_Oct_31_1024,ACPT_experiment_5_30_19,3.1.0,59.952945778106674,
,,,C,U,g,n,L,U,d,R,u,,,,,5,19,119,16,2,0,2,0,,,,,0,18,18,21,,,,,,up,0.5001298025454162,955.7385710369999,None,001,82,2019_Oct_31_1024,ACPT_experiment_5_30_19,3.1.0,59.952945778106674,
,,,C,U,g,n,L,G,g,L,c ,,,,,5,19,119,16,2,0,2,0,,,,,0,19,19,18,,,,,,up,0.4837221573543502,957.5230562521901,None,001,82,2019_Oct_31_1024,ACPT_experiment_5_30_19,3.1.0,59.952945778106674,
,,,C,U,g,n,R,D,d,R,c ,,,,,5,19,119,16,2,0,2,0,,,,,0,20,20,1,,,,,,up,0.7339123331621522,959.291142274451,None,001,82,2019_Oct_31_1024,ACPT_experiment_5_30_19,3.1.0,59.952945778106674,
,,,C,U,g,n,L,G,d,L,i,,,,,5,19,119,16,2,0,2,0,,,,,0,21,21,16,,,,,,up,0.5003839740384137,961.3094211893331,None,001,82,2019_Oct_31_1024,ACPT_experiment_5_30_19,3.1.0,59.952945778106674,
,,,C,U,g,n,L,D,g,L,i,,,,,5,19,119,16,2,0,2,0,,,,,0,22,22,14,,,,,,up,0.5837824098707642,963.1108637483849,None,001,82,2019_Oct_31_1024,ACPT_experiment_5_30_19,3.1.0,59.952945778106674,
,,,C,U,g,n,R,D,g,R,i,,,,,5,19,119,16,2,0,2,0,,,,,0,23,23,3,,,,,,up,0.6004713945294498,964.9790139474353,None,001,82,2019_Oct_31_1024,ACPT_experiment_5_30_19,3.1.0,59.952945778106674,
,,,C,U,g,n,R,U,y,R,u,,,,,5,19,119,16,2,0,2,0,,,,,0,24,24,31,,,,,,down,0.7172462903690757,966.8638461882074,None,001,82,2019_Oct_31_1024,ACPT_experiment_5_30_19,3.1.0,59.952945778106674,
,,,C,U,g,n,R,U,d,L,u,,,,,5,19,119,16,2,0,2,0,,,,,0,25,25,8,,,,,,up,0.6171999236976262,968.8654469856265,None,001,82,2019_Oct_31_1024,ACPT_experiment_5_30_19,3.1.0,59.952945778106674,
,,,C,U,g,n,R,U,y,L,u,,,,,5,19,119,16,2,0,2,0,,,,,0,26,26,30,,,,,,down,0.6839172234176658,970.7502626237401,None,001,82,2019_Oct_31_1024,ACPT_experiment_5_30_19,3.1.0,59.952945778106674,
,,,C,U,g,n,R,D,g,L,i,,,,,5,19,119,16,2,0,2,0,,,,,0,27,27,2,,,,,,up,0.7505961861024844,972.7185192608886,None,001,82,2019_Oct_31_1024,ACPT_experiment_5_30_19,3.1.0,59.952945778106674,
,,,C,U,g,n,L,U,y,R,u,,,,,5,19,119,16,2,0,2,0,,,,,0,28,28,25,,,,,,down,0.7005573057103902,974.7534765950841,None,001,82,2019_Oct_31_1024,ACPT_experiment_5_30_19,3.1.0,59.952945778106674,
,,,C,U,g,n,L,G,d,R,i,,,,,5,19,119,16,2,0,2,0,,,,,0,29,29,17,,,,,,up,0.5003951430844609,976.7383968601061,None,001,82,2019_Oct_31_1024,ACPT_experiment_5_30_19,3.1.0,59.952945778106674,
,,,C,U,g,n,L,D,d,L,c ,,,,,5,19,119,16,2,0,2,0,,,,,0,30,30,12,,,,,,up,0.6171772836969467,978.5231311150565,None,001,82,2019_Oct_31_1024,ACPT_experiment_5_30_19,3.1.0,59.952945778106674,
,,,C,U,g,n,L,U,d,L,u,,,,,5,19,119,16,2,0,2,0,,,,,0,31,31,20,,,,,,up,0.5504291936231311,980.4246502274182,None,001,82,2019_Oct_31_1024,ACPT_experiment_5_30_19,3.1.0,59.952945778106674,
,,,C,U,g,n,R,U,g,L,u,,,,,5,19,119,16,2,0,2,0,,,,,0,32,32,10,,,,,,up,0.5638133451575413,982.2794579324982,None,001,82,2019_Oct_31_1024,ACPT_experiment_5_30_19,3.1.0,59.952945778106674,
,,,C,U,g,n,R,U,d,R,u,,,,,5,19,119,16,2,0,2,0,,,,,0,33,33,9,,,,,,up,0.6004994681134121,984.1275998241908,None,001,82,2019_Oct_31_1024,ACPT_experiment_5_30_19,3.1.0,59.952945778106674,
,,,C,U,g,n,L,D,y,R,y,,,,,5,19,119,16,2,0,2,0,,,,,0,34,34,33,,,,,,down,0.6338357798522338,986.0124652702652,None,001,82,2019_Oct_31_1024,ACPT_experiment_5_30_19,3.1.0,59.952945778106674,
,,,C,U,g,n,R,D,y,L,y,,,,,5,19,119,16,2,0,2,0,,,,,0,35,35,26,,,,,,down,0.6338336667977273,987.9306576702365,None,001,82,2019_Oct_31_1024,ACPT_experiment_5_30_19,3.1.0,59.952945778106674,
,,,C,U,g,n,L,D,d,L,c ,,,,,5,19,119,16,2,0,2,0,,,,,1,0,36,12,,,,,,up,0.5337601321516559,989.848854296346,None,001,82,2019_Oct_31_1024,ACPT_experiment_5_30_19,3.1.0,59.952945778106674,
,,,C,U,g,n,R,G,d,L,i,,,,,5,19,119,16,2,0,2,0,,,,,1,1,37,4,,,,,,up,0.667193524132017,991.6669773877948,None,001,82,2019_Oct_31_1024,ACPT_experiment_5_30_19,3.1.0,59.952945778106674,
,,,C,U,g,n,R,D,d,R,c ,,,,,5,19,119,16,2,0,2,0,,,,,1,2,38,1,,,,,,up,0.6671971465257229,993.6185365880083,None,001,82,2019_Oct_31_1024,ACPT_experiment_5_30_19,3.1.0,59.952945778106674,
,,,C,U,g,n,L,U,y,L,u,,,,,5,19,119,16,2,0,2,0,,,,,1,3,39,24,,,,,,down,0.7169773274217732,995.5870359257242,None,001,82,2019_Oct_31_1024,ACPT_experiment_5_30_19,3.1.0,59.952945778106674,
,,,C,U,g,n,L,D,d,R,c ,,,,,5,19,119,16,2,0,2,0,,,,,1,4,40,13,,,,,,up,0.9507532169955084,997.5883686657908,None,001,82,2019_Oct_31_1024,ACPT_experiment_5_30_19,3.1.0,59.952945778106674,
,,,C,U,g,n,R,D,y,R,y,,,,,5,19,119,16,2,0,2,0,,,,,1,5,41,27,,,,,,down,0.61715524745523,999.8234821252845,None,001,82,2019_Oct_31_1024,ACPT_experiment_5_30_19,3.1.0,59.952945778106674,
,,,C,U,g,n,L,G,y,L,y,,,,,5,19,119,16,2,0,2,0,,,,,1,6,42,34,,,,,,down,0.7672649457090301,1001.7250084824482,None,001,82,2019_Oct_31_1024,ACPT_experiment_5_30_19,3.1.0,59.952945778106674,
,,,C,U,g,n,L,G,y,R,y,,,,,5,19,119,16,2,0,2,0,,,,,1,7,43,35,,,,,,down,0.667007574433228,1003.7934766071703,None,001,82,2019_Oct_31_1024,ACPT_experiment_5_30_19,3.1.0,59.952945778106674,
,,,C,U,g,n,L,G,d,L,i,,,,,5,19,119,16,2,0,2,0,,,,,1,8,44,16,,,,,,up,0.6171769818465691,1005.7615309938265,None,001,82,2019_Oct_31_1024,ACPT_experiment_5_30_19,3.1.0,59.952945778106674,
,,,C,U,g,n,L,D,g,L,i,,,,,5,19,119,16,2,0,2,0,,,,,1,9,45,14,,,,,,up,0.5337562078784686,1007.6630736517691,None,001,82,2019_Oct_31_1024,ACPT_experiment_5_30_19,3.1.0,59.952945778106674,
,,,C,U,g,n,R,G,d,R,i,,,,,5,19,119,16,2,0,2,0,,,,,1,10,46,5,,,,,,up,0.5337767347955378,1009.4811668584443,None,001,82,2019_Oct_31_1024,ACPT_experiment_5_30_19,3.1.0,59.952945778106674,
,,,C,U,g,n,L,G,g,L,c ,,,,,5,19,119,16,2,0,2,0,,,,,1,11,47,18,,,,,,up,0.5837950882705627,1011.2993086656206,None,001,82,2019_Oct_31_1024,ACPT_experiment_5_30_19,3.1.0,59.952945778106674,
,,,C,U,g,n,R,U,d,L,u,,,,,5,19,119,16,2,0,2,0,,,,,1,12,48,8,,,,,,up,0.7505922618292971,1013.1674661094585,None,001,82,2019_Oct_31_1024,ACPT_experiment_5_30_19,3.1.0,59.952945778106674,
,,,C,U,g,n,R,D,y,L,y,,,,,5,19,119,16,2,0,2,0,,,,,1,13,49,26,,,,,,down,0.6669553515530424,1015.2193152825203,None,001,82,2019_Oct_31_1024,ACPT_experiment_5_30_19,3.1.0,59.952945778106674,
,,,C,U,g,n,R,U,d,R,u,,,,,5,19,119,16,2,0,2,0,,,,,1,14,50,9,,,,,,up,0.7172218391788192,1017.1706776658684,None,001,82,2019_Oct_31_1024,ACPT_experiment_5_30_19,3.1.0,59.952945778106674,
,,,C,U,g,n,R,U,g,L,u,,,,,5,19,119,16,2,0,2,0,,,,,1,15,51,10,,,,,,up,0.550461191451177,1019.1555562733265,None,001,82,2019_Oct_31_1024,ACPT_experiment_5_30_19,3.1.0,59.952945778106674,
,,,C,U,g,n,L,U,g,R,u,,,,,5,19,119,16,2,0,2,0,,,,,1,16,52,23,,,,,,up,0.6505087655968964,1020.990377103546,None,001,82,2019_Oct_31_1024,ACPT_experiment_5_30_19,3.1.0,59.952945778106674,
,,,C,U,g,n,L,D,y,R,y,,,,,5,19,119,16,2,0,2,0,,,,,1,17,53,33,,,,,,down,0.6171525306563126,1022.9252542620525,None,001,82,2019_Oct_31_1024,ACPT_experiment_5_30_19,3.1.0,59.952945778106674,
,,,C,U,g,n,L,U,g,L,u,,,,,5,19,119,16,2,0,2,0,,,,,1,18,54,22,,,,,,up,0.8007035901537165,1024.8267748837534,None,001,82,2019_Oct_31_1024,ACPT_experiment_5_30_19,3.1.0,59.952945778106674,
,,,C,U,g,n,R,D,g,R,i,,,,,5,19,119,16,2,0,2,0,,,,,1,19,55,3,,,,,,up,0.6004756206675665,1026.9117674759473,None,001,82,2019_Oct_31_1024,ACPT_experiment_5_30_19,3.1.0,59.952945778106674,
,,,C,U,g,n,R,G,g,L,c ,,,,,5,19,119,16,2,0,2,0,,,,,1,20,56,6,,,,,,up,0.6838758677185979,1028.7966069615213,None,001,82,2019_Oct_31_1024,ACPT_experiment_5_30_19,3.1.0,59.952945778106674,
,,,C,U,g,n,L,U,y,R,u,,,,,5,19,119,16,2,0,2,0,,,,,1,21,57,25,,,,,,down,0.6004732057481306,1030.764843977333,None,001,82,2019_Oct_31_1024,ACPT_experiment_5_30_19,3.1.0,59.952945778106674,
,,,C,U,g,n,L,U,d,L,u,,,,,5,19,119,16,2,0,2,0,,,,,1,22,58,20,,,,,,up,0.7005560982361203,1032.6496822554473,None,001,82,2019_Oct_31_1024,ACPT_experiment_5_30_19,3.1.0,59.952945778106674,
,,,C,U,g,n,R,D,g,L,i,,,,,5,19,119,16,2,0,2,0,,,,,1,23,59,2,,,,,,up,0.6305264187394641,1034.654587885976,None,001,82,2019_Oct_31_1024,ACPT_experiment_5_30_19,3.1.0,59.952945778106674,
,,,C,U,g,n,R,U,g,R,u,,,,,5,19,119,16,2,0,2,0,,,,,1,24,60,11,,,,,,up,0.46704071936255787,1036.5694733397686,None,001,82,2019_Oct_31_1024,ACPT_experiment_5_30_19,3.1.0,59.952945778106674,
,,,C,U,g,n,R,U,y,R,u,,,,,5,19,119,16,2,0,2,0,,,,,1,25,61,31,,,,,,down,0.5170762792258756,1038.3208721885603,None,001,82,2019_Oct_31_1024,ACPT_experiment_5_30_19,3.1.0,59.952945778106674,
,,,C,U,g,n,L,D,g,R,i,,,,,5,19,119,16,2,0,2,0,,,,,1,26,62,15,,,,,,up,0.5003942374896724,1040.1223081065546,None,001,82,2019_Oct_31_1024,ACPT_experiment_5_30_19,3.1.0,59.952945778106674,
,,,C,U,g,n,L,D,y,L,y,,,,,5,19,119,16,2,0,2,0,,,,,1,27,63,32,,,,,,down,0.6335737598419655,1041.9406947273528,None,001,82,2019_Oct_31_1024,ACPT_experiment_5_30_19,3.1.0,59.952945778106674,
,,,C,U,g,n,R,G,g,R,c ,,,,,5,19,119,16,2,0,2,0,,,,,1,28,64,7,,,,,,up,0.48370796962990426,1043.8753095639695,None,001,82,2019_Oct_31_1024,ACPT_experiment_5_30_19,3.1.0,59.952945778106674,
,,,C,U,g,n,L,G,d,R,i,,,,,5,19,119,16,2,0,2,0,,,,,1,29,65,17,,,,,,up,0.800621180635062,1045.6433986048942,None,001,82,2019_Oct_31_1024,ACPT_experiment_5_30_19,3.1.0,59.952945778106674,
,,,C,U,g,n,R,D,d,L,c,,,,,5,19,119,16,2,0,2,0,,,,,1,30,66,0,,,,,,up,0.6171555493201595,1047.7283791224327,None,001,82,2019_Oct_31_1024,ACPT_experiment_5_30_19,3.1.0,59.952945778106674,
,,,C,U,g,n,R,U,y,L,u,,,,,5,19,119,16,2,0,2,0,,,,,1,31,67,30,,,,,,down,0.6505383485055063,1049.629872274294,None,001,82,2019_Oct_31_1024,ACPT_experiment_5_30_19,3.1.0,59.952945778106674,
,,,C,U,g,n,R,G,y,R,y,,,,,5,19,119,16,2,0,2,0,,,,,1,32,68,29,,,,,,down,0.5504349290713435,1051.5647781100997,None,001,82,2019_Oct_31_1024,ACPT_experiment_5_30_19,3.1.0,59.952945778106674,
,,,C,U,g,n,R,G,y,L,y,,,,,5,19,119,16,2,0,2,0,,,,,1,33,69,28,,,,,,down,0.5837875416036695,1053.3995769040775,None,001,82,2019_Oct_31_1024,ACPT_experiment_5_30_19,3.1.0,59.952945778106674,
,,,C,U,g,n,L,U,d,R,u,,,,,5,19,119,16,2,0,2,0,,,,,1,34,70,21,,,,,,up,0.6002087707747705,1055.2846759947424,None,001,82,2019_Oct_31_1024,ACPT_experiment_5_30_19,3.1.0,59.952945778106674,
,,,C,U,g,n,L,G,g,R,c ,,,,,5,19,119,16,2,0,2,0,,,,,1,35,71,19,,,,,,up,0.5504331178817665,1057.169249234168,None,001,82,2019_Oct_31_1024,ACPT_experiment_5_30_19,3.1.0,59.952945778106674,
,,,C,U,g,n,,,,,,,,,,5,19,119,16,3,0,3,0,0,0,0,0,,,,,,,,,,,,,,001,82,2019_Oct_31_1024,ACPT_experiment_5_30_19,3.1.0,59.952945778106674,
,,,C,U,g,n,R,U,d,R,u,,,,,5,19,119,16,3,0,3,0,,,,,0,0,0,9,,,,,,up,0.563808817154495,1062.2599528363935,None,001,82,2019_Oct_31_1024,ACPT_experiment_5_30_19,3.1.0,59.952945778106674,
,,,C,U,g,n,R,G,g,R,c ,,,,,5,19,119,16,3,0,3,0,,,,,0,1,1,7,,,,,,up,0.41699610350769944,1064.1081197829917,None,001,82,2019_Oct_31_1024,ACPT_experiment_5_30_19,3.1.0,59.952945778106674,
,,,C,U,g,n,L,U,y,R,u,,,,,5,19,119,16,3,0,3,0,,,,,0,2,2,25,,,,,,down,0.633842119059409,1065.8094712991442,None,001,82,2019_Oct_31_1024,ACPT_experiment_5_30_19,3.1.0,59.952945778106674,
,,,C,U,g,n,L,G,d,R,i,,,,,5,19,119,16,3,0,3,0,,,,,0,3,3,17,,,,,,up,0.5170723549672402,1067.727675471906,None,001,82,2019_Oct_31_1024,ACPT_experiment_5_30_19,3.1.0,59.952945778106674,
,,,C,U,g,n,L,U,y,L,u,,,,,5,19,119,16,3,0,3,0,,,,,0,4,4,24,,,,,,down,0.7672863782208879,1069.5457798476418,None,001,82,2019_Oct_31_1024,ACPT_experiment_5_30_19,3.1.0,59.952945778106674,
,,,C,U,g,n,L,D,d,L,c ,,,,,5,19,119,16,3,0,3,0,,,,,0,5,5,12,,,,,,up,0.6671923166577471,1071.5974300907692,None,001,82,2019_Oct_31_1024,ACPT_experiment_5_30_19,3.1.0,59.952945778106674,
,,,C,U,g,n,R,U,y,L,u,,,,,5,19,119,16,3,0,3,0,,,,,0,6,6,30,,,,,,down,0.6838755658391165,1073.5489868760487,None,001,82,2019_Oct_31_1024,ACPT_experiment_5_30_19,3.1.0,59.952945778106674,
,,,C,U,g,n,L,D,g,R,i,,,,,5,19,119,16,3,0,3,0,,,,,0,7,7,15,,,,,,up,0.68387345278461,1075.5172244956048,None,001,82,2019_Oct_31_1024,ACPT_experiment_5_30_19,3.1.0,59.952945778106674,
,,,C,U,g,n,R,U,g,L,u,,,,,5,19,119,16,3,0,3,0,,,,,0,8,8,10,,,,,,up,2.034961862198543,1077.485458492767,None,001,82,2019_Oct_31_1024,ACPT_experiment_5_30_19,3.1.0,59.952945778106674,
,,,C,U,g,n,L,D,g,L,i,,,,,5,19,119,16,3,0,3,0,,,,,0,9,9,14,,,,,,up,0.5671139521436999,1080.8047802956135,None,001,82,2019_Oct_31_1024,ACPT_experiment_5_30_19,3.1.0,59.952945778106674,
,,,C,U,g,n,R,D,y,L,y,,,,,5,19,119,16,3,0,3,0,,,,,0,10,10,26,,,,,,down,0.6838957908912562,1082.6562315484189,None,001,82,2019_Oct_31_1024,ACPT_experiment_5_30_19,3.1.0,59.952945778106674,
,,,C,U,g,n,L,G,d,L,i,,,,,5,19,119,16,3,0,3,0,,,,,0,11,11,16,,,,,,up,0.633817969734082,1084.6245002602082,None,001,82,2019_Oct_31_1024,ACPT_experiment_5_30_19,3.1.0,59.952945778106674,
,,,C,U,g,n,L,D,d,R,c ,,,,,5,19,119,16,3,0,3,0,,,,,0,12,12,13,,,,,,up,0.6171688314498169,1086.542673340722,None,001,82,2019_Oct_31_1024,ACPT_experiment_5_30_19,3.1.0,59.952945778106674,
,,,C,U,g,n,L,D,y,L,y,,,,,5,19,119,16,3,0,3,0,,,,,0,13,13,32,,,,,,down,0.7172324045095593,1088.4608871732053,None,001,82,2019_Oct_31_1024,ACPT_experiment_5_30_19,3.1.0,59.952945778106674,
,,,C,U,g,n,R,U,d,L,u,,,,,5,19,119,16,3,0,3,0,,,,,0,14,14,8,,,,,,up,0.6171579642541474,1090.4791642768832,None,001,82,2019_Oct_31_1024,ACPT_experiment_5_30_19,3.1.0,59.952945778106674,
,,,C,U,g,n,L,U,d,L,u,,,,,5,19,119,16,3,0,3,0,,,,,0,15,15,20,,,,,,up,0.6305421157885576,1092.400676603298,None,001,82,2019_Oct_31_1024,ACPT_experiment_5_30_19,3.1.0,59.952945778106674,
,,,C,U,g,n,L,G,y,R,y,,,,,5,19,119,16,3,0,3,0,,,,,0,16,16,35,,,,,,down,0.8173180138110183,1094.3155554160185,None,001,82,2019_Oct_31_1024,ACPT_experiment_5_30_19,3.1.0,59.952945778106674,
,,,C,U,g,n,R,D,y,R,y,,,,,5,19,119,16,3,0,3,0,,,,,0,17,17,27,,,,,,down,0.6505271794449072,1096.4172342760721,None,001,82,2019_Oct_31_1024,ACPT_experiment_5_30_19,3.1.0,59.952945778106674,
,,,C,U,g,n,L,G,g,L,c ,,,,,5,19,119,16,3,0,3,0,,,,,0,18,18,18,,,,,,up,0.6672194846323691,1098.3520854740636,None,001,82,2019_Oct_31_1024,ACPT_experiment_5_30_19,3.1.0,59.952945778106674,
,,,C,U,g,n,L,G,g,R,c ,,,,,5,19,119,16,3,0,3,0,,,,,0,19,19,19,,,,,,up,0.6338381948007736,1100.3036682198726,None,001,82,2019_Oct_31_1024,ACPT_experiment_5_30_19,3.1.0,59.952945778106674,
,,,C,U,g,n,R,G,g,L,c ,,,,,5,19,119,16,3,0,3,0,,,,,0,20,20,6,,,,,,up,0.6505160103843082,1102.2218648459675,None,001,82,2019_Oct_31_1024,ACPT_experiment_5_30_19,3.1.0,59.952945778106674,
,,,C,U,g,n,R,G,y,L,y,,,,,5,19,119,16,3,0,3,0,,,,,0,21,21,28,,,,,,down,0.650520840252284,1104.1567447212583,None,001,82,2019_Oct_31_1024,ACPT_experiment_5_30_19,3.1.0,59.952945778106674,
,,,C,U,g,n,R,D,d,L,c,,,,,5,19,119,16,3,0,3,0,,,,,0,22,22,0,,,,,,up,0.5504397589393193,1106.0916170498967,None,001,82,2019_Oct_31_1024,ACPT_experiment_5_30_19,3.1.0,59.952945778106674,
,,,C,U,g,n,R,D,g,R,i,,,,,5,19,119,16,3,0,3,0,,,,,0,23,23,3,,,,,,up,0.5671163670776878,1107.9097359152074,None,001,82,2019_Oct_31_1024,ACPT_experiment_5_30_19,3.1.0,59.952945778106674,
,,,C,U,g,n,R,U,g,R,u,,,,,5,19,119,16,3,0,3,0,,,,,0,24,24,11,,,,,,up,0.5838029368023854,1109.7612170527864,None,001,82,2019_Oct_31_1024,ACPT_experiment_5_30_19,3.1.0,59.952945778106674,
,,,C,U,g,n,L,U,g,R,u,,,,,5,19,119,16,3,0,3,0,,,,,0,25,25,23,,,,,,up,0.5668881560850423,1111.6463203695748,None,001,82,2019_Oct_31_1024,ACPT_experiment_5_30_19,3.1.0,59.952945778106674,
,,,C,U,g,n,L,G,y,L,y,,,,,5,19,119,16,3,0,3,0,,,,,0,26,26,34,,,,,,down,0.6672034857037943,1113.4975313367468,None,001,82,2019_Oct_31_1024,ACPT_experiment_5_30_19,3.1.0,59.952945778106674,
,,,C,U,g,n,R,G,d,R,i,,,,,5,19,119,16,3,0,3,0,,,,,0,27,27,5,,,,,,up,0.6004710926790722,1115.4490932537592,None,001,82,2019_Oct_31_1024,ACPT_experiment_5_30_19,3.1.0,59.952945778106674,
,,,C,U,g,n,R,D,g,L,i,,,,,5,19,119,16,3,0,3,0,,,,,0,28,28,2,,,,,,up,0.4670274372329004,1117.3339294188045,None,001,82,2019_Oct_31_1024,ACPT_experiment_5_30_19,3.1.0,59.952945778106674,
,,,C,U,g,n,R,U,y,R,u,,,,,5,19,119,16,3,0,3,0,,,,,0,29,29,31,,,,,,down,0.6505069543927675,1119.0853264564066,None,001,82,2019_Oct_31_1024,ACPT_experiment_5_30_19,3.1.0,59.952945778106674,
,,,C,U,g,n,L,U,d,R,u,,,,,5,19,119,16,3,0,3,0,,,,,0,30,30,21,,,,,,up,0.4670364932244411,1121.0201975775853,None,001,82,2019_Oct_31_1024,ACPT_experiment_5_30_19,3.1.0,59.952945778106674,
,,,C,U,g,n,R,G,d,L,i,,,,,5,19,119,16,3,0,3,0,,,,,0,31,31,4,,,,,,up,0.6338321574730799,1122.77160155811,None,001,82,2019_Oct_31_1024,ACPT_experiment_5_30_19,3.1.0,59.952945778106674,
,,,C,U,g,n,L,D,y,R,y,,,,,5,19,119,16,3,0,3,0,,,,,0,32,32,33,,,,,,down,0.5335119979863521,1124.7067147761118,None,001,82,2019_Oct_31_1024,ACPT_experiment_5_30_19,3.1.0,59.952945778106674,
,,,C,U,g,n,R,G,y,R,y,,,,,5,19,119,16,3,0,3,0,,,,,0,33,33,29,,,,,,down,0.7337294021563139,1126.5414302549761,None,001,82,2019_Oct_31_1024,ACPT_experiment_5_30_19,3.1.0,59.952945778106674,
,,,C,U,g,n,L,U,g,L,u,,,,,5,19,119,16,3,0,3,0,,,,,0,34,34,22,,,,,,up,0.5671061036118772,1128.576231222396,None,001,82,2019_Oct_31_1024,ACPT_experiment_5_30_19,3.1.0,59.952945778106674,
,,,C,U,g,n,R,D,d,R,c ,,,,,5,19,119,16,3,0,3,0,,,,,0,35,35,1,,,,,,up,0.7005950390157523,1130.4277078319865,None,001,82,2019_Oct_31_1024,ACPT_experiment_5_30_19,3.1.0,59.952945778106674,
,,,C,U,g,n,R,U,g,L,u,,,,,5,19,119,16,3,0,3,0,,,,,1,0,36,10,,,,,,up,1.0341531621816102,1132.4126287007239,None,001,82,2019_Oct_31_1024,ACPT_experiment_5_30_19,3.1.0,59.952945778106674,
,,,C,U,g,n,R,G,g,L,c ,,,,,5,19,119,16,3,0,3,0,,,,,1,1,37,6,,,,,,up,0.7339162574353395,1134.714460667412,None,001,82,2019_Oct_31_1024,ACPT_experiment_5_30_19,3.1.0,59.952945778106674,
,,,C,U,g,n,L,D,y,L,y,,,,,5,19,119,16,3,0,3,0,,,,,1,2,38,32,,,,,,down,0.7506170148699312,1136.732716338578,None,001,82,2019_Oct_31_1024,ACPT_experiment_5_30_19,3.1.0,59.952945778106674,
,,,C,U,g,n,L,U,g,R,u,,,,,5,19,119,16,3,0,3,0,,,,,1,3,39,23,,,,,,up,0.6505184253182961,1138.7676941996906,None,001,82,2019_Oct_31_1024,ACPT_experiment_5_30_19,3.1.0,59.952945778106674,
,,,C,U,g,n,L,G,d,L,i,,,,,5,19,119,16,3,0,3,0,,,,,1,4,40,16,,,,,,up,0.63382974252454,1140.7192564185825,None,001,82,2019_Oct_31_1024,ACPT_experiment_5_30_19,3.1.0,59.952945778106674,
,,,C,U,g,n,L,D,d,R,c ,,,,,5,19,119,16,3,0,3,0,,,,,1,5,41,13,,,,,,up,0.6505051432031905,1142.6374560633412,None,001,82,2019_Oct_31_1024,ACPT_experiment_5_30_19,3.1.0,59.952945778106674,
,,,C,U,g,n,L,D,g,R,i,,,,,5,19,119,16,3,0,3,0,,,,,1,6,42,15,,,,,,up,0.5337546985538211,1144.5556496707868,None,001,82,2019_Oct_31_1024,ACPT_experiment_5_30_19,3.1.0,59.952945778106674,
,,,C,U,g,n,L,U,y,L,u,,,,,5,19,119,16,3,0,3,0,,,,,1,7,43,24,,,,,,down,0.7172318007651484,1146.3737715547613,None,001,82,2019_Oct_31_1024,ACPT_experiment_5_30_19,3.1.0,59.952945778106674,
,,,C,U,g,n,L,G,y,R,y,,,,,5,19,119,16,3,0,3,0,,,,,1,8,44,35,,,,,,down,0.7172324045095593,1148.3920441304508,None,001,82,2019_Oct_31_1024,ACPT_experiment_5_30_19,3.1.0,59.952945778106674,
,,,C,U,g,n,R,G,y,R,y,,,,,5,19,119,16,3,0,3,0,,,,,1,9,45,29,,,,,,down,0.6338629478414077,1150.4102958773437,None,001,82,2019_Oct_31_1024,ACPT_experiment_5_30_19,3.1.0,59.952945778106674,
,,,C,U,g,n,L,U,g,L,u,,,,,5,19,119,16,3,0,3,0,,,,,1,10,46,22,,,,,,up,0.6004789411963429,1152.3285154452897,None,001,82,2019_Oct_31_1024,ACPT_experiment_5_30_19,3.1.0,59.952945778106674,
,,,C,U,g,n,R,D,y,R,y,,,,,5,19,119,16,3,0,3,0,,,,,1,11,47,27,,,,,,down,0.600276992583531,1154.2301966599043,None,001,82,2019_Oct_31_1024,ACPT_experiment_5_30_19,3.1.0,59.952945778106674,
,,,C,U,g,n,L,D,g,L,i,,,,,5,19,119,16,3,0,3,0,,,,,1,12,48,14,,,,,,up,0.5004129532026127,1156.1482453714852,None,001,82,2019_Oct_31_1024,ACPT_experiment_5_30_19,3.1.0,59.952945778106674,
,,,C,U,g,n,L,D,d,L,c ,,,,,5,19,119,16,3,0,3,0,,,,,1,13,49,12,,,,,,up,0.5671048961521592,1157.9329977384186,None,001,82,2019_Oct_31_1024,ACPT_experiment_5_30_19,3.1.0,59.952945778106674,
,,,C,U,g,n,R,D,d,R,c ,,,,,5,19,119,16,3,0,3,0,,,,,1,14,50,1,,,,,,up,0.6338327611883869,1159.7844707256008,None,001,82,2019_Oct_31_1024,ACPT_experiment_5_30_19,3.1.0,59.952945778106674,
,,,C,U,g,n,R,U,d,R,u,,,,,5,19,119,16,3,0,3,0,,,,,1,15,51,9,,,,,,up,0.5671154614683473,1161.702668861035,None,001,82,2019_Oct_31_1024,ACPT_experiment_5_30_19,3.1.0,59.952945778106674,
,,,C,U,g,n,R,U,y,R,u,,,,,5,19,119,16,3,0,3,0,,,,,1,16,52,31,,,,,,down,0.5501656642591115,1163.5544138298283,None,001,82,2019_Oct_31_1024,ACPT_experiment_5_30_19,3.1.0,59.952945778106674,
,,,C,U,g,n,L,G,y,L,y,,,,,5,19,119,16,3,0,3,0,,,,,1,17,53,34,,,,,,down,0.7005500609229784,1165.405622985796,None,001,82,2019_Oct_31_1024,ACPT_experiment_5_30_19,3.1.0,59.952945778106674,
,,,C,U,g,n,R,D,g,L,i,,,,,5,19,119,16,3,0,3,0,,,,,1,18,54,2,,,,,,up,0.6671932222525356,1167.407219255212,None,001,82,2019_Oct_31_1024,ACPT_experiment_5_30_19,3.1.0,59.952945778106674,
,,,C,U,g,n,L,D,y,R,y,,,,,5,19,119,16,3,0,3,0,,,,,1,19,55,33,,,,,,down,0.5504367402754724,1169.358774833032,None,001,82,2019_Oct_31_1024,ACPT_experiment_5_30_19,3.1.0,59.952945778106674,
,,,C,U,g,n,L,U,y,R,u,,,,,5,19,119,16,3,0,3,0,,,,,1,20,56,25,,,,,,down,0.733915351840551,1171.19357302328,None,001,82,2019_Oct_31_1024,ACPT_experiment_5_30_19,3.1.0,59.952945778106674,
,,,C,U,g,n,R,U,g,R,u,,,,,5,19,119,16,3,0,3,0,,,,,1,21,57,11,,,,,,up,0.5671296491927933,1173.211849221363,None,001,82,2019_Oct_31_1024,ACPT_experiment_5_30_19,3.1.0,59.952945778106674,
,,,C,U,g,n,R,D,y,L,y,,,,,5,19,119,16,3,0,3,0,,,,,1,22,58,26,,,,,,down,0.7172647042170865,1175.0633037946973,None,001,82,2019_Oct_31_1024,ACPT_experiment_5_30_19,3.1.0,59.952945778106674,
,,,C,U,g,n,L,G,d,R,i,,,,,5,19,119,16,3,0,3,0,,,,,1,23,59,17,,,,,,up,0.6004741113283671,1177.064924817154,None,001,82,2019_Oct_31_1024,ACPT_experiment_5_30_19,3.1.0,59.952945778106674,
,,,C,U,g,n,R,U,d,L,u,,,,,5,19,119,16,3,0,3,0,,,,,1,24,60,8,,,,,,up,0.567135686535039,1178.9497446814203,None,001,82,2019_Oct_31_1024,ACPT_experiment_5_30_19,3.1.0,59.952945778106674,
,,,C,U,g,n,L,U,d,R,u,,,,,5,19,119,16,3,0,3,0,,,,,1,25,61,21,,,,,,up,0.4837429861363489,1180.7845356268663,None,001,82,2019_Oct_31_1024,ACPT_experiment_5_30_19,3.1.0,59.952945778106674,
,,,C,U,g,n,L,G,g,R,c ,,,,,5,19,119,16,3,0,3,0,,,,,1,26,62,19,,,,,,up,0.4970773297100095,1182.5726411255455,None,001,82,2019_Oct_31_1024,ACPT_experiment_5_30_19,3.1.0,59.952945778106674,
,,,C,U,g,n,R,G,d,L,i,,,,,5,19,119,16,3,0,3,0,,,,,1,27,63,4,,,,,,up,0.5837993143941276,1184.3540738679003,None,001,82,2019_Oct_31_1024,ACPT_experiment_5_30_19,3.1.0,59.952945778106674,
,,,C,U,g,n,R,G,g,R,c ,,,,,5,19,119,16,3,0,3,0,,,,,1,28,64,7,,,,,,up,0.5504811146383872,1186.2055326673726,None,001,82,2019_Oct_31_1024,ACPT_experiment_5_30_19,3.1.0,59.952945778106674,
,,,C,U,g,n,R,D,d,L,c,,,,,5,19,119,16,3,0,3,0,,,,,1,29,65,0,,,,,,up,0.5170726568176178,1188.0403544032015,None,001,82,2019_Oct_31_1024,ACPT_experiment_5_30_19,3.1.0,59.952945778106674,
,,,C,U,g,n,L,G,g,L,c ,,,,,5,19,119,16,3,0,3,0,,,,,1,30,66,18,,,,,,up,0.5304371870442992,1189.8617910819012,None,001,82,2019_Oct_31_1024,ACPT_experiment_5_30_19,3.1.0,59.952945778106674,
,,,C,U,g,n,R,G,y,L,y,,,,,5,19,119,16,3,0,3,0,,,,,1,31,67,28,,,,,,down,0.6505440839682706,1191.6765604378743,None,001,82,2019_Oct_31_1024,ACPT_experiment_5_30_19,3.1.0,59.952945778106674,
,,,C,U,g,n,R,D,g,R,i,,,,,5,19,119,16,3,0,3,0,,,,,1,32,68,3,,,,,,up,0.5171115975826979,1193.6114647643408,None,001,82,2019_Oct_31_1024,ACPT_experiment_5_30_19,3.1.0,59.952945778106674,
,,,C,U,g,n,R,U,y,L,u,,,,,5,19,119,16,3,0,3,0,,,,,1,33,69,30,,,,,,down,0.6338330630678684,1195.4129012860649,None,001,82,2019_Oct_31_1024,ACPT_experiment_5_30_19,3.1.0,59.952945778106674,
,,,C,U,g,n,L,U,d,L,u,,,,,5,19,119,16,3,0,3,0,,,,,1,34,70,20,,,,,,up,0.7172251597075956,1197.331103949502,None,001,82,2019_Oct_31_1024,ACPT_experiment_5_30_19,3.1.0,59.952945778106674,
,,,C,U,g,n,R,G,d,R,i,,,,,5,19,119,16,3,0,3,0,,,,,1,35,71,5,,,,,,up,1.1675980250583962,1199.332695690915,None,001,82,2019_Oct_31_1024,ACPT_experiment_5_30_19,3.1.0,59.952945778106674,
,,,C,U,g,n,,,,,,,,,,5,19,119,16,4,0,4,0,0,0,0,0,,,,,,,,,,,,,,001,82,2019_Oct_31_1024,ACPT_experiment_5_30_19,3.1.0,59.952945778106674,
,,,C,U,g,n,L,U,d,R,u,,,,,5,19,119,16,4,0,4,0,,,,,0,0,0,21,,,,,,up,0.6805598655337235,1306.838478545149,None,001,82,2019_Oct_31_1024,ACPT_experiment_5_30_19,3.1.0,59.952945778106674,
,,,C,U,g,n,L,D,y,R,y,,,,,5,19,119,16,4,0,4,0,,,,,0,1,1,33,,,,,,down,0.5669766029313905,1308.820188159356,None,001,82,2019_Oct_31_1024,ACPT_experiment_5_30_19,3.1.0,59.952945778106674,
,,,C,U,g,n,R,G,y,L,y,,,,,5,19,119,16,4,0,4,0,,,,,0,2,2,28,,,,,,down,0.7172296877251938,1310.6715591156972,None,001,82,2019_Oct_31_1024,ACPT_experiment_5_30_19,3.1.0,59.952945778106674,
,,,C,U,g,n,R,U,y,L,u,,,,,5,19,119,16,4,0,4,0,,,,,0,3,3,30,,,,,,down,0.48373060961603187,1312.689815994323,None,001,82,2019_Oct_31_1024,ACPT_experiment_5_30_19,3.1.0,59.952945778106674,
,,,C,U,g,n,L,U,y,R,u,,,,,5,19,119,16,4,0,4,0,,,,,0,4,4,25,,,,,,down,0.43368720123544335,1314.474593114297,None,001,82,2019_Oct_31_1024,ACPT_experiment_5_30_19,3.1.0,59.952945778106674,
,,,C,U,g,n,R,G,d,L,i,,,,,5,19,119,16,4,0,4,0,,,,,0,5,5,4,,,,,,up,0.5003815591044258,1316.209322297902,None,001,82,2019_Oct_31_1024,ACPT_experiment_5_30_19,3.1.0,59.952945778106674,
,,,C,U,g,n,L,D,d,R,c ,,,,,5,19,119,16,4,0,4,0,,,,,0,6,6,13,,,,,,up,0.5337534910795512,1317.9940752685652,None,001,82,2019_Oct_31_1024,ACPT_experiment_5_30_19,3.1.0,59.952945778106674,
,,,C,U,g,n,R,D,y,R,y,,,,,5,19,119,16,4,0,4,0,,,,,0,7,7,27,,,,,,down,0.7169900058070198,1319.8291104239324,None,001,82,2019_Oct_31_1024,ACPT_experiment_5_30_19,3.1.0,59.952945778106674,
,,,C,U,g,n,L,D,g,L,i,,,,,5,19,119,16,4,0,4,0,,,,,0,8,8,14,,,,,,up,0.5671118390746415,1321.8304658039706,None,001,82,2019_Oct_31_1024,ACPT_experiment_5_30_19,3.1.0,59.952945778106674,
,,,C,U,g,n,R,D,g,R,i,,,,,5,19,119,16,4,0,4,0,,,,,0,9,9,3,,,,,,up,0.517081410944229,1323.6819384892879,None,001,82,2019_Oct_31_1024,ACPT_experiment_5_30_19,3.1.0,59.952945778106674,
,,,C,U,g,n,L,G,y,R,y,,,,,5,19,119,16,4,0,4,0,,,,,0,10,10,35,,,,,,down,0.4670316633710172,1325.4833846707334,None,001,82,2019_Oct_31_1024,ACPT_experiment_5_30_19,3.1.0,59.952945778106674,
,,,C,U,g,n,R,D,g,L,i,,,,,5,19,119,16,4,0,4,0,,,,,0,11,11,2,,,,,,up,0.5337513780250447,1327.2347811046056,None,001,82,2019_Oct_31_1024,ACPT_experiment_5_30_19,3.1.0,59.952945778106674,
,,,C,U,g,n,R,G,y,R,y,,,,,5,19,119,16,4,0,4,0,,,,,0,12,12,29,,,,,,down,0.5004214054642944,1329.0528700851573,None,001,82,2019_Oct_31_1024,ACPT_experiment_5_30_19,3.1.0,59.952945778106674,
,,,C,U,g,n,L,G,y,L,y,,,,,5,19,119,16,4,0,4,0,,,,,0,13,13,34,,,,,,down,0.5504291936085792,1330.8376541480684,None,001,82,2019_Oct_31_1024,ACPT_experiment_5_30_19,3.1.0,59.952945778106674,
,,,C,U,g,n,R,U,g,L,u,,,,,5,19,119,16,4,0,4,0,,,,,0,14,14,10,,,,,,up,0.6168814546545036,1332.6894057579193,None,001,82,2019_Oct_31_1024,ACPT_experiment_5_30_19,3.1.0,59.952945778106674,
,,,C,U,g,n,R,U,g,R,u,,,,,5,19,119,16,4,0,4,0,,,,,0,15,15,11,,,,,,up,0.7339422179502435,1334.5739454901777,None,001,82,2019_Oct_31_1024,ACPT_experiment_5_30_19,3.1.0,59.952945778106674,
,,,C,U,g,n,L,U,y,L,u,,,,,5,19,119,16,4,0,4,0,,,,,0,16,16,24,,,,,,down,0.733913540650974,1336.5922503655602,None,001,82,2019_Oct_31_1024,ACPT_experiment_5_30_19,3.1.0,59.952945778106674,
,,,C,U,g,n,L,D,d,L,c ,,,,,5,19,119,16,4,0,4,0,,,,,0,17,17,12,,,,,,up,0.6171543418749934,1338.6105238468444,None,001,82,2019_Oct_31_1024,ACPT_experiment_5_30_19,3.1.0,59.952945778106674,
,,,C,U,g,n,L,D,g,R,i,,,,,5,19,119,16,4,0,4,0,,,,,0,18,18,15,,,,,,up,0.7339120313117746,1340.4953588044154,None,001,82,2019_Oct_31_1024,ACPT_experiment_5_30_19,3.1.0,59.952945778106674,
,,,C,U,g,n,R,U,y,R,u,,,,,5,19,119,16,4,0,4,0,,,,,0,19,19,31,,,,,,down,0.6838779807731044,1342.5136368136882,None,001,82,2019_Oct_31_1024,ACPT_experiment_5_30_19,3.1.0,59.952945778106674,
,,,C,U,g,n,R,D,y,L,y,,,,,5,19,119,16,4,0,4,0,,,,,0,20,20,26,,,,,,down,0.6838755658536684,1344.4818768481782,None,001,82,2019_Oct_31_1024,ACPT_experiment_5_30_19,3.1.0,59.952945778106674,
,,,C,U,g,n,L,G,g,R,c ,,,,,5,19,119,16,4,0,4,0,,,,,0,21,21,19,,,,,,up,0.6505114823958138,1346.4501147695992,None,001,82,2019_Oct_31_1024,ACPT_experiment_5_30_19,3.1.0,59.952945778106674,
,,,C,U,g,n,L,D,y,L,y,,,,,5,19,119,16,4,0,4,0,,,,,0,22,22,32,,,,,,down,0.5837962957448326,1348.3849955504847,None,001,82,2019_Oct_31_1024,ACPT_experiment_5_30_19,3.1.0,59.952945778106674,
,,,C,U,g,n,L,U,d,L,u,,,,,5,19,119,16,4,0,4,0,,,,,0,23,23,20,,,,,,up,1.1342451106756926,1350.253149070064,None,001,82,2019_Oct_31_1024,ACPT_experiment_5_30_19,3.1.0,59.952945778106674,
,,,C,U,g,n,R,U,d,R,u,,,,,5,19,119,16,4,0,4,0,,,,,0,24,24,9,,,,,,up,0.7005826624808833,1352.671719406746,None,001,82,2019_Oct_31_1024,ACPT_experiment_5_30_19,3.1.0,59.952945778106674,
,,,C,U,g,n,L,G,g,L,c ,,,,,5,19,119,16,4,0,4,0,,,,,0,25,25,18,,,,,,up,0.6338285350648221,1354.6566656322684,None,001,82,2019_Oct_31_1024,ACPT_experiment_5_30_19,3.1.0,59.952945778106674,
,,,C,U,g,n,R,G,d,R,i,,,,,5,19,119,16,4,0,4,0,,,,,0,26,26,5,,,,,,up,0.733928935820586,1356.5748631639726,None,001,82,2019_Oct_31_1024,ACPT_experiment_5_30_19,3.1.0,59.952945778106674,
,,,C,U,g,n,L,U,g,R,u,,,,,5,19,119,16,4,0,4,0,,,,,0,27,27,23,,,,,,up,0.583787843468599,1358.5931390601763,None,001,82,2019_Oct_31_1024,ACPT_experiment_5_30_19,3.1.0,59.952945778106674,
,,,C,U,g,n,R,G,g,R,c ,,,,,5,19,119,16,4,0,4,0,,,,,0,28,28,7,,,,,,up,0.6338593254331499,1360.4612684304448,None,001,82,2019_Oct_31_1024,ACPT_experiment_5_30_19,3.1.0,59.952945778106674,
,,,C,U,g,n,R,U,d,L,u,,,,,5,19,119,16,4,0,4,0,,,,,0,29,29,8,,,,,,up,0.5837914658768568,1362.3794919226493,None,001,82,2019_Oct_31_1024,ACPT_experiment_5_30_19,3.1.0,59.952945778106674,
,,,C,U,g,n,L,G,d,L,i,,,,,5,19,119,16,4,0,4,0,,,,,0,30,30,16,,,,,,up,0.5335717675334308,1364.2478024127486,None,001,82,2019_Oct_31_1024,ACPT_experiment_5_30_19,3.1.0,59.952945778106674,
,,,C,U,g,n,R,G,g,L,c ,,,,,5,19,119,16,4,0,4,0,,,,,0,31,31,6,,,,,,up,0.5504364384105429,1366.0657667224878,None,001,82,2019_Oct_31_1024,ACPT_experiment_5_30_19,3.1.0,59.952945778106674,
,,,C,U,g,n,L,U,g,L,u,,,,,5,19,119,16,4,0,4,0,,,,,0,32,32,22,,,,,,up,0.5003885020269081,1367.9005670258048,None,001,82,2019_Oct_31_1024,ACPT_experiment_5_30_19,3.1.0,59.952945778106674,
,,,C,U,g,n,R,D,d,L,c,,,,,5,19,119,16,4,0,4,0,,,,,0,33,33,0,,,,,,up,0.5334905654599424,1369.7022664731485,None,001,82,2019_Oct_31_1024,ACPT_experiment_5_30_19,3.1.0,59.952945778106674,
,,,C,U,g,n,R,D,d,R,c ,,,,,5,19,119,16,4,0,4,0,,,,,0,34,34,1,,,,,,up,0.5671054998820182,1371.5201193941903,None,001,82,2019_Oct_31_1024,ACPT_experiment_5_30_19,3.1.0,59.952945778106674,
,,,C,U,g,n,L,G,d,R,i,,,,,5,19,119,16,4,0,4,0,,,,,0,35,35,17,,,,,,up,0.4336929366836557,1373.3715745712543,None,001,82,2019_Oct_31_1024,ACPT_experiment_5_30_19,3.1.0,59.952945778106674,
,,,C,U,g,n,R,U,y,R,u,,,,,5,19,119,16,4,0,4,0,,,,,1,0,36,31,,,,,,down,0.6671865811949829,1375.0896395232412,None,001,82,2019_Oct_31_1024,ACPT_experiment_5_30_19,3.1.0,59.952945778106674,
,,,C,U,g,n,L,D,y,R,y,,,,,5,19,119,16,4,0,4,0,,,,,1,1,37,33,,,,,,down,0.5001862515637185,1377.0747197774326,None,001,82,2019_Oct_31_1024,ACPT_experiment_5_30_19,3.1.0,59.952945778106674,
,,,C,U,g,n,L,D,y,L,y,,,,,5,19,119,16,4,0,4,0,,,,,1,2,38,32,,,,,,down,0.5172429094527615,1378.8591343558946,None,001,82,2019_Oct_31_1024,ACPT_experiment_5_30_19,3.1.0,59.952945778106674,
,,,C,U,g,n,L,G,d,R,i,,,,,5,19,119,16,4,0,4,0,,,,,1,3,39,17,,,,,,up,0.48351386954891495,1380.6942630898266,None,001,82,2019_Oct_31_1024,ACPT_experiment_5_30_19,3.1.0,59.952945778106674,
,,,C,U,g,n,R,D,d,R,c ,,,,,5,19,119,16,4,0,4,0,,,,,1,4,40,1,,,,,,up,0.5170949949388159,1382.462163464268,None,001,82,2019_Oct_31_1024,ACPT_experiment_5_30_19,3.1.0,59.952945778106674,
,,,C,U,g,n,L,G,g,L,c ,,,,,5,19,119,16,4,0,4,0,,,,,1,5,41,18,,,,,,up,0.48040223092539236,1384.2836158400169,None,001,82,2019_Oct_31_1024,ACPT_experiment_5_30_19,3.1.0,59.952945778106674,
,,,C,U,g,n,R,G,d,R,i,,,,,5,19,119,16,4,0,4,0,,,,,1,6,42,5,,,,,,up,0.45034660297096707,1386.048382539564,None,001,82,2019_Oct_31_1024,ACPT_experiment_5_30_19,3.1.0,59.952945778106674,
,,,C,U,g,n,L,D,g,R,i,,,,,5,19,119,16,4,0,4,0,,,,,1,7,43,15,,,,,,up,0.5003990673576482,1387.7830942149158,None,001,82,2019_Oct_31_1024,ACPT_experiment_5_30_19,3.1.0,59.952945778106674,
,,,C,U,g,n,R,U,g,L,u,,,,,5,19,119,16,4,0,4,0,,,,,1,8,44,10,,,,,,up,0.46704856789438054,1389.5678517135675,None,001,82,2019_Oct_31_1024,ACPT_experiment_5_30_19,3.1.0,59.952945778106674,
,,,C,U,g,n,L,U,y,L,u,,,,,5,19,119,16,4,0,4,0,,,,,1,9,45,24,,,,,,down,0.5168015808158088,1391.3362066987756,None,001,82,2019_Oct_31_1024,ACPT_experiment_5_30_19,3.1.0,59.952945778106674,
,,,C,U,g,n,L,U,g,R,u,,,,,5,19,119,16,4,0,4,0,,,,,1,10,46,23,,,,,,up,0.5337504724157043,1393.1373700314289,None,001,82,2019_Oct_31_1024,ACPT_experiment_5_30_19,3.1.0,59.952945778106674,
,,,C,U,g,n,L,U,y,R,u,,,,,5,19,119,16,4,0,4,0,,,,,1,11,47,25,,,,,,up,0.5170626952312887,1394.955489802349,None,001,82,2019_Oct_31_1024,ACPT_experiment_5_30_19,3.1.0,59.952945778106674,
,,,C,U,g,n,R,D,g,L,i,,,,,5,19,119,16,4,0,4,0,,,,,1,12,48,2,,,,,,up,1.1008728768210858,1396.7736050452659,None,001,82,2019_Oct_31_1024,ACPT_experiment_5_30_19,3.1.0,59.952945778106674,
,,,C,U,g,n,R,G,g,R,c ,,,,,5,19,119,16,4,0,4,0,,,,,1,13,49,7,,,,,,up,0.5003830684290733,1399.1588439000625,None,001,82,2019_Oct_31_1024,ACPT_experiment_5_30_19,3.1.0,59.952945778106674,
,,,C,U,g,n,L,G,y,R,y,,,,,5,19,119,16,4,0,4,0,,,,,1,14,50,35,,,,,,down,0.6338333649327978,1400.9435992856597,None,001,82,2019_Oct_31_1024,ACPT_experiment_5_30_19,3.1.0,59.952945778106674,
,,,C,U,g,n,L,U,g,L,u,,,,,5,19,119,16,4,0,4,0,,,,,1,15,51,22,,,,,,up,0.7005554945062613,1402.86179440243,None,001,82,2019_Oct_31_1024,ACPT_experiment_5_30_19,3.1.0,59.952945778106674,
,,,C,U,g,n,R,G,d,L,i,,,,,5,19,119,16,4,0,4,0,,,,,1,16,52,4,,,,,,up,0.5170669213694055,1404.8467155730468,None,001,82,2019_Oct_31_1024,ACPT_experiment_5_30_19,3.1.0,59.952945778106674,
,,,C,U,g,n,R,D,y,R,y,,,,,5,19,119,16,4,0,4,0,,,,,1,17,53,27,,,,,,down,0.6171555493347114,1406.6481508872967,None,001,82,2019_Oct_31_1024,ACPT_experiment_5_30_19,3.1.0,59.952945778106674,
,,,C,U,g,n,R,U,d,R,u,,,,,5,19,119,16,4,0,4,0,,,,,1,18,54,9,,,,,,up,0.6505163122492377,1408.5496663772792,None,001,82,2019_Oct_31_1024,ACPT_experiment_5_30_19,3.1.0,59.952945778106674,
,,,C,U,g,n,L,D,d,R,c ,,,,,5,19,119,16,4,0,4,0,,,,,1,19,55,13,,,,,,up,0.6638847667491063,1410.5045388628787,None,001,82,2019_Oct_31_1024,ACPT_experiment_5_30_19,3.1.0,59.952945778106674,
,,,C,U,g,n,R,U,d,L,u,,,,,5,19,119,16,4,0,4,0,,,,,1,20,56,8,,,,,,up,0.783957250896492,1412.452776929189,None,001,82,2019_Oct_31_1024,ACPT_experiment_5_30_19,3.1.0,59.952945778106674,
,,,C,U,g,n,R,G,g,L,c ,,,,,5,19,119,16,4,0,4,0,,,,,1,21,57,6,,,,,,up,0.5505215647281148,1414.521100158061,None,001,82,2019_Oct_31_1024,ACPT_experiment_5_30_19,3.1.0,59.952945778106674,
,,,C,U,g,n,R,G,y,R,y,,,,,5,19,119,16,4,0,4,0,,,,,1,22,58,29,,,,,,down,0.6669915755192051,1416.372747322137,None,001,82,2019_Oct_31_1024,ACPT_experiment_5_30_19,3.1.0,59.952945778106674,
,,,C,U,g,n,R,U,g,R,u,,,,,5,19,119,16,4,0,4,0,,,,,1,23,59,11,,,,,,up,0.6171473989379592,1418.3408195189259,None,001,82,2019_Oct_31_1024,ACPT_experiment_5_30_19,3.1.0,59.952945778106674,
,,,C,U,g,n,L,G,g,R,c ,,,,,5,19,119,16,4,0,4,0,,,,,1,24,60,19,,,,,,up,0.5003966524236603,1420.2423353107588,None,001,82,2019_Oct_31_1024,ACPT_experiment_5_30_19,3.1.0,59.952945778106674,
,,,C,U,g,n,L,D,d,L,c ,,,,,5,19,119,16,4,0,4,0,,,,,1,25,61,12,,,,,,up,0.6338701926288195,1422.0270629246515,None,001,82,2019_Oct_31_1024,ACPT_experiment_5_30_19,3.1.0,59.952945778106674,
,,,C,U,g,n,L,G,d,L,i,,,,,5,19,119,16,4,0,4,0,,,,,1,26,62,16,,,,,,up,0.6505108786659548,1423.9452906429797,None,001,82,2019_Oct_31_1024,ACPT_experiment_5_30_19,3.1.0,59.952945778106674,
,,,C,U,g,n,R,G,y,L,y,,,,,5,19,119,16,4,0,4,0,,,,,1,27,63,28,,,,,,down,0.5671151596034179,1425.880165688417,None,001,82,2019_Oct_31_1024,ACPT_experiment_5_30_19,3.1.0,59.952945778106674,
,,,C,U,g,n,L,U,d,L,u,,,,,5,19,119,16,4,0,4,0,,,,,1,28,64,20,,,,,,up,0.5170789960102411,1427.7316413923982,None,001,82,2019_Oct_31_1024,ACPT_experiment_5_30_19,3.1.0,59.952945778106674,
,,,C,U,g,n,R,U,y,L,u,,,,,5,19,119,16,4,0,4,0,,,,,1,29,65,30,,,,,,down,0.633814951084787,1429.5664510535717,None,001,82,2019_Oct_31_1024,ACPT_experiment_5_30_19,3.1.0,59.952945778106674,
,,,C,U,g,n,R,D,y,L,y,,,,,5,19,119,16,4,0,4,0,,,,,1,30,66,26,,,,,,down,0.6672031838534167,1431.5013076851465,None,001,82,2019_Oct_31_1024,ACPT_experiment_5_30_19,3.1.0,59.952945778106674,
,,,C,U,g,n,R,D,g,R,i,,,,,5,19,119,16,4,0,4,0,,,,,1,31,67,3,,,,,,up,0.6004828654695302,1433.4361803156498,None,001,82,2019_Oct_31_1024,ACPT_experiment_5_30_19,3.1.0,59.952945778106674,
,,,C,U,g,n,L,G,y,L,y,,,,,5,19,119,16,4,0,4,0,,,,,1,32,68,34,,,,,,down,0.7005573057103902,1435.3210312721494,None,001,82,2019_Oct_31_1024,ACPT_experiment_5_30_19,3.1.0,59.952945778106674,
,,,C,U,g,n,L,D,g,L,i,,,,,5,19,119,16,4,0,4,0,,,,,1,33,69,14,,,,,,up,0.5504361365456134,1437.3059464054386,None,001,82,2019_Oct_31_1024,ACPT_experiment_5_30_19,3.1.0,59.952945778106674,
,,,C,U,g,n,R,D,d,L,c,,,,,5,19,119,16,4,0,4,0,,,,,1,34,70,0,,,,,,up,0.5671356865204871,1439.1407222575654,None,001,82,2019_Oct_31_1024,ACPT_experiment_5_30_19,3.1.0,59.952945778106674,
,,,C,U,g,n,L,U,d,R,u,,,,,5,19,119,16,4,0,4,0,,,,,1,35,71,21,,,,,,up,0.6838719434599625,1440.9755455027334,None,001,82,2019_Oct_31_1024,ACPT_experiment_5_30_19,3.1.0,59.952945778106674,
,,,C,U,g,n,,,,,,,,,,5,19,119,16,5,0,5,0,0,0,0,0,,,,,,,,,,,,,,001,82,2019_Oct_31_1024,ACPT_experiment_5_30_19,3.1.0,59.952945778106674,
,,,C,U,g,n,R,D,g,R,i,,,,,5,19,119,16,5,0,5,0,,,,,0,0,0,3,,,,,,up,0.6672013726492878,1444.5784191499115,None,001,82,2019_Oct_31_1024,ACPT_experiment_5_30_19,3.1.0,59.952945778106674,
,,,C,U,g,n,L,D,g,L,i,,,,,5,19,119,16,5,0,5,0,,,,,0,1,1,14,,,,,,up,0.5003942374896724,1446.5299774445448,None,001,82,2019_Oct_31_1024,ACPT_experiment_5_30_19,3.1.0,59.952945778106674,
,,,C,U,g,n,R,D,y,L,y,,,,,5,19,119,16,5,0,5,0,,,,,0,2,2,26,,,,,,down,0.6002760869887425,1448.3482596195681,None,001,82,2019_Oct_31_1024,ACPT_experiment_5_30_19,3.1.0,59.952945778106674,
,,,C,U,g,n,R,D,d,L,c,,,,,5,19,119,16,5,0,5,0,,,,,0,3,3,0,,,,,,up,0.533770697467844,1450.2495915747859,None,001,82,2019_Oct_31_1024,ACPT_experiment_5_30_19,3.1.0,59.952945778106674,
,,,C,U,g,n,R,G,d,L,i,,,,,5,19,119,16,5,0,5,0,,,,,0,4,4,4,,,,,,up,0.550434627206414,1452.0677258352953,None,001,82,2019_Oct_31_1024,ACPT_experiment_5_30_19,3.1.0,59.952945778106674,
,,,C,U,g,n,L,D,d,R,c ,,,,,5,19,119,16,5,0,5,0,,,,,0,5,5,13,,,,,,up,0.6672228051611455,1453.9024977631634,None,001,82,2019_Oct_31_1024,ACPT_experiment_5_30_19,3.1.0,59.952945778106674,
,,,C,U,g,n,L,G,y,R,y,,,,,5,19,119,16,5,0,5,0,,,,,0,6,6,35,,,,,,down,0.7005539851816138,1455.854079905228,None,001,82,2019_Oct_31_1024,ACPT_experiment_5_30_19,3.1.0,59.952945778106674,
,,,C,U,g,n,R,G,d,R,i,,,,,5,19,119,16,5,0,5,0,,,,,0,7,7,5,,,,,,up,0.550422854415956,1457.8390037926438,None,001,82,2019_Oct_31_1024,ACPT_experiment_5_30_19,3.1.0,59.952945778106674,
,,,C,U,g,n,L,D,d,L,c ,,,,,5,19,119,16,5,0,5,0,,,,,0,8,8,12,,,,,,up,0.5671130465489114,1459.673798360498,None,001,82,2019_Oct_31_1024,ACPT_experiment_5_30_19,3.1.0,59.952945778106674,
,,,C,U,g,n,R,G,g,R,c ,,,,,5,19,119,16,5,0,5,0,,,,,0,9,9,7,,,,,,up,0.6002247697033454,1461.5422193337,None,001,82,2019_Oct_31_1024,ACPT_experiment_5_30_19,3.1.0,59.952945778106674,
,,,C,U,g,n,R,U,y,L,u,,,,,5,19,119,16,5,0,5,0,,,,,0,10,10,30,,,,,,down,0.5837929752015043,1463.42679468618,None,001,82,2019_Oct_31_1024,ACPT_experiment_5_30_19,3.1.0,59.952945778106674,
,,,C,U,g,n,R,U,g,L,u,,,,,5,19,119,16,5,0,5,0,,,,,0,11,11,10,,,,,,up,0.5003978598979302,1465.2949491113686,None,001,82,2019_Oct_31_1024,ACPT_experiment_5_30_19,3.1.0,59.952945778106674,
,,,C,U,g,n,L,G,d,L,i,,,,,5,19,119,16,5,0,5,0,,,,,0,12,12,16,,,,,,up,0.5004138588119531,1467.0796839700488,None,001,82,2019_Oct_31_1024,ACPT_experiment_5_30_19,3.1.0,59.952945778106674,
,,,C,U,g,n,L,G,g,R,c ,,,,,5,19,119,16,5,0,5,0,,,,,0,13,13,19,,,,,,up,0.48344715707935393,1468.898092023359,None,001,82,2019_Oct_31_1024,ACPT_experiment_5_30_19,3.1.0,59.952945778106674,
,,,C,U,g,n,L,G,g,L,c ,,,,,5,19,119,16,5,0,5,0,,,,,0,14,14,18,,,,,,up,0.4670530958828749,1470.6659030453447,None,001,82,2019_Oct_31_1024,ACPT_experiment_5_30_19,3.1.0,59.952945778106674,
,,,C,U,g,n,L,U,g,R,u,,,,,5,19,119,16,5,0,5,0,,,,,0,15,15,23,,,,,,up,0.48374117493222,1472.400595703104,None,001,82,2019_Oct_31_1024,ACPT_experiment_5_30_19,3.1.0,59.952945778106674,
,,,C,U,g,n,L,U,d,R,u,,,,,5,19,119,16,5,0,5,0,,,,,0,16,16,21,,,,,,up,0.5171067677147221,1474.1519912313815,None,001,82,2019_Oct_31_1024,ACPT_experiment_5_30_19,3.1.0,59.952945778106674,
,,,C,U,g,n,L,D,g,R,i,,,,,5,19,119,16,5,0,5,0,,,,,0,17,17,15,,,,,,up,0.616883567723562,1475.9704074350884,None,001,82,2019_Oct_31_1024,ACPT_experiment_5_30_19,3.1.0,59.952945778106674,
,,,C,U,g,n,R,G,y,R,y,,,,,5,19,119,16,5,0,5,0,,,,,0,18,18,29,,,,,,down,0.55043100482726,1477.8716545658535,None,001,82,2019_Oct_31_1024,ACPT_experiment_5_30_19,3.1.0,59.952945778106674,
,,,C,U,g,n,L,U,d,L,u,,,,,5,19,119,16,5,0,5,0,,,,,0,19,19,20,,,,,,up,0.48373694880865514,1479.706425286262,None,001,82,2019_Oct_31_1024,ACPT_experiment_5_30_19,3.1.0,59.952945778106674,
,,,C,U,g,n,R,U,g,R,u,,,,,5,19,119,16,5,0,5,0,,,,,0,20,20,11,,,,,,up,0.5670970476203365,1481.4745505511382,None,001,82,2019_Oct_31_1024,ACPT_experiment_5_30_19,3.1.0,59.952945778106674,
,,,C,U,g,n,L,D,y,L,y,,,,,5,19,119,16,5,0,5,0,,,,,0,21,21,32,,,,,,down,0.6169071133044781,1483.342930772371,None,001,82,2019_Oct_31_1024,ACPT_experiment_5_30_19,3.1.0,59.952945778106674,
,,,C,U,g,n,L,G,d,R,i,,,,,5,19,119,16,5,0,5,0,,,,,0,22,22,17,,,,,,up,0.8006737053801771,1485.244198430053,None,001,82,2019_Oct_31_1024,ACPT_experiment_5_30_19,3.1.0,59.952945778106674,
,,,C,U,g,n,R,D,g,L,i,,,,,5,19,119,16,5,0,5,0,,,,,0,23,23,2,,,,,,up,0.6004774318571435,1487.3292000782385,None,001,82,2019_Oct_31_1024,ACPT_experiment_5_30_19,3.1.0,59.952945778106674,
,,,C,U,g,n,R,D,d,R,c ,,,,,5,19,119,16,5,0,5,0,,,,,0,24,24,1,,,,,,up,0.5837890509428689,1489.2140395638125,None,001,82,2019_Oct_31_1024,ACPT_experiment_5_30_19,3.1.0,59.952945778106674,
,,,C,U,g,n,L,U,y,R,u,,,,,5,19,119,16,5,0,5,0,,,,,0,25,25,25,,,,,,down,0.7339192760991864,1491.0988760307227,None,001,82,2019_Oct_31_1024,ACPT_experiment_5_30_19,3.1.0,59.952945778106674,
,,,C,U,g,n,R,U,y,R,u,,,,,5,19,119,16,5,0,5,0,,,,,0,26,26,31,,,,,,down,0.6171531344007235,1493.1171516250615,None,001,82,2019_Oct_31_1024,ACPT_experiment_5_30_19,3.1.0,59.952945778106674,
,,,C,U,g,n,L,U,y,L,u,,,,,5,19,119,16,5,0,5,0,,,,,0,27,27,24,,,,,,down,0.6005079203605419,1495.0186487011815,None,001,82,2019_Oct_31_1024,ACPT_experiment_5_30_19,3.1.0,59.952945778106674,
,,,C,U,g,n,R,U,d,R,u,,,,,5,19,119,16,5,0,5,0,,,,,0,28,28,9,,,,,,up,0.5835403130477061,1496.937113384629,None,001,82,2019_Oct_31_1024,ACPT_experiment_5_30_19,3.1.0,59.952945778106674,
,,,C,U,g,n,R,G,y,L,y,,,,,5,19,119,16,5,0,5,0,,,,,0,29,29,28,,,,,,down,0.6171531344007235,1498.8050281278993,None,001,82,2019_Oct_31_1024,ACPT_experiment_5_30_19,3.1.0,59.952945778106674,
,,,C,U,g,n,L,D,y,R,y,,,,,5,19,119,16,5,0,5,0,,,,,0,30,30,33,,,,,,down,0.5003752199118026,1500.706554485063,None,001,82,2019_Oct_31_1024,ACPT_experiment_5_30_19,3.1.0,59.952945778106674,
,,,C,U,g,n,R,G,g,L,c ,,,,,5,19,119,16,5,0,5,0,,,,,0,31,31,6,,,,,,up,0.5837911640119273,1502.491301720278,None,001,82,2019_Oct_31_1024,ACPT_experiment_5_30_19,3.1.0,59.952945778106674,
,,,C,U,g,n,L,U,g,L,u,,,,,5,19,119,16,5,0,5,0,,,,,0,32,32,22,,,,,,up,0.5334987158566946,1504.359713033744,None,001,82,2019_Oct_31_1024,ACPT_experiment_5_30_19,3.1.0,59.952945778106674,
,,,C,U,g,n,R,U,d,L,u,,,,,5,19,119,16,5,0,5,0,,,,,0,33,33,8,,,,,,up,0.6671905054681702,1506.1775753126421,None,001,82,2019_Oct_31_1024,ACPT_experiment_5_30_19,3.1.0,59.952945778106674,
,,,C,U,g,n,L,G,y,L,y,,,,,5,19,119,16,5,0,5,0,,,,,0,34,34,34,,,,,,down,0.6504975965362974,1508.1458210825804,None,001,82,2019_Oct_31_1024,ACPT_experiment_5_30_19,3.1.0,59.952945778106674,
,,,C,U,g,n,R,D,y,R,y,,,,,5,19,119,16,5,0,5,0,,,,,0,35,35,27,,,,,,down,0.7172357250383357,1510.0973694156128,None,001,82,2019_Oct_31_1024,ACPT_experiment_5_30_19,3.1.0,59.952945778106674,
,,,C,U,g,n,L,G,d,L,i,,,,,5,19,119,16,5,0,5,0,,,,,1,0,36,16,,,,,,up,0.6505163122637896,1512.098965081299,None,001,82,2019_Oct_31_1024,ACPT_experiment_5_30_19,3.1.0,59.952945778106674,
,,,C,U,g,n,R,D,d,R,c ,,,,,5,19,119,16,5,0,5,0,,,,,1,1,37,1,,,,,,up,0.7005521739774849,1514.033841937926,None,001,82,2019_Oct_31_1024,ACPT_experiment_5_30_19,3.1.0,59.952945778106674,
,,,C,U,g,n,R,U,y,L,u,,,,,5,19,119,16,5,0,5,0,,,,,1,2,38,30,,,,,,down,0.7505880357057322,1516.0354433390748,None,001,82,2019_Oct_31_1024,ACPT_experiment_5_30_19,3.1.0,59.952945778106674,
,,,C,U,g,n,R,U,g,L,u,,,,,5,19,119,16,5,0,5,0,,,,,1,3,39,10,,,,,,up,0.7339144462457625,1518.087075772084,None,001,82,2019_Oct_31_1024,ACPT_experiment_5_30_19,3.1.0,59.952945778106674,
,,,C,U,g,n,R,G,d,R,i,,,,,5,19,119,16,5,0,5,0,,,,,1,4,40,5,,,,,,up,3.219230156202684,1520.1053574037505,None,001,82,2019_Oct_31_1024,ACPT_experiment_5_30_19,3.1.0,59.952945778106674,
,,,C,U,g,n,R,U,d,R,u,,,,,5,19,119,16,5,0,5,0,,,,,1,5,41,9,,,,,,up,0.5003948412195314,1524.6089465950063,None,001,82,2019_Oct_31_1024,ACPT_experiment_5_30_19,3.1.0,59.952945778106674,
,,,C,U,g,n,L,D,g,L,i,,,,,5,19,119,16,5,0,5,0,,,,,1,6,42,14,,,,,,up,0.5671377995895455,1526.393706508592,None,001,82,2019_Oct_31_1024,ACPT_experiment_5_30_19,3.1.0,59.952945778106674,
,,,C,U,g,n,R,G,g,L,c ,,,,,5,19,119,16,5,0,5,0,,,,,1,7,43,6,,,,,,up,0.4003360980277648,1528.2451846275071,None,001,82,2019_Oct_31_1024,ACPT_experiment_5_30_19,3.1.0,59.952945778106674,
,,,C,U,g,n,R,D,g,R,i,,,,,5,19,119,16,5,0,5,0,,,,,1,8,44,3,,,,,,up,0.6168923218501732,1529.946802087943,None,001,82,2019_Oct_31_1024,ACPT_experiment_5_30_19,3.1.0,59.952945778106674,
,,,C,U,g,n,L,D,g,R,i,,,,,5,19,119,16,5,0,5,0,,,,,1,9,45,15,,,,,,up,0.4336678817780921,1531.8480631045531,None,001,82,2019_Oct_31_1024,ACPT_experiment_5_30_19,3.1.0,59.952945778106674,
,,,C,U,g,n,L,G,g,R,c ,,,,,5,19,119,16,5,0,5,0,,,,,1,10,46,19,,,,,,up,0.4170039520395221,1533.5661011904303,None,001,82,2019_Oct_31_1024,ACPT_experiment_5_30_19,3.1.0,59.952945778106674,
,,,C,U,g,n,R,D,y,L,y,,,,,5,19,119,16,5,0,5,0,,,,,1,11,47,26,,,,,,down,0.6171401541505475,1535.26747262977,None,001,82,2019_Oct_31_1024,ACPT_experiment_5_30_19,3.1.0,59.952945778106674,
,,,C,U,g,n,R,G,y,L,y,,,,,5,19,119,16,5,0,5,0,,,,,1,12,48,28,,,,,,down,0.5501653624087339,1537.169239876297,None,001,82,2019_Oct_31_1024,ACPT_experiment_5_30_19,3.1.0,59.952945778106674,
,,,C,U,g,n,L,G,y,L,y,,,,,5,19,119,16,5,0,5,0,,,,,1,13,49,34,,,,,,down,0.5337516798899742,1539.0037694054772,None,001,82,2019_Oct_31_1024,ACPT_experiment_5_30_19,3.1.0,59.952945778106674,
,,,C,U,g,n,R,G,y,R,y,,,,,5,19,119,16,5,0,5,0,,,,,1,14,50,29,,,,,,down,0.5004014822916361,1540.8218855540035,None,001,82,2019_Oct_31_1024,ACPT_experiment_5_30_19,3.1.0,59.952945778106674,
,,,C,U,g,n,L,U,d,L,u,,,,,5,19,119,16,5,0,5,0,,,,,1,15,51,20,,,,,,up,0.517082014674088,1542.606637920937,None,001,82,2019_Oct_31_1024,ACPT_experiment_5_30_19,3.1.0,59.952945778106674,
,,,C,U,g,n,L,D,d,R,c ,,,,,5,19,119,16,5,0,5,0,,,,,1,16,52,13,,,,,,up,0.5337371903005987,1544.4247773131647,None,001,82,2019_Oct_31_1024,ACPT_experiment_5_30_19,3.1.0,59.952945778106674,
,,,C,U,g,n,L,G,d,R,i,,,,,5,19,119,16,5,0,5,0,,,,,1,17,53,17,,,,,,up,0.5504454944020836,1546.242877462777,None,001,82,2019_Oct_31_1024,ACPT_experiment_5_30_19,3.1.0,59.952945778106674,
,,,C,U,g,n,L,D,d,L,c ,,,,,5,19,119,16,5,0,5,0,,,,,1,18,54,12,,,,,,up,0.5003945393546019,1548.0776765586197,None,001,82,2019_Oct_31_1024,ACPT_experiment_5_30_19,3.1.0,59.952945778106674,
,,,C,U,g,n,R,D,g,L,i,,,,,5,19,119,16,5,0,5,0,,,,,1,19,55,2,,,,,,up,0.5170814109587809,1549.8624301330274,None,001,82,2019_Oct_31_1024,ACPT_experiment_5_30_19,3.1.0,59.952945778106674,
,,,C,U,g,n,L,D,y,L,y,,,,,5,19,119,16,5,0,5,0,,,,,1,20,56,32,,,,,,down,0.616937903672806,1551.6807699645287,None,001,82,2019_Oct_31_1024,ACPT_experiment_5_30_19,3.1.0,59.952945778106674,
,,,C,U,g,n,R,U,d,L,u,,,,,5,19,119,16,5,0,5,0,,,,,1,21,57,8,,,,,,up,0.5337791497295257,1553.5820726387028,None,001,82,2019_Oct_31_1024,ACPT_experiment_5_30_19,3.1.0,59.952945778106674,
,,,C,U,g,n,L,U,g,R,u,,,,,5,19,119,16,5,0,5,0,,,,,1,22,58,23,,,,,,up,0.6004176623246167,1555.4002391989197,None,001,82,2019_Oct_31_1024,ACPT_experiment_5_30_19,3.1.0,59.952945778106674,
,,,C,U,g,n,L,U,g,L,u,,,,,5,19,119,16,5,0,5,0,,,,,1,23,59,22,,,,,,up,0.4337004833505489,1557.2683193649718,None,001,82,2019_Oct_31_1024,ACPT_experiment_5_30_19,3.1.0,59.952945778106674,
,,,C,U,g,n,R,G,d,L,i,,,,,5,19,119,16,5,0,5,0,,,,,1,24,60,4,,,,,,up,0.5471340202202555,1559.0063754179282,None,001,82,2019_Oct_31_1024,ACPT_experiment_5_30_19,3.1.0,59.952945778106674,
,,,C,U,g,n,L,G,y,R,y,,,,,5,19,119,16,5,0,5,0,,,,,1,25,61,35,,,,,,down,0.5837984087993391,1560.837857304141,None,001,82,2019_Oct_31_1024,ACPT_experiment_5_30_19,3.1.0,59.952945778106674,
