facing_vig,person_vig,text_vig,facing_train,person_train,food_train,correct_key_train,facing_exp,person_exp,food_exp,showL_R,consistent,vig_random.thisRepN,vig_random.thisTrialN,vig_random.thisN,vig_random.thisIndex,trainTrials.thisRepN,trainTrials.thisTrialN,trainTrials.thisN,trainTrials.thisIndex,expBlock.thisRepN,expBlock.thisTrialN,expBlock.thisN,expBlock.thisIndex,breakLoop.thisRepN,breakLoop.thisTrialN,breakLoop.thisN,breakLoop.thisIndex,expTrials.thisRepN,expTrials.thisTrialN,expTrials.thisN,expTrials.thisIndex,train_resp.keys,train_resp.corr,train_resp.rt,train_resp.started,train_resp.stopped,exp_resp.keys,exp_resp.rt,exp_resp.started,exp_resp.stopped,session,participant,date,expName,psychopyVersion,frameRate,
C,D,"is allergic to gluten, meaning she can’t eat wheat products. She enjoys eating dairy products. She thinks eating insects, like crickets, is disgusting.",,,,,,,,,,0,0,0,1,,,,,,,,,,,,,,,,,,,,,,,,,,001,83,2019_Oct_31_1104,ACPT_experiment_5_30_19,3.1.0,59.95717763645452,
C,U,"did not report her food preferences, so her food preferences are unknown.",,,,,,,,,,0,1,1,2,,,,,,,,,,,,,,,,,,,,,,,,,,001,83,2019_Oct_31_1104,ACPT_experiment_5_30_19,3.1.0,59.95717763645452,
C,G,"cannot eat dairy products because she is lactose intolerant. She enjoys eating wheat products. She thinks eating insects, like crickets, is disgusting.",,,,,,,,,,0,2,2,0,,,,,,,,,,,,,,,,,,,,,,,,,,001,83,2019_Oct_31_1104,ACPT_experiment_5_30_19,3.1.0,59.95717763645452,
,,,C,U,g,n,,,,,,,,,,0,0,0,7,,,,,,,,,,,,,n,1,3.6529243003606098,303.16025663471373,None,,,,,001,83,2019_Oct_31_1104,ACPT_experiment_5_30_19,3.1.0,59.95717763645452,
,,,C,G,g,v,,,,,,,,,,0,1,1,13,,,,,,,,,,,,,b,0,1.951573086087592,310.0991326171352,None,,,,,001,83,2019_Oct_31_1104,ACPT_experiment_5_30_19,3.1.0,59.95717763645452,
,,,C,U,y,n,,,,,,,,,,0,2,2,8,,,,,,,,,,,,,n,1,1.7347795952809975,315.3366531591455,None,,,,,001,83,2019_Oct_31_1104,ACPT_experiment_5_30_19,3.1.0,59.95717763645452,
,,,C,G,g,v,,,,,,,,,,0,3,3,19,,,,,,,,,,,,,v,1,1.5679314063017955,320.3573207426816,None,,,,,001,83,2019_Oct_31_1104,ACPT_experiment_5_30_19,3.1.0,59.95717763645452,
,,,C,D,g,b,,,,,,,,,,0,4,4,1,,,,,,,,,,,,,b,1,1.1676451162347803,325.2111787761387,None,,,,,001,83,2019_Oct_31_1104,ACPT_experiment_5_30_19,3.1.0,59.95717763645452,
,,,C,G,y,b,,,,,,,,,,0,5,5,5,,,,,,,,,,,,,b,1,2.535136039106874,329.681678884197,None,,,,,001,83,2019_Oct_31_1104,ACPT_experiment_5_30_19,3.1.0,59.95717763645452,
,,,C,U,d,n,,,,,,,,,,0,6,6,6,,,,,,,,,,,,,n,1,1.3844730197888566,335.5027460784477,None,,,,,001,83,2019_Oct_31_1104,ACPT_experiment_5_30_19,3.1.0,59.95717763645452,
,,,C,G,d,b,,,,,,,,,,0,7,7,12,,,,,,,,,,,,,b,1,2.3683080751798116,340.19008797593415,None,,,,,001,83,2019_Oct_31_1104,ACPT_experiment_5_30_19,3.1.0,59.95717763645452,
,,,C,D,d,v,,,,,,,,,,0,8,8,0,,,,,,,,,,,,,v,1,3.436122659171815,345.8443383753038,None,,,,,001,83,2019_Oct_31_1104,ACPT_experiment_5_30_19,3.1.0,59.95717763645452,
,,,C,D,d,v,,,,,,,,,,0,9,9,9,,,,,,,,,,,,,v,1,1.117581482802052,352.549685696722,None,,,,,001,83,2019_Oct_31_1104,ACPT_experiment_5_30_19,3.1.0,59.95717763645452,
,,,C,D,g,b,,,,,,,,,,0,10,10,10,,,,,,,,,,,,,b,1,1.0975737791741267,356.9732090569596,None,,,,,001,83,2019_Oct_31_1104,ACPT_experiment_5_30_19,3.1.0,59.95717763645452,
,,,C,U,d,n,,,,,,,,,,0,11,11,15,,,,,,,,,,,,,n,1,1.1675669328251388,361.3567656104133,None,,,,,001,83,2019_Oct_31_1104,ACPT_experiment_5_30_19,3.1.0,59.95717763645452,
,,,C,D,d,v,,,,,,,,,,0,12,12,18,,,,,,,,,,,,,v,1,2.481993368608528,365.830294947591,None,,,,,001,83,2019_Oct_31_1104,ACPT_experiment_5_30_19,3.1.0,59.95717763645452,
,,,C,U,g,n,,,,,,,,,,0,13,13,16,,,,,,,,,,,,,n,1,1.968291955490713,371.598227923605,None,,,,,001,83,2019_Oct_31_1104,ACPT_experiment_5_30_19,3.1.0,59.95717763645452,
,,,C,D,y,b,,,,,,,,,,0,14,14,2,,,,,,,,,,,,,b,1,1.9182114175491733,376.85242869613285,None,,,,,001,83,2019_Oct_31_1104,ACPT_experiment_5_30_19,3.1.0,59.95717763645452,
,,,C,U,y,n,,,,,,,,,,0,15,15,17,,,,,,,,,,,,,n,1,1.2176568286377005,382.05659481442126,None,,,,,001,83,2019_Oct_31_1104,ACPT_experiment_5_30_19,3.1.0,59.95717763645452,
,,,C,G,y,b,,,,,,,,,,0,16,16,14,,,,,,,,,,,,,b,1,1.5343460547883296,386.5771051255724,None,,,,,001,83,2019_Oct_31_1104,ACPT_experiment_5_30_19,3.1.0,59.95717763645452,
,,,C,G,g,v,,,,,,,,,,0,17,17,4,,,,,,,,,,,,,v,1,2.0683618677576305,391.38066920153506,None,,,,,001,83,2019_Oct_31_1104,ACPT_experiment_5_30_19,3.1.0,59.95717763645452,
,,,C,G,d,b,,,,,,,,,,0,18,18,3,,,,,,,,,,,,,b,1,1.9182135306036798,396.7182813901745,None,,,,,001,83,2019_Oct_31_1104,ACPT_experiment_5_30_19,3.1.0,59.95717763645452,
,,,C,D,y,b,,,,,,,,,,0,19,19,11,,,,,,,,,,,,,b,1,1.6679952812264673,401.922453847641,None,,,,,001,83,2019_Oct_31_1104,ACPT_experiment_5_30_19,3.1.0,59.95717763645452,
,,,C,U,g,n,,,,,,,,,,1,0,20,16,,,,,,,,,,,,,n,1,1.2343596991413506,406.87637213362905,None,,,,,001,83,2019_Oct_31_1104,ACPT_experiment_5_30_19,3.1.0,59.95717763645452,
,,,C,G,d,b,,,,,,,,,,1,1,21,3,,,,,,,,,,,,,b,1,2.635436577271321,411.4133724994899,None,,,,,001,83,2019_Oct_31_1104,ACPT_experiment_5_30_19,3.1.0,59.95717763645452,
,,,C,D,d,v,,,,,,,,,,1,2,22,0,,,,,,,,,,,,,v,1,1.6346465929527767,417.3347480804223,None,,,,,001,83,2019_Oct_31_1104,ACPT_experiment_5_30_19,3.1.0,59.95717763645452,
,,,C,G,g,v,,,,,,,,,,1,3,23,4,,,,,,,,,,,,,v,1,1.7180459344090195,422.2553409218526,None,,,,,001,83,2019_Oct_31_1104,ACPT_experiment_5_30_19,3.1.0,59.95717763645452,
,,,C,G,d,b,,,,,,,,,,1,4,24,12,,,,,,,,,,,,,b,1,1.7847644415887771,427.24266313764383,None,,,,,001,83,2019_Oct_31_1104,ACPT_experiment_5_30_19,3.1.0,59.95717763645452,
,,,C,U,g,n,,,,,,,,,,1,5,25,7,,,,,,,,,,,,,n,1,0.934061817402835,432.3134040143341,None,,,,,001,83,2019_Oct_31_1104,ACPT_experiment_5_30_19,3.1.0,59.95717763645452,
,,,C,U,d,n,,,,,,,,,,1,6,26,6,,,,,,,,,,,,,n,1,1.4178226136573358,436.51671403956425,None,,,,,001,83,2019_Oct_31_1104,ACPT_experiment_5_30_19,3.1.0,59.95717763645452,
,,,C,G,g,v,,,,,,,,,,1,7,27,19,,,,,,,,,,,,,v,1,2.4186470107379137,441.22048109048046,None,,,,,001,83,2019_Oct_31_1104,ACPT_experiment_5_30_19,3.1.0,59.95717763645452,
,,,C,D,y,b,,,,,,,,,,1,8,28,11,,,,,,,,,,,,,b,1,1.3510920318221906,446.9250354089163,None,,,,,001,83,2019_Oct_31_1104,ACPT_experiment_5_30_19,3.1.0,59.95717763645452,
,,,C,D,d,v,,,,,,,,,,1,9,29,9,,,,,,,,,,,,,v,1,1.981609394570114,451.5820777704357,None,,,,,001,83,2019_Oct_31_1104,ACPT_experiment_5_30_19,3.1.0,59.95717763645452,
,,,C,U,d,n,,,,,,,,,,1,10,30,15,,,,,,,,,,,,,n,1,1.6847063021268696,456.8496246593422,None,,,,,001,83,2019_Oct_31_1104,ACPT_experiment_5_30_19,3.1.0,59.95717763645452,
,,,C,G,y,b,,,,,,,,,,1,11,31,5,,,,,,,,,,,,,b,1,1.6346553470793879,461.82026181474794,None,,,,,001,83,2019_Oct_31_1104,ACPT_experiment_5_30_19,3.1.0,59.95717763645452,
,,,C,G,g,v,,,,,,,,,,1,12,32,13,,,,,,,,,,,,,v,1,2.118401050014654,466.7241548043239,None,,,,,001,83,2019_Oct_31_1104,ACPT_experiment_5_30_19,3.1.0,59.95717763645452,
,,,C,U,y,n,,,,,,,,,,1,13,33,8,,,,,,,,,,,,,n,1,1.184287311596563,472.1284921412007,None,,,,,001,83,2019_Oct_31_1104,ACPT_experiment_5_30_19,3.1.0,59.95717763645452,
,,,C,D,y,b,,,,,,,,,,1,14,34,2,,,,,,,,,,,,,b,1,1.2840967131633079,476.6657131713873,None,,,,,001,83,2019_Oct_31_1104,ACPT_experiment_5_30_19,3.1.0,59.95717763645452,
,,,C,G,y,b,,,,,,,,,,1,15,35,14,,,,,,,,,,,,,b,1,2.5854073566006264,481.23575884981256,None,,,,,001,83,2019_Oct_31_1104,ACPT_experiment_5_30_19,3.1.0,59.95717763645452,
,,,C,U,y,n,,,,,,,,,,1,16,36,17,,,,,,,,,,,,,n,1,1.0008099074912025,487.10711547354003,None,,,,,001,83,2019_Oct_31_1104,ACPT_experiment_5_30_19,3.1.0,59.95717763645452,
,,,C,D,g,b,,,,,,,,,,1,17,37,10,,,,,,,,,,,,,b,1,1.550999721075641,491.410798484867,None,,,,,001,83,2019_Oct_31_1104,ACPT_experiment_5_30_19,3.1.0,59.95717763645452,
,,,C,D,d,v,,,,,,,,,,1,18,38,18,,,,,,,,,,,,,v,1,1.484438486280851,496.2311523688695,None,,,,,001,83,2019_Oct_31_1104,ACPT_experiment_5_30_19,3.1.0,59.95717763645452,
,,,C,D,g,b,,,,,,,,,,1,19,39,1,,,,,,,,,,,,,b,1,1.3844549078057753,500.98486562719336,None,,,,,001,83,2019_Oct_31_1104,ACPT_experiment_5_30_19,3.1.0,59.95717763645452,
,,,C,G,y,b,,,,,,,,,,2,0,40,14,,,,,,,,,,,,,b,1,1.3842988428805256,505.672052063499,None,,,,,001,83,2019_Oct_31_1104,ACPT_experiment_5_30_19,3.1.0,59.95717763645452,
,,,C,G,g,v,,,,,,,,,,2,1,41,4,,,,,,,,,,,,,v,1,2.7689116268156795,510.342329756415,None,,,,,001,83,2019_Oct_31_1104,ACPT_experiment_5_30_19,3.1.0,59.95717763645452,
,,,C,G,g,v,,,,,,,,,,2,2,42,13,,,,,,,,,,,,,v,1,1.4845568178861868,516.3804657435976,None,,,,,001,83,2019_Oct_31_1104,ACPT_experiment_5_30_19,3.1.0,59.95717763645452,
,,,C,D,y,b,,,,,,,,,,2,3,43,11,,,,,,,,,,,,,b,1,1.11757091745676,521.1509546222369,None,,,,,001,83,2019_Oct_31_1104,ACPT_experiment_5_30_19,3.1.0,59.95717763645452,
,,,C,D,g,b,,,,,,,,,,2,4,44,10,,,,,,,,,,,,,b,1,1.8982323912350694,525.5744752656756,None,,,,,001,83,2019_Oct_31_1104,ACPT_experiment_5_30_19,3.1.0,59.95717763645452,
,,,C,U,y,n,,,,,,,,,,2,5,45,17,,,,,,,,,,,,,n,1,1.117571521201171,530.7586261336546,None,,,,,001,83,2019_Oct_31_1104,ACPT_experiment_5_30_19,3.1.0,59.95717763645452,
,,,C,D,y,b,,,,,,,,,,2,6,46,2,,,,,,,,,,,,,b,1,1.1840071795886615,535.1791030583845,None,,,,,001,83,2019_Oct_31_1104,ACPT_experiment_5_30_19,3.1.0,59.95717763645452,
,,,C,D,d,v,,,,,,,,,,2,7,47,9,,,,,,,,,,,,,v,1,2.7355529769556597,539.6323527103377,None,,,,,001,83,2019_Oct_31_1104,ACPT_experiment_5_30_19,3.1.0,59.95717763645452,
,,,C,U,d,n,,,,,,,,,,2,8,48,6,,,,,,,,,,,,,n,1,1.2009494301310042,545.6538700477249,None,,,,,001,83,2019_Oct_31_1104,ACPT_experiment_5_30_19,3.1.0,59.95717763645452,
,,,C,D,d,v,,,,,,,,,,2,9,49,0,,,,,,,,,,,,,v,1,1.4144972536305431,550.1607586385071,None,,,,,001,83,2019_Oct_31_1104,ACPT_experiment_5_30_19,3.1.0,59.95717763645452,
,,,C,U,y,n,,,,,,,,,,2,10,50,8,,,,,,,,,,,,,n,1,1.0508457692194497,554.8611997256667,None,,,,,001,83,2019_Oct_31_1104,ACPT_experiment_5_30_19,3.1.0,59.95717763645452,
,,,C,D,g,b,,,,,,,,,,2,11,51,1,,,,,,,,,,,,,b,1,1.5676443313714117,559.2149557282683,None,,,,,001,83,2019_Oct_31_1104,ACPT_experiment_5_30_19,3.1.0,59.95717763645452,
,,,C,U,g,n,,,,,,,,,,2,12,52,7,,,,,,,,,,,,,n,1,1.6846927181468345,564.0685499305109,None,,,,,001,83,2019_Oct_31_1104,ACPT_experiment_5_30_19,3.1.0,59.95717763645452,
,,,C,G,y,b,,,,,,,,,,2,13,53,5,,,,,,,,,,,,,b,1,1.2009901821002131,569.0391572011431,None,,,,,001,83,2019_Oct_31_1104,ACPT_experiment_5_30_19,3.1.0,59.95717763645452,
,,,C,G,d,b,,,,,,,,,,2,14,54,12,,,,,,,,,,,,,b,1,1.984913322085049,573.5427910686121,None,,,,,001,83,2019_Oct_31_1104,ACPT_experiment_5_30_19,3.1.0,59.95717763645452,
,,,C,U,g,n,,,,,,,,,,2,15,55,16,,,,,,,,,,,,,n,1,1.6847235085151624,578.8136503372953,None,,,,,001,83,2019_Oct_31_1104,ACPT_experiment_5_30_19,3.1.0,59.95717763645452,
,,,C,G,d,b,,,,,,,,,,2,16,56,3,,,,,,,,,,,,,b,1,2.118407691072207,583.7842832665774,None,,,,,001,83,2019_Oct_31_1104,ACPT_experiment_5_30_19,3.1.0,59.95717763645452,
,,,C,D,d,v,,,,,,,,,,2,17,57,18,,,,,,,,,,,,,v,1,1.984926302335225,589.1886160754657,None,,,,,001,83,2019_Oct_31_1104,ACPT_experiment_5_30_19,3.1.0,59.95717763645452,
,,,C,U,d,n,,,,,,,,,,2,18,58,15,,,,,,,,,,,,,n,1,1.2343358517100569,594.45947202362,None,,,,,001,83,2019_Oct_31_1104,ACPT_experiment_5_30_19,3.1.0,59.95717763645452,
,,,C,G,g,v,,,,,,,,,,2,19,59,19,,,,,,,,,,,,,v,1,2.8022406937670894,598.9797619723249,None,,,,,001,83,2019_Oct_31_1104,ACPT_experiment_5_30_19,3.1.0,59.95717763645452,
,,,C,U,g,n,,,,,,,,,,3,0,60,7,,,,,,,,,,,,,n,1,0.9007279205980012,605.0679413678881,None,,,,,001,83,2019_Oct_31_1104,ACPT_experiment_5_30_19,3.1.0,59.95717763645452,
,,,C,G,g,v,,,,,,,,,,3,1,61,13,,,,,,,,,,,,,v,1,2.7684905232017627,609.2716685724445,None,,,,,001,83,2019_Oct_31_1104,ACPT_experiment_5_30_19,3.1.0,59.95717763645452,
,,,C,G,d,b,,,,,,,,,,3,2,62,3,,,,,,,,,,,,,b,1,2.2017877130710986,615.3094311509194,None,,,,,001,83,2019_Oct_31_1104,ACPT_experiment_5_30_19,3.1.0,59.95717763645452,
,,,C,D,g,b,,,,,,,,,,3,3,63,1,,,,,,,,,,,,,b,1,1.5512321581918513,620.7971871486952,None,,,,,001,83,2019_Oct_31_1104,ACPT_experiment_5_30_19,3.1.0,59.95717763645452,
,,,C,U,d,n,,,,,,,,,,3,4,64,6,,,,,,,,,,,,,n,1,1.1342617133341264,625.6343468396371,None,,,,,001,83,2019_Oct_31_1104,ACPT_experiment_5_30_19,3.1.0,59.95717763645452,
,,,C,U,y,n,,,,,,,,,,3,5,65,8,,,,,,,,,,,,,n,1,1.117299841454951,630.0548183307692,None,,,,,001,83,2019_Oct_31_1104,ACPT_experiment_5_30_19,3.1.0,59.95717763645452,
,,,C,D,y,b,,,,,,,,,,3,6,66,2,,,,,,,,,,,,,b,1,1.4678729649604065,634.4580384601868,None,,,,,001,83,2019_Oct_31_1104,ACPT_experiment_5_30_19,3.1.0,59.95717763645452,
,,,C,U,g,n,,,,,,,,,,3,7,67,16,,,,,,,,,,,,,n,1,1.050836713227909,639.2118748799985,None,,,,,001,83,2019_Oct_31_1104,ACPT_experiment_5_30_19,3.1.0,59.95717763645452,
,,,C,G,y,b,,,,,,,,,,3,8,68,5,,,,,,,,,,,,,b,1,1.1840289139654487,643.5655919418496,None,,,,,001,83,2019_Oct_31_1104,ACPT_experiment_5_30_19,3.1.0,59.95717763645452,
,,,C,D,d,v,,,,,,,,,,3,9,69,18,,,,,,,,,,,,,v,1,1.150952509182389,648.0355683117523,None,,,,,001,83,2019_Oct_31_1104,ACPT_experiment_5_30_19,3.1.0,59.95717763645452,
,,,C,U,y,n,,,,,,,,,,3,10,70,17,,,,,,,,,,,,,n,1,0.9838918062596349,652.4893649455771,None,,,,,001,83,2019_Oct_31_1104,ACPT_experiment_5_30_19,3.1.0,59.95717763645452,
,,,C,G,g,v,,,,,,,,,,3,11,71,4,,,,,,,,,,,,,v,1,1.918210511939833,656.7591984723113,None,,,,,001,83,2019_Oct_31_1104,ACPT_experiment_5_30_19,3.1.0,59.95717763645452,
,,,C,U,d,n,,,,,,,,,,3,12,72,15,,,,,,,,,,,,,n,1,1.1008909888041671,661.9633516103349,None,,,,,001,83,2019_Oct_31_1104,ACPT_experiment_5_30_19,3.1.0,59.95717763645452,
,,,C,D,d,v,,,,,,,,,,3,13,73,9,,,,,,,,,,,,,v,1,1.4678424764570082,666.3501951867947,None,,,,,001,83,2019_Oct_31_1104,ACPT_experiment_5_30_19,3.1.0,59.95717763645452,
,,,C,G,d,b,,,,,,,,,,3,14,74,12,,,,,,,,,,,,,b,1,2.618773854992469,671.1039790818613,None,,,,,001,83,2019_Oct_31_1104,ACPT_experiment_5_30_19,3.1.0,59.95717763645452,
,,,C,D,d,v,,,,,,,,,,3,15,75,0,,,,,,,,,,,,,v,1,1.1676073829294182,677.0086952610582,None,,,,,001,83,2019_Oct_31_1104,ACPT_experiment_5_30_19,3.1.0,59.95717763645452,
,,,C,G,y,b,,,,,,,,,,3,16,76,14,,,,,,,,,,,,,b,1,1.0172157414926914,681.4958822407207,None,,,,,001,83,2019_Oct_31_1104,ACPT_experiment_5_30_19,3.1.0,59.95717763645452,
,,,C,D,y,b,,,,,,,,,,3,17,77,11,,,,,,,,,,,,,b,1,0.967440390450065,685.7990547959926,None,,,,,001,83,2019_Oct_31_1104,ACPT_experiment_5_30_19,3.1.0,59.95717763645452,
,,,C,D,g,b,,,,,,,,,,3,18,78,10,,,,,,,,,,,,,b,1,2.268243596496177,690.0693616492063,None,,,,,001,83,2019_Oct_31_1104,ACPT_experiment_5_30_19,3.1.0,59.95717763645452,
,,,C,G,g,v,,,,,,,,,,3,19,79,19,,,,,,,,,,,,,v,1,1.434504655393539,695.6235484755161,None,,,,,001,83,2019_Oct_31_1104,ACPT_experiment_5_30_19,3.1.0,59.95717763645452,
,,,C,U,g,n,,,,,,,,,,4,0,80,7,,,,,,,,,,,,,n,1,1.0141635705222143,700.3639941027359,None,,,,,001,83,2019_Oct_31_1104,ACPT_experiment_5_30_19,3.1.0,59.95717763645452,
,,,C,D,d,v,,,,,,,,,,4,1,81,18,,,,,,,,,,,,,v,1,2.518722356588114,704.6640987899882,None,,,,,001,83,2019_Oct_31_1104,ACPT_experiment_5_30_19,3.1.0,59.95717763645452,
,,,C,D,y,b,,,,,,,,,,4,2,82,11,,,,,,,,,,,,,b,1,0.984143864698126,710.4520503368258,None,,,,,001,83,2019_Oct_31_1104,ACPT_experiment_5_30_19,3.1.0,59.95717763645452,
,,,C,G,g,v,,,,,,,,,,4,3,83,13,,,,,,,,,,,,,v,1,2.2515799686370883,714.7390470802784,None,,,,,001,83,2019_Oct_31_1104,ACPT_experiment_5_30_19,3.1.0,59.95717763645452,
,,,C,D,d,v,,,,,,,,,,4,4,84,9,,,,,,,,,,,,,v,1,1.9348964779346716,720.2765597133985,None,,,,,001,83,2019_Oct_31_1104,ACPT_experiment_5_30_19,3.1.0,59.95717763645452,
,,,C,U,g,n,,,,,,,,,,4,5,85,16,,,,,,,,,,,,,n,1,1.2343120042642113,725.497412703262,None,,,,,001,83,2019_Oct_31_1104,ACPT_experiment_5_30_19,3.1.0,59.95717763645452,
,,,C,G,d,b,,,,,,,,,,4,6,86,3,,,,,,,,,,,,,b,1,3.202292433663388,730.0346276961209,None,,,,,001,83,2019_Oct_31_1104,ACPT_experiment_5_30_19,3.1.0,59.95717763645452,
,,,C,G,y,b,,,,,,,,,,4,7,87,5,,,,,,,,,,,,,b,1,1.084234303853009,736.5061623002694,None,,,,,001,83,2019_Oct_31_1104,ACPT_experiment_5_30_19,3.1.0,59.95717763645452,
,,,C,D,g,b,,,,,,,,,,4,8,88,1,,,,,,,,,,,,,b,1,1.6513358794763917,740.8763262499415,None,,,,,001,83,2019_Oct_31_1104,ACPT_experiment_5_30_19,3.1.0,59.95717763645452,
,,,C,U,d,n,,,,,,,,,,4,9,89,15,,,,,,,,,,,,,n,1,1.5345682284387294,745.8136095853406,None,,,,,001,83,2019_Oct_31_1104,ACPT_experiment_5_30_19,3.1.0,59.95717763645452,
,,,C,D,g,b,,,,,,,,,,4,10,90,10,,,,,,,,,,,,,b,1,1.9850346723687835,750.6341467022285,None,,,,,001,83,2019_Oct_31_1104,ACPT_experiment_5_30_19,3.1.0,59.95717763645452,
,,,C,G,y,b,,,,,,,,,,4,11,91,14,,,,,,,,,,,,,b,1,0.8840491993905744,755.9049932925263,None,,,,,001,83,2019_Oct_31_1104,ACPT_experiment_5_30_19,3.1.0,59.95717763645452,
,,,C,D,y,b,,,,,,,,,,4,12,92,2,,,,,,,,,,,,,b,1,0.616897755448008,760.091939443184,None,,,,,001,83,2019_Oct_31_1104,ACPT_experiment_5_30_19,3.1.0,59.95717763645452,
,,,C,U,d,n,,,,,,,,,,4,13,93,6,,,,,,,,,,,,,n,1,0.800646537420107,763.9947861638939,None,,,,,001,83,2019_Oct_31_1104,ACPT_experiment_5_30_19,3.1.0,59.95717763645452,
,,,C,D,d,v,,,,,,,,,,4,14,94,0,,,,,,,,,,,,,v,1,1.3341322730120737,768.0983375010983,None,,,,,001,83,2019_Oct_31_1104,ACPT_experiment_5_30_19,3.1.0,59.95717763645452,
,,,C,U,y,n,,,,,,,,,,4,15,95,8,,,,,,,,,,,,,n,1,1.0008962412830442,772.7184205505764,None,,,,,001,83,2019_Oct_31_1104,ACPT_experiment_5_30_19,3.1.0,59.95717763645452,
,,,C,G,g,v,,,,,,,,,,4,16,96,4,,,,,,,,,,,,,v,1,3.5690818190778373,777.0222735126736,None,,,,,001,83,2019_Oct_31_1104,ACPT_experiment_5_30_19,3.1.0,59.95717763645452,
,,,C,U,y,n,,,,,,,,,,4,17,97,17,,,,,,,,,,,,,n,1,1.1008915925340261,783.8773169753986,None,,,,,001,83,2019_Oct_31_1104,ACPT_experiment_5_30_19,3.1.0,59.95717763645452,
,,,C,G,g,v,,,,,,,,,,4,18,98,19,,,,,,,,,,,,,v,1,2.451722509926185,788.2811088397284,None,,,,,001,83,2019_Oct_31_1104,ACPT_experiment_5_30_19,3.1.0,59.95717763645452,
,,,C,G,d,b,,,,,,,,,,4,19,99,12,,,,,,,,,,,,,b,1,1.2676957090297947,794.0020674828265,None,,,,,001,83,2019_Oct_31_1104,ACPT_experiment_5_30_19,3.1.0,59.95717763645452,
,,,C,D,y,b,,,,,,,,,,5,0,100,2,,,,,,,,,,,,,b,1,1.334205324674258,798.5726202967635,None,,,,,001,83,2019_Oct_31_1104,ACPT_experiment_5_30_19,3.1.0,59.95717763645452,
,,,C,D,d,v,,,,,,,,,,5,1,101,18,,,,,,,,,,,,,v,1,0.9507936670852359,803.1760324735806,None,,,,,001,83,2019_Oct_31_1104,ACPT_experiment_5_30_19,3.1.0,59.95717763645452,
,,,C,G,d,b,,,,,,,,,,5,2,102,3,,,,,,,,,,,,,b,1,1.2340469655755442,807.429733959114,None,,,,,001,83,2019_Oct_31_1104,ACPT_experiment_5_30_19,3.1.0,59.95717763645452,
,,,C,G,g,v,,,,,,,,,,5,3,103,19,,,,,,,,,,,,,v,1,1.4678669276472647,811.9330246045138,None,,,,,001,83,2019_Oct_31_1104,ACPT_experiment_5_30_19,3.1.0,59.95717763645452,
,,,C,D,g,b,,,,,,,,,,5,4,104,1,,,,,,,,,,,,,b,1,1.2510366091446485,816.6868341582303,None,,,,,001,83,2019_Oct_31_1104,ACPT_experiment_5_30_19,3.1.0,59.95717763645452,
,,,C,U,y,n,,,,,,,,,,5,5,105,8,,,,,,,,,,,,,n,1,0.8669735238945577,821.2408495244308,None,,,,,001,83,2019_Oct_31_1104,ACPT_experiment_5_30_19,3.1.0,59.95717763645452,
,,,C,D,d,v,,,,,,,,,,5,6,106,9,,,,,,,,,,,,,v,1,1.2510094411700265,825.3937877106509,None,,,,,001,83,2019_Oct_31_1104,ACPT_experiment_5_30_19,3.1.0,59.95717763645452,
,,,C,G,y,b,,,,,,,,,,5,7,107,14,,,,,,,,,,,,,b,1,0.9837348357395967,829.9477949264692,None,,,,,001,83,2019_Oct_31_1104,ACPT_experiment_5_30_19,3.1.0,59.95717763645452,
,,,C,U,y,n,,,,,,,,,,5,8,108,17,,,,,,,,,,,,,n,1,0.9340926077857148,834.2174956319941,None,,,,,001,83,2019_Oct_31_1104,ACPT_experiment_5_30_19,3.1.0,59.95717763645452,
,,,C,D,g,b,,,,,,,,,,5,9,109,10,,,,,,,,,,,,,b,1,1.5312359254749026,838.4742275541212,None,,,,,001,83,2019_Oct_31_1104,ACPT_experiment_5_30_19,3.1.0,59.95717763645452,
,,,C,G,g,v,,,,,,,,,,5,10,110,13,,,,,,,,,,,,,v,1,1.8682006107264897,843.2913994646078,None,,,,,001,83,2019_Oct_31_1104,ACPT_experiment_5_30_19,3.1.0,59.95717763645452,
,,,C,G,d,b,,,,,,,,,,5,11,111,12,,,,,,,,,,,,,b,1,1.1342553741269512,848.4288362085063,None,,,,,001,83,2019_Oct_31_1104,ACPT_experiment_5_30_19,3.1.0,59.95717763645452,
,,,C,G,g,v,,,,,,,,,,5,12,112,4,,,,,,,,,,,,,v,1,2.5153773752390407,852.869048553388,None,,,,,001,83,2019_Oct_31_1104,ACPT_experiment_5_30_19,3.1.0,59.95717763645452,
,,,C,U,d,n,,,,,,,,,,5,13,113,15,,,,,,,,,,,,,n,1,0.9841194135224214,858.6703501408483,None,,,,,001,83,2019_Oct_31_1104,ACPT_experiment_5_30_19,3.1.0,59.95717763645452,
,,,C,U,g,n,,,,,,,,,,5,14,114,16,,,,,,,,,,,,,n,1,1.2340686999668833,862.9406901993643,None,,,,,001,83,2019_Oct_31_1104,ACPT_experiment_5_30_19,3.1.0,59.95717763645452,
,,,C,G,y,b,,,,,,,,,,5,15,115,5,,,,,,,,,,,,,b,1,1.1676113071880536,867.4606924693944,None,,,,,001,83,2019_Oct_31_1104,ACPT_experiment_5_30_19,3.1.0,59.95717763645452,
,,,C,D,y,b,,,,,,,,,,5,16,116,11,,,,,,,,,,,,,b,1,0.9004532221733825,871.9312046521227,None,,,,,001,83,2019_Oct_31_1104,ACPT_experiment_5_30_19,3.1.0,59.95717763645452,
,,,C,U,g,n,,,,,,,,,,5,17,117,7,,,,,,,,,,,,,n,1,1.2843590350385057,876.117611669426,None,,,,,001,83,2019_Oct_31_1104,ACPT_experiment_5_30_19,3.1.0,59.95717763645452,
,,,C,D,d,v,,,,,,,,,,5,18,118,0,,,,,,,,,,,,,v,1,0.8169150221947348,880.7049881004205,None,,,,,001,83,2019_Oct_31_1104,ACPT_experiment_5_30_19,3.1.0,59.95717763645452,
,,,C,U,d,n,,,,,,,,,,5,19,119,6,0,0,0,0,0,0,0,0,,,,,n,1,1.084189325760235,884.8078907267773,None,,,,,001,83,2019_Oct_31_1104,ACPT_experiment_5_30_19,3.1.0,59.95717763645452,
,,,C,U,d,n,L,U,y,R,u,,,,,5,19,119,6,0,0,0,0,,,,,0,0,0,25,,,,,,down,2.9187822468811646,938.1173221795616,None,001,83,2019_Oct_31_1104,ACPT_experiment_5_30_19,3.1.0,59.95717763645452,
,,,C,U,d,n,L,G,g,L,c ,,,,,5,19,119,6,0,0,0,0,,,,,0,1,1,18,,,,,,up,2.5520311984873842,942.3204432364437,None,001,83,2019_Oct_31_1104,ACPT_experiment_5_30_19,3.1.0,59.95717763645452,
,,,C,U,d,n,R,D,y,R,y,,,,,5,19,119,6,0,0,0,0,,,,,0,2,2,27,,,,,,down,1.1008795178931905,946.1568334699696,None,001,83,2019_Oct_31_1104,ACPT_experiment_5_30_19,3.1.0,59.95717763645452,
,,,C,U,d,n,L,D,y,L,y,,,,,5,19,119,6,0,0,0,0,,,,,0,3,3,32,,,,,,down,1.0675362632173346,948.5587540646229,None,001,83,2019_Oct_31_1104,ACPT_experiment_5_30_19,3.1.0,59.95717763645452,
,,,C,U,d,n,R,U,y,L,u,,,,,5,19,119,6,0,0,0,0,,,,,0,4,4,30,,,,,,down,1.6846311373956269,950.9273398568621,None,001,83,2019_Oct_31_1104,ACPT_experiment_5_30_19,3.1.0,59.95717763645452,
,,,C,U,d,n,R,D,y,L,y,,,,,5,19,119,6,0,0,0,0,,,,,0,5,5,26,,,,,,down,1.1342547703970922,953.8963399908971,None,001,83,2019_Oct_31_1104,ACPT_experiment_5_30_19,3.1.0,59.95717763645452,
,,,C,U,d,n,R,U,d,L,u,,,,,5,19,119,6,0,0,0,0,,,,,0,6,6,8,,,,,,down,0.9841169985884335,956.3149411179475,None,001,83,2019_Oct_31_1104,ACPT_experiment_5_30_19,3.1.0,59.95717763645452,
,,,C,U,d,n,R,G,d,L,i,,,,,5,19,119,6,0,0,0,0,,,,,0,7,7,4,,,,,,down,2.034959447279107,958.5667372228927,None,001,83,2019_Oct_31_1104,ACPT_experiment_5_30_19,3.1.0,59.95717763645452,
,,,C,U,d,n,L,D,d,R,c ,,,,,5,19,119,6,0,0,0,0,,,,,0,8,8,13,,,,,,up,1.0841995892260456,961.8860514790867,None,001,83,2019_Oct_31_1104,ACPT_experiment_5_30_19,3.1.0,59.95717763645452,
,,,C,U,d,n,R,U,y,R,u,,,,,5,19,119,6,0,0,0,0,,,,,0,9,9,31,,,,,,down,1.8181312418309972,964.2546073865524,None,001,83,2019_Oct_31_1104,ACPT_experiment_5_30_19,3.1.0,59.95717763645452,
,,,C,U,d,n,R,U,g,L,u,,,,,5,19,119,6,0,0,0,0,,,,,0,10,10,10,,,,,,down,1.317730967028183,967.3570843813068,None,001,83,2019_Oct_31_1104,ACPT_experiment_5_30_19,3.1.0,59.95717763645452,
,,,C,U,d,n,R,D,d,L,c,,,,,5,19,119,6,0,0,0,0,,,,,0,11,11,0,,,,,,up,0.9007312411122257,969.9591632143129,None,001,83,2019_Oct_31_1104,ACPT_experiment_5_30_19,3.1.0,59.95717763645452,
,,,C,U,d,n,L,D,g,R,i,,,,,5,19,119,6,0,0,0,0,,,,,0,12,12,15,,,,,,down,1.5846258245437639,972.1442383971589,None,001,83,2019_Oct_31_1104,ACPT_experiment_5_30_19,3.1.0,59.95717763645452,
,,,C,U,d,n,L,U,g,R,u,,,,,5,19,119,6,0,0,0,0,,,,,0,13,13,23,,,,,,down,1.5845989584340714,975.0131972962408,None,001,83,2019_Oct_31_1104,ACPT_experiment_5_30_19,3.1.0,59.95717763645452,
,,,C,U,d,n,L,U,d,R,u,,,,,5,19,119,6,0,0,0,0,,,,,0,14,14,21,,,,,,down,1.0508581457543187,977.8654551360087,None,001,83,2019_Oct_31_1104,ACPT_experiment_5_30_19,3.1.0,59.95717763645452,
,,,C,U,d,n,R,G,g,L,c ,,,,,5,19,119,6,0,0,0,0,,,,,0,15,15,6,,,,,,up,1.6513247104157927,980.2006626570655,None,001,83,2019_Oct_31_1104,ACPT_experiment_5_30_19,3.1.0,59.95717763645452,
,,,C,U,d,n,R,G,g,R,c ,,,,,5,19,119,6,0,0,0,0,,,,,0,16,16,7,,,,,,up,0.7506016196857672,983.1363400633418,None,001,83,2019_Oct_31_1104,ACPT_experiment_5_30_19,3.1.0,59.95717763645452,
,,,C,U,d,n,L,U,d,L,u,,,,,5,19,119,6,0,0,0,0,,,,,0,17,17,20,,,,,,down,0.7505955823580734,985.1713019255403,None,001,83,2019_Oct_31_1104,ACPT_experiment_5_30_19,3.1.0,59.95717763645452,
,,,C,U,d,n,L,D,y,R,y,,,,,5,19,119,6,0,0,0,0,,,,,0,18,18,33,,,,,,down,0.7339065977139398,987.2229479425296,None,001,83,2019_Oct_31_1104,ACPT_experiment_5_30_19,3.1.0,59.95717763645452,
,,,C,U,d,n,L,U,g,L,u,,,,,5,19,119,6,0,0,0,0,,,,,0,19,19,22,,,,,,down,1.2009569767833455,989.2578992394119,None,001,83,2019_Oct_31_1104,ACPT_experiment_5_30_19,3.1.0,59.95717763645452,
,,,C,U,d,n,R,U,g,R,u,,,,,5,19,119,6,0,0,0,0,,,,,0,20,20,11,,,,,,down,0.8173466911248397,991.7432122325845,None,001,83,2019_Oct_31_1104,ACPT_experiment_5_30_19,3.1.0,59.95717763645452,
,,,C,U,d,n,L,G,y,R,y,,,,,5,19,119,6,0,0,0,0,,,,,0,21,21,35,,,,,,down,0.7505998084961902,993.8448874702444,None,001,83,2019_Oct_31_1104,ACPT_experiment_5_30_19,3.1.0,59.95717763645452,
,,,C,U,d,n,L,G,d,R,i,,,,,5,19,119,6,0,0,0,0,,,,,0,22,22,17,,,,,,down,1.0840882005286403,995.8798457100493,None,001,83,2019_Oct_31_1104,ACPT_experiment_5_30_19,3.1.0,59.95717763645452,
,,,C,U,d,n,R,G,d,R,i,,,,,5,19,119,6,0,0,0,0,,,,,0,23,23,5,,,,,,down,0.8006592158053536,998.2483856186009,None,001,83,2019_Oct_31_1104,ACPT_experiment_5_30_19,3.1.0,59.95717763645452,
,,,C,U,d,n,R,G,y,L,y,,,,,5,19,119,6,0,0,0,0,,,,,0,24,24,28,,,,,,down,0.7504829862009501,1000.333400548916,None,001,83,2019_Oct_31_1104,ACPT_experiment_5_30_19,3.1.0,59.95717763645452,
,,,C,U,d,n,R,D,g,R,i,,,,,5,19,119,6,0,0,0,0,,,,,0,25,25,3,,,,,,down,1.3010229647770757,1002.3683747876348,None,001,83,2019_Oct_31_1104,ACPT_experiment_5_30_19,3.1.0,59.95717763645452,
,,,C,U,d,n,L,U,y,L,u,,,,,5,19,119,6,0,0,0,0,,,,,0,26,26,24,,,,,,down,0.6505190290481551,1004.953756787465,None,001,83,2019_Oct_31_1104,ACPT_experiment_5_30_19,3.1.0,59.95717763645452,
,,,C,U,d,n,L,D,d,L,c ,,,,,5,19,119,6,0,0,0,0,,,,,0,27,27,12,,,,,,up,0.6671796382579487,1006.8886451150174,None,001,83,2019_Oct_31_1104,ACPT_experiment_5_30_19,3.1.0,59.95717763645452,
,,,C,U,d,n,L,G,y,L,y,,,,,5,19,119,6,0,0,0,0,,,,,0,28,28,34,,,,,,down,0.617139248541207,1008.8568833383033,None,001,83,2019_Oct_31_1104,ACPT_experiment_5_30_19,3.1.0,59.95717763645452,
,,,C,U,d,n,R,G,y,R,y,,,,,5,19,119,6,0,0,0,0,,,,,0,29,29,29,,,,,,down,0.7172327063744888,1010.75838856482,None,001,83,2019_Oct_31_1104,ACPT_experiment_5_30_19,3.1.0,59.95717763645452,
,,,C,U,d,n,R,D,d,R,c ,,,,,5,19,119,6,0,0,0,0,,,,,0,30,30,1,,,,,,up,0.7005473441095091,1012.7599875510205,None,001,83,2019_Oct_31_1104,ACPT_experiment_5_30_19,3.1.0,59.95717763645452,
,,,C,U,d,n,R,D,g,L,i,,,,,5,19,119,6,0,0,0,0,,,,,0,31,31,2,,,,,,down,0.8506811916740844,1014.7448984581861,None,001,83,2019_Oct_31_1104,ACPT_experiment_5_30_19,3.1.0,59.95717763645452,
,,,C,U,d,n,R,U,d,R,u,,,,,5,19,119,6,0,0,0,0,,,,,0,32,32,9,,,,,,down,0.8840401433990337,1016.8799380811688,None,001,83,2019_Oct_31_1104,ACPT_experiment_5_30_19,3.1.0,59.95717763645452,
,,,C,U,d,n,L,G,g,R,c ,,,,,5,19,119,6,0,0,0,0,,,,,0,33,33,19,,,,,,up,1.718034463468939,1019.0483426932042,None,001,83,2019_Oct_31_1104,ACPT_experiment_5_30_19,3.1.0,59.95717763645452,
,,,C,U,d,n,L,G,d,L,i,,,,,5,19,119,6,0,0,0,0,,,,,0,34,34,16,,,,,,down,1.1676197594497353,1022.0340296988143,None,001,83,2019_Oct_31_1104,ACPT_experiment_5_30_19,3.1.0,59.95717763645452,
,,,C,U,d,n,L,D,g,L,i,,,,,5,19,119,6,0,0,0,0,,,,,0,35,35,14,,,,,,down,1.0508394300268264,1024.4860112101014,None,001,83,2019_Oct_31_1104,ACPT_experiment_5_30_19,3.1.0,59.95717763645452,
,,,C,U,d,n,R,G,d,R,i,,,,,5,19,119,6,0,0,0,0,,,,,1,0,36,5,,,,,,down,1.7847596117208013,1026.8212045434484,None,001,83,2019_Oct_31_1104,ACPT_experiment_5_30_19,3.1.0,59.95717763645452,
,,,C,U,d,n,L,U,g,R,u,,,,,5,19,119,6,0,0,0,0,,,,,1,1,37,23,,,,,,down,1.451140209683217,1029.8903446227341,None,001,83,2019_Oct_31_1104,ACPT_experiment_5_30_19,3.1.0,59.95717763645452,
,,,C,U,d,n,L,G,y,L,y,,,,,5,19,119,6,0,0,0,0,,,,,1,2,38,34,,,,,,down,0.9841163948585745,1032.6258375282632,None,001,83,2019_Oct_31_1104,ACPT_experiment_5_30_19,3.1.0,59.95717763645452,
,,,C,U,d,n,R,U,g,L,u,,,,,5,19,119,6,0,0,0,0,,,,,1,3,39,10,,,,,,down,0.884031087407493,1034.8943256365455,None,001,83,2019_Oct_31_1104,ACPT_experiment_5_30_19,3.1.0,59.95717763645452,
,,,C,U,d,n,R,G,g,L,c ,,,,,5,19,119,6,0,0,0,0,,,,,1,4,40,6,,,,,,up,1.3010395674355095,1037.0627124384628,None,001,83,2019_Oct_31_1104,ACPT_experiment_5_30_19,3.1.0,59.95717763645452,
,,,C,U,d,n,R,U,d,R,u,,,,,5,19,119,6,0,0,0,0,,,,,1,5,41,9,,,,,,down,0.7339337656885618,1039.6481158708048,None,001,83,2019_Oct_31_1104,ACPT_experiment_5_30_19,3.1.0,59.95717763645452,
,,,C,U,d,n,L,G,g,L,c ,,,,,5,19,119,6,0,0,0,0,,,,,1,6,42,18,,,,,,up,0.9841212247119984,1041.666385125951,None,001,83,2019_Oct_31_1104,ACPT_experiment_5_30_19,3.1.0,59.95717763645452,
,,,C,U,d,n,L,D,y,R,y,,,,,5,19,119,6,0,0,0,0,,,,,1,7,43,33,,,,,,down,0.7002910595620051,1043.9518106549076,None,001,83,2019_Oct_31_1104,ACPT_experiment_5_30_19,3.1.0,59.95717763645452,
,,,C,U,d,n,R,G,y,R,y,,,,,5,19,119,6,0,0,0,0,,,,,1,8,44,29,,,,,,down,0.7839255549333757,1045.9531560733594,None,001,83,2019_Oct_31_1104,ACPT_experiment_5_30_19,3.1.0,59.95717763645452,
,,,C,U,d,n,L,G,y,R,y,,,,,5,19,119,6,0,0,0,0,,,,,1,9,45,35,,,,,,down,0.6838686229311861,1048.0381417226454,None,001,83,2019_Oct_31_1104,ACPT_experiment_5_30_19,3.1.0,59.95717763645452,
,,,C,U,d,n,R,D,y,L,y,,,,,5,19,119,6,0,0,0,0,,,,,1,10,46,26,,,,,,down,0.6838779807731044,1050.0063742104685,None,001,83,2019_Oct_31_1104,ACPT_experiment_5_30_19,3.1.0,59.95717763645452,
,,,C,U,d,n,R,U,d,L,u,,,,,5,19,119,6,0,0,0,0,,,,,1,11,47,8,,,,,,down,0.9841182060481515,1051.9746103206853,None,001,83,2019_Oct_31_1104,ACPT_experiment_5_30_19,3.1.0,59.95717763645452,
,,,C,U,d,n,R,D,d,R,c ,,,,,5,19,119,6,0,0,0,0,,,,,1,12,48,1,,,,,,up,0.5671251212042989,1054.243087561772,None,001,83,2019_Oct_31_1104,ACPT_experiment_5_30_19,3.1.0,59.95717763645452,
,,,C,U,d,n,R,U,y,R,u,,,,,5,19,119,6,0,0,0,0,,,,,1,13,49,31,,,,,,down,0.5671163670776878,1056.094563265753,None,001,83,2019_Oct_31_1104,ACPT_experiment_5_30_19,3.1.0,59.95717763645452,
,,,C,U,d,n,L,D,g,L,i,,,,,5,19,119,6,0,0,0,0,,,,,1,14,50,14,,,,,,down,1.050839731891756,1057.9460437996022,None,001,83,2019_Oct_31_1104,ACPT_experiment_5_30_19,3.1.0,59.95717763645452,
,,,C,U,d,n,L,D,y,L,y,,,,,5,19,119,6,0,0,0,0,,,,,1,15,51,32,,,,,,down,0.6505694407387637,1060.2812129836384,None,001,83,2019_Oct_31_1104,ACPT_experiment_5_30_19,3.1.0,59.95717763645452,
,,,C,U,d,n,L,G,g,R,c ,,,,,5,19,119,6,0,0,0,0,,,,,1,16,52,19,,,,,,up,1.484521801379742,1062.2161176119698,None,001,83,2019_Oct_31_1104,ACPT_experiment_5_30_19,3.1.0,59.95717763645452,
,,,C,U,d,n,R,G,g,R,c ,,,,,5,19,119,6,0,0,0,0,,,,,1,17,53,7,,,,,,up,0.5170636008260772,1064.9850072025292,None,001,83,2019_Oct_31_1104,ACPT_experiment_5_30_19,3.1.0,59.95717763645452,
,,,C,U,d,n,L,G,d,R,i,,,,,5,19,119,6,0,0,0,0,,,,,1,18,54,17,,,,,,down,0.7005796438315883,1066.786433460802,None,001,83,2019_Oct_31_1104,ACPT_experiment_5_30_19,3.1.0,59.95717763645452,
,,,C,U,d,n,L,D,d,R,c ,,,,,5,19,119,6,0,0,0,0,,,,,1,19,55,13,,,,,,up,0.984120319102658,1068.771347084752,None,001,83,2019_Oct_31_1104,ACPT_experiment_5_30_19,3.1.0,59.95717763645452,
,,,C,U,d,n,L,D,d,L,c ,,,,,5,19,119,6,0,0,0,0,,,,,1,20,56,12,,,,,,up,0.8841974157840014,1071.0229928602494,None,001,83,2019_Oct_31_1104,ACPT_experiment_5_30_19,3.1.0,59.95717763645452,
,,,C,U,d,n,L,U,d,L,u,,,,,5,19,119,6,0,0,0,0,,,,,1,21,57,20,,,,,,down,0.8505604451202089,1073.1915453868132,None,001,83,2019_Oct_31_1104,ACPT_experiment_5_30_19,3.1.0,59.95717763645452,
,,,C,U,d,n,L,U,y,R,u,,,,,5,19,119,6,0,0,0,0,,,,,1,22,58,25,,,,,,down,1.2176628659799462,1075.3098761019646,None,001,83,2019_Oct_31_1104,ACPT_experiment_5_30_19,3.1.0,59.95717763645452,
,,,C,U,d,n,R,D,y,R,y,,,,,5,19,119,6,0,0,0,0,,,,,1,23,59,27,,,,,,down,1.0007984365802258,1077.8118986066984,None,001,83,2019_Oct_31_1104,ACPT_experiment_5_30_19,3.1.0,59.95717763645452,
,,,C,U,d,n,R,U,y,L,u,,,,,5,19,119,6,0,0,0,0,,,,,1,24,60,30,,,,,,down,0.5668455929262564,1080.1140058755263,None,001,83,2019_Oct_31_1104,ACPT_experiment_5_30_19,3.1.0,59.95717763645452,
,,,C,U,d,n,R,D,d,L,c,,,,,5,19,119,6,0,0,0,0,,,,,1,25,61,0,,,,,,up,1.134260807724786,1081.9652114091004,None,001,83,2019_Oct_31_1104,ACPT_experiment_5_30_19,3.1.0,59.95717763645452,
,,,C,U,d,n,R,D,g,R,i,,,,,5,19,119,6,0,0,0,0,,,,,1,26,62,3,,,,,,down,1.3177348912868183,1084.3838107249467,None,001,83,2019_Oct_31_1104,ACPT_experiment_5_30_19,3.1.0,59.95717763645452,
,,,C,U,d,n,L,U,y,L,u,,,,,5,19,119,6,0,0,0,0,,,,,1,27,63,24,,,,,,down,0.7672903024795232,1087.0025655623613,None,001,83,2019_Oct_31_1104,ACPT_experiment_5_30_19,3.1.0,59.95717763645452,
,,,C,U,d,n,R,G,d,L,i,,,,,5,19,119,6,0,0,0,0,,,,,1,28,64,4,,,,,,up,2.3685531906667165,1089.070883357621,None,001,83,2019_Oct_31_1104,ACPT_experiment_5_30_19,3.1.0,59.95717763645452,
,,,C,U,d,n,L,D,g,R,i,,,,,5,19,119,6,0,0,0,0,,,,,1,29,65,15,,,,,,down,2.018295517525985,1092.7237992057198,None,001,83,2019_Oct_31_1104,ACPT_experiment_5_30_19,3.1.0,59.95717763645452,
,,,C,U,d,n,R,U,g,R,u,,,,,5,19,119,6,0,0,0,0,,,,,1,30,66,11,,,,,,down,1.117586916385335,1096.0097487747262,None,001,83,2019_Oct_31_1104,ACPT_experiment_5_30_19,3.1.0,59.95717763645452,
,,,C,U,d,n,L,U,d,R,u,,,,,5,19,119,6,0,0,0,0,,,,,1,31,67,21,,,,,,down,1.0508406375010964,1098.4116657469713,None,001,83,2019_Oct_31_1104,ACPT_experiment_5_30_19,3.1.0,59.95717763645452,
,,,C,U,d,n,R,G,y,L,y,,,,,5,19,119,6,0,0,0,0,,,,,1,32,68,28,,,,,,down,0.88403289859707,1100.7635459519079,None,001,83,2019_Oct_31_1104,ACPT_experiment_5_30_19,3.1.0,59.95717763645452,
,,,C,U,d,n,R,D,g,L,i,,,,,5,19,119,6,0,0,0,0,,,,,1,33,69,2,,,,,,down,0.9340778163168579,1102.9486247571476,None,001,83,2019_Oct_31_1104,ACPT_experiment_5_30_19,3.1.0,59.95717763645452,
,,,C,U,d,n,L,G,d,L,i,,,,,5,19,119,6,0,0,0,0,,,,,1,34,70,16,,,,,,down,1.1342306210717652,1105.16706855144,None,001,83,2019_Oct_31_1104,ACPT_experiment_5_30_19,3.1.0,59.95717763645452,
,,,C,U,d,n,L,U,g,L,u,,,,,5,19,119,6,0,0,0,0,,,,,1,35,71,22,,,,,,down,0.7505943748983555,1107.585657603835,None,001,83,2019_Oct_31_1104,ACPT_experiment_5_30_19,3.1.0,59.95717763645452,
,,,C,U,d,n,,,,,,,,,,5,19,119,6,1,0,1,0,0,0,0,0,,,,,,,,,,,,,,001,83,2019_Oct_31_1104,ACPT_experiment_5_30_19,3.1.0,59.95717763645452,
,,,C,U,d,n,L,G,d,L,i,,,,,5,19,119,6,1,0,1,0,,,,,0,0,0,16,,,,,,down,1.7178056487755384,1134.0403462528047,None,001,83,2019_Oct_31_1104,ACPT_experiment_5_30_19,3.1.0,59.95717763645452,
,,,C,U,d,n,L,U,d,L,u,,,,,5,19,119,6,1,0,1,0,,,,,0,1,1,20,,,,,,down,0.8506715319381328,1137.0424961451645,None,001,83,2019_Oct_31_1104,ACPT_experiment_5_30_19,3.1.0,59.95717763645452,
,,,C,U,d,n,L,U,g,L,u,,,,,5,19,119,6,1,0,1,0,,,,,0,2,2,22,,,,,,down,0.7339313507545739,1139.1608331995085,None,001,83,2019_Oct_31_1104,ACPT_experiment_5_30_19,3.1.0,59.95717763645452,
,,,C,U,d,n,R,D,y,L,y,,,,,5,19,119,6,1,0,1,0,,,,,0,3,3,26,,,,,,down,0.717239649311523,1141.179133546888,None,001,83,2019_Oct_31_1104,ACPT_experiment_5_30_19,3.1.0,59.95717763645452,
,,,C,U,d,n,L,U,g,R,u,,,,,5,19,119,6,1,0,1,0,,,,,0,4,4,23,,,,,,down,0.8006543859373778,1143.1807277032349,None,001,83,2019_Oct_31_1104,ACPT_experiment_5_30_19,3.1.0,59.95717763645452,
,,,C,U,d,n,R,G,y,L,y,,,,,5,19,119,6,1,0,1,0,,,,,0,5,5,28,,,,,,down,0.6671962409163825,1145.2657353887626,None,001,83,2019_Oct_31_1104,ACPT_experiment_5_30_19,3.1.0,59.95717763645452,
,,,C,U,d,n,R,G,d,R,i,,,,,5,19,119,6,1,0,1,0,,,,,0,6,6,5,,,,,,down,1.45115741607151,1147.2172855329845,None,001,83,2019_Oct_31_1104,ACPT_experiment_5_30_19,3.1.0,59.95717763645452,
,,,C,U,d,n,R,D,y,R,y,,,,,5,19,119,6,1,0,1,0,,,,,0,7,7,27,,,,,,down,0.7005591168999672,1149.952800172905,None,001,83,2019_Oct_31_1104,ACPT_experiment_5_30_19,3.1.0,59.95717763645452,
,,,C,U,d,n,L,G,g,L,c ,,,,,5,19,119,6,1,0,1,0,,,,,0,8,8,18,,,,,,up,1.2343195509165525,1151.937718626723,None,001,83,2019_Oct_31_1104,ACPT_experiment_5_30_19,3.1.0,59.95717763645452,
,,,C,U,d,n,L,U,y,R,u,,,,,5,19,119,6,1,0,1,0,,,,,0,9,9,25,,,,,,down,1.7342839306948008,1154.4734798310965,None,001,83,2019_Oct_31_1104,ACPT_experiment_5_30_19,3.1.0,59.95717763645452,
,,,C,U,d,n,L,D,d,L,c ,,,,,5,19,119,6,1,0,1,0,,,,,0,10,10,12,,,,,,up,0.93407660885714,1157.4921553983877,None,001,83,2019_Oct_31_1104,ACPT_experiment_5_30_19,3.1.0,59.95717763645452,
,,,C,U,d,n,R,D,g,L,i,,,,,5,19,119,6,1,0,1,0,,,,,0,11,11,2,,,,,,down,1.1509205113397911,1159.7105847031053,None,001,83,2019_Oct_31_1104,ACPT_experiment_5_30_19,3.1.0,59.95717763645452,
,,,C,U,d,n,L,D,y,L,y,,,,,5,19,119,6,1,0,1,0,,,,,0,12,12,32,,,,,,down,0.7172444791649468,1162.1458612308197,None,001,83,2019_Oct_31_1104,ACPT_experiment_5_30_19,3.1.0,59.95717763645452,
,,,C,U,d,n,L,D,y,R,y,,,,,5,19,119,6,1,0,1,0,,,,,0,13,13,33,,,,,,down,0.517229023607797,1164.1306284495804,None,001,83,2019_Oct_31_1104,ACPT_experiment_5_30_19,3.1.0,59.95717763645452,
,,,C,U,d,n,R,D,d,L,c,,,,,5,19,119,6,1,0,1,0,,,,,0,14,14,0,,,,,,up,1.0841959668323398,1165.9322207343503,None,001,83,2019_Oct_31_1104,ACPT_experiment_5_30_19,3.1.0,59.95717763645452,
,,,C,U,d,n,R,D,d,R,c ,,,,,5,19,119,6,1,0,1,0,,,,,0,15,15,1,,,,,,up,0.5339122727891663,1168.283941251968,None,001,83,2019_Oct_31_1104,ACPT_experiment_5_30_19,3.1.0,59.95717763645452,
,,,C,U,d,n,L,G,y,R,y,,,,,5,19,119,6,1,0,1,0,,,,,0,16,16,35,,,,,,down,0.8671510213316651,1170.1357417641702,None,001,83,2019_Oct_31_1104,ACPT_experiment_5_30_19,3.1.0,59.95717763645452,
,,,C,U,d,n,L,G,y,L,y,,,,,5,19,119,6,1,0,1,0,,,,,0,17,17,34,,,,,,down,0.5337553022836801,1172.3039758217055,None,001,83,2019_Oct_31_1104,ACPT_experiment_5_30_19,3.1.0,59.95717763645452,
,,,C,U,d,n,L,U,d,R,u,,,,,5,19,119,6,1,0,1,0,,,,,0,18,18,21,,,,,,down,1.23432226771547,1174.1220898571628,None,001,83,2019_Oct_31_1104,ACPT_experiment_5_30_19,3.1.0,59.95717763645452,
,,,C,U,d,n,R,G,d,L,i,,,,,5,19,119,6,1,0,1,0,,,,,0,19,19,4,,,,,,down,1.1843011974415276,1176.6240619502205,None,001,83,2019_Oct_31_1104,ACPT_experiment_5_30_19,3.1.0,59.95717763645452,
,,,C,U,d,n,R,U,d,R,u,,,,,5,19,119,6,1,0,1,0,,,,,0,20,20,9,,,,,,down,1.4845154621871188,1179.092722786445,None,001,83,2019_Oct_31_1104,ACPT_experiment_5_30_19,3.1.0,59.95717763645452,
,,,C,U,d,n,R,G,g,L,c ,,,,,5,19,119,6,1,0,1,0,,,,,0,21,21,6,,,,,,up,2.3686063191416906,1181.8615879258286,None,001,83,2019_Oct_31_1104,ACPT_experiment_5_30_19,3.1.0,59.95717763645452,
,,,C,U,d,n,R,G,y,R,y,,,,,5,19,119,6,1,0,1,0,,,,,0,22,22,29,,,,,,down,0.9007354672503425,1185.514515244853,None,001,83,2019_Oct_31_1104,ACPT_experiment_5_30_19,3.1.0,59.95717763645452,
,,,C,U,d,n,R,U,y,L,u,,,,,5,19,119,6,1,0,1,0,,,,,0,23,23,30,,,,,,down,0.7003903736040229,1187.716428836211,None,001,83,2019_Oct_31_1104,ACPT_experiment_5_30_19,3.1.0,59.95717763645452,
,,,C,U,d,n,L,G,g,R,c ,,,,,5,19,119,6,1,0,1,0,,,,,0,24,24,19,,,,,,up,1.0841932500334224,1189.7178702481615,None,001,83,2019_Oct_31_1104,ACPT_experiment_5_30_19,3.1.0,59.95717763645452,
,,,C,U,d,n,R,U,y,R,u,,,,,5,19,119,6,1,0,1,0,,,,,0,25,25,31,,,,,,down,0.6671962409163825,1192.0864270612365,None,001,83,2019_Oct_31_1104,ACPT_experiment_5_30_19,3.1.0,59.95717763645452,
,,,C,U,d,n,R,U,g,L,u,,,,,5,19,119,6,1,0,1,0,,,,,0,26,26,10,,,,,,down,1.217659545436618,1194.0212797685526,None,001,83,2019_Oct_31_1104,ACPT_experiment_5_30_19,3.1.0,59.95717763645452,
,,,C,U,d,n,R,G,g,R,c ,,,,,5,19,119,6,1,0,1,0,,,,,0,27,27,7,,,,,,up,1.4008510820713127,1196.5402490518318,None,001,83,2019_Oct_31_1104,ACPT_experiment_5_30_19,3.1.0,59.95717763645452,
,,,C,U,d,n,L,D,g,L,i,,,,,5,19,119,6,1,0,1,0,,,,,0,28,28,14,,,,,,down,1.0842237385222688,1199.2254537353583,None,001,83,2019_Oct_31_1104,ACPT_experiment_5_30_19,3.1.0,59.95717763645452,
,,,C,U,d,n,R,U,d,L,u,,,,,5,19,119,6,1,0,1,0,,,,,0,29,29,8,,,,,,down,0.8840392377896933,1201.5940102465538,None,001,83,2019_Oct_31_1104,ACPT_experiment_5_30_19,3.1.0,59.95717763645452,
,,,C,U,d,n,L,G,d,R,i,,,,,5,19,119,6,1,0,1,0,,,,,0,30,30,17,,,,,,down,0.917423848179169,1203.7624055007327,None,001,83,2019_Oct_31_1104,ACPT_experiment_5_30_19,3.1.0,59.95717763645452,
,,,C,U,d,n,R,U,g,R,u,,,,,5,19,119,6,1,0,1,0,,,,,0,31,31,11,,,,,,down,0.6338442321284674,1205.9641627253004,None,001,83,2019_Oct_31_1104,ACPT_experiment_5_30_19,3.1.0,59.95717763645452,
,,,C,U,d,n,L,D,d,R,c ,,,,,5,19,119,6,1,0,1,0,,,,,0,32,32,13,,,,,,up,0.8006408019427909,1207.8823614644643,None,001,83,2019_Oct_31_1104,ACPT_experiment_5_30_19,3.1.0,59.95717763645452,
,,,C,U,d,n,R,D,g,R,i,,,,,5,19,119,6,1,0,1,0,,,,,0,33,33,3,,,,,,down,0.7672782278241357,1209.9673585846467,None,001,83,2019_Oct_31_1104,ACPT_experiment_5_30_19,3.1.0,59.95717763645452,
,,,C,U,d,n,L,D,g,R,i,,,,,5,19,119,6,1,0,1,0,,,,,0,34,34,15,,,,,,down,0.8839381125580985,1212.0190049035155,None,001,83,2019_Oct_31_1104,ACPT_experiment_5_30_19,3.1.0,59.95717763645452,
,,,C,U,d,n,L,U,y,L,u,,,,,5,19,119,6,1,0,1,0,,,,,0,35,35,24,,,,,,down,0.6338397041254211,1214.1873926110275,None,001,83,2019_Oct_31_1104,ACPT_experiment_5_30_19,3.1.0,59.95717763645452,
,,,C,U,d,n,R,G,y,R,y,,,,,5,19,119,6,1,0,1,0,,,,,1,0,36,29,,,,,,down,0.6004789411963429,1216.1055931613955,None,001,83,2019_Oct_31_1104,ACPT_experiment_5_30_19,3.1.0,59.95717763645452,
,,,C,U,d,n,L,U,d,R,u,,,,,5,19,119,6,1,0,1,0,,,,,1,1,37,21,,,,,,down,1.2510055169113912,1217.9904284208314,None,001,83,2019_Oct_31_1104,ACPT_experiment_5_30_19,3.1.0,59.95717763645452,
,,,C,U,d,n,L,G,y,R,y,,,,,5,19,119,6,1,0,1,0,,,,,1,2,38,35,,,,,,down,0.6171709445188753,1220.525783011195,None,001,83,2019_Oct_31_1104,ACPT_experiment_5_30_19,3.1.0,59.95717763645452,
,,,C,U,d,n,R,D,g,L,i,,,,,5,19,119,6,1,0,1,0,,,,,1,3,39,2,,,,,,down,1.084176345510059,1222.4273253672727,None,001,83,2019_Oct_31_1104,ACPT_experiment_5_30_19,3.1.0,59.95717763645452,
,,,C,U,d,n,R,G,d,L,i,,,,,5,19,119,6,1,0,1,0,,,,,1,4,40,4,,,,,,down,0.9007218832557555,1224.7958604459564,None,001,83,2019_Oct_31_1104,ACPT_experiment_5_30_19,3.1.0,59.95717763645452,
,,,C,U,d,n,L,D,g,R,i,,,,,5,19,119,6,1,0,1,0,,,,,1,5,41,15,,,,,,down,0.7839801927329972,1226.980937138127,None,001,83,2019_Oct_31_1104,ACPT_experiment_5_30_19,3.1.0,59.95717763645452,
,,,C,U,d,n,R,G,g,L,c ,,,,,5,19,119,6,1,0,1,0,,,,,1,6,42,6,,,,,,up,1.4845166696759406,1229.0492567445908,None,001,83,2019_Oct_31_1104,ACPT_experiment_5_30_19,3.1.0,59.95717763645452,
,,,C,U,d,n,L,U,g,L,u,,,,,5,19,119,6,1,0,1,0,,,,,1,7,43,22,,,,,,down,1.2176462633215124,1231.8181273175724,None,001,83,2019_Oct_31_1104,ACPT_experiment_5_30_19,3.1.0,59.95717763645452,
,,,C,U,d,n,L,G,g,L,c ,,,,,5,19,119,6,1,0,1,0,,,,,1,8,44,18,,,,,,up,1.184277349995682,1234.3201265786047,None,001,83,2019_Oct_31_1104,ACPT_experiment_5_30_19,3.1.0,59.95717763645452,
,,,C,U,d,n,L,U,g,R,u,,,,,5,19,119,6,1,0,1,0,,,,,1,9,45,23,,,,,,down,0.8840549348533386,1236.7887840943004,None,001,83,2019_Oct_31_1104,ACPT_experiment_5_30_19,3.1.0,59.95717763645452,
,,,C,U,d,n,R,U,g,L,u,,,,,5,19,119,6,1,0,1,0,,,,,1,10,46,10,,,,,,down,1.250999177718768,1238.9571591234271,None,001,83,2019_Oct_31_1104,ACPT_experiment_5_30_19,3.1.0,59.95717763645452,
,,,C,U,d,n,L,G,y,L,y,,,,,5,19,119,6,1,0,1,0,,,,,1,11,47,34,,,,,,down,0.6671962409163825,1241.4925173361844,None,001,83,2019_Oct_31_1104,ACPT_experiment_5_30_19,3.1.0,59.95717763645452,
,,,C,U,d,n,L,D,y,L,y,,,,,5,19,119,6,1,0,1,0,,,,,1,12,48,32,,,,,,down,0.6338285350648221,1243.444078951332,None,001,83,2019_Oct_31_1104,ACPT_experiment_5_30_19,3.1.0,59.95717763645452,
,,,C,U,d,n,L,U,y,L,u,,,,,5,19,119,6,1,0,1,0,,,,,1,13,49,24,,,,,,down,0.7339192760991864,1245.3622701438435,None,001,83,2019_Oct_31_1104,ACPT_experiment_5_30_19,3.1.0,59.95717763645452,
,,,C,U,d,n,R,D,g,R,i,,,,,5,19,119,6,1,0,1,0,,,,,1,14,50,3,,,,,,down,0.8173210324748652,1247.3805424176535,None,001,83,2019_Oct_31_1104,ACPT_experiment_5_30_19,3.1.0,59.95717763645452,
,,,C,U,d,n,L,D,y,R,y,,,,,5,19,119,6,1,0,1,0,,,,,1,15,51,33,,,,,,down,0.9507607636478497,1249.4822218814516,None,001,83,2019_Oct_31_1104,ACPT_experiment_5_30_19,3.1.0,59.95717763645452,
,,,C,U,d,n,R,U,y,R,u,,,,,5,19,119,6,1,0,1,0,,,,,1,16,52,31,,,,,,down,0.6171736613177927,1251.717341680138,None,001,83,2019_Oct_31_1104,ACPT_experiment_5_30_19,3.1.0,59.95717763645452,
,,,C,U,d,n,R,U,d,L,u,,,,,5,19,119,6,1,0,1,0,,,,,1,17,53,8,,,,,,down,0.9341058899008203,1253.6021564126713,None,001,83,2019_Oct_31_1104,ACPT_experiment_5_30_19,3.1.0,59.95717763645452,
,,,C,U,d,n,R,U,d,R,u,,,,,5,19,119,6,1,0,1,0,,,,,1,18,54,9,,,,,,down,0.6173091993259732,1255.8037847402884,None,001,83,2019_Oct_31_1104,ACPT_experiment_5_30_19,3.1.0,59.95717763645452,
,,,C,U,d,n,R,U,g,R,u,,,,,5,19,119,6,1,0,1,0,,,,,1,19,55,11,,,,,,down,0.600463546012179,1257.6887760646496,None,001,83,2019_Oct_31_1104,ACPT_experiment_5_30_19,3.1.0,59.95717763645452,
,,,C,U,d,n,L,D,d,R,c ,,,,,5,19,119,6,1,0,1,0,,,,,1,20,56,13,,,,,,up,0.8340018667367985,1259.5736083054217,None,001,83,2019_Oct_31_1104,ACPT_experiment_5_30_19,3.1.0,59.95717763645452,
,,,C,U,d,n,R,D,d,R,c ,,,,,5,19,119,6,1,0,1,0,,,,,1,21,57,1,,,,,,up,0.7505919599789195,1261.6919683016167,None,001,83,2019_Oct_31_1104,ACPT_experiment_5_30_19,3.1.0,59.95717763645452,
,,,C,U,d,n,L,U,y,R,u,,,,,5,19,119,6,1,0,1,0,,,,,1,22,58,25,,,,,,down,0.7505995066312607,1263.7269223152834,None,001,83,2019_Oct_31_1104,ACPT_experiment_5_30_19,3.1.0,59.95717763645452,
,,,C,U,d,n,R,D,d,L,c,,,,,5,19,119,6,1,0,1,0,,,,,1,23,59,0,,,,,,up,1.4177930307487259,1265.761883875617,None,001,83,2019_Oct_31_1104,ACPT_experiment_5_30_19,3.1.0,59.95717763645452,
,,,C,U,d,n,L,G,d,R,i,,,,,5,19,119,6,1,0,1,0,,,,,1,24,60,17,,,,,,down,1.017472931634984,1268.4473599370103,None,001,83,2019_Oct_31_1104,ACPT_experiment_5_30_19,3.1.0,59.95717763645452,
,,,C,U,d,n,L,U,d,L,u,,,,,5,19,119,6,1,0,1,0,,,,,1,25,61,20,,,,,,down,0.7672613233153243,1270.7491994503507,None,001,83,2019_Oct_31_1104,ACPT_experiment_5_30_19,3.1.0,59.95717763645452,
,,,C,U,d,n,R,D,y,L,y,,,,,5,19,119,6,1,0,1,0,,,,,1,26,62,26,,,,,,down,0.7672767184994882,1272.8008306759002,None,001,83,2019_Oct_31_1104,ACPT_experiment_5_30_19,3.1.0,59.95717763645452,
,,,C,U,d,n,R,U,y,L,u,,,,,5,19,119,6,1,0,1,0,,,,,1,27,63,30,,,,,,down,0.884030483677634,1274.869148169295,None,001,83,2019_Oct_31_1104,ACPT_experiment_5_30_19,3.1.0,59.95717763645452,
,,,C,U,d,n,R,G,g,R,c ,,,,,5,19,119,6,1,0,1,0,,,,,1,28,64,7,,,,,,up,1.2009615047863917,1277.0542278801295,None,001,83,2019_Oct_31_1104,ACPT_experiment_5_30_19,3.1.0,59.95717763645452,
,,,C,U,d,n,R,G,y,L,y,,,,,5,19,119,6,1,0,1,0,,,,,1,29,65,28,,,,,,down,1.0508584476046963,1279.5228476625198,None,001,83,2019_Oct_31_1104,ACPT_experiment_5_30_19,3.1.0,59.95717763645452,
,,,C,U,d,n,R,G,d,R,i,,,,,5,19,119,6,1,0,1,0,,,,,1,30,66,5,,,,,,down,1.2676960108947242,1281.8413613690645,None,001,83,2019_Oct_31_1104,ACPT_experiment_5_30_19,3.1.0,59.95717763645452,
,,,C,U,d,n,L,D,d,L,c ,,,,,5,19,119,6,1,0,1,0,,,,,1,31,67,12,,,,,,up,0.8673873827210627,1284.3934133963485,None,001,83,2019_Oct_31_1104,ACPT_experiment_5_30_19,3.1.0,59.95717763645452,
,,,C,U,d,n,L,G,g,R,c ,,,,,5,19,119,6,1,0,1,0,,,,,1,32,68,19,,,,,,up,0.7839563452871516,1286.5451308349293,None,001,83,2019_Oct_31_1104,ACPT_experiment_5_30_19,3.1.0,59.95717763645452,
,,,C,U,d,n,R,D,y,R,y,,,,,5,19,119,6,1,0,1,0,,,,,1,33,69,27,,,,,,down,0.7672468337113969,1288.613480628017,None,001,83,2019_Oct_31_1104,ACPT_experiment_5_30_19,3.1.0,59.95717763645452,
,,,C,U,d,n,L,D,g,L,i,,,,,5,19,119,6,1,0,1,0,,,,,1,34,70,14,,,,,,down,0.9174090567103121,1290.665084383727,None,001,83,2019_Oct_31_1104,ACPT_experiment_5_30_19,3.1.0,59.95717763645452,
,,,C,U,d,n,L,G,d,L,i,,,,,5,19,119,6,1,0,1,0,,,,,1,35,71,16,,,,,,down,1.2510021963680629,1292.8668410045648,None,001,83,2019_Oct_31_1104,ACPT_experiment_5_30_19,3.1.0,59.95717763645452,
,,,C,U,d,n,,,,,,,,,,5,19,119,6,2,0,2,0,0,0,0,0,,,,,,,,,,,,,,001,83,2019_Oct_31_1104,ACPT_experiment_5_30_19,3.1.0,59.95717763645452,
,,,C,U,d,n,R,D,d,L,c,,,,,5,19,119,6,2,0,2,0,,,,,0,0,0,0,,,,,,up,1.000499588859384,1304.3262807284773,None,001,83,2019_Oct_31_1104,ACPT_experiment_5_30_19,3.1.0,59.95717763645452,
,,,C,U,d,n,L,G,g,L,c ,,,,,5,19,119,6,2,0,2,0,,,,,0,1,1,18,,,,,,down,0.93407540138287,1306.6111462953122,None,001,83,2019_Oct_31_1104,ACPT_experiment_5_30_19,3.1.0,59.95717763645452,
,,,C,U,d,n,L,D,g,L,i,,,,,5,19,119,6,2,0,2,0,,,,,0,2,2,14,,,,,,down,1.6846839640202234,1308.8295771093544,None,001,83,2019_Oct_31_1104,ACPT_experiment_5_30_19,3.1.0,59.95717763645452,
,,,C,U,d,n,R,G,d,R,i,,,,,5,19,119,6,2,0,2,0,,,,,0,3,3,5,,,,,,down,0.9173993969889125,1311.79861618414,None,001,83,2019_Oct_31_1104,ACPT_experiment_5_30_19,3.1.0,59.95717763645452,
,,,C,U,d,n,L,U,y,L,u,,,,,5,19,119,6,2,0,2,0,,,,,0,4,4,24,,,,,,down,0.6672185790230287,1314.0170584690932,None,001,83,2019_Oct_31_1104,ACPT_experiment_5_30_19,3.1.0,59.95717763645452,
,,,C,U,d,n,R,G,y,L,y,,,,,5,19,119,6,2,0,2,0,,,,,0,5,5,28,,,,,,down,0.7172161037306068,1315.9853120875778,None,001,83,2019_Oct_31_1104,ACPT_experiment_5_30_19,3.1.0,59.95717763645452,
,,,C,U,d,n,L,D,g,R,i,,,,,5,19,119,6,2,0,2,0,,,,,0,6,6,15,,,,,,down,0.6672004670544993,1317.9868893394014,None,001,83,2019_Oct_31_1104,ACPT_experiment_5_30_19,3.1.0,59.95717763645452,
,,,C,U,d,n,R,G,d,L,i,,,,,5,19,119,6,2,0,2,0,,,,,0,7,7,4,,,,,,down,1.1342520535981748,1319.93843405004,None,001,83,2019_Oct_31_1104,ACPT_experiment_5_30_19,3.1.0,59.95717763645452,
,,,C,U,d,n,R,U,g,L,u,,,,,5,19,119,6,2,0,2,0,,,,,0,8,8,10,,,,,,down,0.6838677173218457,1322.357046346151,None,001,83,2019_Oct_31_1104,ACPT_experiment_5_30_19,3.1.0,59.95717763645452,
,,,C,U,d,n,R,D,g,L,i,,,,,5,19,119,6,2,0,2,0,,,,,0,9,9,2,,,,,,down,0.8173089578194777,1324.3253081150033,None,001,83,2019_Oct_31_1104,ACPT_experiment_5_30_19,3.1.0,59.95717763645452,
,,,C,U,d,n,L,D,y,L,y,,,,,5,19,119,6,2,0,2,0,,,,,0,10,10,32,,,,,,down,0.6838785845029633,1326.426956788433,None,001,83,2019_Oct_31_1104,ACPT_experiment_5_30_19,3.1.0,59.95717763645452,
,,,C,U,d,n,R,G,g,L,c ,,,,,5,19,119,6,2,0,2,0,,,,,0,11,11,6,,,,,,down,0.800647744879825,1328.3951928986498,None,001,83,2019_Oct_31_1104,ACPT_experiment_5_30_19,3.1.0,59.95717763645452,
,,,C,U,d,n,R,U,g,R,u,,,,,5,19,119,6,2,0,2,0,,,,,0,12,12,11,,,,,,down,0.8670876293908805,1330.4804626041878,None,001,83,2019_Oct_31_1104,ACPT_experiment_5_30_19,3.1.0,59.95717763645452,
,,,C,U,d,n,L,G,y,R,y,,,,,5,19,119,6,2,0,2,0,,,,,0,13,13,35,,,,,,down,0.6004801486560609,1332.6319077592925,None,001,83,2019_Oct_31_1104,ACPT_experiment_5_30_19,3.1.0,59.95717763645452,
,,,C,U,d,n,R,U,y,R,u,,,,,5,19,119,6,2,0,2,0,,,,,0,14,14,31,,,,,,down,0.5504391552094603,1334.5167424149986,None,001,83,2019_Oct_31_1104,ACPT_experiment_5_30_19,3.1.0,59.95717763645452,
,,,C,U,d,n,L,G,d,R,i,,,,,5,19,119,6,2,0,2,0,,,,,0,15,15,17,,,,,,down,0.8006408019573428,1336.3682232507126,None,001,83,2019_Oct_31_1104,ACPT_experiment_5_30_19,3.1.0,59.95717763645452,
,,,C,U,d,n,L,G,d,L,i,,,,,5,19,119,6,2,0,2,0,,,,,0,16,16,16,,,,,,down,1.4513080473989248,1338.453070343312,None,001,83,2019_Oct_31_1104,ACPT_experiment_5_30_19,3.1.0,59.95717763645452,
,,,C,U,d,n,L,G,y,L,y,,,,,5,19,119,6,2,0,2,0,,,,,0,17,17,34,,,,,,down,0.6838779807876563,1341.1887374257494,None,001,83,2019_Oct_31_1104,ACPT_experiment_5_30_19,3.1.0,59.95717763645452,
,,,C,U,d,n,L,U,y,R,u,,,,,5,19,119,6,2,0,2,0,,,,,0,18,18,25,,,,,,down,0.6505169159936486,1343.1402951166383,None,001,83,2019_Oct_31_1104,ACPT_experiment_5_30_19,3.1.0,59.95717763645452,
,,,C,U,d,n,L,U,g,L,u,,,,,5,19,119,6,2,0,2,0,,,,,0,19,19,22,,,,,,down,0.884060670301551,1345.0584703102359,None,001,83,2019_Oct_31_1104,ACPT_experiment_5_30_19,3.1.0,59.95717763645452,
,,,C,U,d,n,R,U,d,R,u,,,,,5,19,119,6,2,0,2,0,,,,,0,20,20,9,,,,,,down,0.9007188645919086,1347.2268857894524,None,001,83,2019_Oct_31_1104,ACPT_experiment_5_30_19,3.1.0,59.95717763645452,
,,,C,U,d,n,L,U,g,R,u,,,,,5,19,119,6,2,0,2,0,,,,,0,21,21,23,,,,,,down,1.334404254623223,1349.411962481623,None,001,83,2019_Oct_31_1104,ACPT_experiment_5_30_19,3.1.0,59.95717763645452,
,,,C,U,d,n,R,D,y,R,y,,,,,5,19,119,6,2,0,2,0,,,,,0,22,22,27,,,,,,down,0.8006589139258722,1352.0307203377015,None,001,83,2019_Oct_31_1104,ACPT_experiment_5_30_19,3.1.0,59.95717763645452,
,,,C,U,d,n,R,D,y,L,y,,,,,5,19,119,6,2,0,2,0,,,,,0,23,23,26,,,,,,down,0.8173134858225239,1354.1324007070943,None,001,83,2019_Oct_31_1104,ACPT_experiment_5_30_19,3.1.0,59.95717763645452,
,,,C,U,d,n,L,D,y,R,y,,,,,5,19,119,6,2,0,2,0,,,,,0,24,24,33,,,,,,down,0.5671184801467462,1356.250754967812,None,001,83,2019_Oct_31_1104,ACPT_experiment_5_30_19,3.1.0,59.95717763645452,
,,,C,U,d,n,R,D,d,R,c ,,,,,5,19,119,6,2,0,2,0,,,,,0,25,25,1,,,,,,up,1.0341573883051751,1358.102231577388,None,001,83,2019_Oct_31_1104,ACPT_experiment_5_30_19,3.1.0,59.95717763645452,
,,,C,U,d,n,R,D,g,R,i,,,,,5,19,119,6,2,0,2,0,,,,,0,26,26,3,,,,,,down,1.0508641830820125,1360.404045733958,None,001,83,2019_Oct_31_1104,ACPT_experiment_5_30_19,3.1.0,59.95717763645452,
,,,C,U,d,n,R,U,d,L,u,,,,,5,19,119,6,2,0,2,0,,,,,0,27,27,8,,,,,,down,1.2009605991916033,1362.7392701595381,None,001,83,2019_Oct_31_1104,ACPT_experiment_5_30_19,3.1.0,59.95717763645452,
,,,C,U,d,n,L,U,d,L,u,,,,,5,19,119,6,2,0,2,0,,,,,0,28,28,20,,,,,,down,1.0341582938999636,1365.2245786247222,None,001,83,2019_Oct_31_1104,ACPT_experiment_5_30_19,3.1.0,59.95717763645452,
,,,C,U,d,n,L,G,g,R,c ,,,,,5,19,119,6,2,0,2,0,,,,,0,29,29,19,,,,,,up,1.117559748410713,1367.5430977648502,None,001,83,2019_Oct_31_1104,ACPT_experiment_5_30_19,3.1.0,59.95717763645452,
,,,C,U,d,n,R,U,y,L,u,,,,,5,19,119,6,2,0,2,0,,,,,0,30,30,30,,,,,,down,0.6169801649666624,1369.9618383541674,None,001,83,2019_Oct_31_1104,ACPT_experiment_5_30_19,3.1.0,59.95717763645452,
,,,C,U,d,n,R,G,g,R,c ,,,,,5,19,119,6,2,0,2,0,,,,,0,31,31,7,,,,,,up,1.1175515980285127,1371.8798979329295,None,001,83,2019_Oct_31_1104,ACPT_experiment_5_30_19,3.1.0,59.95717763645452,
,,,C,U,d,n,L,D,d,R,c ,,,,,5,19,119,6,2,0,2,0,,,,,0,32,32,13,,,,,,up,1.6013069606851786,1374.2818073585368,None,001,83,2019_Oct_31_1104,ACPT_experiment_5_30_19,3.1.0,59.95717763645452,
,,,C,U,d,n,R,G,y,R,y,,,,,5,19,119,6,2,0,2,0,,,,,0,33,33,29,,,,,,down,0.6004729038686492,1377.1674504124094,None,001,83,2019_Oct_31_1104,ACPT_experiment_5_30_19,3.1.0,59.95717763645452,
,,,C,U,d,n,L,D,d,L,c ,,,,,5,19,119,6,2,0,2,0,,,,,0,34,34,12,,,,,,up,0.7672767184994882,1379.0522829550464,None,001,83,2019_Oct_31_1104,ACPT_experiment_5_30_19,3.1.0,59.95717763645452,
,,,C,U,d,n,L,U,d,R,u,,,,,5,19,119,6,2,0,2,0,,,,,0,35,35,21,,,,,,down,0.7005533814517548,1381.1039190104493,None,001,83,2019_Oct_31_1104,ACPT_experiment_5_30_19,3.1.0,59.95717763645452,
,,,C,U,d,n,R,U,y,R,u,,,,,5,19,119,6,2,0,2,0,,,,,1,0,36,31,,,,,,down,0.7172438754350878,1383.0888350493333,None,001,83,2019_Oct_31_1104,ACPT_experiment_5_30_19,3.1.0,59.95717763645452,
,,,C,U,d,n,L,D,g,R,i,,,,,5,19,119,6,2,0,2,0,,,,,1,1,37,15,,,,,,down,0.8340248085878557,1385.0904313187493,None,001,83,2019_Oct_31_1104,ACPT_experiment_5_30_19,3.1.0,59.95717763645452,
,,,C,U,d,n,R,G,d,L,i,,,,,5,19,119,6,2,0,2,0,,,,,1,2,38,4,,,,,,down,0.9674385792459361,1387.2087913149444,None,001,83,2019_Oct_31_1104,ACPT_experiment_5_30_19,3.1.0,59.95717763645452,
,,,C,U,d,n,R,D,g,L,i,,,,,5,19,119,6,2,0,2,0,,,,,1,3,39,2,,,,,,down,0.9007194683217676,1389.460588627364,None,001,83,2019_Oct_31_1104,ACPT_experiment_5_30_19,3.1.0,59.95717763645452,
,,,C,U,d,n,L,G,d,R,i,,,,,5,19,119,6,2,0,2,0,,,,,1,4,40,17,,,,,,down,1.668016110008466,1391.6456680363335,None,001,83,2019_Oct_31_1104,ACPT_experiment_5_30_19,3.1.0,59.95717763645452,
,,,C,U,d,n,L,D,y,L,y,,,,,5,19,119,6,2,0,2,0,,,,,1,5,41,32,,,,,,down,0.6672146547643933,1394.6146799431444,None,001,83,2019_Oct_31_1104,ACPT_experiment_5_30_19,3.1.0,59.95717763645452,
,,,C,U,d,n,R,G,y,R,y,,,,,5,19,119,6,2,0,2,0,,,,,1,6,42,29,,,,,,down,0.7005591168999672,1396.5829429194855,None,001,83,2019_Oct_31_1104,ACPT_experiment_5_30_19,3.1.0,59.95717763645452,
,,,C,U,d,n,R,D,d,L,c,,,,,5,19,119,6,2,0,2,0,,,,,1,7,43,0,,,,,,up,1.2176728275517235,1398.5678541285015,None,001,83,2019_Oct_31_1104,ACPT_experiment_5_30_19,3.1.0,59.95717763645452,
,,,C,U,d,n,L,U,y,R,u,,,,,5,19,119,6,2,0,2,0,,,,,1,8,44,25,,,,,,down,0.7005524758569663,1401.0698542951286,None,001,83,2019_Oct_31_1104,ACPT_experiment_5_30_19,3.1.0,59.95717763645452,
,,,C,U,d,n,R,G,d,R,i,,,,,5,19,119,6,2,0,2,0,,,,,1,9,45,5,,,,,,down,1.3177219110220904,1403.054768824688,None,001,83,2019_Oct_31_1104,ACPT_experiment_5_30_19,3.1.0,59.95717763645452,
,,,C,U,d,n,R,U,g,L,u,,,,,5,19,119,6,2,0,2,0,,,,,1,10,46,10,,,,,,down,1.8014422571868636,1405.6568464502343,None,001,83,2019_Oct_31_1104,ACPT_experiment_5_30_19,3.1.0,59.95717763645452,
,,,C,U,d,n,R,U,d,R,u,,,,,5,19,119,6,2,0,2,0,,,,,1,11,47,9,,,,,,down,0.6505389522208134,1408.7259418532922,None,001,83,2019_Oct_31_1104,ACPT_experiment_5_30_19,3.1.0,59.95717763645452,
,,,C,U,d,n,R,D,g,R,i,,,,,5,19,119,6,2,0,2,0,,,,,1,12,48,3,,,,,,down,0.8840422564535402,1410.6608359162929,None,001,83,2019_Oct_31_1104,ACPT_experiment_5_30_19,3.1.0,59.95717763645452,
,,,C,U,d,n,L,U,g,L,u,,,,,5,19,119,6,2,0,2,0,,,,,1,13,49,22,,,,,,down,0.7339244078320917,1412.82923479288,None,001,83,2019_Oct_31_1104,ACPT_experiment_5_30_19,3.1.0,59.95717763645452,
,,,C,U,d,n,L,D,d,L,c ,,,,,5,19,119,6,2,0,2,0,,,,,1,14,50,12,,,,,,up,1.0007987384306034,1414.8475131040177,None,001,83,2019_Oct_31_1104,ACPT_experiment_5_30_19,3.1.0,59.95717763645452,
,,,C,U,d,n,R,G,y,L,y,,,,,5,19,119,6,2,0,2,0,,,,,1,15,51,28,,,,,,down,0.7005923222168349,1417.1326690662972,None,001,83,2019_Oct_31_1104,ACPT_experiment_5_30_19,3.1.0,59.95717763645452,
,,,C,U,d,n,L,G,d,L,i,,,,,5,19,119,6,2,0,2,0,,,,,1,16,52,16,,,,,,down,0.8006365758337779,1419.1175863126555,None,001,83,2019_Oct_31_1104,ACPT_experiment_5_30_19,3.1.0,59.95717763645452,
,,,C,U,d,n,L,D,d,R,c ,,,,,5,19,119,6,2,0,2,0,,,,,1,17,53,13,,,,,,up,0.850678474875167,1421.2025807160535,None,001,83,2019_Oct_31_1104,ACPT_experiment_5_30_19,3.1.0,59.95717763645452,
,,,C,U,d,n,L,U,d,R,u,,,,,5,19,119,6,2,0,2,0,,,,,1,18,54,21,,,,,,down,1.0341561808309052,1423.3376218483609,None,001,83,2019_Oct_31_1104,ACPT_experiment_5_30_19,3.1.0,59.95717763645452,
,,,C,U,d,n,L,D,g,L,i,,,,,5,19,119,6,2,0,2,0,,,,,1,19,55,14,,,,,,down,1.2009590898669558,1425.6561361586355,None,001,83,2019_Oct_31_1104,ACPT_experiment_5_30_19,3.1.0,59.95717763645452,
,,,C,U,d,n,L,U,d,L,u,,,,,5,19,119,6,2,0,2,0,,,,,1,20,56,20,,,,,,down,0.6505138973298017,1428.14145639661,None,001,83,2019_Oct_31_1104,ACPT_experiment_5_30_19,3.1.0,59.95717763645452,
,,,C,U,d,n,L,U,g,R,u,,,,,5,19,119,6,2,0,2,0,,,,,1,21,57,23,,,,,,down,0.550459983991459,1430.0596276659344,None,001,83,2019_Oct_31_1104,ACPT_experiment_5_30_19,3.1.0,59.95717763645452,
,,,C,U,d,n,R,D,y,L,y,,,,,5,19,119,6,2,0,2,0,,,,,1,22,58,26,,,,,,down,0.6173037657281384,1431.8944605708093,None,001,83,2019_Oct_31_1104,ACPT_experiment_5_30_19,3.1.0,59.95717763645452,
,,,C,U,d,n,L,G,g,L,c ,,,,,5,19,119,6,2,0,2,0,,,,,1,23,59,18,,,,,,up,1.1675962138688192,1433.7959673066653,None,001,83,2019_Oct_31_1104,ACPT_experiment_5_30_19,3.1.0,59.95717763645452,
,,,C,U,d,n,L,G,g,R,c ,,,,,5,19,119,6,2,0,2,0,,,,,1,24,60,19,,,,,,up,0.6672182771580992,1436.2312175719999,None,001,83,2019_Oct_31_1104,ACPT_experiment_5_30_19,3.1.0,59.95717763645452,
,,,C,U,d,n,R,U,g,R,u,,,,,5,19,119,6,2,0,2,0,,,,,1,25,61,11,,,,,,down,0.8837757084402256,1438.183067167687,None,001,83,2019_Oct_31_1104,ACPT_experiment_5_30_19,3.1.0,59.95717763645452,
,,,C,U,d,n,L,G,y,R,y,,,,,5,19,119,6,2,0,2,0,,,,,1,26,62,35,,,,,,down,0.9173948689858662,1440.3511967794475,None,001,83,2019_Oct_31_1104,ACPT_experiment_5_30_19,3.1.0,59.95717763645452,
,,,C,U,d,n,R,U,d,L,u,,,,,5,19,119,6,2,0,2,0,,,,,1,27,63,8,,,,,,down,0.9173840018047486,1442.5529654749407,None,001,83,2019_Oct_31_1104,ACPT_experiment_5_30_19,3.1.0,59.95717763645452,
,,,C,U,d,n,R,G,g,R,c ,,,,,5,19,119,6,2,0,2,0,,,,,1,28,64,7,,,,,,up,0.9841088481916813,1444.7547151528415,None,001,83,2019_Oct_31_1104,ACPT_experiment_5_30_19,3.1.0,59.95717763645452,
,,,C,U,d,n,L,D,y,R,y,,,,,5,19,119,6,2,0,2,0,,,,,1,29,65,33,,,,,,down,1.050835505768191,1447.0232014499197,None,001,83,2019_Oct_31_1104,ACPT_experiment_5_30_19,3.1.0,59.95717763645452,
,,,C,U,d,n,L,G,y,L,y,,,,,5,19,119,6,2,0,2,0,,,,,1,30,66,34,,,,,,down,1.3510651657124981,1449.3583932739275,None,001,83,2019_Oct_31_1104,ACPT_experiment_5_30_19,3.1.0,59.95717763645452,
,,,C,U,d,n,L,U,y,L,u,,,,,5,19,119,6,2,0,2,0,,,,,1,31,67,24,,,,,,down,0.6171800004958641,1451.9938180784084,None,001,83,2019_Oct_31_1104,ACPT_experiment_5_30_19,3.1.0,59.95717763645452,
,,,C,U,d,n,R,D,d,R,c ,,,,,5,19,119,6,2,0,2,0,,,,,1,32,68,1,,,,,,up,1.0174732335144654,1453.8953368889197,None,001,83,2019_Oct_31_1104,ACPT_experiment_5_30_19,3.1.0,59.95717763645452,
,,,C,U,d,n,R,G,g,L,c ,,,,,5,19,119,6,2,0,2,0,,,,,1,33,69,6,,,,,,up,1.0341582938999636,1456.197171572392,None,001,83,2019_Oct_31_1104,ACPT_experiment_5_30_19,3.1.0,59.95717763645452,
,,,C,U,d,n,R,D,y,R,y,,,,,5,19,119,6,2,0,2,0,,,,,1,34,70,27,,,,,,down,0.6004559993452858,1458.5157365962223,None,001,83,2019_Oct_31_1104,ACPT_experiment_5_30_19,3.1.0,59.95717763645452,
,,,C,U,d,n,R,U,y,L,u,,,,,5,19,119,6,2,0,2,0,,,,,1,35,71,30,,,,,,down,0.6671883923845598,1460.4172119379655,None,001,83,2019_Oct_31_1104,ACPT_experiment_5_30_19,3.1.0,59.95717763645452,
,,,C,U,d,n,,,,,,,,,,5,19,119,6,3,0,3,0,0,0,0,0,,,,,,,,,,,,,,001,83,2019_Oct_31_1104,ACPT_experiment_5_30_19,3.1.0,59.95717763645452,
,,,C,U,d,n,L,D,y,R,y,,,,,5,19,119,6,3,0,3,0,,,,,0,0,0,33,,,,,,down,1.0174684036464896,1467.6062898689997,None,001,83,2019_Oct_31_1104,ACPT_experiment_5_30_19,3.1.0,59.95717763645452,
,,,C,U,d,n,L,G,d,L,i,,,,,5,19,119,6,3,0,3,0,,,,,0,1,1,16,,,,,,down,0.9841200172377285,1469.9081167039549,None,001,83,2019_Oct_31_1104,ACPT_experiment_5_30_19,3.1.0,59.95717763645452,
,,,C,U,d,n,R,U,d,L,u,,,,,5,19,119,6,3,0,3,0,,,,,0,2,2,8,,,,,,down,0.8173162026068894,1472.1599149219692,None,001,83,2019_Oct_31_1104,ACPT_experiment_5_30_19,3.1.0,59.95717763645452,
,,,C,U,d,n,L,D,y,L,y,,,,,5,19,119,6,3,0,3,0,,,,,0,3,3,32,,,,,,down,0.617167623975547,1474.261584424181,None,001,83,2019_Oct_31_1104,ACPT_experiment_5_30_19,3.1.0,59.95717763645452,
,,,C,U,d,n,L,D,g,L,i,,,,,5,19,119,6,3,0,3,0,,,,,0,4,4,14,,,,,,down,1.9682856162980897,1476.1631059514766,None,001,83,2019_Oct_31_1104,ACPT_experiment_5_30_19,3.1.0,59.95717763645452,
,,,C,U,d,n,R,G,y,L,y,,,,,5,19,119,6,3,0,3,0,,,,,0,5,5,28,,,,,,down,0.6004750169377076,1479.415701096732,None,001,83,2019_Oct_31_1104,ACPT_experiment_5_30_19,3.1.0,59.95717763645452,
,,,C,U,d,n,L,D,d,R,c ,,,,,5,19,119,6,3,0,3,0,,,,,0,6,6,13,,,,,,up,0.6505084637319669,1481.300543299105,None,001,83,2019_Oct_31_1104,ACPT_experiment_5_30_19,3.1.0,59.95717763645452,
,,,C,U,d,n,R,G,g,R,c ,,,,,5,19,119,6,3,0,3,0,,,,,0,7,7,7,,,,,,up,0.90070860114065,1483.2354267967894,None,001,83,2019_Oct_31_1104,ACPT_experiment_5_30_19,3.1.0,59.95717763645452,
,,,C,U,d,n,R,G,y,R,y,,,,,5,19,119,6,3,0,3,0,,,,,0,8,8,29,,,,,,down,0.6004964494495653,1485.403789147531,None,001,83,2019_Oct_31_1104,ACPT_experiment_5_30_19,3.1.0,59.95717763645452,
,,,C,U,d,n,R,U,d,R,u,,,,,5,19,119,6,3,0,3,0,,,,,0,9,9,9,,,,,,down,0.8840404452639632,1487.288653688025,None,001,83,2019_Oct_31_1104,ACPT_experiment_5_30_19,3.1.0,59.95717763645452,
,,,C,U,d,n,L,U,g,L,u,,,,,5,19,119,6,3,0,3,0,,,,,0,10,10,22,,,,,,down,0.7671653298020829,1489.45704652727,None,001,83,2019_Oct_31_1104,ACPT_experiment_5_30_19,3.1.0,59.95717763645452,
,,,C,U,d,n,R,U,g,R,u,,,,,5,19,119,6,3,0,3,0,,,,,0,11,11,11,,,,,,down,0.5837950882851146,1491.5086843938625,None,001,83,2019_Oct_31_1104,ACPT_experiment_5_30_19,3.1.0,59.95717763645452,
,,,C,U,d,n,R,D,g,R,i,,,,,5,19,119,6,3,0,3,0,,,,,0,12,12,3,,,,,,down,0.8673541774041951,1493.3768436489045,None,001,83,2019_Oct_31_1104,ACPT_experiment_5_30_19,3.1.0,59.95717763645452,
,,,C,U,d,n,R,D,d,L,c,,,,,5,19,119,6,3,0,3,0,,,,,0,13,13,0,,,,,,up,0.7172571575501934,1495.5118579151167,None,001,83,2019_Oct_31_1104,ACPT_experiment_5_30_19,3.1.0,59.95717763645452,
,,,C,U,d,n,L,G,y,L,y,,,,,5,19,119,6,3,0,3,0,,,,,0,14,14,34,,,,,,down,0.717239649296971,1497.5134729002457,None,001,83,2019_Oct_31_1104,ACPT_experiment_5_30_19,3.1.0,59.95717763645452,
,,,C,U,d,n,L,G,y,R,y,,,,,5,19,119,6,3,0,3,0,,,,,0,15,15,35,,,,,,down,0.5337477556313388,1499.5150779237883,None,001,83,2019_Oct_31_1104,ACPT_experiment_5_30_19,3.1.0,59.95717763645452,
,,,C,U,d,n,R,D,g,L,i,,,,,5,19,119,6,3,0,3,0,,,,,0,16,16,2,,,,,,down,0.9340772125869989,1501.3331871293776,None,001,83,2019_Oct_31_1104,ACPT_experiment_5_30_19,3.1.0,59.95717763645452,
,,,C,U,d,n,L,G,g,L,c ,,,,,5,19,119,6,3,0,3,0,,,,,0,17,17,18,,,,,,up,0.7505976954271318,1503.551625791937,None,001,83,2019_Oct_31_1104,ACPT_experiment_5_30_19,3.1.0,59.95717763645452,
,,,C,U,d,n,R,G,g,L,c ,,,,,5,19,119,6,3,0,3,0,,,,,0,18,18,6,,,,,,up,1.2676920866360888,1505.5865822205524,None,001,83,2019_Oct_31_1104,ACPT_experiment_5_30_19,3.1.0,59.95717763645452,
,,,C,U,d,n,L,G,d,R,i,,,,,5,19,119,6,3,0,3,0,,,,,0,19,19,17,,,,,,down,1.0007637219387107,1508.1386405870144,None,001,83,2019_Oct_31_1104,ACPT_experiment_5_30_19,3.1.0,59.95717763645452,
,,,C,U,d,n,R,G,d,R,i,,,,,5,19,119,6,3,0,3,0,,,,,0,20,20,5,,,,,,down,0.7506046383496141,1510.4070960937242,None,001,83,2019_Oct_31_1104,ACPT_experiment_5_30_19,3.1.0,59.95717763645452,
,,,C,U,d,n,R,U,y,R,u,,,,,5,19,119,6,3,0,3,0,,,,,0,21,21,31,,,,,,down,0.7005548907909542,1512.4420531260694,None,001,83,2019_Oct_31_1104,ACPT_experiment_5_30_19,3.1.0,59.95717763645452,
,,,C,U,d,n,R,D,y,R,y,,,,,5,19,119,6,3,0,3,0,,,,,0,22,22,27,,,,,,down,0.5170774866855936,1514.4436521122698,None,001,83,2019_Oct_31_1104,ACPT_experiment_5_30_19,3.1.0,59.95717763645452,
,,,C,U,d,n,L,G,g,R,c ,,,,,5,19,119,6,3,0,3,0,,,,,0,23,23,19,,,,,,up,0.6838607743993634,1516.2617800335865,None,001,83,2019_Oct_31_1104,ACPT_experiment_5_30_19,3.1.0,59.95717763645452,
,,,C,U,d,n,R,G,d,L,i,,,,,5,19,119,6,3,0,3,0,,,,,0,24,24,4,,,,,,down,0.7005503627879079,1518.2300119176798,None,001,83,2019_Oct_31_1104,ACPT_experiment_5_30_19,3.1.0,59.95717763645452,
,,,C,U,d,n,R,U,y,L,u,,,,,5,19,119,6,3,0,3,0,,,,,0,25,25,30,,,,,,down,0.6504236392793246,1520.2316842574219,None,001,83,2019_Oct_31_1104,ACPT_experiment_5_30_19,3.1.0,59.95717763645452,
,,,C,U,d,n,L,U,d,R,u,,,,,5,19,119,6,3,0,3,0,,,,,0,26,26,21,,,,,,down,1.1675796112249373,1522.1998542589135,None,001,83,2019_Oct_31_1104,ACPT_experiment_5_30_19,3.1.0,59.95717763645452,
,,,C,U,d,n,L,U,y,L,u,,,,,5,19,119,6,3,0,3,0,,,,,0,27,27,24,,,,,,down,0.5337414164241636,1524.6518143376888,None,001,83,2019_Oct_31_1104,ACPT_experiment_5_30_19,3.1.0,59.95717763645452,
,,,C,U,d,n,R,D,y,L,y,,,,,5,19,119,6,3,0,3,0,,,,,0,28,28,26,,,,,,down,0.6838954890263267,1526.486572379712,None,001,83,2019_Oct_31_1104,ACPT_experiment_5_30_19,3.1.0,59.95717763645452,
,,,C,U,d,n,L,D,d,L,c ,,,,,5,19,119,6,3,0,3,0,,,,,0,29,29,12,,,,,,down,0.5504533429339062,1528.4715149828262,None,001,83,2019_Oct_31_1104,ACPT_experiment_5_30_19,3.1.0,59.95717763645452,
,,,C,U,d,n,L,U,y,R,u,,,,,5,19,119,6,3,0,3,0,,,,,0,30,30,25,,,,,,down,0.5671571190323448,1530.3063092488155,None,001,83,2019_Oct_31_1104,ACPT_experiment_5_30_19,3.1.0,59.95717763645452,
,,,C,U,d,n,R,U,g,L,u,,,,,5,19,119,6,3,0,3,0,,,,,0,31,31,10,,,,,,down,0.5837968994601397,1532.1577828397421,None,001,83,2019_Oct_31_1104,ACPT_experiment_5_30_19,3.1.0,59.95717763645452,
,,,C,U,d,n,L,D,g,R,i,,,,,5,19,119,6,3,0,3,0,,,,,0,32,32,15,,,,,,down,0.7672836614219705,1534.0259387742553,None,001,83,2019_Oct_31_1104,ACPT_experiment_5_30_19,3.1.0,59.95717763645452,
,,,C,U,d,n,L,U,d,L,u,,,,,5,19,119,6,3,0,3,0,,,,,0,33,33,20,,,,,,down,1.050540280441055,1536.0945466631092,None,001,83,2019_Oct_31_1104,ACPT_experiment_5_30_19,3.1.0,59.95717763645452,
,,,C,U,d,n,R,D,d,R,c ,,,,,5,19,119,6,3,0,3,0,,,,,0,34,34,1,,,,,,up,0.6672152584942523,1538.4294574495143,None,001,83,2019_Oct_31_1104,ACPT_experiment_5_30_19,3.1.0,59.95717763645452,
,,,C,U,d,n,L,U,g,R,u,,,,,5,19,119,6,3,0,3,0,,,,,0,35,35,23,,,,,,down,0.8673227833060082,1540.3977017101279,None,001,83,2019_Oct_31_1104,ACPT_experiment_5_30_19,3.1.0,59.95717763645452,
,,,C,U,d,n,R,D,y,R,y,,,,,5,19,119,6,3,0,3,0,,,,,1,0,36,27,,,,,,down,0.6669562571478309,1542.5663375518052,None,001,83,2019_Oct_31_1104,ACPT_experiment_5_30_19,3.1.0,59.95717763645452,
,,,C,U,d,n,L,U,g,L,u,,,,,5,19,119,6,3,0,3,0,,,,,1,1,37,22,,,,,,down,1.8514796282397583,1544.5176501272072,None,001,83,2019_Oct_31_1104,ACPT_experiment_5_30_19,3.1.0,59.95717763645452,
,,,C,U,d,n,R,G,g,L,c ,,,,,5,19,119,6,3,0,3,0,,,,,1,2,38,6,,,,,,up,1.1008807253383566,1547.6534848662268,None,001,83,2019_Oct_31_1104,ACPT_experiment_5_30_19,3.1.0,59.95717763645452,
,,,C,U,d,n,L,U,g,R,u,,,,,5,19,119,6,3,0,3,0,,,,,1,3,39,23,,,,,,down,0.9507619711075677,1550.0387179855607,None,001,83,2019_Oct_31_1104,ACPT_experiment_5_30_19,3.1.0,59.95717763645452,
,,,C,U,d,n,L,D,g,L,i,,,,,5,19,119,6,3,0,3,0,,,,,1,4,40,14,,,,,,down,0.9340817405900452,1552.2738344637182,None,001,83,2019_Oct_31_1104,ACPT_experiment_5_30_19,3.1.0,59.95717763645452,
,,,C,U,d,n,R,G,y,R,y,,,,,5,19,119,6,3,0,3,0,,,,,1,5,41,29,,,,,,down,0.7172825143206865,1554.4922749374819,None,001,83,2019_Oct_31_1104,ACPT_experiment_5_30_19,3.1.0,59.95717763645452,
,,,C,U,d,n,R,G,g,R,c ,,,,,5,19,119,6,3,0,3,0,,,,,1,6,42,7,,,,,,up,0.9840834914066363,1556.4938944505993,None,001,83,2019_Oct_31_1104,ACPT_experiment_5_30_19,3.1.0,59.95717763645452,
,,,C,U,d,n,L,D,d,R,c ,,,,,5,19,119,6,3,0,3,0,,,,,1,7,43,13,,,,,,up,0.8840778767043957,1558.7623502591741,None,001,83,2019_Oct_31_1104,ACPT_experiment_5_30_19,3.1.0,59.95717763645452,
,,,C,U,d,n,R,D,g,R,i,,,,,5,19,119,6,3,0,3,0,,,,,1,8,44,3,,,,,,down,0.6672182771726511,1560.9307237789762,None,001,83,2019_Oct_31_1104,ACPT_experiment_5_30_19,3.1.0,59.95717763645452,
,,,C,U,d,n,R,U,y,R,u,,,,,5,19,119,6,3,0,3,0,,,,,1,9,45,31,,,,,,down,0.6505184253182961,1562.882302600512,None,001,83,2019_Oct_31_1104,ACPT_experiment_5_30_19,3.1.0,59.95717763645452,
,,,C,U,d,n,L,U,y,R,u,,,,,5,19,119,6,3,0,3,0,,,,,1,10,46,25,,,,,,down,1.3510721086204285,1564.817183985142,None,001,83,2019_Oct_31_1104,ACPT_experiment_5_30_19,3.1.0,59.95717763645452,
,,,C,U,d,n,R,D,d,L,c,,,,,5,19,119,6,3,0,3,0,,,,,1,11,47,0,,,,,,up,0.8840609721810324,1567.452624184807,None,001,83,2019_Oct_31_1104,ACPT_experiment_5_30_19,3.1.0,59.95717763645452,
,,,C,U,d,n,R,G,d,L,i,,,,,5,19,119,6,3,0,3,0,,,,,1,12,48,4,,,,,,down,0.7505584527971223,1569.6210348341701,None,001,83,2019_Oct_31_1104,ACPT_experiment_5_30_19,3.1.0,59.95717763645452,
,,,C,U,d,n,R,D,g,L,i,,,,,5,19,119,6,3,0,3,0,,,,,1,13,49,2,,,,,,down,1.0841959668323398,1571.655969528394,None,001,83,2019_Oct_31_1104,ACPT_experiment_5_30_19,3.1.0,59.95717763645452,
,,,C,U,d,n,L,G,g,R,c ,,,,,5,19,119,6,3,0,3,0,,,,,1,14,50,19,,,,,,up,1.9682409400847973,1574.0245206060063,None,001,83,2019_Oct_31_1104,ACPT_experiment_5_30_19,3.1.0,59.95717763645452,
,,,C,U,d,n,L,G,y,R,y,,,,,5,19,119,6,3,0,3,0,,,,,1,15,51,35,,,,,,down,0.5838171245122794,1577.2771208829945,None,001,83,2019_Oct_31_1104,ACPT_experiment_5_30_19,3.1.0,59.95717763645452,
,,,C,U,d,n,R,G,d,R,i,,,,,5,19,119,6,3,0,3,0,,,,,1,16,52,5,,,,,,down,0.7172586668748409,1579.1452771193726,None,001,83,2019_Oct_31_1104,ACPT_experiment_5_30_19,3.1.0,59.95717763645452,
,,,C,U,d,n,L,U,d,L,u,,,,,5,19,119,6,3,0,3,0,,,,,1,17,53,20,,,,,,down,0.7005826624808833,1581.1468748981133,None,001,83,2019_Oct_31_1104,ACPT_experiment_5_30_19,3.1.0,59.95717763645452,
,,,C,U,d,n,L,D,g,R,i,,,,,5,19,119,6,3,0,3,0,,,,,1,18,54,15,,,,,,down,0.9007197701866971,1583.1317924463365,None,001,83,2019_Oct_31_1104,ACPT_experiment_5_30_19,3.1.0,59.95717763645452,
,,,C,U,d,n,L,D,y,R,y,,,,,5,19,119,6,3,0,3,0,,,,,1,19,55,33,,,,,,down,0.6171513232111465,1585.333563858614,None,001,83,2019_Oct_31_1104,ACPT_experiment_5_30_19,3.1.0,59.95717763645452,
,,,C,U,d,n,L,D,y,L,y,,,,,5,19,119,6,3,0,3,0,,,,,1,20,56,32,,,,,,down,0.7506001103611197,1587.25174418393,None,001,83,2019_Oct_31_1104,ACPT_experiment_5_30_19,3.1.0,59.95717763645452,
,,,C,U,d,n,R,D,d,R,c ,,,,,5,19,119,6,3,0,3,0,,,,,1,21,57,1,,,,,,up,0.6171570586593589,1589.286706046143,None,001,83,2019_Oct_31_1104,ACPT_experiment_5_30_19,3.1.0,59.95717763645452,
,,,C,U,d,n,R,D,y,L,y,,,,,5,19,119,6,3,0,3,0,,,,,1,22,58,26,,,,,,down,0.7339364824729273,1591.171522589866,None,001,83,2019_Oct_31_1104,ACPT_experiment_5_30_19,3.1.0,59.95717763645452,
,,,C,U,d,n,L,D,d,L,c ,,,,,5,19,119,6,3,0,3,0,,,,,1,23,59,12,,,,,,up,0.6838755658391165,1593.189821126056,None,001,83,2019_Oct_31_1104,ACPT_experiment_5_30_19,3.1.0,59.95717763645452,
,,,C,U,d,n,R,U,g,L,u,,,,,5,19,119,6,3,0,3,0,,,,,1,24,60,10,,,,,,down,0.5971517699654214,1595.1780619212368,None,001,83,2019_Oct_31_1104,ACPT_experiment_5_30_19,3.1.0,59.95717763645452,
,,,C,U,d,n,L,G,y,L,y,,,,,5,19,119,6,3,0,3,0,,,,,1,25,61,34,,,,,,down,0.6338203846680699,1597.0595917438332,None,001,83,2019_Oct_31_1104,ACPT_experiment_5_30_19,3.1.0,59.95717763645452,
,,,C,U,d,n,L,G,d,R,i,,,,,5,19,119,6,3,0,3,0,,,,,1,26,62,17,,,,,,down,1.5679781955986982,1598.9777681448759,None,001,83,2019_Oct_31_1104,ACPT_experiment_5_30_19,3.1.0,59.95717763645452,
,,,C,U,d,n,R,G,y,L,y,,,,,5,19,119,6,3,0,3,0,,,,,1,27,63,28,,,,,,down,0.6505024264042731,1601.8300401723682,None,001,83,2019_Oct_31_1104,ACPT_experiment_5_30_19,3.1.0,59.95717763645452,
,,,C,U,d,n,R,U,d,R,u,,,,,5,19,119,6,3,0,3,0,,,,,1,28,64,9,,,,,,down,0.6338602310424903,1603.764922160728,None,001,83,2019_Oct_31_1104,ACPT_experiment_5_30_19,3.1.0,59.95717763645452,
,,,C,U,d,n,L,G,d,L,i,,,,,5,19,119,6,3,0,3,0,,,,,1,29,65,16,,,,,,down,0.9841477889567614,1605.6831148625643,None,001,83,2019_Oct_31_1104,ACPT_experiment_5_30_19,3.1.0,59.95717763645452,
,,,C,U,d,n,L,U,y,L,u,,,,,5,19,119,6,3,0,3,0,,,,,1,30,66,24,,,,,,down,0.6171585679985583,1607.9515933111252,None,001,83,2019_Oct_31_1104,ACPT_experiment_5_30_19,3.1.0,59.95717763645452,
,,,C,U,d,n,R,U,d,L,u,,,,,5,19,119,6,3,0,3,0,,,,,1,31,67,8,,,,,,down,0.8173548415215919,1609.853110008553,None,001,83,2019_Oct_31_1104,ACPT_experiment_5_30_19,3.1.0,59.95717763645452,
,,,C,U,d,n,L,G,g,L,c ,,,,,5,19,119,6,3,0,3,0,,,,,1,32,68,18,,,,,,up,1.0174786671123002,1611.9547912835405,None,001,83,2019_Oct_31_1104,ACPT_experiment_5_30_19,3.1.0,59.95717763645452,
,,,C,U,d,n,R,U,g,R,u,,,,,5,19,119,6,3,0,3,0,,,,,1,33,69,11,,,,,,down,0.8173231455439236,1614.2566259670275,None,001,83,2019_Oct_31_1104,ACPT_experiment_5_30_19,3.1.0,59.95717763645452,
,,,C,U,d,n,R,U,y,L,u,,,,,5,19,119,6,3,0,3,0,,,,,1,34,70,30,,,,,,down,0.6503324756340589,1616.3584485154715,None,001,83,2019_Oct_31_1104,ACPT_experiment_5_30_19,3.1.0,59.95717763645452,
,,,C,U,d,n,L,U,d,R,u,,,,,5,19,119,6,3,0,3,0,,,,,1,35,71,21,,,,,,down,0.6338572123786435,1618.3098616123752,None,001,83,2019_Oct_31_1104,ACPT_experiment_5_30_19,3.1.0,59.95717763645452,
,,,C,U,d,n,,,,,,,,,,5,19,119,6,4,0,4,0,0,0,0,0,,,,,,,,,,,,,,001,83,2019_Oct_31_1104,ACPT_experiment_5_30_19,3.1.0,59.95717763645452,
,,,C,U,d,n,R,D,g,R,i,,,,,5,19,119,6,4,0,4,0,,,,,0,0,0,3,,,,,,down,1.5012014281819575,1621.9794573891413,None,001,83,2019_Oct_31_1104,ACPT_experiment_5_30_19,3.1.0,59.95717763645452,
,,,C,U,d,n,L,D,g,L,i,,,,,5,19,119,6,4,0,4,0,,,,,0,1,1,14,,,,,,down,1.0842007966857636,1624.7650151355774,None,001,83,2019_Oct_31_1104,ACPT_experiment_5_30_19,3.1.0,59.95717763645452,
,,,C,U,d,n,L,D,y,R,y,,,,,5,19,119,6,4,0,4,0,,,,,0,2,2,33,,,,,,down,0.6838758677185979,1627.116888699442,None,001,83,2019_Oct_31_1104,ACPT_experiment_5_30_19,3.1.0,59.95717763645452,
,,,C,U,d,n,L,G,g,R,c ,,,,,5,19,119,6,4,0,4,0,,,,,0,3,3,19,,,,,,up,1.0842017022805521,1629.0851254134031,None,001,83,2019_Oct_31_1104,ACPT_experiment_5_30_19,3.1.0,59.95717763645452,
,,,C,U,d,n,L,D,d,L,c ,,,,,5,19,119,6,4,0,4,0,,,,,0,4,4,12,,,,,,up,1.1008375584497117,1631.4537272045563,None,001,83,2019_Oct_31_1104,ACPT_experiment_5_30_19,3.1.0,59.95717763645452,
,,,C,U,d,n,R,D,d,L,c,,,,,5,19,119,6,4,0,4,0,,,,,0,5,5,0,,,,,,up,0.8006350664945785,1633.8389204775303,None,001,83,2019_Oct_31_1104,ACPT_experiment_5_30_19,3.1.0,59.95717763645452,
,,,C,U,d,n,L,U,g,L,u,,,,,5,19,119,6,4,0,4,0,,,,,0,6,6,22,,,,,,down,0.8673816472437466,1635.923916390253,None,001,83,2019_Oct_31_1104,ACPT_experiment_5_30_19,3.1.0,59.95717763645452,
,,,C,U,d,n,R,U,y,L,u,,,,,5,19,119,6,4,0,4,0,,,,,0,7,7,30,,,,,,down,0.6670057632290991,1638.0924707280064,None,001,83,2019_Oct_31_1104,ACPT_experiment_5_30_19,3.1.0,59.95717763645452,
,,,C,U,d,n,R,U,d,L,u,,,,,5,19,119,6,4,0,4,0,,,,,0,8,8,8,,,,,,down,1.3177062139875488,1640.0605553013156,None,001,83,2019_Oct_31_1104,ACPT_experiment_5_30_19,3.1.0,59.95717763645452,
,,,C,U,d,n,R,D,y,L,y,,,,,5,19,119,6,4,0,4,0,,,,,0,9,9,26,,,,,,down,0.7172318007797003,1642.662628398859,None,001,83,2019_Oct_31_1104,ACPT_experiment_5_30_19,3.1.0,59.95717763645452,
,,,C,U,d,n,L,D,d,R,c ,,,,,5,19,119,6,4,0,4,0,,,,,0,10,10,13,,,,,,up,0.7505986010219203,1644.6642216496111,None,001,83,2019_Oct_31_1104,ACPT_experiment_5_30_19,3.1.0,59.95717763645452,
,,,C,U,d,n,R,D,d,R,c ,,,,,5,19,119,6,4,0,4,0,,,,,0,11,11,1,,,,,,up,0.6171377392020077,1646.6991964920744,None,001,83,2019_Oct_31_1104,ACPT_experiment_5_30_19,3.1.0,59.95717763645452,
,,,C,U,d,n,R,G,y,L,y,,,,,5,19,119,6,4,0,4,0,,,,,0,12,12,28,,,,,,down,0.6834752910363022,1648.6344337771588,None,001,83,2019_Oct_31_1104,ACPT_experiment_5_30_19,3.1.0,59.95717763645452,
,,,C,U,d,n,R,U,y,R,u,,,,,5,19,119,6,4,0,4,0,,,,,0,13,13,31,,,,,,down,0.7005467403942021,1650.6023167037056,None,001,83,2019_Oct_31_1104,ACPT_experiment_5_30_19,3.1.0,59.95717763645452,
,,,C,U,d,n,L,U,g,R,u,,,,,5,19,119,6,4,0,4,0,,,,,0,14,14,23,,,,,,down,1.1008743861602852,1652.587212517552,None,001,83,2019_Oct_31_1104,ACPT_experiment_5_30_19,3.1.0,59.95717763645452,
,,,C,U,d,n,R,D,g,L,i,,,,,5,19,119,6,4,0,4,0,,,,,0,15,15,2,,,,,,down,0.9004580520413583,1654.989406905006,None,001,83,2019_Oct_31_1104,ACPT_experiment_5_30_19,3.1.0,59.95717763645452,
,,,C,U,d,n,L,U,d,R,u,,,,,5,19,119,6,4,0,4,0,,,,,0,16,16,21,,,,,,down,0.9174175089719938,1657.1741853532003,None,001,83,2019_Oct_31_1104,ACPT_experiment_5_30_19,3.1.0,59.95717763645452,
,,,C,U,d,n,L,U,d,L,u,,,,,5,19,119,6,4,0,4,0,,,,,0,17,17,20,,,,,,down,0.7339204835589044,1659.3759603878862,None,001,83,2019_Oct_31_1104,ACPT_experiment_5_30_19,3.1.0,59.95717763645452,
,,,C,U,d,n,L,D,y,L,y,,,,,5,19,119,6,4,0,4,0,,,,,0,18,18,32,,,,,,down,0.7336451814335305,1661.411193627966,None,001,83,2019_Oct_31_1104,ACPT_experiment_5_30_19,3.1.0,59.95717763645452,
,,,C,U,d,n,L,G,g,L,c ,,,,,5,19,119,6,4,0,4,0,,,,,0,19,19,18,,,,,,up,0.8006377832934959,1663.4291972406936,None,001,83,2019_Oct_31_1104,ACPT_experiment_5_30_19,3.1.0,59.95717763645452,
,,,C,U,d,n,R,G,y,R,y,,,,,5,19,119,6,4,0,4,0,,,,,0,20,20,29,,,,,,down,0.6672068062471226,1665.5141961720947,None,001,83,2019_Oct_31_1104,ACPT_experiment_5_30_19,3.1.0,59.95717763645452,
,,,C,U,d,n,R,G,d,R,i,,,,,5,19,119,6,4,0,4,0,,,,,0,21,21,5,,,,,,down,0.7005844736850122,1667.4657520517794,None,001,83,2019_Oct_31_1104,ACPT_experiment_5_30_19,3.1.0,59.95717763645452,
,,,C,U,d,n,L,U,y,L,u,,,,,5,19,119,6,4,0,4,0,,,,,0,22,22,24,,,,,,down,0.5671205932158045,1669.4506680906634,None,001,83,2019_Oct_31_1104,ACPT_experiment_5_30_19,3.1.0,59.95717763645452,
,,,C,U,d,n,R,G,g,L,c ,,,,,5,19,119,6,4,0,4,0,,,,,0,23,23,6,,,,,,up,0.8339994518028107,1671.302144398389,None,001,83,2019_Oct_31_1104,ACPT_experiment_5_30_19,3.1.0,59.95717763645452,
,,,C,U,d,n,R,D,y,R,y,,,,,5,19,119,6,4,0,4,0,,,,,0,24,24,27,,,,,,down,0.7505931674386375,1673.4371843232366,None,001,83,2019_Oct_31_1104,ACPT_experiment_5_30_19,3.1.0,59.95717763645452,
,,,C,U,d,n,R,U,d,R,u,,,,,5,19,119,6,4,0,4,0,,,,,0,25,25,9,,,,,,down,0.7005576075753197,1675.4888209823694,None,001,83,2019_Oct_31_1104,ACPT_experiment_5_30_19,3.1.0,59.95717763645452,
,,,C,U,d,n,R,G,g,R,c ,,,,,5,19,119,6,4,0,4,0,,,,,0,26,26,7,,,,,,up,1.1009115157212364,1677.4737318895204,None,001,83,2019_Oct_31_1104,ACPT_experiment_5_30_19,3.1.0,59.95717763645452,
,,,C,U,d,n,R,U,g,R,u,,,,,5,19,119,6,4,0,4,0,,,,,0,27,27,11,,,,,,down,0.9173993969889125,1679.858973762981,None,001,83,2019_Oct_31_1104,ACPT_experiment_5_30_19,3.1.0,59.95717763645452,
,,,C,U,d,n,L,D,g,R,i,,,,,5,19,119,6,4,0,4,0,,,,,0,28,28,15,,,,,,down,2.118367542847409,1682.0440450215538,None,001,83,2019_Oct_31_1104,ACPT_experiment_5_30_19,3.1.0,59.95717763645452,
,,,C,U,d,n,L,G,d,L,i,,,,,5,19,119,6,4,0,4,0,,,,,0,29,29,16,,,,,,up,0.83400216861628,1685.4467731087789,None,001,83,2019_Oct_31_1104,ACPT_experiment_5_30_19,3.1.0,59.95717763645452,
,,,C,U,d,n,R,U,g,L,u,,,,,5,19,119,6,4,0,4,0,,,,,0,30,30,10,,,,,,down,1.6179503635066794,1687.5651318974851,None,001,83,2019_Oct_31_1104,ACPT_experiment_5_30_19,3.1.0,59.95717763645452,
,,,C,U,d,n,R,G,d,L,i,,,,,5,19,119,6,4,0,4,0,,,,,0,31,31,4,,,,,,down,0.9174000007187715,1690.4674370699067,None,001,83,2019_Oct_31_1104,ACPT_experiment_5_30_19,3.1.0,59.95717763645452,
,,,C,U,d,n,L,G,d,R,i,,,,,5,19,119,6,4,0,4,0,,,,,0,32,32,17,,,,,,down,1.0007933048473205,1692.6691979168827,None,001,83,2019_Oct_31_1104,ACPT_experiment_5_30_19,3.1.0,59.95717763645452,
,,,C,U,d,n,L,G,y,L,y,,,,,5,19,119,6,4,0,4,0,,,,,0,33,33,34,,,,,,down,0.7005591169145191,1694.9543514642282,None,001,83,2019_Oct_31_1104,ACPT_experiment_5_30_19,3.1.0,59.95717763645452,
,,,C,U,d,n,L,U,y,R,u,,,,,5,19,119,6,4,0,4,0,,,,,0,34,34,25,,,,,,down,2.48531903050025,1696.9392696161813,None,001,83,2019_Oct_31_1104,ACPT_experiment_5_30_19,3.1.0,59.95717763645452,
,,,C,U,d,n,L,G,y,R,y,,,,,5,19,119,6,4,0,4,0,,,,,0,35,35,35,,,,,,down,2.7021620273881126,1700.7089395313233,None,001,83,2019_Oct_31_1104,ACPT_experiment_5_30_19,3.1.0,59.95717763645452,
,,,C,U,d,n,R,U,g,R,u,,,,,5,19,119,6,4,0,4,0,,,,,1,0,36,11,,,,,,down,0.7672589083813364,1704.6954747814743,None,001,83,2019_Oct_31_1104,ACPT_experiment_5_30_19,3.1.0,59.95717763645452,
,,,C,U,d,n,R,D,d,L,c,,,,,5,19,119,6,4,0,4,0,,,,,1,1,37,0,,,,,,up,0.7672761147696292,1706.7470945360983,None,001,83,2019_Oct_31_1104,ACPT_experiment_5_30_19,3.1.0,59.95717763645452,
,,,C,U,d,n,R,U,d,L,u,,,,,5,19,119,6,4,0,4,0,,,,,1,2,38,8,,,,,,down,1.7680811923928559,1708.798731497096,None,001,83,2019_Oct_31_1104,ACPT_experiment_5_30_19,3.1.0,59.95717763645452,
,,,C,U,d,n,R,U,y,L,u,,,,,5,19,119,6,4,0,4,0,,,,,1,3,39,30,,,,,,down,0.5671067073562881,1711.8511714226624,None,001,83,2019_Oct_31_1104,ACPT_experiment_5_30_19,3.1.0,59.95717763645452,
,,,C,U,d,n,R,U,g,L,u,,,,,5,19,119,6,4,0,4,0,,,,,1,4,40,10,,,,,,down,3.002394404131337,1713.7193249422562,None,001,83,2019_Oct_31_1104,ACPT_experiment_5_30_19,3.1.0,59.95717763645452,
,,,C,U,d,n,R,G,g,R,c ,,,,,5,19,119,6,4,0,4,0,,,,,1,5,41,7,,,,,,up,0.9507556319149444,1718.0060820038052,None,001,83,2019_Oct_31_1104,ACPT_experiment_5_30_19,3.1.0,59.95717763645452,
,,,C,U,d,n,R,D,g,R,i,,,,,5,19,119,6,4,0,4,0,,,,,1,6,42,3,,,,,,down,1.1509274542622734,1720.2411909353104,None,001,83,2019_Oct_31_1104,ACPT_experiment_5_30_19,3.1.0,59.95717763645452,
,,,C,U,d,n,L,U,d,R,u,,,,,5,19,119,6,4,0,4,0,,,,,1,7,43,21,,,,,,down,1.6680206379969604,1722.6764741040824,None,001,83,2019_Oct_31_1104,ACPT_experiment_5_30_19,3.1.0,59.95717763645452,
,,,C,U,d,n,L,G,y,L,y,,,,,5,19,119,6,4,0,4,0,,,,,1,8,44,34,,,,,,down,0.717237838107394,1725.6288272128877,None,001,83,2019_Oct_31_1104,ACPT_experiment_5_30_19,3.1.0,59.95717763645452,
,,,C,U,d,n,R,G,d,L,i,,,,,5,19,119,6,4,0,4,0,,,,,1,9,45,4,,,,,,down,1.467844287661137,1727.6304258972377,None,001,83,2019_Oct_31_1104,ACPT_experiment_5_30_19,3.1.0,59.95717763645452,
,,,C,U,d,n,L,D,g,R,i,,,,,5,19,119,6,4,0,4,0,,,,,1,10,46,15,,,,,,down,2.8356117201328743,1730.382618956486,None,001,83,2019_Oct_31_1104,ACPT_experiment_5_30_19,3.1.0,59.95717763645452,
,,,C,U,d,n,R,G,y,L,y,,,,,5,19,119,6,4,0,4,0,,,,,1,11,47,28,,,,,,down,0.6170972891122801,1734.5026322748308,None,001,83,2019_Oct_31_1104,ACPT_experiment_5_30_19,3.1.0,59.95717763645452,
,,,C,U,d,n,L,U,y,R,u,,,,,5,19,119,6,4,0,4,0,,,,,1,12,48,25,,,,,,down,0.5338111475575715,1736.4041036923009,None,001,83,2019_Oct_31_1104,ACPT_experiment_5_30_19,3.1.0,59.95717763645452,
,,,C,U,d,n,L,G,d,R,i,,,,,5,19,119,6,4,0,4,0,,,,,1,13,49,17,,,,,,down,1.0841989854816347,1738.222206558712,None,001,83,2019_Oct_31_1104,ACPT_experiment_5_30_19,3.1.0,59.95717763645452,
,,,C,U,d,n,R,D,d,R,c ,,,,,5,19,119,6,4,0,4,0,,,,,1,14,50,1,,,,,,up,0.8840461807121756,1740.5907627680426,None,001,83,2019_Oct_31_1104,ACPT_experiment_5_30_19,3.1.0,59.95717763645452,
,,,C,U,d,n,R,U,y,R,u,,,,,5,19,119,6,4,0,4,0,,,,,1,15,51,31,,,,,,down,0.5671181782672647,1742.7591664744687,None,001,83,2019_Oct_31_1104,ACPT_experiment_5_30_19,3.1.0,59.95717763645452,
,,,C,U,d,n,L,U,g,R,u,,,,,5,19,119,6,4,0,4,0,,,,,1,16,52,23,,,,,,down,0.6171597754582763,1744.6106406691251,None,001,83,2019_Oct_31_1104,ACPT_experiment_5_30_19,3.1.0,59.95717763645452,
,,,C,U,d,n,L,G,g,R,c ,,,,,5,19,119,6,4,0,4,0,,,,,1,17,53,19,,,,,,down,0.6171552474697819,1746.5121631020302,None,001,83,2019_Oct_31_1104,ACPT_experiment_5_30_19,3.1.0,59.95717763645452,
,,,C,U,d,n,R,D,y,R,y,,,,,5,19,119,6,4,0,4,0,,,,,1,18,54,27,,,,,,down,0.6503741331835045,1748.430509755708,None,001,83,2019_Oct_31_1104,ACPT_experiment_5_30_19,3.1.0,59.95717763645452,
,,,C,U,d,n,L,U,g,L,u,,,,,5,19,119,6,4,0,4,0,,,,,1,19,55,22,,,,,,down,0.7005141388071934,1750.3819572653738,None,001,83,2019_Oct_31_1104,ACPT_experiment_5_30_19,3.1.0,59.95717763645452,
,,,C,U,d,n,L,D,g,L,i,,,,,5,19,119,6,4,0,4,0,,,,,1,20,56,14,,,,,,down,1.2843590350385057,1752.366830439234,None,001,83,2019_Oct_31_1104,ACPT_experiment_5_30_19,3.1.0,59.95717763645452,
,,,C,U,d,n,L,U,y,L,u,,,,,5,19,119,6,4,0,4,0,,,,,1,21,57,24,,,,,,down,3.5194737020065077,1754.9355460943916,None,001,83,2019_Oct_31_1104,ACPT_experiment_5_30_19,3.1.0,59.95717763645452,
,,,C,U,d,n,R,G,y,R,y,,,,,5,19,119,6,4,0,4,0,,,,,1,22,58,29,,,,,,down,0.7339204835734563,1759.7393815482355,None,001,83,2019_Oct_31_1104,ACPT_experiment_5_30_19,3.1.0,59.95717763645452,
,,,C,U,d,n,L,D,d,R,c ,,,,,5,19,119,6,4,0,4,0,,,,,1,23,59,13,,,,,,up,0.5671377995895455,1761.7576571425743,None,001,83,2019_Oct_31_1104,ACPT_experiment_5_30_19,3.1.0,59.95717763645452,
,,,C,U,d,n,L,D,y,R,y,,,,,5,19,119,6,4,0,4,0,,,,,1,24,60,33,,,,,,down,0.6004789411963429,1763.609130431636,None,001,83,2019_Oct_31_1104,ACPT_experiment_5_30_19,3.1.0,59.95717763645452,
,,,C,U,d,n,R,G,d,R,i,,,,,5,19,119,6,4,0,4,0,,,,,1,25,61,5,,,,,,down,1.184263162271236,1765.49398410492,None,001,83,2019_Oct_31_1104,ACPT_experiment_5_30_19,3.1.0,59.95717763645452,
,,,C,U,d,n,R,G,g,L,c ,,,,,5,19,119,6,4,0,4,0,,,,,1,26,62,6,,,,,,up,0.7339081070385873,1767.9626108302327,None,001,83,2019_Oct_31_1104,ACPT_experiment_5_30_19,3.1.0,59.95717763645452,
,,,C,U,d,n,L,D,y,L,y,,,,,5,19,119,6,4,0,4,0,,,,,1,27,63,32,,,,,,down,0.66719775024103,1769.9975618252502,None,001,83,2019_Oct_31_1104,ACPT_experiment_5_30_19,3.1.0,59.95717763645452,
,,,C,U,d,n,L,G,d,L,i,,,,,5,19,119,6,4,0,4,0,,,,,1,28,64,16,,,,,,down,1.25099676278478,1771.9824842033267,None,001,83,2019_Oct_31_1104,ACPT_experiment_5_30_19,3.1.0,59.95717763645452,
,,,C,U,d,n,L,D,d,L,c ,,,,,5,19,119,6,4,0,4,0,,,,,1,29,65,12,,,,,,up,0.7005772288976004,1774.5178152481094,None,001,83,2019_Oct_31_1104,ACPT_experiment_5_30_19,3.1.0,59.95717763645452,
,,,C,U,d,n,L,G,y,R,y,,,,,5,19,119,6,4,0,4,0,,,,,1,30,66,35,,,,,,down,0.6672071081120521,1776.5027466821775,None,001,83,2019_Oct_31_1104,ACPT_experiment_5_30_19,3.1.0,59.95717763645452,
,,,C,U,d,n,R,D,g,L,i,,,,,5,19,119,6,4,0,4,0,,,,,1,31,67,2,,,,,,down,1.0508409393660259,1778.4543095047993,None,001,83,2019_Oct_31_1104,ACPT_experiment_5_30_19,3.1.0,59.95717763645452,
,,,C,U,d,n,L,G,g,L,c ,,,,,5,19,119,6,4,0,4,0,,,,,1,32,68,18,,,,,,up,0.9674473333725473,1780.7895070642699,None,001,83,2019_Oct_31_1104,ACPT_experiment_5_30_19,3.1.0,59.95717763645452,
,,,C,U,d,n,R,D,y,L,y,,,,,5,19,119,6,4,0,4,0,,,,,1,33,69,26,,,,,,down,0.5337501705507748,1783.0413125270861,None,001,83,2019_Oct_31_1104,ACPT_experiment_5_30_19,3.1.0,59.95717763645452,
,,,C,U,d,n,R,U,d,R,u,,,,,5,19,119,6,4,0,4,0,,,,,1,34,70,9,,,,,,down,0.9508117790683173,1784.8593951684452,None,001,83,2019_Oct_31_1104,ACPT_experiment_5_30_19,3.1.0,59.95717763645452,
,,,C,U,d,n,L,U,d,L,u,,,,,5,19,119,6,4,0,4,0,,,,,1,35,71,20,,,,,,down,0.667195335321594,1787.0945394183072,None,001,83,2019_Oct_31_1104,ACPT_experiment_5_30_19,3.1.0,59.95717763645452,
,,,C,U,d,n,,,,,,,,,,5,19,119,6,5,0,5,0,0,0,0,0,,,,,,,,,,,,,,001,83,2019_Oct_31_1104,ACPT_experiment_5_30_19,3.1.0,59.95717763645452,
,,,C,U,d,n,R,U,y,R,u,,,,,5,19,119,6,5,0,5,0,,,,,0,0,0,31,,,,,,down,0.7839958897966426,1790.714104465078,None,001,83,2019_Oct_31_1104,ACPT_experiment_5_30_19,3.1.0,59.95717763645452,
,,,C,U,d,n,R,G,d,R,i,,,,,5,19,119,6,5,0,5,0,,,,,0,1,1,5,,,,,,down,1.2343394741037628,1792.7824077707628,None,001,83,2019_Oct_31_1104,ACPT_experiment_5_30_19,3.1.0,59.95717763645452,
,,,C,U,d,n,R,G,y,L,y,,,,,5,19,119,6,5,0,5,0,,,,,0,2,2,28,,,,,,down,0.8673574979329715,1795.3010815268644,None,001,83,2019_Oct_31_1104,ACPT_experiment_5_30_19,3.1.0,59.95717763645452,
,,,C,U,d,n,L,U,g,R,u,,,,,5,19,119,6,5,0,5,0,,,,,0,3,3,23,,,,,,down,0.9340808349807048,1797.4694840258308,None,001,83,2019_Oct_31_1104,ACPT_experiment_5_30_19,3.1.0,59.95717763645452,
,,,C,U,d,n,L,G,y,L,y,,,,,5,19,119,6,5,0,5,0,,,,,0,4,4,34,,,,,,down,0.600477130006766,1799.6879220846604,None,001,83,2019_Oct_31_1104,ACPT_experiment_5_30_19,3.1.0,59.95717763645452,
,,,C,U,d,n,L,G,d,R,i,,,,,5,19,119,6,5,0,5,0,,,,,0,5,5,17,,,,,,down,1.6346372350963065,1801.5727588534355,None,001,83,2019_Oct_31_1104,ACPT_experiment_5_30_19,3.1.0,59.95717763645452,
,,,C,U,d,n,R,U,g,R,u,,,,,5,19,119,6,5,0,5,0,,,,,0,6,6,11,,,,,,down,0.5337604340165854,1804.4917545198405,None,001,83,2019_Oct_31_1104,ACPT_experiment_5_30_19,3.1.0,59.95717763645452,
,,,C,U,d,n,R,G,d,L,i,,,,,5,19,119,6,5,0,5,0,,,,,0,7,7,4,,,,,,down,0.7339180686249165,1806.3098685552977,None,001,83,2019_Oct_31_1104,ACPT_experiment_5_30_19,3.1.0,59.95717763645452,
,,,C,U,d,n,R,D,y,R,y,,,,,5,19,119,6,5,0,5,0,,,,,0,8,8,27,,,,,,down,0.6338391003810102,1808.328179166143,None,001,83,2019_Oct_31_1104,ACPT_experiment_5_30_19,3.1.0,59.95717763645452,
,,,C,U,d,n,L,G,g,R,c ,,,,,5,19,119,6,5,0,5,0,,,,,0,9,9,19,,,,,,up,0.8004020256485092,1810.2632709516329,None,001,83,2019_Oct_31_1104,ACPT_experiment_5_30_19,3.1.0,59.95717763645452,
,,,C,U,d,n,R,D,y,L,y,,,,,5,19,119,6,5,0,5,0,,,,,0,10,10,26,,,,,,down,0.8840256538242102,1812.3813843229873,None,001,83,2019_Oct_31_1104,ACPT_experiment_5_30_19,3.1.0,59.95717763645452,
,,,C,U,d,n,R,G,y,R,y,,,,,5,19,119,6,5,0,5,0,,,,,0,11,11,29,,,,,,down,0.6672086174366996,1814.566461317023,None,001,83,2019_Oct_31_1104,ACPT_experiment_5_30_19,3.1.0,59.95717763645452,
,,,C,U,d,n,R,U,g,L,u,,,,,5,19,119,6,5,0,5,0,,,,,0,12,12,10,,,,,,down,0.7172622892685467,1816.5180135743285,None,001,83,2019_Oct_31_1104,ACPT_experiment_5_30_19,3.1.0,59.95717763645452,
,,,C,U,d,n,R,D,d,L,c,,,,,5,19,119,6,5,0,5,0,,,,,0,13,13,0,,,,,,up,0.9841266583098331,1818.519612560529,None,001,83,2019_Oct_31_1104,ACPT_experiment_5_30_19,3.1.0,59.95717763645452,
,,,C,U,d,n,L,U,g,L,u,,,,,5,19,119,6,5,0,5,0,,,,,0,14,14,22,,,,,,down,0.6671968446462415,1820.7880919146846,None,001,83,2019_Oct_31_1104,ACPT_experiment_5_30_19,3.1.0,59.95717763645452,
,,,C,U,d,n,R,D,g,L,i,,,,,5,19,119,6,5,0,5,0,,,,,0,15,15,2,,,,,,down,0.9841230359161273,1822.7396438701107,None,001,83,2019_Oct_31_1104,ACPT_experiment_5_30_19,3.1.0,59.95717763645452,
,,,C,U,d,n,L,G,d,L,i,,,,,5,19,119,6,5,0,5,0,,,,,0,16,16,16,,,,,,down,0.7839518172986573,1825.0081247336057,None,001,83,2019_Oct_31_1104,ACPT_experiment_5_30_19,3.1.0,59.95717763645452,
,,,C,U,d,n,L,G,g,L,c ,,,,,5,19,119,6,5,0,5,0,,,,,0,17,17,18,,,,,,down,1.6846887938736472,1827.0764401139313,None,001,83,2019_Oct_31_1104,ACPT_experiment_5_30_19,3.1.0,59.95717763645452,
,,,C,U,d,n,R,D,d,R,c ,,,,,5,19,119,6,5,0,5,0,,,,,0,18,18,1,,,,,,up,0.7005582113197306,1830.0454794905963,None,001,83,2019_Oct_31_1104,ACPT_experiment_5_30_19,3.1.0,59.95717763645452,
,,,C,U,d,n,L,D,d,L,c ,,,,,5,19,119,6,5,0,5,0,,,,,0,19,19,12,,,,,,up,1.0341564826958347,1832.0303952276154,None,001,83,2019_Oct_31_1104,ACPT_experiment_5_30_19,3.1.0,59.95717763645452,
,,,C,U,d,n,L,U,y,R,u,,,,,5,19,119,6,5,0,5,0,,,,,0,20,20,25,,,,,,down,0.6505371410312364,1834.3489059154963,None,001,83,2019_Oct_31_1104,ACPT_experiment_5_30_19,3.1.0,59.95717763645452,
,,,C,U,d,n,R,U,d,L,u,,,,,5,19,119,6,5,0,5,0,,,,,0,21,21,8,,,,,,down,0.6504891442891676,1836.2838105438277,None,001,83,2019_Oct_31_1104,ACPT_experiment_5_30_19,3.1.0,59.95717763645452,
,,,C,U,d,n,L,G,y,R,y,,,,,5,19,119,6,5,0,5,0,,,,,0,22,22,35,,,,,,down,0.6005070147803053,1838.2186363850342,None,001,83,2019_Oct_31_1104,ACPT_experiment_5_30_19,3.1.0,59.95717763645452,
,,,C,U,d,n,R,U,d,R,u,,,,,5,19,119,6,5,0,5,0,,,,,0,23,23,9,,,,,,down,1.1008626133698272,1840.1035151132382,None,001,83,2019_Oct_31_1104,ACPT_experiment_5_30_19,3.1.0,59.95717763645452,
,,,C,U,d,n,L,D,y,R,y,,,,,5,19,119,6,5,0,5,0,,,,,0,24,24,33,,,,,,down,0.7671568775549531,1842.5222137431265,None,001,83,2019_Oct_31_1104,ACPT_experiment_5_30_19,3.1.0,59.95717763645452,
,,,C,U,d,n,L,D,d,R,c ,,,,,5,19,119,6,5,0,5,0,,,,,0,25,25,13,,,,,,up,0.8673910051002167,1844.59041622543,None,001,83,2019_Oct_31_1104,ACPT_experiment_5_30_19,3.1.0,59.95717763645452,
,,,C,U,d,n,R,U,y,L,u,,,,,5,19,119,6,5,0,5,0,,,,,0,26,26,30,,,,,,down,1.8181345623597736,1846.742137890149,None,001,83,2019_Oct_31_1104,ACPT_experiment_5_30_19,3.1.0,59.95717763645452,
,,,C,U,d,n,R,D,g,R,i,,,,,5,19,119,6,5,0,5,0,,,,,0,27,27,3,,,,,,down,1.8181173559860326,1849.8446118662396,None,001,83,2019_Oct_31_1104,ACPT_experiment_5_30_19,3.1.0,59.95717763645452,
,,,C,U,d,n,L,U,d,R,u,,,,,5,19,119,6,5,0,5,0,,,,,0,28,28,21,,,,,,down,1.0675383762718411,1852.9470622967638,None,001,83,2019_Oct_31_1104,ACPT_experiment_5_30_19,3.1.0,59.95717763645452,
,,,C,U,d,n,L,U,d,L,u,,,,,5,19,119,6,5,0,5,0,,,,,0,29,29,20,,,,,,down,1.15094013264752,1855.2822640823579,None,001,83,2019_Oct_31_1104,ACPT_experiment_5_30_19,3.1.0,59.95717763645452,
,,,C,U,d,n,L,D,g,L,i,,,,,5,19,119,6,5,0,5,0,,,,,0,30,30,14,,,,,,down,2.151736154293758,1857.717556609001,None,001,83,2019_Oct_31_1104,ACPT_experiment_5_30_19,3.1.0,59.95717763645452,
,,,C,U,d,n,L,U,y,L,u,,,,,5,19,119,6,5,0,5,0,,,,,0,31,31,24,,,,,,down,0.6505175197235076,1861.1536376106087,None,001,83,2019_Oct_31_1104,ACPT_experiment_5_30_19,3.1.0,59.95717763645452,
,,,C,U,d,n,R,G,g,L,c ,,,,,5,19,119,6,5,0,5,0,,,,,0,32,32,6,,,,,,up,1.0341652368224459,1863.0885096373822,None,001,83,2019_Oct_31_1104,ACPT_experiment_5_30_19,3.1.0,59.95717763645452,
,,,C,U,d,n,L,D,g,R,i,,,,,5,19,119,6,5,0,5,0,,,,,0,33,33,15,,,,,,down,0.783957250896492,1865.4070239476569,None,001,83,2019_Oct_31_1104,ACPT_experiment_5_30_19,3.1.0,59.95717763645452,
,,,C,U,d,n,L,D,y,L,y,,,,,5,19,119,6,5,0,5,0,,,,,0,34,34,32,,,,,,down,1.1509147758770268,1867.4753462709195,None,001,83,2019_Oct_31_1104,ACPT_experiment_5_30_19,3.1.0,59.95717763645452,
,,,C,U,d,n,R,G,g,R,c ,,,,,5,19,119,6,5,0,5,0,,,,,0,35,35,7,,,,,,up,1.100881027217838,1869.910623100499,None,001,83,2019_Oct_31_1104,ACPT_experiment_5_30_19,3.1.0,59.95717763645452,
,,,C,U,d,n,R,D,y,L,y,,,,,5,19,119,6,5,0,5,0,,,,,1,0,36,26,,,,,,down,0.6002993307047291,1872.3127812640014,None,001,83,2019_Oct_31_1104,ACPT_experiment_5_30_19,3.1.0,59.95717763645452,
,,,C,U,d,n,L,D,y,L,y,,,,,5,19,119,6,5,0,5,0,,,,,1,1,37,32,,,,,,down,0.6838840181007981,1874.1973717098008,None,001,83,2019_Oct_31_1104,ACPT_experiment_5_30_19,3.1.0,59.95717763645452,
,,,C,U,d,n,L,G,g,R,c ,,,,,5,19,119,6,5,0,5,0,,,,,1,2,38,19,,,,,,up,0.7839566471520811,1876.165608423762,None,001,83,2019_Oct_31_1104,ACPT_experiment_5_30_19,3.1.0,59.95717763645452,
,,,C,U,d,n,R,D,g,L,i,,,,,5,19,119,6,5,0,5,0,,,,,1,3,39,2,,,,,,down,0.717239649311523,1878.2172499127628,None,001,83,2019_Oct_31_1104,ACPT_experiment_5_30_19,3.1.0,59.95717763645452,
,,,C,U,d,n,L,U,d,R,u,,,,,5,19,119,6,5,0,5,0,,,,,1,4,40,21,,,,,,down,0.4336971628217725,1880.2188238440576,None,001,83,2019_Oct_31_1104,ACPT_experiment_5_30_19,3.1.0,59.95717763645452,
,,,C,U,d,n,R,D,d,R,c ,,,,,5,19,119,6,5,0,5,0,,,,,1,5,41,1,,,,,,up,0.6169415260665119,1881.9537404866714,None,001,83,2019_Oct_31_1104,ACPT_experiment_5_30_19,3.1.0,59.95717763645452,
,,,C,U,d,n,R,G,g,L,c ,,,,,5,19,119,6,5,0,5,0,,,,,1,6,42,6,,,,,,up,1.000796625376097,1883.8550857240043,None,001,83,2019_Oct_31_1104,ACPT_experiment_5_30_19,3.1.0,59.95717763645452,
,,,C,U,d,n,L,U,g,L,u,,,,,5,19,119,6,5,0,5,0,,,,,1,7,43,22,,,,,,down,0.6171540400100639,1886.1402380639047,None,001,83,2019_Oct_31_1104,ACPT_experiment_5_30_19,3.1.0,59.95717763645452,
,,,C,U,d,n,R,G,d,L,i,,,,,5,19,119,6,5,0,5,0,,,,,1,8,44,4,,,,,,down,0.8173152970121009,1888.0417574781313,None,001,83,2019_Oct_31_1104,ACPT_experiment_5_30_19,3.1.0,59.95717763645452,
,,,C,U,d,n,R,D,g,R,i,,,,,5,19,119,6,5,0,5,0,,,,,1,9,45,3,,,,,,down,0.7839599676808575,1890.1434324139263,None,001,83,2019_Oct_31_1104,ACPT_experiment_5_30_19,3.1.0,59.95717763645452,
,,,C,U,d,n,L,U,y,L,u,,,,,5,19,119,6,5,0,5,0,,,,,1,10,46,24,,,,,,down,0.500389709501178,1892.2117541334592,None,001,83,2019_Oct_31_1104,ACPT_experiment_5_30_19,3.1.0,59.95717763645452,
,,,C,U,d,n,L,D,y,R,y,,,,,5,19,119,6,5,0,5,0,,,,,1,11,47,33,,,,,,down,0.5671202913363231,1893.9965019723895,None,001,83,2019_Oct_31_1104,ACPT_experiment_5_30_19,3.1.0,59.95717763645452,
,,,C,U,d,n,R,G,g,R,c ,,,,,5,19,119,6,5,0,5,0,,,,,1,12,48,7,,,,,,up,0.7005630411586026,1895.8479791857098,None,001,83,2019_Oct_31_1104,ACPT_experiment_5_30_19,3.1.0,59.95717763645452,
,,,C,U,d,n,L,G,g,L,c ,,,,,5,19,119,6,5,0,5,0,,,,,1,13,49,18,,,,,,up,0.56712331000017,1897.8328997525823,None,001,83,2019_Oct_31_1104,ACPT_experiment_5_30_19,3.1.0,59.95717763645452,
,,,C,U,d,n,R,G,y,R,y,,,,,5,19,119,6,5,0,5,0,,,,,1,14,50,29,,,,,,down,0.5504367402754724,1899.6843787770922,None,001,83,2019_Oct_31_1104,ACPT_experiment_5_30_19,3.1.0,59.95717763645452,
,,,C,U,d,n,L,D,g,R,i,,,,,5,19,119,6,5,0,5,0,,,,,1,15,51,15,,,,,,down,0.7339162574353395,1901.5191778729495,None,001,83,2019_Oct_31_1104,ACPT_experiment_5_30_19,3.1.0,59.95717763645452,
,,,C,U,d,n,R,D,d,L,c,,,,,5,19,119,6,5,0,5,0,,,,,1,16,52,0,,,,,,up,0.6505132935999427,1903.5374573915615,None,001,83,2019_Oct_31_1104,ACPT_experiment_5_30_19,3.1.0,59.95717763645452,
,,,C,U,d,n,L,G,y,L,y,,,,,5,19,119,6,5,0,5,0,,,,,1,17,53,34,,,,,,down,0.5504349290858954,1905.4723270033865,None,001,83,2019_Oct_31_1104,ACPT_experiment_5_30_19,3.1.0,59.95717763645452,
,,,C,U,d,n,L,D,d,L,c ,,,,,5,19,119,6,5,0,5,0,,,,,1,18,54,12,,,,,,up,0.983809094861499,1907.3240813300508,None,001,83,2019_Oct_31_1104,ACPT_experiment_5_30_19,3.1.0,59.95717763645452,
,,,C,U,d,n,R,U,y,L,u,,,,,5,19,119,6,5,0,5,0,,,,,1,19,55,30,,,,,,down,0.5837932770664338,1909.5922841745924,None,001,83,2019_Oct_31_1104,ACPT_experiment_5_30_19,3.1.0,59.95717763645452,
,,,C,U,d,n,L,U,g,R,u,,,,,5,19,119,6,5,0,5,0,,,,,1,20,56,23,,,,,,down,0.8506878327316372,1911.4604434296343,None,001,83,2019_Oct_31_1104,ACPT_experiment_5_30_19,3.1.0,59.95717763645452,
,,,C,U,d,n,R,U,d,R,u,,,,,5,19,119,6,5,0,5,0,,,,,1,21,57,9,,,,,,down,0.8506842103379313,1913.595478222749,None,001,83,2019_Oct_31_1104,ACPT_experiment_5_30_19,3.1.0,59.95717763645452,
,,,C,U,d,n,L,U,d,L,u,,,,,5,19,119,6,5,0,5,0,,,,,1,22,58,20,,,,,,down,1.0508400337566854,1915.7305118084041,None,001,83,2019_Oct_31_1104,ACPT_experiment_5_30_19,3.1.0,59.95717763645452,
,,,C,U,d,n,L,U,y,R,u,,,,,5,19,119,6,5,0,5,0,,,,,1,23,59,25,,,,,,down,0.5003936337598134,1918.0823953338695,None,001,83,2019_Oct_31_1104,ACPT_experiment_5_30_19,3.1.0,59.95717763645452,
,,,C,U,d,n,R,U,y,R,u,,,,,5,19,119,6,5,0,5,0,,,,,1,24,60,31,,,,,,down,0.38363745364767965,1919.88382762947,None,001,83,2019_Oct_31_1104,ACPT_experiment_5_30_19,3.1.0,59.95717763645452,
,,,C,U,d,n,R,U,g,L,u,,,,,5,19,119,6,5,0,5,0,,,,,1,25,61,10,,,,,,down,0.4670358894945821,1921.5518262312253,None,001,83,2019_Oct_31_1104,ACPT_experiment_5_30_19,3.1.0,59.95717763645452,
,,,C,U,d,n,L,D,d,R,c ,,,,,5,19,119,6,5,0,5,0,,,,,1,26,62,13,,,,,,up,0.7338884857163066,1923.3032522479916,None,001,83,2019_Oct_31_1104,ACPT_experiment_5_30_19,3.1.0,59.95717763645452,
,,,C,U,d,n,L,D,g,L,i,,,,,5,19,119,6,5,0,5,0,,,,,1,27,63,14,,,,,,down,1.0175049294775818,1925.3047956907976,None,001,83,2019_Oct_31_1104,ACPT_experiment_5_30_19,3.1.0,59.95717763645452,
,,,C,U,d,n,R,G,y,L,y,,,,,5,19,119,6,5,0,5,0,,,,,1,28,64,28,,,,,,down,0.6171567567944294,1927.6066605609085,None,001,83,2019_Oct_31_1104,ACPT_experiment_5_30_19,3.1.0,59.95717763645452,
