facing_vig,person_vig,text_vig,facing_train,person_train,food_train,correct_key_train,facing_exp,person_exp,food_exp,showL_R,consistent,vig_random.thisRepN,vig_random.thisTrialN,vig_random.thisN,vig_random.thisIndex,trainTrials.thisRepN,trainTrials.thisTrialN,trainTrials.thisN,trainTrials.thisIndex,expBlock.thisRepN,expBlock.thisTrialN,expBlock.thisN,expBlock.thisIndex,breakLoop.thisRepN,breakLoop.thisTrialN,breakLoop.thisN,breakLoop.thisIndex,expTrials.thisRepN,expTrials.thisTrialN,expTrials.thisN,expTrials.thisIndex,train_resp.keys,train_resp.corr,train_resp.rt,train_resp.started,train_resp.stopped,exp_resp.keys,exp_resp.rt,exp_resp.started,exp_resp.stopped,session,participant,date,expName,psychopyVersion,frameRate,
C,U,"did not report her food preferences, so her food preferences are unknown.",,,,,,,,,,0,0,0,2,,,,,,,,,,,,,,,,,,,,,,,,,,001,84,2019_Oct_31_1202,ACPT_experiment_5_30_19,3.1.0,59.952294773985926,
C,D,"is allergic to gluten, meaning she can’t eat wheat products. She enjoys eating dairy products. She thinks eating insects, like crickets, is disgusting.",,,,,,,,,,0,1,1,1,,,,,,,,,,,,,,,,,,,,,,,,,,001,84,2019_Oct_31_1202,ACPT_experiment_5_30_19,3.1.0,59.952294773985926,
C,G,"cannot eat dairy products because she is lactose intolerant. She enjoys eating wheat products. She thinks eating insects, like crickets, is disgusting.",,,,,,,,,,0,2,2,0,,,,,,,,,,,,,,,,,,,,,,,,,,001,84,2019_Oct_31_1202,ACPT_experiment_5_30_19,3.1.0,59.952294773985926,
,,,C,D,d,v,,,,,,,,,,0,0,0,9,,,,,,,,,,,,,b,0,8.273286274372367,950.6754003653768,None,,,,,001,84,2019_Oct_31_1202,ACPT_experiment_5_30_19,3.1.0,59.952294773985926,
,,,C,D,y,b,,,,,,,,,,0,1,1,11,,,,,,,,,,,,,b,1,2.051673486843356,962.2179167355935,None,,,,,001,84,2019_Oct_31_1202,ACPT_experiment_5_30_19,3.1.0,59.952294773985926,
,,,C,D,g,b,,,,,,,,,,0,2,2,10,,,,,,,,,,,,,b,1,2.485352537667495,967.5388326947723,None,,,,,001,84,2019_Oct_31_1202,ACPT_experiment_5_30_19,3.1.0,59.952294773985926,
,,,C,U,g,n,,,,,,,,,,0,3,3,7,,,,,,,,,,,,,n,1,1.117557333476725,973.3101508003601,None,,,,,001,84,2019_Oct_31_1202,ACPT_experiment_5_30_19,3.1.0,59.952294773985926,
,,,C,G,d,b,,,,,,,,,,0,4,4,12,,,,,,,,,,,,,b,1,2.735535166837508,977.7136308367335,None,,,,,001,84,2019_Oct_31_1202,ACPT_experiment_5_30_19,3.1.0,59.952294773985926,
,,,C,U,y,n,,,,,,,,,,0,5,5,8,,,,,,,,,,,,,n,1,1.4678687388368417,983.7351228173502,None,,,,,001,84,2019_Oct_31_1202,ACPT_experiment_5_30_19,3.1.0,59.952294773985926,
,,,C,U,y,n,,,,,,,,,,0,6,6,17,,,,,,,,,,,,,n,1,0.9674458240333479,988.48892422067,None,,,,,001,84,2019_Oct_31_1202,ACPT_experiment_5_30_19,3.1.0,59.952294773985926,
,,,C,D,d,v,,,,,,,,,,0,7,7,18,,,,,,,,,,,,,v,1,3.8527444483770523,992.7592171880242,None,,,,,001,84,2019_Oct_31_1202,ACPT_experiment_5_30_19,3.1.0,59.952294773985926,
,,,C,G,y,b,,,,,,,,,,0,8,8,14,,,,,,,,,,,,,n,0,0.8006232937041204,999.8980603273812,None,,,,,001,84,2019_Oct_31_1202,ACPT_experiment_5_30_19,3.1.0,59.952294773985926,
,,,C,D,y,b,,,,,,,,,,0,9,9,2,,,,,,,,,,,,,b,1,2.3516408248833613,1004.0015832891513,None,,,,,001,84,2019_Oct_31_1202,ACPT_experiment_5_30_19,3.1.0,59.952294773985926,
,,,C,G,d,b,,,,,,,,,,0,10,10,3,,,,,,,,,,,,,v,0,1.9682554296741728,1009.6391450057417,None,,,,,001,84,2019_Oct_31_1202,ACPT_experiment_5_30_19,3.1.0,59.952294773985926,
,,,C,D,d,v,,,,,,,,,,0,11,11,0,,,,,,,,,,,,,v,1,5.187516678110114,1014.8933195158897,None,,,,,001,84,2019_Oct_31_1202,ACPT_experiment_5_30_19,3.1.0,59.952294773985926,
,,,C,G,g,v,,,,,,,,,,0,12,12,19,,,,,,,,,,,,,b,0,2.8355939100292744,1023.366791498469,None,,,,,001,84,2019_Oct_31_1202,ACPT_experiment_5_30_19,3.1.0,59.952294773985926,
,,,C,D,g,b,,,,,,,,,,0,13,13,1,,,,,,,,,,,,,b,1,2.985778471134836,1029.4883382980188,None,,,,,001,84,2019_Oct_31_1202,ACPT_experiment_5_30_19,3.1.0,59.952294773985926,
,,,C,U,d,n,,,,,,,,,,0,14,14,15,,,,,,,,,,,,,n,1,2.0683235307224095,1035.760012304061,None,,,,,001,84,2019_Oct_31_1202,ACPT_experiment_5_30_19,3.1.0,59.952294773985926,
,,,C,G,y,b,,,,,,,,,,0,15,15,5,,,,,,,,,,,,,n,0,1.8681661979790078,1041.1142869131145,None,,,,,001,84,2019_Oct_31_1202,ACPT_experiment_5_30_19,3.1.0,59.952294773985926,
,,,C,G,g,v,,,,,,,,,,0,16,16,4,,,,,,,,,,,,,v,1,5.170810487077688,1046.2683990576916,None,,,,,001,84,2019_Oct_31_1202,ACPT_experiment_5_30_19,3.1.0,59.952294773985926,
,,,C,U,d,n,,,,,,,,,,0,17,17,6,,,,,,,,,,,,,n,1,1.8348304899554932,1054.7251316439215,None,,,,,001,84,2019_Oct_31_1202,ACPT_experiment_5_30_19,3.1.0,59.952294773985926,
,,,C,G,g,v,,,,,,,,,,0,18,18,13,,,,,,,,,,,,,v,1,11.292349739960628,1059.8459325316508,None,,,,,001,84,2019_Oct_31_1202,ACPT_experiment_5_30_19,3.1.0,59.952294773985926,
,,,C,U,g,n,,,,,,,,,,0,19,19,16,,,,,,,,,,,,,n,1,1.8015385525504826,1074.4242182566377,None,,,,,001,84,2019_Oct_31_1202,ACPT_experiment_5_30_19,3.1.0,59.952294773985926,
,,,C,G,d,b,,,,,,,,,,1,0,20,12,,,,,,,,,,,,,b,1,4.01990567278699,1079.51161430894,None,,,,,001,84,2019_Oct_31_1202,ACPT_experiment_5_30_19,3.1.0,59.952294773985926,
,,,C,G,g,v,,,,,,,,,,1,1,21,13,,,,,,,,,,,,,v,1,1.4845036894112127,1086.8007962631236,None,,,,,001,84,2019_Oct_31_1202,ACPT_experiment_5_30_19,3.1.0,59.952294773985926,
,,,C,U,y,n,,,,,,,,,,1,2,22,17,,,,,,,,,,,,,n,1,1.6679841121658683,1091.5712754820415,None,,,,,001,84,2019_Oct_31_1202,ACPT_experiment_5_30_19,3.1.0,59.952294773985926,
,,,C,U,g,n,,,,,,,,,,1,3,23,16,,,,,,,,,,,,,n,1,1.3344130087498343,1096.5085213860148,None,,,,,001,84,2019_Oct_31_1202,ACPT_experiment_5_30_19,3.1.0,59.952294773985926,
,,,C,G,g,v,,,,,,,,,,1,4,24,19,,,,,,,,,,,,,v,1,2.701949815324042,1101.1458099135343,None,,,,,001,84,2019_Oct_31_1202,ACPT_experiment_5_30_19,3.1.0,59.952294773985926,
,,,C,U,y,n,,,,,,,,,,1,5,25,8,,,,,,,,,,,,,b,0,2.0183423068083357,1107.1336516413576,None,,,,,001,84,2019_Oct_31_1202,ACPT_experiment_5_30_19,3.1.0,59.952294773985926,
,,,C,G,y,b,,,,,,,,,,1,6,26,14,,,,,,,,,,,,,b,1,1.951558898348594,1112.4379133305338,None,,,,,001,84,2019_Oct_31_1202,ACPT_experiment_5_30_19,3.1.0,59.952294773985926,
,,,C,D,d,v,,,,,,,,,,1,7,27,18,,,,,,,,,,,,,v,1,4.453572045240435,1117.6754287408112,None,,,,,001,84,2019_Oct_31_1202,ACPT_experiment_5_30_19,3.1.0,59.952294773985926,
,,,C,D,y,b,,,,,,,,,,1,8,28,2,,,,,,,,,,,,,b,1,1.3510950504860375,1125.398244465876,None,,,,,001,84,2019_Oct_31_1202,ACPT_experiment_5_30_19,3.1.0,59.952294773985926,
,,,C,G,d,b,,,,,,,,,,1,9,29,3,,,,,,,,,,,,,b,1,2.4186062587687047,1130.0352963301411,None,,,,,001,84,2019_Oct_31_1202,ACPT_experiment_5_30_19,3.1.0,59.952294773985926,
,,,C,U,g,n,,,,,,,,,,1,10,30,7,,,,,,,,,,,,,n,1,4.753830684363493,1135.7398268011457,None,,,,,001,84,2019_Oct_31_1202,ACPT_experiment_5_30_19,3.1.0,59.952294773985926,
,,,C,D,y,b,,,,,,,,,,1,11,31,11,,,,,,,,,,,,,b,1,2.385226780141238,1143.7796284869983,None,,,,,001,84,2019_Oct_31_1202,ACPT_experiment_5_30_19,3.1.0,59.952294773985926,
,,,C,D,g,b,,,,,,,,,,1,12,32,10,,,,,,,,,,,,,b,1,2.8856427520076977,1149.4341270205332,None,,,,,001,84,2019_Oct_31_1202,ACPT_experiment_5_30_19,3.1.0,59.952294773985926,
,,,C,D,d,v,,,,,,,,,,1,13,33,0,,,,,,,,,,,,,v,1,1.3344039527582936,1155.589042431544,None,,,,,001,84,2019_Oct_31_1202,ACPT_experiment_5_30_19,3.1.0,59.952294773985926,
,,,C,U,d,n,,,,,,,,,,1,14,34,6,,,,,,,,,,,,,n,1,2.1012266642210307,1160.2265102676756,None,,,,,001,84,2019_Oct_31_1202,ACPT_experiment_5_30_19,3.1.0,59.952294773985926,
,,,C,D,d,v,,,,,,,,,,1,15,35,9,,,,,,,,,,,,,v,1,2.6854881360486615,1165.6137058203458,None,,,,,001,84,2019_Oct_31_1202,ACPT_experiment_5_30_19,3.1.0,59.952294773985926,
,,,C,D,g,b,,,,,,,,,,1,16,36,1,,,,,,,,,,,,,b,1,1.21762996254256,1171.5684811049723,None,,,,,001,84,2019_Oct_31_1202,ACPT_experiment_5_30_19,3.1.0,59.952294773985926,
,,,C,U,d,n,,,,,,,,,,1,17,37,15,,,,,,,,,,,,,n,1,0.8003787819325225,1176.0890034907789,None,,,,,001,84,2019_Oct_31_1202,ACPT_experiment_5_30_19,3.1.0,59.952294773985926,
,,,C,G,g,v,,,,,,,,,,1,18,38,4,,,,,,,,,,,,,v,1,2.985777867390425,1180.1753255025105,None,,,,,001,84,2019_Oct_31_1202,ACPT_experiment_5_30_19,3.1.0,59.952294773985926,
,,,C,G,y,b,,,,,,,,,,1,19,39,5,,,,,,,,,,,,,b,1,1.3344154236838222,1186.4303102220292,None,,,,,001,84,2019_Oct_31_1202,ACPT_experiment_5_30_19,3.1.0,59.952294773985926,
,,,C,G,d,b,,,,,,,,,,2,0,40,12,,,,,,,,,,,,,b,1,1.9181866645085393,1191.0340209446877,None,,,,,001,84,2019_Oct_31_1202,ACPT_experiment_5_30_19,3.1.0,59.952294773985926,
,,,C,D,d,v,,,,,,,,,,2,1,41,0,,,,,,,,,,,,,v,1,3.06911562809546,1196.2214869092568,None,,,,,001,84,2019_Oct_31_1202,ACPT_experiment_5_30_19,3.1.0,59.952294773985926,
,,,C,U,d,n,,,,,,,,,,2,2,42,6,,,,,,,,,,,,,n,1,1.4511990736355074,1202.5765261458437,None,,,,,001,84,2019_Oct_31_1202,ACPT_experiment_5_30_19,3.1.0,59.952294773985926,
,,,C,G,g,v,,,,,,,,,,2,3,43,4,,,,,,,,,,,,,v,1,1.9844813512900146,1207.3307709908695,None,,,,,001,84,2019_Oct_31_1202,ACPT_experiment_5_30_19,3.1.0,59.952294773985926,
,,,C,D,y,b,,,,,,,,,,2,4,44,11,,,,,,,,,,,,,b,1,1.1676279098319355,1212.6011997981113,None,,,,,001,84,2019_Oct_31_1202,ACPT_experiment_5_30_19,3.1.0,59.952294773985926,
,,,C,D,y,b,,,,,,,,,,2,5,45,2,,,,,,,,,,,,,b,1,1.4978899540001294,1217.0747810563043,None,,,,,001,84,2019_Oct_31_1202,ACPT_experiment_5_30_19,3.1.0,59.952294773985926,
,,,C,U,d,n,,,,,,,,,,2,6,46,15,,,,,,,,,,,,,n,1,2.101677048864076,1221.858619371851,None,,,,,001,84,2019_Oct_31_1202,ACPT_experiment_5_30_19,3.1.0,59.952294773985926,
,,,C,U,g,n,,,,,,,,,,2,7,47,16,,,,,,,,,,,,,n,1,0.8340079040644923,1227.22956545731,None,,,,,001,84,2019_Oct_31_1202,ACPT_experiment_5_30_19,3.1.0,59.952294773985926,
,,,C,G,y,b,,,,,,,,,,2,8,48,5,,,,,,,,,,,,,b,1,0.9838824484031647,1231.3664464651956,None,,,,,001,84,2019_Oct_31_1202,ACPT_experiment_5_30_19,3.1.0,59.952294773985926,
,,,C,U,g,n,,,,,,,,,,2,9,49,7,,,,,,,,,,,,,n,1,1.2510347979405196,1235.636276671401,None,,,,,001,84,2019_Oct_31_1202,ACPT_experiment_5_30_19,3.1.0,59.952294773985926,
,,,C,G,y,b,,,,,,,,,,2,10,50,14,,,,,,,,,,,,,b,1,2.168172174919164,1240.1901528771996,None,,,,,001,84,2019_Oct_31_1202,ACPT_experiment_5_30_19,3.1.0,59.952294773985926,
,,,C,D,d,v,,,,,,,,,,2,11,51,18,,,,,,,,,,,,,v,1,2.084991988464026,1245.6442833752517,None,,,,,001,84,2019_Oct_31_1202,ACPT_experiment_5_30_19,3.1.0,59.952294773985926,
,,,C,D,g,b,,,,,,,,,,2,12,52,1,,,,,,,,,,,,,v,0,3.8530707659374457,1251.0152400260267,None,,,,,001,84,2019_Oct_31_1202,ACPT_experiment_5_30_19,3.1.0,59.952294773985926,
,,,C,D,g,b,,,,,,,,,,2,13,53,10,,,,,,,,,,,,,b,1,1.1509497923689196,1258.1375502456503,None,,,,,001,84,2019_Oct_31_1202,ACPT_experiment_5_30_19,3.1.0,59.952294773985926,
,,,C,G,g,v,,,,,,,,,,2,14,54,19,,,,,,,,,,,,,v,1,2.084660539185279,1262.5914800025494,None,,,,,001,84,2019_Oct_31_1202,ACPT_experiment_5_30_19,3.1.0,59.952294773985926,
,,,C,D,d,v,,,,,,,,,,2,15,55,9,,,,,,,,,,,,,v,1,4.453498087983462,1267.9621393149573,None,,,,,001,84,2019_Oct_31_1202,ACPT_experiment_5_30_19,3.1.0,59.952294773985926,
,,,C,U,y,n,,,,,,,,,,2,16,56,8,,,,,,,,,,,,,n,1,2.2684971642593155,1275.7015981409786,None,,,,,001,84,2019_Oct_31_1202,ACPT_experiment_5_30_19,3.1.0,59.952294773985926,
,,,C,U,y,n,,,,,,,,,,2,17,57,17,,,,,,,,,,,,,n,1,1.5679374436294893,1281.2560376294423,None,,,,,001,84,2019_Oct_31_1202,ACPT_experiment_5_30_19,3.1.0,59.952294773985926,
,,,C,G,d,b,,,,,,,,,,2,18,58,3,,,,,,,,,,,,,b,1,2.602141621217015,1286.109904417026,None,,,,,001,84,2019_Oct_31_1202,ACPT_experiment_5_30_19,3.1.0,59.952294773985926,
,,,C,G,g,v,,,,,,,,,,2,19,59,13,,,,,,,,,,,,,v,1,1.3510908243479207,1291.9812562109,None,,,,,001,84,2019_Oct_31_1202,ACPT_experiment_5_30_19,3.1.0,59.952294773985926,
,,,C,U,y,n,,,,,,,,,,3,0,60,8,,,,,,,,,,,,,b,0,1.2672661531833,1296.6353608087957,None,,,,,001,84,2019_Oct_31_1202,ACPT_experiment_5_30_19,3.1.0,59.952294773985926,
,,,C,D,d,v,,,,,,,,,,3,1,61,9,,,,,,,,,,,,,v,1,1.6013308081164723,1301.1885819645686,None,,,,,001,84,2019_Oct_31_1202,ACPT_experiment_5_30_19,3.1.0,59.952294773985926,
,,,C,D,g,b,,,,,,,,,,3,2,62,10,,,,,,,,,,,,,b,1,3.402726879765396,1306.075842720369,None,,,,,001,84,2019_Oct_31_1202,ACPT_experiment_5_30_19,3.1.0,59.952294773985926,
,,,C,D,d,v,,,,,,,,,,3,3,63,0,,,,,,,,,,,,,v,1,1.7513979432114866,1312.7478383348498,None,,,,,001,84,2019_Oct_31_1202,ACPT_experiment_5_30_19,3.1.0,59.952294773985926,
,,,C,U,d,n,,,,,,,,,,3,4,64,6,,,,,,,,,,,,,n,1,1.3678166367026279,1317.7851623014722,None,,,,,001,84,2019_Oct_31_1202,ACPT_experiment_5_30_19,3.1.0,59.952294773985926,
,,,C,G,d,b,,,,,,,,,,3,5,65,12,,,,,,,,,,,,,b,1,7.239125263673486,1322.438903452261,None,,,,,001,84,2019_Oct_31_1202,ACPT_experiment_5_30_19,3.1.0,59.952294773985926,
,,,C,D,d,v,,,,,,,,,,3,6,66,18,,,,,,,,,,,,,v,1,3.019096670890576,1332.96396832334,None,,,,,001,84,2019_Oct_31_1202,ACPT_experiment_5_30_19,3.1.0,59.952294773985926,
,,,C,G,g,v,,,,,,,,,,3,7,67,4,,,,,,,,,,,,,v,1,1.9515622188919224,1339.269016374441,None,,,,,001,84,2019_Oct_31_1202,ACPT_experiment_5_30_19,3.1.0,59.952294773985926,
,,,C,G,y,b,,,,,,,,,,3,8,68,5,,,,,,,,,,,,,b,1,1.1008909888041671,1344.4898415926,None,,,,,001,84,2019_Oct_31_1202,ACPT_experiment_5_30_19,3.1.0,59.952294773985926,
,,,C,D,g,b,,,,,,,,,,3,9,69,1,,,,,,,,,,,,,b,1,2.5349506931524957,1348.8937535997538,None,,,,,001,84,2019_Oct_31_1202,ACPT_experiment_5_30_19,3.1.0,59.952294773985926,
,,,C,D,y,b,,,,,,,,,,3,10,70,2,,,,,,,,,,,,,b,1,1.1176077451673336,1354.7146650309442,None,,,,,001,84,2019_Oct_31_1202,ACPT_experiment_5_30_19,3.1.0,59.952294773985926,
,,,C,D,y,b,,,,,,,,,,3,11,71,11,,,,,,,,,,,,,b,1,0.8840573497727746,1359.1348666535341,None,,,,,001,84,2019_Oct_31_1202,ACPT_experiment_5_30_19,3.1.0,59.952294773985926,
,,,C,G,y,b,,,,,,,,,,3,12,72,14,,,,,,,,,,,,,b,1,1.0508505990874255,1363.3048536491406,None,,,,,001,84,2019_Oct_31_1202,ACPT_experiment_5_30_19,3.1.0,59.952294773985926,
,,,C,G,g,v,,,,,,,,,,3,13,73,13,,,,,,,,,,,,,v,1,1.9012845621909946,1367.6585752389801,None,,,,,001,84,2019_Oct_31_1202,ACPT_experiment_5_30_19,3.1.0,59.952294773985926,
,,,C,U,g,n,,,,,,,,,,3,14,74,16,,,,,,,,,,,,,n,1,1.3844663787313038,1372.8457918619242,None,,,,,001,84,2019_Oct_31_1202,ACPT_experiment_5_30_19,3.1.0,59.952294773985926,
,,,C,U,y,n,,,,,,,,,,3,15,75,17,,,,,,,,,,,,,n,1,1.2143239219440147,1377.5362088722031,None,,,,,001,84,2019_Oct_31_1202,ACPT_experiment_5_30_19,3.1.0,59.952294773985926,
,,,C,U,d,n,,,,,,,,,,3,16,76,15,,,,,,,,,,,,,n,1,0.9341342653351603,1382.0197788889054,None,,,,,001,84,2019_Oct_31_1202,ACPT_experiment_5_30_19,3.1.0,59.952294773985926,
,,,C,G,g,v,,,,,,,,,,3,17,77,19,,,,,,,,,,,,,v,1,2.835386829683557,1386.2567639199551,None,,,,,001,84,2019_Oct_31_1202,ACPT_experiment_5_30_19,3.1.0,59.952294773985926,
,,,C,U,g,n,,,,,,,,,,3,18,78,7,,,,,,,,,,,,,n,1,2.2017913354648044,1392.3780417565722,None,,,,,001,84,2019_Oct_31_1202,ACPT_experiment_5_30_19,3.1.0,59.952294773985926,
,,,C,G,d,b,,,,,,,,,,3,19,79,3,,,,,,,,,,,,,b,1,1.6680257697298657,1397.8657573042583,None,,,,,001,84,2019_Oct_31_1202,ACPT_experiment_5_30_19,3.1.0,59.952294773985926,
,,,C,G,y,b,,,,,,,,,,4,0,80,14,,,,,,,,,,,,,b,1,1.6346471966826357,1402.81973203925,None,,,,,001,84,2019_Oct_31_1202,ACPT_experiment_5_30_19,3.1.0,59.952294773985926,
,,,C,U,y,n,,,,,,,,,,4,1,81,17,,,,,,,,,,,,,n,1,1.0508315815095557,1407.7403435963788,None,,,,,001,84,2019_Oct_31_1202,ACPT_experiment_5_30_19,3.1.0,59.952294773985926,
,,,C,U,g,n,,,,,,,,,,4,2,82,7,,,,,,,,,,,,,n,1,0.8671154011099134,1412.0940516022383,None,,,,,001,84,2019_Oct_31_1202,ACPT_experiment_5_30_19,3.1.0,59.952294773985926,
,,,C,G,g,v,,,,,,,,,,4,3,83,4,,,,,,,,,,,,,v,1,2.5020185804751236,1416.2471114406071,None,,,,,001,84,2019_Oct_31_1202,ACPT_experiment_5_30_19,3.1.0,59.952294773985926,
,,,C,D,g,b,,,,,,,,,,4,4,84,10,,,,,,,,,,,,,b,1,1.8014531243679812,1422.0350647986343,None,,,,,001,84,2019_Oct_31_1202,ACPT_experiment_5_30_19,3.1.0,59.952294773985926,
,,,C,D,d,v,,,,,,,,,,4,5,85,18,,,,,,,,,,,,,v,1,1.9182343594002305,1427.122437607235,None,,,,,001,84,2019_Oct_31_1202,ACPT_experiment_5_30_19,3.1.0,59.952294773985926,
,,,C,U,d,n,,,,,,,,,,4,6,86,6,,,,,,,,,,,,,n,1,1.4678630033740774,1432.3265949713823,None,,,,,001,84,2019_Oct_31_1202,ACPT_experiment_5_30_19,3.1.0,59.952294773985926,
,,,C,G,g,v,,,,,,,,,,4,7,87,19,,,,,,,,,,,,,v,1,2.3518756769481115,1437.0804289762746,None,,,,,001,84,2019_Oct_31_1202,ACPT_experiment_5_30_19,3.1.0,59.952294773985926,
,,,C,D,d,v,,,,,,,,,,4,8,88,0,,,,,,,,,,,,,v,1,1.751414847720298,1442.718246373668,None,,,,,001,84,2019_Oct_31_1202,ACPT_experiment_5_30_19,3.1.0,59.952294773985926,
,,,C,U,g,n,,,,,,,,,,4,9,89,16,,,,,,,,,,,,,n,1,1.3010431898292154,1447.755602639998,None,,,,,001,84,2019_Oct_31_1202,ACPT_experiment_5_30_19,3.1.0,59.952294773985926,
,,,C,G,d,b,,,,,,,,,,4,10,90,12,,,,,,,,,,,,,b,1,1.9846727345866384,1452.3595288952492,None,,,,,001,84,2019_Oct_31_1202,ACPT_experiment_5_30_19,3.1.0,59.952294773985926,
,,,C,D,d,v,,,,,,,,,,4,11,91,9,,,,,,,,,,,,,v,1,2.1350646778882947,1457.6301358036435,None,,,,,001,84,2019_Oct_31_1202,ACPT_experiment_5_30_19,3.1.0,59.952294773985926,
,,,C,U,y,n,,,,,,,,,,4,12,92,8,,,,,,,,,,,,,n,1,1.3344160274136811,1463.0511536729173,None,,,,,001,84,2019_Oct_31_1202,ACPT_experiment_5_30_19,3.1.0,59.952294773985926,
,,,C,G,d,b,,,,,,,,,,4,13,93,3,,,,,,,,,,,,,b,1,1.8847139091667486,1467.6882831168477,None,,,,,001,84,2019_Oct_31_1202,ACPT_experiment_5_30_19,3.1.0,59.952294773985926,
,,,C,G,y,b,,,,,,,,,,4,14,94,5,,,,,,,,,,,,,b,1,1.801457954235957,1472.8589668200439,None,,,,,001,84,2019_Oct_31_1202,ACPT_experiment_5_30_19,3.1.0,59.952294773985926,
,,,C,G,g,v,,,,,,,,,,4,15,95,13,,,,,,,,,,,,,v,1,1.6179524765757378,1477.9296986407571,None,,,,,001,84,2019_Oct_31_1202,ACPT_experiment_5_30_19,3.1.0,59.952294773985926,
,,,C,D,g,b,,,,,,,,,,4,16,96,1,,,,,,,,,,,,,b,1,1.5345736620365642,1482.8335940452525,None,,,,,001,84,2019_Oct_31_1202,ACPT_experiment_5_30_19,3.1.0,59.952294773985926,
,,,C,U,d,n,,,,,,,,,,4,17,97,15,,,,,,,,,,,,,n,1,1.1009244959859643,1487.654087089657,None,,,,,001,84,2019_Oct_31_1202,ACPT_experiment_5_30_19,3.1.0,59.952294773985926,
,,,C,D,y,b,,,,,,,,,,4,18,98,11,,,,,,,,,,,,,b,1,1.7180531791964313,1492.0409397221083,None,,,,,001,84,2019_Oct_31_1202,ACPT_experiment_5_30_19,3.1.0,59.952294773985926,
,,,C,D,y,b,,,,,,,,,,4,19,99,2,,,,,,,,,,,,,b,1,1.1509431513113668,1497.0282510707184,None,,,,,001,84,2019_Oct_31_1202,ACPT_experiment_5_30_19,3.1.0,59.952294773985926,
,,,C,D,y,b,,,,,,,,,,5,0,100,11,,,,,,,,,,,,,b,1,0.9807919404120184,1501.4851475703908,None,,,,,001,84,2019_Oct_31_1202,ACPT_experiment_5_30_19,3.1.0,59.952294773985926,
,,,C,G,y,b,,,,,,,,,,5,1,101,5,,,,,,,,,,,,,b,1,0.8339888864866225,1505.7519114179158,None,,,,,001,84,2019_Oct_31_1202,ACPT_experiment_5_30_19,3.1.0,59.952294773985926,
,,,C,D,d,v,,,,,,,,,,5,2,102,9,,,,,,,,,,,,,v,1,1.3508423883176874,1509.8887728044938,None,,,,,001,84,2019_Oct_31_1202,ACPT_experiment_5_30_19,3.1.0,59.952294773985926,
,,,C,G,d,b,,,,,,,,,,5,3,103,12,,,,,,,,,,,,,b,1,1.367798222854617,1514.5255590263405,None,,,,,001,84,2019_Oct_31_1202,ACPT_experiment_5_30_19,3.1.0,59.952294773985926,
,,,C,U,g,n,,,,,,,,,,5,4,104,16,,,,,,,,,,,,,n,1,1.867960023228079,1519.1962424276717,None,,,,,001,84,2019_Oct_31_1202,ACPT_experiment_5_30_19,3.1.0,59.952294773985926,
,,,C,U,d,n,,,,,,,,,,5,5,105,15,,,,,,,,,,,,,n,1,1.1008900832093786,1524.3333860593266,None,,,,,001,84,2019_Oct_31_1202,ACPT_experiment_5_30_19,3.1.0,59.952294773985926,
,,,C,G,g,v,,,,,,,,,,5,6,106,13,,,,,,,,,,,,,v,1,2.351647465955466,1528.7371685658,None,,,,,001,84,2019_Oct_31_1202,ACPT_experiment_5_30_19,3.1.0,59.952294773985926,
,,,C,D,y,b,,,,,,,,,,5,7,107,2,,,,,,,,,,,,,b,1,1.2843696003692457,1534.3747333010542,None,,,,,001,84,2019_Oct_31_1202,ACPT_experiment_5_30_19,3.1.0,59.952294773985926,
,,,C,G,g,v,,,,,,,,,,5,8,108,4,,,,,,,,,,,,,v,1,2.068067548025283,1538.962009512412,None,,,,,001,84,2019_Oct_31_1202,ACPT_experiment_5_30_19,3.1.0,59.952294773985926,
,,,C,U,y,n,,,,,,,,,,5,9,109,17,,,,,,,,,,,,,n,1,1.9182132287533022,1544.3159988577245,None,,,,,001,84,2019_Oct_31_1202,ACPT_experiment_5_30_19,3.1.0,59.952294773985926,
,,,C,G,d,b,,,,,,,,,,5,10,110,3,,,,,,,,,,,,,b,1,1.6012233436777024,1549.5202099540911,None,,,,,001,84,2019_Oct_31_1202,ACPT_experiment_5_30_19,3.1.0,59.952294773985926,
,,,C,G,y,b,,,,,,,,,,5,11,111,14,,,,,,,,,,,,,b,1,1.5511428057361627,1554.4073668678611,None,,,,,001,84,2019_Oct_31_1202,ACPT_experiment_5_30_19,3.1.0,59.952294773985926,
,,,C,D,d,v,,,,,,,,,,5,12,112,18,,,,,,,,,,,,,v,1,2.3519103915750748,1559.2445597641054,None,,,,,001,84,2019_Oct_31_1202,ACPT_experiment_5_30_19,3.1.0,59.952294773985926,
,,,C,U,g,n,,,,,,,,,,5,13,113,7,,,,,,,,,,,,,n,1,1.81812007278495,1564.8824215358618,None,,,,,001,84,2019_Oct_31_1202,ACPT_experiment_5_30_19,3.1.0,59.952294773985926,
,,,C,U,d,n,,,,,,,,,,5,14,114,6,,,,,,,,,,,,,n,1,1.3677496223535854,1569.9698335870926,None,,,,,001,84,2019_Oct_31_1202,ACPT_experiment_5_30_19,3.1.0,59.952294773985926,
,,,C,U,y,n,,,,,,,,,,5,15,115,8,,,,,,,,,,,,,n,1,1.3341371028800495,1574.6237990246009,None,,,,,001,84,2019_Oct_31_1202,ACPT_experiment_5_30_19,3.1.0,59.952294773985926,
,,,C,D,g,b,,,,,,,,,,5,16,116,1,,,,,,,,,,,,,b,1,2.785597592795966,1579.2438540005096,None,,,,,001,84,2019_Oct_31_1202,ACPT_experiment_5_30_19,3.1.0,59.952294773985926,
,,,C,G,g,v,,,,,,,,,,5,17,117,19,,,,,,,,,,,,,v,1,2.3018558141193353,1585.3153875783173,None,,,,,001,84,2019_Oct_31_1202,ACPT_experiment_5_30_19,3.1.0,59.952294773985926,
,,,C,D,d,v,,,,,,,,,,5,18,118,0,,,,,,,,,,,,,v,1,2.0016189093876164,1590.903185716641,None,,,,,001,84,2019_Oct_31_1202,ACPT_experiment_5_30_19,3.1.0,59.952294773985926,
,,,C,D,g,b,,,,,,,,,,5,19,119,10,0,0,0,0,0,0,0,0,,,,,b,1,1.5345700396428583,1596.1740570599795,None,,,,,001,84,2019_Oct_31_1202,ACPT_experiment_5_30_19,3.1.0,59.952294773985926,
,,,C,D,g,b,L,D,d,L,c ,,,,,5,19,119,10,0,0,0,0,,,,,0,0,0,12,,,,,,up,2.135040830457001,1654.520631661435,None,001,84,2019_Oct_31_1202,ACPT_experiment_5_30_19,3.1.0,59.952294773985926,
,,,C,D,g,b,R,U,d,L,u,,,,,5,19,119,10,0,0,0,0,,,,,0,1,1,8,,,,,,down,1.8014214284194168,1657.9400429978414,None,001,84,2019_Oct_31_1202,ACPT_experiment_5_30_19,3.1.0,59.952294773985926,
,,,C,D,g,b,L,D,g,R,i,,,,,5,19,119,10,0,0,0,0,,,,,0,2,2,15,,,,,,up,1.4178087277978193,1661.0258128959686,None,001,84,2019_Oct_31_1202,ACPT_experiment_5_30_19,3.1.0,59.952294773985926,
,,,C,D,g,b,L,G,g,L,c ,,,,,5,19,119,10,0,0,0,0,,,,,0,3,3,18,,,,,,up,1.6179367795266444,1663.72800541186,None,001,84,2019_Oct_31_1202,ACPT_experiment_5_30_19,3.1.0,59.952294773985926,
,,,C,D,g,b,R,U,y,R,u,,,,,5,19,119,10,0,0,0,0,,,,,0,4,4,31,,,,,,down,0.8674076077586506,1666.6303027357499,None,001,84,2019_Oct_31_1202,ACPT_experiment_5_30_19,3.1.0,59.952294773985926,
,,,C,D,g,b,R,G,d,R,i,,,,,5,19,119,10,0,0,0,0,,,,,0,5,5,5,,,,,,up,1.1842752369411755,1668.7820177593967,None,001,84,2019_Oct_31_1202,ACPT_experiment_5_30_19,3.1.0,59.952294773985926,
,,,C,D,g,b,R,D,g,L,i,,,,,5,19,119,10,0,0,0,0,,,,,0,6,6,2,,,,,,up,0.9173975857847836,1671.2506511257816,None,001,84,2019_Oct_31_1202,ACPT_experiment_5_30_19,3.1.0,59.952294773985926,
,,,C,D,g,b,R,G,y,R,y,,,,,5,19,119,10,0,0,0,0,,,,,0,7,7,29,,,,,,down,0.7172330082394183,1673.4524110671337,None,001,84,2019_Oct_31_1202,ACPT_experiment_5_30_19,3.1.0,59.952294773985926,
,,,C,D,g,b,R,U,y,L,u,,,,,5,19,119,10,0,0,0,0,,,,,0,8,8,30,,,,,,down,0.8506766636710381,1675.4540070346848,None,001,84,2019_Oct_31_1202,ACPT_experiment_5_30_19,3.1.0,59.952294773985926,
,,,C,D,g,b,L,U,y,L,u,,,,,5,19,119,10,0,0,0,0,,,,,0,9,9,24,,,,,,down,1.0175061369372997,1677.589016169164,None,001,84,2019_Oct_31_1202,ACPT_experiment_5_30_19,3.1.0,59.952294773985926,
,,,C,D,g,b,R,D,g,R,i,,,,,5,19,119,10,0,0,0,0,,,,,0,10,10,3,,,,,,up,0.934100758167915,1679.8908577955735,None,001,84,2019_Oct_31_1202,ACPT_experiment_5_30_19,3.1.0,59.952294773985926,
,,,C,D,g,b,L,D,y,L,y,,,,,5,19,119,10,0,0,0,0,,,,,0,11,11,32,,,,,,down,0.7839545340975747,1682.109317890645,None,001,84,2019_Oct_31_1202,ACPT_experiment_5_30_19,3.1.0,59.952294773985926,
,,,C,D,g,b,L,G,d,R,i,,,,,5,19,119,10,0,0,0,0,,,,,0,12,12,17,,,,,,up,1.0007881731289672,1684.1776447419106,None,001,84,2019_Oct_31_1202,ACPT_experiment_5_30_19,3.1.0,59.952294773985926,
,,,C,D,g,b,R,G,d,L,i,,,,,5,19,119,10,0,0,0,0,,,,,0,13,13,4,,,,,,up,0.9507547263201559,1686.462796478052,None,001,84,2019_Oct_31_1202,ACPT_experiment_5_30_19,3.1.0,59.952294773985926,
,,,C,D,g,b,R,G,y,L,y,,,,,5,19,119,10,0,0,0,0,,,,,0,14,14,28,,,,,,down,0.7672909062239341,1688.6978888069134,None,001,84,2019_Oct_31_1202,ACPT_experiment_5_30_19,3.1.0,59.952294773985926,
,,,C,D,g,b,L,U,g,L,u,,,,,5,19,119,10,0,0,0,0,,,,,0,15,15,22,,,,,,up,1.2509946497302735,1690.7662050928484,None,001,84,2019_Oct_31_1202,ACPT_experiment_5_30_19,3.1.0,59.952294773985926,
,,,C,D,g,b,L,D,d,R,c ,,,,,5,19,119,10,0,0,0,0,,,,,0,16,16,13,,,,,,up,0.8173101652937476,1693.301586549307,None,001,84,2019_Oct_31_1202,ACPT_experiment_5_30_19,3.1.0,59.952294773985926,
,,,C,D,g,b,R,D,y,L,y,,,,,5,19,119,10,0,0,0,0,,,,,0,17,17,26,,,,,,down,0.4670373988337815,1695.4032581645733,None,001,84,2019_Oct_31_1202,ACPT_experiment_5_30_19,3.1.0,59.952294773985926,
,,,C,D,g,b,R,U,d,R,u,,,,,5,19,119,10,0,0,0,0,,,,,0,18,18,9,,,,,,up,0.5838352364953607,1697.1546358827327,None,001,84,2019_Oct_31_1202,ACPT_experiment_5_30_19,3.1.0,59.952294773985926,
,,,C,D,g,b,R,G,g,L,c ,,,,,5,19,119,10,0,0,0,0,,,,,0,19,19,6,,,,,,up,0.6669215425208677,1699.0397727066884,None,001,84,2019_Oct_31_1202,ACPT_experiment_5_30_19,3.1.0,59.952294773985926,
,,,C,D,g,b,L,U,y,R,u,,,,,5,19,119,10,0,0,0,0,,,,,0,20,20,25,,,,,,down,0.5837968994746916,1700.9910553973023,None,001,84,2019_Oct_31_1202,ACPT_experiment_5_30_19,3.1.0,59.952294773985926,
,,,C,D,g,b,R,D,d,R,c ,,,,,5,19,119,10,0,0,0,0,,,,,0,21,21,1,,,,,,up,0.7505925637087785,1702.8592125392752,None,001,84,2019_Oct_31_1202,ACPT_experiment_5_30_19,3.1.0,59.952294773985926,
,,,C,D,g,b,L,U,d,R,u,,,,,5,19,119,10,0,0,0,0,,,,,0,22,22,21,,,,,,up,0.7339416142058326,1704.8941481391084,None,001,84,2019_Oct_31_1202,ACPT_experiment_5_30_19,3.1.0,59.952294773985926,
,,,C,D,g,b,R,G,g,R,c ,,,,,5,19,119,10,0,0,0,0,,,,,0,23,23,7,,,,,,up,0.5337649620050797,1706.9124409398355,None,001,84,2019_Oct_31_1202,ACPT_experiment_5_30_19,3.1.0,59.952294773985926,
,,,C,D,g,b,R,D,y,R,y,,,,,5,19,119,10,0,0,0,0,,,,,0,24,24,27,,,,,,down,0.6171733594528632,1708.7472267535632,None,001,84,2019_Oct_31_1202,ACPT_experiment_5_30_19,3.1.0,59.952294773985926,
,,,C,D,g,b,L,G,d,L,i,,,,,5,19,119,10,0,0,0,0,,,,,0,25,25,16,,,,,,up,0.6338318555935984,1710.665446321509,None,001,84,2019_Oct_31_1202,ACPT_experiment_5_30_19,3.1.0,59.952294773985926,
,,,C,D,g,b,L,D,g,L,i,,,,,5,19,119,10,0,0,0,0,,,,,0,26,26,14,,,,,,up,0.8506700226134853,1712.5836504942708,None,001,84,2019_Oct_31_1202,ACPT_experiment_5_30_19,3.1.0,59.952294773985926,
,,,C,D,g,b,L,G,y,L,y,,,,,5,19,119,10,0,0,0,0,,,,,0,27,27,34,,,,,,down,0.5337758292007493,1714.7186644586036,None,001,84,2019_Oct_31_1202,ACPT_experiment_5_30_19,3.1.0,59.952294773985926,
,,,C,D,g,b,R,U,g,R,u,,,,,5,19,119,10,0,0,0,0,,,,,0,28,28,11,,,,,,up,0.6004834691993892,1716.5367938892596,None,001,84,2019_Oct_31_1202,ACPT_experiment_5_30_19,3.1.0,59.952294773985926,
,,,C,D,g,b,R,U,g,L,u,,,,,5,19,119,10,0,0,0,0,,,,,0,29,29,10,,,,,,up,0.8640125165838981,1718.4416561717662,None,001,84,2019_Oct_31_1202,ACPT_experiment_5_30_19,3.1.0,59.952294773985926,
,,,C,D,g,b,L,U,d,L,u,,,,,5,19,119,10,0,0,0,0,,,,,0,30,30,20,,,,,,up,0.5837968994746916,1720.5900325532712,None,001,84,2019_Oct_31_1202,ACPT_experiment_5_30_19,3.1.0,59.952294773985926,
,,,C,D,g,b,R,D,d,L,c,,,,,5,19,119,10,0,0,0,0,,,,,0,31,31,0,,,,,,up,0.4670268335030414,1722.45818788404,None,001,84,2019_Oct_31_1202,ACPT_experiment_5_30_19,3.1.0,59.952294773985926,
,,,C,D,g,b,L,U,g,R,u,,,,,5,19,119,10,0,0,0,0,,,,,0,32,32,23,,,,,,up,0.8006948360271053,1724.2095622816705,None,001,84,2019_Oct_31_1202,ACPT_experiment_5_30_19,3.1.0,59.952294773985926,
,,,C,D,g,b,L,G,g,R,c ,,,,,5,19,119,10,0,0,0,0,,,,,0,33,33,19,,,,,,up,0.8673562904732535,1726.2779048299708,None,001,84,2019_Oct_31_1202,ACPT_experiment_5_30_19,3.1.0,59.952294773985926,
,,,C,D,g,b,L,D,y,R,y,,,,,5,19,119,10,0,0,0,0,,,,,0,34,34,33,,,,,,down,0.7006369984301273,1728.4295938931173,None,001,84,2019_Oct_31_1202,ACPT_experiment_5_30_19,3.1.0,59.952294773985926,
,,,C,D,g,b,L,G,y,R,y,,,,,5,19,119,10,0,0,0,0,,,,,0,35,35,35,,,,,,down,0.5003878982970491,1730.4145458541025,None,001,84,2019_Oct_31_1202,ACPT_experiment_5_30_19,3.1.0,59.952294773985926,
,,,C,D,g,b,L,D,g,L,i,,,,,5,19,119,10,0,0,0,0,,,,,1,0,36,14,,,,,,down,1.1675925914751133,1732.1992961079668,None,001,84,2019_Oct_31_1202,ACPT_experiment_5_30_19,3.1.0,59.952294773985926,
,,,C,D,g,b,R,U,g,R,u,,,,,5,19,119,10,0,0,0,0,,,,,1,1,37,11,,,,,,up,0.7505979973066133,1734.6512507531443,None,001,84,2019_Oct_31_1202,ACPT_experiment_5_30_19,3.1.0,59.952294773985926,
,,,C,D,g,b,R,D,d,R,c ,,,,,5,19,119,10,0,0,0,0,,,,,1,2,38,1,,,,,,up,0.5671136502787704,1736.6862156340212,None,001,84,2019_Oct_31_1202,ACPT_experiment_5_30_19,3.1.0,59.952294773985926,
,,,C,D,g,b,R,U,y,R,u,,,,,5,19,119,10,0,0,0,0,,,,,1,3,39,31,,,,,,down,0.5835502746340353,1738.5544669583032,None,001,84,2019_Oct_31_1202,ACPT_experiment_5_30_19,3.1.0,59.952294773985926,
,,,C,D,g,b,R,U,d,L,u,,,,,5,19,119,10,0,0,0,0,,,,,1,4,40,8,,,,,,up,0.7505874319758732,1740.4392059223755,None,001,84,2019_Oct_31_1202,ACPT_experiment_5_30_19,3.1.0,59.952294773985926,
,,,C,D,g,b,L,U,g,R,u,,,,,5,19,119,10,0,0,0,0,,,,,1,5,41,23,,,,,,up,1.451154397407663,1742.4741620491113,None,001,84,2019_Oct_31_1202,ACPT_experiment_5_30_19,3.1.0,59.952294773985926,
,,,C,D,g,b,R,D,y,R,y,,,,,5,19,119,10,0,0,0,0,,,,,1,6,42,27,,,,,,down,0.6505081618670374,1745.2096881599427,None,001,84,2019_Oct_31_1202,ACPT_experiment_5_30_19,3.1.0,59.952294773985926,
,,,C,D,g,b,L,G,g,R,c ,,,,,5,19,119,10,0,0,0,0,,,,,1,7,43,19,,,,,,up,0.6672055987728527,1747.1445592811215,None,001,84,2019_Oct_31_1202,ACPT_experiment_5_30_19,3.1.0,59.952294773985926,
,,,C,D,g,b,L,G,g,L,c ,,,,,5,19,119,10,0,0,0,0,,,,,1,8,44,18,,,,,,up,0.6672031838534167,1749.0961130477517,None,001,84,2019_Oct_31_1202,ACPT_experiment_5_30_19,3.1.0,59.952294773985926,
,,,C,D,g,b,R,G,g,R,c ,,,,,5,19,119,10,0,0,0,0,,,,,1,9,45,7,,,,,,down,0.8173162026214413,1751.0476731535746,None,001,84,2019_Oct_31_1202,ACPT_experiment_5_30_19,3.1.0,59.952294773985926,
,,,C,D,g,b,L,D,g,R,i,,,,,5,19,119,10,0,0,0,0,,,,,1,10,46,15,,,,,,up,1.117569106267183,1753.1493474856252,None,001,84,2019_Oct_31_1202,ACPT_experiment_5_30_19,3.1.0,59.952294773985926,
,,,C,D,g,b,R,D,y,L,y,,,,,5,19,119,10,0,0,0,0,,,,,1,11,47,26,,,,,,down,0.7005600225093076,1755.55126355229,None,001,84,2019_Oct_31_1202,ACPT_experiment_5_30_19,3.1.0,59.952294773985926,
,,,C,D,g,b,R,U,y,L,u,,,,,5,19,119,10,0,0,0,0,,,,,1,12,48,30,,,,,,down,0.5838228599750437,1757.5361572530528,None,001,84,2019_Oct_31_1202,ACPT_experiment_5_30_19,3.1.0,59.952294773985926,
,,,C,D,g,b,L,U,g,L,u,,,,,5,19,119,10,0,0,0,0,,,,,1,13,49,22,,,,,,up,0.8006323496956611,1759.4043418648798,None,001,84,2019_Oct_31_1202,ACPT_experiment_5_30_19,3.1.0,59.952294773985926,
,,,C,D,g,b,R,D,g,L,i,,,,,5,19,119,10,0,0,0,0,,,,,1,14,50,2,,,,,,down,0.8339934144896688,1761.4893417018757,None,001,84,2019_Oct_31_1202,ACPT_experiment_5_30_19,3.1.0,59.952294773985926,
,,,C,D,g,b,L,D,d,L,c ,,,,,5,19,119,10,0,0,0,0,,,,,1,15,51,12,,,,,,up,0.5838026349374559,1763.6076914345904,None,001,84,2019_Oct_31_1202,ACPT_experiment_5_30_19,3.1.0,59.952294773985926,
,,,C,D,g,b,R,G,y,L,y,,,,,5,19,119,10,0,0,0,0,,,,,1,16,52,28,,,,,,down,0.5337743198615499,1765.4758343888534,None,001,84,2019_Oct_31_1202,ACPT_experiment_5_30_19,3.1.0,59.952294773985926,
,,,C,D,g,b,R,G,d,R,i,,,,,5,19,119,10,0,0,0,0,,,,,1,17,53,5,,,,,,up,0.5838590839557583,1767.293946914986,None,001,84,2019_Oct_31_1202,ACPT_experiment_5_30_19,3.1.0,59.952294773985926,
,,,C,D,g,b,L,U,y,R,u,,,,,5,19,119,10,0,0,0,0,,,,,1,18,54,25,,,,,,down,0.6169092263589846,1769.1790577784268,None,001,84,2019_Oct_31_1202,ACPT_experiment_5_30_19,3.1.0,59.952294773985926,
,,,C,D,g,b,L,U,d,R,u,,,,,5,19,119,10,0,0,0,0,,,,,1,19,55,21,,,,,,up,0.9507586505933432,1771.0803224174306,None,001,84,2019_Oct_31_1202,ACPT_experiment_5_30_19,3.1.0,59.952294773985926,
,,,C,D,g,b,L,G,d,L,i,,,,,5,19,119,10,0,0,0,0,,,,,1,20,56,16,,,,,,up,0.6171953956945799,1773.315444329186,None,001,84,2019_Oct_31_1202,ACPT_experiment_5_30_19,3.1.0,59.952294773985926,
,,,C,D,g,b,R,U,d,R,u,,,,,5,19,119,10,0,0,0,0,,,,,1,21,57,9,,,,,,up,0.5670870860340074,1775.2169915151317,None,001,84,2019_Oct_31_1202,ACPT_experiment_5_30_19,3.1.0,59.952294773985926,
,,,C,D,g,b,L,U,d,L,u,,,,,5,19,119,10,0,0,0,0,,,,,1,22,58,20,,,,,,up,0.8840347098011989,1777.0684312970116,None,001,84,2019_Oct_31_1202,ACPT_experiment_5_30_19,3.1.0,59.952294773985926,
,,,C,D,g,b,L,D,y,L,y,,,,,5,19,119,10,0,0,0,0,,,,,1,23,59,32,,,,,,down,0.6671905054681702,1779.2535143283894,None,001,84,2019_Oct_31_1202,ACPT_experiment_5_30_19,3.1.0,59.952294773985926,
,,,C,D,g,b,L,D,y,R,y,,,,,5,19,119,10,0,0,0,0,,,,,1,24,60,33,,,,,,down,0.5003945393546019,1781.2217567777989,None,001,84,2019_Oct_31_1202,ACPT_experiment_5_30_19,3.1.0,59.952294773985926,
,,,C,D,g,b,L,G,y,L,y,,,,,5,19,119,10,0,0,0,0,,,,,1,25,61,34,,,,,,down,0.5337616414763033,1783.0065073335427,None,001,84,2019_Oct_31_1202,ACPT_experiment_5_30_19,3.1.0,59.952294773985926,
,,,C,D,g,b,R,G,g,L,c ,,,,,5,19,119,10,0,0,0,0,,,,,1,26,62,6,,,,,,up,0.567122706270311,1784.8246280100575,None,001,84,2019_Oct_31_1202,ACPT_experiment_5_30_19,3.1.0,59.952294773985926,
,,,C,D,g,b,L,U,y,L,u,,,,,5,19,119,10,0,0,0,0,,,,,1,27,63,24,,,,,,down,0.6338644571660552,1786.6760822815268,None,001,84,2019_Oct_31_1202,ACPT_experiment_5_30_19,3.1.0,59.952294773985926,
,,,C,D,g,b,R,U,g,L,u,,,,,5,19,119,10,0,0,0,0,,,,,1,28,64,10,,,,,,up,0.7336792923306348,1788.6112202525692,None,001,84,2019_Oct_31_1202,ACPT_experiment_5_30_19,3.1.0,59.952294773985926,
,,,C,D,g,b,R,D,g,R,i,,,,,5,19,119,10,0,0,0,0,,,,,1,29,65,3,,,,,,down,0.7339527832664317,1790.6292609948723,None,001,84,2019_Oct_31_1202,ACPT_experiment_5_30_19,3.1.0,59.952294773985926,
,,,C,D,g,b,R,G,y,R,y,,,,,5,19,119,10,0,0,0,0,,,,,1,30,66,29,,,,,,down,0.533757717217668,1792.6475387022801,None,001,84,2019_Oct_31_1202,ACPT_experiment_5_30_19,3.1.0,59.952294773985926,
,,,C,D,g,b,L,G,d,R,i,,,,,5,19,119,10,0,0,0,0,,,,,1,31,67,17,,,,,,up,0.6004741113429191,1794.4656536433467,None,001,84,2019_Oct_31_1202,ACPT_experiment_5_30_19,3.1.0,59.952294773985926,
,,,C,D,g,b,R,D,d,L,c,,,,,5,19,119,10,0,0,0,0,,,,,1,32,68,0,,,,,,up,0.6004713945440017,1796.3504916195816,None,001,84,2019_Oct_31_1202,ACPT_experiment_5_30_19,3.1.0,59.952294773985926,
,,,C,D,g,b,L,D,d,R,c ,,,,,5,19,119,10,0,0,0,0,,,,,1,33,69,13,,,,,,up,0.7172372343775351,1798.2353271808825,None,001,84,2019_Oct_31_1202,ACPT_experiment_5_30_19,3.1.0,59.952294773985926,
,,,C,D,g,b,L,G,y,R,y,,,,,5,19,119,10,0,0,0,0,,,,,1,34,70,35,,,,,,down,0.6171827173093334,1800.2368993009877,None,001,84,2019_Oct_31_1202,ACPT_experiment_5_30_19,3.1.0,59.952294773985926,
,,,C,D,g,b,R,G,d,L,i,,,,,5,19,119,10,0,0,0,0,,,,,1,35,71,4,,,,,,up,0.6505057469330495,1802.138455542925,None,001,84,2019_Oct_31_1202,ACPT_experiment_5_30_19,3.1.0,59.952294773985926,
,,,C,D,g,b,,,,,,,,,,5,19,119,10,1,0,1,0,0,0,0,0,,,,,,,,,,,,,,001,84,2019_Oct_31_1202,ACPT_experiment_5_30_19,3.1.0,59.952294773985926,
,,,C,D,g,b,R,U,g,R,u,,,,,5,19,119,10,1,0,1,0,,,,,0,0,0,11,,,,,,up,0.5334827169426717,1813.481101957179,None,001,84,2019_Oct_31_1202,ACPT_experiment_5_30_19,3.1.0,59.952294773985926,
,,,C,D,g,b,L,D,g,R,i,,,,,5,19,119,10,1,0,1,0,,,,,0,1,1,15,,,,,,up,0.6838761695835274,1815.2989479352836,None,001,84,2019_Oct_31_1202,ACPT_experiment_5_30_19,3.1.0,59.952294773985926,
,,,C,D,g,b,R,G,g,L,c ,,,,,5,19,119,10,1,0,1,0,,,,,0,2,2,6,,,,,,up,0.5837981069344096,1817.267184045515,None,001,84,2019_Oct_31_1202,ACPT_experiment_5_30_19,3.1.0,59.952294773985926,
,,,C,D,g,b,L,G,g,L,c ,,,,,5,19,119,10,1,0,1,0,,,,,0,3,3,18,,,,,,down,0.8340296384558314,1819.1186621644301,None,001,84,2019_Oct_31_1202,ACPT_experiment_5_30_19,3.1.0,59.952294773985926,
,,,C,D,g,b,L,G,g,R,c ,,,,,5,19,119,10,1,0,1,0,,,,,0,4,4,19,,,,,,up,0.7172616855532397,1821.220317177038,None,001,84,2019_Oct_31_1202,ACPT_experiment_5_30_19,3.1.0,59.952294773985926,
,,,C,D,g,b,L,G,d,L,i,,,,,5,19,119,10,1,0,1,0,,,,,0,5,5,16,,,,,,up,0.6505320092983311,1823.2052612894913,None,001,84,2019_Oct_31_1202,ACPT_experiment_5_30_19,3.1.0,59.952294773985926,
,,,C,D,g,b,R,G,y,L,y,,,,,5,19,119,10,1,0,1,0,,,,,0,6,6,28,,,,,,down,0.8172784693160793,1825.1401734644896,None,001,84,2019_Oct_31_1202,ACPT_experiment_5_30_19,3.1.0,59.952294773985926,
,,,C,D,g,b,R,U,d,L,u,,,,,5,19,119,10,1,0,1,0,,,,,0,7,7,8,,,,,,up,0.6005299566168105,1827.2417898382118,None,001,84,2019_Oct_31_1202,ACPT_experiment_5_30_19,3.1.0,59.952294773985926,
,,,C,D,g,b,L,U,y,R,u,,,,,5,19,119,10,1,0,1,0,,,,,0,8,8,25,,,,,,down,0.9674234859267017,1829.1266598122747,None,001,84,2019_Oct_31_1202,ACPT_experiment_5_30_19,3.1.0,59.952294773985926,
,,,C,D,g,b,R,D,y,R,y,,,,,5,19,119,10,1,0,1,0,,,,,0,9,9,27,,,,,,down,0.6338324593234574,1831.3951252805855,None,001,84,2019_Oct_31_1202,ACPT_experiment_5_30_19,3.1.0,59.952294773985926,
,,,C,D,g,b,L,G,y,L,y,,,,,5,19,119,10,1,0,1,0,,,,,0,10,10,34,,,,,,down,0.7339376899471972,1833.3132992666942,None,001,84,2019_Oct_31_1202,ACPT_experiment_5_30_19,3.1.0,59.952294773985926,
,,,C,D,g,b,R,G,d,R,i,,,,,5,19,119,10,1,0,1,0,,,,,0,11,11,5,,,,,,up,0.7005545889114728,1835.3482771278213,None,001,84,2019_Oct_31_1202,ACPT_experiment_5_30_19,3.1.0,59.952294773985926,
,,,C,D,g,b,R,U,y,L,u,,,,,5,19,119,10,1,0,1,0,,,,,0,12,12,30,,,,,,down,0.600492525176378,1837.333214901082,None,001,84,2019_Oct_31_1202,ACPT_experiment_5_30_19,3.1.0,59.952294773985926,
,,,C,D,g,b,R,D,d,R,c ,,,,,5,19,119,10,1,0,1,0,,,,,0,13,13,1,,,,,,up,1.0003646545810625,1839.2351201005513,None,001,84,2019_Oct_31_1202,ACPT_experiment_5_30_19,3.1.0,59.952294773985926,
,,,C,D,g,b,L,D,g,L,i,,,,,5,19,119,10,1,0,1,0,,,,,0,14,14,14,,,,,,up,0.65053382050246,1841.51987095816,None,001,84,2019_Oct_31_1202,ACPT_experiment_5_30_19,3.1.0,59.952294773985926,
,,,C,D,g,b,L,U,d,R,u,,,,,5,19,119,10,1,0,1,0,,,,,0,15,15,21,,,,,,up,0.6004792430612724,1843.4547511353157,None,001,84,2019_Oct_31_1202,ACPT_experiment_5_30_19,3.1.0,59.952294773985926,
,,,C,D,g,b,R,D,d,L,c,,,,,5,19,119,10,1,0,1,0,,,,,0,16,16,0,,,,,,up,0.6669529366045026,1845.3398339251871,None,001,84,2019_Oct_31_1202,ACPT_experiment_5_30_19,3.1.0,59.952294773985926,
,,,C,D,g,b,L,D,y,L,y,,,,,5,19,119,10,1,0,1,0,,,,,0,17,17,32,,,,,,down,1.050851504682214,1847.307802279931,None,001,84,2019_Oct_31_1202,ACPT_experiment_5_30_19,3.1.0,59.952294773985926,
,,,C,D,g,b,L,U,g,L,u,,,,,5,19,119,10,1,0,1,0,,,,,0,18,18,22,,,,,,up,0.6171612847974757,1849.65970301177,None,001,84,2019_Oct_31_1202,ACPT_experiment_5_30_19,3.1.0,59.952294773985926,
,,,C,D,g,b,R,U,g,L,u,,,,,5,19,119,10,1,0,1,0,,,,,0,19,19,10,,,,,,up,0.533758924677386,1851.561223029741,None,001,84,2019_Oct_31_1202,ACPT_experiment_5_30_19,3.1.0,59.952294773985926,
,,,C,D,g,b,L,D,y,R,y,,,,,5,19,119,10,1,0,1,0,,,,,0,20,20,33,,,,,,down,0.7672942267381586,1853.3793421969312,None,001,84,2019_Oct_31_1202,ACPT_experiment_5_30_19,3.1.0,59.952294773985926,
,,,C,D,g,b,L,U,g,R,u,,,,,5,19,119,10,1,0,1,0,,,,,0,21,21,23,,,,,,up,0.6505175197235076,1855.4309755355353,None,001,84,2019_Oct_31_1202,ACPT_experiment_5_30_19,3.1.0,59.952294773985926,
,,,C,D,g,b,R,D,g,L,i,,,,,5,19,119,10,1,0,1,0,,,,,0,22,22,2,,,,,,up,0.7005437217303552,1857.3658708060102,None,001,84,2019_Oct_31_1202,ACPT_experiment_5_30_19,3.1.0,59.952294773985926,
,,,C,D,g,b,L,U,y,L,u,,,,,5,19,119,10,1,0,1,0,,,,,0,23,23,24,,,,,,down,0.7339316526195034,1859.3507611862588,None,001,84,2019_Oct_31_1202,ACPT_experiment_5_30_19,3.1.0,59.952294773985926,
,,,C,D,g,b,R,U,y,R,u,,,,,5,19,119,10,1,0,1,0,,,,,0,24,24,31,,,,,,down,0.717226065316936,1861.3857354249776,None,001,84,2019_Oct_31_1202,ACPT_experiment_5_30_19,3.1.0,59.952294773985926,
,,,C,D,g,b,R,G,g,R,c ,,,,,5,19,119,10,1,0,1,0,,,,,0,25,25,7,,,,,,up,0.6171431727998424,1863.4040092081268,None,001,84,2019_Oct_31_1202,ACPT_experiment_5_30_19,3.1.0,59.952294773985926,
,,,C,D,g,b,R,D,y,L,y,,,,,5,19,119,10,1,0,1,0,,,,,0,26,26,26,,,,,,down,0.5003933318948839,1865.305519264497,None,001,84,2019_Oct_31_1202,ACPT_experiment_5_30_19,3.1.0,59.952294773985926,
,,,C,D,g,b,L,G,y,R,y,,,,,5,19,119,10,1,0,1,0,,,,,0,27,27,35,,,,,,down,0.6338587217032909,1867.0902544250566,None,001,84,2019_Oct_31_1202,ACPT_experiment_5_30_19,3.1.0,59.952294773985926,
,,,C,D,g,b,R,U,d,R,u,,,,,5,19,119,10,1,0,1,0,,,,,0,28,28,9,,,,,,up,0.7172411586361704,1869.0251469787327,None,001,84,2019_Oct_31_1202,ACPT_experiment_5_30_19,3.1.0,59.952294773985926,
,,,C,D,g,b,L,D,d,R,c ,,,,,5,19,119,10,1,0,1,0,,,,,0,29,29,13,,,,,,up,0.5005137765838299,1871.0267541153444,None,001,84,2019_Oct_31_1202,ACPT_experiment_5_30_19,3.1.0,59.952294773985926,
,,,C,D,g,b,L,D,d,L,c ,,,,,5,19,119,10,1,0,1,0,,,,,0,30,30,12,,,,,,up,0.8673795341892401,1872.7948102528317,None,001,84,2019_Oct_31_1202,ACPT_experiment_5_30_19,3.1.0,59.952294773985926,
,,,C,D,g,b,R,G,d,L,i,,,,,5,19,119,10,1,0,1,0,,,,,0,31,31,4,,,,,,up,0.6004774318716954,1874.9465464071254,None,001,84,2019_Oct_31_1202,ACPT_experiment_5_30_19,3.1.0,59.952294773985926,
,,,C,D,g,b,R,G,y,R,y,,,,,5,19,119,10,1,0,1,0,,,,,0,32,32,29,,,,,,down,0.680597900704015,1876.8513890683244,None,001,84,2019_Oct_31_1202,ACPT_experiment_5_30_19,3.1.0,59.952294773985926,
,,,C,D,g,b,L,U,d,L,u,,,,,5,19,119,10,1,0,1,0,,,,,0,33,33,20,,,,,,up,0.500390313231037,1878.8163046483678,None,001,84,2019_Oct_31_1202,ACPT_experiment_5_30_19,3.1.0,59.952294773985926,
,,,C,D,g,b,L,G,d,R,i,,,,,5,19,119,10,1,0,1,0,,,,,0,34,34,17,,,,,,up,0.5837950882705627,1880.6010561097064,None,001,84,2019_Oct_31_1202,ACPT_experiment_5_30_19,3.1.0,59.952294773985926,
,,,C,D,g,b,R,D,g,R,i,,,,,5,19,119,10,1,0,1,0,,,,,0,35,35,3,,,,,,up,0.7172351213084767,1882.4692174778174,None,001,84,2019_Oct_31_1202,ACPT_experiment_5_30_19,3.1.0,59.952294773985926,
,,,C,D,g,b,L,U,d,R,u,,,,,5,19,119,10,1,0,1,0,,,,,1,0,36,21,,,,,,up,0.4336775414994918,1884.470815558423,None,001,84,2019_Oct_31_1202,ACPT_experiment_5_30_19,3.1.0,59.952294773985926,
,,,C,D,g,b,L,D,y,R,y,,,,,5,19,119,10,1,0,1,0,,,,,1,1,37,33,,,,,,down,0.6004831673344597,1886.1888518331107,None,001,84,2019_Oct_31_1202,ACPT_experiment_5_30_19,3.1.0,59.952294773985926,
,,,C,D,g,b,L,U,y,R,u,,,,,5,19,119,10,1,0,1,0,,,,,1,2,38,25,,,,,,down,0.5003975580184488,1888.0736886018858,None,001,84,2019_Oct_31_1202,ACPT_experiment_5_30_19,3.1.0,59.952294773985926,
,,,C,D,g,b,L,D,d,L,c ,,,,,5,19,119,10,1,0,1,0,,,,,1,3,39,12,,,,,,up,0.6167311252065701,1889.8755211723037,None,001,84,2019_Oct_31_1202,ACPT_experiment_5_30_19,3.1.0,59.952294773985926,
,,,C,D,g,b,L,G,d,R,i,,,,,5,19,119,10,1,0,1,0,,,,,1,4,40,17,,,,,,up,0.6171543418604415,1891.776645141581,None,001,84,2019_Oct_31_1202,ACPT_experiment_5_30_19,3.1.0,59.952294773985926,
,,,C,D,g,b,L,G,g,R,c ,,,,,5,19,119,10,1,0,1,0,,,,,1,5,41,19,,,,,,up,0.48376321118848864,1893.6614671189018,None,001,84,2019_Oct_31_1202,ACPT_experiment_5_30_19,3.1.0,59.952294773985926,
,,,C,D,g,b,L,D,d,R,c ,,,,,5,19,119,10,1,0,1,0,,,,,1,6,42,13,,,,,,up,0.4670621518744156,1895.4295615934097,None,001,84,2019_Oct_31_1202,ACPT_experiment_5_30_19,3.1.0,59.952294773985926,
,,,C,D,g,b,L,U,g,R,u,,,,,5,19,119,10,1,0,1,0,,,,,1,7,43,23,,,,,,up,0.5167958453530446,1897.1979144655488,None,001,84,2019_Oct_31_1202,ACPT_experiment_5_30_19,3.1.0,59.952294773985926,
,,,C,D,g,b,R,G,y,R,y,,,,,5,19,119,10,1,0,1,0,,,,,1,8,44,29,,,,,,down,0.48371400697214995,1898.9990744776733,None,001,84,2019_Oct_31_1202,ACPT_experiment_5_30_19,3.1.0,59.952294773985926,
,,,C,D,g,b,L,G,g,L,c ,,,,,5,19,119,10,1,0,1,0,,,,,1,9,45,18,,,,,,up,0.5838192375813378,1900.7671312188904,None,001,84,2019_Oct_31_1202,ACPT_experiment_5_30_19,3.1.0,59.952294773985926,
,,,C,D,g,b,L,U,y,L,u,,,,,5,19,119,10,1,0,1,0,,,,,1,10,46,24,,,,,,down,0.6338363835966447,1902.6353082840506,None,001,84,2019_Oct_31_1202,ACPT_experiment_5_30_19,3.1.0,59.952294773985926,
,,,C,D,g,b,R,D,y,R,y,,,,,5,19,119,10,1,0,1,0,,,,,1,11,47,27,,,,,,down,0.6000315752316965,1904.5706177152024,None,001,84,2019_Oct_31_1202,ACPT_experiment_5_30_19,3.1.0,59.952294773985926,
,,,C,D,g,b,R,U,d,R,u,,,,,5,19,119,10,1,0,1,0,,,,,1,12,48,9,,,,,,down,0.9007034694077447,1906.4550351915823,None,001,84,2019_Oct_31_1202,ACPT_experiment_5_30_19,3.1.0,59.952294773985926,
,,,C,D,g,b,R,G,d,R,i,,,,,5,19,119,10,1,0,1,0,,,,,1,13,49,5,,,,,,up,0.5837769762874814,1908.6401203360147,None,001,84,2019_Oct_31_1202,ACPT_experiment_5_30_19,3.1.0,59.952294773985926,
,,,C,D,g,b,L,G,y,L,y,,,,,5,19,119,10,1,0,1,0,,,,,1,14,50,34,,,,,,down,0.800633557169931,1910.5082651014673,None,001,84,2019_Oct_31_1202,ACPT_experiment_5_30_19,3.1.0,59.952294773985926,
,,,C,D,g,b,R,D,d,R,c ,,,,,5,19,119,10,1,0,1,0,,,,,1,15,51,1,,,,,,up,0.7506191279389895,1912.5932347518246,None,001,84,2019_Oct_31_1202,ACPT_experiment_5_30_19,3.1.0,59.952294773985926,
,,,C,D,g,b,R,D,g,L,i,,,,,5,19,119,10,1,0,1,0,,,,,1,16,52,2,,,,,,up,0.7172710434097098,1914.6115091387037,None,001,84,2019_Oct_31_1202,ACPT_experiment_5_30_19,3.1.0,59.952294773985926,
,,,C,D,g,b,L,D,g,R,i,,,,,5,19,119,10,1,0,1,0,,,,,1,17,53,15,,,,,,up,0.5337531892291736,1916.6131322742149,None,001,84,2019_Oct_31_1202,ACPT_experiment_5_30_19,3.1.0,59.952294773985926,
,,,C,D,g,b,L,U,g,L,u,,,,,5,19,119,10,1,0,1,0,,,,,1,18,54,22,,,,,,up,0.617167623990099,1918.431253856339,None,001,84,2019_Oct_31_1202,ACPT_experiment_5_30_19,3.1.0,59.952294773985926,
,,,C,D,g,b,R,D,g,R,i,,,,,5,19,119,10,1,0,1,0,,,,,1,19,55,3,,,,,,up,1.6012822076299926,1920.3327654220484,None,001,84,2019_Oct_31_1202,ACPT_experiment_5_30_19,3.1.0,59.952294773985926,
,,,C,D,g,b,R,U,y,L,u,,,,,5,19,119,10,1,0,1,0,,,,,1,20,56,30,,,,,,down,0.8173279754118994,1923.2183985143347,None,001,84,2019_Oct_31_1202,ACPT_experiment_5_30_19,3.1.0,59.952294773985926,
,,,C,D,g,b,L,U,d,L,u,,,,,5,19,119,10,1,0,1,0,,,,,1,21,57,20,,,,,,up,0.8173174100811593,1925.320079185578,None,001,84,2019_Oct_31_1202,ACPT_experiment_5_30_19,3.1.0,59.952294773985926,
,,,C,D,g,b,R,G,g,L,c ,,,,,5,19,119,10,1,0,1,0,,,,,1,22,58,6,,,,,,up,0.6838725471752696,1927.4217622717697,None,001,84,2019_Oct_31_1202,ACPT_experiment_5_30_19,3.1.0,59.952294773985926,
,,,C,D,g,b,L,G,d,L,i,,,,,5,19,119,10,1,0,1,0,,,,,1,23,59,16,,,,,,up,0.617166416515829,1929.3899847980065,None,001,84,2019_Oct_31_1202,ACPT_experiment_5_30_19,3.1.0,59.952294773985926,
,,,C,D,g,b,L,G,y,R,y,,,,,5,19,119,10,1,0,1,0,,,,,1,24,60,35,,,,,,down,0.6505129917350132,1931.2915132682247,None,001,84,2019_Oct_31_1202,ACPT_experiment_5_30_19,3.1.0,59.952294773985926,
,,,C,D,g,b,R,G,d,L,i,,,,,5,19,119,10,1,0,1,0,,,,,1,25,61,4,,,,,,up,0.6505057469330495,1933.2263943509897,None,001,84,2019_Oct_31_1202,ACPT_experiment_5_30_19,3.1.0,59.952294773985926,
,,,C,D,g,b,L,D,g,L,i,,,,,5,19,119,10,1,0,1,0,,,,,1,26,62,14,,,,,,up,0.6805070389236789,1935.1813157389406,None,001,84,2019_Oct_31_1202,ACPT_experiment_5_30_19,3.1.0,59.952294773985926,
,,,C,D,g,b,R,U,g,L,u,,,,,5,19,119,10,1,0,1,0,,,,,1,27,63,10,,,,,,up,0.4670319652359467,1937.1461854352965,None,001,84,2019_Oct_31_1202,ACPT_experiment_5_30_19,3.1.0,59.952294773985926,
,,,C,D,g,b,L,D,y,L,y,,,,,5,19,119,10,1,0,1,0,,,,,1,28,64,32,,,,,,down,0.8839076240547001,1938.914358696944,None,001,84,2019_Oct_31_1202,ACPT_experiment_5_30_19,3.1.0,59.952294773985926,
,,,C,D,g,b,R,U,d,L,u,,,,,5,19,119,10,1,0,1,0,,,,,1,29,65,8,,,,,,up,1.5512807586637791,1941.099315850035,None,001,84,2019_Oct_31_1202,ACPT_experiment_5_30_19,3.1.0,59.952294773985926,
,,,C,D,g,b,R,D,y,L,y,,,,,5,19,119,10,1,0,1,0,,,,,1,30,66,26,,,,,,down,0.6338442321284674,1943.9349327019008,None,001,84,2019_Oct_31_1202,ACPT_experiment_5_30_19,3.1.0,59.952294773985926,
,,,C,D,g,b,R,G,g,R,c ,,,,,5,19,119,10,1,0,1,0,,,,,1,31,67,7,,,,,,up,0.633857514243573,1945.8531078954838,None,001,84,2019_Oct_31_1202,ACPT_experiment_5_30_19,3.1.0,59.952294773985926,
,,,C,D,g,b,R,U,g,R,u,,,,,5,19,119,10,1,0,1,0,,,,,1,32,68,11,,,,,,up,0.5004192924097879,1947.7713274634298,None,001,84,2019_Oct_31_1202,ACPT_experiment_5_30_19,3.1.0,59.952294773985926,
,,,C,D,g,b,R,U,y,R,u,,,,,5,19,119,10,1,0,1,0,,,,,1,33,69,31,,,,,,down,0.613746270435513,1949.576150020337,None,001,84,2019_Oct_31_1202,ACPT_experiment_5_30_19,3.1.0,59.952294773985926,
,,,C,D,g,b,R,D,d,L,c,,,,,5,19,119,10,1,0,1,0,,,,,1,34,70,0,,,,,,up,0.8506833047431428,1951.4742912479269,None,001,84,2019_Oct_31_1202,ACPT_experiment_5_30_19,3.1.0,59.952294773985926,
,,,C,D,g,b,R,G,y,L,y,,,,,5,19,119,10,1,0,1,0,,,,,1,35,71,28,,,,,,down,0.6338391003810102,1953.609322116783,None,001,84,2019_Oct_31_1202,ACPT_experiment_5_30_19,3.1.0,59.952294773985926,
,,,C,D,g,b,,,,,,,,,,5,19,119,10,2,0,2,0,0,0,0,0,,,,,,,,,,,,,,001,84,2019_Oct_31_1202,ACPT_experiment_5_30_19,3.1.0,59.952294773985926,
,,,C,D,g,b,R,G,g,R,c ,,,,,5,19,119,10,2,0,2,0,,,,,0,0,0,7,,,,,,up,0.5304151507880306,1981.4515465218283,None,001,84,2019_Oct_31_1202,ACPT_experiment_5_30_19,3.1.0,59.952294773985926,
,,,C,D,g,b,L,U,g,L,u,,,,,5,19,119,10,2,0,2,0,,,,,0,1,1,22,,,,,,up,0.5671218006755225,1983.2663228207239,None,001,84,2019_Oct_31_1202,ACPT_experiment_5_30_19,3.1.0,59.952294773985926,
,,,C,D,g,b,L,D,y,R,y,,,,,5,19,119,10,2,0,2,0,,,,,0,2,2,33,,,,,,down,0.6004792430612724,1985.1177988265845,None,001,84,2019_Oct_31_1202,ACPT_experiment_5_30_19,3.1.0,59.952294773985926,
,,,C,D,g,b,R,D,d,R,c ,,,,,5,19,119,10,2,0,2,0,,,,,0,3,3,1,,,,,,up,0.5671184801467462,1987.002640727078,None,001,84,2019_Oct_31_1202,ACPT_experiment_5_30_19,3.1.0,59.952294773985926,
,,,C,D,g,b,L,G,d,R,i,,,,,5,19,119,10,2,0,2,0,,,,,0,4,4,17,,,,,,up,0.6338418171944795,1988.8541125068004,None,001,84,2019_Oct_31_1202,ACPT_experiment_5_30_19,3.1.0,59.952294773985926,
,,,C,D,g,b,R,U,d,R,u,,,,,5,19,119,10,2,0,2,0,,,,,0,5,5,9,,,,,,up,0.5671169708075467,1990.7723166795622,None,001,84,2019_Oct_31_1202,ACPT_experiment_5_30_19,3.1.0,59.952294773985926,
,,,C,D,g,b,L,D,d,R,c ,,,,,5,19,119,10,2,0,2,0,,,,,0,6,6,13,,,,,,up,0.5003969542885898,1992.6071127567411,None,001,84,2019_Oct_31_1202,ACPT_experiment_5_30_19,3.1.0,59.952294773985926,
,,,C,D,g,b,R,G,g,L,c ,,,,,5,19,119,10,2,0,2,0,,,,,0,7,7,6,,,,,,up,0.6002021297317697,1994.4088251843496,None,001,84,2019_Oct_31_1202,ACPT_experiment_5_30_19,3.1.0,59.952294773985926,
,,,C,D,g,b,R,U,d,L,u,,,,,5,19,119,10,2,0,2,0,,,,,0,8,8,8,,,,,,up,0.5003918225556845,1996.2933908771083,None,001,84,2019_Oct_31_1202,ACPT_experiment_5_30_19,3.1.0,59.952294773985926,
,,,C,D,g,b,L,G,y,L,y,,,,,5,19,119,10,2,0,2,0,,,,,0,9,9,34,,,,,,down,0.6338366854615742,1998.078142338447,None,001,84,2019_Oct_31_1202,ACPT_experiment_5_30_19,3.1.0,59.952294773985926,
,,,C,D,g,b,L,G,g,L,c ,,,,,5,19,119,10,2,0,2,0,,,,,0,10,10,18,,,,,,up,0.4504365591710666,1999.9796424332308,None,001,84,2019_Oct_31_1202,ACPT_experiment_5_30_19,3.1.0,59.952294773985926,
,,,C,D,g,b,L,D,y,L,y,,,,,5,19,119,10,2,0,2,0,,,,,0,11,11,32,,,,,,down,0.5334815094829537,2001.73133529989,None,001,84,2019_Oct_31_1202,ACPT_experiment_5_30_19,3.1.0,59.952294773985926,
,,,C,D,g,b,L,U,g,R,u,,,,,5,19,119,10,2,0,2,0,,,,,0,12,12,23,,,,,,up,0.8840383321949048,2003.549180070535,None,001,84,2019_Oct_31_1202,ACPT_experiment_5_30_19,3.1.0,59.952294773985926,
,,,C,D,g,b,L,D,g,R,i,,,,,5,19,119,10,2,0,2,0,,,,,0,13,13,15,,,,,,up,0.5337540948094102,2005.7175765321736,None,001,84,2019_Oct_31_1202,ACPT_experiment_5_30_19,3.1.0,59.952294773985926,
,,,C,D,g,b,L,U,y,R,u,,,,,5,19,119,10,2,0,2,0,,,,,0,14,14,25,,,,,,down,0.5837950882705627,2007.5356929825648,None,001,84,2019_Oct_31_1202,ACPT_experiment_5_30_19,3.1.0,59.952294773985926,
,,,C,D,g,b,R,G,d,L,i,,,,,5,19,119,10,2,0,2,0,,,,,0,15,15,4,,,,,,up,0.6338683814246906,2009.4038531432016,None,001,84,2019_Oct_31_1202,ACPT_experiment_5_30_19,3.1.0,59.952294773985926,
,,,C,D,g,b,L,D,d,L,c ,,,,,5,19,119,10,2,0,2,0,,,,,0,16,16,12,,,,,,up,0.4670352857647231,2011.3220536935696,None,001,84,2019_Oct_31_1202,ACPT_experiment_5_30_19,3.1.0,59.952294773985926,
,,,C,D,g,b,R,U,y,L,u,,,,,5,19,119,10,2,0,2,0,,,,,0,17,17,30,,,,,,down,0.7172281783859944,2013.0901264337153,None,001,84,2019_Oct_31_1202,ACPT_experiment_5_30_19,3.1.0,59.952294773985926,
,,,C,D,g,b,L,U,d,R,u,,,,,5,19,119,10,2,0,2,0,,,,,0,18,18,21,,,,,,up,0.5838258786388906,2015.125078334313,None,001,84,2019_Oct_31_1202,ACPT_experiment_5_30_19,3.1.0,59.952294773985926,
,,,C,D,g,b,R,U,y,R,u,,,,,5,19,119,10,2,0,2,0,,,,,0,19,19,31,,,,,,down,0.6670220640226034,2017.010061508292,None,001,84,2019_Oct_31_1202,ACPT_experiment_5_30_19,3.1.0,59.952294773985926,
,,,C,D,g,b,R,D,g,L,i,,,,,5,19,119,10,2,0,2,0,,,,,0,20,20,2,,,,,,up,0.7339401048811851,2018.978160873041,None,001,84,2019_Oct_31_1202,ACPT_experiment_5_30_19,3.1.0,59.952294773985926,
,,,C,D,g,b,L,G,y,R,y,,,,,5,19,119,10,2,0,2,0,,,,,0,21,21,35,,,,,,down,0.48373393014480826,2020.996435561785,None,001,84,2019_Oct_31_1202,ACPT_experiment_5_30_19,3.1.0,59.952294773985926,
,,,C,D,g,b,R,D,d,L,c,,,,,5,19,119,10,2,0,2,0,,,,,0,22,22,0,,,,,,up,0.550190719179227,2022.781448439404,None,001,84,2019_Oct_31_1202,ACPT_experiment_5_30_19,3.1.0,59.952294773985926,
,,,C,D,g,b,L,G,d,L,i,,,,,5,19,119,10,2,0,2,0,,,,,0,23,23,16,,,,,,up,0.6338460433034925,2024.5993007567158,None,001,84,2019_Oct_31_1202,ACPT_experiment_5_30_19,3.1.0,59.952294773985926,
,,,C,D,g,b,L,D,g,L,i,,,,,5,19,119,10,2,0,2,0,,,,,0,24,24,14,,,,,,up,0.6671902035886887,2026.5175109668053,None,001,84,2019_Oct_31_1202,ACPT_experiment_5_30_19,3.1.0,59.952294773985926,
,,,C,D,g,b,R,G,y,L,y,,,,,5,19,119,10,2,0,2,0,,,,,0,25,25,28,,,,,,down,0.467037096968852,2028.4690635259612,None,001,84,2019_Oct_31_1202,ACPT_experiment_5_30_19,3.1.0,59.952294773985926,
,,,C,D,g,b,L,G,g,R,c ,,,,,5,19,119,10,2,0,2,0,,,,,0,26,26,19,,,,,,up,0.5671211969311116,2030.2204650915664,None,001,84,2019_Oct_31_1202,ACPT_experiment_5_30_19,3.1.0,59.952294773985926,
,,,C,D,g,b,L,U,d,L,u,,,,,5,19,119,10,2,0,2,0,,,,,0,27,27,20,,,,,,up,0.6838782826525858,2032.0719401918177,None,001,84,2019_Oct_31_1202,ACPT_experiment_5_30_19,3.1.0,59.952294773985926,
,,,C,D,g,b,R,G,d,R,i,,,,,5,19,119,10,2,0,2,0,,,,,0,28,28,5,,,,,,up,0.7172351213084767,2034.040183546822,None,001,84,2019_Oct_31_1202,ACPT_experiment_5_30_19,3.1.0,59.952294773985926,
,,,C,D,g,b,L,U,y,L,u,,,,,5,19,119,10,2,0,2,0,,,,,0,29,29,24,,,,,,down,0.6837065206782427,2036.0919524234341,None,001,84,2019_Oct_31_1202,ACPT_experiment_5_30_19,3.1.0,59.952294773985926,
,,,C,D,g,b,R,D,y,R,y,,,,,5,19,119,10,2,0,2,0,,,,,0,30,30,27,,,,,,down,0.7505880357057322,2038.0767413765716,None,001,84,2019_Oct_31_1202,ACPT_experiment_5_30_19,3.1.0,59.952294773985926,
,,,C,D,g,b,R,U,g,R,u,,,,,5,19,119,10,2,0,2,0,,,,,0,31,31,11,,,,,,up,0.7005829643603647,2040.111690560385,None,001,84,2019_Oct_31_1202,ACPT_experiment_5_30_19,3.1.0,59.952294773985926,
,,,C,D,g,b,R,D,g,R,i,,,,,5,19,119,10,2,0,2,0,,,,,0,32,32,3,,,,,,up,0.666982217648183,2042.0968215281318,None,001,84,2019_Oct_31_1202,ACPT_experiment_5_30_19,3.1.0,59.952294773985926,
,,,C,D,g,b,R,U,g,L,u,,,,,5,19,119,10,2,0,2,0,,,,,0,33,33,10,,,,,,up,0.6171561530500185,2044.0481615733734,None,001,84,2019_Oct_31_1202,ACPT_experiment_5_30_19,3.1.0,59.952294773985926,
,,,C,D,g,b,R,D,y,L,y,,,,,5,19,119,10,2,0,2,0,,,,,0,34,34,26,,,,,,down,0.6838828106556321,2045.949683704399,None,001,84,2019_Oct_31_1202,ACPT_experiment_5_30_19,3.1.0,59.952294773985926,
,,,C,D,g,b,R,G,y,R,y,,,,,5,19,119,10,2,0,2,0,,,,,0,35,35,29,,,,,,down,0.8173119764833245,2047.9179228332941,None,001,84,2019_Oct_31_1202,ACPT_experiment_5_30_19,3.1.0,59.952294773985926,
,,,C,D,g,b,L,G,d,L,i,,,,,5,19,119,10,2,0,2,0,,,,,1,0,36,16,,,,,,up,0.8173035242216429,2050.019611654934,None,001,84,2019_Oct_31_1202,ACPT_experiment_5_30_19,3.1.0,59.952294773985926,
,,,C,D,g,b,R,U,d,L,u,,,,,5,19,119,10,2,0,2,0,,,,,1,1,37,8,,,,,,up,0.633816158544505,2052.1212953448558,None,001,84,2019_Oct_31_1202,ACPT_experiment_5_30_19,3.1.0,59.952294773985926,
,,,C,D,g,b,R,G,g,R,c ,,,,,5,19,119,10,2,0,2,0,,,,,1,2,38,7,,,,,,up,0.6004741113283671,2054.039475066442,None,001,84,2019_Oct_31_1202,ACPT_experiment_5_30_19,3.1.0,59.952294773985926,
,,,C,D,g,b,R,D,y,L,y,,,,,5,19,119,10,2,0,2,0,,,,,1,3,39,26,,,,,,down,0.700575719558401,2055.9243148538662,None,001,84,2019_Oct_31_1202,ACPT_experiment_5_30_19,3.1.0,59.952294773985926,
,,,C,D,g,b,R,U,d,R,u,,,,,5,19,119,10,2,0,2,0,,,,,1,4,40,9,,,,,,up,0.8173113727534655,2057.9092317983595,None,001,84,2019_Oct_31_1202,ACPT_experiment_5_30_19,3.1.0,59.952294773985926,
,,,C,D,g,b,L,U,g,L,u,,,,,5,19,119,10,2,0,2,0,,,,,1,5,41,22,,,,,,up,0.5837956920149736,2060.0108994893526,None,001,84,2019_Oct_31_1202,ACPT_experiment_5_30_19,3.1.0,59.952294773985926,
,,,C,D,g,b,L,D,d,R,c ,,,,,5,19,119,10,2,0,2,0,,,,,1,6,42,13,,,,,,up,0.5504430794680957,2061.8790590462595,None,001,84,2019_Oct_31_1202,ACPT_experiment_5_30_19,3.1.0,59.952294773985926,
,,,C,D,g,b,L,D,g,L,i,,,,,5,19,119,10,2,0,2,0,,,,,1,7,43,14,,,,,,up,0.5671350827906281,2063.697161308941,None,001,84,2019_Oct_31_1202,ACPT_experiment_5_30_19,3.1.0,59.952294773985926,
,,,C,D,g,b,L,U,d,L,u,,,,,5,19,119,10,2,0,2,0,,,,,1,8,44,20,,,,,,up,0.550419232036802,2065.5486753499426,None,001,84,2019_Oct_31_1202,ACPT_experiment_5_30_19,3.1.0,59.952294773985926,
,,,C,D,g,b,R,U,y,L,u,,,,,5,19,119,10,2,0,2,0,,,,,1,9,45,30,,,,,,down,0.5335684469901025,2067.416968331803,None,001,84,2019_Oct_31_1202,ACPT_experiment_5_30_19,3.1.0,59.952294773985926,
,,,C,D,g,b,L,G,y,L,y,,,,,5,19,119,10,2,0,2,0,,,,,1,10,46,34,,,,,,down,0.7839560434222221,2069.23492720793,None,001,84,2019_Oct_31_1202,ACPT_experiment_5_30_19,3.1.0,59.952294773985926,
,,,C,D,g,b,R,D,d,L,c,,,,,5,19,119,10,2,0,2,0,,,,,1,11,47,0,,,,,,up,0.7005573057103902,2071.31992945986,None,001,84,2019_Oct_31_1202,ACPT_experiment_5_30_19,3.1.0,59.952294773985926,
,,,C,D,g,b,L,D,d,L,c ,,,,,5,19,119,10,2,0,2,0,,,,,1,12,48,12,,,,,,up,1.0508376188226976,2073.304845196879,None,001,84,2019_Oct_31_1202,ACPT_experiment_5_30_19,3.1.0,59.952294773985926,
,,,C,D,g,b,L,D,g,R,i,,,,,5,19,119,10,2,0,2,0,,,,,1,13,49,15,,,,,,up,0.7672890950198052,2075.623352564231,None,001,84,2019_Oct_31_1202,ACPT_experiment_5_30_19,3.1.0,59.952294773985926,
,,,C,D,g,b,L,G,g,L,c ,,,,,5,19,119,10,2,0,2,0,,,,,1,14,50,18,,,,,,up,0.5337592265423154,2077.6749982793553,None,001,84,2019_Oct_31_1202,ACPT_experiment_5_30_19,3.1.0,59.952294773985926,
,,,C,D,g,b,R,U,g,R,u,,,,,5,19,119,10,2,0,2,0,,,,,1,15,51,11,,,,,,up,1.017443348740926,2079.4931738955493,None,001,84,2019_Oct_31_1202,ACPT_experiment_5_30_19,3.1.0,59.952294773985926,
,,,C,D,g,b,L,G,d,R,i,,,,,5,19,119,10,2,0,2,0,,,,,1,16,52,17,,,,,,up,1.0841968724125763,2081.794954544952,None,001,84,2019_Oct_31_1202,ACPT_experiment_5_30_19,3.1.0,59.952294773985926,
,,,C,D,g,b,L,U,g,R,u,,,,,5,19,119,10,2,0,2,0,,,,,1,17,53,23,,,,,,up,0.7839629863447044,2084.1635095468228,None,001,84,2019_Oct_31_1202,ACPT_experiment_5_30_19,3.1.0,59.952294773985926,
,,,C,D,g,b,R,G,y,L,y,,,,,5,19,119,10,2,0,2,0,,,,,1,18,54,28,,,,,,down,0.567112140939571,2086.2318315682205,None,001,84,2019_Oct_31_1202,ACPT_experiment_5_30_19,3.1.0,59.952294773985926,
,,,C,D,g,b,L,D,y,L,y,,,,,5,19,119,10,2,0,2,0,,,,,1,19,55,32,,,,,,down,0.40032372150744777,2088.083301536739,None,001,84,2019_Oct_31_1202,ACPT_experiment_5_30_19,3.1.0,59.952294773985926,
,,,C,D,g,b,R,G,d,R,i,,,,,5,19,119,10,2,0,2,0,,,,,1,20,56,5,,,,,,up,0.5837923714716453,2089.7679870100837,None,001,84,2019_Oct_31_1202,ACPT_experiment_5_30_19,3.1.0,59.952294773985926,
,,,C,D,g,b,R,D,d,R,c ,,,,,5,19,119,10,2,0,2,0,,,,,1,21,57,1,,,,,,up,0.5170805053494405,2091.636151396844,None,001,84,2019_Oct_31_1202,ACPT_experiment_5_30_19,3.1.0,59.952294773985926,
,,,C,D,g,b,R,G,g,L,c ,,,,,5,19,119,10,2,0,2,0,,,,,1,22,58,6,,,,,,up,0.6168708893383155,2093.4545377157774,None,001,84,2019_Oct_31_1202,ACPT_experiment_5_30_19,3.1.0,59.952294773985926,
,,,C,D,g,b,L,D,y,R,y,,,,,5,19,119,10,2,0,2,0,,,,,1,23,59,33,,,,,,down,0.7339183705043979,2095.3557797148096,None,001,84,2019_Oct_31_1202,ACPT_experiment_5_30_19,3.1.0,59.952294773985926,
,,,C,D,g,b,R,G,y,R,y,,,,,5,19,119,10,2,0,2,0,,,,,1,24,60,29,,,,,,down,0.4670989795704372,2097.374069496873,None,001,84,2019_Oct_31_1202,ACPT_experiment_5_30_19,3.1.0,59.952294773985926,
,,,C,D,g,b,L,U,y,L,u,,,,,5,19,119,10,2,0,2,0,,,,,1,25,61,24,,,,,,down,0.7005868886044482,2099.1254248769255,None,001,84,2019_Oct_31_1202,ACPT_experiment_5_30_19,3.1.0,59.952294773985926,
,,,C,D,g,b,L,U,d,R,u,,,,,5,19,119,10,2,0,2,0,,,,,1,26,62,21,,,,,,up,0.7339419160707621,2101.093669741269,None,001,84,2019_Oct_31_1202,ACPT_experiment_5_30_19,3.1.0,59.952294773985926,
,,,C,D,g,b,R,D,g,R,i,,,,,5,19,119,10,2,0,2,0,,,,,1,27,63,3,,,,,,up,0.9340799293859163,2103.111962240131,None,001,84,2019_Oct_31_1202,ACPT_experiment_5_30_19,3.1.0,59.952294773985926,
,,,C,D,g,b,L,G,g,R,c ,,,,,5,19,119,10,2,0,2,0,,,,,1,28,64,19,,,,,,up,0.6338484582520323,2105.330399695231,None,001,84,2019_Oct_31_1202,ACPT_experiment_5_30_19,3.1.0,59.952294773985926,
,,,C,D,g,b,L,U,y,R,u,,,,,5,19,119,10,2,0,2,0,,,,,1,29,65,25,,,,,,down,0.7172348194435472,2107.2485993399896,None,001,84,2019_Oct_31_1202,ACPT_experiment_5_30_19,3.1.0,59.952294773985926,
,,,C,D,g,b,L,G,y,R,y,,,,,5,19,119,10,2,0,2,0,,,,,1,30,66,35,,,,,,down,0.5504367402754724,2109.2501983262046,None,001,84,2019_Oct_31_1202,ACPT_experiment_5_30_19,3.1.0,59.952294773985926,
,,,C,D,g,b,R,U,g,L,u,,,,,5,19,119,10,2,0,2,0,,,,,1,31,67,10,,,,,,up,0.6838767733133864,2111.0849962145876,None,001,84,2019_Oct_31_1202,ACPT_experiment_5_30_19,3.1.0,59.952294773985926,
,,,C,D,g,b,R,D,g,L,i,,,,,5,19,119,10,2,0,2,0,,,,,1,32,68,2,,,,,,up,0.7005672672967194,2113.0532311173447,None,001,84,2019_Oct_31_1202,ACPT_experiment_5_30_19,3.1.0,59.952294773985926,
,,,C,D,g,b,R,G,d,L,i,,,,,5,19,119,10,2,0,2,0,,,,,1,33,69,4,,,,,,up,0.5671453462564386,2115.038148665568,None,001,84,2019_Oct_31_1202,ACPT_experiment_5_30_19,3.1.0,59.952294773985926,
,,,C,D,g,b,R,D,y,R,y,,,,,5,19,119,10,2,0,2,0,,,,,1,34,70,27,,,,,,down,0.7005524758569663,2116.8896304068767,None,001,84,2019_Oct_31_1202,ACPT_experiment_5_30_19,3.1.0,59.952294773985926,
,,,C,D,g,b,R,U,y,R,u,,,,,5,19,119,10,2,0,2,0,,,,,1,35,71,31,,,,,,down,0.7170017785974778,2118.874815106843,None,001,84,2019_Oct_31_1202,ACPT_experiment_5_30_19,3.1.0,59.952294773985926,
,,,C,D,g,b,,,,,,,,,,5,19,119,10,3,0,3,0,0,0,0,0,,,,,,,,,,,,,,001,84,2019_Oct_31_1202,ACPT_experiment_5_30_19,3.1.0,59.952294773985926,
,,,C,D,g,b,L,D,g,R,i,,,,,5,19,119,10,3,0,3,0,,,,,0,0,0,15,,,,,,up,0.8170457303349394,2134.920954175468,None,001,84,2019_Oct_31_1202,ACPT_experiment_5_30_19,3.1.0,59.952294773985926,
,,,C,D,g,b,R,D,g,R,i,,,,,5,19,119,10,3,0,3,0,,,,,0,1,1,3,,,,,,up,0.5171266909019323,2137.022336602735,None,001,84,2019_Oct_31_1202,ACPT_experiment_5_30_19,3.1.0,59.952294773985926,
,,,C,D,g,b,L,U,d,L,u,,,,,5,19,119,10,3,0,3,0,,,,,0,2,2,20,,,,,,down,1.0841950612229994,2138.8238027073676,None,001,84,2019_Oct_31_1202,ACPT_experiment_5_30_19,3.1.0,59.952294773985926,
,,,C,D,g,b,R,U,y,R,u,,,,,5,19,119,10,3,0,3,0,,,,,0,3,3,31,,,,,,down,0.8840567460429156,2141.1923338617926,None,001,84,2019_Oct_31_1202,ACPT_experiment_5_30_19,3.1.0,59.952294773985926,
,,,C,D,g,b,R,G,y,L,y,,,,,5,19,119,10,3,0,3,0,,,,,0,4,4,28,,,,,,down,0.5836495886760531,2143.3607843575155,None,001,84,2019_Oct_31_1202,ACPT_experiment_5_30_19,3.1.0,59.952294773985926,
,,,C,D,g,b,R,G,y,R,y,,,,,5,19,119,10,3,0,3,0,,,,,0,5,5,29,,,,,,down,0.5505894846573938,2145.2120768286113,None,001,84,2019_Oct_31_1202,ACPT_experiment_5_30_19,3.1.0,59.952294773985926,
,,,C,D,g,b,R,G,g,L,c ,,,,,5,19,119,10,3,0,3,0,,,,,0,6,6,6,,,,,,up,0.8006380851438735,2147.0470256501867,None,001,84,2019_Oct_31_1202,ACPT_experiment_5_30_19,3.1.0,59.952294773985926,
,,,C,D,g,b,L,D,g,L,i,,,,,5,19,119,10,3,0,3,0,,,,,0,7,7,14,,,,,,up,0.6004786393314134,2149.1153431435814,None,001,84,2019_Oct_31_1202,ACPT_experiment_5_30_19,3.1.0,59.952294773985926,
,,,C,D,g,b,R,G,d,L,i,,,,,5,19,119,10,3,0,3,0,,,,,0,8,8,4,,,,,,up,0.7172553463606164,2151.000183836615,None,001,84,2019_Oct_31_1202,ACPT_experiment_5_30_19,3.1.0,59.952294773985926,
,,,C,D,g,b,L,G,g,L,c ,,,,,5,19,119,10,3,0,3,0,,,,,0,9,9,18,,,,,,up,1.0675163400301244,2153.001780407896,None,001,84,2019_Oct_31_1202,ACPT_experiment_5_30_19,3.1.0,59.952294773985926,
,,,C,D,g,b,L,G,y,R,y,,,,,5,19,119,10,3,0,3,0,,,,,0,10,10,35,,,,,,down,0.8006438206066377,2155.3536503493815,None,001,84,2019_Oct_31_1202,ACPT_experiment_5_30_19,3.1.0,59.952294773985926,
,,,C,D,g,b,L,D,y,L,y,,,,,5,19,119,10,3,0,3,0,,,,,0,11,11,32,,,,,,down,0.6004167567298282,2157.4553986387036,None,001,84,2019_Oct_31_1202,ACPT_experiment_5_30_19,3.1.0,59.952294773985926,
,,,C,D,g,b,L,G,y,L,y,,,,,5,19,119,10,3,0,3,0,,,,,0,12,12,34,,,,,,down,0.7506170148844831,2159.35682719115,None,001,84,2019_Oct_31_1202,ACPT_experiment_5_30_19,3.1.0,59.952294773985926,
,,,C,D,g,b,R,G,g,R,c ,,,,,5,19,119,10,3,0,3,0,,,,,0,13,13,7,,,,,,up,0.5337664713297272,2161.3917926757567,None,001,84,2019_Oct_31_1202,ACPT_experiment_5_30_19,3.1.0,59.952294773985926,
,,,C,D,g,b,L,U,d,R,u,,,,,5,19,119,10,3,0,3,0,,,,,0,14,14,21,,,,,,up,0.41701572482998017,2163.209907314944,None,001,84,2019_Oct_31_1202,ACPT_experiment_5_30_19,3.1.0,59.952294773985926,
,,,C,D,g,b,R,U,g,R,u,,,,,5,19,119,10,3,0,3,0,,,,,0,15,15,11,,,,,,up,0.41699942403647583,2164.9112793580134,None,001,84,2019_Oct_31_1202,ACPT_experiment_5_30_19,3.1.0,59.952294773985926,
,,,C,D,g,b,R,G,d,R,i,,,,,5,19,119,10,3,0,3,0,,,,,0,16,16,5,,,,,,down,0.9173867186036659,2166.629330122276,None,001,84,2019_Oct_31_1202,ACPT_experiment_5_30_19,3.1.0,59.952294773985926,
,,,C,D,g,b,R,U,d,R,u,,,,,5,19,119,10,3,0,3,0,,,,,0,17,17,9,,,,,,down,0.6338463451829739,2168.831078592717,None,001,84,2019_Oct_31_1202,ACPT_experiment_5_30_19,3.1.0,59.952294773985926,
,,,C,D,g,b,R,U,d,L,u,,,,,5,19,119,10,3,0,3,0,,,,,0,18,18,8,,,,,,down,0.8174620040808804,2170.7491254930937,None,001,84,2019_Oct_31_1202,ACPT_experiment_5_30_19,3.1.0,59.952294773985926,
,,,C,D,g,b,L,U,g,R,u,,,,,5,19,119,10,3,0,3,0,,,,,0,19,19,23,,,,,,up,0.7172825143352384,2172.8509323444887,None,001,84,2019_Oct_31_1202,ACPT_experiment_5_30_19,3.1.0,59.952294773985926,
,,,C,D,g,b,R,D,y,R,y,,,,,5,19,119,10,3,0,3,0,,,,,0,20,20,27,,,,,,down,0.8173322015354643,2174.8692100518965,None,001,84,2019_Oct_31_1202,ACPT_experiment_5_30_19,3.1.0,59.952294773985926,
,,,C,D,g,b,L,G,g,R,c ,,,,,5,19,119,10,3,0,3,0,,,,,0,21,21,19,,,,,,up,0.6505132935999427,2176.9875875563303,None,001,84,2019_Oct_31_1202,ACPT_experiment_5_30_19,3.1.0,59.952294773985926,
,,,C,D,g,b,R,D,d,L,c,,,,,5,19,119,10,3,0,3,0,,,,,0,22,22,0,,,,,,down,1.2676951052853838,2178.9224417729856,None,001,84,2019_Oct_31_1202,ACPT_experiment_5_30_19,3.1.0,59.952294773985926,
,,,C,D,g,b,L,U,y,L,u,,,,,5,19,119,10,3,0,3,0,,,,,0,23,23,24,,,,,,down,0.9007418064429658,2181.474477499476,None,001,84,2019_Oct_31_1202,ACPT_experiment_5_30_19,3.1.0,59.952294773985926,
,,,C,D,g,b,R,D,d,R,c ,,,,,5,19,119,10,3,0,3,0,,,,,0,24,24,1,,,,,,up,1.301065226085484,2183.659553587917,None,001,84,2019_Oct_31_1202,ACPT_experiment_5_30_19,3.1.0,59.952294773985926,
,,,C,D,g,b,R,D,y,L,y,,,,,5,19,119,10,3,0,3,0,,,,,0,25,25,26,,,,,,down,0.7673177723190747,2186.228275884132,None,001,84,2019_Oct_31_1202,ACPT_experiment_5_30_19,3.1.0,59.952294773985926,
,,,C,D,g,b,R,D,g,L,i,,,,,5,19,119,10,3,0,3,0,,,,,0,26,26,2,,,,,,up,1.1509171908110147,2188.279932164587,None,001,84,2019_Oct_31_1202,ACPT_experiment_5_30_19,3.1.0,59.952294773985926,
,,,C,D,g,b,L,U,g,L,u,,,,,5,19,119,10,3,0,3,0,,,,,0,27,27,22,,,,,,up,0.6505368391663069,2190.6985082367173,None,001,84,2019_Oct_31_1202,ACPT_experiment_5_30_19,3.1.0,59.952294773985926,
,,,C,D,g,b,R,U,g,L,u,,,,,5,19,119,10,3,0,3,0,,,,,0,28,28,10,,,,,,up,0.6338294406741625,2192.616736256925,None,001,84,2019_Oct_31_1202,ACPT_experiment_5_30_19,3.1.0,59.952294773985926,
,,,C,D,g,b,L,D,d,L,c ,,,,,5,19,119,10,3,0,3,0,,,,,0,29,29,12,,,,,,up,0.6671932222525356,2194.5349220158387,None,001,84,2019_Oct_31_1202,ACPT_experiment_5_30_19,3.1.0,59.952294773985926,
,,,C,D,g,b,L,D,y,R,y,,,,,5,19,119,10,3,0,3,0,,,,,0,30,30,33,,,,,,down,0.783946685565752,2196.486489970179,None,001,84,2019_Oct_31_1202,ACPT_experiment_5_30_19,3.1.0,59.952294773985926,
,,,C,D,g,b,R,U,y,L,u,,,,,5,19,119,10,3,0,3,0,,,,,0,31,31,30,,,,,,down,0.4803877413360169,2198.5748094317532,None,001,84,2019_Oct_31_1202,ACPT_experiment_5_30_19,3.1.0,59.952294773985926,
,,,C,D,g,b,L,D,d,R,c ,,,,,5,19,119,10,3,0,3,0,,,,,0,32,32,13,,,,,,up,0.5171176349103916,2200.3395706977026,None,001,84,2019_Oct_31_1202,ACPT_experiment_5_30_19,3.1.0,59.952294773985926,
,,,C,D,g,b,L,G,d,L,i,,,,,5,19,119,10,3,0,3,0,,,,,0,33,33,16,,,,,,up,0.71721308506676,2202.1410045026278,None,001,84,2019_Oct_31_1202,ACPT_experiment_5_30_19,3.1.0,59.952294773985926,
,,,C,D,g,b,L,G,d,R,i,,,,,5,19,119,10,3,0,3,0,,,,,0,34,34,17,,,,,,down,0.984119715372799,2204.1425956403255,None,001,84,2019_Oct_31_1202,ACPT_experiment_5_30_19,3.1.0,59.952294773985926,
,,,C,D,g,b,L,U,y,R,u,,,,,5,19,119,10,3,0,3,0,,,,,0,35,35,25,,,,,,down,0.783948496755329,2206.427749791401,None,001,84,2019_Oct_31_1202,ACPT_experiment_5_30_19,3.1.0,59.952294773985926,
,,,C,D,g,b,L,D,y,R,y,,,,,5,19,119,10,3,0,3,0,,,,,1,0,36,33,,,,,,down,0.6838716415804811,2208.5127447985287,None,001,84,2019_Oct_31_1202,ACPT_experiment_5_30_19,3.1.0,59.952294773985926,
,,,C,D,g,b,R,G,g,L,c ,,,,,5,19,119,10,3,0,3,0,,,,,1,1,37,6,,,,,,up,0.6838755658391165,2210.480984531154,None,001,84,2019_Oct_31_1202,ACPT_experiment_5_30_19,3.1.0,59.952294773985926,
,,,C,D,g,b,R,D,g,R,i,,,,,5,19,119,10,3,0,3,0,,,,,1,2,38,3,,,,,,up,0.7673023771349108,2212.449195586465,None,001,84,2019_Oct_31_1202,ACPT_experiment_5_30_19,3.1.0,59.952294773985926,
,,,C,D,g,b,L,G,d,R,i,,,,,5,19,119,10,3,0,3,0,,,,,1,3,39,17,,,,,,down,1.0675365650677122,2214.500831038138,None,001,84,2019_Oct_31_1202,ACPT_experiment_5_30_19,3.1.0,59.952294773985926,
,,,C,D,g,b,L,U,d,R,u,,,,,5,19,119,10,3,0,3,0,,,,,1,4,40,21,,,,,,down,0.7672782278241357,2216.8527290531783,None,001,84,2019_Oct_31_1202,ACPT_experiment_5_30_19,3.1.0,59.952294773985926,
,,,C,D,g,b,R,G,d,R,i,,,,,5,19,119,10,3,0,3,0,,,,,1,5,41,5,,,,,,up,0.5671208950661821,2218.9043696365843,None,001,84,2019_Oct_31_1202,ACPT_experiment_5_30_19,3.1.0,59.952294773985926,
,,,C,D,g,b,R,G,d,L,i,,,,,5,19,119,10,3,0,3,0,,,,,1,6,42,4,,,,,,up,0.6672294462186983,2220.7391442812514,None,001,84,2019_Oct_31_1202,ACPT_experiment_5_30_19,3.1.0,59.952294773985926,
,,,C,D,g,b,R,U,y,L,u,,,,,5,19,119,10,3,0,3,0,,,,,1,7,43,30,,,,,,down,0.8340142432716675,2222.6907052926836,None,001,84,2019_Oct_31_1202,ACPT_experiment_5_30_19,3.1.0,59.952294773985926,
,,,C,D,g,b,R,D,d,R,c ,,,,,5,19,119,10,3,0,3,0,,,,,1,8,44,1,,,,,,up,0.5170711474929703,2224.809084306442,None,001,84,2019_Oct_31_1202,ACPT_experiment_5_30_19,3.1.0,59.952294773985926,
,,,C,D,g,b,R,U,d,L,u,,,,,5,19,119,10,3,0,3,0,,,,,1,9,45,8,,,,,,down,0.8340190731250914,2226.6104954713956,None,001,84,2019_Oct_31_1202,ACPT_experiment_5_30_19,3.1.0,59.952294773985926,
,,,C,D,g,b,L,U,g,R,u,,,,,5,19,119,10,3,0,3,0,,,,,1,10,46,23,,,,,,up,0.8673354616912547,2228.7288986344647,None,001,84,2019_Oct_31_1202,ACPT_experiment_5_30_19,3.1.0,59.952294773985926,
,,,C,D,g,b,L,G,y,L,y,,,,,5,19,119,10,3,0,3,0,,,,,1,11,47,34,,,,,,down,0.7838310707447818,2230.89736754405,None,001,84,2019_Oct_31_1202,ACPT_experiment_5_30_19,3.1.0,59.952294773985926,
,,,C,D,g,b,L,D,g,R,i,,,,,5,19,119,10,3,0,3,0,,,,,1,12,48,15,,,,,,up,0.7005579094402492,2232.9822704819235,None,001,84,2019_Oct_31_1202,ACPT_experiment_5_30_19,3.1.0,59.952294773985926,
,,,C,D,g,b,R,G,y,L,y,,,,,5,19,119,10,3,0,3,0,,,,,1,13,49,28,,,,,,down,0.7838443528744392,2234.9839766307123,None,001,84,2019_Oct_31_1202,ACPT_experiment_5_30_19,3.1.0,59.952294773985926,
,,,C,D,g,b,L,U,y,R,u,,,,,5,19,119,10,3,0,3,0,,,,,1,14,50,25,,,,,,down,0.6838755658536684,2237.0688635696715,None,001,84,2019_Oct_31_1202,ACPT_experiment_5_30_19,3.1.0,59.952294773985926,
,,,C,D,g,b,R,G,y,R,y,,,,,5,19,119,10,3,0,3,0,,,,,1,15,51,29,,,,,,down,0.617179396780557,2239.037099981768,None,001,84,2019_Oct_31_1202,ACPT_experiment_5_30_19,3.1.0,59.952294773985926,
,,,C,D,g,b,L,D,d,R,c ,,,,,5,19,119,10,3,0,3,0,,,,,1,16,52,13,,,,,,up,0.5504364384105429,2240.938620603454,None,001,84,2019_Oct_31_1202,ACPT_experiment_5_30_19,3.1.0,59.952294773985926,
,,,C,D,g,b,R,D,g,L,i,,,,,5,19,119,10,3,0,3,0,,,,,1,17,53,2,,,,,,up,0.8006408019427909,2242.773420906771,None,001,84,2019_Oct_31_1202,ACPT_experiment_5_30_19,3.1.0,59.952294773985926,
,,,C,D,g,b,R,U,d,R,u,,,,,5,19,119,10,3,0,3,0,,,,,1,18,54,9,,,,,,up,0.516798562151962,2244.875371144706,None,001,84,2019_Oct_31_1202,ACPT_experiment_5_30_19,3.1.0,59.952294773985926,
,,,C,D,g,b,R,U,y,R,u,,,,,5,19,119,10,3,0,3,0,,,,,1,19,55,31,,,,,,down,0.6171772837114986,2246.659828890057,None,001,84,2019_Oct_31_1202,ACPT_experiment_5_30_19,3.1.0,59.952294773985926,
,,,C,D,g,b,R,D,d,L,c,,,,,5,19,119,10,3,0,3,0,,,,,1,20,56,0,,,,,,up,0.6338387985306326,2248.5613679256057,None,001,84,2019_Oct_31_1202,ACPT_experiment_5_30_19,3.1.0,59.952294773985926,
,,,C,D,g,b,L,D,y,L,y,,,,,5,19,119,10,3,0,3,0,,,,,1,21,57,32,,,,,,down,0.7839542322326452,2250.4795702871634,None,001,84,2019_Oct_31_1202,ACPT_experiment_5_30_19,3.1.0,59.952294773985926,
,,,C,D,g,b,L,U,y,L,u,,,,,5,19,119,10,3,0,3,0,,,,,1,22,58,24,,,,,,down,0.6004789411963429,2252.5478838562994,None,001,84,2019_Oct_31_1202,ACPT_experiment_5_30_19,3.1.0,59.952294773985926,
,,,C,D,g,b,L,D,g,L,i,,,,,5,19,119,10,3,0,3,0,,,,,1,23,59,14,,,,,,up,0.5671513835695805,2254.4327203232097,None,001,84,2019_Oct_31_1202,ACPT_experiment_5_30_19,3.1.0,59.952294773985926,
,,,C,D,g,b,L,D,d,L,c ,,,,,5,19,119,10,3,0,3,0,,,,,1,24,60,12,,,,,,up,0.6004988643690012,2256.2674979865405,None,001,84,2019_Oct_31_1202,ACPT_experiment_5_30_19,3.1.0,59.952294773985926,
,,,C,D,g,b,R,D,y,L,y,,,,,5,19,119,10,3,0,3,0,,,,,1,25,61,26,,,,,,down,0.8170478434039978,2258.169304173847,None,001,84,2019_Oct_31_1202,ACPT_experiment_5_30_19,3.1.0,59.952294773985926,
,,,C,D,g,b,L,G,y,R,y,,,,,5,19,119,10,3,0,3,0,,,,,1,26,62,35,,,,,,down,1.2009759943757672,2260.2540326329618,None,001,84,2019_Oct_31_1202,ACPT_experiment_5_30_19,3.1.0,59.952294773985926,
,,,C,D,g,b,L,G,g,L,c ,,,,,5,19,119,10,3,0,3,0,,,,,1,27,63,18,,,,,,up,0.5671148577530403,2262.739351059732,None,001,84,2019_Oct_31_1202,ACPT_experiment_5_30_19,3.1.0,59.952294773985926,
,,,C,D,g,b,R,D,y,R,y,,,,,5,19,119,10,3,0,3,0,,,,,1,28,64,27,,,,,,down,0.9140535100450506,2264.6108477494563,None,001,84,2019_Oct_31_1202,ACPT_experiment_5_30_19,3.1.0,59.952294773985926,
,,,C,D,g,b,L,U,d,L,u,,,,,5,19,119,10,3,0,3,0,,,,,1,29,65,20,,,,,,up,0.5337528873642441,2266.809264218813,None,001,84,2019_Oct_31_1202,ACPT_experiment_5_30_19,3.1.0,59.952294773985926,
,,,C,D,g,b,L,G,d,L,i,,,,,5,19,119,10,3,0,3,0,,,,,1,30,66,16,,,,,,up,0.6505353298416594,2268.627359538543,None,001,84,2019_Oct_31_1202,ACPT_experiment_5_30_19,3.1.0,59.952294773985926,
,,,C,D,g,b,R,U,g,R,u,,,,,5,19,119,10,3,0,3,0,,,,,1,31,67,11,,,,,,up,0.9674467296426883,2270.562250884759,None,001,84,2019_Oct_31_1202,ACPT_experiment_5_30_19,3.1.0,59.952294773985926,
,,,C,D,g,b,L,G,g,R,c ,,,,,5,19,119,10,3,0,3,0,,,,,1,32,68,19,,,,,,up,0.5837981069344096,2272.8140557438455,None,001,84,2019_Oct_31_1202,ACPT_experiment_5_30_19,3.1.0,59.952294773985926,
,,,C,D,g,b,R,G,g,R,c ,,,,,5,19,119,10,3,0,3,0,,,,,1,33,69,7,,,,,,up,0.46704886975931004,2274.6822128858184,None,001,84,2019_Oct_31_1202,ACPT_experiment_5_30_19,3.1.0,59.952294773985926,
,,,C,D,g,b,R,U,g,L,u,,,,,5,19,119,10,3,0,3,0,,,,,1,34,70,10,,,,,,up,0.5004217073292239,2276.4336334690015,None,001,84,2019_Oct_31_1202,ACPT_experiment_5_30_19,3.1.0,59.952294773985926,
,,,C,D,g,b,L,U,g,L,u,,,,,5,19,119,10,3,0,3,0,,,,,1,35,71,22,,,,,,up,0.41701753601955716,2278.2183438765205,None,001,84,2019_Oct_31_1202,ACPT_experiment_5_30_19,3.1.0,59.952294773985926,
,,,C,D,g,b,,,,,,,,,,5,19,119,10,4,0,4,0,0,0,0,0,,,,,,,,,,,,,,001,84,2019_Oct_31_1202,ACPT_experiment_5_30_19,3.1.0,59.952294773985926,
,,,C,D,g,b,L,U,y,R,u,,,,,5,19,119,10,4,0,4,0,,,,,0,0,0,25,,,,,,down,0.833989188351552,2282.8554044949124,None,001,84,2019_Oct_31_1202,ACPT_experiment_5_30_19,3.1.0,59.952294773985926,
,,,C,D,g,b,L,D,g,L,i,,,,,5,19,119,10,4,0,4,0,,,,,0,1,1,14,,,,,,up,0.6505178215884371,2284.9904444197455,None,001,84,2019_Oct_31_1202,ACPT_experiment_5_30_19,3.1.0,59.952294773985926,
,,,C,D,g,b,L,D,y,R,y,,,,,5,19,119,10,4,0,4,0,,,,,0,2,2,33,,,,,,down,0.7839472893101629,2286.925320974522,None,001,84,2019_Oct_31_1202,ACPT_experiment_5_30_19,3.1.0,59.952294773985926,
,,,C,D,g,b,L,U,y,L,u,,,,,5,19,119,10,4,0,4,0,,,,,0,3,3,24,,,,,,down,0.633882267284207,2288.993609488738,None,001,84,2019_Oct_31_1202,ACPT_experiment_5_30_19,3.1.0,59.952294773985926,
,,,C,D,g,b,L,G,d,L,i,,,,,5,19,119,10,4,0,4,0,,,,,0,4,4,16,,,,,,up,0.6171582661190769,2290.911828151089,None,001,84,2019_Oct_31_1202,ACPT_experiment_5_30_19,3.1.0,59.952294773985926,
,,,C,D,g,b,L,G,y,R,y,,,,,5,19,119,10,4,0,4,0,,,,,0,5,5,35,,,,,,down,0.7672909062239341,2292.7966516377346,None,001,84,2019_Oct_31_1202,ACPT_experiment_5_30_19,3.1.0,59.952294773985926,
,,,C,D,g,b,R,U,d,R,u,,,,,5,19,119,10,4,0,4,0,,,,,0,6,6,9,,,,,,up,0.7172414605010999,2294.848303993931,None,001,84,2019_Oct_31_1202,ACPT_experiment_5_30_19,3.1.0,59.952294773985926,
,,,C,D,g,b,R,D,y,L,y,,,,,5,19,119,10,4,0,4,0,,,,,0,7,7,26,,,,,,down,0.7505823002429679,2296.849913847327,None,001,84,2019_Oct_31_1202,ACPT_experiment_5_30_19,3.1.0,59.952294773985926,
,,,C,D,g,b,L,G,y,L,y,,,,,5,19,119,10,4,0,4,0,,,,,0,8,8,34,,,,,,down,0.6338599291775608,2298.868155934513,None,001,84,2019_Oct_31_1202,ACPT_experiment_5_30_19,3.1.0,59.952294773985926,
,,,C,D,g,b,R,U,y,L,u,,,,,5,19,119,10,4,0,4,0,,,,,0,9,9,30,,,,,,down,0.6338363835966447,2300.786387275235,None,001,84,2019_Oct_31_1202,ACPT_experiment_5_30_19,3.1.0,59.952294773985926,
,,,C,D,g,b,L,U,d,L,u,,,,,5,19,119,10,4,0,4,0,,,,,0,10,10,20,,,,,,up,0.6338294406741625,2302.70458269387,None,001,84,2019_Oct_31_1202,ACPT_experiment_5_30_19,3.1.0,59.952294773985926,
,,,C,D,g,b,R,D,g,L,i,,,,,5,19,119,10,4,0,4,0,,,,,0,11,11,2,,,,,,up,1.7680996062554186,2304.6227515482606,None,001,84,2019_Oct_31_1202,ACPT_experiment_5_30_19,3.1.0,59.952294773985926,
,,,C,D,g,b,R,D,y,R,y,,,,,5,19,119,10,4,0,4,0,,,,,0,12,12,27,,,,,,down,0.8006444243364967,2307.675201737293,None,001,84,2019_Oct_31_1202,ACPT_experiment_5_30_19,3.1.0,59.952294773985926,
,,,C,D,g,b,R,U,y,R,u,,,,,5,19,119,10,4,0,4,0,,,,,0,13,13,31,,,,,,down,0.8339852640929166,2309.7768881440134,None,001,84,2019_Oct_31_1202,ACPT_experiment_5_30_19,3.1.0,59.952294773985926,
,,,C,D,g,b,R,U,d,L,u,,,,,5,19,119,10,4,0,4,0,,,,,0,14,14,8,,,,,,up,0.6171323056187248,2311.911938634177,None,001,84,2019_Oct_31_1202,ACPT_experiment_5_30_19,3.1.0,59.952294773985926,
,,,C,D,g,b,L,D,y,L,y,,,,,5,19,119,10,4,0,4,0,,,,,0,15,15,32,,,,,,down,0.7505865263665328,2313.813441143895,None,001,84,2019_Oct_31_1202,ACPT_experiment_5_30_19,3.1.0,59.952294773985926,
,,,C,D,g,b,R,D,d,R,c ,,,,,5,19,119,10,4,0,4,0,,,,,0,16,16,1,,,,,,up,0.5837905602820683,2315.8483972706454,None,001,84,2019_Oct_31_1202,ACPT_experiment_5_30_19,3.1.0,59.952294773985926,
,,,C,D,g,b,R,U,g,L,u,,,,,5,19,119,10,4,0,4,0,,,,,0,17,17,10,,,,,,up,0.6338550993095851,2317.716554714483,None,001,84,2019_Oct_31_1202,ACPT_experiment_5_30_19,3.1.0,59.952294773985926,
,,,C,D,g,b,L,G,g,R,c ,,,,,5,19,119,10,4,0,4,0,,,,,0,18,18,19,,,,,,up,0.6338381948007736,2319.634750736848,None,001,84,2019_Oct_31_1202,ACPT_experiment_5_30_19,3.1.0,59.952294773985926,
,,,C,D,g,b,R,G,g,R,c ,,,,,5,19,119,10,4,0,4,0,,,,,0,19,19,7,,,,,,up,0.5504343253560364,2321.5529452498886,None,001,84,2019_Oct_31_1202,ACPT_experiment_5_30_19,3.1.0,59.952294773985926,
,,,C,D,g,b,R,G,g,L,c ,,,,,5,19,119,10,4,0,4,0,,,,,0,20,20,6,,,,,,up,0.600640137839946,2323.3709035222855,None,001,84,2019_Oct_31_1202,ACPT_experiment_5_30_19,3.1.0,59.952294773985926,
,,,C,D,g,b,L,D,d,L,c ,,,,,5,19,119,10,4,0,4,0,,,,,0,21,21,12,,,,,,down,0.9340669491357403,2325.272593491027,None,001,84,2019_Oct_31_1202,ACPT_experiment_5_30_19,3.1.0,59.952294773985926,
,,,C,D,g,b,L,U,g,L,u,,,,,5,19,119,10,4,0,4,0,,,,,0,22,22,22,,,,,,up,0.9007067899365211,2327.4910258143937,None,001,84,2019_Oct_31_1202,ACPT_experiment_5_30_19,3.1.0,59.952294773985926,
,,,C,D,g,b,L,U,d,R,u,,,,,5,19,119,10,4,0,4,0,,,,,0,23,23,21,,,,,,down,0.8506757580762496,2329.676096469251,None,001,84,2019_Oct_31_1202,ACPT_experiment_5_30_19,3.1.0,59.952294773985926,
,,,C,D,g,b,L,D,d,R,c ,,,,,5,19,119,10,4,0,4,0,,,,,0,24,24,13,,,,,,up,1.5012192383146612,2331.811110131719,None,001,84,2019_Oct_31_1202,ACPT_experiment_5_30_19,3.1.0,59.952294773985926,
,,,C,D,g,b,R,D,d,L,c,,,,,5,19,119,10,4,0,4,0,,,,,0,25,25,0,,,,,,up,0.6839021300984314,2334.596665161356,None,001,84,2019_Oct_31_1202,ACPT_experiment_5_30_19,3.1.0,59.952294773985926,
,,,C,D,g,b,L,D,g,R,i,,,,,5,19,119,10,4,0,4,0,,,,,0,26,26,15,,,,,,up,0.5504198357521091,2336.564945947801,None,001,84,2019_Oct_31_1202,ACPT_experiment_5_30_19,3.1.0,59.952294773985926,
,,,C,D,g,b,R,G,y,R,y,,,,,5,19,119,10,4,0,4,0,,,,,0,27,27,29,,,,,,down,0.7504060102801304,2338.416561114049,None,001,84,2019_Oct_31_1202,ACPT_experiment_5_30_19,3.1.0,59.952294773985926,
,,,C,D,g,b,R,U,g,R,u,,,,,5,19,119,10,4,0,4,0,,,,,0,28,28,11,,,,,,up,0.6171470970730297,2340.4680824602256,None,001,84,2019_Oct_31_1202,ACPT_experiment_5_30_19,3.1.0,59.952294773985926,
,,,C,D,g,b,L,U,g,R,u,,,,,5,19,119,10,4,0,4,0,,,,,0,29,29,23,,,,,,up,0.834027525386773,2342.352850403462,None,001,84,2019_Oct_31_1202,ACPT_experiment_5_30_19,3.1.0,59.952294773985926,
,,,C,D,g,b,R,G,y,L,y,,,,,5,19,119,10,4,0,4,0,,,,,0,30,30,28,,,,,,down,0.6671772233239608,2344.4712387750915,None,001,84,2019_Oct_31_1202,ACPT_experiment_5_30_19,3.1.0,59.952294773985926,
,,,C,D,g,b,L,G,d,R,i,,,,,5,19,119,10,4,0,4,0,,,,,0,31,31,17,,,,,,up,0.8506953793985303,2346.4227699017356,None,001,84,2019_Oct_31_1202,ACPT_experiment_5_30_19,3.1.0,59.952294773985926,
,,,C,D,g,b,L,G,g,L,c ,,,,,5,19,119,10,4,0,4,0,,,,,0,32,32,18,,,,,,up,0.750620637278189,2348.5411286904564,None,001,84,2019_Oct_31_1202,ACPT_experiment_5_30_19,3.1.0,59.952294773985926,
,,,C,D,g,b,R,G,d,R,i,,,,,5,19,119,10,4,0,4,0,,,,,0,33,33,5,,,,,,up,0.5837920696067158,2350.5761119851813,None,001,84,2019_Oct_31_1202,ACPT_experiment_5_30_19,3.1.0,59.952294773985926,
,,,C,D,g,b,R,D,g,R,i,,,,,5,19,119,10,4,0,4,0,,,,,0,34,34,3,,,,,,up,1.0008017571090022,2352.4442679196945,None,001,84,2019_Oct_31_1202,ACPT_experiment_5_30_19,3.1.0,59.952294773985926,
,,,C,D,g,b,R,G,d,L,i,,,,,5,19,119,10,4,0,4,0,,,,,0,35,35,4,,,,,,up,1.4344823172723409,2354.72942086331,None,001,84,2019_Oct_31_1202,ACPT_experiment_5_30_19,3.1.0,59.952294773985926,
,,,C,D,g,b,L,G,g,L,c ,,,,,5,19,119,10,4,0,4,0,,,,,1,0,36,18,,,,,,up,0.6004572068195557,2357.448301458251,None,001,84,2019_Oct_31_1202,ACPT_experiment_5_30_19,3.1.0,59.952294773985926,
,,,C,D,g,b,L,G,d,L,i,,,,,5,19,119,10,4,0,4,0,,,,,1,1,37,16,,,,,,up,0.48375475892680697,2359.3163897747,None,001,84,2019_Oct_31_1202,ACPT_experiment_5_30_19,3.1.0,59.952294773985926,
,,,C,D,g,b,R,D,y,L,y,,,,,5,19,119,10,4,0,4,0,,,,,1,2,38,26,,,,,,down,0.6505172178585781,2361.0844920977397,None,001,84,2019_Oct_31_1202,ACPT_experiment_5_30_19,3.1.0,59.952294773985926,
,,,C,D,g,b,L,D,y,R,y,,,,,5,19,119,10,4,0,4,0,,,,,1,3,39,33,,,,,,down,0.7005654560925905,2363.0193689543667,None,001,84,2019_Oct_31_1202,ACPT_experiment_5_30_19,3.1.0,59.952294773985926,
,,,C,D,g,b,R,D,d,L,c,,,,,5,19,119,10,4,0,4,0,,,,,1,4,40,0,,,,,,up,0.8507249623071402,2365.0042868044548,None,001,84,2019_Oct_31_1202,ACPT_experiment_5_30_19,3.1.0,59.952294773985926,
,,,C,D,g,b,L,G,y,L,y,,,,,5,19,119,10,4,0,4,0,,,,,1,5,41,34,,,,,,down,1.7345701000158442,2367.1561234802502,None,001,84,2019_Oct_31_1202,ACPT_experiment_5_30_19,3.1.0,59.952294773985926,
,,,C,D,g,b,L,G,y,R,y,,,,,5,19,119,10,4,0,4,0,,,,,1,6,42,35,,,,,,down,0.6171461914782412,2370.1917645418,None,001,84,2019_Oct_31_1202,ACPT_experiment_5_30_19,3.1.0,59.952294773985926,
,,,C,D,g,b,L,G,g,R,c ,,,,,5,19,119,10,4,0,4,0,,,,,1,7,43,19,,,,,,up,0.700549759058049,2372.093283352311,None,001,84,2019_Oct_31_1202,ACPT_experiment_5_30_19,3.1.0,59.952294773985926,
,,,C,D,g,b,L,D,g,R,i,,,,,5,19,119,10,4,0,4,0,,,,,1,8,44,15,,,,,,up,1.3177533051348291,2374.0781722232205,None,001,84,2019_Oct_31_1202,ACPT_experiment_5_30_19,3.1.0,59.952294773985926,
,,,C,D,g,b,L,U,d,R,u,,,,,5,19,119,10,4,0,4,0,,,,,1,9,45,21,,,,,,down,0.7005509665177669,2376.680276412997,None,001,84,2019_Oct_31_1202,ACPT_experiment_5_30_19,3.1.0,59.952294773985926,
,,,C,D,g,b,R,U,g,R,u,,,,,5,19,119,10,4,0,4,0,,,,,1,10,46,11,,,,,,up,0.5337640564102912,2378.66519577241,None,001,84,2019_Oct_31_1202,ACPT_experiment_5_30_19,3.1.0,59.952294773985926,
,,,C,D,g,b,R,D,g,L,i,,,,,5,19,119,10,4,0,4,0,,,,,1,11,47,2,,,,,,up,0.6672068062325707,2380.4833076948125,None,001,84,2019_Oct_31_1202,ACPT_experiment_5_30_19,3.1.0,59.952294773985926,
,,,C,D,g,b,R,D,d,R,c ,,,,,5,19,119,10,4,0,4,0,,,,,1,12,48,1,,,,,,down,0.9002902143402025,2382.4519280809327,None,001,84,2019_Oct_31_1202,ACPT_experiment_5_30_19,3.1.0,59.952294773985926,
,,,C,D,g,b,R,G,y,R,y,,,,,5,19,119,10,4,0,4,0,,,,,1,13,49,29,,,,,,down,0.8006607251300011,2384.6365972534986,None,001,84,2019_Oct_31_1202,ACPT_experiment_5_30_19,3.1.0,59.952294773985926,
,,,C,D,g,b,L,U,g,R,u,,,,,5,19,119,10,4,0,4,0,,,,,1,14,50,23,,,,,,up,0.8340537877520546,2386.7216158062074,None,001,84,2019_Oct_31_1202,ACPT_experiment_5_30_19,3.1.0,59.952294773985926,
,,,C,D,g,b,L,U,g,L,u,,,,,5,19,119,10,4,0,4,0,,,,,1,15,51,22,,,,,,up,0.7339407086110441,2388.839973387454,None,001,84,2019_Oct_31_1202,ACPT_experiment_5_30_19,3.1.0,59.952294773985926,
,,,C,D,g,b,R,G,d,R,i,,,,,5,19,119,10,4,0,4,0,,,,,1,16,52,5,,,,,,up,0.7005434198508738,2390.858263169517,None,001,84,2019_Oct_31_1202,ACPT_experiment_5_30_19,3.1.0,59.952294773985926,
,,,C,D,g,b,L,G,d,R,i,,,,,5,19,119,10,4,0,4,0,,,,,1,17,53,17,,,,,,down,0.8340338645793963,2392.843158077754,None,001,84,2019_Oct_31_1202,ACPT_experiment_5_30_19,3.1.0,59.952294773985926,
,,,C,D,g,b,R,G,g,R,c ,,,,,5,19,119,10,4,0,4,0,,,,,1,18,54,7,,,,,,up,0.5671036886924412,2394.9615470531135,None,001,84,2019_Oct_31_1202,ACPT_experiment_5_30_19,3.1.0,59.952294773985926,
,,,C,D,g,b,L,D,d,L,c ,,,,,5,19,119,10,4,0,4,0,,,,,1,19,55,12,,,,,,up,0.6005070147657534,2396.812976269677,None,001,84,2019_Oct_31_1202,ACPT_experiment_5_30_19,3.1.0,59.952294773985926,
,,,C,D,g,b,R,D,g,R,i,,,,,5,19,119,10,4,0,4,0,,,,,1,20,56,3,,,,,,up,0.5671085185458651,2398.6978435269557,None,001,84,2019_Oct_31_1202,ACPT_experiment_5_30_19,3.1.0,59.952294773985926,
,,,C,D,g,b,R,U,g,L,u,,,,,5,19,119,10,4,0,4,0,,,,,1,21,57,10,,,,,,up,0.5171109938528389,2400.549319230937,None,001,84,2019_Oct_31_1202,ACPT_experiment_5_30_19,3.1.0,59.952294773985926,
,,,C,D,g,b,R,G,d,L,i,,,,,5,19,119,10,4,0,4,0,,,,,1,22,58,4,,,,,,up,0.8139715231227456,2402.3707776440133,None,001,84,2019_Oct_31_1202,ACPT_experiment_5_30_19,3.1.0,59.952294773985926,
,,,C,D,g,b,R,G,y,L,y,,,,,5,19,119,10,4,0,4,0,,,,,1,23,59,28,,,,,,down,0.7839820039225742,2404.4690867696772,None,001,84,2019_Oct_31_1202,ACPT_experiment_5_30_19,3.1.0,59.952294773985926,
,,,C,D,g,b,L,D,y,L,y,,,,,5,19,119,10,4,0,4,0,,,,,1,24,60,32,,,,,,down,0.483740571202361,2406.5374051686667,None,001,84,2019_Oct_31_1202,ACPT_experiment_5_30_19,3.1.0,59.952294773985926,
,,,C,D,g,b,L,U,d,L,u,,,,,5,19,119,10,4,0,4,0,,,,,1,25,61,20,,,,,,up,0.5337534910795512,2408.3055117178446,None,001,84,2019_Oct_31_1202,ACPT_experiment_5_30_19,3.1.0,59.952294773985926,
,,,C,D,g,b,R,D,y,R,y,,,,,5,19,119,10,4,0,4,0,,,,,1,26,62,27,,,,,,down,0.5504783978394698,2410.1236031133303,None,001,84,2019_Oct_31_1202,ACPT_experiment_5_30_19,3.1.0,59.952294773985926,
,,,C,D,g,b,L,U,y,R,u,,,,,5,19,119,10,4,0,4,0,,,,,1,27,63,25,,,,,,down,0.5838204450556077,2411.9584272640786,None,001,84,2019_Oct_31_1202,ACPT_experiment_5_30_19,3.1.0,59.952294773985926,
,,,C,D,g,b,R,U,d,R,u,,,,,5,19,119,10,4,0,4,0,,,,,1,28,64,9,,,,,,up,0.5670882935082773,2413.826582896727,None,001,84,2019_Oct_31_1202,ACPT_experiment_5_30_19,3.1.0,59.952294773985926,
,,,C,D,g,b,R,U,d,L,u,,,,,5,19,119,10,4,0,4,0,,,,,1,29,65,8,,,,,,up,0.5835282383923186,2415.678330884184,None,001,84,2019_Oct_31_1202,ACPT_experiment_5_30_19,3.1.0,59.952294773985926,
,,,C,D,g,b,L,D,g,L,i,,,,,5,19,119,10,4,0,4,0,,,,,1,30,66,14,,,,,,up,0.5671199894713936,2417.5462112146924,None,001,84,2019_Oct_31_1202,ACPT_experiment_5_30_19,3.1.0,59.952294773985926,
,,,C,D,g,b,R,U,y,L,u,,,,,5,19,119,10,4,0,4,0,,,,,1,31,67,30,,,,,,down,0.7839572508819401,2419.3976869186736,None,001,84,2019_Oct_31_1202,ACPT_experiment_5_30_19,3.1.0,59.952294773985926,
,,,C,D,g,b,R,G,g,L,c ,,,,,5,19,119,10,4,0,4,0,,,,,1,32,68,6,,,,,,up,0.6171329093631357,2421.4660291651235,None,001,84,2019_Oct_31_1202,ACPT_experiment_5_30_19,3.1.0,59.952294773985926,
,,,C,D,g,b,L,D,d,R,c ,,,,,5,19,119,10,4,0,4,0,,,,,1,33,69,13,,,,,,up,0.5171076733240625,2423.367528052433,None,001,84,2019_Oct_31_1202,ACPT_experiment_5_30_19,3.1.0,59.952294773985926,
,,,C,D,g,b,R,U,y,R,u,,,,,5,19,119,10,4,0,4,0,,,,,1,34,70,31,,,,,,down,0.5337746217264794,2425.1689443491196,None,001,84,2019_Oct_31_1202,ACPT_experiment_5_30_19,3.1.0,59.952294773985926,
,,,C,D,g,b,L,U,y,L,u,,,,,5,19,119,10,4,0,4,0,,,,,1,35,71,24,,,,,,down,1.2677062743459828,2426.9870562715078,None,001,84,2019_Oct_31_1202,ACPT_experiment_5_30_19,3.1.0,59.952294773985926,
,,,C,D,g,b,,,,,,,,,,5,19,119,10,5,0,5,0,0,0,0,0,,,,,,,,,,,,,,001,84,2019_Oct_31_1202,ACPT_experiment_5_30_19,3.1.0,59.952294773985926,
,,,C,D,g,b,L,G,y,R,y,,,,,5,19,119,10,5,0,5,0,,,,,0,0,0,35,,,,,,down,0.7672595121111954,2441.281835733971,None,001,84,2019_Oct_31_1202,ACPT_experiment_5_30_19,3.1.0,59.952294773985926,
,,,C,D,g,b,R,U,y,L,u,,,,,5,19,119,10,5,0,5,0,,,,,0,1,1,30,,,,,,down,0.7839412519679172,2443.350149906837,None,001,84,2019_Oct_31_1202,ACPT_experiment_5_30_19,3.1.0,59.952294773985926,
,,,C,D,g,b,R,G,g,R,c ,,,,,5,19,119,10,5,0,5,0,,,,,0,2,2,7,,,,,,up,0.7505838095821673,2445.435142197166,None,001,84,2019_Oct_31_1202,ACPT_experiment_5_30_19,3.1.0,59.952294773985926,
,,,C,D,g,b,L,D,d,L,c ,,,,,5,19,119,10,5,0,5,0,,,,,0,3,3,12,,,,,,up,0.48373121334589086,2447.4700744764705,None,001,84,2019_Oct_31_1202,ACPT_experiment_5_30_19,3.1.0,59.952294773985926,
,,,C,D,g,b,R,G,y,L,y,,,,,5,19,119,10,5,0,5,0,,,,,0,4,4,28,,,,,,down,0.7506182223442011,2449.238148424076,None,001,84,2019_Oct_31_1202,ACPT_experiment_5_30_19,3.1.0,59.952294773985926,
,,,C,D,g,b,R,U,g,L,u,,,,,5,19,119,10,5,0,5,0,,,,,0,5,5,10,,,,,,up,0.667194731591735,2451.273129907582,None,001,84,2019_Oct_31_1202,ACPT_experiment_5_30_19,3.1.0,59.952294773985926,
,,,C,D,g,b,L,G,d,R,i,,,,,5,19,119,10,5,0,5,0,,,,,0,6,6,17,,,,,,up,1.0174726297846064,2453.2246909190144,None,001,84,2019_Oct_31_1202,ACPT_experiment_5_30_19,3.1.0,59.952294773985926,
,,,C,D,g,b,R,U,d,R,u,,,,,5,19,119,10,5,0,5,0,,,,,0,7,7,9,,,,,,down,0.834043524300796,2455.5265026606503,None,001,84,2019_Oct_31_1202,ACPT_experiment_5_30_19,3.1.0,59.952294773985926,
,,,C,D,g,b,L,U,d,R,u,,,,,5,19,119,10,5,0,5,0,,,,,0,8,8,21,,,,,,up,0.7839747591351625,2457.6448647699,None,001,84,2019_Oct_31_1202,ACPT_experiment_5_30_19,3.1.0,59.952294773985926,
,,,C,D,g,b,L,U,g,L,u,,,,,5,19,119,10,5,0,5,0,,,,,0,9,9,22,,,,,,up,0.733904182779952,2459.696529804467,None,001,84,2019_Oct_31_1202,ACPT_experiment_5_30_19,3.1.0,59.952294773985926,
,,,C,D,g,b,R,G,y,R,y,,,,,5,19,119,10,5,0,5,0,,,,,0,10,10,29,,,,,,down,0.8173056372907013,2461.7147960409493,None,001,84,2019_Oct_31_1202,ACPT_experiment_5_30_19,3.1.0,59.952294773985926,
,,,C,D,g,b,L,G,d,L,i,,,,,5,19,119,10,5,0,5,0,,,,,0,11,11,16,,,,,,up,0.5170735624269582,2463.8164733916783,None,001,84,2019_Oct_31_1202,ACPT_experiment_5_30_19,3.1.0,59.952294773985926,
,,,C,D,g,b,L,D,g,R,i,,,,,5,19,119,10,5,0,5,0,,,,,0,12,12,15,,,,,,up,1.5512384973844746,2465.6179093096725,None,001,84,2019_Oct_31_1202,ACPT_experiment_5_30_19,3.1.0,59.952294773985926,
,,,C,D,g,b,L,G,y,L,y,,,,,5,19,119,10,5,0,5,0,,,,,0,13,13,34,,,,,,down,0.7670811090792995,2468.470345854337,None,001,84,2019_Oct_31_1202,ACPT_experiment_5_30_19,3.1.0,59.952294773985926,
,,,C,D,g,b,L,D,y,R,y,,,,,5,19,119,10,5,0,5,0,,,,,0,14,14,33,,,,,,down,0.6004735075985081,2470.5385063772264,None,001,84,2019_Oct_31_1202,ACPT_experiment_5_30_19,3.1.0,59.952294773985926,
,,,C,D,g,b,R,U,d,L,u,,,,,5,19,119,10,5,0,5,0,,,,,0,15,15,8,,,,,,up,0.6505232551717199,2472.42333469374,None,001,84,2019_Oct_31_1202,ACPT_experiment_5_30_19,3.1.0,59.952294773985926,
,,,C,D,g,b,R,G,g,L,c ,,,,,5,19,119,10,5,0,5,0,,,,,0,16,16,6,,,,,,up,0.66719775024103,2474.3582190970337,None,001,84,2019_Oct_31_1202,ACPT_experiment_5_30_19,3.1.0,59.952294773985926,
,,,C,D,g,b,R,G,d,R,i,,,,,5,19,119,10,5,0,5,0,,,,,0,17,17,5,,,,,,up,0.6172156207467197,2476.2930739174044,None,001,84,2019_Oct_31_1202,ACPT_experiment_5_30_19,3.1.0,59.952294773985926,
,,,C,D,g,b,L,U,y,R,u,,,,,5,19,119,10,5,0,5,0,,,,,0,18,18,25,,,,,,down,0.6338318555935984,2478.1946147641574,None,001,84,2019_Oct_31_1202,ACPT_experiment_5_30_19,3.1.0,59.952294773985926,
,,,C,D,g,b,L,G,g,L,c ,,,,,5,19,119,10,5,0,5,0,,,,,0,19,19,18,,,,,,up,0.5835831780714216,2480.129733717622,None,001,84,2019_Oct_31_1202,ACPT_experiment_5_30_19,3.1.0,59.952294773985926,
,,,C,D,g,b,R,G,d,L,i,,,,,5,19,119,10,5,0,5,0,,,,,0,20,20,4,,,,,,down,0.78394789302547,2481.9976526870305,None,001,84,2019_Oct_31_1202,ACPT_experiment_5_30_19,3.1.0,59.952294773985926,
,,,C,D,g,b,L,D,d,R,c ,,,,,5,19,119,10,5,0,5,0,,,,,0,21,21,13,,,,,,up,0.5170693362888414,2484.065967765491,None,001,84,2019_Oct_31_1202,ACPT_experiment_5_30_19,3.1.0,59.952294773985926,
,,,C,D,g,b,L,D,y,L,y,,,,,5,19,119,10,5,0,5,0,,,,,0,22,22,32,,,,,,down,0.8006302366411546,2485.8674042872153,None,001,84,2019_Oct_31_1202,ACPT_experiment_5_30_19,3.1.0,59.952294773985926,
,,,C,D,g,b,R,U,g,R,u,,,,,5,19,119,10,5,0,5,0,,,,,0,23,23,11,,,,,,up,0.5001518387871329,2487.9693291683798,None,001,84,2019_Oct_31_1202,ACPT_experiment_5_30_19,3.1.0,59.952294773985926,
,,,C,D,g,b,R,D,d,R,c ,,,,,5,19,119,10,5,0,5,0,,,,,0,24,24,1,,,,,,up,0.4503831288020592,2489.7538155910297,None,001,84,2019_Oct_31_1202,ACPT_experiment_5_30_19,3.1.0,59.952294773985926,
,,,C,D,g,b,R,D,g,R,i,,,,,5,19,119,10,5,0,5,0,,,,,0,25,25,3,,,,,,up,0.43371195426152553,2491.471847639579,None,001,84,2019_Oct_31_1202,ACPT_experiment_5_30_19,3.1.0,59.952294773985926,
,,,C,D,g,b,R,D,y,R,y,,,,,5,19,119,10,5,0,5,0,,,,,0,26,26,27,,,,,,down,0.7006469600310083,2493.189889045985,None,001,84,2019_Oct_31_1202,ACPT_experiment_5_30_19,3.1.0,59.952294773985926,
,,,C,D,g,b,L,G,g,R,c ,,,,,5,19,119,10,5,0,5,0,,,,,0,27,27,19,,,,,,up,0.46701687191671226,2495.208203581089,None,001,84,2019_Oct_31_1202,ACPT_experiment_5_30_19,3.1.0,59.952294773985926,
,,,C,D,g,b,L,D,g,L,i,,,,,5,19,119,10,5,0,5,0,,,,,0,28,28,14,,,,,,up,0.6338363835820928,2496.959585223507,None,001,84,2019_Oct_31_1202,ACPT_experiment_5_30_19,3.1.0,59.952294773985926,
,,,C,D,g,b,R,D,y,L,y,,,,,5,19,119,10,5,0,5,0,,,,,0,29,29,26,,,,,,down,0.8006447262159782,2498.8777791328175,None,001,84,2019_Oct_31_1202,ACPT_experiment_5_30_19,3.1.0,59.952294773985926,
,,,C,D,g,b,L,U,g,R,u,,,,,5,19,119,10,5,0,5,0,,,,,0,30,30,23,,,,,,up,0.533757717217668,2500.962784705276,None,001,84,2019_Oct_31_1202,ACPT_experiment_5_30_19,3.1.0,59.952294773985926,
,,,C,D,g,b,L,U,y,L,u,,,,,5,19,119,10,5,0,5,0,,,,,0,31,31,24,,,,,,down,0.7472780708485516,2502.8009004070336,None,001,84,2019_Oct_31_1202,ACPT_experiment_5_30_19,3.1.0,59.952294773985926,
,,,C,D,g,b,R,U,y,R,u,,,,,5,19,119,10,5,0,5,0,,,,,0,32,32,31,,,,,,down,0.8006272179627558,2504.832541135329,None,001,84,2019_Oct_31_1202,ACPT_experiment_5_30_19,3.1.0,59.952294773985926,
,,,C,D,g,b,L,U,d,L,u,,,,,5,19,119,10,5,0,5,0,,,,,0,33,33,20,,,,,,up,0.6505157085193787,2506.917531010724,None,001,84,2019_Oct_31_1202,ACPT_experiment_5_30_19,3.1.0,59.952294773985926,
,,,C,D,g,b,R,D,d,L,c,,,,,5,19,119,10,5,0,5,0,,,,,0,34,34,0,,,,,,up,0.5671465537161566,2508.835708317376,None,001,84,2019_Oct_31_1202,ACPT_experiment_5_30_19,3.1.0,59.952294773985926,
,,,C,D,g,b,R,D,g,L,i,,,,,5,19,119,10,5,0,5,0,,,,,0,35,35,2,,,,,,up,0.5504536447988357,2510.670534883073,None,001,84,2019_Oct_31_1202,ACPT_experiment_5_30_19,3.1.0,59.952294773985926,
,,,C,D,g,b,L,G,g,R,c ,,,,,5,19,119,10,5,0,5,0,,,,,1,0,36,19,,,,,,up,0.7339413123409031,2512.5053001698834,None,001,84,2019_Oct_31_1202,ACPT_experiment_5_30_19,3.1.0,59.952294773985926,
,,,C,D,g,b,L,U,y,L,u,,,,,5,19,119,10,5,0,5,0,,,,,1,1,37,24,,,,,,down,0.6838568501261761,2514.5236219497892,None,001,84,2019_Oct_31_1202,ACPT_experiment_5_30_19,3.1.0,59.952294773985926,
,,,C,D,g,b,R,U,y,R,u,,,,,5,19,119,10,5,0,5,0,,,,,1,2,38,31,,,,,,down,0.900748145635589,2516.508502670302,None,001,84,2019_Oct_31_1202,ACPT_experiment_5_30_19,3.1.0,59.952294773985926,
,,,C,D,g,b,R,D,y,R,y,,,,,5,19,119,10,5,0,5,0,,,,,1,3,39,27,,,,,,down,0.9007167515374022,2518.710277101258,None,001,84,2019_Oct_31_1202,ACPT_experiment_5_30_19,3.1.0,59.952294773985926,
,,,C,D,g,b,L,D,d,L,c ,,,,,5,19,119,10,5,0,5,0,,,,,1,4,40,12,,,,,,up,0.7838654835213674,2520.8953528878337,None,001,84,2019_Oct_31_1202,ACPT_experiment_5_30_19,3.1.0,59.952294773985926,
,,,C,D,g,b,R,D,d,L,c,,,,,5,19,119,10,5,0,5,0,,,,,1,5,41,0,,,,,,up,0.8673532718094066,2522.963671890553,None,001,84,2019_Oct_31_1202,ACPT_experiment_5_30_19,3.1.0,59.952294773985926,
,,,C,D,g,b,L,D,y,R,y,,,,,5,19,119,10,5,0,5,0,,,,,1,6,42,33,,,,,,down,0.7339379918121267,2525.1153660854325,None,001,84,2019_Oct_31_1202,ACPT_experiment_5_30_19,3.1.0,59.952294773985926,
,,,C,D,g,b,R,G,d,L,i,,,,,5,19,119,10,5,0,5,0,,,,,1,7,43,4,,,,,,up,0.8173201268800767,2527.133665527217,None,001,84,2019_Oct_31_1202,ACPT_experiment_5_30_19,3.1.0,59.952294773985926,
,,,C,D,g,b,R,U,y,L,u,,,,,5,19,119,10,5,0,5,0,,,,,1,8,44,30,,,,,,down,0.5671290454629343,2529.23534589661,None,001,84,2019_Oct_31_1202,ACPT_experiment_5_30_19,3.1.0,59.952294773985926,
,,,C,D,g,b,R,U,g,L,u,,,,,5,19,119,10,5,0,5,0,,,,,1,9,45,10,,,,,,up,0.5671254230692284,2531.0868231099157,None,001,84,2019_Oct_31_1202,ACPT_experiment_5_30_19,3.1.0,59.952294773985926,
,,,C,D,g,b,R,G,y,R,y,,,,,5,19,119,10,5,0,5,0,,,,,1,10,46,29,,,,,,down,0.7672767184994882,2532.938300021371,None,001,84,2019_Oct_31_1202,ACPT_experiment_5_30_19,3.1.0,59.952294773985926,
,,,C,D,g,b,L,D,g,L,i,,,,,5,19,119,10,5,0,5,0,,,,,1,11,47,14,,,,,,up,0.5137629938399186,2535.009946195336,None,001,84,2019_Oct_31_1202,ACPT_experiment_5_30_19,3.1.0,59.952294773985926,
,,,C,D,g,b,R,D,g,L,i,,,,,5,19,119,10,5,0,5,0,,,,,1,12,48,2,,,,,,up,0.7172293858457124,2536.808055545829,None,001,84,2019_Oct_31_1202,ACPT_experiment_5_30_19,3.1.0,59.952294773985926,
,,,C,D,g,b,L,D,y,L,y,,,,,5,19,119,10,5,0,5,0,,,,,1,13,49,32,,,,,,down,0.5838135021331254,2538.809626760325,None,001,84,2019_Oct_31_1202,ACPT_experiment_5_30_19,3.1.0,59.952294773985926,
,,,C,D,g,b,L,U,d,L,u,,,,,5,19,119,10,5,0,5,0,,,,,1,14,50,20,,,,,,down,0.8506552311591804,2540.6778315971897,None,001,84,2019_Oct_31_1202,ACPT_experiment_5_30_19,3.1.0,59.952294773985926,
,,,C,D,g,b,R,U,g,R,u,,,,,5,19,119,10,5,0,5,0,,,,,1,15,51,11,,,,,,up,0.66720952304604,2542.8128467689967,None,001,84,2019_Oct_31_1202,ACPT_experiment_5_30_19,3.1.0,59.952294773985926,
,,,C,D,g,b,L,G,d,L,i,,,,,5,19,119,10,5,0,5,0,,,,,1,16,52,16,,,,,,up,0.5337556041486096,2544.764403252426,None,001,84,2019_Oct_31_1202,ACPT_experiment_5_30_19,3.1.0,59.952294773985926,
,,,C,D,g,b,L,U,d,R,u,,,,,5,19,119,10,5,0,5,0,,,,,1,17,53,21,,,,,,up,0.43370591693383176,2546.582496157236,None,001,84,2019_Oct_31_1202,ACPT_experiment_5_30_19,3.1.0,59.952294773985926,
,,,C,D,g,b,R,G,g,R,c ,,,,,5,19,119,10,5,0,5,0,,,,,1,18,54,7,,,,,,up,0.5637907051714137,2548.320568209121,None,001,84,2019_Oct_31_1202,ACPT_experiment_5_30_19,3.1.0,59.952294773985926,
,,,C,D,g,b,R,G,d,R,i,,,,,5,19,119,10,5,0,5,0,,,,,1,19,55,5,,,,,,down,0.8340003574121511,2550.168715534397,None,001,84,2019_Oct_31_1202,ACPT_experiment_5_30_19,3.1.0,59.952294773985926,
,,,C,D,g,b,L,U,g,R,u,,,,,5,19,119,10,5,0,5,0,,,,,1,20,56,23,,,,,,up,0.7005585131701082,2552.287069191385,None,001,84,2019_Oct_31_1202,ACPT_experiment_5_30_19,3.1.0,59.952294773985926,
,,,C,D,g,b,L,G,y,R,y,,,,,5,19,119,10,5,0,5,0,,,,,1,21,57,35,,,,,,down,0.7339422179502435,2554.271970740694,None,001,84,2019_Oct_31_1202,ACPT_experiment_5_30_19,3.1.0,59.952294773985926,
,,,C,D,g,b,R,G,y,L,y,,,,,5,19,119,10,5,0,5,0,,,,,1,22,58,28,,,,,,down,0.950765895380755,2556.290261730217,None,001,84,2019_Oct_31_1202,ACPT_experiment_5_30_19,3.1.0,59.952294773985926,
,,,C,D,g,b,R,D,y,L,y,,,,,5,19,119,10,5,0,5,0,,,,,1,23,59,26,,,,,,down,0.767242003872525,2558.525407791283,None,001,84,2019_Oct_31_1202,ACPT_experiment_5_30_19,3.1.0,59.952294773985926,
,,,C,D,g,b,L,D,d,R,c ,,,,,5,19,119,10,5,0,5,0,,,,,1,24,60,13,,,,,,up,0.7172426679608179,2560.5770221123094,None,001,84,2019_Oct_31_1202,ACPT_experiment_5_30_19,3.1.0,59.952294773985926,
