facing_vig,person_vig,text_vig,facing_train,person_train,food_train,correct_key_train,facing_exp,person_exp,food_exp,showL_R,consistent,vig_random.thisRepN,vig_random.thisTrialN,vig_random.thisN,vig_random.thisIndex,trainTrials.thisRepN,trainTrials.thisTrialN,trainTrials.thisN,trainTrials.thisIndex,expBlock.thisRepN,expBlock.thisTrialN,expBlock.thisN,expBlock.thisIndex,breakLoop.thisRepN,breakLoop.thisTrialN,breakLoop.thisN,breakLoop.thisIndex,expTrials.thisRepN,expTrials.thisTrialN,expTrials.thisN,expTrials.thisIndex,train_resp.keys,train_resp.corr,train_resp.rt,train_resp.started,train_resp.stopped,exp_resp.keys,exp_resp.rt,exp_resp.started,exp_resp.stopped,session,participant,date,expName,psychopyVersion,frameRate,
C,G,"cannot eat dairy products because she is lactose intolerant. She enjoys eating wheat products. She thinks eating insects, like crickets, is disgusting.",,,,,,,,,,0,0,0,0,,,,,,,,,,,,,,,,,,,,,,,,,,001,85,2019_Oct_31_1304,ACPT_experiment_5_30_19,3.1.0,59.94969090933626,
C,U,"did not report her food preferences, so her food preferences are unknown.",,,,,,,,,,0,1,1,2,,,,,,,,,,,,,,,,,,,,,,,,,,001,85,2019_Oct_31_1304,ACPT_experiment_5_30_19,3.1.0,59.94969090933626,
C,D,"is allergic to gluten, meaning she can’t eat wheat products. She enjoys eating dairy products. She thinks eating insects, like crickets, is disgusting.",,,,,,,,,,0,2,2,1,,,,,,,,,,,,,,,,,,,,,,,,,,001,85,2019_Oct_31_1304,ACPT_experiment_5_30_19,3.1.0,59.94969090933626,
,,,C,D,d,v,,,,,,,,,,0,0,0,9,,,,,,,,,,,,,v,1,3.9531753928167745,1199.7190463195875,None,,,,,001,85,2019_Oct_31_1304,ACPT_experiment_5_30_19,3.1.0,59.94969090933626,
,,,C,D,y,b,,,,,,,,,,0,1,1,11,,,,,,,,,,,,,n,0,1.6847198861069046,1206.8413861221197,None,,,,,001,85,2019_Oct_31_1304,ACPT_experiment_5_30_19,3.1.0,59.94969090933626,
,,,C,D,g,b,,,,,,,,,,0,2,2,10,,,,,,,,,,,,,n,0,3.8366401788953226,1211.4784464386466,None,,,,,001,85,2019_Oct_31_1304,ACPT_experiment_5_30_19,3.1.0,59.94969090933626,
,,,C,U,g,n,,,,,,,,,,0,3,3,16,,,,,,,,,,,,,v,0,6.922215373211657,1217.3164429031895,None,,,,,001,85,2019_Oct_31_1304,ACPT_experiment_5_30_19,3.1.0,59.94969090933626,
,,,C,G,g,v,,,,,,,,,,0,4,4,4,,,,,,,,,,,,,b,0,2.602106302845641,1226.123475423854,None,,,,,001,85,2019_Oct_31_1304,ACPT_experiment_5_30_19,3.1.0,59.94969090933626,
,,,C,U,g,n,,,,,,,,,,0,5,5,7,,,,,,,,,,,,,n,1,1.8848850673966808,1230.5937141156464,None,,,,,001,85,2019_Oct_31_1304,ACPT_experiment_5_30_19,3.1.0,59.94969090933626,
,,,C,G,d,b,,,,,,,,,,0,6,6,12,,,,,,,,,,,,,b,1,4.253417127416469,1234.4467969562247,None,,,,,001,85,2019_Oct_31_1304,ACPT_experiment_5_30_19,3.1.0,59.94969090933626,
,,,C,G,y,b,,,,,,,,,,0,7,7,14,,,,,,,,,,,,,b,1,2.435291922898614,1240.5349908413773,None,,,,,001,85,2019_Oct_31_1304,ACPT_experiment_5_30_19,3.1.0,59.94969090933626,
,,,C,G,g,v,,,,,,,,,,0,8,8,19,,,,,,,,,,,,,v,1,2.118431236653123,1246.2395222179766,None,,,,,001,85,2019_Oct_31_1304,ACPT_experiment_5_30_19,3.1.0,59.94969090933626,
,,,C,U,y,n,,,,,,,,,,0,9,9,17,,,,,,,,,,,,,b,0,2.0683334923232906,1251.6438652903307,None,,,,,001,85,2019_Oct_31_1304,ACPT_experiment_5_30_19,3.1.0,59.94969090933626,
,,,C,U,y,n,,,,,,,,,,0,10,10,8,,,,,,,,,,,,,n,1,1.6848614614427788,1256.9813147729874,None,,,,,001,85,2019_Oct_31_1304,ACPT_experiment_5_30_19,3.1.0,59.94969090933626,
,,,C,U,d,n,,,,,,,,,,0,11,11,15,,,,,,,,,,,,,n,1,2.2351548151928,1261.9354002929322,None,,,,,001,85,2019_Oct_31_1304,ACPT_experiment_5_30_19,3.1.0,59.94969090933626,
,,,C,D,d,v,,,,,,,,,,0,12,12,0,,,,,,,,,,,,,b,0,3.135850436083274,1267.4565016584675,None,,,,,001,85,2019_Oct_31_1304,ACPT_experiment_5_30_19,3.1.0,59.94969090933626,
,,,C,G,g,v,,,,,,,,,,0,13,13,13,,,,,,,,,,,,,b,0,2.218476093999925,1273.8782938150107,None,,,,,001,85,2019_Oct_31_1304,ACPT_experiment_5_30_19,3.1.0,59.94969090933626,
,,,C,D,y,b,,,,,,,,,,0,14,14,2,,,,,,,,,,,,,b,1,1.8014757643541088,1279.3826947249472,None,,,,,001,85,2019_Oct_31_1304,ACPT_experiment_5_30_19,3.1.0,59.94969090933626,
,,,C,G,d,b,,,,,,,,,,0,15,15,3,,,,,,,,,,,,,v,0,2.6020163466746453,1284.4700681372924,None,,,,,001,85,2019_Oct_31_1304,ACPT_experiment_5_30_19,3.1.0,59.94969090933626,
,,,C,D,d,v,,,,,,,,,,0,16,16,18,,,,,,,,,,,,,v,1,1.0174892324284883,1290.3581312539172,None,,,,,001,85,2019_Oct_31_1304,ACPT_experiment_5_30_19,3.1.0,59.94969090933626,
,,,C,U,d,n,,,,,,,,,,0,17,17,6,,,,,,,,,,,,,n,1,1.951329781775712,1294.6785156264232,None,,,,,001,85,2019_Oct_31_1304,ACPT_experiment_5_30_19,3.1.0,59.94969090933626,
,,,C,G,y,b,,,,,,,,,,0,18,18,5,,,,,,,,,,,,,b,1,2.318531214783434,1299.9157623756182,None,,,,,001,85,2019_Oct_31_1304,ACPT_experiment_5_30_19,3.1.0,59.94969090933626,
,,,C,D,g,b,,,,,,,,,,0,19,19,1,,,,,,,,,,,,,b,1,2.668805792447529,1305.5202413482184,None,,,,,001,85,2019_Oct_31_1304,ACPT_experiment_5_30_19,3.1.0,59.94969090933626,
,,,C,U,d,n,,,,,,,,,,1,0,20,6,,,,,,,,,,,,,n,1,1.0842116638668813,1311.474992785399,None,,,,,001,85,2019_Oct_31_1304,ACPT_experiment_5_30_19,3.1.0,59.94969090933626,
,,,C,G,d,b,,,,,,,,,,1,1,21,3,,,,,,,,,,,,,b,1,2.8687008033157326,1315.8621017024125,None,,,,,001,85,2019_Oct_31_1304,ACPT_experiment_5_30_19,3.1.0,59.94969090933626,
,,,C,G,y,b,,,,,,,,,,1,2,22,5,,,,,,,,,,,,,b,1,1.801472141960403,1322.0000473930268,None,,,,,001,85,2019_Oct_31_1304,ACPT_experiment_5_30_19,3.1.0,59.94969090933626,
,,,C,U,g,n,,,,,,,,,,1,3,23,16,,,,,,,,,,,,,n,1,1.9515528610354522,1327.0875032148906,None,,,,,001,85,2019_Oct_31_1304,ACPT_experiment_5_30_19,3.1.0,59.94969090933626,
,,,C,U,g,n,,,,,,,,,,1,4,24,7,,,,,,,,,,,,,n,1,1.718046840003808,1332.3083097173221,None,,,,,001,85,2019_Oct_31_1304,ACPT_experiment_5_30_19,3.1.0,59.94969090933626,
,,,C,G,g,v,,,,,,,,,,1,5,25,4,,,,,,,,,,,,,v,1,3.5528589161112905,1337.3122979759355,None,,,,,001,85,2019_Oct_31_1304,ACPT_experiment_5_30_19,3.1.0,59.94969090933626,
,,,C,D,d,v,,,,,,,,,,1,6,26,18,,,,,,,,,,,,,v,1,2.48534861340886,1344.151094990113,None,,,,,001,85,2019_Oct_31_1304,ACPT_experiment_5_30_19,3.1.0,59.94969090933626,
,,,C,D,g,b,,,,,,,,,,1,7,27,1,,,,,,,,,,,,,b,1,1.5679709507967345,1349.9056915094698,None,,,,,001,85,2019_Oct_31_1304,ACPT_experiment_5_30_19,3.1.0,59.94969090933626,
,,,C,D,d,v,,,,,,,,,,1,8,28,9,,,,,,,,,,,,,v,1,3.0858408367203083,1354.7428644825268,None,,,,,001,85,2019_Oct_31_1304,ACPT_experiment_5_30_19,3.1.0,59.94969090933626,
,,,C,U,d,n,,,,,,,,,,1,9,29,15,,,,,,,,,,,,,n,1,1.1509618670243071,1361.114641002394,None,,,,,001,85,2019_Oct_31_1304,ACPT_experiment_5_30_19,3.1.0,59.94969090933626,
,,,C,D,y,b,,,,,,,,,,1,10,30,11,,,,,,,,,,,,,b,1,1.6677643534494564,1365.568478086323,None,,,,,001,85,2019_Oct_31_1304,ACPT_experiment_5_30_19,3.1.0,59.94969090933626,
,,,C,D,y,b,,,,,,,,,,1,11,31,2,,,,,,,,,,,,,b,1,1.2510390240786364,1370.5054483862914,None,,,,,001,85,2019_Oct_31_1304,ACPT_experiment_5_30_19,3.1.0,59.94969090933626,
,,,C,G,d,b,,,,,,,,,,1,12,32,12,,,,,,,,,,,,,b,1,2.7855725378904026,1375.042431243899,None,,,,,001,85,2019_Oct_31_1304,ACPT_experiment_5_30_19,3.1.0,59.94969090933626,
,,,C,G,y,b,,,,,,,,,,1,13,33,14,,,,,,,,,,,,,b,1,1.7847804405028,1381.1139482190483,None,,,,,001,85,2019_Oct_31_1304,ACPT_experiment_5_30_19,3.1.0,59.94969090933626,
,,,C,U,y,n,,,,,,,,,,1,14,34,8,,,,,,,,,,,,,n,1,0.5171001266571693,1386.1846749080287,None,,,,,001,85,2019_Oct_31_1304,ACPT_experiment_5_30_19,3.1.0,59.94969090933626,
,,,C,G,g,v,,,,,,,,,,1,15,35,13,,,,,,,,,,,,,v,1,3.7525924284709617,1390.0047749224032,None,,,,,001,85,2019_Oct_31_1304,ACPT_experiment_5_30_19,3.1.0,59.94969090933626,
,,,C,U,y,n,,,,,,,,,,1,16,36,17,,,,,,,,,,,,,n,1,0.9007792378688464,1397.0433151086618,None,,,,,001,85,2019_Oct_31_1304,ACPT_experiment_5_30_19,3.1.0,59.94969090933626,
,,,C,D,g,b,,,,,,,,,,1,17,37,10,,,,,,,,,,,,,b,1,1.650881570574711,1401.2471063088888,None,,,,,001,85,2019_Oct_31_1304,ACPT_experiment_5_30_19,3.1.0,59.94969090933626,
,,,C,G,g,v,,,,,,,,,,1,18,38,19,,,,,,,,,,,,,v,1,1.3511702152172802,1406.1839416745934,None,,,,,001,85,2019_Oct_31_1304,ACPT_experiment_5_30_19,3.1.0,59.94969090933626,
,,,C,D,d,v,,,,,,,,,,1,19,39,0,,,,,,,,,,,,,v,1,0.8170834636403015,1410.8379312614125,None,,,,,001,85,2019_Oct_31_1304,ACPT_experiment_5_30_19,3.1.0,59.94969090933626,
,,,C,D,y,b,,,,,,,,,,2,0,40,11,,,,,,,,,,,,,b,1,1.2510184971615672,1414.9409597660415,None,,,,,001,85,2019_Oct_31_1304,ACPT_experiment_5_30_19,3.1.0,59.94969090933626,
,,,C,G,g,v,,,,,,,,,,2,1,41,19,,,,,,,,,,,,,v,1,3.4356924995809095,1419.494968491199,None,,,,,001,85,2019_Oct_31_1304,ACPT_experiment_5_30_19,3.1.0,59.94969090933626,
,,,C,G,y,b,,,,,,,,,,2,2,42,14,,,,,,,,,,,,,b,1,0.7172831180650974,1426.1999300273746,None,,,,,001,85,2019_Oct_31_1304,ACPT_experiment_5_30_19,3.1.0,59.94969090933626,
,,,C,U,y,n,,,,,,,,,,2,3,43,17,,,,,,,,,,,,,n,1,0.26663012070639525,1430.220085947396,None,,,,,001,85,2019_Oct_31_1304,ACPT_experiment_5_30_19,3.1.0,59.94969090933626,
,,,C,D,d,v,,,,,,,,,,2,4,44,9,,,,,,,,,,,,,v,1,1.3511122568597784,1433.772639374729,None,,,,,001,85,2019_Oct_31_1304,ACPT_experiment_5_30_19,3.1.0,59.94969090933626,
,,,C,U,d,n,,,,,,,,,,2,5,45,15,,,,,,,,,,,,,n,1,0.5835913284536218,1438.4266186980967,None,,,,,001,85,2019_Oct_31_1304,ACPT_experiment_5_30_19,3.1.0,59.94969090933626,
,,,C,G,d,b,,,,,,,,,,2,6,46,3,,,,,,,,,,,,,b,1,2.1183759950945387,1442.2961333331768,None,,,,,001,85,2019_Oct_31_1304,ACPT_experiment_5_30_19,3.1.0,59.94969090933626,
,,,C,D,g,b,,,,,,,,,,2,7,47,1,,,,,,,,,,,,,b,1,1.6680070540169254,1447.700452558085,None,,,,,001,85,2019_Oct_31_1304,ACPT_experiment_5_30_19,3.1.0,59.94969090933626,
,,,C,U,g,n,,,,,,,,,,2,8,48,7,,,,,,,,,,,,,n,1,0.667223107026075,1452.6544073698897,None,,,,,001,85,2019_Oct_31_1304,ACPT_experiment_5_30_19,3.1.0,59.94969090933626,
,,,C,U,g,n,,,,,,,,,,2,9,49,16,,,,,,,,,,,,,n,1,1.08396202037693,1456.6078396509984,None,,,,,001,85,2019_Oct_31_1304,ACPT_experiment_5_30_19,3.1.0,59.94969090933626,
,,,C,G,y,b,,,,,,,,,,2,10,50,5,,,,,,,,,,,,,b,1,1.0675576957146404,1460.9777204499987,None,,,,,001,85,2019_Oct_31_1304,ACPT_experiment_5_30_19,3.1.0,59.94969090933626,
,,,C,U,d,n,,,,,,,,,,2,11,51,6,,,,,,,,,,,,,n,1,1.7511422623792896,1465.3481479290203,None,,,,,001,85,2019_Oct_31_1304,ACPT_experiment_5_30_19,3.1.0,59.94969090933626,
,,,C,U,y,n,,,,,,,,,,2,12,52,8,,,,,,,,,,,,,n,1,0.8673710819275584,1470.368556813075,None,,,,,001,85,2019_Oct_31_1304,ACPT_experiment_5_30_19,3.1.0,59.94969090933626,
,,,C,G,g,v,,,,,,,,,,2,13,53,13,,,,,,,,,,,,,v,1,3.152079074512585,1474.5389899671718,None,,,,,001,85,2019_Oct_31_1304,ACPT_experiment_5_30_19,3.1.0,59.94969090933626,
,,,C,G,d,b,,,,,,,,,,2,14,54,12,,,,,,,,,,,,,b,1,1.6513301440136274,1480.9603395876038,None,,,,,001,85,2019_Oct_31_1304,ACPT_experiment_5_30_19,3.1.0,59.94969090933626,
,,,C,G,g,v,,,,,,,,,,2,15,55,4,,,,,,,,,,,,,v,1,1.3677973172452766,1485.8809339383588,None,,,,,001,85,2019_Oct_31_1304,ACPT_experiment_5_30_19,3.1.0,59.94969090933626,
,,,C,D,y,b,,,,,,,,,,2,16,56,2,,,,,,,,,,,,,b,1,1.3842592983855866,1490.5514941782167,None,,,,,001,85,2019_Oct_31_1304,ACPT_experiment_5_30_19,3.1.0,59.94969090933626,
,,,C,D,g,b,,,,,,,,,,2,17,57,10,,,,,,,,,,,,,b,1,1.2343781129893614,1495.2217293079739,None,,,,,001,85,2019_Oct_31_1304,ACPT_experiment_5_30_19,3.1.0,59.94969090933626,
,,,C,D,d,v,,,,,,,,,,2,18,58,0,,,,,,,,,,,,,v,1,5.017361241072649,1499.7620121688378,None,,,,,001,85,2019_Oct_31_1304,ACPT_experiment_5_30_19,3.1.0,59.94969090933626,
,,,C,D,d,v,,,,,,,,,,2,19,59,18,,,,,,,,,,,,,v,1,0.6672297480836278,1508.0652900754794,None,,,,,001,85,2019_Oct_31_1304,ACPT_experiment_5_30_19,3.1.0,59.94969090933626,
,,,C,G,y,b,,,,,,,,,,3,0,60,5,,,,,,,,,,,,,b,1,1.130773949174909,1512.0718435945892,None,,,,,001,85,2019_Oct_31_1304,ACPT_experiment_5_30_19,3.1.0,59.94969090933626,
,,,C,D,d,v,,,,,,,,,,3,1,61,0,,,,,,,,,,,,,v,1,1.651329238418839,1516.4887101974164,None,,,,,001,85,2019_Oct_31_1304,ACPT_experiment_5_30_19,3.1.0,59.94969090933626,
,,,C,D,d,v,,,,,,,,,,3,2,62,9,,,,,,,,,,,,,v,1,0.6171661146508995,1521.4259802507004,None,,,,,001,85,2019_Oct_31_1304,ACPT_experiment_5_30_19,3.1.0,59.94969090933626,
,,,C,U,d,n,,,,,,,,,,3,3,63,6,,,,,,,,,,,,,n,1,0.650293534854427,1525.346014337454,None,,,,,001,85,2019_Oct_31_1304,ACPT_experiment_5_30_19,3.1.0,59.94969090933626,
,,,C,D,g,b,,,,,,,,,,3,4,64,1,,,,,,,,,,,,,b,1,0.9841302806889871,1529.282254120786,None,,,,,001,85,2019_Oct_31_1304,ACPT_experiment_5_30_19,3.1.0,59.94969090933626,
,,,C,G,y,b,,,,,,,,,,3,5,65,14,,,,,,,,,,,,,b,1,0.8170891991030658,1533.5692514679831,None,,,,,001,85,2019_Oct_31_1304,ACPT_experiment_5_30_19,3.1.0,59.94969090933626,
,,,C,D,d,v,,,,,,,,,,3,6,66,18,,,,,,,,,,,,,v,1,0.9674500501714647,1537.6722805763566,None,,,,,001,85,2019_Oct_31_1304,ACPT_experiment_5_30_19,3.1.0,59.94969090933626,
,,,C,U,g,n,,,,,,,,,,3,7,67,16,,,,,,,,,,,,,n,1,0.6837822891247924,1541.9425004920486,None,,,,,001,85,2019_Oct_31_1304,ACPT_experiment_5_30_19,3.1.0,59.94969090933626,
,,,C,G,d,b,,,,,,,,,,3,8,68,12,,,,,,,,,,,,,b,1,2.969076204361045,1545.912168354509,None,,,,,001,85,2019_Oct_31_1304,ACPT_experiment_5_30_19,3.1.0,59.94969090933626,
,,,C,U,y,n,,,,,,,,,,3,9,69,8,,,,,,,,,,,,,n,1,1.1509343971847557,1552.167188694264,None,,,,,001,85,2019_Oct_31_1304,ACPT_experiment_5_30_19,3.1.0,59.94969090933626,
,,,C,G,d,b,,,,,,,,,,3,10,70,3,,,,,,,,,,,,,b,1,2.9853335200896254,1556.6211133194447,None,,,,,001,85,2019_Oct_31_1304,ACPT_experiment_5_30_19,3.1.0,59.94969090933626,
,,,C,G,g,v,,,,,,,,,,3,11,71,19,,,,,,,,,,,,,v,1,1.9015508083393797,1562.875711951856,None,,,,,001,85,2019_Oct_31_1304,ACPT_experiment_5_30_19,3.1.0,59.94969090933626,
,,,C,D,y,b,,,,,,,,,,3,12,72,11,,,,,,,,,,,,,b,1,1.3677755828684894,1568.0632111217274,None,,,,,001,85,2019_Oct_31_1304,ACPT_experiment_5_30_19,3.1.0,59.94969090933626,
,,,C,U,d,n,,,,,,,,,,3,13,73,15,,,,,,,,,,,,,n,1,2.451986944884993,1572.7169124261563,None,,,,,001,85,2019_Oct_31_1304,ACPT_experiment_5_30_19,3.1.0,59.94969090933626,
,,,C,D,g,b,,,,,,,,,,3,14,74,10,,,,,,,,,,,,,b,1,2.0516695625701686,1578.4548435064353,None,,,,,001,85,2019_Oct_31_1304,ACPT_experiment_5_30_19,3.1.0,59.94969090933626,
,,,C,D,y,b,,,,,,,,,,3,15,75,2,,,,,,,,,,,,,b,1,1.3510905224829912,1583.7924354700372,None,,,,,001,85,2019_Oct_31_1304,ACPT_experiment_5_30_19,3.1.0,59.94969090933626,
,,,C,U,g,n,,,,,,,,,,3,16,76,7,,,,,,,,,,,,,n,1,1.2174071851477493,1588.463069969017,None,,,,,001,85,2019_Oct_31_1304,ACPT_experiment_5_30_19,3.1.0,59.94969090933626,
,,,C,U,y,n,,,,,,,,,,3,17,77,17,,,,,,,,,,,,,n,1,0.8673900995054282,1592.9664448351396,None,,,,,001,85,2019_Oct_31_1304,ACPT_experiment_5_30_19,3.1.0,59.94969090933626,
,,,C,G,g,v,,,,,,,,,,3,18,78,4,,,,,,,,,,,,,v,1,2.785428245755611,1597.1532485048665,None,,,,,001,85,2019_Oct_31_1304,ACPT_experiment_5_30_19,3.1.0,59.94969090933626,
,,,C,G,g,v,,,,,,,,,,3,19,79,13,,,,,,,,,,,,,v,1,0.8506990017922362,1603.2079379386996,None,,,,,001,85,2019_Oct_31_1304,ACPT_experiment_5_30_19,3.1.0,59.94969090933626,
,,,C,G,g,v,,,,,,,,,,4,0,80,13,,,,,,,,,,,,,v,1,0.6171718501282157,1607.327892091227,None,,,,,001,85,2019_Oct_31_1304,ACPT_experiment_5_30_19,3.1.0,59.94969090933626,
,,,C,U,d,n,,,,,,,,,,4,1,81,6,,,,,,,,,,,,,b,0,0.5671097260055831,1611.2310207551345,None,,,,,001,85,2019_Oct_31_1304,ACPT_experiment_5_30_19,3.1.0,59.94969090933626,
,,,C,D,g,b,,,,,,,,,,4,2,82,1,,,,,,,,,,,,,b,1,4.353465003427118,1615.100780807581,None,,,,,001,85,2019_Oct_31_1304,ACPT_experiment_5_30_19,3.1.0,59.94969090933626,
,,,C,G,g,v,,,,,,,,,,4,3,83,19,,,,,,,,,,,,,v,1,1.9015342056954978,1622.7401911538764,None,,,,,001,85,2019_Oct_31_1304,ACPT_experiment_5_30_19,3.1.0,59.94969090933626,
,,,C,U,d,n,,,,,,,,,,4,4,84,15,,,,,,,,,,,,,n,1,1.367771658609854,1627.927666476302,None,,,,,001,85,2019_Oct_31_1304,ACPT_experiment_5_30_19,3.1.0,59.94969090933626,
,,,C,G,g,v,,,,,,,,,,4,5,85,4,,,,,,,,,,,,,v,1,1.2006955605029361,1632.5983393123024,None,,,,,001,85,2019_Oct_31_1304,ACPT_experiment_5_30_19,3.1.0,59.94969090933626,
,,,C,D,y,b,,,,,,,,,,4,6,86,2,,,,,,,,,,,,,b,1,1.384490528042079,1637.0849765932944,None,,,,,001,85,2019_Oct_31_1304,ACPT_experiment_5_30_19,3.1.0,59.94969090933626,
,,,C,U,g,n,,,,,,,,,,4,7,87,16,,,,,,,,,,,,,n,1,3.218956967131817,1641.772352601678,None,,,,,001,85,2019_Oct_31_1304,ACPT_experiment_5_30_19,3.1.0,59.94969090933626,
,,,C,D,d,v,,,,,,,,,,4,8,88,18,,,,,,,,,,,,,v,1,1.4511854896409204,1648.2772446482122,None,,,,,001,85,2019_Oct_31_1304,ACPT_experiment_5_30_19,3.1.0,59.94969090933626,
,,,C,D,d,v,,,,,,,,,,4,9,89,9,,,,,,,,,,,,,v,1,0.7172508183575701,1652.9976786475454,None,,,,,001,85,2019_Oct_31_1304,ACPT_experiment_5_30_19,3.1.0,59.94969090933626,
,,,C,G,d,b,,,,,,,,,,4,10,90,3,,,,,,,,,,,,,v,0,0.6335807027644478,1657.0178249078454,None,,,,,001,85,2019_Oct_31_1304,ACPT_experiment_5_30_19,3.1.0,59.94969090933626,
,,,C,U,y,n,,,,,,,,,,4,11,91,8,,,,,,,,,,,,,n,1,1.251012157968944,1660.9373476329492,None,,,,,001,85,2019_Oct_31_1304,ACPT_experiment_5_30_19,3.1.0,59.94969090933626,
,,,C,D,y,b,,,,,,,,,,4,12,92,11,,,,,,,,,,,,,b,1,4.169801045907661,1665.507848525871,None,,,,,001,85,2019_Oct_31_1304,ACPT_experiment_5_30_19,3.1.0,59.94969090933626,
,,,C,G,y,b,,,,,,,,,,4,13,93,5,,,,,,,,,,,,,b,1,3.4694490093388595,1672.546615413783,None,,,,,001,85,2019_Oct_31_1304,ACPT_experiment_5_30_19,3.1.0,59.94969090933626,
,,,C,U,g,n,,,,,,,,,,4,14,94,7,,,,,,,,,,,,,n,1,0.9174295836273814,1679.302010067855,None,,,,,001,85,2019_Oct_31_1304,ACPT_experiment_5_30_19,3.1.0,59.94969090933626,
,,,C,D,g,b,,,,,,,,,,4,15,95,10,,,,,,,,,,,,,b,1,1.9179717356455512,1683.5222931339958,None,,,,,001,85,2019_Oct_31_1304,ACPT_experiment_5_30_19,3.1.0,59.94969090933626,
,,,C,G,d,b,,,,,,,,,,4,16,96,12,,,,,,,,,,,,,b,1,6.82220372116717,1688.7261942135956,None,,,,,001,85,2019_Oct_31_1304,ACPT_experiment_5_30_19,3.1.0,59.94969090933626,
,,,C,G,y,b,,,,,,,,,,4,17,97,14,,,,,,,,,,,,,b,1,1.3345286235853564,1698.8175948252901,None,,,,,001,85,2019_Oct_31_1304,ACPT_experiment_5_30_19,3.1.0,59.94969090933626,
,,,C,D,d,v,,,,,,,,,,4,18,98,0,,,,,,,,,,,,,v,1,0.9173948690004181,1703.4548625240132,None,,,,,001,85,2019_Oct_31_1304,ACPT_experiment_5_30_19,3.1.0,59.94969090933626,
,,,C,U,y,n,,,,,,,,,,4,19,99,17,,,,,,,,,,,,,n,1,0.8673547811340541,1707.6746641132922,None,,,,,001,85,2019_Oct_31_1304,ACPT_experiment_5_30_19,3.1.0,59.94969090933626,
,,,C,G,d,b,,,,,,,,,,5,0,100,12,,,,,,,,,,,,,b,1,2.201827559430967,1711.8279452197166,None,,,,,001,85,2019_Oct_31_1304,ACPT_experiment_5_30_19,3.1.0,59.94969090933626,
,,,C,U,y,n,,,,,,,,,,5,1,101,8,,,,,,,,,,,,,n,1,0.6004928270413075,1717.332388692812,None,,,,,001,85,2019_Oct_31_1304,ACPT_experiment_5_30_19,3.1.0,59.94969090933626,
,,,C,U,d,n,,,,,,,,,,5,2,102,6,,,,,,,,,,,,,n,1,0.9838709774776362,1721.2357606610167,None,,,,,001,85,2019_Oct_31_1304,ACPT_experiment_5_30_19,3.1.0,59.94969090933626,
,,,C,D,g,b,,,,,,,,,,5,3,103,1,,,,,,,,,,,,,b,1,1.1676107034581946,1725.5055603787187,None,,,,,001,85,2019_Oct_31_1304,ACPT_experiment_5_30_19,3.1.0,59.94969090933626,
,,,C,D,y,b,,,,,,,,,,5,4,104,2,,,,,,,,,,,,,b,1,0.7139997174526798,1729.9791126577475,None,,,,,001,85,2019_Oct_31_1304,ACPT_experiment_5_30_19,3.1.0,59.94969090933626,
,,,C,D,d,v,,,,,,,,,,5,5,105,18,,,,,,,,,,,,,v,1,0.9007683706877287,1733.962286323891,None,,,,,001,85,2019_Oct_31_1304,ACPT_experiment_5_30_19,3.1.0,59.94969090933626,
,,,C,U,y,n,,,,,,,,,,5,6,106,17,,,,,,,,,,,,,n,1,0.9005093693267554,1738.6329449721816,None,,,,,001,85,2019_Oct_31_1304,ACPT_experiment_5_30_19,3.1.0,59.94969090933626,
,,,C,G,g,v,,,,,,,,,,5,7,107,13,,,,,,,,,,,,,v,1,1.3510862963448744,1742.8193870059913,None,,,,,001,85,2019_Oct_31_1304,ACPT_experiment_5_30_19,3.1.0,59.94969090933626,
,,,C,D,d,v,,,,,,,,,,5,8,108,0,,,,,,,,,,,,,v,1,1.0003528818051564,1747.4735208849306,None,,,,,001,85,2019_Oct_31_1304,ACPT_experiment_5_30_19,3.1.0,59.94969090933626,
,,,C,U,g,n,,,,,,,,,,5,9,109,7,,,,,,,,,,,,,n,1,1.9015390355489217,1751.7598432589148,None,,,,,001,85,2019_Oct_31_1304,ACPT_experiment_5_30_19,3.1.0,59.94969090933626,
,,,C,G,d,b,,,,,,,,,,5,10,110,3,,,,,,,,,,,,,b,1,2.4186159185046563,1756.9472886965668,None,,,,,001,85,2019_Oct_31_1304,ACPT_experiment_5_30_19,3.1.0,59.94969090933626,
,,,C,D,y,b,,,,,,,,,,5,11,111,11,,,,,,,,,,,,,b,1,1.3844908299070084,1762.6518424112728,None,,,,,001,85,2019_Oct_31_1304,ACPT_experiment_5_30_19,3.1.0,59.94969090933626,
,,,C,U,d,n,,,,,,,,,,5,12,112,15,,,,,,,,,,,,,n,1,1.8679002536955522,1767.3392045337969,None,,,,,001,85,2019_Oct_31_1304,ACPT_experiment_5_30_19,3.1.0,59.94969090933626,
,,,C,U,g,n,,,,,,,,,,5,13,113,16,,,,,,,,,,,,,n,1,1.1009130250458838,1772.4763804651448,None,,,,,001,85,2019_Oct_31_1304,ACPT_experiment_5_30_19,3.1.0,59.94969090933626,
,,,C,G,g,v,,,,,,,,,,5,14,114,19,,,,,,,,,,,,,v,1,1.1173119161248906,1776.880170518285,None,,,,,001,85,2019_Oct_31_1304,ACPT_experiment_5_30_19,3.1.0,59.94969090933626,
,,,C,G,g,v,,,,,,,,,,5,15,115,4,,,,,,,,,,,,,v,1,3.7863721819303464,1781.2667261142196,None,,,,,001,85,2019_Oct_31_1304,ACPT_experiment_5_30_19,3.1.0,59.94969090933626,
,,,C,G,y,b,,,,,,,,,,5,16,116,14,,,,,,,,,,,,,b,1,0.8340263179125031,1788.3390382054204,None,,,,,001,85,2019_Oct_31_1304,ACPT_experiment_5_30_19,3.1.0,59.94969090933626,
,,,C,D,g,b,,,,,,,,,,5,17,117,10,,,,,,,,,,,,,b,1,3.2356888168142177,1792.4925897841313,None,,,,,001,85,2019_Oct_31_1304,ACPT_experiment_5_30_19,3.1.0,59.94969090933626,
,,,C,G,y,b,,,,,,,,,,5,18,118,5,,,,,,,,,,,,,b,1,0.6005381069990108,1799.014231792331,None,,,,,001,85,2019_Oct_31_1304,ACPT_experiment_5_30_19,3.1.0,59.94969090933626,
,,,C,D,d,v,,,,,,,,,,5,19,119,9,0,0,0,0,0,0,0,0,,,,,v,1,0.900667849185993,1802.9176116090675,None,,,,,001,85,2019_Oct_31_1304,ACPT_experiment_5_30_19,3.1.0,59.94969090933626,
,,,C,D,d,v,R,G,g,L,c ,,,,,5,19,119,9,0,0,0,0,,,,,0,0,0,6,,,,,,up,1.951560709567275,1862.8318242026871,None,001,85,2019_Oct_31_1304,ACPT_experiment_5_30_19,3.1.0,59.94969090933626,
,,,C,D,d,v,L,U,g,L,u,,,,,5,19,119,9,0,0,0,0,,,,,0,1,1,22,,,,,,up,1.3342829043394886,1866.0677406267496,None,001,85,2019_Oct_31_1304,ACPT_experiment_5_30_19,3.1.0,59.94969090933626,
,,,C,D,d,v,R,U,y,R,u,,,,,5,19,119,9,0,0,0,0,,,,,0,2,2,31,,,,,,down,0.867260900704423,1868.703236671703,None,001,85,2019_Oct_31_1304,ACPT_experiment_5_30_19,3.1.0,59.94969090933626,
,,,C,D,d,v,R,D,y,L,y,,,,,5,19,119,9,0,0,0,0,,,,,0,3,3,26,,,,,,down,0.5837941826757742,1870.8715772880678,None,001,85,2019_Oct_31_1304,ACPT_experiment_5_30_19,3.1.0,59.94969090933626,
,,,C,D,d,v,R,U,d,L,u,,,,,5,19,119,9,0,0,0,0,,,,,0,4,4,8,,,,,,up,0.9340793256560573,1872.7397296001727,None,001,85,2019_Oct_31_1304,ACPT_experiment_5_30_19,3.1.0,59.94969090933626,
,,,C,D,d,v,L,G,g,L,c ,,,,,5,19,119,9,0,0,0,0,,,,,0,5,5,18,,,,,,up,0.717227876506513,1874.9581791299279,None,001,85,2019_Oct_31_1304,ACPT_experiment_5_30_19,3.1.0,59.94969090933626,
,,,C,D,d,v,R,U,g,R,u,,,,,5,19,119,9,0,0,0,0,,,,,0,6,6,11,,,,,,up,0.6505383485055063,1876.9430903389584,None,001,85,2019_Oct_31_1304,ACPT_experiment_5_30_19,3.1.0,59.94969090933626,
,,,C,D,d,v,L,D,g,R,i,,,,,5,19,119,9,0,0,0,0,,,,,0,7,7,15,,,,,,up,0.7839829095319146,1878.877938820151,None,001,85,2019_Oct_31_1304,ACPT_experiment_5_30_19,3.1.0,59.94969090933626,
,,,C,D,d,v,R,D,g,R,i,,,,,5,19,119,9,0,0,0,0,,,,,0,8,8,3,,,,,,up,0.533757717217668,1880.9462868020491,None,001,85,2019_Oct_31_1304,ACPT_experiment_5_30_19,3.1.0,59.94969090933626,
,,,C,D,d,v,L,G,g,R,c ,,,,,5,19,119,9,0,0,0,0,,,,,0,9,9,19,,,,,,up,0.5504946986184223,1882.7644135158916,None,001,85,2019_Oct_31_1304,ACPT_experiment_5_30_19,3.1.0,59.94969090933626,
,,,C,D,d,v,L,U,d,L,u,,,,,5,19,119,9,0,0,0,0,,,,,0,10,10,20,,,,,,up,0.45008307363605127,1884.6161482212337,None,001,85,2019_Oct_31_1304,ACPT_experiment_5_30_19,3.1.0,59.94969090933626,
,,,C,D,d,v,R,G,g,R,c ,,,,,5,19,119,9,0,0,0,0,,,,,0,11,11,7,,,,,,up,0.4003376073669642,1886.350593952302,None,001,85,2019_Oct_31_1304,ACPT_experiment_5_30_19,3.1.0,59.94969090933626,
,,,C,D,d,v,L,U,d,R,u,,,,,5,19,119,9,0,0,0,0,,,,,0,12,12,21,,,,,,up,0.4670588313456392,1888.0352492390084,None,001,85,2019_Oct_31_1304,ACPT_experiment_5_30_19,3.1.0,59.94969090933626,
,,,C,D,d,v,R,D,y,R,y,,,,,5,19,119,9,0,0,0,0,,,,,0,13,13,27,,,,,,down,0.6338394022604916,1889.786674652045,None,001,85,2019_Oct_31_1304,ACPT_experiment_5_30_19,3.1.0,59.94969090933626,
,,,C,D,d,v,L,D,g,L,i,,,,,5,19,119,9,0,0,0,0,,,,,0,14,14,14,,,,,,up,0.3834774644637946,1891.721805076435,None,001,85,2019_Oct_31_1304,ACPT_experiment_5_30_19,3.1.0,59.94969090933626,
,,,C,D,d,v,L,D,d,L,c ,,,,,5,19,119,9,0,0,0,0,,,,,0,15,15,12,,,,,,up,0.5170663176249946,1893.3895582608238,None,001,85,2019_Oct_31_1304,ACPT_experiment_5_30_19,3.1.0,59.94969090933626,
,,,C,D,d,v,L,U,g,R,u,,,,,5,19,119,9,0,0,0,0,,,,,0,16,16,23,,,,,,up,0.4336796545685502,1895.1909808966884,None,001,85,2019_Oct_31_1304,ACPT_experiment_5_30_19,3.1.0,59.94969090933626,
,,,C,D,d,v,L,D,y,L,y,,,,,5,19,119,9,0,0,0,0,,,,,0,17,17,32,,,,,,up,0.38363171818491537,1896.9090232087037,None,001,85,2019_Oct_31_1304,ACPT_experiment_5_30_19,3.1.0,59.94969090933626,
,,,C,D,d,v,R,U,d,R,u,,,,,5,19,119,9,0,0,0,0,,,,,0,18,18,9,,,,,,up,0.9337967787141679,1898.593977644996,None,001,85,2019_Oct_31_1304,ACPT_experiment_5_30_19,3.1.0,59.94969090933626,
,,,C,D,d,v,R,D,d,L,c,,,,,5,19,119,9,0,0,0,0,,,,,0,19,19,0,,,,,,up,0.41701663042476866,1900.8121364774124,None,001,85,2019_Oct_31_1304,ACPT_experiment_5_30_19,3.1.0,59.94969090933626,
,,,C,D,d,v,R,G,d,R,i,,,,,5,19,119,9,0,0,0,0,,,,,0,20,20,5,,,,,,up,0.4336814657726791,1902.5134961439617,None,001,85,2019_Oct_31_1304,ACPT_experiment_5_30_19,3.1.0,59.94969090933626,
,,,C,D,d,v,L,G,d,R,i,,,,,5,19,119,9,0,0,0,0,,,,,0,21,21,17,,,,,,up,0.4837257797480561,1904.2315233626578,None,001,85,2019_Oct_31_1304,ACPT_experiment_5_30_19,3.1.0,59.94969090933626,
,,,C,D,d,v,L,G,y,L,y,,,,,5,19,119,9,0,0,0,0,,,,,0,22,22,34,,,,,,up,0.46704705855518114,1905.9829557186167,None,001,85,2019_Oct_31_1304,ACPT_experiment_5_30_19,3.1.0,59.94969090933626,
,,,C,D,d,v,R,U,y,L,u,,,,,5,19,119,9,0,0,0,0,,,,,0,23,23,30,,,,,,down,0.6171869434328983,1907.7343252863939,None,001,85,2019_Oct_31_1304,ACPT_experiment_5_30_19,3.1.0,59.94969090933626,
,,,C,D,d,v,R,U,g,L,u,,,,,5,19,119,9,0,0,0,0,,,,,0,24,24,10,,,,,,up,0.6505199346574955,1909.6358425875515,None,001,85,2019_Oct_31_1304,ACPT_experiment_5_30_19,3.1.0,59.94969090933626,
,,,C,D,d,v,R,G,d,L,i,,,,,5,19,119,9,0,0,0,0,,,,,0,25,25,4,,,,,,up,0.6836050935671665,1911.5876737693907,None,001,85,2019_Oct_31_1304,ACPT_experiment_5_30_19,3.1.0,59.94969090933626,
,,,C,D,d,v,R,G,y,L,y,,,,,5,19,119,9,0,0,0,0,,,,,0,26,26,28,,,,,,down,0.6171769818465691,1913.5556155598897,None,001,85,2019_Oct_31_1304,ACPT_experiment_5_30_19,3.1.0,59.94969090933626,
,,,C,D,d,v,R,D,d,R,c ,,,,,5,19,119,9,0,0,0,0,,,,,0,27,27,1,,,,,,up,0.45035173470387235,1915.4738387502293,None,001,85,2019_Oct_31_1304,ACPT_experiment_5_30_19,3.1.0,59.94969090933626,
,,,C,D,d,v,R,D,g,L,i,,,,,5,19,119,9,0,0,0,0,,,,,0,28,28,2,,,,,,up,0.5671435350523097,1917.191849064402,None,001,85,2019_Oct_31_1304,ACPT_experiment_5_30_19,3.1.0,59.94969090933626,
,,,C,D,d,v,L,G,d,L,i,,,,,5,19,119,9,0,0,0,0,,,,,0,29,29,16,,,,,,up,0.8339949238143163,1919.0433664259472,None,001,85,2019_Oct_31_1304,ACPT_experiment_5_30_19,3.1.0,59.94969090933626,
,,,C,D,d,v,L,D,d,R,c ,,,,,5,19,119,9,0,0,0,0,,,,,0,30,30,13,,,,,,up,0.6505157085193787,1921.1617080082797,None,001,85,2019_Oct_31_1304,ACPT_experiment_5_30_19,3.1.0,59.94969090933626,
,,,C,D,d,v,R,G,y,R,y,,,,,5,19,119,9,0,0,0,0,,,,,0,31,31,29,,,,,,down,0.6004813561303308,1923.113263586114,None,001,85,2019_Oct_31_1304,ACPT_experiment_5_30_19,3.1.0,59.94969090933626,
,,,C,D,d,v,L,D,y,R,y,,,,,5,19,119,9,0,0,0,0,,,,,0,32,32,33,,,,,,down,1.217642339048325,1925.0147860190045,None,001,85,2019_Oct_31_1304,ACPT_experiment_5_30_19,3.1.0,59.94969090933626,
,,,C,D,d,v,L,U,y,L,u,,,,,5,19,119,9,0,0,0,0,,,,,0,33,33,24,,,,,,down,0.48371279949788004,1927.516780148304,None,001,85,2019_Oct_31_1304,ACPT_experiment_5_30_19,3.1.0,59.94969090933626,
,,,C,D,d,v,L,U,y,R,u,,,,,5,19,119,9,0,0,0,0,,,,,0,34,34,25,,,,,,down,0.3502941989718238,1929.2848568127083,None,001,85,2019_Oct_31_1304,ACPT_experiment_5_30_19,3.1.0,59.94969090933626,
,,,C,D,d,v,L,G,y,R,y,,,,,5,19,119,9,0,0,0,0,,,,,0,35,35,35,,,,,,down,0.49709302675910294,1930.9395020532975,None,001,85,2019_Oct_31_1304,ACPT_experiment_5_30_19,3.1.0,59.94969090933626,
,,,C,D,d,v,R,D,y,R,y,,,,,5,19,119,9,0,0,0,0,,,,,1,0,36,27,,,,,,down,0.517106163999415,1932.7209067220829,None,001,85,2019_Oct_31_1304,ACPT_experiment_5_30_19,3.1.0,59.94969090933626,
,,,C,D,d,v,R,U,y,L,u,,,,,5,19,119,9,0,0,0,0,,,,,1,1,37,30,,,,,,down,0.43383270082995296,1934.539051547923,None,001,85,2019_Oct_31_1304,ACPT_experiment_5_30_19,3.1.0,59.94969090933626,
,,,C,D,d,v,R,D,g,L,i,,,,,5,19,119,9,0,0,0,0,,,,,1,2,38,2,,,,,,up,0.5504316085425671,1936.2737680531282,None,001,85,2019_Oct_31_1304,ACPT_experiment_5_30_19,3.1.0,59.94969090933626,
,,,C,D,d,v,L,D,y,L,y,,,,,5,19,119,9,0,0,0,0,,,,,1,3,39,32,,,,,,down,0.5835421242372831,1938.1254970230075,None,001,85,2019_Oct_31_1304,ACPT_experiment_5_30_19,3.1.0,59.94969090933626,
,,,C,D,d,v,L,G,y,R,y,,,,,5,19,119,9,0,0,0,0,,,,,1,4,40,35,,,,,,down,0.5171149181114743,1939.9933870132372,None,001,85,2019_Oct_31_1304,ACPT_experiment_5_30_19,3.1.0,59.94969090933626,
,,,C,D,d,v,L,D,d,R,c ,,,,,5,19,119,9,0,0,0,0,,,,,1,5,41,13,,,,,,up,0.6505428764940007,1941.7948398357403,None,001,85,2019_Oct_31_1304,ACPT_experiment_5_30_19,3.1.0,59.94969090933626,
,,,C,D,d,v,L,D,g,L,i,,,,,5,19,119,9,0,0,0,0,,,,,1,6,42,14,,,,,,up,0.6838976020953851,1943.7130183498666,None,001,85,2019_Oct_31_1304,ACPT_experiment_5_30_19,3.1.0,59.94969090933626,
,,,C,D,d,v,R,D,d,L,c,,,,,5,19,119,9,0,0,0,0,,,,,1,7,43,0,,,,,,up,0.5337812627985841,1945.6812499320804,None,001,85,2019_Oct_31_1304,ACPT_experiment_5_30_19,3.1.0,59.94969090933626,
,,,C,D,d,v,R,U,d,R,u,,,,,5,19,119,9,0,0,0,0,,,,,1,8,44,9,,,,,,up,0.5004211035993649,1947.4993944560556,None,001,85,2019_Oct_31_1304,ACPT_experiment_5_30_19,3.1.0,59.94969090933626,
,,,C,D,d,v,L,U,g,L,u,,,,,5,19,119,9,0,0,0,0,,,,,1,9,45,22,,,,,,up,0.5170699400332524,1949.2841537659115,None,001,85,2019_Oct_31_1304,ACPT_experiment_5_30_19,3.1.0,59.94969090933626,
,,,C,D,d,v,L,D,y,R,y,,,,,5,19,119,9,0,0,0,0,,,,,1,10,46,33,,,,,,down,0.533354423721903,1951.1026433231455,None,001,85,2019_Oct_31_1304,ACPT_experiment_5_30_19,3.1.0,59.94969090933626,
,,,C,D,d,v,R,G,y,R,y,,,,,5,19,119,9,0,0,0,0,,,,,1,11,47,29,,,,,,down,0.6169695996359223,1952.9372208490677,None,001,85,2019_Oct_31_1304,ACPT_experiment_5_30_19,3.1.0,59.94969090933626,
,,,C,D,d,v,L,G,y,L,y,,,,,5,19,119,9,0,0,0,0,,,,,1,12,48,34,,,,,,down,0.5003906150814146,1954.8552668438497,None,001,85,2019_Oct_31_1304,ACPT_experiment_5_30_19,3.1.0,59.94969090933626,
,,,C,D,d,v,L,U,y,L,u,,,,,5,19,119,9,0,0,0,0,,,,,1,13,49,24,,,,,,down,0.6505362354364479,1956.6399971745413,None,001,85,2019_Oct_31_1304,ACPT_experiment_5_30_19,3.1.0,59.94969090933626,
,,,C,D,d,v,R,D,d,R,c ,,,,,5,19,119,9,0,0,0,0,,,,,1,14,50,1,,,,,,up,0.7839593639655504,1958.5748945580854,None,001,85,2019_Oct_31_1304,ACPT_experiment_5_30_19,3.1.0,59.94969090933626,
,,,C,D,d,v,R,G,d,L,i,,,,,5,19,119,9,0,0,0,0,,,,,1,15,51,4,,,,,,down,0.48371098829375114,1960.6432165794686,None,001,85,2019_Oct_31_1304,ACPT_experiment_5_30_19,3.1.0,59.94969090933626,
,,,C,D,d,v,R,D,y,L,y,,,,,5,19,119,9,0,0,0,0,,,,,1,16,52,26,,,,,,down,0.6838565482612466,1962.4113125633303,None,001,85,2019_Oct_31_1304,ACPT_experiment_5_30_19,3.1.0,59.94969090933626,
,,,C,D,d,v,L,U,d,R,u,,,,,5,19,119,9,0,0,0,0,,,,,1,17,53,21,,,,,,up,0.45008096056699287,1964.3964882072905,None,001,85,2019_Oct_31_1304,ACPT_experiment_5_30_19,3.1.0,59.94969090933626,
,,,C,D,d,v,R,U,y,R,u,,,,,5,19,119,9,0,0,0,0,,,,,1,18,54,31,,,,,,down,0.6505268775654258,1966.1309266935714,None,001,85,2019_Oct_31_1304,ACPT_experiment_5_30_19,3.1.0,59.94969090933626,
,,,C,D,d,v,L,G,d,L,i,,,,,5,19,119,9,0,0,0,0,,,,,1,19,55,16,,,,,,up,0.7506309007294476,1968.0658083800517,None,001,85,2019_Oct_31_1304,ACPT_experiment_5_30_19,3.1.0,59.94969090933626,
,,,C,D,d,v,L,U,d,L,u,,,,,5,19,119,9,0,0,0,0,,,,,1,20,56,20,,,,,,up,0.6338614385022083,1970.1007367350976,None,001,85,2019_Oct_31_1304,ACPT_experiment_5_30_19,3.1.0,59.94969090933626,
,,,C,D,d,v,R,U,g,R,u,,,,,5,19,119,9,0,0,0,0,,,,,1,21,57,11,,,,,,up,0.7005896054179175,1972.0189644534257,None,001,85,2019_Oct_31_1304,ACPT_experiment_5_30_19,3.1.0,59.94969090933626,
,,,C,D,d,v,R,G,g,L,c ,,,,,5,19,119,9,0,0,0,0,,,,,1,22,58,6,,,,,,up,1.651371197833214,1974.003879586715,None,001,85,2019_Oct_31_1304,ACPT_experiment_5_30_19,3.1.0,59.94969090933626,
,,,C,D,d,v,R,U,g,L,u,,,,,5,19,119,9,0,0,0,0,,,,,1,23,59,10,,,,,,up,0.49706706625875086,1976.9595915627142,None,001,85,2019_Oct_31_1304,ACPT_experiment_5_30_19,3.1.0,59.94969090933626,
,,,C,D,d,v,R,G,g,R,c ,,,,,5,19,119,9,0,0,0,0,,,,,1,24,60,7,,,,,,up,0.3502884635236114,1978.7409886848473,None,001,85,2019_Oct_31_1304,ACPT_experiment_5_30_19,3.1.0,59.94969090933626,
,,,C,D,d,v,L,D,g,R,i,,,,,5,19,119,9,0,0,0,0,,,,,1,25,61,15,,,,,,up,0.3836658290820196,1980.375600865038,None,001,85,2019_Oct_31_1304,ACPT_experiment_5_30_19,3.1.0,59.94969090933626,
,,,C,D,d,v,L,G,g,L,c ,,,,,5,19,119,9,0,0,0,0,,,,,1,26,62,18,,,,,,up,0.31691653151938226,1982.0436242198339,None,001,85,2019_Oct_31_1304,ACPT_experiment_5_30_19,3.1.0,59.94969090933626,
,,,C,D,d,v,L,G,g,R,c ,,,,,5,19,119,9,0,0,0,0,,,,,1,27,63,19,,,,,,up,0.41675581787421834,1983.645176296006,None,001,85,2019_Oct_31_1304,ACPT_experiment_5_30_19,3.1.0,59.94969090933626,
,,,C,D,d,v,L,D,d,L,c ,,,,,5,19,119,9,0,0,0,0,,,,,1,28,64,12,,,,,,up,0.33360762924712617,1985.3462627734843,None,001,85,2019_Oct_31_1304,ACPT_experiment_5_30_19,3.1.0,59.94969090933626,
,,,C,D,d,v,R,U,d,L,u,,,,,5,19,119,9,0,0,0,0,,,,,1,29,65,8,,,,,,up,0.46706818920210935,1986.9642221929826,None,001,85,2019_Oct_31_1304,ACPT_experiment_5_30_19,3.1.0,59.94969090933626,
,,,C,D,d,v,R,G,d,R,i,,,,,5,19,119,9,0,0,0,0,,,,,1,30,66,5,,,,,,up,0.4336512791342102,1988.7156394556368,None,001,85,2019_Oct_31_1304,ACPT_experiment_5_30_19,3.1.0,59.94969090933626,
,,,C,D,d,v,L,G,d,R,i,,,,,5,19,119,9,0,0,0,0,,,,,1,31,67,17,,,,,,up,0.4136737621302018,1990.4536577753024,None,001,85,2019_Oct_31_1304,ACPT_experiment_5_30_19,3.1.0,59.94969090933626,
,,,C,D,d,v,R,D,g,R,i,,,,,5,19,119,9,0,0,0,0,,,,,1,32,68,3,,,,,,up,0.4169770859298296,1992.1517183441902,None,001,85,2019_Oct_31_1304,ACPT_experiment_5_30_19,3.1.0,59.94969090933626,
,,,C,D,d,v,R,G,y,L,y,,,,,5,19,119,9,0,0,0,0,,,,,1,33,69,28,,,,,,down,0.7672752091748407,1993.8530523520894,None,001,85,2019_Oct_31_1304,ACPT_experiment_5_30_19,3.1.0,59.94969090933626,
,,,C,D,d,v,L,U,y,R,u,,,,,5,19,119,9,0,0,0,0,,,,,1,34,70,25,,,,,,down,0.7839587602211395,1995.9046872000326,None,001,85,2019_Oct_31_1304,ACPT_experiment_5_30_19,3.1.0,59.94969090933626,
,,,C,D,d,v,L,U,g,R,u,,,,,5,19,119,9,0,0,0,0,,,,,1,35,71,23,,,,,,up,0.5837990125291981,1997.9730052971572,None,001,85,2019_Oct_31_1304,ACPT_experiment_5_30_19,3.1.0,59.94969090933626,
,,,C,D,d,v,,,,,,,,,,5,19,119,9,1,0,1,0,0,0,0,0,,,,,,,,,,,,,,001,85,2019_Oct_31_1304,ACPT_experiment_5_30_19,3.1.0,59.94969090933626,
,,,C,D,d,v,L,D,d,L,c ,,,,,5,19,119,9,1,0,1,0,,,,,0,0,0,12,,,,,,up,0.6669405600987375,2004.5952276736643,None,001,85,2019_Oct_31_1304,ACPT_experiment_5_30_19,3.1.0,59.94969090933626,
,,,C,D,d,v,L,U,d,L,u,,,,,5,19,119,9,1,0,1,0,,,,,0,1,1,20,,,,,,up,0.5170243581960676,2006.5298038713809,None,001,85,2019_Oct_31_1304,ACPT_experiment_5_30_19,3.1.0,59.94969090933626,
,,,C,D,d,v,L,U,y,R,u,,,,,5,19,119,9,1,0,1,0,,,,,0,2,2,25,,,,,,down,0.5671371958596865,2008.3145686148346,None,001,85,2019_Oct_31_1304,ACPT_experiment_5_30_19,3.1.0,59.94969090933626,
,,,C,D,d,v,L,D,g,R,i,,,,,5,19,119,9,1,0,1,0,,,,,0,3,3,15,,,,,,up,0.6505748743220465,2010.166066355072,None,001,85,2019_Oct_31_1304,ACPT_experiment_5_30_19,3.1.0,59.94969090933626,
,,,C,D,d,v,R,U,y,L,u,,,,,5,19,119,9,1,0,1,0,,,,,0,4,4,30,,,,,,down,0.7172459885041462,2012.1009459284978,None,001,85,2019_Oct_31_1304,ACPT_experiment_5_30_19,3.1.0,59.94969090933626,
,,,C,D,d,v,R,G,d,L,i,,,,,5,19,119,9,1,0,1,0,,,,,0,5,5,4,,,,,,up,0.6671905054681702,2014.1025397829799,None,001,85,2019_Oct_31_1304,ACPT_experiment_5_30_19,3.1.0,59.94969090933626,
,,,C,D,d,v,L,U,g,L,u,,,,,5,19,119,9,1,0,1,0,,,,,0,6,6,22,,,,,,up,0.38363564245810267,2016.0540989831934,None,001,85,2019_Oct_31_1304,ACPT_experiment_5_30_19,3.1.0,59.94969090933626,
,,,C,D,d,v,L,D,y,R,y,,,,,5,19,119,9,1,0,1,0,,,,,0,7,7,33,,,,,,down,0.5166409879020648,2017.7391838257608,None,001,85,2019_Oct_31_1304,ACPT_experiment_5_30_19,3.1.0,59.94969090933626,
,,,C,D,d,v,L,G,y,R,y,,,,,5,19,119,9,1,0,1,0,,,,,0,8,8,35,,,,,,down,0.5504406645486597,2019.54021343161,None,001,85,2019_Oct_31_1304,ACPT_experiment_5_30_19,3.1.0,59.94969090933626,
,,,C,D,d,v,R,D,d,L,c,,,,,5,19,119,9,1,0,1,0,,,,,0,9,9,0,,,,,,up,0.48373785440344363,2021.3750131311972,None,001,85,2019_Oct_31_1304,ACPT_experiment_5_30_19,3.1.0,59.94969090933626,
,,,C,D,d,v,L,D,d,R,c ,,,,,5,19,119,9,1,0,1,0,,,,,0,10,10,13,,,,,,up,0.48373272267053835,2023.1430910030613,None,001,85,2019_Oct_31_1304,ACPT_experiment_5_30_19,3.1.0,59.94969090933626,
,,,C,D,d,v,L,U,y,L,u,,,,,5,19,119,9,1,0,1,0,,,,,0,11,11,24,,,,,,up,0.43366214631532785,2024.9278629913024,None,001,85,2019_Oct_31_1304,ACPT_experiment_5_30_19,3.1.0,59.94969090933626,
,,,C,D,d,v,R,G,g,R,c ,,,,,5,19,119,9,1,0,1,0,,,,,0,12,12,7,,,,,,up,0.4670591331960168,2026.6458893044037,None,001,85,2019_Oct_31_1304,ACPT_experiment_5_30_19,3.1.0,59.94969090933626,
,,,C,D,d,v,R,D,d,R,c ,,,,,5,19,119,9,1,0,1,0,,,,,0,13,13,1,,,,,,up,0.4670570201415103,2028.3972594758961,None,001,85,2019_Oct_31_1304,ACPT_experiment_5_30_19,3.1.0,59.94969090933626,
,,,C,D,d,v,R,U,g,L,u,,,,,5,19,119,9,1,0,1,0,,,,,0,14,14,10,,,,,,up,0.43356071921880357,2030.1486818702688,None,001,85,2019_Oct_31_1304,ACPT_experiment_5_30_19,3.1.0,59.94969090933626,
,,,C,D,d,v,L,U,d,R,u,,,,,5,19,119,9,1,0,1,0,,,,,0,15,15,21,,,,,,up,0.48348972023813985,2031.8836468115187,None,001,85,2019_Oct_31_1304,ACPT_experiment_5_30_19,3.1.0,59.94969090933626,
,,,C,D,d,v,L,D,g,L,i,,,,,5,19,119,9,1,0,1,0,,,,,0,16,16,14,,,,,,up,0.5504355328157544,2033.6514759454876,None,001,85,2019_Oct_31_1304,ACPT_experiment_5_30_19,3.1.0,59.94969090933626,
,,,C,D,d,v,R,G,y,L,y,,,,,5,19,119,9,1,0,1,0,,,,,0,17,17,28,,,,,,down,0.6505232551717199,2035.4862726263964,None,001,85,2019_Oct_31_1304,ACPT_experiment_5_30_19,3.1.0,59.94969090933626,
,,,C,D,d,v,L,G,y,L,y,,,,,5,19,119,9,1,0,1,0,,,,,0,18,18,34,,,,,,down,0.500393331880332,2037.4211503886327,None,001,85,2019_Oct_31_1304,ACPT_experiment_5_30_19,3.1.0,59.94969090933626,
,,,C,D,d,v,R,U,g,R,u,,,,,5,19,119,9,1,0,1,0,,,,,0,19,19,11,,,,,,up,0.5334993196011055,2039.2228453079733,None,001,85,2019_Oct_31_1304,ACPT_experiment_5_30_19,3.1.0,59.94969090933626,
,,,C,D,d,v,L,G,g,L,c ,,,,,5,19,119,9,1,0,1,0,,,,,0,20,20,18,,,,,,up,0.43368810683023185,2041.040703058883,None,001,85,2019_Oct_31_1304,ACPT_experiment_5_30_19,3.1.0,59.94969090933626,
,,,C,D,d,v,L,U,g,R,u,,,,,5,19,119,9,1,0,1,0,,,,,0,21,21,23,,,,,,up,0.4503610925603425,2042.75874235222,None,001,85,2019_Oct_31_1304,ACPT_experiment_5_30_19,3.1.0,59.94969090933626,
,,,C,D,d,v,R,G,y,R,y,,,,,5,19,119,9,1,0,1,0,,,,,0,22,22,29,,,,,,down,0.5837878434831509,2044.493466705957,None,001,85,2019_Oct_31_1304,ACPT_experiment_5_30_19,3.1.0,59.94969090933626,
,,,C,D,d,v,R,D,y,L,y,,,,,5,19,119,9,1,0,1,0,,,,,0,23,23,26,,,,,,down,0.7836867786099901,2046.378555835021,None,001,85,2019_Oct_31_1304,ACPT_experiment_5_30_19,3.1.0,59.94969090933626,
,,,C,D,d,v,R,U,d,L,u,,,,,5,19,119,9,1,0,1,0,,,,,0,24,24,8,,,,,,up,0.8840558404481271,2048.446617043868,None,001,85,2019_Oct_31_1304,ACPT_experiment_5_30_19,3.1.0,59.94969090933626,
,,,C,D,d,v,R,D,g,R,i,,,,,5,19,119,9,1,0,1,0,,,,,0,25,25,3,,,,,,up,0.5504373440053314,2050.615012298047,None,001,85,2019_Oct_31_1304,ACPT_experiment_5_30_19,3.1.0,59.94969090933626,
,,,C,D,d,v,R,D,y,R,y,,,,,5,19,119,9,1,0,1,0,,,,,0,26,26,27,,,,,,down,0.6171567567944294,2052.4331290503033,None,001,85,2019_Oct_31_1304,ACPT_experiment_5_30_19,3.1.0,59.94969090933626,
,,,C,D,d,v,L,G,d,R,i,,,,,5,19,119,9,1,0,1,0,,,,,0,27,27,17,,,,,,up,0.7839762684743619,2054.3346212965553,None,001,85,2019_Oct_31_1304,ACPT_experiment_5_30_19,3.1.0,59.94969090933626,
,,,C,D,d,v,R,D,g,L,i,,,,,5,19,119,9,1,0,1,0,,,,,0,28,28,2,,,,,,up,0.48371551629679743,2056.402967165399,None,001,85,2019_Oct_31_1304,ACPT_experiment_5_30_19,3.1.0,59.94969090933626,
,,,C,D,d,v,L,G,d,L,i,,,,,5,19,119,9,1,0,1,0,,,,,0,29,29,16,,,,,,up,0.45037950640835334,2058.1710175674234,None,001,85,2019_Oct_31_1304,ACPT_experiment_5_30_19,3.1.0,59.94969090933626,
,,,C,D,d,v,L,D,y,L,y,,,,,5,19,119,9,1,0,1,0,,,,,0,30,30,32,,,,,,down,0.6805462815391365,2059.9257677367714,None,001,85,2019_Oct_31_1304,ACPT_experiment_5_30_19,3.1.0,59.94969090933626,
,,,C,D,d,v,R,U,y,R,u,,,,,5,19,119,9,1,0,1,0,,,,,0,31,31,31,,,,,,down,0.5337371903005987,2061.8906890522776,None,001,85,2019_Oct_31_1304,ACPT_experiment_5_30_19,3.1.0,59.94969090933626,
,,,C,D,d,v,R,U,d,R,u,,,,,5,19,119,9,1,0,1,0,,,,,0,32,32,9,,,,,,up,0.8005279039352899,2063.7087913149444,None,001,85,2019_Oct_31_1304,ACPT_experiment_5_30_19,3.1.0,59.94969090933626,
,,,C,D,d,v,L,G,g,R,c ,,,,,5,19,119,9,1,0,1,0,,,,,0,33,33,19,,,,,,up,0.6504846162861213,2065.7938213385787,None,001,85,2019_Oct_31_1304,ACPT_experiment_5_30_19,3.1.0,59.94969090933626,
,,,C,D,d,v,R,G,d,R,i,,,,,5,19,119,9,1,0,1,0,,,,,0,34,34,5,,,,,,up,0.7005588150495896,2067.728668008567,None,001,85,2019_Oct_31_1304,ACPT_experiment_5_30_19,3.1.0,59.94969090933626,
,,,C,D,d,v,R,G,g,L,c ,,,,,5,19,119,9,1,0,1,0,,,,,0,35,35,6,,,,,,up,0.6672206920920871,2069.6968811769475,None,001,85,2019_Oct_31_1304,ACPT_experiment_5_30_19,3.1.0,59.94969090933626,
,,,C,D,d,v,R,U,d,L,u,,,,,5,19,119,9,1,0,1,0,,,,,1,0,36,8,,,,,,up,0.4170121024217224,2071.648466337676,None,001,85,2019_Oct_31_1304,ACPT_experiment_5_30_19,3.1.0,59.94969090933626,
,,,C,D,d,v,L,G,g,L,c ,,,,,5,19,119,9,1,0,1,0,,,,,1,1,37,18,,,,,,up,0.4003354942979058,2073.3497985343856,None,001,85,2019_Oct_31_1304,ACPT_experiment_5_30_19,3.1.0,59.94969090933626,
,,,C,D,d,v,L,D,g,R,i,,,,,5,19,119,9,1,0,1,0,,,,,1,2,38,15,,,,,,up,0.5671181782672647,2075.034498799185,None,001,85,2019_Oct_31_1304,ACPT_experiment_5_30_19,3.1.0,59.94969090933626,
,,,C,D,d,v,R,G,y,R,y,,,,,5,19,119,9,1,0,1,0,,,,,1,3,39,29,,,,,,down,0.6338378929212922,2076.885973899436,None,001,85,2019_Oct_31_1304,ACPT_experiment_5_30_19,3.1.0,59.94969090933626,
,,,C,D,d,v,L,D,d,L,c ,,,,,5,19,119,9,1,0,1,0,,,,,1,4,40,12,,,,,,up,0.5804799916950287,2078.8241869832855,None,001,85,2019_Oct_31_1304,ACPT_experiment_5_30_19,3.1.0,59.94969090933626,
,,,C,D,d,v,R,U,g,L,u,,,,,5,19,119,9,1,0,1,0,,,,,1,5,41,10,,,,,,up,0.5838029367878335,2080.6890063887113,None,001,85,2019_Oct_31_1304,ACPT_experiment_5_30_19,3.1.0,59.94969090933626,
,,,C,D,d,v,L,G,d,L,i,,,,,5,19,119,9,1,0,1,0,,,,,1,6,42,16,,,,,,up,0.5671073110861471,2082.5571762090694,None,001,85,2019_Oct_31_1304,ACPT_experiment_5_30_19,3.1.0,59.94969090933626,
,,,C,D,d,v,L,G,y,R,y,,,,,5,19,119,9,1,0,1,0,,,,,1,7,43,35,,,,,,down,0.5004361969185993,2084.391941194015,None,001,85,2019_Oct_31_1304,ACPT_experiment_5_30_19,3.1.0,59.94969090933626,
,,,C,D,d,v,R,U,d,R,u,,,,,5,19,119,9,1,0,1,0,,,,,1,8,44,9,,,,,,up,0.600044253616943,2086.1938193462556,None,001,85,2019_Oct_31_1304,ACPT_experiment_5_30_19,3.1.0,59.94969090933626,
,,,C,D,d,v,R,G,d,L,i,,,,,5,19,119,9,1,0,1,0,,,,,1,9,45,4,,,,,,up,0.4503961090667872,2088.0782395394344,None,001,85,2019_Oct_31_1304,ACPT_experiment_5_30_19,3.1.0,59.94969090933626,
,,,C,D,d,v,L,U,g,R,u,,,,,5,19,119,9,1,0,1,0,,,,,1,10,46,23,,,,,,up,1.1509208132047206,2089.812952422246,None,001,85,2019_Oct_31_1304,ACPT_experiment_5_30_19,3.1.0,59.94969090933626,
,,,C,D,d,v,L,U,d,L,u,,,,,5,19,119,9,1,0,1,0,,,,,1,11,47,20,,,,,,up,0.48372728907270357,2092.24822955369,None,001,85,2019_Oct_31_1304,ACPT_experiment_5_30_19,3.1.0,59.94969090933626,
,,,C,D,d,v,R,D,y,R,y,,,,,5,19,119,9,1,0,1,0,,,,,1,12,48,27,,,,,,down,0.5171257853071438,2094.0162853893125,None,001,85,2019_Oct_31_1304,ACPT_experiment_5_30_19,3.1.0,59.94969090933626,
,,,C,D,d,v,L,G,y,L,y,,,,,5,19,119,9,1,0,1,0,,,,,1,13,49,34,,,,,,down,0.5671350827906281,2095.817733683827,None,001,85,2019_Oct_31_1304,ACPT_experiment_5_30_19,3.1.0,59.94969090933626,
,,,C,D,d,v,R,G,y,L,y,,,,,5,19,119,9,1,0,1,0,,,,,1,14,50,28,,,,,,down,0.7839596658304799,2097.6692247829924,None,001,85,2019_Oct_31_1304,ACPT_experiment_5_30_19,3.1.0,59.94969090933626,
,,,C,D,d,v,L,G,g,R,c ,,,,,5,19,119,9,1,0,1,0,,,,,1,15,51,19,,,,,,up,0.9674376736511476,2099.737544389456,None,001,85,2019_Oct_31_1304,ACPT_experiment_5_30_19,3.1.0,59.94969090933626,
,,,C,D,d,v,R,D,y,L,y,,,,,5,19,119,9,1,0,1,0,,,,,1,16,52,26,,,,,,down,0.5502510924561648,2102.006177997333,None,001,85,2019_Oct_31_1304,ACPT_experiment_5_30_19,3.1.0,59.94969090933626,
,,,C,D,d,v,R,D,d,L,c,,,,,5,19,119,9,1,0,1,0,,,,,1,17,53,0,,,,,,up,0.6004680740152253,2103.857498541998,None,001,85,2019_Oct_31_1304,ACPT_experiment_5_30_19,3.1.0,59.94969090933626,
,,,C,D,d,v,L,U,y,R,u,,,,,5,19,119,9,1,0,1,0,,,,,1,18,54,25,,,,,,down,0.9005308018386131,2105.7591731155408,None,001,85,2019_Oct_31_1304,ACPT_experiment_5_30_19,3.1.0,59.94969090933626,
,,,C,D,d,v,R,G,g,L,c ,,,,,5,19,119,9,1,0,1,0,,,,,1,19,55,6,,,,,,up,0.5337474537518574,2107.94410943985,None,001,85,2019_Oct_31_1304,ACPT_experiment_5_30_19,3.1.0,59.94969090933626,
,,,C,D,d,v,L,G,d,R,i,,,,,5,19,119,9,1,0,1,0,,,,,1,20,56,17,,,,,,up,0.8506805879442254,2109.762208080123,None,001,85,2019_Oct_31_1304,ACPT_experiment_5_30_19,3.1.0,59.94969090933626,
,,,C,D,d,v,L,D,y,L,y,,,,,5,19,119,9,1,0,1,0,,,,,1,21,57,32,,,,,,down,0.6669481067510787,2111.914174256599,None,001,85,2019_Oct_31_1304,ACPT_experiment_5_30_19,3.1.0,59.94969090933626,
,,,C,D,d,v,L,D,g,L,i,,,,,5,19,119,9,1,0,1,0,,,,,1,22,58,14,,,,,,up,0.6338517787808087,2113.8654868319863,None,001,85,2019_Oct_31_1304,ACPT_experiment_5_30_19,3.1.0,59.94969090933626,
,,,C,D,d,v,L,D,y,R,y,,,,,5,19,119,9,1,0,1,0,,,,,1,23,59,33,,,,,,down,0.7339068995788693,2115.7836852692853,None,001,85,2019_Oct_31_1304,ACPT_experiment_5_30_19,3.1.0,59.94969090933626,
,,,C,D,d,v,R,D,d,R,c ,,,,,5,19,119,9,1,0,1,0,,,,,1,24,60,1,,,,,,up,0.6838800938421628,2117.8186362643028,None,001,85,2019_Oct_31_1304,ACPT_experiment_5_30_19,3.1.0,59.94969090933626,
,,,C,D,d,v,L,U,d,R,u,,,,,5,19,119,9,1,0,1,0,,,,,1,25,61,21,,,,,,up,0.9841115649760468,2119.7868808267813,None,001,85,2019_Oct_31_1304,ACPT_experiment_5_30_19,3.1.0,59.94969090933626,
,,,C,D,d,v,R,G,g,R,c ,,,,,5,19,119,9,1,0,1,0,,,,,1,26,62,7,,,,,,up,0.6005064110358944,2122.055326371905,None,001,85,2019_Oct_31_1304,ACPT_experiment_5_30_19,3.1.0,59.94969090933626,
,,,C,D,d,v,R,U,y,R,u,,,,,5,19,119,9,1,0,1,0,,,,,1,27,63,31,,,,,,down,0.5671193857415346,2123.940189403045,None,001,85,2019_Oct_31_1304,ACPT_experiment_5_30_19,3.1.0,59.94969090933626,
,,,C,D,d,v,L,U,g,L,u,,,,,5,19,119,9,1,0,1,0,,,,,1,28,64,22,,,,,,up,0.5004265371826477,2125.7916379390517,None,001,85,2019_Oct_31_1304,ACPT_experiment_5_30_19,3.1.0,59.94969090933626,
,,,C,D,d,v,R,U,g,R,u,,,,,5,19,119,9,1,0,1,0,,,,,1,29,65,11,,,,,,up,0.6171594735933468,2127.576424115032,None,001,85,2019_Oct_31_1304,ACPT_experiment_5_30_19,3.1.0,59.94969090933626,
,,,C,D,d,v,R,D,g,R,i,,,,,5,19,119,9,1,0,1,0,,,,,1,30,66,3,,,,,,up,0.5671154614828993,2129.4779429255286,None,001,85,2019_Oct_31_1304,ACPT_experiment_5_30_19,3.1.0,59.94969090933626,
,,,C,D,d,v,R,D,g,L,i,,,,,5,19,119,9,1,0,1,0,,,,,1,31,67,2,,,,,,up,0.4834495720133418,2131.329690309256,None,001,85,2019_Oct_31_1304,ACPT_experiment_5_30_19,3.1.0,59.94969090933626,
,,,C,D,d,v,R,G,d,R,i,,,,,5,19,119,9,1,0,1,0,,,,,1,32,68,5,,,,,,up,0.43368569189624395,2133.09749408644,None,001,85,2019_Oct_31_1304,ACPT_experiment_5_30_19,3.1.0,59.94969090933626,
,,,C,D,d,v,L,U,y,L,u,,,,,5,19,119,9,1,0,1,0,,,,,1,33,69,24,,,,,,down,0.6171555493347114,2134.8155357947253,None,001,85,2019_Oct_31_1304,ACPT_experiment_5_30_19,3.1.0,59.94969090933626,
,,,C,D,d,v,L,D,d,R,c ,,,,,5,19,119,9,1,0,1,0,,,,,1,34,70,13,,,,,,up,0.6338620422320673,2136.717050379084,None,001,85,2019_Oct_31_1304,ACPT_experiment_5_30_19,3.1.0,59.94969090933626,
,,,C,D,d,v,R,U,y,L,u,,,,,5,19,119,9,1,0,1,0,,,,,1,35,71,30,,,,,,down,0.7002919651713455,2138.652201934121,None,001,85,2019_Oct_31_1304,ACPT_experiment_5_30_19,3.1.0,59.94969090933626,
,,,C,D,d,v,,,,,,,,,,5,19,119,9,2,0,2,0,0,0,0,0,,,,,,,,,,,,,,001,85,2019_Oct_31_1304,ACPT_experiment_5_30_19,3.1.0,59.94969090933626,
,,,C,D,d,v,R,G,d,R,i,,,,,5,19,119,9,2,0,2,0,,,,,0,0,0,5,,,,,,up,0.6171368336072192,2150.56144761834,None,001,85,2019_Oct_31_1304,ACPT_experiment_5_30_19,3.1.0,59.94969090933626,
,,,C,D,d,v,R,G,d,L,i,,,,,5,19,119,9,2,0,2,0,,,,,0,1,1,4,,,,,,up,0.3669569212506758,2152.462950429923,None,001,85,2019_Oct_31_1304,ACPT_experiment_5_30_19,3.1.0,59.94969090933626,
,,,C,D,d,v,L,D,g,R,i,,,,,5,19,119,9,2,0,2,0,,,,,0,2,2,15,,,,,,up,0.316934945381945,2154.114268499281,None,001,85,2019_Oct_31_1304,ACPT_experiment_5_30_19,3.1.0,59.94969090933626,
,,,C,D,d,v,L,D,d,L,c ,,,,,5,19,119,9,2,0,2,0,,,,,0,3,3,12,,,,,,up,0.3669855985644972,2155.7155223314767,None,001,85,2019_Oct_31_1304,ACPT_experiment_5_30_19,3.1.0,59.94969090933626,
,,,C,D,d,v,R,U,g,R,u,,,,,5,19,119,9,2,0,2,0,,,,,0,4,4,11,,,,,,up,0.3002145666250726,2157.383560175862,None,001,85,2019_Oct_31_1304,ACPT_experiment_5_30_19,3.1.0,59.94969090933626,
,,,C,D,d,v,R,D,d,R,c ,,,,,5,19,119,9,2,0,2,0,,,,,0,5,5,1,,,,,,up,0.3669569212506758,2158.968139814853,None,001,85,2019_Oct_31_1304,ACPT_experiment_5_30_19,3.1.0,59.94969090933626,
,,,C,D,d,v,R,U,g,L,u,,,,,5,19,119,9,2,0,2,0,,,,,0,6,6,10,,,,,,up,0.4003095337830018,2160.6194606010104,None,001,85,2019_Oct_31_1304,ACPT_experiment_5_30_19,3.1.0,59.94969090933626,
,,,C,D,d,v,L,U,y,L,u,,,,,5,19,119,9,2,0,2,0,,,,,0,7,7,24,,,,,,up,0.41699036804493517,2162.304138829568,None,001,85,2019_Oct_31_1304,ACPT_experiment_5_30_19,3.1.0,59.94969090933626,
,,,C,D,d,v,L,D,y,L,y,,,,,5,19,119,9,2,0,2,0,,,,,0,8,8,32,,,,,,up,0.4000532492209459,2164.0224298794637,None,001,85,2019_Oct_31_1304,ACPT_experiment_5_30_19,3.1.0,59.94969090933626,
,,,C,D,d,v,L,D,d,R,c ,,,,,5,19,119,9,2,0,2,0,,,,,0,9,9,13,,,,,,up,0.5170986173325218,2165.690152575349,None,001,85,2019_Oct_31_1304,ACPT_experiment_5_30_19,3.1.0,59.94969090933626,
,,,C,D,d,v,L,U,d,R,u,,,,,5,19,119,9,2,0,2,0,,,,,0,10,10,21,,,,,,up,0.46708871611917857,2167.491580946691,None,001,85,2019_Oct_31_1304,ACPT_experiment_5_30_19,3.1.0,59.94969090933626,
,,,C,D,d,v,L,U,y,R,u,,,,,5,19,119,9,2,0,2,0,,,,,0,11,11,25,,,,,,down,0.5170714493578998,2169.2430111895956,None,001,85,2019_Oct_31_1304,ACPT_experiment_5_30_19,3.1.0,59.94969090933626,
,,,C,D,d,v,R,G,g,R,c ,,,,,5,19,119,9,2,0,2,0,,,,,0,12,12,7,,,,,,down,0.5834156422351953,2171.0614747863146,None,001,85,2019_Oct_31_1304,ACPT_experiment_5_30_19,3.1.0,59.94969090933626,
,,,C,D,d,v,L,G,d,R,i,,,,,5,19,119,9,2,0,2,0,,,,,0,13,13,17,,,,,,up,0.917397887664265,2172.9292826688907,None,001,85,2019_Oct_31_1304,ACPT_experiment_5_30_19,3.1.0,59.94969090933626,
,,,C,D,d,v,R,G,y,R,y,,,,,5,19,119,9,2,0,2,0,,,,,0,14,14,29,,,,,,down,0.6338692870194791,2175.1310362710647,None,001,85,2019_Oct_31_1304,ACPT_experiment_5_30_19,3.1.0,59.94969090933626,
,,,C,D,d,v,R,U,y,R,u,,,,,5,19,119,9,2,0,2,0,,,,,0,15,15,31,,,,,,down,0.7172568556852639,2177.0659179575596,None,001,85,2019_Oct_31_1304,ACPT_experiment_5_30_19,3.1.0,59.94969090933626,
,,,C,D,d,v,R,G,y,L,y,,,,,5,19,119,9,2,0,2,0,,,,,0,16,16,28,,,,,,down,0.6171570586593589,2179.084186910841,None,001,85,2019_Oct_31_1304,ACPT_experiment_5_30_19,3.1.0,59.94969090933626,
,,,C,D,d,v,L,D,y,R,y,,,,,5,19,119,9,2,0,2,0,,,,,0,17,17,33,,,,,,down,0.41699731098196935,2180.9857114568003,None,001,85,2019_Oct_31_1304,ACPT_experiment_5_30_19,3.1.0,59.94969090933626,
,,,C,D,d,v,R,D,y,R,y,,,,,5,19,119,9,2,0,2,0,,,,,0,18,18,27,,,,,,down,0.350274577664095,2182.6870696140104,None,001,85,2019_Oct_31_1304,ACPT_experiment_5_30_19,3.1.0,59.94969090933626,
,,,C,D,d,v,L,D,g,L,i,,,,,5,19,119,9,2,0,2,0,,,,,0,19,19,14,,,,,,up,0.6502606314315926,2184.3386436660658,None,001,85,2019_Oct_31_1304,ACPT_experiment_5_30_19,3.1.0,59.94969090933626,
,,,C,D,d,v,L,G,y,L,y,,,,,5,19,119,9,2,0,2,0,,,,,0,20,20,34,,,,,,down,0.6171781893062871,2186.289919715622,None,001,85,2019_Oct_31_1304,ACPT_experiment_5_30_19,3.1.0,59.94969090933626,
,,,C,D,d,v,R,U,d,R,u,,,,,5,19,119,9,2,0,2,0,,,,,0,21,21,9,,,,,,up,0.517067223219783,2188.2248309850256,None,001,85,2019_Oct_31_1304,ACPT_experiment_5_30_19,3.1.0,59.94969090933626,
,,,C,D,d,v,R,G,g,L,c ,,,,,5,19,119,9,2,0,2,0,,,,,0,22,22,6,,,,,,up,0.6338046876189765,2190.0262868261925,None,001,85,2019_Oct_31_1304,ACPT_experiment_5_30_19,3.1.0,59.94969090933626,
,,,C,D,d,v,L,U,g,R,u,,,,,5,19,119,9,2,0,2,0,,,,,0,23,23,23,,,,,,up,0.5170753736165352,2191.9444559824624,None,001,85,2019_Oct_31_1304,ACPT_experiment_5_30_19,3.1.0,59.94969090933626,
,,,C,D,d,v,L,U,d,L,u,,,,,5,19,119,9,2,0,2,0,,,,,0,24,24,20,,,,,,up,0.4670313615060877,2193.745894013511,None,001,85,2019_Oct_31_1304,ACPT_experiment_5_30_19,3.1.0,59.94969090933626,
,,,C,D,d,v,R,D,d,L,c,,,,,5,19,119,9,2,0,2,0,,,,,0,25,25,0,,,,,,up,0.8173448799207108,2195.4972949753865,None,001,85,2019_Oct_31_1304,ACPT_experiment_5_30_19,3.1.0,59.94969090933626,
,,,C,D,d,v,R,D,y,L,y,,,,,5,19,119,9,2,0,2,0,,,,,0,26,26,26,,,,,,down,0.7503245063562645,2197.5992400815885,None,001,85,2019_Oct_31_1304,ACPT_experiment_5_30_19,3.1.0,59.94969090933626,
,,,C,D,d,v,R,D,g,R,i,,,,,5,19,119,9,2,0,2,0,,,,,0,27,27,3,,,,,,up,0.6171754725073697,2199.6172264879424,None,001,85,2019_Oct_31_1304,ACPT_experiment_5_30_19,3.1.0,59.94969090933626,
,,,C,D,d,v,R,D,g,L,i,,,,,5,19,119,9,2,0,2,0,,,,,0,28,28,2,,,,,,up,0.5339116690738592,2201.5019301336433,None,001,85,2019_Oct_31_1304,ACPT_experiment_5_30_19,3.1.0,59.94969090933626,
,,,C,D,d,v,L,G,d,L,i,,,,,5,19,119,9,2,0,2,0,,,,,0,29,29,16,,,,,,up,0.6337237874395214,2203.320200837741,None,001,85,2019_Oct_31_1304,ACPT_experiment_5_30_19,3.1.0,59.94969090933626,
,,,C,D,d,v,L,G,g,L,c ,,,,,5,19,119,9,2,0,2,0,,,,,0,30,30,18,,,,,,up,0.43370893559767865,2205.2216958008066,None,001,85,2019_Oct_31_1304,ACPT_experiment_5_30_19,3.1.0,59.94969090933626,
,,,C,D,d,v,R,U,y,L,u,,,,,5,19,119,9,2,0,2,0,,,,,0,31,31,30,,,,,,down,0.5837968994746916,2206.9397526023968,None,001,85,2019_Oct_31_1304,ACPT_experiment_5_30_19,3.1.0,59.94969090933626,
,,,C,D,d,v,L,G,g,R,c ,,,,,5,19,119,9,2,0,2,0,,,,,0,32,32,19,,,,,,up,0.5003872945671901,2208.8079233283643,None,001,85,2019_Oct_31_1304,ACPT_experiment_5_30_19,3.1.0,59.94969090933626,
,,,C,D,d,v,R,U,d,L,u,,,,,5,19,119,9,2,0,2,0,,,,,0,33,33,8,,,,,,up,0.5501581176213222,2210.6096288130357,None,001,85,2019_Oct_31_1304,ACPT_experiment_5_30_19,3.1.0,59.94969090933626,
,,,C,D,d,v,L,U,g,L,u,,,,,5,19,119,9,2,0,2,0,,,,,0,34,34,22,,,,,,up,0.48371762936585583,2212.444148380615,None,001,85,2019_Oct_31_1304,ACPT_experiment_5_30_19,3.1.0,59.94969090933626,
,,,C,D,d,v,L,G,y,R,y,,,,,5,19,119,9,2,0,2,0,,,,,0,35,35,35,,,,,,down,0.7505895450303797,2214.228906784876,None,001,85,2019_Oct_31_1304,ACPT_experiment_5_30_19,3.1.0,59.94969090933626,
,,,C,D,d,v,L,U,g,R,u,,,,,5,19,119,9,2,0,2,0,,,,,1,0,36,23,,,,,,up,0.7839509117038688,2216.280544651483,None,001,85,2019_Oct_31_1304,ACPT_experiment_5_30_19,3.1.0,59.94969090933626,
,,,C,D,d,v,L,G,y,L,y,,,,,5,19,119,9,2,0,2,0,,,,,1,1,37,34,,,,,,down,0.5671287435980048,2218.348859126214,None,001,85,2019_Oct_31_1304,ACPT_experiment_5_30_19,3.1.0,59.94969090933626,
,,,C,D,d,v,R,U,g,L,u,,,,,5,19,119,9,2,0,2,0,,,,,1,2,38,10,,,,,,up,0.6004744132078486,2220.20033573579,None,001,85,2019_Oct_31_1304,ACPT_experiment_5_30_19,3.1.0,59.94969090933626,
,,,C,D,d,v,R,D,d,R,c ,,,,,5,19,119,9,2,0,2,0,,,,,1,3,39,1,,,,,,up,0.5170744680217467,2222.0851737120392,None,001,85,2019_Oct_31_1304,ACPT_experiment_5_30_19,3.1.0,59.94969090933626,
,,,C,D,d,v,R,U,y,L,u,,,,,5,19,119,9,2,0,2,0,,,,,1,4,40,30,,,,,,down,0.616896547973738,2223.903570294424,None,001,85,2019_Oct_31_1304,ACPT_experiment_5_30_19,3.1.0,59.94969090933626,
,,,C,D,d,v,R,D,y,L,y,,,,,5,19,119,9,2,0,2,0,,,,,1,5,41,26,,,,,,down,0.5837914658768568,2225.8048207457177,None,001,85,2019_Oct_31_1304,ACPT_experiment_5_30_19,3.1.0,59.94969090933626,
,,,C,D,d,v,R,G,y,L,y,,,,,5,19,119,9,2,0,2,0,,,,,1,6,42,28,,,,,,down,0.5837941826757742,2227.6729661149,None,001,85,2019_Oct_31_1304,ACPT_experiment_5_30_19,3.1.0,59.94969090933626,
,,,C,D,d,v,R,U,y,R,u,,,,,5,19,119,9,2,0,2,0,,,,,1,7,43,31,,,,,,down,0.5837938807962928,2229.5411235587526,None,001,85,2019_Oct_31_1304,ACPT_experiment_5_30_19,3.1.0,59.94969090933626,
,,,C,D,d,v,R,U,d,R,u,,,,,5,19,119,9,2,0,2,0,,,,,1,8,44,9,,,,,,up,0.6838296821515542,2231.409332018011,None,001,85,2019_Oct_31_1304,ACPT_experiment_5_30_19,3.1.0,59.94969090933626,
,,,C,D,d,v,L,D,d,R,c ,,,,,5,19,119,9,2,0,2,0,,,,,1,9,45,13,,,,,,up,0.5838249730441021,2233.3774959821603,None,001,85,2019_Oct_31_1304,ACPT_experiment_5_30_19,3.1.0,59.94969090933626,
,,,C,D,d,v,L,U,d,L,u,,,,,5,19,119,9,2,0,2,0,,,,,1,10,46,20,,,,,,up,0.5004132550675422,2235.2456534260127,None,001,85,2019_Oct_31_1304,ACPT_experiment_5_30_19,3.1.0,59.94969090933626,
,,,C,D,d,v,L,D,g,R,i,,,,,5,19,119,9,2,0,2,0,,,,,1,11,47,15,,,,,,up,0.38336517017160077,2237.047380946926,None,001,85,2019_Oct_31_1304,ACPT_experiment_5_30_19,3.1.0,59.94969090933626,
,,,C,D,d,v,L,G,d,L,i,,,,,5,19,119,9,2,0,2,0,,,,,1,12,48,16,,,,,,up,0.38363715178275015,2238.71510696334,None,001,85,2019_Oct_31_1304,ACPT_experiment_5_30_19,3.1.0,59.94969090933626,
,,,C,D,d,v,L,U,y,L,u,,,,,5,19,119,9,2,0,2,0,,,,,1,13,49,24,,,,,,down,0.6338342705275863,2240.383109791219,None,001,85,2019_Oct_31_1304,ACPT_experiment_5_30_19,3.1.0,59.94969090933626,
,,,C,D,d,v,L,G,g,R,c ,,,,,5,19,119,9,2,0,2,0,,,,,1,14,50,19,,,,,,up,0.5838301047770074,2242.3013043042592,None,001,85,2019_Oct_31_1304,ACPT_experiment_5_30_19,3.1.0,59.94969090933626,
,,,C,D,d,v,R,D,d,L,c,,,,,5,19,119,9,2,0,2,0,,,,,1,15,51,0,,,,,,up,0.5137491079804022,2244.189474885323,None,001,85,2019_Oct_31_1304,ACPT_experiment_5_30_19,3.1.0,59.94969090933626,
,,,C,D,d,v,R,U,d,L,u,,,,,5,19,119,9,2,0,2,0,,,,,1,16,52,8,,,,,,up,0.5003984636277892,2245.9709003828902,None,001,85,2019_Oct_31_1304,ACPT_experiment_5_30_19,3.1.0,59.94969090933626,
,,,C,D,d,v,R,D,y,R,y,,,,,5,19,119,9,2,0,2,0,,,,,1,17,53,27,,,,,,down,0.5169522121286718,2247.77242625707,None,001,85,2019_Oct_31_1304,ACPT_experiment_5_30_19,3.1.0,59.94969090933626,
,,,C,D,d,v,R,G,y,R,y,,,,,5,19,119,9,2,0,2,0,,,,,1,18,54,29,,,,,,down,0.767269171832595,2249.5904599960777,None,001,85,2019_Oct_31_1304,ACPT_experiment_5_30_19,3.1.0,59.94969090933626,
,,,C,D,d,v,L,U,g,L,u,,,,,5,19,119,9,2,0,2,0,,,,,1,19,55,22,,,,,,up,0.5171230685082264,2251.642067374167,None,001,85,2019_Oct_31_1304,ACPT_experiment_5_30_19,3.1.0,59.94969090933626,
,,,C,D,d,v,L,D,g,L,i,,,,,5,19,119,9,2,0,2,0,,,,,1,20,56,14,,,,,,up,0.46702713538252283,2253.4435310638655,None,001,85,2019_Oct_31_1304,ACPT_experiment_5_30_19,3.1.0,59.94969090933626,
,,,C,D,d,v,R,D,g,R,i,,,,,5,19,119,9,2,0,2,0,,,,,1,21,57,3,,,,,,up,0.4336814657726791,2255.178243041082,None,001,85,2019_Oct_31_1304,ACPT_experiment_5_30_19,3.1.0,59.94969090933626,
,,,C,D,d,v,L,D,d,L,c ,,,,,5,19,119,9,2,0,2,0,,,,,1,22,58,12,,,,,,up,0.39702069958730135,2256.9162960753747,None,001,85,2019_Oct_31_1304,ACPT_experiment_5_30_19,3.1.0,59.94969090933626,
,,,C,D,d,v,L,G,y,R,y,,,,,5,19,119,9,2,0,2,0,,,,,1,23,59,35,,,,,,down,0.6171452858834527,2258.5976468308363,None,001,85,2019_Oct_31_1304,ACPT_experiment_5_30_19,3.1.0,59.94969090933626,
,,,C,D,d,v,R,G,d,L,i,,,,,5,19,119,9,2,0,2,0,,,,,1,24,60,4,,,,,,up,0.600477130006766,2260.4991583965457,None,001,85,2019_Oct_31_1304,ACPT_experiment_5_30_19,3.1.0,59.94969090933626,
,,,C,D,d,v,R,D,g,L,i,,,,,5,19,119,9,2,0,2,0,,,,,1,25,61,2,,,,,,up,0.583787843468599,2262.384002711973,None,001,85,2019_Oct_31_1304,ACPT_experiment_5_30_19,3.1.0,59.94969090933626,
,,,C,D,d,v,R,U,g,R,u,,,,,5,19,119,9,2,0,2,0,,,,,1,26,62,11,,,,,,up,0.983860412161448,2264.269116292213,None,001,85,2019_Oct_31_1304,ACPT_experiment_5_30_19,3.1.0,59.94969090933626,
,,,C,D,d,v,R,G,g,R,c ,,,,,5,19,119,9,2,0,2,0,,,,,1,27,63,7,,,,,,up,0.667210126775899,2266.5206316614494,None,001,85,2019_Oct_31_1304,ACPT_experiment_5_30_19,3.1.0,59.94969090933626,
,,,C,D,d,v,L,U,y,R,u,,,,,5,19,119,9,2,0,2,0,,,,,1,28,64,25,,,,,,down,0.6672022782440763,2268.472185428065,None,001,85,2019_Oct_31_1304,ACPT_experiment_5_30_19,3.1.0,59.94969090933626,
,,,C,D,d,v,L,D,y,R,y,,,,,5,19,119,9,2,0,2,0,,,,,1,29,65,33,,,,,,down,0.5837968994601397,2270.4237443264283,None,001,85,2019_Oct_31_1304,ACPT_experiment_5_30_19,3.1.0,59.94969090933626,
,,,C,D,d,v,L,D,y,L,y,,,,,5,19,119,9,2,0,2,0,,,,,1,30,66,32,,,,,,down,0.7339186723693274,2272.2919008646713,None,001,85,2019_Oct_31_1304,ACPT_experiment_5_30_19,3.1.0,59.94969090933626,
,,,C,D,d,v,L,U,d,R,u,,,,,5,19,119,9,2,0,2,0,,,,,1,31,67,21,,,,,,up,0.6004819598601898,2274.3101776664844,None,001,85,2019_Oct_31_1304,ACPT_experiment_5_30_19,3.1.0,59.94969090933626,
,,,C,D,d,v,R,G,d,R,i,,,,,5,19,119,9,2,0,2,0,,,,,1,32,68,5,,,,,,up,0.4670367951039225,2276.178335110322,None,001,85,2019_Oct_31_1304,ACPT_experiment_5_30_19,3.1.0,59.94969090933626,
,,,C,D,d,v,R,G,g,L,c ,,,,,5,19,119,9,2,0,2,0,,,,,1,33,69,6,,,,,,up,0.31696603761520237,2277.9130316923547,None,001,85,2019_Oct_31_1304,ACPT_experiment_5_30_19,3.1.0,59.94969090933626,
,,,C,D,d,v,L,G,d,R,i,,,,,5,19,119,9,2,0,2,0,,,,,1,34,70,17,,,,,,up,0.550461795181036,2279.514307258927,None,001,85,2019_Oct_31_1304,ACPT_experiment_5_30_19,3.1.0,59.94969090933626,
,,,C,D,d,v,L,G,g,L,c ,,,,,5,19,119,9,2,0,2,0,,,,,1,35,71,18,,,,,,up,0.45040184452955145,2281.332427935442,None,001,85,2019_Oct_31_1304,ACPT_experiment_5_30_19,3.1.0,59.94969090933626,
,,,C,D,d,v,,,,,,,,,,5,19,119,9,3,0,3,0,0,0,0,0,,,,,,,,,,,,,,001,85,2019_Oct_31_1304,ACPT_experiment_5_30_19,3.1.0,59.94969090933626,
,,,C,D,d,v,R,D,y,R,y,,,,,5,19,119,9,3,0,3,0,,,,,0,0,0,27,,,,,,down,0.6836111309094122,2289.389151344949,None,001,85,2019_Oct_31_1304,ACPT_experiment_5_30_19,3.1.0,59.94969090933626,
,,,C,D,d,v,R,U,g,R,u,,,,,5,19,119,9,3,0,3,0,,,,,0,1,1,11,,,,,,up,0.4670543033425929,2291.357116982894,None,001,85,2019_Oct_31_1304,ACPT_experiment_5_30_19,3.1.0,59.94969090933626,
,,,C,D,d,v,L,U,y,R,u,,,,,5,19,119,9,3,0,3,0,,,,,0,2,2,25,,,,,,down,0.5003948412195314,2293.108513718631,None,001,85,2019_Oct_31_1304,ACPT_experiment_5_30_19,3.1.0,59.94969090933626,
,,,C,D,d,v,R,D,d,R,c ,,,,,5,19,119,9,3,0,3,0,,,,,0,3,3,1,,,,,,up,0.5671163670776878,2294.893270915418,None,001,85,2019_Oct_31_1304,ACPT_experiment_5_30_19,3.1.0,59.94969090933626,
,,,C,D,d,v,R,U,d,L,u,,,,,5,19,119,9,3,0,3,0,,,,,0,4,4,8,,,,,,up,0.5168055050889961,2296.7450201103493,None,001,85,2019_Oct_31_1304,ACPT_experiment_5_30_19,3.1.0,59.94969090933626,
,,,C,D,d,v,R,G,d,R,i,,,,,5,19,119,9,3,0,3,0,,,,,0,5,5,5,,,,,,up,0.4336724097811384,2298.54618948033,None,001,85,2019_Oct_31_1304,ACPT_experiment_5_30_19,3.1.0,59.94969090933626,
,,,C,D,d,v,R,D,g,L,i,,,,,5,19,119,9,3,0,3,0,,,,,0,6,6,2,,,,,,up,0.3836664328118786,2300.26419466277,None,001,85,2019_Oct_31_1304,ACPT_experiment_5_30_19,3.1.0,59.94969090933626,
,,,C,D,d,v,L,D,g,R,i,,,,,5,19,119,9,3,0,3,0,,,,,0,7,7,15,,,,,,up,0.4003155711106956,2301.93221982877,None,001,85,2019_Oct_31_1304,ACPT_experiment_5_30_19,3.1.0,59.94969090933626,
,,,C,D,d,v,R,D,g,R,i,,,,,5,19,119,9,3,0,3,0,,,,,0,8,8,3,,,,,,up,0.40008615265833214,2303.633831855608,None,001,85,2019_Oct_31_1304,ACPT_experiment_5_30_19,3.1.0,59.94969090933626,
,,,C,D,d,v,L,D,d,R,c ,,,,,5,19,119,9,3,0,3,0,,,,,0,9,9,13,,,,,,up,0.3836800168064656,2305.3182350838906,None,001,85,2019_Oct_31_1304,ACPT_experiment_5_30_19,3.1.0,59.94969090933626,
,,,C,D,d,v,R,G,d,L,i,,,,,5,19,119,9,3,0,3,0,,,,,0,10,10,4,,,,,,up,0.40032432523730677,2306.9862508920196,None,001,85,2019_Oct_31_1304,ACPT_experiment_5_30_19,3.1.0,59.94969090933626,
,,,C,D,d,v,L,G,y,R,y,,,,,5,19,119,9,3,0,3,0,,,,,0,11,11,35,,,,,,up,0.40030681698408443,2308.6709390821634,None,001,85,2019_Oct_31_1304,ACPT_experiment_5_30_19,3.1.0,59.94969090933626,
,,,C,D,d,v,L,D,y,L,y,,,,,5,19,119,9,3,0,3,0,,,,,0,12,12,32,,,,,,down,0.5835442373063415,2310.3725662023207,None,001,85,2019_Oct_31_1304,ACPT_experiment_5_30_19,3.1.0,59.94969090933626,
,,,C,D,d,v,L,D,d,L,c ,,,,,5,19,119,9,3,0,3,0,,,,,0,13,13,12,,,,,,up,0.7672706811717944,2312.2404507589526,None,001,85,2019_Oct_31_1304,ACPT_experiment_5_30_19,3.1.0,59.94969090933626,
,,,C,D,d,v,L,G,g,R,c ,,,,,5,19,119,9,3,0,3,0,,,,,0,14,14,19,,,,,,up,0.5003764273715205,2314.2920922479534,None,001,85,2019_Oct_31_1304,ACPT_experiment_5_30_19,3.1.0,59.94969090933626,
,,,C,D,d,v,R,G,g,L,c ,,,,,5,19,119,9,3,0,3,0,,,,,0,15,15,6,,,,,,up,0.5504509279853664,2316.076848237295,None,001,85,2019_Oct_31_1304,ACPT_experiment_5_30_19,3.1.0,59.94969090933626,
,,,C,D,d,v,L,G,g,L,c ,,,,,5,19,119,9,3,0,3,0,,,,,0,16,16,18,,,,,,up,0.5337821683933726,2317.894932086114,None,001,85,2019_Oct_31_1304,ACPT_experiment_5_30_19,3.1.0,59.94969090933626,
,,,C,D,d,v,R,G,g,R,c ,,,,,5,19,119,9,3,0,3,0,,,,,0,17,17,7,,,,,,up,0.5671230081352405,2319.6963918515394,None,001,85,2019_Oct_31_1304,ACPT_experiment_5_30_19,3.1.0,59.94969090933626,
,,,C,D,d,v,L,G,d,R,i,,,,,5,19,119,9,3,0,3,0,,,,,0,18,18,17,,,,,,up,0.5170726568176178,2321.5478757059172,None,001,85,2019_Oct_31_1304,ACPT_experiment_5_30_19,3.1.0,59.94969090933626,
,,,C,D,d,v,L,U,g,R,u,,,,,5,19,119,9,3,0,3,0,,,,,0,19,19,23,,,,,,up,0.400318891639472,2323.3493104164518,None,001,85,2019_Oct_31_1304,ACPT_experiment_5_30_19,3.1.0,59.94969090933626,
,,,C,D,d,v,L,U,d,L,u,,,,,5,19,119,9,3,0,3,0,,,,,0,20,20,20,,,,,,up,0.46706275560427457,2325.0339629863593,None,001,85,2019_Oct_31_1304,ACPT_experiment_5_30_19,3.1.0,59.94969090933626,
,,,C,D,d,v,R,U,d,R,u,,,,,5,19,119,9,3,0,3,0,,,,,0,21,21,9,,,,,,up,0.4336760321602924,2326.785386588206,None,001,85,2019_Oct_31_1304,ACPT_experiment_5_30_19,3.1.0,59.94969090933626,
,,,C,D,d,v,R,G,y,L,y,,,,,5,19,119,9,3,0,3,0,,,,,0,22,22,28,,,,,,down,0.5671242155949585,2328.503426485273,None,001,85,2019_Oct_31_1304,ACPT_experiment_5_30_19,3.1.0,59.94969090933626,
,,,C,D,d,v,L,U,g,L,u,,,,,5,19,119,9,3,0,3,0,,,,,0,23,23,22,,,,,,up,0.5835270309326006,2330.3718559107365,None,001,85,2019_Oct_31_1304,ACPT_experiment_5_30_19,3.1.0,59.94969090933626,
,,,C,D,d,v,R,U,y,R,u,,,,,5,19,119,9,3,0,3,0,,,,,0,24,24,31,,,,,,down,0.8173092596989591,2332.23974952336,None,001,85,2019_Oct_31_1304,ACPT_experiment_5_30_19,3.1.0,59.94969090933626,
,,,C,D,d,v,L,U,y,L,u,,,,,5,19,119,9,3,0,3,0,,,,,0,25,25,24,,,,,,down,0.9507607636478497,2334.3414175162325,None,001,85,2019_Oct_31_1304,ACPT_experiment_5_30_19,3.1.0,59.94969090933626,
,,,C,D,d,v,L,D,y,R,y,,,,,5,19,119,9,3,0,3,0,,,,,0,26,26,33,,,,,,down,0.7172429698257474,2336.593215432382,None,001,85,2019_Oct_31_1304,ACPT_experiment_5_30_19,3.1.0,59.94969090933626,
,,,C,D,d,v,L,G,d,L,i,,,,,5,19,119,9,3,0,3,0,,,,,0,27,27,16,,,,,,up,0.41699248109944165,2338.6114904229908,None,001,85,2019_Oct_31_1304,ACPT_experiment_5_30_19,3.1.0,59.94969090933626,
,,,C,D,d,v,R,D,y,L,y,,,,,5,19,119,9,3,0,3,0,,,,,0,28,28,26,,,,,,down,0.5337697918730555,2340.3128461652814,None,001,85,2019_Oct_31_1304,ACPT_experiment_5_30_19,3.1.0,59.94969090933626,
,,,C,D,d,v,R,D,d,L,c,,,,,5,19,119,9,3,0,3,0,,,,,0,29,29,0,,,,,,up,0.6838637930632103,2342.1309743884485,None,001,85,2019_Oct_31_1304,ACPT_experiment_5_30_19,3.1.0,59.94969090933626,
,,,C,D,d,v,R,G,y,R,y,,,,,5,19,119,9,3,0,3,0,,,,,0,30,30,29,,,,,,down,0.5337553022836801,2344.0992035557574,None,001,85,2019_Oct_31_1304,ACPT_experiment_5_30_19,3.1.0,59.94969090933626,
,,,C,D,d,v,L,D,g,L,i,,,,,5,19,119,9,3,0,3,0,,,,,0,31,31,14,,,,,,up,0.5171028434560867,2345.9172964605677,None,001,85,2019_Oct_31_1304,ACPT_experiment_5_30_19,3.1.0,59.94969090933626,
,,,C,D,d,v,L,U,d,R,u,,,,,5,19,119,9,3,0,3,0,,,,,0,32,32,21,,,,,,up,0.46704373801185284,2347.718753509209,None,001,85,2019_Oct_31_1304,ACPT_experiment_5_30_19,3.1.0,59.94969090933626,
,,,C,D,d,v,R,U,g,L,u,,,,,5,19,119,9,3,0,3,0,,,,,0,33,33,10,,,,,,up,0.4167084248474566,2349.4871284175897,None,001,85,2019_Oct_31_1304,ACPT_experiment_5_30_19,3.1.0,59.94969090933626,
,,,C,D,d,v,R,U,y,L,u,,,,,5,19,119,9,3,0,3,0,,,,,0,34,34,30,,,,,,down,0.6839205439464422,2351.171491195768,None,001,85,2019_Oct_31_1304,ACPT_experiment_5_30_19,3.1.0,59.94969090933626,
,,,C,D,d,v,L,G,y,L,y,,,,,5,19,119,9,3,0,3,0,,,,,0,35,35,34,,,,,,down,0.5170992210623808,2353.123045264263,None,001,85,2019_Oct_31_1304,ACPT_experiment_5_30_19,3.1.0,59.94969090933626,
,,,C,D,d,v,L,D,y,R,y,,,,,5,19,119,9,3,0,3,0,,,,,1,0,36,33,,,,,,down,0.7506100719474489,2354.924505331568,None,001,85,2019_Oct_31_1304,ACPT_experiment_5_30_19,3.1.0,59.94969090933626,
,,,C,D,d,v,R,D,y,R,y,,,,,5,19,119,9,3,0,3,0,,,,,1,1,37,27,,,,,,down,1.134166927280603,2356.976198137854,None,001,85,2019_Oct_31_1304,ACPT_experiment_5_30_19,3.1.0,59.94969090933626,
,,,C,D,d,v,R,D,d,R,c ,,,,,5,19,119,9,3,0,3,0,,,,,1,2,38,1,,,,,,up,0.733914748110692,2359.4114224426885,None,001,85,2019_Oct_31_1304,ACPT_experiment_5_30_19,3.1.0,59.94969090933626,
,,,C,D,d,v,L,G,g,L,c ,,,,,5,19,119,9,3,0,3,0,,,,,1,3,39,18,,,,,,up,1.0008201709424611,2361.4296732839866,None,001,85,2019_Oct_31_1304,ACPT_experiment_5_30_19,3.1.0,59.94969090933626,
,,,C,D,d,v,L,D,d,L,c ,,,,,5,19,119,9,3,0,3,0,,,,,1,4,40,12,,,,,,up,0.617153436265653,2363.7148543011863,None,001,85,2019_Oct_31_1304,ACPT_experiment_5_30_19,3.1.0,59.94969090933626,
,,,C,D,d,v,R,U,d,R,u,,,,,5,19,119,9,3,0,3,0,,,,,1,5,41,9,,,,,,up,0.4003430409502471,2365.599669033705,None,001,85,2019_Oct_31_1304,ACPT_experiment_5_30_19,3.1.0,59.94969090933626,
,,,C,D,d,v,R,U,d,L,u,,,,,5,19,119,9,3,0,3,0,,,,,1,6,42,8,,,,,,up,0.3669548081961693,2367.2676908791764,None,001,85,2019_Oct_31_1304,ACPT_experiment_5_30_19,3.1.0,59.94969090933626,
,,,C,D,d,v,R,D,d,L,c,,,,,5,19,119,9,3,0,3,0,,,,,1,7,43,0,,,,,,up,0.6005163726222236,2368.91898178056,None,001,85,2019_Oct_31_1304,ACPT_experiment_5_30_19,3.1.0,59.94969090933626,
,,,C,D,d,v,R,G,y,L,y,,,,,5,19,119,9,3,0,3,0,,,,,1,8,44,28,,,,,,down,0.567137497724616,2370.8038439061056,None,001,85,2019_Oct_31_1304,ACPT_experiment_5_30_19,3.1.0,59.94969090933626,
,,,C,D,d,v,L,U,d,L,u,,,,,5,19,119,9,3,0,3,0,,,,,1,9,45,20,,,,,,up,0.46703709695430007,2372.6553244399547,None,001,85,2019_Oct_31_1304,ACPT_experiment_5_30_19,3.1.0,59.94969090933626,
,,,C,D,d,v,R,D,g,L,i,,,,,5,19,119,9,3,0,3,0,,,,,1,10,46,2,,,,,,up,0.9504821409936994,2374.423676708364,None,001,85,2019_Oct_31_1304,ACPT_experiment_5_30_19,3.1.0,59.94969090933626,
,,,C,D,d,v,R,G,g,R,c ,,,,,5,19,119,9,3,0,3,0,,,,,1,11,47,7,,,,,,up,0.6505250663758488,2376.6585362982296,None,001,85,2019_Oct_31_1304,ACPT_experiment_5_30_19,3.1.0,59.94969090933626,
,,,C,D,d,v,L,G,g,R,c ,,,,,5,19,119,9,3,0,3,0,,,,,1,12,48,19,,,,,,up,0.5003966524236603,2378.593393533549,None,001,85,2019_Oct_31_1304,ACPT_experiment_5_30_19,3.1.0,59.94969090933626,
,,,C,D,d,v,L,U,y,L,u,,,,,5,19,119,9,3,0,3,0,,,,,1,13,49,24,,,,,,down,0.7172441773000173,2380.378146504212,None,001,85,2019_Oct_31_1304,ACPT_experiment_5_30_19,3.1.0,59.94969090933626,
,,,C,D,d,v,R,U,g,L,u,,,,,5,19,119,9,3,0,3,0,,,,,1,14,50,10,,,,,,up,0.5337281343090581,2382.3797723565367,None,001,85,2019_Oct_31_1304,ACPT_experiment_5_30_19,3.1.0,59.94969090933626,
,,,C,D,d,v,R,G,d,L,i,,,,,5,19,119,9,3,0,3,0,,,,,1,15,51,4,,,,,,up,0.35027518139395397,2384.1978643557522,None,001,85,2019_Oct_31_1304,ACPT_experiment_5_30_19,3.1.0,59.94969090933626,
,,,C,D,d,v,L,D,y,L,y,,,,,5,19,119,9,3,0,3,0,,,,,1,16,52,32,,,,,,down,0.5838445943518309,2385.8324792527274,None,001,85,2019_Oct_31_1304,ACPT_experiment_5_30_19,3.1.0,59.94969090933626,
,,,C,D,d,v,R,G,d,R,i,,,,,5,19,119,9,3,0,3,0,,,,,1,17,53,5,,,,,,up,0.483473117579706,2387.734262800048,None,001,85,2019_Oct_31_1304,ACPT_experiment_5_30_19,3.1.0,59.94969090933626,
,,,C,D,d,v,L,U,g,R,u,,,,,5,19,119,9,3,0,3,0,,,,,1,18,54,23,,,,,,up,0.5671266305434983,2389.5020964620053,None,001,85,2019_Oct_31_1304,ACPT_experiment_5_30_19,3.1.0,59.94969090933626,
,,,C,D,d,v,L,U,y,R,u,,,,,5,19,119,9,3,0,3,0,,,,,1,19,55,25,,,,,,down,0.7172755713982042,2391.336873219756,None,001,85,2019_Oct_31_1304,ACPT_experiment_5_30_19,3.1.0,59.94969090933626,
,,,C,D,d,v,L,D,g,R,i,,,,,5,19,119,9,3,0,3,0,,,,,1,20,56,15,,,,,,up,0.6338692870194791,2393.3384688854276,None,001,85,2019_Oct_31_1304,ACPT_experiment_5_30_19,3.1.0,59.94969090933626,
,,,C,D,d,v,R,U,g,R,u,,,,,5,19,119,9,3,0,3,0,,,,,1,21,57,11,,,,,,up,0.43368056016333867,2395.2566887552384,None,001,85,2019_Oct_31_1304,ACPT_experiment_5_30_19,3.1.0,59.94969090933626,
,,,C,D,d,v,R,G,y,R,y,,,,,5,19,119,9,3,0,3,0,,,,,1,22,58,29,,,,,,down,0.6338608347723493,2396.9747241243167,None,001,85,2019_Oct_31_1304,ACPT_experiment_5_30_19,3.1.0,59.94969090933626,
,,,C,D,d,v,R,D,y,L,y,,,,,5,19,119,9,3,0,3,0,,,,,1,23,59,26,,,,,,down,0.8173198250005953,2398.8929201466963,None,001,85,2019_Oct_31_1304,ACPT_experiment_5_30_19,3.1.0,59.94969090933626,
,,,C,D,d,v,L,G,y,L,y,,,,,5,19,119,9,3,0,3,0,,,,,1,24,60,34,,,,,,down,0.5502121516910847,2401.0115249565133,None,001,85,2019_Oct_31_1304,ACPT_experiment_5_30_19,3.1.0,59.94969090933626,
,,,C,D,d,v,L,D,d,R,c ,,,,,5,19,119,9,3,0,3,0,,,,,1,25,61,13,,,,,,up,0.5170711474784184,2402.8460795405845,None,001,85,2019_Oct_31_1304,ACPT_experiment_5_30_19,3.1.0,59.94969090933626,
,,,C,D,d,v,L,G,y,R,y,,,,,5,19,119,9,3,0,3,0,,,,,1,26,62,35,,,,,,down,0.5170795997401001,2404.6475157604436,None,001,85,2019_Oct_31_1304,ACPT_experiment_5_30_19,3.1.0,59.94969090933626,
,,,C,D,d,v,L,U,g,L,u,,,,,5,19,119,9,3,0,3,0,,,,,1,27,63,22,,,,,,up,0.5504415701288963,2406.448953489642,None,001,85,2019_Oct_31_1304,ACPT_experiment_5_30_19,3.1.0,59.94969090933626,
,,,C,D,d,v,R,D,g,R,i,,,,,5,19,119,9,3,0,3,0,,,,,1,28,64,3,,,,,,up,0.48344504402484745,2408.300706306967,None,001,85,2019_Oct_31_1304,ACPT_experiment_5_30_19,3.1.0,59.94969090933626,
,,,C,D,d,v,L,G,d,R,i,,,,,5,19,119,9,3,0,3,0,,,,,1,29,65,17,,,,,,up,0.6338375910563627,2410.068510687881,None,001,85,2019_Oct_31_1304,ACPT_experiment_5_30_19,3.1.0,59.94969090933626,
,,,C,D,d,v,L,D,g,L,i,,,,,5,19,119,9,3,0,3,0,,,,,1,30,66,14,,,,,,up,0.5671136502787704,2411.9867094270594,None,001,85,2019_Oct_31_1304,ACPT_experiment_5_30_19,3.1.0,59.94969090933626,
,,,C,D,d,v,L,U,d,R,u,,,,,5,19,119,9,3,0,3,0,,,,,1,31,67,21,,,,,,up,0.4336956534825731,2413.8381624910544,None,001,85,2019_Oct_31_1304,ACPT_experiment_5_30_19,3.1.0,59.94969090933626,
,,,C,D,d,v,L,G,d,L,i,,,,,5,19,119,9,3,0,3,0,,,,,1,32,68,16,,,,,,up,0.40030198711610865,2415.5729149183608,None,001,85,2019_Oct_31_1304,ACPT_experiment_5_30_19,3.1.0,59.94969090933626,
,,,C,D,d,v,R,G,g,L,c ,,,,,5,19,119,9,3,0,3,0,,,,,1,33,69,6,,,,,,up,0.6004795449262019,2417.2575795629236,None,001,85,2019_Oct_31_1304,ACPT_experiment_5_30_19,3.1.0,59.94969090933626,
,,,C,D,d,v,R,U,y,L,u,,,,,5,19,119,9,3,0,3,0,,,,,1,34,70,30,,,,,,down,0.6505271794449072,2419.142414822374,None,001,85,2019_Oct_31_1304,ACPT_experiment_5_30_19,3.1.0,59.94969090933626,
,,,C,D,d,v,R,U,y,R,u,,,,,5,19,119,9,3,0,3,0,,,,,1,35,71,31,,,,,,down,0.6672128435602644,2421.060594845825,None,001,85,2019_Oct_31_1304,ACPT_experiment_5_30_19,3.1.0,59.94969090933626,
,,,C,D,d,v,,,,,,,,,,5,19,119,9,4,0,4,0,0,0,0,0,,,,,,,,,,,,,,001,85,2019_Oct_31_1304,ACPT_experiment_5_30_19,3.1.0,59.94969090933626,
,,,C,D,d,v,L,G,d,R,i,,,,,5,19,119,9,4,0,4,0,,,,,0,0,0,17,,,,,,up,0.5168058069393737,2428.2666349505744,None,001,85,2019_Oct_31_1304,ACPT_experiment_5_30_19,3.1.0,59.94969090933626,
,,,C,D,d,v,R,G,d,L,i,,,,,5,19,119,9,4,0,4,0,,,,,0,1,1,4,,,,,,up,0.41701632855983917,2430.0511023556464,None,001,85,2019_Oct_31_1304,ACPT_experiment_5_30_19,3.1.0,59.94969090933626,
,,,C,D,d,v,R,D,g,R,i,,,,,5,19,119,9,4,0,4,0,,,,,0,2,2,3,,,,,,up,0.38364258538058493,2431.7524753043253,None,001,85,2019_Oct_31_1304,ACPT_experiment_5_30_19,3.1.0,59.94969090933626,
,,,C,D,d,v,L,G,g,R,c ,,,,,5,19,119,9,4,0,4,0,,,,,0,3,3,19,,,,,,up,0.35030174563871697,2433.4204702836723,None,001,85,2019_Oct_31_1304,ACPT_experiment_5_30_19,3.1.0,59.94969090933626,
,,,C,D,d,v,R,D,y,L,y,,,,,5,19,119,9,4,0,4,0,,,,,0,4,4,26,,,,,,down,0.5001370473328279,2435.0720533917192,None,001,85,2019_Oct_31_1304,ACPT_experiment_5_30_19,3.1.0,59.94969090933626,
,,,C,D,d,v,R,U,d,R,u,,,,,5,19,119,9,4,0,4,0,,,,,0,5,5,9,,,,,,up,0.4336763340397738,2436.8565515871596,None,001,85,2019_Oct_31_1304,ACPT_experiment_5_30_19,3.1.0,59.94969090933626,
,,,C,D,d,v,R,U,g,L,u,,,,,5,19,119,9,4,0,4,0,,,,,0,6,6,10,,,,,,up,0.3502673328766832,2438.5579100462346,None,001,85,2019_Oct_31_1304,ACPT_experiment_5_30_19,3.1.0,59.94969090933626,
,,,C,D,d,v,L,D,y,R,y,,,,,5,19,119,9,4,0,4,0,,,,,0,7,7,33,,,,,,up,0.4336736172408564,2440.209227209998,None,001,85,2019_Oct_31_1304,ACPT_experiment_5_30_19,3.1.0,59.94969090933626,
,,,C,D,d,v,L,D,y,L,y,,,,,5,19,119,9,4,0,4,0,,,,,0,8,8,32,,,,,,down,0.44689928891602904,2441.964076995253,None,001,85,2019_Oct_31_1304,ACPT_experiment_5_30_19,3.1.0,59.94969090933626,
,,,C,D,d,v,L,U,d,R,u,,,,,5,19,119,9,4,0,4,0,,,,,0,9,9,21,,,,,,up,0.4670395119028399,2443.695341054685,None,001,85,2019_Oct_31_1304,ACPT_experiment_5_30_19,3.1.0,59.94969090933626,
,,,C,D,d,v,R,U,d,L,u,,,,,5,19,119,9,4,0,4,0,,,,,0,10,10,8,,,,,,up,0.48373060961603187,2445.446717867235,None,001,85,2019_Oct_31_1304,ACPT_experiment_5_30_19,3.1.0,59.94969090933626,
,,,C,D,d,v,L,D,g,R,i,,,,,5,19,119,9,4,0,4,0,,,,,0,11,11,15,,,,,,up,0.3669388092675945,2447.214834981729,None,001,85,2019_Oct_31_1304,ACPT_experiment_5_30_19,3.1.0,59.94969090933626,
,,,C,D,d,v,L,U,g,R,u,,,,,5,19,119,9,4,0,4,0,,,,,0,12,12,23,,,,,,up,0.4665507902245736,2448.883274308406,None,001,85,2019_Oct_31_1304,ACPT_experiment_5_30_19,3.1.0,59.94969090933626,
,,,C,D,d,v,R,D,d,R,c ,,,,,5,19,119,9,4,0,4,0,,,,,0,13,13,1,,,,,,up,0.4003143636364257,2450.6342143203074,None,001,85,2019_Oct_31_1304,ACPT_experiment_5_30_19,3.1.0,59.94969090933626,
,,,C,D,d,v,L,G,y,L,y,,,,,5,19,119,9,4,0,4,0,,,,,0,14,14,34,,,,,,down,0.5337728105223505,2452.3188723238127,None,001,85,2019_Oct_31_1304,ACPT_experiment_5_30_19,3.1.0,59.94969090933626,
,,,C,D,d,v,L,D,d,L,c ,,,,,5,19,119,9,4,0,4,0,,,,,0,15,15,12,,,,,,down,0.6005236174241873,2454.136981529402,None,001,85,2019_Oct_31_1304,ACPT_experiment_5_30_19,3.1.0,59.94969090933626,
,,,C,D,d,v,R,U,g,R,u,,,,,5,19,119,9,4,0,4,0,,,,,0,16,16,11,,,,,,up,0.5168616522132652,2456.038773528984,None,001,85,2019_Oct_31_1304,ACPT_experiment_5_30_19,3.1.0,59.94969090933626,
,,,C,D,d,v,R,G,g,R,c ,,,,,5,19,119,9,4,0,4,0,,,,,0,17,17,7,,,,,,up,0.5337592265423154,2457.839964633342,None,001,85,2019_Oct_31_1304,ACPT_experiment_5_30_19,3.1.0,59.94969090933626,
,,,C,D,d,v,R,G,d,R,i,,,,,5,19,119,9,4,0,4,0,,,,,0,18,18,5,,,,,,up,0.48373936374264304,2459.64137791135,None,001,85,2019_Oct_31_1304,ACPT_experiment_5_30_19,3.1.0,59.94969090933626,
,,,C,D,d,v,L,U,d,L,u,,,,,5,19,119,9,4,0,4,0,,,,,0,19,19,20,,,,,,up,0.46706728360732086,2461.409449444036,None,001,85,2019_Oct_31_1304,ACPT_experiment_5_30_19,3.1.0,59.94969090933626,
,,,C,D,d,v,L,D,d,R,c ,,,,,5,19,119,9,4,0,4,0,,,,,0,20,20,13,,,,,,up,0.3836262845870806,2463.177566860395,None,001,85,2019_Oct_31_1304,ACPT_experiment_5_30_19,3.1.0,59.94969090933626,
,,,C,D,d,v,R,G,y,R,y,,,,,5,19,119,9,4,0,4,0,,,,,0,21,21,29,,,,,,down,0.8006420094170608,2464.845550066966,None,001,85,2019_Oct_31_1304,ACPT_experiment_5_30_19,3.1.0,59.94969090933626,
,,,C,D,d,v,L,G,g,L,c ,,,,,5,19,119,9,4,0,4,0,,,,,0,22,22,18,,,,,,up,0.5171028434706386,2466.930522132243,None,001,85,2019_Oct_31_1304,ACPT_experiment_5_30_19,3.1.0,59.94969090933626,
,,,C,D,d,v,R,G,y,L,y,,,,,5,19,119,9,4,0,4,0,,,,,0,23,23,28,,,,,,down,0.9841432609537151,2468.731962880105,None,001,85,2019_Oct_31_1304,ACPT_experiment_5_30_19,3.1.0,59.94969090933626,
,,,C,D,d,v,R,U,y,R,u,,,,,5,19,119,9,4,0,4,0,,,,,0,24,24,31,,,,,,down,0.5170841277431464,2470.9837783045077,None,001,85,2019_Oct_31_1304,ACPT_experiment_5_30_19,3.1.0,59.94969090933626,
,,,C,D,d,v,L,G,d,L,i,,,,,5,19,119,9,4,0,4,0,,,,,0,25,25,16,,,,,,up,0.600532069671317,2472.7852199579647,None,001,85,2019_Oct_31_1304,ACPT_experiment_5_30_19,3.1.0,59.94969090933626,
,,,C,D,d,v,R,D,g,L,i,,,,,5,19,119,9,4,0,4,0,,,,,0,26,26,2,,,,,,up,0.5171007304015802,2474.6700585379294,None,001,85,2019_Oct_31_1304,ACPT_experiment_5_30_19,3.1.0,59.94969090933626,
,,,C,D,d,v,R,G,g,L,c ,,,,,5,19,119,9,4,0,4,0,,,,,0,27,27,6,,,,,,up,0.4334043524286244,2476.4884505923255,None,001,85,2019_Oct_31_1304,ACPT_experiment_5_30_19,3.1.0,59.94969090933626,
,,,C,D,d,v,R,U,y,L,u,,,,,5,19,119,9,4,0,4,0,,,,,0,28,28,30,,,,,,down,0.6171769818465691,2478.206210659264,None,001,85,2019_Oct_31_1304,ACPT_experiment_5_30_19,3.1.0,59.94969090933626,
,,,C,D,d,v,L,U,y,R,u,,,,,5,19,119,9,4,0,4,0,,,,,0,29,29,25,,,,,,down,0.7005862848745892,2480.107730073505,None,001,85,2019_Oct_31_1304,ACPT_experiment_5_30_19,3.1.0,59.94969090933626,
,,,C,D,d,v,L,D,g,L,i,,,,,5,19,119,9,4,0,4,0,,,,,0,30,30,14,,,,,,up,0.5671202913363231,2482.092647923593,None,001,85,2019_Oct_31_1304,ACPT_experiment_5_30_19,3.1.0,59.94969090933626,
,,,C,D,d,v,L,U,g,L,u,,,,,5,19,119,9,4,0,4,0,,,,,0,31,31,22,,,,,,up,0.500431065185694,2483.9441239294392,None,001,85,2019_Oct_31_1304,ACPT_experiment_5_30_19,3.1.0,59.94969090933626,
,,,C,D,d,v,R,D,y,R,y,,,,,5,19,119,9,4,0,4,0,,,,,0,32,32,27,,,,,,down,0.4836958949890686,2485.7288841449044,None,001,85,2019_Oct_31_1304,ACPT_experiment_5_30_19,3.1.0,59.94969090933626,
,,,C,D,d,v,L,U,y,L,u,,,,,5,19,119,9,4,0,4,0,,,,,0,33,33,24,,,,,,down,0.5671193857415346,2487.4969602055644,None,001,85,2019_Oct_31_1304,ACPT_experiment_5_30_19,3.1.0,59.94969090933626,
,,,C,D,d,v,R,D,d,L,c,,,,,5,19,119,9,4,0,4,0,,,,,0,34,34,0,,,,,,up,0.5170642045559362,2489.3651345539256,None,001,85,2019_Oct_31_1304,ACPT_experiment_5_30_19,3.1.0,59.94969090933626,
,,,C,D,d,v,L,G,y,R,y,,,,,5,19,119,9,4,0,4,0,,,,,0,35,35,35,,,,,,down,0.5004253297229297,2491.166533040494,None,001,85,2019_Oct_31_1304,ACPT_experiment_5_30_19,3.1.0,59.94969090933626,
,,,C,D,d,v,L,U,y,L,u,,,,,5,19,119,9,4,0,4,0,,,,,1,0,36,24,,,,,,down,0.6004753187880851,2492.951312575402,None,001,85,2019_Oct_31_1304,ACPT_experiment_5_30_19,3.1.0,59.94969090933626,
,,,C,D,d,v,R,G,g,R,c ,,,,,5,19,119,9,4,0,4,0,,,,,1,1,37,7,,,,,,up,0.6505434802384116,2494.836144212444,None,001,85,2019_Oct_31_1304,ACPT_experiment_5_30_19,3.1.0,59.94969090933626,
,,,C,D,d,v,L,D,y,R,y,,,,,5,19,119,9,4,0,4,0,,,,,1,2,38,33,,,,,,down,0.6171585679840064,2496.771025898939,None,001,85,2019_Oct_31_1304,ACPT_experiment_5_30_19,3.1.0,59.94969090933626,
,,,C,D,d,v,R,D,y,L,y,,,,,5,19,119,9,4,0,4,0,,,,,1,3,39,26,,,,,,up,0.5837881453480804,2498.6892261474277,None,001,85,2019_Oct_31_1304,ACPT_experiment_5_30_19,3.1.0,59.94969090933626,
,,,C,D,d,v,L,G,y,L,y,,,,,5,19,119,9,4,0,4,0,,,,,1,4,40,34,,,,,,down,0.5504285898932721,2500.574065331137,None,001,85,2019_Oct_31_1304,ACPT_experiment_5_30_19,3.1.0,59.94969090933626,
,,,C,D,d,v,L,U,g,R,u,,,,,5,19,119,9,4,0,4,0,,,,,1,5,41,23,,,,,,up,0.46680465985264163,2502.4257752834237,None,001,85,2019_Oct_31_1304,ACPT_experiment_5_30_19,3.1.0,59.94969090933626,
,,,C,D,d,v,R,U,d,R,u,,,,,5,19,119,9,4,0,4,0,,,,,1,6,42,9,,,,,,up,0.5337568116228795,2504.1769392801943,None,001,85,2019_Oct_31_1304,ACPT_experiment_5_30_19,3.1.0,59.94969090933626,
,,,C,D,d,v,R,G,d,R,i,,,,,5,19,119,9,4,0,4,0,,,,,1,7,43,5,,,,,,up,0.5337722068070434,2505.9950349018036,None,001,85,2019_Oct_31_1304,ACPT_experiment_5_30_19,3.1.0,59.94969090933626,
,,,C,D,d,v,L,G,y,R,y,,,,,5,19,119,9,4,0,4,0,,,,,1,8,44,35,,,,,,down,0.5504500224051299,2507.8298358088505,None,001,85,2019_Oct_31_1304,ACPT_experiment_5_30_19,3.1.0,59.94969090933626,
,,,C,D,d,v,L,G,g,R,c ,,,,,5,19,119,9,4,0,4,0,,,,,1,9,45,19,,,,,,up,0.5168613503628876,2509.6982492353854,None,001,85,2019_Oct_31_1304,ACPT_experiment_5_30_19,3.1.0,59.94969090933626,
,,,C,D,d,v,L,G,d,R,i,,,,,5,19,119,9,4,0,4,0,,,,,1,10,46,17,,,,,,up,0.4670316633564653,2511.4994472826656,None,001,85,2019_Oct_31_1304,ACPT_experiment_5_30_19,3.1.0,59.94969090933626,
,,,C,D,d,v,L,D,y,L,y,,,,,5,19,119,9,4,0,4,0,,,,,1,11,47,32,,,,,,down,0.6004719982593087,2513.250846735202,None,001,85,2019_Oct_31_1304,ACPT_experiment_5_30_19,3.1.0,59.94969090933626,
,,,C,D,d,v,R,U,g,R,u,,,,,5,19,119,9,4,0,4,0,,,,,1,12,48,11,,,,,,up,0.9841130743152462,2515.135681692773,None,001,85,2019_Oct_31_1304,ACPT_experiment_5_30_19,3.1.0,59.94969090933626,
,,,C,D,d,v,L,U,g,L,u,,,,,5,19,119,9,4,0,4,0,,,,,1,13,49,22,,,,,,up,0.5337580190825975,2517.4041580282646,None,001,85,2019_Oct_31_1304,ACPT_experiment_5_30_19,3.1.0,59.94969090933626,
,,,C,D,d,v,L,D,g,L,i,,,,,5,19,119,9,4,0,4,0,,,,,1,14,50,14,,,,,,up,0.500428650266258,2519.2222726674518,None,001,85,2019_Oct_31_1304,ACPT_experiment_5_30_19,3.1.0,59.94969090933626,
,,,C,D,d,v,R,D,g,L,i,,,,,5,19,119,9,4,0,4,0,,,,,1,15,51,2,,,,,,up,0.6171304944145959,2521.0070657863544,None,001,85,2019_Oct_31_1304,ACPT_experiment_5_30_19,3.1.0,59.94969090933626,
,,,C,D,d,v,L,D,d,L,c ,,,,,5,19,119,9,4,0,4,0,,,,,1,16,52,12,,,,,,up,0.5167949397582561,2522.9255078298156,None,001,85,2019_Oct_31_1304,ACPT_experiment_5_30_19,3.1.0,59.94969090933626,
,,,C,D,d,v,L,D,g,R,i,,,,,5,19,119,9,4,0,4,0,,,,,1,17,53,15,,,,,,up,0.4003370036225533,2524.7099655751663,None,001,85,2019_Oct_31_1304,ACPT_experiment_5_30_19,3.1.0,59.94969090933626,
,,,C,D,d,v,R,D,d,R,c ,,,,,5,19,119,9,4,0,4,0,,,,,1,18,54,1,,,,,,up,0.36699012655299157,2526.3946667455602,None,001,85,2019_Oct_31_1304,ACPT_experiment_5_30_19,3.1.0,59.94969090933626,
,,,C,D,d,v,L,G,d,L,i,,,,,5,19,119,9,4,0,4,0,,,,,1,19,55,16,,,,,,up,0.41701964908861555,2528.04595523201,None,001,85,2019_Oct_31_1304,ACPT_experiment_5_30_19,3.1.0,59.94969090933626,
,,,C,D,d,v,R,U,y,L,u,,,,,5,19,119,9,4,0,4,0,,,,,1,20,56,30,,,,,,up,0.46701838124135975,2529.7640340698563,None,001,85,2019_Oct_31_1304,ACPT_experiment_5_30_19,3.1.0,59.94969090933626,
,,,C,D,d,v,L,U,d,L,u,,,,,5,19,119,9,4,0,4,0,,,,,1,21,57,20,,,,,,up,0.517092580004828,2531.515396090952,None,001,85,2019_Oct_31_1304,ACPT_experiment_5_30_19,3.1.0,59.94969090933626,
,,,C,D,d,v,R,D,y,R,y,,,,,5,19,119,9,4,0,4,0,,,,,1,22,58,27,,,,,,down,1.2343189471866935,2533.3502087707893,None,001,85,2019_Oct_31_1304,ACPT_experiment_5_30_19,3.1.0,59.94969090933626,
,,,C,D,d,v,R,G,d,L,i,,,,,5,19,119,9,4,0,4,0,,,,,1,23,59,4,,,,,,up,0.5004189905303065,2535.8855754358083,None,001,85,2019_Oct_31_1304,ACPT_experiment_5_30_19,3.1.0,59.94969090933626,
,,,C,D,d,v,L,U,d,R,u,,,,,5,19,119,9,4,0,4,0,,,,,1,24,60,21,,,,,,up,0.3836558674956905,2537.670329010216,None,001,85,2019_Oct_31_1304,ACPT_experiment_5_30_19,3.1.0,59.94969090933626,
,,,C,D,d,v,L,D,d,R,c ,,,,,5,19,119,9,4,0,4,0,,,,,1,25,61,13,,,,,,up,0.38352093323192094,2539.338327913836,None,001,85,2019_Oct_31_1304,ACPT_experiment_5_30_19,3.1.0,59.94969090933626,
,,,C,D,d,v,R,U,d,L,u,,,,,5,19,119,9,4,0,4,0,,,,,1,26,62,8,,,,,,up,0.33360642177285627,2540.989633002944,None,001,85,2019_Oct_31_1304,ACPT_experiment_5_30_19,3.1.0,59.94969090933626,
,,,C,D,d,v,R,D,g,R,i,,,,,5,19,119,9,4,0,4,0,,,,,1,27,63,3,,,,,,up,0.28023191790271085,2542.627606767128,None,001,85,2019_Oct_31_1304,ACPT_experiment_5_30_19,3.1.0,59.94969090933626,
,,,C,D,d,v,L,U,y,R,u,,,,,5,19,119,9,4,0,4,0,,,,,1,28,64,25,,,,,,down,0.5837926733365748,2544.1921992294083,None,001,85,2019_Oct_31_1304,ACPT_experiment_5_30_19,3.1.0,59.94969090933626,
,,,C,D,d,v,L,G,g,L,c ,,,,,5,19,119,9,4,0,4,0,,,,,1,29,65,18,,,,,,up,0.5170792978751706,2546.0603560695163,None,001,85,2019_Oct_31_1304,ACPT_experiment_5_30_19,3.1.0,59.94969090933626,
,,,C,D,d,v,R,D,d,L,c,,,,,5,19,119,9,4,0,4,0,,,,,1,30,66,0,,,,,,up,0.7506191279535415,2547.861772969918,None,001,85,2019_Oct_31_1304,ACPT_experiment_5_30_19,3.1.0,59.94969090933626,
,,,C,D,d,v,R,G,g,L,c ,,,,,5,19,119,9,4,0,4,0,,,,,1,31,67,6,,,,,,up,0.4803895525255939,2549.916759138403,None,001,85,2019_Oct_31_1304,ACPT_experiment_5_30_19,3.1.0,59.94969090933626,
,,,C,D,d,v,R,G,y,R,y,,,,,5,19,119,9,4,0,4,0,,,,,1,32,68,29,,,,,,down,0.5337604340165854,2551.6815089334414,None,001,85,2019_Oct_31_1304,ACPT_experiment_5_30_19,3.1.0,59.94969090933626,
,,,C,D,d,v,R,U,y,R,u,,,,,5,19,119,9,4,0,4,0,,,,,1,33,69,31,,,,,,down,0.8840446713875281,2553.4996241763583,None,001,85,2019_Oct_31_1304,ACPT_experiment_5_30_19,3.1.0,59.94969090933626,
,,,C,D,d,v,R,G,y,L,y,,,,,5,19,119,9,4,0,4,0,,,,,1,34,70,28,,,,,,down,0.7672860763414064,2555.668017015618,None,001,85,2019_Oct_31_1304,ACPT_experiment_5_30_19,3.1.0,59.94969090933626,
,,,C,D,d,v,R,U,g,L,u,,,,,5,19,119,9,4,0,4,0,,,,,1,35,71,10,,,,,,up,0.5671399126586039,2557.7196361664974,None,001,85,2019_Oct_31_1304,ACPT_experiment_5_30_19,3.1.0,59.94969090933626,
,,,C,D,d,v,,,,,,,,,,5,19,119,9,5,0,5,0,0,0,0,0,,,,,,,,,,,,,,001,85,2019_Oct_31_1304,ACPT_experiment_5_30_19,3.1.0,59.94969090933626,
,,,C,D,d,v,R,D,d,L,c,,,,,5,19,119,9,5,0,5,0,,,,,0,0,0,0,,,,,,up,0.600194884929806,2562.6071704132337,None,001,85,2019_Oct_31_1304,ACPT_experiment_5_30_19,3.1.0,59.94969090933626,
,,,C,D,d,v,L,G,y,L,y,,,,,5,19,119,9,5,0,5,0,,,,,0,1,1,34,,,,,,up,0.43368448443652596,2564.4917324836133,None,001,85,2019_Oct_31_1304,ACPT_experiment_5_30_19,3.1.0,59.94969090933626,
,,,C,D,d,v,R,D,y,R,y,,,,,5,19,119,9,5,0,5,0,,,,,0,2,2,27,,,,,,down,0.7005600225093076,2566.209769965746,None,001,85,2019_Oct_31_1304,ACPT_experiment_5_30_19,3.1.0,59.94969090933626,
,,,C,D,d,v,R,G,d,R,i,,,,,5,19,119,9,5,0,5,0,,,,,0,3,3,5,,,,,,up,0.5004108401335543,2568.1946826841013,None,001,85,2019_Oct_31_1304,ACPT_experiment_5_30_19,3.1.0,59.94969090933626,
,,,C,D,d,v,L,G,d,R,i,,,,,5,19,119,9,5,0,5,0,,,,,0,4,4,17,,,,,,up,0.45008156429685187,2569.9963993378333,None,001,85,2019_Oct_31_1304,ACPT_experiment_5_30_19,3.1.0,59.94969090933626,
,,,C,D,d,v,L,G,y,R,y,,,,,5,19,119,9,5,0,5,0,,,,,0,5,5,35,,,,,,down,0.6838713397155516,2571.7308432576974,None,001,85,2019_Oct_31_1304,ACPT_experiment_5_30_19,3.1.0,59.94969090933626,
,,,C,D,d,v,L,G,g,L,c ,,,,,5,19,119,9,5,0,5,0,,,,,0,6,6,18,,,,,,up,0.4170048576343106,2573.7157583909866,None,001,85,2019_Oct_31_1304,ACPT_experiment_5_30_19,3.1.0,59.94969090933626,
,,,C,D,d,v,R,U,g,L,u,,,,,5,19,119,9,5,0,5,0,,,,,0,7,7,10,,,,,,up,0.48371008269896265,2575.4171213780646,None,001,85,2019_Oct_31_1304,ACPT_experiment_5_30_19,3.1.0,59.94969090933626,
,,,C,D,d,v,L,D,y,R,y,,,,,5,19,119,9,5,0,5,0,,,,,0,8,8,33,,,,,,down,0.5001485182583565,2577.2021430098102,None,001,85,2019_Oct_31_1304,ACPT_experiment_5_30_19,3.1.0,59.94969090933626,
,,,C,D,d,v,R,D,y,L,y,,,,,5,19,119,9,5,0,5,0,,,,,0,9,9,26,,,,,,down,0.5838231618545251,2578.9866055850143,None,001,85,2019_Oct_31_1304,ACPT_experiment_5_30_19,3.1.0,59.94969090933626,
,,,C,D,d,v,L,D,y,L,y,,,,,5,19,119,9,5,0,5,0,,,,,0,10,10,32,,,,,,down,0.5003996710875072,2580.854788989367,None,001,85,2019_Oct_31_1304,ACPT_experiment_5_30_19,3.1.0,59.94969090933626,
,,,C,D,d,v,L,G,g,R,c ,,,,,5,19,119,9,5,0,5,0,,,,,0,11,11,19,,,,,,up,0.4170030464447336,2582.639544978694,None,001,85,2019_Oct_31_1304,ACPT_experiment_5_30_19,3.1.0,59.94969090933626,
,,,C,D,d,v,R,G,d,L,i,,,,,5,19,119,9,5,0,5,0,,,,,0,12,12,4,,,,,,up,0.5167765259102453,2584.3578782898985,None,001,85,2019_Oct_31_1304,ACPT_experiment_5_30_19,3.1.0,59.94969090933626,
,,,C,D,d,v,L,D,d,L,c ,,,,,5,19,119,9,5,0,5,0,,,,,0,13,13,12,,,,,,up,0.5170898632059107,2586.1590183788358,None,001,85,2019_Oct_31_1304,ACPT_experiment_5_30_19,3.1.0,59.94969090933626,
,,,C,D,d,v,L,D,g,R,i,,,,,5,19,119,9,5,0,5,0,,,,,0,14,14,15,,,,,,up,0.4169076566613512,2587.94375444499,None,001,85,2019_Oct_31_1304,ACPT_experiment_5_30_19,3.1.0,59.94969090933626,
,,,C,D,d,v,R,U,g,R,u,,,,,5,19,119,9,5,0,5,0,,,,,0,15,15,11,,,,,,up,0.3669566193857463,2589.6451310160483,None,001,85,2019_Oct_31_1304,ACPT_experiment_5_30_19,3.1.0,59.94969090933626,
,,,C,D,d,v,L,G,d,L,i,,,,,5,19,119,9,5,0,5,0,,,,,0,16,16,16,,,,,,up,0.4303376918833237,2591.31646765623,None,001,85,2019_Oct_31_1304,ACPT_experiment_5_30_19,3.1.0,59.94969090933626,
,,,C,D,d,v,L,U,y,R,u,,,,,5,19,119,9,5,0,5,0,,,,,0,17,17,25,,,,,,down,0.750593469303567,2593.031171326089,None,001,85,2019_Oct_31_1304,ACPT_experiment_5_30_19,3.1.0,59.94969090933626,
,,,C,D,d,v,L,D,g,L,i,,,,,5,19,119,9,5,0,5,0,,,,,0,18,18,14,,,,,,up,0.984119715372799,2595.0661274528247,None,001,85,2019_Oct_31_1304,ACPT_experiment_5_30_19,3.1.0,59.94969090933626,
,,,C,D,d,v,L,D,d,R,c ,,,,,5,19,119,9,5,0,5,0,,,,,0,19,19,13,,,,,,up,0.4336760321748443,2597.334603486437,None,001,85,2019_Oct_31_1304,ACPT_experiment_5_30_19,3.1.0,59.94969090933626,
,,,C,D,d,v,R,U,d,R,u,,,,,5,19,119,9,5,0,5,0,,,,,0,20,20,9,,,,,,up,0.4503822232072707,2599.0526451947226,None,001,85,2019_Oct_31_1304,ACPT_experiment_5_30_19,3.1.0,59.94969090933626,
,,,C,D,d,v,R,D,g,L,i,,,,,5,19,119,9,5,0,5,0,,,,,0,21,21,2,,,,,,up,0.48373755253851414,2600.7873632092524,None,001,85,2019_Oct_31_1304,ACPT_experiment_5_30_19,3.1.0,59.94969090933626,
,,,C,D,d,v,L,U,d,L,u,,,,,5,19,119,9,5,0,5,0,,,,,0,22,22,20,,,,,,up,0.5504397589393193,2602.555436251263,None,001,85,2019_Oct_31_1304,ACPT_experiment_5_30_19,3.1.0,59.94969090933626,
,,,C,D,d,v,R,G,y,R,y,,,,,5,19,119,9,5,0,5,0,,,,,0,23,23,29,,,,,,down,0.5001530462468509,2604.4071567688807,None,001,85,2019_Oct_31_1304,ACPT_experiment_5_30_19,3.1.0,59.94969090933626,
,,,C,D,d,v,L,U,y,L,u,,,,,5,19,119,9,5,0,5,0,,,,,0,24,24,24,,,,,,down,0.46704313428199384,2606.1916694539104,None,001,85,2019_Oct_31_1304,ACPT_experiment_5_30_19,3.1.0,59.94969090933626,
,,,C,D,d,v,L,U,g,L,u,,,,,5,19,119,9,5,0,5,0,,,,,0,25,25,22,,,,,,up,0.517081410944229,2607.9430661896477,None,001,85,2019_Oct_31_1304,ACPT_experiment_5_30_19,3.1.0,59.94969090933626,
,,,C,D,d,v,R,U,d,L,u,,,,,5,19,119,9,5,0,5,0,,,,,0,26,26,8,,,,,,up,0.6671965427958639,2609.7445078431047,None,001,85,2019_Oct_31_1304,ACPT_experiment_5_30_19,3.1.0,59.94969090933626,
,,,C,D,d,v,L,U,d,R,u,,,,,5,19,119,9,5,0,5,0,,,,,0,27,27,21,,,,,,up,0.4167872119724052,2611.71294469446,None,001,85,2019_Oct_31_1304,ACPT_experiment_5_30_19,3.1.0,59.94969090933626,
,,,C,D,d,v,R,G,y,L,y,,,,,5,19,119,9,5,0,5,0,,,,,0,28,28,28,,,,,,down,1.100898837321438,2613.4140803761547,None,001,85,2019_Oct_31_1304,ACPT_experiment_5_30_19,3.1.0,59.94969090933626,
,,,C,D,d,v,R,G,g,R,c ,,,,,5,19,119,9,5,0,5,0,,,,,0,29,29,7,,,,,,up,2.868972784926882,2615.7826390004193,None,001,85,2019_Oct_31_1304,ACPT_experiment_5_30_19,3.1.0,59.94969090933626,
,,,C,D,d,v,R,U,y,R,u,,,,,5,19,119,9,5,0,5,0,,,,,0,30,30,31,,,,,,down,0.6671787326631602,2619.935990139842,None,001,85,2019_Oct_31_1304,ACPT_experiment_5_30_19,3.1.0,59.94969090933626,
,,,C,D,d,v,L,U,g,R,u,,,,,5,19,119,9,5,0,5,0,,,,,0,31,31,23,,,,,,up,0.7005926240672125,2621.887531228087,None,001,85,2019_Oct_31_1304,ACPT_experiment_5_30_19,3.1.0,59.94969090933626,
,,,C,D,d,v,R,U,y,L,u,,,,,5,19,119,9,5,0,5,0,,,,,0,32,32,30,,,,,,down,0.5337507742806338,2623.8724487762956,None,001,85,2019_Oct_31_1304,ACPT_experiment_5_30_19,3.1.0,59.94969090933626,
,,,C,D,d,v,R,G,g,L,c ,,,,,5,19,119,9,5,0,5,0,,,,,0,33,33,6,,,,,,up,0.4167603458627127,2625.707481818594,None,001,85,2019_Oct_31_1304,ACPT_experiment_5_30_19,3.1.0,59.94969090933626,
,,,C,D,d,v,R,D,d,R,c ,,,,,5,19,119,9,5,0,5,0,,,,,0,34,34,1,,,,,,up,0.383654358171043,2627.4086199152225,None,001,85,2019_Oct_31_1304,ACPT_experiment_5_30_19,3.1.0,59.94969090933626,
,,,C,D,d,v,R,D,g,R,i,,,,,5,19,119,9,5,0,5,0,,,,,0,35,35,3,,,,,,up,0.35029782136552967,2629.059897836356,None,001,85,2019_Oct_31_1304,ACPT_experiment_5_30_19,3.1.0,59.94969090933626,
,,,C,D,d,v,L,U,g,R,u,,,,,5,19,119,9,5,0,5,0,,,,,1,0,36,23,,,,,,up,0.4003376073524123,2630.694556503964,None,001,85,2019_Oct_31_1304,ACPT_experiment_5_30_19,3.1.0,59.94969090933626,
,,,C,D,d,v,L,D,g,L,i,,,,,5,19,119,9,5,0,5,0,,,,,1,1,37,14,,,,,,up,0.4000773985462729,2632.396155852417,None,001,85,2019_Oct_31_1304,ACPT_experiment_5_30_19,3.1.0,59.94969090933626,
,,,C,D,d,v,R,G,g,L,c ,,,,,5,19,119,9,5,0,5,0,,,,,1,2,38,6,,,,,,up,0.38363775551260915,2634.0639111498604,None,001,85,2019_Oct_31_1304,ACPT_experiment_5_30_19,3.1.0,59.94969090933626,
,,,C,D,d,v,L,G,g,R,c ,,,,,5,19,119,9,5,0,5,0,,,,,1,3,39,19,,,,,,up,0.5504382496001199,2635.731908846021,None,001,85,2019_Oct_31_1304,ACPT_experiment_5_30_19,3.1.0,59.94969090933626,
,,,C,D,d,v,R,U,g,L,u,,,,,5,19,119,9,5,0,5,0,,,,,1,4,40,10,,,,,,up,0.31692015392764006,2637.566708545608,None,001,85,2019_Oct_31_1304,ACPT_experiment_5_30_19,3.1.0,59.94969090933626,
,,,C,D,d,v,L,D,y,R,y,,,,,5,19,119,9,5,0,5,0,,,,,1,5,41,33,,,,,,down,0.4834610429388704,2639.184922438464,None,001,85,2019_Oct_31_1304,ACPT_experiment_5_30_19,3.1.0,59.94969090933626,
,,,C,D,d,v,L,D,y,L,y,,,,,5,19,119,9,5,0,5,0,,,,,1,6,42,32,,,,,,down,0.6838936778367497,2640.969398597663,None,001,85,2019_Oct_31_1304,ACPT_experiment_5_30_19,3.1.0,59.94969090933626,
,,,C,D,d,v,R,D,g,R,i,,,,,5,19,119,9,5,0,5,0,,,,,1,7,43,3,,,,,,up,0.41699217923451215,2642.9543399933173,None,001,85,2019_Oct_31_1304,ACPT_experiment_5_30_19,3.1.0,59.94969090933626,
,,,C,D,d,v,R,U,g,R,u,,,,,5,19,119,9,5,0,5,0,,,,,1,8,44,11,,,,,,up,0.4003234196425183,2644.6556963393377,None,001,85,2019_Oct_31_1304,ACPT_experiment_5_30_19,3.1.0,59.94969090933626,
,,,C,D,d,v,R,G,d,L,i,,,,,5,19,119,9,5,0,5,0,,,,,1,9,45,4,,,,,,up,0.3136035480129067,2646.3603864976467,None,001,85,2019_Oct_31_1304,ACPT_experiment_5_30_19,3.1.0,59.94969090933626,
,,,C,D,d,v,L,D,d,R,c ,,,,,5,19,119,9,5,0,5,0,,,,,1,10,46,13,,,,,,up,0.7339262190216687,2647.958333685514,None,001,85,2019_Oct_31_1304,ACPT_experiment_5_30_19,3.1.0,59.94969090933626,
,,,C,D,d,v,R,D,d,R,c ,,,,,5,19,119,9,5,0,5,0,,,,,1,11,47,1,,,,,,up,0.8339931126247393,2649.976608676123,None,001,85,2019_Oct_31_1304,ACPT_experiment_5_30_19,3.1.0,59.94969090933626,
,,,C,D,d,v,L,U,y,R,u,,,,,5,19,119,9,5,0,5,0,,,,,1,12,48,25,,,,,,down,0.5504403626691783,2652.094965049924,None,001,85,2019_Oct_31_1304,ACPT_experiment_5_30_19,3.1.0,59.94969090933626,
,,,C,D,d,v,R,G,g,R,c ,,,,,5,19,119,9,5,0,5,0,,,,,1,13,49,7,,,,,,up,0.43368569189624395,2653.929765956971,None,001,85,2019_Oct_31_1304,ACPT_experiment_5_30_19,3.1.0,59.94969090933626,
,,,C,D,d,v,R,G,y,L,y,,,,,5,19,119,9,5,0,5,0,,,,,1,14,50,28,,,,,,down,0.5338029971753713,2655.6477747618046,None,001,85,2019_Oct_31_1304,ACPT_experiment_5_30_19,3.1.0,59.94969090933626,
,,,C,D,d,v,L,D,g,R,i,,,,,5,19,119,9,5,0,5,0,,,,,1,15,51,15,,,,,,up,0.8506836065935204,2657.4659159652365,None,001,85,2019_Oct_31_1304,ACPT_experiment_5_30_19,3.1.0,59.94969090933626,
,,,C,D,d,v,L,D,d,L,c ,,,,,5,19,119,9,5,0,5,0,,,,,1,16,52,12,,,,,,up,0.3636255238961894,2659.620961480643,None,001,85,2019_Oct_31_1304,ACPT_experiment_5_30_19,3.1.0,59.94969090933626,
,,,C,D,d,v,R,U,y,R,u,,,,,5,19,119,9,5,0,5,0,,,,,1,17,53,31,,,,,,down,0.43368025829840917,2661.268947850782,None,001,85,2019_Oct_31_1304,ACPT_experiment_5_30_19,3.1.0,59.94969090933626,
,,,C,D,d,v,L,G,y,R,y,,,,,5,19,119,9,5,0,5,0,,,,,1,18,54,35,,,,,,down,0.4837167237565154,2662.9869907665125,None,001,85,2019_Oct_31_1304,ACPT_experiment_5_30_19,3.1.0,59.94969090933626,
,,,C,D,d,v,L,G,g,L,c ,,,,,5,19,119,9,5,0,5,0,,,,,1,19,55,18,,,,,,up,0.43368780495075043,2664.7383796537324,None,001,85,2019_Oct_31_1304,ACPT_experiment_5_30_19,3.1.0,59.94969090933626,
,,,C,D,d,v,R,D,y,R,y,,,,,5,19,119,9,5,0,5,0,,,,,1,20,56,27,,,,,,down,0.5334742646955419,2666.473385648802,None,001,85,2019_Oct_31_1304,ACPT_experiment_5_30_19,3.1.0,59.94969090933626,
,,,C,D,d,v,L,G,d,R,i,,,,,5,19,119,9,5,0,5,0,,,,,1,21,57,17,,,,,,up,0.6672228051611455,2668.2911954029405,None,001,85,2019_Oct_31_1304,ACPT_experiment_5_30_19,3.1.0,59.94969090933626,
,,,C,D,d,v,L,U,g,L,u,,,,,5,19,119,9,5,0,5,0,,,,,1,22,58,22,,,,,,up,0.4336739191057859,2670.2427814692783,None,001,85,2019_Oct_31_1304,ACPT_experiment_5_30_19,3.1.0,59.94969090933626,
,,,C,D,d,v,L,G,y,L,y,,,,,5,19,119,9,5,0,5,0,,,,,1,23,59,34,,,,,,up,0.4336724097811384,2671.9608204607503,None,001,85,2019_Oct_31_1304,ACPT_experiment_5_30_19,3.1.0,59.94969090933626,
,,,C,D,d,v,R,U,d,L,u,,,,,5,19,119,9,5,0,5,0,,,,,1,24,60,8,,,,,,up,0.46676783215662,2673.6958056270378,None,001,85,2019_Oct_31_1304,ACPT_experiment_5_30_19,3.1.0,59.94969090933626,
,,,C,D,d,v,R,U,y,L,u,,,,,5,19,119,9,5,0,5,0,,,,,1,25,61,30,,,,,,down,0.4336727116460679,2675.4469333998277,None,001,85,2019_Oct_31_1304,ACPT_experiment_5_30_19,3.1.0,59.94969090933626,
,,,C,D,d,v,R,U,d,R,u,,,,,5,19,119,9,5,0,5,0,,,,,1,26,62,9,,,,,,down,0.433699275876279,2677.148269218931,None,001,85,2019_Oct_31_1304,ACPT_experiment_5_30_19,3.1.0,59.94969090933626,
,,,C,D,d,v,R,G,y,R,y,,,,,5,19,119,9,5,0,5,0,,,,,1,27,63,29,,,,,,down,0.5837899565376574,2678.883008967852,None,001,85,2019_Oct_31_1304,ACPT_experiment_5_30_19,3.1.0,59.94969090933626,
,,,C,D,d,v,L,U,d,L,u,,,,,5,19,119,9,5,0,5,0,,,,,1,28,64,20,,,,,,up,0.5170651101652766,2680.7845365324756,None,001,85,2019_Oct_31_1304,ACPT_experiment_5_30_19,3.1.0,59.94969090933626,
,,,C,D,d,v,L,G,d,L,i,,,,,5,19,119,9,5,0,5,0,,,,,1,29,65,16,,,,,,up,0.833976208101376,2682.5859863363294,None,001,85,2019_Oct_31_1304,ACPT_experiment_5_30_19,3.1.0,59.94969090933626,
