facing_vig,person_vig,text_vig,facing_train,person_train,food_train,correct_key_train,facing_exp,person_exp,food_exp,showL_R,consistent,vig_random.thisRepN,vig_random.thisTrialN,vig_random.thisN,vig_random.thisIndex,trainTrials.thisRepN,trainTrials.thisTrialN,trainTrials.thisN,trainTrials.thisIndex,expBlock.thisRepN,expBlock.thisTrialN,expBlock.thisN,expBlock.thisIndex,breakLoop.thisRepN,breakLoop.thisTrialN,breakLoop.thisN,breakLoop.thisIndex,expTrials.thisRepN,expTrials.thisTrialN,expTrials.thisN,expTrials.thisIndex,train_resp.keys,train_resp.corr,train_resp.rt,train_resp.started,train_resp.stopped,exp_resp.keys,exp_resp.rt,exp_resp.started,exp_resp.stopped,session,participant,date,expName,psychopyVersion,frameRate,
C,U,"did not report her food preferences, so her food preferences are unknown.",,,,,,,,,,0,0,0,2,,,,,,,,,,,,,,,,,,,,,,,,,,001,86,2019_Oct_31_1402,ACPT_experiment_5_30_19,3.1.0,59.94524315548725,
C,G,"cannot eat dairy products because she is lactose intolerant. She enjoys eating wheat products. She thinks eating insects, like crickets, is disgusting.",,,,,,,,,,0,1,1,0,,,,,,,,,,,,,,,,,,,,,,,,,,001,86,2019_Oct_31_1402,ACPT_experiment_5_30_19,3.1.0,59.94524315548725,
C,D,"is allergic to gluten, meaning she can’t eat wheat products. She enjoys eating dairy products. She thinks eating insects, like crickets, is disgusting.",,,,,,,,,,0,2,2,1,,,,,,,,,,,,,,,,,,,,,,,,,,001,86,2019_Oct_31_1402,ACPT_experiment_5_30_19,3.1.0,59.94524315548725,
,,,C,G,d,b,,,,,,,,,,0,0,0,3,,,,,,,,,,,,,b,1,2.435300073295366,705.7661972443311,None,,,,,001,86,2019_Oct_31_1402,ACPT_experiment_5_30_19,3.1.0,59.94524315548725,
,,,C,U,y,n,,,,,,,,,,0,1,1,8,,,,,,,,,,,,,n,1,2.568734069005586,711.4874441698194,None,,,,,001,86,2019_Oct_31_1402,ACPT_experiment_5_30_19,3.1.0,59.94524315548725,
,,,C,G,g,v,,,,,,,,,,0,2,2,13,,,,,,,,,,,,,v,1,2.0016158907237696,717.3421181480953,None,,,,,001,86,2019_Oct_31_1402,ACPT_experiment_5_30_19,3.1.0,59.94524315548725,
,,,C,G,g,v,,,,,,,,,,0,3,3,19,,,,,,,,,,,,,v,1,1.7182016974547878,722.6128427843796,None,,,,,001,86,2019_Oct_31_1402,ACPT_experiment_5_30_19,3.1.0,59.94524315548725,
,,,C,D,g,b,,,,,,,,,,0,4,4,1,,,,,,,,,,,,,b,1,1.601297904693638,727.6003041605727,None,,,,,001,86,2019_Oct_31_1402,ACPT_experiment_5_30_19,3.1.0,59.94524315548725,
,,,C,D,d,v,,,,,,,,,,0,5,5,18,,,,,,,,,,,,,v,1,2.185092087369412,732.4708629514644,None,,,,,001,86,2019_Oct_31_1402,ACPT_experiment_5_30_19,3.1.0,59.94524315548725,
,,,C,G,y,b,,,,,,,,,,0,6,6,5,,,,,,,,,,,,,b,1,2.635444123923662,737.9419163806015,None,,,,,001,86,2019_Oct_31_1402,ACPT_experiment_5_30_19,3.1.0,59.94524315548725,
,,,C,U,g,n,,,,,,,,,,0,7,7,16,,,,,,,,,,,,,b,0,3.3360032408381812,743.8633149033849,None,,,,,001,86,2019_Oct_31_1402,ACPT_experiment_5_30_19,3.1.0,59.94524315548725,
,,,C,U,d,n,,,,,,,,,,0,8,8,6,,,,,,,,,,,,,v,0,3.2192537017836003,750.4685754080419,None,,,,,001,86,2019_Oct_31_1402,ACPT_experiment_5_30_19,3.1.0,59.94524315548725,
,,,C,G,g,v,,,,,,,,,,0,9,9,4,,,,,,,,,,,,,v,1,2.0850215713726357,756.9737599631044,None,,,,,001,86,2019_Oct_31_1402,ACPT_experiment_5_30_19,3.1.0,59.94524315548725,
,,,C,G,y,b,,,,,,,,,,0,10,10,14,,,,,,,,,,,,,b,1,1.6179687773546902,762.3280517785461,None,,,,,001,86,2019_Oct_31_1402,ACPT_experiment_5_30_19,3.1.0,59.94524315548725,
,,,C,U,y,n,,,,,,,,,,0,11,11,17,,,,,,,,,,,,,b,0,2.752201511495514,767.2319758603553,None,,,,,001,86,2019_Oct_31_1402,ACPT_experiment_5_30_19,3.1.0,59.94524315548725,
,,,C,D,d,v,,,,,,,,,,0,12,12,9,,,,,,,,,,,,,v,1,2.9857274557143683,773.270127544587,None,,,,,001,86,2019_Oct_31_1402,ACPT_experiment_5_30_19,3.1.0,59.94524315548725,
,,,C,D,d,v,,,,,,,,,,0,13,13,0,,,,,,,,,,,,,v,1,3.3861978842905955,779.5249682738504,None,,,,,001,86,2019_Oct_31_1402,ACPT_experiment_5_30_19,3.1.0,59.94524315548725,
,,,C,D,y,b,,,,,,,,,,0,14,14,2,,,,,,,,,,,,,b,1,1.6179814557544887,786.1804282517987,None,,,,,001,86,2019_Oct_31_1402,ACPT_experiment_5_30_19,3.1.0,59.94524315548725,
,,,C,D,g,b,,,,,,,,,,0,15,15,10,,,,,,,,,,,,,b,1,1.984937471395824,791.067662745234,None,,,,,001,86,2019_Oct_31_1402,ACPT_experiment_5_30_19,3.1.0,59.94524315548725,
,,,C,U,d,n,,,,,,,,,,0,16,16,15,,,,,,,,,,,,,n,1,2.101671011536382,796.3385663882655,None,,,,,001,86,2019_Oct_31_1402,ACPT_experiment_5_30_19,3.1.0,59.94524315548725,
,,,C,D,y,b,,,,,,,,,,0,17,17,11,,,,,,,,,,,,,b,1,3.152565079377382,801.7261616120231,None,,,,,001,86,2019_Oct_31_1402,ACPT_experiment_5_30_19,3.1.0,59.94524315548725,
,,,C,U,g,n,,,,,,,,,,0,18,18,7,,,,,,,,,,,,,n,1,1.3844419275555992,808.1646626763977,None,,,,,001,86,2019_Oct_31_1402,ACPT_experiment_5_30_19,3.1.0,59.94524315548725,
,,,C,G,d,b,,,,,,,,,,0,19,19,12,,,,,,,,,,,,,b,1,1.5678169989405433,812.8517241400259,None,,,,,001,86,2019_Oct_31_1402,ACPT_experiment_5_30_19,3.1.0,59.94524315548725,
,,,C,G,d,b,,,,,,,,,,1,0,20,12,,,,,,,,,,,,,b,1,1.8348163022310473,817.6889303183852,None,,,,,001,86,2019_Oct_31_1402,ACPT_experiment_5_30_19,3.1.0,59.94524315548725,
,,,C,G,d,b,,,,,,,,,,1,1,21,3,,,,,,,,,,,,,b,1,1.1510811042535352,822.7928553661623,None,,,,,001,86,2019_Oct_31_1402,ACPT_experiment_5_30_19,3.1.0,59.94524315548725,
,,,C,U,g,n,,,,,,,,,,1,2,22,16,,,,,,,,,,,,,n,1,1.1506766033126041,827.2468189320934,None,,,,,001,86,2019_Oct_31_1402,ACPT_experiment_5_30_19,3.1.0,59.94524315548725,
,,,C,D,d,v,,,,,,,,,,1,3,23,0,,,,,,,,,,,,,v,1,1.334423875930952,831.6834330297424,None,,,,,001,86,2019_Oct_31_1402,ACPT_experiment_5_30_19,3.1.0,59.94524315548725,
,,,C,D,y,b,,,,,,,,,,1,4,24,2,,,,,,,,,,,,,b,1,1.9147402560629416,836.3239297931286,None,,,,,001,86,2019_Oct_31_1402,ACPT_experiment_5_30_19,3.1.0,59.94524315548725,
,,,C,U,y,n,,,,,,,,,,1,5,25,8,,,,,,,,,,,,,n,1,1.217661356626195,841.5246313909738,None,,,,,001,86,2019_Oct_31_1402,ACPT_experiment_5_30_19,3.1.0,59.94524315548725,
,,,C,D,d,v,,,,,,,,,,1,6,26,18,,,,,,,,,,,,,v,1,1.901277317389031,846.0451700775593,None,,,,,001,86,2019_Oct_31_1402,ACPT_experiment_5_30_19,3.1.0,59.94524315548725,
,,,C,G,y,b,,,,,,,,,,1,7,27,5,,,,,,,,,,,,,b,1,1.6012852263083914,851.2323863986385,None,,,,,001,86,2019_Oct_31_1402,ACPT_experiment_5_30_19,3.1.0,59.94524315548725,
,,,C,G,g,v,,,,,,,,,,1,8,28,19,,,,,,,,,,,,,v,1,2.418609579312033,856.119621797654,None,,,,,001,86,2019_Oct_31_1402,ACPT_experiment_5_30_19,3.1.0,59.94524315548725,
,,,C,D,y,b,,,,,,,,,,1,9,29,11,,,,,,,,,,,,,b,1,3.7528263749118196,861.824327653012,None,,,,,001,86,2019_Oct_31_1402,ACPT_experiment_5_30_19,3.1.0,59.94524315548725,
,,,C,G,g,v,,,,,,,,,,1,10,30,4,,,,,,,,,,,,,v,1,1.3844485685986,868.8631310667697,None,,,,,001,86,2019_Oct_31_1402,ACPT_experiment_5_30_19,3.1.0,59.94524315548725,
,,,C,U,g,n,,,,,,,,,,1,11,31,7,,,,,,,,,,,,,n,1,1.0642069789173547,873.5535366061376,None,,,,,001,86,2019_Oct_31_1402,ACPT_experiment_5_30_19,3.1.0,59.94524315548725,
,,,C,D,g,b,,,,,,,,,,1,12,32,10,,,,,,,,,,,,,b,1,3.786398444295628,877.903661759934,None,,,,,001,86,2019_Oct_31_1402,ACPT_experiment_5_30_19,3.1.0,59.94524315548725,
,,,C,G,g,v,,,,,,,,,,1,13,33,13,,,,,,,,,,,,,v,1,1.4678391559427837,884.9760019247042,None,,,,,001,86,2019_Oct_31_1402,ACPT_experiment_5_30_19,3.1.0,59.94524315548725,
,,,C,D,g,b,,,,,,,,,,1,14,34,1,,,,,,,,,,,,,b,1,2.602107510319911,889.7297755563195,None,,,,,001,86,2019_Oct_31_1402,ACPT_experiment_5_30_19,3.1.0,59.94524315548725,
,,,C,U,y,n,,,,,,,,,,1,15,35,17,,,,,,,,,,,,,n,1,0.8507288865657756,895.6178121087141,None,,,,,001,86,2019_Oct_31_1402,ACPT_experiment_5_30_19,3.1.0,59.94524315548725,
,,,C,D,d,v,,,,,,,,,,1,16,36,9,,,,,,,,,,,,,v,1,1.3177279483497841,899.7544673205557,None,,,,,001,86,2019_Oct_31_1402,ACPT_experiment_5_30_19,3.1.0,59.94524315548725,
,,,C,U,d,n,,,,,,,,,,1,17,37,6,,,,,,,,,,,,,n,1,0.7506106756918598,904.3581409136532,None,,,,,001,86,2019_Oct_31_1402,ACPT_experiment_5_30_19,3.1.0,59.94524315548725,
,,,C,G,y,b,,,,,,,,,,1,18,38,14,,,,,,,,,,,,,b,1,1.6846715874853544,908.4113907467108,None,,,,,001,86,2019_Oct_31_1402,ACPT_experiment_5_30_19,3.1.0,59.94524315548725,
,,,C,U,d,n,,,,,,,,,,1,19,39,15,,,,,,,,,,,,,n,1,0.9174316966964398,913.3819904706907,None,,,,,001,86,2019_Oct_31_1402,ACPT_experiment_5_30_19,3.1.0,59.94524315548725,
,,,C,D,d,v,,,,,,,,,,2,0,40,18,,,,,,,,,,,,,v,1,1.7347436731797643,917.6020586079685,None,,,,,001,86,2019_Oct_31_1402,ACPT_experiment_5_30_19,3.1.0,59.94524315548725,
,,,C,U,g,n,,,,,,,,,,2,1,41,16,,,,,,,,,,,,,n,1,1.217641131588607,922.6227364549559,None,,,,,001,86,2019_Oct_31_1402,ACPT_experiment_5_30_19,3.1.0,59.94524315548725,
,,,C,G,d,b,,,,,,,,,,2,2,42,12,,,,,,,,,,,,,b,1,2.635441709004226,927.1263307779445,None,,,,,001,86,2019_Oct_31_1402,ACPT_experiment_5_30_19,3.1.0,59.94524315548725,
,,,C,G,y,b,,,,,,,,,,2,3,43,5,,,,,,,,,,,,,b,1,1.2177009011356859,933.0310339768766,None,,,,,001,86,2019_Oct_31_1402,ACPT_experiment_5_30_19,3.1.0,59.94524315548725,
,,,C,D,d,v,,,,,,,,,,2,4,44,0,,,,,,,,,,,,,v,1,2.3347930585150607,937.5517154462723,None,,,,,001,86,2019_Oct_31_1402,ACPT_experiment_5_30_19,3.1.0,59.94524315548725,
,,,C,U,g,n,,,,,,,,,,2,5,45,7,,,,,,,,,,,,,n,1,0.750594073033426,943.172481921225,None,,,,,001,86,2019_Oct_31_1402,ACPT_experiment_5_30_19,3.1.0,59.94524315548725,
,,,C,U,d,n,,,,,,,,,,2,6,46,15,,,,,,,,,,,,,n,1,3.952902807475766,947.2259714362008,None,,,,,001,86,2019_Oct_31_1402,ACPT_experiment_5_30_19,3.1.0,59.94524315548725,
,,,C,U,y,n,,,,,,,,,,2,7,47,17,,,,,,,,,,,,,n,1,1.4011197431536857,954.4648247182777,None,,,,,001,86,2019_Oct_31_1402,ACPT_experiment_5_30_19,3.1.0,59.94524315548725,
,,,C,D,g,b,,,,,,,,,,2,8,48,1,,,,,,,,,,,,,n,0,0.8004261749447323,959.1687934159418,None,,,,,001,86,2019_Oct_31_1402,ACPT_experiment_5_30_19,3.1.0,59.94524315548725,
,,,C,U,d,n,,,,,,,,,,2,9,49,6,,,,,,,,,,,,,n,1,1.0008385848050239,963.2551444068376,None,,,,,001,86,2019_Oct_31_1402,ACPT_experiment_5_30_19,3.1.0,59.94524315548725,
,,,C,G,d,b,,,,,,,,,,2,10,50,3,,,,,,,,,,,,,b,1,2.251818141201511,967.5586149042356,None,,,,,001,86,2019_Oct_31_1402,ACPT_experiment_5_30_19,3.1.0,59.94524315548725,
,,,C,G,g,v,,,,,,,,,,2,11,51,13,,,,,,,,,,,,,v,1,3.469452933597495,973.096361181917,None,,,,,001,86,2019_Oct_31_1402,ACPT_experiment_5_30_19,3.1.0,59.94524315548725,
,,,C,D,g,b,,,,,,,,,,2,12,52,10,,,,,,,,,,,,,b,1,2.151727098302217,979.8517525154602,None,,,,,001,86,2019_Oct_31_1402,ACPT_experiment_5_30_19,3.1.0,59.94524315548725,
,,,C,D,d,v,,,,,,,,,,2,13,53,9,,,,,,,,,,,,,v,1,1.1676131183921825,985.289421032372,None,,,,,001,86,2019_Oct_31_1402,ACPT_experiment_5_30_19,3.1.0,59.94524315548725,
,,,C,G,g,v,,,,,,,,,,2,14,54,4,,,,,,,,,,,,,v,1,2.1681706655945163,989.7765787309909,None,,,,,001,86,2019_Oct_31_1402,ACPT_experiment_5_30_19,3.1.0,59.94524315548725,
,,,C,D,y,b,,,,,,,,,,2,15,55,11,,,,,,,,,,,,,b,1,1.267674880247796,995.2307086252986,None,,,,,001,86,2019_Oct_31_1402,ACPT_experiment_5_30_19,3.1.0,59.94524315548725,
,,,C,G,y,b,,,,,,,,,,2,16,56,14,,,,,,,,,,,,,b,1,1.20071216316137,999.8012644578994,None,,,,,001,86,2019_Oct_31_1402,ACPT_experiment_5_30_19,3.1.0,59.94524315548725,
,,,C,U,y,n,,,,,,,,,,2,17,57,8,,,,,,,,,,,,,n,1,0.7673035845946288,1004.2879234732536,None,,,,,001,86,2019_Oct_31_1402,ACPT_experiment_5_30_19,3.1.0,59.94524315548725,
,,,C,G,g,v,,,,,,,,,,2,18,58,19,,,,,,,,,,,,,v,1,1.9846802812389797,1008.3580953318306,None,,,,,001,86,2019_Oct_31_1402,ACPT_experiment_5_30_19,3.1.0,59.94524315548725,
,,,C,D,y,b,,,,,,,,,,2,19,59,2,,,,,,,,,,,,,b,1,1.567916312982561,1013.628728804455,None,,,,,001,86,2019_Oct_31_1402,ACPT_experiment_5_30_19,3.1.0,59.94524315548725,
,,,C,D,y,b,,,,,,,,,,3,0,60,11,,,,,,,,,,,,,b,1,1.6846872845489997,1018.4659123428428,None,,,,,001,86,2019_Oct_31_1402,ACPT_experiment_5_30_19,3.1.0,59.94524315548725,
,,,C,G,g,v,,,,,,,,,,3,1,61,13,,,,,,,,,,,,,v,1,1.5178831680532312,1023.436556139306,None,,,,,001,86,2019_Oct_31_1402,ACPT_experiment_5_30_19,3.1.0,59.94524315548725,
,,,C,D,d,v,,,,,,,,,,3,2,62,9,,,,,,,,,,,,,v,1,1.1675895728112664,1028.240387065147,None,,,,,001,86,2019_Oct_31_1402,ACPT_experiment_5_30_19,3.1.0,59.94524315548725,
,,,C,G,d,b,,,,,,,,,,3,3,63,12,,,,,,,,,,,,,b,1,3.369366116821766,1032.6939409984043,None,,,,,001,86,2019_Oct_31_1402,ACPT_experiment_5_30_19,3.1.0,59.94524315548725,
,,,C,D,g,b,,,,,,,,,,3,4,64,1,,,,,,,,,,,,,b,1,2.268477241086657,1039.34926272156,None,,,,,001,86,2019_Oct_31_1402,ACPT_experiment_5_30_19,3.1.0,59.94524315548725,
,,,C,G,y,b,,,,,,,,,,3,5,65,14,,,,,,,,,,,,,b,1,1.4011245730071096,1044.903684701785,None,,,,,001,86,2019_Oct_31_1402,ACPT_experiment_5_30_19,3.1.0,59.94524315548725,
,,,C,G,g,v,,,,,,,,,,3,6,66,19,,,,,,,,,,,,,v,1,1.918209908209974,1049.5907576363243,None,,,,,001,86,2019_Oct_31_1402,ACPT_experiment_5_30_19,3.1.0,59.94524315548725,
,,,C,U,g,n,,,,,,,,,,3,7,67,7,,,,,,,,,,,,,n,1,0.8339964331389638,1054.794924358328,None,,,,,001,86,2019_Oct_31_1402,ACPT_experiment_5_30_19,3.1.0,59.94524315548725,
,,,C,U,d,n,,,,,,,,,,3,8,68,6,,,,,,,,,,,,,n,1,0.5501843799866037,1058.9151393234206,None,,,,,001,86,2019_Oct_31_1402,ACPT_experiment_5_30_19,3.1.0,59.94524315548725,
,,,C,G,y,b,,,,,,,,,,3,9,69,5,,,,,,,,,,,,,b,1,1.067538376286393,1062.7512756873184,None,,,,,001,86,2019_Oct_31_1402,ACPT_experiment_5_30_19,3.1.0,59.94524315548725,
,,,C,D,d,v,,,,,,,,,,3,10,70,18,,,,,,,,,,,,,v,1,1.6010425257263705,1067.1383429467824,None,,,,,001,86,2019_Oct_31_1402,ACPT_experiment_5_30_19,3.1.0,59.94524315548725,
,,,C,D,d,v,,,,,,,,,,3,11,71,0,,,,,,,,,,,,,v,1,1.0676718012109632,1072.008509311374,None,,,,,001,86,2019_Oct_31_1402,ACPT_experiment_5_30_19,3.1.0,59.94524315548725,
,,,C,D,y,b,,,,,,,,,,3,12,72,2,,,,,,,,,,,,,b,1,0.7836747039691545,1076.3791019112978,None,,,,,001,86,2019_Oct_31_1402,ACPT_experiment_5_30_19,3.1.0,59.94524315548725,
,,,C,U,y,n,,,,,,,,,,3,13,73,17,,,,,,,,,,,,,n,1,0.5004069158749189,1080.4487240711896,None,,,,,001,86,2019_Oct_31_1402,ACPT_experiment_5_30_19,3.1.0,59.94524315548725,
,,,C,U,y,n,,,,,,,,,,3,14,74,8,,,,,,,,,,,,,n,1,0.40017942937265616,1084.2519096067263,None,,,,,001,86,2019_Oct_31_1402,ACPT_experiment_5_30_19,3.1.0,59.94524315548725,
,,,C,U,d,n,,,,,,,,,,3,15,75,15,,,,,,,,,,,,,n,1,0.3836498301679967,1087.9213553558948,None,,,,,001,86,2019_Oct_31_1402,ACPT_experiment_5_30_19,3.1.0,59.94524315548725,
,,,C,D,g,b,,,,,,,,,,3,16,76,10,,,,,,,,,,,,,b,1,2.1014518565498292,1091.6078752712347,None,,,,,001,86,2019_Oct_31_1402,ACPT_experiment_5_30_19,3.1.0,59.94524315548725,
,,,C,G,d,b,,,,,,,,,,3,17,77,3,,,,,,,,,,,,,b,1,1.701356346020475,1096.995277904236,None,,,,,001,86,2019_Oct_31_1402,ACPT_experiment_5_30_19,3.1.0,59.94524315548725,
,,,C,U,g,n,,,,,,,,,,3,18,78,16,,,,,,,,,,,,,n,1,1.3844624544581166,1101.9825795931101,None,,,,,001,86,2019_Oct_31_1402,ACPT_experiment_5_30_19,3.1.0,59.94524315548725,
,,,C,G,g,v,,,,,,,,,,3,19,79,4,,,,,,,,,,,,,v,1,2.5020191842195345,1106.6529762213904,None,,,,,001,86,2019_Oct_31_1402,ACPT_experiment_5_30_19,3.1.0,59.94524315548725,
,,,C,U,g,n,,,,,,,,,,4,0,80,16,,,,,,,,,,,,,n,1,0.8840597647213144,1112.4409277682134,None,,,,,001,86,2019_Oct_31_1402,ACPT_experiment_5_30_19,3.1.0,59.94524315548725,
,,,C,U,d,n,,,,,,,,,,4,1,81,6,,,,,,,,,,,,,n,1,0.6836434306023875,1116.62785097702,None,,,,,001,86,2019_Oct_31_1402,ACPT_experiment_5_30_19,3.1.0,59.94524315548725,
,,,C,G,y,b,,,,,,,,,,4,2,82,5,,,,,,,,,,,,,b,1,0.9174063399113948,1120.6141208866175,None,,,,,001,86,2019_Oct_31_1402,ACPT_experiment_5_30_19,3.1.0,59.94524315548725,
,,,C,D,g,b,,,,,,,,,,4,3,83,10,,,,,,,,,,,,,b,1,2.8322745873301756,1124.8541659371695,None,,,,,001,86,2019_Oct_31_1402,ACPT_experiment_5_30_19,3.1.0,59.94524315548725,
,,,C,G,d,b,,,,,,,,,,4,4,84,3,,,,,,,,,,,,,b,1,2.28517739479139,1130.9723840561492,None,,,,,001,86,2019_Oct_31_1402,ACPT_experiment_5_30_19,3.1.0,59.94524315548725,
,,,C,D,d,v,,,,,,,,,,4,5,85,18,,,,,,,,,,,,,v,1,2.685506248031743,1136.5434992471564,None,,,,,001,86,2019_Oct_31_1402,ACPT_experiment_5_30_19,3.1.0,59.94524315548725,
,,,C,D,y,b,,,,,,,,,,4,6,86,2,,,,,,,,,,,,,b,1,0.8173361257940996,1142.498248571268,None,,,,,001,86,2019_Oct_31_1402,ACPT_experiment_5_30_19,3.1.0,59.94524315548725,
,,,C,G,g,v,,,,,,,,,,4,7,87,4,,,,,,,,,,,,,v,1,1.9849347545969067,1146.6015288324706,None,,,,,001,86,2019_Oct_31_1402,ACPT_experiment_5_30_19,3.1.0,59.94524315548725,
,,,C,U,y,n,,,,,,,,,,4,8,88,8,,,,,,,,,,,,,n,1,0.9007291280577192,1151.872403194473,None,,,,,001,86,2019_Oct_31_1402,ACPT_experiment_5_30_19,3.1.0,59.94524315548725,
,,,C,G,g,v,,,,,,,,,,4,9,89,19,,,,,,,,,,,,,v,1,3.5361735538608627,1156.0590812877927,None,,,,,001,86,2019_Oct_31_1402,ACPT_experiment_5_30_19,3.1.0,59.94524315548725,
,,,C,U,d,n,,,,,,,,,,4,10,90,15,,,,,,,,,,,,,n,1,0.8006474430148955,1162.8811920341104,None,,,,,001,86,2019_Oct_31_1402,ACPT_experiment_5_30_19,3.1.0,59.94524315548725,
,,,C,G,g,v,,,,,,,,,,4,11,91,13,,,,,,,,,,,,,v,1,2.5851257152680773,1166.9847482011828,None,,,,,001,86,2019_Oct_31_1402,ACPT_experiment_5_30_19,3.1.0,59.94524315548725,
,,,C,D,d,v,,,,,,,,,,4,12,92,9,,,,,,,,,,,,,v,1,3.586200057718088,1172.8558255985117,None,,,,,001,86,2019_Oct_31_1402,ACPT_experiment_5_30_19,3.1.0,59.94524315548725,
,,,C,G,y,b,,,,,,,,,,4,13,93,14,,,,,,,,,,,,,b,1,1.7681337171525229,1179.7279571132385,None,,,,,001,86,2019_Oct_31_1402,ACPT_experiment_5_30_19,3.1.0,59.94524315548725,
,,,C,D,g,b,,,,,,,,,,4,14,94,1,,,,,,,,,,,,,b,1,3.102474881699891,1184.782021381805,None,,,,,001,86,2019_Oct_31_1402,ACPT_experiment_5_30_19,3.1.0,59.94524315548725,
,,,C,D,d,v,,,,,,,,,,4,15,95,0,,,,,,,,,,,,,v,1,1.551253590703709,1191.153756545973,None,,,,,001,86,2019_Oct_31_1402,ACPT_experiment_5_30_19,3.1.0,59.94524315548725,
,,,C,G,d,b,,,,,,,,,,4,16,96,12,,,,,,,,,,,,,b,1,1.0842074377433164,1195.9909533664759,None,,,,,001,86,2019_Oct_31_1402,ACPT_experiment_5_30_19,3.1.0,59.94524315548725,
,,,C,D,y,b,,,,,,,,,,4,17,97,11,,,,,,,,,,,,,b,1,0.8002139628806617,1200.3781972177676,None,,,,,001,86,2019_Oct_31_1402,ACPT_experiment_5_30_19,3.1.0,59.94524315548725,
,,,C,U,g,n,,,,,,,,,,4,18,98,7,,,,,,,,,,,,,n,1,0.7672900006145937,1204.4643821821664,None,,,,,001,86,2019_Oct_31_1402,ACPT_experiment_5_30_19,3.1.0,59.94524315548725,
,,,C,U,y,n,,,,,,,,,,4,19,99,17,,,,,,,,,,,,,n,1,0.9474414409487508,1208.5376267386018,None,,,,,001,86,2019_Oct_31_1402,ACPT_experiment_5_30_19,3.1.0,59.94524315548725,
,,,C,G,g,v,,,,,,,,,,5,0,100,4,,,,,,,,,,,,,v,1,1.6680001110798912,1212.771026502669,None,,,,,001,86,2019_Oct_31_1402,ACPT_experiment_5_30_19,3.1.0,59.94524315548725,
,,,C,G,g,v,,,,,,,,,,5,1,101,19,,,,,,,,,,,,,v,1,0.8506950775336009,1217.7082835757028,None,,,,,001,86,2019_Oct_31_1402,ACPT_experiment_5_30_19,3.1.0,59.94524315548725,
,,,C,U,y,n,,,,,,,,,,5,2,102,8,,,,,,,,,,,,,b,0,0.7670397533802316,1221.8618783212878,None,,,,,001,86,2019_Oct_31_1402,ACPT_experiment_5_30_19,3.1.0,59.94524315548725,
,,,C,U,d,n,,,,,,,,,,5,3,103,6,,,,,,,,,,,,,n,1,0.8842517517332453,1225.8981397182506,None,,,,,001,86,2019_Oct_31_1402,ACPT_experiment_5_30_19,3.1.0,59.94524315548725,
,,,C,G,d,b,,,,,,,,,,5,4,104,12,,,,,,,,,,,,,b,1,1.5012062580499332,1230.0681644471479,None,,,,,001,86,2019_Oct_31_1402,ACPT_experiment_5_30_19,3.1.0,59.94524315548725,
,,,C,D,g,b,,,,,,,,,,5,5,105,10,,,,,,,,,,,,,b,1,1.2343467188911745,1234.8552940118243,None,,,,,001,86,2019_Oct_31_1402,ACPT_experiment_5_30_19,3.1.0,59.94524315548725,
,,,C,D,d,v,,,,,,,,,,5,6,106,18,,,,,,,,,,,,,v,1,2.9190032130718464,1239.3589079561207,None,,,,,001,86,2019_Oct_31_1402,ACPT_experiment_5_30_19,3.1.0,59.94524315548725,
,,,C,D,y,b,,,,,,,,,,5,7,107,11,,,,,,,,,,,,,b,1,1.1176995125424583,1245.5471705460513,None,,,,,001,86,2019_Oct_31_1402,ACPT_experiment_5_30_19,3.1.0,59.94524315548725,
,,,C,G,d,b,,,,,,,,,,5,8,108,3,,,,,,,,,,,,,b,1,1.6847186786471866,1249.95066326081,None,,,,,001,86,2019_Oct_31_1402,ACPT_experiment_5_30_19,3.1.0,59.94524315548725,
,,,C,U,d,n,,,,,,,,,,5,9,109,15,,,,,,,,,,,,,n,1,2.051653865521075,1254.9213191319286,None,,,,,001,86,2019_Oct_31_1402,ACPT_experiment_5_30_19,3.1.0,59.94524315548725,
,,,C,D,d,v,,,,,,,,,,5,10,110,9,,,,,,,,,,,,,v,1,1.5178735083172796,1260.2589352448413,None,,,,,001,86,2019_Oct_31_1402,ACPT_experiment_5_30_19,3.1.0,59.94524315548725,
,,,C,D,d,v,,,,,,,,,,5,11,111,0,,,,,,,,,,,,,v,1,0.800649556069402,1265.0627501717681,None,,,,,001,86,2019_Oct_31_1402,ACPT_experiment_5_30_19,3.1.0,59.94524315548725,
,,,C,U,g,n,,,,,,,,,,5,12,112,16,,,,,,,,,,,,,n,1,0.8006435187562602,1269.166038281488,None,,,,,001,86,2019_Oct_31_1402,ACPT_experiment_5_30_19,3.1.0,59.94524315548725,
,,,C,G,g,v,,,,,,,,,,5,13,113,13,,,,,,,,,,,,,v,1,1.1342538648023037,1273.2526174833765,None,,,,,001,86,2019_Oct_31_1402,ACPT_experiment_5_30_19,3.1.0,59.94524315548725,
,,,C,D,g,b,,,,,,,,,,5,14,114,1,,,,,,,,,,,,,b,1,1.017030697388691,1277.6899267792905,None,,,,,001,86,2019_Oct_31_1402,ACPT_experiment_5_30_19,3.1.0,59.94524315548725,
,,,C,G,y,b,,,,,,,,,,5,15,115,5,,,,,,,,,,,,,b,1,0.9007448251068126,1281.9929118755535,None,,,,,001,86,2019_Oct_31_1402,ACPT_experiment_5_30_19,3.1.0,59.94524315548725,
,,,C,G,y,b,,,,,,,,,,5,16,116,14,,,,,,,,,,,,,b,1,0.8140047284250613,1286.1996088415472,None,,,,,001,86,2019_Oct_31_1402,ACPT_experiment_5_30_19,3.1.0,59.94524315548725,
,,,C,U,g,n,,,,,,,,,,5,17,117,7,,,,,,,,,,,,,n,1,0.6338762299419614,1290.2995347635442,None,,,,,001,86,2019_Oct_31_1402,ACPT_experiment_5_30_19,3.1.0,59.94524315548725,
,,,C,U,y,n,,,,,,,,,,5,18,118,17,,,,,,,,,,,,,n,1,0.4970839707675623,1294.2393658511864,None,,,,,001,86,2019_Oct_31_1402,ACPT_experiment_5_30_19,3.1.0,59.94524315548725,
,,,C,D,y,b,,,,,,,,,,5,19,119,2,0,0,0,0,0,0,0,0,,,,,b,1,0.7839910599286668,1298.0223655819282,None,,,,,001,86,2019_Oct_31_1402,ACPT_experiment_5_30_19,3.1.0,59.94524315548725,
,,,C,D,y,b,L,U,g,L,u,,,,,5,19,119,2,0,0,0,0,,,,,0,0,0,22,,,,,,up,1.534322811072343,1355.6186017911532,None,001,86,2019_Oct_31_1402,ACPT_experiment_5_30_19,3.1.0,59.94524315548725,
,,,C,D,y,b,R,U,g,L,u,,,,,5,19,119,2,0,0,0,0,,,,,0,1,1,10,,,,,,up,0.8506745506165316,1358.4372851466032,None,001,86,2019_Oct_31_1402,ACPT_experiment_5_30_19,3.1.0,59.94524315548725,
,,,C,D,y,b,R,D,g,L,i,,,,,5,19,119,2,0,0,0,0,,,,,0,2,2,2,,,,,,up,1.1342571853165282,1360.5723012240196,None,001,86,2019_Oct_31_1402,ACPT_experiment_5_30_19,3.1.0,59.94524315548725,
,,,C,D,y,b,L,G,y,R,y,,,,,5,19,119,2,0,0,0,0,,,,,0,3,3,35,,,,,,down,2.1016836899070768,1362.9909086902626,None,001,86,2019_Oct_31_1402,ACPT_experiment_5_30_19,3.1.0,59.94524315548725,
,,,C,D,y,b,L,G,g,R,c ,,,,,5,19,119,2,0,0,0,0,,,,,0,4,4,19,,,,,,up,0.9674621248268522,1366.3602470353799,None,001,86,2019_Oct_31_1402,ACPT_experiment_5_30_19,3.1.0,59.94524315548725,
,,,C,D,y,b,R,G,d,R,i,,,,,5,19,119,2,0,0,0,0,,,,,0,5,5,5,,,,,,up,0.7505958842375549,1368.612071213909,None,001,86,2019_Oct_31_1402,ACPT_experiment_5_30_19,3.1.0,59.94524315548725,
,,,C,D,y,b,L,U,d,L,u,,,,,5,19,119,2,0,0,0,0,,,,,0,6,6,20,,,,,,up,0.7671644242072944,1370.64702703878,None,001,86,2019_Oct_31_1402,ACPT_experiment_5_30_19,3.1.0,59.94524315548725,
,,,C,D,y,b,L,D,d,L,c ,,,,,5,19,119,2,0,0,0,0,,,,,0,7,7,12,,,,,,up,0.7505989028868498,1372.6986594717891,None,001,86,2019_Oct_31_1402,ACPT_experiment_5_30_19,3.1.0,59.94524315548725,
,,,C,D,y,b,R,G,d,L,i,,,,,5,19,119,2,0,0,0,0,,,,,0,8,8,4,,,,,,down,1.1008632170996862,1374.7336346161173,None,001,86,2019_Oct_31_1402,ACPT_experiment_5_30_19,3.1.0,59.94524315548725,
,,,C,D,y,b,L,G,d,L,i,,,,,5,19,119,2,0,0,0,0,,,,,0,9,9,16,,,,,,up,0.5671184801321942,1377.1188441898703,None,001,86,2019_Oct_31_1402,ACPT_experiment_5_30_19,3.1.0,59.94524315548725,
,,,C,D,y,b,R,U,y,L,u,,,,,5,19,119,2,0,0,0,0,,,,,0,10,10,30,,,,,,down,0.7505862245161552,1378.970342231958,None,001,86,2019_Oct_31_1402,ACPT_experiment_5_30_19,3.1.0,59.94524315548725,
,,,C,D,y,b,L,U,g,R,u,,,,,5,19,119,2,0,0,0,0,,,,,0,11,11,23,,,,,,up,0.7672791334334761,1381.0052935288404,None,001,86,2019_Oct_31_1402,ACPT_experiment_5_30_19,3.1.0,59.94524315548725,
,,,C,D,y,b,L,D,y,L,y,,,,,5,19,119,2,0,0,0,0,,,,,0,12,12,32,,,,,,down,0.7336675195401767,1383.0738552321418,None,001,86,2019_Oct_31_1402,ACPT_experiment_5_30_19,3.1.0,59.94524315548725,
,,,C,D,y,b,L,U,d,R,u,,,,,5,19,119,2,0,0,0,0,,,,,0,13,13,21,,,,,,up,1.1509057198854862,1385.0918947669707,None,001,86,2019_Oct_31_1402,ACPT_experiment_5_30_19,3.1.0,59.94524315548725,
,,,C,D,y,b,R,G,g,R,c ,,,,,5,19,119,2,0,0,0,0,,,,,0,14,14,7,,,,,,up,1.3844398144865409,1387.5271652573574,None,001,86,2019_Oct_31_1402,ACPT_experiment_5_30_19,3.1.0,59.94524315548725,
,,,C,D,y,b,L,G,g,L,c ,,,,,5,19,119,2,0,0,0,0,,,,,0,15,15,18,,,,,,up,1.3177194961026544,1390.1792829707556,None,001,86,2019_Oct_31_1402,ACPT_experiment_5_30_19,3.1.0,59.94524315548725,
,,,C,D,y,b,L,D,g,L,i,,,,,5,19,119,2,0,0,0,0,,,,,0,16,16,14,,,,,,up,1.1509156814718153,1392.781362709371,None,001,86,2019_Oct_31_1402,ACPT_experiment_5_30_19,3.1.0,59.94524315548725,
,,,C,D,y,b,L,D,d,R,c ,,,,,5,19,119,2,0,0,0,0,,,,,0,17,17,13,,,,,,up,0.7672987547412049,1395.1999333479034,None,001,86,2019_Oct_31_1402,ACPT_experiment_5_30_19,3.1.0,59.94524315548725,
,,,C,D,y,b,R,D,y,L,y,,,,,5,19,119,2,0,0,0,0,,,,,0,18,18,26,,,,,,down,0.6503877171780914,1397.2683688710677,None,001,86,2019_Oct_31_1402,ACPT_experiment_5_30_19,3.1.0,59.94524315548725,
,,,C,D,y,b,R,G,y,R,y,,,,,5,19,119,2,0,0,0,0,,,,,0,19,19,29,,,,,,down,0.6004689796100138,1399.203153356575,None,001,86,2019_Oct_31_1402,ACPT_experiment_5_30_19,3.1.0,59.94524315548725,
,,,C,D,y,b,R,D,y,R,y,,,,,5,19,119,2,0,0,0,0,,,,,0,20,20,27,,,,,,down,0.6004707907995908,1401.104673676411,None,001,86,2019_Oct_31_1402,ACPT_experiment_5_30_19,3.1.0,59.94524315548725,
,,,C,D,y,b,R,G,y,L,y,,,,,5,19,119,2,0,0,0,0,,,,,0,21,21,28,,,,,,down,0.7506227503472473,1402.989479051088,None,001,86,2019_Oct_31_1402,ACPT_experiment_5_30_19,3.1.0,59.94524315548725,
,,,C,D,y,b,R,U,y,R,u,,,,,5,19,119,2,0,0,0,0,,,,,0,22,22,31,,,,,,down,0.6505090674618259,1405.0244671756664,None,001,86,2019_Oct_31_1402,ACPT_experiment_5_30_19,3.1.0,59.94524315548725,
,,,C,D,y,b,R,D,g,R,i,,,,,5,19,119,2,0,0,0,0,,,,,0,23,23,3,,,,,,up,0.9339465044467943,1406.9593600312073,None,001,86,2019_Oct_31_1402,ACPT_experiment_5_30_19,3.1.0,59.94524315548725,
,,,C,D,y,b,L,G,d,R,i,,,,,5,19,119,2,0,0,0,0,,,,,0,24,24,17,,,,,,up,0.7172616855532397,1409.1777552250132,None,001,86,2019_Oct_31_1402,ACPT_experiment_5_30_19,3.1.0,59.94524315548725,
,,,C,D,y,b,L,D,y,R,y,,,,,5,19,119,2,0,0,0,0,,,,,0,25,25,33,,,,,,down,0.9007312411122257,1411.1793831903924,None,001,86,2019_Oct_31_1402,ACPT_experiment_5_30_19,3.1.0,59.94524315548725,
,,,C,D,y,b,R,D,d,L,c,,,,,5,19,119,2,0,0,0,0,,,,,0,26,26,0,,,,,,up,1.0675181512342533,1413.3644556564395,None,001,86,2019_Oct_31_1402,ACPT_experiment_5_30_19,3.1.0,59.94524315548725,
,,,C,D,y,b,L,U,y,L,u,,,,,5,19,119,2,0,0,0,0,,,,,0,27,27,24,,,,,,down,1.184277953740093,1415.7163258997753,None,001,86,2019_Oct_31_1402,ACPT_experiment_5_30_19,3.1.0,59.94524315548725,
,,,C,D,y,b,L,G,y,L,y,,,,,5,19,119,2,0,0,0,0,,,,,0,28,28,34,,,,,,down,0.7172369325126056,1418.1849674165423,None,001,86,2019_Oct_31_1402,ACPT_experiment_5_30_19,3.1.0,59.94524315548725,
,,,C,D,y,b,R,D,d,R,c ,,,,,5,19,119,2,0,0,0,0,,,,,0,29,29,1,,,,,,up,0.6505111805308843,1420.1865657990274,None,001,86,2019_Oct_31_1402,ACPT_experiment_5_30_19,3.1.0,59.94524315548725,
,,,C,D,y,b,R,U,g,R,u,,,,,5,19,119,2,0,0,0,0,,,,,0,30,30,11,,,,,,up,0.6471897447627271,1422.1414503592823,None,001,86,2019_Oct_31_1402,ACPT_experiment_5_30_19,3.1.0,59.94524315548725,
,,,C,D,y,b,R,G,g,L,c ,,,,,5,19,119,2,0,0,0,0,,,,,0,31,31,6,,,,,,up,0.7505967898323433,1424.0730003465433,None,001,86,2019_Oct_31_1402,ACPT_experiment_5_30_19,3.1.0,59.94524315548725,
,,,C,D,y,b,L,D,g,R,i,,,,,5,19,119,2,0,0,0,0,,,,,0,32,32,15,,,,,,up,0.6338550993095851,1426.1079549639544,None,001,86,2019_Oct_31_1402,ACPT_experiment_5_30_19,3.1.0,59.94524315548725,
,,,C,D,y,b,R,U,d,L,u,,,,,5,19,119,2,0,0,0,0,,,,,0,33,33,8,,,,,,up,0.7839629863447044,1428.026162457245,None,001,86,2019_Oct_31_1402,ACPT_experiment_5_30_19,3.1.0,59.94524315548725,
,,,C,D,y,b,L,U,y,R,u,,,,,5,19,119,2,0,0,0,0,,,,,0,34,34,25,,,,,,down,0.6670616085175425,1430.111253457886,None,001,86,2019_Oct_31_1402,ACPT_experiment_5_30_19,3.1.0,59.94524315548725,
,,,C,D,y,b,R,U,d,R,u,,,,,5,19,119,2,0,0,0,0,,,,,0,35,35,9,,,,,,up,0.7839832113968441,1432.079397196998,None,001,86,2019_Oct_31_1402,ACPT_experiment_5_30_19,3.1.0,59.94524315548725,
,,,C,D,y,b,R,D,y,L,y,,,,,5,19,119,2,0,0,0,0,,,,,1,0,36,26,,,,,,down,0.7172272727912059,1434.1477140866627,None,001,86,2019_Oct_31_1402,ACPT_experiment_5_30_19,3.1.0,59.94524315548725,
,,,C,D,y,b,R,D,d,R,c ,,,,,5,19,119,2,0,0,0,0,,,,,1,1,37,1,,,,,,down,0.7172330082394183,1436.1493085448747,None,001,86,2019_Oct_31_1402,ACPT_experiment_5_30_19,3.1.0,59.94524315548725,
,,,C,D,y,b,L,G,y,L,y,,,,,5,19,119,2,0,0,0,0,,,,,1,2,38,34,,,,,,down,1.0008144354942488,1438.150882476184,None,001,86,2019_Oct_31_1402,ACPT_experiment_5_30_19,3.1.0,59.94524315548725,
,,,C,D,y,b,R,U,y,R,u,,,,,5,19,119,2,0,0,0,0,,,,,1,3,39,31,,,,,,down,0.6505235570512014,1440.4360610784352,None,001,86,2019_Oct_31_1402,ACPT_experiment_5_30_19,3.1.0,59.94524315548725,
,,,C,D,y,b,L,G,g,R,c ,,,,,5,19,119,2,0,0,0,0,,,,,1,4,40,19,,,,,,up,0.717226065316936,1442.3709406518756,None,001,86,2019_Oct_31_1402,ACPT_experiment_5_30_19,3.1.0,59.94524315548725,
,,,C,D,y,b,L,U,y,R,u,,,,,5,19,119,2,0,0,0,0,,,,,1,5,41,25,,,,,,down,0.9673290017526597,1444.3892923165404,None,001,86,2019_Oct_31_1402,ACPT_experiment_5_30_19,3.1.0,59.94524315548725,
,,,C,D,y,b,L,D,y,R,y,,,,,5,19,119,2,0,0,0,0,,,,,1,6,42,33,,,,,,down,0.5838035405322444,1446.6576965059649,None,001,86,2019_Oct_31_1402,ACPT_experiment_5_30_19,3.1.0,59.94524315548725,
,,,C,D,y,b,L,G,g,L,c ,,,,,5,19,119,2,0,0,0,0,,,,,1,7,43,18,,,,,,up,0.6836277335532941,1448.5427720510488,None,001,86,2019_Oct_31_1402,ACPT_experiment_5_30_19,3.1.0,59.94524315548725,
,,,C,D,y,b,L,U,d,L,u,,,,,5,19,119,2,0,0,0,0,,,,,1,8,44,20,,,,,,up,0.6505295943788951,1450.5107733092154,None,001,86,2019_Oct_31_1402,ACPT_experiment_5_30_19,3.1.0,59.94524315548725,
,,,C,D,y,b,R,U,d,R,u,,,,,5,19,119,2,0,0,0,0,,,,,1,9,45,9,,,,,,up,1.067498228047043,1452.4456592218485,None,001,86,2019_Oct_31_1402,ACPT_experiment_5_30_19,3.1.0,59.94524315548725,
,,,C,D,y,b,L,D,g,L,i,,,,,5,19,119,2,0,0,0,0,,,,,1,10,46,14,,,,,,up,0.8339958294236567,1454.797519201733,None,001,86,2019_Oct_31_1402,ACPT_experiment_5_30_19,3.1.0,59.94524315548725,
,,,C,D,y,b,R,U,y,L,u,,,,,5,19,119,2,0,0,0,0,,,,,1,11,47,30,,,,,,down,0.7506055439589545,1456.915880707238,None,001,86,2019_Oct_31_1402,ACPT_experiment_5_30_19,3.1.0,59.94524315548725,
,,,C,D,y,b,L,U,y,L,u,,,,,5,19,119,2,0,0,0,0,,,,,1,12,48,24,,,,,,down,0.6504975965362974,1458.9675360820984,None,001,86,2019_Oct_31_1402,ACPT_experiment_5_30_19,3.1.0,59.94524315548725,
,,,C,D,y,b,L,D,y,L,y,,,,,5,19,119,2,0,0,0,0,,,,,1,13,49,32,,,,,,down,0.7839542322180932,1460.9190717367455,None,001,86,2019_Oct_31_1402,ACPT_experiment_5_30_19,3.1.0,59.94524315548725,
,,,C,D,y,b,R,G,d,L,i,,,,,5,19,119,2,0,0,0,0,,,,,1,14,50,4,,,,,,up,0.8170421079412336,1463.0043450646772,None,001,86,2019_Oct_31_1402,ACPT_experiment_5_30_19,3.1.0,59.94524315548725,
,,,C,D,y,b,R,G,g,R,c ,,,,,5,19,119,2,0,0,0,0,,,,,1,15,51,7,,,,,,up,0.9173975857993355,1465.089067788329,None,001,86,2019_Oct_31_1402,ACPT_experiment_5_30_19,3.1.0,59.94524315548725,
,,,C,D,y,b,R,G,d,R,i,,,,,5,19,119,2,0,0,0,0,,,,,1,16,52,5,,,,,,up,0.5838189357164083,1467.2741215386486,None,001,86,2019_Oct_31_1402,ACPT_experiment_5_30_19,3.1.0,59.94524315548725,
,,,C,D,y,b,L,G,d,L,i,,,,,5,19,119,2,0,0,0,0,,,,,1,17,53,16,,,,,,down,0.6671862793300534,1469.1423052448808,None,001,86,2019_Oct_31_1402,ACPT_experiment_5_30_19,3.1.0,59.94524315548725,
,,,C,D,y,b,L,U,d,R,u,,,,,5,19,119,2,0,0,0,0,,,,,1,18,54,21,,,,,,up,0.6338339686626568,1471.0938644450944,None,001,86,2019_Oct_31_1402,ACPT_experiment_5_30_19,3.1.0,59.94524315548725,
,,,C,D,y,b,R,G,y,L,y,,,,,5,19,119,2,0,0,0,0,,,,,1,19,55,28,,,,,,down,0.6505241607810603,1473.0287243972125,None,001,86,2019_Oct_31_1402,ACPT_experiment_5_30_19,3.1.0,59.94524315548725,
,,,C,D,y,b,L,D,d,L,c ,,,,,5,19,119,2,0,0,0,0,,,,,1,20,56,12,,,,,,down,0.7672776240942767,1474.9969743932888,None,001,86,2019_Oct_31_1402,ACPT_experiment_5_30_19,3.1.0,59.94524315548725,
,,,C,D,y,b,R,D,g,L,i,,,,,5,19,119,2,0,0,0,0,,,,,1,21,57,2,,,,,,up,0.8006275198276853,1477.065298527741,None,001,86,2019_Oct_31_1402,ACPT_experiment_5_30_19,3.1.0,59.94524315548725,
,,,C,D,y,b,L,G,d,R,i,,,,,5,19,119,2,0,0,0,0,,,,,1,22,58,17,,,,,,down,1.1342586946557276,1479.1502684799634,None,001,86,2019_Oct_31_1402,ACPT_experiment_5_30_19,3.1.0,59.94524315548725,
,,,C,D,y,b,L,D,g,R,i,,,,,5,19,119,2,0,0,0,0,,,,,1,23,59,15,,,,,,up,0.7170162681868533,1481.585812461286,None,001,86,2019_Oct_31_1402,ACPT_experiment_5_30_19,3.1.0,59.94524315548725,
,,,C,D,y,b,R,G,g,L,c ,,,,,5,19,119,2,0,0,0,0,,,,,1,24,60,6,,,,,,up,0.6338140454899985,1483.5871832365228,None,001,86,2019_Oct_31_1402,ACPT_experiment_5_30_19,3.1.0,59.94524315548725,
,,,C,D,y,b,L,D,d,R,c ,,,,,5,19,119,2,0,0,0,0,,,,,1,25,61,13,,,,,,up,0.7505925636942266,1485.5053623543645,None,001,86,2019_Oct_31_1402,ACPT_experiment_5_30_19,3.1.0,59.94524315548725,
,,,C,D,y,b,R,D,g,R,i,,,,,5,19,119,2,0,0,0,0,,,,,1,26,62,3,,,,,,up,0.6005049017112469,1487.5403218016436,None,001,86,2019_Oct_31_1402,ACPT_experiment_5_30_19,3.1.0,59.94524315548725,
,,,C,D,y,b,R,U,d,L,u,,,,,5,19,119,2,0,0,0,0,,,,,1,27,63,8,,,,,,up,0.6838731509196805,1489.4251582685538,None,001,86,2019_Oct_31_1402,ACPT_experiment_5_30_19,3.1.0,59.94524315548725,
,,,C,D,y,b,R,D,d,L,c,,,,,5,19,119,2,0,0,0,0,,,,,1,28,64,0,,,,,,up,0.567108518560417,1491.3767195818364,None,001,86,2019_Oct_31_1402,ACPT_experiment_5_30_19,3.1.0,59.94524315548725,
,,,C,D,y,b,R,U,g,R,u,,,,,5,19,119,2,0,0,0,0,,,,,1,29,65,11,,,,,,up,0.7839515154337278,1493.2281973988866,None,001,86,2019_Oct_31_1402,ACPT_experiment_5_30_19,3.1.0,59.94524315548725,
,,,C,D,y,b,R,G,y,R,y,,,,,5,19,119,2,0,0,0,0,,,,,1,30,66,29,,,,,,down,0.6171458895987598,1495.3131902929454,None,001,86,2019_Oct_31_1402,ACPT_experiment_5_30_19,3.1.0,59.94524315548725,
,,,C,D,y,b,R,D,y,R,y,,,,,5,19,119,2,0,0,0,0,,,,,1,31,67,27,,,,,,down,0.5671009718935238,1497.2313917489082,None,001,86,2019_Oct_31_1402,ACPT_experiment_5_30_19,3.1.0,59.94524315548725,
,,,C,D,y,b,R,U,g,L,u,,,,,5,19,119,2,0,0,0,0,,,,,1,32,68,10,,,,,,up,0.7839557415572926,1499.0828629249008,None,001,86,2019_Oct_31_1402,ACPT_experiment_5_30_19,3.1.0,59.94524315548725,
,,,C,D,y,b,L,U,g,L,u,,,,,5,19,119,2,0,0,0,0,,,,,1,33,69,22,,,,,,up,0.5504364384105429,1501.1511813238903,None,001,86,2019_Oct_31_1402,ACPT_experiment_5_30_19,3.1.0,59.94524315548725,
,,,C,D,y,b,L,G,y,R,y,,,,,5,19,119,2,0,0,0,0,,,,,1,34,70,35,,,,,,down,0.7337070640351158,1503.002830299185,None,001,86,2019_Oct_31_1402,ACPT_experiment_5_30_19,3.1.0,59.94524315548725,
,,,C,D,y,b,L,U,g,R,u,,,,,5,19,119,2,0,0,0,0,,,,,1,35,71,23,,,,,,up,1.0341537658969173,1505.0542970075476,None,001,86,2019_Oct_31_1402,ACPT_experiment_5_30_19,3.1.0,59.94524315548725,
,,,C,D,y,b,,,,,,,,,,5,19,119,2,1,0,1,0,0,0,0,0,,,,,,,,,,,,,,001,86,2019_Oct_31_1402,ACPT_experiment_5_30_19,3.1.0,59.94524315548725,
,,,C,D,y,b,R,U,g,R,u,,,,,5,19,119,2,1,0,1,0,,,,,0,0,0,11,,,,,,up,0.6502497642359231,1532.810047260209,None,001,86,2019_Oct_31_1402,ACPT_experiment_5_30_19,3.1.0,59.94524315548725,
,,,C,D,y,b,R,U,g,L,u,,,,,5,19,119,2,1,0,1,0,,,,,0,1,1,10,,,,,,up,0.6339891279785661,1534.7278239901789,None,001,86,2019_Oct_31_1402,ACPT_experiment_5_30_19,3.1.0,59.94524315548725,
,,,C,D,y,b,L,U,d,R,u,,,,,5,19,119,2,1,0,1,0,,,,,0,2,2,21,,,,,,up,0.8173168063367484,1536.646174266265,None,001,86,2019_Oct_31_1402,ACPT_experiment_5_30_19,3.1.0,59.94524315548725,
,,,C,D,y,b,R,G,y,R,y,,,,,5,19,119,2,1,0,1,0,,,,,0,3,3,29,,,,,,down,0.6171609829325462,1538.747847390856,None,001,86,2019_Oct_31_1402,ACPT_experiment_5_30_19,3.1.0,59.94524315548725,
,,,C,D,y,b,L,G,g,L,c ,,,,,5,19,119,2,1,0,1,0,,,,,0,4,4,18,,,,,,up,0.6671880905196304,1540.6493752573442,None,001,86,2019_Oct_31_1402,ACPT_experiment_5_30_19,3.1.0,59.94524315548725,
,,,C,D,y,b,R,G,d,L,i,,,,,5,19,119,2,1,0,1,0,,,,,0,5,5,4,,,,,,up,0.7839572508819401,1542.6009278165147,None,001,86,2019_Oct_31_1402,ACPT_experiment_5_30_19,3.1.0,59.94524315548725,
,,,C,D,y,b,R,U,d,L,u,,,,,5,19,119,2,1,0,1,0,,,,,0,6,6,8,,,,,,up,0.5838110871991375,1544.6692471211136,None,001,86,2019_Oct_31_1402,ACPT_experiment_5_30_19,3.1.0,59.94524315548725,
,,,C,D,y,b,L,U,y,R,u,,,,,5,19,119,2,1,0,1,0,,,,,0,7,7,25,,,,,,down,0.6838737546495395,1546.5374033574917,None,001,86,2019_Oct_31_1402,ACPT_experiment_5_30_19,3.1.0,59.94524315548725,
,,,C,D,y,b,L,U,d,L,u,,,,,5,19,119,2,1,0,1,0,,,,,0,8,8,20,,,,,,down,0.6838725471898215,1548.5056421845075,None,001,86,2019_Oct_31_1402,ACPT_experiment_5_30_19,3.1.0,59.94524315548725,
,,,C,D,y,b,R,G,g,L,c ,,,,,5,19,119,2,1,0,1,0,,,,,0,9,9,6,,,,,,up,0.7172408567712409,1550.4738737667358,None,001,86,2019_Oct_31_1402,ACPT_experiment_5_30_19,3.1.0,59.94524315548725,
,,,C,D,y,b,L,D,y,L,y,,,,,5,19,119,2,1,0,1,0,,,,,0,10,10,32,,,,,,down,2.1183518457983155,1552.475480601468,None,001,86,2019_Oct_31_1402,ACPT_experiment_5_30_19,3.1.0,59.94524315548725,
,,,C,D,y,b,R,G,g,R,c ,,,,,5,19,119,2,1,0,1,0,,,,,0,11,11,7,,,,,,up,1.2009446002775803,1555.8782032550953,None,001,86,2019_Oct_31_1402,ACPT_experiment_5_30_19,3.1.0,59.94524315548725,
,,,C,D,y,b,L,G,y,R,y,,,,,5,19,119,2,1,0,1,0,,,,,0,12,12,35,,,,,,down,0.65050544506812,1558.3635147389286,None,001,86,2019_Oct_31_1402,ACPT_experiment_5_30_19,3.1.0,59.94524315548725,
,,,C,D,y,b,R,D,g,L,i,,,,,5,19,119,2,1,0,1,0,,,,,0,13,13,2,,,,,,up,0.7172393474465935,1560.2983819358342,None,001,86,2019_Oct_31_1402,ACPT_experiment_5_30_19,3.1.0,59.94524315548725,
,,,C,D,y,b,R,D,g,R,i,,,,,5,19,119,2,1,0,1,0,,,,,0,14,14,3,,,,,,up,1.0176238648273284,1562.2831545881927,None,001,86,2019_Oct_31_1402,ACPT_experiment_5_30_19,3.1.0,59.94524315548725,
,,,C,D,y,b,R,D,y,L,y,,,,,5,19,119,2,1,0,1,0,,,,,0,15,15,26,,,,,,down,0.7505880357057322,1564.5851392992627,None,001,86,2019_Oct_31_1402,ACPT_experiment_5_30_19,3.1.0,59.94524315548725,
,,,C,D,y,b,R,D,d,L,c,,,,,5,19,119,2,1,0,1,0,,,,,0,16,16,0,,,,,,up,1.4344611866254127,1566.6201144435909,None,001,86,2019_Oct_31_1402,ACPT_experiment_5_30_19,3.1.0,59.94524315548725,
,,,C,D,y,b,L,G,d,L,i,,,,,5,19,119,2,1,0,1,0,,,,,0,17,17,16,,,,,,up,0.7504893254081253,1569.3389397969877,None,001,86,2019_Oct_31_1402,ACPT_experiment_5_30_19,3.1.0,59.94524315548725,
,,,C,D,y,b,L,G,d,R,i,,,,,5,19,119,2,1,0,1,0,,,,,0,18,18,17,,,,,,up,0.583813200253644,1571.3571936569497,None,001,86,2019_Oct_31_1402,ACPT_experiment_5_30_19,3.1.0,59.94524315548725,
,,,C,D,y,b,L,D,g,R,i,,,,,5,19,119,2,1,0,1,0,,,,,0,19,19,15,,,,,,up,0.7339180686249165,1573.2253821930353,None,001,86,2019_Oct_31_1402,ACPT_experiment_5_30_19,3.1.0,59.94524315548725,
,,,C,D,y,b,R,G,y,L,y,,,,,5,19,119,2,1,0,1,0,,,,,0,20,20,28,,,,,,down,0.650330060700071,1575.24379936271,None,001,86,2019_Oct_31_1402,ACPT_experiment_5_30_19,3.1.0,59.94524315548725,
,,,C,D,y,b,R,U,d,R,u,,,,,5,19,119,2,1,0,1,0,,,,,0,21,21,9,,,,,,up,0.7673002640804043,1577.1785017405637,None,001,86,2019_Oct_31_1402,ACPT_experiment_5_30_19,3.1.0,59.94524315548725,
,,,C,D,y,b,L,G,y,L,y,,,,,5,19,119,2,1,0,1,0,,,,,0,22,22,34,,,,,,down,0.7672743035509484,1579.230175227407,None,001,86,2019_Oct_31_1402,ACPT_experiment_5_30_19,3.1.0,59.94524315548725,
,,,C,D,y,b,R,G,d,R,i,,,,,5,19,119,2,1,0,1,0,,,,,0,23,23,5,,,,,,up,0.6838764714484569,1581.2817989062896,None,001,86,2019_Oct_31_1402,ACPT_experiment_5_30_19,3.1.0,59.94524315548725,
,,,C,D,y,b,L,U,y,L,u,,,,,5,19,119,2,1,0,1,0,,,,,0,24,24,24,,,,,,down,0.7005591169145191,1583.2500326015725,None,001,86,2019_Oct_31_1402,ACPT_experiment_5_30_19,3.1.0,59.94524315548725,
,,,C,D,y,b,L,D,y,R,y,,,,,5,19,119,2,1,0,1,0,,,,,0,25,25,33,,,,,,down,0.7005597206298262,1585.2349519609852,None,001,86,2019_Oct_31_1402,ACPT_experiment_5_30_19,3.1.0,59.94524315548725,
,,,C,D,y,b,L,D,g,L,i,,,,,5,19,119,2,1,0,1,0,,,,,0,26,26,14,,,,,,up,0.717118600892718,1587.2198743390763,None,001,86,2019_Oct_31_1402,ACPT_experiment_5_30_19,3.1.0,59.94524315548725,
,,,C,D,y,b,L,D,d,L,c ,,,,,5,19,119,2,1,0,1,0,,,,,0,27,27,12,,,,,,up,0.7672993584856158,1589.2047617006465,None,001,86,2019_Oct_31_1402,ACPT_experiment_5_30_19,3.1.0,59.94524315548725,
,,,C,D,y,b,L,D,d,R,c ,,,,,5,19,119,2,1,0,1,0,,,,,0,28,28,13,,,,,,up,0.8506781730102375,1591.2397459009662,None,001,86,2019_Oct_31_1402,ACPT_experiment_5_30_19,3.1.0,59.94524315548725,
,,,C,D,y,b,L,G,g,R,c ,,,,,5,19,119,2,1,0,1,0,,,,,0,29,29,19,,,,,,up,0.7839826076669851,1593.3747870332736,None,001,86,2019_Oct_31_1402,ACPT_experiment_5_30_19,3.1.0,59.94524315548725,
,,,C,D,y,b,R,U,y,R,u,,,,,5,19,119,2,1,0,1,0,,,,,0,30,30,31,,,,,,down,0.7172381399723236,1595.4430975837458,None,001,86,2019_Oct_31_1402,ACPT_experiment_5_30_19,3.1.0,59.94524315548725,
,,,C,D,y,b,L,U,g,L,u,,,,,5,19,119,2,1,0,1,0,,,,,0,31,31,22,,,,,,up,0.8507023223210126,1597.4446715150552,None,001,86,2019_Oct_31_1402,ACPT_experiment_5_30_19,3.1.0,59.94524315548725,
,,,C,D,y,b,R,D,y,R,y,,,,,5,19,119,2,1,0,1,0,,,,,0,32,32,27,,,,,,down,0.9341553959820885,1599.5797310612106,None,001,86,2019_Oct_31_1402,ACPT_experiment_5_30_19,3.1.0,59.94524315548725,
,,,C,D,y,b,R,D,d,R,c ,,,,,5,19,119,2,1,0,1,0,,,,,0,33,33,1,,,,,,up,1.2176369054650422,1601.798173044299,None,001,86,2019_Oct_31_1402,ACPT_experiment_5_30_19,3.1.0,59.94524315548725,
,,,C,D,y,b,R,U,y,L,u,,,,,5,19,119,2,1,0,1,0,,,,,0,34,34,30,,,,,,down,0.5671263286640169,1604.3001677773427,None,001,86,2019_Oct_31_1402,ACPT_experiment_5_30_19,3.1.0,59.94524315548725,
,,,C,D,y,b,L,U,g,R,u,,,,,5,19,119,2,1,0,1,0,,,,,0,35,35,23,,,,,,up,2.3185131028149044,1606.151656461574,None,001,86,2019_Oct_31_1402,ACPT_experiment_5_30_19,3.1.0,59.94524315548725,
,,,C,D,y,b,L,D,y,L,y,,,,,5,19,119,2,1,0,1,0,,,,,1,0,36,32,,,,,,down,1.9182286239374662,1609.7544950922602,None,001,86,2019_Oct_31_1402,ACPT_experiment_5_30_19,3.1.0,59.94524315548725,
,,,C,D,y,b,R,U,d,L,u,,,,,5,19,119,2,1,0,1,0,,,,,1,1,37,8,,,,,,down,0.750552113604499,1612.9571168621478,None,001,86,2019_Oct_31_1402,ACPT_experiment_5_30_19,3.1.0,59.94524315548725,
,,,C,D,y,b,R,D,d,L,c,,,,,5,19,119,2,1,0,1,0,,,,,1,2,38,0,,,,,,up,2.0850381740165176,1614.9920174454746,None,001,86,2019_Oct_31_1402,ACPT_experiment_5_30_19,3.1.0,59.94524315548725,
,,,C,D,y,b,L,G,y,L,y,,,,,5,19,119,2,1,0,1,0,,,,,1,3,39,34,,,,,,down,0.6004867897281656,1618.3613841660263,None,001,86,2019_Oct_31_1402,ACPT_experiment_5_30_19,3.1.0,59.94524315548725,
,,,C,D,y,b,L,G,d,R,i,,,,,5,19,119,2,1,0,1,0,,,,,1,4,40,17,,,,,,down,0.6838414549565641,1620.2462523288996,None,001,86,2019_Oct_31_1402,ACPT_experiment_5_30_19,3.1.0,59.94524315548725,
,,,C,D,y,b,R,D,y,L,y,,,,,5,19,119,2,1,0,1,0,,,,,1,5,41,26,,,,,,down,0.7005449291900732,1622.214464591685,None,001,86,2019_Oct_31_1402,ACPT_experiment_5_30_19,3.1.0,59.94524315548725,
,,,C,D,y,b,L,U,d,R,u,,,,,5,19,119,2,1,0,1,0,,,,,1,6,42,21,,,,,,up,0.9641074837418273,1624.219390749131,None,001,86,2019_Oct_31_1402,ACPT_experiment_5_30_19,3.1.0,59.94524315548725,
,,,C,D,y,b,R,G,g,L,c ,,,,,5,19,119,2,1,0,1,0,,,,,1,7,43,6,,,,,,up,0.9173963783396175,1626.4678581735207,None,001,86,2019_Oct_31_1402,ACPT_experiment_5_30_19,3.1.0,59.94524315548725,
,,,C,D,y,b,R,U,g,L,u,,,,,5,19,119,2,1,0,1,0,,,,,1,8,44,10,,,,,,up,0.9007212795258965,1628.6529303377029,None,001,86,2019_Oct_31_1402,ACPT_experiment_5_30_19,3.1.0,59.94524315548725,
,,,C,D,y,b,L,D,d,L,c ,,,,,5,19,119,2,1,0,1,0,,,,,1,9,45,12,,,,,,up,1.050826147911721,1630.8380212175834,None,001,86,2019_Oct_31_1402,ACPT_experiment_5_30_19,3.1.0,59.94524315548725,
,,,C,D,y,b,L,G,g,L,c ,,,,,5,19,119,2,1,0,1,0,,,,,1,10,46,18,,,,,,up,0.5003912188258255,1633.1732103248069,None,001,86,2019_Oct_31_1402,ACPT_experiment_5_30_19,3.1.0,59.94524315548725,
,,,C,D,y,b,R,D,y,R,y,,,,,5,19,119,2,1,0,1,0,,,,,1,11,47,27,,,,,,down,0.6672523880552035,1634.9579645029298,None,001,86,2019_Oct_31_1402,ACPT_experiment_5_30_19,3.1.0,59.94524315548725,
,,,C,D,y,b,L,G,d,L,i,,,,,5,19,119,2,1,0,1,0,,,,,1,12,48,16,,,,,,down,0.6838945834315382,1636.909502572511,None,001,86,2019_Oct_31_1402,ACPT_experiment_5_30_19,3.1.0,59.94524315548725,
,,,C,D,y,b,R,G,d,R,i,,,,,5,19,119,2,1,0,1,0,,,,,1,13,49,5,,,,,,down,0.60046294228232,1638.8778032821428,None,001,86,2019_Oct_31_1402,ACPT_experiment_5_30_19,3.1.0,59.94524315548725,
,,,C,D,y,b,R,U,d,R,u,,,,,5,19,119,2,1,0,1,0,,,,,1,14,50,9,,,,,,up,0.9674603136227233,1640.762577564572,None,001,86,2019_Oct_31_1402,ACPT_experiment_5_30_19,3.1.0,59.94524315548725,
,,,C,D,y,b,R,U,g,R,u,,,,,5,19,119,2,1,0,1,0,,,,,1,15,51,11,,,,,,up,0.8507008129963651,1642.997691929675,None,001,86,2019_Oct_31_1402,ACPT_experiment_5_30_19,3.1.0,59.94524315548725,
,,,C,D,y,b,L,D,g,R,i,,,,,5,19,119,2,1,0,1,0,,,,,1,16,52,15,,,,,,up,0.7505995066312607,1645.1327493627614,None,001,86,2019_Oct_31_1402,ACPT_experiment_5_30_19,3.1.0,59.94524315548725,
,,,C,D,y,b,L,D,d,R,c ,,,,,5,19,119,2,1,0,1,0,,,,,1,17,53,13,,,,,,up,0.8005288095155265,1647.1510258627095,None,001,86,2019_Oct_31_1402,ACPT_experiment_5_30_19,3.1.0,59.94524315548725,
,,,C,D,y,b,R,U,y,R,u,,,,,5,19,119,2,1,0,1,0,,,,,1,18,54,31,,,,,,down,0.5837981069344096,1649.236027510895,None,001,86,2019_Oct_31_1402,ACPT_experiment_5_30_19,3.1.0,59.94524315548725,
,,,C,D,y,b,L,U,d,L,u,,,,,5,19,119,2,1,0,1,0,,,,,1,19,55,20,,,,,,up,1.6346396500302944,1651.1041897846007,None,001,86,2019_Oct_31_1402,ACPT_experiment_5_30_19,3.1.0,59.94524315548725,
,,,C,D,y,b,L,U,y,R,u,,,,,5,19,119,2,1,0,1,0,,,,,1,20,56,25,,,,,,down,0.6838906591729028,1654.023161301695,None,001,86,2019_Oct_31_1402,ACPT_experiment_5_30_19,3.1.0,59.94524315548725,
,,,C,D,y,b,R,G,g,R,c ,,,,,5,19,119,2,1,0,1,0,,,,,1,21,57,7,,,,,,up,1.5679084644652903,1656.0081069234875,None,001,86,2019_Oct_31_1402,ACPT_experiment_5_30_19,3.1.0,59.94524315548725,
,,,C,D,y,b,R,D,d,R,c ,,,,,5,19,119,2,1,0,1,0,,,,,1,22,58,1,,,,,,down,0.6672170696983812,1658.8603855920373,None,001,86,2019_Oct_31_1402,ACPT_experiment_5_30_19,3.1.0,59.94524315548725,
,,,C,D,y,b,L,U,g,R,u,,,,,5,19,119,2,1,0,1,0,,,,,1,23,59,23,,,,,,up,0.5004048028204124,1660.8119266802823,None,001,86,2019_Oct_31_1402,ACPT_experiment_5_30_19,3.1.0,59.94524315548725,
,,,C,D,y,b,R,D,g,L,i,,,,,5,19,119,2,1,0,1,0,,,,,1,24,60,2,,,,,,up,1.61796062697249,1662.5966896125465,None,001,86,2019_Oct_31_1402,ACPT_experiment_5_30_19,3.1.0,59.94524315548725,
,,,C,D,y,b,L,G,y,R,y,,,,,5,19,119,2,1,0,1,0,,,,,1,25,61,35,,,,,,down,0.7339401048811851,1665.4989808991086,None,001,86,2019_Oct_31_1402,ACPT_experiment_5_30_19,3.1.0,59.94524315548725,
,,,C,D,y,b,R,D,g,R,i,,,,,5,19,119,2,1,0,1,0,,,,,1,26,62,3,,,,,,up,2.7355016596702626,1667.5172930192784,None,001,86,2019_Oct_31_1402,ACPT_experiment_5_30_19,3.1.0,59.94524315548725,
,,,C,D,y,b,R,G,y,R,y,,,,,5,19,119,2,1,0,1,0,,,,,1,27,63,29,,,,,,down,0.6671962409163825,1671.5371558270563,None,001,86,2019_Oct_31_1402,ACPT_experiment_5_30_19,3.1.0,59.94524315548725,
,,,C,D,y,b,L,G,g,R,c ,,,,,5,19,119,2,1,0,1,0,,,,,1,28,64,19,,,,,,up,0.6838785845029633,1673.488712008606,None,001,86,2019_Oct_31_1402,ACPT_experiment_5_30_19,3.1.0,59.94524315548725,
,,,C,D,y,b,R,G,y,L,y,,,,,5,19,119,2,1,0,1,0,,,,,1,29,65,28,,,,,,down,0.7337635130388662,1675.4737678116362,None,001,86,2019_Oct_31_1402,ACPT_experiment_5_30_19,3.1.0,59.94524315548725,
,,,C,D,y,b,R,G,d,L,i,,,,,5,19,119,2,1,0,1,0,,,,,1,30,66,4,,,,,,down,1.417866686155321,1677.508590211568,None,001,86,2019_Oct_31_1402,ACPT_experiment_5_30_19,3.1.0,59.94524315548725,
,,,C,D,y,b,L,D,y,R,y,,,,,5,19,119,2,1,0,1,0,,,,,1,31,67,33,,,,,,down,1.2176574323675595,1680.2441051533533,None,001,86,2019_Oct_31_1402,ACPT_experiment_5_30_19,3.1.0,59.94524315548725,
,,,C,D,y,b,L,U,y,L,u,,,,,5,19,119,2,1,0,1,0,,,,,1,32,68,24,,,,,,down,1.1342547703970922,1682.7627822299837,None,001,86,2019_Oct_31_1402,ACPT_experiment_5_30_19,3.1.0,59.94524315548725,
,,,C,D,y,b,L,U,g,L,u,,,,,5,19,119,2,1,0,1,0,,,,,1,33,69,22,,,,,,up,1.4011140076909214,1685.181376112232,None,001,86,2019_Oct_31_1402,ACPT_experiment_5_30_19,3.1.0,59.94524315548725,
,,,C,D,y,b,L,D,g,L,i,,,,,5,19,119,2,1,0,1,0,,,,,1,34,70,14,,,,,,up,0.5837896546727279,1687.8668567016139,None,001,86,2019_Oct_31_1402,ACPT_experiment_5_30_19,3.1.0,59.94524315548725,
,,,C,D,y,b,R,U,y,L,u,,,,,5,19,119,2,1,0,1,0,,,,,1,35,71,30,,,,,,down,0.6169771463028155,1689.751832630791,None,001,86,2019_Oct_31_1402,ACPT_experiment_5_30_19,3.1.0,59.94524315548725,
,,,C,D,y,b,,,,,,,,,,5,19,119,2,2,0,2,0,0,0,0,0,,,,,,,,,,,,,,001,86,2019_Oct_31_1402,ACPT_experiment_5_30_19,3.1.0,59.94524315548725,
,,,C,D,y,b,L,G,y,L,y,,,,,5,19,119,2,2,0,2,0,,,,,0,0,0,34,,,,,,down,0.8006199731753441,1704.0798068296717,None,001,86,2019_Oct_31_1402,ACPT_experiment_5_30_19,3.1.0,59.94524315548725,
,,,C,D,y,b,L,U,g,R,u,,,,,5,19,119,2,2,0,2,0,,,,,0,1,1,23,,,,,,up,0.9172771411103895,1706.164910508698,None,001,86,2019_Oct_31_1402,ACPT_experiment_5_30_19,3.1.0,59.94524315548725,
,,,C,D,y,b,R,U,d,R,u,,,,,5,19,119,2,2,0,2,0,,,,,0,2,2,9,,,,,,up,1.2843270372104598,1708.36656540056,None,001,86,2019_Oct_31_1402,ACPT_experiment_5_30_19,3.1.0,59.94524315548725,
,,,C,D,y,b,R,D,d,R,c ,,,,,5,19,119,2,2,0,2,0,,,,,0,3,3,1,,,,,,up,0.9841163948440226,1710.9352632455993,None,001,86,2019_Oct_31_1402,ACPT_experiment_5_30_19,3.1.0,59.94524315548725,
,,,C,D,y,b,R,G,g,L,c ,,,,,5,19,119,2,2,0,2,0,,,,,0,4,4,6,,,,,,up,0.8173201268800767,1713.2037344493583,None,001,86,2019_Oct_31_1402,ACPT_experiment_5_30_19,3.1.0,59.94524315548725,
,,,C,D,y,b,R,U,d,L,u,,,,,5,19,119,2,2,0,2,0,,,,,0,5,5,8,,,,,,up,0.5337891113158548,1715.3053939899692,None,001,86,2019_Oct_31_1402,ACPT_experiment_5_30_19,3.1.0,59.94524315548725,
,,,C,D,y,b,L,U,g,L,u,,,,,5,19,119,2,2,0,2,0,,,,,0,6,6,22,,,,,,up,0.5671187819971237,1717.1235379102,None,001,86,2019_Oct_31_1402,ACPT_experiment_5_30_19,3.1.0,59.94524315548725,
,,,C,D,y,b,L,U,d,R,u,,,,,5,19,119,2,2,0,2,0,,,,,0,7,7,21,,,,,,up,0.7672628326399717,1718.9750271981611,None,001,86,2019_Oct_31_1402,ACPT_experiment_5_30_19,3.1.0,59.94524315548725,
,,,C,D,y,b,L,G,d,R,i,,,,,5,19,119,2,2,0,2,0,,,,,0,8,8,17,,,,,,up,0.6839045450324193,1721.0099434785516,None,001,86,2019_Oct_31_1402,ACPT_experiment_5_30_19,3.1.0,59.94524315548725,
,,,C,D,y,b,R,D,g,R,i,,,,,5,19,119,2,2,0,2,0,,,,,0,9,9,3,,,,,,up,0.5671154614828993,1722.978207058608,None,001,86,2019_Oct_31_1402,ACPT_experiment_5_30_19,3.1.0,59.94524315548725,
,,,C,D,y,b,R,U,y,R,u,,,,,5,19,119,2,2,0,2,0,,,,,0,10,10,31,,,,,,down,0.617179396780557,1724.8296610282123,None,001,86,2019_Oct_31_1402,ACPT_experiment_5_30_19,3.1.0,59.94524315548725,
,,,C,D,y,b,R,D,y,L,y,,,,,5,19,119,2,2,0,2,0,,,,,0,11,11,26,,,,,,down,0.6338499675766798,1726.7145186257694,None,001,86,2019_Oct_31_1402,ACPT_experiment_5_30_19,3.1.0,59.94524315548725,
,,,C,D,y,b,R,D,y,R,y,,,,,5,19,119,2,2,0,2,0,,,,,0,12,12,27,,,,,,down,0.5839544737245888,1728.6158822769503,None,001,86,2019_Oct_31_1402,ACPT_experiment_5_30_19,3.1.0,59.94524315548725,
,,,C,D,y,b,L,D,y,L,y,,,,,5,19,119,2,2,0,2,0,,,,,0,13,13,32,,,,,,down,0.8836187379347393,1730.501268140666,None,001,86,2019_Oct_31_1402,ACPT_experiment_5_30_19,3.1.0,59.94524315548725,
,,,C,D,y,b,L,U,d,L,u,,,,,5,19,119,2,2,0,2,0,,,,,0,14,14,20,,,,,,down,0.7506109775567893,1732.6692576864298,None,001,86,2019_Oct_31_1402,ACPT_experiment_5_30_19,3.1.0,59.94524315548725,
,,,C,D,y,b,R,D,g,L,i,,,,,5,19,119,2,2,0,2,0,,,,,0,15,15,2,,,,,,up,0.650534424232319,1734.7042316232837,None,001,86,2019_Oct_31_1402,ACPT_experiment_5_30_19,3.1.0,59.94524315548725,
,,,C,D,y,b,L,G,d,L,i,,,,,5,19,119,2,2,0,2,0,,,,,0,16,16,16,,,,,,up,0.4670579257508507,1736.6390843305999,None,001,86,2019_Oct_31_1402,ACPT_experiment_5_30_19,3.1.0,59.94524315548725,
,,,C,D,y,b,L,D,g,L,i,,,,,5,19,119,2,2,0,2,0,,,,,0,17,17,14,,,,,,up,0.4167189901781967,1738.4074649744434,None,001,86,2019_Oct_31_1402,ACPT_experiment_5_30_19,3.1.0,59.94524315548725,
,,,C,D,y,b,L,G,g,L,c ,,,,,5,19,119,2,2,0,2,0,,,,,0,18,18,18,,,,,,up,0.36696809031127486,1740.1085288119502,None,001,86,2019_Oct_31_1402,ACPT_experiment_5_30_19,3.1.0,59.94524315548725,
,,,C,D,y,b,R,D,d,L,c,,,,,5,19,119,2,2,0,2,0,,,,,0,19,19,0,,,,,,up,0.5004220092087053,1741.7598369197076,None,001,86,2019_Oct_31_1402,ACPT_experiment_5_30_19,3.1.0,59.94524315548725,
,,,C,D,y,b,L,D,d,R,c ,,,,,5,19,119,2,2,0,2,0,,,,,0,20,20,13,,,,,,up,0.9841233377665048,1743.5446227938228,None,001,86,2019_Oct_31_1402,ACPT_experiment_5_30_19,3.1.0,59.94524315548725,
,,,C,D,y,b,R,G,y,L,y,,,,,5,19,119,2,2,0,2,0,,,,,0,21,21,28,,,,,,down,0.7005391937273089,1745.8131115058204,None,001,86,2019_Oct_31_1402,ACPT_experiment_5_30_19,3.1.0,59.94524315548725,
,,,C,D,y,b,R,G,g,R,c ,,,,,5,19,119,2,2,0,2,0,,,,,0,22,22,7,,,,,,up,0.583799616273609,1747.7980109420605,None,001,86,2019_Oct_31_1402,ACPT_experiment_5_30_19,3.1.0,59.94524315548725,
,,,C,D,y,b,R,G,d,R,i,,,,,5,19,119,2,2,0,2,0,,,,,0,23,23,5,,,,,,up,0.5504355328157544,1749.6661723101715,None,001,86,2019_Oct_31_1402,ACPT_experiment_5_30_19,3.1.0,59.94524315548725,
,,,C,D,y,b,L,U,y,L,u,,,,,5,19,119,2,2,0,2,0,,,,,0,24,24,24,,,,,,down,0.6002362406288739,1751.5179012800363,None,001,86,2019_Oct_31_1402,ACPT_experiment_5_30_19,3.1.0,59.94524315548725,
,,,C,D,y,b,L,U,y,R,u,,,,,5,19,119,2,2,0,2,0,,,,,0,25,25,25,,,,,,down,0.6171612847974757,1753.4024826698587,None,001,86,2019_Oct_31_1402,ACPT_experiment_5_30_19,3.1.0,59.94524315548725,
,,,C,D,y,b,R,G,y,R,y,,,,,5,19,119,2,2,0,2,0,,,,,0,26,26,29,,,,,,down,0.6671877886692528,1755.3206883519451,None,001,86,2019_Oct_31_1402,ACPT_experiment_5_30_19,3.1.0,59.94524315548725,
,,,C,D,y,b,L,D,y,R,y,,,,,5,19,119,2,2,0,2,0,,,,,0,27,27,33,,,,,,down,0.46701657005178276,1757.2889323106938,None,001,86,2019_Oct_31_1402,ACPT_experiment_5_30_19,3.1.0,59.94524315548725,
,,,C,D,y,b,R,U,g,R,u,,,,,5,19,119,2,2,0,2,0,,,,,0,28,28,11,,,,,,up,0.48346889147069305,1759.0572420159442,None,001,86,2019_Oct_31_1402,ACPT_experiment_5_30_19,3.1.0,59.94524315548725,
,,,C,D,y,b,L,D,g,R,i,,,,,5,19,119,2,2,0,2,0,,,,,0,29,29,15,,,,,,up,0.5004410267865751,1760.8250542453898,None,001,86,2019_Oct_31_1402,ACPT_experiment_5_30_19,3.1.0,59.94524315548725,
,,,C,D,y,b,R,U,g,L,u,,,,,5,19,119,2,2,0,2,0,,,,,0,30,30,10,,,,,,up,0.8840347098157508,1762.6098337802978,None,001,86,2019_Oct_31_1402,ACPT_experiment_5_30_19,3.1.0,59.94524315548725,
,,,C,D,y,b,R,G,d,L,i,,,,,5,19,119,2,2,0,2,0,,,,,0,31,31,4,,,,,,up,0.6004867897136137,1764.7782429203362,None,001,86,2019_Oct_31_1402,ACPT_experiment_5_30_19,3.1.0,59.94524315548725,
,,,C,D,y,b,R,U,y,L,u,,,,,5,19,119,2,2,0,2,0,,,,,0,32,32,30,,,,,,down,1.000522530710441,1766.6800228452485,None,001,86,2019_Oct_31_1402,ACPT_experiment_5_30_19,3.1.0,59.94524315548725,
,,,C,D,y,b,L,G,y,R,y,,,,,5,19,119,2,2,0,2,0,,,,,0,33,33,35,,,,,,down,0.7672721904964419,1768.964908637121,None,001,86,2019_Oct_31_1402,ACPT_experiment_5_30_19,3.1.0,59.94524315548725,
,,,C,D,y,b,L,D,d,L,c ,,,,,5,19,119,2,2,0,2,0,,,,,0,34,34,12,,,,,,up,0.7672676625079475,1771.0165455981332,None,001,86,2019_Oct_31_1402,ACPT_experiment_5_30_19,3.1.0,59.94524315548725,
,,,C,D,y,b,L,G,g,R,c ,,,,,5,19,119,2,2,0,2,0,,,,,0,35,35,19,,,,,,up,0.5501877005153801,1773.0851051883656,None,001,86,2019_Oct_31_1402,ACPT_experiment_5_30_19,3.1.0,59.94524315548725,
,,,C,D,y,b,R,G,g,L,c ,,,,,5,19,119,2,2,0,2,0,,,,,1,0,36,6,,,,,,up,0.7005570038454607,1774.9029750139161,None,001,86,2019_Oct_31_1402,ACPT_experiment_5_30_19,3.1.0,59.94524315548725,
,,,C,D,y,b,R,D,d,R,c ,,,,,5,19,119,2,2,0,2,0,,,,,1,1,37,1,,,,,,down,0.5669346435170155,1776.8880419859925,None,001,86,2019_Oct_31_1402,ACPT_experiment_5_30_19,3.1.0,59.94524315548725,
,,,C,D,y,b,L,G,g,L,c ,,,,,5,19,119,2,2,0,2,0,,,,,1,2,38,18,,,,,,up,0.6671886942494893,1778.7393863781035,None,001,86,2019_Oct_31_1402,ACPT_experiment_5_30_19,3.1.0,59.94524315548725,
,,,C,D,y,b,L,D,y,L,y,,,,,5,19,119,2,2,0,2,0,,,,,1,3,39,32,,,,,,down,0.7672794352838537,1780.6909280700784,None,001,86,2019_Oct_31_1402,ACPT_experiment_5_30_19,3.1.0,59.94524315548725,
,,,C,D,y,b,L,U,d,R,u,,,,,5,19,119,2,2,0,2,0,,,,,1,4,40,21,,,,,,down,0.6838951871759491,1782.7425448060385,None,001,86,2019_Oct_31_1402,ACPT_experiment_5_30_19,3.1.0,59.94524315548725,
,,,C,D,y,b,L,U,y,R,u,,,,,5,19,119,2,2,0,2,0,,,,,1,5,41,25,,,,,,down,0.533744133223081,1784.710809895434,None,001,86,2019_Oct_31_1402,ACPT_experiment_5_30_19,3.1.0,59.94524315548725,
,,,C,D,y,b,R,G,g,R,c ,,,,,5,19,119,2,2,0,2,0,,,,,1,6,42,7,,,,,,up,0.8006266142328968,1786.5289239308913,None,001,86,2019_Oct_31_1402,ACPT_experiment_5_30_19,3.1.0,59.94524315548725,
,,,C,D,y,b,L,D,g,L,i,,,,,5,19,119,2,2,0,2,0,,,,,1,7,43,14,,,,,,up,0.50038850204146,1788.6139234660077,None,001,86,2019_Oct_31_1402,ACPT_experiment_5_30_19,3.1.0,59.94524315548725,
,,,C,D,y,b,L,U,g,R,u,,,,,5,19,119,2,2,0,2,0,,,,,1,8,44,23,,,,,,up,0.56715168543451,1790.3986773422803,None,001,86,2019_Oct_31_1402,ACPT_experiment_5_30_19,3.1.0,59.94524315548725,
,,,C,D,y,b,R,D,d,L,c,,,,,5,19,119,2,2,0,2,0,,,,,1,9,45,0,,,,,,up,0.48344745895883534,1792.267107673324,None,001,86,2019_Oct_31_1402,ACPT_experiment_5_30_19,3.1.0,59.94524315548725,
,,,C,D,y,b,R,U,d,R,u,,,,,5,19,119,2,2,0,2,0,,,,,1,10,46,9,,,,,,up,0.41699127363972366,1794.0349120542523,None,001,86,2019_Oct_31_1402,ACPT_experiment_5_30_19,3.1.0,59.94524315548725,
,,,C,D,y,b,R,D,g,R,i,,,,,5,19,119,2,2,0,2,0,,,,,1,11,47,3,,,,,,up,0.967453974444652,1795.736246364031,None,001,86,2019_Oct_31_1402,ACPT_experiment_5_30_19,3.1.0,59.94524315548725,
,,,C,D,y,b,R,U,d,L,u,,,,,5,19,119,2,2,0,2,0,,,,,1,12,48,8,,,,,,up,0.9007137328735553,1797.9880660145573,None,001,86,2019_Oct_31_1402,ACPT_experiment_5_30_19,3.1.0,59.94524315548725,
,,,C,D,y,b,L,D,g,R,i,,,,,5,19,119,2,2,0,2,0,,,,,1,13,49,15,,,,,,up,0.8339970368833747,1800.1731418011332,None,001,86,2019_Oct_31_1402,ACPT_experiment_5_30_19,3.1.0,59.94524315548725,
,,,C,D,y,b,R,D,y,L,y,,,,,5,19,119,2,2,0,2,0,,,,,1,14,50,26,,,,,,down,0.683874660244328,1802.2914993823942,None,001,86,2019_Oct_31_1402,ACPT_experiment_5_30_19,3.1.0,59.94524315548725,
,,,C,D,y,b,L,G,d,L,i,,,,,5,19,119,2,2,0,2,0,,,,,1,15,51,16,,,,,,up,0.6505154066544492,1804.2597400205996,None,001,86,2019_Oct_31_1402,ACPT_experiment_5_30_19,3.1.0,59.94524315548725,
,,,C,D,y,b,L,G,y,R,y,,,,,5,19,119,2,2,0,2,0,,,,,1,16,52,35,,,,,,down,0.6672228051611455,1806.1946129529679,None,001,86,2019_Oct_31_1402,ACPT_experiment_5_30_19,3.1.0,59.94524315548725,
,,,C,D,y,b,L,U,y,L,u,,,,,5,19,119,2,2,0,2,0,,,,,1,17,53,24,,,,,,down,0.6004747150582261,1808.1461706438567,None,001,86,2019_Oct_31_1402,ACPT_experiment_5_30_19,3.1.0,59.94524315548725,
,,,C,D,y,b,L,D,d,R,c ,,,,,5,19,119,2,2,0,2,0,,,,,1,18,54,13,,,,,,up,0.7172499127627816,1810.0310004697094,None,001,86,2019_Oct_31_1402,ACPT_experiment_5_30_19,3.1.0,59.94524315548725,
,,,C,D,y,b,L,U,d,L,u,,,,,5,19,119,2,2,0,2,0,,,,,1,19,55,20,,,,,,up,0.8673786285798997,1812.0326088137808,None,001,86,2019_Oct_31_1402,ACPT_experiment_5_30_19,3.1.0,59.94524315548725,
,,,C,D,y,b,L,G,d,R,i,,,,,5,19,119,2,2,0,2,0,,,,,1,20,56,17,,,,,,up,0.9507613673922606,1814.1843220262235,None,001,86,2019_Oct_31_1402,ACPT_experiment_5_30_19,3.1.0,59.94524315548725,
,,,C,D,y,b,L,U,g,L,u,,,,,5,19,119,2,2,0,2,0,,,,,1,21,57,22,,,,,,up,1.1676442106254399,1816.4194502771861,None,001,86,2019_Oct_31_1402,ACPT_experiment_5_30_19,3.1.0,59.94524315548725,
,,,C,D,y,b,R,G,d,L,i,,,,,5,19,119,2,2,0,2,0,,,,,1,22,58,4,,,,,,up,0.5671018774883123,1818.8714091484871,None,001,86,2019_Oct_31_1402,ACPT_experiment_5_30_19,3.1.0,59.94524315548725,
,,,C,D,y,b,R,G,d,R,i,,,,,5,19,119,2,2,0,2,0,,,,,1,23,59,5,,,,,,up,0.8006462355551776,1820.7061868118326,None,001,86,2019_Oct_31_1402,ACPT_experiment_5_30_19,3.1.0,59.94524315548725,
,,,C,D,y,b,R,G,y,R,y,,,,,5,19,119,2,2,0,2,0,,,,,1,24,60,29,,,,,,down,0.6672255219600629,1822.7744807596464,None,001,86,2019_Oct_31_1402,ACPT_experiment_5_30_19,3.1.0,59.94524315548725,
,,,C,D,y,b,R,U,g,R,u,,,,,5,19,119,2,2,0,2,0,,,,,1,25,61,11,,,,,,up,0.8003658016677946,1824.7430199437076,None,001,86,2019_Oct_31_1402,ACPT_experiment_5_30_19,3.1.0,59.94524315548725,
,,,C,D,y,b,R,D,g,L,i,,,,,5,19,119,2,2,0,2,0,,,,,1,26,62,2,,,,,,up,0.8673822509881575,1826.8110636443016,None,001,86,2019_Oct_31_1402,ACPT_experiment_5_30_19,3.1.0,59.94524315548725,
,,,C,D,y,b,R,D,y,R,y,,,,,5,19,119,2,2,0,2,0,,,,,1,27,63,27,,,,,,down,0.6003627226455137,1828.962785007141,None,001,86,2019_Oct_31_1402,ACPT_experiment_5_30_19,3.1.0,59.94524315548725,
,,,C,D,y,b,L,D,y,R,y,,,,,5,19,119,2,2,0,2,0,,,,,1,28,64,33,,,,,,down,0.6505326130281901,1830.8476196628617,None,001,86,2019_Oct_31_1402,ACPT_experiment_5_30_19,3.1.0,59.94524315548725,
,,,C,D,y,b,L,D,d,L,c ,,,,,5,19,119,2,2,0,2,0,,,,,1,29,65,12,,,,,,up,0.667223107026075,1832.7824750869768,None,001,86,2019_Oct_31_1402,ACPT_experiment_5_30_19,3.1.0,59.94524315548725,
,,,C,D,y,b,R,G,y,L,y,,,,,5,19,119,2,2,0,2,0,,,,,1,30,66,28,,,,,,down,0.8173204287595581,1834.7340523991734,None,001,86,2019_Oct_31_1402,ACPT_experiment_5_30_19,3.1.0,59.94524315548725,
,,,C,D,y,b,R,U,y,L,u,,,,,5,19,119,2,2,0,2,0,,,,,1,31,67,30,,,,,,down,0.7005733046244131,1836.8357345797704,None,001,86,2019_Oct_31_1402,ACPT_experiment_5_30_19,3.1.0,59.94524315548725,
,,,C,D,y,b,R,U,y,R,u,,,,,5,19,119,2,2,0,2,0,,,,,1,32,68,31,,,,,,down,0.6505102749215439,1838.820654241048,None,001,86,2019_Oct_31_1402,ACPT_experiment_5_30_19,3.1.0,59.94524315548725,
,,,C,D,y,b,R,U,g,L,u,,,,,5,19,119,2,2,0,2,0,,,,,1,33,69,10,,,,,,up,4.2200382525188616,1840.7555265696865,None,001,86,2019_Oct_31_1402,ACPT_experiment_5_30_19,3.1.0,59.94524315548725,
,,,C,D,y,b,L,G,y,L,y,,,,,5,19,119,2,2,0,2,0,,,,,1,34,70,34,,,,,,down,0.5838011255982565,1846.2599196311057,None,001,86,2019_Oct_31_1402,ACPT_experiment_5_30_19,3.1.0,59.94524315548725,
,,,C,D,y,b,L,G,g,R,c ,,,,,5,19,119,2,2,0,2,0,,,,,1,35,71,19,,,,,,up,0.7506236559420358,1848.1113757137646,None,001,86,2019_Oct_31_1402,ACPT_experiment_5_30_19,3.1.0,59.94524315548725,
,,,C,D,y,b,,,,,,,,,,5,19,119,2,3,0,3,0,0,0,0,0,,,,,,,,,,,,,,001,86,2019_Oct_31_1402,ACPT_experiment_5_30_19,3.1.0,59.94524315548725,
,,,C,D,y,b,R,U,y,R,u,,,,,5,19,119,2,3,0,3,0,,,,,0,0,0,31,,,,,,down,0.7837474537518574,1877.73521398101,None,001,86,2019_Oct_31_1402,ACPT_experiment_5_30_19,3.1.0,59.94524315548725,
,,,C,D,y,b,R,U,g,L,u,,,,,5,19,119,2,3,0,3,0,,,,,0,1,1,10,,,,,,up,0.7172357250528876,1879.8033560900367,None,001,86,2019_Oct_31_1402,ACPT_experiment_5_30_19,3.1.0,59.94524315548725,
,,,C,D,y,b,R,G,g,R,c ,,,,,5,19,119,2,3,0,3,0,,,,,0,2,2,7,,,,,,up,0.6505033319990616,1881.8049605098495,None,001,86,2019_Oct_31_1402,ACPT_experiment_5_30_19,3.1.0,59.94524315548725,
,,,C,D,y,b,R,D,y,R,y,,,,,5,19,119,2,3,0,3,0,,,,,0,3,3,27,,,,,,down,0.6171570586593589,1883.7398286123498,None,001,86,2019_Oct_31_1402,ACPT_experiment_5_30_19,3.1.0,59.94524315548725,
,,,C,D,y,b,R,G,y,R,y,,,,,5,19,119,2,3,0,3,0,,,,,0,4,4,29,,,,,,down,0.6171760762372287,1885.641327197809,None,001,86,2019_Oct_31_1402,ACPT_experiment_5_30_19,3.1.0,59.94524315548725,
,,,C,D,y,b,R,D,g,L,i,,,,,5,19,119,2,3,0,3,0,,,,,0,5,5,2,,,,,,up,0.733915351840551,1887.5428671389527,None,001,86,2019_Oct_31_1402,ACPT_experiment_5_30_19,3.1.0,59.94524315548725,
,,,C,D,y,b,L,U,d,R,u,,,,,5,19,119,2,3,0,3,0,,,,,0,6,6,21,,,,,,up,1.9682400344900088,1889.5611397146276,None,001,86,2019_Oct_31_1402,ACPT_experiment_5_30_19,3.1.0,59.94524315548725,
,,,C,D,y,b,R,U,d,L,u,,,,,5,19,119,2,3,0,3,0,,,,,0,7,7,8,,,,,,up,0.5504373440198833,1892.81374180282,None,001,86,2019_Oct_31_1402,ACPT_experiment_5_30_19,3.1.0,59.94524315548725,
,,,C,D,y,b,L,G,g,R,c ,,,,,5,19,119,2,3,0,3,0,,,,,0,8,8,19,,,,,,up,0.5337568116228795,1894.6485514639935,None,001,86,2019_Oct_31_1402,ACPT_experiment_5_30_19,3.1.0,59.94524315548725,
,,,C,D,y,b,L,D,d,L,c ,,,,,5,19,119,2,3,0,3,0,,,,,0,9,9,12,,,,,,up,0.5671124428045005,1896.4666633863962,None,001,86,2019_Oct_31_1402,ACPT_experiment_5_30_19,3.1.0,59.94524315548725,
,,,C,D,y,b,R,G,d,L,i,,,,,5,19,119,2,3,0,3,0,,,,,0,10,10,4,,,,,,up,0.7839632882096339,1898.301446483325,None,001,86,2019_Oct_31_1402,ACPT_experiment_5_30_19,3.1.0,59.94524315548725,
,,,C,D,y,b,L,G,d,R,i,,,,,5,19,119,2,3,0,3,0,,,,,0,11,11,17,,,,,,down,0.8006607251300011,1900.3697470722109,None,001,86,2019_Oct_31_1402,ACPT_experiment_5_30_19,3.1.0,59.94524315548725,
,,,C,D,y,b,L,U,g,R,u,,,,,5,19,119,2,3,0,3,0,,,,,0,12,12,23,,,,,,up,0.6171561530645704,1902.4547662286495,None,001,86,2019_Oct_31_1402,ACPT_experiment_5_30_19,3.1.0,59.94524315548725,
,,,C,D,y,b,L,G,y,R,y,,,,,5,19,119,2,3,0,3,0,,,,,0,13,13,35,,,,,,down,0.583827991707949,1904.356286548471,None,001,86,2019_Oct_31_1402,ACPT_experiment_5_30_19,3.1.0,59.94524315548725,
,,,C,D,y,b,L,G,g,L,c ,,,,,5,19,119,2,3,0,3,0,,,,,0,14,14,18,,,,,,up,0.9307563805487007,1906.2444402250258,None,001,86,2019_Oct_31_1402,ACPT_experiment_5_30_19,3.1.0,59.94524315548725,
,,,C,D,y,b,L,G,y,L,y,,,,,5,19,119,2,3,0,3,0,,,,,0,15,15,34,,,,,,down,0.6672463507420616,1908.459555338748,None,001,86,2019_Oct_31_1402,ACPT_experiment_5_30_19,3.1.0,59.94524315548725,
,,,C,D,y,b,R,D,d,L,c,,,,,5,19,119,2,3,0,3,0,,,,,0,16,16,0,,,,,,up,0.7339225966279628,1910.411119972574,None,001,86,2019_Oct_31_1402,ACPT_experiment_5_30_19,3.1.0,59.94524315548725,
,,,C,D,y,b,R,U,y,L,u,,,,,5,19,119,2,3,0,3,0,,,,,0,17,17,30,,,,,,down,0.5337740179966204,1912.4293901333294,None,001,86,2019_Oct_31_1402,ACPT_experiment_5_30_19,3.1.0,59.94524315548725,
,,,C,D,y,b,L,U,g,L,u,,,,,5,19,119,2,3,0,3,0,,,,,0,18,18,22,,,,,,up,0.600489506527083,1914.247491188522,None,001,86,2019_Oct_31_1402,ACPT_experiment_5_30_19,3.1.0,59.94524315548725,
,,,C,D,y,b,L,D,d,R,c ,,,,,5,19,119,2,3,0,3,0,,,,,0,19,19,13,,,,,,up,1.0007951160368975,1916.132349087944,None,001,86,2019_Oct_31_1402,ACPT_experiment_5_30_19,3.1.0,59.94524315548725,
,,,C,D,y,b,R,G,y,L,y,,,,,5,19,119,2,3,0,3,0,,,,,0,20,20,28,,,,,,down,0.7670720530877588,1918.434352514727,None,001,86,2019_Oct_31_1402,ACPT_experiment_5_30_19,3.1.0,59.94524315548725,
,,,C,D,y,b,L,U,y,L,u,,,,,5,19,119,2,3,0,3,0,,,,,0,21,21,24,,,,,,down,0.6838656042673392,1920.502513943211,None,001,86,2019_Oct_31_1402,ACPT_experiment_5_30_19,3.1.0,59.94524315548725,
,,,C,D,y,b,L,D,g,L,i,,,,,5,19,119,2,3,0,3,0,,,,,0,22,22,14,,,,,,up,0.8673581016628304,1922.470737676922,None,001,86,2019_Oct_31_1402,ACPT_experiment_5_30_19,3.1.0,59.94524315548725,
,,,C,D,y,b,L,U,y,R,u,,,,,5,19,119,2,3,0,3,0,,,,,0,23,23,25,,,,,,down,0.6004801486706128,1924.6224554173532,None,001,86,2019_Oct_31_1402,ACPT_experiment_5_30_19,3.1.0,59.94524315548725,
,,,C,D,y,b,L,D,g,R,i,,,,,5,19,119,2,3,0,3,0,,,,,0,24,24,15,,,,,,up,0.5835596324905055,1926.5242151172279,None,001,86,2019_Oct_31_1402,ACPT_experiment_5_30_19,3.1.0,59.94524315548725,
,,,C,D,y,b,R,D,g,R,i,,,,,5,19,119,2,3,0,3,0,,,,,0,25,25,3,,,,,,up,0.4837164218915859,1928.3921310679725,None,001,86,2019_Oct_31_1402,ACPT_experiment_5_30_19,3.1.0,59.94524315548725,
,,,C,D,y,b,R,U,g,R,u,,,,,5,19,119,2,3,0,3,0,,,,,0,26,26,11,,,,,,up,0.583800823733327,1930.1602092417015,None,001,86,2019_Oct_31_1402,ACPT_experiment_5_30_19,3.1.0,59.94524315548725,
,,,C,D,y,b,L,G,d,L,i,,,,,5,19,119,2,3,0,3,0,,,,,0,27,27,16,,,,,,down,0.7839424594421871,1932.0283808732638,None,001,86,2019_Oct_31_1402,ACPT_experiment_5_30_19,3.1.0,59.94524315548725,
,,,C,D,y,b,L,U,d,L,u,,,,,5,19,119,2,3,0,3,0,,,,,0,28,28,20,,,,,,up,3.7530105134064797,1934.0966835752188,None,001,86,2019_Oct_31_1402,ACPT_experiment_5_30_19,3.1.0,59.94524315548725,
,,,C,D,y,b,R,D,y,L,y,,,,,5,19,119,2,3,0,3,0,,,,,0,29,29,26,,,,,,down,0.68387345278461,1939.1340482937958,None,001,86,2019_Oct_31_1402,ACPT_experiment_5_30_19,3.1.0,59.94524315548725,
,,,C,D,y,b,R,G,g,L,c ,,,,,5,19,119,2,3,0,3,0,,,,,0,30,30,6,,,,,,up,1.0341712741501397,1941.10227806482,None,001,86,2019_Oct_31_1402,ACPT_experiment_5_30_19,3.1.0,59.94524315548725,
,,,C,D,y,b,L,D,y,L,y,,,,,5,19,119,2,3,0,3,0,,,,,0,31,31,32,,,,,,down,0.6171576623892179,1943.4207848284423,None,001,86,2019_Oct_31_1402,ACPT_experiment_5_30_19,3.1.0,59.94524315548725,
,,,C,D,y,b,R,U,d,R,u,,,,,5,19,119,2,3,0,3,0,,,,,0,32,32,9,,,,,,up,0.6838656042527873,1945.3223202415975,None,001,86,2019_Oct_31_1402,ACPT_experiment_5_30_19,3.1.0,59.94524315548725,
,,,C,D,y,b,L,D,y,R,y,,,,,5,19,119,2,3,0,3,0,,,,,0,33,33,33,,,,,,down,0.6171558511996409,1947.2905427678343,None,001,86,2019_Oct_31_1402,ACPT_experiment_5_30_19,3.1.0,59.94524315548725,
,,,C,D,y,b,R,G,d,R,i,,,,,5,19,119,2,3,0,3,0,,,,,0,34,34,5,,,,,,down,0.7172447810298763,1949.1920510130149,None,001,86,2019_Oct_31_1402,ACPT_experiment_5_30_19,3.1.0,59.94524315548725,
,,,C,D,y,b,R,D,d,R,c ,,,,,5,19,119,2,3,0,3,0,,,,,0,35,35,1,,,,,,up,0.7672743035655003,1951.1936620738707,None,001,86,2019_Oct_31_1402,ACPT_experiment_5_30_19,3.1.0,59.94524315548725,
,,,C,D,y,b,L,U,g,L,u,,,,,5,19,119,2,3,0,3,0,,,,,1,0,36,22,,,,,,up,0.5504319104220485,1953.245299034883,None,001,86,2019_Oct_31_1402,ACPT_experiment_5_30_19,3.1.0,59.94524315548725,
,,,C,D,y,b,R,G,d,L,i,,,,,5,19,119,2,3,0,3,0,,,,,1,1,37,4,,,,,,up,1.0341582938999636,1955.0800954139268,None,001,86,2019_Oct_31_1402,ACPT_experiment_5_30_19,3.1.0,59.94524315548725,
,,,C,D,y,b,R,G,g,R,c ,,,,,5,19,119,2,3,0,3,0,,,,,1,2,38,7,,,,,,up,3.102203805698082,1957.3988841207465,None,001,86,2019_Oct_31_1402,ACPT_experiment_5_30_19,3.1.0,59.94524315548725,
,,,C,D,y,b,L,D,d,R,c ,,,,,5,19,119,2,3,0,3,0,,,,,1,3,39,13,,,,,,down,1.1342306210863171,1961.7854484708078,None,001,86,2019_Oct_31_1402,ACPT_experiment_5_30_19,3.1.0,59.94524315548725,
,,,C,D,y,b,L,U,d,L,u,,,,,5,19,119,2,3,0,3,0,,,,,1,4,40,20,,,,,,up,0.5671347809256986,1964.2040172981506,None,001,86,2019_Oct_31_1402,ACPT_experiment_5_30_19,3.1.0,59.94524315548725,
,,,C,D,y,b,R,D,g,R,i,,,,,5,19,119,2,3,0,3,0,,,,,1,5,41,3,,,,,,up,0.6171380410814891,1966.0555413007532,None,001,86,2019_Oct_31_1402,ACPT_experiment_5_30_19,3.1.0,59.94524315548725,
,,,C,D,y,b,R,U,g,R,u,,,,,5,19,119,2,3,0,3,0,,,,,1,6,42,11,,,,,,up,0.500418084935518,1967.9570136238326,None,001,86,2019_Oct_31_1402,ACPT_experiment_5_30_19,3.1.0,59.94524315548725,
,,,C,D,y,b,L,D,d,L,c ,,,,,5,19,119,2,3,0,3,0,,,,,1,7,43,12,,,,,,up,1.0005149840435479,1969.7587568418094,None,001,86,2019_Oct_31_1402,ACPT_experiment_5_30_19,3.1.0,59.94524315548725,
,,,C,D,y,b,L,D,y,R,y,,,,,5,19,119,2,3,0,3,0,,,,,1,8,44,33,,,,,,down,0.7339075033087283,1972.0436362944893,None,001,86,2019_Oct_31_1402,ACPT_experiment_5_30_19,3.1.0,59.94524315548725,
,,,C,D,y,b,R,U,y,R,u,,,,,5,19,119,2,3,0,3,0,,,,,1,9,45,31,,,,,,down,0.7672715867665829,1974.0619130963023,None,001,86,2019_Oct_31_1402,ACPT_experiment_5_30_19,3.1.0,59.94524315548725,
,,,C,D,y,b,L,D,g,R,i,,,,,5,19,119,2,3,0,3,0,,,,,1,10,46,15,,,,,,up,0.6171504176018061,1976.113549755435,None,001,86,2019_Oct_31_1402,ACPT_experiment_5_30_19,3.1.0,59.94524315548725,
,,,C,D,y,b,L,D,g,L,i,,,,,5,19,119,2,3,0,3,0,,,,,1,11,47,14,,,,,,up,0.8172223221772583,1977.998366299158,None,001,86,2019_Oct_31_1402,ACPT_experiment_5_30_19,3.1.0,59.94524315548725,
,,,C,D,y,b,L,G,g,L,c ,,,,,5,19,119,2,3,0,3,0,,,,,1,12,48,18,,,,,,up,0.5671260267990874,1980.1000457629561,None,001,86,2019_Oct_31_1402,ACPT_experiment_5_30_19,3.1.0,59.94524315548725,
,,,C,D,y,b,R,D,g,L,i,,,,,5,19,119,2,3,0,3,0,,,,,1,13,49,2,,,,,,up,0.550434627206414,1981.9515365602565,None,001,86,2019_Oct_31_1402,ACPT_experiment_5_30_19,3.1.0,59.94524315548725,
,,,C,D,y,b,L,U,g,R,u,,,,,5,19,119,2,3,0,3,0,,,,,1,14,50,23,,,,,,up,0.8173240511387121,1983.7863326374354,None,001,86,2019_Oct_31_1402,ACPT_experiment_5_30_19,3.1.0,59.94524315548725,
,,,C,D,y,b,R,D,y,R,y,,,,,5,19,119,2,3,0,3,0,,,,,1,15,51,27,,,,,,down,0.6671983539854409,1985.8880105918943,None,001,86,2019_Oct_31_1402,ACPT_experiment_5_30_19,3.1.0,59.94524315548725,
,,,C,D,y,b,R,U,g,L,u,,,,,5,19,119,2,3,0,3,0,,,,,1,16,52,10,,,,,,up,0.9340820424549747,1987.839574018246,None,001,86,2019_Oct_31_1402,ACPT_experiment_5_30_19,3.1.0,59.94524315548725,
,,,C,D,y,b,R,U,d,R,u,,,,,5,19,119,2,3,0,3,0,,,,,1,17,53,9,,,,,,up,1.3177294576889835,1990.058005134153,None,001,86,2019_Oct_31_1402,ACPT_experiment_5_30_19,3.1.0,59.94524315548725,
,,,C,D,y,b,R,G,g,L,c ,,,,,5,19,119,2,3,0,3,0,,,,,1,18,54,6,,,,,,up,1.1676007418718655,1992.66008185409,None,001,86,2019_Oct_31_1402,ACPT_experiment_5_30_19,3.1.0,59.94524315548725,
,,,C,D,y,b,L,D,y,L,y,,,,,5,19,119,2,3,0,3,0,,,,,1,19,55,32,,,,,,down,0.7172336119838292,1995.1120416310005,None,001,86,2019_Oct_31_1402,ACPT_experiment_5_30_19,3.1.0,59.94524315548725,
,,,C,D,y,b,R,U,y,L,u,,,,,5,19,119,2,3,0,3,0,,,,,1,20,56,30,,,,,,down,0.6338496657117503,1997.1303012264252,None,001,86,2019_Oct_31_1402,ACPT_experiment_5_30_19,3.1.0,59.94524315548725,
,,,C,D,y,b,L,U,y,L,u,,,,,5,19,119,2,3,0,3,0,,,,,1,21,57,24,,,,,,down,0.6338387985160807,1999.0651940819807,None,001,86,2019_Oct_31_1402,ACPT_experiment_5_30_19,3.1.0,59.94524315548725,
,,,C,D,y,b,R,G,y,R,y,,,,,5,19,119,2,3,0,3,0,,,,,1,22,58,29,,,,,,down,0.5838008237187751,2000.9833913118055,None,001,86,2019_Oct_31_1402,ACPT_experiment_5_30_19,3.1.0,59.94524315548725,
,,,C,D,y,b,R,D,d,R,c ,,,,,5,19,119,2,3,0,3,0,,,,,1,23,59,1,,,,,,up,0.5671163670776878,2002.8515502649825,None,001,86,2019_Oct_31_1402,ACPT_experiment_5_30_19,3.1.0,59.94524315548725,
,,,C,D,y,b,R,G,y,L,y,,,,,5,19,119,2,3,0,3,0,,,,,1,24,60,28,,,,,,down,0.5334615862957435,2004.7199984061444,None,001,86,2019_Oct_31_1402,ACPT_experiment_5_30_19,3.1.0,59.94524315548725,
,,,C,D,y,b,L,U,d,R,u,,,,,5,19,119,2,3,0,3,0,,,,,1,25,61,21,,,,,,up,0.5504237600252964,2006.537836535732,None,001,86,2019_Oct_31_1402,ACPT_experiment_5_30_19,3.1.0,59.94524315548725,
,,,C,D,y,b,R,D,y,L,y,,,,,5,19,119,2,3,0,3,0,,,,,1,26,62,26,,,,,,down,0.5671362902503461,2008.3725985020283,None,001,86,2019_Oct_31_1402,ACPT_experiment_5_30_19,3.1.0,59.94524315548725,
,,,C,D,y,b,L,G,d,L,i,,,,,5,19,119,2,3,0,3,0,,,,,1,27,63,16,,,,,,up,0.9507598580530612,2010.224096242251,None,001,86,2019_Oct_31_1402,ACPT_experiment_5_30_19,3.1.0,59.94524315548725,
,,,C,D,y,b,R,G,d,R,i,,,,,5,19,119,2,3,0,3,0,,,,,1,28,64,5,,,,,,down,0.800620576905203,2012.459227813728,None,001,86,2019_Oct_31_1402,ACPT_experiment_5_30_19,3.1.0,59.94524315548725,
,,,C,D,y,b,L,G,y,L,y,,,,,5,19,119,2,3,0,3,0,,,,,1,29,65,34,,,,,,down,0.6338246108061867,2014.56089761779,None,001,86,2019_Oct_31_1402,ACPT_experiment_5_30_19,3.1.0,59.94524315548725,
,,,C,D,y,b,L,U,y,R,u,,,,,5,19,119,2,3,0,3,0,,,,,1,30,66,25,,,,,,down,0.6505099730566144,2016.4957726632274,None,001,86,2019_Oct_31_1402,ACPT_experiment_5_30_19,3.1.0,59.94524315548725,
,,,C,D,y,b,R,U,d,L,u,,,,,5,19,119,2,3,0,3,0,,,,,1,31,67,8,,,,,,down,0.8506618722167332,2018.430660688915,None,001,86,2019_Oct_31_1402,ACPT_experiment_5_30_19,3.1.0,59.94524315548725,
,,,C,D,y,b,R,D,d,L,c,,,,,5,19,119,2,3,0,3,0,,,,,1,32,68,0,,,,,,down,0.5003987654781668,2020.5656828036444,None,001,86,2019_Oct_31_1402,ACPT_experiment_5_30_19,3.1.0,59.94524315548725,
,,,C,D,y,b,L,G,d,R,i,,,,,5,19,119,2,3,0,3,0,,,,,1,33,69,17,,,,,,up,0.6005085240904009,2022.3504224921926,None,001,86,2019_Oct_31_1402,ACPT_experiment_5_30_19,3.1.0,59.94524315548725,
,,,C,D,y,b,L,G,g,R,c ,,,,,5,19,119,2,3,0,3,0,,,,,1,34,70,19,,,,,,up,0.5004141606768826,2024.2185805397603,None,001,86,2019_Oct_31_1402,ACPT_experiment_5_30_19,3.1.0,59.94524315548725,
,,,C,D,y,b,L,G,y,R,y,,,,,5,19,119,2,3,0,3,0,,,,,1,35,71,35,,,,,,down,0.6004819598601898,2026.003352829881,None,001,86,2019_Oct_31_1402,ACPT_experiment_5_30_19,3.1.0,59.94524315548725,
,,,C,D,y,b,,,,,,,,,,5,19,119,2,4,0,4,0,0,0,0,0,,,,,,,,,,,,,,001,86,2019_Oct_31_1402,ACPT_experiment_5_30_19,3.1.0,59.94524315548725,
,,,C,D,y,b,L,U,g,R,u,,,,,5,19,119,2,4,0,4,0,,,,,0,0,0,23,,,,,,up,1.0337236063060118,2047.5876481107407,None,001,86,2019_Oct_31_1402,ACPT_experiment_5_30_19,3.1.0,59.94524315548725,
,,,C,D,y,b,R,D,y,R,y,,,,,5,19,119,2,4,0,4,0,,,,,0,1,1,27,,,,,,down,0.7339373880822677,2049.905764561132,None,001,86,2019_Oct_31_1402,ACPT_experiment_5_30_19,3.1.0,59.94524315548725,
,,,C,D,y,b,L,D,y,L,y,,,,,5,19,119,2,4,0,4,0,,,,,0,2,2,32,,,,,,down,0.7170274372474523,2051.94089727971,None,001,86,2019_Oct_31_1402,ACPT_experiment_5_30_19,3.1.0,59.94524315548725,
,,,C,D,y,b,L,U,y,R,u,,,,,5,19,119,2,4,0,4,0,,,,,0,3,3,25,,,,,,down,0.5837881453480804,2053.9590008102095,None,001,86,2019_Oct_31_1402,ACPT_experiment_5_30_19,3.1.0,59.94524315548725,
,,,C,D,y,b,L,G,g,L,c ,,,,,5,19,119,2,4,0,4,0,,,,,0,4,4,18,,,,,,up,0.7506061476888135,2055.827155839128,None,001,86,2019_Oct_31_1402,ACPT_experiment_5_30_19,3.1.0,59.94524315548725,
,,,C,D,y,b,L,D,g,R,i,,,,,5,19,119,2,4,0,4,0,,,,,0,5,5,15,,,,,,up,0.6171585679985583,2057.8621119658637,None,001,86,2019_Oct_31_1402,ACPT_experiment_5_30_19,3.1.0,59.94524315548725,
,,,C,D,y,b,R,U,d,L,u,,,,,5,19,119,2,4,0,4,0,,,,,0,6,6,8,,,,,,up,0.7672993584710639,2059.763609645728,None,001,86,2019_Oct_31_1402,ACPT_experiment_5_30_19,3.1.0,59.94524315548725,
,,,C,D,y,b,L,G,g,R,c ,,,,,5,19,119,2,4,0,4,0,,,,,0,7,7,19,,,,,,up,0.5835279365273891,2061.832220553246,None,001,86,2019_Oct_31_1402,ACPT_experiment_5_30_19,3.1.0,59.94524315548725,
,,,C,D,y,b,R,U,y,L,u,,,,,5,19,119,2,4,0,4,0,,,,,0,8,8,30,,,,,,down,0.5337779422552558,2063.700081262432,None,001,86,2019_Oct_31_1402,ACPT_experiment_5_30_19,3.1.0,59.94524315548725,
,,,C,D,y,b,R,U,g,R,u,,,,,5,19,119,2,4,0,4,0,,,,,0,9,9,11,,,,,,up,0.5838128983887145,2065.5015214065643,None,001,86,2019_Oct_31_1402,ACPT_experiment_5_30_19,3.1.0,59.94524315548725,
,,,C,D,y,b,L,G,d,R,i,,,,,5,19,119,2,4,0,4,0,,,,,0,10,10,17,,,,,,up,1.0174708185804775,2067.3697093389055,None,001,86,2019_Oct_31_1402,ACPT_experiment_5_30_19,3.1.0,59.94524315548725,
,,,C,D,y,b,R,D,y,L,y,,,,,5,19,119,2,4,0,4,0,,,,,0,11,11,26,,,,,,down,0.7839566471520811,2069.6715367775905,None,001,86,2019_Oct_31_1402,ACPT_experiment_5_30_19,3.1.0,59.94524315548725,
,,,C,D,y,b,R,D,g,R,i,,,,,5,19,119,2,4,0,4,0,,,,,0,12,12,3,,,,,,up,0.9173954727302771,2071.7398551765946,None,001,86,2019_Oct_31_1402,ACPT_experiment_5_30_19,3.1.0,59.94524315548725,
,,,C,D,y,b,L,U,d,L,u,,,,,5,19,119,2,4,0,4,0,,,,,0,13,13,20,,,,,,up,1.217616982277832,2073.941634135539,None,001,86,2019_Oct_31_1402,ACPT_experiment_5_30_19,3.1.0,59.94524315548725,
,,,C,D,y,b,L,G,y,R,y,,,,,5,19,119,2,4,0,4,0,,,,,0,14,14,35,,,,,,down,0.6171845284989104,2076.443582381151,None,001,86,2019_Oct_31_1402,ACPT_experiment_5_30_19,3.1.0,59.94524315548725,
,,,C,D,y,b,R,U,g,L,u,,,,,5,19,119,2,4,0,4,0,,,,,0,15,15,10,,,,,,up,0.8173222399345832,2078.345123529769,None,001,86,2019_Oct_31_1402,ACPT_experiment_5_30_19,3.1.0,59.94524315548725,
,,,C,D,y,b,L,G,d,L,i,,,,,5,19,119,2,4,0,4,0,,,,,0,16,16,16,,,,,,up,0.7339225966279628,2080.4467975599546,None,001,86,2019_Oct_31_1402,ACPT_experiment_5_30_19,3.1.0,59.94524315548725,
,,,C,D,y,b,L,D,d,R,c ,,,,,5,19,119,2,4,0,4,0,,,,,0,17,17,13,,,,,,up,2.451986944884993,2082.448373604333,None,001,86,2019_Oct_31_1402,ACPT_experiment_5_30_19,3.1.0,59.94524315548725,
,,,C,D,y,b,R,G,g,L,c ,,,,,5,19,119,2,4,0,4,0,,,,,0,18,18,6,,,,,,up,0.5504310048127081,2086.1847177730524,None,001,86,2019_Oct_31_1402,ACPT_experiment_5_30_19,3.1.0,59.94524315548725,
,,,C,D,y,b,R,G,y,L,y,,,,,5,19,119,2,4,0,4,0,,,,,0,19,19,28,,,,,,down,0.6672043913131347,2088.0028245637222,None,001,86,2019_Oct_31_1402,ACPT_experiment_5_30_19,3.1.0,59.94524315548725,
,,,C,D,y,b,R,U,y,R,u,,,,,5,19,119,2,4,0,4,0,,,,,0,20,20,31,,,,,,down,0.600464753471897,2089.9710697299306,None,001,86,2019_Oct_31_1402,ACPT_experiment_5_30_19,3.1.0,59.94524315548725,
,,,C,D,y,b,L,U,d,R,u,,,,,5,19,119,2,4,0,4,0,,,,,0,21,21,21,,,,,,up,0.6672152584942523,2091.8725855217635,None,001,86,2019_Oct_31_1402,ACPT_experiment_5_30_19,3.1.0,59.94524315548725,
,,,C,D,y,b,L,U,g,L,u,,,,,5,19,119,2,4,0,4,0,,,,,0,22,22,22,,,,,,up,0.5504581727873301,2093.8074451720167,None,001,86,2019_Oct_31_1402,ACPT_experiment_5_30_19,3.1.0,59.94524315548725,
,,,C,D,y,b,R,U,d,R,u,,,,,5,19,119,2,4,0,4,0,,,,,0,23,23,9,,,,,,up,0.5338048083649483,2095.6422334006784,None,001,86,2019_Oct_31_1402,ACPT_experiment_5_30_19,3.1.0,59.94524315548725,
,,,C,D,y,b,L,G,y,L,y,,,,,5,19,119,2,4,0,4,0,,,,,0,24,24,34,,,,,,down,0.5500180516100954,2097.4774505814567,None,001,86,2019_Oct_31_1402,ACPT_experiment_5_30_19,3.1.0,59.94524315548725,
,,,C,D,y,b,R,G,d,R,i,,,,,5,19,119,2,4,0,4,0,,,,,0,25,25,5,,,,,,up,0.6505009170796257,2099.311869929399,None,001,86,2019_Oct_31_1402,ACPT_experiment_5_30_19,3.1.0,59.94524315548725,
,,,C,D,y,b,R,D,d,R,c ,,,,,5,19,119,2,4,0,4,0,,,,,0,26,26,1,,,,,,up,0.5504406645341078,2101.230051764054,None,001,86,2019_Oct_31_1402,ACPT_experiment_5_30_19,3.1.0,59.94524315548725,
,,,C,D,y,b,R,G,d,L,i,,,,,5,19,119,2,4,0,4,0,,,,,0,27,27,4,,,,,,down,0.867357799797901,2103.0648496524373,None,001,86,2019_Oct_31_1402,ACPT_experiment_5_30_19,3.1.0,59.94524315548725,
,,,C,D,y,b,R,G,y,R,y,,,,,5,19,119,2,4,0,4,0,,,,,0,28,28,29,,,,,,down,0.5671550059778383,2105.216572826481,None,001,86,2019_Oct_31_1402,ACPT_experiment_5_30_19,3.1.0,59.94524315548725,
,,,C,D,y,b,L,D,g,L,i,,,,,5,19,119,2,4,0,4,0,,,,,0,29,29,14,,,,,,up,0.6004825635900488,2107.068046417393,None,001,86,2019_Oct_31_1402,ACPT_experiment_5_30_19,3.1.0,59.94524315548725,
,,,C,D,y,b,R,D,g,L,i,,,,,5,19,119,2,4,0,4,0,,,,,0,30,30,2,,,,,,up,0.7339277283608681,2108.9528895253607,None,001,86,2019_Oct_31_1402,ACPT_experiment_5_30_19,3.1.0,59.94524315548725,
,,,C,D,y,b,L,U,y,L,u,,,,,5,19,119,2,4,0,4,0,,,,,0,31,31,24,,,,,,down,0.7470715942472452,2111.008026928903,None,001,86,2019_Oct_31_1402,ACPT_experiment_5_30_19,3.1.0,59.94524315548725,
,,,C,D,y,b,L,D,y,R,y,,,,,5,19,119,2,4,0,4,0,,,,,0,32,32,33,,,,,,down,0.567112140939571,2113.0394814056344,None,001,86,2019_Oct_31_1402,ACPT_experiment_5_30_19,3.1.0,59.94524315548725,
,,,C,D,y,b,R,G,g,R,c ,,,,,5,19,119,2,4,0,4,0,,,,,0,33,33,7,,,,,,up,0.9007137328590034,2114.89095771336,None,001,86,2019_Oct_31_1402,ACPT_experiment_5_30_19,3.1.0,59.94524315548725,
,,,C,D,y,b,L,D,d,L,c ,,,,,5,19,119,2,4,0,4,0,,,,,0,34,34,12,,,,,,up,0.6838571519911056,2117.0760501025798,None,001,86,2019_Oct_31_1402,ACPT_experiment_5_30_19,3.1.0,59.94524315548725,
,,,C,D,y,b,R,D,d,L,c,,,,,5,19,119,2,4,0,4,0,,,,,0,35,35,0,,,,,,up,0.5004090289439773,2119.044261157891,None,001,86,2019_Oct_31_1402,ACPT_experiment_5_30_19,3.1.0,59.94524315548725,
,,,C,D,y,b,L,U,y,R,u,,,,,5,19,119,2,4,0,4,0,,,,,1,0,36,25,,,,,,down,0.5671169708075467,2120.829029825618,None,001,86,2019_Oct_31_1402,ACPT_experiment_5_30_19,3.1.0,59.94524315548725,
,,,C,D,y,b,R,G,g,R,c ,,,,,5,19,119,2,4,0,4,0,,,,,1,1,37,7,,,,,,up,0.6004608292132616,2122.680520924783,None,001,86,2019_Oct_31_1402,ACPT_experiment_5_30_19,3.1.0,59.94524315548725,
,,,C,D,y,b,L,G,g,L,c ,,,,,5,19,119,2,4,0,4,0,,,,,1,2,38,18,,,,,,up,0.6338252145360457,2124.5653546748945,None,001,86,2019_Oct_31_1402,ACPT_experiment_5_30_19,3.1.0,59.94524315548725,
,,,C,D,y,b,R,U,y,L,u,,,,,5,19,119,2,4,0,4,0,,,,,1,3,39,30,,,,,,down,0.6505329149076715,2126.4835368114,None,001,86,2019_Oct_31_1402,ACPT_experiment_5_30_19,3.1.0,59.94524315548725,
,,,C,D,y,b,L,G,y,R,y,,,,,5,19,119,2,4,0,4,0,,,,,1,4,40,35,,,,,,down,0.6505105767864734,2128.4184263464267,None,001,86,2019_Oct_31_1402,ACPT_experiment_5_30_19,3.1.0,59.94524315548725,
,,,C,D,y,b,L,D,g,R,i,,,,,5,19,119,2,4,0,4,0,,,,,1,5,41,15,,,,,,up,0.9504869708471233,2130.3702490759897,None,001,86,2019_Oct_31_1402,ACPT_experiment_5_30_19,3.1.0,59.94524315548725,
,,,C,D,y,b,L,U,y,L,u,,,,,5,19,119,2,4,0,4,0,,,,,1,6,42,24,,,,,,down,0.6338584198383614,2132.6050751587027,None,001,86,2019_Oct_31_1402,ACPT_experiment_5_30_19,3.1.0,59.94524315548725,
,,,C,D,y,b,R,D,y,R,y,,,,,5,19,119,2,4,0,4,0,,,,,1,7,43,27,,,,,,down,0.6838758677185979,2134.523283255723,None,001,86,2019_Oct_31_1402,ACPT_experiment_5_30_19,3.1.0,59.94524315548725,
,,,C,D,y,b,L,U,g,L,u,,,,,5,19,119,2,4,0,4,0,,,,,1,8,44,22,,,,,,up,0.5837993144086795,2136.491519064075,None,001,86,2019_Oct_31_1402,ACPT_experiment_5_30_19,3.1.0,59.94524315548725,
,,,C,D,y,b,R,G,d,L,i,,,,,5,19,119,2,4,0,4,0,,,,,1,9,45,4,,,,,,down,0.7506016197003191,2138.3596964311,None,001,86,2019_Oct_31_1402,ACPT_experiment_5_30_19,3.1.0,59.94524315548725,
,,,C,D,y,b,R,U,g,R,u,,,,,5,19,119,2,4,0,4,0,,,,,1,10,46,11,,,,,,up,0.9007089030055795,2140.3946395775856,None,001,86,2019_Oct_31_1402,ACPT_experiment_5_30_19,3.1.0,59.94524315548725,
,,,C,D,y,b,L,U,g,R,u,,,,,5,19,119,2,4,0,4,0,,,,,1,11,47,23,,,,,,up,0.45035565897705965,2142.579716873486,None,001,86,2019_Oct_31_1402,ACPT_experiment_5_30_19,3.1.0,59.94524315548725,
,,,C,D,y,b,R,G,y,R,y,,,,,5,19,119,2,4,0,4,0,,,,,1,12,48,29,,,,,,down,0.5003978598833783,2144.3144370010996,None,001,86,2019_Oct_31_1402,ACPT_experiment_5_30_19,3.1.0,59.94524315548725,
,,,C,D,y,b,R,D,g,R,i,,,,,5,19,119,2,4,0,4,0,,,,,1,13,49,3,,,,,,up,0.5337550004187506,2146.0991902736278,None,001,86,2019_Oct_31_1402,ACPT_experiment_5_30_19,3.1.0,59.94524315548725,
,,,C,D,y,b,R,D,g,L,i,,,,,5,19,119,2,4,0,4,0,,,,,1,14,50,2,,,,,,up,0.7505973935622023,2147.917304912815,None,001,86,2019_Oct_31_1402,ACPT_experiment_5_30_19,3.1.0,59.94524315548725,
,,,C,D,y,b,L,D,d,L,c ,,,,,5,19,119,2,4,0,4,0,,,,,1,15,51,12,,,,,,up,0.4837034416414099,2149.9522728123557,None,001,86,2019_Oct_31_1402,ACPT_experiment_5_30_19,3.1.0,59.94524315548725,
,,,C,D,y,b,R,U,d,R,u,,,,,5,19,119,2,4,0,4,0,,,,,1,16,52,9,,,,,,up,1.0341573883051751,2151.720347363691,None,001,86,2019_Oct_31_1402,ACPT_experiment_5_30_19,3.1.0,59.94524315548725,
,,,C,D,y,b,R,D,d,L,c,,,,,5,19,119,2,4,0,4,0,,,,,1,17,53,0,,,,,,up,0.6004789411963429,2154.0221835565026,None,001,86,2019_Oct_31_1402,ACPT_experiment_5_30_19,3.1.0,59.94524315548725,
,,,C,D,y,b,L,D,g,L,i,,,,,5,19,119,2,4,0,4,0,,,,,1,18,54,14,,,,,,up,0.5337559060135391,2155.9070160991396,None,001,86,2019_Oct_31_1402,ACPT_experiment_5_30_19,3.1.0,59.94524315548725,
,,,C,D,y,b,L,U,d,R,u,,,,,5,19,119,2,4,0,4,0,,,,,1,19,55,21,,,,,,up,0.700563946767943,2157.7251361719245,None,001,86,2019_Oct_31_1402,ACPT_experiment_5_30_19,3.1.0,59.94524315548725,
,,,C,D,y,b,L,D,y,L,y,,,,,5,19,119,2,4,0,4,0,,,,,1,20,56,32,,,,,,down,0.8506814935390139,2159.7100513052137,None,001,86,2019_Oct_31_1402,ACPT_experiment_5_30_19,3.1.0,59.94524315548725,
,,,C,D,y,b,L,D,y,R,y,,,,,5,19,119,2,4,0,4,0,,,,,1,21,57,33,,,,,,down,0.683590000247932,2161.87872850259,None,001,86,2019_Oct_31_1402,ACPT_experiment_5_30_19,3.1.0,59.94524315548725,
,,,C,D,y,b,R,U,g,L,u,,,,,5,19,119,2,4,0,4,0,,,,,1,22,58,10,,,,,,up,2.6187457814085064,2163.880049771731,None,001,86,2019_Oct_31_1402,ACPT_experiment_5_30_19,3.1.0,59.94524315548725,
,,,C,D,y,b,L,G,g,R,c ,,,,,5,19,119,2,4,0,4,0,,,,,1,23,59,19,,,,,,up,0.9674313344585244,2167.7831612292503,None,001,86,2019_Oct_31_1402,ACPT_experiment_5_30_19,3.1.0,59.94524315548725,
,,,C,D,y,b,R,D,d,R,c ,,,,,5,19,119,2,4,0,4,0,,,,,1,24,60,1,,,,,,down,0.7506185242091306,2170.0349349961034,None,001,86,2019_Oct_31_1402,ACPT_experiment_5_30_19,3.1.0,59.94524315548725,
,,,C,D,y,b,L,G,y,L,y,,,,,5,19,119,2,4,0,4,0,,,,,1,25,61,34,,,,,,down,0.8339852640929166,2172.086600634415,None,001,86,2019_Oct_31_1402,ACPT_experiment_5_30_19,3.1.0,59.94524315548725,
,,,C,D,y,b,R,G,d,R,i,,,,,5,19,119,2,4,0,4,0,,,,,1,26,62,5,,,,,,up,0.7005464385292726,2174.204965158584,None,001,86,2019_Oct_31_1402,ACPT_experiment_5_30_19,3.1.0,59.94524315548725,
,,,C,D,y,b,L,G,d,L,i,,,,,5,19,119,2,4,0,4,0,,,,,1,27,63,16,,,,,,down,0.7506152036803542,2176.189869424692,None,001,86,2019_Oct_31_1402,ACPT_experiment_5_30_19,3.1.0,59.94524315548725,
,,,C,D,y,b,L,D,d,R,c ,,,,,5,19,119,2,4,0,4,0,,,,,1,28,64,13,,,,,,up,0.6171307962940773,2178.224841550342,None,001,86,2019_Oct_31_1402,ACPT_experiment_5_30_19,3.1.0,59.94524315548725,
,,,C,D,y,b,R,G,y,L,y,,,,,5,19,119,2,4,0,4,0,,,,,1,29,65,28,,,,,,down,0.6338270257401746,2180.1430227812525,None,001,86,2019_Oct_31_1402,ACPT_experiment_5_30_19,3.1.0,59.94524315548725,
,,,C,D,y,b,L,U,d,L,u,,,,,5,19,119,2,4,0,4,0,,,,,1,30,66,20,,,,,,up,0.9007125253992854,2182.0779020528134,None,001,86,2019_Oct_31_1402,ACPT_experiment_5_30_19,3.1.0,59.94524315548725,
,,,C,D,y,b,R,G,g,L,c ,,,,,5,19,119,2,4,0,4,0,,,,,1,31,67,6,,,,,,up,0.583784824819304,2184.262983876717,None,001,86,2019_Oct_31_1402,ACPT_experiment_5_30_19,3.1.0,59.94524315548725,
,,,C,D,y,b,R,D,y,L,y,,,,,5,19,119,2,4,0,4,0,,,,,1,32,68,26,,,,,,down,0.5671368939802051,2186.1311129451205,None,001,86,2019_Oct_31_1402,ACPT_experiment_5_30_19,3.1.0,59.94524315548725,
,,,C,D,y,b,L,G,d,R,i,,,,,5,19,119,2,4,0,4,0,,,,,1,33,69,17,,,,,,up,0.6502681780984858,2187.9995393519057,None,001,86,2019_Oct_31_1402,ACPT_experiment_5_30_19,3.1.0,59.94524315548725,
,,,C,D,y,b,R,U,y,R,u,,,,,5,19,119,2,4,0,4,0,,,,,1,34,70,31,,,,,,down,0.6672065043676412,2189.9508317022555,None,001,86,2019_Oct_31_1402,ACPT_experiment_5_30_19,3.1.0,59.94524315548725,
,,,C,D,y,b,R,U,d,L,u,,,,,5,19,119,2,4,0,4,0,,,,,1,35,71,8,,,,,,up,0.6505301981087541,2191.919089244984,None,001,86,2019_Oct_31_1402,ACPT_experiment_5_30_19,3.1.0,59.94524315548725,
,,,C,D,y,b,,,,,,,,,,5,19,119,2,5,0,5,0,0,0,0,0,,,,,,,,,,,,,,001,86,2019_Oct_31_1402,ACPT_experiment_5_30_19,3.1.0,59.94524315548725,
,,,C,D,y,b,L,U,g,R,u,,,,,5,19,119,2,5,0,5,0,,,,,0,0,0,23,,,,,,up,0.6836250167543767,2213.886873461248,None,001,86,2019_Oct_31_1402,ACPT_experiment_5_30_19,3.1.0,59.94524315548725,
,,,C,D,y,b,L,D,g,R,i,,,,,5,19,119,2,5,0,5,0,,,,,0,1,1,15,,,,,,up,0.6005094296997413,2215.8548243077385,None,001,86,2019_Oct_31_1402,ACPT_experiment_5_30_19,3.1.0,59.94524315548725,
,,,C,D,y,b,R,U,g,L,u,,,,,5,19,119,2,5,0,5,0,,,,,0,2,2,10,,,,,,up,0.6671850718703354,2217.739705148997,None,001,86,2019_Oct_31_1402,ACPT_experiment_5_30_19,3.1.0,59.94524315548725,
,,,C,D,y,b,R,U,y,R,u,,,,,5,19,119,2,5,0,5,0,,,,,0,3,3,31,,,,,,down,0.6505392541002948,2219.6912242010003,None,001,86,2019_Oct_31_1402,ACPT_experiment_5_30_19,3.1.0,59.94524315548725,
,,,C,D,y,b,L,U,y,L,u,,,,,5,19,119,2,5,0,5,0,,,,,0,4,4,24,,,,,,down,0.7339159555558581,2221.6261270181276,None,001,86,2019_Oct_31_1402,ACPT_experiment_5_30_19,3.1.0,59.94524315548725,
,,,C,D,y,b,R,G,d,L,i,,,,,5,19,119,2,5,0,5,0,,,,,0,5,5,4,,,,,,up,0.867341800883878,2223.6444168002054,None,001,86,2019_Oct_31_1402,ACPT_experiment_5_30_19,3.1.0,59.94524315548725,
,,,C,D,y,b,L,D,d,R,c ,,,,,5,19,119,2,5,0,5,0,,,,,0,6,6,13,,,,,,down,0.8840597647213144,2225.796096505481,None,001,86,2019_Oct_31_1402,ACPT_experiment_5_30_19,3.1.0,59.94524315548725,
,,,C,D,y,b,L,D,y,L,y,,,,,5,19,119,2,5,0,5,0,,,,,0,7,7,32,,,,,,down,0.7506010159704601,2227.9645153052406,None,001,86,2019_Oct_31_1402,ACPT_experiment_5_30_19,3.1.0,59.94524315548725,
,,,C,D,y,b,R,D,y,R,y,,,,,5,19,119,2,5,0,5,0,,,,,0,8,8,27,,,,,,down,0.6004783374664839,2229.999478073034,None,001,86,2019_Oct_31_1402,ACPT_experiment_5_30_19,3.1.0,59.94524315548725,
,,,C,D,y,b,R,D,g,L,i,,,,,5,19,119,2,5,0,5,0,,,,,0,9,9,2,,,,,,up,0.5838156151876319,2231.8842909943633,None,001,86,2019_Oct_31_1402,ACPT_experiment_5_30_19,3.1.0,59.94524315548725,
,,,C,D,y,b,L,U,y,R,u,,,,,5,19,119,2,5,0,5,0,,,,,0,10,10,25,,,,,,down,0.6000312733522151,2233.7695570171345,None,001,86,2019_Oct_31_1402,ACPT_experiment_5_30_19,3.1.0,59.94524315548725,
,,,C,D,y,b,R,G,g,L,c ,,,,,5,19,119,2,5,0,5,0,,,,,0,11,11,6,,,,,,up,0.7172212354635121,2235.653997737216,None,001,86,2019_Oct_31_1402,ACPT_experiment_5_30_19,3.1.0,59.94524315548725,
,,,C,D,y,b,R,D,g,R,i,,,,,5,19,119,2,5,0,5,0,,,,,0,12,12,3,,,,,,up,0.7672921136836521,2237.6555876674392,None,001,86,2019_Oct_31_1402,ACPT_experiment_5_30_19,3.1.0,59.94524315548725,
,,,C,D,y,b,R,D,y,L,y,,,,,5,19,119,2,5,0,5,0,,,,,0,13,13,26,,,,,,down,0.533756509743398,2239.707225232167,None,001,86,2019_Oct_31_1402,ACPT_experiment_5_30_19,3.1.0,59.94524315548725,
,,,C,D,y,b,R,G,y,R,y,,,,,5,19,119,2,5,0,5,0,,,,,0,14,14,29,,,,,,down,1.0839949238143163,2241.542184920938,None,001,86,2019_Oct_31_1402,ACPT_experiment_5_30_19,3.1.0,59.94524315548725,
,,,C,D,y,b,L,G,g,R,c ,,,,,5,19,119,2,5,0,5,0,,,,,0,15,15,19,,,,,,up,0.6004741113283671,2243.9272601641424,None,001,86,2019_Oct_31_1402,ACPT_experiment_5_30_19,3.1.0,59.94524315548725,
,,,C,D,y,b,L,U,d,R,u,,,,,5,19,119,2,5,0,5,0,,,,,0,16,16,21,,,,,,up,1.5011099626863142,2245.8120676518884,None,001,86,2019_Oct_31_1402,ACPT_experiment_5_30_19,3.1.0,59.94524315548725,
,,,C,D,y,b,L,D,d,L,c ,,,,,5,19,119,2,5,0,5,0,,,,,0,17,17,12,,,,,,up,1.4678267794079147,2248.597666150279,None,001,86,2019_Oct_31_1402,ACPT_experiment_5_30_19,3.1.0,59.94524315548725,
,,,C,D,y,b,L,D,g,L,i,,,,,5,19,119,2,5,0,5,0,,,,,0,18,18,14,,,,,,up,0.5837691277702106,2251.333191053651,None,001,86,2019_Oct_31_1402,ACPT_experiment_5_30_19,3.1.0,59.94524315548725,
,,,C,D,y,b,R,U,d,R,u,,,,,5,19,119,2,5,0,5,0,,,,,0,19,19,9,,,,,,up,0.5837833154801046,2253.2013370265777,None,001,86,2019_Oct_31_1402,ACPT_experiment_5_30_19,3.1.0,59.94524315548725,
,,,C,D,y,b,R,U,y,L,u,,,,,5,19,119,2,5,0,5,0,,,,,0,20,20,30,,,,,,down,0.4837490234640427,2255.0527740916586,None,001,86,2019_Oct_31_1402,ACPT_experiment_5_30_19,3.1.0,59.94524315548725,
,,,C,D,y,b,L,G,d,L,i,,,,,5,19,119,2,5,0,5,0,,,,,0,21,21,16,,,,,,up,0.5171016359963687,2256.8208791314973,None,001,86,2019_Oct_31_1402,ACPT_experiment_5_30_19,3.1.0,59.94524315548725,
,,,C,D,y,b,R,D,d,L,c,,,,,5,19,119,2,5,0,5,0,,,,,0,22,22,0,,,,,,down,0.5837959938799031,2258.622313540167,None,001,86,2019_Oct_31_1402,ACPT_experiment_5_30_19,3.1.0,59.94524315548725,
,,,C,D,y,b,L,U,d,L,u,,,,,5,19,119,2,5,0,5,0,,,,,0,23,23,20,,,,,,up,0.5671181782672647,2260.4904767194676,None,001,86,2019_Oct_31_1402,ACPT_experiment_5_30_19,3.1.0,59.94524315548725,
,,,C,D,y,b,L,G,g,L,c ,,,,,5,19,119,2,5,0,5,0,,,,,0,24,24,18,,,,,,up,1.0337251156452112,2262.3590344381228,None,001,86,2019_Oct_31_1402,ACPT_experiment_5_30_19,3.1.0,59.94524315548725,
,,,C,D,y,b,L,G,d,R,i,,,,,5,19,119,2,5,0,5,0,,,,,0,25,25,17,,,,,,up,0.6671998633100884,2264.6604603945307,None,001,86,2019_Oct_31_1402,ACPT_experiment_5_30_19,3.1.0,59.94524315548725,
,,,C,D,y,b,R,U,g,R,u,,,,,5,19,119,2,5,0,5,0,,,,,0,26,26,11,,,,,,up,0.7005690785008483,2266.6120247264917,None,001,86,2019_Oct_31_1402,ACPT_experiment_5_30_19,3.1.0,59.94524315548725,
,,,C,D,y,b,L,G,y,R,y,,,,,5,19,119,2,5,0,5,0,,,,,0,27,27,35,,,,,,down,0.4670352857647231,2268.5969440859044,None,001,86,2019_Oct_31_1402,ACPT_experiment_5_30_19,3.1.0,59.94524315548725,
,,,C,D,y,b,R,U,d,L,u,,,,,5,19,119,2,5,0,5,0,,,,,0,28,28,8,,,,,,down,0.4835947697429219,2270.3650219577685,None,001,86,2019_Oct_31_1402,ACPT_experiment_5_30_19,3.1.0,59.94524315548725,
,,,C,D,y,b,R,D,d,R,c ,,,,,5,19,119,2,5,0,5,0,,,,,0,29,29,1,,,,,,up,0.6672007689194288,2272.133095301644,None,001,86,2019_Oct_31_1402,ACPT_experiment_5_30_19,3.1.0,59.94524315548725,
,,,C,D,y,b,R,G,y,L,y,,,,,5,19,119,2,5,0,5,0,,,,,0,30,30,28,,,,,,down,0.5837990125291981,2274.0846514831937,None,001,86,2019_Oct_31_1402,ACPT_experiment_5_30_19,3.1.0,59.94524315548725,
,,,C,D,y,b,L,G,y,L,y,,,,,5,19,119,2,5,0,5,0,,,,,0,31,31,34,,,,,,down,0.5837968994746916,2275.936132017043,None,001,86,2019_Oct_31_1402,ACPT_experiment_5_30_19,3.1.0,59.94524315548725,
,,,C,D,y,b,L,D,y,R,y,,,,,5,19,119,2,5,0,5,0,,,,,0,32,32,33,,,,,,down,0.633843326519127,2277.804283121688,None,001,86,2019_Oct_31_1402,ACPT_experiment_5_30_19,3.1.0,59.94524315548725,
,,,C,D,y,b,R,G,d,R,i,,,,,5,19,119,2,5,0,5,0,,,,,0,33,33,5,,,,,,down,0.8673427064786665,2279.7224990672403,None,001,86,2019_Oct_31_1402,ACPT_experiment_5_30_19,3.1.0,59.94524315548725,
,,,C,D,y,b,R,G,g,R,c ,,,,,5,19,119,2,5,0,5,0,,,,,0,34,34,7,,,,,,up,0.8838064988231054,2281.891133701458,None,001,86,2019_Oct_31_1402,ACPT_experiment_5_30_19,3.1.0,59.94524315548725,
,,,C,D,y,b,L,U,g,L,u,,,,,5,19,119,2,5,0,5,0,,,,,0,35,35,22,,,,,,up,0.9340681565954583,2284.0592835382704,None,001,86,2019_Oct_31_1402,ACPT_experiment_5_30_19,3.1.0,59.94524315548725,
,,,C,D,y,b,L,D,g,R,i,,,,,5,19,119,2,5,0,5,0,,,,,1,0,36,15,,,,,,up,0.6672140510345344,2286.277716767232,None,001,86,2019_Oct_31_1402,ACPT_experiment_5_30_19,3.1.0,59.94524315548725,
,,,C,D,y,b,L,D,g,L,i,,,,,5,19,119,2,5,0,5,0,,,,,1,1,37,14,,,,,,up,0.6505446876981296,2288.212572795077,None,001,86,2019_Oct_31_1402,ACPT_experiment_5_30_19,3.1.0,59.94524315548725,
,,,C,D,y,b,R,U,g,L,u,,,,,5,19,119,2,5,0,5,0,,,,,1,2,38,10,,,,,,up,0.5837972013396211,2290.147469876756,None,001,86,2019_Oct_31_1402,ACPT_experiment_5_30_19,3.1.0,59.94524315548725,
,,,C,D,y,b,L,U,g,R,u,,,,,5,19,119,2,5,0,5,0,,,,,1,3,39,23,,,,,,up,0.6838637930486584,2292.015631546732,None,001,86,2019_Oct_31_1402,ACPT_experiment_5_30_19,3.1.0,59.94524315548725,
,,,C,D,y,b,L,U,y,R,u,,,,,5,19,119,2,5,0,5,0,,,,,1,4,40,25,,,,,,down,0.5837965976097621,2293.983868562558,None,001,86,2019_Oct_31_1402,ACPT_experiment_5_30_19,3.1.0,59.94524315548725,
,,,C,D,y,b,R,D,g,L,i,,,,,5,19,119,2,5,0,5,0,,,,,1,5,41,2,,,,,,up,0.5668471022654558,2295.8689697662776,None,001,86,2019_Oct_31_1402,ACPT_experiment_5_30_19,3.1.0,59.94524315548725,
,,,C,D,y,b,R,U,y,L,u,,,,,5,19,119,2,5,0,5,0,,,,,1,6,42,30,,,,,,down,0.6171498138719471,2297.736863378901,None,001,86,2019_Oct_31_1402,ACPT_experiment_5_30_19,3.1.0,59.94524315548725,
,,,C,D,y,b,R,D,d,R,c ,,,,,5,19,119,2,5,0,5,0,,,,,1,7,43,1,,,,,,up,0.5505867678584764,2299.6717405374075,None,001,86,2019_Oct_31_1402,ACPT_experiment_5_30_19,3.1.0,59.94524315548725,
,,,C,D,y,b,R,U,y,R,u,,,,,5,19,119,2,5,0,5,0,,,,,1,8,44,31,,,,,,down,0.7005826624808833,2301.506511559681,None,001,86,2019_Oct_31_1402,ACPT_experiment_5_30_19,3.1.0,59.94524315548725,
,,,C,D,y,b,R,G,y,R,y,,,,,5,19,119,2,5,0,5,0,,,,,1,9,45,29,,,,,,down,0.6004840729292482,2303.491447823617,None,001,86,2019_Oct_31_1402,ACPT_experiment_5_30_19,3.1.0,59.94524315548725,
,,,C,D,y,b,R,G,d,R,i,,,,,5,19,119,2,5,0,5,0,,,,,1,10,46,5,,,,,,up,0.9674458240333479,2305.3762861017167,None,001,86,2019_Oct_31_1402,ACPT_experiment_5_30_19,3.1.0,59.94524315548725,
,,,C,D,y,b,L,D,y,L,y,,,,,5,19,119,2,5,0,5,0,,,,,1,11,47,32,,,,,,down,0.9340829480497632,2307.6280855272053,None,001,86,2019_Oct_31_1402,ACPT_experiment_5_30_19,3.1.0,59.94524315548725,
,,,C,D,y,b,L,U,y,L,u,,,,,5,19,119,2,5,0,5,0,,,,,1,12,48,24,,,,,,down,0.6671859774651239,2309.846538377489,None,001,86,2019_Oct_31_1402,ACPT_experiment_5_30_19,3.1.0,59.94524315548725,
,,,C,D,y,b,L,U,d,R,u,,,,,5,19,119,2,5,0,5,0,,,,,1,13,49,21,,,,,,up,0.7005766251677414,2311.7813778026903,None,001,86,2019_Oct_31_1402,ACPT_experiment_5_30_19,3.1.0,59.94524315548725,
,,,C,D,y,b,L,G,g,L,c ,,,,,5,19,119,2,5,0,5,0,,,,,1,14,50,18,,,,,,up,0.9507668009755434,2313.766315575951,None,001,86,2019_Oct_31_1402,ACPT_experiment_5_30_19,3.1.0,59.94524315548725,
,,,C,D,y,b,R,G,g,R,c ,,,,,5,19,119,2,5,0,5,0,,,,,1,15,51,7,,,,,,up,0.8673463288723724,2316.00144231756,None,001,86,2019_Oct_31_1402,ACPT_experiment_5_30_19,3.1.0,59.94524315548725,
,,,C,D,y,b,R,U,g,R,u,,,,,5,19,119,2,5,0,5,0,,,,,1,16,52,11,,,,,,up,1.2176432446576655,2318.1531491908245,None,001,86,2019_Oct_31_1402,ACPT_experiment_5_30_19,3.1.0,59.94524315548725,
,,,C,D,y,b,R,D,g,R,i,,,,,5,19,119,2,5,0,5,0,,,,,1,17,53,3,,,,,,up,0.6335656094597653,2320.672101569595,None,001,86,2019_Oct_31_1402,ACPT_experiment_5_30_19,3.1.0,59.94524315548725,
,,,C,D,y,b,L,G,d,L,i,,,,,5,19,119,2,5,0,5,0,,,,,1,18,54,16,,,,,,up,0.8006411038077204,2322.590024101024,None,001,86,2019_Oct_31_1402,ACPT_experiment_5_30_19,3.1.0,59.94524315548725,
,,,C,D,y,b,R,G,d,L,i,,,,,5,19,119,2,5,0,5,0,,,,,1,19,55,4,,,,,,down,0.6505314055684721,2324.675006127887,None,001,86,2019_Oct_31_1402,ACPT_experiment_5_30_19,3.1.0,59.94524315548725,
,,,C,D,y,b,R,D,d,L,c,,,,,5,19,119,2,5,0,5,0,,,,,1,20,56,0,,,,,,down,1.0174877231038408,2326.6098968703736,None,001,86,2019_Oct_31_1402,ACPT_experiment_5_30_19,3.1.0,59.94524315548725,
,,,C,D,y,b,L,D,d,R,c ,,,,,5,19,119,2,5,0,5,0,,,,,1,21,57,13,,,,,,up,0.6171549455903005,2328.9117427229066,None,001,86,2019_Oct_31_1402,ACPT_experiment_5_30_19,3.1.0,59.94524315548725,
,,,C,D,y,b,L,U,d,L,u,,,,,5,19,119,2,5,0,5,0,,,,,1,22,58,20,,,,,,down,0.6004997699783416,2330.8132292337104,None,001,86,2019_Oct_31_1402,ACPT_experiment_5_30_19,3.1.0,59.94524315548725,
,,,C,D,y,b,L,G,y,L,y,,,,,5,19,119,2,5,0,5,0,,,,,1,23,59,34,,,,,,down,0.817312278348254,2332.69809377419,None,001,86,2019_Oct_31_1402,ACPT_experiment_5_30_19,3.1.0,59.94524315548725,
,,,C,D,y,b,L,D,y,R,y,,,,,5,19,119,2,5,0,5,0,,,,,1,24,60,33,,,,,,down,0.6505193309276365,2334.799766898781,None,001,86,2019_Oct_31_1402,ACPT_experiment_5_30_19,3.1.0,59.94524315548725,
,,,C,D,y,b,R,U,d,L,u,,,,,5,19,119,2,5,0,5,0,,,,,1,25,61,8,,,,,,up,0.5504171189677436,2336.734647981546,None,001,86,2019_Oct_31_1402,ACPT_experiment_5_30_19,3.1.0,59.94524315548725,
,,,C,D,y,b,R,G,g,L,c ,,,,,5,19,119,2,5,0,5,0,,,,,1,26,62,6,,,,,,up,0.5671202913363231,2338.5694392288715,None,001,86,2019_Oct_31_1402,ACPT_experiment_5_30_19,3.1.0,59.94524315548725,
,,,C,D,y,b,R,D,y,L,y,,,,,5,19,119,2,5,0,5,0,,,,,1,27,63,26,,,,,,down,0.5504313066776376,2340.4209233851143,None,001,86,2019_Oct_31_1402,ACPT_experiment_5_30_19,3.1.0,59.94524315548725,
,,,C,D,y,b,L,D,d,L,c ,,,,,5,19,119,2,5,0,5,0,,,,,1,28,64,12,,,,,,up,0.6004750169377076,2342.2557173492387,None,001,86,2019_Oct_31_1402,ACPT_experiment_5_30_19,3.1.0,59.94524315548725,
,,,C,D,y,b,L,G,d,R,i,,,,,5,19,119,2,5,0,5,0,,,,,1,29,65,17,,,,,,up,0.6838997151498916,2344.1405402321543,None,001,86,2019_Oct_31_1402,ACPT_experiment_5_30_19,3.1.0,59.94524315548725,
