facing_vig,person_vig,text_vig,facing_train,person_train,food_train,correct_key_train,facing_exp,person_exp,food_exp,showL_R,consistent,vig_random.thisRepN,vig_random.thisTrialN,vig_random.thisN,vig_random.thisIndex,trainTrials.thisRepN,trainTrials.thisTrialN,trainTrials.thisN,trainTrials.thisIndex,expBlock.thisRepN,expBlock.thisTrialN,expBlock.thisN,expBlock.thisIndex,breakLoop.thisRepN,breakLoop.thisTrialN,breakLoop.thisN,breakLoop.thisIndex,expTrials.thisRepN,expTrials.thisTrialN,expTrials.thisN,expTrials.thisIndex,train_resp.keys,train_resp.corr,train_resp.rt,train_resp.started,train_resp.stopped,exp_resp.keys,exp_resp.rt,exp_resp.started,exp_resp.stopped,session,participant,date,expName,psychopyVersion,frameRate,
C,U,"did not report her food preferences, so her food preferences are unknown.",,,,,,,,,,0,0,0,2,,,,,,,,,,,,,,,,,,,,,,,,,,001,87,2019_Nov_01_1002,ACPT_experiment_5_30_19,3.1.0,59.96313008728151,
C,D,"is allergic to gluten, meaning she can’t eat wheat products. She enjoys eating dairy products. She thinks eating insects, like crickets, is disgusting.",,,,,,,,,,0,1,1,1,,,,,,,,,,,,,,,,,,,,,,,,,,001,87,2019_Nov_01_1002,ACPT_experiment_5_30_19,3.1.0,59.96313008728151,
C,G,"cannot eat dairy products because she is lactose intolerant. She enjoys eating wheat products. She thinks eating insects, like crickets, is disgusting.",,,,,,,,,,0,2,2,0,,,,,,,,,,,,,,,,,,,,,,,,,,001,87,2019_Nov_01_1002,ACPT_experiment_5_30_19,3.1.0,59.96313008728151,
,,,C,U,y,n,,,,,,,,,,0,0,0,8,,,,,,,,,,,,,v,0,2.5686371990859698,2176.4823761093508,None,,,,,001,87,2019_Nov_01_1002,ACPT_experiment_5_30_19,3.1.0,59.96313008728151,
,,,C,D,d,v,,,,,,,,,,0,1,1,18,,,,,,,,,,,,,v,1,4.203242756034342,2182.336794993814,None,,,,,001,87,2019_Nov_01_1002,ACPT_experiment_5_30_19,3.1.0,59.96313008728151,
,,,C,G,g,v,,,,,,,,,,0,2,2,4,,,,,,,,,,,,,b,0,2.6186764249996486,2189.8258309056737,None,,,,,001,87,2019_Nov_01_1002,ACPT_experiment_5_30_19,3.1.0,59.96313008728151,
,,,C,U,d,n,,,,,,,,,,0,3,3,6,,,,,,,,,,,,,v,0,3.2524853895170054,2195.7303022976216,None,,,,,001,87,2019_Nov_01_1002,ACPT_experiment_5_30_19,3.1.0,59.96313008728151,
,,,C,U,d,n,,,,,,,,,,0,4,4,15,,,,,,,,,,,,,b,0,0.7173726878368143,2202.2517633549974,None,,,,,001,87,2019_Nov_01_1002,ACPT_experiment_5_30_19,3.1.0,59.96313008728151,
,,,C,D,d,v,,,,,,,,,,0,5,5,0,,,,,,,,,,,,,v,1,2.0679937975064604,2206.2718801060473,None,,,,,001,87,2019_Nov_01_1002,ACPT_experiment_5_30_19,3.1.0,59.96313008728151,
,,,C,G,g,v,,,,,,,,,,0,6,6,13,,,,,,,,,,,,,b,0,2.2683955046709343,2211.6256815483657,None,,,,,001,87,2019_Nov_01_1002,ACPT_experiment_5_30_19,3.1.0,59.96313008728151,
,,,C,U,g,n,,,,,,,,,,0,7,7,7,,,,,,,,,,,,,n,1,4.153176061416161,2217.179890734927,None,,,,,001,87,2019_Nov_01_1002,ACPT_experiment_5_30_19,3.1.0,59.96313008728151,
,,,C,U,g,n,,,,,,,,,,0,8,8,16,,,,,,,,,,,,,n,1,1.0508297812675664,2224.635517457569,None,,,,,001,87,2019_Nov_01_1002,ACPT_experiment_5_30_19,3.1.0,59.96313008728151,
,,,C,D,g,b,,,,,,,,,,0,9,9,1,,,,,,,,,,,,,v,0,1.0808373789304824,2228.9921626654427,None,,,,,001,87,2019_Nov_01_1002,ACPT_experiment_5_30_19,3.1.0,59.96313008728151,
,,,C,G,y,b,,,,,,,,,,0,10,10,14,,,,,,,,,,,,,b,1,1.2175959087931005,2233.358818857779,None,,,,,001,87,2019_Nov_01_1002,ACPT_experiment_5_30_19,3.1.0,59.96313008728151,
,,,C,D,y,b,,,,,,,,,,0,11,11,11,,,,,,,,,,,,,b,1,0.7003967265754909,2237.8957284957023,None,,,,,001,87,2019_Nov_01_1002,ACPT_experiment_5_30_19,3.1.0,59.96313008728151,
,,,C,D,y,b,,,,,,,,,,0,12,12,2,,,,,,,,,,,,,b,1,0.7005624443645502,2241.865241855907,None,,,,,001,87,2019_Nov_01_1002,ACPT_experiment_5_30_19,3.1.0,59.96313008728151,
,,,C,G,y,b,,,,,,,,,,0,13,13,5,,,,,,,,,,,,,b,1,0.7003336391112498,2245.8684747111333,None,,,,,001,87,2019_Nov_01_1002,ACPT_experiment_5_30_19,3.1.0,59.96313008728151,
,,,C,U,y,n,,,,,,,,,,0,14,14,17,,,,,,,,,,,,,b,0,0.4503823130521596,2249.8546374266834,None,,,,,001,87,2019_Nov_01_1002,ACPT_experiment_5_30_19,3.1.0,59.96313008728151,
,,,C,G,g,v,,,,,,,,,,0,15,15,19,,,,,,,,,,,,,v,1,2.5016549139850213,2253.607742673176,None,,,,,001,87,2019_Nov_01_1002,ACPT_experiment_5_30_19,3.1.0,59.96313008728151,
,,,C,G,d,b,,,,,,,,,,0,16,16,12,,,,,,,,,,,,,b,1,2.3351184972743795,2259.3785335394396,None,,,,,001,87,2019_Nov_01_1002,ACPT_experiment_5_30_19,3.1.0,59.96313008728151,
,,,C,D,g,b,,,,,,,,,,0,17,17,10,,,,,,,,,,,,,v,0,1.0508104626183012,2264.999463001919,None,,,,,001,87,2019_Nov_01_1002,ACPT_experiment_5_30_19,3.1.0,59.96313008728151,
,,,C,D,d,v,,,,,,,,,,0,18,18,9,,,,,,,,,,,,,v,1,2.201689114031524,2269.3194154538933,None,,,,,001,87,2019_Nov_01_1002,ACPT_experiment_5_30_19,3.1.0,59.96313008728151,
,,,C,G,d,b,,,,,,,,,,0,19,19,3,,,,,,,,,,,,,v,0,1.0674884940840457,2274.806888668133,None,,,,,001,87,2019_Nov_01_1002,ACPT_experiment_5_30_19,3.1.0,59.96313008728151,
,,,C,U,d,n,,,,,,,,,,1,0,20,6,,,,,,,,,,,,,n,1,1.4842545461460759,2279.1770457619564,None,,,,,001,87,2019_Nov_01_1002,ACPT_experiment_5_30_19,3.1.0,59.96313008728151,
,,,C,U,g,n,,,,,,,,,,1,1,21,7,,,,,,,,,,,,,n,1,0.7839643739957864,2283.9471278752717,None,,,,,001,87,2019_Nov_01_1002,ACPT_experiment_5_30_19,3.1.0,59.96313008728151,
,,,C,U,y,n,,,,,,,,,,1,2,22,17,,,,,,,,,,,,,n,1,0.5971303957517193,2288.036928201938,None,,,,,001,87,2019_Nov_01_1002,ACPT_experiment_5_30_19,3.1.0,59.96313008728151,
,,,C,D,g,b,,,,,,,,,,1,3,23,1,,,,,,,,,,,,,v,0,1.8847983661253238,2291.919833340427,None,,,,,001,87,2019_Nov_01_1002,ACPT_experiment_5_30_19,3.1.0,59.96313008728151,
,,,C,D,d,v,,,,,,,,,,1,4,24,9,,,,,,,,,,,,,v,1,1.401073271712903,2297.0737610180445,None,,,,,001,87,2019_Nov_01_1002,ACPT_experiment_5_30_19,3.1.0,59.96313008728151,
,,,C,G,g,v,,,,,,,,,,1,5,25,13,,,,,,,,,,,,,b,0,1.851166408732297,2301.777580164094,None,,,,,001,87,2019_Nov_01_1002,ACPT_experiment_5_30_19,3.1.0,59.96313008728151,
,,,C,D,g,b,,,,,,,,,,1,6,26,10,,,,,,,,,,,,,v,0,1.9181698236056945,2306.9145252396647,None,,,,,001,87,2019_Nov_01_1002,ACPT_experiment_5_30_19,3.1.0,59.96313008728151,
,,,C,D,d,v,,,,,,,,,,1,7,27,18,,,,,,,,,,,,,b,0,1.1008439533079581,2312.118492746904,None,,,,,001,87,2019_Nov_01_1002,ACPT_experiment_5_30_19,3.1.0,59.96313008728151,
,,,C,U,g,n,,,,,,,,,,1,8,28,16,,,,,,,,,,,,,n,1,0.8670882961887401,2316.522074424493,None,,,,,001,87,2019_Nov_01_1002,ACPT_experiment_5_30_19,3.1.0,59.96313008728151,
,,,C,U,d,n,,,,,,,,,,1,9,29,15,,,,,,,,,,,,,n,1,1.0674893996456376,2320.658300484083,None,,,,,001,87,2019_Nov_01_1002,ACPT_experiment_5_30_19,3.1.0,59.96313008728151,
,,,C,G,g,v,,,,,,,,,,1,10,30,4,,,,,,,,,,,,,v,1,2.6350858064979548,2325.0285276080103,None,,,,,001,87,2019_Nov_01_1002,ACPT_experiment_5_30_19,3.1.0,59.96313008728151,
,,,C,G,d,b,,,,,,,,,,1,11,31,3,,,,,,,,,,,,,b,1,1.3510210660815574,2330.932766270604,None,,,,,001,87,2019_Nov_01_1002,ACPT_experiment_5_30_19,3.1.0,59.96313008728151,
,,,C,U,y,n,,,,,,,,,,1,12,32,8,,,,,,,,,,,,,n,1,0.7836661423466467,2335.586543474055,None,,,,,001,87,2019_Nov_01_1002,ACPT_experiment_5_30_19,3.1.0,59.96313008728151,
,,,C,G,y,b,,,,,,,,,,1,13,33,14,,,,,,,,,,,,,n,0,1.4677935476311177,2339.6560196760447,None,,,,,001,87,2019_Nov_01_1002,ACPT_experiment_5_30_19,3.1.0,59.96313008728151,
,,,C,G,d,b,,,,,,,,,,1,14,34,12,,,,,,,,,,,,,b,1,2.702212679614604,2344.409626000004,None,,,,,001,87,2019_Nov_01_1002,ACPT_experiment_5_30_19,3.1.0,59.96313008728151,
,,,C,G,y,b,,,,,,,,,,1,15,35,5,,,,,,,,,,,,,b,1,1.6512561197105242,2350.397498114168,None,,,,,001,87,2019_Nov_01_1002,ACPT_experiment_5_30_19,3.1.0,59.96313008728151,
,,,C,D,d,v,,,,,,,,,,1,16,36,0,,,,,,,,,,,,,b,0,3.9363510874736676,2355.3345437674566,None,,,,,001,87,2019_Nov_01_1002,ACPT_experiment_5_30_19,3.1.0,59.96313008728151,
,,,C,G,g,v,,,,,,,,,,1,17,37,19,,,,,,,,,,,,,v,1,3.1190795508778137,2362.5566819736778,None,,,,,001,87,2019_Nov_01_1002,ACPT_experiment_5_30_19,3.1.0,59.96313008728151,
,,,C,D,y,b,,,,,,,,,,1,18,38,2,,,,,,,,,,,,,b,1,1.3510304235524018,2368.961557095212,None,,,,,001,87,2019_Nov_01_1002,ACPT_experiment_5_30_19,3.1.0,59.96313008728151,
,,,C,D,y,b,,,,,,,,,,1,19,39,11,,,,,,,,,,,,,b,1,1.1339847944118446,2373.615337317201,None,,,,,001,87,2019_Nov_01_1002,ACPT_experiment_5_30_19,3.1.0,59.96313008728151,
,,,C,G,y,b,,,,,,,,,,2,0,40,5,,,,,,,,,,,,,b,1,0.7172196479118611,2378.0351001747435,None,,,,,001,87,2019_Nov_01_1002,ACPT_experiment_5_30_19,3.1.0,59.96313008728151,
,,,C,G,g,v,,,,,,,,,,2,1,41,19,,,,,,,,,,,,,v,1,2.9019629860713394,2382.0384030600744,None,,,,,001,87,2019_Nov_01_1002,ACPT_experiment_5_30_19,3.1.0,59.96313008728151,
,,,C,G,y,b,,,,,,,,,,2,2,42,14,,,,,,,,,,,,,b,1,0.7672320088286142,2388.209486603875,None,,,,,001,87,2019_Nov_01_1002,ACPT_experiment_5_30_19,3.1.0,59.96313008728151,
,,,C,U,d,n,,,,,,,,,,2,3,43,15,,,,,,,,,,,,,n,1,1.1508771421440542,2392.2625479909966,None,,,,,001,87,2019_Nov_01_1002,ACPT_experiment_5_30_19,3.1.0,59.96313008728151,
,,,C,D,y,b,,,,,,,,,,2,4,44,2,,,,,,,,,,,,,b,1,0.8506749905895958,2396.6992152704265,None,,,,,001,87,2019_Nov_01_1002,ACPT_experiment_5_30_19,3.1.0,59.96313008728151,
,,,C,U,g,n,,,,,,,,,,2,5,45,7,,,,,,,,,,,,,n,1,1.5342542291996324,2400.8526340223752,None,,,,,001,87,2019_Nov_01_1002,ACPT_experiment_5_30_19,3.1.0,59.96313008728151,
,,,C,G,g,v,,,,,,,,,,2,6,46,13,,,,,,,,,,,,,v,1,1.9681673936815969,2405.672704348296,None,,,,,001,87,2019_Nov_01_1002,ACPT_experiment_5_30_19,3.1.0,59.96313008728151,
,,,C,D,g,b,,,,,,,,,,2,7,47,10,,,,,,,,,,,,,b,1,9.72406750539767,2410.92666157741,None,,,,,001,87,2019_Nov_01_1002,ACPT_experiment_5_30_19,3.1.0,59.96313008728151,
,,,C,G,d,b,,,,,,,,,,2,8,48,3,,,,,,,,,,,,,b,1,2.10160522883416,2423.9365418591365,None,,,,,001,87,2019_Nov_01_1002,ACPT_experiment_5_30_19,3.1.0,59.96313008728151,
,,,C,D,g,b,,,,,,,,,,2,9,49,1,,,,,,,,,,,,,b,1,4.486755707529028,2429.3239583550294,None,,,,,001,87,2019_Nov_01_1002,ACPT_experiment_5_30_19,3.1.0,59.96313008728151,
,,,C,U,y,n,,,,,,,,,,2,10,50,17,,,,,,,,,,,,,n,1,1.301015647803979,2437.0964900127115,None,,,,,001,87,2019_Nov_01_1002,ACPT_experiment_5_30_19,3.1.0,59.96313008728151,
,,,C,D,y,b,,,,,,,,,,2,11,51,11,,,,,,,,,,,,,b,1,1.000357998720574,2441.7170545338304,None,,,,,001,87,2019_Nov_01_1002,ACPT_experiment_5_30_19,3.1.0,59.96313008728151,
,,,C,D,d,v,,,,,,,,,,2,12,52,18,,,,,,,,,,,,,v,1,2.5352654397515835,2445.9865777646573,None,,,,,001,87,2019_Nov_01_1002,ACPT_experiment_5_30_19,3.1.0,59.96313008728151,
,,,C,U,g,n,,,,,,,,,,2,13,53,16,,,,,,,,,,,,,n,1,1.13420152550907,2451.807653565906,None,,,,,001,87,2019_Nov_01_1002,ACPT_experiment_5_30_19,3.1.0,59.96313008728151,
,,,C,D,d,v,,,,,,,,,,2,14,54,9,,,,,,,,,,,,,v,1,3.5694075302280908,2456.2276467379706,None,,,,,001,87,2019_Nov_01_1002,ACPT_experiment_5_30_19,3.1.0,59.96313008728151,
,,,C,G,d,b,,,,,,,,,,2,15,55,12,,,,,,,,,,,,,b,1,1.451101027178538,2463.0828727797516,None,,,,,001,87,2019_Nov_01_1002,ACPT_experiment_5_30_19,3.1.0,59.96313008728151,
,,,C,G,g,v,,,,,,,,,,2,16,56,4,,,,,,,,,,,,,b,0,2.251755506796144,2467.8031037221303,None,,,,,001,87,2019_Nov_01_1002,ACPT_experiment_5_30_19,3.1.0,59.96313008728151,
,,,C,U,y,n,,,,,,,,,,2,17,57,8,,,,,,,,,,,,,n,1,0.9339284081038386,2473.3407299612027,None,,,,,001,87,2019_Nov_01_1002,ACPT_experiment_5_30_19,3.1.0,59.96313008728151,
,,,C,U,d,n,,,,,,,,,,2,18,58,6,,,,,,,,,,,,,n,1,1.0672415775970876,2477.5774217511694,None,,,,,001,87,2019_Nov_01_1002,ACPT_experiment_5_30_19,3.1.0,59.96313008728151,
,,,C,D,d,v,,,,,,,,,,2,19,59,0,,,,,,,,,,,,,v,1,1.7847205180055425,2481.913771510486,None,,,,,001,87,2019_Nov_01_1002,ACPT_experiment_5_30_19,3.1.0,59.96313008728151,
,,,C,U,d,n,,,,,,,,,,3,0,60,6,,,,,,,,,,,,,n,1,0.8005956181077636,2486.9843051066737,None,,,,,001,87,2019_Nov_01_1002,ACPT_experiment_5_30_19,3.1.0,59.96313008728151,
,,,C,G,y,b,,,,,,,,,,3,1,61,14,,,,,,,,,,,,,b,1,2.4847740367013103,2491.0878403893194,None,,,,,001,87,2019_Nov_01_1002,ACPT_experiment_5_30_19,3.1.0,59.96313008728151,
,,,C,U,g,n,,,,,,,,,,3,2,62,16,,,,,,,,,,,,,n,1,1.3010029699403276,2496.858449237683,None,,,,,001,87,2019_Nov_01_1002,ACPT_experiment_5_30_19,3.1.0,59.96313008728151,
,,,C,D,y,b,,,,,,,,,,3,3,63,11,,,,,,,,,,,,,b,1,0.8835619725668948,2501.4623625923336,None,,,,,001,87,2019_Nov_01_1002,ACPT_experiment_5_30_19,3.1.0,59.96313008728151,
,,,C,U,y,n,,,,,,,,,,3,4,64,17,,,,,,,,,,,,,n,1,0.9006662217338999,2505.631781110044,None,,,,,001,87,2019_Nov_01_1002,ACPT_experiment_5_30_19,3.1.0,59.96313008728151,
,,,C,G,d,b,,,,,,,,,,3,5,65,12,,,,,,,,,,,,,b,1,1.1504605837676536,2509.852007071833,None,,,,,001,87,2019_Nov_01_1002,ACPT_experiment_5_30_19,3.1.0,59.96313008728151,
,,,C,D,d,v,,,,,,,,,,3,6,66,9,,,,,,,,,,,,,v,1,1.234303823794562,2514.288298241309,None,,,,,001,87,2019_Nov_01_1002,ACPT_experiment_5_30_19,3.1.0,59.96313008728151,
,,,C,G,y,b,,,,,,,,,,3,7,67,5,,,,,,,,,,,,,b,1,1.050545736751701,2518.825347335732,None,,,,,001,87,2019_Nov_01_1002,ACPT_experiment_5_30_19,3.1.0,59.96313008728151,
,,,C,G,d,b,,,,,,,,,,3,8,68,3,,,,,,,,,,,,,b,1,1.8847699918592298,2523.145033250716,None,,,,,001,87,2019_Nov_01_1002,ACPT_experiment_5_30_19,3.1.0,59.96313008728151,
,,,C,D,y,b,,,,,,,,,,3,9,69,2,,,,,,,,,,,,,b,1,0.8339927331689978,2528.3156108873873,None,,,,,001,87,2019_Nov_01_1002,ACPT_experiment_5_30_19,3.1.0,59.96313008728151,
,,,C,D,d,v,,,,,,,,,,3,10,70,0,,,,,,,,,,,,,b,0,0.7639248975428927,2532.4554066711526,None,,,,,001,87,2019_Nov_01_1002,ACPT_experiment_5_30_19,3.1.0,59.96313008728151,
,,,C,U,d,n,,,,,,,,,,3,11,71,15,,,,,,,,,,,,,n,1,0.9007121035260752,2536.505124422667,None,,,,,001,87,2019_Nov_01_1002,ACPT_experiment_5_30_19,3.1.0,59.96313008728151,
,,,C,D,g,b,,,,,,,,,,3,12,72,10,,,,,,,,,,,,,b,1,4.052694332783631,2540.708717329221,None,,,,,001,87,2019_Nov_01_1002,ACPT_experiment_5_30_19,3.1.0,59.96313008728151,
,,,C,D,d,v,,,,,,,,,,3,13,73,18,,,,,,,,,,,,,v,1,1.50114176236184,2548.0472283624335,None,,,,,001,87,2019_Nov_01_1002,ACPT_experiment_5_30_19,3.1.0,59.96313008728151,
,,,C,G,g,v,,,,,,,,,,3,14,74,13,,,,,,,,,,,,,v,1,0.9006891626304423,2552.834183504832,None,,,,,001,87,2019_Nov_01_1002,ACPT_experiment_5_30_19,3.1.0,59.96313008728151,
,,,C,U,y,n,,,,,,,,,,3,15,75,8,,,,,,,,,,,,,n,1,0.5837866424217282,2557.020689066037,None,,,,,001,87,2019_Nov_01_1002,ACPT_experiment_5_30_19,3.1.0,59.96313008728151,
,,,C,D,g,b,,,,,,,,,,3,16,76,1,,,,,,,,,,,,,b,1,0.8673330996984987,2560.8902842588327,None,,,,,001,87,2019_Nov_01_1002,ACPT_experiment_5_30_19,3.1.0,59.96313008728151,
,,,C,G,g,v,,,,,,,,,,3,17,77,4,,,,,,,,,,,,,v,1,0.7167750171229272,2565.0605337803186,None,,,,,001,87,2019_Nov_01_1002,ACPT_experiment_5_30_19,3.1.0,59.96313008728151,
,,,C,G,g,v,,,,,,,,,,3,18,78,19,,,,,,,,,,,,,v,1,0.7505829553369949,2569.046460747976,None,,,,,001,87,2019_Nov_01_1002,ACPT_experiment_5_30_19,3.1.0,59.96313008728151,
,,,C,U,g,n,,,,,,,,,,3,19,79,7,,,,,,,,,,,,,n,1,0.6671740830661292,2573.082866138966,None,,,,,001,87,2019_Nov_01_1002,ACPT_experiment_5_30_19,3.1.0,59.96313008728151,
,,,C,D,d,v,,,,,,,,,,4,0,80,18,,,,,,,,,,,,,v,1,3.0690053099115175,2577.035845150159,None,,,,,001,87,2019_Nov_01_1002,ACPT_experiment_5_30_19,3.1.0,59.96313008728151,
,,,C,U,g,n,,,,,,,,,,4,1,81,16,,,,,,,,,,,,,n,1,1.0007757645130368,2583.390657501175,None,,,,,001,87,2019_Nov_01_1002,ACPT_experiment_5_30_19,3.1.0,59.96313008728151,
,,,C,G,g,v,,,,,,,,,,4,2,82,13,,,,,,,,,,,,,v,1,1.150606077345401,2587.6941936290114,None,,,,,001,87,2019_Nov_01_1002,ACPT_experiment_5_30_19,3.1.0,59.96313008728151,
,,,C,G,d,b,,,,,,,,,,4,3,83,3,,,,,,,,,,,,,b,1,1.200787476444475,2592.130610067854,None,,,,,001,87,2019_Nov_01_1002,ACPT_experiment_5_30_19,3.1.0,59.96313008728151,
,,,C,D,g,b,,,,,,,,,,4,4,84,1,,,,,,,,,,,,,b,1,1.5509349773506074,2596.6342608398,None,,,,,001,87,2019_Nov_01_1002,ACPT_experiment_5_30_19,3.1.0,59.96313008728151,
,,,C,D,y,b,,,,,,,,,,4,5,85,2,,,,,,,,,,,,,b,1,0.8838215669175042,2601.47117370756,None,,,,,001,87,2019_Nov_01_1002,ACPT_experiment_5_30_19,3.1.0,59.96313008728151,
,,,C,G,g,v,,,,,,,,,,4,6,86,19,,,,,,,,,,,,,v,1,0.9673849883829462,2605.6575413215346,None,,,,,001,87,2019_Nov_01_1002,ACPT_experiment_5_30_19,3.1.0,59.96313008728151,
,,,C,D,y,b,,,,,,,,,,4,7,87,11,,,,,,,,,,,,,b,1,0.6671783090205281,2609.910743312201,None,,,,,001,87,2019_Nov_01_1002,ACPT_experiment_5_30_19,3.1.0,59.96313008728151,
,,,C,G,y,b,,,,,,,,,,4,8,88,5,,,,,,,,,,,,,b,1,0.7670176925626038,2613.8806590436484,None,,,,,001,87,2019_Nov_01_1002,ACPT_experiment_5_30_19,3.1.0,59.96313008728151,
,,,C,U,g,n,,,,,,,,,,4,9,89,7,,,,,,,,,,,,,n,1,1.0841861460535256,2617.9334611382733,None,,,,,001,87,2019_Nov_01_1002,ACPT_experiment_5_30_19,3.1.0,59.96313008728151,
,,,C,U,d,n,,,,,,,,,,4,10,90,6,,,,,,,,,,,,,n,1,0.6838445681842131,2622.2867916885134,None,,,,,001,87,2019_Nov_01_1002,ACPT_experiment_5_30_19,3.1.0,59.96313008728151,
,,,C,G,d,b,,,,,,,,,,4,11,91,12,,,,,,,,,,,,,b,1,1.4177531143018314,2626.2564517497112,None,,,,,001,87,2019_Nov_01_1002,ACPT_experiment_5_30_19,3.1.0,59.96313008728151,
,,,C,G,y,b,,,,,,,,,,4,12,92,14,,,,,,,,,,,,,b,1,0.6669398444428225,2630.976934136386,None,,,,,001,87,2019_Nov_01_1002,ACPT_experiment_5_30_19,3.1.0,59.96313008728151,
,,,C,U,y,n,,,,,,,,,,4,13,93,17,,,,,,,,,,,,,n,1,0.8172796866515455,2634.9296979257506,None,,,,,001,87,2019_Nov_01_1002,ACPT_experiment_5_30_19,3.1.0,59.96313008728151,
,,,C,D,d,v,,,,,,,,,,4,14,94,9,,,,,,,,,,,,,v,1,1.0172591002160516,2639.0663227343375,None,,,,,001,87,2019_Nov_01_1002,ACPT_experiment_5_30_19,3.1.0,59.96313008728151,
,,,C,U,d,n,,,,,,,,,,4,15,95,15,,,,,,,,,,,,,n,1,1.2009486664246651,2643.369411816554,None,,,,,001,87,2019_Nov_01_1002,ACPT_experiment_5_30_19,3.1.0,59.96313008728151,
,,,C,U,y,n,,,,,,,,,,4,16,96,8,,,,,,,,,,,,,n,1,0.8003496071823974,2647.856410818323,None,,,,,001,87,2019_Nov_01_1002,ACPT_experiment_5_30_19,3.1.0,59.96313008728151,
,,,C,G,g,v,,,,,,,,,,4,17,97,4,,,,,,,,,,,,,v,1,1.75133366597629,2651.9425713907103,None,,,,,001,87,2019_Nov_01_1002,ACPT_experiment_5_30_19,3.1.0,59.96313008728151,
,,,C,D,d,v,,,,,,,,,,4,18,98,0,,,,,,,,,,,,,b,0,1.98485206593341,2656.979712701499,None,,,,,001,87,2019_Nov_01_1002,ACPT_experiment_5_30_19,3.1.0,59.96313008728151,
,,,C,D,g,b,,,,,,,,,,4,19,99,10,,,,,,,,,,,,,b,1,1.0341206588504974,2662.250377543761,None,,,,,001,87,2019_Nov_01_1002,ACPT_experiment_5_30_19,3.1.0,59.96313008728151,
,,,C,D,y,b,,,,,,,,,,5,0,100,11,,,,,,,,,,,,,b,1,0.7472692032656596,2666.590318157025,None,,,,,001,87,2019_Nov_01_1002,ACPT_experiment_5_30_19,3.1.0,59.96313008728151,
,,,C,D,d,v,,,,,,,,,,5,1,101,18,,,,,,,,,,,,,v,1,1.6846414624701538,2670.6066777326305,None,,,,,001,87,2019_Nov_01_1002,ACPT_experiment_5_30_19,3.1.0,59.96313008728151,
,,,C,U,d,n,,,,,,,,,,5,2,102,15,,,,,,,,,,,,,n,1,1.417766094019953,2675.577129556598,None,,,,,001,87,2019_Nov_01_1002,ACPT_experiment_5_30_19,3.1.0,59.96313008728151,
,,,C,G,g,v,,,,,,,,,,5,3,103,13,,,,,,,,,,,,,v,1,0.83369540708145,2680.2976520898405,None,,,,,001,87,2019_Nov_01_1002,ACPT_experiment_5_30_19,3.1.0,59.96313008728151,
,,,C,G,y,b,,,,,,,,,,5,4,104,14,,,,,,,,,,,,,b,1,0.9507570646642307,2684.4004562823493,None,,,,,001,87,2019_Nov_01_1002,ACPT_experiment_5_30_19,3.1.0,59.96313008728151,
,,,C,U,g,n,,,,,,,,,,5,5,105,7,,,,,,,,,,,,,n,1,0.8669784213707317,2688.654031968139,None,,,,,001,87,2019_Nov_01_1002,ACPT_experiment_5_30_19,3.1.0,59.96313008728151,
,,,C,D,g,b,,,,,,,,,,5,6,106,10,,,,,,,,,,,,,b,1,2.351829430815087,2692.7901345694854,None,,,,,001,87,2019_Nov_01_1002,ACPT_experiment_5_30_19,3.1.0,59.96313008728151,
,,,C,D,d,v,,,,,,,,,,5,7,107,9,,,,,,,,,,,,,v,1,1.284329164428982,2698.4110748987055,None,,,,,001,87,2019_Nov_01_1002,ACPT_experiment_5_30_19,3.1.0,59.96313008728151,
,,,C,U,y,n,,,,,,,,,,5,8,108,17,,,,,,,,,,,,,b,0,0.7672428755690817,2702.9979042284,None,,,,,001,87,2019_Nov_01_1002,ACPT_experiment_5_30_19,3.1.0,59.96313008728151,
,,,C,U,g,n,,,,,,,,,,5,9,109,16,,,,,,,,,,,,,n,1,0.9673937421457595,2707.0509722563065,None,,,,,001,87,2019_Nov_01_1002,ACPT_experiment_5_30_19,3.1.0,59.96313008728151,
,,,C,D,y,b,,,,,,,,,,5,10,110,2,,,,,,,,,,,,,b,1,0.8503758533788641,2711.321138737786,None,,,,,001,87,2019_Nov_01_1002,ACPT_experiment_5_30_19,3.1.0,59.96313008728151,
,,,C,D,g,b,,,,,,,,,,5,11,111,1,,,,,,,,,,,,,b,1,1.150922722082214,2715.440626696985,None,,,,,001,87,2019_Nov_01_1002,ACPT_experiment_5_30_19,3.1.0,59.96313008728151,
,,,C,D,d,v,,,,,,,,,,5,12,112,0,,,,,,,,,,,,,v,1,2.067997419752828,2719.8942611839134,None,,,,,001,87,2019_Nov_01_1002,ACPT_experiment_5_30_19,3.1.0,59.96313008728151,
,,,C,G,d,b,,,,,,,,,,5,13,113,12,,,,,,,,,,,,,b,1,3.452626596769278,2725.248070172579,None,,,,,001,87,2019_Nov_01_1002,ACPT_experiment_5_30_19,3.1.0,59.96313008728151,
,,,C,U,y,n,,,,,,,,,,5,14,114,8,,,,,,,,,,,,,n,1,0.8172839126059444,2731.986519808709,None,,,,,001,87,2019_Nov_01_1002,ACPT_experiment_5_30_19,3.1.0,59.96313008728151,
,,,C,G,d,b,,,,,,,,,,5,15,115,3,,,,,,,,,,,,,b,1,1.2671548851581065,2736.106748819223,None,,,,,001,87,2019_Nov_01_1002,ACPT_experiment_5_30_19,3.1.0,59.96313008728151,
,,,C,G,y,b,,,,,,,,,,5,16,116,5,,,,,,,,,,,,,b,1,1.1008451607240204,2740.659735195651,None,,,,,001,87,2019_Nov_01_1002,ACPT_experiment_5_30_19,3.1.0,59.96313008728151,
,,,C,G,g,v,,,,,,,,,,5,17,117,4,,,,,,,,,,,,,v,1,1.017211105446222,2745.063313250994,None,,,,,001,87,2019_Nov_01_1002,ACPT_experiment_5_30_19,3.1.0,59.96313008728151,
,,,C,U,d,n,,,,,,,,,,5,18,118,6,,,,,,,,,,,,,n,1,1.4177772626139813,2749.3662994010315,None,,,,,001,87,2019_Nov_01_1002,ACPT_experiment_5_30_19,3.1.0,59.96313008728151,
,,,C,G,g,v,,,,,,,,,,5,19,119,19,,,,,,,,,,,,,b,0,1.417477219841203,2754.0868460825855,None,,,,,001,87,2019_Nov_01_1002,ACPT_experiment_5_30_19,3.1.0,59.96313008728151,
,,,C,D,d,v,,,,,,,,,,6,0,120,9,,,,,,,,,,,,,v,1,1.4511366459387318,2758.7901025729725,None,,,,,001,87,2019_Nov_01_1002,ACPT_experiment_5_30_19,3.1.0,59.96313008728151,
,,,C,U,d,n,,,,,,,,,,6,1,121,6,,,,,,,,,,,,,n,1,1.4511336273994857,2763.5270257339503,None,,,,,001,87,2019_Nov_01_1002,ACPT_experiment_5_30_19,3.1.0,59.96313008728151,
,,,C,D,y,b,,,,,,,,,,6,2,122,11,,,,,,,,,,,,,b,1,0.8172905533915582,2768.2639673080157,None,,,,,001,87,2019_Nov_01_1002,ACPT_experiment_5_30_19,3.1.0,59.96313008728151,
,,,C,U,d,n,,,,,,,,,,6,3,123,15,,,,,,,,,,,,,n,1,1.8514121178036476,2772.3670742599825,None,,,,,001,87,2019_Nov_01_1002,ACPT_experiment_5_30_19,3.1.0,59.96313008728151,
,,,C,G,d,b,,,,,,,,,,6,4,124,12,,,,,,,,,,,,,b,1,2.268395504671389,2777.504295531868,None,,,,,001,87,2019_Nov_01_1002,ACPT_experiment_5_30_19,3.1.0,59.96313008728151,
,,,C,G,d,b,,,,,,,,,,6,5,125,3,,,,,,,,,,,,,b,1,3.952998027988542,2783.0418260832557,None,,,,,001,87,2019_Nov_01_1002,ACPT_experiment_5_30_19,3.1.0,59.96313008728151,
,,,C,U,g,n,,,,,,,,,,6,6,126,16,,,,,,,,,,,,,n,1,0.9674091366946413,2790.280632963472,None,,,,,001,87,2019_Nov_01_1002,ACPT_experiment_5_30_19,3.1.0,59.96313008728151,
,,,C,U,y,n,,,,,,,,,,6,7,127,17,,,,,,,,,,,,,b,0,0.9140398585996081,2794.5538656768276,None,,,,,001,87,2019_Nov_01_1002,ACPT_experiment_5_30_19,3.1.0,59.96313008728151,
,,,C,D,d,v,,,,,,,,,,6,8,128,0,,,,,,,,,,,,,v,1,1.0174399106995224,2798.7537183117556,None,,,,,001,87,2019_Nov_01_1002,ACPT_experiment_5_30_19,3.1.0,59.96313008728151,
,,,C,G,g,v,,,,,,,,,,6,9,129,13,,,,,,,,,,,,,v,1,1.0172008424137857,2803.073896550444,None,,,,,001,87,2019_Nov_01_1002,ACPT_experiment_5_30_19,3.1.0,59.96313008728151,
,,,C,D,y,b,,,,,,,,,,6,10,130,2,,,,,,,,,,,,,b,1,0.8673264589128848,2807.3769134895792,None,,,,,001,87,2019_Nov_01_1002,ACPT_experiment_5_30_19,3.1.0,59.96313008728151,
,,,C,G,y,b,,,,,,,,,,6,11,131,14,,,,,,,,,,,,,b,1,1.3341344535733697,2811.546971937549,None,,,,,001,87,2019_Nov_01_1002,ACPT_experiment_5_30_19,3.1.0,59.96313008728151,
,,,C,U,g,n,,,,,,,,,,6,12,132,7,,,,,,,,,,,,,n,1,1.167566945911858,2816.1668974339705,None,,,,,001,87,2019_Nov_01_1002,ACPT_experiment_5_30_19,3.1.0,59.96313008728151,
,,,C,D,g,b,,,,,,,,,,6,13,133,1,0,0,0,0,0,0,0,0,,,,,b,1,2.2848257140881287,2820.637200896748,None,,,,,001,87,2019_Nov_01_1002,ACPT_experiment_5_30_19,3.1.0,59.96313008728151,
,,,C,D,g,b,R,U,g,L,u,,,,,6,13,133,1,0,0,0,0,,,,,0,0,0,10,,,,,,up,1.3010047810635115,2882.6172006613015,None,001,87,2019_Nov_01_1002,ACPT_experiment_5_30_19,3.1.0,59.96313008728151,
,,,C,D,g,b,L,D,g,L,i,,,,,6,13,133,1,0,0,0,0,,,,,0,1,1,14,,,,,,up,0.6838973926164726,2885.2024881212947,None,001,87,2019_Nov_01_1002,ACPT_experiment_5_30_19,3.1.0,59.96313008728151,
,,,C,D,g,b,L,U,y,R,u,,,,,6,13,133,1,0,0,0,0,,,,,0,2,2,25,,,,,,down,0.7005340700984561,2887.1873256982412,None,001,87,2019_Nov_01_1002,ACPT_experiment_5_30_19,3.1.0,59.96313008728151,
,,,C,D,g,b,L,U,d,R,u,,,,,6,13,133,1,0,0,0,0,,,,,0,3,3,21,,,,,,up,0.8339610385100968,2889.1888434196303,None,001,87,2019_Nov_01_1002,ACPT_experiment_5_30_19,3.1.0,59.96313008728151,
,,,C,D,g,b,L,U,g,L,u,,,,,6,13,133,1,0,0,0,0,,,,,0,4,4,22,,,,,,up,0.6338642037803766,2891.307111285382,None,001,87,2019_Nov_01_1002,ACPT_experiment_5_30_19,3.1.0,59.96313008728151,
,,,C,D,g,b,L,D,g,R,i,,,,,6,13,133,1,0,0,0,0,,,,,0,5,5,15,,,,,,up,0.5170802517823176,2893.2252104751756,None,001,87,2019_Nov_01_1002,ACPT_experiment_5_30_19,3.1.0,59.96313008728151,
,,,C,D,g,b,L,G,d,L,i,,,,,6,13,133,1,0,0,0,0,,,,,0,6,6,16,,,,,,down,0.6004486756314691,2895.026593931952,None,001,87,2019_Nov_01_1002,ACPT_experiment_5_30_19,3.1.0,59.96313008728151,
,,,C,D,g,b,R,G,y,R,y,,,,,6,13,133,1,0,0,0,0,,,,,0,7,7,29,,,,,,down,0.5834956552657786,2896.928309095975,None,001,87,2019_Nov_01_1002,ACPT_experiment_5_30_19,3.1.0,59.96313008728151,
,,,C,D,g,b,L,D,y,R,y,,,,,6,13,133,1,0,0,0,0,,,,,0,8,8,33,,,,,,down,0.7338850015139542,2898.796116709998,None,001,87,2019_Nov_01_1002,ACPT_experiment_5_30_19,3.1.0,59.96313008728151,
,,,C,D,g,b,L,D,d,R,c ,,,,,6,13,133,1,0,0,0,0,,,,,0,9,9,13,,,,,,up,1.0174359865986844,2900.81431065173,None,001,87,2019_Nov_01_1002,ACPT_experiment_5_30_19,3.1.0,59.96313008728151,
,,,C,D,g,b,R,D,g,R,i,,,,,6,13,133,1,0,0,0,0,,,,,0,10,10,3,,,,,,up,0.5670965367999088,2903.116049239615,None,001,87,2019_Nov_01_1002,ACPT_experiment_5_30_19,3.1.0,59.96313008728151,
,,,C,D,g,b,R,G,d,R,i,,,,,6,13,133,1,0,0,0,0,,,,,0,11,11,5,,,,,,up,0.700527127458372,2904.9674535092176,None,001,87,2019_Nov_01_1002,ACPT_experiment_5_30_19,3.1.0,59.96313008728151,
,,,C,D,g,b,R,D,g,L,i,,,,,6,13,133,1,0,0,0,0,,,,,0,12,12,2,,,,,,up,0.7839248311356641,2906.952288671333,None,001,87,2019_Nov_01_1002,ACPT_experiment_5_30_19,3.1.0,59.96313008728151,
,,,C,D,g,b,L,D,y,L,y,,,,,6,13,133,1,0,0,0,0,,,,,0,13,13,32,,,,,,down,0.6171532702396689,2909.0204964832515,None,001,87,2019_Nov_01_1002,ACPT_experiment_5_30_19,3.1.0,59.96313008728151,
,,,C,D,g,b,L,U,y,L,u,,,,,6,13,133,1,0,0,0,0,,,,,0,14,14,24,,,,,,down,0.6671713663808987,2910.9219556751705,None,001,87,2019_Nov_01_1002,ACPT_experiment_5_30_19,3.1.0,59.96313008728151,
,,,C,D,g,b,R,D,y,R,y,,,,,6,13,133,1,0,0,0,0,,,,,0,15,15,27,,,,,,down,0.5670696718034378,2912.8901303133457,None,001,87,2019_Nov_01_1002,ACPT_experiment_5_30_19,3.1.0,59.96313008728151,
,,,C,D,g,b,L,G,y,L,y,,,,,6,13,133,1,0,0,0,0,,,,,0,16,16,34,,,,,,down,0.5671134406184137,2914.7581745808234,None,001,87,2019_Nov_01_1002,ACPT_experiment_5_30_19,3.1.0,59.96313008728151,
,,,C,D,g,b,R,D,d,R,c ,,,,,6,13,133,1,0,0,0,0,,,,,0,17,17,1,,,,,,up,0.7672365366370286,2916.609604206153,None,001,87,2019_Nov_01_1002,ACPT_experiment_5_30_19,3.1.0,59.96313008728151,
,,,C,D,g,b,L,U,g,R,u,,,,,6,13,133,1,0,0,0,0,,,,,0,18,18,23,,,,,,up,0.6671949109850175,2918.661124930989,None,001,87,2019_Nov_01_1002,ACPT_experiment_5_30_19,3.1.0,59.96313008728151,
,,,C,D,g,b,R,D,d,L,c,,,,,6,13,133,1,0,0,0,0,,,,,0,19,19,0,,,,,,up,0.7005277311664031,2920.6126233488217,None,001,87,2019_Nov_01_1002,ACPT_experiment_5_30_19,3.1.0,59.96313008728151,
,,,C,D,g,b,R,G,y,L,y,,,,,6,13,133,1,0,0,0,0,,,,,0,20,20,28,,,,,,down,0.6003294433421615,2922.597478433294,None,001,87,2019_Nov_01_1002,ACPT_experiment_5_30_19,3.1.0,59.96313008728151,
,,,C,D,g,b,R,G,d,L,i,,,,,6,13,133,1,0,0,0,0,,,,,0,21,21,4,,,,,,up,0.7338774551662937,2924.482227899088,None,001,87,2019_Nov_01_1002,ACPT_experiment_5_30_19,3.1.0,59.96313008728151,
,,,C,D,g,b,R,G,g,L,c ,,,,,6,13,133,1,0,0,0,0,,,,,0,22,22,6,,,,,,up,0.45033099788952313,2926.48373807413,None,001,87,2019_Nov_01_1002,ACPT_experiment_5_30_19,3.1.0,59.96313008728151,
,,,C,D,g,b,R,D,y,L,y,,,,,6,13,133,1,0,0,0,0,,,,,0,23,23,26,,,,,,down,0.7170011056909971,2928.251913376384,None,001,87,2019_Nov_01_1002,ACPT_experiment_5_30_19,3.1.0,59.96313008728151,
,,,C,D,g,b,L,G,g,L,c ,,,,,6,13,133,1,0,0,0,0,,,,,0,24,24,18,,,,,,up,0.6838442663301976,2930.2699406947654,None,001,87,2019_Nov_01_1002,ACPT_experiment_5_30_19,3.1.0,59.96313008728151,
,,,C,D,g,b,L,G,g,R,c ,,,,,6,13,133,1,0,0,0,0,,,,,0,25,25,19,,,,,,up,0.4838422137240741,2932.221265546608,None,001,87,2019_Nov_01_1002,ACPT_experiment_5_30_19,3.1.0,59.96313008728151,
,,,C,D,g,b,R,U,y,R,u,,,,,6,13,133,1,0,0,0,0,,,,,0,26,26,31,,,,,,down,0.5837640033796561,2933.989422435774,None,001,87,2019_Nov_01_1002,ACPT_experiment_5_30_19,3.1.0,59.96313008728151,
,,,C,D,g,b,R,U,y,L,u,,,,,6,13,133,1,0,0,0,0,,,,,0,27,27,30,,,,,,down,0.48369309789904946,2935.85749990718,None,001,87,2019_Nov_01_1002,ACPT_experiment_5_30_19,3.1.0,59.96313008728151,
,,,C,D,g,b,R,U,d,L,u,,,,,6,13,133,1,0,0,0,0,,,,,0,28,28,8,,,,,,up,0.6504851848599174,2937.6255046619826,None,001,87,2019_Nov_01_1002,ACPT_experiment_5_30_19,3.1.0,59.96313008728151,
,,,C,D,g,b,R,G,g,R,c ,,,,,6,13,133,1,0,0,0,0,,,,,0,29,29,7,,,,,,up,0.7172000274085804,2939.5603057297003,None,001,87,2019_Nov_01_1002,ACPT_experiment_5_30_19,3.1.0,59.96313008728151,
,,,C,D,g,b,L,G,d,R,i,,,,,6,13,133,1,0,0,0,0,,,,,0,30,30,17,,,,,,up,0.3836233998345051,2941.5618153010346,None,001,87,2019_Nov_01_1002,ACPT_experiment_5_30_19,3.1.0,59.96313008728151,
,,,C,D,g,b,L,G,y,R,y,,,,,6,13,133,1,0,0,0,0,,,,,0,31,31,35,,,,,,down,0.5670898960142949,2943.2297467355256,None,001,87,2019_Nov_01_1002,ACPT_experiment_5_30_19,3.1.0,59.96313008728151,
,,,C,D,g,b,R,U,g,R,u,,,,,6,13,133,1,0,0,0,0,,,,,0,32,32,11,,,,,,up,0.783929057090063,2945.0811482884433,None,001,87,2019_Nov_01_1002,ACPT_experiment_5_30_19,3.1.0,59.96313008728151,
,,,C,D,g,b,R,U,d,R,u,,,,,6,13,133,1,0,0,0,0,,,,,0,33,33,9,,,,,,up,1.3343662773659162,2947.1326786726036,None,001,87,2019_Nov_01_1002,ACPT_experiment_5_30_19,3.1.0,59.96313008728151,
,,,C,D,g,b,L,D,d,L,c ,,,,,6,13,133,1,0,0,0,0,,,,,0,34,34,12,,,,,,up,0.8006013533317855,2949.751352984626,None,001,87,2019_Nov_01_1002,ACPT_experiment_5_30_19,3.1.0,59.96313008728151,
,,,C,D,g,b,L,U,d,L,u,,,,,6,13,133,1,0,0,0,0,,,,,0,35,35,20,,,,,,down,0.6004441478225999,2951.852940102226,None,001,87,2019_Nov_01_1002,ACPT_experiment_5_30_19,3.1.0,59.96313008728151,
,,,C,D,g,b,L,U,g,R,u,,,,,6,13,133,1,0,0,0,0,,,,,1,0,36,23,,,,,,up,0.7005476535236994,2953.7209970475674,None,001,87,2019_Nov_01_1002,ACPT_experiment_5_30_19,3.1.0,59.96313008728151,
,,,C,D,g,b,L,D,g,L,i,,,,,6,13,133,1,0,0,0,0,,,,,1,1,37,14,,,,,,up,0.45035605176281024,2955.689155385632,None,001,87,2019_Nov_01_1002,ACPT_experiment_5_30_19,3.1.0,59.96313008728151,
,,,C,D,g,b,L,D,g,R,i,,,,,6,13,133,1,0,0,0,0,,,,,1,2,38,15,,,,,,up,0.6671867609293258,2957.407123027498,None,001,87,2019_Nov_01_1002,ACPT_experiment_5_30_19,3.1.0,59.96313008728151,
,,,C,D,g,b,L,G,g,L,c ,,,,,6,13,133,1,0,0,0,0,,,,,1,3,39,18,,,,,,up,0.46702804615097193,2959.358613295276,None,001,87,2019_Nov_01_1002,ACPT_experiment_5_30_19,3.1.0,59.96313008728151,
,,,C,D,g,b,R,D,d,R,c ,,,,,6,13,133,1,0,0,0,0,,,,,1,4,40,1,,,,,,up,0.4167053794290041,2961.12689786864,None,001,87,2019_Nov_01_1002,ACPT_experiment_5_30_19,3.1.0,59.96313008728151,
,,,C,D,g,b,L,G,g,R,c ,,,,,6,13,133,1,0,0,0,0,,,,,1,5,41,19,,,,,,up,0.9507250681508594,2962.8279079623326,None,001,87,2019_Nov_01_1002,ACPT_experiment_5_30_19,3.1.0,59.96313008728151,
,,,C,D,g,b,R,U,g,R,u,,,,,6,13,133,1,0,0,0,0,,,,,1,6,42,11,,,,,,up,0.45033160159755425,2965.0629383484547,None,001,87,2019_Nov_01_1002,ACPT_experiment_5_30_19,3.1.0,59.96313008728151,
,,,C,D,g,b,R,D,y,R,y,,,,,6,13,133,1,0,0,0,0,,,,,1,7,43,27,,,,,,down,0.5838249778666977,2966.797584323641,None,001,87,2019_Nov_01_1002,ACPT_experiment_5_30_19,3.1.0,59.96313008728151,
,,,C,D,g,b,L,U,g,L,u,,,,,6,13,133,1,0,0,0,0,,,,,1,8,44,22,,,,,,up,0.7005241089195806,2968.665664511732,None,001,87,2019_Nov_01_1002,ACPT_experiment_5_30_19,3.1.0,59.96313008728151,
,,,C,D,g,b,R,G,d,L,i,,,,,6,13,133,1,0,0,0,0,,,,,1,9,45,4,,,,,,down,0.6504869959831012,2970.6505014849704,None,001,87,2019_Nov_01_1002,ACPT_experiment_5_30_19,3.1.0,59.96313008728151,
,,,C,D,g,b,R,G,d,R,i,,,,,6,13,133,1,0,0,0,0,,,,,1,10,46,5,,,,,,up,0.43364481636899654,2972.5686293508843,None,001,87,2019_Nov_01_1002,ACPT_experiment_5_30_19,3.1.0,59.96313008728151,
,,,C,D,g,b,L,G,y,L,y,,,,,6,13,133,1,0,0,0,0,,,,,1,11,47,34,,,,,,down,0.5834989756590403,2974.303534316713,None,001,87,2019_Nov_01_1002,ACPT_experiment_5_30_19,3.1.0,59.96313008728151,
,,,C,D,g,b,R,D,g,L,i,,,,,6,13,133,1,0,0,0,0,,,,,1,12,48,2,,,,,,down,0.36699879650859657,2976.171322310233,None,001,87,2019_Nov_01_1002,ACPT_experiment_5_30_19,3.1.0,59.96313008728151,
,,,C,D,g,b,R,G,y,L,y,,,,,6,13,133,1,0,0,0,0,,,,,1,13,49,28,,,,,,down,0.6338168127185781,2977.822590504099,None,001,87,2019_Nov_01_1002,ACPT_experiment_5_30_19,3.1.0,59.96313008728151,
,,,C,D,g,b,R,U,g,L,u,,,,,6,13,133,1,0,0,0,0,,,,,1,14,50,10,,,,,,up,0.5837646070872324,2979.7407126347894,None,001,87,2019_Nov_01_1002,ACPT_experiment_5_30_19,3.1.0,59.96313008728151,
,,,C,D,g,b,R,D,y,L,y,,,,,6,13,133,1,0,0,0,0,,,,,1,15,51,26,,,,,,down,0.550253693106697,2981.6423164147245,None,001,87,2019_Nov_01_1002,ACPT_experiment_5_30_19,3.1.0,59.96313008728151,
,,,C,D,g,b,R,G,g,R,c ,,,,,6,13,133,1,0,0,0,0,,,,,1,16,52,7,,,,,,up,0.7005235052120042,2983.4935510424375,None,001,87,2019_Nov_01_1002,ACPT_experiment_5_30_19,3.1.0,59.96313008728151,
,,,C,D,g,b,L,G,d,R,i,,,,,6,13,133,1,0,0,0,0,,,,,1,17,53,17,,,,,,up,0.6671683478421073,2985.478384393429,None,001,87,2019_Nov_01_1002,ACPT_experiment_5_30_19,3.1.0,59.96313008728151,
,,,C,D,g,b,R,D,g,R,i,,,,,6,13,133,1,0,0,0,0,,,,,1,18,54,3,,,,,,up,0.5003681108264573,2987.4298668130054,None,001,87,2019_Nov_01_1002,ACPT_experiment_5_30_19,3.1.0,59.96313008728151,
,,,C,D,g,b,L,U,y,L,u,,,,,6,13,133,1,0,0,0,0,,,,,1,19,55,24,,,,,,down,0.566845998066583,2989.264829100889,None,001,87,2019_Nov_01_1002,ACPT_experiment_5_30_19,3.1.0,59.96313008728151,
,,,C,D,g,b,L,D,d,L,c ,,,,,6,13,133,1,0,0,0,0,,,,,1,20,56,12,,,,,,down,0.36697042224250254,2991.1326412427206,None,001,87,2019_Nov_01_1002,ACPT_experiment_5_30_19,3.1.0,59.96313008728151,
,,,C,D,g,b,L,U,y,R,u,,,,,6,13,133,1,0,0,0,0,,,,,1,21,57,25,,,,,,down,0.5835931540741512,2992.8007661655593,None,001,87,2019_Nov_01_1002,ACPT_experiment_5_30_19,3.1.0,59.96313008728151,
,,,C,D,g,b,L,G,d,L,i,,,,,6,13,133,1,0,0,0,0,,,,,1,22,58,16,,,,,,up,0.7338825866827392,2994.6853571580577,None,001,87,2019_Nov_01_1002,ACPT_experiment_5_30_19,3.1.0,59.96313008728151,
,,,C,D,g,b,R,D,d,L,c,,,,,6,13,133,1,0,0,0,0,,,,,1,23,59,0,,,,,,up,1.0173282247578754,2996.703550496082,None,001,87,2019_Nov_01_1002,ACPT_experiment_5_30_19,3.1.0,59.96313008728151,
,,,C,D,g,b,L,U,d,R,u,,,,,6,13,133,1,0,0,0,0,,,,,1,24,60,21,,,,,,up,0.8840355813299539,2999.0052703690258,None,001,87,2019_Nov_01_1002,ACPT_experiment_5_30_19,3.1.0,59.96313008728151,
,,,C,D,g,b,R,G,y,R,y,,,,,6,13,133,1,0,0,0,0,,,,,1,25,61,29,,,,,,down,0.5337588869560932,3001.1735720273205,None,001,87,2019_Nov_01_1002,ACPT_experiment_5_30_19,3.1.0,59.96313008728151,
,,,C,D,g,b,R,U,d,R,u,,,,,6,13,133,1,0,0,0,0,,,,,1,26,62,9,,,,,,up,0.6004459589462385,3002.9916455897187,None,001,87,2019_Nov_01_1002,ACPT_experiment_5_30_19,3.1.0,59.96313008728151,
,,,C,D,g,b,L,G,y,R,y,,,,,6,13,133,1,0,0,0,0,,,,,1,27,63,35,,,,,,down,0.6004519960238213,3004.87640260186,None,001,87,2019_Nov_01_1002,ACPT_experiment_5_30_19,3.1.0,59.96313008728151,
,,,C,D,g,b,R,U,d,L,u,,,,,6,13,133,1,0,0,0,0,,,,,1,28,64,8,,,,,,up,0.6171251978275905,3006.761162934394,None,001,87,2019_Nov_01_1002,ACPT_experiment_5_30_19,3.1.0,59.96313008728151,
,,,C,D,g,b,R,U,y,L,u,,,,,6,13,133,1,0,0,0,0,,,,,1,29,65,30,,,,,,down,0.5501293293018534,3008.662876287294,None,001,87,2019_Nov_01_1002,ACPT_experiment_5_30_19,3.1.0,59.96313008728151,
,,,C,D,g,b,L,D,y,R,y,,,,,6,13,133,1,0,0,0,0,,,,,1,30,66,33,,,,,,down,0.43368435922911885,3010.4972949363105,None,001,87,2019_Nov_01_1002,ACPT_experiment_5_30_19,3.1.0,59.96313008728151,
,,,C,D,g,b,R,U,y,R,u,,,,,6,13,133,1,0,0,0,0,,,,,1,31,67,31,,,,,,down,0.3836197775876826,3012.2152912542965,None,001,87,2019_Nov_01_1002,ACPT_experiment_5_30_19,3.1.0,59.96313008728151,
,,,C,D,g,b,L,U,d,L,u,,,,,6,13,133,1,0,0,0,0,,,,,1,32,68,20,,,,,,up,0.3836336628673962,3013.883199144184,None,001,87,2019_Nov_01_1002,ACPT_experiment_5_30_19,3.1.0,59.96313008728151,
,,,C,D,g,b,L,D,y,L,y,,,,,6,13,133,1,0,0,0,0,,,,,1,33,69,32,,,,,,down,0.36692695528108743,3015.5678393992384,None,001,87,2019_Nov_01_1002,ACPT_experiment_5_30_19,3.1.0,59.96313008728151,
,,,C,D,g,b,R,G,g,L,c ,,,,,6,13,133,1,0,0,0,0,,,,,1,34,70,6,,,,,,up,0.3836134386560843,3017.2190774077153,None,001,87,2019_Nov_01_1002,ACPT_experiment_5_30_19,3.1.0,59.96313008728151,
,,,C,D,g,b,L,D,d,R,c ,,,,,6,13,133,1,0,0,0,0,,,,,1,35,71,13,,,,,,down,0.5670751051734442,3018.8870230293396,None,001,87,2019_Nov_01_1002,ACPT_experiment_5_30_19,3.1.0,59.96313008728151,
,,,C,D,g,b,,,,,,,,,,6,13,133,1,1,0,1,0,0,0,0,0,,,,,,,,,,,,,,001,87,2019_Nov_01_1002,ACPT_experiment_5_30_19,3.1.0,59.96313008728151,
,,,C,D,g,b,L,D,d,L,c ,,,,,6,13,133,1,1,0,1,0,,,,,0,0,0,12,,,,,,down,0.4969278819730789,3025.512133470134,None,001,87,2019_Nov_01_1002,ACPT_experiment_5_30_19,3.1.0,59.96313008728151,
,,,C,D,g,b,L,U,g,L,u,,,,,6,13,133,1,1,0,1,0,,,,,0,1,1,22,,,,,,up,0.6004737295047562,3027.293342521766,None,001,87,2019_Nov_01_1002,ACPT_experiment_5_30_19,3.1.0,59.96313008728151,
,,,C,D,g,b,R,G,y,R,y,,,,,6,13,133,1,1,0,1,0,,,,,0,2,2,29,,,,,,down,0.4670177831185356,3029.1781254933426,None,001,87,2019_Nov_01_1002,ACPT_experiment_5_30_19,3.1.0,59.96313008728151,
,,,C,D,g,b,L,U,g,R,u,,,,,6,13,133,1,1,0,1,0,,,,,0,3,3,23,,,,,,up,0.5671122332023515,3030.9294301813447,None,001,87,2019_Nov_01_1002,ACPT_experiment_5_30_19,3.1.0,59.96313008728151,
,,,C,D,g,b,L,G,g,L,c ,,,,,6,13,133,1,1,0,1,0,,,,,0,4,4,18,,,,,,up,0.3502631109486174,3032.7808522603273,None,001,87,2019_Nov_01_1002,ACPT_experiment_5_30_19,3.1.0,59.96313008728151,
,,,C,D,g,b,L,G,y,L,y,,,,,6,13,133,1,1,0,1,0,,,,,0,5,5,34,,,,,,up,0.33350901230096497,3034.432169958233,None,001,87,2019_Nov_01_1002,ACPT_experiment_5_30_19,3.1.0,59.96313008728151,
,,,C,D,g,b,R,U,g,L,u,,,,,6,13,133,1,1,0,1,0,,,,,0,6,6,10,,,,,,up,0.6671514440236024,3036.066681034912,None,001,87,2019_Nov_01_1002,ACPT_experiment_5_30_19,3.1.0,59.96313008728151,
,,,C,D,g,b,R,U,d,R,u,,,,,6,13,133,1,1,0,1,0,,,,,0,7,7,9,,,,,,up,0.6004477700698772,3038.001473348867,None,001,87,2019_Nov_01_1002,ACPT_experiment_5_30_19,3.1.0,59.96313008728151,
,,,C,D,g,b,R,G,y,L,y,,,,,6,13,133,1,1,0,1,0,,,,,0,8,8,28,,,,,,down,0.4167044738669574,3039.9031867017666,None,001,87,2019_Nov_01_1002,ACPT_experiment_5_30_19,3.1.0,59.96313008728151,
,,,C,D,g,b,L,G,d,L,i,,,,,6,13,133,1,1,0,1,0,,,,,0,9,9,16,,,,,,up,0.40030052573911235,3041.6041946824816,None,001,87,2019_Nov_01_1002,ACPT_experiment_5_30_19,3.1.0,59.96313008728151,
,,,C,D,g,b,L,U,d,L,u,,,,,6,13,133,1,1,0,1,0,,,,,0,10,10,20,,,,,,up,0.40030807208631813,3043.2887860372048,None,001,87,2019_Nov_01_1002,ACPT_experiment_5_30_19,3.1.0,59.96313008728151,
,,,C,D,g,b,L,D,g,R,i,,,,,6,13,133,1,1,0,1,0,,,,,0,11,11,15,,,,,,up,0.7505880868529857,3044.973389767938,None,001,87,2019_Nov_01_1002,ACPT_experiment_5_30_19,3.1.0,59.96313008728151,
,,,C,D,g,b,R,D,y,R,y,,,,,6,13,133,1,1,0,1,0,,,,,0,12,12,27,,,,,,down,0.5001537945604468,3047.0251866890885,None,001,87,2019_Nov_01_1002,ACPT_experiment_5_30_19,3.1.0,59.96313008728151,
,,,C,D,g,b,L,G,g,R,c ,,,,,6,13,133,1,1,0,1,0,,,,,0,13,13,19,,,,,,up,0.48369521087670364,3048.8096536498215,None,001,87,2019_Nov_01_1002,ACPT_experiment_5_30_19,3.1.0,59.96313008728151,
,,,C,D,g,b,L,D,y,L,y,,,,,6,13,133,1,1,0,1,0,,,,,0,14,14,32,,,,,,down,0.5337546610012396,3050.5776348600198,None,001,87,2019_Nov_01_1002,ACPT_experiment_5_30_19,3.1.0,59.96313008728151,
,,,C,D,g,b,L,U,d,R,u,,,,,6,13,133,1,1,0,1,0,,,,,0,15,15,21,,,,,,down,1.0674827588600238,3052.3957014797784,None,001,87,2019_Nov_01_1002,ACPT_experiment_5_30_19,3.1.0,59.96313008728151,
,,,C,D,g,b,R,G,d,L,i,,,,,6,13,133,1,1,0,1,0,,,,,0,16,16,4,,,,,,up,0.5837715497268618,3054.7474798972853,None,001,87,2019_Nov_01_1002,ACPT_experiment_5_30_19,3.1.0,59.96313008728151,
,,,C,D,g,b,L,G,y,R,y,,,,,6,13,133,1,1,0,1,0,,,,,0,17,17,35,,,,,,down,0.5003669034108498,3056.615561594646,None,001,87,2019_Nov_01_1002,ACPT_experiment_5_30_19,3.1.0,59.96313008728151,
,,,C,D,g,b,L,D,g,L,i,,,,,6,13,133,1,1,0,1,0,,,,,0,18,18,14,,,,,,up,0.5837401569215217,3058.40024558833,None,001,87,2019_Nov_01_1002,ACPT_experiment_5_30_19,3.1.0,59.96313008728151,
,,,C,D,g,b,R,D,d,R,c ,,,,,6,13,133,1,1,0,1,0,,,,,0,19,19,1,,,,,,up,0.5836891436129008,3060.2850149764813,None,001,87,2019_Nov_01_1002,ACPT_experiment_5_30_19,3.1.0,59.96313008728151,
,,,C,D,g,b,R,G,d,R,i,,,,,6,13,133,1,1,0,1,0,,,,,0,20,20,5,,,,,,up,0.4836949090226881,3062.153082184855,None,001,87,2019_Nov_01_1002,ACPT_experiment_5_30_19,3.1.0,59.96313008728151,
,,,C,D,g,b,R,U,d,L,u,,,,,6,13,133,1,1,0,1,0,,,,,0,21,21,8,,,,,,up,0.6171342534439646,3063.921085732242,None,001,87,2019_Nov_01_1002,ACPT_experiment_5_30_19,3.1.0,59.96313008728151,
,,,C,D,g,b,L,G,d,R,i,,,,,6,13,133,1,1,0,1,0,,,,,0,22,22,17,,,,,,down,0.41697553866561066,3065.822527416635,None,001,87,2019_Nov_01_1002,ACPT_experiment_5_30_19,3.1.0,59.96313008728151,
,,,C,D,g,b,L,U,y,R,u,,,,,6,13,133,1,1,0,1,0,,,,,0,23,23,25,,,,,,down,0.48347002787022575,3067.5573635597752,None,001,87,2019_Nov_01_1002,ACPT_experiment_5_30_19,3.1.0,59.96313008728151,
,,,C,D,g,b,R,G,g,L,c ,,,,,6,13,133,1,1,0,1,0,,,,,0,24,24,6,,,,,,up,0.6004456570917682,3069.341862517021,None,001,87,2019_Nov_01_1002,ACPT_experiment_5_30_19,3.1.0,59.96313008728151,
,,,C,D,g,b,L,U,y,L,u,,,,,6,13,133,1,1,0,1,0,,,,,0,25,25,24,,,,,,down,0.5170573108866847,3071.226615605062,None,001,87,2019_Nov_01_1002,ACPT_experiment_5_30_19,3.1.0,59.96313008728151,
,,,C,D,g,b,L,D,y,R,y,,,,,6,13,133,1,1,0,1,0,,,,,0,26,26,33,,,,,,down,0.45033975165279116,3073.027983365436,None,001,87,2019_Nov_01_1002,ACPT_experiment_5_30_19,3.1.0,59.96313008728151,
,,,C,D,g,b,R,D,g,R,i,,,,,6,13,133,1,1,0,1,0,,,,,0,27,27,3,,,,,,up,0.5168112999613186,3074.7795476477886,None,001,87,2019_Nov_01_1002,ACPT_experiment_5_30_19,3.1.0,59.96313008728151,
,,,C,D,g,b,L,D,d,R,c ,,,,,6,13,133,1,1,0,1,0,,,,,0,28,28,13,,,,,,up,0.48371935918794406,3076.580643739656,None,001,87,2019_Nov_01_1002,ACPT_experiment_5_30_19,3.1.0,59.96313008728151,
,,,C,D,g,b,R,U,y,R,u,,,,,6,13,133,1,1,0,1,0,,,,,0,29,29,31,,,,,,down,0.6004459589462385,3078.3653552020446,None,001,87,2019_Nov_01_1002,ACPT_experiment_5_30_19,3.1.0,59.96313008728151,
,,,C,D,g,b,R,D,g,L,i,,,,,6,13,133,1,1,0,1,0,,,,,0,30,30,2,,,,,,up,0.5837993202853795,3080.266795980876,None,001,87,2019_Nov_01_1002,ACPT_experiment_5_30_19,3.1.0,59.96313008728151,
,,,C,D,g,b,R,D,d,L,c,,,,,6,13,133,1,1,0,1,0,,,,,0,31,31,0,,,,,,up,0.41699787585412196,3082.1181736873355,None,001,87,2019_Nov_01_1002,ACPT_experiment_5_30_19,3.1.0,59.96313008728151,
,,,C,D,g,b,R,U,y,L,u,,,,,6,13,133,1,1,0,1,0,,,,,0,32,32,30,,,,,,up,0.517051575662208,3083.819480503408,None,001,87,2019_Nov_01_1002,ACPT_experiment_5_30_19,3.1.0,59.96313008728151,
,,,C,D,g,b,R,G,g,R,c ,,,,,6,13,133,1,1,0,1,0,,,,,0,33,33,7,,,,,,up,0.5670917071379336,3085.620839208165,None,001,87,2019_Nov_01_1002,ACPT_experiment_5_30_19,3.1.0,59.96313008728151,
,,,C,D,g,b,R,U,g,R,u,,,,,6,13,133,1,1,0,1,0,,,,,0,34,34,11,,,,,,up,0.5636520819921316,3087.475689743699,None,001,87,2019_Nov_01_1002,ACPT_experiment_5_30_19,3.1.0,59.96313008728151,
,,,C,D,g,b,R,D,y,L,y,,,,,6,13,133,1,1,0,1,0,,,,,0,35,35,26,,,,,,down,0.5504121664025661,3089.323648049224,None,001,87,2019_Nov_01_1002,ACPT_experiment_5_30_19,3.1.0,59.96313008728151,
,,,C,D,g,b,L,U,g,L,u,,,,,6,13,133,1,1,0,1,0,,,,,1,0,36,22,,,,,,up,0.9173499884236662,3091.158371268822,None,001,87,2019_Nov_01_1002,ACPT_experiment_5_30_19,3.1.0,59.96313008728151,
,,,C,D,g,b,R,G,d,R,i,,,,,6,13,133,1,1,0,1,0,,,,,1,1,37,5,,,,,,up,0.650508125756005,3093.360016010331,None,001,87,2019_Nov_01_1002,ACPT_experiment_5_30_19,3.1.0,59.96313008728151,
,,,C,D,g,b,L,D,y,R,y,,,,,6,13,133,1,1,0,1,0,,,,,1,2,38,33,,,,,,down,0.6004522978782916,3095.294829755912,None,001,87,2019_Nov_01_1002,ACPT_experiment_5_30_19,3.1.0,59.96313008728151,
,,,C,D,g,b,R,D,g,L,i,,,,,6,13,133,1,1,0,1,0,,,,,1,3,39,2,,,,,,up,0.8506357495830343,3097.1795955218163,None,001,87,2019_Nov_01_1002,ACPT_experiment_5_30_19,3.1.0,59.96313008728151,
,,,C,D,g,b,L,D,d,R,c ,,,,,6,13,133,1,1,0,1,0,,,,,1,4,40,13,,,,,,up,0.45035876844849554,3099.314519685553,None,001,87,2019_Nov_01_1002,ACPT_experiment_5_30_19,3.1.0,59.96313008728151,
,,,C,D,g,b,R,D,g,R,i,,,,,6,13,133,1,1,0,1,0,,,,,1,5,41,3,,,,,,up,0.750563636687275,3101.0491867905116,None,001,87,2019_Nov_01_1002,ACPT_experiment_5_30_19,3.1.0,59.96313008728151,
,,,C,D,g,b,L,U,d,L,u,,,,,6,13,133,1,1,0,1,0,,,,,1,6,42,20,,,,,,up,0.7172009329701723,3103.0840608766866,None,001,87,2019_Nov_01_1002,ACPT_experiment_5_30_19,3.1.0,59.96313008728151,
,,,C,D,g,b,R,D,d,R,c ,,,,,6,13,133,1,1,0,1,0,,,,,1,7,43,1,,,,,,up,0.45033703496801536,3105.0855734665597,None,001,87,2019_Nov_01_1002,ACPT_experiment_5_30_19,3.1.0,59.96313008728151,
,,,C,D,g,b,L,D,g,R,i,,,,,6,13,133,1,1,0,1,0,,,,,1,8,44,15,,,,,,up,0.8003284774094936,3106.8371703491334,None,001,87,2019_Nov_01_1002,ACPT_experiment_5_30_19,3.1.0,59.96313008728151,
,,,C,D,g,b,R,G,y,R,y,,,,,6,13,133,1,1,0,1,0,,,,,1,9,45,29,,,,,,down,0.7505714848884963,3108.921806257492,None,001,87,2019_Nov_01_1002,ACPT_experiment_5_30_19,3.1.0,59.96313008728151,
,,,C,D,g,b,R,G,g,L,c ,,,,,6,13,133,1,1,0,1,0,,,,,1,10,46,6,,,,,,up,0.8673213273964393,3110.956674608443,None,001,87,2019_Nov_01_1002,ACPT_experiment_5_30_19,3.1.0,59.96313008728151,
,,,C,D,g,b,R,U,d,L,u,,,,,6,13,133,1,1,0,1,0,,,,,1,11,47,8,,,,,,up,0.6171318386132043,3113.1083109131355,None,001,87,2019_Nov_01_1002,ACPT_experiment_5_30_19,3.1.0,59.96313008728151,
,,,C,D,g,b,L,U,g,R,u,,,,,6,13,133,1,1,0,1,0,,,,,1,12,48,23,,,,,,up,0.5503865088212478,3115.0097719161777,None,001,87,2019_Nov_01_1002,ACPT_experiment_5_30_19,3.1.0,59.96313008728151,
,,,C,D,g,b,L,G,y,R,y,,,,,6,13,133,1,1,0,1,0,,,,,1,13,49,35,,,,,,down,0.6673141432734155,3116.8444724967335,None,001,87,2019_Nov_01_1002,ACPT_experiment_5_30_19,3.1.0,59.96313008728151,
,,,C,D,g,b,R,U,g,R,u,,,,,6,13,133,1,1,0,1,0,,,,,1,14,50,11,,,,,,up,0.5337305126899992,3118.7959503885013,None,001,87,2019_Nov_01_1002,ACPT_experiment_5_30_19,3.1.0,59.96313008728151,
,,,C,D,g,b,R,U,y,L,u,,,,,6,13,133,1,1,0,1,0,,,,,1,15,51,30,,,,,,down,0.6504767329506649,3120.613995878487,None,001,87,2019_Nov_01_1002,ACPT_experiment_5_30_19,3.1.0,59.96313008728151,
,,,C,D,g,b,L,U,y,R,u,,,,,6,13,133,1,1,0,1,0,,,,,1,16,52,25,,,,,,up,0.6004734276507406,3122.5654463015503,None,001,87,2019_Nov_01_1002,ACPT_experiment_5_30_19,3.1.0,59.96313008728151,
,,,C,D,g,b,L,G,d,L,i,,,,,6,13,133,1,1,0,1,0,,,,,1,17,53,16,,,,,,up,0.8005895810297261,3124.4502362157664,None,001,87,2019_Nov_01_1002,ACPT_experiment_5_30_19,3.1.0,59.96313008728151,
,,,C,D,g,b,R,D,d,L,c,,,,,6,13,133,1,1,0,1,0,,,,,1,18,54,0,,,,,,up,0.6505256332820863,3126.5351410759463,None,001,87,2019_Nov_01_1002,ACPT_experiment_5_30_19,3.1.0,59.96313008728151,
,,,C,D,g,b,R,G,y,L,y,,,,,6,13,133,1,1,0,1,0,,,,,1,19,55,28,,,,,,down,0.533767942572922,3128.46991859906,None,001,87,2019_Nov_01_1002,ACPT_experiment_5_30_19,3.1.0,59.96313008728151,
,,,C,D,g,b,L,G,y,L,y,,,,,6,13,133,1,1,0,1,0,,,,,1,20,56,34,,,,,,down,0.6004803702899153,3130.2879797854484,None,001,87,2019_Nov_01_1002,ACPT_experiment_5_30_19,3.1.0,59.96313008728151,
,,,C,D,g,b,L,D,g,L,i,,,,,6,13,133,1,1,0,1,0,,,,,1,21,57,14,,,,,,up,0.5668481110437824,3132.1896614436887,None,001,87,2019_Nov_01_1002,ACPT_experiment_5_30_19,3.1.0,59.96313008728151,
,,,C,D,g,b,R,U,y,R,u,,,,,6,13,133,1,1,0,1,0,,,,,1,22,58,31,,,,,,down,0.5670971405079399,3134.040817589389,None,001,87,2019_Nov_01_1002,ACPT_experiment_5_30_19,3.1.0,59.96313008728151,
,,,C,D,g,b,R,U,g,L,u,,,,,6,13,133,1,1,0,1,0,,,,,1,23,59,10,,,,,,up,0.48371664250316826,3135.875516056967,None,001,87,2019_Nov_01_1002,ACPT_experiment_5_30_19,3.1.0,59.96313008728151,
,,,C,D,g,b,R,D,y,L,y,,,,,6,13,133,1,1,0,1,0,,,,,1,24,60,26,,,,,,down,0.6004459589457838,3137.643546469351,None,001,87,2019_Nov_01_1002,ACPT_experiment_5_30_19,3.1.0,59.96313008728151,
,,,C,D,g,b,L,G,g,L,c ,,,,,6,13,133,1,1,0,1,0,,,,,1,25,61,18,,,,,,up,0.8172757625511622,3139.528307707447,None,001,87,2019_Nov_01_1002,ACPT_experiment_5_30_19,3.1.0,59.96313008728151,
,,,C,D,g,b,L,U,y,L,u,,,,,6,13,133,1,1,0,1,0,,,,,1,26,62,24,,,,,,down,0.6004492793390455,3141.6298969380246,None,001,87,2019_Nov_01_1002,ACPT_experiment_5_30_19,3.1.0,59.96313008728151,
,,,C,D,g,b,L,D,y,L,y,,,,,6,13,133,1,1,0,1,0,,,,,1,27,63,32,,,,,,down,0.6004498830466218,3143.5146575724125,None,001,87,2019_Nov_01_1002,ACPT_experiment_5_30_19,3.1.0,59.96313008728151,
,,,C,D,g,b,R,G,d,L,i,,,,,6,13,133,1,1,0,1,0,,,,,1,28,64,4,,,,,,down,0.7668721989848564,3145.4163549270556,None,001,87,2019_Nov_01_1002,ACPT_experiment_5_30_19,3.1.0,59.96313008728151,
,,,C,D,g,b,R,U,d,R,u,,,,,6,13,133,1,1,0,1,0,,,,,1,29,65,9,,,,,,up,0.7505548829244617,3147.4676507707386,None,001,87,2019_Nov_01_1002,ACPT_experiment_5_30_19,3.1.0,59.96313008728151,
,,,C,D,g,b,L,G,g,R,c ,,,,,6,13,133,1,1,0,1,0,,,,,1,30,66,19,,,,,,up,0.8506674442419353,3149.502495577086,None,001,87,2019_Nov_01_1002,ACPT_experiment_5_30_19,3.1.0,59.96313008728151,
,,,C,D,g,b,L,G,d,R,i,,,,,6,13,133,1,1,0,1,0,,,,,1,31,67,17,,,,,,up,0.9673922328765912,3151.637470754131,None,001,87,2019_Nov_01_1002,ACPT_experiment_5_30_19,3.1.0,59.96313008728151,
,,,C,D,g,b,R,D,y,R,y,,,,,6,13,133,1,1,0,1,0,,,,,1,32,68,27,,,,,,down,0.6505011831163756,3153.905856901331,None,001,87,2019_Nov_01_1002,ACPT_experiment_5_30_19,3.1.0,59.96313008728151,
,,,C,D,g,b,R,G,g,R,c ,,,,,6,13,133,1,1,0,1,0,,,,,1,33,69,7,,,,,,up,0.800600145916178,3155.8406498189934,None,001,87,2019_Nov_01_1002,ACPT_experiment_5_30_19,3.1.0,59.96313008728151,
,,,C,D,g,b,L,U,d,R,u,,,,,6,13,133,1,1,0,1,0,,,,,1,34,70,21,,,,,,up,0.8840159608266731,3157.925540793894,None,001,87,2019_Nov_01_1002,ACPT_experiment_5_30_19,3.1.0,59.96313008728151,
,,,C,D,g,b,L,D,d,L,c ,,,,,6,13,133,1,1,0,1,0,,,,,1,35,71,12,,,,,,up,0.9841001478780527,3160.093846678143,None,001,87,2019_Nov_01_1002,ACPT_experiment_5_30_19,3.1.0,59.96313008728151,
,,,C,D,g,b,,,,,,,,,,6,13,133,1,2,0,2,0,0,0,0,0,,,,,,,,,,,,,,001,87,2019_Nov_01_1002,ACPT_experiment_5_30_19,3.1.0,59.96313008728151,
,,,C,D,g,b,R,U,g,R,u,,,,,6,13,133,1,2,0,2,0,,,,,0,0,0,11,,,,,,up,0.4667470201738979,3168.216957789657,None,001,87,2019_Nov_01_1002,ACPT_experiment_5_30_19,3.1.0,59.96313008728151,
,,,C,D,g,b,R,G,y,R,y,,,,,6,13,133,1,2,0,2,0,,,,,0,1,1,29,,,,,,down,0.5336176193327447,3169.9680101278022,None,001,87,2019_Nov_01_1002,ACPT_experiment_5_30_19,3.1.0,59.96313008728151,
,,,C,D,g,b,L,D,y,R,y,,,,,6,13,133,1,2,0,2,0,,,,,0,2,2,33,,,,,,down,0.5669024447447555,3171.8028875947407,None,001,87,2019_Nov_01_1002,ACPT_experiment_5_30_19,3.1.0,59.96313008728151,
,,,C,D,g,b,L,G,g,R,c ,,,,,6,13,133,1,2,0,2,0,,,,,0,3,3,19,,,,,,up,0.5170669702110899,3173.6707896890334,None,001,87,2019_Nov_01_1002,ACPT_experiment_5_30_19,3.1.0,59.96313008728151,
,,,C,D,g,b,L,G,d,L,i,,,,,6,13,133,1,2,0,2,0,,,,,0,4,4,16,,,,,,up,1.0505188717547753,3175.4724469272937,None,001,87,2019_Nov_01_1002,ACPT_experiment_5_30_19,3.1.0,59.96313008728151,
,,,C,D,g,b,L,D,g,R,i,,,,,6,13,133,1,2,0,2,0,,,,,0,5,5,15,,,,,,up,0.6671964202541858,3177.807272928143,None,001,87,2019_Nov_01_1002,ACPT_experiment_5_30_19,3.1.0,59.96313008728151,
,,,C,D,g,b,L,D,g,L,i,,,,,6,13,133,1,2,0,2,0,,,,,0,6,6,14,,,,,,up,1.017589328378108,3179.7419197485196,None,001,87,2019_Nov_01_1002,ACPT_experiment_5_30_19,3.1.0,59.96313008728151,
,,,C,D,g,b,L,U,d,R,u,,,,,6,13,133,1,2,0,2,0,,,,,0,7,7,21,,,,,,up,1.6510689702950003,3182.0439641144017,None,001,87,2019_Nov_01_1002,ACPT_experiment_5_30_19,3.1.0,59.96313008728151,
,,,C,D,g,b,R,G,g,L,c ,,,,,6,13,133,1,2,0,2,0,,,,,0,8,8,6,,,,,,up,1.9347868805843973,3184.9793752288433,None,001,87,2019_Nov_01_1002,ACPT_experiment_5_30_19,3.1.0,59.96313008728151,
,,,C,D,g,b,L,D,d,R,c ,,,,,6,13,133,1,2,0,2,0,,,,,0,9,9,13,,,,,,up,1.5011324048914503,3188.198473464477,None,001,87,2019_Nov_01_1002,ACPT_experiment_5_30_19,3.1.0,59.96313008728151,
,,,C,D,g,b,R,D,y,R,y,,,,,6,13,133,1,2,0,2,0,,,,,0,10,10,27,,,,,,down,0.6171294237819893,3190.983914809586,None,001,87,2019_Nov_01_1002,ACPT_experiment_5_30_19,3.1.0,59.96313008728151,
,,,C,D,g,b,R,U,y,L,u,,,,,6,13,133,1,2,0,2,0,,,,,0,11,11,30,,,,,,down,0.5837627959640486,3192.9020330161757,None,001,87,2019_Nov_01_1002,ACPT_experiment_5_30_19,3.1.0,59.96313008728151,
,,,C,D,g,b,R,U,y,R,u,,,,,6,13,133,1,2,0,2,0,,,,,0,12,12,31,,,,,,down,0.4336505515925637,3194.786790632025,None,001,87,2019_Nov_01_1002,ACPT_experiment_5_30_19,3.1.0,59.96313008728151,
,,,C,D,g,b,L,U,g,L,u,,,,,6,13,133,1,2,0,2,0,,,,,0,13,13,22,,,,,,up,0.5671119313487907,3196.5047543497903,None,001,87,2019_Nov_01_1002,ACPT_experiment_5_30_19,3.1.0,59.96313008728151,
,,,C,D,g,b,R,G,d,R,i,,,,,6,13,133,1,2,0,2,0,,,,,0,14,14,5,,,,,,up,0.7172081774633625,3198.3561540915844,None,001,87,2019_Nov_01_1002,ACPT_experiment_5_30_19,3.1.0,59.96313008728151,
,,,C,D,g,b,L,G,g,L,c ,,,,,6,13,133,1,2,0,2,0,,,,,0,15,15,18,,,,,,up,0.633540012695903,3200.374624229631,None,001,87,2019_Nov_01_1002,ACPT_experiment_5_30_19,3.1.0,59.96313008728151,
,,,C,D,g,b,L,G,y,R,y,,,,,6,13,133,1,2,0,2,0,,,,,0,16,16,35,,,,,,down,0.550420316457803,3202.2924668436135,None,001,87,2019_Nov_01_1002,ACPT_experiment_5_30_19,3.1.0,59.96313008728151,
,,,C,D,g,b,R,U,g,L,u,,,,,6,13,133,1,2,0,2,0,,,,,0,17,17,10,,,,,,down,0.8839688716188903,3204.1272241727015,None,001,87,2019_Nov_01_1002,ACPT_experiment_5_30_19,3.1.0,59.96313008728151,
,,,C,D,g,b,L,G,d,R,i,,,,,6,13,133,1,2,0,2,0,,,,,0,18,18,17,,,,,,up,1.000756445863317,3206.295497154876,None,001,87,2019_Nov_01_1002,ACPT_experiment_5_30_19,3.1.0,59.96313008728151,
,,,C,D,g,b,R,D,d,L,c,,,,,6,13,133,1,2,0,2,0,,,,,0,19,19,0,,,,,,up,0.6171318386132043,3208.5805610316884,None,001,87,2019_Nov_01_1002,ACPT_experiment_5_30_19,3.1.0,59.96313008728151,
,,,C,D,g,b,L,U,y,R,u,,,,,6,13,133,1,2,0,2,0,,,,,0,20,20,25,,,,,,down,0.5837664182104163,3210.4820033197893,None,001,87,2019_Nov_01_1002,ACPT_experiment_5_30_19,3.1.0,59.96313008728151,
,,,C,D,g,b,R,U,d,L,u,,,,,6,13,133,1,2,0,2,0,,,,,0,21,21,8,,,,,,up,0.7839269441128636,3212.35007958378,None,001,87,2019_Nov_01_1002,ACPT_experiment_5_30_19,3.1.0,59.96313008728151,
,,,C,D,g,b,L,G,y,L,y,,,,,6,13,133,1,2,0,2,0,,,,,0,22,22,34,,,,,,down,0.7839184922036111,3214.4183154681104,None,001,87,2019_Nov_01_1002,ACPT_experiment_5_30_19,3.1.0,59.96313008728151,
,,,C,D,g,b,L,U,d,L,u,,,,,6,13,133,1,2,0,2,0,,,,,0,23,23,20,,,,,,up,0.8673506072241253,3216.486524185591,None,001,87,2019_Nov_01_1002,ACPT_experiment_5_30_19,3.1.0,59.96313008728151,
,,,C,D,g,b,L,D,d,L,c ,,,,,6,13,133,1,2,0,2,0,,,,,0,24,24,12,,,,,,up,0.5170503682466006,3218.6381731681467,None,001,87,2019_Nov_01_1002,ACPT_experiment_5_30_19,3.1.0,59.96313008728151,
,,,C,D,g,b,R,D,d,R,c ,,,,,6,13,133,1,2,0,2,0,,,,,0,25,25,1,,,,,,up,0.6004707109655101,3220.4395140635243,None,001,87,2019_Nov_01_1002,ACPT_experiment_5_30_19,3.1.0,59.96313008728151,
,,,C,D,g,b,L,D,y,L,y,,,,,6,13,133,1,2,0,2,0,,,,,0,26,26,32,,,,,,down,0.5838020369706101,3222.3242976388083,None,001,87,2019_Nov_01_1002,ACPT_experiment_5_30_19,3.1.0,59.96313008728151,
,,,C,D,g,b,R,G,d,L,i,,,,,6,13,133,1,2,0,2,0,,,,,0,27,27,4,,,,,,up,0.4003011294466887,3224.192374506507,None,001,87,2019_Nov_01_1002,ACPT_experiment_5_30_19,3.1.0,59.96313008728151,
,,,C,D,g,b,R,D,g,R,i,,,,,6,13,133,1,2,0,2,0,,,,,0,28,28,3,,,,,,down,1.0505170606311367,3225.8939403132217,None,001,87,2019_Nov_01_1002,ACPT_experiment_5_30_19,3.1.0,59.96313008728151,
,,,C,D,g,b,R,G,g,R,c ,,,,,6,13,133,1,2,0,2,0,,,,,0,29,29,7,,,,,,up,0.5003744497580556,3228.228763597386,None,001,87,2019_Nov_01_1002,ACPT_experiment_5_30_19,3.1.0,59.96313008728151,
,,,C,D,g,b,R,G,y,L,y,,,,,6,13,133,1,2,0,2,0,,,,,0,30,30,28,,,,,,down,0.5003738460500244,3230.0134472892164,None,001,87,2019_Nov_01_1002,ACPT_experiment_5_30_19,3.1.0,59.96313008728151,
,,,C,D,g,b,R,D,y,L,y,,,,,6,13,133,1,2,0,2,0,,,,,0,31,31,26,,,,,,down,0.7005229015039731,3231.7814535532884,None,001,87,2019_Nov_01_1002,ACPT_experiment_5_30_19,3.1.0,59.96313008728151,
,,,C,D,g,b,R,U,d,R,u,,,,,6,13,133,1,2,0,2,0,,,,,0,32,32,9,,,,,,up,0.9340370755066942,3233.766284791303,None,001,87,2019_Nov_01_1002,ACPT_experiment_5_30_19,3.1.0,59.96313008728151,
,,,C,D,g,b,L,U,y,L,u,,,,,6,13,133,1,2,0,2,0,,,,,0,33,33,24,,,,,,down,0.5670859719134569,3235.9846338255666,None,001,87,2019_Nov_01_1002,ACPT_experiment_5_30_19,3.1.0,59.96313008728151,
,,,C,D,g,b,L,U,g,R,u,,,,,6,13,133,1,2,0,2,0,,,,,0,34,34,23,,,,,,up,0.8506448052003179,3237.819352215502,None,001,87,2019_Nov_01_1002,ACPT_experiment_5_30_19,3.1.0,59.96313008728151,
,,,C,D,g,b,R,D,g,L,i,,,,,6,13,133,1,2,0,2,0,,,,,0,35,35,2,,,,,,up,0.6505102387336592,3239.9376019700194,None,001,87,2019_Nov_01_1002,ACPT_experiment_5_30_19,3.1.0,59.96313008728151,
,,,C,D,g,b,R,U,y,R,u,,,,,6,13,133,1,2,0,2,0,,,,,1,0,36,31,,,,,,down,0.800602560747393,3241.889098878583,None,001,87,2019_Nov_01_1002,ACPT_experiment_5_30_19,3.1.0,59.96313008728151,
,,,C,D,g,b,L,U,y,R,u,,,,,6,13,133,1,2,0,2,0,,,,,1,1,37,25,,,,,,down,0.6171336497368429,3243.9906896184298,None,001,87,2019_Nov_01_1002,ACPT_experiment_5_30_19,3.1.0,59.96313008728151,
,,,C,D,g,b,L,G,g,L,c ,,,,,6,13,133,1,2,0,2,0,,,,,1,2,38,18,,,,,,up,0.5003714312188094,3245.892130699115,None,001,87,2019_Nov_01_1002,ACPT_experiment_5_30_19,3.1.0,59.96313008728151,
,,,C,D,g,b,L,U,g,L,u,,,,,6,13,133,1,2,0,2,0,,,,,1,3,39,22,,,,,,up,0.3502631109486174,3247.676816805776,None,001,87,2019_Nov_01_1002,ACPT_experiment_5_30_19,3.1.0,59.96313008728151,
,,,C,D,g,b,L,D,g,R,i,,,,,6,13,133,1,2,0,2,0,,,,,1,4,40,15,,,,,,up,0.4837012479542864,3249.311383725427,None,001,87,2019_Nov_01_1002,ACPT_experiment_5_30_19,3.1.0,59.96313008728151,
,,,C,D,g,b,R,D,g,L,i,,,,,6,13,133,1,2,0,2,0,,,,,1,5,41,2,,,,,,up,0.5167817182791623,3251.07965894132,None,001,87,2019_Nov_01_1002,ACPT_experiment_5_30_19,3.1.0,59.96313008728151,
,,,C,D,g,b,L,D,g,L,i,,,,,6,13,133,1,2,0,2,0,,,,,1,6,42,14,,,,,,up,0.5337564721248782,3252.864049834871,None,001,87,2019_Nov_01_1002,ACPT_experiment_5_30_19,3.1.0,59.96313008728151,
,,,C,D,g,b,L,D,y,R,y,,,,,6,13,133,1,2,0,2,0,,,,,1,7,43,33,,,,,,down,0.7338816811206925,3254.682117360191,None,001,87,2019_Nov_01_1002,ACPT_experiment_5_30_19,3.1.0,59.96313008728151,
,,,C,D,g,b,L,G,d,R,i,,,,,6,13,133,1,2,0,2,0,,,,,1,8,44,17,,,,,,up,0.6838699239119705,3256.700285946196,None,001,87,2019_Nov_01_1002,ACPT_experiment_5_30_19,3.1.0,59.96313008728151,
,,,C,D,g,b,R,U,d,L,u,,,,,6,13,133,1,2,0,2,0,,,,,1,9,45,8,,,,,,up,0.5337265885891611,3258.6684684325724,None,001,87,2019_Nov_01_1002,ACPT_experiment_5_30_19,3.1.0,59.96313008728151,
,,,C,D,g,b,L,G,y,R,y,,,,,6,13,133,1,2,0,2,0,,,,,1,10,46,35,,,,,,down,0.8506417866610718,3260.486506678065,None,001,87,2019_Nov_01_1002,ACPT_experiment_5_30_19,3.1.0,59.96313008728151,
,,,C,D,g,b,R,G,d,L,i,,,,,6,13,133,1,2,0,2,0,,,,,1,11,47,4,,,,,,down,1.0507790698134158,3262.6214673661225,None,001,87,2019_Nov_01_1002,ACPT_experiment_5_30_19,3.1.0,59.96313008728151,
,,,C,D,g,b,L,D,y,L,y,,,,,6,13,133,1,2,0,2,0,,,,,1,12,48,32,,,,,,down,0.6671632163261165,3264.956558696547,None,001,87,2019_Nov_01_1002,ACPT_experiment_5_30_19,3.1.0,59.96313008728151,
,,,C,D,g,b,L,G,g,R,c ,,,,,6,13,133,1,2,0,2,0,,,,,1,13,49,19,,,,,,up,0.9840992423164607,3266.9080076103405,None,001,87,2019_Nov_01_1002,ACPT_experiment_5_30_19,3.1.0,59.96313008728151,
,,,C,D,g,b,R,D,y,R,y,,,,,6,13,133,1,2,0,2,0,,,,,1,14,50,27,,,,,,down,0.5837549477628272,3269.176414283606,None,001,87,2019_Nov_01_1002,ACPT_experiment_5_30_19,3.1.0,59.96313008728151,
,,,C,D,g,b,R,G,g,L,c ,,,,,6,13,133,1,2,0,2,0,,,,,1,15,51,6,,,,,,up,1.1175307385369706,3271.044475756755,None,001,87,2019_Nov_01_1002,ACPT_experiment_5_30_19,3.1.0,59.96313008728151,
,,,C,D,g,b,R,D,d,R,c ,,,,,6,13,133,1,2,0,2,0,,,,,1,16,52,1,,,,,,down,1.067473401389634,3273.446313926241,None,001,87,2019_Nov_01_1002,ACPT_experiment_5_30_19,3.1.0,59.96313008728151,
,,,C,D,g,b,R,D,d,L,c,,,,,6,13,133,1,2,0,2,0,,,,,1,17,53,0,,,,,,up,2.084947723433288,3275.781414614136,None,001,87,2019_Nov_01_1002,ACPT_experiment_5_30_19,3.1.0,59.96313008728151,
,,,C,D,g,b,R,G,g,R,c ,,,,,6,13,133,1,2,0,2,0,,,,,1,18,54,7,,,,,,up,0.6839082593564854,3279.150612416277,None,001,87,2019_Nov_01_1002,ACPT_experiment_5_30_19,3.1.0,59.96313008728151,
,,,C,D,g,b,L,G,d,L,i,,,,,6,13,133,1,2,0,2,0,,,,,1,19,55,16,,,,,,up,2.0182325790306095,3281.118784941475,None,001,87,2019_Nov_01_1002,ACPT_experiment_5_30_19,3.1.0,59.96313008728151,
,,,C,D,g,b,L,D,d,L,c ,,,,,6,13,133,1,2,0,2,0,,,,,1,20,56,12,,,,,,up,0.600461957202242,3284.421270315899,None,001,87,2019_Nov_01_1002,ACPT_experiment_5_30_19,3.1.0,59.96313008728151,
,,,C,D,g,b,R,G,y,R,y,,,,,6,13,133,1,2,0,2,0,,,,,1,21,57,29,,,,,,down,0.5003711293652486,3286.3227283004026,None,001,87,2019_Nov_01_1002,ACPT_experiment_5_30_19,3.1.0,59.96313008728151,
,,,C,D,g,b,L,G,y,L,y,,,,,6,13,133,1,2,0,2,0,,,,,1,22,58,34,,,,,,down,0.5837655126492791,3288.1240900236985,None,001,87,2019_Nov_01_1002,ACPT_experiment_5_30_19,3.1.0,59.96313008728151,
,,,C,D,g,b,R,D,g,R,i,,,,,6,13,133,1,2,0,2,0,,,,,1,23,59,3,,,,,,up,0.5836188116554695,3290.0090936504735,None,001,87,2019_Nov_01_1002,ACPT_experiment_5_30_19,3.1.0,59.96313008728151,
,,,C,D,g,b,L,U,d,L,u,,,,,6,13,133,1,2,0,2,0,,,,,1,24,60,20,,,,,,up,0.900681314429221,3291.876925714662,None,001,87,2019_Nov_01_1002,ACPT_experiment_5_30_19,3.1.0,59.96313008728151,
,,,C,D,g,b,L,U,y,L,u,,,,,6,13,133,1,2,0,2,0,,,,,1,25,61,24,,,,,,down,0.6171541758012609,3294.0452128839697,None,001,87,2019_Nov_01_1002,ACPT_experiment_5_30_19,3.1.0,59.96313008728151,
,,,C,D,g,b,R,U,y,L,u,,,,,6,13,133,1,2,0,2,0,,,,,1,26,62,30,,,,,,down,0.6504866941290857,3295.946670868473,None,001,87,2019_Nov_01_1002,ACPT_experiment_5_30_19,3.1.0,59.96313008728151,
,,,C,D,g,b,L,U,d,R,u,,,,,6,13,133,1,2,0,2,0,,,,,1,27,63,21,,,,,,up,0.4002947905150904,3297.8814731436064,None,001,87,2019_Nov_01_1002,ACPT_experiment_5_30_19,3.1.0,59.96313008728151,
,,,C,D,g,b,L,D,d,R,c ,,,,,6,13,133,1,2,0,2,0,,,,,1,28,64,13,,,,,,down,0.46701506643330504,3299.566082911417,None,001,87,2019_Nov_01_1002,ACPT_experiment_5_30_19,3.1.0,59.96313008728151,
,,,C,D,g,b,R,D,y,L,y,,,,,6,13,133,1,2,0,2,0,,,,,1,29,65,26,,,,,,down,0.6171417997916251,3301.3173999754295,None,001,87,2019_Nov_01_1002,ACPT_experiment_5_30_19,3.1.0,59.96313008728151,
,,,C,D,g,b,R,G,d,R,i,,,,,6,13,133,1,2,0,2,0,,,,,1,30,66,5,,,,,,down,0.5835019941978317,3303.235793472772,None,001,87,2019_Nov_01_1002,ACPT_experiment_5_30_19,3.1.0,59.96313008728151,
,,,C,D,g,b,R,U,g,L,u,,,,,6,13,133,1,2,0,2,0,,,,,1,31,67,10,,,,,,up,0.6171230848499363,3305.103612557243,None,001,87,2019_Nov_01_1002,ACPT_experiment_5_30_19,3.1.0,59.96313008728151,
,,,C,D,g,b,L,U,g,R,u,,,,,6,13,133,1,2,0,2,0,,,,,1,32,68,23,,,,,,up,0.6838774702591763,3306.9883644378683,None,001,87,2019_Nov_01_1002,ACPT_experiment_5_30_19,3.1.0,59.96313008728151,
,,,C,D,g,b,R,U,d,R,u,,,,,6,13,133,1,2,0,2,0,,,,,1,33,69,9,,,,,,up,1.2009254236750166,3308.9565218703715,None,001,87,2019_Nov_01_1002,ACPT_experiment_5_30_19,3.1.0,59.96313008728151,
,,,C,D,g,b,R,G,y,L,y,,,,,6,13,133,1,2,0,2,0,,,,,1,34,70,28,,,,,,down,0.617162024002937,3311.4417052209556,None,001,87,2019_Nov_01_1002,ACPT_experiment_5_30_19,3.1.0,59.96313008728151,
,,,C,D,g,b,R,U,g,R,u,,,,,6,13,133,1,2,0,2,0,,,,,1,35,71,11,,,,,,up,0.8839984533005918,3313.343175279615,None,001,87,2019_Nov_01_1002,ACPT_experiment_5_30_19,3.1.0,59.96313008728151,
,,,C,D,g,b,,,,,,,,,,6,13,133,1,3,0,3,0,0,0,0,0,,,,,,,,,,,,,,001,87,2019_Nov_01_1002,ACPT_experiment_5_30_19,3.1.0,59.96313008728151,
,,,C,D,g,b,L,U,d,R,u,,,,,6,13,133,1,3,0,3,0,,,,,0,0,0,21,,,,,,up,0.48036666796451755,3319.868103732695,None,001,87,2019_Nov_01_1002,ACPT_experiment_5_30_19,3.1.0,59.96313008728151,
,,,C,D,g,b,R,U,g,R,u,,,,,6,13,133,1,3,0,3,0,,,,,0,1,1,11,,,,,,up,0.5670748033194286,3321.6327775297545,None,001,87,2019_Nov_01_1002,ACPT_experiment_5_30_19,3.1.0,59.96313008728151,
,,,C,D,g,b,L,G,g,R,c ,,,,,6,13,133,1,3,0,3,0,,,,,0,2,2,19,,,,,,up,0.46704796850826824,3323.467475695479,None,001,87,2019_Nov_01_1002,ACPT_experiment_5_30_19,3.1.0,59.96313008728151,
,,,C,D,g,b,R,U,d,R,u,,,,,6,13,133,1,3,0,3,0,,,,,0,3,3,9,,,,,,up,0.617126405243198,3325.218828076397,None,001,87,2019_Nov_01_1002,ACPT_experiment_5_30_19,3.1.0,59.96313008728151,
,,,C,D,g,b,L,D,g,L,i,,,,,6,13,133,1,3,0,3,0,,,,,0,4,4,14,,,,,,up,0.5971146993488219,3327.140278448145,None,001,87,2019_Nov_01_1002,ACPT_experiment_5_30_19,3.1.0,59.96313008728151,
,,,C,D,g,b,R,U,d,L,u,,,,,6,13,133,1,3,0,3,0,,,,,0,5,5,8,,,,,,up,1.1842247531662906,3329.0217042006893,None,001,87,2019_Nov_01_1002,ACPT_experiment_5_30_19,3.1.0,59.96313008728151,
,,,C,D,g,b,L,G,d,R,i,,,,,6,13,133,1,3,0,3,0,,,,,0,6,6,17,,,,,,up,0.5170600275710058,3331.4735541273844,None,001,87,2019_Nov_01_1002,ACPT_experiment_5_30_19,3.1.0,59.96313008728151,
,,,C,D,g,b,L,D,y,R,y,,,,,6,13,133,1,3,0,3,0,,,,,0,7,7,33,,,,,,down,0.7672422718610505,3333.2749233970276,None,001,87,2019_Nov_01_1002,ACPT_experiment_5_30_19,3.1.0,59.96313008728151,
,,,C,D,g,b,R,D,y,R,y,,,,,6,13,133,1,3,0,3,0,,,,,0,8,8,27,,,,,,down,0.4836961164382956,3335.326474005399,None,001,87,2019_Nov_01_1002,ACPT_experiment_5_30_19,3.1.0,59.96313008728151,
,,,C,D,g,b,L,U,g,R,u,,,,,6,13,133,1,3,0,3,0,,,,,0,9,9,23,,,,,,down,0.38359864781523356,3337.0945020029517,None,001,87,2019_Nov_01_1002,ACPT_experiment_5_30_19,3.1.0,59.96313008728151,
,,,C,D,g,b,R,G,y,L,y,,,,,6,13,133,1,3,0,3,0,,,,,0,10,10,28,,,,,,down,0.517064555379875,3338.7624083835694,None,001,87,2019_Nov_01_1002,ACPT_experiment_5_30_19,3.1.0,59.96313008728151,
,,,C,D,g,b,R,G,y,R,y,,,,,6,13,133,1,3,0,3,0,,,,,0,11,11,29,,,,,,down,0.5170576127402455,3340.5637707105734,None,001,87,2019_Nov_01_1002,ACPT_experiment_5_30_19,3.1.0,59.96313008728151,
,,,C,D,g,b,L,U,g,L,u,,,,,6,13,133,1,3,0,3,0,,,,,0,12,12,22,,,,,,up,0.633803833001366,3342.3651342449925,None,001,87,2019_Nov_01_1002,ACPT_experiment_5_30_19,3.1.0,59.96313008728151,
,,,C,D,g,b,R,G,d,R,i,,,,,6,13,133,1,3,0,3,0,,,,,0,13,13,5,,,,,,down,0.6671858553677339,3344.283252753436,None,001,87,2019_Nov_01_1002,ACPT_experiment_5_30_19,3.1.0,59.96313008728151,
,,,C,D,g,b,R,U,y,L,u,,,,,6,13,133,1,3,0,3,0,,,,,0,14,14,30,,,,,,down,0.5504142793797655,3346.234727324811,None,001,87,2019_Nov_01_1002,ACPT_experiment_5_30_19,3.1.0,59.96313008728151,
,,,C,D,g,b,L,U,y,R,u,,,,,6,13,133,1,3,0,3,0,,,,,0,15,15,25,,,,,,down,0.6004541090010207,3348.0694487332853,None,001,87,2019_Nov_01_1002,ACPT_experiment_5_30_19,3.1.0,59.96313008728151,
,,,C,D,g,b,R,D,g,R,i,,,,,6,13,133,1,3,0,3,0,,,,,0,16,16,3,,,,,,up,0.7005458424000608,3349.954188841609,None,001,87,2019_Nov_01_1002,ACPT_experiment_5_30_19,3.1.0,59.96313008728151,
,,,C,D,g,b,L,D,y,L,y,,,,,6,13,133,1,3,0,3,0,,,,,0,17,17,32,,,,,,down,0.6004535052934443,3351.9390454353506,None,001,87,2019_Nov_01_1002,ACPT_experiment_5_30_19,3.1.0,59.96313008728151,
,,,C,D,g,b,L,G,y,L,y,,,,,6,13,133,1,3,0,3,0,,,,,0,18,18,34,,,,,,down,0.4136488068770632,3353.8438126441165,None,001,87,2019_Nov_01_1002,ACPT_experiment_5_30_19,3.1.0,59.96313008728151,
,,,C,D,g,b,R,G,g,R,c ,,,,,6,13,133,1,3,0,3,0,,,,,0,19,19,7,,,,,,up,0.5837751719736843,3355.541772806043,None,001,87,2019_Nov_01_1002,ACPT_experiment_5_30_19,3.1.0,59.96313008728151,
,,,C,D,g,b,L,U,y,L,u,,,,,6,13,133,1,3,0,3,0,,,,,0,20,20,24,,,,,,down,0.5503472678146863,3357.4265883778403,None,001,87,2019_Nov_01_1002,ACPT_experiment_5_30_19,3.1.0,59.96313008728151,
,,,C,D,g,b,R,U,y,R,u,,,,,6,13,133,1,3,0,3,0,,,,,0,21,21,31,,,,,,down,0.45033280901316175,3359.277937106326,None,001,87,2019_Nov_01_1002,ACPT_experiment_5_30_19,3.1.0,59.96313008728151,
,,,C,D,g,b,L,D,d,R,c ,,,,,6,13,133,1,3,0,3,0,,,,,0,22,22,13,,,,,,up,0.5837564570319955,3361.029269263033,None,001,87,2019_Nov_01_1002,ACPT_experiment_5_30_19,3.1.0,59.96313008728151,
,,,C,D,g,b,R,G,d,L,i,,,,,6,13,133,1,3,0,3,0,,,,,0,23,23,4,,,,,,down,0.3836170609029068,3362.897335867699,None,001,87,2019_Nov_01_1002,ACPT_experiment_5_30_19,3.1.0,59.96313008728151,
,,,C,D,g,b,L,D,g,R,i,,,,,6,13,133,1,3,0,3,0,,,,,0,24,24,15,,,,,,up,0.550408242301728,3364.565267604044,None,001,87,2019_Nov_01_1002,ACPT_experiment_5_30_19,3.1.0,59.96313008728151,
,,,C,D,g,b,R,U,g,L,u,,,,,6,13,133,1,3,0,3,0,,,,,0,25,25,10,,,,,,up,0.5337564721248782,3366.383287134595,None,001,87,2019_Nov_01_1002,ACPT_experiment_5_30_19,3.1.0,59.96313008728151,
,,,C,D,g,b,R,D,d,R,c ,,,,,6,13,133,1,3,0,3,0,,,,,0,26,26,1,,,,,,up,0.5670781237122355,3368.2180429544132,None,001,87,2019_Nov_01_1002,ACPT_experiment_5_30_19,3.1.0,59.96313008728151,
,,,C,D,g,b,L,D,d,L,c ,,,,,6,13,133,1,3,0,3,0,,,,,0,27,27,12,,,,,,up,0.5003759590272239,3370.0694309239057,None,001,87,2019_Nov_01_1002,ACPT_experiment_5_30_19,3.1.0,59.96313008728151,
,,,C,D,g,b,L,U,d,L,u,,,,,6,13,133,1,3,0,3,0,,,,,0,28,28,20,,,,,,up,0.43365447569340176,3371.8541131064662,None,001,87,2019_Nov_01_1002,ACPT_experiment_5_30_19,3.1.0,59.96313008728151,
,,,C,D,g,b,R,D,d,L,c,,,,,6,13,133,1,3,0,3,0,,,,,0,29,29,0,,,,,,up,0.4003038461314645,3373.572073201985,None,001,87,2019_Nov_01_1002,ACPT_experiment_5_30_19,3.1.0,59.96313008728151,
,,,C,D,g,b,L,G,g,L,c ,,,,,6,13,133,1,3,0,3,0,,,,,0,30,30,18,,,,,,up,0.36683971950515115,3375.273354964184,None,001,87,2019_Nov_01_1002,ACPT_experiment_5_30_19,3.1.0,59.96313008728151,
,,,C,D,g,b,L,G,d,L,i,,,,,6,13,133,1,3,0,3,0,,,,,0,31,31,16,,,,,,up,0.26685906833972695,3376.9246198376572,None,001,87,2019_Nov_01_1002,ACPT_experiment_5_30_19,3.1.0,59.96313008728151,
,,,C,D,g,b,R,D,g,L,i,,,,,6,13,133,1,3,0,3,0,,,,,0,32,32,2,,,,,,up,0.36693842572913127,3378.47579750554,None,001,87,2019_Nov_01_1002,ACPT_experiment_5_30_19,3.1.0,59.96313008728151,
,,,C,D,g,b,L,G,y,R,y,,,,,6,13,133,1,3,0,3,0,,,,,0,33,33,35,,,,,,down,0.3669354071903399,3380.127043362218,None,001,87,2019_Nov_01_1002,ACPT_experiment_5_30_19,3.1.0,59.96313008728151,
,,,C,D,g,b,R,D,y,L,y,,,,,6,13,133,1,3,0,3,0,,,,,0,34,34,26,,,,,,down,0.36671112974545395,3381.8118399775904,None,001,87,2019_Nov_01_1002,ACPT_experiment_5_30_19,3.1.0,59.96313008728151,
,,,C,D,g,b,R,G,g,L,c ,,,,,6,13,133,1,3,0,3,0,,,,,0,35,35,6,,,,,,up,0.5003617718944042,3383.4795921108675,None,001,87,2019_Nov_01_1002,ACPT_experiment_5_30_19,3.1.0,59.96313008728151,
,,,C,D,g,b,R,D,y,L,y,,,,,6,13,133,1,3,0,3,0,,,,,1,0,36,26,,,,,,down,0.5003741479044947,3385.264260106295,None,001,87,2019_Nov_01_1002,ACPT_experiment_5_30_19,3.1.0,59.96313008728151,
,,,C,D,g,b,L,D,g,R,i,,,,,6,13,133,1,3,0,3,0,,,,,1,1,37,15,,,,,,up,1.0174299495211017,3387.04895345745,None,001,87,2019_Nov_01_1002,ACPT_experiment_5_30_19,3.1.0,59.96313008728151,
,,,C,D,g,b,R,D,d,L,c,,,,,6,13,133,1,3,0,3,0,,,,,1,2,38,0,,,,,,up,0.8003324015103317,3389.3676354063755,None,001,87,2019_Nov_01_1002,ACPT_experiment_5_30_19,3.1.0,59.96313008728151,
,,,C,D,g,b,L,D,g,L,i,,,,,6,13,133,1,3,0,3,0,,,,,1,3,39,14,,,,,,up,0.8506644257031439,3391.4522516942307,None,001,87,2019_Nov_01_1002,ACPT_experiment_5_30_19,3.1.0,59.96313008728151,
,,,C,D,g,b,L,G,d,R,i,,,,,6,13,133,1,3,0,3,0,,,,,1,4,40,17,,,,,,up,0.800576601312514,3393.5872301916684,None,001,87,2019_Nov_01_1002,ACPT_experiment_5_30_19,3.1.0,59.96313008728151,
,,,C,D,g,b,L,U,y,L,u,,,,,6,13,133,1,3,0,3,0,,,,,1,5,41,24,,,,,,down,0.6004532034394288,3395.6888145925836,None,001,87,2019_Nov_01_1002,ACPT_experiment_5_30_19,3.1.0,59.96313008728151,
,,,C,D,g,b,L,G,g,L,c ,,,,,6,13,133,1,3,0,3,0,,,,,1,6,42,18,,,,,,up,0.5504076385936969,3397.5735806603416,None,001,87,2019_Nov_01_1002,ACPT_experiment_5_30_19,3.1.0,59.96313008728151,
,,,C,D,g,b,R,U,g,L,u,,,,,6,13,133,1,3,0,3,0,,,,,1,7,43,10,,,,,,up,0.5003623756019806,3399.4083011632547,None,001,87,2019_Nov_01_1002,ACPT_experiment_5_30_19,3.1.0,59.96313008728151,
,,,C,D,g,b,R,D,d,R,c ,,,,,6,13,133,1,3,0,3,0,,,,,1,8,44,1,,,,,,up,0.5670868774750488,3401.1929854587925,None,001,87,2019_Nov_01_1002,ACPT_experiment_5_30_19,3.1.0,59.96313008728151,
,,,C,D,g,b,L,U,d,L,u,,,,,6,13,133,1,3,0,3,0,,,,,1,9,45,20,,,,,,up,0.41697644422765734,3403.044383993171,None,001,87,2019_Nov_01_1002,ACPT_experiment_5_30_19,3.1.0,59.96313008728151,
,,,C,D,g,b,L,D,d,L,c ,,,,,6,13,133,1,3,0,3,0,,,,,1,10,46,12,,,,,,up,0.6338143978873632,3404.745672094302,None,001,87,2019_Nov_01_1002,ACPT_experiment_5_30_19,3.1.0,59.96313008728151,
,,,C,D,g,b,R,G,y,R,y,,,,,6,13,133,1,3,0,3,0,,,,,1,11,47,29,,,,,,down,0.9507166162420617,3406.6637896971833,None,001,87,2019_Nov_01_1002,ACPT_experiment_5_30_19,3.1.0,59.96313008728151,
,,,C,D,g,b,L,U,d,R,u,,,,,6,13,133,1,3,0,3,0,,,,,1,12,48,21,,,,,,up,0.9337657088540254,3408.9157628406383,None,001,87,2019_Nov_01_1002,ACPT_experiment_5_30_19,3.1.0,59.96313008728151,
,,,C,D,g,b,R,G,g,L,c ,,,,,6,13,133,1,3,0,3,0,,,,,1,13,49,6,,,,,,up,0.6004936518615978,3411.133837187857,None,001,87,2019_Nov_01_1002,ACPT_experiment_5_30_19,3.1.0,59.96313008728151,
,,,C,D,g,b,R,U,y,L,u,,,,,6,13,133,1,3,0,3,0,,,,,1,14,50,30,,,,,,down,0.6171327441747962,3413.0185960111216,None,001,87,2019_Nov_01_1002,ACPT_experiment_5_30_19,3.1.0,59.96313008728151,
,,,C,D,g,b,L,G,y,R,y,,,,,6,13,133,1,3,0,3,0,,,,,1,15,51,35,,,,,,down,0.5837772849513385,3414.920037091807,None,001,87,2019_Nov_01_1002,ACPT_experiment_5_30_19,3.1.0,59.96313008728151,
,,,C,D,g,b,R,U,g,R,u,,,,,6,13,133,1,3,0,3,0,,,,,1,16,52,11,,,,,,up,0.6004465626538149,3416.788119996583,None,001,87,2019_Nov_01_1002,ACPT_experiment_5_30_19,3.1.0,59.96313008728151,
,,,C,D,g,b,L,G,g,R,c ,,,,,6,13,133,1,3,0,3,0,,,,,1,17,53,19,,,,,,up,0.8673222329580312,3418.672875801309,None,001,87,2019_Nov_01_1002,ACPT_experiment_5_30_19,3.1.0,59.96313008728151,
,,,C,D,g,b,L,D,y,R,y,,,,,6,13,133,1,3,0,3,0,,,,,1,18,54,33,,,,,,down,0.6171387812528337,3420.8244982207225,None,001,87,2019_Nov_01_1002,ACPT_experiment_5_30_19,3.1.0,59.96313008728151,
,,,C,D,g,b,R,D,g,L,i,,,,,6,13,133,1,3,0,3,0,,,,,1,19,55,2,,,,,,up,0.5504157886493886,3422.725940810677,None,001,87,2019_Nov_01_1002,ACPT_experiment_5_30_19,3.1.0,59.96313008728151,
,,,C,D,g,b,L,G,y,L,y,,,,,6,13,133,1,3,0,3,0,,,,,1,20,56,34,,,,,,up,0.43365326827779427,3424.5606646339825,None,001,87,2019_Nov_01_1002,ACPT_experiment_5_30_19,3.1.0,59.96313008728151,
,,,C,D,g,b,R,G,g,R,c ,,,,,6,13,133,1,3,0,3,0,,,,,1,21,57,7,,,,,,up,0.40032678702800695,3426.2786066182675,None,001,87,2019_Nov_01_1002,ACPT_experiment_5_30_19,3.1.0,59.96313008728151,
,,,C,D,g,b,R,G,d,R,i,,,,,6,13,133,1,3,0,3,0,,,,,1,22,58,5,,,,,,up,0.4834359183801098,3427.9635064676727,None,001,87,2019_Nov_01_1002,ACPT_experiment_5_30_19,3.1.0,59.96313008728151,
,,,C,D,g,b,R,D,g,R,i,,,,,6,13,133,1,3,0,3,0,,,,,1,23,59,3,,,,,,up,0.4169737275424268,3429.7312461947545,None,001,87,2019_Nov_01_1002,ACPT_experiment_5_30_19,3.1.0,59.96313008728151,
,,,C,D,g,b,L,G,d,L,i,,,,,6,13,133,1,3,0,3,0,,,,,1,24,60,16,,,,,,up,0.4837106054251308,3431.432546370041,None,001,87,2019_Nov_01_1002,ACPT_experiment_5_30_19,3.1.0,59.96313008728151,
,,,C,D,g,b,L,D,d,R,c ,,,,,6,13,133,1,3,0,3,0,,,,,1,25,61,13,,,,,,up,0.550415486795373,3433.2005363340027,None,001,87,2019_Nov_01_1002,ACPT_experiment_5_30_19,3.1.0,59.96313008728151,
,,,C,D,g,b,R,G,d,L,i,,,,,6,13,133,1,3,0,3,0,,,,,1,26,62,4,,,,,,down,0.6835807478792049,3435.052211668404,None,001,87,2019_Nov_01_1002,ACPT_experiment_5_30_19,3.1.0,59.96313008728151,
,,,C,D,g,b,R,G,y,L,y,,,,,6,13,133,1,3,0,3,0,,,,,1,27,63,28,,,,,,down,0.7338862089295617,3437.020093810154,None,001,87,2019_Nov_01_1002,ACPT_experiment_5_30_19,3.1.0,59.96313008728151,
,,,C,D,g,b,R,U,d,L,u,,,,,6,13,133,1,3,0,3,0,,,,,1,28,64,8,,,,,,up,0.5837796997820988,3439.0549718204297,None,001,87,2019_Nov_01_1002,ACPT_experiment_5_30_19,3.1.0,59.96313008728151,
,,,C,D,g,b,R,D,y,R,y,,,,,6,13,133,1,3,0,3,0,,,,,1,29,65,27,,,,,,down,0.6503040725224309,3440.9398788539575,None,001,87,2019_Nov_01_1002,ACPT_experiment_5_30_19,3.1.0,59.96313008728151,
,,,C,D,g,b,R,U,y,R,u,,,,,6,13,133,1,3,0,3,0,,,,,1,30,66,31,,,,,,down,0.7171991218465337,3442.891206120631,None,001,87,2019_Nov_01_1002,ACPT_experiment_5_30_19,3.1.0,59.96313008728151,
,,,C,D,g,b,L,U,g,R,u,,,,,6,13,133,1,3,0,3,0,,,,,1,31,67,23,,,,,,up,0.6838524163858892,3444.892717201235,None,001,87,2019_Nov_01_1002,ACPT_experiment_5_30_19,3.1.0,59.96313008728151,
,,,C,D,g,b,R,U,d,R,u,,,,,6,13,133,1,3,0,3,0,,,,,1,32,68,9,,,,,,down,0.8006049755781532,3446.8608740300306,None,001,87,2019_Nov_01_1002,ACPT_experiment_5_30_19,3.1.0,59.96313008728151,
,,,C,D,g,b,L,D,y,L,y,,,,,6,13,133,1,3,0,3,0,,,,,1,33,69,32,,,,,,down,0.6338337165366283,3448.9457568548755,None,001,87,2019_Nov_01_1002,ACPT_experiment_5_30_19,3.1.0,59.96313008728151,
,,,C,D,g,b,L,U,y,R,u,,,,,6,13,133,1,3,0,3,0,,,,,1,34,70,25,,,,,,down,0.6838487941390667,3450.863898304215,None,001,87,2019_Nov_01_1002,ACPT_experiment_5_30_19,3.1.0,59.96313008728151,
,,,C,D,g,b,L,U,g,L,u,,,,,6,13,133,1,3,0,3,0,,,,,1,35,71,22,,,,,,up,0.8172781773819224,3452.8320581515495,None,001,87,2019_Nov_01_1002,ACPT_experiment_5_30_19,3.1.0,59.96313008728151,
,,,C,D,g,b,,,,,,,,,,6,13,133,1,4,0,4,0,0,0,0,0,,,,,,,,,,,,,,001,87,2019_Nov_01_1002,ACPT_experiment_5_30_19,3.1.0,59.96313008728151,
,,,C,D,g,b,L,U,d,R,u,,,,,6,13,133,1,4,0,4,0,,,,,0,0,0,21,,,,,,up,0.45034216648400616,3456.3847375425653,None,001,87,2019_Nov_01_1002,ACPT_experiment_5_30_19,3.1.0,59.96313008728151,
,,,C,D,g,b,R,U,g,L,u,,,,,6,13,133,1,4,0,4,0,,,,,0,1,1,10,,,,,,up,0.550417901626588,3458.1193907622446,None,001,87,2019_Nov_01_1002,ACPT_experiment_5_30_19,3.1.0,59.96313008728151,
,,,C,D,g,b,R,D,d,L,c,,,,,6,13,133,1,4,0,4,0,,,,,0,2,2,0,,,,,,up,0.7839100402943586,3459.9708055967335,None,001,87,2019_Nov_01_1002,ACPT_experiment_5_30_19,3.1.0,59.96313008728151,
,,,C,D,g,b,R,U,y,R,u,,,,,6,13,133,1,4,0,4,0,,,,,0,3,3,31,,,,,,down,0.7005171662799512,3462.055708343936,None,001,87,2019_Nov_01_1002,ACPT_experiment_5_30_19,3.1.0,59.96313008728151,
,,,C,D,g,b,L,G,g,L,c ,,,,,6,13,133,1,4,0,4,0,,,,,0,4,4,18,,,,,,up,0.6504885052527243,3464.057222443079,None,001,87,2019_Nov_01_1002,ACPT_experiment_5_30_19,3.1.0,59.96313008728151,
,,,C,D,g,b,R,G,d,L,i,,,,,6,13,133,1,4,0,4,0,,,,,0,5,5,4,,,,,,up,1.7679969066011836,3465.9920262274813,None,001,87,2019_Nov_01_1002,ACPT_experiment_5_30_19,3.1.0,59.96313008728151,
,,,C,D,g,b,L,D,g,R,i,,,,,6,13,133,1,4,0,4,0,,,,,0,6,6,15,,,,,,up,1.417752510594255,3469.044326037223,None,001,87,2019_Nov_01_1002,ACPT_experiment_5_30_19,3.1.0,59.96313008728151,
,,,C,D,g,b,L,G,d,L,i,,,,,6,13,133,1,4,0,4,0,,,,,0,7,7,16,,,,,,down,0.6004719183811176,3471.74636847124,None,001,87,2019_Nov_01_1002,ACPT_experiment_5_30_19,3.1.0,59.96313008728151,
,,,C,D,g,b,L,U,g,L,u,,,,,6,13,133,1,4,0,4,0,,,,,0,8,8,22,,,,,,up,0.5170609331330525,3473.631126992651,None,001,87,2019_Nov_01_1002,ACPT_experiment_5_30_19,3.1.0,59.96313008728151,
,,,C,D,g,b,L,U,y,L,u,,,,,6,13,133,1,4,0,4,0,,,,,0,9,9,24,,,,,,up,0.4002803015278005,3475.449186971624,None,001,87,2019_Nov_01_1002,ACPT_experiment_5_30_19,3.1.0,59.96313008728151,
,,,C,D,g,b,R,G,g,R,c ,,,,,6,13,133,1,4,0,4,0,,,,,0,10,10,7,,,,,,up,0.8840171682422806,3477.1504367373095,None,001,87,2019_Nov_01_1002,ACPT_experiment_5_30_19,3.1.0,59.96313008728151,
,,,C,D,g,b,R,G,g,L,c ,,,,,6,13,133,1,4,0,4,0,,,,,0,11,11,6,,,,,,up,0.6004522978778368,3479.3187676754324,None,001,87,2019_Nov_01_1002,ACPT_experiment_5_30_19,3.1.0,59.96313008728151,
,,,C,D,g,b,L,U,d,L,u,,,,,6,13,133,1,4,0,4,0,,,,,0,12,12,20,,,,,,up,1.2173824980882273,3481.2203720590755,None,001,87,2019_Nov_01_1002,ACPT_experiment_5_30_19,3.1.0,59.96313008728151,
,,,C,D,g,b,L,U,y,R,u,,,,,6,13,133,1,4,0,4,0,,,,,0,13,13,25,,,,,,down,0.6838493978466431,3483.722092173502,None,001,87,2019_Nov_01_1002,ACPT_experiment_5_30_19,3.1.0,59.96313008728151,
,,,C,D,g,b,R,D,g,R,i,,,,,6,13,133,1,4,0,4,0,,,,,0,14,14,3,,,,,,up,1.3009827457294705,3485.6902529263984,None,001,87,2019_Nov_01_1002,ACPT_experiment_5_30_19,3.1.0,59.96313008728151,
,,,C,D,g,b,L,D,d,R,c ,,,,,6,13,133,1,4,0,4,0,,,,,0,15,15,13,,,,,,up,1.6345596751566518,3488.2755506494236,None,001,87,2019_Nov_01_1002,ACPT_experiment_5_30_19,3.1.0,59.96313008728151,
,,,C,D,g,b,L,D,y,L,y,,,,,6,13,133,1,4,0,4,0,,,,,0,16,16,32,,,,,,down,0.7839933519699116,3491.1777170850214,None,001,87,2019_Nov_01_1002,ACPT_experiment_5_30_19,3.1.0,59.96313008728151,
,,,C,D,g,b,R,G,d,R,i,,,,,6,13,133,1,4,0,4,0,,,,,0,17,17,5,,,,,,up,1.267620947573505,3493.2459716842936,None,001,87,2019_Nov_01_1002,ACPT_experiment_5_30_19,3.1.0,59.96313008728151,
,,,C,D,g,b,L,D,g,L,i,,,,,6,13,133,1,4,0,4,0,,,,,0,18,18,14,,,,,,up,0.6504912219379548,3495.7979024776473,None,001,87,2019_Nov_01_1002,ACPT_experiment_5_30_19,3.1.0,59.96313008728151,
,,,C,D,g,b,R,D,y,L,y,,,,,6,13,133,1,4,0,4,0,,,,,0,19,19,26,,,,,,down,0.7839206051808105,3497.732702337949,None,001,87,2019_Nov_01_1002,ACPT_experiment_5_30_19,3.1.0,59.96313008728151,
,,,C,D,g,b,L,G,g,R,c ,,,,,6,13,133,1,4,0,4,0,,,,,0,20,20,19,,,,,,up,0.7005295422900417,3499.800932185202,None,001,87,2019_Nov_01_1002,ACPT_experiment_5_30_19,3.1.0,59.96313008728151,
,,,C,D,g,b,L,U,g,R,u,,,,,6,13,133,1,4,0,4,0,,,,,0,21,21,23,,,,,,up,0.7505618255640911,3501.785768252879,None,001,87,2019_Nov_01_1002,ACPT_experiment_5_30_19,3.1.0,59.96313008728151,
,,,C,D,g,b,R,G,y,R,y,,,,,6,13,133,1,4,0,4,0,,,,,0,22,22,29,,,,,,down,0.7839329811904463,3503.8373061833868,None,001,87,2019_Nov_01_1002,ACPT_experiment_5_30_19,3.1.0,59.96313008728151,
,,,C,D,g,b,R,U,g,R,u,,,,,6,13,133,1,4,0,4,0,,,,,0,23,23,11,,,,,,up,0.600439921868201,3505.9222388141247,None,001,87,2019_Nov_01_1002,ACPT_experiment_5_30_19,3.1.0,59.96313008728151,
,,,C,D,g,b,L,D,y,R,y,,,,,6,13,133,1,4,0,4,0,,,,,0,24,24,33,,,,,,down,0.583768833042086,3507.8069861669414,None,001,87,2019_Nov_01_1002,ACPT_experiment_5_30_19,3.1.0,59.96313008728151,
,,,C,D,g,b,R,D,y,R,y,,,,,6,13,133,1,4,0,4,0,,,,,0,25,25,27,,,,,,down,1.1508689920888173,3509.67506846801,None,001,87,2019_Nov_01_1002,ACPT_experiment_5_30_19,3.1.0,59.96313008728151,
,,,C,D,g,b,R,U,d,L,u,,,,,6,13,133,1,4,0,4,0,,,,,0,26,26,8,,,,,,up,0.7338862089291069,3512.1102451929014,None,001,87,2019_Nov_01_1002,ACPT_experiment_5_30_19,3.1.0,59.96313008728151,
,,,C,D,g,b,L,G,y,R,y,,,,,6,13,133,1,4,0,4,0,,,,,0,27,27,35,,,,,,down,0.6669570501148883,3514.145291637651,None,001,87,2019_Nov_01_1002,ACPT_experiment_5_30_19,3.1.0,59.96313008728151,
,,,C,D,g,b,R,D,d,R,c ,,,,,6,13,133,1,4,0,4,0,,,,,0,28,28,1,,,,,,down,0.45033854423718367,3516.113276107872,None,001,87,2019_Nov_01_1002,ACPT_experiment_5_30_19,3.1.0,59.96313008728151,
,,,C,D,g,b,L,D,d,L,c ,,,,,6,13,133,1,4,0,4,0,,,,,0,29,29,12,,,,,,up,0.6171487424317093,3517.8478994440156,None,001,87,2019_Nov_01_1002,ACPT_experiment_5_30_19,3.1.0,59.96313008728151,
,,,C,D,g,b,L,G,d,R,i,,,,,6,13,133,1,4,0,4,0,,,,,0,30,30,17,,,,,,up,0.4169864054060781,3519.7493577303726,None,001,87,2019_Nov_01_1002,ACPT_experiment_5_30_19,3.1.0,59.96313008728151,
,,,C,D,g,b,L,G,y,L,y,,,,,6,13,133,1,4,0,4,0,,,,,0,31,31,34,,,,,,down,0.5837996221393951,3521.433943651726,None,001,87,2019_Nov_01_1002,ACPT_experiment_5_30_19,3.1.0,59.96313008728151,
,,,C,D,g,b,R,U,y,L,u,,,,,6,13,133,1,4,0,4,0,,,,,0,32,32,30,,,,,,down,0.6835728996779835,3523.3190016122016,None,001,87,2019_Nov_01_1002,ACPT_experiment_5_30_19,3.1.0,59.96313008728151,
,,,C,D,g,b,R,D,g,L,i,,,,,6,13,133,1,4,0,4,0,,,,,0,33,33,2,,,,,,up,0.7338883219063064,3525.2868792261434,None,001,87,2019_Nov_01_1002,ACPT_experiment_5_30_19,3.1.0,59.96313008728151,
,,,C,D,g,b,R,G,y,L,y,,,,,6,13,133,1,4,0,4,0,,,,,0,34,34,28,,,,,,down,0.6171312349056279,3527.30507739383,None,001,87,2019_Nov_01_1002,ACPT_experiment_5_30_19,3.1.0,59.96313008728151,
,,,C,D,g,b,R,U,d,R,u,,,,,6,13,133,1,4,0,4,0,,,,,0,35,35,9,,,,,,up,0.5837911702301426,3529.2064904021026,None,001,87,2019_Nov_01_1002,ACPT_experiment_5_30_19,3.1.0,59.96313008728151,
,,,C,D,g,b,R,G,y,L,y,,,,,6,13,133,1,4,0,4,0,,,,,1,0,36,28,,,,,,down,0.7505853701677552,3531.07457572171,None,001,87,2019_Nov_01_1002,ACPT_experiment_5_30_19,3.1.0,59.96313008728151,
,,,C,D,g,b,L,D,d,L,c ,,,,,6,13,133,1,4,0,4,0,,,,,1,1,37,12,,,,,,up,0.7505669570800819,3533.109467919119,None,001,87,2019_Nov_01_1002,ACPT_experiment_5_30_19,3.1.0,59.96313008728151,
,,,C,D,g,b,L,D,g,L,i,,,,,6,13,133,1,4,0,4,0,,,,,1,2,38,14,,,,,,down,0.5504357110062301,3535.12764163664,None,001,87,2019_Nov_01_1002,ACPT_experiment_5_30_19,3.1.0,59.96313008728151,
,,,C,D,g,b,L,U,y,R,u,,,,,6,13,133,1,4,0,4,0,,,,,1,3,39,25,,,,,,down,0.8839842661677721,3536.9623796470787,None,001,87,2019_Nov_01_1002,ACPT_experiment_5_30_19,3.1.0,59.96313008728151,
,,,C,D,g,b,L,G,g,L,c ,,,,,6,13,133,1,4,0,4,0,,,,,1,4,40,18,,,,,,up,0.9507416701153488,3539.1306668163866,None,001,87,2019_Nov_01_1002,ACPT_experiment_5_30_19,3.1.0,59.96313008728151,
,,,C,D,g,b,R,U,y,R,u,,,,,6,13,133,1,4,0,4,0,,,,,1,5,41,31,,,,,,down,0.6671656311568768,3541.365714106327,None,001,87,2019_Nov_01_1002,ACPT_experiment_5_30_19,3.1.0,59.96313008728151,
,,,C,D,g,b,R,D,g,L,i,,,,,6,13,133,1,4,0,4,0,,,,,1,6,42,2,,,,,,up,0.5003859202060994,3543.317182640624,None,001,87,2019_Nov_01_1002,ACPT_experiment_5_30_19,3.1.0,59.96313008728151,
,,,C,D,g,b,R,U,d,L,u,,,,,6,13,133,1,4,0,4,0,,,,,1,7,43,8,,,,,,up,1.1174936105080633,3545.101887764081,None,001,87,2019_Nov_01_1002,ACPT_experiment_5_30_19,3.1.0,59.96313008728151,
,,,C,D,g,b,R,U,g,L,u,,,,,6,13,133,1,4,0,4,0,,,,,1,8,44,10,,,,,,up,0.917240717313689,3547.503701181547,None,001,87,2019_Nov_01_1002,ACPT_experiment_5_30_19,3.1.0,59.96313008728151,
,,,C,D,g,b,R,D,d,L,c,,,,,6,13,133,1,4,0,4,0,,,,,1,9,45,0,,,,,,down,0.6338086626633412,3549.7053595064813,None,001,87,2019_Nov_01_1002,ACPT_experiment_5_30_19,3.1.0,59.96313008728151,
,,,C,D,g,b,R,G,g,R,c ,,,,,6,13,133,1,4,0,4,0,,,,,1,10,46,7,,,,,,up,0.9173536106709435,3551.6234807316096,None,001,87,2019_Nov_01_1002,ACPT_experiment_5_30_19,3.1.0,59.96313008728151,
,,,C,D,g,b,L,D,d,R,c ,,,,,6,13,133,1,4,0,4,0,,,,,1,11,47,13,,,,,,down,1.334343034615813,3553.8251426787906,None,001,87,2019_Nov_01_1002,ACPT_experiment_5_30_19,3.1.0,59.96313008728151,
,,,C,D,g,b,R,U,d,R,u,,,,,6,13,133,1,4,0,4,0,,,,,1,12,48,9,,,,,,down,0.6004459589457838,3556.443793446209,None,001,87,2019_Nov_01_1002,ACPT_experiment_5_30_19,3.1.0,59.96313008728151,
,,,C,D,g,b,L,G,d,R,i,,,,,6,13,133,1,4,0,4,0,,,,,1,13,49,17,,,,,,up,0.7338850015139542,3558.32855045835,None,001,87,2019_Nov_01_1002,ACPT_experiment_5_30_19,3.1.0,59.96313008728151,
,,,C,D,g,b,R,G,d,L,i,,,,,6,13,133,1,4,0,4,0,,,,,1,14,50,4,,,,,,up,0.8172959867620193,3560.3467262888485,None,001,87,2019_Nov_01_1002,ACPT_experiment_5_30_19,3.1.0,59.96313008728151,
,,,C,D,g,b,R,U,y,L,u,,,,,6,13,133,1,4,0,4,0,,,,,1,15,51,30,,,,,,down,0.5837739645580768,3562.448330008413,None,001,87,2019_Nov_01_1002,ACPT_experiment_5_30_19,3.1.0,59.96313008728151,
,,,C,D,g,b,R,G,g,L,c ,,,,,6,13,133,1,4,0,4,0,,,,,1,16,52,6,,,,,,up,0.6838714331811389,3564.3163890667315,None,001,87,2019_Nov_01_1002,ACPT_experiment_5_30_19,3.1.0,59.96313008728151,
,,,C,D,g,b,L,U,g,L,u,,,,,6,13,133,1,4,0,4,0,,,,,1,17,53,22,,,,,,up,0.5170443311685631,3566.284574873501,None,001,87,2019_Nov_01_1002,ACPT_experiment_5_30_19,3.1.0,59.96313008728151,
,,,C,D,g,b,R,G,d,R,i,,,,,6,13,133,1,4,0,4,0,,,,,1,18,54,5,,,,,,up,1.184270634958466,3568.085933276404,None,001,87,2019_Nov_01_1002,ACPT_experiment_5_30_19,3.1.0,59.96313008728151,
,,,C,D,g,b,R,D,y,R,y,,,,,6,13,133,1,4,0,4,0,,,,,1,19,55,27,,,,,,down,0.7005235052120042,3570.554470290181,None,001,87,2019_Nov_01_1002,ACPT_experiment_5_30_19,3.1.0,59.96313008728151,
,,,C,D,g,b,R,D,g,R,i,,,,,6,13,133,1,4,0,4,0,,,,,1,20,56,3,,,,,,up,1.0841490180237088,3572.5393087726893,None,001,87,2019_Nov_01_1002,ACPT_experiment_5_30_19,3.1.0,59.96313008728151,
,,,C,D,g,b,L,U,d,R,u,,,,,6,13,133,1,4,0,4,0,,,,,1,21,57,21,,,,,,up,0.40029358309948293,3574.9077637123924,None,001,87,2019_Nov_01_1002,ACPT_experiment_5_30_19,3.1.0,59.96313008728151,
,,,C,D,g,b,L,D,g,R,i,,,,,6,13,133,1,4,0,4,0,,,,,1,22,58,15,,,,,,up,0.5504338998830463,3576.5923414836907,None,001,87,2019_Nov_01_1002,ACPT_experiment_5_30_19,3.1.0,59.96313008728151,
,,,C,D,g,b,L,G,d,L,i,,,,,6,13,133,1,4,0,4,0,,,,,1,23,59,16,,,,,,up,0.7172223645966369,3578.4270936812622,None,001,87,2019_Nov_01_1002,ACPT_experiment_5_30_19,3.1.0,59.96313008728151,
,,,C,D,g,b,R,U,g,R,u,,,,,6,13,133,1,4,0,4,0,,,,,1,24,60,11,,,,,,up,0.76723472551339,3580.4286111007978,None,001,87,2019_Nov_01_1002,ACPT_experiment_5_30_19,3.1.0,59.96313008728151,
,,,C,D,g,b,L,D,y,R,y,,,,,6,13,133,1,4,0,4,0,,,,,1,25,61,33,,,,,,down,0.667177705312497,3582.4801411831045,None,001,87,2019_Nov_01_1002,ACPT_experiment_5_30_19,3.1.0,59.96313008728151,
,,,C,D,g,b,R,D,d,R,c ,,,,,6,13,133,1,4,0,4,0,,,,,1,26,62,1,,,,,,up,0.517046142291747,3584.44831431201,None,001,87,2019_Nov_01_1002,ACPT_experiment_5_30_19,3.1.0,59.96313008728151,
,,,C,D,g,b,L,D,y,L,y,,,,,6,13,133,1,4,0,4,0,,,,,1,27,63,32,,,,,,down,0.8173379444533566,3586.249657018511,None,001,87,2019_Nov_01_1002,ACPT_experiment_5_30_19,3.1.0,59.96313008728151,
,,,C,D,g,b,L,U,y,L,u,,,,,6,13,133,1,4,0,4,0,,,,,1,28,64,24,,,,,,down,1.017445042215968,3588.3512764344778,None,001,87,2019_Nov_01_1002,ACPT_experiment_5_30_19,3.1.0,59.96313008728151,
,,,C,D,g,b,L,U,g,R,u,,,,,6,13,133,1,4,0,4,0,,,,,1,29,65,23,,,,,,up,2.3017482472096162,3590.653009287139,None,001,87,2019_Nov_01_1002,ACPT_experiment_5_30_19,3.1.0,59.96313008728151,
,,,C,D,g,b,R,G,y,R,y,,,,,6,13,133,1,4,0,4,0,,,,,1,30,66,29,,,,,,down,0.6171556850708839,3594.2390556078267,None,001,87,2019_Nov_01_1002,ACPT_experiment_5_30_19,3.1.0,59.96313008728151,
,,,C,D,g,b,L,G,y,R,y,,,,,6,13,133,1,4,0,4,0,,,,,1,31,67,35,,,,,,down,0.3836224942729132,3596.140496688512,None,001,87,2019_Nov_01_1002,ACPT_experiment_5_30_19,3.1.0,59.96313008728151,
,,,C,D,g,b,R,D,y,L,y,,,,,6,13,133,1,4,0,4,0,,,,,1,32,68,26,,,,,,down,0.5671022720239307,3597.808426613734,None,001,87,2019_Nov_01_1002,ACPT_experiment_5_30_19,3.1.0,59.96313008728151,
,,,C,D,g,b,L,G,g,R,c ,,,,,6,13,133,1,4,0,4,0,,,,,1,33,69,19,,,,,,up,0.5670832552286811,3599.6598275629435,None,001,87,2019_Nov_01_1002,ACPT_experiment_5_30_19,3.1.0,59.96313008728151,
,,,C,D,g,b,L,U,d,L,u,,,,,6,13,133,1,4,0,4,0,,,,,1,34,70,20,,,,,,up,1.0674945311620831,3601.5112100990655,None,001,87,2019_Nov_01_1002,ACPT_experiment_5_30_19,3.1.0,59.96313008728151,
,,,C,D,g,b,L,G,y,L,y,,,,,6,13,133,1,4,0,4,0,,,,,1,35,71,34,,,,,,down,1.0508095570562546,3603.8630078352217,None,001,87,2019_Nov_01_1002,ACPT_experiment_5_30_19,3.1.0,59.96313008728151,
,,,C,D,g,b,,,,,,,,,,6,13,133,1,5,0,5,0,0,0,0,0,,,,,,,,,,,,,,001,87,2019_Nov_01_1002,ACPT_experiment_5_30_19,3.1.0,59.96313008728151,
,,,C,D,g,b,R,U,y,R,u,,,,,6,13,133,1,5,0,5,0,,,,,0,0,0,31,,,,,,down,0.6004498830470766,3607.3823344836987,None,001,87,2019_Nov_01_1002,ACPT_experiment_5_30_19,3.1.0,59.96313008728151,
,,,C,D,g,b,L,U,g,R,u,,,,,6,13,133,1,5,0,5,0,,,,,0,1,1,23,,,,,,up,0.5003753553201022,3609.2670969292103,None,001,87,2019_Nov_01_1002,ACPT_experiment_5_30_19,3.1.0,59.96313008728151,
,,,C,D,g,b,R,D,y,L,y,,,,,6,13,133,1,5,0,5,0,,,,,0,2,2,26,,,,,,down,0.7502922700350609,3611.0687291135973,None,001,87,2019_Nov_01_1002,ACPT_experiment_5_30_19,3.1.0,59.96313008728151,
,,,C,D,g,b,L,U,d,L,u,,,,,6,13,133,1,5,0,5,0,,,,,0,3,3,20,,,,,,up,0.7505222827039688,3613.1033535666,None,001,87,2019_Nov_01_1002,ACPT_experiment_5_30_19,3.1.0,59.96313008728151,
,,,C,D,g,b,L,D,y,L,y,,,,,6,13,133,1,5,0,5,0,,,,,0,4,4,32,,,,,,down,0.8006200682734743,3615.1381859969374,None,001,87,2019_Nov_01_1002,ACPT_experiment_5_30_19,3.1.0,59.96313008728151,
,,,C,D,g,b,L,G,y,R,y,,,,,6,13,133,1,5,0,5,0,,,,,0,5,5,35,,,,,,up,0.41697644422765734,3617.22311198689,None,001,87,2019_Nov_01_1002,ACPT_experiment_5_30_19,3.1.0,59.96313008728151,
,,,C,D,g,b,R,D,g,R,i,,,,,6,13,133,1,5,0,5,0,,,,,0,6,6,3,,,,,,up,0.5837730589964849,3618.9244031065596,None,001,87,2019_Nov_01_1002,ACPT_experiment_5_30_19,3.1.0,59.96313008728151,
,,,C,D,g,b,L,D,g,R,i,,,,,6,13,133,1,5,0,5,0,,,,,0,7,7,15,,,,,,up,0.500378072004878,3620.7924823890894,None,001,87,2019_Nov_01_1002,ACPT_experiment_5_30_19,3.1.0,59.96313008728151,
,,,C,D,g,b,L,G,d,R,i,,,,,6,13,133,1,5,0,5,0,,,,,0,8,8,17,,,,,,up,0.4170174963574027,3622.5771633642344,None,001,87,2019_Nov_01_1002,ACPT_experiment_5_30_19,3.1.0,59.96313008728151,
,,,C,D,g,b,L,U,g,L,u,,,,,6,13,133,1,5,0,5,0,,,,,0,9,9,22,,,,,,up,0.5001317592254964,3624.2953776207332,None,001,87,2019_Nov_01_1002,ACPT_experiment_5_30_19,3.1.0,59.96313008728151,
,,,C,D,g,b,R,D,g,L,i,,,,,6,13,133,1,5,0,5,0,,,,,0,10,10,2,,,,,,up,0.41698731096767006,3626.0798143960765,None,001,87,2019_Nov_01_1002,ACPT_experiment_5_30_19,3.1.0,59.96313008728151,
,,,C,D,g,b,L,D,y,R,y,,,,,6,13,133,1,5,0,5,0,,,,,0,11,11,33,,,,,,down,0.7338843978063778,3627.7811052138923,None,001,87,2019_Nov_01_1002,ACPT_experiment_5_30_19,3.1.0,59.96313008728151,
,,,C,D,g,b,R,G,d,L,i,,,,,6,13,133,1,5,0,5,0,,,,,0,12,12,4,,,,,,up,0.5838183370806291,3629.799273498043,None,001,87,2019_Nov_01_1002,ACPT_experiment_5_30_19,3.1.0,59.96313008728151,
,,,C,D,g,b,L,D,d,R,c ,,,,,6,13,133,1,5,0,5,0,,,,,0,13,13,13,,,,,,down,0.7505518643852156,3631.684073071584,None,001,87,2019_Nov_01_1002,ACPT_experiment_5_30_19,3.1.0,59.96313008728151,
,,,C,D,g,b,R,G,d,R,i,,,,,6,13,133,1,5,0,5,0,,,,,0,14,14,5,,,,,,up,0.5837763793892918,3633.7189287446713,None,001,87,2019_Nov_01_1002,ACPT_experiment_5_30_19,3.1.0,59.96313008728151,
,,,C,D,g,b,L,G,g,L,c ,,,,,6,13,133,1,5,0,5,0,,,,,0,15,15,18,,,,,,up,0.8506595960411687,3635.586989614113,None,001,87,2019_Nov_01_1002,ACPT_experiment_5_30_19,3.1.0,59.96313008728151,
,,,C,D,g,b,L,U,y,R,u,,,,,6,13,133,1,5,0,5,0,,,,,0,16,16,25,,,,,,down,0.517094438915592,3637.721930681668,None,001,87,2019_Nov_01_1002,ACPT_experiment_5_30_19,3.1.0,59.96313008728151,
,,,C,D,g,b,R,U,d,L,u,,,,,6,13,133,1,5,0,5,0,,,,,0,17,17,8,,,,,,up,0.650475827389073,3639.5233334570935,None,001,87,2019_Nov_01_1002,ACPT_experiment_5_30_19,3.1.0,59.96313008728151,
,,,C,D,g,b,L,U,d,R,u,,,,,6,13,133,1,5,0,5,0,,,,,0,18,18,21,,,,,,up,0.5837670219184474,3641.4581218469475,None,001,87,2019_Nov_01_1002,ACPT_experiment_5_30_19,3.1.0,59.96313008728151,
,,,C,D,g,b,R,U,g,R,u,,,,,6,13,133,1,5,0,5,0,,,,,0,19,19,11,,,,,,up,0.45033190345111507,3643.326201129477,None,001,87,2019_Nov_01_1002,ACPT_experiment_5_30_19,3.1.0,59.96313008728151,
,,,C,D,g,b,L,D,g,L,i,,,,,6,13,133,1,5,0,5,0,,,,,0,20,20,14,,,,,,up,0.43368134068987274,3645.060817824835,None,001,87,2019_Nov_01_1002,ACPT_experiment_5_30_19,3.1.0,59.96313008728151,
,,,C,D,g,b,R,D,d,R,c ,,,,,6,13,133,1,5,0,5,0,,,,,0,21,21,1,,,,,,up,0.3669354071903399,3646.778814444675,None,001,87,2019_Nov_01_1002,ACPT_experiment_5_30_19,3.1.0,59.96313008728151,
,,,C,D,g,b,R,G,g,R,c ,,,,,6,13,133,1,5,0,5,0,,,,,0,22,22,7,,,,,,up,0.5170787425126946,3648.43003373821,None,001,87,2019_Nov_01_1002,ACPT_experiment_5_30_19,3.1.0,59.96313008728151,
,,,C,D,g,b,L,G,g,R,c ,,,,,6,13,133,1,5,0,5,0,,,,,0,23,23,19,,,,,,up,0.4336611164790156,3650.2314208172334,None,001,87,2019_Nov_01_1002,ACPT_experiment_5_30_19,3.1.0,59.96313008728151,
,,,C,D,g,b,R,G,y,L,y,,,,,6,13,133,1,5,0,5,0,,,,,0,24,24,28,,,,,,down,0.6838439644766368,3651.9660734332047,None,001,87,2019_Nov_01_1002,ACPT_experiment_5_30_19,3.1.0,59.96313008728151,
,,,C,D,g,b,L,D,d,L,c ,,,,,6,13,133,1,5,0,5,0,,,,,0,25,25,12,,,,,,up,0.6004538071474599,3653.950906482343,None,001,87,2019_Nov_01_1002,ACPT_experiment_5_30_19,3.1.0,59.96313008728151,
,,,C,D,g,b,L,G,d,L,i,,,,,6,13,133,1,5,0,5,0,,,,,0,26,26,16,,,,,,down,0.6337923625528674,3655.8356800964484,None,001,87,2019_Nov_01_1002,ACPT_experiment_5_30_19,3.1.0,59.96313008728151,
,,,C,D,g,b,L,G,y,L,y,,,,,6,13,133,1,5,0,5,0,,,,,0,27,27,34,,,,,,down,0.6671831386825033,3657.753768117648,None,001,87,2019_Nov_01_1002,ACPT_experiment_5_30_19,3.1.0,59.96313008728151,
,,,C,D,g,b,L,U,y,L,u,,,,,6,13,133,1,5,0,5,0,,,,,0,28,28,24,,,,,,down,0.46701234974852923,3659.721943963239,None,001,87,2019_Nov_01_1002,ACPT_experiment_5_30_19,3.1.0,59.96313008728151,
,,,C,D,g,b,R,D,d,L,c,,,,,6,13,133,1,5,0,5,0,,,,,0,29,29,0,,,,,,up,0.5670799348358742,3661.4899532458503,None,001,87,2019_Nov_01_1002,ACPT_experiment_5_30_19,3.1.0,59.96313008728151,
,,,C,D,g,b,R,U,g,L,u,,,,,6,13,133,1,5,0,5,0,,,,,0,30,30,10,,,,,,up,0.48037300689611584,3663.361349600844,None,001,87,2019_Nov_01_1002,ACPT_experiment_5_30_19,3.1.0,59.96313008728151,
,,,C,D,g,b,R,U,d,R,u,,,,,6,13,133,1,5,0,5,0,,,,,0,31,31,9,,,,,,up,0.4002981109074426,3665.1093535164923,None,001,87,2019_Nov_01_1002,ACPT_experiment_5_30_19,3.1.0,59.96313008728151,
,,,C,D,g,b,R,G,y,R,y,,,,,6,13,133,1,5,0,5,0,,,,,0,32,32,29,,,,,,down,0.4836930978995042,3666.7939572472255,None,001,87,2019_Nov_01_1002,ACPT_experiment_5_30_19,3.1.0,59.96313008728151,
,,,C,D,g,b,R,D,y,R,y,,,,,6,13,133,1,5,0,5,0,,,,,0,33,33,27,,,,,,down,0.6171493461392856,3668.578649089111,None,001,87,2019_Nov_01_1002,ACPT_experiment_5_30_19,3.1.0,59.96313008728151,
,,,C,D,g,b,R,U,y,L,u,,,,,6,13,133,1,5,0,5,0,,,,,0,34,34,30,,,,,,down,0.43363787372936713,3670.496773634632,None,001,87,2019_Nov_01_1002,ACPT_experiment_5_30_19,3.1.0,59.96313008728151,
,,,C,D,g,b,R,G,g,L,c ,,,,,6,13,133,1,5,0,5,0,,,,,0,35,35,6,,,,,,up,0.6005042167475949,3672.231407233808,None,001,87,2019_Nov_01_1002,ACPT_experiment_5_30_19,3.1.0,59.96313008728151,
,,,C,D,g,b,R,U,g,R,u,,,,,6,13,133,1,5,0,5,0,,,,,1,0,36,11,,,,,,up,0.5670959330923324,3674.1161633403876,None,001,87,2019_Nov_01_1002,ACPT_experiment_5_30_19,3.1.0,59.96313008728151,
,,,C,D,g,b,L,D,g,R,i,,,,,6,13,133,1,5,0,5,0,,,,,1,1,37,15,,,,,,up,0.4003041479854801,3675.9675639877437,None,001,87,2019_Nov_01_1002,ACPT_experiment_5_30_19,3.1.0,59.96313008728151,
,,,C,D,g,b,R,G,y,L,y,,,,,6,13,133,1,5,0,5,0,,,,,1,2,38,28,,,,,,up,0.4668188614009523,3677.685694027006,None,001,87,2019_Nov_01_1002,ACPT_experiment_5_30_19,3.1.0,59.96313008728151,
,,,C,D,g,b,L,U,g,L,u,,,,,6,13,133,1,5,0,5,0,,,,,1,3,39,22,,,,,,up,0.6338071533941729,3679.453536686266,None,001,87,2019_Nov_01_1002,ACPT_experiment_5_30_19,3.1.0,59.96313008728151,
,,,C,D,g,b,R,D,y,R,y,,,,,6,13,133,1,5,0,5,0,,,,,1,4,40,27,,,,,,down,0.46701717941050447,3681.371656402125,None,001,87,2019_Nov_01_1002,ACPT_experiment_5_30_19,3.1.0,59.96313008728151,
,,,C,D,g,b,R,U,y,L,u,,,,,6,13,133,1,5,0,5,0,,,,,1,5,41,30,,,,,,down,0.4670153682873206,3683.139658440243,None,001,87,2019_Nov_01_1002,ACPT_experiment_5_30_19,3.1.0,59.96313008728151,
,,,C,D,g,b,L,D,y,L,y,,,,,6,13,133,1,5,0,5,0,,,,,1,6,42,32,,,,,,down,0.5835104461070841,3684.941280965305,None,001,87,2019_Nov_01_1002,ACPT_experiment_5_30_19,3.1.0,59.96313008728151,
,,,C,D,g,b,R,D,d,R,c ,,,,,6,13,133,1,5,0,5,0,,,,,1,7,43,1,,,,,,up,0.7505618255640911,3686.8091072942693,None,001,87,2019_Nov_01_1002,ACPT_experiment_5_30_19,3.1.0,59.96313008728151,
,,,C,D,g,b,L,G,g,L,c ,,,,,6,13,133,1,5,0,5,0,,,,,1,8,44,18,,,,,,up,0.6171514591164851,3688.8439551191555,None,001,87,2019_Nov_01_1002,ACPT_experiment_5_30_19,3.1.0,59.96313008728151,
,,,C,D,g,b,L,U,y,L,u,,,,,6,13,133,1,5,0,5,0,,,,,1,9,45,24,,,,,,down,0.5671206851120587,3690.74538684237,None,001,87,2019_Nov_01_1002,ACPT_experiment_5_30_19,3.1.0,59.96313008728151,
,,,C,D,g,b,R,G,g,L,c ,,,,,6,13,133,1,5,0,5,0,,,,,1,10,46,6,,,,,,up,0.6171315367591887,3692.596815260284,None,001,87,2019_Nov_01_1002,ACPT_experiment_5_30_19,3.1.0,59.96313008728151,
,,,C,D,g,b,L,U,y,R,u,,,,,6,13,133,1,5,0,5,0,,,,,1,11,47,25,,,,,,down,0.7505998591550451,3694.4982267592877,None,001,87,2019_Nov_01_1002,ACPT_experiment_5_30_19,3.1.0,59.96313008728151,
,,,C,D,g,b,L,G,g,R,c ,,,,,6,13,133,1,5,0,5,0,,,,,1,12,48,19,,,,,,up,0.5003726386344169,3696.533126503044,None,001,87,2019_Nov_01_1002,ACPT_experiment_5_30_19,3.1.0,59.96313008728151,
,,,C,D,g,b,L,U,d,L,u,,,,,6,13,133,1,5,0,5,0,,,,,1,13,49,20,,,,,,up,0.5334232254235758,3698.3347930987748,None,001,87,2019_Nov_01_1002,ACPT_experiment_5_30_19,3.1.0,59.96313008728151,
,,,C,D,g,b,R,D,g,L,i,,,,,6,13,133,1,5,0,5,0,,,,,1,14,50,2,,,,,,up,0.5837706441652699,3700.1525313014945,None,001,87,2019_Nov_01_1002,ACPT_experiment_5_30_19,3.1.0,59.96313008728151,
,,,C,D,g,b,R,U,g,L,u,,,,,6,13,133,1,5,0,5,0,,,,,1,15,51,10,,,,,,up,0.4336614183330312,3702.0039352692434,None,001,87,2019_Nov_01_1002,ACPT_experiment_5_30_19,3.1.0,59.96313008728151,
,,,C,D,g,b,R,D,y,L,y,,,,,6,13,133,1,5,0,5,0,,,,,1,16,52,26,,,,,,down,0.5837972073081801,3703.721875744259,None,001,87,2019_Nov_01_1002,ACPT_experiment_5_30_19,3.1.0,59.96313008728151,
,,,C,D,g,b,L,U,d,R,u,,,,,6,13,133,1,5,0,5,0,,,,,1,17,53,21,,,,,,up,0.7336341609261581,3705.6069312899035,None,001,87,2019_Nov_01_1002,ACPT_experiment_5_30_19,3.1.0,59.96313008728151,
