facing_vig,person_vig,text_vig,facing_train,person_train,food_train,correct_key_train,facing_exp,person_exp,food_exp,showL_R,consistent,vig_random.thisRepN,vig_random.thisTrialN,vig_random.thisN,vig_random.thisIndex,trainTrials.thisRepN,trainTrials.thisTrialN,trainTrials.thisN,trainTrials.thisIndex,expBlock.thisRepN,expBlock.thisTrialN,expBlock.thisN,expBlock.thisIndex,breakLoop.thisRepN,breakLoop.thisTrialN,breakLoop.thisN,breakLoop.thisIndex,expTrials.thisRepN,expTrials.thisTrialN,expTrials.thisN,expTrials.thisIndex,train_resp.keys,train_resp.corr,train_resp.rt,train_resp.started,train_resp.stopped,exp_resp.keys,exp_resp.rt,exp_resp.started,exp_resp.stopped,session,participant,date,expName,psychopyVersion,frameRate,
C,D,"is allergic to gluten, meaning she can’t eat wheat products. She enjoys eating dairy products. She thinks eating insects, like crickets, is disgusting.",,,,,,,,,,0,0,0,1,,,,,,,,,,,,,,,,,,,,,,,,,,001,88,2019_Nov_01_1100,ACPT_experiment_5_30_19,3.1.0,59.954991150319145,
C,G,"cannot eat dairy products because she is lactose intolerant. She enjoys eating wheat products. She thinks eating insects, like crickets, is disgusting.",,,,,,,,,,0,1,1,0,,,,,,,,,,,,,,,,,,,,,,,,,,001,88,2019_Nov_01_1100,ACPT_experiment_5_30_19,3.1.0,59.954991150319145,
C,U,"did not report her food preferences, so her food preferences are unknown.",,,,,,,,,,0,2,2,2,,,,,,,,,,,,,,,,,,,,,,,,,,001,88,2019_Nov_01_1100,ACPT_experiment_5_30_19,3.1.0,59.954991150319145,
,,,C,G,d,b,,,,,,,,,,0,0,0,12,,,,,,,,,,,,,b,1,2.335169812437016,756.1793274755573,None,,,,,001,88,2019_Nov_01_1100,ACPT_experiment_5_30_19,3.1.0,59.954991150319145,
,,,C,D,y,b,,,,,,,,,,0,1,1,11,,,,,,,,,,,,,b,1,1.984847839979011,761.8002641825306,None,,,,,001,88,2019_Nov_01_1100,ACPT_experiment_5_30_19,3.1.0,59.954991150319145,
,,,C,D,d,v,,,,,,,,,,0,2,2,9,,,,,,,,,,,,,v,1,2.0182398235237997,767.0708970282785,None,,,,,001,88,2019_Nov_01_1100,ACPT_experiment_5_30_19,3.1.0,59.954991150319145,
,,,C,D,d,v,,,,,,,,,,0,3,3,18,,,,,,,,,,,,,v,1,1.4511064605485444,772.3749414780759,None,,,,,001,88,2019_Nov_01_1100,ACPT_experiment_5_30_19,3.1.0,59.954991150319145,
,,,C,G,g,v,,,,,,,,,,0,4,4,19,,,,,,,,,,,,,v,1,1.6012510032869613,777.1118353592265,None,,,,,001,88,2019_Nov_01_1100,ACPT_experiment_5_30_19,3.1.0,59.954991150319145,
,,,C,G,d,b,,,,,,,,,,0,5,5,3,,,,,,,,,,,,,b,1,1.48444411039236,781.9822540094501,None,,,,,001,88,2019_Nov_01_1100,ACPT_experiment_5_30_19,3.1.0,59.954991150319145,
,,,C,G,y,b,,,,,,,,,,0,6,6,5,,,,,,,,,,,,,b,1,1.7012989678705708,786.7358138479103,None,,,,,001,88,2019_Nov_01_1100,ACPT_experiment_5_30_19,3.1.0,59.954991150319145,
,,,C,D,d,v,,,,,,,,,,0,7,7,0,,,,,,,,,,,,,v,1,1.3343581273102245,791.7229219698629,None,,,,,001,88,2019_Nov_01_1100,ACPT_experiment_5_30_19,3.1.0,59.954991150319145,
,,,C,U,d,n,,,,,,,,,,0,8,8,15,,,,,,,,,,,,,n,1,1.4508366031659534,796.3600416679119,None,,,,,001,88,2019_Nov_01_1100,ACPT_experiment_5_30_19,3.1.0,59.954991150319145,
,,,C,U,y,n,,,,,,,,,,0,9,9,8,,,,,,,,,,,,,n,1,1.317657456802408,801.0800386735218,None,,,,,001,88,2019_Nov_01_1100,ACPT_experiment_5_30_19,3.1.0,59.954991150319145,
,,,C,D,g,b,,,,,,,,,,0,10,10,1,,,,,,,,,,,,,b,1,1.9677897744586517,805.7005521813326,None,,,,,001,88,2019_Nov_01_1100,ACPT_experiment_5_30_19,3.1.0,59.954991150319145,
,,,C,G,y,b,,,,,,,,,,0,11,11,14,,,,,,,,,,,,,b,1,1.2009453460314035,810.9541339041998,None,,,,,001,88,2019_Nov_01_1100,ACPT_experiment_5_30_19,3.1.0,59.954991150319145,
,,,C,U,g,n,,,,,,,,,,0,12,12,7,,,,,,,,,,,,,n,1,1.2342823921680974,815.4408844802128,None,,,,,001,88,2019_Nov_01_1100,ACPT_experiment_5_30_19,3.1.0,59.954991150319145,
,,,C,D,y,b,,,,,,,,,,0,13,13,2,,,,,,,,,,,,,b,1,2.4852228934450977,819.9609793468553,None,,,,,001,88,2019_Nov_01_1100,ACPT_experiment_5_30_19,3.1.0,59.954991150319145,
,,,C,U,d,n,,,,,,,,,,0,14,14,6,,,,,,,,,,,,,n,1,1.1508795569752692,825.7320198462903,None,,,,,001,88,2019_Nov_01_1100,ACPT_experiment_5_30_19,3.1.0,59.954991150319145,
,,,C,U,g,n,,,,,,,,,,0,15,15,16,,,,,,,,,,,,,n,1,1.1172530329522488,830.1689817351235,None,,,,,001,88,2019_Nov_01_1100,ACPT_experiment_5_30_19,3.1.0,59.954991150319145,
,,,C,D,g,b,,,,,,,,,,0,16,16,10,,,,,,,,,,,,,b,1,2.4685484842248115,834.5720493555273,None,,,,,001,88,2019_Nov_01_1100,ACPT_experiment_5_30_19,3.1.0,59.954991150319145,
,,,C,G,g,v,,,,,,,,,,0,17,17,13,,,,,,,,,,,,,v,1,1.6846185215736114,840.3264069938341,None,,,,,001,88,2019_Nov_01_1100,ACPT_experiment_5_30_19,3.1.0,59.954991150319145,
,,,C,U,y,n,,,,,,,,,,0,18,18,17,,,,,,,,,,,,,n,1,1.1175422089845597,845.296815954548,None,,,,,001,88,2019_Nov_01_1100,ACPT_experiment_5_30_19,3.1.0,59.954991150319145,
,,,C,G,g,v,,,,,,,,,,0,19,19,4,,,,,,,,,,,,,v,1,3.2689056377548695,849.7170964915222,None,,,,,001,88,2019_Nov_01_1100,ACPT_experiment_5_30_19,3.1.0,59.954991150319145,
,,,C,G,y,b,,,,,,,,,,1,0,20,14,,,,,,,,,,,,,b,1,0.9173940590926577,856.25510819802,None,,,,,001,88,2019_Nov_01_1100,ACPT_experiment_5_30_19,3.1.0,59.954991150319145,
,,,C,D,y,b,,,,,,,,,,1,1,21,2,,,,,,,,,,,,,b,1,1.667529063247457,860.4753788341859,None,,,,,001,88,2019_Nov_01_1100,ACPT_experiment_5_30_19,3.1.0,59.954991150319145,
,,,C,G,y,b,,,,,,,,,,1,2,22,5,,,,,,,,,,,,,b,1,1.317674662474019,865.4287496517363,None,,,,,001,88,2019_Nov_01_1100,ACPT_experiment_5_30_19,3.1.0,59.954991150319145,
,,,C,D,d,v,,,,,,,,,,1,3,23,9,,,,,,,,,,,,,v,1,0.9340509607864078,870.0322373923937,None,,,,,001,88,2019_Nov_01_1100,ACPT_experiment_5_30_19,3.1.0,59.954991150319145,
,,,C,G,g,v,,,,,,,,,,1,4,24,19,,,,,,,,,,,,,v,1,1.2342772606516519,874.2520993183844,None,,,,,001,88,2019_Nov_01_1100,ACPT_experiment_5_30_19,3.1.0,59.954991150319145,
,,,C,D,d,v,,,,,,,,,,1,5,25,18,,,,,,,,,,,,,v,1,3.452644406149375,878.7721679237375,None,,,,,001,88,2019_Nov_01_1100,ACPT_experiment_5_30_19,3.1.0,59.954991150319145,
,,,C,U,y,n,,,,,,,,,,1,6,26,8,,,,,,,,,,,,,n,1,1.2509516698710286,885.5106281247545,None,,,,,001,88,2019_Nov_01_1100,ACPT_experiment_5_30_19,3.1.0,59.954991150319145,
,,,C,D,d,v,,,,,,,,,,1,7,27,0,,,,,,,,,,,,,v,1,2.685158538194628,890.0643241596918,None,,,,,001,88,2019_Nov_01_1100,ACPT_experiment_5_30_19,3.1.0,59.954991150319145,
,,,C,D,y,b,,,,,,,,,,1,8,28,11,,,,,,,,,,,,,b,1,0.8673285718896295,896.0352634777018,None,,,,,001,88,2019_Nov_01_1100,ACPT_experiment_5_30_19,3.1.0,59.954991150319145,
,,,C,G,g,v,,,,,,,,,,1,9,29,4,,,,,,,,,,,,,v,1,2.6851322769052786,900.2220159553935,None,,,,,001,88,2019_Nov_01_1100,ACPT_experiment_5_30_19,3.1.0,59.954991150319145,
,,,C,U,y,n,,,,,,,,,,1,10,30,17,,,,,,,,,,,,,n,1,1.2009845870388745,906.1929308232375,None,,,,,001,88,2019_Nov_01_1100,ACPT_experiment_5_30_19,3.1.0,59.954991150319145,
,,,C,G,d,b,,,,,,,,,,1,11,31,3,,,,,,,,,,,,,b,1,1.8844204450479083,910.6967153164596,None,,,,,001,88,2019_Nov_01_1100,ACPT_experiment_5_30_19,3.1.0,59.954991150319145,
,,,C,U,d,n,,,,,,,,,,1,12,32,15,,,,,,,,,,,,,n,1,1.2175947013765835,915.8669458211498,None,,,,,001,88,2019_Nov_01_1100,ACPT_experiment_5_30_19,3.1.0,59.954991150319145,
,,,C,D,g,b,,,,,,,,,,1,13,33,1,,,,,,,,,,,,,b,1,4.386446941178292,920.3872830764712,None,,,,,001,88,2019_Nov_01_1100,ACPT_experiment_5_30_19,3.1.0,59.954991150319145,
,,,C,U,g,n,,,,,,,,,,1,14,34,16,,,,,,,,,,,,,n,1,1.1342229571355347,928.059510495611,None,,,,,001,88,2019_Nov_01_1100,ACPT_experiment_5_30_19,3.1.0,59.954991150319145,
,,,C,D,g,b,,,,,,,,,,1,15,35,10,,,,,,,,,,,,,b,1,1.0005161701619727,932.4964606121421,None,,,,,001,88,2019_Nov_01_1100,ACPT_experiment_5_30_19,3.1.0,59.954991150319145,
,,,C,U,g,n,,,,,,,,,,1,16,36,7,,,,,,,,,,,,,n,1,1.167581736752254,936.7660840584622,None,,,,,001,88,2019_Nov_01_1100,ACPT_experiment_5_30_19,3.1.0,59.954991150319145,
,,,C,G,d,b,,,,,,,,,,1,17,37,12,,,,,,,,,,,,,b,1,1.1839349734264033,941.2364518161194,None,,,,,001,88,2019_Nov_01_1100,ACPT_experiment_5_30_19,3.1.0,59.954991150319145,
,,,C,U,d,n,,,,,,,,,,1,18,38,6,,,,,,,,,,,,,n,1,1.2009435349082196,945.7062043955366,None,,,,,001,88,2019_Nov_01_1100,ACPT_experiment_5_30_19,3.1.0,59.954991150319145,
,,,C,G,g,v,,,,,,,,,,1,19,39,13,,,,,,,,,,,,,v,1,1.5509352792041682,950.2098660342226,None,,,,,001,88,2019_Nov_01_1100,ACPT_experiment_5_30_19,3.1.0,59.954991150319145,
,,,C,G,y,b,,,,,,,,,,2,0,40,5,,,,,,,,,,,,,b,1,1.5178366976460893,955.0299233804262,None,,,,,001,88,2019_Nov_01_1100,ACPT_experiment_5_30_19,3.1.0,59.954991150319145,
,,,C,U,y,n,,,,,,,,,,2,1,41,8,,,,,,,,,,,,,n,1,1.8514296253297289,959.8335725525467,None,,,,,001,88,2019_Nov_01_1100,ACPT_experiment_5_30_19,3.1.0,59.954991150319145,
,,,C,G,y,b,,,,,,,,,,2,2,42,14,,,,,,,,,,,,,b,1,1.2509426142532902,964.9708028800487,None,,,,,001,88,2019_Nov_01_1100,ACPT_experiment_5_30_19,3.1.0,59.954991150319145,
,,,C,D,d,v,,,,,,,,,,2,3,43,18,,,,,,,,,,,,,v,1,2.735406948857417,969.5242480743991,None,,,,,001,88,2019_Nov_01_1100,ACPT_experiment_5_30_19,3.1.0,59.954991150319145,
,,,C,U,g,n,,,,,,,,,,2,4,44,7,,,,,,,,,,,,,n,1,1.8347048065097624,975.5454886275038,None,,,,,001,88,2019_Nov_01_1100,ACPT_experiment_5_30_19,3.1.0,59.954991150319145,
,,,C,U,d,n,,,,,,,,,,2,5,45,15,,,,,,,,,,,,,n,1,1.2342739402583902,980.6493318011235,None,,,,,001,88,2019_Nov_01_1100,ACPT_experiment_5_30_19,3.1.0,59.954991150319145,
,,,C,D,d,v,,,,,,,,,,2,6,46,9,,,,,,,,,,,,,v,1,1.3010216848815617,985.1694275733271,None,,,,,001,88,2019_Nov_01_1100,ACPT_experiment_5_30_19,3.1.0,59.954991150319145,
,,,C,G,g,v,,,,,,,,,,2,7,47,19,,,,,,,,,,,,,v,1,2.535287475086079,989.7562004563433,None,,,,,001,88,2019_Nov_01_1100,ACPT_experiment_5_30_19,3.1.0,59.954991150319145,
,,,C,D,d,v,,,,,,,,,,2,8,48,0,,,,,,,,,,,,,v,1,1.0507866161606216,995.5773161023062,None,,,,,001,88,2019_Nov_01_1100,ACPT_experiment_5_30_19,3.1.0,59.954991150319145,
,,,C,U,d,n,,,,,,,,,,2,9,49,6,,,,,,,,,,,,,n,1,1.1672792791487154,999.9308724392604,None,,,,,001,88,2019_Nov_01_1100,ACPT_experiment_5_30_19,3.1.0,59.954991150319145,
,,,C,G,g,v,,,,,,,,,,2,10,50,4,,,,,,,,,,,,,v,1,2.235065099320309,1004.4006229057004,None,,,,,001,88,2019_Nov_01_1100,ACPT_experiment_5_30_19,3.1.0,59.954991150319145,
,,,C,U,g,n,,,,,,,,,,2,11,51,16,,,,,,,,,,,,,n,1,1.000743768000575,1009.9215059128655,None,,,,,001,88,2019_Nov_01_1100,ACPT_experiment_5_30_19,3.1.0,59.954991150319145,
,,,C,D,g,b,,,,,,,,,,2,12,52,1,,,,,,,,,,,,,b,1,2.7687717655526285,1014.2080709091024,None,,,,,001,88,2019_Nov_01_1100,ACPT_experiment_5_30_19,3.1.0,59.954991150319145,
,,,C,D,y,b,,,,,,,,,,2,13,53,2,,,,,,,,,,,,,b,1,0.9841073923716976,1020.2459725898552,None,,,,,001,88,2019_Nov_01_1100,ACPT_experiment_5_30_19,3.1.0,59.954991150319145,
,,,C,U,y,n,,,,,,,,,,2,14,54,17,,,,,,,,,,,,,n,1,0.6334198748454583,1024.5329266757653,None,,,,,001,88,2019_Nov_01_1100,ACPT_experiment_5_30_19,3.1.0,59.954991150319145,
,,,C,G,d,b,,,,,,,,,,2,15,55,12,,,,,,,,,,,,,b,1,1.5344945049009766,1028.4523380244455,None,,,,,001,88,2019_Nov_01_1100,ACPT_experiment_5_30_19,3.1.0,59.954991150319145,
,,,C,D,g,b,,,,,,,,,,2,16,56,10,,,,,,,,,,,,,b,1,2.1683270140219975,1033.2724995102426,None,,,,,001,88,2019_Nov_01_1100,ACPT_experiment_5_30_19,3.1.0,59.954991150319145,
,,,C,D,y,b,,,,,,,,,,2,17,57,11,,,,,,,,,,,,,b,1,0.8840370905991222,1038.7099292726143,None,,,,,001,88,2019_Nov_01_1100,ACPT_experiment_5_30_19,3.1.0,59.954991150319145,
,,,C,G,d,b,,,,,,,,,,2,18,58,3,,,,,,,,,,,,,b,1,2.9688882207856295,1042.8964767915104,None,,,,,001,88,2019_Nov_01_1100,ACPT_experiment_5_30_19,3.1.0,59.954991150319145,
,,,C,G,g,v,,,,,,,,,,2,19,59,13,,,,,,,,,,,,,v,1,1.0174519848551427,1049.1511808071637,None,,,,,001,88,2019_Nov_01_1100,ACPT_experiment_5_30_19,3.1.0,59.954991150319145,
,,,C,G,y,b,,,,,,,,,,3,0,60,5,,,,,,,,,,,,,b,1,0.8806801734217515,1053.4744515390175,None,,,,,001,88,2019_Nov_01_1100,ACPT_experiment_5_30_19,3.1.0,59.954991150319145,
,,,C,D,y,b,,,,,,,,,,3,1,61,2,,,,,,,,,,,,,b,1,0.8506816313756644,1057.64094780916,None,,,,,001,88,2019_Nov_01_1100,ACPT_experiment_5_30_19,3.1.0,59.954991150319145,
,,,C,U,d,n,,,,,,,,,,3,2,62,15,,,,,,,,,,,,,n,1,1.017372295426867,1061.79415435782,None,,,,,001,88,2019_Nov_01_1100,ACPT_experiment_5_30_19,3.1.0,59.954991150319145,
,,,C,D,d,v,,,,,,,,,,3,3,63,9,,,,,,,,,,,,,v,1,2.9188864247553283,1066.0973430518216,None,,,,,001,88,2019_Nov_01_1100,ACPT_experiment_5_30_19,3.1.0,59.954991150319145,
,,,C,D,d,v,,,,,,,,,,3,4,64,0,,,,,,,,,,,,,v,1,2.2517407159548384,1072.3020211231324,None,,,,,001,88,2019_Nov_01_1100,ACPT_experiment_5_30_19,3.1.0,59.954991150319145,
,,,C,U,g,n,,,,,,,,,,3,5,65,16,,,,,,,,,,,,,n,1,1.6179332607071046,1077.8395767283928,None,,,,,001,88,2019_Nov_01_1100,ACPT_experiment_5_30_19,3.1.0,59.954991150319145,
,,,C,D,g,b,,,,,,,,,,3,6,66,10,,,,,,,,,,,,,b,1,2.8188146137135845,1082.7432835244226,None,,,,,001,88,2019_Nov_01_1100,ACPT_experiment_5_30_19,3.1.0,59.954991150319145,
,,,C,G,g,v,,,,,,,,,,3,7,67,13,,,,,,,,,,,,,v,1,1.2676333235831407,1088.847903368116,None,,,,,001,88,2019_Nov_01_1100,ACPT_experiment_5_30_19,3.1.0,59.954991150319145,
,,,C,G,d,b,,,,,,,,,,3,8,68,3,,,,,,,,,,,,,b,1,1.3841603979162755,1093.401618721704,None,,,,,001,88,2019_Nov_01_1100,ACPT_experiment_5_30_19,3.1.0,59.954991150319145,
,,,C,D,d,v,,,,,,,,,,3,9,69,18,,,,,,,,,,,,,v,1,1.1509070256797713,1098.0715472215716,None,,,,,001,88,2019_Nov_01_1100,ACPT_experiment_5_30_19,3.1.0,59.954991150319145,
,,,C,D,y,b,,,,,,,,,,3,10,70,11,,,,,,,,,,,,,b,1,0.8638663077026649,1102.5282585052619,None,,,,,001,88,2019_Nov_01_1100,ACPT_experiment_5_30_19,3.1.0,59.954991150319145,
,,,C,G,g,v,,,,,,,,,,3,11,71,19,,,,,,,,,,,,,v,1,1.9681885234549554,1106.67803810664,None,,,,,001,88,2019_Nov_01_1100,ACPT_experiment_5_30_19,3.1.0,59.954991150319145,
,,,C,U,d,n,,,,,,,,,,3,12,72,6,,,,,,,,,,,,,n,1,1.2009293477758547,1111.9320264267053,None,,,,,001,88,2019_Nov_01_1100,ACPT_experiment_5_30_19,3.1.0,59.954991150319145,
,,,C,G,y,b,,,,,,,,,,3,13,73,14,,,,,,,,,,,,,b,1,1.0507781642509144,1116.435474352833,None,,,,,001,88,2019_Nov_01_1100,ACPT_experiment_5_30_19,3.1.0,59.954991150319145,
,,,C,G,d,b,,,,,,,,,,3,14,74,12,,,,,,,,,,,,,b,1,2.068227432421736,1120.7554002416646,None,,,,,001,88,2019_Nov_01_1100,ACPT_experiment_5_30_19,3.1.0,59.954991150319145,
,,,C,G,g,v,,,,,,,,,,3,15,75,4,,,,,,,,,,,,,v,1,1.9181381289472483,1126.092751854062,None,,,,,001,88,2019_Nov_01_1100,ACPT_experiment_5_30_19,3.1.0,59.954991150319145,
,,,C,U,g,n,,,,,,,,,,3,16,76,7,,,,,,,,,,,,,n,1,1.7513593235571534,1131.2966825351268,None,,,,,001,88,2019_Nov_01_1100,ACPT_experiment_5_30_19,3.1.0,59.954991150319145,
,,,C,U,y,n,,,,,,,,,,3,17,77,8,,,,,,,,,,,,,n,1,1.8514097029728873,1136.3171657368057,None,,,,,001,88,2019_Nov_01_1100,ACPT_experiment_5_30_19,3.1.0,59.954991150319145,
,,,C,U,y,n,,,,,,,,,,3,18,78,17,,,,,,,,,,,,,n,1,0.9007142165028199,1141.437684828914,None,,,,,001,88,2019_Nov_01_1100,ACPT_experiment_5_30_19,3.1.0,59.954991150319145,
,,,C,D,g,b,,,,,,,,,,3,19,79,1,,,,,,,,,,,,,b,1,1.9012014086920317,1145.6411391845304,None,,,,,001,88,2019_Nov_01_1100,ACPT_experiment_5_30_19,3.1.0,59.954991150319145,
,,,C,D,y,b,,,,,,,,,,4,0,80,2,,,,,,,,,,,,,b,1,2.0348795195450293,1150.811474130669,None,,,,,001,88,2019_Nov_01_1100,ACPT_experiment_5_30_19,3.1.0,59.954991150319145,
,,,C,G,d,b,,,,,,,,,,4,1,81,3,,,,,,,,,,,,,b,1,3.085842720234723,1156.1321643135652,None,,,,,001,88,2019_Nov_01_1100,ACPT_experiment_5_30_19,3.1.0,59.954991150319145,
,,,C,D,g,b,,,,,,,,,,4,2,82,1,,,,,,,,,,,,,b,1,2.902209298850721,1162.5036543941933,None,,,,,001,88,2019_Nov_01_1100,ACPT_experiment_5_30_19,3.1.0,59.954991150319145,
,,,C,U,d,n,,,,,,,,,,4,3,83,15,,,,,,,,,,,,,n,1,1.334409442472861,1168.6916369265118,None,,,,,001,88,2019_Nov_01_1100,ACPT_experiment_5_30_19,3.1.0,59.954991150319145,
,,,C,U,y,n,,,,,,,,,,4,4,84,17,,,,,,,,,,,,,n,1,0.8670502625973313,1173.3121036469693,None,,,,,001,88,2019_Nov_01_1100,ACPT_experiment_5_30_19,3.1.0,59.954991150319145,
,,,C,U,g,n,,,,,,,,,,4,5,85,7,,,,,,,,,,,,,n,1,0.9340579034260372,1177.4482943896537,None,,,,,001,88,2019_Nov_01_1100,ACPT_experiment_5_30_19,3.1.0,59.954991150319145,
,,,C,G,d,b,,,,,,,,,,4,6,86,12,,,,,,,,,,,,,b,1,2.6682541163063433,1181.6852536221713,None,,,,,001,88,2019_Nov_01_1100,ACPT_experiment_5_30_19,3.1.0,59.954991150319145,
,,,C,G,y,b,,,,,,,,,,4,7,87,5,,,,,,,,,,,,,b,1,1.6512042008407661,1187.6393890356403,None,,,,,001,88,2019_Nov_01_1100,ACPT_experiment_5_30_19,3.1.0,59.954991150319145,
,,,C,D,d,v,,,,,,,,,,4,8,88,18,,,,,,,,,,,,,v,1,1.5345265014138931,1192.5763848830366,None,,,,,001,88,2019_Nov_01_1100,ACPT_experiment_5_30_19,3.1.0,59.954991150319145,
,,,C,D,y,b,,,,,,,,,,4,9,89,11,,,,,,,,,,,,,b,1,1.2176034551403063,1197.380045827459,None,,,,,001,88,2019_Nov_01_1100,ACPT_experiment_5_30_19,3.1.0,59.954991150319145,
,,,C,G,g,v,,,,,,,,,,4,10,90,4,,,,,,,,,,,,,v,1,1.9679108178697788,1201.9003897235652,None,,,,,001,88,2019_Nov_01_1100,ACPT_experiment_5_30_19,3.1.0,59.954991150319145,
,,,C,U,d,n,,,,,,,,,,4,11,91,6,,,,,,,,,,,,,n,1,2.685424471475926,1207.1540958102378,None,,,,,001,88,2019_Nov_01_1100,ACPT_experiment_5_30_19,3.1.0,59.954991150319145,
,,,C,G,y,b,,,,,,,,,,4,12,92,14,,,,,,,,,,,,,b,1,4.636875498246809,1213.1252708761403,None,,,,,001,88,2019_Nov_01_1100,ACPT_experiment_5_30_19,3.1.0,59.954991150319145,
,,,C,D,d,v,,,,,,,,,,4,13,93,0,,,,,,,,,,,,,b,0,8.206217828033914,1221.0479633766709,None,,,,,001,88,2019_Nov_01_1100,ACPT_experiment_5_30_19,3.1.0,59.954991150319145,
,,,C,D,g,b,,,,,,,,,,4,14,94,10,,,,,,,,,,,,,b,1,2.05158471786217,1232.5399897550788,None,,,,,001,88,2019_Nov_01_1100,ACPT_experiment_5_30_19,3.1.0,59.954991150319145,
,,,C,U,g,n,,,,,,,,,,4,15,95,16,,,,,,,,,,,,,n,1,1.017454097832342,1237.8773652139353,None,,,,,001,88,2019_Nov_01_1100,ACPT_experiment_5_30_19,3.1.0,59.954991150319145,
,,,C,G,g,v,,,,,,,,,,4,16,96,19,,,,,,,,,,,,,v,1,1.5174270819088633,1242.1976729479447,None,,,,,001,88,2019_Nov_01_1100,ACPT_experiment_5_30_19,3.1.0,59.954991150319145,
,,,C,G,g,v,,,,,,,,,,4,17,97,13,,,,,,,,,,,,,v,1,1.6512588363957548,1246.984254093366,None,,,,,001,88,2019_Nov_01_1100,ACPT_experiment_5_30_19,3.1.0,59.954991150319145,
,,,C,D,d,v,,,,,,,,,,4,18,98,9,,,,,,,,,,,,,v,1,4.653565302015522,1251.9213214801348,None,,,,,001,88,2019_Nov_01_1100,ACPT_experiment_5_30_19,3.1.0,59.954991150319145,
,,,C,U,y,n,,,,,,,,,,4,19,99,8,,,,,,,,,,,,,n,1,1.5178264346141077,1259.8606639397194,None,,,,,001,88,2019_Nov_01_1100,ACPT_experiment_5_30_19,3.1.0,59.954991150319145,
,,,C,U,y,n,,,,,,,,,,5,0,100,8,,,,,,,,,,,,,n,1,0.9175141969435572,1264.6474726829774,None,,,,,001,88,2019_Nov_01_1100,ACPT_experiment_5_30_19,3.1.0,59.954991150319145,
,,,C,G,y,b,,,,,,,,,,5,1,101,5,,,,,,,,,,,,,b,1,1.434029076378465,1268.8678565143546,None,,,,,001,88,2019_Nov_01_1100,ACPT_experiment_5_30_19,3.1.0,59.954991150319145,
,,,C,D,d,v,,,,,,,,,,5,2,102,18,,,,,,,,,,,,,v,1,8.940143277969582,1273.5876983670614,None,,,,,001,88,2019_Nov_01_1100,ACPT_experiment_5_30_19,3.1.0,59.954991150319145,
,,,C,D,d,v,,,,,,,,,,5,3,103,0,,,,,,,,,,,,,v,1,3.235957681290529,1285.7968130869367,None,,,,,001,88,2019_Nov_01_1100,ACPT_experiment_5_30_19,3.1.0,59.954991150319145,
,,,C,D,y,b,,,,,,,,,,5,4,104,11,,,,,,,,,,,,,b,1,1.4010971181705827,1292.301863253545,None,,,,,001,88,2019_Nov_01_1100,ACPT_experiment_5_30_19,3.1.0,59.954991150319145,
,,,C,G,d,b,,,,,,,,,,5,5,105,12,,,,,,,,,,,,,b,1,1.2007760059959764,1297.0055879193242,None,,,,,001,88,2019_Nov_01_1100,ACPT_experiment_5_30_19,3.1.0,59.954991150319145,
,,,C,D,g,b,,,,,,,,,,5,6,106,10,,,,,,,,,,,,,b,1,1.3677087568712523,1301.4921748905253,None,,,,,001,88,2019_Nov_01_1100,ACPT_experiment_5_30_19,3.1.0,59.954991150319145,
,,,C,G,y,b,,,,,,,,,,5,7,107,14,,,,,,,,,,,,,b,1,1.5509123383080805,1306.1626458218443,None,,,,,001,88,2019_Nov_01_1100,ACPT_experiment_5_30_19,3.1.0,59.954991150319145,
,,,C,G,g,v,,,,,,,,,,5,8,108,19,,,,,,,,,,,,,v,1,1.8013768159898973,1310.9826892827687,None,,,,,001,88,2019_Nov_01_1100,ACPT_experiment_5_30_19,3.1.0,59.954991150319145,
,,,C,D,d,v,,,,,,,,,,5,9,109,9,,,,,,,,,,,,,v,1,12.225987145249746,1316.069846274867,None,,,,,001,88,2019_Nov_01_1100,ACPT_experiment_5_30_19,3.1.0,59.954991150319145,
,,,C,U,d,n,,,,,,,,,,5,10,110,15,,,,,,,,,,,,,n,1,1.3177045460106456,1331.5816060498773,None,,,,,001,88,2019_Nov_01_1100,ACPT_experiment_5_30_19,3.1.0,59.954991150319145,
,,,C,D,g,b,,,,,,,,,,5,11,111,1,,,,,,,,,,,,,b,1,3.919530580968967,1336.1850829237937,None,,,,,001,88,2019_Nov_01_1100,ACPT_experiment_5_30_19,3.1.0,59.954991150319145,
,,,C,G,g,v,,,,,,,,,,5,12,112,13,,,,,,,,,,,,,n,0,1.1008436514539426,1343.39054551338,None,,,,,001,88,2019_Nov_01_1100,ACPT_experiment_5_30_19,3.1.0,59.954991150319145,
,,,C,U,y,n,,,,,,,,,,5,13,113,17,,,,,,,,,,,,,n,1,1.9175881511473563,1347.7942672511772,None,,,,,001,88,2019_Nov_01_1100,ACPT_experiment_5_30_19,3.1.0,59.954991150319145,
,,,C,U,g,n,,,,,,,,,,5,14,114,7,,,,,,,,,,,,,n,1,1.5845448994086837,1352.9811377537426,None,,,,,001,88,2019_Nov_01_1100,ACPT_experiment_5_30_19,3.1.0,59.954991150319145,
,,,C,D,y,b,,,,,,,,,,5,15,115,2,,,,,,,,,,,,,b,1,1.6512576289796925,1357.8514924109404,None,,,,,001,88,2019_Nov_01_1100,ACPT_experiment_5_30_19,3.1.0,59.954991150319145,
,,,C,G,g,v,,,,,,,,,,5,16,116,4,,,,,,,,,,,,,v,1,2.7687717655526285,1362.788558892148,None,,,,,001,88,2019_Nov_01_1100,ACPT_experiment_5_30_19,3.1.0,59.954991150319145,
,,,C,U,g,n,,,,,,,,,,5,17,117,16,,,,,,,,,,,,,n,1,0.9507317089373828,1368.8431404154899,None,,,,,001,88,2019_Nov_01_1100,ACPT_experiment_5_30_19,3.1.0,59.954991150319145,
,,,C,U,d,n,,,,,,,,,,5,18,118,6,,,,,,,,,,,,,n,1,1.0172047665146238,1373.0966155839324,None,,,,,001,88,2019_Nov_01_1100,ACPT_experiment_5_30_19,3.1.0,59.954991150319145,
,,,C,G,d,b,,,,,,,,,,5,19,119,3,0,0,0,0,0,0,0,0,,,,,b,1,2.034887971453827,1377.3996159211028,None,,,,,001,88,2019_Nov_01_1100,ACPT_experiment_5_30_19,3.1.0,59.954991150319145,
,,,C,G,d,b,L,U,d,R,u,,,,,5,19,119,3,0,0,0,0,,,,,0,0,0,21,,,,,,up,1.1508792551212537,1428.5883576159704,None,001,88,2019_Nov_01_1100,ACPT_experiment_5_30_19,3.1.0,59.954991150319145,
,,,C,G,d,b,R,D,y,L,y,,,,,5,19,119,3,0,0,0,0,,,,,0,1,1,26,,,,,,down,1.2342666957647452,1431.0402060333954,None,001,88,2019_Nov_01_1100,ACPT_experiment_5_30_19,3.1.0,59.954991150319145,
,,,C,G,d,b,L,D,g,R,i,,,,,5,19,119,3,0,0,0,0,,,,,0,2,2,15,,,,,,up,1.5344803177677022,1433.5754708694394,None,001,88,2019_Nov_01_1100,ACPT_experiment_5_30_19,3.1.0,59.954991150319145,
,,,C,G,d,b,L,G,y,L,y,,,,,5,19,119,3,0,0,0,0,,,,,0,3,3,34,,,,,,down,1.0341088865488928,1436.410943290407,None,001,88,2019_Nov_01_1100,ACPT_experiment_5_30_19,3.1.0,59.954991150319145,
,,,C,G,d,b,R,G,d,R,i,,,,,5,19,119,3,0,0,0,0,,,,,0,4,4,5,,,,,,up,1.0508186126735382,1438.746047902403,None,001,88,2019_Nov_01_1100,ACPT_experiment_5_30_19,3.1.0,59.954991150319145,
,,,C,G,d,b,L,D,d,L,c ,,,,,5,19,119,3,0,0,0,0,,,,,0,5,5,12,,,,,,up,0.7672748720815434,1441.0644615032143,None,001,88,2019_Nov_01_1100,ACPT_experiment_5_30_19,3.1.0,59.954991150319145,
,,,C,G,d,b,L,D,d,R,c ,,,,,5,19,119,3,0,0,0,0,,,,,0,6,6,13,,,,,,up,0.9340361699451023,1443.0993401171982,None,001,88,2019_Nov_01_1100,ACPT_experiment_5_30_19,3.1.0,59.954991150319145,
,,,C,G,d,b,R,G,g,R,c ,,,,,5,19,119,3,0,0,0,0,,,,,0,7,7,7,,,,,,up,0.950739858992165,1445.3176665124201,None,001,88,2019_Nov_01_1100,ACPT_experiment_5_30_19,3.1.0,59.954991150319145,
,,,C,G,d,b,L,D,y,R,y,,,,,5,19,119,3,0,0,0,0,,,,,0,8,8,33,,,,,,down,0.9507172199491833,1447.5527122930907,None,001,88,2019_Nov_01_1100,ACPT_experiment_5_30_19,3.1.0,59.954991150319145,
,,,C,G,d,b,L,G,g,R,c ,,,,,5,19,119,3,0,0,0,0,,,,,0,9,9,19,,,,,,up,0.8840219979038011,1449.7877100789929,None,001,88,2019_Nov_01_1100,ACPT_experiment_5_30_19,3.1.0,59.954991150319145,
,,,C,G,d,b,R,U,g,L,u,,,,,5,19,119,3,0,0,0,0,,,,,0,10,10,10,,,,,,down,1.367709964288224,1451.9560425263844,None,001,88,2019_Nov_01_1100,ACPT_experiment_5_30_19,3.1.0,59.954991150319145,
,,,C,G,d,b,L,G,d,R,i,,,,,5,19,119,3,0,0,0,0,,,,,0,11,11,17,,,,,,up,1.0007507106402045,1454.6080520734195,None,001,88,2019_Nov_01_1100,ACPT_experiment_5_30_19,3.1.0,59.954991150319145,
,,,C,G,d,b,R,D,d,L,c,,,,,5,19,119,3,0,0,0,0,,,,,0,12,12,0,,,,,,up,1.1675681533270108,1456.8931141391085,None,001,88,2019_Nov_01_1100,ACPT_experiment_5_30_19,3.1.0,59.954991150319145,
,,,C,G,d,b,L,U,g,R,u,,,,,5,19,119,3,0,0,0,0,,,,,0,13,13,23,,,,,,up,0.7839221144504336,1459.34496768805,None,001,88,2019_Nov_01_1100,ACPT_experiment_5_30_19,3.1.0,59.954991150319145,
,,,C,G,d,b,R,U,y,R,u,,,,,5,19,119,3,0,0,0,0,,,,,0,14,14,31,,,,,,down,0.9173539125240495,1461.4132020631114,None,001,88,2019_Nov_01_1100,ACPT_experiment_5_30_19,3.1.0,59.954991150319145,
,,,C,G,d,b,L,U,y,L,u,,,,,5,19,119,3,0,0,0,0,,,,,0,15,15,24,,,,,,down,0.8173056460864245,1463.6148377490035,None,001,88,2019_Nov_01_1100,ACPT_experiment_5_30_19,3.1.0,59.954991150319145,
,,,C,G,d,b,R,G,y,L,y,,,,,5,19,119,3,0,0,0,0,,,,,0,16,16,28,,,,,,down,0.7839269441128636,1465.71645716497,None,001,88,2019_Nov_01_1100,ACPT_experiment_5_30_19,3.1.0,59.954991150319145,
,,,C,G,d,b,R,U,d,L,u,,,,,5,19,119,3,0,0,0,0,,,,,0,17,17,8,,,,,,up,0.96739162916856,1467.7846915400314,None,001,88,2019_Nov_01_1100,ACPT_experiment_5_30_19,3.1.0,59.954991150319145,
,,,C,G,d,b,R,D,g,R,i,,,,,5,19,119,3,0,0,0,0,,,,,0,18,18,3,,,,,,down,1.0341140180653383,1470.0363954298118,None,001,88,2019_Nov_01_1100,ACPT_experiment_5_30_19,3.1.0,59.954991150319145,
,,,C,G,d,b,R,D,g,L,i,,,,,5,19,119,3,0,0,0,0,,,,,0,19,19,2,,,,,,up,1.0174559089564355,1472.3381122842165,None,001,88,2019_Nov_01_1100,ACPT_experiment_5_30_19,3.1.0,59.954991150319145,
,,,C,G,d,b,R,D,d,R,c ,,,,,5,19,119,3,0,0,0,0,,,,,0,20,20,1,,,,,,up,0.8840316572295706,1474.6231764628828,None,001,88,2019_Nov_01_1100,ACPT_experiment_5_30_19,3.1.0,59.954991150319145,
,,,C,G,d,b,L,U,g,L,u,,,,,5,19,119,3,0,0,0,0,,,,,0,21,21,22,,,,,,up,0.93403979219147,1476.7914914027488,None,001,88,2019_Nov_01_1100,ACPT_experiment_5_30_19,3.1.0,59.954991150319145,
,,,C,G,d,b,R,U,d,R,u,,,,,5,19,119,3,0,0,0,0,,,,,0,22,22,9,,,,,,up,0.8673026124542957,1479.0098606612237,None,001,88,2019_Nov_01_1100,ACPT_experiment_5_30_19,3.1.0,59.954991150319145,
,,,C,G,d,b,L,D,y,L,y,,,,,5,19,119,3,0,0,0,0,,,,,0,23,23,32,,,,,,down,0.7839133606876203,1481.1614845899066,None,001,88,2019_Nov_01_1100,ACPT_experiment_5_30_19,3.1.0,59.954991150319145,
,,,C,G,d,b,L,G,d,L,i,,,,,5,19,119,3,0,0,0,0,,,,,0,24,24,16,,,,,,up,0.8506598978947295,1483.229708098227,None,001,88,2019_Nov_01_1100,ACPT_experiment_5_30_19,3.1.0,59.954991150319145,
,,,C,G,d,b,L,G,y,R,y,,,,,5,19,119,3,0,0,0,0,,,,,0,25,25,35,,,,,,down,0.9507160125340306,1485.3646639566232,None,001,88,2019_Nov_01_1100,ACPT_experiment_5_30_19,3.1.0,59.954991150319145,
,,,C,G,d,b,L,U,y,R,u,,,,,5,19,119,3,0,0,0,0,,,,,0,26,26,25,,,,,,down,0.7504709675413324,1487.6163400758442,None,001,88,2019_Nov_01_1100,ACPT_experiment_5_30_19,3.1.0,59.954991150319145,
,,,C,G,d,b,L,D,g,L,i,,,,,5,19,119,3,0,0,0,0,,,,,0,27,27,14,,,,,,up,0.9674169848967722,1489.6512162749968,None,001,88,2019_Nov_01_1100,ACPT_experiment_5_30_19,3.1.0,59.954991150319145,
,,,C,G,d,b,L,U,d,L,u,,,,,5,19,119,3,0,0,0,0,,,,,0,28,28,20,,,,,,up,1.2175871550298325,1491.9029349556176,None,001,88,2019_Nov_01_1100,ACPT_experiment_5_30_19,3.1.0,59.954991150319145,
,,,C,G,d,b,R,D,y,R,y,,,,,5,19,119,3,0,0,0,0,,,,,0,29,29,27,,,,,,down,0.767231103267477,1494.4048385972128,None,001,88,2019_Nov_01_1100,ACPT_experiment_5_30_19,3.1.0,59.954991150319145,
,,,C,G,d,b,R,U,g,R,u,,,,,5,19,119,3,0,0,0,0,,,,,0,30,30,11,,,,,,up,0.9341043889253342,1496.4563623405875,None,001,88,2019_Nov_01_1100,ACPT_experiment_5_30_19,3.1.0,59.954991150319145,
,,,C,G,d,b,R,G,y,R,y,,,,,5,19,119,3,0,0,0,0,,,,,0,31,31,29,,,,,,down,0.7339314870132512,1498.674725863838,None,001,88,2019_Nov_01_1100,ACPT_experiment_5_30_19,3.1.0,59.954991150319145,
,,,C,G,d,b,R,G,g,L,c ,,,,,5,19,119,3,0,0,0,0,,,,,0,32,32,6,,,,,,up,0.8505919807685132,1500.6929720262942,None,001,88,2019_Nov_01_1100,ACPT_experiment_5_30_19,3.1.0,59.954991150319145,
,,,C,G,d,b,R,U,y,L,u,,,,,5,19,119,3,0,0,0,0,,,,,0,33,33,30,,,,,,down,0.6838403422298143,1502.8278813991901,None,001,88,2019_Nov_01_1100,ACPT_experiment_5_30_19,3.1.0,59.954991150319145,
,,,C,G,d,b,R,G,d,L,i,,,,,5,19,119,3,0,0,0,0,,,,,0,34,34,4,,,,,,up,0.88402411088191,1504.7960041184951,None,001,88,2019_Nov_01_1100,ACPT_experiment_5_30_19,3.1.0,59.954991150319145,
,,,C,G,d,b,L,G,g,L,c ,,,,,5,19,119,3,0,0,0,0,,,,,0,35,35,18,,,,,,up,0.8673503053705645,1506.9643103045983,None,001,88,2019_Nov_01_1100,ACPT_experiment_5_30_19,3.1.0,59.954991150319145,
,,,C,G,d,b,R,G,y,R,y,,,,,5,19,119,3,0,0,0,0,,,,,1,0,36,29,,,,,,down,0.7672425737155208,1509.1159680409173,None,001,88,2019_Nov_01_1100,ACPT_experiment_5_30_19,3.1.0,59.954991150319145,
,,,C,G,d,b,R,D,y,L,y,,,,,5,19,119,3,0,0,0,0,,,,,1,1,37,26,,,,,,down,0.7005274293123875,1511.1675162344573,None,001,88,2019_Nov_01_1100,ACPT_experiment_5_30_19,3.1.0,59.954991150319145,
,,,C,G,d,b,R,U,y,L,u,,,,,5,19,119,3,0,0,0,0,,,,,1,2,38,30,,,,,,down,0.7170158965318478,1513.1691836753798,None,001,88,2019_Nov_01_1100,ACPT_experiment_5_30_19,3.1.0,59.954991150319145,
,,,C,G,d,b,L,G,d,L,i,,,,,5,19,119,3,0,0,0,0,,,,,1,3,39,16,,,,,,up,0.6171236885584221,1515.2039074383147,None,001,88,2019_Nov_01_1100,ACPT_experiment_5_30_19,3.1.0,59.954991150319145,
,,,C,G,d,b,L,D,g,L,i,,,,,5,19,119,3,0,0,0,0,,,,,1,4,40,14,,,,,,up,1.2843294662825429,1517.1053391615287,None,001,88,2019_Nov_01_1100,ACPT_experiment_5_30_19,3.1.0,59.954991150319145,
,,,C,G,d,b,L,G,y,R,y,,,,,5,19,119,3,0,0,0,0,,,,,1,5,41,35,,,,,,down,1.1008463681391731,1519.6739546271338,None,001,88,2019_Nov_01_1100,ACPT_experiment_5_30_19,3.1.0,59.954991150319145,
,,,C,G,d,b,R,G,y,L,y,,,,,5,19,119,3,0,0,0,0,,,,,1,6,42,28,,,,,,down,1.134197601408232,1522.0590960502122,None,001,88,2019_Nov_01_1100,ACPT_experiment_5_30_19,3.1.0,59.954991150319145,
,,,C,G,d,b,L,D,y,R,y,,,,,5,19,119,3,0,0,0,0,,,,,1,7,43,33,,,,,,down,0.7838958531619937,1524.4942920937528,None,001,88,2019_Nov_01_1100,ACPT_experiment_5_30_19,3.1.0,59.954991150319145,
,,,C,G,d,b,L,G,g,L,c ,,,,,5,19,119,3,0,0,0,0,,,,,1,8,44,18,,,,,,up,0.783916681080882,1526.5791797482607,None,001,88,2019_Nov_01_1100,ACPT_experiment_5_30_19,3.1.0,59.954991150319145,
,,,C,G,d,b,R,U,g,R,u,,,,,5,19,119,3,0,0,0,0,,,,,1,9,45,11,,,,,,up,1.6012045177867549,1528.647412312198,None,001,88,2019_Nov_01_1100,ACPT_experiment_5_30_19,3.1.0,59.954991150319145,
,,,C,G,d,b,L,U,d,R,u,,,,,5,19,119,3,0,0,0,0,,,,,1,10,46,21,,,,,,up,0.7672561571398546,1531.5329269776184,None,001,88,2019_Nov_01_1100,ACPT_experiment_5_30_19,3.1.0,59.954991150319145,
,,,C,G,d,b,R,G,d,L,i,,,,,5,19,119,3,0,0,0,0,,,,,1,11,47,4,,,,,,up,0.8340096369875027,1533.5677751043586,None,001,88,2019_Nov_01_1100,ACPT_experiment_5_30_19,3.1.0,59.954991150319145,
,,,C,G,d,b,L,D,d,R,c ,,,,,5,19,119,3,0,0,0,0,,,,,1,12,48,13,,,,,,up,1.000642345090455,1535.6861546560513,None,001,88,2019_Nov_01_1100,ACPT_experiment_5_30_19,3.1.0,59.954991150319145,
,,,C,G,d,b,R,D,g,L,i,,,,,5,19,119,3,0,0,0,0,,,,,1,13,49,2,,,,,,down,1.1174881771376022,1537.9711518231525,None,001,88,2019_Nov_01_1100,ACPT_experiment_5_30_19,3.1.0,59.954991150319145,
,,,C,G,d,b,R,G,d,R,i,,,,,5,19,119,3,0,0,0,0,,,,,1,14,50,5,,,,,,up,1.2009166699117486,1540.3729444127002,None,001,88,2019_Nov_01_1100,ACPT_experiment_5_30_19,3.1.0,59.954991150319145,
,,,C,G,d,b,L,D,d,L,c ,,,,,5,19,119,3,0,0,0,0,,,,,1,15,51,12,,,,,,up,0.6671731775040826,1542.8581660987293,None,001,88,2019_Nov_01_1100,ACPT_experiment_5_30_19,3.1.0,59.954991150319145,
,,,C,G,d,b,R,G,g,R,c ,,,,,5,19,119,3,0,0,0,0,,,,,1,16,52,7,,,,,,up,1.1008590460023697,1544.8096116921297,None,001,88,2019_Nov_01_1100,ACPT_experiment_5_30_19,3.1.0,59.954991150319145,
,,,C,G,d,b,L,G,y,L,y,,,,,5,19,119,3,0,0,0,0,,,,,1,17,53,34,,,,,,down,0.8506689535115584,1547.1947543226233,None,001,88,2019_Nov_01_1100,ACPT_experiment_5_30_19,3.1.0,59.954991150319145,
,,,C,G,d,b,R,D,d,R,c ,,,,,5,19,119,3,0,0,0,0,,,,,1,18,54,1,,,,,,up,1.0341179421657216,1549.3297258774219,None,001,88,2019_Nov_01_1100,ACPT_experiment_5_30_19,3.1.0,59.954991150319145,
,,,C,G,d,b,R,U,g,L,u,,,,,5,19,119,3,0,0,0,0,,,,,1,19,55,10,,,,,,up,1.0341454108702237,1551.648149137559,None,001,88,2019_Nov_01_1100,ACPT_experiment_5_30_19,3.1.0,59.954991150319145,
,,,C,G,d,b,R,G,g,L,c ,,,,,5,19,119,3,0,0,0,0,,,,,1,20,56,6,,,,,,up,1.184242260692372,1553.9498880272977,None,001,88,2019_Nov_01_1100,ACPT_experiment_5_30_19,3.1.0,59.954991150319145,
,,,C,G,d,b,R,U,d,R,u,,,,,5,19,119,3,0,0,0,0,,,,,1,21,57,9,,,,,,up,1.3176487030395947,1556.4184337948382,None,001,88,2019_Nov_01_1100,ACPT_experiment_5_30_19,3.1.0,59.954991150319145,
,,,C,G,d,b,L,G,d,R,i,,,,,5,19,119,3,0,0,0,0,,,,,1,22,58,17,,,,,,up,0.9840660383879367,1559.0203929473655,None,001,88,2019_Nov_01_1100,ACPT_experiment_5_30_19,3.1.0,59.954991150319145,
,,,C,G,d,b,L,U,g,L,u,,,,,5,19,119,3,0,0,0,0,,,,,1,23,59,22,,,,,,up,1.6679335474682375,1561.2887721519255,None,001,88,2019_Nov_01_1100,ACPT_experiment_5_30_19,3.1.0,59.954991150319145,
,,,C,G,d,b,R,U,y,R,u,,,,,5,19,119,3,0,0,0,0,,,,,1,24,60,31,,,,,,down,0.8339628496332807,1564.2410037728723,None,001,88,2019_Nov_01_1100,ACPT_experiment_5_30_19,3.1.0,59.954991150319145,
,,,C,G,d,b,R,D,g,R,i,,,,,5,19,119,3,0,0,0,0,,,,,1,25,61,3,,,,,,up,1.1008345958380232,1566.3592743553081,None,001,88,2019_Nov_01_1100,ACPT_experiment_5_30_19,3.1.0,59.954991150319145,
,,,C,G,d,b,L,D,y,L,y,,,,,5,19,119,3,0,0,0,0,,,,,1,26,62,32,,,,,,down,0.6838270606585866,1568.7444378137207,None,001,88,2019_Nov_01_1100,ACPT_experiment_5_30_19,3.1.0,59.954991150319145,
,,,C,G,d,b,R,U,d,L,u,,,,,5,19,119,3,0,0,0,0,,,,,1,27,63,8,,,,,,up,0.8006067867017919,1570.7125707960586,None,001,88,2019_Nov_01_1100,ACPT_experiment_5_30_19,3.1.0,59.954991150319145,
,,,C,G,d,b,L,U,g,R,u,,,,,5,19,119,3,0,0,0,0,,,,,1,28,64,23,,,,,,up,1.1675461179929698,1572.7974841081477,None,001,88,2019_Nov_01_1100,ACPT_experiment_5_30_19,3.1.0,59.954991150319145,
,,,C,G,d,b,L,U,y,L,u,,,,,5,19,119,3,0,0,0,0,,,,,1,29,65,24,,,,,,down,0.95073744416095,1575.2326351754573,None,001,88,2019_Nov_01_1100,ACPT_experiment_5_30_19,3.1.0,59.954991150319145,
,,,C,G,d,b,R,D,d,L,c,,,,,5,19,119,3,0,0,0,0,,,,,1,30,66,0,,,,,,up,0.6838403422307238,1577.4676866913524,None,001,88,2019_Nov_01_1100,ACPT_experiment_5_30_19,3.1.0,59.954991150319145,
,,,C,G,d,b,R,D,y,R,y,,,,,5,19,119,3,0,0,0,0,,,,,1,31,67,27,,,,,,down,0.9507561591017293,1579.4191386236853,None,001,88,2019_Nov_01_1100,ACPT_experiment_5_30_19,3.1.0,59.954991150319145,
,,,C,G,d,b,L,U,d,L,u,,,,,5,19,119,3,0,0,0,0,,,,,1,32,68,20,,,,,,up,0.8506432959311496,1581.6541844043568,None,001,88,2019_Nov_01_1100,ACPT_experiment_5_30_19,3.1.0,59.954991150319145,
,,,C,G,d,b,L,U,y,R,u,,,,,5,19,119,3,0,0,0,0,,,,,1,33,69,25,,,,,,down,0.6471635845873607,1583.8091371778055,None,001,88,2019_Nov_01_1100,ACPT_experiment_5_30_19,3.1.0,59.954991150319145,
,,,C,G,d,b,L,G,g,R,c ,,,,,5,19,119,3,0,0,0,0,,,,,1,34,70,19,,,,,,up,0.9006792014515668,1585.7406090989034,None,001,88,2019_Nov_01_1100,ACPT_experiment_5_30_19,3.1.0,59.954991150319145,
,,,C,G,d,b,L,D,g,R,i,,,,,5,19,119,3,0,0,0,0,,,,,1,35,71,15,,,,,,up,0.8006016551853463,1587.9255948257414,None,001,88,2019_Nov_01_1100,ACPT_experiment_5_30_19,3.1.0,59.954991150319145,
,,,C,G,d,b,,,,,,,,,,5,19,119,3,1,0,1,0,0,0,0,0,,,,,,,,,,,,,,001,88,2019_Nov_01_1100,ACPT_experiment_5_30_19,3.1.0,59.954991150319145,
,,,C,G,d,b,L,U,y,R,u,,,,,5,19,119,3,1,0,1,0,,,,,0,0,0,25,,,,,,down,0.8005892791761653,1594.997624711692,None,001,88,2019_Nov_01_1100,ACPT_experiment_5_30_19,3.1.0,59.954991150319145,
,,,C,G,d,b,R,U,g,R,u,,,,,5,19,119,3,1,0,1,0,,,,,0,1,1,11,,,,,,up,0.633799003338936,1597.0992091126072,None,001,88,2019_Nov_01_1100,ACPT_experiment_5_30_19,3.1.0,59.954991150319145,
,,,C,G,d,b,R,U,d,L,u,,,,,5,19,119,3,1,0,1,0,,,,,0,2,2,8,,,,,,up,0.8840023774009751,1599.0173215839723,None,001,88,2019_Nov_01_1100,ACPT_experiment_5_30_19,3.1.0,59.954991150319145,
,,,C,G,d,b,R,D,d,R,c ,,,,,5,19,119,3,1,0,1,0,,,,,0,3,3,1,,,,,,up,0.5671188739879653,1601.1856295811995,None,001,88,2019_Nov_01_1100,ACPT_experiment_5_30_19,3.1.0,59.954991150319145,
,,,C,G,d,b,L,U,y,L,u,,,,,5,19,119,3,1,0,1,0,,,,,0,4,4,24,,,,,,down,0.9004582443994877,1603.0705755538793,None,001,88,2019_Nov_01_1100,ACPT_experiment_5_30_19,3.1.0,59.954991150319145,
,,,C,G,d,b,R,D,y,R,y,,,,,5,19,119,3,1,0,1,0,,,,,0,5,5,27,,,,,,down,0.58376370152655,1605.2553810739419,None,001,88,2019_Nov_01_1100,ACPT_experiment_5_30_19,3.1.0,59.954991150319145,
,,,C,G,d,b,R,D,g,R,i,,,,,5,19,119,3,1,0,1,0,,,,,0,6,6,3,,,,,,up,0.6671435958232905,1607.140154989902,None,001,88,2019_Nov_01_1100,ACPT_experiment_5_30_19,3.1.0,59.954991150319145,
,,,C,G,d,b,L,D,d,R,c ,,,,,5,19,119,3,1,0,1,0,,,,,0,7,7,13,,,,,,up,0.7338958682539669,1609.0916135630205,None,001,88,2019_Nov_01_1100,ACPT_experiment_5_30_19,3.1.0,59.954991150319145,
,,,C,G,d,b,R,D,d,L,c,,,,,5,19,119,3,1,0,1,0,,,,,0,8,8,0,,,,,,up,0.733881379266677,1611.109807806606,None,001,88,2019_Nov_01_1100,ACPT_experiment_5_30_19,3.1.0,59.954991150319145,
,,,C,G,d,b,L,D,d,L,c ,,,,,5,19,119,3,1,0,1,0,,,,,0,9,9,12,,,,,,up,0.6338095682249332,1613.1279987297994,None,001,88,2019_Nov_01_1100,ACPT_experiment_5_30_19,3.1.0,59.954991150319145,
,,,C,G,d,b,L,D,y,L,y,,,,,5,19,119,3,1,0,1,0,,,,,0,10,10,32,,,,,,down,0.6171049736167333,1615.0461374624538,None,001,88,2019_Nov_01_1100,ACPT_experiment_5_30_19,3.1.0,59.954991150319145,
,,,C,G,d,b,R,U,y,L,u,,,,,5,19,119,3,1,0,1,0,,,,,0,11,11,30,,,,,,down,0.5504058274709678,1616.9475549985345,None,001,88,2019_Nov_01_1100,ACPT_experiment_5_30_19,3.1.0,59.954991150319145,
,,,C,G,d,b,L,G,y,R,y,,,,,5,19,119,3,1,0,1,0,,,,,0,12,12,35,,,,,,down,0.6838352107133687,1618.782280632964,None,001,88,2019_Nov_01_1100,ACPT_experiment_5_30_19,3.1.0,59.954991150319145,
,,,C,G,d,b,L,G,g,L,c ,,,,,5,19,119,3,1,0,1,0,,,,,0,13,13,18,,,,,,down,1.2008949364317232,1620.7671197191794,None,001,88,2019_Nov_01_1100,ACPT_experiment_5_30_19,3.1.0,59.954991150319145,
,,,C,G,d,b,R,G,y,R,y,,,,,5,19,119,3,1,0,1,0,,,,,0,14,14,29,,,,,,down,0.9507489146089938,1623.2523332551536,None,001,88,2019_Nov_01_1100,ACPT_experiment_5_30_19,3.1.0,59.954991150319145,
,,,C,G,d,b,R,G,g,L,c ,,,,,5,19,119,3,1,0,1,0,,,,,0,15,15,6,,,,,,up,0.8006004477701936,1625.4873515671197,None,001,88,2019_Nov_01_1100,ACPT_experiment_5_30_19,3.1.0,59.954991150319145,
,,,C,G,d,b,L,U,g,R,u,,,,,5,19,119,3,1,0,1,0,,,,,0,16,16,23,,,,,,up,0.7005265237503409,1627.5722588421313,None,001,88,2019_Nov_01_1100,ACPT_experiment_5_30_19,3.1.0,59.954991150319145,
,,,C,G,d,b,R,U,d,R,u,,,,,5,19,119,3,1,0,1,0,,,,,0,17,17,9,,,,,,up,0.8004836303125558,1629.5570973246395,None,001,88,2019_Nov_01_1100,ACPT_experiment_5_30_19,3.1.0,59.954991150319145,
,,,C,G,d,b,L,U,g,L,u,,,,,5,19,119,3,1,0,1,0,,,,,0,18,18,22,,,,,,up,0.7505566940481003,1631.642014258975,None,001,88,2019_Nov_01_1100,ACPT_experiment_5_30_19,3.1.0,59.954991150319145,
,,,C,G,d,b,L,D,y,R,y,,,,,5,19,119,3,1,0,1,0,,,,,0,19,19,33,,,,,,down,0.6171233867044066,1633.6935600376837,None,001,88,2019_Nov_01_1100,ACPT_experiment_5_30_19,3.1.0,59.954991150319145,
,,,C,G,d,b,L,G,y,L,y,,,,,5,19,119,3,1,0,1,0,,,,,0,20,20,34,,,,,,down,0.6004302625433411,1635.6283764999498,None,001,88,2019_Nov_01_1100,ACPT_experiment_5_30_19,3.1.0,59.954991150319145,
,,,C,G,d,b,L,U,d,R,u,,,,,5,19,119,3,1,0,1,0,,,,,0,21,21,21,,,,,,up,0.733886510784032,1637.5131160045657,None,001,88,2019_Nov_01_1100,ACPT_experiment_5_30_19,3.1.0,59.954991150319145,
,,,C,G,d,b,R,D,y,L,y,,,,,5,19,119,3,1,0,1,0,,,,,0,22,22,26,,,,,,down,1.3510234809127724,1639.5313093425893,None,001,88,2019_Nov_01_1100,ACPT_experiment_5_30_19,3.1.0,59.954991150319145,
,,,C,G,d,b,R,D,g,L,i,,,,,5,19,119,3,1,0,1,0,,,,,0,23,23,2,,,,,,up,0.767267929441914,1642.1666390470355,None,001,88,2019_Nov_01_1100,ACPT_experiment_5_30_19,3.1.0,59.954991150319145,
,,,C,G,d,b,L,D,g,L,i,,,,,5,19,119,3,1,0,1,0,,,,,0,24,24,14,,,,,,up,0.9340343588219184,1644.2181905609687,None,001,88,2019_Nov_01_1100,ACPT_experiment_5_30_19,3.1.0,59.954991150319145,
,,,C,G,d,b,L,U,d,L,u,,,,,5,19,119,3,1,0,1,0,,,,,0,25,25,20,,,,,,up,0.9173602514556478,1646.436532652593,None,001,88,2019_Nov_01_1100,ACPT_experiment_5_30_19,3.1.0,59.954991150319145,
,,,C,G,d,b,L,G,d,L,i,,,,,5,19,119,3,1,0,1,0,,,,,0,26,26,16,,,,,,up,0.6338077571017493,1648.6382006368522,None,001,88,2019_Nov_01_1100,ACPT_experiment_5_30_19,3.1.0,59.954991150319145,
,,,C,G,d,b,L,G,d,R,i,,,,,5,19,119,3,1,0,1,0,,,,,0,27,27,17,,,,,,up,0.8673104606559718,1650.55633272872,None,001,88,2019_Nov_01_1100,ACPT_experiment_5_30_19,3.1.0,59.954991150319145,
,,,C,G,d,b,R,U,g,L,u,,,,,5,19,119,3,1,0,1,0,,,,,0,28,28,10,,,,,,up,0.7338804737055398,1652.707958166673,None,001,88,2019_Nov_01_1100,ACPT_experiment_5_30_19,3.1.0,59.954991150319145,
,,,C,G,d,b,L,G,g,R,c ,,,,,5,19,119,3,1,0,1,0,,,,,0,29,29,19,,,,,,up,1.0507896346989583,1654.7261397323946,None,001,88,2019_Nov_01_1100,ACPT_experiment_5_30_19,3.1.0,59.954991150319145,
,,,C,G,d,b,R,G,d,L,i,,,,,5,19,119,3,1,0,1,0,,,,,0,30,30,4,,,,,,up,0.7839441497844746,1657.06121566827,None,001,88,2019_Nov_01_1100,ACPT_experiment_5_30_19,3.1.0,59.954991150319145,
,,,C,G,d,b,R,G,y,L,y,,,,,5,19,119,3,1,0,1,0,,,,,0,31,31,28,,,,,,down,0.7672612886572097,1659.129477512036,None,001,88,2019_Nov_01_1100,ACPT_experiment_5_30_19,3.1.0,59.954991150319145,
,,,C,G,d,b,R,U,y,R,u,,,,,5,19,119,3,1,0,1,0,,,,,0,32,32,31,,,,,,down,0.9173527051088968,1661.1977058500197,None,001,88,2019_Nov_01_1100,ACPT_experiment_5_30_19,3.1.0,59.954991150319145,
,,,C,G,d,b,R,G,d,R,i,,,,,5,19,119,3,1,0,1,0,,,,,0,33,33,5,,,,,,up,0.8006064848486858,1663.4160612232154,None,001,88,2019_Nov_01_1100,ACPT_experiment_5_30_19,3.1.0,59.954991150319145,
,,,C,G,d,b,R,G,g,R,c ,,,,,5,19,119,3,1,0,1,0,,,,,0,34,34,7,,,,,,down,1.1839802515105475,1665.5012311111159,None,001,88,2019_Nov_01_1100,ACPT_experiment_5_30_19,3.1.0,59.954991150319145,
,,,C,G,d,b,L,D,g,R,i,,,,,5,19,119,3,1,0,1,0,,,,,0,35,35,15,,,,,,up,1.2843068272413802,1667.9694919285785,None,001,88,2019_Nov_01_1100,ACPT_experiment_5_30_19,3.1.0,59.954991150319145,
,,,C,G,d,b,L,G,y,L,y,,,,,5,19,119,3,1,0,1,0,,,,,1,0,36,34,,,,,,down,0.8673741518277893,1670.538101658959,None,001,88,2019_Nov_01_1100,ACPT_experiment_5_30_19,3.1.0,59.954991150319145,
,,,C,G,d,b,R,U,d,L,u,,,,,5,19,119,3,1,0,1,0,,,,,1,1,37,8,,,,,,up,0.9173578366253423,1672.6897337376968,None,001,88,2019_Nov_01_1100,ACPT_experiment_5_30_19,3.1.0,59.954991150319145,
,,,C,G,d,b,R,G,d,L,i,,,,,5,19,119,3,1,0,1,0,,,,,1,2,38,4,,,,,,up,0.7172534555484162,1674.8913691217358,None,001,88,2019_Nov_01_1100,ACPT_experiment_5_30_19,3.1.0,59.954991150319145,
,,,C,G,d,b,R,D,g,L,i,,,,,5,19,119,3,1,0,1,0,,,,,1,3,39,2,,,,,,up,0.7505648441028825,1676.8929131044142,None,001,88,2019_Nov_01_1100,ACPT_experiment_5_30_19,3.1.0,59.954991150319145,
,,,C,G,d,b,L,U,d,R,u,,,,,5,19,119,3,1,0,1,0,,,,,1,4,40,21,,,,,,up,0.9007036516168228,1678.9277868887348,None,001,88,2019_Nov_01_1100,ACPT_experiment_5_30_19,3.1.0,59.954991150319145,
,,,C,G,d,b,R,D,g,R,i,,,,,5,19,119,3,1,0,1,0,,,,,1,5,41,3,,,,,,up,1.6512476678017265,1681.1127741248429,None,001,88,2019_Nov_01_1100,ACPT_experiment_5_30_19,3.1.0,59.954991150319145,
,,,C,G,d,b,R,D,y,L,y,,,,,5,19,119,3,1,0,1,0,,,,,1,6,42,26,,,,,,down,0.7839049087779131,1684.06502053663,None,001,88,2019_Nov_01_1100,ACPT_experiment_5_30_19,3.1.0,59.954991150319145,
,,,C,G,d,b,L,G,d,L,i,,,,,5,19,119,3,1,0,1,0,,,,,1,7,43,16,,,,,,up,0.7172024422397953,1686.1499148319235,None,001,88,2019_Nov_01_1100,ACPT_experiment_5_30_19,3.1.0,59.954991150319145,
,,,C,G,d,b,R,G,g,R,c ,,,,,5,19,119,3,1,0,1,0,,,,,1,8,44,7,,,,,,up,0.7506116314571045,1688.1514056883161,None,001,88,2019_Nov_01_1100,ACPT_experiment_5_30_19,3.1.0,59.954991150319145,
,,,C,G,d,b,L,U,g,L,u,,,,,5,19,119,3,1,0,1,0,,,,,1,9,45,22,,,,,,up,0.7005316552676959,1690.1862999987025,None,001,88,2019_Nov_01_1100,ACPT_experiment_5_30_19,3.1.0,59.954991150319145,
,,,C,G,d,b,L,D,d,R,c ,,,,,5,19,119,3,1,0,1,0,,,,,1,10,46,13,,,,,,up,0.7339604649878311,1692.1711155403145,None,001,88,2019_Nov_01_1100,ACPT_experiment_5_30_19,3.1.0,59.954991150319145,
,,,C,G,d,b,L,D,g,L,i,,,,,5,19,119,3,1,0,1,0,,,,,1,11,47,14,,,,,,up,1.0007775756366755,1694.1726341672656,None,001,88,2019_Nov_01_1100,ACPT_experiment_5_30_19,3.1.0,59.954991150319145,
,,,C,G,d,b,R,U,y,L,u,,,,,5,19,119,3,1,0,1,0,,,,,1,12,48,30,,,,,,down,1.0841574699325065,1696.4577122312112,None,001,88,2019_Nov_01_1100,ACPT_experiment_5_30_19,3.1.0,59.954991150319145,
,,,C,G,d,b,R,G,g,L,c ,,,,,5,19,119,3,1,0,1,0,,,,,1,13,49,6,,,,,,down,1.150782661874473,1698.8261683783294,None,001,88,2019_Nov_01_1100,ACPT_experiment_5_30_19,3.1.0,59.954991150319145,
,,,C,G,d,b,R,U,g,R,u,,,,,5,19,119,3,1,0,1,0,,,,,1,14,50,11,,,,,,up,0.8973572993254493,1701.2813528850147,None,001,88,2019_Nov_01_1100,ACPT_experiment_5_30_19,3.1.0,59.954991150319145,
,,,C,G,d,b,R,U,g,L,u,,,,,5,19,119,3,1,0,1,0,,,,,1,15,51,10,,,,,,up,0.6673367823159424,1703.446185638335,None,001,88,2019_Nov_01_1100,ACPT_experiment_5_30_19,3.1.0,59.954991150319145,
,,,C,G,d,b,L,G,g,R,c ,,,,,5,19,119,3,1,0,1,0,,,,,1,16,52,19,,,,,,down,0.9340473385391306,1705.3978023828959,None,001,88,2019_Nov_01_1100,ACPT_experiment_5_30_19,3.1.0,59.954991150319145,
,,,C,G,d,b,L,G,d,R,i,,,,,5,19,119,3,1,0,1,0,,,,,1,17,53,17,,,,,,up,1.350773847740129,1707.633084515167,None,001,88,2019_Nov_01_1100,ACPT_experiment_5_30_19,3.1.0,59.954991150319145,
,,,C,G,d,b,L,D,d,L,c ,,,,,5,19,119,3,1,0,1,0,,,,,1,18,54,12,,,,,,up,1.5845542568795281,1710.2681449659376,None,001,88,2019_Nov_01_1100,ACPT_experiment_5_30_19,3.1.0,59.954991150319145,
,,,C,G,d,b,R,D,y,R,y,,,,,5,19,119,3,1,0,1,0,,,,,1,19,55,27,,,,,,down,0.9340343588219184,1713.1370048426425,None,001,88,2019_Nov_01_1100,ACPT_experiment_5_30_19,3.1.0,59.954991150319145,
,,,C,G,d,b,L,U,d,L,u,,,,,5,19,119,3,1,0,1,0,,,,,1,20,56,20,,,,,,up,0.9840669439490739,1715.3553532731985,None,001,88,2019_Nov_01_1100,ACPT_experiment_5_30_19,3.1.0,59.954991150319145,
,,,C,G,d,b,R,D,d,L,c,,,,,5,19,119,3,1,0,1,0,,,,,1,21,57,0,,,,,,up,1.7012787436597137,1717.6237339870286,None,001,88,2019_Nov_01_1100,ACPT_experiment_5_30_19,3.1.0,59.954991150319145,
,,,C,G,d,b,R,U,y,R,u,,,,,5,19,119,3,1,0,1,0,,,,,1,22,58,31,,,,,,down,0.7839616573101011,1720.6093189542216,None,001,88,2019_Nov_01_1100,ACPT_experiment_5_30_19,3.1.0,59.954991150319145,
,,,C,G,d,b,R,D,d,R,c ,,,,,5,19,119,3,1,0,1,0,,,,,1,23,59,1,,,,,,up,0.7505681644961442,1722.6775563478222,None,001,88,2019_Nov_01_1100,ACPT_experiment_5_30_19,3.1.0,59.954991150319145,
,,,C,G,d,b,R,G,d,R,i,,,,,5,19,119,3,1,0,1,0,,,,,1,24,60,5,,,,,,up,1.2176137181731974,1724.712398739338,None,001,88,2019_Nov_01_1100,ACPT_experiment_5_30_19,3.1.0,59.954991150319145,
,,,C,G,d,b,L,D,y,L,y,,,,,5,19,119,3,1,0,1,0,,,,,1,25,61,32,,,,,,down,0.8839863791454263,1727.2143425275017,None,001,88,2019_Nov_01_1100,ACPT_experiment_5_30_19,3.1.0,59.954991150319145,
,,,C,G,d,b,L,G,y,R,y,,,,,5,19,119,3,1,0,1,0,,,,,1,26,62,35,,,,,,down,0.9507280866901056,1729.3826272819779,None,001,88,2019_Nov_01_1100,ACPT_experiment_5_30_19,3.1.0,59.954991150319145,
,,,C,G,d,b,L,D,g,R,i,,,,,5,19,119,3,1,0,1,0,,,,,1,27,63,15,,,,,,up,0.7336051829524877,1731.634612499589,None,001,88,2019_Nov_01_1100,ACPT_experiment_5_30_19,3.1.0,59.954991150319145,
,,,C,G,d,b,L,U,y,L,u,,,,,5,19,119,3,1,0,1,0,,,,,1,28,64,24,,,,,,down,0.7338759458971253,1733.652526924613,None,001,88,2019_Nov_01_1100,ACPT_experiment_5_30_19,3.1.0,59.954991150319145,
,,,C,G,d,b,R,G,y,R,y,,,,,5,19,119,3,1,0,1,0,,,,,1,29,65,29,,,,,,down,0.884043731384736,1735.6707193570755,None,001,88,2019_Nov_01_1100,ACPT_experiment_5_30_19,3.1.0,59.954991150319145,
,,,C,G,d,b,L,U,g,R,u,,,,,5,19,119,3,1,0,1,0,,,,,1,30,66,23,,,,,,up,0.7339121683644407,1737.8390001874513,None,001,88,2019_Nov_01_1100,ACPT_experiment_5_30_19,3.1.0,59.954991150319145,
,,,C,G,d,b,L,G,g,L,c ,,,,,5,19,119,3,1,0,1,0,,,,,1,31,67,18,,,,,,up,0.9173342920212235,1739.8572442369305,None,001,88,2019_Nov_01_1100,ACPT_experiment_5_30_19,3.1.0,59.954991150319145,
,,,C,G,d,b,L,D,y,R,y,,,,,5,19,119,3,1,0,1,0,,,,,1,32,68,33,,,,,,down,1.2676553589180912,1742.0588593967577,None,001,88,2019_Nov_01_1100,ACPT_experiment_5_30_19,3.1.0,59.954991150319145,
,,,C,G,d,b,R,U,d,R,u,,,,,5,19,119,3,1,0,1,0,,,,,1,33,69,9,,,,,,up,0.8339571144097135,1744.6108170551079,None,001,88,2019_Nov_01_1100,ACPT_experiment_5_30_19,3.1.0,59.954991150319145,
,,,C,G,d,b,L,U,y,R,u,,,,,5,19,119,3,1,0,1,0,,,,,1,34,70,25,,,,,,down,0.9006942941468878,1746.7290643947936,None,001,88,2019_Nov_01_1100,ACPT_experiment_5_30_19,3.1.0,59.954991150319145,
,,,C,G,d,b,R,G,y,L,y,,,,,5,19,119,3,1,0,1,0,,,,,1,35,71,28,,,,,,down,0.9173608551645884,1748.9140721569665,None,001,88,2019_Nov_01_1100,ACPT_experiment_5_30_19,3.1.0,59.954991150319145,
,,,C,G,d,b,,,,,,,,,,5,19,119,3,2,0,2,0,0,0,0,0,,,,,,,,,,,,,,001,88,2019_Nov_01_1100,ACPT_experiment_5_30_19,3.1.0,59.954991150319145,
,,,C,G,d,b,L,U,g,L,u,,,,,5,19,119,3,2,0,2,0,,,,,0,0,0,22,,,,,,up,1.8513976288168124,1754.8018594803707,None,001,88,2019_Nov_01_1100,ACPT_experiment_5_30_19,3.1.0,59.954991150319145,
,,,C,G,d,b,R,G,g,L,c ,,,,,5,19,119,3,2,0,2,0,,,,,0,1,1,6,,,,,,up,0.8005971273769319,1757.937566049406,None,001,88,2019_Nov_01_1100,ACPT_experiment_5_30_19,3.1.0,59.954991150319145,
,,,C,G,d,b,L,G,y,L,y,,,,,5,19,119,3,2,0,2,0,,,,,0,2,2,34,,,,,,down,0.767248308939088,1760.0224712114396,None,001,88,2019_Nov_01_1100,ACPT_experiment_5_30_19,3.1.0,59.954991150319145,
,,,C,G,d,b,L,D,g,R,i,,,,,5,19,119,3,2,0,2,0,,,,,0,3,3,15,,,,,,up,1.2175627048645765,1762.0740517033464,None,001,88,2019_Nov_01_1100,ACPT_experiment_5_30_19,3.1.0,59.954991150319145,
,,,C,G,d,b,R,D,g,L,i,,,,,5,19,119,3,2,0,2,0,,,,,0,4,4,2,,,,,,up,0.9340343588210089,1764.5759251595528,None,001,88,2019_Nov_01_1100,ACPT_experiment_5_30_19,3.1.0,59.954991150319145,
,,,C,G,d,b,L,U,g,R,u,,,,,5,19,119,3,2,0,2,0,,,,,0,5,5,23,,,,,,up,0.9173554217941273,1766.7942687604464,None,001,88,2019_Nov_01_1100,ACPT_experiment_5_30_19,3.1.0,59.954991150319145,
,,,C,G,d,b,L,G,g,L,c ,,,,,5,19,119,3,2,0,2,0,,,,,0,6,6,18,,,,,,up,0.6671635181792226,1768.9959367447054,None,001,88,2019_Nov_01_1100,ACPT_experiment_5_30_19,3.1.0,59.954991150319145,
,,,C,G,d,b,L,G,d,R,i,,,,,5,19,119,3,2,0,2,0,,,,,0,7,7,17,,,,,,up,0.7339157906108085,1770.9474107123724,None,001,88,2019_Nov_01_1100,ACPT_experiment_5_30_19,3.1.0,59.954991150319145,
,,,C,G,d,b,L,G,g,R,c ,,,,,5,19,119,3,2,0,2,0,,,,,0,8,8,19,,,,,,up,0.600449581193061,1772.965604654105,None,001,88,2019_Nov_01_1100,ACPT_experiment_5_30_19,3.1.0,59.954991150319145,
,,,C,G,d,b,L,U,y,R,u,,,,,5,19,119,3,2,0,2,0,,,,,0,9,9,25,,,,,,down,0.817329794397665,1774.8503640810768,None,001,88,2019_Nov_01_1100,ACPT_experiment_5_30_19,3.1.0,59.954991150319145,
,,,C,G,d,b,L,D,y,R,y,,,,,5,19,119,3,2,0,2,0,,,,,0,10,10,33,,,,,,down,0.9006770884743673,1776.9519539153625,None,001,88,2019_Nov_01_1100,ACPT_experiment_5_30_19,3.1.0,59.954991150319145,
,,,C,G,d,b,L,G,y,R,y,,,,,5,19,119,3,2,0,2,0,,,,,0,11,11,35,,,,,,down,0.5337193440964256,1779.153625220014,None,001,88,2019_Nov_01_1100,ACPT_experiment_5_30_19,3.1.0,59.954991150319145,
,,,C,G,d,b,R,U,y,R,u,,,,,5,19,119,3,2,0,2,0,,,,,0,12,12,31,,,,,,down,0.7171945940381192,1780.988344817365,None,001,88,2019_Nov_01_1100,ACPT_experiment_5_30_19,3.1.0,59.954991150319145,
,,,C,G,d,b,R,U,y,L,u,,,,,5,19,119,3,2,0,2,0,,,,,0,13,13,30,,,,,,down,0.7505998591550451,1782.9730233173086,None,001,88,2019_Nov_01_1100,ACPT_experiment_5_30_19,3.1.0,59.954991150319145,
,,,C,G,d,b,L,D,d,R,c ,,,,,5,19,119,3,2,0,2,0,,,,,0,14,14,13,,,,,,up,0.7338795681434931,1785.008050443409,None,001,88,2019_Nov_01_1100,ACPT_experiment_5_30_19,3.1.0,59.954991150319145,
,,,C,G,d,b,R,G,g,R,c ,,,,,5,19,119,3,2,0,2,0,,,,,0,15,15,7,,,,,,up,0.9006758810583051,1787.0262431777246,None,001,88,2019_Nov_01_1100,ACPT_experiment_5_30_19,3.1.0,59.954991150319145,
,,,C,G,d,b,L,D,d,L,c ,,,,,5,19,119,3,2,0,2,0,,,,,0,16,16,12,,,,,,up,0.8172839126054896,1789.2112286027095,None,001,88,2019_Nov_01_1100,ACPT_experiment_5_30_19,3.1.0,59.954991150319145,
,,,C,G,d,b,L,U,y,L,u,,,,,5,19,119,3,2,0,2,0,,,,,0,17,17,24,,,,,,down,1.0507968791935127,1791.3295085426162,None,001,88,2019_Nov_01_1100,ACPT_experiment_5_30_19,3.1.0,59.954991150319145,
,,,C,G,d,b,L,U,d,L,u,,,,,5,19,119,3,2,0,2,0,,,,,0,18,18,20,,,,,,up,0.9506864308523291,1793.6813050713572,None,001,88,2019_Nov_01_1100,ACPT_experiment_5_30_19,3.1.0,59.954991150319145,
,,,C,G,d,b,R,G,y,R,y,,,,,5,19,119,3,2,0,2,0,,,,,0,19,19,29,,,,,,down,0.8001718152372632,1795.9333838636758,None,001,88,2019_Nov_01_1100,ACPT_experiment_5_30_19,3.1.0,59.954991150319145,
,,,C,G,d,b,R,D,g,R,i,,,,,5,19,119,3,2,0,2,0,,,,,0,20,20,3,,,,,,up,0.7172033478009325,1798.0179044638462,None,001,88,2019_Nov_01_1100,ACPT_experiment_5_30_19,3.1.0,59.954991150319145,
,,,C,G,d,b,R,U,d,L,u,,,,,5,19,119,3,2,0,2,0,,,,,0,21,21,8,,,,,,up,1.1341903569154965,1800.0194058851248,None,001,88,2019_Nov_01_1100,ACPT_experiment_5_30_19,3.1.0,59.954991150319145,
,,,C,G,d,b,R,G,d,R,i,,,,,5,19,119,3,2,0,2,0,,,,,0,22,22,5,,,,,,up,0.6838343051522315,1802.4379100119204,None,001,88,2019_Nov_01_1100,ACPT_experiment_5_30_19,3.1.0,59.954991150319145,
,,,C,G,d,b,R,U,g,R,u,,,,,5,19,119,3,2,0,2,0,,,,,0,23,23,11,,,,,,down,1.351044006977645,1804.4060354479107,None,001,88,2019_Nov_01_1100,ACPT_experiment_5_30_19,3.1.0,59.954991150319145,
,,,C,G,d,b,L,U,d,R,u,,,,,5,19,119,3,2,0,2,0,,,,,0,24,24,21,,,,,,up,1.4177467753706878,1807.0413835654444,None,001,88,2019_Nov_01_1100,ACPT_experiment_5_30_19,3.1.0,59.954991150319145,
,,,C,G,d,b,R,U,d,R,u,,,,,5,19,119,3,2,0,2,0,,,,,0,25,25,9,,,,,,up,0.6838463793083065,1809.743429923562,None,001,88,2019_Nov_01_1100,ACPT_experiment_5_30_19,3.1.0,59.954991150319145,
,,,C,G,d,b,L,G,d,L,i,,,,,5,19,119,3,2,0,2,0,,,,,0,26,26,16,,,,,,up,1.96816407328879,1811.6948975522973,None,001,88,2019_Nov_01_1100,ACPT_experiment_5_30_19,3.1.0,59.954991150319145,
,,,C,G,d,b,R,G,y,L,y,,,,,5,19,119,3,2,0,2,0,,,,,0,27,27,28,,,,,,down,1.1341794901745743,1814.9473675472655,None,001,88,2019_Nov_01_1100,ACPT_experiment_5_30_19,3.1.0,59.954991150319145,
,,,C,G,d,b,L,D,y,L,y,,,,,5,19,119,3,2,0,2,0,,,,,0,28,28,32,,,,,,down,0.5670911034303572,1817.3658635240054,None,001,88,2019_Nov_01_1100,ACPT_experiment_5_30_19,3.1.0,59.954991150319145,
,,,C,G,d,b,R,G,d,L,i,,,,,5,19,119,3,2,0,2,0,,,,,0,29,29,4,,,,,,up,0.6004462607997993,1819.2172641713614,None,001,88,2019_Nov_01_1100,ACPT_experiment_5_30_19,3.1.0,59.954991150319145,
,,,C,G,d,b,R,D,d,R,c ,,,,,5,19,119,3,2,0,2,0,,,,,0,30,30,1,,,,,,up,0.6838454737462598,1821.1020193723798,None,001,88,2019_Nov_01_1100,ACPT_experiment_5_30_19,3.1.0,59.954991150319145,
,,,C,G,d,b,R,D,d,L,c,,,,,5,19,119,3,2,0,2,0,,,,,0,31,31,0,,,,,,up,1.1175017605628454,1823.0701867660619,None,001,88,2019_Nov_01_1100,ACPT_experiment_5_30_19,3.1.0,59.954991150319145,
,,,C,G,d,b,R,D,y,R,y,,,,,5,19,119,3,2,0,2,0,,,,,0,32,32,27,,,,,,down,1.0007525217624789,1825.4719965612812,None,001,88,2019_Nov_01_1100,ACPT_experiment_5_30_19,3.1.0,59.954991150319145,
,,,C,G,d,b,R,D,y,L,y,,,,,5,19,119,3,2,0,2,0,,,,,0,33,33,26,,,,,,down,0.5003756571732083,1827.7570586269694,None,001,88,2019_Nov_01_1100,ACPT_experiment_5_30_19,3.1.0,59.954991150319145,
,,,C,G,d,b,L,D,g,L,i,,,,,5,19,119,3,2,0,2,0,,,,,0,34,34,14,,,,,,down,1.2009045957565831,1829.5417450354844,None,001,88,2019_Nov_01_1100,ACPT_experiment_5_30_19,3.1.0,59.954991150319145,
,,,C,G,d,b,R,U,g,L,u,,,,,5,19,119,3,2,0,2,0,,,,,0,35,35,10,,,,,,up,0.9006773903283829,1832.0269543455042,None,001,88,2019_Nov_01_1100,ACPT_experiment_5_30_19,3.1.0,59.954991150319145,
,,,C,G,d,b,R,U,y,L,u,,,,,5,19,119,3,2,0,2,0,,,,,1,0,36,30,,,,,,down,0.8673572480092844,1834.2119171314462,None,001,88,2019_Nov_01_1100,ACPT_experiment_5_30_19,3.1.0,59.954991150319145,
,,,C,G,d,b,L,G,g,R,c ,,,,,5,19,119,3,2,0,2,0,,,,,1,1,37,19,,,,,,up,1.85140125106318,1836.3635706418108,None,001,88,2019_Nov_01_1100,ACPT_experiment_5_30_19,3.1.0,59.954991150319145,
,,,C,G,d,b,R,U,d,R,u,,,,,5,19,119,3,2,0,2,0,,,,,1,2,38,9,,,,,,up,0.7005416164456619,1839.4992545718042,None,001,88,2019_Nov_01_1100,ACPT_experiment_5_30_19,3.1.0,59.954991150319145,
,,,C,G,d,b,R,U,y,R,u,,,,,5,19,119,3,2,0,2,0,,,,,1,3,39,31,,,,,,down,0.9007525519482442,1841.4841114674,None,001,88,2019_Nov_01_1100,ACPT_experiment_5_30_19,3.1.0,59.954991150319145,
,,,C,G,d,b,L,G,d,R,i,,,,,5,19,119,3,2,0,2,0,,,,,1,4,40,17,,,,,,up,0.9007042553248539,1843.6690733477808,None,001,88,2019_Nov_01_1100,ACPT_experiment_5_30_19,3.1.0,59.954991150319145,
,,,C,G,d,b,R,D,d,L,c,,,,,5,19,119,3,2,0,2,0,,,,,1,5,41,0,,,,,,up,0.8840050940862056,1845.854082921077,None,001,88,2019_Nov_01_1100,ACPT_experiment_5_30_19,3.1.0,59.954991150319145,
,,,C,G,d,b,L,D,g,R,i,,,,,5,19,119,3,2,0,2,0,,,,,1,6,42,15,,,,,,up,0.8340014869318111,1848.0223924275724,None,001,88,2019_Nov_01_1100,ACPT_experiment_5_30_19,3.1.0,59.954991150319145,
,,,C,G,d,b,L,G,y,R,y,,,,,5,19,119,3,2,0,2,0,,,,,1,7,43,35,,,,,,down,0.9840717736124134,1850.1573404377668,None,001,88,2019_Nov_01_1100,ACPT_experiment_5_30_19,3.1.0,59.954991150319145,
,,,C,G,d,b,R,G,y,R,y,,,,,5,19,119,3,2,0,2,0,,,,,1,8,44,29,,,,,,down,0.8172633865415264,1852.4424094460956,None,001,88,2019_Nov_01_1100,ACPT_experiment_5_30_19,3.1.0,59.954991150319145,
,,,C,G,d,b,L,U,y,R,u,,,,,5,19,119,3,2,0,2,0,,,,,1,9,45,25,,,,,,down,0.6171330460283571,1854.5439917340336,None,001,88,2019_Nov_01_1100,ACPT_experiment_5_30_19,3.1.0,59.954991150319145,
,,,C,G,d,b,R,D,d,R,c ,,,,,5,19,119,3,2,0,2,0,,,,,1,10,46,1,,,,,,up,1.0674706847048583,1856.4454297961793,None,001,88,2019_Nov_01_1100,ACPT_experiment_5_30_19,3.1.0,59.954991150319145,
,,,C,G,d,b,R,G,d,R,i,,,,,5,19,119,3,2,0,2,0,,,,,1,11,47,5,,,,,,up,1.0508140848651237,1858.7971843672285,None,001,88,2019_Nov_01_1100,ACPT_experiment_5_30_19,3.1.0,59.954991150319145,
,,,C,G,d,b,L,D,d,L,c ,,,,,5,19,119,3,2,0,2,0,,,,,1,12,48,12,,,,,,up,0.8506339384603052,1861.132314938659,None,001,88,2019_Nov_01_1100,ACPT_experiment_5_30_19,3.1.0,59.954991150319145,
,,,C,G,d,b,L,U,d,R,u,,,,,5,19,119,3,2,0,2,0,,,,,1,13,49,21,,,,,,up,0.6838436626230759,1863.2672566099218,None,001,88,2019_Nov_01_1100,ACPT_experiment_5_30_19,3.1.0,59.954991150319145,
,,,C,G,d,b,L,U,g,R,u,,,,,5,19,119,3,2,0,2,0,,,,,1,14,50,23,,,,,,up,0.7839299626512002,1865.235413438717,None,001,88,2019_Nov_01_1100,ACPT_experiment_5_30_19,3.1.0,59.954991150319145,
,,,C,G,d,b,L,G,y,L,y,,,,,5,19,119,3,2,0,2,0,,,,,1,15,51,34,,,,,,down,0.9840814329372733,1867.3036568693951,None,001,88,2019_Nov_01_1100,ACPT_experiment_5_30_19,3.1.0,59.954991150319145,
,,,C,G,d,b,R,D,g,R,i,,,,,5,19,119,3,2,0,2,0,,,,,1,16,52,3,,,,,,up,1.3843822605294918,1869.5720288294624,None,001,88,2019_Nov_01_1100,ACPT_experiment_5_30_19,3.1.0,59.954991150319145,
,,,C,G,d,b,L,G,d,L,i,,,,,5,19,119,3,2,0,2,0,,,,,1,17,53,16,,,,,,up,1.4010886662608755,1872.2407112764467,None,001,88,2019_Nov_01_1100,ACPT_experiment_5_30_19,3.1.0,59.954991150319145,
,,,C,G,d,b,R,D,y,R,y,,,,,5,19,119,3,2,0,2,0,,,,,1,18,54,27,,,,,,down,2.068231658376135,1874.926073566021,None,001,88,2019_Nov_01_1100,ACPT_experiment_5_30_19,3.1.0,59.954991150319145,
,,,C,G,d,b,L,D,y,R,y,,,,,5,19,119,3,2,0,2,0,,,,,1,19,55,33,,,,,,down,0.7505838608985869,1878.2786042034368,None,001,88,2019_Nov_01_1100,ACPT_experiment_5_30_19,3.1.0,59.954991150319145,
,,,C,G,d,b,R,U,g,R,u,,,,,5,19,119,3,2,0,2,0,,,,,1,20,56,11,,,,,,up,0.7339151869036868,1880.3134616876478,None,001,88,2019_Nov_01_1100,ACPT_experiment_5_30_19,3.1.0,59.954991150319145,
,,,C,G,d,b,R,G,g,L,c ,,,,,5,19,119,3,2,0,2,0,,,,,1,21,57,6,,,,,,up,0.9173575347713268,1882.3316821925218,None,001,88,2019_Nov_01_1100,ACPT_experiment_5_30_19,3.1.0,59.954991150319145,
,,,C,G,d,b,R,D,g,L,i,,,,,5,19,119,3,2,0,2,0,,,,,1,22,58,2,,,,,,up,1.1175352663449303,1884.5333266321768,None,001,88,2019_Nov_01_1100,ACPT_experiment_5_30_19,3.1.0,59.954991150319145,
,,,C,G,d,b,L,U,y,L,u,,,,,5,19,119,3,2,0,2,0,,,,,1,23,59,24,,,,,,down,2.06822924354492,1886.9518434368365,None,001,88,2019_Nov_01_1100,ACPT_experiment_5_30_19,3.1.0,59.954991150319145,
,,,C,G,d,b,L,U,d,L,u,,,,,5,19,119,3,2,0,2,0,,,,,1,24,60,20,,,,,,up,1.7846743343598064,1890.3210659909973,None,001,88,2019_Nov_01_1100,ACPT_experiment_5_30_19,3.1.0,59.954991150319145,
,,,C,G,d,b,L,D,d,R,c ,,,,,5,19,119,3,2,0,2,0,,,,,1,25,61,13,,,,,,up,1.5678523789556493,1893.3733667063007,None,001,88,2019_Nov_01_1100,ACPT_experiment_5_30_19,3.1.0,59.954991150319145,
,,,C,G,d,b,L,D,g,L,i,,,,,5,19,119,3,2,0,2,0,,,,,1,26,62,14,,,,,,up,0.9674206071431399,1896.2088243364278,None,001,88,2019_Nov_01_1100,ACPT_experiment_5_30_19,3.1.0,59.954991150319145,
,,,C,G,d,b,R,G,g,R,c ,,,,,5,19,119,3,2,0,2,0,,,,,1,27,63,7,,,,,,up,1.300988782807508,1898.4605493559802,None,001,88,2019_Nov_01_1100,ACPT_experiment_5_30_19,3.1.0,59.954991150319145,
,,,C,G,d,b,R,U,g,L,u,,,,,5,19,119,3,2,0,2,0,,,,,1,28,64,10,,,,,,up,0.7338898311763842,1901.0291581807996,None,001,88,2019_Nov_01_1100,ACPT_experiment_5_30_19,3.1.0,59.954991150319145,
,,,C,G,d,b,L,U,g,L,u,,,,,5,19,119,3,2,0,2,0,,,,,1,29,65,22,,,,,,up,0.8840129422878817,1903.047369931911,None,001,88,2019_Nov_01_1100,ACPT_experiment_5_30_19,3.1.0,59.954991150319145,
,,,C,G,d,b,R,G,y,L,y,,,,,5,19,119,3,2,0,2,0,,,,,1,30,66,28,,,,,,down,0.7005283348744342,1905.2156616290276,None,001,88,2019_Nov_01_1100,ACPT_experiment_5_30_19,3.1.0,59.954991150319145,
,,,C,G,d,b,L,G,g,L,c ,,,,,5,19,119,3,2,0,2,0,,,,,1,31,67,18,,,,,,up,0.7172096867325308,1907.2004961874345,None,001,88,2019_Nov_01_1100,ACPT_experiment_5_30_19,3.1.0,59.954991150319145,
,,,C,G,d,b,L,D,y,L,y,,,,,5,19,119,3,2,0,2,0,,,,,1,32,68,32,,,,,,down,1.2008979549700598,1909.2020120977013,None,001,88,2019_Nov_01_1100,ACPT_experiment_5_30_19,3.1.0,59.954991150319145,
,,,C,G,d,b,R,U,d,L,u,,,,,5,19,119,3,2,0,2,0,,,,,1,33,69,8,,,,,,up,1.1008267476363471,1911.6872262373827,None,001,88,2019_Nov_01_1100,ACPT_experiment_5_30_19,3.1.0,59.954991150319145,
,,,C,G,d,b,R,D,y,L,y,,,,,5,19,119,3,2,0,2,0,,,,,1,34,70,26,,,,,,down,0.8170016792137176,1914.0893161530175,None,001,88,2019_Nov_01_1100,ACPT_experiment_5_30_19,3.1.0,59.954991150319145,
,,,C,G,d,b,R,G,d,L,i,,,,,5,19,119,3,2,0,2,0,,,,,1,35,71,4,,,,,,up,1.2175931921074152,1916.1906297909873,None,001,88,2019_Nov_01_1100,ACPT_experiment_5_30_19,3.1.0,59.954991150319145,
,,,C,G,d,b,,,,,,,,,,5,19,119,3,3,0,3,0,0,0,0,0,,,,,,,,,,,,,,001,88,2019_Nov_01_1100,ACPT_experiment_5_30_19,3.1.0,59.954991150319145,
,,,C,G,d,b,L,G,d,R,i,,,,,5,19,119,3,3,0,3,0,,,,,0,0,0,17,,,,,,up,0.9307085325945081,1921.0809949466648,None,001,88,2019_Nov_01_1100,ACPT_experiment_5_30_19,3.1.0,59.954991150319145,
,,,C,G,d,b,L,D,y,R,y,,,,,5,19,119,3,3,0,3,0,,,,,0,1,1,33,,,,,,down,0.6838777721131919,1923.295980422964,None,001,88,2019_Nov_01_1100,ACPT_experiment_5_30_19,3.1.0,59.954991150319145,
,,,C,G,d,b,R,U,y,L,u,,,,,5,19,119,3,3,0,3,0,,,,,0,2,2,30,,,,,,down,0.9006924830227945,1925.2641623056325,None,001,88,2019_Nov_01_1100,ACPT_experiment_5_30_19,3.1.0,59.954991150319145,
,,,C,G,d,b,L,U,y,L,u,,,,,5,19,119,3,3,0,3,0,,,,,0,3,3,24,,,,,,down,0.616887638811022,1927.4660717730085,None,001,88,2019_Nov_01_1100,ACPT_experiment_5_30_19,3.1.0,59.954991150319145,
,,,C,G,d,b,R,D,d,R,c ,,,,,5,19,119,3,3,0,3,0,,,,,0,4,4,1,,,,,,up,1.1341758679282066,1929.3672798224861,None,001,88,2019_Nov_01_1100,ACPT_experiment_5_30_19,3.1.0,59.954991150319145,
,,,C,G,d,b,R,D,d,L,c,,,,,5,19,119,3,3,0,3,0,,,,,0,5,5,0,,,,,,up,0.86735060722458,1931.7690603378778,None,001,88,2019_Nov_01_1100,ACPT_experiment_5_30_19,3.1.0,59.954991150319145,
,,,C,G,d,b,L,G,g,L,c ,,,,,5,19,119,3,3,0,3,0,,,,,0,6,6,18,,,,,,up,1.0841785997054103,1933.9206893980763,None,001,88,2019_Nov_01_1100,ACPT_experiment_5_30_19,3.1.0,59.954991150319145,
,,,C,G,d,b,L,U,g,L,u,,,,,5,19,119,3,3,0,3,0,,,,,0,7,7,22,,,,,,up,0.6337845143516461,1936.2891944455268,None,001,88,2019_Nov_01_1100,ACPT_experiment_5_30_19,3.1.0,59.954991150319145,
,,,C,G,d,b,L,U,g,R,u,,,,,5,19,119,3,3,0,3,0,,,,,0,8,8,23,,,,,,up,0.6839994192332597,1938.1904562249974,None,001,88,2019_Nov_01_1100,ACPT_experiment_5_30_19,3.1.0,59.954991150319145,
,,,C,G,d,b,L,G,d,L,i,,,,,5,19,119,3,3,0,3,0,,,,,0,9,9,16,,,,,,up,0.7005461442540764,1940.1587428509683,None,001,88,2019_Nov_01_1100,ACPT_experiment_5_30_19,3.1.0,59.954991150319145,
,,,C,G,d,b,R,G,y,L,y,,,,,5,19,119,3,3,0,3,0,,,,,0,10,10,28,,,,,,down,0.8006079941178541,1942.1435991428561,None,001,88,2019_Nov_01_1100,ACPT_experiment_5_30_19,3.1.0,59.954991150319145,
,,,C,G,d,b,L,D,d,L,c ,,,,,5,19,119,3,3,0,3,0,,,,,0,11,11,12,,,,,,up,0.767245894107873,1944.228508832698,None,001,88,2019_Nov_01_1100,ACPT_experiment_5_30_19,3.1.0,59.954991150319145,
,,,C,G,d,b,R,D,g,L,i,,,,,5,19,119,3,3,0,3,0,,,,,0,12,12,2,,,,,,up,0.6504936367691698,1946.2800814764041,None,001,88,2019_Nov_01_1100,ACPT_experiment_5_30_19,3.1.0,59.954991150319145,
,,,C,G,d,b,L,D,y,L,y,,,,,5,19,119,3,3,0,3,0,,,,,0,13,13,32,,,,,,down,0.8006233886662812,1948.214861414349,None,001,88,2019_Nov_01_1100,ACPT_experiment_5_30_19,3.1.0,59.954991150319145,
,,,C,G,d,b,R,D,g,R,i,,,,,5,19,119,3,3,0,3,0,,,,,0,14,14,3,,,,,,up,0.7672525348934869,1950.2997720097528,None,001,88,2019_Nov_01_1100,ACPT_experiment_5_30_19,3.1.0,59.954991150319145,
,,,C,G,d,b,R,D,y,L,y,,,,,5,19,119,3,3,0,3,0,,,,,0,15,15,26,,,,,,down,0.5003711293647939,1952.3513277496404,None,001,88,2019_Nov_01_1100,ACPT_experiment_5_30_19,3.1.0,59.954991150319145,
,,,C,G,d,b,R,G,y,R,y,,,,,5,19,119,3,3,0,3,0,,,,,0,16,16,29,,,,,,down,0.7172108941485931,1954.1193270710728,None,001,88,2019_Nov_01_1100,ACPT_experiment_5_30_19,3.1.0,59.954991150319145,
,,,C,G,d,b,L,U,d,R,u,,,,,5,19,119,3,3,0,3,0,,,,,0,17,17,21,,,,,,up,0.6004845962452237,1956.1208115885338,None,001,88,2019_Nov_01_1100,ACPT_experiment_5_30_19,3.1.0,59.954991150319145,
,,,C,G,d,b,L,G,y,L,y,,,,,5,19,119,3,3,0,3,0,,,,,0,18,18,34,,,,,,down,0.5837966036006037,1958.0056051249967,None,001,88,2019_Nov_01_1100,ACPT_experiment_5_30_19,3.1.0,59.954991150319145,
,,,C,G,d,b,R,G,g,R,c ,,,,,5,19,119,3,3,0,3,0,,,,,0,19,19,7,,,,,,up,0.6502452110125887,1959.8906030165472,None,001,88,2019_Nov_01_1100,ACPT_experiment_5_30_19,3.1.0,59.954991150319145,
,,,C,G,d,b,R,U,g,R,u,,,,,5,19,119,3,3,0,3,0,,,,,0,20,20,11,,,,,,up,0.7505582033172686,1961.8251592807546,None,001,88,2019_Nov_01_1100,ACPT_experiment_5_30_19,3.1.0,59.954991150319145,
,,,C,G,d,b,R,U,g,L,u,,,,,5,19,119,3,3,0,3,0,,,,,0,21,21,10,,,,,,up,0.86734094789972,1963.8433311871522,None,001,88,2019_Nov_01_1100,ACPT_experiment_5_30_19,3.1.0,59.954991150319145,
,,,C,G,d,b,L,U,d,L,u,,,,,5,19,119,3,3,0,3,0,,,,,0,22,22,20,,,,,,up,0.7005259200432192,1965.9949768493161,None,001,88,2019_Nov_01_1100,ACPT_experiment_5_30_19,3.1.0,59.954991150319145,
,,,C,G,d,b,R,U,d,L,u,,,,,5,19,119,3,3,0,3,0,,,,,0,23,23,8,,,,,,up,0.6504797514890015,1967.9798162373854,None,001,88,2019_Nov_01_1100,ACPT_experiment_5_30_19,3.1.0,59.954991150319145,
,,,C,G,d,b,R,G,g,L,c ,,,,,5,19,119,3,3,0,3,0,,,,,0,24,24,6,,,,,,up,0.8006013533313308,1969.9146109661715,None,001,88,2019_Nov_01_1100,ACPT_experiment_5_30_19,3.1.0,59.954991150319145,
,,,C,G,d,b,R,G,d,L,i,,,,,5,19,119,3,3,0,3,0,,,,,0,25,25,4,,,,,,up,0.7505645422497764,1971.9995212597214,None,001,88,2019_Nov_01_1100,ACPT_experiment_5_30_19,3.1.0,59.954991150319145,
,,,C,G,d,b,L,D,g,R,i,,,,,5,19,119,3,3,0,3,0,,,,,0,26,26,15,,,,,,up,0.9340005511849085,1974.034440623981,None,001,88,2019_Nov_01_1100,ACPT_experiment_5_30_19,3.1.0,59.954991150319145,
,,,C,G,d,b,R,G,d,R,i,,,,,5,19,119,3,3,0,3,0,,,,,0,27,27,5,,,,,,up,0.9340376792151801,1976.2527416634748,None,001,88,2019_Nov_01_1100,ACPT_experiment_5_30_19,3.1.0,59.954991150319145,
,,,C,G,d,b,R,D,y,R,y,,,,,5,19,119,3,3,0,3,0,,,,,0,28,28,27,,,,,,down,0.9173632699958034,1978.4710846606604,None,001,88,2019_Nov_01_1100,ACPT_experiment_5_30_19,3.1.0,59.954991150319145,
,,,C,G,d,b,R,U,y,R,u,,,,,5,19,119,3,3,0,3,0,,,,,0,29,29,31,,,,,,down,0.6504854867143877,1980.6727520412123,None,001,88,2019_Nov_01_1100,ACPT_experiment_5_30_19,3.1.0,59.954991150319145,
,,,C,G,d,b,L,D,g,L,i,,,,,5,19,119,3,3,0,3,0,,,,,0,30,30,14,,,,,,up,1.351014727149959,1982.6075685034784,None,001,88,2019_Nov_01_1100,ACPT_experiment_5_30_19,3.1.0,59.954991150319145,
,,,C,G,d,b,R,U,d,R,u,,,,,5,19,119,3,3,0,3,0,,,,,0,31,31,9,,,,,,up,0.6505144646880581,1985.2428553446707,None,001,88,2019_Nov_01_1100,ACPT_experiment_5_30_19,3.1.0,59.954991150319145,
,,,C,G,d,b,L,G,y,R,y,,,,,5,19,119,3,3,0,3,0,,,,,0,32,32,35,,,,,,down,1.0341209607040582,1987.1776669772744,None,001,88,2019_Nov_01_1100,ACPT_experiment_5_30_19,3.1.0,59.954991150319145,
,,,C,G,d,b,L,G,g,R,c ,,,,,5,19,119,3,3,0,3,0,,,,,0,33,33,19,,,,,,up,0.6338056441236404,1989.4794146207769,None,001,88,2019_Nov_01_1100,ACPT_experiment_5_30_19,3.1.0,59.954991150319145,
,,,C,G,d,b,L,U,y,R,u,,,,,5,19,119,3,3,0,3,0,,,,,0,34,34,25,,,,,,down,0.6337971922148427,1991.4142168959097,None,001,88,2019_Nov_01_1100,ACPT_experiment_5_30_19,3.1.0,59.954991150319145,
,,,C,G,d,b,L,D,d,R,c ,,,,,5,19,119,3,3,0,3,0,,,,,0,35,35,13,,,,,,up,0.750555184778932,1993.3656932784088,None,001,88,2019_Nov_01_1100,ACPT_experiment_5_30_19,3.1.0,59.954991150319145,
,,,C,G,d,b,R,U,g,R,u,,,,,5,19,119,3,3,0,3,0,,,,,1,0,36,11,,,,,,up,1.1508614457416115,1995.4005655534602,None,001,88,2019_Nov_01_1100,ACPT_experiment_5_30_19,3.1.0,59.954991150319145,
,,,C,G,d,b,R,D,d,R,c ,,,,,5,19,119,3,3,0,3,0,,,,,1,1,37,1,,,,,,up,1.0174356847455783,1997.835731411611,None,001,88,2019_Nov_01_1100,ACPT_experiment_5_30_19,3.1.0,59.954991150319145,
,,,C,G,d,b,L,D,g,R,i,,,,,5,19,119,3,3,0,3,0,,,,,1,2,38,15,,,,,,up,0.5837667200648866,2000.1374793569667,None,001,88,2019_Nov_01_1100,ACPT_experiment_5_30_19,3.1.0,59.954991150319145,
,,,C,G,d,b,L,U,d,L,u,,,,,5,19,119,3,3,0,3,0,,,,,1,3,39,20,,,,,,up,0.733903716455643,2002.0055598469125,None,001,88,2019_Nov_01_1100,ACPT_experiment_5_30_19,3.1.0,59.954991150319145,
,,,C,G,d,b,R,G,d,L,i,,,,,5,19,119,3,3,0,3,0,,,,,1,4,40,4,,,,,,up,0.6171372719827559,2004.0237483552737,None,001,88,2019_Nov_01_1100,ACPT_experiment_5_30_19,3.1.0,59.954991150319145,
,,,C,G,d,b,R,U,d,L,u,,,,,5,19,119,3,3,0,3,0,,,,,1,5,41,8,,,,,,up,0.6671659330104376,2005.908512310055,None,001,88,2019_Nov_01_1100,ACPT_experiment_5_30_19,3.1.0,59.954991150319145,
,,,C,G,d,b,L,U,g,L,u,,,,,5,19,119,3,3,0,3,0,,,,,1,6,42,22,,,,,,up,0.6004311681053878,2007.8600071056408,None,001,88,2019_Nov_01_1100,ACPT_experiment_5_30_19,3.1.0,59.954991150319145,
,,,C,G,d,b,R,G,g,R,c ,,,,,5,19,119,3,3,0,3,0,,,,,1,7,43,7,,,,,,up,0.6338491110855102,2009.7447212545294,None,001,88,2019_Nov_01_1100,ACPT_experiment_5_30_19,3.1.0,59.954991150319145,
,,,C,G,d,b,L,U,y,R,u,,,,,5,19,119,3,3,0,3,0,,,,,1,8,44,25,,,,,,down,0.6838457756002754,2011.6628636094301,None,001,88,2019_Nov_01_1100,ACPT_experiment_5_30_19,3.1.0,59.954991150319145,
,,,C,G,d,b,R,D,g,L,i,,,,,5,19,119,3,3,0,3,0,,,,,1,9,45,2,,,,,,up,0.8173198332196989,2013.6310198345182,None,001,88,2019_Nov_01_1100,ACPT_experiment_5_30_19,3.1.0,59.954991150319145,
,,,C,G,d,b,R,D,y,R,y,,,,,5,19,119,3,3,0,3,0,,,,,1,10,46,27,,,,,,down,0.5504154867958277,2015.7326033298714,None,001,88,2019_Nov_01_1100,ACPT_experiment_5_30_19,3.1.0,59.954991150319145,
,,,C,G,d,b,R,D,g,R,i,,,,,5,19,119,3,3,0,3,0,,,,,1,11,47,3,,,,,,down,0.7005672740269802,2017.5673114567744,None,001,88,2019_Nov_01_1100,ACPT_experiment_5_30_19,3.1.0,59.954991150319145,
,,,C,G,d,b,L,D,d,R,c ,,,,,5,19,119,3,3,0,3,0,,,,,1,12,48,13,,,,,,up,0.884006603355374,2019.5521635227078,None,001,88,2019_Nov_01_1100,ACPT_experiment_5_30_19,3.1.0,59.954991150319145,
,,,C,G,d,b,R,G,d,R,i,,,,,5,19,119,3,3,0,3,0,,,,,1,13,49,5,,,,,,up,1.2843170902724523,2021.7204579365089,None,001,88,2019_Nov_01_1100,ACPT_experiment_5_30_19,3.1.0,59.954991150319145,
,,,C,G,d,b,L,U,g,R,u,,,,,5,19,119,3,3,0,3,0,,,,,1,14,50,23,,,,,,up,0.8840023774018846,2024.289085174416,None,001,88,2019_Nov_01_1100,ACPT_experiment_5_30_19,3.1.0,59.954991150319145,
,,,C,G,d,b,L,D,g,L,i,,,,,5,19,119,3,3,0,3,0,,,,,1,15,51,14,,,,,,down,0.9840666420950583,2026.4573980013047,None,001,88,2019_Nov_01_1100,ACPT_experiment_5_30_19,3.1.0,59.954991150319145,
,,,C,G,d,b,R,U,g,L,u,,,,,5,19,119,3,3,0,3,0,,,,,1,16,52,10,,,,,,up,0.5504260516818249,2028.7257530575544,None,001,88,2019_Nov_01_1100,ACPT_experiment_5_30_19,3.1.0,59.954991150319145,
,,,C,G,d,b,L,G,d,L,i,,,,,5,19,119,3,3,0,3,0,,,,,1,17,53,16,,,,,,up,0.6004628627642887,2030.5604732586125,None,001,88,2019_Nov_01_1100,ACPT_experiment_5_30_19,3.1.0,59.954991150319145,
,,,C,G,d,b,L,U,d,R,u,,,,,5,19,119,3,3,0,3,0,,,,,1,18,54,21,,,,,,up,0.7338831903898608,2032.4452544190663,None,001,88,2019_Nov_01_1100,ACPT_experiment_5_30_19,3.1.0,59.954991150319145,
,,,C,G,d,b,L,G,g,L,c ,,,,,5,19,119,3,3,0,3,0,,,,,1,19,55,18,,,,,,up,0.6837851029667945,2034.4634459459667,None,001,88,2019_Nov_01_1100,ACPT_experiment_5_30_19,3.1.0,59.954991150319145,
,,,C,G,d,b,R,G,y,R,y,,,,,5,19,119,3,3,0,3,0,,,,,1,20,56,29,,,,,,down,0.9004549240071356,2036.448472483452,None,001,88,2019_Nov_01_1100,ACPT_experiment_5_30_19,3.1.0,59.954991150319145,
,,,C,G,d,b,L,D,y,L,y,,,,,5,19,119,3,3,0,3,0,,,,,1,21,57,32,,,,,,down,0.7672398570302903,2038.6499499979027,None,001,88,2019_Nov_01_1100,ACPT_experiment_5_30_19,3.1.0,59.954991150319145,
,,,C,G,d,b,R,U,d,R,u,,,,,5,19,119,3,3,0,3,0,,,,,1,22,58,9,,,,,,up,1.0341777092362463,2040.7014957766114,None,001,88,2019_Nov_01_1100,ACPT_experiment_5_30_19,3.1.0,59.954991150319145,
,,,C,G,d,b,L,D,y,R,y,,,,,5,19,119,3,3,0,3,0,,,,,1,23,59,33,,,,,,down,0.9007051608869006,2043.0199193386024,None,001,88,2019_Nov_01_1100,ACPT_experiment_5_30_19,3.1.0,59.954991150319145,
,,,C,G,d,b,R,G,g,L,c ,,,,,5,19,119,3,3,0,3,0,,,,,1,24,60,6,,,,,,up,0.7339094516792102,2045.2048848412296,None,001,88,2019_Nov_01_1100,ACPT_experiment_5_30_19,3.1.0,59.954991150319145,
,,,C,G,d,b,L,G,y,R,y,,,,,5,19,119,3,3,0,3,0,,,,,1,25,61,35,,,,,,down,0.783921812596418,2047.2231023275654,None,001,88,2019_Nov_01_1100,ACPT_experiment_5_30_19,3.1.0,59.954991150319145,
,,,C,G,d,b,L,G,g,R,c ,,,,,5,19,119,3,3,0,3,0,,,,,1,26,62,19,,,,,,up,1.3010183644892095,2049.2913016875746,None,001,88,2019_Nov_01_1100,ACPT_experiment_5_30_19,3.1.0,59.954991150319145,
,,,C,G,d,b,R,G,y,L,y,,,,,5,19,119,3,3,0,3,0,,,,,1,27,63,28,,,,,,down,1.3343403179314919,2051.8766223514967,None,001,88,2019_Nov_01_1100,ACPT_experiment_5_30_19,3.1.0,59.954991150319145,
,,,C,G,d,b,L,U,y,L,u,,,,,5,19,119,3,3,0,3,0,,,,,1,28,64,24,,,,,,down,0.6004535052934443,2054.495262252174,None,001,88,2019_Nov_01_1100,ACPT_experiment_5_30_19,3.1.0,59.954991150319145,
,,,C,G,d,b,R,U,y,R,u,,,,,5,19,119,3,3,0,3,0,,,,,1,29,65,31,,,,,,down,0.5837757756817155,2056.3800271125174,None,001,88,2019_Nov_01_1100,ACPT_experiment_5_30_19,3.1.0,59.954991150319145,
,,,C,G,d,b,R,D,d,L,c,,,,,5,19,119,3,3,0,3,0,,,,,1,30,66,0,,,,,,up,0.6669247517484109,2058.2650304374383,None,001,88,2019_Nov_01_1100,ACPT_experiment_5_30_19,3.1.0,59.954991150319145,
,,,C,G,d,b,L,D,d,L,c ,,,,,5,19,119,3,3,0,3,0,,,,,1,31,67,12,,,,,,up,0.6004586368098899,2060.2162659405276,None,001,88,2019_Nov_01_1100,ACPT_experiment_5_30_19,3.1.0,59.954991150319145,
,,,C,G,d,b,R,D,y,L,y,,,,,5,19,119,3,3,0,3,0,,,,,1,32,68,26,,,,,,down,0.6505048053631981,2062.101020537838,None,001,88,2019_Nov_01_1100,ACPT_experiment_5_30_19,3.1.0,59.954991150319145,
,,,C,G,d,b,L,G,d,R,i,,,,,5,19,119,3,3,0,3,0,,,,,1,33,69,17,,,,,,up,0.7672495163551503,2064.035816775893,None,001,88,2019_Nov_01_1100,ACPT_experiment_5_30_19,3.1.0,59.954991150319145,
,,,C,G,d,b,L,G,y,L,y,,,,,5,19,119,3,3,0,3,0,,,,,1,34,70,34,,,,,,down,0.91736628853414,2066.070694484315,None,001,88,2019_Nov_01_1100,ACPT_experiment_5_30_19,3.1.0,59.954991150319145,
,,,C,G,d,b,R,U,y,L,u,,,,,5,19,119,3,3,0,3,0,,,,,1,35,71,30,,,,,,down,1.434440805091981,2068.2723337924535,None,001,88,2019_Nov_01_1100,ACPT_experiment_5_30_19,3.1.0,59.954991150319145,
,,,C,G,d,b,,,,,,,,,,5,19,119,3,4,0,4,0,0,0,0,0,,,,,,,,,,,,,,001,88,2019_Nov_01_1100,ACPT_experiment_5_30_19,3.1.0,59.954991150319145,
,,,C,G,d,b,R,D,g,L,i,,,,,5,19,119,3,4,0,4,0,,,,,0,0,0,2,,,,,,down,6.237735298885127,2073.6934374850016,None,001,88,2019_Nov_01_1100,ACPT_experiment_5_30_19,3.1.0,59.954991150319145,
,,,C,G,d,b,L,U,g,L,u,,,,,5,19,119,3,4,0,4,0,,,,,0,1,1,22,,,,,,up,0.8339824701370162,2081.2154847426445,None,001,88,2019_Nov_01_1100,ACPT_experiment_5_30_19,3.1.0,59.954991150319145,
,,,C,G,d,b,L,D,g,L,i,,,,,5,19,119,3,4,0,4,0,,,,,0,2,2,14,,,,,,up,0.833956812555698,2083.3337544195183,None,001,88,2019_Nov_01_1100,ACPT_experiment_5_30_19,3.1.0,59.954991150319145,
,,,C,G,d,b,L,G,y,L,y,,,,,5,19,119,3,4,0,4,0,,,,,0,3,3,34,,,,,,down,0.6171194626040233,2085.4520301334715,None,001,88,2019_Nov_01_1100,ACPT_experiment_5_30_19,3.1.0,59.954991150319145,
,,,C,G,d,b,R,G,y,L,y,,,,,5,19,119,3,4,0,4,0,,,,,0,4,4,28,,,,,,down,0.6335701980860904,2087.370401897333,None,001,88,2019_Nov_01_1100,ACPT_experiment_5_30_19,3.1.0,59.954991150319145,
,,,C,G,d,b,L,G,g,R,c ,,,,,5,19,119,3,4,0,4,0,,,,,0,5,5,19,,,,,,up,0.7672712498351757,2089.2882318334523,None,001,88,2019_Nov_01_1100,ACPT_experiment_5_30_19,3.1.0,59.954991150319145,
,,,C,G,d,b,R,G,d,L,i,,,,,5,19,119,3,4,0,4,0,,,,,0,6,6,4,,,,,,up,1.067479136613656,2091.3398056845735,None,001,88,2019_Nov_01_1100,ACPT_experiment_5_30_19,3.1.0,59.954991150319145,
,,,C,G,d,b,R,G,g,L,c ,,,,,5,19,119,3,4,0,4,0,,,,,0,7,7,6,,,,,,up,0.9507135977028156,2093.6915904410116,None,001,88,2019_Nov_01_1100,ACPT_experiment_5_30_19,3.1.0,59.954991150319145,
,,,C,G,d,b,R,D,y,R,y,,,,,5,19,119,3,4,0,4,0,,,,,0,8,8,27,,,,,,down,0.9006767866203518,2095.926612677079,None,001,88,2019_Nov_01_1100,ACPT_experiment_5_30_19,3.1.0,59.954991150319145,
,,,C,G,d,b,L,U,y,R,u,,,,,5,19,119,3,4,0,4,0,,,,,0,9,9,25,,,,,,down,1.000760369964155,2098.1115944798175,None,001,88,2019_Nov_01_1100,ACPT_experiment_5_30_19,3.1.0,59.954991150319145,
,,,C,G,d,b,R,G,y,R,y,,,,,5,19,119,3,4,0,4,0,,,,,0,10,10,29,,,,,,down,0.7505597125873464,2100.3966668085386,None,001,88,2019_Nov_01_1100,ACPT_experiment_5_30_19,3.1.0,59.954991150319145,
,,,C,G,d,b,L,U,d,L,u,,,,,5,19,119,3,4,0,4,0,,,,,0,11,11,20,,,,,,up,1.3676990975482113,2102.4315339520736,None,001,88,2019_Nov_01_1100,ACPT_experiment_5_30_19,3.1.0,59.954991150319145,
,,,C,G,d,b,R,U,g,L,u,,,,,5,19,119,3,4,0,4,0,,,,,0,12,12,10,,,,,,up,0.6505162758112419,2105.083515124843,None,001,88,2019_Nov_01_1100,ACPT_experiment_5_30_19,3.1.0,59.954991150319145,
,,,C,G,d,b,L,G,g,L,c ,,,,,5,19,119,3,4,0,4,0,,,,,0,13,13,18,,,,,,up,0.5837649089407932,2107.0183454723883,None,001,88,2019_Nov_01_1100,ACPT_experiment_5_30_19,3.1.0,59.954991150319145,
,,,C,G,d,b,R,G,d,R,i,,,,,5,19,119,3,4,0,4,0,,,,,0,14,14,5,,,,,,up,1.4510989142017934,2108.8864169067165,None,001,88,2019_Nov_01_1100,ACPT_experiment_5_30_19,3.1.0,59.954991150319145,
,,,C,G,d,b,L,G,d,L,i,,,,,5,19,119,3,4,0,4,0,,,,,0,15,15,16,,,,,,up,0.9006773903283829,2111.6218199314735,None,001,88,2019_Nov_01_1100,ACPT_experiment_5_30_19,3.1.0,59.954991150319145,
,,,C,G,d,b,L,U,d,R,u,,,,,5,19,119,3,4,0,4,0,,,,,0,16,16,21,,,,,,up,1.6343378125429808,2113.8404225230097,None,001,88,2019_Nov_01_1100,ACPT_experiment_5_30_19,3.1.0,59.954991150319145,
,,,C,G,d,b,L,G,d,R,i,,,,,5,19,119,3,4,0,4,0,,,,,0,17,17,17,,,,,,up,0.7339417500461423,2116.7423393254358,None,001,88,2019_Nov_01_1100,ACPT_experiment_5_30_19,3.1.0,59.954991150319145,
,,,C,G,d,b,L,D,d,R,c ,,,,,5,19,119,3,4,0,4,0,,,,,0,18,18,13,,,,,,up,0.5837458921459984,2118.760562245141,None,001,88,2019_Nov_01_1100,ACPT_experiment_5_30_19,3.1.0,59.954991150319145,
,,,C,G,d,b,R,D,d,R,c ,,,,,5,19,119,3,4,0,4,0,,,,,0,19,19,1,,,,,,up,0.5003623756019806,2120.628640923963,None,001,88,2019_Nov_01_1100,ACPT_experiment_5_30_19,3.1.0,59.954991150319145,
,,,C,G,d,b,R,U,y,L,u,,,,,5,19,119,3,4,0,4,0,,,,,0,20,20,30,,,,,,down,0.5837923776462048,2122.413296241527,None,001,88,2019_Nov_01_1100,ACPT_experiment_5_30_19,3.1.0,59.954991150319145,
,,,C,G,d,b,L,D,g,R,i,,,,,5,19,119,3,4,0,4,0,,,,,0,21,21,15,,,,,,up,0.7505693719122064,2124.281397257537,None,001,88,2019_Nov_01_1100,ACPT_experiment_5_30_19,3.1.0,59.954991150319145,
,,,C,G,d,b,L,D,y,R,y,,,,,5,19,119,3,4,0,4,0,,,,,0,22,22,33,,,,,,down,1.0341378645225632,2126.2995679565192,None,001,88,2019_Nov_01_1100,ACPT_experiment_5_30_19,3.1.0,59.954991150319145,
,,,C,G,d,b,L,U,y,L,u,,,,,5,19,119,3,4,0,4,0,,,,,0,23,23,24,,,,,,down,0.7839230200124803,2128.6180126482823,None,001,88,2019_Nov_01_1100,ACPT_experiment_5_30_19,3.1.0,59.954991150319145,
,,,C,G,d,b,R,D,y,L,y,,,,,5,19,119,3,4,0,4,0,,,,,0,24,24,26,,,,,,down,0.9005152947866009,2130.7030711520956,None,001,88,2019_Nov_01_1100,ACPT_experiment_5_30_19,3.1.0,59.954991150319145,
,,,C,G,d,b,R,U,y,R,u,,,,,5,19,119,3,4,0,4,0,,,,,0,25,25,31,,,,,,down,1.067488795938516,2132.904587605698,None,001,88,2019_Nov_01_1100,ACPT_experiment_5_30_19,3.1.0,59.954991150319145,
,,,C,G,d,b,R,G,g,R,c ,,,,,5,19,119,3,4,0,4,0,,,,,0,26,26,7,,,,,,up,1.1175087032024749,2135.2563693435977,None,001,88,2019_Nov_01_1100,ACPT_experiment_5_30_19,3.1.0,59.954991150319145,
,,,C,G,d,b,R,U,d,R,u,,,,,5,19,119,3,4,0,4,0,,,,,0,27,27,9,,,,,,up,1.0674752125132727,2137.6581836666255,None,001,88,2019_Nov_01_1100,ACPT_experiment_5_30_19,3.1.0,59.954991150319145,
,,,C,G,d,b,L,D,y,L,y,,,,,5,19,119,3,4,0,4,0,,,,,0,28,28,32,,,,,,down,0.9006788995975512,2140.0266470582383,None,001,88,2019_Nov_01_1100,ACPT_experiment_5_30_19,3.1.0,59.954991150319145,
,,,C,G,d,b,L,U,g,R,u,,,,,5,19,119,3,4,0,4,0,,,,,0,29,29,23,,,,,,up,0.9340696757271871,2142.22831142025,None,001,88,2019_Nov_01_1100,ACPT_experiment_5_30_19,3.1.0,59.954991150319145,
,,,C,G,d,b,R,U,g,R,u,,,,,5,19,119,3,4,0,4,0,,,,,0,30,30,11,,,,,,up,0.9340277180363046,2144.44666015266,None,001,88,2019_Nov_01_1100,ACPT_experiment_5_30_19,3.1.0,59.954991150319145,
,,,C,G,d,b,R,U,d,L,u,,,,,5,19,119,3,4,0,4,0,,,,,0,31,31,8,,,,,,up,1.1508717087735931,2146.6650019424305,None,001,88,2019_Nov_01_1100,ACPT_experiment_5_30_19,3.1.0,59.954991150319145,
,,,C,G,d,b,L,D,d,L,c ,,,,,5,19,119,3,4,0,4,0,,,,,0,32,32,12,,,,,,up,1.2843098457806263,2149.100174441367,None,001,88,2019_Nov_01_1100,ACPT_experiment_5_30_19,3.1.0,59.954991150319145,
,,,C,G,d,b,R,D,d,L,c,,,,,5,19,119,3,4,0,4,0,,,,,0,33,33,0,,,,,,up,1.2009106328332564,2151.6687847754556,None,001,88,2019_Nov_01_1100,ACPT_experiment_5_30_19,3.1.0,59.954991150319145,
,,,C,G,d,b,R,D,g,R,i,,,,,5,19,119,3,4,0,4,0,,,,,0,34,34,3,,,,,,up,0.6171852667530402,2154.1373160540097,None,001,88,2019_Nov_01_1100,ACPT_experiment_5_30_19,3.1.0,59.954991150319145,
,,,C,G,d,b,L,G,y,R,y,,,,,5,19,119,3,4,0,4,0,,,,,0,35,35,35,,,,,,down,0.800592599569427,2156.038763171772,None,001,88,2019_Nov_01_1100,ACPT_experiment_5_30_19,3.1.0,59.954991150319145,
,,,C,G,d,b,L,U,y,L,u,,,,,5,19,119,3,4,0,4,0,,,,,1,0,36,24,,,,,,down,0.8339619440721435,2158.1236674282445,None,001,88,2019_Nov_01_1100,ACPT_experiment_5_30_19,3.1.0,59.954991150319145,
,,,C,G,d,b,L,G,d,L,i,,,,,5,19,119,3,4,0,4,0,,,,,1,1,37,16,,,,,,up,0.7839800703977744,2160.241914164223,None,001,88,2019_Nov_01_1100,ACPT_experiment_5_30_19,3.1.0,59.954991150319145,
,,,C,G,d,b,R,U,y,R,u,,,,,5,19,119,3,4,0,4,0,,,,,1,2,38,31,,,,,,down,0.7672745702284374,2162.310145520745,None,001,88,2019_Nov_01_1100,ACPT_experiment_5_30_19,3.1.0,59.954991150319145,
,,,C,G,d,b,R,G,g,L,c ,,,,,5,19,119,3,4,0,4,0,,,,,1,3,39,6,,,,,,up,1.5511716308046744,2164.3617205792825,None,001,88,2019_Nov_01_1100,ACPT_experiment_5_30_19,3.1.0,59.954991150319145,
,,,C,G,d,b,L,D,y,R,y,,,,,5,19,119,3,4,0,4,0,,,,,1,4,40,33,,,,,,down,1.7179667363043336,2167.1971987354736,None,001,88,2019_Nov_01_1100,ACPT_experiment_5_30_19,3.1.0,59.954991150319145,
,,,C,G,d,b,R,G,y,R,y,,,,,5,19,119,3,4,0,4,0,,,,,1,5,41,29,,,,,,down,0.7005253163351881,2170.1994747138506,None,001,88,2019_Nov_01_1100,ACPT_experiment_5_30_19,3.1.0,59.954991150319145,
,,,C,G,d,b,L,D,d,R,c ,,,,,5,19,119,3,4,0,4,0,,,,,1,6,42,13,,,,,,up,0.7672235569198165,2172.184328892761,None,001,88,2019_Nov_01_1100,ACPT_experiment_5_30_19,3.1.0,59.954991150319145,
,,,C,G,d,b,R,U,d,R,u,,,,,5,19,119,3,4,0,4,0,,,,,1,7,43,9,,,,,,up,0.6338279813126064,2174.2191589082677,None,001,88,2019_Nov_01_1100,ACPT_experiment_5_30_19,3.1.0,59.954991150319145,
,,,C,G,d,b,L,G,y,L,y,,,,,5,19,119,3,4,0,4,0,,,,,1,8,44,34,,,,,,down,0.5667219361157549,2176.1543222006603,None,001,88,2019_Nov_01_1100,ACPT_experiment_5_30_19,3.1.0,59.954991150319145,
,,,C,G,d,b,L,D,g,R,i,,,,,5,19,119,3,4,0,4,0,,,,,1,9,45,15,,,,,,up,0.8673219311040157,2178.0053926198534,None,001,88,2019_Nov_01_1100,ACPT_experiment_5_30_19,3.1.0,59.954991150319145,
,,,C,G,d,b,R,D,g,R,i,,,,,5,19,119,3,4,0,4,0,,,,,1,10,46,3,,,,,,down,1.2843182976885146,2180.157003266965,None,001,88,2019_Nov_01_1100,ACPT_experiment_5_30_19,3.1.0,59.954991150319145,
,,,C,G,d,b,L,U,g,R,u,,,,,5,19,119,3,4,0,4,0,,,,,1,11,47,23,,,,,,down,0.9173913424083366,2182.7089081008835,None,001,88,2019_Nov_01_1100,ACPT_experiment_5_30_19,3.1.0,59.954991150319145,
,,,C,G,d,b,L,G,g,R,c ,,,,,5,19,119,3,4,0,4,0,,,,,1,12,48,19,,,,,,up,0.8339655663194208,2184.9105984223306,None,001,88,2019_Nov_01_1100,ACPT_experiment_5_30_19,3.1.0,59.954991150319145,
,,,C,G,d,b,R,U,d,L,u,,,,,5,19,119,3,4,0,4,0,,,,,1,13,49,8,,,,,,up,0.934135178023098,2187.0288677973513,None,001,88,2019_Nov_01_1100,ACPT_experiment_5_30_19,3.1.0,59.954991150319145,
,,,C,G,d,b,R,G,d,L,i,,,,,5,19,119,3,4,0,4,0,,,,,1,14,50,4,,,,,,up,0.6838720368887152,2189.2471950981344,None,001,88,2019_Nov_01_1100,ACPT_experiment_5_30_19,3.1.0,59.954991150319145,
,,,C,G,d,b,L,G,g,L,c ,,,,,5,19,119,3,4,0,4,0,,,,,1,15,51,18,,,,,,up,0.6838901481232824,2191.215344078729,None,001,88,2019_Nov_01_1100,ACPT_experiment_5_30_19,3.1.0,59.954991150319145,
,,,C,G,d,b,R,U,y,L,u,,,,,5,19,119,3,4,0,4,0,,,,,1,16,52,30,,,,,,down,0.7005286367284498,2193.183522942859,None,001,88,2019_Nov_01_1100,ACPT_experiment_5_30_19,3.1.0,59.954991150319145,
,,,C,G,d,b,R,G,d,R,i,,,,,5,19,119,3,4,0,4,0,,,,,1,17,53,5,,,,,,up,0.717252248132354,2195.168337277055,None,001,88,2019_Nov_01_1100,ACPT_experiment_5_30_19,3.1.0,59.954991150319145,
,,,C,G,d,b,L,G,d,R,i,,,,,5,19,119,3,4,0,4,0,,,,,1,18,54,17,,,,,,up,0.6338382443454975,2197.153207756076,None,001,88,2019_Nov_01_1100,ACPT_experiment_5_30_19,3.1.0,59.954991150319145,
,,,C,G,d,b,L,D,d,L,c ,,,,,5,19,119,3,4,0,4,0,,,,,1,19,55,12,,,,,,up,0.8839984533005918,2199.071310568117,None,001,88,2019_Nov_01_1100,ACPT_experiment_5_30_19,3.1.0,59.954991150319145,
,,,C,G,d,b,L,U,d,R,u,,,,,5,19,119,3,4,0,4,0,,,,,1,20,56,21,,,,,,up,0.7672718535432068,2201.2229408357316,None,001,88,2019_Nov_01_1100,ACPT_experiment_5_30_19,3.1.0,59.954991150319145,
,,,C,G,d,b,L,D,g,L,i,,,,,5,19,119,3,4,0,4,0,,,,,1,21,57,14,,,,,,up,0.9173318771900085,2203.274514988707,None,001,88,2019_Nov_01_1100,ACPT_experiment_5_30_19,3.1.0,59.954991150319145,
,,,C,G,d,b,R,D,g,L,i,,,,,5,19,119,3,4,0,4,0,,,,,1,22,58,2,,,,,,up,0.767228688436262,2205.4761748229103,None,001,88,2019_Nov_01_1100,ACPT_experiment_5_30_19,3.1.0,59.954991150319145,
,,,C,G,d,b,L,G,y,R,y,,,,,5,19,119,3,4,0,4,0,,,,,1,23,59,35,,,,,,down,0.583788453544912,2207.5277154701034,None,001,88,2019_Nov_01_1100,ACPT_experiment_5_30_19,3.1.0,59.954991150319145,
,,,C,G,d,b,L,U,g,L,u,,,,,5,19,119,3,4,0,4,0,,,,,1,24,60,22,,,,,,up,0.7172262886970202,2209.395771208029,None,001,88,2019_Nov_01_1100,ACPT_experiment_5_30_19,3.1.0,59.954991150319145,
,,,C,G,d,b,R,U,g,R,u,,,,,5,19,119,3,4,0,4,0,,,,,1,25,61,11,,,,,,up,0.6171520628240614,2211.380603351605,None,001,88,2019_Nov_01_1100,ACPT_experiment_5_30_19,3.1.0,59.954991150319145,
,,,C,G,d,b,L,U,y,R,u,,,,,5,19,119,3,4,0,4,0,,,,,1,26,62,25,,,,,,down,0.750545525454072,2213.2820836732963,None,001,88,2019_Nov_01_1100,ACPT_experiment_5_30_19,3.1.0,59.954991150319145,
,,,C,G,d,b,L,D,y,L,y,,,,,5,19,119,3,4,0,4,0,,,,,1,27,63,32,,,,,,down,0.9507154088259995,2215.3502972204387,None,001,88,2019_Nov_01_1100,ACPT_experiment_5_30_19,3.1.0,59.954991150319145,
,,,C,G,d,b,R,G,g,R,c ,,,,,5,19,119,3,4,0,4,0,,,,,1,28,64,7,,,,,,up,0.8173035331092251,2217.601979074884,None,001,88,2019_Nov_01_1100,ACPT_experiment_5_30_19,3.1.0,59.954991150319145,
,,,C,G,d,b,R,U,g,L,u,,,,,5,19,119,3,4,0,4,0,,,,,1,29,65,10,,,,,,up,0.7839369052917391,2219.703591850066,None,001,88,2019_Nov_01_1100,ACPT_experiment_5_30_19,3.1.0,59.954991150319145,
,,,C,G,d,b,R,G,y,L,y,,,,,5,19,119,3,4,0,4,0,,,,,1,30,66,28,,,,,,down,1.0174257235657933,2221.7885060677163,None,001,88,2019_Nov_01_1100,ACPT_experiment_5_30_19,3.1.0,59.954991150319145,
,,,C,G,d,b,R,D,y,L,y,,,,,5,19,119,3,4,0,4,0,,,,,1,31,67,26,,,,,,down,0.8840277331291873,2224.1068994443176,None,001,88,2019_Nov_01_1100,ACPT_experiment_5_30_19,3.1.0,59.954991150319145,
,,,C,G,d,b,R,D,y,R,y,,,,,5,19,119,3,4,0,4,0,,,,,1,32,68,27,,,,,,down,0.9006816162827818,2226.275228269463,None,001,88,2019_Nov_01_1100,ACPT_experiment_5_30_19,3.1.0,59.954991150319145,
,,,C,G,d,b,R,D,d,L,c,,,,,5,19,119,3,4,0,4,0,,,,,1,33,69,0,,,,,,up,0.8506662368263278,2228.460217316694,None,001,88,2019_Nov_01_1100,ACPT_experiment_5_30_19,3.1.0,59.954991150319145,
,,,C,G,d,b,R,D,d,R,c ,,,,,5,19,119,3,4,0,4,0,,,,,1,34,70,1,,,,,,up,2.3184181286205785,2230.5951656287425,None,001,88,2019_Nov_01_1100,ACPT_experiment_5_30_19,3.1.0,59.954991150319145,
,,,C,G,d,b,L,U,d,L,u,,,,,5,19,119,3,4,0,4,0,,,,,1,35,71,20,,,,,,up,0.6671719700889298,2234.197885151234,None,001,88,2019_Nov_01_1100,ACPT_experiment_5_30_19,3.1.0,59.954991150319145,
,,,C,G,d,b,,,,,,,,,,5,19,119,3,5,0,5,0,0,0,0,0,,,,,,,,,,,,,,001,88,2019_Nov_01_1100,ACPT_experiment_5_30_19,3.1.0,59.954991150319145,
,,,C,G,d,b,R,D,y,R,y,,,,,5,19,119,3,5,0,5,0,,,,,0,0,0,27,,,,,,down,0.8502599414823635,2241.6205464098857,None,001,88,2019_Nov_01_1100,ACPT_experiment_5_30_19,3.1.0,59.954991150319145,
,,,C,G,d,b,L,G,d,R,i,,,,,5,19,119,3,5,0,5,0,,,,,0,1,1,17,,,,,,up,0.7839100402943586,2243.755130987989,None,001,88,2019_Nov_01_1100,ACPT_experiment_5_30_19,3.1.0,59.954991150319145,
,,,C,G,d,b,R,U,y,L,u,,,,,5,19,119,3,5,0,5,0,,,,,0,2,2,30,,,,,,down,0.883996944030514,2245.82334906294,None,001,88,2019_Nov_01_1100,ACPT_experiment_5_30_19,3.1.0,59.954991150319145,
,,,C,G,d,b,L,G,g,R,c ,,,,,5,19,119,3,5,0,5,0,,,,,0,3,3,19,,,,,,up,1.284070173785949,2248.008601930477,None,001,88,2019_Nov_01_1100,ACPT_experiment_5_30_19,3.1.0,59.954991150319145,
,,,C,G,d,b,L,U,y,L,u,,,,,5,19,119,3,5,0,5,0,,,,,0,4,4,24,,,,,,down,0.7839239255736175,2250.576948444261,None,001,88,2019_Nov_01_1100,ACPT_experiment_5_30_19,3.1.0,59.954991150319145,
,,,C,G,d,b,R,D,g,R,i,,,,,5,19,119,3,5,0,5,0,,,,,0,5,5,3,,,,,,down,1.2009048976096892,2252.645180102637,None,001,88,2019_Nov_01_1100,ACPT_experiment_5_30_19,3.1.0,59.954991150319145,
,,,C,G,d,b,R,U,d,R,u,,,,,5,19,119,3,5,0,5,0,,,,,0,6,6,9,,,,,,up,0.7505642403957609,2255.130393336757,None,001,88,2019_Nov_01_1100,ACPT_experiment_5_30_19,3.1.0,59.954991150319145,
,,,C,G,d,b,L,G,g,L,c ,,,,,5,19,119,3,5,0,5,0,,,,,0,7,7,18,,,,,,down,1.200945346032313,2257.1652511228212,None,001,88,2019_Nov_01_1100,ACPT_experiment_5_30_19,3.1.0,59.954991150319145,
,,,C,G,d,b,R,G,g,L,c ,,,,,5,19,119,3,5,0,5,0,,,,,0,8,8,6,,,,,,up,1.167551551363431,2259.6504767329516,None,001,88,2019_Nov_01_1100,ACPT_experiment_5_30_19,3.1.0,59.954991150319145,
,,,C,G,d,b,R,U,y,R,u,,,,,5,19,119,3,5,0,5,0,,,,,0,9,9,31,,,,,,down,0.9671742943628487,2262.119238929735,None,001,88,2019_Nov_01_1100,ACPT_experiment_5_30_19,3.1.0,59.954991150319145,
,,,C,G,d,b,R,U,g,L,u,,,,,5,19,119,3,5,0,5,0,,,,,0,10,10,10,,,,,,up,1.3510180475423113,2264.370718240217,None,001,88,2019_Nov_01_1100,ACPT_experiment_5_30_19,3.1.0,59.954991150319145,
,,,C,G,d,b,L,D,g,R,i,,,,,5,19,119,3,5,0,5,0,,,,,0,11,11,15,,,,,,up,1.3843798456982768,2267.006046133539,None,001,88,2019_Nov_01_1100,ACPT_experiment_5_30_19,3.1.0,59.954991150319145,
,,,C,G,d,b,L,U,g,R,u,,,,,5,19,119,3,5,0,5,0,,,,,0,12,12,23,,,,,,down,1.1675470235550165,2269.6747300897932,None,001,88,2019_Nov_01_1100,ACPT_experiment_5_30_19,3.1.0,59.954991150319145,
,,,C,G,d,b,L,U,y,R,u,,,,,5,19,119,3,5,0,5,0,,,,,0,13,13,25,,,,,,down,1.2843258440361751,2272.1098862886192,None,001,88,2019_Nov_01_1100,ACPT_experiment_5_30_19,3.1.0,59.954991150319145,
,,,C,G,d,b,R,G,d,R,i,,,,,5,19,119,3,5,0,5,0,,,,,0,14,14,5,,,,,,up,0.7672443848387047,2274.6785165450656,None,001,88,2019_Nov_01_1100,ACPT_experiment_5_30_19,3.1.0,59.954991150319145,
,,,C,G,d,b,R,G,y,R,y,,,,,5,19,119,3,5,0,5,0,,,,,0,15,15,29,,,,,,down,0.9173656848261089,2276.7133812737693,None,001,88,2019_Nov_01_1100,ACPT_experiment_5_30_19,3.1.0,59.954991150319145,
,,,C,G,d,b,R,G,y,L,y,,,,,5,19,119,3,5,0,5,0,,,,,0,16,16,28,,,,,,down,1.0009082783726626,2278.8982242237153,None,001,88,2019_Nov_01_1100,ACPT_experiment_5_30_19,3.1.0,59.954991150319145,
,,,C,G,d,b,L,D,y,L,y,,,,,5,19,119,3,5,0,5,0,,,,,0,17,17,32,,,,,,down,1.0174353828906533,2281.1834326885437,None,001,88,2019_Nov_01_1100,ACPT_experiment_5_30_19,3.1.0,59.954991150319145,
,,,C,G,d,b,R,D,d,R,c ,,,,,5,19,119,3,5,0,5,0,,,,,0,18,18,1,,,,,,up,1.2676278902135891,2283.485177615361,None,001,88,2019_Nov_01_1100,ACPT_experiment_5_30_19,3.1.0,59.954991150319145,
,,,C,G,d,b,R,D,g,L,i,,,,,5,19,119,3,5,0,5,0,,,,,0,19,19,2,,,,,,up,1.0508116700339087,2286.020411662307,None,001,88,2019_Nov_01_1100,ACPT_experiment_5_30_19,3.1.0,59.954991150319145,
,,,C,G,d,b,L,G,y,L,y,,,,,5,19,119,3,5,0,5,0,,,,,0,20,20,34,,,,,,down,3.3358501911188796,2288.372213624418,None,001,88,2019_Nov_01_1100,ACPT_experiment_5_30_19,3.1.0,59.954991150319145,
,,,C,G,d,b,L,U,d,R,u,,,,,5,19,119,3,5,0,5,0,,,,,0,21,21,21,,,,,,up,0.8839912088069468,2293.0090541076133,None,001,88,2019_Nov_01_1100,ACPT_experiment_5_30_19,3.1.0,59.954991150319145,
,,,C,G,d,b,R,G,d,L,i,,,,,5,19,119,3,5,0,5,0,,,,,0,22,22,4,,,,,,up,0.8173056460864245,2295.1606768288802,None,001,88,2019_Nov_01_1100,ACPT_experiment_5_30_19,3.1.0,59.954991150319145,
,,,C,G,d,b,R,U,g,R,u,,,,,5,19,119,3,5,0,5,0,,,,,0,23,23,11,,,,,,up,1.1508925366933909,2297.2622461371,None,001,88,2019_Nov_01_1100,ACPT_experiment_5_30_19,3.1.0,59.954991150319145,
,,,C,G,d,b,L,U,g,L,u,,,,,5,19,119,3,5,0,5,0,,,,,0,24,24,22,,,,,,up,0.6004474682149521,2299.6974491232804,None,001,88,2019_Nov_01_1100,ACPT_experiment_5_30_19,3.1.0,59.954991150319145,
,,,C,G,d,b,L,G,d,L,i,,,,,5,19,119,3,5,0,5,0,,,,,0,25,25,16,,,,,,up,0.9840741884427189,2301.582205229861,None,001,88,2019_Nov_01_1100,ACPT_experiment_5_30_19,3.1.0,59.954991150319145,
,,,C,G,d,b,R,G,g,R,c ,,,,,5,19,119,3,5,0,5,0,,,,,0,26,26,7,,,,,,up,0.9507440849456543,2303.850585339983,None,001,88,2019_Nov_01_1100,ACPT_experiment_5_30_19,3.1.0,59.954991150319145,
,,,C,G,d,b,L,U,d,L,u,,,,,5,19,119,3,5,0,5,0,,,,,0,27,27,20,,,,,,up,0.7505711830344808,2306.0856087834654,None,001,88,2019_Nov_01_1100,ACPT_experiment_5_30_19,3.1.0,59.954991150319145,
,,,C,G,d,b,L,G,y,R,y,,,,,5,19,119,3,5,0,5,0,,,,,0,28,28,35,,,,,,down,1.8680874325846162,2308.1371566751523,None,001,88,2019_Nov_01_1100,ACPT_experiment_5_30_19,3.1.0,59.954991150319145,
,,,C,G,d,b,R,D,d,L,c,,,,,5,19,119,3,5,0,5,0,,,,,0,29,29,0,,,,,,up,0.6838717350346997,2311.3062033088627,None,001,88,2019_Nov_01_1100,ACPT_experiment_5_30_19,3.1.0,59.954991150319145,
,,,C,G,d,b,L,D,y,R,y,,,,,5,19,119,3,5,0,5,0,,,,,0,30,30,33,,,,,,down,0.8172715365963086,2313.29106503412,None,001,88,2019_Nov_01_1100,ACPT_experiment_5_30_19,3.1.0,59.954991150319145,
,,,C,G,d,b,R,U,d,L,u,,,,,5,19,119,3,5,0,5,0,,,,,0,31,31,8,,,,,,up,1.1675657384957958,2315.4093335035795,None,001,88,2019_Nov_01_1100,ACPT_experiment_5_30_19,3.1.0,59.954991150319145,
,,,C,G,d,b,L,D,d,R,c ,,,,,5,19,119,3,5,0,5,0,,,,,0,32,32,13,,,,,,up,0.8673228366660624,2317.861186448813,None,001,88,2019_Nov_01_1100,ACPT_experiment_5_30_19,3.1.0,59.954991150319145,
,,,C,G,d,b,R,D,y,L,y,,,,,5,19,119,3,5,0,5,0,,,,,0,33,33,26,,,,,,down,0.9840778106899961,2320.012809471934,None,001,88,2019_Nov_01_1100,ACPT_experiment_5_30_19,3.1.0,59.954991150319145,
,,,C,G,d,b,L,D,g,L,i,,,,,5,19,119,3,5,0,5,0,,,,,0,34,34,14,,,,,,up,0.7506285352756095,2322.2811729800924,None,001,88,2019_Nov_01_1100,ACPT_experiment_5_30_19,3.1.0,59.954991150319145,
,,,C,G,d,b,L,D,d,L,c ,,,,,5,19,119,3,5,0,5,0,,,,,0,35,35,12,,,,,,up,0.8172977978856579,2324.299377184857,None,001,88,2019_Nov_01_1100,ACPT_experiment_5_30_19,3.1.0,59.954991150319145,
,,,C,G,d,b,L,U,g,R,u,,,,,5,19,119,3,5,0,5,0,,,,,1,0,36,23,,,,,,up,0.8839990570077134,2326.400980904421,None,001,88,2019_Nov_01_1100,ACPT_experiment_5_30_19,3.1.0,59.954991150319145,
,,,C,G,d,b,R,D,y,R,y,,,,,5,19,119,3,5,0,5,0,,,,,1,1,37,27,,,,,,down,1.1341761697822221,2328.5693130499594,None,001,88,2019_Nov_01_1100,ACPT_experiment_5_30_19,3.1.0,59.954991150319145,
,,,C,G,d,b,L,G,g,R,c ,,,,,5,19,119,3,5,0,5,0,,,,,1,2,38,19,,,,,,up,0.884004490379084,2330.98778427468,None,001,88,2019_Nov_01_1100,ACPT_experiment_5_30_19,3.1.0,59.954991150319145,
,,,C,G,d,b,R,D,g,R,i,,,,,5,19,119,3,5,0,5,0,,,,,1,3,39,3,,,,,,up,0.9840756977127967,2333.1394109200482,None,001,88,2019_Nov_01_1100,ACPT_experiment_5_30_19,3.1.0,59.954991150319145,
,,,C,G,d,b,R,U,y,R,u,,,,,5,19,119,3,5,0,5,0,,,,,1,4,40,31,,,,,,down,0.8339667737345735,2335.4077916338783,None,001,88,2019_Nov_01_1100,ACPT_experiment_5_30_19,3.1.0,59.954991150319145,
,,,C,G,d,b,R,U,g,L,u,,,,,5,19,119,3,5,0,5,0,,,,,1,5,41,10,,,,,,down,1.401084138452461,2337.509358829121,None,001,88,2019_Nov_01_1100,ACPT_experiment_5_30_19,3.1.0,59.954991150319145,
,,,C,G,d,b,R,G,y,L,y,,,,,5,19,119,3,5,0,5,0,,,,,1,6,42,28,,,,,,down,1.4344287309368156,2340.1947476818377,None,001,88,2019_Nov_01_1100,ACPT_experiment_5_30_19,3.1.0,59.954991150319145,
,,,C,G,d,b,R,U,y,L,u,,,,,5,19,119,3,5,0,5,0,,,,,1,7,43,30,,,,,,down,1.3009573900026226,2342.9134759955223,None,001,88,2019_Nov_01_1100,ACPT_experiment_5_30_19,3.1.0,59.954991150319145,
,,,C,G,d,b,R,G,y,R,y,,,,,5,19,119,3,5,0,5,0,,,,,1,8,44,29,,,,,,down,0.7839172847880036,2345.515441486981,None,001,88,2019_Nov_01_1100,ACPT_experiment_5_30_19,3.1.0,59.954991150319145,
,,,C,G,d,b,R,U,g,R,u,,,,,5,19,119,3,5,0,5,0,,,,,1,9,45,11,,,,,,up,0.7172395702682479,2347.600351478677,None,001,88,2019_Nov_01_1100,ACPT_experiment_5_30_19,3.1.0,59.954991150319145,
,,,C,G,d,b,L,G,d,L,i,,,,,5,19,119,3,5,0,5,0,,,,,1,10,46,16,,,,,,up,0.8006031644554241,2349.601867992651,None,001,88,2019_Nov_01_1100,ACPT_experiment_5_30_19,3.1.0,59.954991150319145,
,,,C,G,d,b,R,G,g,L,c ,,,,,5,19,119,3,5,0,5,0,,,,,1,11,47,6,,,,,,up,0.7005241089200354,2351.686778588055,None,001,88,2019_Nov_01_1100,ACPT_experiment_5_30_19,3.1.0,59.954991150319145,
,,,C,G,d,b,R,D,g,L,i,,,,,5,19,119,3,5,0,5,0,,,,,1,12,48,2,,,,,,up,0.6838521145318737,2353.6549287760645,None,001,88,2019_Nov_01_1100,ACPT_experiment_5_30_19,3.1.0,59.954991150319145,
,,,C,G,d,b,L,U,y,L,u,,,,,5,19,119,3,5,0,5,0,,,,,1,13,49,24,,,,,,down,0.6338207368189614,2355.623081378905,None,001,88,2019_Nov_01_1100,ACPT_experiment_5_30_19,3.1.0,59.954991150319145,
,,,C,G,d,b,R,U,d,R,u,,,,,5,19,119,3,5,0,5,0,,,,,1,14,50,9,,,,,,up,1.43417577737182,2357.558123627886,None,001,88,2019_Nov_01_1100,ACPT_experiment_5_30_19,3.1.0,59.954991150319145,
,,,C,G,d,b,L,U,d,R,u,,,,,5,19,119,3,5,0,5,0,,,,,1,15,51,21,,,,,,up,0.7005247126280665,2360.2766098547454,None,001,88,2019_Nov_01_1100,ACPT_experiment_5_30_19,3.1.0,59.954991150319145,
,,,C,G,d,b,R,G,d,R,i,,,,,5,19,119,3,5,0,5,0,,,,,1,16,52,5,,,,,,up,0.7505745034277425,2362.261442300175,None,001,88,2019_Nov_01_1100,ACPT_experiment_5_30_19,3.1.0,59.954991150319145,
,,,C,G,d,b,L,G,y,L,y,,,,,5,19,119,3,5,0,5,0,,,,,1,17,53,34,,,,,,down,0.800607390409823,2364.2963184993278,None,001,88,2019_Nov_01_1100,ACPT_experiment_5_30_19,3.1.0,59.954991150319145,
,,,C,G,d,b,L,G,y,R,y,,,,,5,19,119,3,5,0,5,0,,,,,1,18,54,35,,,,,,down,0.9008283172761367,2366.364395910363,None,001,88,2019_Nov_01_1100,ACPT_experiment_5_30_19,3.1.0,59.954991150319145,
,,,C,G,d,b,L,D,d,R,c ,,,,,5,19,119,3,5,0,5,0,,,,,1,19,55,13,,,,,,up,0.967443246185212,2368.5495334697116,None,001,88,2019_Nov_01_1100,ACPT_experiment_5_30_19,3.1.0,59.954991150319145,
,,,C,G,d,b,R,G,d,L,i,,,,,5,19,119,3,5,0,5,0,,,,,1,20,56,4,,,,,,up,0.9005883434292627,2370.784534576006,None,001,88,2019_Nov_01_1100,ACPT_experiment_5_30_19,3.1.0,59.954991150319145,
,,,C,G,d,b,L,G,g,L,c ,,,,,5,19,119,3,5,0,5,0,,,,,1,21,57,18,,,,,,up,0.817285723729583,2372.9695441493022,None,001,88,2019_Nov_01_1100,ACPT_experiment_5_30_19,3.1.0,59.954991150319145,
,,,C,G,d,b,R,D,d,R,c ,,,,,5,19,119,3,5,0,5,0,,,,,1,22,58,1,,,,,,up,1.1008288606135466,2375.071134889149,None,001,88,2019_Nov_01_1100,ACPT_experiment_5_30_19,3.1.0,59.954991150319145,
,,,C,G,d,b,L,U,y,R,u,,,,,5,19,119,3,5,0,5,0,,,,,1,23,59,25,,,,,,down,0.817303231256119,2377.456248541669,None,001,88,2019_Nov_01_1100,ACPT_experiment_5_30_19,3.1.0,59.954991150319145,
,,,C,G,d,b,L,D,g,R,i,,,,,5,19,119,3,5,0,5,0,,,,,1,24,60,15,,,,,,down,1.5845400697462537,2379.5578570908956,None,001,88,2019_Nov_01_1100,ACPT_experiment_5_30_19,3.1.0,59.954991150319145,
,,,C,G,d,b,L,U,g,L,u,,,,,5,19,119,3,5,0,5,0,,,,,1,25,61,22,,,,,,up,0.8172537272166664,2382.426720891701,None,001,88,2019_Nov_01_1100,ACPT_experiment_5_30_19,3.1.0,59.954991150319145,
,,,C,G,d,b,L,D,d,L,c ,,,,,5,19,119,3,5,0,5,0,,,,,1,26,62,12,,,,,,up,1.0174233087354878,2384.5283182723333,None,001,88,2019_Nov_01_1100,ACPT_experiment_5_30_19,3.1.0,59.954991150319145,
