facing_vig,person_vig,text_vig,facing_train,person_train,food_train,correct_key_train,facing_exp,person_exp,food_exp,showL_R,consistent,vig_random.thisRepN,vig_random.thisTrialN,vig_random.thisN,vig_random.thisIndex,trainTrials.thisRepN,trainTrials.thisTrialN,trainTrials.thisN,trainTrials.thisIndex,expBlock.thisRepN,expBlock.thisTrialN,expBlock.thisN,expBlock.thisIndex,breakLoop.thisRepN,breakLoop.thisTrialN,breakLoop.thisN,breakLoop.thisIndex,expTrials.thisRepN,expTrials.thisTrialN,expTrials.thisN,expTrials.thisIndex,train_resp.keys,train_resp.corr,train_resp.rt,train_resp.started,train_resp.stopped,exp_resp.keys,exp_resp.rt,exp_resp.started,exp_resp.stopped,session,participant,date,expName,psychopyVersion,frameRate,
C,D,"is allergic to gluten, meaning she can’t eat wheat products. She enjoys eating dairy products. She thinks eating insects, like crickets, is disgusting.",,,,,,,,,,0,0,0,1,,,,,,,,,,,,,,,,,,,,,,,,,,001,89,2019_Nov_01_1156,ACPT_experiment_5_30_19,3.1.0,59.95520815939781,
C,U,"did not report her food preferences, so her food preferences are unknown.",,,,,,,,,,0,1,1,2,,,,,,,,,,,,,,,,,,,,,,,,,,001,89,2019_Nov_01_1156,ACPT_experiment_5_30_19,3.1.0,59.95520815939781,
C,G,"cannot eat dairy products because she is lactose intolerant. She enjoys eating wheat products. She thinks eating insects, like crickets, is disgusting.",,,,,,,,,,0,2,2,0,,,,,,,,,,,,,,,,,,,,,,,,,,001,89,2019_Nov_01_1156,ACPT_experiment_5_30_19,3.1.0,59.95520815939781,
,,,C,G,g,v,,,,,,,,,,0,0,0,19,,,,,,,,,,,,,v,1,10.04097485526836,1060.1609862291243,None,,,,,001,89,2019_Nov_01_1156,ACPT_experiment_5_30_19,3.1.0,59.95520815939781,
,,,C,U,g,n,,,,,,,,,,0,1,1,16,,,,,,,,,,,,,n,1,15.211565471656286,1073.4877521272392,None,,,,,001,89,2019_Nov_01_1156,ACPT_experiment_5_30_19,3.1.0,59.95520815939781,
,,,C,G,d,b,,,,,,,,,,0,2,2,3,,,,,,,,,,,,,b,1,4.720230942379203,1091.9851068306216,None,,,,,001,89,2019_Nov_01_1156,ACPT_experiment_5_30_19,3.1.0,59.95520815939781,
,,,C,D,y,b,,,,,,,,,,0,3,3,2,,,,,,,,,,,,,v,0,4.219877924246248,1099.9911568882599,None,,,,,001,89,2019_Nov_01_1156,ACPT_experiment_5_30_19,3.1.0,59.95520815939781,
,,,C,D,d,v,,,,,,,,,,0,4,4,18,,,,,,,,,,,,,b,0,9.106913933304895,1107.496843664736,None,,,,,001,89,2019_Nov_01_1156,ACPT_experiment_5_30_19,3.1.0,59.95520815939781,
,,,C,G,g,v,,,,,,,,,,0,5,5,13,,,,,,,,,,,,,b,0,11.742198963373085,1119.8896059931285,None,,,,,001,89,2019_Nov_01_1156,ACPT_experiment_5_30_19,3.1.0,59.95520815939781,
,,,C,D,d,v,,,,,,,,,,0,6,6,9,,,,,,,,,,,,,b,0,3.9196498132587294,1134.9176047531128,None,,,,,001,89,2019_Nov_01_1156,ACPT_experiment_5_30_19,3.1.0,59.95520815939781,
,,,C,U,y,n,,,,,,,,,,0,7,7,8,,,,,,,,,,,,,n,1,3.702815783697588,1142.1230634185977,None,,,,,001,89,2019_Nov_01_1156,ACPT_experiment_5_30_19,3.1.0,59.95520815939781,
,,,C,D,y,b,,,,,,,,,,0,8,8,11,,,,,,,,,,,,,v,0,4.770296429582231,1149.111686243401,None,,,,,001,89,2019_Nov_01_1156,ACPT_experiment_5_30_19,3.1.0,59.95520815939781,
,,,C,G,y,b,,,,,,,,,,0,9,9,14,,,,,,,,,,,,,b,1,8.306302920647795,1157.1677939400415,None,,,,,001,89,2019_Nov_01_1156,ACPT_experiment_5_30_19,3.1.0,59.95520815939781,
,,,C,D,g,b,,,,,,,,,,0,10,10,10,,,,,,,,,,,,,v,0,5.137190180932521,1168.7599512928555,None,,,,,001,89,2019_Nov_01_1156,ACPT_experiment_5_30_19,3.1.0,59.95520815939781,
,,,C,U,d,n,,,,,,,,,,0,11,11,6,,,,,,,,,,,,,n,1,3.085692698849016,1177.1829470056236,None,,,,,001,89,2019_Nov_01_1156,ACPT_experiment_5_30_19,3.1.0,59.95520815939781,
,,,C,G,g,v,,,,,,,,,,0,12,12,4,,,,,,,,,,,,,v,1,6.021259268045469,1183.5544391992298,None,,,,,001,89,2019_Nov_01_1156,ACPT_experiment_5_30_19,3.1.0,59.95520815939781,
,,,C,U,y,n,,,,,,,,,,0,13,13,17,,,,,,,,,,,,,n,1,3.2358127914212673,1192.8614955472021,None,,,,,001,89,2019_Nov_01_1156,ACPT_experiment_5_30_19,3.1.0,59.95520815939781,
,,,C,U,d,n,,,,,,,,,,0,14,14,15,,,,,,,,,,,,,n,1,1.66799482380884,1199.3663917683243,None,,,,,001,89,2019_Nov_01_1156,ACPT_experiment_5_30_19,3.1.0,59.95520815939781,
,,,C,U,g,n,,,,,,,,,,0,15,15,7,,,,,,,,,,,,,n,1,0.9173777589821839,1204.3034820959892,None,,,,,001,89,2019_Nov_01_1156,ACPT_experiment_5_30_19,3.1.0,59.95520815939781,
,,,C,D,d,v,,,,,,,,,,0,16,16,0,,,,,,,,,,,,,v,1,7.188547300958817,1208.5235954662749,None,,,,,001,89,2019_Nov_01_1156,ACPT_experiment_5_30_19,3.1.0,59.95520815939781,
,,,C,G,y,b,,,,,,,,,,0,17,17,5,,,,,,,,,,,,,b,1,4.470062583368417,1218.9979479972153,None,,,,,001,89,2019_Nov_01_1156,ACPT_experiment_5_30_19,3.1.0,59.95520815939781,
,,,C,G,d,b,,,,,,,,,,0,18,18,12,,,,,,,,,,,,,v,0,9.190306807318848,1226.737138382805,None,,,,,001,89,2019_Nov_01_1156,ACPT_experiment_5_30_19,3.1.0,59.95520815939781,
,,,C,D,g,b,,,,,,,,,,0,19,19,1,,,,,,,,,,,,,b,1,3.519346872688402,1239.2132507219594,None,,,,,001,89,2019_Nov_01_1156,ACPT_experiment_5_30_19,3.1.0,59.95520815939781,
,,,C,U,d,n,,,,,,,,,,1,0,20,15,,,,,,,,,,,,,n,1,1.351014727149959,1246.01842938777,None,,,,,001,89,2019_Nov_01_1156,ACPT_experiment_5_30_19,3.1.0,59.95520815939781,
,,,C,G,d,b,,,,,,,,,,1,1,21,12,,,,,,,,,,,,,b,1,5.10362915920814,1250.6722065912218,None,,,,,001,89,2019_Nov_01_1156,ACPT_experiment_5_30_19,3.1.0,59.95520815939781,
,,,C,G,y,b,,,,,,,,,,1,2,22,5,,,,,,,,,,,,,b,1,1.4844426011241012,1259.0616159265355,None,,,,,001,89,2019_Nov_01_1156,ACPT_experiment_5_30_19,3.1.0,59.95520815939781,
,,,C,D,d,v,,,,,,,,,,1,3,23,9,,,,,,,,,,,,,v,1,6.0045561827064375,1263.8318909244917,None,,,,,001,89,2019_Nov_01_1156,ACPT_experiment_5_30_19,3.1.0,59.95520815939781,
,,,C,U,d,n,,,,,,,,,,1,4,24,6,,,,,,,,,,,,,n,1,1.4177648866043455,1273.1222767873442,None,,,,,001,89,2019_Nov_01_1156,ACPT_experiment_5_30_19,3.1.0,59.95520815939781,
,,,C,D,d,v,,,,,,,,,,1,5,25,18,,,,,,,,,,,,,b,0,5.854448767999202,1277.8258146055632,None,,,,,001,89,2019_Nov_01_1156,ACPT_experiment_5_30_19,3.1.0,59.95520815939781,
,,,C,G,g,v,,,,,,,,,,1,6,26,19,,,,,,,,,,,,,b,0,1.684619728990583,1286.966077357305,None,,,,,001,89,2019_Nov_01_1156,ACPT_experiment_5_30_19,3.1.0,59.95520815939781,
,,,C,G,y,b,,,,,,,,,,1,7,27,14,,,,,,,,,,,,,b,1,2.185055455087422,1291.9198028531828,None,,,,,001,89,2019_Nov_01_1156,ACPT_experiment_5_30_19,3.1.0,59.95520815939781,
,,,C,G,g,v,,,,,,,,,,1,8,28,13,,,,,,,,,,,,,v,1,3.419301624788204,1297.37392996567,None,,,,,001,89,2019_Nov_01_1156,ACPT_experiment_5_30_19,3.1.0,59.95520815939781,
,,,C,D,y,b,,,,,,,,,,1,9,29,11,,,,,,,,,,,,,b,1,3.1357524508275674,1304.0790259537007,None,,,,,001,89,2019_Nov_01_1156,ACPT_experiment_5_30_19,3.1.0,59.95520815939781,
,,,C,U,g,n,,,,,,,,,,1,10,30,7,,,,,,,,,,,,,n,1,1.2676405680776952,1310.5005745788912,None,,,,,001,89,2019_Nov_01_1156,ACPT_experiment_5_30_19,3.1.0,59.95520815939781,
,,,C,U,y,n,,,,,,,,,,1,11,31,17,,,,,,,,,,,,,n,1,1.1341988088242942,1315.054014339872,None,,,,,001,89,2019_Nov_01_1156,ACPT_experiment_5_30_19,3.1.0,59.95520815939781,
,,,C,U,y,n,,,,,,,,,,1,12,32,8,,,,,,,,,,,,,n,1,1.1342323146054696,1319.457313482213,None,,,,,001,89,2019_Nov_01_1156,ACPT_experiment_5_30_19,3.1.0,59.95520815939781,
,,,C,U,g,n,,,,,,,,,,1,13,33,16,,,,,,,,,,,,,n,1,1.0839168923776015,1323.8776202804765,None,,,,,001,89,2019_Nov_01_1156,ACPT_experiment_5_30_19,3.1.0,59.95520815939781,
,,,C,D,d,v,,,,,,,,,,1,14,34,0,,,,,,,,,,,,,v,1,2.7521278435779095,1328.2473203675017,None,,,,,001,89,2019_Nov_01_1156,ACPT_experiment_5_30_19,3.1.0,59.95520815939781,
,,,C,G,d,b,,,,,,,,,,1,15,35,3,,,,,,,,,,,,,b,1,1.2676339272911719,1334.2852308020174,None,,,,,001,89,2019_Nov_01_1156,ACPT_experiment_5_30_19,3.1.0,59.95520815939781,
,,,C,D,g,b,,,,,,,,,,1,16,36,1,,,,,,,,,,,,,v,0,2.3348685622495395,1338.855600038758,None,,,,,001,89,2019_Nov_01_1156,ACPT_experiment_5_30_19,3.1.0,59.95520815939781,
,,,C,D,g,b,,,,,,,,,,1,17,37,10,,,,,,,,,,,,,b,1,1.184261881195198,1344.459578593849,None,,,,,001,89,2019_Nov_01_1156,ACPT_experiment_5_30_19,3.1.0,59.95520815939781,
,,,C,D,y,b,,,,,,,,,,1,18,38,2,,,,,,,,,,,,,b,1,1.13088566046099,1348.9496534868194,None,,,,,001,89,2019_Nov_01_1156,ACPT_experiment_5_30_19,3.1.0,59.95520815939781,
,,,C,G,g,v,,,,,,,,,,1,19,39,4,,,,,,,,,,,,,v,1,1.2176110014879669,1353.366332604959,None,,,,,001,89,2019_Nov_01_1156,ACPT_experiment_5_30_19,3.1.0,59.95520815939781,
,,,C,U,g,n,,,,,,,,,,2,0,40,16,,,,,,,,,,,,,n,1,1.067221353385321,1357.8867003475243,None,,,,,001,89,2019_Nov_01_1156,ACPT_experiment_5_30_19,3.1.0,59.95520815939781,
,,,C,U,y,n,,,,,,,,,,2,1,41,8,,,,,,,,,,,,,n,1,0.6338249627733603,1362.2230455790323,None,,,,,001,89,2019_Nov_01_1156,ACPT_experiment_5_30_19,3.1.0,59.95520815939781,
,,,C,U,d,n,,,,,,,,,,2,2,42,6,,,,,,,,,,,,,n,1,0.6835937275973265,1366.142948044002,None,,,,,001,89,2019_Nov_01_1156,ACPT_experiment_5_30_19,3.1.0,59.95520815939781,
,,,C,U,y,n,,,,,,,,,,2,3,43,17,,,,,,,,,,,,,n,1,0.9006843329680123,1370.0956792331472,None,,,,,001,89,2019_Nov_01_1156,ACPT_experiment_5_30_19,3.1.0,59.95520815939781,
,,,C,G,g,v,,,,,,,,,,2,4,44,4,,,,,,,,,,,,,v,1,2.18457097958526,1374.2992585562752,None,,,,,001,89,2019_Nov_01_1156,ACPT_experiment_5_30_19,3.1.0,59.95520815939781,
,,,C,U,d,n,,,,,,,,,,2,5,45,15,,,,,,,,,,,,,n,1,1.6178882844760665,1379.7696737049937,None,,,,,001,89,2019_Nov_01_1156,ACPT_experiment_5_30_19,3.1.0,59.95520815939781,
,,,C,D,d,v,,,,,,,,,,2,6,46,18,,,,,,,,,,,,,v,1,1.6846227475289197,1384.6733729546759,None,,,,,001,89,2019_Nov_01_1156,ACPT_experiment_5_30_19,3.1.0,59.95520815939781,
,,,C,D,d,v,,,,,,,,,,2,7,47,0,,,,,,,,,,,,,v,1,1.1510141838134587,1389.6269680496716,None,,,,,001,89,2019_Nov_01_1156,ACPT_experiment_5_30_19,3.1.0,59.95520815939781,
,,,C,G,g,v,,,,,,,,,,2,8,48,19,,,,,,,,,,,,,v,1,1.2840463273278147,1394.0807634247249,None,,,,,001,89,2019_Nov_01_1156,ACPT_experiment_5_30_19,3.1.0,59.95520815939781,
,,,C,D,d,v,,,,,,,,,,2,9,49,9,,,,,,,,,,,,,v,1,2.3017775270382117,1398.6505956633864,None,,,,,001,89,2019_Nov_01_1156,ACPT_experiment_5_30_19,3.1.0,59.95520815939781,
,,,C,G,d,b,,,,,,,,,,2,10,50,3,,,,,,,,,,,,,b,1,1.4177534161572112,1404.2381802315285,None,,,,,001,89,2019_Nov_01_1156,ACPT_experiment_5_30_19,3.1.0,59.95520815939781,
,,,C,G,y,b,,,,,,,,,,2,11,51,14,,,,,,,,,,,,,n,0,3.502412265410385,1408.9420099424642,None,,,,,001,89,2019_Nov_01_1156,ACPT_experiment_5_30_19,3.1.0,59.95520815939781,
,,,C,D,y,b,,,,,,,,,,2,12,52,11,,,,,,,,,,,,,b,1,1.4010587827251584,1415.7302162692613,None,,,,,001,89,2019_Nov_01_1156,ACPT_experiment_5_30_19,3.1.0,59.95520815939781,
,,,C,G,y,b,,,,,,,,,,2,13,53,5,,,,,,,,,,,,,b,1,1.534253625492056,1420.4506971466653,None,,,,,001,89,2019_Nov_01_1156,ACPT_experiment_5_30_19,3.1.0,59.95520815939781,
,,,C,G,d,b,,,,,,,,,,2,14,54,12,,,,,,,,,,,,,b,1,3.919672754154817,1425.2540658965172,None,,,,,001,89,2019_Nov_01_1156,ACPT_experiment_5_30_19,3.1.0,59.95520815939781,
,,,C,D,g,b,,,,,,,,,,2,15,55,1,,,,,,,,,,,,,b,1,2.7354498121112556,1432.4595149026773,None,,,,,001,89,2019_Nov_01_1156,ACPT_experiment_5_30_19,3.1.0,59.95520815939781,
,,,C,D,y,b,,,,,,,,,,2,16,56,2,,,,,,,,,,,,,b,1,1.00073652350693,1438.4807980171827,None,,,,,001,89,2019_Nov_01_1156,ACPT_experiment_5_30_19,3.1.0,59.95520815939781,
,,,C,G,g,v,,,,,,,,,,2,17,57,13,,,,,,,,,,,,,v,1,2.948925113369114,1442.8207078413488,None,,,,,001,89,2019_Nov_01_1156,ACPT_experiment_5_30_19,3.1.0,59.95520815939781,
,,,C,U,g,n,,,,,,,,,,2,18,58,7,,,,,,,,,,,,,n,1,4.053083422455529,1449.0554345624514,None,,,,,001,89,2019_Nov_01_1156,ACPT_experiment_5_30_19,3.1.0,59.95520815939781,
,,,C,D,g,b,,,,,,,,,,2,19,59,10,,,,,,,,,,,,,b,1,1.6344528188765253,1456.394327440843,None,,,,,001,89,2019_Nov_01_1156,ACPT_experiment_5_30_19,3.1.0,59.95520815939781,
,,,C,U,y,n,,,,,,,,,,3,0,60,17,,,,,,,,,,,,,n,1,3.4359434337857238,1461.314715890585,None,,,,,001,89,2019_Nov_01_1156,ACPT_experiment_5_30_19,3.1.0,59.95520815939781,
,,,C,U,y,n,,,,,,,,,,3,1,61,8,,,,,,,,,,,,,n,1,0.9507603850579471,1468.0197696190698,None,,,,,001,89,2019_Nov_01_1156,ACPT_experiment_5_30_19,3.1.0,59.95520815939781,
,,,C,D,g,b,,,,,,,,,,3,2,62,10,,,,,,,,,,,,,b,1,4.102777629366756,1472.2733250806486,None,,,,,001,89,2019_Nov_01_1156,ACPT_experiment_5_30_19,3.1.0,59.95520815939781,
,,,C,G,d,b,,,,,,,,,,3,3,63,3,,,,,,,,,,,,,b,1,2.4685554268653505,1479.6619299753293,None,,,,,001,89,2019_Nov_01_1156,ACPT_experiment_5_30_19,3.1.0,59.95520815939781,
,,,C,U,d,n,,,,,,,,,,3,4,64,6,,,,,,,,,,,,,n,1,1.1175446238157747,1485.4162915377383,None,,,,,001,89,2019_Nov_01_1156,ACPT_experiment_5_30_19,3.1.0,59.95520815939781,
,,,C,D,d,v,,,,,,,,,,3,5,65,0,,,,,,,,,,,,,v,1,1.7010248845326714,1489.8365787154962,None,,,,,001,89,2019_Nov_01_1156,ACPT_experiment_5_30_19,3.1.0,59.95520815939781,
,,,C,U,d,n,,,,,,,,,,3,6,66,15,,,,,,,,,,,,,n,1,1.2343110682886618,1494.8234094337186,None,,,,,001,89,2019_Nov_01_1156,ACPT_experiment_5_30_19,3.1.0,59.95520815939781,
,,,C,D,y,b,,,,,,,,,,3,7,67,11,,,,,,,,,,,,,b,1,3.585598973213564,1499.3606173032913,None,,,,,001,89,2019_Nov_01_1156,ACPT_experiment_5_30_19,3.1.0,59.95520815939781,
,,,C,G,g,v,,,,,,,,,,3,8,68,19,,,,,,,,,,,,,v,1,1.2342621679581498,1506.2320610493462,None,,,,,001,89,2019_Nov_01_1156,ACPT_experiment_5_30_19,3.1.0,59.95520815939781,
,,,C,D,d,v,,,,,,,,,,3,9,69,9,,,,,,,,,,,,,v,1,1.6677005162600835,1510.7690558100694,None,,,,,001,89,2019_Nov_01_1156,ACPT_experiment_5_30_19,3.1.0,59.95520815939781,
,,,C,G,d,b,,,,,,,,,,3,10,70,12,,,,,,,,,,,,,b,1,1.551158047379431,1515.7225896287237,None,,,,,001,89,2019_Nov_01_1156,ACPT_experiment_5_30_19,3.1.0,59.95520815939781,
,,,C,G,y,b,,,,,,,,,,3,11,71,5,,,,,,,,,,,,,b,1,0.9507314070833672,1520.559555622769,None,,,,,001,89,2019_Nov_01_1156,ACPT_experiment_5_30_19,3.1.0,59.95520815939781,
,,,C,G,g,v,,,,,,,,,,3,12,72,4,,,,,,,,,,,,,v,1,1.1475446751301206,1524.8161078898265,None,,,,,001,89,2019_Nov_01_1156,ACPT_experiment_5_30_19,3.1.0,59.95520815939781,
,,,C,G,y,b,,,,,,,,,,3,13,73,14,,,,,,,,,,,,,b,1,3.5860417928779498,1529.2328014969535,None,,,,,001,89,2019_Nov_01_1156,ACPT_experiment_5_30_19,3.1.0,59.95520815939781,
,,,C,G,g,v,,,,,,,,,,3,14,74,13,,,,,,,,,,,,,v,1,1.7847217254202405,1536.0879523771146,None,,,,,001,89,2019_Nov_01_1156,ACPT_experiment_5_30_19,3.1.0,59.95520815939781,
,,,C,D,d,v,,,,,,,,,,3,15,75,18,,,,,,,,,,,,,v,1,4.553457570360479,1541.15847571027,None,,,,,001,89,2019_Nov_01_1156,ACPT_experiment_5_30_19,3.1.0,59.95520815939781,
,,,C,D,g,b,,,,,,,,,,3,16,76,1,,,,,,,,,,,,,b,1,4.236562596497606,1548.9810662143682,None,,,,,001,89,2019_Nov_01_1156,ACPT_experiment_5_30_19,3.1.0,59.95520815939781,
,,,C,U,g,n,,,,,,,,,,3,17,77,16,,,,,,,,,,,,,n,1,1.1842513163101103,1556.503419250008,None,,,,,001,89,2019_Nov_01_1156,ACPT_experiment_5_30_19,3.1.0,59.95520815939781,
,,,C,U,g,n,,,,,,,,,,3,18,78,7,,,,,,,,,,,,,n,1,1.2006570755602297,1560.9737438425582,None,,,,,001,89,2019_Nov_01_1156,ACPT_experiment_5_30_19,3.1.0,59.95520815939781,
,,,C,D,y,b,,,,,,,,,,3,19,79,2,,,,,,,,,,,,,b,1,1.217604058847428,1565.4602022239997,None,,,,,001,89,2019_Nov_01_1156,ACPT_experiment_5_30_19,3.1.0,59.95520815939781,
,,,C,D,d,v,,,,,,,,,,4,0,80,0,,,,,,,,,,,,,v,1,1.0837125372909213,1569.9807211953648,None,,,,,001,89,2019_Nov_01_1156,ACPT_experiment_5_30_19,3.1.0,59.95520815939781,
,,,C,D,g,b,,,,,,,,,,4,1,81,1,,,,,,,,,,,,,b,1,1.7680126030027168,1574.3502679406101,None,,,,,001,89,2019_Nov_01_1156,ACPT_experiment_5_30_19,3.1.0,59.95520815939781,
,,,C,U,g,n,,,,,,,,,,4,2,82,7,,,,,,,,,,,,,n,1,1.1342039403407398,1579.4040884902806,None,,,,,001,89,2019_Nov_01_1156,ACPT_experiment_5_30_19,3.1.0,59.95520815939781,
,,,C,G,d,b,,,,,,,,,,4,3,83,12,,,,,,,,,,,,,b,1,2.3683263499424356,1583.8409236004773,None,,,,,001,89,2019_Nov_01_1156,ACPT_experiment_5_30_19,3.1.0,59.95520815939781,
,,,C,G,y,b,,,,,,,,,,4,4,84,14,,,,,,,,,,,,,b,1,1.0841867497601925,1589.4950575952334,None,,,,,001,89,2019_Nov_01_1156,ACPT_experiment_5_30_19,3.1.0,59.95520815939781,
,,,C,G,g,v,,,,,,,,,,4,5,85,19,,,,,,,,,,,,,v,1,2.5486381710543355,1593.8850395473892,None,,,,,001,89,2019_Nov_01_1156,ACPT_experiment_5_30_19,3.1.0,59.95520815939781,
,,,C,U,y,n,,,,,,,,,,4,6,86,17,,,,,,,,,,,,,n,1,1.6678155225945375,1599.7194609130893,None,,,,,001,89,2019_Nov_01_1156,ACPT_experiment_5_30_19,3.1.0,59.95520815939781,
,,,C,D,g,b,,,,,,,,,,4,7,87,10,,,,,,,,,,,,,b,1,1.1842428643994936,1604.6732150850876,None,,,,,001,89,2019_Nov_01_1156,ACPT_experiment_5_30_19,3.1.0,59.95520815939781,
,,,C,G,y,b,,,,,,,,,,4,8,88,5,,,,,,,,,,,,,b,1,1.4174757105720346,1609.1602168035424,None,,,,,001,89,2019_Nov_01_1156,ACPT_experiment_5_30_19,3.1.0,59.95520815939781,
,,,C,D,y,b,,,,,,,,,,4,9,89,11,,,,,,,,,,,,,b,1,1.0674887959376065,1613.86349653668,None,,,,,001,89,2019_Nov_01_1156,ACPT_experiment_5_30_19,3.1.0,59.95520815939781,
,,,C,G,d,b,,,,,,,,,,4,10,90,3,,,,,,,,,,,,,b,1,1.2840743997403479,1618.2337152086966,None,,,,,001,89,2019_Nov_01_1156,ACPT_experiment_5_30_19,3.1.0,59.95520815939781,
,,,C,U,y,n,,,,,,,,,,4,11,91,8,,,,,,,,,,,,,n,1,1.0341360533984698,1622.8036054033055,None,,,,,001,89,2019_Nov_01_1156,ACPT_experiment_5_30_19,3.1.0,59.95520815939781,
,,,C,U,d,n,,,,,,,,,,4,12,92,15,,,,,,,,,,,,,n,1,1.517840018037532,1627.106846921739,None,,,,,001,89,2019_Nov_01_1156,ACPT_experiment_5_30_19,3.1.0,59.95520815939781,
,,,C,D,d,v,,,,,,,,,,4,13,93,18,,,,,,,,,,,,,v,1,1.31769730151791,1631.9104755677945,None,,,,,001,89,2019_Nov_01_1156,ACPT_experiment_5_30_19,3.1.0,59.95520815939781,
,,,C,G,g,v,,,,,,,,,,4,14,94,4,,,,,,,,,,,,,v,1,0.9504754349782161,1636.5309051602235,None,,,,,001,89,2019_Nov_01_1156,ACPT_experiment_5_30_19,3.1.0,59.95520815939781,
,,,C,U,g,n,,,,,,,,,,4,15,95,16,,,,,,,,,,,,,n,1,0.984089582992965,1640.767192465968,None,,,,,001,89,2019_Nov_01_1156,ACPT_experiment_5_30_19,3.1.0,59.95520815939781,
,,,C,U,d,n,,,,,,,,,,4,16,96,6,,,,,,,,,,,,,n,1,3.319183630101179,1645.0204243401695,None,,,,,001,89,2019_Nov_01_1156,ACPT_experiment_5_30_19,3.1.0,59.95520815939781,
,,,C,D,y,b,,,,,,,,,,4,17,97,2,,,,,,,,,,,,,b,1,1.167559701418213,1651.6254135021063,None,,,,,001,89,2019_Nov_01_1156,ACPT_experiment_5_30_19,3.1.0,59.95520815939781,
,,,C,D,d,v,,,,,,,,,,4,18,98,9,,,,,,,,,,,,,v,1,1.9314845989611058,1656.0987913468143,None,,,,,001,89,2019_Nov_01_1156,ACPT_experiment_5_30_19,3.1.0,59.95520815939781,
,,,C,G,g,v,,,,,,,,,,4,19,99,13,,,,,,,,,,,,,v,1,26.536773803669348,1661.3160766479486,None,,,,,001,89,2019_Nov_01_1156,ACPT_experiment_5_30_19,3.1.0,59.95520815939781,
,,,C,D,d,v,,,,,,,,,,5,0,100,0,,,,,,,,,,,,,v,1,1.3177108849431534,1691.1386424000284,None,,,,,001,89,2019_Nov_01_1156,ACPT_experiment_5_30_19,3.1.0,59.95520815939781,
,,,C,D,g,b,,,,,,,,,,5,1,101,1,,,,,,,,,,,,,b,1,7.46904352461388,1695.762135205794,None,,,,,001,89,2019_Nov_01_1156,ACPT_experiment_5_30_19,3.1.0,59.95520815939781,
,,,C,G,d,b,,,,,,,,,,5,2,102,12,,,,,,,,,,,,,b,1,46.5519141913901,1706.516956793539,None,,,,,001,89,2019_Nov_01_1156,ACPT_experiment_5_30_19,3.1.0,59.95520815939781,
,,,C,G,g,v,,,,,,,,,,5,3,103,19,,,,,,,,,,,,,v,1,1.6179130364962475,1756.3379867129952,None,,,,,001,89,2019_Nov_01_1156,ACPT_experiment_5_30_19,3.1.0,59.95520815939781,
,,,C,D,g,b,,,,,,,,,,5,4,104,10,,,,,,,,,,,,,b,1,2.134948010194421,1761.2417182610443,None,,,,,001,89,2019_Nov_01_1156,ACPT_experiment_5_30_19,3.1.0,59.95520815939781,
,,,C,G,g,v,,,,,,,,,,5,5,105,13,,,,,,,,,,,,,v,1,1.2176049644094746,1766.6624612381875,None,,,,,001,89,2019_Nov_01_1156,ACPT_experiment_5_30_19,3.1.0,59.95520815939781,
,,,C,D,y,b,,,,,,,,,,5,6,106,2,,,,,,,,,,,,,b,1,2.3849017510838166,1771.1828009083383,None,,,,,001,89,2019_Nov_01_1156,ACPT_experiment_5_30_19,3.1.0,59.95520815939781,
,,,C,D,y,b,,,,,,,,,,5,7,107,11,,,,,,,,,,,,,b,1,1.9014697568054544,1776.8368328764773,None,,,,,001,89,2019_Nov_01_1156,ACPT_experiment_5_30_19,3.1.0,59.95520815939781,
,,,C,D,d,v,,,,,,,,,,5,8,108,9,,,,,,,,,,,,,v,1,1.284313166172069,1782.0074099094418,None,,,,,001,89,2019_Nov_01_1156,ACPT_experiment_5_30_19,3.1.0,59.95520815939781,
,,,C,U,y,n,,,,,,,,,,5,9,109,8,,,,,,,,,,,,,n,1,0.9836615541662468,1786.59462078246,None,,,,,001,89,2019_Nov_01_1156,ACPT_experiment_5_30_19,3.1.0,59.95520815939781,
,,,C,D,d,v,,,,,,,,,,5,10,110,18,,,,,,,,,,,,,v,1,1.0841656199881982,1790.8641150353124,None,,,,,001,89,2019_Nov_01_1156,ACPT_experiment_5_30_19,3.1.0,59.95520815939781,
,,,C,U,d,n,,,,,,,,,,5,11,111,6,,,,,,,,,,,,,n,1,1.1308820382146223,1795.2540837058968,None,,,,,001,89,2019_Nov_01_1156,ACPT_experiment_5_30_19,3.1.0,59.95520815939781,
,,,C,U,d,n,,,,,,,,,,5,12,112,15,,,,,,,,,,,,,n,1,0.950737746014056,1799.6541029038035,None,,,,,001,89,2019_Nov_01_1156,ACPT_experiment_5_30_19,3.1.0,59.95520815939781,
,,,C,G,g,v,,,,,,,,,,5,13,113,4,,,,,,,,,,,,,v,1,3.6358066336015327,1803.9076112761759,None,,,,,001,89,2019_Nov_01_1156,ACPT_experiment_5_30_19,3.1.0,59.95520815939781,
,,,C,U,g,n,,,,,,,,,,5,14,114,7,,,,,,,,,,,,,n,1,12.99318262975794,1810.829243967677,None,,,,,001,89,2019_Nov_01_1156,ACPT_experiment_5_30_19,3.1.0,59.95520815939781,
,,,C,G,d,b,,,,,,,,,,5,15,115,3,,,,,,,,,,,,,b,1,12.976510333515762,1827.1082082828107,None,,,,,001,89,2019_Nov_01_1156,ACPT_experiment_5_30_19,3.1.0,59.95520815939781,
,,,C,G,y,b,,,,,,,,,,5,16,116,14,,,,,,,,,,,,,b,1,1.5845455031158053,1843.3705135832752,None,,,,,001,89,2019_Nov_01_1156,ACPT_experiment_5_30_19,3.1.0,59.95520815939781,
,,,C,U,g,n,,,,,,,,,,5,17,117,16,,,,,,,,,,,,,n,1,19.06444158085651,1848.240869447889,None,,,,,001,89,2019_Nov_01_1156,ACPT_experiment_5_30_19,3.1.0,59.95520815939781,
,,,C,U,y,n,,,,,,,,,,5,18,118,17,,,,,,,,,,,,,n,1,1.6179091123958642,1870.5744161919265,None,,,,,001,89,2019_Nov_01_1156,ACPT_experiment_5_30_19,3.1.0,59.95520815939781,
,,,C,G,y,b,,,,,,,,,,5,19,119,5,0,0,0,0,0,0,0,0,,,,,b,1,1.2009006716543809,1875.4781586067147,None,,,,,001,89,2019_Nov_01_1156,ACPT_experiment_5_30_19,3.1.0,59.95520815939781,
,,,C,G,y,b,L,G,g,L,c ,,,,,5,19,119,5,0,0,0,0,,,,,0,0,0,18,,,,,,up,2.065152144927197,1953.7905218480337,None,001,89,2019_Nov_01_1156,ACPT_experiment_5_30_19,3.1.0,59.95520815939781,
,,,C,G,y,b,R,U,g,R,u,,,,,5,19,119,5,0,0,0,0,,,,,0,1,1,11,,,,,,up,1.8013976439106045,1957.1232671699781,None,001,89,2019_Nov_01_1156,ACPT_experiment_5_30_19,3.1.0,59.95520815939781,
,,,C,G,y,b,L,G,g,R,c ,,,,,5,19,119,5,0,0,0,0,,,,,0,2,2,19,,,,,,up,4.236543881555917,1960.2089378334913,None,001,89,2019_Nov_01_1156,ACPT_experiment_5_30_19,3.1.0,59.95520815939781,
,,,C,G,y,b,R,U,g,L,u,,,,,5,19,119,5,0,0,0,0,,,,,0,3,3,10,,,,,,up,0.7672449885467358,1965.729783410774,None,001,89,2019_Nov_01_1156,ACPT_experiment_5_30_19,3.1.0,59.95520815939781,
,,,C,G,y,b,R,G,g,R,c ,,,,,5,19,119,5,0,0,0,0,,,,,0,4,4,7,,,,,,up,0.6171312349051732,1967.7646550821173,None,001,89,2019_Nov_01_1156,ACPT_experiment_5_30_19,3.1.0,59.95520815939781,
,,,C,G,y,b,L,U,g,L,u,,,,,5,19,119,5,0,0,0,0,,,,,0,5,5,22,,,,,,up,0.5671004609012016,1969.666096162804,None,001,89,2019_Nov_01_1156,ACPT_experiment_5_30_19,3.1.0,59.95520815939781,
,,,C,G,y,b,L,D,g,R,i,,,,,5,19,119,5,0,0,0,0,,,,,0,6,6,15,,,,,,up,0.5334636738461995,1971.5177657619806,None,001,89,2019_Nov_01_1156,ACPT_experiment_5_30_19,3.1.0,59.95520815939781,
,,,C,G,y,b,L,D,d,L,c ,,,,,5,19,119,5,0,0,0,0,,,,,0,7,7,12,,,,,,up,1.1508937441085436,1973.3188371018277,None,001,89,2019_Nov_01_1156,ACPT_experiment_5_30_19,3.1.0,59.95520815939781,
,,,C,G,y,b,L,G,y,R,y,,,,,5,19,119,5,0,0,0,0,,,,,0,8,8,35,,,,,,down,1.1842289791220537,1975.7540355601996,None,001,89,2019_Nov_01_1156,ACPT_experiment_5_30_19,3.1.0,59.95520815939781,
,,,C,G,y,b,R,G,y,L,y,,,,,5,19,119,5,0,0,0,0,,,,,0,9,9,28,,,,,,down,0.8006004477701936,1978.239240342411,None,001,89,2019_Nov_01_1156,ACPT_experiment_5_30_19,3.1.0,59.95520815939781,
,,,C,G,y,b,R,U,d,R,u,,,,,5,19,119,5,0,0,0,0,,,,,0,10,10,9,,,,,,up,0.6004821814130992,1980.3408114617541,None,001,89,2019_Nov_01_1156,ACPT_experiment_5_30_19,3.1.0,59.95520815939781,
,,,C,G,y,b,R,U,y,L,u,,,,,5,19,119,5,0,0,0,0,,,,,0,11,11,30,,,,,,down,0.8506417866610718,1982.2255968481622,None,001,89,2019_Nov_01_1156,ACPT_experiment_5_30_19,3.1.0,59.95520815939781,
,,,C,G,y,b,L,D,g,L,i,,,,,5,19,119,5,0,0,0,0,,,,,0,12,12,14,,,,,,up,0.7338846996590291,1984.3605514991432,None,001,89,2019_Nov_01_1156,ACPT_experiment_5_30_19,3.1.0,59.95520815939781,
,,,C,G,y,b,R,D,y,L,y,,,,,5,19,119,5,0,0,0,0,,,,,0,13,13,26,,,,,,down,0.6338107756419049,1986.3787421204815,None,001,89,2019_Nov_01_1156,ACPT_experiment_5_30_19,3.1.0,59.95520815939781,
,,,C,G,y,b,L,D,y,R,y,,,,,5,19,119,5,0,0,0,0,,,,,0,14,14,33,,,,,,down,0.9006773903274734,1988.2968618363411,None,001,89,2019_Nov_01_1156,ACPT_experiment_5_30_19,3.1.0,59.95520815939781,
,,,C,G,y,b,L,G,y,L,y,,,,,5,19,119,5,0,0,0,0,,,,,0,15,15,34,,,,,,down,1.0674631383571977,1990.481845148348,None,001,89,2019_Nov_01_1156,ACPT_experiment_5_30_19,3.1.0,59.95520815939781,
,,,C,G,y,b,R,G,d,R,i,,,,,5,19,119,5,0,0,0,0,,,,,0,16,16,5,,,,,,up,1.3843381898605003,1992.8336609957369,None,001,89,2019_Nov_01_1156,ACPT_experiment_5_30_19,3.1.0,59.95520815939781,
,,,C,G,y,b,R,D,d,L,c,,,,,5,19,119,5,0,0,0,0,,,,,0,17,17,0,,,,,,up,1.4010593864331895,1995.5023123517713,None,001,89,2019_Nov_01_1156,ACPT_experiment_5_30_19,3.1.0,59.95520815939781,
,,,C,G,y,b,L,D,d,R,c ,,,,,5,19,119,5,0,0,0,0,,,,,0,18,18,13,,,,,,up,0.8506680479495117,1998.1709760838148,None,001,89,2019_Nov_01_1156,ACPT_experiment_5_30_19,3.1.0,59.95520815939781,
,,,C,G,y,b,R,G,d,L,i,,,,,5,19,119,5,0,0,0,0,,,,,0,19,19,4,,,,,,up,1.0841496217326494,2000.3059458274893,None,001,89,2019_Nov_01_1156,ACPT_experiment_5_30_19,3.1.0,59.95520815939781,
,,,C,G,y,b,L,G,d,R,i,,,,,5,19,119,5,0,0,0,0,,,,,0,20,20,17,,,,,,up,0.5837706441652699,2002.657726961681,None,001,89,2019_Nov_01_1156,ACPT_experiment_5_30_19,3.1.0,59.95520815939781,
,,,C,G,y,b,R,U,d,L,u,,,,,5,19,119,5,0,0,0,0,,,,,0,21,21,8,,,,,,up,0.600466485009747,2004.5257947737628,None,001,89,2019_Nov_01_1156,ACPT_experiment_5_30_19,3.1.0,59.95520815939781,
,,,C,G,y,b,R,D,y,R,y,,,,,5,19,119,5,0,0,0,0,,,,,0,22,22,27,,,,,,down,0.8670517718674091,2006.4275183896934,None,001,89,2019_Nov_01_1156,ACPT_experiment_5_30_19,3.1.0,59.95520815939781,
,,,C,G,y,b,L,U,d,R,u,,,,,5,19,119,5,0,0,0,0,,,,,0,23,23,21,,,,,,up,0.633818321988656,2008.5788730647018,None,001,89,2019_Nov_01_1156,ACPT_experiment_5_30_19,3.1.0,59.95520815939781,
,,,C,G,y,b,L,U,y,R,u,,,,,5,19,119,5,0,0,0,0,,,,,0,24,24,25,,,,,,down,1.0841529421250016,2010.4969918749994,None,001,89,2019_Nov_01_1156,ACPT_experiment_5_30_19,3.1.0,59.95520815939781,
,,,C,G,y,b,R,D,g,R,i,,,,,5,19,119,5,0,0,0,0,,,,,0,25,25,3,,,,,,up,0.6835940294513421,2012.88238685535,None,001,89,2019_Nov_01_1156,ACPT_experiment_5_30_19,3.1.0,59.95520815939781,
,,,C,G,y,b,L,G,d,L,i,,,,,5,19,119,5,0,0,0,0,,,,,0,26,26,16,,,,,,up,0.4836937016061711,2014.8502913342872,None,001,89,2019_Nov_01_1156,ACPT_experiment_5_30_19,3.1.0,59.95520815939781,
,,,C,G,y,b,L,U,d,L,u,,,,,5,19,119,5,0,0,0,0,,,,,0,27,27,20,,,,,,up,0.7338877181991847,2016.6182909575746,None,001,89,2019_Nov_01_1156,ACPT_experiment_5_30_19,3.1.0,59.95520815939781,
,,,C,G,y,b,L,U,y,L,u,,,,,5,19,119,5,0,0,0,0,,,,,0,28,28,24,,,,,,down,0.5504317869053921,2018.6197917751451,None,001,89,2019_Nov_01_1156,ACPT_experiment_5_30_19,3.1.0,59.95520815939781,
,,,C,G,y,b,R,G,g,L,c ,,,,,5,19,119,5,0,0,0,0,,,,,0,29,29,6,,,,,,up,0.7005256181892037,2020.454531294854,None,001,89,2019_Nov_01_1156,ACPT_experiment_5_30_19,3.1.0,59.95520815939781,
,,,C,G,y,b,R,D,d,R,c ,,,,,5,19,119,5,0,0,0,0,,,,,0,30,30,1,,,,,,up,0.8005847513668414,2022.4393815496642,None,001,89,2019_Nov_01_1156,ACPT_experiment_5_30_19,3.1.0,59.95520815939781,
,,,C,G,y,b,L,D,y,L,y,,,,,5,19,119,5,0,0,0,0,,,,,0,31,31,32,,,,,,down,1.0341303181739931,2024.5242743356885,None,001,89,2019_Nov_01_1156,ACPT_experiment_5_30_19,3.1.0,59.95520815939781,
,,,C,G,y,b,R,U,y,R,u,,,,,5,19,119,5,0,0,0,0,,,,,0,32,32,31,,,,,,down,0.7005183736946492,2026.8593759291434,None,001,89,2019_Nov_01_1156,ACPT_experiment_5_30_19,3.1.0,59.95520815939781,
,,,C,G,y,b,R,G,y,R,y,,,,,5,19,119,5,0,0,0,0,,,,,0,33,33,29,,,,,,down,0.5504203164564387,2028.8608933486794,None,001,89,2019_Nov_01_1156,ACPT_experiment_5_30_19,3.1.0,59.95520815939781,
,,,C,G,y,b,L,U,g,R,u,,,,,5,19,119,5,0,0,0,0,,,,,0,34,34,23,,,,,,up,0.6838460774542909,2030.695607814514,None,001,89,2019_Nov_01_1156,ACPT_experiment_5_30_19,3.1.0,59.95520815939781,
,,,C,G,y,b,R,D,g,L,i,,,,,5,19,119,5,0,0,0,0,,,,,0,35,35,2,,,,,,up,0.7338880200513813,2032.6637667562863,None,001,89,2019_Nov_01_1156,ACPT_experiment_5_30_19,3.1.0,59.95520815939781,
,,,C,G,y,b,L,U,g,L,u,,,,,5,19,119,5,0,0,0,0,,,,,1,0,36,22,,,,,,up,0.617132744173432,2034.6819597924568,None,001,89,2019_Nov_01_1156,ACPT_experiment_5_30_19,3.1.0,59.95520815939781,
,,,C,G,y,b,R,G,y,R,y,,,,,5,19,119,5,0,0,0,0,,,,,1,1,37,29,,,,,,down,1.084152036562955,2036.5833993638735,None,001,89,2019_Nov_01_1156,ACPT_experiment_5_30_19,3.1.0,59.95520815939781,
,,,C,G,y,b,L,D,g,R,i,,,,,5,19,119,5,0,0,0,0,,,,,1,2,38,15,,,,,,up,0.7172229683037585,2038.9518340793657,None,001,89,2019_Nov_01_1156,ACPT_experiment_5_30_19,3.1.0,59.95520815939781,
,,,C,G,y,b,R,G,d,L,i,,,,,5,19,119,5,0,0,0,0,,,,,1,3,39,4,,,,,,up,0.583771247873301,2040.9533741379437,None,001,89,2019_Nov_01_1156,ACPT_experiment_5_30_19,3.1.0,59.95520815939781,
,,,C,G,y,b,R,G,g,R,c ,,,,,5,19,119,5,0,0,0,0,,,,,1,4,40,7,,,,,,up,1.0341333367141488,2042.8047518444037,None,001,89,2019_Nov_01_1156,ACPT_experiment_5_30_19,3.1.0,59.95520815939781,
,,,C,G,y,b,L,D,y,R,y,,,,,5,19,119,5,0,0,0,0,,,,,1,5,41,33,,,,,,down,0.9173131622483197,2045.123245436498,None,001,89,2019_Nov_01_1156,ACPT_experiment_5_30_19,3.1.0,59.95520815939781,
,,,C,G,y,b,L,U,d,R,u,,,,,5,19,119,5,0,0,0,0,,,,,1,6,42,21,,,,,,up,0.9340334532589623,2047.3248651241338,None,001,89,2019_Nov_01_1156,ACPT_experiment_5_30_19,3.1.0,59.95520815939781,
,,,C,G,y,b,L,G,y,L,y,,,,,5,19,119,5,0,0,0,0,,,,,1,7,43,34,,,,,,down,0.8339604348020657,2049.5598819268307,None,001,89,2019_Nov_01_1156,ACPT_experiment_5_30_19,3.1.0,59.95520815939781,
,,,C,G,y,b,L,G,d,L,i,,,,,5,19,119,5,0,0,0,0,,,,,1,8,44,16,,,,,,up,0.6171267070967588,2051.694839294496,None,001,89,2019_Nov_01_1156,ACPT_experiment_5_30_19,3.1.0,59.95520815939781,
,,,C,G,y,b,L,U,y,L,u,,,,,5,19,119,5,0,0,0,0,,,,,1,9,45,24,,,,,,down,1.3009848587062152,2053.5962722251243,None,001,89,2019_Nov_01_1156,ACPT_experiment_5_30_19,3.1.0,59.95520815939781,
,,,C,G,y,b,L,U,d,L,u,,,,,5,19,119,5,0,0,0,0,,,,,1,10,46,20,,,,,,up,0.500388938744436,2056.1815587795572,None,001,89,2019_Nov_01_1156,ACPT_experiment_5_30_19,3.1.0,59.95520815939781,
,,,C,G,y,b,L,D,d,R,c ,,,,,5,19,119,5,0,0,0,0,,,,,1,11,47,13,,,,,,up,0.8973503566849104,2057.986256893966,None,001,89,2019_Nov_01_1156,ACPT_experiment_5_30_19,3.1.0,59.95520815939781,
,,,C,G,y,b,L,G,y,R,y,,,,,5,19,119,5,0,0,0,0,,,,,1,12,48,35,,,,,,down,0.7672498182091658,2060.1679128704764,None,001,89,2019_Nov_01_1156,ACPT_experiment_5_30_19,3.1.0,59.95520815939781,
,,,C,G,y,b,L,D,d,L,c ,,,,,5,19,119,5,0,0,0,0,,,,,1,13,49,12,,,,,,up,0.8006408961919078,2062.2194628751404,None,001,89,2019_Nov_01_1156,ACPT_experiment_5_30_19,3.1.0,59.95520815939781,
,,,C,G,y,b,R,U,g,L,u,,,,,5,19,119,5,0,0,0,0,,,,,1,14,50,10,,,,,,up,0.9340521682024701,2064.3043861484075,None,001,89,2019_Nov_01_1156,ACPT_experiment_5_30_19,3.1.0,59.95520815939781,
,,,C,G,y,b,R,D,d,R,c ,,,,,5,19,119,5,0,0,0,0,,,,,1,15,51,1,,,,,,up,0.5838074703406164,2066.5227222029534,None,001,89,2019_Nov_01_1156,ACPT_experiment_5_30_19,3.1.0,59.95520815939781,
,,,C,G,y,b,L,G,g,R,c ,,,,,5,19,119,5,0,0,0,0,,,,,1,16,52,19,,,,,,up,0.7338883219053969,2068.39079816509,None,001,89,2019_Nov_01_1156,ACPT_experiment_5_30_19,3.1.0,59.95520815939781,
,,,C,G,y,b,R,D,g,R,i,,,,,5,19,119,5,0,0,0,0,,,,,1,17,53,3,,,,,,up,0.650631885853727,2070.4089936160926,None,001,89,2019_Nov_01_1156,ACPT_experiment_5_30_19,3.1.0,59.95520815939781,
,,,C,G,y,b,R,U,d,L,u,,,,,5,19,119,5,0,0,0,0,,,,,1,18,54,8,,,,,,up,1.2342691105950507,2072.3437946838094,None,001,89,2019_Nov_01_1156,ACPT_experiment_5_30_19,3.1.0,59.95520815939781,
,,,C,G,y,b,L,U,y,R,u,,,,,5,19,119,5,0,0,0,0,,,,,1,19,55,25,,,,,,down,0.9339262951270939,2074.862365791985,None,001,89,2019_Nov_01_1156,ACPT_experiment_5_30_19,3.1.0,59.95520815939781,
,,,C,G,y,b,R,U,y,R,u,,,,,5,19,119,5,0,0,0,0,,,,,1,20,56,31,,,,,,down,0.7672259717510315,2077.080722976303,None,001,89,2019_Nov_01_1156,ACPT_experiment_5_30_19,3.1.0,59.95520815939781,
,,,C,G,y,b,R,G,y,L,y,,,,,5,19,119,5,0,0,0,0,,,,,1,21,57,28,,,,,,down,0.9507446886545949,2079.1489443716473,None,001,89,2019_Nov_01_1156,ACPT_experiment_5_30_19,3.1.0,59.95520815939781,
,,,C,G,y,b,R,D,d,L,c,,,,,5,19,119,5,0,0,0,0,,,,,1,22,58,0,,,,,,up,0.5671004609012016,2081.4006485632817,None,001,89,2019_Nov_01_1156,ACPT_experiment_5_30_19,3.1.0,59.95520815939781,
,,,C,G,y,b,R,U,d,R,u,,,,,5,19,119,5,0,0,0,0,,,,,1,23,59,9,,,,,,up,0.5504112608396099,2083.2520461920976,None,001,89,2019_Nov_01_1156,ACPT_experiment_5_30_19,3.1.0,59.95520815939781,
,,,C,G,y,b,R,U,g,R,u,,,,,5,19,119,5,0,0,0,0,,,,,1,24,60,11,,,,,,up,0.7672464978149947,2085.0867669968648,None,001,89,2019_Nov_01_1156,ACPT_experiment_5_30_19,3.1.0,59.95520815939781,
,,,C,G,y,b,L,G,g,L,c ,,,,,5,19,119,5,0,0,0,0,,,,,1,25,61,18,,,,,,up,0.6001851571800216,2087.1552694181864,None,001,89,2019_Nov_01_1156,ACPT_experiment_5_30_19,3.1.0,59.95520815939781,
,,,C,G,y,b,R,U,y,L,u,,,,,5,19,119,5,0,0,0,0,,,,,1,26,62,30,,,,,,down,0.900682521843919,2089.0397586859217,None,001,89,2019_Nov_01_1156,ACPT_experiment_5_30_19,3.1.0,59.95520815939781,
,,,C,G,y,b,R,D,y,L,y,,,,,5,19,119,5,0,0,0,0,,,,,1,27,63,26,,,,,,down,0.6338409610307281,2091.2247199625945,None,001,89,2019_Nov_01_1156,ACPT_experiment_5_30_19,3.1.0,59.95520815939781,
,,,C,G,y,b,R,G,g,L,c ,,,,,5,19,119,5,0,0,0,0,,,,,1,28,64,6,,,,,,up,0.5670938201164972,2093.1428635249104,None,001,89,2019_Nov_01_1156,ACPT_experiment_5_30_19,3.1.0,59.95520815939781,
,,,C,G,y,b,L,G,d,R,i,,,,,5,19,119,5,0,0,0,0,,,,,1,29,65,17,,,,,,up,0.5504182034801488,2094.994260851874,None,001,89,2019_Nov_01_1156,ACPT_experiment_5_30_19,3.1.0,59.95520815939781,
,,,C,G,y,b,L,D,y,L,y,,,,,5,19,119,5,0,0,0,0,,,,,1,30,66,32,,,,,,down,0.8506429940771341,2096.84565998996,None,001,89,2019_Nov_01_1156,ACPT_experiment_5_30_19,3.1.0,59.95520815939781,
,,,C,G,y,b,R,D,y,R,y,,,,,5,19,119,5,0,0,0,0,,,,,1,31,67,27,,,,,,down,0.8005977310840535,2098.9972972002142,None,001,89,2019_Nov_01_1156,ACPT_experiment_5_30_19,3.1.0,59.95520815939781,
,,,C,G,y,b,L,U,g,R,u,,,,,5,19,119,5,0,0,0,0,,,,,1,32,68,23,,,,,,up,0.7839284533820319,2101.0822005511254,None,001,89,2019_Nov_01_1156,ACPT_experiment_5_30_19,3.1.0,59.95520815939781,
,,,C,G,y,b,R,D,g,L,i,,,,,5,19,119,5,0,0,0,0,,,,,1,33,69,2,,,,,,up,0.900592267529646,2103.1337599132585,None,001,89,2019_Nov_01_1156,ACPT_experiment_5_30_19,3.1.0,59.95520815939781,
,,,C,G,y,b,R,G,d,R,i,,,,,5,19,119,5,0,0,0,0,,,,,1,34,70,5,,,,,,up,0.7672727591052535,2105.3187610346467,None,001,89,2019_Nov_01_1156,ACPT_experiment_5_30_19,3.1.0,59.95520815939781,
,,,C,G,y,b,L,D,g,L,i,,,,,5,19,119,5,0,0,0,0,,,,,1,35,71,14,,,,,,up,0.783924227427633,2107.3702944373454,None,001,89,2019_Nov_01_1156,ACPT_experiment_5_30_19,3.1.0,59.95520815939781,
,,,C,G,y,b,,,,,,,,,,5,19,119,5,1,0,1,0,0,0,0,0,,,,,,,,,,,,,,001,89,2019_Nov_01_1156,ACPT_experiment_5_30_19,3.1.0,59.95520815939781,
,,,C,G,y,b,R,G,d,L,i,,,,,5,19,119,5,1,0,1,0,,,,,0,0,0,4,,,,,,up,5.720721153105842,2115.1431164784753,None,001,89,2019_Nov_01_1156,ACPT_experiment_5_30_19,3.1.0,59.95520815939781,
,,,C,G,y,b,R,D,d,R,c ,,,,,5,19,119,5,1,0,1,0,,,,,0,1,1,1,,,,,,up,2.0348837455003377,2122.1314733699965,None,001,89,2019_Nov_01_1156,ACPT_experiment_5_30_19,3.1.0,59.95520815939781,
,,,C,G,y,b,L,G,d,R,i,,,,,5,19,119,5,1,0,1,0,,,,,0,2,2,17,,,,,,up,0.683851510824752,2125.4506431148184,None,001,89,2019_Nov_01_1156,ACPT_experiment_5_30_19,3.1.0,59.95520815939781,
,,,C,G,y,b,L,G,y,R,y,,,,,5,19,119,5,1,0,1,0,,,,,0,3,3,35,,,,,,down,1.1174869697224494,2127.4188225826565,None,001,89,2019_Nov_01_1156,ACPT_experiment_5_30_19,3.1.0,59.95520815939781,
,,,C,G,y,b,R,G,d,R,i,,,,,5,19,119,5,1,0,1,0,,,,,0,4,4,5,,,,,,up,0.55039737556217,2129.8539805926066,None,001,89,2019_Nov_01_1156,ACPT_experiment_5_30_19,3.1.0,59.95520815939781,
,,,C,G,y,b,L,G,g,L,c ,,,,,5,19,119,5,1,0,1,0,,,,,0,5,5,18,,,,,,up,0.6671535570003471,2131.7053869751853,None,001,89,2019_Nov_01_1156,ACPT_experiment_5_30_19,3.1.0,59.95520815939781,
,,,C,G,y,b,R,G,y,R,y,,,,,5,19,119,5,1,0,1,0,,,,,0,6,6,29,,,,,,down,0.6838484922845964,2133.673530220556,None,001,89,2019_Nov_01_1156,ACPT_experiment_5_30_19,3.1.0,59.95520815939781,
,,,C,G,y,b,L,U,d,R,u,,,,,5,19,119,5,1,0,1,0,,,,,0,7,7,21,,,,,,up,0.5003816942517005,2135.6583680993554,None,001,89,2019_Nov_01_1156,ACPT_experiment_5_30_19,3.1.0,59.95520815939781,
,,,C,G,y,b,R,U,d,R,u,,,,,5,19,119,5,1,0,1,0,,,,,0,8,8,9,,,,,,up,0.5837688330411765,2137.4430554134324,None,001,89,2019_Nov_01_1156,ACPT_experiment_5_30_19,3.1.0,59.95520815939781,
,,,C,G,y,b,L,D,d,R,c ,,,,,5,19,119,5,1,0,1,0,,,,,0,9,9,13,,,,,,up,0.5504082423012733,2139.311132281131,None,001,89,2019_Nov_01_1156,ACPT_experiment_5_30_19,3.1.0,59.95520815939781,
,,,C,G,y,b,R,G,g,L,c ,,,,,5,19,119,5,1,0,1,0,,,,,0,10,10,6,,,,,,up,0.6671662348653626,2141.1458551988744,None,001,89,2019_Nov_01_1156,ACPT_experiment_5_30_19,3.1.0,59.95520815939781,
,,,C,G,y,b,R,U,y,R,u,,,,,5,19,119,5,1,0,1,0,,,,,0,11,11,31,,,,,,down,0.8673702277264965,2143.0973315813735,None,001,89,2019_Nov_01_1156,ACPT_experiment_5_30_19,3.1.0,59.95520815939781,
,,,C,G,y,b,L,U,g,L,u,,,,,5,19,119,5,1,0,1,0,,,,,0,12,12,22,,,,,,up,1.117511419888615,2145.248958528595,None,001,89,2019_Nov_01_1156,ACPT_experiment_5_30_19,3.1.0,59.95520815939781,
,,,C,G,y,b,L,D,g,R,i,,,,,5,19,119,5,1,0,1,0,,,,,0,13,13,15,,,,,,up,1.100852707069862,2147.650776473869,None,001,89,2019_Nov_01_1156,ACPT_experiment_5_30_19,3.1.0,59.95520815939781,
,,,C,G,y,b,L,D,d,L,c ,,,,,5,19,119,5,1,0,1,0,,,,,0,14,14,12,,,,,,up,0.9340376792133611,2150.0192386580657,None,001,89,2019_Nov_01_1156,ACPT_experiment_5_30_19,3.1.0,59.95520815939781,
,,,C,G,y,b,L,G,g,R,c ,,,,,5,19,119,5,1,0,1,0,,,,,0,15,15,19,,,,,,up,1.5511837049598398,2152.237569279243,None,001,89,2019_Nov_01_1156,ACPT_experiment_5_30_19,3.1.0,59.95520815939781,
,,,C,G,y,b,R,G,g,R,c ,,,,,5,19,119,5,1,0,1,0,,,,,0,16,16,7,,,,,,up,1.050790540262824,2155.0730613207143,None,001,89,2019_Nov_01_1156,ACPT_experiment_5_30_19,3.1.0,59.95520815939781,
,,,C,G,y,b,L,G,y,L,y,,,,,5,19,119,5,1,0,1,0,,,,,0,17,17,34,,,,,,down,4.203177253739341,2157.408158688215,None,001,89,2019_Nov_01_1156,ACPT_experiment_5_30_19,3.1.0,59.95520815939781,
,,,C,G,y,b,R,U,y,L,u,,,,,5,19,119,5,1,0,1,0,,,,,0,18,18,30,,,,,,down,1.5178261327582732,2162.895648806274,None,001,89,2019_Nov_01_1156,ACPT_experiment_5_30_19,3.1.0,59.95520815939781,
,,,C,G,y,b,L,D,y,R,y,,,,,5,19,119,5,1,0,1,0,,,,,0,19,19,33,,,,,,down,0.6505147665429831,2165.697739808582,None,001,89,2019_Nov_01_1156,ACPT_experiment_5_30_19,3.1.0,59.95520815939781,
,,,C,G,y,b,R,U,g,R,u,,,,,5,19,119,5,1,0,1,0,,,,,0,20,20,11,,,,,,up,0.8506448051994084,2167.632559289388,None,001,89,2019_Nov_01_1156,ACPT_experiment_5_30_19,3.1.0,59.95520815939781,
,,,C,G,y,b,R,G,y,L,y,,,,,5,19,119,5,1,0,1,0,,,,,0,21,21,28,,,,,,down,2.7854440617957152,2169.767509714413,None,001,89,2019_Nov_01_1156,ACPT_experiment_5_30_19,3.1.0,59.95520815939781,
,,,C,G,y,b,L,D,y,L,y,,,,,5,19,119,5,1,0,1,0,,,,,0,22,22,32,,,,,,down,0.7838116359253036,2173.853950407216,None,001,89,2019_Nov_01_1156,ACPT_experiment_5_30_19,3.1.0,59.95520815939781,
,,,C,G,y,b,R,D,y,L,y,,,,,5,19,119,5,1,0,1,0,,,,,0,23,23,26,,,,,,down,0.5337274941521173,2175.9388486266107,None,001,89,2019_Nov_01_1156,ACPT_experiment_5_30_19,3.1.0,59.95520815939781,
,,,C,G,y,b,L,U,y,R,u,,,,,5,19,119,5,1,0,1,0,,,,,0,24,24,25,,,,,,down,0.7339148850496713,2177.7568932110335,None,001,89,2019_Nov_01_1156,ACPT_experiment_5_30_19,3.1.0,59.95520815939781,
,,,C,G,y,b,R,D,y,R,y,,,,,5,19,119,5,1,0,1,0,,,,,0,25,25,27,,,,,,down,0.6504758273877087,2179.775085643496,None,001,89,2019_Nov_01_1156,ACPT_experiment_5_30_19,3.1.0,59.95520815939781,
,,,C,G,y,b,L,U,g,R,u,,,,,5,19,119,5,1,0,1,0,,,,,0,26,26,23,,,,,,up,0.6004453552377527,2181.709880070428,None,001,89,2019_Nov_01_1156,ACPT_experiment_5_30_19,3.1.0,59.95520815939781,
,,,C,G,y,b,L,D,g,L,i,,,,,5,19,119,5,1,0,1,0,,,,,0,27,27,14,,,,,,up,2.5852835358928132,2183.594642214086,None,001,89,2019_Nov_01_1156,ACPT_experiment_5_30_19,3.1.0,59.95520815939781,
,,,C,G,y,b,L,U,d,L,u,,,,,5,19,119,5,1,0,1,0,,,,,0,28,28,20,,,,,,up,0.5837754738276999,2187.464231671658,None,001,89,2019_Nov_01_1156,ACPT_experiment_5_30_19,3.1.0,59.95520815939781,
,,,C,G,y,b,R,D,g,R,i,,,,,5,19,119,5,1,0,1,0,,,,,0,29,29,3,,,,,,up,0.700529542289587,2189.332312463457,None,001,89,2019_Nov_01_1156,ACPT_experiment_5_30_19,3.1.0,59.95520815939781,
,,,C,G,y,b,R,D,d,L,c,,,,,5,19,119,5,1,0,1,0,,,,,0,30,30,0,,,,,,up,0.6004725220882392,2191.317147927426,None,001,89,2019_Nov_01_1156,ACPT_experiment_5_30_19,3.1.0,59.95520815939781,
,,,C,G,y,b,R,U,d,L,u,,,,,5,19,119,5,1,0,1,0,,,,,0,31,31,8,,,,,,up,0.5670874811839894,2193.2019149007465,None,001,89,2019_Nov_01_1156,ACPT_experiment_5_30_19,3.1.0,59.95520815939781,
,,,C,G,y,b,R,U,g,L,u,,,,,5,19,119,5,1,0,1,0,,,,,0,32,32,10,,,,,,up,0.6171562887793698,2195.0366103497854,None,001,89,2019_Nov_01_1156,ACPT_experiment_5_30_19,3.1.0,59.95520815939781,
,,,C,G,y,b,L,G,d,L,i,,,,,5,19,119,5,1,0,1,0,,,,,0,33,33,16,,,,,,up,0.5170717998735199,2196.9380426767075,None,001,89,2019_Nov_01_1156,ACPT_experiment_5_30_19,3.1.0,59.95520815939781,
,,,C,G,y,b,R,D,g,L,i,,,,,5,19,119,5,1,0,1,0,,,,,0,34,34,2,,,,,,up,0.5003575459395506,2198.756129218824,None,001,89,2019_Nov_01_1156,ACPT_experiment_5_30_19,3.1.0,59.95520815939781,
,,,C,G,y,b,L,U,y,L,u,,,,,5,19,119,5,1,0,1,0,,,,,0,35,35,24,,,,,,down,0.5337018365680706,2200.5575066385227,None,001,89,2019_Nov_01_1156,ACPT_experiment_5_30_19,3.1.0,59.95520815939781,
,,,C,G,y,b,L,U,y,R,u,,,,,5,19,119,5,1,0,1,0,,,,,1,0,36,25,,,,,,down,0.8339679811488168,2202.392197861607,None,001,89,2019_Nov_01_1156,ACPT_experiment_5_30_19,3.1.0,59.95520815939781,
,,,C,G,y,b,R,G,d,R,i,,,,,5,19,119,5,1,0,1,0,,,,,1,1,37,5,,,,,,up,0.5170911185214209,2204.5104636143806,None,001,89,2019_Nov_01_1156,ACPT_experiment_5_30_19,3.1.0,59.95520815939781,
,,,C,G,y,b,L,U,d,R,u,,,,,5,19,119,5,1,0,1,0,,,,,1,2,38,21,,,,,,up,0.5170558016161522,2206.311827752508,None,001,89,2019_Nov_01_1156,ACPT_experiment_5_30_19,3.1.0,59.95520815939781,
,,,C,G,y,b,R,G,g,L,c ,,,,,5,19,119,5,1,0,1,0,,,,,1,3,39,6,,,,,,up,0.6171357627135876,2208.1131900795117,None,001,89,2019_Nov_01_1156,ACPT_experiment_5_30_19,3.1.0,59.95520815939781,
,,,C,G,y,b,R,D,g,L,i,,,,,5,19,119,5,1,0,1,0,,,,,1,4,40,2,,,,,,up,0.4003237684883061,2210.014604597054,None,001,89,2019_Nov_01_1156,ACPT_experiment_5_30_19,3.1.0,59.95520815939781,
,,,C,G,y,b,L,D,d,L,c ,,,,,5,19,119,5,1,0,1,0,,,,,1,5,41,12,,,,,,up,0.40009496323727944,2211.716093431025,None,001,89,2019_Nov_01_1156,ACPT_experiment_5_30_19,3.1.0,59.95520815939781,
,,,C,G,y,b,L,U,y,L,u,,,,,5,19,119,5,1,0,1,0,,,,,1,6,42,24,,,,,,down,0.6004746350663481,2213.4005060882428,None,001,89,2019_Nov_01_1156,ACPT_experiment_5_30_19,3.1.0,59.95520815939781,
,,,C,G,y,b,R,U,d,L,u,,,,,5,19,119,5,1,0,1,0,,,,,1,7,43,8,,,,,,up,0.6338110774941015,2215.2852851357184,None,001,89,2019_Nov_01_1156,ACPT_experiment_5_30_19,3.1.0,59.95520815939781,
,,,C,G,y,b,L,G,g,L,c ,,,,,5,19,119,5,1,0,1,0,,,,,1,8,44,18,,,,,,up,0.43365145715506515,2217.203403644162,None,001,89,2019_Nov_01_1156,ACPT_experiment_5_30_19,3.1.0,59.95520815939781,
,,,C,G,y,b,L,U,g,L,u,,,,,5,19,119,5,1,0,1,0,,,,,1,9,45,22,,,,,,up,0.4834042237216636,2218.9383400027946,None,001,89,2019_Nov_01_1156,ACPT_experiment_5_30_19,3.1.0,59.95520815939781,
,,,C,G,y,b,L,D,g,L,i,,,,,5,19,119,5,1,0,1,0,,,,,1,10,46,14,,,,,,up,0.3669607629180973,2220.706030829546,None,001,89,2019_Nov_01_1156,ACPT_experiment_5_30_19,3.1.0,59.95520815939781,
,,,C,G,y,b,R,D,d,R,c ,,,,,5,19,119,5,1,0,1,0,,,,,1,11,47,1,,,,,,up,0.6505105405867653,2222.3572902696487,None,001,89,2019_Nov_01_1156,ACPT_experiment_5_30_19,3.1.0,59.95520815939781,
,,,C,G,y,b,R,U,d,R,u,,,,,5,19,119,5,1,0,1,0,,,,,1,12,48,9,,,,,,up,0.533743492407666,2224.292099789276,None,001,89,2019_Nov_01_1156,ACPT_experiment_5_30_19,3.1.0,59.95520815939781,
,,,C,G,y,b,R,G,d,L,i,,,,,5,19,119,5,1,0,1,0,,,,,1,13,49,4,,,,,,up,0.5470996217482025,2226.13014792954,None,001,89,2019_Nov_01_1156,ACPT_experiment_5_30_19,3.1.0,59.95520815939781,
,,,C,G,y,b,L,G,y,R,y,,,,,5,19,119,5,1,0,1,0,,,,,1,14,50,35,,,,,,down,0.7505603162953776,2227.9782230525216,None,001,89,2019_Nov_01_1156,ACPT_experiment_5_30_19,3.1.0,59.95520815939781,
,,,C,G,y,b,L,G,y,L,y,,,,,5,19,119,5,1,0,1,0,,,,,1,15,51,34,,,,,,down,0.9840720754655194,2230.0297742646017,None,001,89,2019_Nov_01_1156,ACPT_experiment_5_30_19,3.1.0,59.95520815939781,
,,,C,G,y,b,R,U,g,L,u,,,,,5,19,119,5,1,0,1,0,,,,,1,16,52,10,,,,,,up,0.6171173496277333,2232.29816735444,None,001,89,2019_Nov_01_1156,ACPT_experiment_5_30_19,3.1.0,59.95520815939781,
,,,C,G,y,b,L,G,g,R,c ,,,,,5,19,119,5,1,0,1,0,,,,,1,17,53,19,,,,,,up,1.0674724958280422,2234.199598172094,None,001,89,2019_Nov_01_1156,ACPT_experiment_5_30_19,3.1.0,59.95520815939781,
,,,C,G,y,b,R,D,y,R,y,,,,,5,19,119,5,1,0,1,0,,,,,1,18,54,27,,,,,,down,0.6338463944011892,2236.551376589601,None,001,89,2019_Nov_01_1156,ACPT_experiment_5_30_19,3.1.0,59.95520815939781,
,,,C,G,y,b,R,U,y,R,u,,,,,5,19,119,5,1,0,1,0,,,,,1,19,55,31,,,,,,down,0.8673264589142491,2238.4528294425872,None,001,89,2019_Nov_01_1156,ACPT_experiment_5_30_19,3.1.0,59.95520815939781,
,,,C,G,y,b,R,G,g,R,c ,,,,,5,19,119,5,1,0,1,0,,,,,1,20,56,7,,,,,,up,0.6004504867541982,2240.6044428063833,None,001,89,2019_Nov_01_1156,ACPT_experiment_5_30_19,3.1.0,59.95520815939781,
,,,C,G,y,b,R,U,g,R,u,,,,,5,19,119,5,1,0,1,0,,,,,1,21,57,11,,,,,,up,0.9674085329861555,2242.4892079685815,None,001,89,2019_Nov_01_1156,ACPT_experiment_5_30_19,3.1.0,59.95520815939781,
,,,C,G,y,b,L,U,g,R,u,,,,,5,19,119,5,1,0,1,0,,,,,1,22,58,23,,,,,,up,0.6671840442431858,2244.740911556506,None,001,89,2019_Nov_01_1156,ACPT_experiment_5_30_19,3.1.0,59.95520815939781,
,,,C,G,y,b,L,D,y,R,y,,,,,5,19,119,5,1,0,1,0,,,,,1,23,59,33,,,,,,down,0.7172063663401786,2246.709057518561,None,001,89,2019_Nov_01_1156,ACPT_experiment_5_30_19,3.1.0,59.95520815939781,
,,,C,G,y,b,L,U,d,L,u,,,,,5,19,119,5,1,0,1,0,,,,,1,24,60,20,,,,,,up,0.5670868774759583,2248.7439415659155,None,001,89,2019_Nov_01_1156,ACPT_experiment_5_30_19,3.1.0,59.95520815939781,
,,,C,G,y,b,R,D,d,L,c,,,,,5,19,119,5,1,0,1,0,,,,,1,25,61,0,,,,,,up,0.9340422070235945,2250.5953292335544,None,001,89,2019_Nov_01_1156,ACPT_experiment_5_30_19,3.1.0,59.95520815939781,
,,,C,G,y,b,L,D,d,R,c ,,,,,5,19,119,5,1,0,1,0,,,,,1,26,62,13,,,,,,up,1.0007265623280546,2252.8303892013573,None,001,89,2019_Nov_01_1156,ACPT_experiment_5_30_19,3.1.0,59.95520815939781,
,,,C,G,y,b,R,D,g,R,i,,,,,5,19,119,5,1,0,1,0,,,,,1,27,63,3,,,,,,up,0.6171366682756343,2255.115424703905,None,001,89,2019_Nov_01_1156,ACPT_experiment_5_30_19,3.1.0,59.95520815939781,
,,,C,G,y,b,R,U,y,L,u,,,,,5,19,119,5,1,0,1,0,,,,,1,28,64,30,,,,,,down,1.2175953050846147,2257.0168603512193,None,001,89,2019_Nov_01_1156,ACPT_experiment_5_30_19,3.1.0,59.95520815939781,
,,,C,G,y,b,L,G,d,L,i,,,,,5,19,119,5,1,0,1,0,,,,,1,29,65,16,,,,,,up,1.4177362104837812,2259.5187558427588,None,001,89,2019_Nov_01_1156,ACPT_experiment_5_30_19,3.1.0,59.95520815939781,
,,,C,G,y,b,R,G,y,R,y,,,,,5,19,119,5,1,0,1,0,,,,,1,30,66,29,,,,,,up,0.7672555534318235,2262.220789523013,None,001,89,2019_Nov_01_1156,ACPT_experiment_5_30_19,3.1.0,59.95520815939781,
,,,C,G,y,b,L,G,d,R,i,,,,,5,19,119,5,1,0,1,0,,,,,1,31,67,17,,,,,,up,1.9181058305784973,2264.2723657889655,None,001,89,2019_Nov_01_1156,ACPT_experiment_5_30_19,3.1.0,59.95520815939781,
,,,C,G,y,b,R,G,y,L,y,,,,,5,19,119,5,1,0,1,0,,,,,1,32,68,28,,,,,,down,1.4008734444341826,2267.4916052922235,None,001,89,2019_Nov_01_1156,ACPT_experiment_5_30_19,3.1.0,59.95520815939781,
,,,C,G,y,b,L,D,y,L,y,,,,,5,19,119,5,1,0,1,0,,,,,1,33,69,32,,,,,,down,0.9173738348818006,2270.193499214123,None,001,89,2019_Nov_01_1156,ACPT_experiment_5_30_19,3.1.0,59.95520815939781,
,,,C,G,y,b,R,D,y,L,y,,,,,5,19,119,5,1,0,1,0,,,,,1,34,70,26,,,,,,down,0.9840609068724007,2272.3951783669763,None,001,89,2019_Nov_01_1156,ACPT_experiment_5_30_19,3.1.0,59.95520815939781,
,,,C,G,y,b,L,D,g,R,i,,,,,5,19,119,5,1,0,1,0,,,,,1,35,71,15,,,,,,up,1.117514136571117,2274.6635470066503,None,001,89,2019_Nov_01_1156,ACPT_experiment_5_30_19,3.1.0,59.95520815939781,
,,,C,G,y,b,,,,,,,,,,5,19,119,5,2,0,2,0,0,0,0,0,,,,,,,,,,,,,,001,89,2019_Nov_01_1156,ACPT_experiment_5_30_19,3.1.0,59.95520815939781,
,,,C,G,y,b,L,U,y,R,u,,,,,5,19,119,5,2,0,2,0,,,,,0,0,0,25,,,,,,down,1.0505928259590291,2394.7379159584416,None,001,89,2019_Nov_01_1156,ACPT_experiment_5_30_19,3.1.0,59.95520815939781,
,,,C,G,y,b,L,D,y,R,y,,,,,5,19,119,5,2,0,2,0,,,,,0,1,1,33,,,,,,down,0.48368675896745117,2397.072859380458,None,001,89,2019_Nov_01_1156,ACPT_experiment_5_30_19,3.1.0,59.95520815939781,
,,,C,G,y,b,L,G,y,L,y,,,,,5,19,119,5,2,0,2,0,,,,,0,2,2,34,,,,,,down,0.6838421533539076,2398.85753703521,None,001,89,2019_Nov_01_1156,ACPT_experiment_5_30_19,3.1.0,59.95520815939781,
,,,C,G,y,b,R,D,d,L,c,,,,,5,19,119,5,2,0,2,0,,,,,0,3,3,0,,,,,,up,0.5671451352773147,2400.8256875250736,None,001,89,2019_Nov_01_1156,ACPT_experiment_5_30_19,3.1.0,59.95520815939781,
,,,C,G,y,b,R,G,y,L,y,,,,,5,19,119,5,2,0,2,0,,,,,0,4,4,28,,,,,,down,0.5837407606286433,2402.677121980065,None,001,89,2019_Nov_01_1156,ACPT_experiment_5_30_19,3.1.0,59.95520815939781,
,,,C,G,y,b,L,G,g,L,c ,,,,,5,19,119,5,2,0,2,0,,,,,0,5,5,18,,,,,,up,0.6505156721032108,2404.545146627039,None,001,89,2019_Nov_01_1156,ACPT_experiment_5_30_19,3.1.0,59.95520815939781,
,,,C,G,y,b,R,D,y,R,y,,,,,5,19,119,5,2,0,2,0,,,,,0,6,6,27,,,,,,down,0.6004550145626126,2406.479965504137,None,001,89,2019_Nov_01_1156,ACPT_experiment_5_30_19,3.1.0,59.95520815939781,
,,,C,G,y,b,L,D,g,R,i,,,,,5,19,119,5,2,0,2,0,,,,,0,7,7,15,,,,,,up,0.6671668385733938,2408.3647312700414,None,001,89,2019_Nov_01_1156,ACPT_experiment_5_30_19,3.1.0,59.95520815939781,
,,,C,G,y,b,R,U,g,L,u,,,,,5,19,119,5,2,0,2,0,,,,,0,8,8,10,,,,,,up,1.167554871755783,2410.3162049358543,None,001,89,2019_Nov_01_1156,ACPT_experiment_5_30_19,3.1.0,59.95520815939781,
,,,C,G,y,b,R,G,y,R,y,,,,,5,19,119,5,2,0,2,0,,,,,0,9,9,29,,,,,,down,0.7505742015746364,2412.7680593903588,None,001,89,2019_Nov_01_1156,ACPT_experiment_5_30_19,3.1.0,59.95520815939781,
,,,C,G,y,b,R,U,d,L,u,,,,,5,19,119,5,2,0,2,0,,,,,0,10,10,8,,,,,,up,1.117514740280967,2414.802931967264,None,001,89,2019_Nov_01_1156,ACPT_experiment_5_30_19,3.1.0,59.95520815939781,
,,,C,G,y,b,L,D,g,L,i,,,,,5,19,119,5,2,0,2,0,,,,,0,11,11,14,,,,,,up,1.7679999251395202,2417.2047550440548,None,001,89,2019_Nov_01_1156,ACPT_experiment_5_30_19,3.1.0,59.95520815939781,
,,,C,G,y,b,R,U,y,R,u,,,,,5,19,119,5,2,0,2,0,,,,,0,12,12,31,,,,,,down,1.4844546752792667,2420.25706602239,None,001,89,2019_Nov_01_1156,ACPT_experiment_5_30_19,3.1.0,59.95520815939781,
,,,C,G,y,b,R,D,y,L,y,,,,,5,19,119,5,2,0,2,0,,,,,0,13,13,26,,,,,,down,3.1857379467473947,2423.042502839691,None,001,89,2019_Nov_01_1156,ACPT_experiment_5_30_19,3.1.0,59.95520815939781,
,,,C,G,y,b,R,U,d,R,u,,,,,5,19,119,5,2,0,2,0,,,,,0,14,14,9,,,,,,up,0.6004704091119493,2427.5292313803693,None,001,89,2019_Nov_01_1156,ACPT_experiment_5_30_19,3.1.0,59.95520815939781,
,,,C,G,y,b,L,G,y,R,y,,,,,5,19,119,5,2,0,2,0,,,,,0,15,15,35,,,,,,down,0.583763701524731,2429.4306748758845,None,001,89,2019_Nov_01_1156,ACPT_experiment_5_30_19,3.1.0,59.95520815939781,
,,,C,G,y,b,R,G,g,L,c ,,,,,5,19,119,5,2,0,2,0,,,,,0,16,16,6,,,,,,up,0.8172778755288164,2431.3154270583636,None,001,89,2019_Nov_01_1156,ACPT_experiment_5_30_19,3.1.0,59.95520815939781,
,,,C,G,y,b,R,D,g,L,i,,,,,5,19,119,5,2,0,2,0,,,,,0,17,17,2,,,,,,up,0.9006677310026134,2433.4170310797836,None,001,89,2019_Nov_01_1156,ACPT_experiment_5_30_19,3.1.0,59.95520815939781,
,,,C,G,y,b,L,D,y,L,y,,,,,5,19,119,5,2,0,2,0,,,,,0,18,18,32,,,,,,down,5.587561929100048,2435.6020044306115,None,001,89,2019_Nov_01_1156,ACPT_experiment_5_30_19,3.1.0,59.95520815939781,
,,,C,G,y,b,L,G,g,R,c ,,,,,5,19,119,5,2,0,2,0,,,,,0,19,19,19,,,,,,up,0.817285723729583,2442.4738698665587,None,001,89,2019_Nov_01_1156,ACPT_experiment_5_30_19,3.1.0,59.95520815939781,
,,,C,G,y,b,L,U,g,L,u,,,,,5,19,119,5,2,0,2,0,,,,,0,20,20,22,,,,,,up,0.6338095682240237,2444.5754615119677,None,001,89,2019_Nov_01_1156,ACPT_experiment_5_30_19,3.1.0,59.95520815939781,
,,,C,G,y,b,R,G,d,L,i,,,,,5,19,119,5,2,0,2,0,,,,,0,21,21,4,,,,,,up,1.2509401994229847,2446.493579114849,None,001,89,2019_Nov_01_1156,ACPT_experiment_5_30_19,3.1.0,59.95520815939781,
,,,C,G,y,b,R,G,g,R,c ,,,,,5,19,119,5,2,0,2,0,,,,,0,22,22,7,,,,,,up,0.5670035658004053,2449.0288056154477,None,001,89,2019_Nov_01_1156,ACPT_experiment_5_30_19,3.1.0,59.95520815939781,
,,,C,G,y,b,L,U,y,L,u,,,,,5,19,119,5,2,0,2,0,,,,,0,23,23,24,,,,,,down,1.0007661051877221,2450.880222864769,None,001,89,2019_Nov_01_1156,ACPT_experiment_5_30_19,3.1.0,59.95520815939781,
,,,C,G,y,b,L,G,d,R,i,,,,,5,19,119,5,2,0,2,0,,,,,0,24,24,17,,,,,,up,1.1341420602911967,2453.165347112361,None,001,89,2019_Nov_01_1156,ACPT_experiment_5_30_19,3.1.0,59.95520815939781,
,,,C,G,y,b,L,G,d,L,i,,,,,5,19,119,5,2,0,2,0,,,,,0,25,25,16,,,,,,up,1.5346520726343442,2455.5669625136707,None,001,89,2019_Nov_01_1156,ACPT_experiment_5_30_19,3.1.0,59.95520815939781,
,,,C,G,y,b,R,G,d,R,i,,,,,5,19,119,5,2,0,2,0,,,,,0,26,26,5,,,,,,up,1.1675539661937364,2458.3859114523675,None,001,89,2019_Nov_01_1156,ACPT_experiment_5_30_19,3.1.0,59.95520815939781,
,,,C,G,y,b,L,U,d,R,u,,,,,5,19,119,5,2,0,2,0,,,,,0,27,27,21,,,,,,up,0.9173617607266351,2460.837766208724,None,001,89,2019_Nov_01_1156,ACPT_experiment_5_30_19,3.1.0,59.95520815939781,
,,,C,G,y,b,L,D,d,L,c ,,,,,5,19,119,5,2,0,2,0,,,,,0,28,28,12,,,,,,up,0.633825868335407,2463.0394272503436,None,001,89,2019_Nov_01_1156,ACPT_experiment_5_30_19,3.1.0,59.95520815939781,
,,,C,G,y,b,R,U,g,R,u,,,,,5,19,119,5,2,0,2,0,,,,,0,29,29,11,,,,,,up,0.41698459428153,2464.957547268057,None,001,89,2019_Nov_01_1156,ACPT_experiment_5_30_19,3.1.0,59.95520815939781,
,,,C,G,y,b,R,D,g,R,i,,,,,5,19,119,5,2,0,2,0,,,,,0,30,30,3,,,,,,up,0.43365839979378507,2466.658838085872,None,001,89,2019_Nov_01_1156,ACPT_experiment_5_30_19,3.1.0,59.95520815939781,
,,,C,G,y,b,L,D,d,R,c ,,,,,5,19,119,5,2,0,2,0,,,,,0,31,31,13,,,,,,up,0.43365628681567614,2468.3768063314456,None,001,89,2019_Nov_01_1156,ACPT_experiment_5_30_19,3.1.0,59.95520815939781,
,,,C,G,y,b,L,U,g,R,u,,,,,5,19,119,5,2,0,2,0,,,,,0,32,32,23,,,,,,up,0.3502365478052525,2470.1114625696646,None,001,89,2019_Nov_01_1156,ACPT_experiment_5_30_19,3.1.0,59.95520815939781,
,,,C,G,y,b,L,U,d,L,u,,,,,5,19,119,5,2,0,2,0,,,,,0,33,33,20,,,,,,up,0.6003493657008221,2471.746015000328,None,001,89,2019_Nov_01_1156,ACPT_experiment_5_30_19,3.1.0,59.95520815939781,
,,,C,G,y,b,R,D,d,R,c ,,,,,5,19,119,5,2,0,2,0,,,,,0,34,34,1,,,,,,up,0.36694084056034626,2473.630773521738,None,001,89,2019_Nov_01_1156,ACPT_experiment_5_30_19,3.1.0,59.95520815939781,
,,,C,G,y,b,R,U,y,L,u,,,,,5,19,119,5,2,0,2,0,,,,,0,35,35,30,,,,,,down,0.700527429311478,2475.2820317544265,None,001,89,2019_Nov_01_1156,ACPT_experiment_5_30_19,3.1.0,59.95520815939781,
,,,C,G,y,b,L,D,y,L,y,,,,,5,19,119,5,2,0,2,0,,,,,1,0,36,32,,,,,,down,0.5835016923429066,2477.2671352646557,None,001,89,2019_Nov_01_1156,ACPT_experiment_5_30_19,3.1.0,59.95520815939781,
,,,C,G,y,b,R,U,d,R,u,,,,,5,19,119,5,2,0,2,0,,,,,1,1,37,9,,,,,,up,0.6505168795192731,2479.1349389545776,None,001,89,2019_Nov_01_1156,ACPT_experiment_5_30_19,3.1.0,59.95520815939781,
,,,C,G,y,b,L,D,g,R,i,,,,,5,19,119,5,2,0,2,0,,,,,1,2,38,15,,,,,,up,1.0841882590302703,2481.0697394185863,None,001,89,2019_Nov_01_1156,ACPT_experiment_5_30_19,3.1.0,59.95520815939781,
,,,C,G,y,b,L,U,d,L,u,,,,,5,19,119,5,2,0,2,0,,,,,1,3,39,20,,,,,,up,0.8672045099374373,2483.438203112053,None,001,89,2019_Nov_01_1156,ACPT_experiment_5_30_19,3.1.0,59.95520815939781,
,,,C,G,y,b,R,U,d,L,u,,,,,5,19,119,5,2,0,2,0,,,,,1,4,40,8,,,,,,up,0.4837030590770155,2485.589825531466,None,001,89,2019_Nov_01_1156,ACPT_experiment_5_30_19,3.1.0,59.95520815939781,
,,,C,G,y,b,L,G,d,R,i,,,,,5,19,119,5,2,0,2,0,,,,,1,5,41,17,,,,,,up,0.4835823175180849,2487.3578296825617,None,001,89,2019_Nov_01_1156,ACPT_experiment_5_30_19,3.1.0,59.95520815939781,
,,,C,G,y,b,L,G,y,L,y,,,,,5,19,119,5,2,0,2,0,,,,,1,6,42,34,,,,,,down,0.8006040700165613,2489.1258350410717,None,001,89,2019_Nov_01_1156,ACPT_experiment_5_30_19,3.1.0,59.95520815939781,
,,,C,G,y,b,L,U,y,R,u,,,,,5,19,119,5,2,0,2,0,,,,,1,7,43,25,,,,,,down,0.6004794647287781,2491.2107450327676,None,001,89,2019_Nov_01_1156,ACPT_experiment_5_30_19,3.1.0,59.95520815939781,
,,,C,G,y,b,L,D,y,R,y,,,,,5,19,119,5,2,0,2,0,,,,,1,8,44,33,,,,,,down,0.5504139775257499,2493.0955050634475,None,001,89,2019_Nov_01_1156,ACPT_experiment_5_30_19,3.1.0,59.95520815939781,
,,,C,G,y,b,L,U,g,L,u,,,,,5,19,119,5,2,0,2,0,,,,,1,9,45,22,,,,,,up,0.6004504867541982,2494.930230094169,None,001,89,2019_Nov_01_1156,ACPT_experiment_5_30_19,3.1.0,59.95520815939781,
,,,C,G,y,b,R,U,g,L,u,,,,,5,19,119,5,2,0,2,0,,,,,1,10,46,10,,,,,,up,0.8339592273860035,2496.8149852951883,None,001,89,2019_Nov_01_1156,ACPT_experiment_5_30_19,3.1.0,59.95520815939781,
,,,C,G,y,b,R,D,y,R,y,,,,,5,19,119,5,2,0,2,0,,,,,1,11,47,27,,,,,,down,0.9507317089373828,2498.9499393424594,None,001,89,2019_Nov_01_1156,ACPT_experiment_5_30_19,3.1.0,59.95520815939781,
,,,C,G,y,b,L,U,g,R,u,,,,,5,19,119,5,2,0,2,0,,,,,1,12,48,23,,,,,,up,2.651995661755791,2501.201645345216,None,001,89,2019_Nov_01_1156,ACPT_experiment_5_30_19,3.1.0,59.95520815939781,
,,,C,G,y,b,L,U,d,R,u,,,,,5,19,119,5,2,0,2,0,,,,,1,13,49,21,,,,,,up,1.2009396108078363,2505.1212504840987,None,001,89,2019_Nov_01_1156,ACPT_experiment_5_30_19,3.1.0,59.95520815939781,
,,,C,G,y,b,R,G,y,R,y,,,,,5,19,119,5,2,0,2,0,,,,,1,14,50,29,,,,,,down,4.203179064861615,2507.606486659115,None,001,89,2019_Nov_01_1156,ACPT_experiment_5_30_19,3.1.0,59.95520815939781,
,,,C,G,y,b,R,U,y,R,u,,,,,5,19,119,5,2,0,2,0,,,,,1,15,51,31,,,,,,down,27.354035680942616,2513.0939698345337,None,001,89,2019_Nov_01_1156,ACPT_experiment_5_30_19,3.1.0,59.95520815939781,
,,,C,G,y,b,R,U,g,R,u,,,,,5,19,119,5,2,0,2,0,,,,,1,16,52,11,,,,,,up,1.4177247400348278,2541.732311739008,None,001,89,2019_Nov_01_1156,ACPT_experiment_5_30_19,3.1.0,59.95520815939781,
,,,C,G,y,b,L,G,y,R,y,,,,,5,19,119,5,2,0,2,0,,,,,1,17,53,35,,,,,,down,1.0841568662253849,2544.4343475322385,None,001,89,2019_Nov_01_1156,ACPT_experiment_5_30_19,3.1.0,59.95520815939781,
,,,C,G,y,b,R,G,y,L,y,,,,,5,19,119,5,2,0,2,0,,,,,1,18,54,28,,,,,,down,1.4010331251447496,2546.802832355477,None,001,89,2019_Nov_01_1156,ACPT_experiment_5_30_19,3.1.0,59.95520815939781,
,,,C,G,y,b,R,G,d,L,i,,,,,5,19,119,5,2,0,2,0,,,,,1,19,55,4,,,,,,up,0.6504679791869421,2549.488192833929,None,001,89,2019_Nov_01_1156,ACPT_experiment_5_30_19,3.1.0,59.95520815939781,
,,,C,G,y,b,L,D,d,R,c ,,,,,5,19,119,5,2,0,2,0,,,,,1,20,56,13,,,,,,up,1.067471892120011,2551.422970357042,None,001,89,2019_Nov_01_1156,ACPT_experiment_5_30_19,3.1.0,59.95520815939781,
,,,C,G,y,b,R,G,g,R,c ,,,,,5,19,119,5,2,0,2,0,,,,,1,21,57,7,,,,,,up,0.6171091995711322,2553.774771413591,None,001,89,2019_Nov_01_1156,ACPT_experiment_5_30_19,3.1.0,59.95520815939781,
,,,C,G,y,b,R,D,d,L,c,,,,,5,19,119,5,2,0,2,0,,,,,1,22,58,0,,,,,,up,0.9006719569588313,2555.67619106265,None,001,89,2019_Nov_01_1156,ACPT_experiment_5_30_19,3.1.0,59.95520815939781,
,,,C,G,y,b,R,D,d,R,c ,,,,,5,19,119,5,2,0,2,0,,,,,1,23,59,1,,,,,,up,0.8674716506375262,2557.844341793996,None,001,89,2019_Nov_01_1156,ACPT_experiment_5_30_19,3.1.0,59.95520815939781,
,,,C,G,y,b,L,D,d,L,c ,,,,,5,19,119,5,2,0,2,0,,,,,1,24,60,12,,,,,,up,0.5504055256169522,2559.9961257052437,None,001,89,2019_Nov_01_1156,ACPT_experiment_5_30_19,3.1.0,59.95520815939781,
,,,C,G,y,b,L,G,g,L,c ,,,,,5,19,119,5,2,0,2,0,,,,,1,25,61,18,,,,,,up,1.9014329306301079,2561.830850735965,None,001,89,2019_Nov_01_1156,ACPT_experiment_5_30_19,3.1.0,59.95520815939781,
,,,C,G,y,b,R,U,y,L,u,,,,,5,19,119,5,2,0,2,0,,,,,1,26,62,30,,,,,,down,1.1675787182139175,2565.0165880790046,None,001,89,2019_Nov_01_1156,ACPT_experiment_5_30_19,3.1.0,59.95520815939781,
,,,C,G,y,b,R,G,g,L,c ,,,,,5,19,119,5,2,0,2,0,,,,,1,27,63,6,,,,,,up,0.7672549497237924,2567.4684473631696,None,001,89,2019_Nov_01_1156,ACPT_experiment_5_30_19,3.1.0,59.95520815939781,
,,,C,G,y,b,R,D,g,L,i,,,,,5,19,119,5,2,0,2,0,,,,,1,28,64,2,,,,,,up,1.2843237310589757,2569.503320845637,None,001,89,2019_Nov_01_1156,ACPT_experiment_5_30_19,3.1.0,59.95520815939781,
,,,C,G,y,b,R,D,y,L,y,,,,,5,19,119,5,2,0,2,0,,,,,1,29,65,26,,,,,,down,1.4010551604806096,2572.0719275574793,None,001,89,2019_Nov_01_1156,ACPT_experiment_5_30_19,3.1.0,59.95520815939781,
,,,C,G,y,b,L,G,d,L,i,,,,,5,19,119,5,2,0,2,0,,,,,1,30,66,16,,,,,,up,0.6338110774959205,2574.757294676716,None,001,89,2019_Nov_01_1156,ACPT_experiment_5_30_19,3.1.0,59.95520815939781,
,,,C,G,y,b,L,G,g,R,c ,,,,,5,19,119,5,2,0,2,0,,,,,1,31,67,19,,,,,,up,0.533740775723345,2576.675407449935,None,001,89,2019_Nov_01_1156,ACPT_experiment_5_30_19,3.1.0,59.95520815939781,
,,,C,G,y,b,R,G,d,R,i,,,,,5,19,119,5,2,0,2,0,,,,,1,32,68,5,,,,,,up,0.9838689277949015,2578.5103102726007,None,001,89,2019_Nov_01_1156,ACPT_experiment_5_30_19,3.1.0,59.95520815939781,
,,,C,G,y,b,R,D,g,R,i,,,,,5,19,119,5,2,0,2,0,,,,,1,33,69,3,,,,,,up,1.1341933754556521,2580.7785119870714,None,001,89,2019_Nov_01_1156,ACPT_experiment_5_30_19,3.1.0,59.95520815939781,
,,,C,G,y,b,L,U,y,L,u,,,,,5,19,119,5,2,0,2,0,,,,,1,34,70,24,,,,,,down,2.0348761991517677,2583.1970115860586,None,001,89,2019_Nov_01_1156,ACPT_experiment_5_30_19,3.1.0,59.95520815939781,
,,,C,G,y,b,L,D,g,L,i,,,,,5,19,119,5,2,0,2,0,,,,,1,35,71,14,,,,,,up,0.7005069032475149,2586.516218157056,None,001,89,2019_Nov_01_1156,ACPT_experiment_5_30_19,3.1.0,59.95520815939781,
,,,C,G,y,b,,,,,,,,,,5,19,119,5,3,0,3,0,0,0,0,0,,,,,,,,,,,,,,001,89,2019_Nov_01_1156,ACPT_experiment_5_30_19,3.1.0,59.95520815939781,
,,,C,G,y,b,L,G,y,R,y,,,,,5,19,119,5,3,0,3,0,,,,,0,0,0,35,,,,,,down,0.933619913421353,2593.8388145473054,None,001,89,2019_Nov_01_1156,ACPT_experiment_5_30_19,3.1.0,59.95520815939781,
,,,C,G,y,b,L,G,d,R,i,,,,,5,19,119,5,3,0,3,0,,,,,0,1,1,17,,,,,,up,0.5337495294843393,2596.056738873138,None,001,89,2019_Nov_01_1156,ACPT_experiment_5_30_19,3.1.0,59.95520815939781,
,,,C,G,y,b,L,D,g,L,i,,,,,5,19,119,5,3,0,3,0,,,,,0,2,2,14,,,,,,up,0.5003702238027472,2597.874787079809,None,001,89,2019_Nov_01_1156,ACPT_experiment_5_30_19,3.1.0,59.95520815939781,
,,,C,G,y,b,L,U,y,L,u,,,,,5,19,119,5,3,0,3,0,,,,,0,3,3,24,,,,,,down,0.7171951977452409,2599.6594798272545,None,001,89,2019_Nov_01_1156,ACPT_experiment_5_30_19,3.1.0,59.95520815939781,
,,,C,G,y,b,L,G,y,L,y,,,,,5,19,119,5,3,0,3,0,,,,,0,4,4,34,,,,,,down,0.5336197323103988,2601.6443059337525,None,001,89,2019_Nov_01_1156,ACPT_experiment_5_30_19,3.1.0,59.95520815939781,
,,,C,G,y,b,L,U,g,R,u,,,,,5,19,119,5,3,0,3,0,,,,,0,5,5,23,,,,,,up,0.6338131904722104,2603.4623426699764,None,001,89,2019_Nov_01_1156,ACPT_experiment_5_30_19,3.1.0,59.95520815939781,
,,,C,G,y,b,L,G,g,L,c ,,,,,5,19,119,5,3,0,3,0,,,,,0,6,6,18,,,,,,up,0.583778190512021,2605.380460574712,None,001,89,2019_Nov_01_1156,ACPT_experiment_5_30_19,3.1.0,59.95520815939781,
,,,C,G,y,b,L,G,d,L,i,,,,,5,19,119,5,3,0,3,0,,,,,0,7,7,16,,,,,,up,0.5671188739870558,2607.231841601564,None,001,89,2019_Nov_01_1156,ACPT_experiment_5_30_19,3.1.0,59.95520815939781,
,,,C,G,y,b,R,D,d,R,c ,,,,,5,19,119,5,3,0,3,0,,,,,0,8,8,1,,,,,,up,0.7339118665095157,2609.0832446637523,None,001,89,2019_Nov_01_1156,ACPT_experiment_5_30_19,3.1.0,59.95520815939781,
,,,C,G,y,b,R,U,d,L,u,,,,,5,19,119,5,3,0,3,0,,,,,0,9,9,8,,,,,,up,0.5504505018470809,2611.101460942671,None,001,89,2019_Nov_01_1156,ACPT_experiment_5_30_19,3.1.0,59.95520815939781,
,,,C,G,y,b,L,U,d,L,u,,,,,5,19,119,5,3,0,3,0,,,,,0,10,10,20,,,,,,up,0.5834995793666167,2612.936453114091,None,001,89,2019_Nov_01_1156,ACPT_experiment_5_30_19,3.1.0,59.95520815939781,
,,,C,G,y,b,L,D,d,R,c ,,,,,5,19,119,5,3,0,3,0,,,,,0,11,11,13,,,,,,up,0.9340702794361277,2614.8042758208085,None,001,89,2019_Nov_01_1156,ACPT_experiment_5_30_19,3.1.0,59.95520815939781,
,,,C,G,y,b,R,U,y,L,u,,,,,5,19,119,5,3,0,3,0,,,,,0,12,12,30,,,,,,down,1.134170736411761,2617.0226275717578,None,001,89,2019_Nov_01_1156,ACPT_experiment_5_30_19,3.1.0,59.95520815939781,
,,,C,G,y,b,R,D,g,L,i,,,,,5,19,119,5,3,0,3,0,,,,,0,13,13,2,,,,,,up,0.5971424699073395,2619.4611123134964,None,001,89,2019_Nov_01_1156,ACPT_experiment_5_30_19,3.1.0,59.95520815939781,
,,,C,G,y,b,R,D,y,R,y,,,,,5,19,119,5,3,0,3,0,,,,,0,14,14,27,,,,,,down,0.967391629170379,2621.3425444049717,None,001,89,2019_Nov_01_1156,ACPT_experiment_5_30_19,3.1.0,59.95520815939781,
,,,C,G,y,b,R,G,d,R,i,,,,,5,19,119,5,3,0,3,0,,,,,0,15,15,5,,,,,,up,0.5670735959029116,2623.610940211496,None,001,89,2019_Nov_01_1156,ACPT_experiment_5_30_19,3.1.0,59.95520815939781,
,,,C,G,y,b,R,U,y,R,u,,,,,5,19,119,5,3,0,3,0,,,,,0,16,16,31,,,,,,down,1.1175068920802005,2625.462329086551,None,001,89,2019_Nov_01_1156,ACPT_experiment_5_30_19,3.1.0,59.95520815939781,
,,,C,G,y,b,R,G,g,R,c ,,,,,5,19,119,5,3,0,3,0,,,,,0,17,17,7,,,,,,up,0.5670726903408649,2627.86415820042,None,001,89,2019_Nov_01_1156,ACPT_experiment_5_30_19,3.1.0,59.95520815939781,
,,,C,G,y,b,R,D,d,L,c,,,,,5,19,119,5,3,0,3,0,,,,,0,18,18,0,,,,,,up,0.567122194381227,2629.715553414406,None,001,89,2019_Nov_01_1156,ACPT_experiment_5_30_19,3.1.0,59.95520815939781,
,,,C,G,y,b,R,U,g,L,u,,,,,5,19,119,5,3,0,3,0,,,,,0,19,19,10,,,,,,up,0.6004450533837371,2631.5669489302454,None,001,89,2019_Nov_01_1156,ACPT_experiment_5_30_19,3.1.0,59.95520815939781,
,,,C,G,y,b,L,D,d,L,c ,,,,,5,19,119,5,3,0,3,0,,,,,0,20,20,12,,,,,,up,0.7172039515080542,2633.451706847949,None,001,89,2019_Nov_01_1156,ACPT_experiment_5_30_19,3.1.0,59.95520815939781,
,,,C,G,y,b,L,G,g,R,c ,,,,,5,19,119,5,3,0,3,0,,,,,0,21,21,19,,,,,,up,1.2843318811137578,2635.4532173248444,None,001,89,2019_Nov_01_1156,ACPT_experiment_5_30_19,3.1.0,59.95520815939781,
,,,C,G,y,b,R,G,g,L,c ,,,,,5,19,119,5,3,0,3,0,,,,,0,22,22,6,,,,,,up,0.6335548035367538,2638.038759247671,None,001,89,2019_Nov_01_1156,ACPT_experiment_5_30_19,3.1.0,59.95520815939781,
,,,C,G,y,b,R,G,y,R,y,,,,,5,19,119,5,3,0,3,0,,,,,0,23,23,29,,,,,,down,0.700524712627157,2639.9566272173815,None,001,89,2019_Nov_01_1156,ACPT_experiment_5_30_19,3.1.0,59.95520815939781,
,,,C,G,y,b,R,U,d,R,u,,,,,5,19,119,5,3,0,3,0,,,,,0,24,24,9,,,,,,up,0.6171218774343288,2641.9414638887665,None,001,89,2019_Nov_01_1156,ACPT_experiment_5_30_19,3.1.0,59.95520815939781,
,,,C,G,y,b,R,D,g,R,i,,,,,5,19,119,5,3,0,3,0,,,,,0,25,25,3,,,,,,up,0.5671025738793105,2643.842899536081,None,001,89,2019_Nov_01_1156,ACPT_experiment_5_30_19,3.1.0,59.95520815939781,
,,,C,G,y,b,R,G,d,L,i,,,,,5,19,119,5,3,0,3,0,,,,,0,26,26,4,,,,,,up,0.600451996024276,2645.694300183437,None,001,89,2019_Nov_01_1156,ACPT_experiment_5_30_19,3.1.0,59.95520815939781,
,,,C,G,y,b,L,D,y,R,y,,,,,5,19,119,5,3,0,3,0,,,,,0,27,27,33,,,,,,down,0.7338904348835058,2647.5790574974326,None,001,89,2019_Nov_01_1156,ACPT_experiment_5_30_19,3.1.0,59.95520815939781,
,,,C,G,y,b,R,D,y,L,y,,,,,5,19,119,5,3,0,3,0,,,,,0,28,28,26,,,,,,down,2.285059349003859,2649.613941242931,None,001,89,2019_Nov_01_1156,ACPT_experiment_5_30_19,3.1.0,59.95520815939781,
,,,C,G,y,b,L,U,y,R,u,,,,,5,19,119,5,3,0,3,0,,,,,0,29,29,25,,,,,,down,0.6004332810825872,2653.2000129193475,None,001,89,2019_Nov_01_1156,ACPT_experiment_5_30_19,3.1.0,59.95520815939781,
,,,C,G,y,b,L,U,g,L,u,,,,,5,19,119,5,3,0,3,0,,,,,0,30,30,22,,,,,,up,0.6505346888989152,2655.0680357551973,None,001,89,2019_Nov_01_1156,ACPT_experiment_5_30_19,3.1.0,59.95520815939781,
,,,C,G,y,b,R,U,g,R,u,,,,,5,19,119,5,3,0,3,0,,,,,0,31,31,11,,,,,,up,1.7847066327267385,2657.0028313895455,None,001,89,2019_Nov_01_1156,ACPT_experiment_5_30_19,3.1.0,59.95520815939781,
,,,C,G,y,b,L,D,y,L,y,,,,,5,19,119,5,3,0,3,0,,,,,0,32,32,32,,,,,,down,0.7672341218058136,2660.071859942207,None,001,89,2019_Nov_01_1156,ACPT_experiment_5_30_19,3.1.0,59.95520815939781,
,,,C,G,y,b,L,U,d,R,u,,,,,5,19,119,5,3,0,3,0,,,,,0,33,33,21,,,,,,up,0.6004562219786749,2662.12339908013,None,001,89,2019_Nov_01_1156,ACPT_experiment_5_30_19,3.1.0,59.95520815939781,
,,,C,G,y,b,L,D,g,R,i,,,,,5,19,119,5,3,0,3,0,,,,,0,34,34,15,,,,,,up,0.6004516941702605,2664.008158507104,None,001,89,2019_Nov_01_1156,ACPT_experiment_5_30_19,3.1.0,59.95520815939781,
,,,C,G,y,b,R,G,y,L,y,,,,,5,19,119,5,3,0,3,0,,,,,0,35,35,28,,,,,,down,0.7672652127566835,2665.892918839638,None,001,89,2019_Nov_01_1156,ACPT_experiment_5_30_19,3.1.0,59.95520815939781,
,,,C,G,y,b,R,D,d,R,c ,,,,,5,19,119,5,3,0,3,0,,,,,1,0,36,1,,,,,,up,0.6338303961438214,2667.944472164694,None,001,89,2019_Nov_01_1156,ACPT_experiment_5_30_19,3.1.0,59.95520815939781,
,,,C,G,y,b,L,D,y,L,y,,,,,5,19,119,5,3,0,3,0,,,,,1,1,37,32,,,,,,down,1.0507920495292637,2669.8625864471833,None,001,89,2019_Nov_01_1156,ACPT_experiment_5_30_19,3.1.0,59.95520815939781,
,,,C,G,y,b,L,D,y,R,y,,,,,5,19,119,5,3,0,3,0,,,,,1,2,38,33,,,,,,down,1.4344347680143983,2672.1976904554704,None,001,89,2019_Nov_01_1156,ACPT_experiment_5_30_19,3.1.0,59.95520815939781,
,,,C,G,y,b,R,D,d,L,c,,,,,5,19,119,5,3,0,3,0,,,,,1,3,39,0,,,,,,up,1.000775764512582,2674.9164142413465,None,001,89,2019_Nov_01_1156,ACPT_experiment_5_30_19,3.1.0,59.95520815939781,
,,,C,G,y,b,R,G,y,R,y,,,,,5,19,119,5,3,0,3,0,,,,,1,4,40,29,,,,,,down,0.6338092663700081,2677.218150716255,None,001,89,2019_Nov_01_1156,ACPT_experiment_5_30_19,3.1.0,59.95520815939781,
,,,C,G,y,b,L,D,g,L,i,,,,,5,19,119,5,3,0,3,0,,,,,1,5,41,14,,,,,,up,2.8021426193245134,2679.1529511802637,None,001,89,2019_Nov_01_1156,ACPT_experiment_5_30_19,3.1.0,59.95520815939781,
,,,C,G,y,b,R,U,y,L,u,,,,,5,19,119,5,3,0,3,0,,,,,1,6,42,30,,,,,,down,1.7346508048485703,2683.239374365541,None,001,89,2019_Nov_01_1156,ACPT_experiment_5_30_19,3.1.0,59.95520815939781,
,,,C,G,y,b,L,G,g,L,c ,,,,,5,19,119,5,3,0,3,0,,,,,1,7,43,18,,,,,,up,0.650489410812952,2686.258327167967,None,001,89,2019_Nov_01_1156,ACPT_experiment_5_30_19,3.1.0,59.95520815939781,
,,,C,G,y,b,R,D,g,L,i,,,,,5,19,119,5,3,0,3,0,,,,,1,8,44,2,,,,,,up,0.6504957497454598,2688.193125217147,None,001,89,2019_Nov_01_1156,ACPT_experiment_5_30_19,3.1.0,59.95520815939781,
,,,C,G,y,b,R,D,g,R,i,,,,,5,19,119,5,3,0,3,0,,,,,1,9,45,3,,,,,,up,0.6338614870946913,2690.1112207846927,None,001,89,2019_Nov_01_1156,ACPT_experiment_5_30_19,3.1.0,59.95520815939781,
,,,C,G,y,b,L,G,y,R,y,,,,,5,19,119,5,3,0,3,0,,,,,1,10,46,35,,,,,,down,0.6838415496458765,2692.046038454375,None,001,89,2019_Nov_01_1156,ACPT_experiment_5_30_19,3.1.0,59.95520815939781,
,,,C,G,y,b,R,G,g,R,c ,,,,,5,19,119,5,3,0,3,0,,,,,1,11,47,7,,,,,,up,0.6171553832173231,2694.0308705979514,None,001,89,2019_Nov_01_1156,ACPT_experiment_5_30_19,3.1.0,59.95520815939781,
,,,C,G,y,b,R,U,d,L,u,,,,,5,19,119,5,3,0,3,0,,,,,1,12,48,8,,,,,,up,0.7505630329796986,2695.9323153008827,None,001,89,2019_Nov_01_1156,ACPT_experiment_5_30_19,3.1.0,59.95520815939781,
,,,C,G,y,b,R,U,y,R,u,,,,,5,19,119,5,3,0,3,0,,,,,1,13,49,31,,,,,,down,0.7170807951188181,2697.950519203794,None,001,89,2019_Nov_01_1156,ACPT_experiment_5_30_19,3.1.0,59.95520815939781,
,,,C,G,y,b,L,U,y,L,u,,,,,5,19,119,5,3,0,3,0,,,,,1,14,50,24,,,,,,down,2.118298051142119,2699.951992250806,None,001,89,2019_Nov_01_1156,ACPT_experiment_5_30_19,3.1.0,59.95520815939781,
,,,C,G,y,b,L,G,d,L,i,,,,,5,19,119,5,3,0,3,0,,,,,1,15,51,16,,,,,,up,1.2342691105968697,2703.3545935069415,None,001,89,2019_Nov_01_1156,ACPT_experiment_5_30_19,3.1.0,59.95520815939781,
,,,C,G,y,b,R,U,d,R,u,,,,,5,19,119,5,3,0,3,0,,,,,1,16,52,9,,,,,,up,2.251704191632598,2705.8731652188253,None,001,89,2019_Nov_01_1156,ACPT_experiment_5_30_19,3.1.0,59.95520815939781,
,,,C,G,y,b,L,U,y,R,u,,,,,5,19,119,5,3,0,3,0,,,,,1,17,53,25,,,,,,down,0.883989397683763,2709.4091916322486,None,001,89,2019_Nov_01_1156,ACPT_experiment_5_30_19,3.1.0,59.95520815939781,
,,,C,G,y,b,L,G,y,L,y,,,,,5,19,119,5,3,0,3,0,,,,,1,18,54,34,,,,,,down,0.7672540441617457,2711.5774824238015,None,001,89,2019_Nov_01_1156,ACPT_experiment_5_30_19,3.1.0,59.95520815939781,
,,,C,G,y,b,L,U,d,L,u,,,,,5,19,119,5,3,0,3,0,,,,,1,19,55,20,,,,,,up,0.7005488609393069,2713.629040276668,None,001,89,2019_Nov_01_1156,ACPT_experiment_5_30_19,3.1.0,59.95520815939781,
,,,C,G,y,b,R,U,g,L,u,,,,,5,19,119,5,3,0,3,0,,,,,1,20,56,10,,,,,,up,0.6338282831657125,2715.6138552145712,None,001,89,2019_Nov_01_1156,ACPT_experiment_5_30_19,3.1.0,59.95520815939781,
,,,C,G,y,b,L,U,g,R,u,,,,,5,19,119,5,3,0,3,0,,,,,1,21,57,23,,,,,,up,0.5670971405070304,2717.53198881571,None,001,89,2019_Nov_01_1156,ACPT_experiment_5_30_19,3.1.0,59.95520815939781,
,,,C,G,y,b,L,D,d,R,c ,,,,,5,19,119,5,3,0,3,0,,,,,1,22,58,13,,,,,,up,0.5003777701494982,2719.3833903686264,None,001,89,2019_Nov_01_1156,ACPT_experiment_5_30_19,3.1.0,59.95520815939781,
,,,C,G,y,b,L,U,d,R,u,,,,,5,19,119,5,3,0,3,0,,,,,1,23,59,21,,,,,,up,0.4834495018058078,2721.1850258734066,None,001,89,2019_Nov_01_1156,ACPT_experiment_5_30_19,3.1.0,59.95520815939781,
,,,C,G,y,b,L,G,g,R,c ,,,,,5,19,119,5,3,0,3,0,,,,,1,24,60,19,,,,,,up,1.4010029397541075,2722.9528087655963,None,001,89,2019_Nov_01_1156,ACPT_experiment_5_30_19,3.1.0,59.95520815939781,
,,,C,G,y,b,L,D,d,L,c ,,,,,5,19,119,5,3,0,3,0,,,,,1,25,61,12,,,,,,up,0.6671665367193782,2725.6381230604,None,001,89,2019_Nov_01_1156,ACPT_experiment_5_30_19,3.1.0,59.95520815939781,
,,,C,G,y,b,L,G,d,R,i,,,,,5,19,119,5,3,0,3,0,,,,,1,26,62,17,,,,,,up,0.5470815105145448,2727.6096135636235,None,001,89,2019_Nov_01_1156,ACPT_experiment_5_30_19,3.1.0,59.95520815939781,
,,,C,G,y,b,R,U,g,R,u,,,,,5,19,119,5,3,0,3,0,,,,,1,27,63,11,,,,,,up,3.836221018631477,2729.441015786657,None,001,89,2019_Nov_01_1156,ACPT_experiment_5_30_19,3.1.0,59.95520815939781,
,,,C,G,y,b,R,G,d,L,i,,,,,5,19,119,5,3,0,3,0,,,,,1,28,64,4,,,,,,up,0.6171348571515409,2734.5615378973034,None,001,89,2019_Nov_01_1156,ACPT_experiment_5_30_19,3.1.0,59.95520815939781,
,,,C,G,y,b,R,G,d,R,i,,,,,5,19,119,5,3,0,3,0,,,,,1,29,65,5,,,,,,up,2.4351966472495405,2736.4462777037734,None,001,89,2019_Nov_01_1156,ACPT_experiment_5_30_19,3.1.0,59.95520815939781,
,,,C,G,y,b,L,D,g,R,i,,,,,5,19,119,5,3,0,3,0,,,,,1,30,66,15,,,,,,up,0.5003982962152804,2740.165778763432,None,001,89,2019_Nov_01_1156,ACPT_experiment_5_30_19,3.1.0,59.95520815939781,
,,,C,G,y,b,R,D,y,L,y,,,,,5,19,119,5,3,0,3,0,,,,,1,31,67,26,,,,,,down,0.8506414848070563,2741.950463360823,None,001,89,2019_Nov_01_1156,ACPT_experiment_5_30_19,3.1.0,59.95520815939781,
,,,C,G,y,b,R,D,y,R,y,,,,,5,19,119,5,3,0,3,0,,,,,1,32,68,27,,,,,,down,0.7840730413972778,2744.0685863367034,None,001,89,2019_Nov_01_1156,ACPT_experiment_5_30_19,3.1.0,59.95520815939781,
,,,C,G,y,b,R,G,y,L,y,,,,,5,19,119,5,3,0,3,0,,,,,1,33,69,28,,,,,,down,0.9840750940038561,2746.136966205344,None,001,89,2019_Nov_01_1156,ACPT_experiment_5_30_19,3.1.0,59.95520815939781,
,,,C,G,y,b,R,G,g,L,c ,,,,,5,19,119,5,3,0,3,0,,,,,1,34,70,6,,,,,,up,0.7005461442531669,2748.388645946812,None,001,89,2019_Nov_01_1156,ACPT_experiment_5_30_19,3.1.0,59.95520815939781,
,,,C,G,y,b,L,U,g,L,u,,,,,5,19,119,5,3,0,3,0,,,,,1,35,71,22,,,,,,up,0.5170684794811677,2750.3734992201607,None,001,89,2019_Nov_01_1156,ACPT_experiment_5_30_19,3.1.0,59.95520815939781,
,,,C,G,y,b,,,,,,,,,,5,19,119,5,4,0,4,0,0,0,0,0,,,,,,,,,,,,,,001,89,2019_Nov_01_1156,ACPT_experiment_5_30_19,3.1.0,59.95520815939781,
,,,C,G,y,b,R,D,y,R,y,,,,,5,19,119,5,4,0,4,0,,,,,0,0,0,27,,,,,,down,0.9838010106668662,2871.4153787315554,None,001,89,2019_Nov_01_1156,ACPT_experiment_5_30_19,3.1.0,59.95520815939781,
,,,C,G,y,b,R,U,d,R,u,,,,,5,19,119,5,4,0,4,0,,,,,0,1,1,9,,,,,,up,0.5003750534651772,2873.6834838527793,None,001,89,2019_Nov_01_1156,ACPT_experiment_5_30_19,3.1.0,59.95520815939781,
,,,C,G,y,b,R,D,g,L,i,,,,,5,19,119,5,4,0,4,0,,,,,0,2,2,2,,,,,,up,0.783926340403923,2875.4681708650023,None,001,89,2019_Nov_01_1156,ACPT_experiment_5_30_19,3.1.0,59.95520815939781,
,,,C,G,y,b,L,U,y,L,u,,,,,5,19,119,5,4,0,4,0,,,,,0,3,3,24,,,,,,down,0.7505726923045586,2877.536399202985,None,001,89,2019_Nov_01_1156,ACPT_experiment_5_30_19,3.1.0,59.95520815939781,
,,,C,G,y,b,R,U,g,R,u,,,,,5,19,119,5,4,0,4,0,,,,,0,4,4,11,,,,,,up,0.5337317201046972,2879.571277816969,None,001,89,2019_Nov_01_1156,ACPT_experiment_5_30_19,3.1.0,59.95520815939781,
,,,C,G,y,b,R,D,d,R,c ,,,,,5,19,119,5,4,0,4,0,,,,,0,5,5,1,,,,,,up,0.5170506700997066,2881.3893181754374,None,001,89,2019_Nov_01_1156,ACPT_experiment_5_30_19,3.1.0,59.95520815939781,
,,,C,G,y,b,L,G,g,R,c ,,,,,5,19,119,5,4,0,4,0,,,,,0,6,6,19,,,,,,up,0.46699544593138853,2883.1906774839026,None,001,89,2019_Nov_01_1156,ACPT_experiment_5_30_19,3.1.0,59.95520815939781,
,,,C,G,y,b,R,G,g,L,c ,,,,,5,19,119,5,4,0,4,0,,,,,0,7,7,6,,,,,,up,0.5170805536363332,2884.9420014905554,None,001,89,2019_Nov_01_1156,ACPT_experiment_5_30_19,3.1.0,59.95520815939781,
,,,C,G,y,b,L,G,y,R,y,,,,,5,19,119,5,4,0,4,0,,,,,0,8,8,35,,,,,,down,0.4502980958150147,2886.760066902898,None,001,89,2019_Nov_01_1156,ACPT_experiment_5_30_19,3.1.0,59.95520815939781,
,,,C,G,y,b,L,G,d,L,i,,,,,5,19,119,5,4,0,4,0,,,,,0,9,9,16,,,,,,up,0.43367349248910614,2888.5113776279777,None,001,89,2019_Nov_01_1156,ACPT_experiment_5_30_19,3.1.0,59.95520815939781,
,,,C,G,y,b,R,D,g,R,i,,,,,5,19,119,5,4,0,4,0,,,,,0,10,10,3,,,,,,up,0.43034525143048086,2890.24934701456,None,001,89,2019_Nov_01_1156,ACPT_experiment_5_30_19,3.1.0,59.95520815939781,
,,,C,G,y,b,L,D,d,R,c ,,,,,5,19,119,5,4,0,4,0,,,,,0,11,11,13,,,,,,up,0.40030294057032734,2891.9639843023906,None,001,89,2019_Nov_01_1156,ACPT_experiment_5_30_19,3.1.0,59.95520815939781,
,,,C,G,y,b,L,G,y,L,y,,,,,5,19,119,5,4,0,4,0,,,,,0,12,12,34,,,,,,down,0.7338868126371381,2893.64859165537,None,001,89,2019_Nov_01_1156,ACPT_experiment_5_30_19,3.1.0,59.95520815939781,
,,,C,G,y,b,L,G,d,R,i,,,,,5,19,119,5,4,0,4,0,,,,,0,13,13,17,,,,,,up,0.5503578327006835,2895.666833893725,None,001,89,2019_Nov_01_1156,ACPT_experiment_5_30_19,3.1.0,59.95520815939781,
,,,C,G,y,b,L,U,d,R,u,,,,,5,19,119,5,4,0,4,0,,,,,0,14,14,21,,,,,,up,0.38360347747766355,2897.51819952603,None,001,89,2019_Nov_01_1156,ACPT_experiment_5_30_19,3.1.0,59.95520815939781,
,,,C,G,y,b,R,U,d,L,u,,,,,5,19,119,5,4,0,4,0,,,,,0,15,15,8,,,,,,up,0.7338892274692626,2899.1861158678257,None,001,89,2019_Nov_01_1156,ACPT_experiment_5_30_19,3.1.0,59.95520815939781,
,,,C,G,y,b,R,U,y,L,u,,,,,5,19,119,5,4,0,4,0,,,,,0,16,16,30,,,,,,down,0.6505060127783509,2901.1876187983744,None,001,89,2019_Nov_01_1156,ACPT_experiment_5_30_19,3.1.0,59.95520815939781,
,,,C,G,y,b,L,U,y,R,u,,,,,5,19,119,5,4,0,4,0,,,,,0,17,17,25,,,,,,down,0.6171728907429497,2903.1224020567115,None,001,89,2019_Nov_01_1156,ACPT_experiment_5_30_19,3.1.0,59.95520815939781,
,,,C,G,y,b,L,U,d,L,u,,,,,5,19,119,5,4,0,4,0,,,,,0,18,18,20,,,,,,up,0.500396485093006,2905.0071645022235,None,001,89,2019_Nov_01_1156,ACPT_experiment_5_30_19,3.1.0,59.95520815939781,
,,,C,G,y,b,L,D,y,L,y,,,,,5,19,119,5,4,0,4,0,,,,,0,19,19,32,,,,,,down,0.6171505535548931,2906.7918641923097,None,001,89,2019_Nov_01_1156,ACPT_experiment_5_30_19,3.1.0,59.95520815939781,
,,,C,G,y,b,L,D,y,R,y,,,,,5,19,119,5,4,0,4,0,,,,,0,20,20,33,,,,,,down,0.5837833220284665,2908.676616374789,None,001,89,2019_Nov_01_1156,ACPT_experiment_5_30_19,3.1.0,59.95520815939781,
,,,C,G,y,b,R,D,y,L,y,,,,,5,19,119,5,4,0,4,0,,,,,0,21,21,26,,,,,,down,0.6168785831941932,2910.561643848021,None,001,89,2019_Nov_01_1156,ACPT_experiment_5_30_19,3.1.0,59.95520815939781,
,,,C,G,y,b,R,G,g,R,c ,,,,,5,19,119,5,4,0,4,0,,,,,0,22,22,7,,,,,,up,1.3009878772463708,2912.4628621605316,None,001,89,2019_Nov_01_1156,ACPT_experiment_5_30_19,3.1.0,59.95520815939781,
,,,C,G,y,b,L,U,g,L,u,,,,,5,19,119,5,4,0,4,0,,,,,0,23,23,22,,,,,,up,1.2676529440850572,2915.031416349795,None,001,89,2019_Nov_01_1156,ACPT_experiment_5_30_19,3.1.0,59.95520815939781,
,,,C,G,y,b,L,D,g,L,i,,,,,5,19,119,5,4,0,4,0,,,,,0,24,24,14,,,,,,up,0.5337603962270805,2917.5833661599445,None,001,89,2019_Nov_01_1156,ACPT_experiment_5_30_19,3.1.0,59.95520815939781,
,,,C,G,y,b,L,D,g,R,i,,,,,5,19,119,5,4,0,4,0,,,,,0,25,25,15,,,,,,up,0.4503629944010754,2919.3847100738603,None,001,89,2019_Nov_01_1156,ACPT_experiment_5_30_19,3.1.0,59.95520815939781,
,,,C,G,y,b,R,U,g,L,u,,,,,5,19,119,5,4,0,4,0,,,,,0,26,26,10,,,,,,up,0.4836952108762489,2921.1193798955046,None,001,89,2019_Nov_01_1156,ACPT_experiment_5_30_19,3.1.0,59.95520815939781,
,,,C,G,y,b,R,G,d,L,i,,,,,5,19,119,5,4,0,4,0,,,,,0,27,27,4,,,,,,up,0.46700389784018626,2922.8873952151935,None,001,89,2019_Nov_01_1156,ACPT_experiment_5_30_19,3.1.0,59.95520815939781,
,,,C,G,y,b,L,D,d,L,c ,,,,,5,19,119,5,4,0,4,0,,,,,0,28,28,12,,,,,,up,0.3836185701729846,2924.622032436617,None,001,89,2019_Nov_01_1156,ACPT_experiment_5_30_19,3.1.0,59.95520815939781,
,,,C,G,y,b,R,G,d,R,i,,,,,5,19,119,5,4,0,4,0,,,,,0,29,29,5,,,,,,up,0.3833511276206991,2926.290229200682,None,001,89,2019_Nov_01_1156,ACPT_experiment_5_30_19,3.1.0,59.95520815939781,
,,,C,G,y,b,L,G,g,L,c ,,,,,5,19,119,5,4,0,4,0,,,,,0,30,30,18,,,,,,up,0.3669381238760252,2927.9578892685204,None,001,89,2019_Nov_01_1156,ACPT_experiment_5_30_19,3.1.0,59.95520815939781,
,,,C,G,y,b,R,G,y,R,y,,,,,5,19,119,5,4,0,4,0,,,,,0,31,31,29,,,,,,down,0.6671650274493004,2929.60913754003,None,001,89,2019_Nov_01_1156,ACPT_experiment_5_30_19,3.1.0,59.95520815939781,
,,,C,G,y,b,L,U,g,R,u,,,,,5,19,119,5,4,0,4,0,,,,,0,32,32,23,,,,,,down,0.383625210957689,2931.5606078854507,None,001,89,2019_Nov_01_1156,ACPT_experiment_5_30_19,3.1.0,59.95520815939781,
,,,C,G,y,b,R,U,y,R,u,,,,,5,19,119,5,4,0,4,0,,,,,0,33,33,31,,,,,,down,0.8503670996160508,2933.245495056992,None,001,89,2019_Nov_01_1156,ACPT_experiment_5_30_19,3.1.0,59.95520815939781,
,,,C,G,y,b,R,D,d,L,c,,,,,5,19,119,5,4,0,4,0,,,,,0,34,34,0,,,,,,up,0.733923336958469,2935.3801707949715,None,001,89,2019_Nov_01_1156,ACPT_experiment_5_30_19,3.1.0,59.95520815939781,
,,,C,G,y,b,R,G,y,L,y,,,,,5,19,119,5,4,0,4,0,,,,,0,35,35,28,,,,,,down,0.6504860904224188,2937.398363529288,None,001,89,2019_Nov_01_1156,ACPT_experiment_5_30_19,3.1.0,59.95520815939781,
,,,C,G,y,b,R,U,g,R,u,,,,,5,19,119,5,4,0,4,0,,,,,1,0,36,11,,,,,,up,0.43364119412217406,2939.333170634083,None,001,89,2019_Nov_01_1156,ACPT_experiment_5_30_19,3.1.0,59.95520815939781,
,,,C,G,y,b,L,D,y,R,y,,,,,5,19,119,5,4,0,4,0,,,,,1,1,37,33,,,,,,down,0.5837658145028399,2941.0511262017935,None,001,89,2019_Nov_01_1156,ACPT_experiment_5_30_19,3.1.0,59.95520815939781,
,,,C,G,y,b,R,D,y,L,y,,,,,5,19,119,5,4,0,4,0,,,,,1,2,38,26,,,,,,down,0.7505681644961442,2942.919204276908,None,001,89,2019_Nov_01_1156,ACPT_experiment_5_30_19,3.1.0,59.95520815939781,
,,,C,G,y,b,R,G,g,R,c ,,,,,5,19,119,5,4,0,4,0,,,,,1,3,39,7,,,,,,up,0.6671683478416526,2944.954078061228,None,001,89,2019_Nov_01_1156,ACPT_experiment_5_30_19,3.1.0,59.95520815939781,
,,,C,G,y,b,L,G,g,L,c ,,,,,5,19,119,5,4,0,4,0,,,,,1,4,40,18,,,,,,up,0.5003795812735916,2946.905556858559,None,001,89,2019_Nov_01_1156,ACPT_experiment_5_30_19,3.1.0,59.95520815939781,
,,,C,G,y,b,R,G,d,L,i,,,,,5,19,119,5,4,0,4,0,,,,,1,5,41,4,,,,,,up,1.6345726548752282,2948.6902375318496,None,001,89,2019_Nov_01_1156,ACPT_experiment_5_30_19,3.1.0,59.95520815939781,
,,,C,G,y,b,R,G,y,R,y,,,,,5,19,119,5,4,0,4,0,,,,,1,6,42,29,,,,,,down,0.48371120913179766,2951.592421776826,None,001,89,2019_Nov_01_1156,ACPT_experiment_5_30_19,3.1.0,59.95520815939781,
,,,C,G,y,b,R,D,d,L,c,,,,,5,19,119,5,4,0,4,0,,,,,1,7,43,0,,,,,,up,0.46701114233292174,2953.360440718763,None,001,89,2019_Nov_01_1156,ACPT_experiment_5_30_19,3.1.0,59.95520815939781,
,,,C,G,y,b,L,G,g,R,c ,,,,,5,19,119,5,4,0,4,0,,,,,1,8,44,19,,,,,,up,0.5337296071265882,2955.1117680458065,None,001,89,2019_Nov_01_1156,ACPT_experiment_5_30_19,3.1.0,59.95520815939781,
,,,C,G,y,b,L,D,y,L,y,,,,,5,19,119,5,4,0,4,0,,,,,1,9,45,32,,,,,,down,0.6171312349051732,2956.9298062912985,None,001,89,2019_Nov_01_1156,ACPT_experiment_5_30_19,3.1.0,59.95520815939781,
,,,C,G,y,b,R,U,g,L,u,,,,,5,19,119,5,4,0,4,0,,,,,1,10,46,10,,,,,,up,0.933789253458599,2958.8481735273526,None,001,89,2019_Nov_01_1156,ACPT_experiment_5_30_19,3.1.0,59.95520815939781,
,,,C,G,y,b,R,U,d,R,u,,,,,5,19,119,5,4,0,4,0,,,,,1,11,47,9,,,,,,up,3.1190653637440846,2961.0495746727684,None,001,89,2019_Nov_01_1156,ACPT_experiment_5_30_19,3.1.0,59.95520815939781,
,,,C,G,y,b,R,D,g,R,i,,,,,5,19,119,5,4,0,4,0,,,,,1,12,48,3,,,,,,up,0.45033733682248567,2965.4529218098796,None,001,89,2019_Nov_01_1156,ACPT_experiment_5_30_19,3.1.0,59.95520815939781,
,,,C,G,y,b,L,U,d,R,u,,,,,5,19,119,5,4,0,4,0,,,,,1,13,49,21,,,,,,down,0.5337365497671271,2967.187569294336,None,001,89,2019_Nov_01_1156,ACPT_experiment_5_30_19,3.1.0,59.95520815939781,
,,,C,G,y,b,R,U,y,L,u,,,,,5,19,119,5,4,0,4,0,,,,,1,14,50,30,,,,,,down,0.583771247873301,2969.0056123694903,None,001,89,2019_Nov_01_1156,ACPT_experiment_5_30_19,3.1.0,59.95520815939781,
,,,C,G,y,b,R,D,d,R,c ,,,,,5,19,119,5,4,0,4,0,,,,,1,15,51,1,,,,,,up,0.38333905346371466,2970.8906473890693,None,001,89,2019_Nov_01_1156,ACPT_experiment_5_30_19,3.1.0,59.95520815939781,
,,,C,G,y,b,L,G,y,L,y,,,,,5,19,119,5,4,0,4,0,,,,,1,16,52,34,,,,,,down,0.7672646090504713,2972.5749519825913,None,001,89,2019_Nov_01_1156,ACPT_experiment_5_30_19,3.1.0,59.95520815939781,
,,,C,G,y,b,R,G,y,L,y,,,,,5,19,119,5,4,0,4,0,,,,,1,17,53,28,,,,,,down,0.6171095014233288,2974.643225296806,None,001,89,2019_Nov_01_1156,ACPT_experiment_5_30_19,3.1.0,59.95520815939781,
,,,C,G,y,b,L,G,d,L,i,,,,,5,19,119,5,4,0,4,0,,,,,1,18,54,16,,,,,,up,0.5504172979181021,2976.5446458514252,None,001,89,2019_Nov_01_1156,ACPT_experiment_5_30_19,3.1.0,59.95520815939781,
,,,C,G,y,b,L,G,y,R,y,,,,,5,19,119,5,4,0,4,0,,,,,1,19,55,35,,,,,,down,0.6004453552377527,2978.379371485855,None,001,89,2019_Nov_01_1156,ACPT_experiment_5_30_19,3.1.0,59.95520815939781,
,,,C,G,y,b,L,U,g,R,u,,,,,5,19,119,5,4,0,4,0,,,,,1,20,56,23,,,,,,up,0.617123084850391,2980.2808080387313,None,001,89,2019_Nov_01_1156,ACPT_experiment_5_30_19,3.1.0,59.95520815939781,
,,,C,G,y,b,R,G,g,L,c ,,,,,5,19,119,5,4,0,4,0,,,,,1,21,57,6,,,,,,up,0.6838608682937775,2982.1655526748636,None,001,89,2019_Nov_01_1156,ACPT_experiment_5_30_19,3.1.0,59.95520815939781,
,,,C,G,y,b,R,U,d,L,u,,,,,5,19,119,5,4,0,4,0,,,,,1,22,58,8,,,,,,up,0.5168055647354777,2984.1506749000328,None,001,89,2019_Nov_01_1156,ACPT_experiment_5_30_19,3.1.0,59.95520815939781,
,,,C,G,y,b,L,U,y,R,u,,,,,5,19,119,5,4,0,4,0,,,,,1,23,59,25,,,,,,down,0.6171270089507743,2985.9517676715077,None,001,89,2019_Nov_01_1156,ACPT_experiment_5_30_19,3.1.0,59.95520815939781,
,,,C,G,y,b,L,D,g,L,i,,,,,5,19,119,5,4,0,4,0,,,,,1,24,60,14,,,,,,up,0.7172600963331206,2987.853203620678,None,001,89,2019_Nov_01_1156,ACPT_experiment_5_30_19,3.1.0,59.95520815939781,
,,,C,G,y,b,L,G,d,R,i,,,,,5,19,119,5,4,0,4,0,,,,,1,25,61,17,,,,,,up,0.5337356442050805,2989.8547125883033,None,001,89,2019_Nov_01_1156,ACPT_experiment_5_30_19,3.1.0,59.95520815939781,
,,,C,G,y,b,L,D,g,R,i,,,,,5,19,119,5,4,0,4,0,,,,,1,26,62,15,,,,,,up,0.5837878498368809,2991.6727402689103,None,001,89,2019_Nov_01_1156,ACPT_experiment_5_30_19,3.1.0,59.95520815939781,
,,,C,G,y,b,L,U,y,L,u,,,,,5,19,119,5,4,0,4,0,,,,,1,27,63,24,,,,,,down,1.0007516162022512,2993.5408415867732,None,001,89,2019_Nov_01_1156,ACPT_experiment_5_30_19,3.1.0,59.95520815939781,
,,,C,G,y,b,R,D,y,R,y,,,,,5,19,119,5,4,0,4,0,,,,,1,28,64,27,,,,,,down,0.550446275892682,2995.825901841339,None,001,89,2019_Nov_01_1156,ACPT_experiment_5_30_19,3.1.0,59.95520815939781,
,,,C,G,y,b,L,D,d,L,c ,,,,,5,19,119,5,4,0,4,0,,,,,1,29,65,12,,,,,,up,0.6838433607681509,2997.6606262683526,None,001,89,2019_Nov_01_1156,ACPT_experiment_5_30_19,3.1.0,59.95520815939781,
,,,C,G,y,b,L,U,g,L,u,,,,,5,19,119,5,4,0,4,0,,,,,1,30,66,22,,,,,,up,0.7339000942101848,2999.628763476645,None,001,89,2019_Nov_01_1156,ACPT_experiment_5_30_19,3.1.0,59.95520815939781,
,,,C,G,y,b,R,U,y,R,u,,,,,5,19,119,5,4,0,4,0,,,,,1,31,67,31,,,,,,down,1.0341049624476,3001.646983377812,None,001,89,2019_Nov_01_1156,ACPT_experiment_5_30_19,3.1.0,59.95520815939781,
,,,C,G,y,b,R,G,d,R,i,,,,,5,19,119,5,4,0,4,0,,,,,1,32,68,5,,,,,,up,0.8673180070036324,3003.965393960085,None,001,89,2019_Nov_01_1156,ACPT_experiment_5_30_19,3.1.0,59.95520815939781,
,,,C,G,y,b,R,D,g,L,i,,,,,5,19,119,5,4,0,4,0,,,,,1,33,69,2,,,,,,up,1.1842313939523592,3006.1170257369686,None,001,89,2019_Nov_01_1156,ACPT_experiment_5_30_19,3.1.0,59.95520815939781,
,,,C,G,y,b,L,D,d,R,c ,,,,,5,19,119,5,4,0,4,0,,,,,1,34,70,13,,,,,,up,1.0007651996256755,3008.5855552043995,None,001,89,2019_Nov_01_1156,ACPT_experiment_5_30_19,3.1.0,59.95520815939781,
,,,C,G,y,b,L,U,d,L,u,,,,,5,19,119,5,4,0,4,0,,,,,1,35,71,20,,,,,,up,0.6505241240138275,3010.8706166663796,None,001,89,2019_Nov_01_1156,ACPT_experiment_5_30_19,3.1.0,59.95520815939781,
,,,C,G,y,b,,,,,,,,,,5,19,119,5,5,0,5,0,0,0,0,0,,,,,,,,,,,,,,001,89,2019_Nov_01_1156,ACPT_experiment_5_30_19,3.1.0,59.95520815939781,
,,,C,G,y,b,R,G,d,R,i,,,,,5,19,119,5,5,0,5,0,,,,,0,0,0,5,,,,,,up,0.5170705924592767,3021.9790356432095,None,001,89,2019_Nov_01_1156,ACPT_experiment_5_30_19,3.1.0,59.95520815939781,
,,,C,G,y,b,L,U,y,R,u,,,,,5,19,119,5,5,0,5,0,,,,,0,1,1,25,,,,,,down,0.6171475350147375,3023.780367181116,None,001,89,2019_Nov_01_1156,ACPT_experiment_5_30_19,3.1.0,59.95520815939781,
,,,C,G,y,b,R,D,g,L,i,,,,,5,19,119,5,5,0,5,0,,,,,0,2,2,2,,,,,,up,0.5337274941521173,3025.6818369379216,None,001,89,2019_Nov_01_1156,ACPT_experiment_5_30_19,3.1.0,59.95520815939781,
,,,C,G,y,b,R,G,y,L,y,,,,,5,19,119,5,5,0,5,0,,,,,0,3,3,28,,,,,,down,0.6671614052029327,3027.5165577426887,None,001,89,2019_Nov_01_1156,ACPT_experiment_5_30_19,3.1.0,59.95520815939781,
,,,C,G,y,b,R,U,g,R,u,,,,,5,19,119,5,5,0,5,0,,,,,0,4,4,11,,,,,,up,0.6171297256369144,3029.484705515866,None,001,89,2019_Nov_01_1156,ACPT_experiment_5_30_19,3.1.0,59.95520815939781,
,,,C,G,y,b,R,U,y,R,u,,,,,5,19,119,5,5,0,5,0,,,,,0,5,5,31,,,,,,down,0.5504351072995632,3031.3861381446422,None,001,89,2019_Nov_01_1156,ACPT_experiment_5_30_19,3.1.0,59.95520815939781,
,,,C,G,y,b,L,U,g,R,u,,,,,5,19,119,5,5,0,5,0,,,,,0,6,6,23,,,,,,up,0.6004190939493128,3033.2208846069916,None,001,89,2019_Nov_01_1156,ACPT_experiment_5_30_19,3.1.0,59.95520815939781,
,,,C,G,y,b,L,D,d,R,c ,,,,,5,19,119,5,5,0,5,0,,,,,0,7,7,13,,,,,,up,0.4166936071269447,3035.122583470904,None,001,89,2019_Nov_01_1156,ACPT_experiment_5_30_19,3.1.0,59.95520815939781,
,,,C,G,y,b,L,D,g,L,i,,,,,5,19,119,5,5,0,5,0,,,,,0,8,8,14,,,,,,up,0.48371513323399995,3036.806889875548,None,001,89,2019_Nov_01_1156,ACPT_experiment_5_30_19,3.1.0,59.95520815939781,
,,,C,G,y,b,L,D,d,L,c ,,,,,5,19,119,5,5,0,5,0,,,,,0,9,9,12,,,,,,up,0.36694416095451743,3038.5582301823106,None,001,89,2019_Nov_01_1156,ACPT_experiment_5_30_19,3.1.0,59.95520815939781,
,,,C,G,y,b,R,G,g,L,c ,,,,,5,19,119,5,5,0,5,0,,,,,0,10,10,6,,,,,,up,0.6171116144032567,3040.2095044132548,None,001,89,2019_Nov_01_1156,ACPT_experiment_5_30_19,3.1.0,59.95520815939781,
,,,C,G,y,b,L,U,g,L,u,,,,,5,19,119,5,5,0,5,0,,,,,0,11,11,22,,,,,,up,0.4832427318870032,3042.128028009627,None,001,89,2019_Nov_01_1156,ACPT_experiment_5_30_19,3.1.0,59.95520815939781,
,,,C,G,y,b,R,U,g,L,u,,,,,5,19,119,5,5,0,5,0,,,,,0,12,12,10,,,,,,up,0.6004516941702605,3043.895606244874,None,001,89,2019_Nov_01_1156,ACPT_experiment_5_30_19,3.1.0,59.95520815939781,
,,,C,G,y,b,R,D,d,L,c,,,,,5,19,119,5,5,0,5,0,,,,,0,13,13,0,,,,,,up,0.6004682961356593,3045.78036748297,None,001,89,2019_Nov_01_1156,ACPT_experiment_5_30_19,3.1.0,59.95520815939781,
,,,C,G,y,b,L,G,y,L,y,,,,,5,19,119,5,5,0,5,0,,,,,0,14,14,34,,,,,,down,0.7505627311256831,3047.6651244951117,None,001,89,2019_Nov_01_1156,ACPT_experiment_5_30_19,3.1.0,59.95520815939781,
,,,C,G,y,b,L,G,y,R,y,,,,,5,19,119,5,5,0,5,0,,,,,0,15,15,35,,,,,,down,0.8673155921733269,3049.7166811405605,None,001,89,2019_Nov_01_1156,ACPT_experiment_5_30_19,3.1.0,59.95520815939781,
,,,C,G,y,b,R,D,y,R,y,,,,,5,19,119,5,5,0,5,0,,,,,0,16,16,27,,,,,,down,0.6171267070967588,3051.884983704418,None,001,89,2019_Nov_01_1156,ACPT_experiment_5_30_19,3.1.0,59.95520815939781,
,,,C,G,y,b,L,G,d,R,i,,,,,5,19,119,5,5,0,5,0,,,,,0,17,17,17,,,,,,up,0.6171267070967588,3053.786425690665,None,001,89,2019_Nov_01_1156,ACPT_experiment_5_30_19,3.1.0,59.95520815939781,
,,,C,G,y,b,R,D,g,R,i,,,,,5,19,119,5,5,0,5,0,,,,,0,18,18,3,,,,,,up,0.6004658813035348,3055.687864054664,None,001,89,2019_Nov_01_1156,ACPT_experiment_5_30_19,3.1.0,59.95520815939781,
,,,C,G,y,b,R,G,d,L,i,,,,,5,19,119,5,5,0,5,0,,,,,0,19,19,4,,,,,,up,0.6504918256450765,3057.5726207649514,None,001,89,2019_Nov_01_1156,ACPT_experiment_5_30_19,3.1.0,59.95520815939781,
,,,C,G,y,b,L,G,g,R,c ,,,,,5,19,119,5,5,0,5,0,,,,,0,20,20,19,,,,,,up,0.5170736109957943,3059.5074185122776,None,001,89,2019_Nov_01_1156,ACPT_experiment_5_30_19,3.1.0,59.95520815939781,
,,,C,G,y,b,R,U,d,L,u,,,,,5,19,119,5,5,0,5,0,,,,,0,21,21,8,,,,,,up,0.6137957493538124,3061.328793148883,None,001,89,2019_Nov_01_1156,ACPT_experiment_5_30_19,3.1.0,59.95520815939781,
,,,C,G,y,b,L,D,g,R,i,,,,,5,19,119,5,5,0,5,0,,,,,0,22,22,15,,,,,,up,3.00227386539882,3063.2268978384545,None,001,89,2019_Nov_01_1156,ACPT_experiment_5_30_19,3.1.0,59.95520815939781,
,,,C,G,y,b,R,D,d,R,c ,,,,,5,19,119,5,5,0,5,0,,,,,0,23,23,1,,,,,,up,0.5837709460192855,3067.5134746069944,None,001,89,2019_Nov_01_1156,ACPT_experiment_5_30_19,3.1.0,59.95520815939781,
,,,C,G,y,b,R,G,y,R,y,,,,,5,19,119,5,5,0,5,0,,,,,0,24,24,29,,,,,,down,0.7672501200613624,3069.381551776547,None,001,89,2019_Nov_01_1156,ACPT_experiment_5_30_19,3.1.0,59.95520815939781,
,,,C,G,y,b,R,U,y,L,u,,,,,5,19,119,5,5,0,5,0,,,,,0,25,25,30,,,,,,down,1.050793256945326,3071.433109629412,None,001,89,2019_Nov_01_1156,ACPT_experiment_5_30_19,3.1.0,59.95520815939781,
,,,C,G,y,b,R,G,g,R,c ,,,,,5,19,119,5,5,0,5,0,,,,,0,26,26,7,,,,,,up,0.6004658813035348,3073.7682103173065,None,001,89,2019_Nov_01_1156,ACPT_experiment_5_30_19,3.1.0,59.95520815939781,
,,,C,G,y,b,R,D,y,L,y,,,,,5,19,119,5,5,0,5,0,,,,,0,27,27,26,,,,,,down,1.7010722755949246,3075.6698294917896,None,001,89,2019_Nov_01_1156,ACPT_experiment_5_30_19,3.1.0,59.95520815939781,
,,,C,G,y,b,L,U,d,R,u,,,,,5,19,119,5,5,0,5,0,,,,,0,28,28,21,,,,,,up,3.2024325801776286,3078.6886183875504,None,001,89,2019_Nov_01_1156,ACPT_experiment_5_30_19,3.1.0,59.95520815939781,
,,,C,G,y,b,L,G,g,L,c ,,,,,5,19,119,5,5,0,5,0,,,,,0,29,29,18,,,,,,up,0.783943546075534,3083.175307687223,None,001,89,2019_Nov_01_1156,ACPT_experiment_5_30_19,3.1.0,59.95520815939781,
,,,C,G,y,b,R,U,d,R,u,,,,,5,19,119,5,5,0,5,0,,,,,0,30,30,9,,,,,,up,1.2676149104954675,3085.2435677198646,None,001,89,2019_Nov_01_1156,ACPT_experiment_5_30_19,3.1.0,59.95520815939781,
,,,C,G,y,b,L,U,y,L,u,,,,,5,19,119,5,5,0,5,0,,,,,0,31,31,24,,,,,,down,0.8673753592429421,3087.795509983667,None,001,89,2019_Nov_01_1156,ACPT_experiment_5_30_19,3.1.0,59.95520815939781,
,,,C,G,y,b,L,U,d,L,u,,,,,5,19,119,5,5,0,5,0,,,,,0,32,32,20,,,,,,up,0.6671698571117304,3089.9471151974085,None,001,89,2019_Nov_01_1156,ACPT_experiment_5_30_19,3.1.0,59.95520815939781,
,,,C,G,y,b,L,D,y,L,y,,,,,5,19,119,5,5,0,5,0,,,,,0,33,33,32,,,,,,down,0.917353610670034,3091.8985949003,None,001,89,2019_Nov_01_1156,ACPT_experiment_5_30_19,3.1.0,59.95520815939781,
,,,C,G,y,b,L,G,d,L,i,,,,,5,19,119,5,5,0,5,0,,,,,0,34,34,16,,,,,,up,0.6004532034385193,3094.1002559419194,None,001,89,2019_Nov_01_1156,ACPT_experiment_5_30_19,3.1.0,59.95520815939781,
,,,C,G,y,b,L,D,y,R,y,,,,,5,19,119,5,5,0,5,0,,,,,0,35,35,33,,,,,,down,0.9006864459461212,3095.985010539229,None,001,89,2019_Nov_01_1156,ACPT_experiment_5_30_19,3.1.0,59.95520815939781,
,,,C,G,y,b,R,G,g,R,c ,,,,,5,19,119,5,5,0,5,0,,,,,1,0,36,7,,,,,,up,0.5670980460690771,3098.1700056235386,None,001,89,2019_Nov_01_1156,ACPT_experiment_5_30_19,3.1.0,59.95520815939781,
,,,C,G,y,b,L,G,d,L,i,,,,,5,19,119,5,5,0,5,0,,,,,1,1,37,16,,,,,,up,1.0507845031825127,3100.021411402411,None,001,89,2019_Nov_01_1156,ACPT_experiment_5_30_19,3.1.0,59.95520815939781,
,,,C,G,y,b,L,D,d,R,c ,,,,,5,19,119,5,5,0,5,0,,,,,1,2,38,13,,,,,,up,1.351029216137249,3102.356498808733,None,001,89,2019_Nov_01_1156,ACPT_experiment_5_30_19,3.1.0,59.95520815939781,
,,,C,G,y,b,R,D,d,R,c ,,,,,5,19,119,5,5,0,5,0,,,,,1,3,39,1,,,,,,up,0.5337247774659772,3104.991838474358,None,001,89,2019_Nov_01_1156,ACPT_experiment_5_30_19,3.1.0,59.95520815939781,
,,,C,G,y,b,R,U,y,R,u,,,,,5,19,119,5,5,0,5,0,,,,,1,4,40,31,,,,,,down,0.6338328109759459,3106.809876417996,None,001,89,2019_Nov_01_1156,ACPT_experiment_5_30_19,3.1.0,59.95520815939781,
,,,C,G,y,b,L,D,y,R,y,,,,,5,19,119,5,5,0,5,0,,,,,1,5,41,33,,,,,,down,0.7505726923045586,3108.727991304193,None,001,89,2019_Nov_01_1156,ACPT_experiment_5_30_19,3.1.0,59.95520815939781,
,,,C,G,y,b,R,D,g,L,i,,,,,5,19,119,5,5,0,5,0,,,,,1,6,42,2,,,,,,up,3.269141989356285,3110.7628635792444,None,001,89,2019_Nov_01_1156,ACPT_experiment_5_30_19,3.1.0,59.95520815939781,
,,,C,G,y,b,L,G,y,L,y,,,,,5,19,119,5,5,0,5,0,,,,,1,7,43,34,,,,,,down,1.48446131606579,3115.316310584718,None,001,89,2019_Nov_01_1156,ACPT_experiment_5_30_19,3.1.0,59.95520815939781,
,,,C,G,y,b,L,U,d,R,u,,,,,5,19,119,5,5,0,5,0,,,,,1,8,44,21,,,,,,up,0.7172114978548052,3118.085074502069,None,001,89,2019_Nov_01_1156,ACPT_experiment_5_30_19,3.1.0,59.95520815939781,
,,,C,G,y,b,R,U,d,R,u,,,,,5,19,119,5,5,0,5,0,,,,,1,9,45,9,,,,,,up,0.6004441478216904,3120.086594638289,None,001,89,2019_Nov_01_1156,ACPT_experiment_5_30_19,3.1.0,59.95520815939781,
,,,C,G,y,b,R,D,y,L,y,,,,,5,19,119,5,5,0,5,0,,,,,1,10,46,26,,,,,,down,1.1673659112166206,3121.9881742699145,None,001,89,2019_Nov_01_1156,ACPT_experiment_5_30_19,3.1.0,59.95520815939781,
,,,C,G,y,b,R,U,g,R,u,,,,,5,19,119,5,5,0,5,0,,,,,1,11,47,11,,,,,,up,0.7505766164049419,3124.4565639789907,None,001,89,2019_Nov_01_1156,ACPT_experiment_5_30_19,3.1.0,59.95520815939781,
,,,C,G,y,b,R,U,g,L,u,,,,,5,19,119,5,5,0,5,0,,,,,1,12,48,10,,,,,,up,0.7172341368986963,3126.491434744772,None,001,89,2019_Nov_01_1156,ACPT_experiment_5_30_19,3.1.0,59.95520815939781,
,,,C,G,y,b,R,D,d,L,c,,,,,5,19,119,5,5,0,5,0,,,,,1,13,49,0,,,,,,up,2.1683158454270597,3128.4929452216675,None,001,89,2019_Nov_01_1156,ACPT_experiment_5_30_19,3.1.0,59.95520815939781,
,,,C,G,y,b,R,D,g,R,i,,,,,5,19,119,5,5,0,5,0,,,,,1,14,50,3,,,,,,up,0.4670434406998538,3131.928856055234,None,001,89,2019_Nov_01_1156,ACPT_experiment_5_30_19,3.1.0,59.95520815939781,
,,,C,G,y,b,R,G,d,R,i,,,,,5,19,119,5,5,0,5,0,,,,,1,15,51,5,,,,,,up,0.5337320219605317,3133.6802084361516,None,001,89,2019_Nov_01_1156,ACPT_experiment_5_30_19,3.1.0,59.95520815939781,
,,,C,G,y,b,L,U,y,L,u,,,,,5,19,119,5,5,0,5,0,,,,,1,16,52,24,,,,,,down,2.018192432462456,3135.4982475872057,None,001,89,2019_Nov_01_1156,ACPT_experiment_5_30_19,3.1.0,59.95520815939781,
,,,C,G,y,b,L,D,d,L,c ,,,,,5,19,119,5,5,0,5,0,,,,,1,17,53,12,,,,,,up,0.6669709353936923,3138.8009137721147,None,001,89,2019_Nov_01_1156,ACPT_experiment_5_30_19,3.1.0,59.95520815939781,
,,,C,G,y,b,R,G,d,L,i,,,,,5,19,119,5,5,0,5,0,,,,,1,18,54,4,,,,,,up,0.5337117977469461,3140.752239529518,None,001,89,2019_Nov_01_1156,ACPT_experiment_5_30_19,3.1.0,59.95520815939781,
,,,C,G,y,b,L,D,g,L,i,,,,,5,19,119,5,5,0,5,0,,,,,1,19,55,14,,,,,,up,0.7005244107731414,3142.570266002709,None,001,89,2019_Nov_01_1156,ACPT_experiment_5_30_19,3.1.0,59.95520815939781,
,,,C,G,y,b,R,G,y,L,y,,,,,5,19,119,5,5,0,5,0,,,,,1,20,56,28,,,,,,down,0.8673433627300255,3144.5550990518477,None,001,89,2019_Nov_01_1156,ACPT_experiment_5_30_19,3.1.0,59.95520815939781,
,,,C,G,y,b,L,G,g,L,c ,,,,,5,19,119,5,5,0,5,0,,,,,1,21,57,18,,,,,,up,0.5170576127402455,3146.7067275083373,None,001,89,2019_Nov_01_1156,ACPT_experiment_5_30_19,3.1.0,59.95520815939781,
,,,C,G,y,b,L,G,y,R,y,,,,,5,19,119,5,5,0,5,0,,,,,1,22,58,35,,,,,,down,0.6004429404074472,3148.5080976835434,None,001,89,2019_Nov_01_1156,ACPT_experiment_5_30_19,3.1.0,59.95520815939781,
,,,C,G,y,b,L,G,g,R,c ,,,,,5,19,119,5,5,0,5,0,,,,,1,23,59,19,,,,,,up,0.5137257494352525,3150.4128618737705,None,001,89,2019_Nov_01_1156,ACPT_experiment_5_30_19,3.1.0,59.95520815939781,
,,,C,G,y,b,L,G,d,R,i,,,,,5,19,119,5,5,0,5,0,,,,,1,24,60,17,,,,,,up,0.41699847956078884,3152.1941922706683,None,001,89,2019_Nov_01_1156,ACPT_experiment_5_30_19,3.1.0,59.95520815939781,
,,,C,G,y,b,L,D,g,R,i,,,,,5,19,119,5,5,0,5,0,,,,,1,25,61,15,,,,,,up,0.4336541738393862,3153.895503916403,None,001,89,2019_Nov_01_1156,ACPT_experiment_5_30_19,3.1.0,59.95520815939781,
,,,C,G,y,b,L,U,y,R,u,,,,,5,19,119,5,5,0,5,0,,,,,1,26,62,25,,,,,,down,0.6004489774841204,3155.6134712564162,None,001,89,2019_Nov_01_1156,ACPT_experiment_5_30_19,3.1.0,59.95520815939781,
,,,C,G,y,b,L,U,g,L,u,,,,,5,19,119,5,5,0,5,0,,,,,1,27,63,22,,,,,,up,0.7639251993969083,3157.518233031811,None,001,89,2019_Nov_01_1156,ACPT_experiment_5_30_19,3.1.0,59.95520815939781,
,,,C,G,y,b,R,U,y,L,u,,,,,5,19,119,5,5,0,5,0,,,,,1,28,64,30,,,,,,down,0.6838400403757987,3159.583142486208,None,001,89,2019_Nov_01_1156,ACPT_experiment_5_30_19,3.1.0,59.95520815939781,
,,,C,G,y,b,L,U,g,R,u,,,,,5,19,119,5,5,0,5,0,,,,,1,29,65,23,,,,,,up,0.5670901978683105,3161.5679728186606,None,001,89,2019_Nov_01_1156,ACPT_experiment_5_30_19,3.1.0,59.95520815939781,
,,,C,G,y,b,L,U,d,L,u,,,,,5,19,119,5,5,0,5,0,,,,,1,30,66,20,,,,,,up,0.6504869959826465,3163.419377993825,None,001,89,2019_Nov_01_1156,ACPT_experiment_5_30_19,3.1.0,59.95520815939781,
