facing_vig,person_vig,text_vig,facing_train,person_train,food_train,correct_key_train,facing_exp,person_exp,food_exp,showL_R,consistent,vig_random.thisRepN,vig_random.thisTrialN,vig_random.thisN,vig_random.thisIndex,trainTrials.thisRepN,trainTrials.thisTrialN,trainTrials.thisN,trainTrials.thisIndex,expBlock.thisRepN,expBlock.thisTrialN,expBlock.thisN,expBlock.thisIndex,breakLoop.thisRepN,breakLoop.thisTrialN,breakLoop.thisN,breakLoop.thisIndex,expTrials.thisRepN,expTrials.thisTrialN,expTrials.thisN,expTrials.thisIndex,train_resp.keys,train_resp.corr,train_resp.rt,train_resp.started,train_resp.stopped,exp_resp.keys,exp_resp.rt,exp_resp.started,exp_resp.stopped,session,participant,date,expName,psychopyVersion,frameRate,
C,U,"did not report her food preferences, so her food preferences are unknown.",,,,,,,,,,0,0,0,2,,,,,,,,,,,,,,,,,,,,,,,,,,001,8,2019_Jun_05_1708,ACPT_experiment_5_30_19,3.1.0,59.96222542376285,
C,D,"is allergic to gluten, meaning she can’t eat wheat products. She enjoys eating dairy products. She thinks eating insects, like crickets, is disgusting.",,,,,,,,,,0,1,1,1,,,,,,,,,,,,,,,,,,,,,,,,,,001,8,2019_Jun_05_1708,ACPT_experiment_5_30_19,3.1.0,59.96222542376285,
C,G,"cannot eat dairy products because she is lactose intolerant. She enjoys eating wheat products. She thinks eating insects, like crickets, is disgusting.",,,,,,,,,,0,2,2,0,,,,,,,,,,,,,,,,,,,,,,,,,,001,8,2019_Jun_05_1708,ACPT_experiment_5_30_19,3.1.0,59.96222542376285,
,,,C,G,g,v,,,,,,,,,,0,0,0,4,,,,,,,,,,,,,v,1,5.320728643481743,1384.2641780876302,None,,,,,001,8,2019_Jun_05_1708,ACPT_experiment_5_30_19,3.1.0,59.96222542376285,
,,,C,D,d,v,,,,,,,,,,0,1,1,18,,,,,,,,,,,,,v,1,5.587614678760474,1392.8707293830284,None,,,,,001,8,2019_Jun_05_1708,ACPT_experiment_5_30_19,3.1.0,59.96222542376285,
,,,C,G,y,b,,,,,,,,,,0,2,2,5,,,,,,,,,,,,,b,1,4.019744382540011,1401.744169430408,None,,,,,001,8,2019_Jun_05_1708,ACPT_experiment_5_30_19,3.1.0,59.96222542376285,
,,,C,U,g,n,,,,,,,,,,0,3,3,16,,,,,,,,,,,,,n,1,3.335867009614958,1409.0497594058997,None,,,,,001,8,2019_Jun_05_1708,ACPT_experiment_5_30_19,3.1.0,59.96222542376285,
,,,C,D,d,v,,,,,,,,,,0,4,4,0,,,,,,,,,,,,,v,1,3.619444760553961,1415.6714538971237,None,,,,,001,8,2019_Jun_05_1708,ACPT_experiment_5_30_19,3.1.0,59.96222542376285,
,,,C,D,g,b,,,,,,,,,,0,5,5,10,,,,,,,,,,,,,v,0,3.919657780134912,1422.5600661184772,None,,,,,001,8,2019_Jun_05_1708,ACPT_experiment_5_30_19,3.1.0,59.96222542376285,
,,,C,U,g,n,,,,,,,,,,0,6,6,7,,,,,,,,,,,,,n,1,3.2024543284751417,1429.765542022693,None,,,,,001,8,2019_Jun_05_1708,ACPT_experiment_5_30_19,3.1.0,59.96222542376285,
,,,C,G,g,v,,,,,,,,,,0,7,7,19,,,,,,,,,,,,,v,1,2.1683570083805535,1436.2538229272104,None,,,,,001,8,2019_Jun_05_1708,ACPT_experiment_5_30_19,3.1.0,59.96222542376285,
,,,C,D,y,b,,,,,,,,,,0,8,8,2,,,,,,,,,,,,,b,1,4.219863555177653,1441.7080101339006,None,,,,,001,8,2019_Jun_05_1708,ACPT_experiment_5_30_19,3.1.0,59.96222542376285,
,,,C,G,d,b,,,,,,,,,,0,9,9,12,,,,,,,,,,,,,b,1,6.9386481270912554,1449.2137069059463,None,,,,,001,8,2019_Jun_05_1708,ACPT_experiment_5_30_19,3.1.0,59.96222542376285,
,,,C,G,d,b,,,,,,,,,,0,10,10,3,,,,,,,,,,,,,b,1,1.3345047347575019,1459.4213516434993,None,,,,,001,8,2019_Jun_05_1708,ACPT_experiment_5_30_19,3.1.0,59.96222542376285,
,,,C,G,y,b,,,,,,,,,,0,11,11,14,,,,,,,,,,,,,b,1,2.034909010121737,1464.025000898021,None,,,,,001,8,2019_Jun_05_1708,ACPT_experiment_5_30_19,3.1.0,59.96222542376285,
,,,C,D,y,b,,,,,,,,,,0,12,12,11,,,,,,,,,,,,,b,1,2.0849361620439595,1469.34573678604,None,,,,,001,8,2019_Jun_05_1708,ACPT_experiment_5_30_19,3.1.0,59.96222542376285,
,,,C,U,d,n,,,,,,,,,,0,13,13,15,,,,,,,,,,,,,n,1,1.567876937046094,1474.7164989204139,None,,,,,001,8,2019_Jun_05_1708,ACPT_experiment_5_30_19,3.1.0,59.96222542376285,
,,,C,U,y,n,,,,,,,,,,0,14,14,8,,,,,,,,,,,,,n,1,1.434457011368977,1479.5535055862929,None,,,,,001,8,2019_Jun_05_1708,ACPT_experiment_5_30_19,3.1.0,59.96222542376285,
,,,C,U,d,n,,,,,,,,,,0,15,15,6,,,,,,,,,,,,,n,1,1.067462338216501,1484.257144547535,None,,,,,001,8,2019_Jun_05_1708,ACPT_experiment_5_30_19,3.1.0,59.96222542376285,
,,,C,D,g,b,,,,,,,,,,0,16,16,1,,,,,,,,,,,,,b,1,24.935732804563486,1488.6104382914846,None,,,,,001,8,2019_Jun_05_1708,ACPT_experiment_5_30_19,3.1.0,59.96222542376285,
,,,C,U,y,n,,,,,,,,,,0,17,17,17,,,,,,,,,,,,,n,1,1.9348501784425025,1516.8319671846612,None,,,,,001,8,2019_Jun_05_1708,ACPT_experiment_5_30_19,3.1.0,59.96222542376285,
,,,C,G,g,v,,,,,,,,,,0,18,18,13,,,,,,,,,,,,,v,1,2.1850082753744573,1522.0526249222348,None,,,,,001,8,2019_Jun_05_1708,ACPT_experiment_5_30_19,3.1.0,59.96222542376285,
,,,C,D,d,v,,,,,,,,,,0,19,19,9,,,,,,,,,,,,,v,1,3.102402741333208,1527.523461282929,None,,,,,001,8,2019_Jun_05_1708,ACPT_experiment_5_30_19,3.1.0,59.96222542376285,
,,,C,G,d,b,,,,,,,,,,1,0,20,3,,,,,,,,,,,,,b,1,1.3677215417219486,1533.9116700741151,None,,,,,001,8,2019_Jun_05_1708,ACPT_experiment_5_30_19,3.1.0,59.96222542376285,
,,,C,D,d,v,,,,,,,,,,1,1,21,9,,,,,,,,,,,,,v,1,2.968968628437324,1538.5652221160026,None,,,,,001,8,2019_Jun_05_1708,ACPT_experiment_5_30_19,3.1.0,59.96222542376285,
,,,C,U,g,n,,,,,,,,,,1,2,22,16,,,,,,,,,,,,,n,1,1.2843236364196855,1544.8199922664571,None,,,,,001,8,2019_Jun_05_1708,ACPT_experiment_5_30_19,3.1.0,59.96222542376285,
,,,C,U,d,n,,,,,,,,,,1,3,23,6,,,,,,,,,,,,,n,1,1.7677567380987966,1549.3904150546314,None,,,,,001,8,2019_Jun_05_1708,ACPT_experiment_5_30_19,3.1.0,59.96222542376285,
,,,C,U,g,n,,,,,,,,,,1,4,24,7,,,,,,,,,,,,,n,1,1.3176747691786659,1554.4273304997132,None,,,,,001,8,2019_Jun_05_1708,ACPT_experiment_5_30_19,3.1.0,59.96222542376285,
,,,C,G,d,b,,,,,,,,,,1,5,25,12,,,,,,,,,,,,,b,1,1.8843418685046345,1559.0479497808683,None,,,,,001,8,2019_Jun_05_1708,ACPT_experiment_5_30_19,3.1.0,59.96222542376285,
,,,C,D,d,v,,,,,,,,,,1,6,26,0,,,,,,,,,,,,,v,1,3.3192100073620168,1564.2181242625293,None,,,,,001,8,2019_Jun_05_1708,ACPT_experiment_5_30_19,3.1.0,59.96222542376285,
,,,C,U,d,n,,,,,,,,,,1,7,27,15,,,,,,,,,,,,,n,1,1.9181762722682834,1570.823168392326,None,,,,,001,8,2019_Jun_05_1708,ACPT_experiment_5_30_19,3.1.0,59.96222542376285,
,,,C,G,g,v,,,,,,,,,,1,8,28,4,,,,,,,,,,,,,v,1,1.9181554442238848,1576.0271347160942,None,,,,,001,8,2019_Jun_05_1708,ACPT_experiment_5_30_19,3.1.0,59.96222542376285,
,,,C,D,d,v,,,,,,,,,,1,9,29,18,,,,,,,,,,,,,v,1,1.4511266915615124,1581.23110194543,None,,,,,001,8,2019_Jun_05_1708,ACPT_experiment_5_30_19,3.1.0,59.96222542376285,
,,,C,G,g,v,,,,,,,,,,1,10,30,13,,,,,,,,,,,,,v,1,1.9181403514385238,1585.9680479684966,None,,,,,001,8,2019_Jun_05_1708,ACPT_experiment_5_30_19,3.1.0,59.96222542376285,
,,,C,U,y,n,,,,,,,,,,1,11,31,8,,,,,,,,,,,,,n,1,1.8347397294346592,1591.1720188201007,None,,,,,001,8,2019_Jun_05_1708,ACPT_experiment_5_30_19,3.1.0,59.96222542376285,
,,,C,G,g,v,,,,,,,,,,1,12,32,19,,,,,,,,,,,,,v,1,11.775660830085144,1596.2925908608358,None,,,,,001,8,2019_Jun_05_1708,ACPT_experiment_5_30_19,3.1.0,59.96222542376285,
,,,C,G,y,b,,,,,,,,,,1,13,33,14,,,,,,,,,,,,,b,1,3.4526468369585928,1611.33740073852,None,,,,,001,8,2019_Jun_05_1708,ACPT_experiment_5_30_19,3.1.0,59.96222542376285,
,,,C,U,y,n,,,,,,,,,,1,14,34,17,,,,,,,,,,,,,n,1,4.903766283983714,1618.0758762645119,None,,,,,001,8,2019_Jun_05_1708,ACPT_experiment_5_30_19,3.1.0,59.96222542376285,
,,,C,G,y,b,,,,,,,,,,1,15,35,5,,,,,,,,,,,,,b,1,4.937140055921191,1626.2654799913425,None,,,,,001,8,2019_Jun_05_1708,ACPT_experiment_5_30_19,3.1.0,59.96222542376285,
,,,C,D,y,b,,,,,,,,,,1,16,36,2,,,,,,,,,,,,,b,1,1.5011882550352311,1634.5217280273946,None,,,,,001,8,2019_Jun_05_1708,ACPT_experiment_5_30_19,3.1.0,59.96222542376285,
,,,C,D,g,b,,,,,,,,,,1,17,37,1,,,,,,,,,,,,,b,1,3.9864164926711965,1639.292055066936,None,,,,,001,8,2019_Jun_05_1708,ACPT_experiment_5_30_19,3.1.0,59.96222542376285,
,,,C,D,y,b,,,,,,,,,,1,18,38,11,,,,,,,,,,,,,b,1,1.8014070098743105,1646.5475680843128,None,,,,,001,8,2019_Jun_05_1708,ACPT_experiment_5_30_19,3.1.0,59.96222542376285,
,,,C,D,g,b,,,,,,,,,,1,19,39,10,,,,,,,,,,,,,b,1,1.200923014415821,1651.618126254777,None,,,,,001,8,2019_Jun_05_1708,ACPT_experiment_5_30_19,3.1.0,59.96222542376285,
,,,C,G,g,v,,,,,,,,,,2,0,40,19,,,,,,,,,,,,,v,1,1.5342405506326031,1656.121831382793,None,,,,,001,8,2019_Jun_05_1708,ACPT_experiment_5_30_19,3.1.0,59.96222542376285,
,,,C,U,y,n,,,,,,,,,,2,1,41,8,,,,,,,,,,,,,n,1,1.134213504361469,1660.9419015280246,None,,,,,001,8,2019_Jun_05_1708,ACPT_experiment_5_30_19,3.1.0,59.96222542376285,
,,,C,D,d,v,,,,,,,,,,2,2,42,9,,,,,,,,,,,,,v,1,2.0513366020277317,1665.3788585084521,None,,,,,001,8,2019_Jun_05_1708,ACPT_experiment_5_30_19,3.1.0,59.96222542376285,
,,,C,D,y,b,,,,,,,,,,2,3,43,11,,,,,,,,,,,,,b,1,4.219895551885202,1670.7160247050806,None,,,,,001,8,2019_Jun_05_1708,ACPT_experiment_5_30_19,3.1.0,59.96222542376285,
,,,C,G,d,b,,,,,,,,,,2,4,44,3,,,,,,,,,,,,,b,1,1.7680259934004425,1678.2217483422837,None,,,,,001,8,2019_Jun_05_1708,ACPT_experiment_5_30_19,3.1.0,59.96222542376285,
,,,C,G,y,b,,,,,,,,,,2,5,45,14,,,,,,,,,,,,,b,1,1.2509592220085324,1683.2589242888507,None,,,,,001,8,2019_Jun_05_1708,ACPT_experiment_5_30_19,3.1.0,59.96222542376285,
,,,C,D,g,b,,,,,,,,,,2,6,46,1,,,,,,,,,,,,,b,1,1.3007216464666271,1687.8126789061107,None,,,,,001,8,2019_Jun_05_1708,ACPT_experiment_5_30_19,3.1.0,59.96222542376285,
,,,C,U,d,n,,,,,,,,,,2,7,47,6,,,,,,,,,,,,,n,1,1.1842442785509775,1692.3992310527437,None,,,,,001,8,2019_Jun_05_1708,ACPT_experiment_5_30_19,3.1.0,59.96222542376285,
,,,C,D,d,v,,,,,,,,,,2,8,48,0,,,,,,,,,,,,,v,1,1.818073671511229,1696.869300398058,None,,,,,001,8,2019_Jun_05_1708,ACPT_experiment_5_30_19,3.1.0,59.96222542376285,
,,,C,G,y,b,,,,,,,,,,2,9,49,5,,,,,,,,,,,,,b,1,1.3844205019195215,1701.973194306639,None,,,,,001,8,2019_Jun_05_1708,ACPT_experiment_5_30_19,3.1.0,59.96222542376285,
,,,C,D,d,v,,,,,,,,,,2,10,50,18,,,,,,,,,,,,,v,1,1.851429633961743,1706.643421763979,None,,,,,001,8,2019_Jun_05_1708,ACPT_experiment_5_30_19,3.1.0,59.96222542376285,
,,,C,U,g,n,,,,,,,,,,2,11,51,16,,,,,,,,,,,,,n,1,0.9507323170655582,1711.7806779739813,None,,,,,001,8,2019_Jun_05_1708,ACPT_experiment_5_30_19,3.1.0,59.96222542376285,
,,,C,G,g,v,,,,,,,,,,2,12,52,13,,,,,,,,,,,,,v,1,1.4311058091825544,1716.0372517123533,None,,,,,001,8,2019_Jun_05_1708,ACPT_experiment_5_30_19,3.1.0,59.96222542376285,
,,,C,D,g,b,,,,,,,,,,2,13,53,10,,,,,,,,,,,,,b,1,2.0015530476721324,1720.7541822864432,None,,,,,001,8,2019_Jun_05_1708,ACPT_experiment_5_30_19,3.1.0,59.96222542376285,
,,,C,G,d,b,,,,,,,,,,2,14,54,12,,,,,,,,,,,,,b,1,1.4677586397901905,1726.0415763992305,None,,,,,001,8,2019_Jun_05_1708,ACPT_experiment_5_30_19,3.1.0,59.96222542376285,
,,,C,U,g,n,,,,,,,,,,2,15,55,7,,,,,,,,,,,,,n,1,1.2008707933764526,1730.7952298344544,None,,,,,001,8,2019_Jun_05_1708,ACPT_experiment_5_30_19,3.1.0,59.96222542376285,
,,,C,U,d,n,,,,,,,,,,2,16,56,15,,,,,,,,,,,,,n,1,0.6304981132507237,1735.3019363138765,None,,,,,001,8,2019_Jun_05_1708,ACPT_experiment_5_30_19,3.1.0,59.96222542376285,
,,,C,G,g,v,,,,,,,,,,2,17,57,4,,,,,,,,,,,,,v,1,0.9840931092076062,1739.2182631161604,None,,,,,001,8,2019_Jun_05_1708,ACPT_experiment_5_30_19,3.1.0,59.96222542376285,
,,,C,U,y,n,,,,,,,,,,2,18,58,17,,,,,,,,,,,,,n,1,1.8844930982195365,1743.505144979793,None,,,,,001,8,2019_Jun_05_1708,ACPT_experiment_5_30_19,3.1.0,59.96222542376285,
,,,C,D,y,b,,,,,,,,,,2,19,59,2,,,,,,,,,,,,,b,1,1.8847780500182125,1748.6754767282828,None,,,,,001,8,2019_Jun_05_1708,ACPT_experiment_5_30_19,3.1.0,59.96222542376285,
,,,C,D,g,b,,,,,,,,,,3,0,60,1,,,,,,,,,,,,,b,1,1.7847198220515565,1753.829382092289,None,,,,,001,8,2019_Jun_05_1708,ACPT_experiment_5_30_19,3.1.0,59.96222542376285,
,,,C,D,y,b,,,,,,,,,,3,1,61,11,,,,,,,,,,,,,b,1,1.1842557490690524,1758.8832576027644,None,,,,,001,8,2019_Jun_05_1708,ACPT_experiment_5_30_19,3.1.0,59.96222542376285,
,,,C,D,d,v,,,,,,,,,,3,2,62,18,,,,,,,,,,,,,v,1,1.5512057475734764,1763.336643684378,None,,,,,001,8,2019_Jun_05_1708,ACPT_experiment_5_30_19,3.1.0,59.96222542376285,
,,,C,U,g,n,,,,,,,,,,3,3,63,16,,,,,,,,,,,,,n,1,1.2509764277856448,1768.1736741968607,None,,,,,001,8,2019_Jun_05_1708,ACPT_experiment_5_30_19,3.1.0,59.96222542376285,
,,,C,D,d,v,,,,,,,,,,3,4,64,0,,,,,,,,,,,,,v,1,5.120382777200575,1772.7273141089472,None,,,,,001,8,2019_Jun_05_1708,ACPT_experiment_5_30_19,3.1.0,59.96222542376285,
,,,C,G,g,v,,,,,,,,,,3,5,65,13,,,,,,,,,,,,,v,1,1.301008107542657,1781.1335545533284,None,,,,,001,8,2019_Jun_05_1708,ACPT_experiment_5_30_19,3.1.0,59.96222542376285,
,,,C,G,y,b,,,,,,,,,,3,6,66,14,,,,,,,,,,,,,b,1,1.4675310405782511,1785.7206539643767,None,,,,,001,8,2019_Jun_05_1708,ACPT_experiment_5_30_19,3.1.0,59.96222542376285,
,,,C,U,g,n,,,,,,,,,,3,7,67,7,,,,,,,,,,,,,n,1,1.18423854329194,1790.4740227496577,None,,,,,001,8,2019_Jun_05_1708,ACPT_experiment_5_30_19,3.1.0,59.96222542376285,
,,,C,D,d,v,,,,,,,,,,3,8,68,9,,,,,,,,,,,,,v,1,1.0338805876890547,1794.9610183525265,None,,,,,001,8,2019_Jun_05_1708,ACPT_experiment_5_30_19,3.1.0,59.96222542376285,
,,,C,G,g,v,,,,,,,,,,3,9,69,4,,,,,,,,,,,,,v,1,1.0007712413607806,1799.2807309496593,None,,,,,001,8,2019_Jun_05_1708,ACPT_experiment_5_30_19,3.1.0,59.96222542376285,
,,,C,U,y,n,,,,,,,,,,3,10,70,17,,,,,,,,,,,,,n,1,1.1172606835043553,1803.5842815879178,None,,,,,001,8,2019_Jun_05_1708,ACPT_experiment_5_30_19,3.1.0,59.96222542376285,
,,,C,G,y,b,,,,,,,,,,3,11,71,5,,,,,,,,,,,,,b,1,1.084173674498743,1807.9873634140613,None,,,,,001,8,2019_Jun_05_1708,ACPT_experiment_5_30_19,3.1.0,59.96222542376285,
,,,C,G,d,b,,,,,,,,,,3,12,72,12,,,,,,,,,,,,,b,1,1.4677821845361905,1812.3406973048213,None,,,,,001,8,2019_Jun_05_1708,ACPT_experiment_5_30_19,3.1.0,59.96222542376285,
,,,C,U,y,n,,,,,,,,,,3,13,73,8,,,,,,,,,,,,,n,1,1.2009848948382569,1817.0943084802448,None,,,,,001,8,2019_Jun_05_1708,ACPT_experiment_5_30_19,3.1.0,59.96222542376285,
,,,C,G,g,v,,,,,,,,,,3,14,74,19,,,,,,,,,,,,,v,1,1.1008448639695416,1821.5810635041043,None,,,,,001,8,2019_Jun_05_1708,ACPT_experiment_5_30_19,3.1.0,59.96222542376285,
,,,C,U,d,n,,,,,,,,,,3,15,75,6,,,,,,,,,,,,,n,1,1.1008545233526092,1825.9677415849428,None,,,,,001,8,2019_Jun_05_1708,ACPT_experiment_5_30_19,3.1.0,59.96222542376285,
,,,C,U,d,n,,,,,,,,,,3,16,76,15,,,,,,,,,,,,,n,1,1.000539718024811,1830.3713685625125,None,,,,,001,8,2019_Jun_05_1708,ACPT_experiment_5_30_19,3.1.0,59.96222542376285,
,,,C,G,d,b,,,,,,,,,,3,17,77,3,,,,,,,,,,,,,b,1,1.2843224289972568,1834.6576989357482,None,,,,,001,8,2019_Jun_05_1708,ACPT_experiment_5_30_19,3.1.0,59.96222542376285,
,,,C,D,y,b,,,,,,,,,,3,18,78,2,,,,,,,,,,,,,b,1,1.0672072701345314,1839.2448158544294,None,,,,,001,8,2019_Jun_05_1708,ACPT_experiment_5_30_19,3.1.0,59.96222542376285,
,,,C,D,g,b,,,,,,,,,,3,19,79,10,,,,,,,,,,,,,b,1,1.2176313321397174,1843.581167946183,None,,,,,001,8,2019_Jun_05_1708,ACPT_experiment_5_30_19,3.1.0,59.96222542376285,
,,,C,D,y,b,,,,,,,,,,4,0,80,2,,,,,,,,,,,,,b,1,0.980768168468785,1848.104607797356,None,,,,,001,8,2019_Jun_05_1708,ACPT_experiment_5_30_19,3.1.0,59.96222542376285,
,,,C,G,d,b,,,,,,,,,,4,1,81,3,,,,,,,,,,,,,b,1,0.8841695088904089,1852.371202843723,None,,,,,001,8,2019_Jun_05_1708,ACPT_experiment_5_30_19,3.1.0,59.96222542376285,
,,,C,U,g,n,,,,,,,,,,4,2,82,7,,,,,,,,,,,,,n,1,0.9337800999201136,1856.5580077643326,None,,,,,001,8,2019_Jun_05_1708,ACPT_experiment_5_30_19,3.1.0,59.96222542376285,
,,,C,U,y,n,,,,,,,,,,4,3,83,8,,,,,,,,,,,,,n,1,1.1175450315895432,1860.76091246154,None,,,,,001,8,2019_Jun_05_1708,ACPT_experiment_5_30_19,3.1.0,59.96222542376285,
,,,C,G,g,v,,,,,,,,,,4,4,84,4,,,,,,,,,,,,,v,1,0.750154927447511,1865.1813666879889,None,,,,,001,8,2019_Jun_05_1708,ACPT_experiment_5_30_19,3.1.0,59.96222542376285,
,,,C,G,g,v,,,,,,,,,,4,5,85,19,,,,,,,,,,,,,v,1,0.7006925475743628,1869.2005502226048,None,,,,,001,8,2019_Jun_05_1708,ACPT_experiment_5_30_19,3.1.0,59.96222542376285,
,,,C,D,g,b,,,,,,,,,,4,6,86,10,,,,,,,,,,,,,b,1,1.550918380931762,1873.20402760048,None,,,,,001,8,2019_Jun_05_1708,ACPT_experiment_5_30_19,3.1.0,59.96222542376285,
,,,C,G,d,b,,,,,,,,,,4,7,87,12,,,,,,,,,,,,,b,1,1.0174798609423306,1878.0407728593082,None,,,,,001,8,2019_Jun_05_1708,ACPT_experiment_5_30_19,3.1.0,59.96222542376285,
,,,C,G,y,b,,,,,,,,,,4,8,88,5,,,,,,,,,,,,,b,1,0.8506882763158501,1882.344055751545,None,,,,,001,8,2019_Jun_05_1708,ACPT_experiment_5_30_19,3.1.0,59.96222542376285,
,,,C,D,g,b,,,,,,,,,,4,9,89,1,,,,,,,,,,,,,b,1,0.9841260114808392,1886.4805410220424,None,,,,,001,8,2019_Jun_05_1708,ACPT_experiment_5_30_19,3.1.0,59.96222542376285,
,,,C,D,d,v,,,,,,,,,,4,10,90,0,,,,,,,,,,,,,v,1,2.6350836034689564,1890.7507338867154,None,,,,,001,8,2019_Jun_05_1708,ACPT_experiment_5_30_19,3.1.0,59.96222542376285,
,,,C,G,y,b,,,,,,,,,,4,11,91,14,,,,,,,,,,,,,b,1,2.585322990145869,1896.6716507070514,None,,,,,001,8,2019_Jun_05_1708,ACPT_experiment_5_30_19,3.1.0,59.96222542376285,
,,,C,G,g,v,,,,,,,,,,4,12,92,13,,,,,,,,,,,,,v,1,1.0007962953859533,1902.5260822961327,None,,,,,001,8,2019_Jun_05_1708,ACPT_experiment_5_30_19,3.1.0,59.96222542376285,
,,,C,U,d,n,,,,,,,,,,4,13,93,15,,,,,,,,,,,,,n,1,1.0172024555358803,1906.8296305195463,None,,,,,001,8,2019_Jun_05_1708,ACPT_experiment_5_30_19,3.1.0,59.96222542376285,
,,,C,U,d,n,,,,,,,,,,4,14,94,6,,,,,,,,,,,,,n,1,0.7839678994550923,1911.1326625696793,None,,,,,001,8,2019_Jun_05_1708,ACPT_experiment_5_30_19,3.1.0,59.96222542376285,
,,,C,D,d,v,,,,,,,,,,4,15,95,18,,,,,,,,,,,,,v,1,0.9672214875390637,1915.219282181065,None,,,,,001,8,2019_Jun_05_1708,ACPT_experiment_5_30_19,3.1.0,59.96222542376285,
,,,C,D,y,b,,,,,,,,,,4,16,96,11,,,,,,,,,,,,,b,1,0.9674158826219355,1919.4723571098048,None,,,,,001,8,2019_Jun_05_1708,ACPT_experiment_5_30_19,3.1.0,59.96222542376285,
,,,C,U,g,n,,,,,,,,,,4,17,97,16,,,,,,,,,,,,,n,1,0.850227946346422,1923.7426830928498,None,,,,,001,8,2019_Jun_05_1708,ACPT_experiment_5_30_19,3.1.0,59.96222542376285,
,,,C,D,d,v,,,,,,,,,,4,18,98,9,,,,,,,,,,,,,v,1,1.000812595593743,1927.8787647822528,None,,,,,001,8,2019_Jun_05_1708,ACPT_experiment_5_30_19,3.1.0,59.96222542376285,
,,,C,U,y,n,,,,,,,,,,4,19,99,17,,,,,,,,,,,,,n,1,1.0005324734866008,1932.1822900646303,None,,,,,001,8,2019_Jun_05_1708,ACPT_experiment_5_30_19,3.1.0,59.96222542376285,
,,,C,D,g,b,,,,,,,,,,5,0,100,1,,,,,,,,,,,,,b,1,1.2342883343935682,1936.4686457937469,None,,,,,001,8,2019_Jun_05_1708,ACPT_experiment_5_30_19,3.1.0,59.96222542376285,
,,,C,U,y,n,,,,,,,,,,5,1,101,17,,,,,,,,,,,,,n,1,1.8178599576604029,1941.0056788116299,None,,,,,001,8,2019_Jun_05_1708,ACPT_experiment_5_30_19,3.1.0,59.96222542376285,
,,,C,G,d,b,,,,,,,,,,5,2,102,12,,,,,,,,,,,,,b,1,1.3510422021463455,1946.1093315374937,None,,,,,001,8,2019_Jun_05_1708,ACPT_experiment_5_30_19,3.1.0,59.96222542376285,
,,,C,D,d,v,,,,,,,,,,5,3,103,18,,,,,,,,,,,,,v,1,4.336273005555995,1950.7632654268646,None,,,,,001,8,2019_Jun_05_1708,ACPT_experiment_5_30_19,3.1.0,59.96222542376285,
,,,C,G,g,v,,,,,,,,,,5,4,104,19,,,,,,,,,,,,,v,1,2.1516529166347027,1958.385353236089,None,,,,,001,8,2019_Jun_05_1708,ACPT_experiment_5_30_19,3.1.0,59.96222542376285,
,,,C,U,d,n,,,,,,,,,,5,5,105,6,,,,,,,,,,,,,n,1,0.8173024301504483,1963.822832728768,None,,,,,001,8,2019_Jun_05_1708,ACPT_experiment_5_30_19,3.1.0,59.96222542376285,
,,,C,U,d,n,,,,,,,,,,5,6,106,15,,,,,,,,,,,,,n,1,0.41671604523071437,1967.9429094242687,None,,,,,001,8,2019_Jun_05_1708,ACPT_experiment_5_30_19,3.1.0,59.96222542376285,
,,,C,U,g,n,,,,,,,,,,5,7,107,16,,,,,,,,,,,,,n,1,0.4336730920676928,1971.6454623086347,None,,,,,001,8,2019_Jun_05_1708,ACPT_experiment_5_30_19,3.1.0,59.96222542376285,
,,,C,U,g,n,,,,,,,,,,5,8,108,7,,,,,,,,,,,,,n,1,0.39699611300420656,1975.3849632385018,None,,,,,001,8,2019_Jun_05_1708,ACPT_experiment_5_30_19,3.1.0,59.96222542376285,
,,,C,G,y,b,,,,,,,,,,5,9,109,5,,,,,,,,,,,,,b,1,1.1508849956881022,1979.0677889461049,None,,,,,001,8,2019_Jun_05_1708,ACPT_experiment_5_30_19,3.1.0,59.96222542376285,
,,,C,D,g,b,,,,,,,,,,5,10,110,10,,,,,,,,,,,,,b,1,1.5509386052635818,1983.5214340199245,None,,,,,001,8,2019_Jun_05_1708,ACPT_experiment_5_30_19,3.1.0,59.96222542376285,
,,,C,D,y,b,,,,,,,,,,5,11,111,11,,,,,,,,,,,,,b,1,1.1342153154946573,1988.3415201635098,None,,,,,001,8,2019_Jun_05_1708,ACPT_experiment_5_30_19,3.1.0,59.96222542376285,
,,,C,G,g,v,,,,,,,,,,5,12,112,4,,,,,,,,,,,,,v,1,1.9178946408846969,1992.7785136684806,None,,,,,001,8,2019_Jun_05_1708,ACPT_experiment_5_30_19,3.1.0,59.96222542376285,
,,,C,D,d,v,,,,,,,,,,5,13,113,9,,,,,,,,,,,,,v,1,1.517839220172391,1997.9822031905542,None,,,,,001,8,2019_Jun_05_1708,ACPT_experiment_5_30_19,3.1.0,59.96222542376285,
,,,C,G,y,b,,,,,,,,,,5,14,114,14,,,,,,,,,,,,,b,1,1.251104716466216,2002.7858653645026,None,,,,,001,8,2019_Jun_05_1708,ACPT_experiment_5_30_19,3.1.0,59.96222542376285,
,,,C,G,g,v,,,,,,,,,,5,15,115,13,,,,,,,,,,,,,v,1,0.9342048109174357,2007.3059666914296,None,,,,,001,8,2019_Jun_05_1708,ACPT_experiment_5_30_19,3.1.0,59.96222542376285,
,,,C,D,d,v,,,,,,,,,,5,16,116,0,,,,,,,,,,,,,v,1,3.602771759948155,2011.5258610358915,None,,,,,001,8,2019_Jun_05_1708,ACPT_experiment_5_30_19,3.1.0,59.96222542376285,
,,,C,U,y,n,,,,,,,,,,5,17,117,8,,,,,,,,,,,,,n,1,1.5178685001774284,2018.4144469957964,None,,,,,001,8,2019_Jun_05_1708,ACPT_experiment_5_30_19,3.1.0,59.96222542376285,
,,,C,G,d,b,,,,,,,,,,5,18,118,3,,,,,,,,,,,,,b,1,1.6179110316497827,2023.2181076604638,None,,,,,001,8,2019_Jun_05_1708,ACPT_experiment_5_30_19,3.1.0,59.96222542376285,
,,,C,D,y,b,,,,,,,,,,5,19,119,2,0,0,0,0,0,0,0,0,,,,,b,1,1.3676958839860163,2028.1218691147578,None,,,,,001,8,2019_Jun_05_1708,ACPT_experiment_5_30_19,3.1.0,59.96222542376285,
,,,C,D,y,b,R,D,d,L,c,,,,,5,19,119,2,0,0,0,0,,,,,0,0,0,0,,,,,,up,1.55117918427095,2123.3611181460265,None,001,8,2019_Jun_05_1708,ACPT_experiment_5_30_19,3.1.0,59.96222542376285,
,,,C,D,y,b,L,U,d,R,u,,,,,5,19,119,2,0,0,0,0,,,,,0,1,1,21,,,,,,up,0.9674047139596951,2126.1966336446576,None,001,8,2019_Jun_05_1708,ACPT_experiment_5_30_19,3.1.0,59.96222542376285,
,,,C,D,y,b,R,G,d,L,i,,,,,5,19,119,2,0,0,0,0,,,,,0,2,2,4,,,,,,up,0.8673476934145583,2128.448305246163,None,001,8,2019_Jun_05_1708,ACPT_experiment_5_30_19,3.1.0,59.96222542376285,
,,,C,D,y,b,L,G,d,L,i,,,,,5,19,119,2,0,0,0,0,,,,,0,3,3,16,,,,,,up,0.7005358844562579,2130.5999678221806,None,001,8,2019_Jun_05_1708,ACPT_experiment_5_30_19,3.1.0,59.96222542376285,
,,,C,D,y,b,R,U,y,R,u,,,,,5,19,119,2,0,0,0,0,,,,,0,4,4,31,,,,,,down,0.800600753251274,2132.5848191929535,None,001,8,2019_Jun_05_1708,ACPT_experiment_5_30_19,3.1.0,59.96222542376285,
,,,C,D,y,b,R,U,g,R,u,,,,,5,19,119,2,0,0,0,0,,,,,0,5,5,11,,,,,,down,1.3176699394880416,2134.6697405640653,None,001,8,2019_Jun_05_1708,ACPT_experiment_5_30_19,3.1.0,59.96222542376285,
,,,C,D,y,b,R,G,y,L,y,,,,,5,19,119,2,0,0,0,0,,,,,0,6,6,28,,,,,,down,0.8339666769388714,2137.2717232731675,None,001,8,2019_Jun_05_1708,ACPT_experiment_5_30_19,3.1.0,59.96222542376285,
,,,C,D,y,b,L,U,y,L,u,,,,,5,19,119,2,0,0,0,0,,,,,0,7,7,24,,,,,,down,0.600454111743602,2139.3900030215764,None,001,8,2019_Jun_05_1708,ACPT_experiment_5_30_19,3.1.0,59.96222542376285,
,,,C,D,y,b,R,G,d,R,i,,,,,5,19,119,2,0,0,0,0,,,,,0,8,8,5,,,,,,up,0.8172906577765389,2141.2747789586037,None,001,8,2019_Jun_05_1708,ACPT_experiment_5_30_19,3.1.0,59.96222542376285,
,,,C,D,y,b,L,D,y,L,y,,,,,5,19,119,2,0,0,0,0,,,,,0,9,9,32,,,,,,down,0.6335450448732445,2143.393324641901,None,001,8,2019_Jun_05_1708,ACPT_experiment_5_30_19,3.1.0,59.96222542376285,
,,,C,D,y,b,L,D,d,R,c ,,,,,5,19,119,2,0,0,0,0,,,,,0,10,10,13,,,,,,up,0.9840970333316363,2145.2944979852646,None,001,8,2019_Jun_05_1708,ACPT_experiment_5_30_19,3.1.0,59.96222542376285,
,,,C,D,y,b,L,D,d,L,c ,,,,,5,19,119,2,0,0,0,0,,,,,0,11,11,12,,,,,,up,0.6671962222153525,2147.546194942649,None,001,8,2019_Jun_05_1708,ACPT_experiment_5_30_19,3.1.0,59.96222542376285,
,,,C,D,y,b,R,G,g,R,c ,,,,,5,19,119,2,0,0,0,0,,,,,0,12,12,7,,,,,,down,0.9507250725291669,2149.497707254891,None,001,8,2019_Jun_05_1708,ACPT_experiment_5_30_19,3.1.0,59.96222542376285,
,,,C,D,y,b,R,D,y,R,y,,,,,5,19,119,2,0,0,0,0,,,,,0,13,13,27,,,,,,down,0.7672568650286848,2151.7327447951784,None,001,8,2019_Jun_05_1708,ACPT_experiment_5_30_19,3.1.0,59.96222542376285,
,,,C,D,y,b,L,U,g,R,u,,,,,5,19,119,2,0,0,0,0,,,,,0,14,14,23,,,,,,down,1.4344265239396918,2153.784311411263,None,001,8,2019_Jun_05_1708,ACPT_experiment_5_30_19,3.1.0,59.96222542376285,
,,,C,D,y,b,R,U,y,L,u,,,,,5,19,119,2,0,0,0,0,,,,,0,15,15,30,,,,,,down,0.8506426961030229,2156.503050402963,None,001,8,2019_Jun_05_1708,ACPT_experiment_5_30_19,3.1.0,59.96222542376285,
,,,C,D,y,b,L,G,y,L,y,,,,,5,19,119,2,0,0,0,0,,,,,0,16,16,34,,,,,,down,1.4010672410786356,2158.638009490948,None,001,8,2019_Jun_05_1708,ACPT_experiment_5_30_19,3.1.0,59.96222542376285,
,,,C,D,y,b,R,U,d,L,u,,,,,5,19,119,2,0,0,0,0,,,,,0,17,17,8,,,,,,up,0.984080431268012,2161.32338738865,None,001,8,2019_Jun_05_1708,ACPT_experiment_5_30_19,3.1.0,59.96222542376285,
,,,C,D,y,b,L,D,g,L,i,,,,,5,19,119,2,0,0,0,0,,,,,0,18,18,14,,,,,,down,2.1349618046860996,2163.5917827025214,None,001,8,2019_Jun_05_1708,ACPT_experiment_5_30_19,3.1.0,59.96222542376285,
,,,C,D,y,b,R,G,g,L,c ,,,,,5,19,119,2,0,0,0,0,,,,,0,19,19,6,,,,,,down,1.3176726561887335,2167.0110554656867,None,001,8,2019_Jun_05_1708,ACPT_experiment_5_30_19,3.1.0,59.96222542376285,
,,,C,D,y,b,R,D,g,L,i,,,,,5,19,119,2,0,0,0,0,,,,,0,20,20,2,,,,,,down,2.0681294393543794,2169.6130393822104,None,001,8,2019_Jun_05_1708,ACPT_experiment_5_30_19,3.1.0,59.96222542376285,
,,,C,D,y,b,L,G,g,L,c ,,,,,5,19,119,2,0,0,0,0,,,,,0,21,21,18,,,,,,down,1.150886504967275,2172.965597503774,None,001,8,2019_Jun_05_1708,ACPT_experiment_5_30_19,3.1.0,59.96222542376285,
,,,C,D,y,b,L,G,d,R,i,,,,,5,19,119,2,0,0,0,0,,,,,0,22,22,17,,,,,,up,0.9340653535746242,2175.3840827253707,None,001,8,2019_Jun_05_1708,ACPT_experiment_5_30_19,3.1.0,59.96222542376285,
,,,C,D,y,b,L,U,g,L,u,,,,,5,19,119,2,0,0,0,0,,,,,0,23,23,22,,,,,,down,3.6861476297835907,2177.602463867116,None,001,8,2019_Jun_05_1708,ACPT_experiment_5_30_19,3.1.0,59.96222542376285,
,,,C,D,y,b,L,D,y,R,y,,,,,5,19,119,2,0,0,0,0,,,,,0,24,24,33,,,,,,down,1.5345230875864218,2182.5729176256873,None,001,8,2019_Jun_05_1708,ACPT_experiment_5_30_19,3.1.0,59.96222542376285,
,,,C,D,y,b,L,D,g,R,i,,,,,5,19,119,2,0,0,0,0,,,,,0,25,25,15,,,,,,down,1.250972201803961,2185.375031883511,None,001,8,2019_Jun_05_1708,ACPT_experiment_5_30_19,3.1.0,59.96222542376285,
,,,C,D,y,b,R,U,d,R,u,,,,,5,19,119,2,0,0,0,0,,,,,0,26,26,9,,,,,,up,2.652026463087168,2187.910317156785,None,001,8,2019_Jun_05_1708,ACPT_experiment_5_30_19,3.1.0,59.96222542376285,
,,,C,D,y,b,L,G,g,R,c ,,,,,5,19,119,2,0,0,0,0,,,,,0,27,27,19,,,,,,down,1.2342762601638242,2191.8466524653622,None,001,8,2019_Jun_05_1708,ACPT_experiment_5_30_19,3.1.0,59.96222542376285,
,,,C,D,y,b,L,U,d,L,u,,,,,5,19,119,2,0,0,0,0,,,,,0,28,28,20,,,,,,up,1.3843924293378223,2194.3652369673046,None,001,8,2019_Jun_05_1708,ACPT_experiment_5_30_19,3.1.0,59.96222542376285,
,,,C,D,y,b,L,G,y,R,y,,,,,5,19,119,2,0,0,0,0,,,,,0,29,29,35,,,,,,down,2.6019842183795845,2197.0339367328534,None,001,8,2019_Jun_05_1708,ACPT_experiment_5_30_19,3.1.0,59.96222542376285,
,,,C,D,y,b,R,D,y,L,y,,,,,5,19,119,2,0,0,0,0,,,,,0,30,30,26,,,,,,down,1.4677833919595287,2200.9202391542485,None,001,8,2019_Jun_05_1708,ACPT_experiment_5_30_19,3.1.0,59.96222542376285,
,,,C,D,y,b,R,D,d,R,c ,,,,,5,19,119,2,0,0,0,0,,,,,0,31,31,1,,,,,,up,2.034885163518993,2203.6723344102547,None,001,8,2019_Jun_05_1708,ACPT_experiment_5_30_19,3.1.0,59.96222542376285,
,,,C,D,y,b,R,D,g,R,i,,,,,5,19,119,2,0,0,0,0,,,,,0,32,32,3,,,,,,down,1.501172256683276,2206.9748252330855,None,001,8,2019_Jun_05_1708,ACPT_experiment_5_30_19,3.1.0,59.96222542376285,
,,,C,D,y,b,R,U,g,L,u,,,,,5,19,119,2,0,0,0,0,,,,,0,33,33,10,,,,,,down,0.783912961715032,2209.7603268614466,None,001,8,2019_Jun_05_1708,ACPT_experiment_5_30_19,3.1.0,59.96222542376285,
,,,C,D,y,b,R,G,y,R,y,,,,,5,19,119,2,0,0,0,0,,,,,0,34,34,29,,,,,,down,0.6671944110803452,2211.8285510834967,None,001,8,2019_Jun_05_1708,ACPT_experiment_5_30_19,3.1.0,59.96222542376285,
,,,C,D,y,b,L,U,y,R,u,,,,,5,19,119,2,0,0,0,0,,,,,0,35,35,25,,,,,,down,0.5670918103223812,2213.7800377380017,None,001,8,2019_Jun_05_1708,ACPT_experiment_5_30_19,3.1.0,59.96222542376285,
,,,C,D,y,b,R,U,d,L,u,,,,,5,19,119,2,0,0,0,0,,,,,1,0,36,8,,,,,,up,0.817359782737185,2215.6314462420623,None,001,8,2019_Jun_05_1708,ACPT_experiment_5_30_19,3.1.0,59.96222542376285,
,,,C,D,y,b,R,G,d,L,i,,,,,5,19,119,2,0,0,0,0,,,,,1,1,37,4,,,,,,up,0.7672369425508805,2217.7330487638856,None,001,8,2019_Jun_05_1708,ACPT_experiment_5_30_19,3.1.0,59.96222542376285,
,,,C,D,y,b,L,D,d,L,c ,,,,,5,19,119,2,0,0,0,0,,,,,1,2,38,12,,,,,,up,0.6004598470026394,2219.7846144744044,None,001,8,2019_Jun_05_1708,ACPT_experiment_5_30_19,3.1.0,59.96222542376285,
,,,C,D,y,b,L,U,d,R,u,,,,,5,19,119,2,0,0,0,0,,,,,1,3,39,21,,,,,,up,0.884001375256048,2221.6693807520505,None,001,8,2019_Jun_05_1708,ACPT_experiment_5_30_19,3.1.0,59.96222542376285,
,,,C,D,y,b,L,D,d,R,c ,,,,,5,19,119,2,0,0,0,0,,,,,1,4,40,13,,,,,,up,0.5671250144514488,2223.837681011556,None,001,8,2019_Jun_05_1708,ACPT_experiment_5_30_19,3.1.0,59.96222542376285,
,,,C,D,y,b,L,G,d,L,i,,,,,5,19,119,2,0,0,0,0,,,,,1,5,41,16,,,,,,up,0.46701396173193643,2225.689114871496,None,001,8,2019_Jun_05_1708,ACPT_experiment_5_30_19,3.1.0,59.96222542376285,
,,,C,D,y,b,R,D,g,R,i,,,,,5,19,119,2,0,0,0,0,,,,,1,6,42,3,,,,,,down,0.6004350948314823,2227.4571420723178,None,001,8,2019_Jun_05_1708,ACPT_experiment_5_30_19,3.1.0,59.96222542376285,
,,,C,D,y,b,R,U,y,R,u,,,,,5,19,119,2,0,0,0,0,,,,,1,7,43,31,,,,,,down,0.5838049577378115,2229.3418953701685,None,001,8,2019_Jun_05_1708,ACPT_experiment_5_30_19,3.1.0,59.96222542376285,
,,,C,D,y,b,R,G,g,R,c ,,,,,5,19,119,2,0,0,0,0,,,,,1,8,44,7,,,,,,down,0.8173012227271101,2231.209990760196,None,001,8,2019_Jun_05_1708,ACPT_experiment_5_30_19,3.1.0,59.96222542376285,
,,,C,D,y,b,R,D,y,R,y,,,,,5,19,119,2,0,0,0,0,,,,,1,9,45,27,,,,,,down,0.5170248134454596,2233.3282946570644,None,001,8,2019_Jun_05_1708,ACPT_experiment_5_30_19,3.1.0,59.96222542376285,
,,,C,D,y,b,R,D,y,L,y,,,,,5,19,119,2,0,0,0,0,,,,,1,10,46,26,,,,,,down,0.4336513584567001,2235.1463236539284,None,001,8,2019_Jun_05_1708,ACPT_experiment_5_30_19,3.1.0,59.96222542376285,
,,,C,D,y,b,L,G,y,R,y,,,,,5,19,119,2,0,0,0,0,,,,,1,11,47,35,,,,,,down,0.4503563557682355,2236.864302874784,None,001,8,2019_Jun_05_1708,ACPT_experiment_5_30_19,3.1.0,59.96222542376285,
,,,C,D,y,b,L,G,g,L,c ,,,,,5,19,119,2,0,0,0,0,,,,,1,12,48,18,,,,,,down,0.567099356716426,2238.598951172121,None,001,8,2019_Jun_05_1708,ACPT_experiment_5_30_19,3.1.0,59.96222542376285,
,,,C,D,y,b,R,U,y,L,u,,,,,5,19,119,2,0,0,0,0,,,,,1,13,49,30,,,,,,down,0.5501302356497035,2240.467325174978,None,001,8,2019_Jun_05_1708,ACPT_experiment_5_30_19,3.1.0,59.96222542376285,
,,,C,D,y,b,L,U,y,L,u,,,,,5,19,119,2,0,0,0,0,,,,,1,14,50,24,,,,,,down,0.9173627711079462,2242.301776632202,None,001,8,2019_Jun_05_1708,ACPT_experiment_5_30_19,3.1.0,59.96222542376285,
,,,C,D,y,b,R,G,y,L,y,,,,,5,19,119,2,0,0,0,0,,,,,1,15,51,28,,,,,,down,0.483693301308449,2244.5201333236337,None,001,8,2019_Jun_05_1708,ACPT_experiment_5_30_19,3.1.0,59.96222542376285,
,,,C,D,y,b,L,D,g,L,i,,,,,5,19,119,2,0,0,0,0,,,,,1,16,52,14,,,,,,down,0.5670912066107121,2246.3048296009374,None,001,8,2019_Jun_05_1708,ACPT_experiment_5_30_19,3.1.0,59.96222542376285,
,,,C,D,y,b,L,G,d,R,i,,,,,5,19,119,2,0,0,0,0,,,,,1,17,53,17,,,,,,up,0.6004695063838881,2248.1562371994305,None,001,8,2019_Jun_05_1708,ACPT_experiment_5_30_19,3.1.0,59.96222542376285,
,,,C,D,y,b,L,G,g,R,c ,,,,,5,19,119,2,0,0,0,0,,,,,1,18,54,19,,,,,,down,0.800636372227018,2250.041006495633,None,001,8,2019_Jun_05_1708,ACPT_experiment_5_30_19,3.1.0,59.96222542376285,
,,,C,D,y,b,R,G,y,R,y,,,,,5,19,119,2,0,0,0,0,,,,,1,19,55,29,,,,,,down,0.7672828246213612,2252.1259260556117,None,001,8,2019_Jun_05_1708,ACPT_experiment_5_30_19,3.1.0,59.96222542376285,
,,,C,D,y,b,L,G,y,L,y,,,,,5,19,119,2,0,0,0,0,,,,,1,20,56,34,,,,,,down,0.7172251852716727,2254.177490558709,None,001,8,2019_Jun_05_1708,ACPT_experiment_5_30_19,3.1.0,59.96222542376285,
,,,C,D,y,b,R,U,d,R,u,,,,,5,19,119,2,0,0,0,0,,,,,1,21,57,9,,,,,,up,0.6004510931852565,2256.179020363489,None,001,8,2019_Jun_05_1708,ACPT_experiment_5_30_19,3.1.0,59.96222542376285,
,,,C,D,y,b,R,U,g,L,u,,,,,5,19,119,2,0,0,0,0,,,,,1,22,58,10,,,,,,down,0.700578144258543,2258.047091001349,None,001,8,2019_Jun_05_1708,ACPT_experiment_5_30_19,3.1.0,59.96222542376285,
,,,C,D,y,b,L,D,g,R,i,,,,,5,19,119,2,0,0,0,0,,,,,1,23,59,15,,,,,,down,0.9507199409817986,2260.0319577667624,None,001,8,2019_Jun_05_1708,ACPT_experiment_5_30_19,3.1.0,59.96222542376285,
,,,C,D,y,b,R,D,d,L,c,,,,,5,19,119,2,0,0,0,0,,,,,1,24,60,0,,,,,,up,0.6504933378946589,2262.266993194059,None,001,8,2019_Jun_05_1708,ACPT_experiment_5_30_19,3.1.0,59.96222542376285,
,,,C,D,y,b,R,G,d,R,i,,,,,5,19,119,2,0,0,0,0,,,,,1,25,61,5,,,,,,up,0.6171298290500999,2264.2018044331135,None,001,8,2019_Jun_05_1708,ACPT_experiment_5_30_19,3.1.0,59.96222542376285,
,,,C,D,y,b,L,D,y,L,y,,,,,5,19,119,2,0,0,0,0,,,,,1,26,62,32,,,,,,down,0.7172100924854021,2266.119930597334,None,001,8,2019_Jun_05_1708,ACPT_experiment_5_30_19,3.1.0,59.96222542376285,
,,,C,D,y,b,R,G,g,L,c ,,,,,5,19,119,2,0,0,0,0,,,,,1,27,63,6,,,,,,down,1.28431216590252,2268.1381367231324,None,001,8,2019_Jun_05_1708,ACPT_experiment_5_30_19,3.1.0,59.96222542376285,
,,,C,D,y,b,R,D,g,L,i,,,,,5,19,119,2,0,0,0,0,,,,,1,28,64,2,,,,,,down,0.617130432761769,2270.706760451226,None,001,8,2019_Jun_05_1708,ACPT_experiment_5_30_19,3.1.0,59.96222542376285,
,,,C,D,y,b,R,D,d,R,c ,,,,,5,19,119,2,0,0,0,0,,,,,1,29,65,1,,,,,,up,1.4511125043427455,2272.6082084832933,None,001,8,2019_Jun_05_1708,ACPT_experiment_5_30_19,3.1.0,59.96222542376285,
,,,C,D,y,b,L,D,y,R,y,,,,,5,19,119,2,0,0,0,0,,,,,1,30,66,33,,,,,,down,0.850639979400512,2275.343629833126,None,001,8,2019_Jun_05_1708,ACPT_experiment_5_30_19,3.1.0,59.96222542376285,
,,,C,D,y,b,R,U,g,R,u,,,,,5,19,119,2,0,0,0,0,,,,,1,31,67,11,,,,,,down,0.8837553628436581,2277.4955175935092,None,001,8,2019_Jun_05_1708,ACPT_experiment_5_30_19,3.1.0,59.96222542376285,
,,,C,D,y,b,L,U,d,L,u,,,,,5,19,119,2,0,0,0,0,,,,,1,32,68,20,,,,,,up,0.7672414703865797,2279.663589650093,None,001,8,2019_Jun_05_1708,ACPT_experiment_5_30_19,3.1.0,59.96222542376285,
,,,C,D,y,b,L,U,g,R,u,,,,,5,19,119,2,0,0,0,0,,,,,1,33,69,23,,,,,,down,0.8006125256251835,2281.7151538513326,None,001,8,2019_Jun_05_1708,ACPT_experiment_5_30_19,3.1.0,59.96222542376285,
,,,C,D,y,b,L,U,g,L,u,,,,,5,19,119,2,0,0,0,0,,,,,1,34,70,22,,,,,,down,0.5672762441663508,2283.7832428420197,None,001,8,2019_Jun_05_1708,ACPT_experiment_5_30_19,3.1.0,59.96222542376285,
,,,C,D,y,b,L,U,y,R,u,,,,,5,19,119,2,0,0,0,0,,,,,1,35,71,25,,,,,,down,0.6504951490278472,2285.634804688786,None,001,8,2019_Jun_05_1708,ACPT_experiment_5_30_19,3.1.0,59.96222542376285,
,,,C,D,y,b,,,,,,,,,,5,19,119,2,1,0,1,0,0,0,0,0,,,,,,,,,,,,,,001,8,2019_Jun_05_1708,ACPT_experiment_5_30_19,3.1.0,59.96222542376285,
,,,C,D,y,b,L,G,d,R,i,,,,,5,19,119,2,1,0,1,0,,,,,0,0,0,17,,,,,,up,0.716974946879418,2304.8163331714377,None,001,8,2019_Jun_05_1708,ACPT_experiment_5_30_19,3.1.0,59.96222542376285,
,,,C,D,y,b,L,D,d,L,c ,,,,,5,19,119,2,1,0,1,0,,,,,0,1,1,12,,,,,,up,0.6004610544241586,2306.817615152674,None,001,8,2019_Jun_05_1708,ACPT_experiment_5_30_19,3.1.0,59.96222542376285,
,,,C,D,y,b,R,D,g,R,i,,,,,5,19,119,2,1,0,1,0,,,,,0,2,2,3,,,,,,down,0.7839434491415886,2308.702378109906,None,001,8,2019_Jun_05_1708,ACPT_experiment_5_30_19,3.1.0,59.96222542376285,
,,,C,D,y,b,L,U,y,R,u,,,,,5,19,119,2,1,0,1,0,,,,,0,3,3,25,,,,,,down,0.9173663933761418,2310.7706291971162,None,001,8,2019_Jun_05_1708,ACPT_experiment_5_30_19,3.1.0,59.96222542376285,
,,,C,D,y,b,R,U,g,L,u,,,,,5,19,119,2,1,0,1,0,,,,,0,4,4,10,,,,,,down,0.8673253560918965,2312.9723101712398,None,001,8,2019_Jun_05_1708,ACPT_experiment_5_30_19,3.1.0,59.96222542376285,
,,,C,D,y,b,R,G,d,R,i,,,,,5,19,119,2,1,0,1,0,,,,,0,5,5,5,,,,,,up,0.7172112999087403,2315.1239470895225,None,001,8,2019_Jun_05_1708,ACPT_experiment_5_30_19,3.1.0,59.96222542376285,
,,,C,D,y,b,R,U,y,L,u,,,,,5,19,119,2,1,0,1,0,,,,,0,6,6,30,,,,,,down,0.60044807462873,2317.1421574413025,None,001,8,2019_Jun_05_1708,ACPT_experiment_5_30_19,3.1.0,59.96222542376285,
,,,C,D,y,b,R,G,g,L,c ,,,,,5,19,119,2,1,0,1,0,,,,,0,7,7,6,,,,,,down,0.8339844864258339,2319.0436018511,None,001,8,2019_Jun_05_1708,ACPT_experiment_5_30_19,3.1.0,59.96222542376285,
,,,C,D,y,b,R,U,g,R,u,,,,,5,19,119,2,1,0,1,0,,,,,0,8,8,11,,,,,,down,0.9840864683810651,2321.161885221779,None,001,8,2019_Jun_05_1708,ACPT_experiment_5_30_19,3.1.0,59.96222542376285,
,,,C,D,y,b,R,D,d,R,c ,,,,,5,19,119,2,1,0,1,0,,,,,0,9,9,1,,,,,,up,0.7172022442373418,2323.430283252351,None,001,8,2019_Jun_05_1708,ACPT_experiment_5_30_19,3.1.0,59.96222542376285,
,,,C,D,y,b,L,G,y,L,y,,,,,5,19,119,2,1,0,1,0,,,,,0,10,10,34,,,,,,down,3.4693080651923083,2325.4318055107387,None,001,8,2019_Jun_05_1708,ACPT_experiment_5_30_19,3.1.0,59.96222542376285,
,,,C,D,y,b,R,G,y,L,y,,,,,5,19,119,2,1,0,1,0,,,,,0,11,11,28,,,,,,down,0.683848696631685,2330.185430571525,None,001,8,2019_Jun_05_1708,ACPT_experiment_5_30_19,3.1.0,59.96222542376285,
,,,C,D,y,b,R,U,d,L,u,,,,,5,19,119,2,1,0,1,0,,,,,0,12,12,8,,,,,,up,0.650490621192148,2332.1535950563275,None,001,8,2019_Jun_05_1708,ACPT_experiment_5_30_19,3.1.0,59.96222542376285,
,,,C,D,y,b,L,G,y,R,y,,,,,5,19,119,2,1,0,1,0,,,,,0,13,13,35,,,,,,down,0.8173024301504483,2334.0884189733233,None,001,8,2019_Jun_05_1708,ACPT_experiment_5_30_19,3.1.0,59.96222542376285,
,,,C,D,y,b,L,G,g,L,c ,,,,,5,19,119,2,1,0,1,0,,,,,0,14,14,18,,,,,,down,1.0341187518515653,2336.1900057986486,None,001,8,2019_Jun_05_1708,ACPT_experiment_5_30_19,3.1.0,59.96222542376285,
,,,C,D,y,b,R,D,y,L,y,,,,,5,19,119,2,1,0,1,0,,,,,0,15,15,26,,,,,,down,0.6838456780751585,2338.508437923824,None,001,8,2019_Jun_05_1708,ACPT_experiment_5_30_19,3.1.0,59.96222542376285,
,,,C,D,y,b,R,D,g,L,i,,,,,5,19,119,2,1,0,1,0,,,,,0,16,16,2,,,,,,down,1.117534466638972,2340.4599079762656,None,001,8,2019_Jun_05_1708,ACPT_experiment_5_30_19,3.1.0,59.96222542376285,
,,,C,D,y,b,L,U,d,R,u,,,,,5,19,119,2,1,0,1,0,,,,,0,17,17,21,,,,,,up,0.9673977712791384,2342.8617597403563,None,001,8,2019_Jun_05_1708,ACPT_experiment_5_30_19,3.1.0,59.96222542376285,
,,,C,D,y,b,R,U,y,R,u,,,,,5,19,119,2,1,0,1,0,,,,,0,18,18,31,,,,,,down,0.8673147911413253,2345.1301577709282,None,001,8,2019_Jun_05_1708,ACPT_experiment_5_30_19,3.1.0,59.96222542376285,
,,,C,D,y,b,L,U,y,L,u,,,,,5,19,119,2,1,0,1,0,,,,,0,19,19,24,,,,,,down,0.6171114158514683,2347.3151618203237,None,001,8,2019_Jun_05_1708,ACPT_experiment_5_30_19,3.1.0,59.96222542376285,
,,,C,D,y,b,R,D,d,L,c,,,,,5,19,119,2,1,0,1,0,,,,,0,20,20,0,,,,,,up,0.8839723971068452,2349.2166237377523,None,001,8,2019_Jun_05_1708,ACPT_experiment_5_30_19,3.1.0,59.96222542376285,
,,,C,D,y,b,L,G,d,L,i,,,,,5,19,119,2,1,0,1,0,,,,,0,21,21,16,,,,,,up,0.6337925665611692,2351.3682639764493,None,001,8,2019_Jun_05_1708,ACPT_experiment_5_30_19,3.1.0,59.96222542376285,
,,,C,D,y,b,L,U,d,L,u,,,,,5,19,119,2,1,0,1,0,,,,,0,22,22,20,,,,,,up,0.5337442998334154,2353.2863662940663,None,001,8,2019_Jun_05_1708,ACPT_experiment_5_30_19,3.1.0,59.96222542376285,
,,,C,D,y,b,L,D,d,R,c ,,,,,5,19,119,2,1,0,1,0,,,,,0,23,23,13,,,,,,up,0.5170522823154897,2355.104421854233,None,001,8,2019_Jun_05_1708,ACPT_experiment_5_30_19,3.1.0,59.96222542376285,
,,,C,D,y,b,R,G,g,R,c ,,,,,5,19,119,2,1,0,1,0,,,,,0,24,24,7,,,,,,down,0.8506439035245421,2356.905794150701,None,001,8,2019_Jun_05_1708,ACPT_experiment_5_30_19,3.1.0,59.96222542376285,
,,,C,D,y,b,L,G,g,R,c ,,,,,5,19,119,2,1,0,1,0,,,,,0,25,25,19,,,,,,down,0.8506478276503913,2359.040753842398,None,001,8,2019_Jun_05_1708,ACPT_experiment_5_30_19,3.1.0,59.96222542376285,
,,,C,D,y,b,L,U,g,L,u,,,,,5,19,119,2,1,0,1,0,,,,,0,26,26,22,,,,,,down,1.0338410445892805,2361.19267480691,None,001,8,2019_Jun_05_1708,ACPT_experiment_5_30_19,3.1.0,59.96222542376285,
,,,C,D,y,b,L,D,g,R,i,,,,,5,19,119,2,1,0,1,0,,,,,0,27,27,15,,,,,,down,0.8172879410758469,2363.5108259044127,None,001,8,2019_Jun_05_1708,ACPT_experiment_5_30_19,3.1.0,59.96222542376285,
,,,C,D,y,b,L,D,y,L,y,,,,,5,19,119,2,1,0,1,0,,,,,0,28,28,32,,,,,,down,1.3510307316282706,2365.6124275206685,None,001,8,2019_Jun_05_1708,ACPT_experiment_5_30_19,3.1.0,59.96222542376285,
,,,C,D,y,b,R,D,y,R,y,,,,,5,19,119,2,1,0,1,0,,,,,0,29,29,27,,,,,,down,0.6004803731902939,2368.247770720057,None,001,8,2019_Jun_05_1708,ACPT_experiment_5_30_19,3.1.0,59.96222542376285,
,,,C,D,y,b,L,D,g,L,i,,,,,5,19,119,2,1,0,1,0,,,,,0,30,30,14,,,,,,down,0.5670664544431929,2370.1325602405914,None,001,8,2019_Jun_05_1708,ACPT_experiment_5_30_19,3.1.0,59.96222542376285,
,,,C,D,y,b,R,G,y,R,y,,,,,5,19,119,2,1,0,1,0,,,,,0,31,31,29,,,,,,down,0.5837702443295711,2371.9839500295975,None,001,8,2019_Jun_05_1708,ACPT_experiment_5_30_19,3.1.0,59.96222542376285,
,,,C,D,y,b,R,G,d,L,i,,,,,5,19,119,2,1,0,1,0,,,,,0,32,32,4,,,,,,up,0.8006297313986579,2373.852043306636,None,001,8,2019_Jun_05_1708,ACPT_experiment_5_30_19,3.1.0,59.96222542376285,
,,,C,D,y,b,R,U,d,R,u,,,,,5,19,119,2,1,0,1,0,,,,,0,33,33,9,,,,,,up,0.6504903193363134,2375.9369643758937,None,001,8,2019_Jun_05_1708,ACPT_experiment_5_30_19,3.1.0,59.96222542376285,
,,,C,D,y,b,L,U,g,R,u,,,,,5,19,119,2,1,0,1,0,,,,,0,34,34,23,,,,,,down,0.7672598835852114,2377.871769577833,None,001,8,2019_Jun_05_1708,ACPT_experiment_5_30_19,3.1.0,59.96222542376285,
,,,C,D,y,b,L,D,y,R,y,,,,,5,19,119,2,1,0,1,0,,,,,0,35,35,33,,,,,,down,0.6504963564511854,2379.9233361939196,None,001,8,2019_Jun_05_1708,ACPT_experiment_5_30_19,3.1.0,59.96222542376285,
,,,C,D,y,b,L,U,d,R,u,,,,,5,19,119,2,1,0,1,0,,,,,1,0,36,21,,,,,,up,0.7171110838098684,2381.8582132375204,None,001,8,2019_Jun_05_1708,ACPT_experiment_5_30_19,3.1.0,59.96222542376285,
,,,C,D,y,b,L,U,y,L,u,,,,,5,19,119,2,1,0,1,0,,,,,1,1,37,24,,,,,,down,0.6503538805518474,2383.876457698997,None,001,8,2019_Jun_05_1708,ACPT_experiment_5_30_19,3.1.0,59.96222542376285,
,,,C,D,y,b,L,D,g,L,i,,,,,5,19,119,2,1,0,1,0,,,,,1,2,38,14,,,,,,down,1.2009130531769188,2385.827836289155,None,001,8,2019_Jun_05_1708,ACPT_experiment_5_30_19,3.1.0,59.96222542376285,
,,,C,D,y,b,L,G,g,R,c ,,,,,5,19,119,2,1,0,1,0,,,,,1,3,39,19,,,,,,down,0.7839244322312879,2388.2963869983496,None,001,8,2019_Jun_05_1708,ACPT_experiment_5_30_19,3.1.0,59.96222542376285,
,,,C,D,y,b,L,G,d,L,i,,,,,5,19,119,2,1,0,1,0,,,,,1,4,40,16,,,,,,down,0.5337548647821677,2390.3479255418542,None,001,8,2019_Jun_05_1708,ACPT_experiment_5_30_19,3.1.0,59.96222542376285,
,,,C,D,y,b,R,G,g,L,c ,,,,,5,19,119,2,1,0,1,0,,,,,1,5,41,6,,,,,,down,0.667205277886751,2392.1660010244987,None,001,8,2019_Jun_05_1708,ACPT_experiment_5_30_19,3.1.0,59.96222542376285,
,,,C,D,y,b,L,G,d,R,i,,,,,5,19,119,2,1,0,1,0,,,,,1,6,42,17,,,,,,up,0.8172846206634858,2394.1174952253978,None,001,8,2019_Jun_05_1708,ACPT_experiment_5_30_19,3.1.0,59.96222542376285,
,,,C,D,y,b,L,U,g,L,u,,,,,5,19,119,2,1,0,1,0,,,,,1,7,43,22,,,,,,down,0.663854679412907,2396.2390941792864,None,001,8,2019_Jun_05_1708,ACPT_experiment_5_30_19,3.1.0,59.96222542376285,
,,,C,D,y,b,R,D,y,R,y,,,,,5,19,119,2,1,0,1,0,,,,,1,8,44,27,,,,,,down,0.7505690734942618,2398.1872580060435,None,001,8,2019_Jun_05_1708,ACPT_experiment_5_30_19,3.1.0,59.96222542376285,
,,,C,D,y,b,L,U,y,R,u,,,,,5,19,119,2,1,0,1,0,,,,,1,9,45,25,,,,,,down,0.9507241669616633,2400.222141660285,None,001,8,2019_Jun_05_1708,ACPT_experiment_5_30_19,3.1.0,59.96222542376285,
,,,C,D,y,b,R,U,g,R,u,,,,,5,19,119,2,1,0,1,0,,,,,1,10,46,11,,,,,,down,0.5670896973333583,2402.4571798042825,None,001,8,2019_Jun_05_1708,ACPT_experiment_5_30_19,3.1.0,59.96222542376285,
,,,C,D,y,b,R,G,d,L,i,,,,,5,19,119,2,1,0,1,0,,,,,1,11,47,4,,,,,,up,0.91736760079948,2404.308584686075,None,001,8,2019_Jun_05_1708,ACPT_experiment_5_30_19,3.1.0,59.96222542376285,
,,,C,D,y,b,L,G,y,R,y,,,,,5,19,119,2,1,0,1,0,,,,,1,12,48,35,,,,,,down,0.6171349605974683,2406.510265962056,None,001,8,2019_Jun_05_1708,ACPT_experiment_5_30_19,3.1.0,59.96222542376285,
,,,C,D,y,b,L,U,d,L,u,,,,,5,19,119,2,1,0,1,0,,,,,1,13,49,20,,,,,,up,0.6338372412083118,2408.4117167108243,None,001,8,2019_Jun_05_1708,ACPT_experiment_5_30_19,3.1.0,59.96222542376285,
,,,C,D,y,b,R,D,g,R,i,,,,,5,19,119,2,1,0,1,0,,,,,1,14,50,3,,,,,,down,0.6504921304695017,2410.3298480065905,None,001,8,2019_Jun_05_1708,ACPT_experiment_5_30_19,3.1.0,59.96222542376285,
,,,C,D,y,b,L,D,g,R,i,,,,,5,19,119,2,1,0,1,0,,,,,1,15,51,15,,,,,,down,0.7505690734942618,2412.2646526048184,None,001,8,2019_Jun_05_1708,ACPT_experiment_5_30_19,3.1.0,59.96222542376285,
,,,C,D,y,b,R,U,y,R,u,,,,,5,19,119,2,1,0,1,0,,,,,1,16,52,31,,,,,,down,0.5671186754807422,2414.299537768339,None,001,8,2019_Jun_05_1708,ACPT_experiment_5_30_19,3.1.0,59.96222542376285,
,,,C,D,y,b,R,U,d,R,u,,,,,5,19,119,2,1,0,1,0,,,,,1,17,53,9,,,,,,up,0.6502219696012617,2416.1512173388337,None,001,8,2019_Jun_05_1708,ACPT_experiment_5_30_19,3.1.0,59.96222542376285,
,,,C,D,y,b,R,G,y,L,y,,,,,5,19,119,2,1,0,1,0,,,,,1,18,54,28,,,,,,down,0.8506417905355192,2418.085760228155,None,001,8,2019_Jun_05_1708,ACPT_experiment_5_30_19,3.1.0,59.96222542376285,
,,,C,D,y,b,L,D,d,L,c ,,,,,5,19,119,2,1,0,1,0,,,,,1,19,55,12,,,,,,up,0.7338954691749677,2420.220711467892,None,001,8,2019_Jun_05_1708,ACPT_experiment_5_30_19,3.1.0,59.96222542376285,
,,,C,D,y,b,R,D,y,L,y,,,,,5,19,119,2,1,0,1,0,,,,,1,20,56,26,,,,,,down,0.9673896211752435,2422.2389357050333,None,001,8,2019_Jun_05_1708,ACPT_experiment_5_30_19,3.1.0,59.96222542376285,
,,,C,D,y,b,R,G,y,R,y,,,,,5,19,119,2,1,0,1,0,,,,,1,21,57,29,,,,,,down,0.5670951307347423,2424.4906368883994,None,001,8,2019_Jun_05_1708,ACPT_experiment_5_30_19,3.1.0,59.96222542376285,
,,,C,D,y,b,R,U,g,L,u,,,,,5,19,119,2,1,0,1,0,,,,,1,22,58,10,,,,,,down,1.3009380770145071,2426.342094594941,None,001,8,2019_Jun_05_1708,ACPT_experiment_5_30_19,3.1.0,59.96222542376285,
,,,C,D,y,b,L,G,g,L,c ,,,,,5,19,119,2,1,0,1,0,,,,,1,23,59,18,,,,,,down,0.5337602981853706,2428.910675761378,None,001,8,2019_Jun_05_1708,ACPT_experiment_5_30_19,3.1.0,59.96222542376285,
,,,C,D,y,b,R,D,d,L,c,,,,,5,19,119,2,1,0,1,0,,,,,1,24,60,0,,,,,,up,0.8306598475446663,2430.748731677736,None,001,8,2019_Jun_05_1708,ACPT_experiment_5_30_19,3.1.0,59.96222542376285,
,,,C,D,y,b,R,U,y,L,u,,,,,5,19,119,2,1,0,1,0,,,,,1,25,61,30,,,,,,down,0.867322337533551,2432.8636855798404,None,001,8,2019_Jun_05_1708,ACPT_experiment_5_30_19,3.1.0,59.96222542376285,
,,,C,D,y,b,L,U,g,R,u,,,,,5,19,119,2,1,0,1,0,,,,,1,26,62,23,,,,,,down,1.5178168828497292,2435.015329138948,None,001,8,2019_Jun_05_1708,ACPT_experiment_5_30_19,3.1.0,59.96222542376285,
,,,C,D,y,b,R,D,d,R,c ,,,,,5,19,119,2,1,0,1,0,,,,,1,27,63,1,,,,,,up,0.7672514316273009,2437.817463922959,None,001,8,2019_Jun_05_1708,ACPT_experiment_5_30_19,3.1.0,59.96222542376285,
,,,C,D,y,b,L,D,y,R,y,,,,,5,19,119,2,1,0,1,0,,,,,1,28,64,33,,,,,,down,0.7005126415660925,2439.86904502812,None,001,8,2019_Jun_05_1708,ACPT_experiment_5_30_19,3.1.0,59.96222542376285,
,,,C,D,y,b,R,U,d,L,u,,,,,5,19,119,2,1,0,1,0,,,,,1,29,65,8,,,,,,up,1.484466957514087,2441.8538725522894,None,001,8,2019_Jun_05_1708,ACPT_experiment_5_30_19,3.1.0,59.96222542376285,
,,,C,D,y,b,R,G,d,R,i,,,,,5,19,119,2,1,0,1,0,,,,,1,30,66,5,,,,,,up,0.6338366374966427,2444.622651071996,None,001,8,2019_Jun_05_1708,ACPT_experiment_5_30_19,3.1.0,59.96222542376285,
,,,C,D,y,b,L,G,y,L,y,,,,,5,19,119,2,1,0,1,0,,,,,1,31,67,34,,,,,,down,0.5504345062145148,2446.540757011883,None,001,8,2019_Jun_05_1708,ACPT_experiment_5_30_19,3.1.0,59.96222542376285,
,,,C,D,y,b,L,D,y,L,y,,,,,5,19,119,2,1,0,1,0,,,,,1,32,68,32,,,,,,down,0.48369118831760716,2448.375510324825,None,001,8,2019_Jun_05_1708,ACPT_experiment_5_30_19,3.1.0,59.96222542376285,
,,,C,D,y,b,L,D,d,R,c ,,,,,5,19,119,2,1,0,1,0,,,,,1,33,69,13,,,,,,up,0.6671705644785106,2450.143521527293,None,001,8,2019_Jun_05_1708,ACPT_experiment_5_30_19,3.1.0,59.96222542376285,
,,,C,D,y,b,R,G,g,R,c ,,,,,5,19,119,2,1,0,1,0,,,,,1,34,70,7,,,,,,down,0.7005232065166638,2452.0950172374714,None,001,8,2019_Jun_05_1708,ACPT_experiment_5_30_19,3.1.0,59.96222542376285,
,,,C,D,y,b,R,D,g,L,i,,,,,5,19,119,2,1,0,1,0,,,,,1,35,71,2,,,,,,down,0.8506378664114891,2454.063181118562,None,001,8,2019_Jun_05_1708,ACPT_experiment_5_30_19,3.1.0,59.96222542376285,
,,,C,D,y,b,,,,,,,,,,5,19,119,2,2,0,2,0,0,0,0,0,,,,,,,,,,,,,,001,8,2019_Jun_05_1708,ACPT_experiment_5_30_19,3.1.0,59.96222542376285,
,,,C,D,y,b,R,U,g,R,u,,,,,5,19,119,2,2,0,2,0,,,,,0,0,0,11,,,,,,down,0.9340496570785035,2457.9661541257183,None,001,8,2019_Jun_05_1708,ACPT_experiment_5_30_19,3.1.0,59.96222542376285,
,,,C,D,y,b,R,G,y,R,y,,,,,5,19,119,2,2,0,2,0,,,,,0,1,1,29,,,,,,down,1.1175211849895277,2460.184504780037,None,001,8,2019_Jun_05_1708,ACPT_experiment_5_30_19,3.1.0,59.96222542376285,
,,,C,D,y,b,R,U,y,R,u,,,,,5,19,119,2,2,0,2,0,,,,,0,2,2,31,,,,,,down,0.43364562319766264,2462.6030223001953,None,001,8,2019_Jun_05_1708,ACPT_experiment_5_30_19,3.1.0,59.96222542376285,
,,,C,D,y,b,L,G,g,R,c ,,,,,5,19,119,2,2,0,2,0,,,,,0,3,3,19,,,,,,down,0.5837690369080519,2464.337676936503,None,001,8,2019_Jun_05_1708,ACPT_experiment_5_30_19,3.1.0,59.96222542376285,
,,,C,D,y,b,R,G,d,R,i,,,,,5,19,119,2,2,0,2,0,,,,,0,4,4,5,,,,,,down,0.43367188464617357,2466.2057662894176,None,001,8,2019_Jun_05_1708,ACPT_experiment_5_30_19,3.1.0,59.96222542376285,
,,,C,D,y,b,L,U,d,R,u,,,,,5,19,119,2,2,0,2,0,,,,,0,5,5,21,,,,,,up,0.7338957710308023,2467.923737360169,None,001,8,2019_Jun_05_1708,ACPT_experiment_5_30_19,3.1.0,59.96222542376285,
,,,C,D,y,b,R,U,d,R,u,,,,,5,19,119,2,2,0,2,0,,,,,0,6,6,9,,,,,,up,0.5670740008354187,2469.9419685399944,None,001,8,2019_Jun_05_1708,ACPT_experiment_5_30_19,3.1.0,59.96222542376285,
,,,C,D,y,b,L,U,d,L,u,,,,,5,19,119,2,2,0,2,0,,,,,0,7,7,20,,,,,,up,0.767245998222279,2471.79336315869,None,001,8,2019_Jun_05_1708,ACPT_experiment_5_30_19,3.1.0,59.96222542376285,
,,,C,D,y,b,L,U,g,R,u,,,,,5,19,119,2,2,0,2,0,,,,,0,8,8,23,,,,,,down,0.9507410708829411,2473.828219042206,None,001,8,2019_Jun_05_1708,ACPT_experiment_5_30_19,3.1.0,59.96222542376285,
,,,C,D,y,b,L,D,d,L,c ,,,,,5,19,119,2,2,0,2,0,,,,,0,9,9,12,,,,,,up,0.8006098089226725,2476.0632840513636,None,001,8,2019_Jun_05_1708,ACPT_experiment_5_30_19,3.1.0,59.96222542376285,
,,,C,D,y,b,R,D,g,L,i,,,,,5,19,119,2,2,0,2,0,,,,,0,10,10,2,,,,,,down,1.1508759400167037,2478.1482024039187,None,001,8,2019_Jun_05_1708,ACPT_experiment_5_30_19,3.1.0,59.96222542376285,
,,,C,D,y,b,L,G,y,R,y,,,,,5,19,119,2,2,0,2,0,,,,,0,11,11,35,,,,,,down,0.9673914323084318,2480.583392622827,None,001,8,2019_Jun_05_1708,ACPT_experiment_5_30_19,3.1.0,59.96222542376285,
,,,C,D,y,b,L,U,y,L,u,,,,,5,19,119,2,2,0,2,0,,,,,0,12,12,24,,,,,,down,0.883992017728815,2482.851792162678,None,001,8,2019_Jun_05_1708,ACPT_experiment_5_30_19,3.1.0,59.96222542376285,
,,,C,D,y,b,R,D,y,L,y,,,,,5,19,119,2,2,0,2,0,,,,,0,13,13,26,,,,,,down,0.8172819039609749,2485.0367883638255,None,001,8,2019_Jun_05_1708,ACPT_experiment_5_30_19,3.1.0,59.96222542376285,
,,,C,D,y,b,L,D,g,L,i,,,,,5,19,119,2,2,0,2,0,,,,,0,14,14,14,,,,,,down,0.8339944476665551,2487.1383890745137,None,001,8,2019_Jun_05_1708,ACPT_experiment_5_30_19,3.1.0,59.96222542376285,
,,,C,D,y,b,L,D,g,R,i,,,,,5,19,119,2,2,0,2,0,,,,,0,15,15,15,,,,,,down,0.8673869346584979,2489.2399632218994,None,001,8,2019_Jun_05_1708,ACPT_experiment_5_30_19,3.1.0,59.96222542376285,
,,,C,D,y,b,L,D,y,L,y,,,,,5,19,119,2,2,0,2,0,,,,,0,16,16,32,,,,,,down,0.7005582217807387,2491.374926234009,None,001,8,2019_Jun_05_1708,ACPT_experiment_5_30_19,3.1.0,59.96222542376285,
,,,C,D,y,b,L,U,y,R,u,,,,,5,19,119,2,2,0,2,0,,,,,0,17,17,25,,,,,,down,0.7172360520780785,2493.343114263559,None,001,8,2019_Jun_05_1708,ACPT_experiment_5_30_19,3.1.0,59.96222542376285,
,,,C,D,y,b,L,G,d,L,i,,,,,5,19,119,2,2,0,2,0,,,,,0,18,18,16,,,,,,up,0.9007139189598092,2495.344636220091,None,001,8,2019_Jun_05_1708,ACPT_experiment_5_30_19,3.1.0,59.96222542376285,
,,,C,D,y,b,L,G,y,L,y,,,,,5,19,119,2,2,0,2,0,,,,,0,19,19,34,,,,,,down,0.6338399579108227,2497.5129346684616,None,001,8,2019_Jun_05_1708,ACPT_experiment_5_30_19,3.1.0,59.96222542376285,
,,,C,D,y,b,R,G,d,L,i,,,,,5,19,119,2,2,0,2,0,,,,,0,20,20,4,,,,,,up,0.8006107144901762,2499.431091320109,None,001,8,2019_Jun_05_1708,ACPT_experiment_5_30_19,3.1.0,59.96222542376285,
,,,C,D,y,b,R,G,g,L,c ,,,,,5,19,119,2,2,0,2,0,,,,,0,21,21,6,,,,,,down,0.7339328992839,2501.499309203188,None,001,8,2019_Jun_05_1708,ACPT_experiment_5_30_19,3.1.0,59.96222542376285,
,,,C,D,y,b,R,U,d,L,u,,,,,5,19,119,2,2,0,2,0,,,,,0,22,22,8,,,,,,up,0.7172085832080484,2503.51753917559,None,001,8,2019_Jun_05_1708,ACPT_experiment_5_30_19,3.1.0,59.96222542376285,
,,,C,D,y,b,R,D,d,L,c,,,,,5,19,119,2,2,0,2,0,,,,,0,23,23,0,,,,,,up,0.6171349605956493,2505.5023820944016,None,001,8,2019_Jun_05_1708,ACPT_experiment_5_30_19,3.1.0,59.96222542376285,
,,,C,D,y,b,R,G,y,L,y,,,,,5,19,119,2,2,0,2,0,,,,,0,24,24,28,,,,,,down,0.6671711681919987,2507.4038334468814,None,001,8,2019_Jun_05_1708,ACPT_experiment_5_30_19,3.1.0,59.96222542376285,
,,,C,D,y,b,L,G,g,L,c ,,,,,5,19,119,2,2,0,2,0,,,,,0,25,25,18,,,,,,down,0.7839503918239643,2509.355318592109,None,001,8,2019_Jun_05_1708,ACPT_experiment_5_30_19,3.1.0,59.96222542376285,
,,,C,D,y,b,R,D,d,R,c ,,,,,5,19,119,2,2,0,2,0,,,,,0,26,26,1,,,,,,up,0.700527734352363,2511.423562736637,None,001,8,2019_Jun_05_1708,ACPT_experiment_5_30_19,3.1.0,59.96222542376285,
,,,C,D,y,b,R,U,g,L,u,,,,,5,19,119,2,2,0,2,0,,,,,0,27,27,10,,,,,,down,0.8006073940759961,2513.4084071647276,None,001,8,2019_Jun_05_1708,ACPT_experiment_5_30_19,3.1.0,59.96222542376285,
,,,C,D,y,b,R,D,y,R,y,,,,,5,19,119,2,2,0,2,0,,,,,0,28,28,27,,,,,,down,0.7672514316254819,2515.49333064883,None,001,8,2019_Jun_05_1708,ACPT_experiment_5_30_19,3.1.0,59.96222542376285,
,,,C,D,y,b,L,D,y,R,y,,,,,5,19,119,2,2,0,2,0,,,,,0,29,29,33,,,,,,down,0.5003780742863455,2517.5448969630606,None,001,8,2019_Jun_05_1708,ACPT_experiment_5_30_19,3.1.0,59.96222542376285,
,,,C,D,y,b,L,G,d,R,i,,,,,5,19,119,2,2,0,2,0,,,,,0,30,30,17,,,,,,up,0.6338562581167935,2519.329594145932,None,001,8,2019_Jun_05_1708,ACPT_experiment_5_30_19,3.1.0,59.96222542376285,
,,,C,D,y,b,R,G,g,R,c ,,,,,5,19,119,2,2,0,2,0,,,,,0,31,31,7,,,,,,down,0.7672493186364591,2521.2477212157182,None,001,8,2019_Jun_05_1708,ACPT_experiment_5_30_19,3.1.0,59.96222542376285,
,,,C,D,y,b,R,U,y,L,u,,,,,5,19,119,2,2,0,2,0,,,,,0,32,32,30,,,,,,down,1.2509643535559007,2523.2992784742773,None,001,8,2019_Jun_05_1708,ACPT_experiment_5_30_19,3.1.0,59.96222542376285,
,,,C,D,y,b,L,U,g,L,u,,,,,5,19,119,2,2,0,2,0,,,,,0,33,33,22,,,,,,down,0.7839328841928364,2525.834545032497,None,001,8,2019_Jun_05_1708,ACPT_experiment_5_30_19,3.1.0,59.96222542376285,
,,,C,D,y,b,R,D,g,R,i,,,,,5,19,119,2,2,0,2,0,,,,,0,34,34,3,,,,,,down,0.8339558101342845,2527.902802760532,None,001,8,2019_Jun_05_1708,ACPT_experiment_5_30_19,3.1.0,59.96222542376285,
,,,C,D,y,b,L,D,d,R,c ,,,,,5,19,119,2,2,0,2,0,,,,,0,35,35,13,,,,,,up,0.7338604539127118,2530.021086131209,None,001,8,2019_Jun_05_1708,ACPT_experiment_5_30_19,3.1.0,59.96222542376285,
,,,C,D,y,b,L,D,g,R,i,,,,,5,19,119,2,2,0,2,0,,,,,1,0,36,15,,,,,,down,0.7505693753500964,2532.0392738438104,None,001,8,2019_Jun_05_1708,ACPT_experiment_5_30_19,3.1.0,59.96222542376285,
,,,C,D,y,b,L,D,d,R,c ,,,,,5,19,119,2,2,0,2,0,,,,,1,1,37,13,,,,,,up,0.7672737689499627,2534.05745733043,None,001,8,2019_Jun_05_1708,ACPT_experiment_5_30_19,3.1.0,59.96222542376285,
,,,C,D,y,b,R,D,g,R,i,,,,,5,19,119,2,2,0,2,0,,,,,1,2,38,3,,,,,,up,0.4169499834115413,2536.109068319308,None,001,8,2019_Jun_05_1708,ACPT_experiment_5_30_19,3.1.0,59.96222542376285,
,,,C,D,y,b,R,U,g,L,u,,,,,5,19,119,2,2,0,2,0,,,,,1,3,39,10,,,,,,down,1.284032647507047,2537.827295061853,None,001,8,2019_Jun_05_1708,ACPT_experiment_5_30_19,3.1.0,59.96222542376285,
,,,C,D,y,b,L,D,g,L,i,,,,,5,19,119,2,2,0,2,0,,,,,1,4,40,14,,,,,,down,0.9841226910666592,2540.3956434975307,None,001,8,2019_Jun_05_1708,ACPT_experiment_5_30_19,3.1.0,59.96222542376285,
,,,C,D,y,b,L,G,g,R,c ,,,,,5,19,119,2,2,0,2,0,,,,,1,5,41,19,,,,,,down,1.1508614509421022,2542.6640511874857,None,001,8,2019_Jun_05_1708,ACPT_experiment_5_30_19,3.1.0,59.96222542376285,
,,,C,D,y,b,R,D,y,R,y,,,,,5,19,119,2,2,0,2,0,,,,,1,6,42,27,,,,,,down,0.6171352624533029,2545.0992287284544,None,001,8,2019_Jun_05_1708,ACPT_experiment_5_30_19,3.1.0,59.96222542376285,
,,,C,D,y,b,L,G,y,R,y,,,,,5,19,119,2,2,0,2,0,,,,,1,7,43,35,,,,,,down,0.450347300096837,2547.0006936644413,None,001,8,2019_Jun_05_1708,ACPT_experiment_5_30_19,3.1.0,59.96222542376285,
,,,C,D,y,b,L,D,d,L,c ,,,,,5,19,119,2,2,0,2,0,,,,,1,8,44,12,,,,,,up,0.7505693753482774,2548.7353356228095,None,001,8,2019_Jun_05_1708,ACPT_experiment_5_30_19,3.1.0,59.96222542376285,
,,,C,D,y,b,R,U,d,L,u,,,,,5,19,119,2,2,0,2,0,,,,,1,9,45,8,,,,,,up,0.6004535080301139,2550.753537220772,None,001,8,2019_Jun_05_1708,ACPT_experiment_5_30_19,3.1.0,59.96222542376285,
,,,C,D,y,b,L,D,y,R,y,,,,,5,19,119,2,2,0,2,0,,,,,1,10,46,33,,,,,,down,0.6169040409731679,2552.6552629601,None,001,8,2019_Jun_05_1708,ACPT_experiment_5_30_19,3.1.0,59.96222542376285,
,,,C,D,y,b,R,G,g,R,c ,,,,,5,19,119,2,2,0,2,0,,,,,1,11,47,7,,,,,,down,0.6338115834714699,2554.556435699752,None,001,8,2019_Jun_05_1708,ACPT_experiment_5_30_19,3.1.0,59.96222542376285,
,,,C,D,y,b,L,D,y,L,y,,,,,5,19,119,2,2,0,2,0,,,,,1,12,48,32,,,,,,down,0.717013886269342,2556.491400583366,None,001,8,2019_Jun_05_1708,ACPT_experiment_5_30_19,3.1.0,59.96222542376285,
,,,C,D,y,b,L,U,d,L,u,,,,,5,19,119,2,2,0,2,0,,,,,1,13,49,20,,,,,,up,0.6171093028606265,2558.509466346258,None,001,8,2019_Jun_05_1708,ACPT_experiment_5_30_19,3.1.0,59.96222542376285,
,,,C,D,y,b,L,U,y,R,u,,,,,5,19,119,2,2,0,2,0,,,,,1,14,50,25,,,,,,down,0.4670447510161466,2560.3941967030723,None,001,8,2019_Jun_05_1708,ACPT_experiment_5_30_19,3.1.0,59.96222542376285,
,,,C,D,y,b,R,D,y,L,y,,,,,5,19,119,2,2,0,2,0,,,,,1,15,51,26,,,,,,down,0.5504245449737937,2562.1622350725565,None,001,8,2019_Jun_05_1708,ACPT_experiment_5_30_19,3.1.0,59.96222542376285,
,,,C,D,y,b,R,U,d,R,u,,,,,5,19,119,2,2,0,2,0,,,,,1,16,52,9,,,,,,up,0.6671503401466907,2564.013661386104,None,001,8,2019_Jun_05_1708,ACPT_experiment_5_30_19,3.1.0,59.96222542376285,
,,,C,D,y,b,R,G,y,R,y,,,,,5,19,119,2,2,0,2,0,,,,,1,17,53,29,,,,,,down,0.6001797248936782,2565.9820830519793,None,001,8,2019_Jun_05_1708,ACPT_experiment_5_30_19,3.1.0,59.96222542376285,
,,,C,D,y,b,L,G,g,L,c ,,,,,5,19,119,2,2,0,2,0,,,,,1,18,54,18,,,,,,down,0.8172882429316815,2567.866583998447,None,001,8,2019_Jun_05_1708,ACPT_experiment_5_30_19,3.1.0,59.96222542376285,
,,,C,D,y,b,R,U,g,R,u,,,,,5,19,119,2,2,0,2,0,,,,,1,19,55,11,,,,,,down,0.5671002622821106,2569.968180483157,None,001,8,2019_Jun_05_1708,ACPT_experiment_5_30_19,3.1.0,59.96222542376285,
,,,C,D,y,b,R,G,g,L,c ,,,,,5,19,119,2,2,0,2,0,,,,,1,20,56,6,,,,,,down,0.5837753758769395,2571.8029168921776,None,001,8,2019_Jun_05_1708,ACPT_experiment_5_30_19,3.1.0,59.96222542376285,
,,,C,D,y,b,R,D,g,L,i,,,,,5,19,119,2,2,0,2,0,,,,,1,21,57,2,,,,,,down,0.6171301309059345,2573.654331131497,None,001,8,2019_Jun_05_1708,ACPT_experiment_5_30_19,3.1.0,59.96222542376285,
,,,C,D,y,b,L,G,y,L,y,,,,,5,19,119,2,2,0,2,0,,,,,1,22,58,34,,,,,,down,0.600454111743602,2575.5557761450063,None,001,8,2019_Jun_05_1708,ACPT_experiment_5_30_19,3.1.0,59.96222542376285,
,,,C,D,y,b,L,G,d,R,i,,,,,5,19,119,2,2,0,2,0,,,,,1,23,59,17,,,,,,up,0.7005379974470998,2577.4405442337857,None,001,8,2019_Jun_05_1708,ACPT_experiment_5_30_19,3.1.0,59.96222542376285,
,,,C,D,y,b,R,D,d,R,c ,,,,,5,19,119,2,2,0,2,0,,,,,1,24,60,1,,,,,,up,0.6504924323271553,2579.425388963732,None,001,8,2019_Jun_05_1708,ACPT_experiment_5_30_19,3.1.0,59.96222542376285,
,,,C,D,y,b,L,G,d,L,i,,,,,5,19,119,2,2,0,2,0,,,,,1,25,61,16,,,,,,up,0.6671759978817136,2581.3435199576443,None,001,8,2019_Jun_05_1708,ACPT_experiment_5_30_19,3.1.0,59.96222542376285,
,,,C,D,y,b,R,G,d,L,i,,,,,5,19,119,2,2,0,2,0,,,,,1,26,62,4,,,,,,up,0.9840903925069142,2583.295006914005,None,001,8,2019_Jun_05_1708,ACPT_experiment_5_30_19,3.1.0,59.96222542376285,
,,,C,D,y,b,L,U,g,L,u,,,,,5,19,119,2,2,0,2,0,,,,,1,27,63,22,,,,,,down,0.8972395596410934,2585.5834146582956,None,001,8,2019_Jun_05_1708,ACPT_experiment_5_30_19,3.1.0,59.96222542376285,
,,,C,D,y,b,R,G,y,L,y,,,,,5,19,119,2,2,0,2,0,,,,,1,28,64,28,,,,,,down,0.6004682989623689,2587.7650780704544,None,001,8,2019_Jun_05_1708,ACPT_experiment_5_30_19,3.1.0,59.96222542376285,
,,,C,D,y,b,L,U,d,R,u,,,,,5,19,119,2,2,0,2,0,,,,,1,29,65,21,,,,,,up,1.0007633931109012,2589.6498521963485,None,001,8,2019_Jun_05_1708,ACPT_experiment_5_30_19,3.1.0,59.96222542376285,
,,,C,D,y,b,R,U,y,R,u,,,,,5,19,119,2,2,0,2,0,,,,,1,30,66,31,,,,,,down,0.6168273696202959,2591.951908346945,None,001,8,2019_Jun_05_1708,ACPT_experiment_5_30_19,3.1.0,59.96222542376285,
,,,C,D,y,b,R,D,d,L,c,,,,,5,19,119,2,2,0,2,0,,,,,1,31,67,0,,,,,,up,0.7005328658997314,2593.853053617727,None,001,8,2019_Jun_05_1708,ACPT_experiment_5_30_19,3.1.0,59.96222542376285,
,,,C,D,y,b,L,U,g,R,u,,,,,5,19,119,2,2,0,2,0,,,,,1,32,68,23,,,,,,down,1.1508647713562823,2595.8379137423135,None,001,8,2019_Jun_05_1708,ACPT_experiment_5_30_19,3.1.0,59.96222542376285,
,,,C,D,y,b,R,G,d,R,i,,,,,5,19,119,2,2,0,2,0,,,,,1,33,69,5,,,,,,up,0.8506426961030229,2598.273091283282,None,001,8,2019_Jun_05_1708,ACPT_experiment_5_30_19,3.1.0,59.96222542376285,
,,,C,D,y,b,R,U,y,L,u,,,,,5,19,119,2,2,0,2,0,,,,,1,34,70,30,,,,,,down,0.7505696772059309,2600.4247312201232,None,001,8,2019_Jun_05_1708,ACPT_experiment_5_30_19,3.1.0,59.96222542376285,
,,,C,D,y,b,L,U,y,L,u,,,,,5,19,119,2,2,0,2,0,,,,,1,35,71,24,,,,,,down,0.45033341473390465,2602.4762927046604,None,001,8,2019_Jun_05_1708,ACPT_experiment_5_30_19,3.1.0,59.96222542376285,
,,,C,D,y,b,,,,,,,,,,5,19,119,2,3,0,3,0,0,0,0,0,,,,,,,,,,,,,,001,8,2019_Jun_05_1708,ACPT_experiment_5_30_19,3.1.0,59.96222542376285,
,,,C,D,y,b,R,D,y,L,y,,,,,5,19,119,2,3,0,3,0,,,,,0,0,0,26,,,,,,down,0.7169577411059436,2605.5288675188467,None,001,8,2019_Jun_05_1708,ACPT_experiment_5_30_19,3.1.0,59.96222542376285,
,,,C,D,y,b,R,G,y,L,y,,,,,5,19,119,2,3,0,3,0,,,,,0,1,1,28,,,,,,down,0.5337388664283935,2607.530143764824,None,001,8,2019_Jun_05_1708,ACPT_experiment_5_30_19,3.1.0,59.96222542376285,
,,,C,D,y,b,L,D,y,L,y,,,,,5,19,119,2,3,0,3,0,,,,,0,2,2,32,,,,,,down,0.483746427913502,2609.3482159270543,None,001,8,2019_Jun_05_1708,ACPT_experiment_5_30_19,3.1.0,59.96222542376285,
,,,C,D,y,b,R,D,y,R,y,,,,,5,19,119,2,3,0,3,0,,,,,0,3,3,27,,,,,,down,0.567093319601554,2611.1162129423055,None,001,8,2019_Jun_05_1708,ACPT_experiment_5_30_19,3.1.0,59.96222542376285,
,,,C,D,y,b,R,D,d,L,c,,,,,5,19,119,2,3,0,3,0,,,,,0,4,4,0,,,,,,up,0.7839301674903254,2612.9676262760577,None,001,8,2019_Jun_05_1708,ACPT_experiment_5_30_19,3.1.0,59.96222542376285,
,,,C,D,y,b,L,U,d,L,u,,,,,5,19,119,2,3,0,3,0,,,,,0,5,5,20,,,,,,up,0.6671708663343452,2615.0358643834707,None,001,8,2019_Jun_05_1708,ACPT_experiment_5_30_19,3.1.0,59.96222542376285,
,,,C,D,y,b,L,D,g,R,i,,,,,5,19,119,2,3,0,3,0,,,,,0,6,6,15,,,,,,down,0.8339684880738787,2616.98735435839,None,001,8,2019_Jun_05_1708,ACPT_experiment_5_30_19,3.1.0,59.96222542376285,
,,,C,D,y,b,L,U,g,R,u,,,,,5,19,119,2,3,0,3,0,,,,,0,7,7,23,,,,,,down,0.7170962928794324,2619.1056368234995,None,001,8,2019_Jun_05_1708,ACPT_experiment_5_30_19,3.1.0,59.96222542376285,
,,,C,D,y,b,R,G,d,R,i,,,,,5,19,119,2,3,0,3,0,,,,,0,8,8,5,,,,,,up,0.9173630729637807,2621.1071605911666,None,001,8,2019_Jun_05_1708,ACPT_experiment_5_30_19,3.1.0,59.96222542376285,
,,,C,D,y,b,R,D,d,R,c ,,,,,5,19,119,2,3,0,3,0,,,,,0,9,9,1,,,,,,up,0.7005256213615212,2623.3088385467336,None,001,8,2019_Jun_05_1708,ACPT_experiment_5_30_19,3.1.0,59.96222542376285,
,,,C,D,y,b,R,G,y,R,y,,,,,5,19,119,2,3,0,3,0,,,,,0,10,10,29,,,,,,down,0.58379046866321,2625.327045578101,None,001,8,2019_Jun_05_1708,ACPT_experiment_5_30_19,3.1.0,59.96222542376285,
,,,C,D,y,b,L,G,y,R,y,,,,,5,19,119,2,3,0,3,0,,,,,0,11,11,35,,,,,,down,0.5503910389888915,2627.211837815338,None,001,8,2019_Jun_05_1708,ACPT_experiment_5_30_19,3.1.0,59.96222542376285,
,,,C,D,y,b,L,G,y,L,y,,,,,5,19,119,2,3,0,3,0,,,,,0,12,12,34,,,,,,down,0.7672710522492707,2629.046542227653,None,001,8,2019_Jun_05_1708,ACPT_experiment_5_30_19,3.1.0,59.96222542376285,
,,,C,D,y,b,R,U,g,R,u,,,,,5,19,119,2,3,0,3,0,,,,,0,13,13,11,,,,,,down,0.7836491398174985,2631.115064381297,None,001,8,2019_Jun_05_1708,ACPT_experiment_5_30_19,3.1.0,59.96222542376285,
,,,C,D,y,b,R,U,d,R,u,,,,,5,19,119,2,3,0,3,0,,,,,0,14,14,9,,,,,,up,0.7672423759540834,2633.183037459389,None,001,8,2019_Jun_05_1708,ACPT_experiment_5_30_19,3.1.0,59.96222542376285,
,,,C,D,y,b,L,D,y,R,y,,,,,5,19,119,2,3,0,3,0,,,,,0,15,15,33,,,,,,down,0.4503485075183562,2635.234595623516,None,001,8,2019_Jun_05_1708,ACPT_experiment_5_30_19,3.1.0,59.96222542376285,
,,,C,D,y,b,R,U,d,L,u,,,,,5,19,119,2,3,0,3,0,,,,,0,16,16,8,,,,,,up,0.7505802421546832,2636.969263239619,None,001,8,2019_Jun_05_1708,ACPT_experiment_5_30_19,3.1.0,59.96222542376285,
,,,C,D,y,b,L,U,d,R,u,,,,,5,19,119,2,3,0,3,0,,,,,0,17,17,21,,,,,,up,0.8339832790043147,2639.0041302917953,None,001,8,2019_Jun_05_1708,ACPT_experiment_5_30_19,3.1.0,59.96222542376285,
,,,C,D,y,b,L,G,g,R,c ,,,,,5,19,119,2,3,0,3,0,,,,,0,18,18,19,,,,,,down,0.6004682989623689,2641.122429962682,None,001,8,2019_Jun_05_1708,ACPT_experiment_5_30_19,3.1.0,59.96222542376285,
,,,C,D,y,b,R,U,y,L,u,,,,,5,19,119,2,3,0,3,0,,,,,0,19,19,30,,,,,,down,0.750602579477345,2643.007181147542,None,001,8,2019_Jun_05_1708,ACPT_experiment_5_30_19,3.1.0,59.96222542376285,
,,,C,D,y,b,L,G,d,L,i,,,,,5,19,119,2,3,0,3,0,,,,,0,20,20,16,,,,,,up,0.8172779798369447,2645.042070235185,None,001,8,2019_Jun_05_1708,ACPT_experiment_5_30_19,3.1.0,59.96222542376285,
,,,C,D,y,b,R,U,g,L,u,,,,,5,19,119,2,3,0,3,0,,,,,0,21,21,10,,,,,,down,0.7505769217405032,2647.1436676254607,None,001,8,2019_Jun_05_1708,ACPT_experiment_5_30_19,3.1.0,59.96222542376285,
,,,C,D,y,b,R,G,d,L,i,,,,,5,19,119,2,3,0,3,0,,,,,0,22,22,4,,,,,,up,0.6503780290076975,2649.178551581558,None,001,8,2019_Jun_05_1708,ACPT_experiment_5_30_19,3.1.0,59.96222542376285,
,,,C,D,y,b,L,G,g,L,c ,,,,,5,19,119,2,3,0,3,0,,,,,0,23,23,18,,,,,,down,0.6671971277810371,2651.1133591983444,None,001,8,2019_Jun_05_1708,ACPT_experiment_5_30_19,3.1.0,59.96222542376285,
,,,C,D,y,b,L,D,d,R,c ,,,,,5,19,119,2,3,0,3,0,,,,,0,24,24,13,,,,,,up,0.6171174529663404,2653.06486064378,None,001,8,2019_Jun_05_1708,ACPT_experiment_5_30_19,3.1.0,59.96222542376285,
,,,C,D,y,b,R,D,g,L,i,,,,,5,19,119,2,3,0,3,0,,,,,0,25,25,2,,,,,,down,0.5671050919736444,2654.9662972053293,None,001,8,2019_Jun_05_1708,ACPT_experiment_5_30_19,3.1.0,59.96222542376285,
,,,C,D,y,b,L,U,y,L,u,,,,,5,19,119,2,3,0,3,0,,,,,0,26,26,24,,,,,,down,0.6003810626589257,2656.867807419675,None,001,8,2019_Jun_05_1708,ACPT_experiment_5_30_19,3.1.0,59.96222542376285,
,,,C,D,y,b,L,G,d,R,i,,,,,5,19,119,2,3,0,3,0,,,,,0,27,27,17,,,,,,up,0.6838535263232188,2658.7691990047215,None,001,8,2019_Jun_05_1708,ACPT_experiment_5_30_19,3.1.0,59.96222542376285,
,,,C,D,y,b,R,G,g,R,c ,,,,,5,19,119,2,3,0,3,0,,,,,0,28,28,7,,,,,,down,0.900683129675599,2660.7373680173614,None,001,8,2019_Jun_05_1708,ACPT_experiment_5_30_19,3.1.0,59.96222542376285,
,,,C,D,y,b,L,D,g,L,i,,,,,5,19,119,2,3,0,3,0,,,,,0,29,29,14,,,,,,down,1.0007181147539086,2662.922407685731,None,001,8,2019_Jun_05_1708,ACPT_experiment_5_30_19,3.1.0,59.96222542376285,
,,,C,D,y,b,R,U,y,R,u,,,,,5,19,119,2,3,0,3,0,,,,,0,30,30,31,,,,,,down,0.6004483764845645,2665.2074400793763,None,001,8,2019_Jun_05_1708,ACPT_experiment_5_30_19,3.1.0,59.96222542376285,
,,,C,D,y,b,R,G,g,L,c ,,,,,5,19,119,2,3,0,3,0,,,,,0,31,31,6,,,,,,down,0.7672354332735267,2667.0922078662998,None,001,8,2019_Jun_05_1708,ACPT_experiment_5_30_19,3.1.0,59.96222542376285,
,,,C,D,y,b,L,U,y,R,u,,,,,5,19,119,2,3,0,3,0,,,,,0,32,32,25,,,,,,down,0.5837569626801269,2669.1771401042197,None,001,8,2019_Jun_05_1708,ACPT_experiment_5_30_19,3.1.0,59.96222542376285,
,,,C,D,y,b,R,D,g,R,i,,,,,5,19,119,2,3,0,3,0,,,,,0,33,33,3,,,,,,down,0.5003708297499543,2671.0618979299043,None,001,8,2019_Jun_05_1708,ACPT_experiment_5_30_19,3.1.0,59.96222542376285,
,,,C,D,y,b,L,U,g,L,u,,,,,5,19,119,2,3,0,3,0,,,,,0,34,34,22,,,,,,down,0.6338139983181463,2672.846593905352,None,001,8,2019_Jun_05_1708,ACPT_experiment_5_30_19,3.1.0,59.96222542376285,
,,,C,D,y,b,L,D,d,L,c ,,,,,5,19,119,2,3,0,3,0,,,,,0,35,35,12,,,,,,down,0.4003035461100808,2674.76472157885,None,001,8,2019_Jun_05_1708,ACPT_experiment_5_30_19,3.1.0,59.96222542376285,
,,,C,D,y,b,R,U,g,R,u,,,,,5,19,119,2,3,0,3,0,,,,,1,0,36,11,,,,,,down,1.017170458830151,2676.4662864894517,None,001,8,2019_Jun_05_1708,ACPT_experiment_5_30_19,3.1.0,59.96222542376285,
,,,C,D,y,b,R,G,d,R,i,,,,,5,19,119,2,3,0,3,0,,,,,1,1,37,5,,,,,,up,0.7172161296002741,2678.7677712271734,None,001,8,2019_Jun_05_1708,ACPT_experiment_5_30_19,3.1.0,59.96222542376285,
,,,C,D,y,b,L,G,d,R,i,,,,,5,19,119,2,3,0,3,0,,,,,1,2,38,17,,,,,,up,0.533729810756995,2680.7526298424827,None,001,8,2019_Jun_05_1708,ACPT_experiment_5_30_19,3.1.0,59.96222542376285,
,,,C,D,y,b,L,G,y,L,y,,,,,5,19,119,2,3,0,3,0,,,,,1,3,39,34,,,,,,down,0.7503233629377064,2682.5709181334087,None,001,8,2019_Jun_05_1708,ACPT_experiment_5_30_19,3.1.0,59.96222542376285,
,,,C,D,y,b,R,G,g,L,c ,,,,,5,19,119,2,3,0,3,0,,,,,1,4,40,6,,,,,,down,0.6671938073686761,2684.6055584919404,None,001,8,2019_Jun_05_1708,ACPT_experiment_5_30_19,3.1.0,59.96222542376285,
,,,C,D,y,b,L,U,g,L,u,,,,,5,19,119,2,3,0,3,0,,,,,1,5,41,22,,,,,,down,0.5003792817115027,2686.5570400149,None,001,8,2019_Jun_05_1708,ACPT_experiment_5_30_19,3.1.0,59.96222542376285,
,,,C,D,y,b,R,U,d,R,u,,,,,5,19,119,2,3,0,3,0,,,,,1,6,42,9,,,,,,up,0.8840412202080188,2688.341735386636,None,001,8,2019_Jun_05_1708,ACPT_experiment_5_30_19,3.1.0,59.96222542376285,
,,,C,D,y,b,R,G,d,L,i,,,,,5,19,119,2,3,0,3,0,,,,,1,7,43,4,,,,,,up,0.7505908071052545,2690.5100552667636,None,001,8,2019_Jun_05_1708,ACPT_experiment_5_30_19,3.1.0,59.96222542376285,
,,,C,D,y,b,R,G,g,R,c ,,,,,5,19,119,2,3,0,3,0,,,,,1,8,44,7,,,,,,down,0.7172158277444396,2692.528251129469,None,001,8,2019_Jun_05_1708,ACPT_experiment_5_30_19,3.1.0,59.96222542376285,
,,,C,D,y,b,R,D,g,L,i,,,,,5,19,119,2,3,0,3,0,,,,,1,9,45,2,,,,,,down,0.9840798275563429,2694.52978727322,None,001,8,2019_Jun_05_1708,ACPT_experiment_5_30_19,3.1.0,59.96222542376285,
,,,C,D,y,b,R,D,d,R,c ,,,,,5,19,119,2,3,0,3,0,,,,,1,10,46,1,,,,,,up,0.7839522029589716,2696.781476986068,None,001,8,2019_Jun_05_1708,ACPT_experiment_5_30_19,3.1.0,59.96222542376285,
,,,C,D,y,b,R,D,d,L,c,,,,,5,19,119,2,3,0,3,0,,,,,1,11,47,0,,,,,,up,1.050828880710469,2698.8330411873076,None,001,8,2019_Jun_05_1708,ACPT_experiment_5_30_19,3.1.0,59.96222542376285,
,,,C,D,y,b,R,D,g,R,i,,,,,5,19,119,2,3,0,3,0,,,,,1,12,48,3,,,,,,down,0.9007166356605012,2701.151477538463,None,001,8,2019_Jun_05_1708,ACPT_experiment_5_30_19,3.1.0,59.96222542376285,
,,,C,D,y,b,R,G,y,R,y,,,,,5,19,119,2,3,0,3,0,,,,,1,13,49,29,,,,,,down,0.817282507672644,2703.336503925181,None,001,8,2019_Jun_05_1708,ACPT_experiment_5_30_19,3.1.0,59.96222542376285,
,,,C,D,y,b,L,U,y,R,u,,,,,5,19,119,2,3,0,3,0,,,,,1,14,50,25,,,,,,down,0.6004646766923543,2705.4380904486525,None,001,8,2019_Jun_05_1708,ACPT_experiment_5_30_19,3.1.0,59.96222542376285,
,,,C,D,y,b,R,U,y,R,u,,,,,5,19,119,2,3,0,3,0,,,,,1,15,51,31,,,,,,down,0.6671702626244951,2707.322866083824,None,001,8,2019_Jun_05_1708,ACPT_experiment_5_30_19,3.1.0,59.96222542376285,
,,,C,D,y,b,L,G,y,R,y,,,,,5,19,119,2,3,0,3,0,,,,,1,16,52,35,,,,,,down,0.700533167755566,2709.2743572661648,None,001,8,2019_Jun_05_1708,ACPT_experiment_5_30_19,3.1.0,59.96222542376285,
,,,C,D,y,b,R,U,y,L,u,,,,,5,19,119,2,3,0,3,0,,,,,1,17,53,30,,,,,,down,0.817027741446509,2711.2761545151125,None,001,8,2019_Jun_05_1708,ACPT_experiment_5_30_19,3.1.0,59.96222542376285,
,,,C,D,y,b,L,D,g,L,i,,,,,5,19,119,2,3,0,3,0,,,,,1,18,54,14,,,,,,down,0.8506502424970677,2713.377483857511,None,001,8,2019_Jun_05_1708,ACPT_experiment_5_30_19,3.1.0,59.96222542376285,
,,,C,D,y,b,L,D,y,L,y,,,,,5,19,119,2,3,0,3,0,,,,,1,19,55,32,,,,,,down,0.5837805074243079,2715.512443549208,None,001,8,2019_Jun_05_1708,ACPT_experiment_5_30_19,3.1.0,59.96222542376285,
,,,C,D,y,b,L,G,g,R,c ,,,,,5,19,119,2,3,0,3,0,,,,,1,20,56,19,,,,,,down,0.6004535080319329,2717.380536222535,None,001,8,2019_Jun_05_1708,ACPT_experiment_5_30_19,3.1.0,59.96222542376285,
,,,C,D,y,b,L,U,g,R,u,,,,,5,19,119,2,3,0,3,0,,,,,1,21,57,23,,,,,,down,0.6504857915006141,2719.2653073298725,None,001,8,2019_Jun_05_1708,ACPT_experiment_5_30_19,3.1.0,59.96222542376285,
,,,C,D,y,b,L,D,g,R,i,,,,,5,19,119,2,3,0,3,0,,,,,1,22,58,15,,,,,,down,0.5003798854213528,2721.2001113243887,None,001,8,2019_Jun_05_1708,ACPT_experiment_5_30_19,3.1.0,59.96222542376285,
,,,C,D,y,b,R,G,y,L,y,,,,,5,19,119,2,3,0,3,0,,,,,1,23,59,28,,,,,,down,0.5504151874465606,2722.9848069979826,None,001,8,2019_Jun_05_1708,ACPT_experiment_5_30_19,3.1.0,59.96222542376285,
,,,C,D,y,b,R,D,y,R,y,,,,,5,19,119,2,3,0,3,0,,,,,1,24,60,27,,,,,,down,0.4670018875040114,2724.8195524626744,None,001,8,2019_Jun_05_1708,ACPT_experiment_5_30_19,3.1.0,59.96222542376285,
,,,C,D,y,b,L,U,d,R,u,,,,,5,19,119,2,3,0,3,0,,,,,1,25,61,21,,,,,,up,0.7505748087514803,2726.570870440205,None,001,8,2019_Jun_05_1708,ACPT_experiment_5_30_19,3.1.0,59.96222542376285,
,,,C,D,y,b,L,D,y,R,y,,,,,5,19,119,2,3,0,3,0,,,,,1,26,62,33,,,,,,down,0.5168898839383473,2728.622592813842,None,001,8,2019_Jun_05_1708,ACPT_experiment_5_30_19,3.1.0,59.96222542376285,
,,,C,D,y,b,L,D,d,R,c ,,,,,5,19,119,2,3,0,3,0,,,,,1,27,63,13,,,,,,up,0.617064628213484,2730.457229610477,None,001,8,2019_Jun_05_1708,ACPT_experiment_5_30_19,3.1.0,59.96222542376285,
,,,C,D,y,b,L,U,y,L,u,,,,,5,19,119,2,3,0,3,0,,,,,1,28,64,24,,,,,,down,0.5502162645298085,2732.3754647446103,None,001,8,2019_Jun_05_1708,ACPT_experiment_5_30_19,3.1.0,59.96222542376285,
,,,C,D,y,b,L,G,d,L,i,,,,,5,19,119,2,3,0,3,0,,,,,1,29,65,16,,,,,,up,0.900683129675599,2734.2100287940166,None,001,8,2019_Jun_05_1708,ACPT_experiment_5_30_19,3.1.0,59.96222542376285,
,,,C,D,y,b,R,D,y,L,y,,,,,5,19,119,2,3,0,3,0,,,,,1,30,66,26,,,,,,down,0.6338118853273045,2736.3950265044414,None,001,8,2019_Jun_05_1708,ACPT_experiment_5_30_19,3.1.0,59.96222542376285,
,,,C,D,y,b,L,U,d,L,u,,,,,5,19,119,2,3,0,3,0,,,,,1,31,67,20,,,,,,up,0.7672257738904591,2738.313175911552,None,001,8,2019_Jun_05_1708,ACPT_experiment_5_30_19,3.1.0,59.96222542376285,
,,,C,D,y,b,R,U,d,L,u,,,,,5,19,119,2,3,0,3,0,,,,,1,32,68,8,,,,,,up,0.7339072415488772,2740.3647192847466,None,001,8,2019_Jun_05_1708,ACPT_experiment_5_30_19,3.1.0,59.96222542376285,
,,,C,D,y,b,R,U,g,L,u,,,,,5,19,119,2,3,0,3,0,,,,,1,33,69,10,,,,,,down,0.8171988936392154,2742.366221016947,None,001,8,2019_Jun_05_1708,ACPT_experiment_5_30_19,3.1.0,59.96222542376285,
,,,C,D,y,b,L,D,d,L,c ,,,,,5,19,119,2,3,0,3,0,,,,,1,34,70,12,,,,,,up,0.7338915450509376,2744.4678479890836,None,001,8,2019_Jun_05_1708,ACPT_experiment_5_30_19,3.1.0,59.96222542376285,
,,,C,D,y,b,L,G,g,L,c ,,,,,5,19,119,2,3,0,3,0,,,,,1,35,71,18,,,,,,down,0.7172028479490109,2746.486055322305,None,001,8,2019_Jun_05_1708,ACPT_experiment_5_30_19,3.1.0,59.96222542376285,
,,,C,D,y,b,,,,,,,,,,5,19,119,2,4,0,4,0,0,0,0,0,,,,,,,,,,,,,,001,8,2019_Jun_05_1708,ACPT_experiment_5_30_19,3.1.0,59.96222542376285,
,,,C,D,y,b,L,D,g,R,i,,,,,5,19,119,2,4,0,4,0,,,,,0,0,0,15,,,,,,down,0.8503740445139556,2749.7554820771666,None,001,8,2019_Jun_05_1708,ACPT_experiment_5_30_19,3.1.0,59.96222542376285,
,,,C,D,y,b,R,G,d,L,i,,,,,5,19,119,2,4,0,4,0,,,,,0,1,1,4,,,,,,up,0.6671666403544805,2751.8901694950046,None,001,8,2019_Jun_05_1708,ACPT_experiment_5_30_19,3.1.0,59.96222542376285,
,,,C,D,y,b,L,G,d,R,i,,,,,5,19,119,2,4,0,4,0,,,,,0,2,2,17,,,,,,up,0.7005295454855514,2753.8416543383764,None,001,8,2019_Jun_05_1708,ACPT_experiment_5_30_19,3.1.0,59.96222542376285,
,,,C,D,y,b,R,D,d,L,c,,,,,5,19,119,2,4,0,4,0,,,,,0,3,3,0,,,,,,up,0.6171403940006712,2755.809820332458,None,001,8,2019_Jun_05_1708,ACPT_experiment_5_30_19,3.1.0,59.96222542376285,
,,,C,D,y,b,R,D,d,R,c ,,,,,5,19,119,2,4,0,4,0,,,,,0,4,4,1,,,,,,up,0.6505479737770656,2757.6945763470094,None,001,8,2019_Jun_05_1708,ACPT_experiment_5_30_19,3.1.0,59.96222542376285,
,,,C,D,y,b,R,U,d,R,u,,,,,5,19,119,2,4,0,4,0,,,,,0,5,5,9,,,,,,up,0.60044807462873,2759.6294072066858,None,001,8,2019_Jun_05_1708,ACPT_experiment_5_30_19,3.1.0,59.96222542376285,
,,,C,D,y,b,L,G,y,L,y,,,,,5,19,119,2,4,0,4,0,,,,,0,6,6,34,,,,,,down,0.6171292253384308,2761.51416925835,None,001,8,2019_Jun_05_1708,ACPT_experiment_5_30_19,3.1.0,59.96222542376285,
,,,C,D,y,b,L,D,d,L,c ,,,,,5,19,119,2,4,0,4,0,,,,,0,7,7,12,,,,,,up,0.8339654695155332,2763.4156224219632,None,001,8,2019_Jun_05_1708,ACPT_experiment_5_30_19,3.1.0,59.96222542376285,
,,,C,D,y,b,L,D,d,R,c ,,,,,5,19,119,2,4,0,4,0,,,,,0,8,8,13,,,,,,up,0.8172997134479374,2765.5338991518156,None,001,8,2019_Jun_05_1708,ACPT_experiment_5_30_19,3.1.0,59.96222542376285,
,,,C,D,y,b,R,D,y,R,y,,,,,5,19,119,2,4,0,4,0,,,,,0,9,9,27,,,,,,down,0.6338191298655147,2767.6354998625056,None,001,8,2019_Jun_05_1708,ACPT_experiment_5_30_19,3.1.0,59.96222542376285,
,,,C,D,y,b,R,D,y,L,y,,,,,5,19,119,2,4,0,4,0,,,,,0,10,10,26,,,,,,down,0.583920870334623,2769.536801494548,None,001,8,2019_Jun_05_1708,ACPT_experiment_5_30_19,3.1.0,59.96222542376285,
,,,C,D,y,b,L,U,d,R,u,,,,,5,19,119,2,4,0,4,0,,,,,0,11,11,21,,,,,,up,0.6504933378928399,2771.4050405679,None,001,8,2019_Jun_05_1708,ACPT_experiment_5_30_19,3.1.0,59.96222542376285,
,,,C,D,y,b,L,G,g,L,c ,,,,,5,19,119,2,4,0,4,0,,,,,0,12,12,18,,,,,,down,0.6838565448797453,2773.339849090252,None,001,8,2019_Jun_05_1708,ACPT_experiment_5_30_19,3.1.0,59.96222542376285,
,,,C,D,y,b,R,U,g,R,u,,,,,5,19,119,2,4,0,4,0,,,,,0,13,13,11,,,,,,down,0.7839114524358592,2775.308031384543,None,001,8,2019_Jun_05_1708,ACPT_experiment_5_30_19,3.1.0,59.96222542376285,
,,,C,D,y,b,L,D,y,L,y,,,,,5,19,119,2,4,0,4,0,,,,,0,14,14,32,,,,,,down,0.5504245449756127,2777.3762589270054,None,001,8,2019_Jun_05_1708,ACPT_experiment_5_30_19,3.1.0,59.96222542376285,
,,,C,D,y,b,R,U,d,L,u,,,,,5,19,119,2,4,0,4,0,,,,,0,15,15,8,,,,,,up,0.8172761687019374,2779.211006202834,None,001,8,2019_Jun_05_1708,ACPT_experiment_5_30_19,3.1.0,59.96222542376285,
,,,C,D,y,b,L,U,y,R,u,,,,,5,19,119,2,4,0,4,0,,,,,0,16,16,25,,,,,,down,0.6171394884313486,2781.3125972541393,None,001,8,2019_Jun_05_1708,ACPT_experiment_5_30_19,3.1.0,59.96222542376285,
,,,C,D,y,b,R,G,g,L,c ,,,,,5,19,119,2,4,0,4,0,,,,,0,17,17,6,,,,,,down,0.750560923388548,2783.21405494559,None,001,8,2019_Jun_05_1708,ACPT_experiment_5_30_19,3.1.0,59.96222542376285,
,,,C,D,y,b,L,G,d,L,i,,,,,5,19,119,2,4,0,4,0,,,,,0,18,18,16,,,,,,up,0.66717841272839,2785.248924110757,None,001,8,2019_Jun_05_1708,ACPT_experiment_5_30_19,3.1.0,59.96222542376285,
,,,C,D,y,b,L,G,g,R,c ,,,,,5,19,119,2,4,0,4,0,,,,,0,19,19,19,,,,,,down,0.6168657052949129,2787.2006839446867,None,001,8,2019_Jun_05_1708,ACPT_experiment_5_30_19,3.1.0,59.96222542376285,
,,,C,D,y,b,L,U,g,L,u,,,,,5,19,119,2,4,0,4,0,,,,,0,20,20,22,,,,,,down,0.650520806764689,2789.1018612121743,None,001,8,2019_Jun_05_1708,ACPT_experiment_5_30_19,3.1.0,59.96222542376285,
,,,C,D,y,b,R,G,y,R,y,,,,,5,19,119,2,4,0,4,0,,,,,0,21,21,29,,,,,,down,0.6504936397486745,2791.036669734528,None,001,8,2019_Jun_05_1708,ACPT_experiment_5_30_19,3.1.0,59.96222542376285,
,,,C,D,y,b,R,D,g,R,i,,,,,5,19,119,2,4,0,4,0,,,,,0,22,22,3,,,,,,down,0.7005355826022424,2792.9714767476025,None,001,8,2019_Jun_05_1708,ACPT_experiment_5_30_19,3.1.0,59.96222542376285,
,,,C,D,y,b,L,U,d,L,u,,,,,5,19,119,2,4,0,4,0,,,,,0,23,23,20,,,,,,up,0.7172088850638829,2794.9563266090945,None,001,8,2019_Jun_05_1708,ACPT_experiment_5_30_19,3.1.0,59.96222542376285,
,,,C,D,y,b,L,U,g,R,u,,,,,5,19,119,2,4,0,4,0,,,,,0,24,24,23,,,,,,down,0.5504127726017032,2796.9578509804733,None,001,8,2019_Jun_05_1708,ACPT_experiment_5_30_19,3.1.0,59.96222542376285,
,,,C,D,y,b,L,U,y,L,u,,,,,5,19,119,2,4,0,4,0,,,,,0,25,25,24,,,,,,down,0.5003738483064808,2798.7925834653697,None,001,8,2019_Jun_05_1708,ACPT_experiment_5_30_19,3.1.0,59.96222542376285,
,,,C,D,y,b,R,G,y,L,y,,,,,5,19,119,2,4,0,4,0,,,,,0,26,26,28,,,,,,down,0.45031258668859664,2800.5773050985545,None,001,8,2019_Jun_05_1708,ACPT_experiment_5_30_19,3.1.0,59.96222542376285,
,,,C,D,y,b,L,D,y,R,y,,,,,5,19,119,2,4,0,4,0,,,,,0,27,27,33,,,,,,down,0.48370175326817844,2802.3119241158884,None,001,8,2019_Jun_05_1708,ACPT_experiment_5_30_19,3.1.0,59.96222542376285,
,,,C,D,y,b,R,U,y,L,u,,,,,5,19,119,2,4,0,4,0,,,,,0,28,28,30,,,,,,down,0.5170562064395199,2804.0799437703163,None,001,8,2019_Jun_05_1708,ACPT_experiment_5_30_19,3.1.0,59.96222542376285,
,,,C,D,y,b,R,G,d,R,i,,,,,5,19,119,2,4,0,4,0,,,,,0,29,29,5,,,,,,up,0.7836479323941603,2805.9149292103075,None,001,8,2019_Jun_05_1708,ACPT_experiment_5_30_19,3.1.0,59.96222542376285,
,,,C,D,y,b,L,G,y,R,y,,,,,5,19,119,2,4,0,4,0,,,,,0,30,30,35,,,,,,down,0.9507244688156788,2807.9829143626275,None,001,8,2019_Jun_05_1708,ACPT_experiment_5_30_19,3.1.0,59.96222542376285,
,,,C,D,y,b,R,D,g,L,i,,,,,5,19,119,2,4,0,4,0,,,,,0,31,31,2,,,,,,down,0.667158188394751,2810.2179688068345,None,001,8,2019_Jun_05_1708,ACPT_experiment_5_30_19,3.1.0,59.96222542376285,
,,,C,D,y,b,L,D,g,L,i,,,,,5,19,119,2,4,0,4,0,,,,,0,32,32,14,,,,,,down,0.6338130927506427,2812.1694415759766,None,001,8,2019_Jun_05_1708,ACPT_experiment_5_30_19,3.1.0,59.96222542376285,
,,,C,D,y,b,R,G,g,R,c ,,,,,5,19,119,2,4,0,4,0,,,,,0,33,33,7,,,,,,down,0.5504082447660039,2814.0875731736005,None,001,8,2019_Jun_05_1708,ACPT_experiment_5_30_19,3.1.0,59.96222542376285,
,,,C,D,y,b,R,U,y,R,u,,,,,5,19,119,2,4,0,4,0,,,,,0,34,34,31,,,,,,down,0.5168461148605275,2815.939160376246,None,001,8,2019_Jun_05_1708,ACPT_experiment_5_30_19,3.1.0,59.96222542376285,
,,,C,D,y,b,R,U,g,L,u,,,,,5,19,119,2,4,0,4,0,,,,,0,35,35,10,,,,,,down,0.6171340550299647,2817.757034521125,None,001,8,2019_Jun_05_1708,ACPT_experiment_5_30_19,3.1.0,59.96222542376285,
,,,C,D,y,b,R,D,d,R,c ,,,,,5,19,119,2,4,0,4,0,,,,,1,0,36,1,,,,,,up,0.6638767148797342,2819.6784916631977,None,001,8,2019_Jun_05_1708,ACPT_experiment_5_30_19,3.1.0,59.96222542376285,
,,,C,D,y,b,R,D,y,R,y,,,,,5,19,119,2,4,0,4,0,,,,,1,1,37,27,,,,,,down,0.7338909413410875,2821.626652773254,None,001,8,2019_Jun_05_1708,ACPT_experiment_5_30_19,3.1.0,59.96222542376285,
,,,C,D,y,b,R,U,d,L,u,,,,,5,19,119,2,4,0,4,0,,,,,1,2,38,8,,,,,,up,0.8172924689115462,2823.6448546730744,None,001,8,2019_Jun_05_1708,ACPT_experiment_5_30_19,3.1.0,59.96222542376285,
,,,C,D,y,b,L,D,g,R,i,,,,,5,19,119,2,4,0,4,0,,,,,1,3,39,15,,,,,,down,0.6671648292212922,2825.7464713821164,None,001,8,2019_Jun_05_1708,ACPT_experiment_5_30_19,3.1.0,59.96222542376285,
,,,C,D,y,b,R,U,d,R,u,,,,,5,19,119,2,4,0,4,0,,,,,1,4,40,9,,,,,,up,0.7338761504088325,2827.697958640333,None,001,8,2019_Jun_05_1708,ACPT_experiment_5_30_19,3.1.0,59.96222542376285,
,,,C,D,y,b,L,D,g,L,i,,,,,5,19,119,2,4,0,4,0,,,,,1,5,41,14,,,,,,down,0.75056696050342,2829.716153899327,None,001,8,2019_Jun_05_1708,ACPT_experiment_5_30_19,3.1.0,59.96222542376285,
,,,C,D,y,b,L,U,g,R,u,,,,,5,19,119,2,4,0,4,0,,,,,1,6,42,23,,,,,,down,0.6171684665823705,2831.751028497897,None,001,8,2019_Jun_05_1708,ACPT_experiment_5_30_19,3.1.0,59.96222542376285,
,,,C,D,y,b,L,U,g,L,u,,,,,5,19,119,2,4,0,4,0,,,,,1,7,43,22,,,,,,down,0.6338716527588986,2833.6524804540886,None,001,8,2019_Jun_05_1708,ACPT_experiment_5_30_19,3.1.0,59.96222542376285,
,,,C,D,y,b,L,D,d,R,c ,,,,,5,19,119,2,4,0,4,0,,,,,1,8,44,13,,,,,,up,0.7672466019339481,2835.5706147684114,None,001,8,2019_Jun_05_1708,ACPT_experiment_5_30_19,3.1.0,59.96222542376285,
,,,C,D,y,b,R,G,d,R,i,,,,,5,19,119,2,4,0,4,0,,,,,1,9,45,5,,,,,,up,0.7672342258501885,2837.62218047893,None,001,8,2019_Jun_05_1708,ACPT_experiment_5_30_19,3.1.0,59.96222542376285,
,,,C,D,y,b,L,U,d,R,u,,,,,5,19,119,2,4,0,4,0,,,,,1,10,46,21,,,,,,up,0.5337286033354758,2839.673744378316,None,001,8,2019_Jun_05_1708,ACPT_experiment_5_30_19,3.1.0,59.96222542376285,
,,,C,D,y,b,L,G,d,L,i,,,,,5,19,119,2,4,0,4,0,,,,,1,11,47,16,,,,,,up,0.6505060158324341,2841.4917942032234,None,001,8,2019_Jun_05_1708,ACPT_experiment_5_30_19,3.1.0,59.96222542376285,
,,,C,D,y,b,R,D,g,L,i,,,,,5,19,119,2,4,0,4,0,,,,,1,12,48,2,,,,,,down,0.6171343568857992,2843.4265988014513,None,001,8,2019_Jun_05_1708,ACPT_experiment_5_30_19,3.1.0,59.96222542376285,
,,,C,D,y,b,R,G,y,L,y,,,,,5,19,119,2,4,0,4,0,,,,,1,13,49,28,,,,,,down,0.4332338919994072,2845.345128546768,None,001,8,2019_Jun_05_1708,ACPT_experiment_5_30_19,3.1.0,59.96222542376285,
,,,C,D,y,b,L,G,y,L,y,,,,,5,19,119,2,4,0,4,0,,,,,1,14,50,34,,,,,,down,0.40031984631968953,2847.0626806417813,None,001,8,2019_Jun_05_1708,ACPT_experiment_5_30_19,3.1.0,59.96222542376285,
,,,C,D,y,b,R,G,y,R,y,,,,,5,19,119,2,4,0,4,0,,,,,1,15,51,29,,,,,,down,0.7005518828100321,2848.7306462942242,None,001,8,2019_Jun_05_1708,ACPT_experiment_5_30_19,3.1.0,59.96222542376285,
,,,C,D,y,b,R,G,g,L,c ,,,,,5,19,119,2,4,0,4,0,,,,,1,16,52,6,,,,,,down,0.6838806933374144,2850.69878874356,None,001,8,2019_Jun_05_1708,ACPT_experiment_5_30_19,3.1.0,59.96222542376285,
,,,C,D,y,b,R,D,y,L,y,,,,,5,19,119,2,4,0,4,0,,,,,1,17,53,26,,,,,,down,0.45012996397963434,2852.7005002654832,None,001,8,2019_Jun_05_1708,ACPT_experiment_5_30_19,3.1.0,59.96222542376285,
,,,C,D,y,b,L,U,y,L,u,,,,,5,19,119,2,4,0,4,0,,,,,1,18,54,24,,,,,,down,0.4002996219860506,2854.4516658058756,None,001,8,2019_Jun_05_1708,ACPT_experiment_5_30_19,3.1.0,59.96222542376285,
,,,C,D,y,b,R,D,d,L,c,,,,,5,19,119,2,4,0,4,0,,,,,1,19,55,0,,,,,,up,0.9173654878086381,2856.1362869512914,None,001,8,2019_Jun_05_1708,ACPT_experiment_5_30_19,3.1.0,59.96222542376285,
,,,C,D,y,b,L,G,g,R,c ,,,,,5,19,119,2,4,0,4,0,,,,,1,20,56,19,,,,,,down,0.9340424125402933,2858.3379609827343,None,001,8,2019_Jun_05_1708,ACPT_experiment_5_30_19,3.1.0,59.96222542376285,
,,,C,D,y,b,R,G,g,R,c ,,,,,5,19,119,2,4,0,4,0,,,,,1,21,57,7,,,,,,down,0.934046638520158,2860.556319787155,None,001,8,2019_Jun_05_1708,ACPT_experiment_5_30_19,3.1.0,59.96222542376285,
,,,C,D,y,b,L,U,d,L,u,,,,,5,19,119,2,4,0,4,0,,,,,1,22,58,20,,,,,,up,0.8673193189770245,2862.774678591578,None,001,8,2019_Jun_05_1708,ACPT_experiment_5_30_19,3.1.0,59.96222542376285,
,,,C,D,y,b,R,U,y,R,u,,,,,5,19,119,2,4,0,4,0,,,,,1,23,59,31,,,,,,down,0.7505883922603971,2864.926297096662,None,001,8,2019_Jun_05_1708,ACPT_experiment_5_30_19,3.1.0,59.96222542376285,
,,,C,D,y,b,R,D,g,R,i,,,,,5,19,119,2,4,0,4,0,,,,,1,24,60,3,,,,,,down,0.75056696050342,2866.961205804927,None,001,8,2019_Jun_05_1708,ACPT_experiment_5_30_19,3.1.0,59.96222542376285,
,,,C,D,y,b,L,D,y,L,y,,,,,5,19,119,2,4,0,4,0,,,,,1,25,61,32,,,,,,down,1.0841600909916451,2868.9960743663823,None,001,8,2019_Jun_05_1708,ACPT_experiment_5_30_19,3.1.0,59.96222542376285,
,,,C,D,y,b,L,G,d,R,i,,,,,5,19,119,2,4,0,4,0,,,,,1,26,62,17,,,,,,up,0.8172906577765389,2871.3645577919388,None,001,8,2019_Jun_05_1708,ACPT_experiment_5_30_19,3.1.0,59.96222542376285,
,,,C,D,y,b,R,G,d,L,i,,,,,5,19,119,2,4,0,4,0,,,,,1,27,63,4,,,,,,up,0.7505889959702472,2873.4661597100503,None,001,8,2019_Jun_05_1708,ACPT_experiment_5_30_19,3.1.0,59.96222542376285,
,,,C,D,y,b,R,U,g,L,u,,,,,5,19,119,2,4,0,4,0,,,,,1,28,64,10,,,,,,down,0.683821831473324,2875.5010635886238,None,001,8,2019_Jun_05_1708,ACPT_experiment_5_30_19,3.1.0,59.96222542376285,
,,,C,D,y,b,R,U,y,L,u,,,,,5,19,119,2,4,0,4,0,,,,,1,29,65,30,,,,,,down,0.4670296582298761,2877.4692075472385,None,001,8,2019_Jun_05_1708,ACPT_experiment_5_30_19,3.1.0,59.96222542376285,
,,,C,D,y,b,L,U,y,R,u,,,,,5,19,119,2,4,0,4,0,,,,,1,30,66,25,,,,,,down,0.5504124707458686,2879.2205484658034,None,001,8,2019_Jun_05_1708,ACPT_experiment_5_30_19,3.1.0,59.96222542376285,
,,,C,D,y,b,L,D,y,R,y,,,,,5,19,119,2,4,0,4,0,,,,,1,31,67,33,,,,,,down,0.4336576974274067,2881.0552794414225,None,001,8,2019_Jun_05_1708,ACPT_experiment_5_30_19,3.1.0,59.96222542376285,
,,,C,D,y,b,R,U,g,R,u,,,,,5,19,119,2,4,0,4,0,,,,,1,32,68,11,,,,,,down,0.5334671962827997,2882.7902027293194,None,001,8,2019_Jun_05_1708,ACPT_experiment_5_30_19,3.1.0,59.96222542376285,
,,,C,D,y,b,L,D,d,L,c ,,,,,5,19,119,2,4,0,4,0,,,,,1,33,69,12,,,,,,down,0.5337388664283935,2884.6079869211962,None,001,8,2019_Jun_05_1708,ACPT_experiment_5_30_19,3.1.0,59.96222542376285,
,,,C,D,y,b,L,G,y,R,y,,,,,5,19,119,2,4,0,4,0,,,,,1,34,70,35,,,,,,down,0.383631752927613,2886.4260291997116,None,001,8,2019_Jun_05_1708,ACPT_experiment_5_30_19,3.1.0,59.96222542376285,
,,,C,D,y,b,L,G,g,L,c ,,,,,5,19,119,2,4,0,4,0,,,,,1,35,71,18,,,,,,down,0.5170233041681058,2888.093992437308,None,001,8,2019_Jun_05_1708,ACPT_experiment_5_30_19,3.1.0,59.96222542376285,
,,,C,D,y,b,,,,,,,,,,5,19,119,2,5,0,5,0,0,0,0,0,,,,,,,,,,,,,,001,8,2019_Jun_05_1708,ACPT_experiment_5_30_19,3.1.0,59.96222542376285,
,,,C,D,y,b,R,U,g,L,u,,,,,5,19,119,2,5,0,5,0,,,,,0,0,0,10,,,,,,down,0.9836949615146295,2894.582527504338,None,001,8,2019_Jun_05_1708,ACPT_experiment_5_30_19,3.1.0,59.96222542376285,
,,,C,D,y,b,R,U,y,R,u,,,,,5,19,119,2,5,0,5,0,,,,,0,1,1,31,,,,,,down,0.6838508096225269,2896.8506535629085,None,001,8,2019_Jun_05_1708,ACPT_experiment_5_30_19,3.1.0,59.96222542376285,
,,,C,D,y,b,R,U,d,L,u,,,,,5,19,119,2,5,0,5,0,,,,,0,2,2,8,,,,,,up,0.8006288258329732,2898.8188186514244,None,001,8,2019_Jun_05_1708,ACPT_experiment_5_30_19,3.1.0,59.96222542376285,
,,,C,D,y,b,R,G,g,L,c ,,,,,5,19,119,2,5,0,5,0,,,,,0,3,3,6,,,,,,down,0.7005340733230696,2900.903736400268,None,001,8,2019_Jun_05_1708,ACPT_experiment_5_30_19,3.1.0,59.96222542376285,
,,,C,D,y,b,R,G,g,R,c ,,,,,5,19,119,2,5,0,5,0,,,,,0,4,4,7,,,,,,down,1.0341181481398962,2902.8885862617617,None,001,8,2019_Jun_05_1708,ACPT_experiment_5_30_19,3.1.0,59.96222542376285,
,,,C,D,y,b,L,D,y,R,y,,,,,5,19,119,2,5,0,5,0,,,,,0,5,5,33,,,,,,down,0.7505781291638414,2905.20701748137,None,001,8,2019_Jun_05_1708,ACPT_experiment_5_30_19,3.1.0,59.96222542376285,
,,,C,D,y,b,R,G,d,R,i,,,,,5,19,119,2,5,0,5,0,,,,,0,6,6,5,,,,,,up,0.7002950035930553,2907.2754988844927,None,001,8,2019_Jun_05_1708,ACPT_experiment_5_30_19,3.1.0,59.96222542376285,
,,,C,D,y,b,L,U,d,L,u,,,,,5,19,119,2,5,0,5,0,,,,,0,7,7,20,,,,,,up,0.7172360520762595,2909.2601114873914,None,001,8,2019_Jun_05_1708,ACPT_experiment_5_30_19,3.1.0,59.96222542376285,
,,,C,D,y,b,R,D,d,L,c,,,,,5,19,119,2,5,0,5,0,,,,,0,8,8,0,,,,,,up,0.9674029028246878,2911.2616355569144,None,001,8,2019_Jun_05_1708,ACPT_experiment_5_30_19,3.1.0,59.96222542376285,
,,,C,D,y,b,L,U,y,L,u,,,,,5,19,119,2,5,0,5,0,,,,,0,9,9,24,,,,,,down,0.6671759978817136,2913.513347607085,None,001,8,2019_Jun_05_1708,ACPT_experiment_5_30_19,3.1.0,59.96222542376285,
,,,C,D,y,b,L,D,d,L,c ,,,,,5,19,119,2,5,0,5,0,,,,,0,10,10,12,,,,,,up,0.6171334513182956,2915.464836072725,None,001,8,2019_Jun_05_1708,ACPT_experiment_5_30_19,3.1.0,59.96222542376285,
,,,C,D,y,b,L,U,y,R,u,,,,,5,19,119,2,5,0,5,0,,,,,0,11,11,25,,,,,,down,0.9673896211752435,2917.366304932836,None,001,8,2019_Jun_05_1708,ACPT_experiment_5_30_19,3.1.0,59.96222542376285,
,,,C,D,y,b,L,G,y,L,y,,,,,5,19,119,2,5,0,5,0,,,,,0,12,12,34,,,,,,down,0.7172137147535977,2919.6179997772315,None,001,8,2019_Jun_05_1708,ACPT_experiment_5_30_19,3.1.0,59.96222542376285,
,,,C,D,y,b,R,G,y,R,y,,,,,5,19,119,2,5,0,5,0,,,,,0,13,13,29,,,,,,down,0.8339684880756977,2921.602850544291,None,001,8,2019_Jun_05_1708,ACPT_experiment_5_30_19,3.1.0,59.96222542376285,
,,,C,D,y,b,L,U,d,R,u,,,,,5,19,119,2,5,0,5,0,,,,,0,14,14,21,,,,,,up,0.7672810134863539,2923.72112546301,None,001,8,2019_Jun_05_1708,ACPT_experiment_5_30_19,3.1.0,59.96222542376285,
,,,C,D,y,b,L,G,y,R,y,,,,,5,19,119,2,5,0,5,0,,,,,0,15,15,35,,,,,,down,0.617135866164972,2925.77268966425,None,001,8,2019_Jun_05_1708,ACPT_experiment_5_30_19,3.1.0,59.96222542376285,
,,,C,D,y,b,L,G,g,R,c ,,,,,5,19,119,2,5,0,5,0,,,,,0,16,16,19,,,,,,down,0.6004504894735874,2927.6741452427095,None,001,8,2019_Jun_05_1708,ACPT_experiment_5_30_19,3.1.0,59.96222542376285,
,,,C,D,y,b,R,D,d,R,c ,,,,,5,19,119,2,5,0,5,0,,,,,0,17,17,1,,,,,,up,0.9172381046973896,2929.5589257075726,None,001,8,2019_Jun_05_1708,ACPT_experiment_5_30_19,3.1.0,59.96222542376285,
,,,C,D,y,b,R,D,y,R,y,,,,,5,19,119,2,5,0,5,0,,,,,0,18,18,27,,,,,,down,0.6338399579090037,2931.743884780465,None,001,8,2019_Jun_05_1708,ACPT_experiment_5_30_19,3.1.0,59.96222542376285,
,,,C,D,y,b,L,D,y,L,y,,,,,5,19,119,2,5,0,5,0,,,,,0,19,19,32,,,,,,down,0.6337964906851994,2933.6787307329278,None,001,8,2019_Jun_05_1708,ACPT_experiment_5_30_19,3.1.0,59.96222542376285,
,,,C,D,y,b,L,U,g,L,u,,,,,5,19,119,2,5,0,5,0,,,,,0,20,20,22,,,,,,down,0.7005298473413859,2935.6135253699167,None,001,8,2019_Jun_05_1708,ACPT_experiment_5_30_19,3.1.0,59.96222542376285,
,,,C,D,y,b,L,D,g,L,i,,,,,5,19,119,2,5,0,5,0,,,,,0,21,21,14,,,,,,down,0.4837008477006748,2937.598372212854,None,001,8,2019_Jun_05_1708,ACPT_experiment_5_30_19,3.1.0,59.96222542376285,
,,,C,D,y,b,R,U,y,L,u,,,,,5,19,119,2,5,0,5,0,,,,,0,22,22,30,,,,,,down,0.43367067722283537,2939.3830672827344,None,001,8,2019_Jun_05_1708,ACPT_experiment_5_30_19,3.1.0,59.96222542376285,
,,,C,D,y,b,L,D,g,R,i,,,,,5,19,119,2,5,0,5,0,,,,,0,23,23,15,,,,,,down,0.7505681679249392,2941.117721919042,None,001,8,2019_Jun_05_1708,ACPT_experiment_5_30_19,3.1.0,59.96222542376285,
,,,C,D,y,b,L,G,d,L,i,,,,,5,19,119,2,5,0,5,0,,,,,0,24,24,16,,,,,,up,0.7839286582111527,2943.152605573284,None,001,8,2019_Jun_05_1708,ACPT_experiment_5_30_19,3.1.0,59.96222542376285,
,,,C,D,y,b,R,U,d,R,u,,,,,5,19,119,2,5,0,5,0,,,,,0,25,25,9,,,,,,up,0.750436558832007,2945.2208717532785,None,001,8,2019_Jun_05_1708,ACPT_experiment_5_30_19,3.1.0,59.96222542376285,
,,,C,D,y,b,R,D,g,L,i,,,,,5,19,119,2,5,0,5,0,,,,,0,26,26,2,,,,,,down,0.8840122420606349,2947.255730655351,None,001,8,2019_Jun_05_1708,ACPT_experiment_5_30_19,3.1.0,59.96222542376285,
,,,C,D,y,b,R,D,y,L,y,,,,,5,19,119,2,5,0,5,0,,,,,0,27,27,26,,,,,,down,0.46701879142347025,2949.4240538558906,None,001,8,2019_Jun_05_1708,ACPT_experiment_5_30_19,3.1.0,59.96222542376285,
,,,C,D,y,b,R,U,g,R,u,,,,,5,19,119,2,5,0,5,0,,,,,0,28,28,11,,,,,,down,0.5837738665995857,2951.1753848132166,None,001,8,2019_Jun_05_1708,ACPT_experiment_5_30_19,3.1.0,59.96222542376285,
,,,C,D,y,b,L,D,d,R,c ,,,,,5,19,119,2,5,0,5,0,,,,,0,29,29,13,,,,,,up,0.9173597525514197,2953.0434765809778,None,001,8,2019_Jun_05_1708,ACPT_experiment_5_30_19,3.1.0,59.96222542376285,
,,,C,D,y,b,R,G,d,L,i,,,,,5,19,119,2,5,0,5,0,,,,,0,30,30,4,,,,,,up,1.501169539980765,2955.2451533291214,None,001,8,2019_Jun_05_1708,ACPT_experiment_5_30_19,3.1.0,59.96222542376285,
,,,C,D,y,b,R,G,y,L,y,,,,,5,19,119,2,5,0,5,0,,,,,0,31,31,28,,,,,,down,0.5837726591762475,2958.0306120939704,None,001,8,2019_Jun_05_1708,ACPT_experiment_5_30_19,3.1.0,59.96222542376285,
,,,C,D,y,b,L,G,g,L,c ,,,,,5,19,119,2,5,0,5,0,,,,,0,32,32,18,,,,,,down,0.5671123365100357,2959.8987002394633,None,001,8,2019_Jun_05_1708,ACPT_experiment_5_30_19,3.1.0,59.96222542376285,
,,,C,D,y,b,L,G,d,R,i,,,,,5,19,119,2,5,0,5,0,,,,,0,33,33,17,,,,,,up,0.8506695612613839,2961.7334121981703,None,001,8,2019_Jun_05_1708,ACPT_experiment_5_30_19,3.1.0,59.96222542376285,
,,,C,D,y,b,R,D,g,R,i,,,,,5,19,119,2,5,0,5,0,,,,,0,34,34,3,,,,,,down,0.6504948471720127,2963.86839362348,None,001,8,2019_Jun_05_1708,ACPT_experiment_5_30_19,3.1.0,59.96222542376285,
,,,C,D,y,b,L,U,g,R,u,,,,,5,19,119,2,5,0,5,0,,,,,0,35,35,23,,,,,,down,0.5003699241824506,2965.7865264285256,None,001,8,2019_Jun_05_1708,ACPT_experiment_5_30_19,3.1.0,59.96222542376285,
,,,C,D,y,b,R,D,d,R,c ,,,,,5,19,119,2,5,0,5,0,,,,,1,0,36,1,,,,,,up,0.7839509955356334,2967.571217574282,None,001,8,2019_Jun_05_1708,ACPT_experiment_5_30_19,3.1.0,59.96222542376285,
,,,C,D,y,b,R,G,g,R,c ,,,,,5,19,119,2,5,0,5,0,,,,,1,1,37,7,,,,,,down,0.700260290184815,2969.6564094081195,None,001,8,2019_Jun_05_1708,ACPT_experiment_5_30_19,3.1.0,59.96222542376285,
,,,C,D,y,b,L,G,y,L,y,,,,,5,19,119,2,5,0,5,0,,,,,1,2,38,34,,,,,,down,0.9674333902530634,2971.6576654297633,None,001,8,2019_Jun_05_1708,ACPT_experiment_5_30_19,3.1.0,59.96222542376285,
,,,C,D,y,b,R,U,d,R,u,,,,,5,19,119,2,5,0,5,0,,,,,1,3,39,9,,,,,,up,0.683845979930993,2973.9260625547677,None,001,8,2019_Jun_05_1708,ACPT_experiment_5_30_19,3.1.0,59.96222542376285,
,,,C,D,y,b,L,U,g,R,u,,,,,5,19,119,2,5,0,5,0,,,,,1,4,40,23,,,,,,down,0.5837759795886086,2975.8942273414277,None,001,8,2019_Jun_05_1708,ACPT_experiment_5_30_19,3.1.0,59.96222542376285,
,,,C,D,y,b,L,G,y,R,y,,,,,5,19,119,2,5,0,5,0,,,,,1,5,41,35,,,,,,down,0.5337430924082582,2977.7623142794973,None,001,8,2019_Jun_05_1708,ACPT_experiment_5_30_19,3.1.0,59.96222542376285,
,,,C,D,y,b,L,D,y,R,y,,,,,5,19,119,2,5,0,5,0,,,,,1,6,42,33,,,,,,down,0.5337231699322729,2979.5970555182093,None,001,8,2019_Jun_05_1708,ACPT_experiment_5_30_19,3.1.0,59.96222542376285,
,,,C,D,y,b,L,D,g,R,i,,,,,5,19,119,2,5,0,5,0,,,,,1,7,43,15,,,,,,down,0.7005319603322278,2981.431781362281,None,001,8,2019_Jun_05_1708,ACPT_experiment_5_30_19,3.1.0,59.96222542376285,
,,,C,D,y,b,L,D,y,L,y,,,,,5,19,119,2,5,0,5,0,,,,,1,8,44,32,,,,,,down,0.5337301126128295,2983.416627299651,None,001,8,2019_Jun_05_1708,ACPT_experiment_5_30_19,3.1.0,59.96222542376285,
,,,C,D,y,b,L,U,g,L,u,,,,,5,19,119,2,5,0,5,0,,,,,1,9,45,22,,,,,,down,0.5337340367368597,2985.2346801431167,None,001,8,2019_Jun_05_1708,ACPT_experiment_5_30_19,3.1.0,59.96222542376285,
,,,C,D,y,b,R,D,y,R,y,,,,,5,19,119,2,5,0,5,0,,,,,1,10,46,27,,,,,,down,0.5670857732075092,2987.052742042254,None,001,8,2019_Jun_05_1708,ACPT_experiment_5_30_19,3.1.0,59.96222542376285,
,,,C,D,y,b,R,G,g,L,c ,,,,,5,19,119,2,5,0,5,0,,,,,1,11,47,6,,,,,,down,0.583499479751481,2988.921097330057,None,001,8,2019_Jun_05_1708,ACPT_experiment_5_30_19,3.1.0,59.96222542376285,
,,,C,D,y,b,R,U,d,L,u,,,,,5,19,119,2,5,0,5,0,,,,,1,12,48,8,,,,,,up,1.0674822606943053,2990.7889098812784,None,001,8,2019_Jun_05_1708,ACPT_experiment_5_30_19,3.1.0,59.96222542376285,
,,,C,D,y,b,R,G,y,L,y,,,,,5,19,119,2,5,0,5,0,,,,,1,13,49,28,,,,,,down,0.5837796018586232,2993.140704911585,None,001,8,2019_Jun_05_1708,ACPT_experiment_5_30_19,3.1.0,59.96222542376285,
,,,C,D,y,b,L,U,y,L,u,,,,,5,19,119,2,5,0,5,0,,,,,1,14,50,24,,,,,,down,0.416969000323661,2995.008803018317,None,001,8,2019_Jun_05_1708,ACPT_experiment_5_30_19,3.1.0,59.96222542376285,
,,,C,D,y,b,R,D,g,R,i,,,,,5,19,119,2,5,0,5,0,,,,,1,15,51,3,,,,,,down,0.7505660549359163,2996.7100914290795,None,001,8,2019_Jun_05_1708,ACPT_experiment_5_30_19,3.1.0,59.96222542376285,
,,,C,D,y,b,R,D,y,L,y,,,,,5,19,119,2,5,0,5,0,,,,,1,16,52,26,,,,,,down,0.5671108272326819,2998.744977498166,None,001,8,2019_Jun_05_1708,ACPT_experiment_5_30_19,3.1.0,59.96222542376285,
,,,C,D,y,b,L,U,d,L,u,,,,,5,19,119,2,5,0,5,0,,,,,1,17,53,20,,,,,,up,0.7505569992645178,3000.5963962653213,None,001,8,2019_Jun_05_1708,ACPT_experiment_5_30_19,3.1.0,59.96222542376285,
,,,C,D,y,b,R,D,g,L,i,,,,,5,19,119,2,5,0,5,0,,,,,1,18,54,2,,,,,,down,0.783927752645468,3002.631270562034,None,001,8,2019_Jun_05_1708,ACPT_experiment_5_30_19,3.1.0,59.96222542376285,
,,,C,D,y,b,R,U,g,R,u,,,,,5,19,119,2,5,0,5,0,,,,,1,19,55,11,,,,,,down,0.7672511297714664,3004.699512895427,None,001,8,2019_Jun_05_1708,ACPT_experiment_5_30_19,3.1.0,59.96222542376285,
,,,C,D,y,b,L,U,d,R,u,,,,,5,19,119,2,5,0,5,0,,,,,1,20,56,21,,,,,,up,0.7505672623592545,3006.7510764929566,None,001,8,2019_Jun_05_1708,ACPT_experiment_5_30_19,3.1.0,59.96222542376285,
,,,C,D,y,b,L,D,d,R,c ,,,,,5,19,119,2,5,0,5,0,,,,,1,21,57,13,,,,,,up,0.7005310547665431,3008.7859613546198,None,001,8,2019_Jun_05_1708,ACPT_experiment_5_30_19,3.1.0,59.96222542376285,
,,,C,D,y,b,R,G,y,R,y,,,,,5,19,119,2,5,0,5,0,,,,,1,22,58,29,,,,,,down,0.550408848477673,3010.7708112161135,None,001,8,2019_Jun_05_1708,ACPT_experiment_5_30_19,3.1.0,59.96222542376285,
,,,C,D,y,b,R,U,g,L,u,,,,,5,19,119,2,5,0,5,0,,,,,1,23,59,10,,,,,,down,0.7505980516416457,3012.605537663897,None,001,8,2019_Jun_05_1708,ACPT_experiment_5_30_19,3.1.0,59.96222542376285,
,,,C,D,y,b,L,G,d,L,i,,,,,5,19,119,2,5,0,5,0,,,,,1,24,60,16,,,,,,up,0.6669912621819094,3014.640573151565,None,001,8,2019_Jun_05_1708,ACPT_experiment_5_30_19,3.1.0,59.96222542376285,
,,,C,D,y,b,L,U,y,R,u,,,,,5,19,119,2,5,0,5,0,,,,,1,25,61,25,,,,,,down,0.6004794676227903,3016.608595462324,None,001,8,2019_Jun_05_1708,ACPT_experiment_5_30_19,3.1.0,59.96222542376285,
,,,C,D,y,b,R,G,d,R,i,,,,,5,19,119,2,5,0,5,0,,,,,1,26,62,5,,,,,,up,0.6671663384986459,3018.510040475833,None,001,8,2019_Jun_05_1708,ACPT_experiment_5_30_19,3.1.0,59.96222542376285,
,,,C,D,y,b,L,G,d,R,i,,,,,5,19,119,2,5,0,5,0,,,,,1,27,63,17,,,,,,up,0.5837796018586232,3020.4448453759187,None,001,8,2019_Jun_05_1708,ACPT_experiment_5_30_19,3.1.0,59.96222542376285,
,,,C,D,y,b,R,U,y,R,u,,,,,5,19,119,2,5,0,5,0,,,,,1,28,64,31,,,,,,down,0.6504863952104643,3022.312936841822,None,001,8,2019_Jun_05_1708,ACPT_experiment_5_30_19,3.1.0,59.96222542376285,
,,,C,D,y,b,R,U,y,L,u,,,,,5,19,119,2,5,0,5,0,,,,,1,29,65,30,,,,,,down,0.8341523182061792,3024.230914191173,None,001,8,2019_Jun_05_1708,ACPT_experiment_5_30_19,3.1.0,59.96222542376285,
,,,C,D,y,b,R,G,d,L,i,,,,,5,19,119,2,5,0,5,0,,,,,1,30,66,4,,,,,,up,0.8002533173184929,3026.3662901419057,None,001,8,2019_Jun_05_1708,ACPT_experiment_5_30_19,3.1.0,59.96222542376285,
,,,C,D,y,b,L,D,d,L,c ,,,,,5,19,119,2,5,0,5,0,,,,,1,31,67,12,,,,,,up,0.8006043755194696,3028.450953426379,None,001,8,2019_Jun_05_1708,ACPT_experiment_5_30_19,3.1.0,59.96222542376285,
