facing_vig,person_vig,text_vig,facing_train,person_train,food_train,correct_key_train,facing_exp,person_exp,food_exp,showL_R,consistent,vig_random.thisRepN,vig_random.thisTrialN,vig_random.thisN,vig_random.thisIndex,trainTrials.thisRepN,trainTrials.thisTrialN,trainTrials.thisN,trainTrials.thisIndex,expBlock.thisRepN,expBlock.thisTrialN,expBlock.thisN,expBlock.thisIndex,breakLoop.thisRepN,breakLoop.thisTrialN,breakLoop.thisN,breakLoop.thisIndex,expTrials.thisRepN,expTrials.thisTrialN,expTrials.thisN,expTrials.thisIndex,train_resp.keys,train_resp.corr,train_resp.rt,train_resp.started,train_resp.stopped,exp_resp.keys,exp_resp.rt,exp_resp.started,exp_resp.stopped,session,participant,date,expName,psychopyVersion,frameRate,
C,D,"is allergic to gluten, meaning she can’t eat wheat products. She enjoys eating dairy products. She thinks eating insects, like crickets, is disgusting.",,,,,,,,,,0,0,0,1,,,,,,,,,,,,,,,,,,,,,,,,,,001,90,2019_Nov_01_1403,ACPT_experiment_5_30_19,3.1.0,59.94121425454923,
C,G,"cannot eat dairy products because she is lactose intolerant. She enjoys eating wheat products. She thinks eating insects, like crickets, is disgusting.",,,,,,,,,,0,1,1,0,,,,,,,,,,,,,,,,,,,,,,,,,,001,90,2019_Nov_01_1403,ACPT_experiment_5_30_19,3.1.0,59.94121425454923,
C,U,"did not report her food preferences, so her food preferences are unknown.",,,,,,,,,,0,2,2,2,,,,,,,,,,,,,,,,,,,,,,,,,,001,90,2019_Nov_01_1403,ACPT_experiment_5_30_19,3.1.0,59.94121425454923,
,,,C,D,d,v,,,,,,,,,,0,0,0,9,,,,,,,,,,,,,b,0,1.9348240086110309,545.7313796141771,None,,,,,001,90,2019_Nov_01_1403,ACPT_experiment_5_30_19,3.1.0,59.94121425454923,
,,,C,U,y,n,,,,,,,,,,0,1,1,17,,,,,,,,,,,,,b,0,2.702020700537105,550.9520293788355,None,,,,,001,90,2019_Nov_01_1403,ACPT_experiment_5_30_19,3.1.0,59.94121425454923,
,,,C,G,y,b,,,,,,,,,,0,2,2,5,,,,,,,,,,,,,b,1,2.3184646141198755,556.9398806650806,None,,,,,001,90,2019_Nov_01_1403,ACPT_experiment_5_30_19,3.1.0,59.94121425454923,
,,,C,U,g,n,,,,,,,,,,0,3,3,16,,,,,,,,,,,,,n,1,3.1190544970049814,562.5441127774448,None,,,,,001,90,2019_Nov_01_1403,ACPT_experiment_5_30_19,3.1.0,59.94121425454923,
,,,C,G,g,v,,,,,,,,,,0,4,4,4,,,,,,,,,,,,,b,0,5.137268059239432,568.9489688821832,None,,,,,001,90,2019_Nov_01_1403,ACPT_experiment_5_30_19,3.1.0,59.94121425454923,
,,,C,G,d,b,,,,,,,,,,0,5,5,12,,,,,,,,,,,,,b,1,1.0842154258789378,577.3720005155683,None,,,,,001,90,2019_Nov_01_1403,ACPT_experiment_5_30_19,3.1.0,59.94121425454923,
,,,C,U,d,n,,,,,,,,,,0,6,6,15,,,,,,,,,,,,,n,1,1.0838701050270174,581.7589729843803,None,,,,,001,90,2019_Nov_01_1403,ACPT_experiment_5_30_19,3.1.0,59.94121425454923,
,,,C,D,g,b,,,,,,,,,,0,7,7,1,,,,,,,,,,,,,b,1,2.568572602351196,586.1286954085899,None,,,,,001,90,2019_Nov_01_1403,ACPT_experiment_5_30_19,3.1.0,59.94121425454923,
,,,C,U,y,n,,,,,,,,,,0,8,8,8,,,,,,,,,,,,,n,1,1.1175008550017083,591.9830952762586,None,,,,,001,90,2019_Nov_01_1403,ACPT_experiment_5_30_19,3.1.0,59.94121425454923,
,,,C,D,d,v,,,,,,,,,,0,9,9,0,,,,,,,,,,,,,v,1,2.90221352480512,596.3864246039902,None,,,,,001,90,2019_Nov_01_1403,ACPT_experiment_5_30_19,3.1.0,59.94121425454923,
,,,C,G,y,b,,,,,,,,,,0,10,10,14,,,,,,,,,,,,,b,1,2.051546382419474,602.5744590551785,None,,,,,001,90,2019_Nov_01_1403,ACPT_experiment_5_30_19,3.1.0,59.94121425454923,
,,,C,U,g,n,,,,,,,,,,0,11,11,7,,,,,,,,,,,,,n,1,1.3677144920948194,607.9118194213388,None,,,,,001,90,2019_Nov_01_1403,ACPT_experiment_5_30_19,3.1.0,59.94121425454923,
,,,C,U,d,n,,,,,,,,,,0,12,12,6,,,,,,,,,,,,,n,1,0.8837406700731663,612.5656243953508,None,,,,,001,90,2019_Nov_01_1403,ACPT_experiment_5_30_19,3.1.0,59.94121425454923,
,,,C,G,d,b,,,,,,,,,,0,13,13,3,,,,,,,,,,,,,v,0,5.4875009847964975,616.7351784454604,None,,,,,001,90,2019_Nov_01_1403,ACPT_experiment_5_30_19,3.1.0,59.94121425454923,
,,,C,G,g,v,,,,,,,,,,0,14,14,13,,,,,,,,,,,,,b,0,0.23569597396272002,None,None,,,,,001,90,2019_Nov_01_1403,ACPT_experiment_5_30_19,3.1.0,59.94121425454923,
,,,C,D,y,b,,,,,,,,,,0,15,15,11,,,,,,,,,,,,,b,1,2.8519630011651316,628.7778020267087,None,,,,,001,90,2019_Nov_01_1403,ACPT_experiment_5_30_19,3.1.0,59.94121425454923,
,,,C,G,g,v,,,,,,,,,,0,16,16,19,,,,,,,,,,,,,b,0,3.252477239460859,634.9156176489141,None,,,,,001,90,2019_Nov_01_1403,ACPT_experiment_5_30_19,3.1.0,59.94121425454923,
,,,C,D,g,b,,,,,,,,,,0,17,17,10,,,,,,,,,,,,,b,1,1.8180503196490463,641.4539064572909,None,,,,,001,90,2019_Nov_01_1403,ACPT_experiment_5_30_19,3.1.0,59.94121425454923,
,,,C,D,y,b,,,,,,,,,,0,18,18,2,,,,,,,,,,,,,b,1,2.7521166749829717,646.54106918461,None,,,,,001,90,2019_Nov_01_1403,ACPT_experiment_5_30_19,3.1.0,59.94121425454923,
,,,C,D,d,v,,,,,,,,,,0,19,19,18,,,,,,,,,,,,,v,1,2.6520222248982463,652.5789959192389,None,,,,,001,90,2019_Nov_01_1403,ACPT_experiment_5_30_19,3.1.0,59.94121425454923,
,,,C,G,g,v,,,,,,,,,,1,0,20,13,,,,,,,,,,,,,b,0,4.486744237081439,658.5168279019254,None,,,,,001,90,2019_Nov_01_1403,ACPT_experiment_5_30_19,3.1.0,59.94121425454923,
,,,C,D,g,b,,,,,,,,,,1,1,21,10,,,,,,,,,,,,,b,1,4.83700915915324,666.289381293087,None,,,,,001,90,2019_Nov_01_1403,ACPT_experiment_5_30_19,3.1.0,59.94121425454923,
,,,C,G,y,b,,,,,,,,,,1,2,22,5,,,,,,,,,,,,,b,1,2.101605228832341,674.4121999081781,None,,,,,001,90,2019_Nov_01_1403,ACPT_experiment_5_30_19,3.1.0,59.94121425454923,
,,,C,G,g,v,,,,,,,,,,1,3,23,4,,,,,,,,,,,,,v,1,1.4677844920151983,679.7829383726039,None,,,,,001,90,2019_Nov_01_1403,ACPT_experiment_5_30_19,3.1.0,59.94121425454923,
,,,C,U,d,n,,,,,,,,,,1,4,24,6,,,,,,,,,,,,,n,1,1.434430843914015,684.5365371502176,None,,,,,001,90,2019_Nov_01_1403,ACPT_experiment_5_30_19,3.1.0,59.94121425454923,
,,,C,D,y,b,,,,,,,,,,1,5,25,2,,,,,,,,,,,,,b,1,0.9337723496391845,689.2737337908238,None,,,,,001,90,2019_Nov_01_1403,ACPT_experiment_5_30_19,3.1.0,59.94121425454923,
,,,C,U,g,n,,,,,,,,,,1,6,26,7,,,,,,,,,,,,,n,1,1.1675672477649641,693.4933231427476,None,,,,,001,90,2019_Nov_01_1403,ACPT_experiment_5_30_19,3.1.0,59.94121425454923,
,,,C,D,y,b,,,,,,,,,,1,7,27,11,,,,,,,,,,,,,b,1,1.3343433364716475,697.963385726116,None,,,,,001,90,2019_Nov_01_1403,ACPT_experiment_5_30_19,3.1.0,59.94121425454923,
,,,C,D,d,v,,,,,,,,,,1,8,28,0,,,,,,,,,,,,,v,1,3.1190083133587905,702.5835732317191,None,,,,,001,90,2019_Nov_01_1403,ACPT_experiment_5_30_19,3.1.0,59.94121425454923,
,,,C,G,g,v,,,,,,,,,,1,9,29,19,,,,,,,,,,,,,v,1,2.618646541461203,708.988401867753,None,,,,,001,90,2019_Nov_01_1403,ACPT_experiment_5_30_19,3.1.0,59.94121425454923,
,,,C,U,g,n,,,,,,,,,,1,10,30,16,,,,,,,,,,,,,n,1,3.602731898499769,714.8928623929587,None,,,,,001,90,2019_Nov_01_1403,ACPT_experiment_5_30_19,3.1.0,59.94121425454923,
,,,C,G,d,b,,,,,,,,,,1,11,31,3,,,,,,,,,,,,,b,1,4.77031786121006,721.781409784473,None,,,,,001,90,2019_Nov_01_1403,ACPT_experiment_5_30_19,3.1.0,59.94121425454923,
,,,C,U,d,n,,,,,,,,,,1,12,32,15,,,,,,,,,,,,,n,1,0.8506568793563929,729.8375105384748,None,,,,,001,90,2019_Nov_01_1403,ACPT_experiment_5_30_19,3.1.0,59.94121425454923,
,,,C,D,d,v,,,,,,,,,,1,13,33,9,,,,,,,,,,,,,v,1,2.8021299414613168,733.9739780811815,None,,,,,001,90,2019_Nov_01_1403,ACPT_experiment_5_30_19,3.1.0,59.94121425454923,
,,,C,D,d,v,,,,,,,,,,1,14,34,18,,,,,,,,,,,,,v,1,2.4852204786111542,740.0452463897509,None,,,,,001,90,2019_Nov_01_1403,ACPT_experiment_5_30_19,3.1.0,59.94121425454923,
,,,C,D,g,b,,,,,,,,,,1,15,35,1,,,,,,,,,,,,,b,1,1.6512600438109075,745.7995995002511,None,,,,,001,90,2019_Nov_01_1403,ACPT_experiment_5_30_19,3.1.0,59.94121425454923,
,,,C,U,y,n,,,,,,,,,,1,16,36,8,,,,,,,,,,,,,n,1,0.7005458424027893,750.7366717166824,None,,,,,001,90,2019_Nov_01_1403,ACPT_experiment_5_30_19,3.1.0,59.94121425454923,
,,,C,U,y,n,,,,,,,,,,1,17,37,17,,,,,,,,,,,,,n,1,0.8806837956690288,754.7430299671487,None,,,,,001,90,2019_Nov_01_1403,ACPT_experiment_5_30_19,3.1.0,59.94121425454923,
,,,C,G,d,b,,,,,,,,,,1,18,38,12,,,,,,,,,,,,,b,1,3.5360218856149004,758.9095310669527,None,,,,,001,90,2019_Nov_01_1403,ACPT_experiment_5_30_19,3.1.0,59.94121425454923,
,,,C,G,y,b,,,,,,,,,,1,19,39,14,,,,,,,,,,,,,b,1,1.7513403067641775,765.7313572769872,None,,,,,001,90,2019_Nov_01_1403,ACPT_experiment_5_30_19,3.1.0,59.94121425454923,
,,,C,D,g,b,,,,,,,,,,2,0,40,1,,,,,,,,,,,,,b,1,1.6179226958192885,770.7684847024993,None,,,,,001,90,2019_Nov_01_1403,ACPT_experiment_5_30_19,3.1.0,59.94121425454923,
,,,C,D,g,b,,,,,,,,,,2,1,41,10,,,,,,,,,,,,,b,1,1.6680929263275175,775.6553912162326,None,,,,,001,90,2019_Nov_01_1403,ACPT_experiment_5_30_19,3.1.0,59.94121425454923,
,,,C,G,y,b,,,,,,,,,,2,2,42,5,,,,,,,,,,,,,b,1,1.6846206345544488,780.6092911836622,None,,,,,001,90,2019_Nov_01_1403,ACPT_experiment_5_30_19,3.1.0,59.94121425454923,
,,,C,U,y,n,,,,,,,,,,2,3,43,17,,,,,,,,,,,,,n,1,1.4510536361158302,785.5797759097059,None,,,,,001,90,2019_Nov_01_1403,ACPT_experiment_5_30_19,3.1.0,59.94121425454923,
,,,C,G,y,b,,,,,,,,,,2,4,44,14,,,,,,,,,,,,,b,1,1.8011154105151945,790.3335754201598,None,,,,,001,90,2019_Nov_01_1403,ACPT_experiment_5_30_19,3.1.0,59.94121425454923,
,,,C,D,d,v,,,,,,,,,,2,5,45,0,,,,,,,,,,,,,v,1,1.5678623401363438,795.4205045125655,None,,,,,001,90,2019_Nov_01_1403,ACPT_experiment_5_30_19,3.1.0,59.94121425454923,
,,,C,G,d,b,,,,,,,,,,2,6,46,12,,,,,,,,,,,,,b,1,2.83549053220122,800.2741820438587,None,,,,,001,90,2019_Nov_01_1403,ACPT_experiment_5_30_19,3.1.0,59.94121425454923,
,,,C,G,g,v,,,,,,,,,,2,7,47,19,,,,,,,,,,,,,v,1,2.2850955714711745,806.3787828707591,None,,,,,001,90,2019_Nov_01_1403,ACPT_experiment_5_30_19,3.1.0,59.94121425454923,
,,,C,G,g,v,,,,,,,,,,2,8,48,13,,,,,,,,,,,,,v,1,5.504186864465737,811.9330083574296,None,,,,,001,90,2019_Nov_01_1403,ACPT_experiment_5_30_19,3.1.0,59.94121425454923,
,,,C,G,d,b,,,,,,,,,,2,9,49,3,,,,,,,,,,,,,b,1,6.9052770399976,820.7063166851858,None,,,,,001,90,2019_Nov_01_1403,ACPT_experiment_5_30_19,3.1.0,59.94121425454923,
,,,C,U,g,n,,,,,,,,,,2,10,50,16,,,,,,,,,,,,,n,1,1.0841961072328559,830.8973684679204,None,,,,,001,90,2019_Nov_01_1403,ACPT_experiment_5_30_19,3.1.0,59.94121425454923,
,,,C,U,d,n,,,,,,,,,,2,11,51,6,,,,,,,,,,,,,n,1,1.1172515236830804,835.2676143067893,None,,,,,001,90,2019_Nov_01_1403,ACPT_experiment_5_30_19,3.1.0,59.94121425454923,
,,,C,G,g,v,,,,,,,,,,2,12,52,4,,,,,,,,,,,,,v,1,2.3351136676137685,839.6706743808445,None,,,,,001,90,2019_Nov_01_1403,ACPT_experiment_5_30_19,3.1.0,59.94121425454923,
,,,C,D,y,b,,,,,,,,,,2,13,53,2,,,,,,,,,,,,,b,1,1.4678264497088094,845.2915981081005,None,,,,,001,90,2019_Nov_01_1403,ACPT_experiment_5_30_19,3.1.0,59.94121425454923,
,,,C,U,y,n,,,,,,,,,,2,14,54,8,,,,,,,,,,,,,n,1,0.7672540441635647,850.0451989986923,None,,,,,001,90,2019_Nov_01_1403,ACPT_experiment_5_30_19,3.1.0,59.94121425454923,
,,,C,U,d,n,,,,,,,,,,2,15,55,15,,,,,,,,,,,,,n,1,0.46678052595598274,854.098535072857,None,,,,,001,90,2019_Nov_01_1403,ACPT_experiment_5_30_19,3.1.0,59.94121425454923,
,,,C,D,d,v,,,,,,,,,,2,16,56,18,,,,,,,,,,,,,v,1,2.7187216728962085,857.85111569728,None,,,,,001,90,2019_Nov_01_1403,ACPT_experiment_5_30_19,3.1.0,59.94121425454923,
,,,C,D,y,b,,,,,,,,,,2,17,57,11,,,,,,,,,,,,,b,1,1.4177482846389466,863.8389712094777,None,,,,,001,90,2019_Nov_01_1403,ACPT_experiment_5_30_19,3.1.0,59.94121425454923,
,,,C,U,g,n,,,,,,,,,,2,18,58,7,,,,,,,,,,,,,n,1,1.2839430932945106,868.5596024101233,None,,,,,001,90,2019_Nov_01_1403,ACPT_experiment_5_30_19,3.1.0,59.94121425454923,
,,,C,D,d,v,,,,,,,,,,2,19,59,9,,,,,,,,,,,,,v,1,2.0682461473661533,873.1293407722205,None,,,,,001,90,2019_Nov_01_1403,ACPT_experiment_5_30_19,3.1.0,59.94121425454923,
,,,C,G,d,b,,,,,,,,,,3,0,60,12,,,,,,,,,,,,,b,1,3.552700218933751,878.4833951681048,None,,,,,001,90,2019_Nov_01_1403,ACPT_experiment_5_30_19,3.1.0,59.94121425454923,
,,,C,D,d,v,,,,,,,,,,3,1,61,0,,,,,,,,,,,,,v,1,2.168354784578696,885.3218737520237,None,,,,,001,90,2019_Nov_01_1403,ACPT_experiment_5_30_19,3.1.0,59.94121425454923,
,,,C,U,y,n,,,,,,,,,,3,2,62,8,,,,,,,,,,,,,n,1,1.417747982788569,890.776031653606,None,,,,,001,90,2019_Nov_01_1403,ACPT_experiment_5_30_19,3.1.0,59.94121425454923,
,,,C,G,g,v,,,,,,,,,,3,3,63,4,,,,,,,,,,,,,v,1,2.518150625695853,895.4966785506567,None,,,,,001,90,2019_Nov_01_1403,ACPT_experiment_5_30_19,3.1.0,59.94121425454923,
,,,C,G,g,v,,,,,,,,,,3,4,64,13,,,,,,,,,,,,,v,1,6.571638230518147,901.28400467149,None,,,,,001,90,2019_Nov_01_1403,ACPT_experiment_5_30_19,3.1.0,59.94121425454923,
,,,C,U,y,n,,,,,,,,,,3,5,65,17,,,,,,,,,,,,,n,1,1.5345168420899427,911.1414270022196,None,,,,,001,90,2019_Nov_01_1403,ACPT_experiment_5_30_19,3.1.0,59.94121425454923,
,,,C,D,y,b,,,,,,,,,,3,6,66,11,,,,,,,,,,,,,b,1,4.620177544424223,915.9617635632767,None,,,,,001,90,2019_Nov_01_1403,ACPT_experiment_5_30_19,3.1.0,59.94121425454923,
,,,C,D,y,b,,,,,,,,,,3,7,67,2,,,,,,,,,,,,,b,1,1.41773771975204,923.8677520729052,None,,,,,001,90,2019_Nov_01_1403,ACPT_experiment_5_30_19,3.1.0,59.94121425454923,
,,,C,D,d,v,,,,,,,,,,3,8,68,9,,,,,,,,,,,,,v,1,2.418530689938052,928.5712838540476,None,,,,,001,90,2019_Nov_01_1403,ACPT_experiment_5_30_19,3.1.0,59.94121425454923,
,,,C,G,y,b,,,,,,,,,,3,9,69,14,,,,,,,,,,,,,b,1,1.1008179938726244,934.2756517704784,None,,,,,001,90,2019_Nov_01_1403,ACPT_experiment_5_30_19,3.1.0,59.94121425454923,
,,,C,G,g,v,,,,,,,,,,3,10,70,19,,,,,,,,,,,,,v,1,3.382578079792438,938.6822957558452,None,,,,,001,90,2019_Nov_01_1403,ACPT_experiment_5_30_19,3.1.0,59.94121425454923,
,,,C,D,g,b,,,,,,,,,,3,11,71,1,,,,,,,,,,,,,b,1,1.0341218662651954,945.3506784619112,None,,,,,001,90,2019_Nov_01_1403,ACPT_experiment_5_30_19,3.1.0,59.94121425454923,
,,,C,U,g,n,,,,,,,,,,3,12,72,7,,,,,,,,,,,,,n,1,1.0672421813032997,949.6875425802664,None,,,,,001,90,2019_Nov_01_1403,ACPT_experiment_5_30_19,3.1.0,59.94121425454923,
,,,C,G,d,b,,,,,,,,,,3,13,73,3,,,,,,,,,,,,,b,1,3.7862198263064784,954.0405860674491,None,,,,,001,90,2019_Nov_01_1403,ACPT_experiment_5_30_19,3.1.0,59.94121425454923,
,,,C,U,d,n,,,,,,,,,,3,14,74,15,,,,,,,,,,,,,n,1,0.8673512109307921,961.1126087089087,None,,,,,001,90,2019_Nov_01_1403,ACPT_experiment_5_30_19,3.1.0,59.94121425454923,
,,,C,U,d,n,,,,,,,,,,3,15,75,6,,,,,,,,,,,,,n,1,1.2309381528539234,965.285766592684,None,,,,,001,90,2019_Nov_01_1403,ACPT_experiment_5_30_19,3.1.0,59.94121425454923,
,,,C,D,d,v,,,,,,,,,,3,16,76,18,,,,,,,,,,,,,v,1,1.9181435623177094,969.8025148051802,None,,,,,001,90,2019_Nov_01_1403,ACPT_experiment_5_30_19,3.1.0,59.94121425454923,
,,,C,D,g,b,,,,,,,,,,3,17,77,10,,,,,,,,,,,,,b,1,7.622458050609566,974.9897768122482,None,,,,,001,90,2019_Nov_01_1403,ACPT_experiment_5_30_19,3.1.0,59.94121425454923,
,,,C,U,g,n,,,,,,,,,,3,18,78,16,,,,,,,,,,,,,n,1,1.2843173921282869,985.8980364705913,None,,,,,001,90,2019_Nov_01_1403,ACPT_experiment_5_30_19,3.1.0,59.94121425454923,
,,,C,G,y,b,,,,,,,,,,3,19,79,5,,,,,,,,,,,,,b,1,1.5676202533104515,990.4850858517766,None,,,,,001,90,2019_Nov_01_1403,ACPT_experiment_5_30_19,3.1.0,59.94121425454923,
,,,C,U,d,n,,,,,,,,,,4,0,80,6,,,,,,,,,,,,,n,1,1.03412428109732,995.3385143536052,None,,,,,001,90,2019_Nov_01_1403,ACPT_experiment_5_30_19,3.1.0,59.94121425454923,
,,,C,D,y,b,,,,,,,,,,4,1,81,2,,,,,,,,,,,,,b,1,1.1842476940619235,999.6584562406952,None,,,,,001,90,2019_Nov_01_1403,ACPT_experiment_5_30_19,3.1.0,59.94121425454923,
,,,C,U,g,n,,,,,,,,,,4,2,82,7,,,,,,,,,,,,,n,1,1.0506794580287533,1004.1284979961438,None,,,,,001,90,2019_Nov_01_1403,ACPT_experiment_5_30_19,3.1.0,59.94121425454923,
,,,C,D,y,b,,,,,,,,,,4,3,83,11,,,,,,,,,,,,,b,1,1.4341739662486361,1008.4820507108507,None,,,,,001,90,2019_Nov_01_1403,ACPT_experiment_5_30_19,3.1.0,59.94121425454923,
,,,C,D,g,b,,,,,,,,,,4,4,84,1,,,,,,,,,,,,,b,1,1.0675069071730832,1013.185337990335,None,,,,,001,90,2019_Nov_01_1403,ACPT_experiment_5_30_19,3.1.0,59.94121425454923,
,,,C,G,y,b,,,,,,,,,,4,5,85,5,,,,,,,,,,,,,b,1,0.9169355430240103,1017.5557356617155,None,,,,,001,90,2019_Nov_01_1403,ACPT_experiment_5_30_19,3.1.0,59.94121425454923,
,,,C,U,y,n,,,,,,,,,,4,6,86,17,,,,,,,,,,,,,n,1,1.2176001347470446,1021.7585111479184,None,,,,,001,90,2019_Nov_01_1403,ACPT_experiment_5_30_19,3.1.0,59.94121425454923,
,,,C,G,g,v,,,,,,,,,,4,7,87,19,,,,,,,,,,,,,v,1,1.9178915143129416,1026.2788420643064,None,,,,,001,90,2019_Nov_01_1403,ACPT_experiment_5_30_19,3.1.0,59.94121425454923,
,,,C,G,y,b,,,,,,,,,,4,8,88,14,,,,,,,,,,,,,b,1,1.2843406348765711,1031.465857456742,None,,,,,001,90,2019_Nov_01_1403,ACPT_experiment_5_30_19,3.1.0,59.94121425454923,
,,,C,G,g,v,,,,,,,,,,4,9,89,4,,,,,,,,,,,,,v,1,2.3484583265017136,1036.0559972181163,None,,,,,001,90,2019_Nov_01_1403,ACPT_experiment_5_30_19,3.1.0,59.94121425454923,
,,,C,G,d,b,,,,,,,,,,4,10,90,12,,,,,,,,,,,,,b,1,1.467812262570078,1041.690265604264,None,,,,,001,90,2019_Nov_01_1403,ACPT_experiment_5_30_19,3.1.0,59.94121425454923,
,,,C,G,g,v,,,,,,,,,,4,11,91,13,,,,,,,,,,,,,v,1,1.1508855940519425,1046.4438574392352,None,,,,,001,90,2019_Nov_01_1403,ACPT_experiment_5_30_19,3.1.0,59.94121425454923,
,,,C,U,y,n,,,,,,,,,,4,12,92,8,,,,,,,,,,,,,n,1,0.7503613945773395,1050.8974747204902,None,,,,,001,90,2019_Nov_01_1403,ACPT_experiment_5_30_19,3.1.0,59.94121425454923,
,,,C,D,g,b,,,,,,,,,,4,13,93,10,,,,,,,,,,,,,b,1,1.2843107513399445,1054.9336247430856,None,,,,,001,90,2019_Nov_01_1403,ACPT_experiment_5_30_19,3.1.0,59.94121425454923,
,,,C,G,d,b,,,,,,,,,,4,14,94,3,,,,,,,,,,,,,b,1,3.118764415408805,1059.5207003855594,None,,,,,001,90,2019_Nov_01_1403,ACPT_experiment_5_30_19,3.1.0,59.94121425454923,
,,,C,D,d,v,,,,,,,,,,4,15,95,9,,,,,,,,,,,,,v,1,1.4344202790271083,1065.9252790865667,None,,,,,001,90,2019_Nov_01_1403,ACPT_experiment_5_30_19,3.1.0,59.94121425454923,
,,,C,D,d,v,,,,,,,,,,4,16,96,0,,,,,,,,,,,,,v,1,2.3521267569012707,1070.6286804668252,None,,,,,001,90,2019_Nov_01_1403,ACPT_experiment_5_30_19,3.1.0,59.94121425454923,
,,,C,D,d,v,,,,,,,,,,4,17,97,18,,,,,,,,,,,,,v,1,1.2342845051425684,1076.266432850638,None,,,,,001,90,2019_Nov_01_1403,ACPT_experiment_5_30_19,3.1.0,59.94121425454923,
,,,C,U,g,n,,,,,,,,,,4,18,98,16,,,,,,,,,,,,,n,1,0.8670774294478178,1080.80348164321,None,,,,,001,90,2019_Nov_01_1403,ACPT_experiment_5_30_19,3.1.0,59.94121425454923,
,,,C,U,d,n,,,,,,,,,,4,19,99,15,,,,,,,,,,,,,n,1,0.7839299626502907,1084.9396681599374,None,,,,,001,90,2019_Nov_01_1403,ACPT_experiment_5_30_19,3.1.0,59.94121425454923,
,,,C,G,g,v,,,,,,,,,,5,0,100,19,,,,,,,,,,,,,v,1,1.717737629198382,1089.026333733893,None,,,,,001,90,2019_Nov_01_1403,ACPT_experiment_5_30_19,3.1.0,59.94121425454923,
,,,C,D,d,v,,,,,,,,,,5,1,101,18,,,,,,,,,,,,,v,1,1.3843946365414013,1094.0298741782408,None,,,,,001,90,2019_Nov_01_1403,ACPT_experiment_5_30_19,3.1.0,59.94121425454923,
,,,C,U,y,n,,,,,,,,,,5,2,102,17,,,,,,,,,,,,,n,1,0.5835605538522941,1098.7170343096204,None,,,,,001,90,2019_Nov_01_1403,ACPT_experiment_5_30_19,3.1.0,59.94121425454923,
,,,C,U,g,n,,,,,,,,,,5,3,103,16,,,,,,,,,,,,,n,1,0.7005657647569024,1102.5696493152009,None,,,,,001,90,2019_Nov_01_1403,ACPT_experiment_5_30_19,3.1.0,59.94121425454923,
,,,C,G,g,v,,,,,,,,,,5,4,104,4,,,,,,,,,,,,,v,1,5.384096103036427,1106.576027789879,None,,,,,001,90,2019_Nov_01_1403,ACPT_experiment_5_30_19,3.1.0,59.94121425454923,
,,,C,D,d,v,,,,,,,,,,5,5,105,0,,,,,,,,,,,,,v,1,2.485246739903232,1115.2459357636817,None,,,,,001,90,2019_Nov_01_1403,ACPT_experiment_5_30_19,3.1.0,59.94121425454923,
,,,C,G,g,v,,,,,,,,,,5,6,106,13,,,,,,,,,,,,,v,1,2.318433221316809,1121.0169702260373,None,,,,,001,90,2019_Nov_01_1403,ACPT_experiment_5_30_19,3.1.0,59.94121425454923,
,,,C,D,d,v,,,,,,,,,,5,7,107,9,,,,,,,,,,,,,v,1,2.451887356579391,1126.6212122995803,None,,,,,001,90,2019_Nov_01_1403,ACPT_experiment_5_30_19,3.1.0,59.94121425454923,
,,,C,G,y,b,,,,,,,,,,5,8,108,14,,,,,,,,,,,,,b,1,1.2343050312083506,1132.358855683955,None,,,,,001,90,2019_Nov_01_1403,ACPT_experiment_5_30_19,3.1.0,59.94121425454923,
,,,C,D,g,b,,,,,,,,,,5,9,109,1,,,,,,,,,,,,,b,1,1.200671262693504,1136.8958993450087,None,,,,,001,90,2019_Nov_01_1403,ACPT_experiment_5_30_19,3.1.0,59.94121425454923,
,,,C,D,y,b,,,,,,,,,,5,10,110,2,,,,,,,,,,,,,b,1,0.8506520496957819,1141.3657017303176,None,,,,,001,90,2019_Nov_01_1403,ACPT_experiment_5_30_19,3.1.0,59.94121425454923,
,,,C,D,y,b,,,,,,,,,,5,11,111,11,,,,,,,,,,,,,b,1,1.2673682958629797,1145.5024355081605,None,,,,,001,90,2019_Nov_01_1403,ACPT_experiment_5_30_19,3.1.0,59.94121425454923,
,,,C,D,g,b,,,,,,,,,,5,12,112,10,,,,,,,,,,,,,b,1,1.2343041256499419,1150.0389086653504,None,,,,,001,90,2019_Nov_01_1403,ACPT_experiment_5_30_19,3.1.0,59.94121425454923,
,,,C,G,d,b,,,,,,,,,,5,13,113,3,,,,,,,,,,,,,b,1,2.868576134042087,1154.5759719469079,None,,,,,001,90,2019_Nov_01_1403,ACPT_experiment_5_30_19,3.1.0,59.94121425454923,
,,,C,U,y,n,,,,,,,,,,5,14,114,8,,,,,,,,,,,,,n,1,1.367687928952364,1160.7303762518259,None,,,,,001,90,2019_Nov_01_1403,ACPT_experiment_5_30_19,3.1.0,59.94121425454923,
,,,C,G,d,b,,,,,,,,,,5,15,115,12,,,,,,,,,,,,,b,1,2.702046659971529,1165.383884201603,None,,,,,001,90,2019_Nov_01_1403,ACPT_experiment_5_30_19,3.1.0,59.94121425454923,
,,,C,U,d,n,,,,,,,,,,5,16,116,6,,,,,,,,,,,,,n,1,1.0341224699768645,1171.3717457508774,None,,,,,001,90,2019_Nov_01_1403,ACPT_experiment_5_30_19,3.1.0,59.94121425454923,
,,,C,G,y,b,,,,,,,,,,5,17,117,5,,,,,,,,,,,,,b,1,0.9840705661954416,1175.708363556454,None,,,,,001,90,2019_Nov_01_1403,ACPT_experiment_5_30_19,3.1.0,59.94121425454923,
,,,C,U,g,n,,,,,,,,,,5,18,118,7,,,,,,,,,,,,,n,1,0.8840035848188563,1179.978259878697,None,,,,,001,90,2019_Nov_01_1403,ACPT_experiment_5_30_19,3.1.0,59.94121425454923,
,,,C,U,d,n,,,,,,,,,,5,19,119,15,0,0,0,0,0,0,0,0,,,,,n,1,1.1337581021361984,1184.1651647926064,None,,,,,001,90,2019_Nov_01_1403,ACPT_experiment_5_30_19,3.1.0,59.94121425454923,
,,,C,U,d,n,L,D,d,L,c ,,,,,5,19,119,15,0,0,0,0,,,,,0,0,0,12,,,,,,up,1.9316732576444338,1247.1989253397605,None,001,90,2019_Nov_01_1403,ACPT_experiment_5_30_19,3.1.0,59.94121425454923,
,,,C,U,d,n,R,G,g,R,c ,,,,,5,19,119,15,0,0,0,0,,,,,0,1,1,7,,,,,,up,1.8347214084751613,1250.4149030098142,None,001,90,2019_Nov_01_1403,ACPT_experiment_5_30_19,3.1.0,59.94121425454923,
,,,C,U,d,n,L,D,y,R,y,,,,,5,19,119,15,0,0,0,0,,,,,0,2,2,33,,,,,,down,0.6004486756319238,1253.5339309436768,None,001,90,2019_Nov_01_1403,ACPT_experiment_5_30_19,3.1.0,59.94121425454923,
,,,C,U,d,n,R,U,g,R,u,,,,,5,19,119,15,0,0,0,0,,,,,0,3,3,11,,,,,,up,1.4677787567889027,1255.41868644655,None,001,90,2019_Nov_01_1403,ACPT_experiment_5_30_19,3.1.0,59.94121425454923,
,,,C,U,d,n,L,G,y,L,y,,,,,5,19,119,15,0,0,0,0,,,,,0,4,4,34,,,,,,down,1.2342630735183775,1258.1707738417044,None,001,90,2019_Nov_01_1403,ACPT_experiment_5_30_19,3.1.0,59.94121425454923,
,,,C,U,d,n,R,D,g,R,i,,,,,5,19,119,15,0,0,0,0,,,,,0,5,5,3,,,,,,up,0.7505911053922318,1260.6893461572963,None,001,90,2019_Nov_01_1403,ACPT_experiment_5_30_19,3.1.0,59.94121425454923,
,,,C,U,d,n,R,U,g,L,u,,,,,5,19,119,15,0,0,0,0,,,,,0,6,6,10,,,,,,up,1.5178191901213722,1262.7242120934152,None,001,90,2019_Nov_01_1403,ACPT_experiment_5_30_19,3.1.0,59.94121425454923,
,,,C,U,d,n,R,D,y,L,y,,,,,5,19,119,15,0,0,0,0,,,,,0,7,7,26,,,,,,down,0.9674073255737312,1265.5263372052123,None,001,90,2019_Nov_01_1403,ACPT_experiment_5_30_19,3.1.0,59.94121425454923,
,,,C,U,d,n,R,G,g,L,c ,,,,,5,19,119,15,0,0,0,0,,,,,0,8,8,6,,,,,,up,0.9673919310225756,1267.778044113531,None,001,90,2019_Nov_01_1403,ACPT_experiment_5_30_19,3.1.0,59.94121425454923,
,,,C,U,d,n,L,U,y,L,u,,,,,5,19,119,15,0,0,0,0,,,,,0,9,9,24,,,,,,down,0.7172060644879821,1270.029744682919,None,001,90,2019_Nov_01_1403,ACPT_experiment_5_30_19,3.1.0,59.94121425454923,
,,,C,U,d,n,L,D,d,R,c ,,,,,5,19,119,15,0,0,0,0,,,,,0,10,10,13,,,,,,up,0.6503810452632024,1272.0312572727944,None,001,90,2019_Nov_01_1403,ACPT_experiment_5_30_19,3.1.0,59.94121425454923,
,,,C,U,d,n,L,D,g,L,i,,,,,5,19,119,15,0,0,0,0,,,,,0,11,11,14,,,,,,up,0.650489410814771,1273.9660583405112,None,001,90,2019_Nov_01_1403,ACPT_experiment_5_30_19,3.1.0,59.94121425454923,
,,,C,U,d,n,R,U,y,R,u,,,,,5,19,119,15,0,0,0,0,,,,,0,12,12,31,,,,,,down,0.8006034663121682,1275.9008557859797,None,001,90,2019_Nov_01_1403,ACPT_experiment_5_30_19,3.1.0,59.94121425454923,
,,,C,U,d,n,R,U,y,L,u,,,,,5,19,119,15,0,0,0,0,,,,,0,13,13,30,,,,,,down,0.817310475751583,1278.002442299874,None,001,90,2019_Nov_01_1403,ACPT_experiment_5_30_19,3.1.0,59.94121425454923,
,,,C,U,d,n,R,U,d,L,u,,,,,5,19,119,15,0,0,0,0,,,,,0,14,14,8,,,,,,up,1.1341665104591812,1280.1207328046676,None,001,90,2019_Nov_01_1403,ACPT_experiment_5_30_19,3.1.0,59.94121425454923,
,,,C,U,d,n,L,U,d,L,u,,,,,5,19,119,15,0,0,0,0,,,,,0,15,15,20,,,,,,up,0.6838590571715031,1282.522542298031,None,001,90,2019_Nov_01_1403,ACPT_experiment_5_30_19,3.1.0,59.94121425454923,
,,,C,U,d,n,L,G,g,L,c ,,,,,5,19,119,15,0,0,0,0,,,,,0,16,16,18,,,,,,up,0.9006719569588313,1284.4906942971666,None,001,90,2019_Nov_01_1403,ACPT_experiment_5_30_19,3.1.0,59.94121425454923,
,,,C,U,d,n,R,G,d,R,i,,,,,5,19,119,15,0,0,0,0,,,,,0,17,17,5,,,,,,up,0.9674037033255445,1286.6756730813631,None,001,90,2019_Nov_01_1403,ACPT_experiment_5_30_19,3.1.0,59.94121425454923,
,,,C,U,d,n,L,U,g,L,u,,,,,5,19,119,15,0,0,0,0,,,,,0,18,18,22,,,,,,up,0.5670950275307405,1288.9273799896819,None,001,90,2019_Nov_01_1403,ACPT_experiment_5_30_19,3.1.0,59.94121425454923,
,,,C,U,d,n,R,D,g,L,i,,,,,5,19,119,15,0,0,0,0,,,,,0,19,19,2,,,,,,up,0.41697101085810573,1290.778783353724,None,001,90,2019_Nov_01_1403,ACPT_experiment_5_30_19,3.1.0,59.94121425454923,
,,,C,U,d,n,R,D,d,L,c,,,,,5,19,119,15,0,0,0,0,,,,,0,20,20,0,,,,,,up,0.8673427590219944,1292.4633674639535,None,001,90,2019_Nov_01_1403,ACPT_experiment_5_30_19,3.1.0,59.94121425454923,
,,,C,U,d,n,L,G,d,R,i,,,,,5,19,119,15,0,0,0,0,,,,,0,21,21,17,,,,,,up,0.817283610751474,1294.5983332835294,None,001,90,2019_Nov_01_1403,ACPT_experiment_5_30_19,3.1.0,59.94121425454923,
,,,C,U,d,n,R,G,d,L,i,,,,,5,19,119,15,0,0,0,0,,,,,0,22,22,4,,,,,,up,0.6838327958830632,1296.6999345882596,None,001,90,2019_Nov_01_1403,ACPT_experiment_5_30_19,3.1.0,59.94121425454923,
,,,C,U,d,n,R,D,y,R,y,,,,,5,19,119,15,0,0,0,0,,,,,0,23,23,27,,,,,,down,0.6004752387743792,1298.668087191103,None,001,90,2019_Nov_01_1403,ACPT_experiment_5_30_19,3.1.0,59.94121425454923,
,,,C,U,d,n,L,U,g,R,u,,,,,5,19,119,15,0,0,0,0,,,,,0,24,24,23,,,,,,up,1.2342597531242063,1300.5528659367246,None,001,90,2019_Nov_01_1403,ACPT_experiment_5_30_19,3.1.0,59.94121425454923,
,,,C,U,d,n,R,G,y,R,y,,,,,5,19,119,15,0,0,0,0,,,,,0,25,25,29,,,,,,down,0.8173264740034938,1303.0714068595098,None,001,90,2019_Nov_01_1403,ACPT_experiment_5_30_19,3.1.0,59.94121425454923,
,,,C,U,d,n,L,D,g,R,i,,,,,5,19,119,15,0,0,0,0,,,,,0,26,26,15,,,,,,up,0.7338505901716417,1305.1730410663167,None,001,90,2019_Nov_01_1403,ACPT_experiment_5_30_19,3.1.0,59.94121425454923,
,,,C,U,d,n,L,G,g,R,c ,,,,,5,19,119,15,0,0,0,0,,,,,0,27,27,19,,,,,,up,0.4836918904838967,1307.1912033133904,None,001,90,2019_Nov_01_1403,ACPT_experiment_5_30_19,3.1.0,59.94121425454923,
,,,C,U,d,n,L,G,y,R,y,,,,,5,19,119,15,0,0,0,0,,,,,0,28,28,35,,,,,,down,0.7839323774824152,1308.9592002199915,None,001,90,2019_Nov_01_1403,ACPT_experiment_5_30_19,3.1.0,59.94121425454923,
,,,C,U,d,n,R,U,d,R,u,,,,,5,19,119,15,0,0,0,0,,,,,0,29,29,9,,,,,,up,0.9674269460774667,1311.0274080319086,None,001,90,2019_Nov_01_1403,ACPT_experiment_5_30_19,3.1.0,59.94121425454923,
,,,C,U,d,n,R,G,y,L,y,,,,,5,19,119,15,0,0,0,0,,,,,0,30,30,28,,,,,,down,0.9340941258960811,1313.279133655169,None,001,90,2019_Nov_01_1403,ACPT_experiment_5_30_19,3.1.0,59.94121425454923,
,,,C,U,d,n,L,U,d,R,u,,,,,5,19,119,15,0,0,0,0,,,,,0,31,31,21,,,,,,up,1.2175877587360446,1315.49748389685,None,001,90,2019_Nov_01_1403,ACPT_experiment_5_30_19,3.1.0,59.94121425454923,
,,,C,U,d,n,L,G,d,L,i,,,,,5,19,119,15,0,0,0,0,,,,,0,32,32,16,,,,,,up,0.5170503682456911,1317.9993824069297,None,001,90,2019_Nov_01_1403,ACPT_experiment_5_30_19,3.1.0,59.94121425454923,
,,,C,U,d,n,R,D,d,R,c ,,,,,5,19,119,15,0,0,0,0,,,,,0,33,33,1,,,,,,up,0.5001347777651972,1319.801017308002,None,001,90,2019_Nov_01_1403,ACPT_experiment_5_30_19,3.1.0,59.94121425454923,
,,,C,U,d,n,L,D,y,L,y,,,,,5,19,119,15,0,0,0,0,,,,,0,34,34,32,,,,,,down,0.6838481904305809,1321.5854266146398,None,001,90,2019_Nov_01_1403,ACPT_experiment_5_30_19,3.1.0,59.94121425454923,
,,,C,U,d,n,L,U,y,R,u,,,,,5,19,119,15,0,0,0,0,,,,,0,35,35,25,,,,,,down,0.6171587036078563,1323.553573784111,None,001,90,2019_Nov_01_1403,ACPT_experiment_5_30_19,3.1.0,59.94121425454923,
,,,C,U,d,n,L,D,g,L,i,,,,,5,19,119,15,0,0,0,0,,,,,1,0,36,14,,,,,,up,0.5504393332521431,1325.4549997721024,None,001,90,2019_Nov_01_1403,ACPT_experiment_5_30_19,3.1.0,59.94121425454923,
,,,C,U,d,n,R,D,d,R,c ,,,,,5,19,119,15,0,0,0,0,,,,,1,1,37,1,,,,,,up,0.4503451850214333,1327.289745932596,None,001,90,2019_Nov_01_1403,ACPT_experiment_5_30_19,3.1.0,59.94121425454923,
,,,C,U,d,n,L,G,g,R,c ,,,,,5,19,119,15,0,0,0,0,,,,,1,2,38,19,,,,,,up,0.45033431828414905,1329.024388889242,None,001,90,2019_Nov_01_1403,ACPT_experiment_5_30_19,3.1.0,59.94121425454923,
,,,C,U,d,n,L,G,y,L,y,,,,,5,19,119,15,0,0,0,0,,,,,1,3,39,34,,,,,,down,0.8005995422063279,1330.7590378829645,None,001,90,2019_Nov_01_1403,ACPT_experiment_5_30_19,3.1.0,59.94121425454923,
,,,C,U,d,n,R,G,y,R,y,,,,,5,19,119,15,0,0,0,0,,,,,1,4,40,29,,,,,,down,0.6335714055021526,1332.8608679929512,None,001,90,2019_Nov_01_1403,ACPT_experiment_5_30_19,3.1.0,59.94121425454923,
,,,C,U,d,n,L,U,g,L,u,,,,,5,19,119,15,0,0,0,0,,,,,1,5,41,22,,,,,,up,0.8506381644147041,1334.7787453201327,None,001,90,2019_Nov_01_1403,ACPT_experiment_5_30_19,3.1.0,59.94121425454923,
,,,C,U,d,n,R,U,d,R,u,,,,,5,19,119,15,0,0,0,0,,,,,1,6,42,9,,,,,,up,0.7005289385815558,1336.913693330329,None,001,90,2019_Nov_01_1403,ACPT_experiment_5_30_19,3.1.0,59.94121425454923,
,,,C,U,d,n,L,D,d,R,c ,,,,,5,19,119,15,0,0,0,0,,,,,1,7,43,13,,,,,,up,0.5504411443762365,1338.8985263794657,None,001,90,2019_Nov_01_1403,ACPT_experiment_5_30_19,3.1.0,59.94121425454923,
,,,C,U,d,n,L,G,y,R,y,,,,,5,19,119,15,0,0,0,0,,,,,1,8,44,35,,,,,,down,0.7338859070769104,1340.7499303472123,None,001,90,2019_Nov_01_1403,ACPT_experiment_5_30_19,3.1.0,59.94121425454923,
,,,C,U,d,n,R,D,g,L,i,,,,,5,19,119,15,0,0,0,0,,,,,1,9,45,2,,,,,,up,0.45030473659790005,1342.7848213372072,None,001,90,2019_Nov_01_1403,ACPT_experiment_5_30_19,3.1.0,59.94121425454923,
,,,C,U,d,n,L,U,d,R,u,,,,,5,19,119,15,0,0,0,0,,,,,1,10,46,21,,,,,,up,0.4002736607399129,1344.5194706327875,None,001,90,2019_Nov_01_1403,ACPT_experiment_5_30_19,3.1.0,59.94121425454923,
,,,C,U,d,n,L,D,y,R,y,,,,,5,19,119,15,0,0,0,0,,,,,1,11,47,33,,,,,,up,0.75053043276057,1346.2374428024614,None,001,90,2019_Nov_01_1403,ACPT_experiment_5_30_19,3.1.0,59.94121425454923,
,,,C,U,d,n,R,D,y,R,y,,,,,5,19,119,15,0,0,0,0,,,,,1,12,48,27,,,,,,down,0.7505672589359165,1348.2889517549938,None,001,90,2019_Nov_01_1403,ACPT_experiment_5_30_19,3.1.0,59.94121425454923,
,,,C,U,d,n,L,U,d,L,u,,,,,5,19,119,15,0,0,0,0,,,,,1,13,49,20,,,,,,up,1.100835501401889,1350.3238364060544,None,001,90,2019_Nov_01_1403,ACPT_experiment_5_30_19,3.1.0,59.94121425454923,
,,,C,U,d,n,R,U,d,L,u,,,,,5,19,119,15,0,0,0,0,,,,,1,14,50,8,,,,,,up,0.6171254996806965,1352.7089814513802,None,001,90,2019_Nov_01_1403,ACPT_experiment_5_30_19,3.1.0,59.94121425454923,
,,,C,U,d,n,L,G,d,L,i,,,,,5,19,119,15,0,0,0,0,,,,,1,15,51,16,,,,,,up,0.6504860904242378,1354.610419815379,None,001,90,2019_Nov_01_1403,ACPT_experiment_5_30_19,3.1.0,59.94121425454923,
,,,C,U,d,n,L,G,d,R,i,,,,,5,19,119,15,0,0,0,0,,,,,1,16,52,17,,,,,,up,0.5170757239757222,1356.5285111569738,None,001,90,2019_Nov_01_1403,ACPT_experiment_5_30_19,3.1.0,59.94121425454923,
,,,C,U,d,n,L,D,y,L,y,,,,,5,19,119,15,0,0,0,0,,,,,1,17,53,32,,,,,,down,0.7839169829348975,1358.3298964248734,None,001,90,2019_Nov_01_1403,ACPT_experiment_5_30_19,3.1.0,59.94121425454923,
,,,C,U,d,n,R,G,g,L,c ,,,,,5,19,119,15,0,0,0,0,,,,,1,18,54,6,,,,,,up,0.7005222977968515,1360.3981283851044,None,001,90,2019_Nov_01_1403,ACPT_experiment_5_30_19,3.1.0,59.94121425454923,
,,,C,U,d,n,R,U,g,R,u,,,,,5,19,119,15,0,0,0,0,,,,,1,19,55,11,,,,,,up,0.5170760258260998,1362.3829599249711,None,001,90,2019_Nov_01_1403,ACPT_experiment_5_30_19,3.1.0,59.94121425454923,
,,,C,U,d,n,L,G,g,L,c ,,,,,5,19,119,15,0,0,0,0,,,,,1,20,56,18,,,,,,up,0.400325881466415,1364.1843237612466,None,001,90,2019_Nov_01_1403,ACPT_experiment_5_30_19,3.1.0,59.94121425454923,
,,,C,U,d,n,L,U,y,R,u,,,,,5,19,119,15,0,0,0,0,,,,,1,21,57,25,,,,,,down,0.6170584881147079,1365.902355094282,None,001,90,2019_Nov_01_1403,ACPT_experiment_5_30_19,3.1.0,59.94121425454923,
,,,C,U,d,n,R,U,g,L,u,,,,,5,19,119,15,0,0,0,0,,,,,1,22,58,10,,,,,,up,0.5337265885900706,1367.8204195708804,None,001,90,2019_Nov_01_1403,ACPT_experiment_5_30_19,3.1.0,59.94121425454923,
,,,C,U,d,n,L,U,g,R,u,,,,,5,19,119,15,0,0,0,0,,,,,1,23,59,23,,,,,,up,0.45033190345202456,1369.6217764645135,None,001,90,2019_Nov_01_1403,ACPT_experiment_5_30_19,3.1.0,59.94121425454923,
,,,C,U,d,n,R,U,y,R,u,,,,,5,19,119,15,0,0,0,0,,,,,1,24,60,31,,,,,,down,0.9174006998800905,1371.3564010080718,None,001,90,2019_Nov_01_1403,ACPT_experiment_5_30_19,3.1.0,59.94121425454923,
,,,C,U,d,n,R,G,d,R,i,,,,,5,19,119,15,0,0,0,0,,,,,1,25,61,5,,,,,,up,0.7505645422461384,1373.5580864998574,None,001,90,2019_Nov_01_1403,ACPT_experiment_5_30_19,3.1.0,59.94121425454923,
,,,C,U,d,n,R,G,d,L,i,,,,,5,19,119,15,0,0,0,0,,,,,1,26,62,4,,,,,,up,0.5505721489644202,1375.5761301183466,None,001,90,2019_Nov_01_1403,ACPT_experiment_5_30_19,3.1.0,59.94121425454923,
,,,C,U,d,n,R,D,g,R,i,,,,,5,19,119,15,0,0,0,0,,,,,1,27,63,3,,,,,,up,0.5337280978565104,1377.4110051704574,None,001,90,2019_Nov_01_1403,ACPT_experiment_5_30_19,3.1.0,59.94121425454923,
,,,C,U,d,n,L,D,g,R,i,,,,,5,19,119,15,0,0,0,0,,,,,1,28,64,15,,,,,,up,0.5670917071402073,1379.229047641902,None,001,90,2019_Nov_01_1403,ACPT_experiment_5_30_19,3.1.0,59.94121425454923,
,,,C,U,d,n,L,U,y,L,u,,,,,5,19,119,15,0,0,0,0,,,,,1,29,65,24,,,,,,down,0.9340253032059991,1381.0971359800478,None,001,90,2019_Nov_01_1403,ACPT_experiment_5_30_19,3.1.0,59.94121425454923,
,,,C,U,d,n,R,G,y,L,y,,,,,5,19,119,15,0,0,0,0,,,,,1,30,66,28,,,,,,down,1.3676993994013174,1383.3321536883068,None,001,90,2019_Nov_01_1403,ACPT_experiment_5_30_19,3.1.0,59.94121425454923,
,,,C,U,d,n,R,U,y,L,u,,,,,5,19,119,15,0,0,0,0,,,,,1,31,67,30,,,,,,down,1.0007570495727123,1385.9674737334299,None,001,90,2019_Nov_01_1403,ACPT_experiment_5_30_19,3.1.0,59.94121425454923,
,,,C,U,d,n,L,D,d,L,c ,,,,,5,19,119,15,0,0,0,0,,,,,1,32,68,12,,,,,,up,0.8172793847952562,1388.2525439491747,None,001,90,2019_Nov_01_1403,ACPT_experiment_5_30_19,3.1.0,59.94121425454923,
,,,C,U,d,n,R,D,y,L,y,,,,,5,19,119,15,0,0,0,0,,,,,1,33,69,26,,,,,,down,0.9004772611951921,1390.3710834834292,None,001,90,2019_Nov_01_1403,ACPT_experiment_5_30_19,3.1.0,59.94121425454923,
,,,C,U,d,n,R,D,d,L,c,,,,,5,19,119,15,0,0,0,0,,,,,1,34,70,0,,,,,,up,0.6838442663283786,1392.5557957306391,None,001,90,2019_Nov_01_1403,ACPT_experiment_5_30_19,3.1.0,59.94121425454923,
,,,C,U,d,n,R,G,g,R,c ,,,,,5,19,119,15,0,0,0,0,,,,,1,35,71,7,,,,,,up,0.45031771632056916,1394.5239673502747,None,001,90,2019_Nov_01_1403,ACPT_experiment_5_30_19,3.1.0,59.94121425454923,
,,,C,U,d,n,,,,,,,,,,5,19,119,15,1,0,1,0,0,0,0,0,,,,,,,,,,,,,,001,90,2019_Nov_01_1403,ACPT_experiment_5_30_19,3.1.0,59.94121425454923,
,,,C,U,d,n,L,U,d,R,u,,,,,5,19,119,15,1,0,1,0,,,,,0,0,0,21,,,,,,up,0.5167515328903391,1416.123934267087,None,001,90,2019_Nov_01_1403,ACPT_experiment_5_30_19,3.1.0,59.94121425454923,
,,,C,U,d,n,L,D,y,R,y,,,,,5,19,119,15,1,0,1,0,,,,,0,1,1,33,,,,,,down,0.5337374553309928,1417.9249950420508,None,001,90,2019_Nov_01_1403,ACPT_experiment_5_30_19,3.1.0,59.94121425454923,
,,,C,U,d,n,L,U,g,R,u,,,,,5,19,119,15,1,0,1,0,,,,,0,2,2,23,,,,,,up,0.5337353423528839,1419.7430381172035,None,001,90,2019_Nov_01_1403,ACPT_experiment_5_30_19,3.1.0,59.94121425454923,
,,,C,U,d,n,L,G,d,R,i,,,,,5,19,119,15,1,0,1,0,,,,,0,3,3,17,,,,,,up,0.3836194757350313,1421.5610784756736,None,001,90,2019_Nov_01_1403,ACPT_experiment_5_30_19,3.1.0,59.94121425454923,
,,,C,U,d,n,L,D,g,R,i,,,,,5,19,119,15,1,0,1,0,,,,,0,4,4,15,,,,,,up,0.36360897725535324,1423.2490182956662,None,001,90,2019_Nov_01_1403,ACPT_experiment_5_30_19,3.1.0,59.94121425454923,
,,,C,U,d,n,L,D,d,L,c ,,,,,5,19,119,15,1,0,1,0,,,,,0,5,5,12,,,,,,up,0.36693631275193184,1424.8969395335353,None,001,90,2019_Nov_01_1403,ACPT_experiment_5_30_19,3.1.0,59.94121425454923,
,,,C,U,d,n,R,U,y,R,u,,,,,5,19,119,15,1,0,1,0,,,,,0,6,6,31,,,,,,down,0.43364059041414293,1426.5815511124692,None,001,90,2019_Nov_01_1403,ACPT_experiment_5_30_19,3.1.0,59.94121425454923,
,,,C,U,d,n,R,D,g,R,i,,,,,5,19,119,15,1,0,1,0,,,,,0,7,7,3,,,,,,up,0.450218708239845,1428.3329840883762,None,001,90,2019_Nov_01_1403,ACPT_experiment_5_30_19,3.1.0,59.94121425454923,
,,,C,U,d,n,L,G,y,L,y,,,,,5,19,119,15,1,0,1,0,,,,,0,8,8,34,,,,,,down,0.767034898235579,1430.0844569089986,None,001,90,2019_Nov_01_1403,ACPT_experiment_5_30_19,3.1.0,59.94121425454923,
,,,C,U,d,n,L,U,y,R,u,,,,,5,19,119,15,1,0,1,0,,,,,0,9,9,25,,,,,,down,0.7005159588625247,1432.1357621101506,None,001,90,2019_Nov_01_1403,ACPT_experiment_5_30_19,3.1.0,59.94121425454923,
,,,C,U,d,n,L,G,y,R,y,,,,,5,19,119,15,1,0,1,0,,,,,0,10,10,35,,,,,,down,0.6671955146921391,1434.1038806035012,None,001,90,2019_Nov_01_1403,ACPT_experiment_5_30_19,3.1.0,59.94121425454923,
,,,C,U,d,n,R,D,d,L,c,,,,,5,19,119,15,1,0,1,0,,,,,0,11,11,0,,,,,,up,0.5671409093192779,1436.055374191672,None,001,90,2019_Nov_01_1403,ACPT_experiment_5_30_19,3.1.0,59.94121425454923,
,,,C,U,d,n,R,U,d,R,u,,,,,5,19,119,15,1,0,1,0,,,,,0,12,12,9,,,,,,up,0.5004161055949226,1437.9067778575682,None,001,90,2019_Nov_01_1403,ACPT_experiment_5_30_19,3.1.0,59.94121425454923,
,,,C,U,d,n,L,U,y,L,u,,,,,5,19,119,15,1,0,1,0,,,,,0,13,13,24,,,,,,down,0.7005168644282094,1439.6914703031598,None,001,90,2019_Nov_01_1403,ACPT_experiment_5_30_19,3.1.0,59.94121425454923,
,,,C,U,d,n,R,U,d,L,u,,,,,5,19,119,15,1,0,1,0,,,,,0,14,14,8,,,,,,up,1.6512515919021098,1441.6763181431397,None,001,90,2019_Nov_01_1403,ACPT_experiment_5_30_19,3.1.0,59.94121425454923,
,,,C,U,d,n,R,U,y,L,u,,,,,5,19,119,15,1,0,1,0,,,,,0,15,15,30,,,,,,down,0.6338047385615937,1444.5951764954825,None,001,90,2019_Nov_01_1403,ACPT_experiment_5_30_19,3.1.0,59.94121425454923,
,,,C,U,d,n,L,U,d,L,u,,,,,5,19,119,15,1,0,1,0,,,,,0,16,16,20,,,,,,up,0.600412755018624,1446.5133535635814,None,001,90,2019_Nov_01_1403,ACPT_experiment_5_30_19,3.1.0,59.94121425454923,
,,,C,U,d,n,L,G,g,L,c ,,,,,5,19,119,15,1,0,1,0,,,,,0,17,17,18,,,,,,up,0.6004755406283948,1448.39803360298,None,001,90,2019_Nov_01_1403,ACPT_experiment_5_30_19,3.1.0,59.94121425454923,
,,,C,U,d,n,L,D,y,L,y,,,,,5,19,119,15,1,0,1,0,,,,,0,18,18,32,,,,,,down,0.633833414682158,1450.2828129523095,None,001,90,2019_Nov_01_1403,ACPT_experiment_5_30_19,3.1.0,59.94121425454923,
,,,C,U,d,n,R,U,g,R,u,,,,,5,19,119,15,1,0,1,0,,,,,0,19,19,11,,,,,,up,0.5504148830877966,1452.2009341774374,None,001,90,2019_Nov_01_1403,ACPT_experiment_5_30_19,3.1.0,59.94121425454923,
,,,C,U,d,n,R,G,d,L,i,,,,,5,19,119,15,1,0,1,0,,,,,0,20,20,4,,,,,,up,0.6338373387807223,1454.035628419062,None,001,90,2019_Nov_01_1403,ACPT_experiment_5_30_19,3.1.0,59.94121425454923,
,,,C,U,d,n,L,G,g,R,c ,,,,,5,19,119,15,1,0,1,0,,,,,0,21,21,19,,,,,,up,0.5337567739807128,1455.9537481349198,None,001,90,2019_Nov_01_1403,ACPT_experiment_5_30_19,3.1.0,59.94121425454923,
,,,C,U,d,n,R,U,g,L,u,,,,,5,19,119,15,1,0,1,0,,,,,0,22,22,10,,,,,,up,0.41698429242751445,1457.7551355157975,None,001,90,2019_Nov_01_1403,ACPT_experiment_5_30_19,3.1.0,59.94121425454923,
,,,C,U,d,n,R,D,y,L,y,,,,,5,19,119,15,1,0,1,0,,,,,0,23,23,26,,,,,,down,0.733888925613428,1459.4564251261963,None,001,90,2019_Nov_01_1403,ACPT_experiment_5_30_19,3.1.0,59.94121425454923,
,,,C,U,d,n,R,G,g,L,c ,,,,,5,19,119,15,1,0,1,0,,,,,0,24,24,6,,,,,,up,0.90044013316583,1461.4915391862214,None,001,90,2019_Nov_01_1403,ACPT_experiment_5_30_19,3.1.0,59.94121425454923,
,,,C,U,d,n,L,D,d,R,c ,,,,,5,19,119,15,1,0,1,0,,,,,0,25,25,13,,,,,,up,0.5837763793897466,1463.6762843355045,None,001,90,2019_Nov_01_1403,ACPT_experiment_5_30_19,3.1.0,59.94121425454923,
,,,C,U,d,n,R,G,g,R,c ,,,,,5,19,119,15,1,0,1,0,,,,,0,26,26,7,,,,,,up,0.6504875996906776,1465.5443642217415,None,001,90,2019_Nov_01_1403,ACPT_experiment_5_30_19,3.1.0,59.94121425454923,
,,,C,U,d,n,R,G,y,L,y,,,,,5,19,119,15,1,0,1,0,,,,,0,27,27,28,,,,,,down,0.7505805405053252,1467.4624754856904,None,001,90,2019_Nov_01_1403,ACPT_experiment_5_30_19,3.1.0,59.94121425454923,
,,,C,U,d,n,L,G,d,L,i,,,,,5,19,119,15,1,0,1,0,,,,,0,28,28,16,,,,,,up,0.6171318386150233,1469.4973550052364,None,001,90,2019_Nov_01_1403,ACPT_experiment_5_30_19,3.1.0,59.94121425454923,
,,,C,U,d,n,R,G,d,R,i,,,,,5,19,119,15,1,0,1,0,,,,,0,29,29,5,,,,,,up,0.833959529241838,1471.3987948785052,None,001,90,2019_Nov_01_1403,ACPT_experiment_5_30_19,3.1.0,59.94121425454923,
,,,C,U,d,n,R,G,y,R,y,,,,,5,19,119,15,1,0,1,0,,,,,0,30,30,29,,,,,,down,0.7338361011825327,1473.5171074186346,None,001,90,2019_Nov_01_1403,ACPT_experiment_5_30_19,3.1.0,59.94121425454923,
,,,C,U,d,n,R,D,y,R,y,,,,,5,19,119,15,1,0,1,0,,,,,0,31,31,27,,,,,,down,0.6171128218193189,1475.568629350886,None,001,90,2019_Nov_01_1403,ACPT_experiment_5_30_19,3.1.0,59.94121425454923,
,,,C,U,d,n,R,D,g,L,i,,,,,5,19,119,15,1,0,1,0,,,,,0,32,32,2,,,,,,up,0.5336991198819305,1477.4700906557828,None,001,90,2019_Nov_01_1403,ACPT_experiment_5_30_19,3.1.0,59.94121425454923,
,,,C,U,d,n,R,D,d,R,c ,,,,,5,19,119,15,1,0,1,0,,,,,0,33,33,1,,,,,,up,0.5170527830778155,1479.2880996214462,None,001,90,2019_Nov_01_1403,ACPT_experiment_5_30_19,3.1.0,59.94121425454923,
,,,C,U,d,n,L,U,g,L,u,,,,,5,19,119,15,1,0,1,0,,,,,0,34,34,22,,,,,,up,0.48369068306783447,1481.089461948448,None,001,90,2019_Nov_01_1403,ACPT_experiment_5_30_19,3.1.0,59.94121425454923,
,,,C,U,d,n,L,D,g,L,i,,,,,5,19,119,15,1,0,1,0,,,,,0,35,35,14,,,,,,up,0.4667406812404806,1482.8744212328875,None,001,90,2019_Nov_01_1403,ACPT_experiment_5_30_19,3.1.0,59.94121425454923,
,,,C,U,d,n,R,U,d,R,u,,,,,5,19,119,15,1,0,1,0,,,,,1,0,36,9,,,,,,up,0.5837718515831511,1484.6254654209752,None,001,90,2019_Nov_01_1403,ACPT_experiment_5_30_19,3.1.0,59.94121425454923,
,,,C,U,d,n,R,G,g,L,c ,,,,,5,19,119,15,1,0,1,0,,,,,1,1,37,6,,,,,,up,0.8006233886662812,1486.493523875588,None,001,90,2019_Nov_01_1403,ACPT_experiment_5_30_19,3.1.0,59.94121425454923,
,,,C,U,d,n,R,D,y,R,y,,,,,5,19,119,15,1,0,1,0,,,,,1,2,38,27,,,,,,down,0.5670847644978494,1488.5784622415504,None,001,90,2019_Nov_01_1403,ACPT_experiment_5_30_19,3.1.0,59.94121425454923,
,,,C,U,d,n,L,U,y,R,u,,,,,5,19,119,15,1,0,1,0,,,,,1,3,39,25,,,,,,down,0.6671577829547459,1490.4298692278371,None,001,90,2019_Nov_01_1403,ACPT_experiment_5_30_19,3.1.0,59.94121425454923,
,,,C,U,d,n,R,G,y,L,y,,,,,5,19,119,15,1,0,1,0,,,,,1,4,40,28,,,,,,down,0.8339688867126824,1492.3813344417413,None,001,90,2019_Nov_01_1403,ACPT_experiment_5_30_19,3.1.0,59.94121425454923,
,,,C,U,d,n,L,D,d,L,c ,,,,,5,19,119,15,1,0,1,0,,,,,1,5,41,12,,,,,,up,0.6671761960424192,1494.4996014019289,None,001,90,2019_Nov_01_1403,ACPT_experiment_5_30_19,3.1.0,59.94121425454923,
,,,C,U,d,n,L,G,y,L,y,,,,,5,19,119,15,1,0,1,0,,,,,1,6,42,34,,,,,,down,0.6338080589557649,1496.4510826140922,None,001,90,2019_Nov_01_1403,ACPT_experiment_5_30_19,3.1.0,59.94121425454923,
,,,C,U,d,n,L,D,g,R,i,,,,,5,19,119,15,1,0,1,0,,,,,1,7,43,15,,,,,,up,0.7672401588824869,1498.369203235512,None,001,90,2019_Nov_01_1403,ACPT_experiment_5_30_19,3.1.0,59.94121425454923,
,,,C,U,d,n,L,G,g,R,c ,,,,,5,19,119,15,1,0,1,0,,,,,1,8,44,19,,,,,,up,0.7839218125955085,1500.42075203276,None,001,90,2019_Nov_01_1403,ACPT_experiment_5_30_19,3.1.0,59.94121425454923,
,,,C,U,d,n,R,U,d,L,u,,,,,5,19,119,15,1,0,1,0,,,,,1,9,45,8,,,,,,up,0.7005301459976181,1502.488981880013,None,001,90,2019_Nov_01_1403,ACPT_experiment_5_30_19,3.1.0,59.94121425454923,
,,,C,U,d,n,R,D,y,L,y,,,,,5,19,119,15,1,0,1,0,,,,,1,10,46,26,,,,,,down,0.5670775200051139,1504.4738324366754,None,001,90,2019_Nov_01_1403,ACPT_experiment_5_30_19,3.1.0,59.94121425454923,
,,,C,U,d,n,L,D,d,R,c ,,,,,5,19,119,15,1,0,1,0,,,,,1,11,47,13,,,,,,up,0.6004453552377527,1506.325220708024,None,001,90,2019_Nov_01_1403,ACPT_experiment_5_30_19,3.1.0,59.94121425454923,
,,,C,U,d,n,R,D,g,L,i,,,,,5,19,119,15,1,0,1,0,,,,,1,12,48,2,,,,,,up,0.6805256845946133,1508.2299815778588,None,001,90,2019_Nov_01_1403,ACPT_experiment_5_30_19,3.1.0,59.94121425454923,
,,,C,U,d,n,L,D,g,L,i,,,,,5,19,119,15,1,0,1,0,,,,,1,13,49,14,,,,,,up,0.43366172018795623,1510.1948128822787,None,001,90,2019_Nov_01_1403,ACPT_experiment_5_30_19,3.1.0,59.94121425454923,
,,,C,U,d,n,L,U,g,L,u,,,,,5,19,119,15,1,0,1,0,,,,,1,14,50,22,,,,,,up,0.4336587016478006,1511.912780826,None,001,90,2019_Nov_01_1403,ACPT_experiment_5_30_19,3.1.0,59.94121425454923,
,,,C,U,d,n,R,G,g,R,c ,,,,,5,19,119,15,1,0,1,0,,,,,1,15,51,7,,,,,,up,0.4169704071500746,1513.6307508826958,None,001,90,2019_Nov_01_1403,ACPT_experiment_5_30_19,3.1.0,59.94121425454923,
,,,C,U,d,n,R,G,d,R,i,,,,,5,19,119,15,1,0,1,0,,,,,1,16,52,5,,,,,,up,0.46658583019234356,1515.349114858729,None,001,90,2019_Nov_01_1403,ACPT_experiment_5_30_19,3.1.0,59.94121425454923,
,,,C,U,d,n,R,D,d,R,c ,,,,,5,19,119,15,1,0,1,0,,,,,1,17,53,1,,,,,,up,0.4503581647404644,1517.1000189866118,None,001,90,2019_Nov_01_1403,ACPT_experiment_5_30_19,3.1.0,59.94121425454923,
,,,C,U,d,n,L,U,d,L,u,,,,,5,19,119,15,1,0,1,0,,,,,1,18,54,20,,,,,,up,0.5003729404888873,1518.8346876008382,None,001,90,2019_Nov_01_1403,ACPT_experiment_5_30_19,3.1.0,59.94121425454923,
,,,C,U,d,n,R,D,g,R,i,,,,,5,19,119,15,1,0,1,0,,,,,1,19,55,3,,,,,,up,0.46700993492049747,1520.6193697834005,None,001,90,2019_Nov_01_1403,ACPT_experiment_5_30_19,3.1.0,59.94121425454923,
,,,C,U,d,n,L,G,d,R,i,,,,,5,19,119,15,1,0,1,0,,,,,1,20,56,17,,,,,,up,0.45007713876111666,1522.3876413770467,None,001,90,2019_Nov_01_1403,ACPT_experiment_5_30_19,3.1.0,59.94121425454923,
,,,C,U,d,n,R,U,y,L,u,,,,,5,19,119,15,1,0,1,0,,,,,1,21,57,30,,,,,,down,0.5670868774759583,1524.13870307266,None,001,90,2019_Nov_01_1403,ACPT_experiment_5_30_19,3.1.0,59.94121425454923,
,,,C,U,d,n,L,G,d,L,i,,,,,5,19,119,15,1,0,1,0,,,,,1,22,58,16,,,,,,up,0.6838424552079232,1526.0067811477766,None,001,90,2019_Nov_01_1403,ACPT_experiment_5_30_19,3.1.0,59.94121425454923,
,,,C,U,d,n,L,G,g,L,c ,,,,,5,19,119,15,1,0,1,0,,,,,1,23,59,18,,,,,,up,0.5170932314977108,1527.9582309671296,None,001,90,2019_Nov_01_1403,ACPT_experiment_5_30_19,3.1.0,59.94121425454923,
,,,C,U,d,n,L,U,g,R,u,,,,,5,19,119,15,1,0,1,0,,,,,1,24,60,23,,,,,,up,0.5304043846081186,1529.7796243186767,None,001,90,2019_Nov_01_1403,ACPT_experiment_5_30_19,3.1.0,59.94121425454923,
,,,C,U,d,n,R,U,g,R,u,,,,,5,19,119,15,1,0,1,0,,,,,1,25,61,11,,,,,,up,1.300989084658795,1531.5943355305299,None,001,90,2019_Nov_01_1403,ACPT_experiment_5_30_19,3.1.0,59.94121425454923,
,,,C,U,d,n,R,G,y,R,y,,,,,5,19,119,15,1,0,1,0,,,,,1,26,62,29,,,,,,down,0.8506360514365952,1534.179629631306,None,001,90,2019_Nov_01_1403,ACPT_experiment_5_30_19,3.1.0,59.94121425454923,
,,,C,U,d,n,R,U,g,L,u,,,,,5,19,119,15,1,0,1,0,,,,,1,27,63,10,,,,,,up,0.5334926518225984,1536.3315001746214,None,001,90,2019_Nov_01_1403,ACPT_experiment_5_30_19,3.1.0,59.94121425454923,
,,,C,U,d,n,R,G,d,L,i,,,,,5,19,119,15,1,0,1,0,,,,,1,28,64,4,,,,,,up,0.4503678240653244,1538.1493020685139,None,001,90,2019_Nov_01_1403,ACPT_experiment_5_30_19,3.1.0,59.94121425454923,
,,,C,U,d,n,R,U,y,R,u,,,,,5,19,119,15,1,0,1,0,,,,,1,29,65,31,,,,,,down,0.40028724416697514,1539.883947439992,None,001,90,2019_Nov_01_1403,ACPT_experiment_5_30_19,3.1.0,59.94121425454923,
,,,C,U,d,n,L,G,y,R,y,,,,,5,19,119,15,1,0,1,0,,,,,1,30,66,35,,,,,,down,0.6338110774959205,1541.5685544911194,None,001,90,2019_Nov_01_1403,ACPT_experiment_5_30_19,3.1.0,59.94121425454923,
,,,C,U,d,n,L,U,d,R,u,,,,,5,19,119,15,1,0,1,0,,,,,1,31,67,21,,,,,,up,0.6502207608464232,1543.5036223976804,None,001,90,2019_Nov_01_1403,ACPT_experiment_5_30_19,3.1.0,59.94121425454923,
,,,C,U,d,n,L,D,y,R,y,,,,,5,19,119,15,1,0,1,0,,,,,1,32,68,33,,,,,,down,0.8673149884634768,1545.454829526503,None,001,90,2019_Nov_01_1403,ACPT_experiment_5_30_19,3.1.0,59.94121425454923,
,,,C,U,d,n,R,D,d,L,c,,,,,5,19,119,15,1,0,1,0,,,,,1,33,69,0,,,,,,up,0.6671662348635437,1547.623135108899,None,001,90,2019_Nov_01_1403,ACPT_experiment_5_30_19,3.1.0,59.94121425454923,
,,,C,U,d,n,L,U,y,L,u,,,,,5,19,119,15,1,0,1,0,,,,,1,34,70,24,,,,,,down,0.650492127500911,1549.5746108876901,None,001,90,2019_Nov_01_1403,ACPT_experiment_5_30_19,3.1.0,59.94121425454923,
,,,C,U,d,n,L,D,y,L,y,,,,,5,19,119,15,1,0,1,0,,,,,1,35,71,32,,,,,,down,0.6504882033987087,1551.5260914961418,None,001,90,2019_Nov_01_1403,ACPT_experiment_5_30_19,3.1.0,59.94121425454923,
,,,C,U,d,n,,,,,,,,,,5,19,119,15,2,0,2,0,0,0,0,0,,,,,,,,,,,,,,001,90,2019_Nov_01_1403,ACPT_experiment_5_30_19,3.1.0,59.94121425454923,
,,,C,U,d,n,R,U,d,L,u,,,,,5,19,119,15,2,0,2,0,,,,,0,0,0,8,,,,,,up,0.5337142125790706,1559.3653684836154,None,001,90,2019_Nov_01_1403,ACPT_experiment_5_30_19,3.1.0,59.94121425454923,
,,,C,U,d,n,R,U,g,L,u,,,,,5,19,119,15,2,0,2,0,,,,,0,1,1,10,,,,,,up,0.5337268904440862,1561.1834022013009,None,001,90,2019_Nov_01_1403,ACPT_experiment_5_30_19,3.1.0,59.94121425454923,
,,,C,U,d,n,L,U,g,L,u,,,,,5,19,119,15,2,0,2,0,,,,,0,2,2,22,,,,,,up,0.40032467405035277,1562.9847340410615,None,001,90,2019_Nov_01_1403,ACPT_experiment_5_30_19,3.1.0,59.94121425454923,
,,,C,U,d,n,L,G,g,L,c ,,,,,5,19,119,15,2,0,2,0,,,,,0,3,3,18,,,,,,up,0.366932086795714,1564.669373390554,None,001,90,2019_Nov_01_1403,ACPT_experiment_5_30_19,3.1.0,59.94121425454923,
,,,C,U,d,n,L,D,y,R,y,,,,,5,19,119,15,2,0,2,0,,,,,0,4,4,33,,,,,,down,0.4834165997308446,1566.3375677397871,None,001,90,2019_Nov_01_1403,ACPT_experiment_5_30_19,3.1.0,59.94121425454923,
,,,C,U,d,n,L,G,y,R,y,,,,,5,19,119,15,2,0,2,0,,,,,0,5,5,35,,,,,,down,0.41697644422674784,1568.1052996186681,None,001,90,2019_Nov_01_1403,ACPT_experiment_5_30_19,3.1.0,59.94121425454923,
,,,C,U,d,n,R,D,y,L,y,,,,,5,19,119,15,2,0,2,0,,,,,0,6,6,26,,,,,,down,0.7505585051694652,1569.806590134629,None,001,90,2019_Nov_01_1403,ACPT_experiment_5_30_19,3.1.0,59.94121425454923,
,,,C,U,d,n,R,G,y,L,y,,,,,5,19,119,15,2,0,2,0,,,,,0,7,7,28,,,,,,down,0.6838493978466431,1571.8247807559692,None,001,90,2019_Nov_01_1403,ACPT_experiment_5_30_19,3.1.0,59.94121425454923,
,,,C,U,d,n,L,D,d,R,c ,,,,,5,19,119,15,2,0,2,0,,,,,0,8,8,13,,,,,,up,0.5670763125890517,1573.7929487533602,None,001,90,2019_Nov_01_1403,ACPT_experiment_5_30_19,3.1.0,59.94121425454923,
,,,C,U,d,n,R,D,y,R,y,,,,,5,19,119,15,2,0,2,0,,,,,0,9,9,27,,,,,,down,0.5003874294779962,1575.644344872906,None,001,90,2019_Nov_01_1403,ACPT_experiment_5_30_19,3.1.0,59.94121425454923,
,,,C,U,d,n,R,D,g,L,i,,,,,5,19,119,15,2,0,2,0,,,,,0,10,10,2,,,,,,up,0.4503358275505889,1577.4290228295122,None,001,90,2019_Nov_01_1403,ACPT_experiment_5_30_19,3.1.0,59.94121425454923,
,,,C,U,d,n,L,G,d,L,i,,,,,5,19,119,15,2,0,2,0,,,,,0,11,11,16,,,,,,up,0.5334380162639718,1579.1806360121973,None,001,90,2019_Nov_01_1403,ACPT_experiment_5_30_19,3.1.0,59.94121425454923,
,,,C,U,d,n,L,G,g,R,c ,,,,,5,19,119,15,2,0,2,0,,,,,0,12,12,19,,,,,,up,0.4670778520448948,1580.98168290188,None,001,90,2019_Nov_01_1403,ACPT_experiment_5_30_19,3.1.0,59.94121425454923,
,,,C,U,d,n,R,D,d,R,c ,,,,,5,19,119,15,2,0,2,0,,,,,0,13,13,1,,,,,,up,0.4169746331026545,1582.733038301334,None,001,90,2019_Nov_01_1403,ACPT_experiment_5_30_19,3.1.0,59.94121425454923,
,,,C,U,d,n,L,G,d,R,i,,,,,5,19,119,15,2,0,2,0,,,,,0,14,14,17,,,,,,up,0.5504121664016566,1584.4343212709518,None,001,90,2019_Nov_01_1403,ACPT_experiment_5_30_19,3.1.0,59.94121425454923,
,,,C,U,d,n,L,D,y,L,y,,,,,5,19,119,15,2,0,2,0,,,,,0,15,15,32,,,,,,down,0.450071403538459,1586.2859947942288,None,001,90,2019_Nov_01_1403,ACPT_experiment_5_30_19,3.1.0,59.94121425454923,
,,,C,U,d,n,L,U,y,R,u,,,,,5,19,119,15,2,0,2,0,,,,,0,16,16,25,,,,,,down,0.5504100534235477,1588.0370486416414,None,001,90,2019_Nov_01_1403,ACPT_experiment_5_30_19,3.1.0,59.94121425454923,
,,,C,U,d,n,R,G,g,L,c ,,,,,5,19,119,15,2,0,2,0,,,,,0,17,17,6,,,,,,up,0.40031622214155504,1589.8884287629353,None,001,90,2019_Nov_01_1403,ACPT_experiment_5_30_19,3.1.0,59.94121425454923,
,,,C,U,d,n,L,U,y,L,u,,,,,5,19,119,15,2,0,2,0,,,,,0,18,18,24,,,,,,down,0.5004004091933894,1591.5730294751284,None,001,90,2019_Nov_01_1403,ACPT_experiment_5_30_19,3.1.0,59.94121425454923,
,,,C,U,d,n,L,G,y,L,y,,,,,5,19,119,15,2,0,2,0,,,,,0,19,19,34,,,,,,down,0.5334944629430538,1593.3746634706386,None,001,90,2019_Nov_01_1403,ACPT_experiment_5_30_19,3.1.0,59.94121425454923,
,,,C,U,d,n,L,D,g,L,i,,,,,5,19,119,15,2,0,2,0,,,,,0,20,20,14,,,,,,up,0.6337977959228738,1595.192465062677,None,001,90,2019_Nov_01_1403,ACPT_experiment_5_30_19,3.1.0,59.94121425454923,
,,,C,U,d,n,R,U,d,R,u,,,,,5,19,119,15,2,0,2,0,,,,,0,21,21,9,,,,,,up,0.7172066681960132,1597.1105796470201,None,001,90,2019_Nov_01_1403,ACPT_experiment_5_30_19,3.1.0,59.94121425454923,
,,,C,U,d,n,L,D,d,L,c ,,,,,5,19,119,15,2,0,2,0,,,,,0,22,22,12,,,,,,up,0.7339043201609456,1599.1120750312202,None,001,90,2019_Nov_01_1403,ACPT_experiment_5_30_19,3.1.0,59.94121425454923,
,,,C,U,d,n,L,U,d,R,u,,,,,5,19,119,15,2,0,2,0,,,,,0,23,23,21,,,,,,up,0.43366473872447386,1601.1136039212015,None,001,90,2019_Nov_01_1403,ACPT_experiment_5_30_19,3.1.0,59.94121425454923,
,,,C,U,d,n,R,D,g,R,i,,,,,5,19,119,15,2,0,2,0,,,,,0,24,24,3,,,,,,up,0.7339245443727123,1602.8315546592512,None,001,90,2019_Nov_01_1403,ACPT_experiment_5_30_19,3.1.0,59.94121425454923,
,,,C,U,d,n,L,D,g,R,i,,,,,5,19,119,15,2,0,2,0,,,,,0,25,25,15,,,,,,up,0.733876549602428,1604.849773956712,None,001,90,2019_Nov_01_1403,ACPT_experiment_5_30_19,3.1.0,59.94121425454923,
,,,C,U,d,n,R,G,g,R,c ,,,,,5,19,119,15,2,0,2,0,,,,,0,26,26,7,,,,,,up,0.5167738700765767,1606.8849188058284,None,001,90,2019_Nov_01_1403,ACPT_experiment_5_30_19,3.1.0,59.94121425454923,
,,,C,U,d,n,R,D,d,L,c,,,,,5,19,119,15,2,0,2,0,,,,,0,27,27,0,,,,,,up,0.48367196812614566,1608.686029688537,None,001,90,2019_Nov_01_1403,ACPT_experiment_5_30_19,3.1.0,59.94121425454923,
,,,C,U,d,n,L,U,d,L,u,,,,,5,19,119,15,2,0,2,0,,,,,0,28,28,20,,,,,,up,0.41702504270506324,1610.4540214636236,None,001,90,2019_Nov_01_1403,ACPT_experiment_5_30_19,3.1.0,59.94121425454923,
,,,C,U,d,n,R,G,y,R,y,,,,,5,19,119,15,2,0,2,0,,,,,0,29,29,29,,,,,,down,0.5670938201146782,1612.155295981329,None,001,90,2019_Nov_01_1403,ACPT_experiment_5_30_19,3.1.0,59.94121425454923,
,,,C,U,d,n,R,G,d,R,i,,,,,5,19,119,15,2,0,2,0,,,,,0,30,30,5,,,,,,up,0.4167310370103223,1614.0236227840523,None,001,90,2019_Nov_01_1403,ACPT_experiment_5_30_19,3.1.0,59.94121425454923,
,,,C,U,d,n,R,G,d,L,i,,,,,5,19,119,15,2,0,2,0,,,,,0,31,31,4,,,,,,up,0.5005057562048023,1615.7245139473107,None,001,90,2019_Nov_01_1403,ACPT_experiment_5_30_19,3.1.0,59.94121425454923,
,,,C,U,d,n,R,U,g,R,u,,,,,5,19,119,15,2,0,2,0,,,,,0,32,32,11,,,,,,up,0.517079346220271,1617.509348264235,None,001,90,2019_Nov_01_1403,ACPT_experiment_5_30_19,3.1.0,59.94121425454923,
,,,C,U,d,n,R,U,y,L,u,,,,,5,19,119,15,2,0,2,0,,,,,0,33,33,30,,,,,,down,0.8339794515995891,1619.3106906688827,None,001,90,2019_Nov_01_1403,ACPT_experiment_5_30_19,3.1.0,59.94121425454923,
,,,C,U,d,n,R,U,y,R,u,,,,,5,19,119,15,2,0,2,0,,,,,0,34,34,31,,,,,,down,0.5670853682058805,1621.4456640348017,None,001,90,2019_Nov_01_1403,ACPT_experiment_5_30_19,3.1.0,59.94121425454923,
,,,C,U,d,n,L,U,g,R,u,,,,,5,19,119,15,2,0,2,0,,,,,0,35,35,23,,,,,,up,0.6171659481005918,1623.2970347986247,None,001,90,2019_Nov_01_1403,ACPT_experiment_5_30_19,3.1.0,59.94121425454923,
,,,C,U,d,n,L,G,y,R,y,,,,,5,19,119,15,2,0,2,0,,,,,1,0,36,35,,,,,,down,0.5004124833467358,1625.1984958016637,None,001,90,2019_Nov_01_1403,ACPT_experiment_5_30_19,3.1.0,59.94121425454923,
,,,C,U,d,n,L,U,y,R,u,,,,,5,19,119,15,2,0,2,0,,,,,1,1,37,25,,,,,,down,0.5001290425389016,1627.0001068562797,None,001,90,2019_Nov_01_1403,ACPT_experiment_5_30_19,3.1.0,59.94121425454923,
,,,C,U,d,n,L,D,y,L,y,,,,,5,19,119,15,2,0,2,0,,,,,1,2,38,32,,,,,,down,0.9507585739338538,1628.784544537184,None,001,90,2019_Nov_01_1403,ACPT_experiment_5_30_19,3.1.0,59.94121425454923,
,,,C,U,d,n,L,U,g,L,u,,,,,5,19,119,15,2,0,2,0,,,,,1,3,39,22,,,,,,up,0.6338083608097804,1631.0195713010598,None,001,90,2019_Nov_01_1403,ACPT_experiment_5_30_19,3.1.0,59.94121425454923,
,,,C,U,d,n,R,D,y,R,y,,,,,5,19,119,15,2,0,2,0,,,,,1,4,40,27,,,,,,down,0.45033371457247995,1632.937688602089,None,001,90,2019_Nov_01_1403,ACPT_experiment_5_30_19,3.1.0,59.94121425454923,
,,,C,U,d,n,L,U,d,R,u,,,,,5,19,119,15,2,0,2,0,,,,,1,5,41,21,,,,,,up,0.6002008535797358,1634.6892640530332,None,001,90,2019_Nov_01_1403,ACPT_experiment_5_30_19,3.1.0,59.94121425454923,
,,,C,U,d,n,L,G,g,L,c ,,,,,5,19,119,15,2,0,2,0,,,,,1,6,42,18,,,,,,up,0.6004915388875816,1636.5737699227338,None,001,90,2019_Nov_01_1403,ACPT_experiment_5_30_19,3.1.0,59.94121425454923,
,,,C,U,d,n,L,U,d,L,u,,,,,5,19,119,15,2,0,2,0,,,,,1,7,43,20,,,,,,up,0.5170666683552554,1638.4585130495961,None,001,90,2019_Nov_01_1403,ACPT_experiment_5_30_19,3.1.0,59.94121425454923,
,,,C,U,d,n,R,D,g,R,i,,,,,5,19,119,15,2,0,2,0,,,,,1,8,44,3,,,,,,up,0.5336414657904243,1640.2598738673314,None,001,90,2019_Nov_01_1403,ACPT_experiment_5_30_19,3.1.0,59.94121425454923,
,,,C,U,d,n,L,D,d,L,c ,,,,,5,19,119,15,2,0,2,0,,,,,1,9,45,12,,,,,,up,0.867387131544092,1642.0779341481593,None,001,90,2019_Nov_01_1403,ACPT_experiment_5_30_19,3.1.0,59.94121425454923,
,,,C,U,d,n,R,U,g,R,u,,,,,5,19,119,15,2,0,2,0,,,,,1,10,46,11,,,,,,up,0.40029962017797516,1644.229564717627,None,001,90,2019_Nov_01_1403,ACPT_experiment_5_30_19,3.1.0,59.94121425454923,
,,,C,U,d,n,R,D,d,L,c,,,,,5,19,119,15,2,0,2,0,,,,,1,11,47,0,,,,,,up,0.4170042147889035,1645.9141720706048,None,001,90,2019_Nov_01_1403,ACPT_experiment_5_30_19,3.1.0,59.94121425454923,
,,,C,U,d,n,R,G,d,R,i,,,,,5,19,119,15,2,0,2,0,,,,,1,12,48,5,,,,,,up,0.4636940698692342,1647.6354649349905,None,001,90,2019_Nov_01_1403,ACPT_experiment_5_30_19,3.1.0,59.94121425454923,
,,,C,U,d,n,R,U,g,L,u,,,,,5,19,119,15,2,0,2,0,,,,,1,13,49,10,,,,,,up,0.45033190345202456,1649.383462813561,None,001,90,2019_Nov_01_1403,ACPT_experiment_5_30_19,3.1.0,59.94121425454923,
,,,C,U,d,n,R,U,d,R,u,,,,,5,19,119,15,2,0,2,0,,,,,1,14,50,9,,,,,,up,0.400321051805804,1651.1014135516107,None,001,90,2019_Nov_01_1403,ACPT_experiment_5_30_19,3.1.0,59.94121425454923,
,,,C,U,d,n,R,G,d,L,i,,,,,5,19,119,15,2,0,2,0,,,,,1,15,51,4,,,,,,up,0.4002984127619129,1652.7693615880653,None,001,90,2019_Nov_01_1403,ACPT_experiment_5_30_19,3.1.0,59.94121425454923,
,,,C,U,d,n,L,D,y,R,y,,,,,5,19,119,15,2,0,2,0,,,,,1,16,52,33,,,,,,down,0.6471533215553791,1654.4739821562089,None,001,90,2019_Nov_01_1403,ACPT_experiment_5_30_19,3.1.0,59.94121425454923,
,,,C,U,d,n,R,G,y,R,y,,,,,5,19,119,15,2,0,2,0,,,,,1,17,53,29,,,,,,down,0.6838436626239854,1656.3887721217416,None,001,90,2019_Nov_01_1403,ACPT_experiment_5_30_19,3.1.0,59.94121425454923,
,,,C,U,d,n,L,G,d,L,i,,,,,5,19,119,15,2,0,2,0,,,,,1,18,54,16,,,,,,up,0.36693450162783847,1658.3569268375595,None,001,90,2019_Nov_01_1403,ACPT_experiment_5_30_19,3.1.0,59.94121425454923,
,,,C,U,d,n,R,D,d,R,c ,,,,,5,19,119,15,2,0,2,0,,,,,1,19,55,1,,,,,,up,0.4170039129348879,1659.9914644773798,None,001,90,2019_Nov_01_1403,ACPT_experiment_5_30_19,3.1.0,59.94121425454923,
,,,C,U,d,n,R,G,g,L,c ,,,,,5,19,119,15,2,0,2,0,,,,,1,20,56,6,,,,,,up,0.8503646847857453,1661.7097324638726,None,001,90,2019_Nov_01_1403,ACPT_experiment_5_30_19,3.1.0,59.94121425454923,
,,,C,U,d,n,R,D,g,L,i,,,,,5,19,119,15,2,0,2,0,,,,,1,21,57,2,,,,,,up,0.6338065496856871,1663.8444072962939,None,001,90,2019_Nov_01_1403,ACPT_experiment_5_30_19,3.1.0,59.94121425454923,
,,,C,U,d,n,R,U,d,L,u,,,,,5,19,119,15,2,0,2,0,,,,,1,22,58,8,,,,,,up,0.5003726386348717,1665.7625236917575,None,001,90,2019_Nov_01_1403,ACPT_experiment_5_30_19,3.1.0,59.94121425454923,
,,,C,U,d,n,R,G,y,L,y,,,,,5,19,119,15,2,0,2,0,,,,,1,23,59,28,,,,,,down,0.6671574811043683,1667.5472149299367,None,001,90,2019_Nov_01_1403,ACPT_experiment_5_30_19,3.1.0,59.94121425454923,
,,,C,U,d,n,R,U,y,L,u,,,,,5,19,119,15,2,0,2,0,,,,,1,24,60,30,,,,,,down,0.6671695552577148,1669.4986834642314,None,001,90,2019_Nov_01_1403,ACPT_experiment_5_30_19,3.1.0,59.94121425454923,
,,,C,U,d,n,L,D,d,R,c ,,,,,5,19,119,15,2,0,2,0,,,,,1,25,61,13,,,,,,up,0.533733229374775,1671.4501625634166,None,001,90,2019_Nov_01_1403,ACPT_experiment_5_30_19,3.1.0,59.94121425454923,
,,,C,U,d,n,L,D,g,L,i,,,,,5,19,119,15,2,0,2,0,,,,,1,26,62,14,,,,,,up,0.48371905733438325,1673.2515001384,None,001,90,2019_Nov_01_1403,ACPT_experiment_5_30_19,3.1.0,59.94121425454923,
,,,C,U,d,n,L,U,y,L,u,,,,,5,19,119,15,2,0,2,0,,,,,1,27,63,24,,,,,,down,0.8170394109511108,1675.0364482542445,None,001,90,2019_Nov_01_1403,ACPT_experiment_5_30_19,3.1.0,59.94121425454923,
,,,C,U,d,n,R,D,y,L,y,,,,,5,19,119,15,2,0,2,0,,,,,1,28,64,26,,,,,,down,0.76703006857133,1677.154658767753,None,001,90,2019_Nov_01_1403,ACPT_experiment_5_30_19,3.1.0,59.94121425454923,
,,,C,U,d,n,R,U,y,R,u,,,,,5,19,119,15,2,0,2,0,,,,,1,29,65,31,,,,,,down,1.1508674828182848,1679.2227081063775,None,001,90,2019_Nov_01_1403,ACPT_experiment_5_30_19,3.1.0,59.94121425454923,
,,,C,U,d,n,L,G,d,R,i,,,,,5,19,119,15,2,0,2,0,,,,,1,30,66,17,,,,,,up,0.6004366014749394,1681.6578987165467,None,001,90,2019_Nov_01_1403,ACPT_experiment_5_30_19,3.1.0,59.94121425454923,
,,,C,U,d,n,L,G,y,L,y,,,,,5,19,119,15,2,0,2,0,,,,,1,31,67,34,,,,,,down,0.6335421256699192,1683.5429162286,None,001,90,2019_Nov_01_1403,ACPT_experiment_5_30_19,3.1.0,59.94121425454923,
,,,C,U,d,n,L,G,g,R,c ,,,,,5,19,119,15,2,0,2,0,,,,,1,32,68,19,,,,,,up,1.017433873621485,1685.4607600500003,None,001,90,2019_Nov_01_1403,ACPT_experiment_5_30_19,3.1.0,59.94121425454923,
,,,C,U,d,n,L,D,g,R,i,,,,,5,19,119,15,2,0,2,0,,,,,1,33,69,15,,,,,,up,0.6004390163070639,1687.7625149379946,None,001,90,2019_Nov_01_1403,ACPT_experiment_5_30_19,3.1.0,59.94121425454923,
,,,C,U,d,n,L,U,g,R,u,,,,,5,19,119,15,2,0,2,0,,,,,1,34,70,23,,,,,,up,0.5170554997639556,1689.647259875981,None,001,90,2019_Nov_01_1403,ACPT_experiment_5_30_19,3.1.0,59.94121425454923,
,,,C,U,d,n,R,G,g,R,c ,,,,,5,19,119,15,2,0,2,0,,,,,1,35,71,7,,,,,,up,0.5170561034719867,1691.448625523377,None,001,90,2019_Nov_01_1403,ACPT_experiment_5_30_19,3.1.0,59.94121425454923,
,,,C,U,d,n,,,,,,,,,,5,19,119,15,3,0,3,0,0,0,0,0,,,,,,,,,,,,,,001,90,2019_Nov_01_1403,ACPT_experiment_5_30_19,3.1.0,59.94121425454923,
,,,C,U,d,n,L,U,y,R,u,,,,,5,19,119,15,3,0,3,0,,,,,0,0,0,25,,,,,,down,0.6335910260058881,1697.2198392869486,None,001,90,2019_Nov_01_1403,ACPT_experiment_5_30_19,3.1.0,59.94121425454923,
,,,C,U,d,n,L,D,y,L,y,,,,,5,19,119,15,3,0,3,0,,,,,0,1,1,32,,,,,,down,0.6504712995811133,1699.1711451219944,None,001,90,2019_Nov_01_1403,ACPT_experiment_5_30_19,3.1.0,59.94121425454923,
,,,C,U,d,n,R,D,d,L,c,,,,,5,19,119,15,3,0,3,0,,,,,0,2,2,0,,,,,,up,0.4835874490381684,1701.1059304933096,None,001,90,2019_Nov_01_1403,ACPT_experiment_5_30_19,3.1.0,59.94121425454923,
,,,C,U,d,n,R,U,g,R,u,,,,,5,19,119,15,3,0,3,0,,,,,0,3,3,11,,,,,,up,0.6338349239522358,1702.8739367573817,None,001,90,2019_Nov_01_1403,ACPT_experiment_5_30_19,3.1.0,59.94121425454923,
,,,C,U,d,n,L,U,g,R,u,,,,,5,19,119,15,3,0,3,0,,,,,0,4,4,23,,,,,,up,0.45008015730127227,1704.8089847415886,None,001,90,2019_Nov_01_1403,ACPT_experiment_5_30_19,3.1.0,59.94121425454923,
,,,C,U,d,n,R,D,g,R,i,,,,,5,19,119,15,3,0,3,0,,,,,0,5,5,3,,,,,,up,0.36694717949285405,1706.543379272478,None,001,90,2019_Nov_01_1403,ACPT_experiment_5_30_19,3.1.0,59.94121425454923,
,,,C,U,d,n,R,D,y,R,y,,,,,5,19,119,15,3,0,3,0,,,,,0,6,6,27,,,,,,down,0.5170727054355666,1708.1779301938714,None,001,90,2019_Nov_01_1403,ACPT_experiment_5_30_19,3.1.0,59.94121425454923,
,,,C,U,d,n,L,D,d,L,c ,,,,,5,19,119,15,3,0,3,0,,,,,0,7,7,12,,,,,,up,0.5337305126922729,1709.979316669187,None,001,90,2019_Nov_01_1403,ACPT_experiment_5_30_19,3.1.0,59.94121425454923,
,,,C,U,d,n,L,G,y,R,y,,,,,5,19,119,15,3,0,3,0,,,,,0,8,8,35,,,,,,down,0.4500647627537546,1711.814310349875,None,001,90,2019_Nov_01_1403,ACPT_experiment_5_30_19,3.1.0,59.94121425454923,
,,,C,U,d,n,L,D,g,L,i,,,,,5,19,119,15,3,0,3,0,,,,,0,9,9,14,,,,,,up,0.7339215258361946,1713.548679525038,None,001,90,2019_Nov_01_1403,ACPT_experiment_5_30_19,3.1.0,59.94121425454923,
,,,C,U,d,n,R,G,y,R,y,,,,,5,19,119,15,3,0,3,0,,,,,0,10,10,29,,,,,,down,1.4842626961981296,1715.5837154049023,None,001,90,2019_Nov_01_1403,ACPT_experiment_5_30_19,3.1.0,59.94121425454923,
,,,C,U,d,n,R,G,g,R,c ,,,,,5,19,119,15,3,0,3,0,,,,,0,11,11,7,,,,,,up,0.5803177374473307,1718.4058018129963,None,001,90,2019_Nov_01_1403,ACPT_experiment_5_30_19,3.1.0,59.94121425454923,
,,,C,U,d,n,L,G,y,L,y,,,,,5,19,119,15,3,0,3,0,,,,,0,12,12,34,,,,,,down,1.0174293458148895,1720.2704423759405,None,001,90,2019_Nov_01_1403,ACPT_experiment_5_30_19,3.1.0,59.94121425454923,
,,,C,U,d,n,L,D,d,R,c ,,,,,5,19,119,15,3,0,3,0,,,,,0,13,13,13,,,,,,up,1.2008858808148943,1722.572188812026,None,001,90,2019_Nov_01_1403,ACPT_experiment_5_30_19,3.1.0,59.94121425454923,
,,,C,U,d,n,R,D,d,R,c ,,,,,5,19,119,15,3,0,3,0,,,,,0,14,14,1,,,,,,up,0.5504384276900964,1725.0407034886175,None,001,90,2019_Nov_01_1403,ACPT_experiment_5_30_19,3.1.0,59.94121425454923,
,,,C,U,d,n,R,U,g,L,u,,,,,5,19,119,15,3,0,3,0,,,,,0,15,15,10,,,,,,up,0.8172851200215518,1726.8754312360234,None,001,90,2019_Nov_01_1403,ACPT_experiment_5_30_19,3.1.0,59.94121425454923,
,,,C,U,d,n,L,G,g,R,c ,,,,,5,19,119,15,3,0,3,0,,,,,0,16,16,19,,,,,,up,0.5003753553210117,1728.977019259184,None,001,90,2019_Nov_01_1403,ACPT_experiment_5_30_19,3.1.0,59.94121425454923,
,,,C,U,d,n,R,D,g,L,i,,,,,5,19,119,15,3,0,3,0,,,,,0,17,17,2,,,,,,up,0.5170636498187378,1730.761703856575,None,001,90,2019_Nov_01_1403,ACPT_experiment_5_30_19,3.1.0,59.94121425454923,
,,,C,U,d,n,R,U,d,R,u,,,,,5,19,119,15,3,0,3,0,,,,,0,18,18,9,,,,,,up,0.5504040163468744,1732.5631042171717,None,001,90,2019_Nov_01_1403,ACPT_experiment_5_30_19,3.1.0,59.94121425454923,
,,,C,U,d,n,R,D,y,L,y,,,,,5,19,119,15,3,0,3,0,,,,,0,19,19,26,,,,,,down,0.6502186478719523,1734.4147388012952,None,001,90,2019_Nov_01_1403,ACPT_experiment_5_30_19,3.1.0,59.94121425454923,
,,,C,U,d,n,R,G,d,R,i,,,,,5,19,119,15,3,0,3,0,,,,,0,20,20,5,,,,,,up,0.5003726386348717,1736.349266691237,None,001,90,2019_Nov_01_1403,ACPT_experiment_5_30_19,3.1.0,59.94121425454923,
,,,C,U,d,n,L,G,d,R,i,,,,,5,19,119,15,3,0,3,0,,,,,0,21,21,17,,,,,,up,0.43365477754559834,1738.1339503830695,None,001,90,2019_Nov_01_1403,ACPT_experiment_5_30_19,3.1.0,59.94121425454923,
,,,C,U,d,n,L,U,d,L,u,,,,,5,19,119,15,3,0,3,0,,,,,0,22,22,20,,,,,,up,0.7671314914805407,1739.8519192323492,None,001,90,2019_Nov_01_1403,ACPT_experiment_5_30_19,3.1.0,59.94121425454923,
,,,C,U,d,n,R,G,g,L,c ,,,,,5,19,119,15,3,0,3,0,,,,,0,23,23,6,,,,,,up,0.5504556333653454,1741.9034671240352,None,001,90,2019_Nov_01_1403,ACPT_experiment_5_30_19,3.1.0,59.94121425454923,
,,,C,U,d,n,L,U,d,R,u,,,,,5,19,119,15,3,0,3,0,,,,,0,24,24,21,,,,,,up,0.500371733072825,1743.7381858158242,None,001,90,2019_Nov_01_1403,ACPT_experiment_5_30_19,3.1.0,59.94121425454923,
,,,C,U,d,n,L,U,y,L,u,,,,,5,19,119,15,3,0,3,0,,,,,0,25,25,24,,,,,,down,0.5337329275207594,1745.5228734317552,None,001,90,2019_Nov_01_1403,ACPT_experiment_5_30_19,3.1.0,59.94121425454923,
,,,C,U,d,n,R,U,d,L,u,,,,,5,19,119,15,3,0,3,0,,,,,0,26,26,8,,,,,,up,0.5166679193607706,1747.3578683198593,None,001,90,2019_Nov_01_1403,ACPT_experiment_5_30_19,3.1.0,59.94121425454923,
,,,C,U,d,n,L,U,g,L,u,,,,,5,19,119,15,3,0,3,0,,,,,0,27,27,22,,,,,,up,0.5504562370733765,1749.1589327170677,None,001,90,2019_Nov_01_1403,ACPT_experiment_5_30_19,3.1.0,59.94121425454923,
,,,C,U,d,n,R,G,y,L,y,,,,,5,19,119,15,3,0,3,0,,,,,0,28,28,28,,,,,,down,0.7005268256034469,1750.9936737460466,None,001,90,2019_Nov_01_1403,ACPT_experiment_5_30_19,3.1.0,59.94121425454923,
,,,C,U,d,n,R,G,d,L,i,,,,,5,19,119,15,3,0,3,0,,,,,0,29,29,4,,,,,,up,0.7839399238291662,1752.9785101155776,None,001,90,2019_Nov_01_1403,ACPT_experiment_5_30_19,3.1.0,59.94121425454923,
,,,C,U,d,n,L,G,g,L,c ,,,,,5,19,119,15,3,0,3,0,,,,,0,30,30,18,,,,,,up,0.6004824832671147,1755.0467466036152,None,001,90,2019_Nov_01_1403,ACPT_experiment_5_30_19,3.1.0,59.94121425454923,
,,,C,U,d,n,L,G,d,L,i,,,,,5,19,119,15,3,0,3,0,,,,,0,31,31,16,,,,,,up,0.4170096481575456,1756.9148020396879,None,001,90,2019_Nov_01_1403,ACPT_experiment_5_30_19,3.1.0,59.94121425454923,
,,,C,U,d,n,R,U,y,L,u,,,,,5,19,119,15,3,0,3,0,,,,,0,32,32,30,,,,,,down,0.4670226127782371,1758.6161091576123,None,001,90,2019_Nov_01_1403,ACPT_experiment_5_30_19,3.1.0,59.94121425454923,
,,,C,U,d,n,R,U,y,R,u,,,,,5,19,119,15,3,0,3,0,,,,,0,33,33,31,,,,,,down,0.5637722198407573,1760.3874412479145,None,001,90,2019_Nov_01_1403,ACPT_experiment_5_30_19,3.1.0,59.94121425454923,
,,,C,U,d,n,L,D,g,R,i,,,,,5,19,119,15,3,0,3,0,,,,,0,34,34,15,,,,,,up,0.3669399349964806,1762.2355130505039,None,001,90,2019_Nov_01_1403,ACPT_experiment_5_30_19,3.1.0,59.94121425454923,
,,,C,U,d,n,L,D,y,R,y,,,,,5,19,119,15,3,0,3,0,,,,,0,35,35,33,,,,,,down,0.61710104951635,1763.8867878851543,None,001,90,2019_Nov_01_1403,ACPT_experiment_5_30_19,3.1.0,59.94121425454923,
,,,C,U,d,n,R,G,d,R,i,,,,,5,19,119,15,3,0,3,0,,,,,1,0,36,5,,,,,,up,0.5671502667937602,1765.7882060249449,None,001,90,2019_Nov_01_1403,ACPT_experiment_5_30_19,3.1.0,59.94121425454923,
,,,C,U,d,n,L,G,d,L,i,,,,,5,19,119,15,3,0,3,0,,,,,1,1,37,16,,,,,,up,0.7836588978534564,1767.6398723037291,None,001,90,2019_Nov_01_1403,ACPT_experiment_5_30_19,3.1.0,59.94121425454923,
,,,C,U,d,n,R,D,y,R,y,,,,,5,19,119,15,3,0,3,0,,,,,1,2,38,27,,,,,,down,0.5337637166194327,1769.7078344065758,None,001,90,2019_Nov_01_1403,ACPT_experiment_5_30_19,3.1.0,59.94121425454923,
,,,C,U,d,n,R,U,g,L,u,,,,,5,19,119,15,3,0,3,0,,,,,1,3,39,10,,,,,,up,0.45034065721119987,1771.5258774817285,None,001,90,2019_Nov_01_1403,ACPT_experiment_5_30_19,3.1.0,59.94121425454923,
,,,C,U,d,n,L,U,d,L,u,,,,,5,19,119,15,3,0,3,0,,,,,1,4,40,20,,,,,,up,0.3836185701729846,1773.2605273810168,None,001,90,2019_Nov_01_1403,ACPT_experiment_5_30_19,3.1.0,59.94121425454923,
,,,C,U,d,n,R,D,g,R,i,,,,,5,19,119,15,3,0,3,0,,,,,1,5,41,3,,,,,,up,0.3469303420824872,1774.9484629750532,None,001,90,2019_Nov_01_1403,ACPT_experiment_5_30_19,3.1.0,59.94121425454923,
,,,C,U,d,n,L,D,d,L,c ,,,,,5,19,119,15,3,0,3,0,,,,,1,6,42,12,,,,,,up,0.4169767460807634,1776.5797031629172,None,001,90,2019_Nov_01_1403,ACPT_experiment_5_30_19,3.1.0,59.94121425454923,
,,,C,U,d,n,L,D,g,L,i,,,,,5,19,119,15,3,0,3,0,,,,,1,7,43,14,,,,,,up,0.3836366814066423,1778.2642936120774,None,001,90,2019_Nov_01_1403,ACPT_experiment_5_30_19,3.1.0,59.94121425454923,
,,,C,U,d,n,R,D,d,R,c ,,,,,5,19,119,15,3,0,3,0,,,,,1,8,44,1,,,,,,up,0.3669459720767918,1779.93224074297,None,001,90,2019_Nov_01_1403,ACPT_experiment_5_30_19,3.1.0,59.94121425454923,
,,,C,U,d,n,L,D,d,R,c ,,,,,5,19,119,15,3,0,3,0,,,,,1,9,45,13,,,,,,up,0.33335084085774724,1781.6003659676626,None,001,90,2019_Nov_01_1403,ACPT_experiment_5_30_19,3.1.0,59.94121425454923,
,,,C,U,d,n,L,U,y,R,u,,,,,5,19,119,15,3,0,3,0,,,,,1,10,46,25,,,,,,down,0.31693783711307333,1783.218039634021,None,001,90,2019_Nov_01_1403,ACPT_experiment_5_30_19,3.1.0,59.94121425454923,
,,,C,U,d,n,L,U,g,L,u,,,,,5,19,119,15,3,0,3,0,,,,,1,11,47,22,,,,,,up,0.45033522384619573,1784.8192725260724,None,001,90,2019_Nov_01_1403,ACPT_experiment_5_30_19,3.1.0,59.94121425454923,
,,,C,U,d,n,L,D,y,R,y,,,,,5,19,119,15,3,0,3,0,,,,,1,12,48,33,,,,,,down,0.4002787922581774,1786.5539341976637,None,001,90,2019_Nov_01_1403,ACPT_experiment_5_30_19,3.1.0,59.94121425454923,
,,,C,U,d,n,R,D,d,L,c,,,,,5,19,119,15,3,0,3,0,,,,,1,13,49,0,,,,,,up,0.40005964633019175,1788.2554450669686,None,001,90,2019_Nov_01_1403,ACPT_experiment_5_30_19,3.1.0,59.94121425454923,
,,,C,U,d,n,R,U,y,R,u,,,,,5,19,119,15,3,0,3,0,,,,,1,14,50,31,,,,,,down,0.41697855720485677,1789.9398103331241,None,001,90,2019_Nov_01_1403,ACPT_experiment_5_30_19,3.1.0,59.94121425454923,
,,,C,U,d,n,L,G,y,L,y,,,,,5,19,119,15,3,0,3,0,,,,,1,15,51,34,,,,,,down,0.6171686647867318,1791.6410960194244,None,001,90,2019_Nov_01_1403,ACPT_experiment_5_30_19,3.1.0,59.94121425454923,
,,,C,U,d,n,R,G,g,R,c ,,,,,5,19,119,15,3,0,3,0,,,,,1,16,52,7,,,,,,up,0.40033191854308825,1793.5425361945472,None,001,90,2019_Nov_01_1403,ACPT_experiment_5_30_19,3.1.0,59.94121425454923,
,,,C,U,d,n,R,U,y,L,u,,,,,5,19,119,15,3,0,3,0,,,,,1,17,53,30,,,,,,down,0.46674037939010304,1795.244098680867,None,001,90,2019_Nov_01_1403,ACPT_experiment_5_30_19,3.1.0,59.94121425454923,
,,,C,U,d,n,R,G,y,L,y,,,,,5,19,119,15,3,0,3,0,,,,,1,18,54,28,,,,,,down,0.5170606312785822,1796.9951467930605,None,001,90,2019_Nov_01_1403,ACPT_experiment_5_30_19,3.1.0,59.94121425454923,
,,,C,U,d,n,L,U,g,R,u,,,,,5,19,119,15,3,0,3,0,,,,,1,19,55,23,,,,,,up,0.467017179409595,1798.7965118367483,None,001,90,2019_Nov_01_1403,ACPT_experiment_5_30_19,3.1.0,59.94121425454923,
,,,C,U,d,n,L,G,d,R,i,,,,,5,19,119,15,3,0,3,0,,,,,1,20,56,17,,,,,,up,0.3836393980891444,1800.547811091381,None,001,90,2019_Nov_01_1403,ACPT_experiment_5_30_19,3.1.0,59.94121425454923,
,,,C,U,d,n,L,U,d,R,u,,,,,5,19,119,15,3,0,3,0,,,,,1,21,57,21,,,,,,up,0.4670002755919995,1802.23245647795,None,001,90,2019_Nov_01_1403,ACPT_experiment_5_30_19,3.1.0,59.94121425454923,
,,,C,U,d,n,L,D,y,L,y,,,,,5,19,119,15,3,0,3,0,,,,,1,22,58,32,,,,,,down,0.45034307204696233,1803.9837678067397,None,001,90,2019_Nov_01_1403,ACPT_experiment_5_30_19,3.1.0,59.94121425454923,
,,,C,U,d,n,L,D,g,R,i,,,,,5,19,119,15,3,0,3,0,,,,,1,23,59,15,,,,,,up,0.5337522461704793,1805.7184186115865,None,001,90,2019_Nov_01_1403,ACPT_experiment_5_30_19,3.1.0,59.94121425454923,
,,,C,U,d,n,L,G,g,R,c ,,,,,5,19,119,15,3,0,3,0,,,,,1,24,60,19,,,,,,up,0.40030354427653947,1807.53645444225,None,001,90,2019_Nov_01_1403,ACPT_experiment_5_30_19,3.1.0,59.94121425454923,
,,,C,U,d,n,R,D,g,L,i,,,,,5,19,119,15,3,0,3,0,,,,,1,25,61,2,,,,,,up,0.5334760498590185,1809.2380235693581,None,001,90,2019_Nov_01_1403,ACPT_experiment_5_30_19,3.1.0,59.94121425454923,
,,,C,U,d,n,R,G,g,L,c ,,,,,5,19,119,15,3,0,3,0,,,,,1,26,62,6,,,,,,up,0.4170051203473122,1811.0390822313402,None,001,90,2019_Nov_01_1403,ACPT_experiment_5_30_19,3.1.0,59.94121425454923,
,,,C,U,d,n,R,U,d,L,u,,,,,5,19,119,15,3,0,3,0,,,,,1,27,63,8,,,,,,up,1.1341915643315588,1812.740395688199,None,001,90,2019_Nov_01_1403,ACPT_experiment_5_30_19,3.1.0,59.94121425454923,
,,,C,U,d,n,R,U,d,R,u,,,,,5,19,119,15,3,0,3,0,,,,,1,28,64,9,,,,,,up,0.6506412433263904,1815.1420608954013,None,001,90,2019_Nov_01_1403,ACPT_experiment_5_30_19,3.1.0,59.94121425454923,
,,,C,U,d,n,R,G,d,L,i,,,,,5,19,119,15,3,0,3,0,,,,,1,29,65,4,,,,,,up,0.8840063015049964,1817.0603297270845,None,001,90,2019_Nov_01_1403,ACPT_experiment_5_30_19,3.1.0,59.94121425454923,
,,,C,U,d,n,R,U,g,R,u,,,,,5,19,119,15,3,0,3,0,,,,,1,30,66,11,,,,,,up,0.4336408922681585,1819.228660967061,None,001,90,2019_Nov_01_1403,ACPT_experiment_5_30_19,3.1.0,59.94121425454923,
,,,C,U,d,n,R,D,y,L,y,,,,,5,19,119,15,3,0,3,0,,,,,1,31,67,26,,,,,,down,0.4836716662721301,1820.94662649595,None,001,90,2019_Nov_01_1403,ACPT_experiment_5_30_19,3.1.0,59.94121425454923,
,,,C,U,d,n,L,G,g,L,c ,,,,,5,19,119,15,3,0,3,0,,,,,1,32,68,18,,,,,,up,0.43364843861490954,1822.7146176673286,None,001,90,2019_Nov_01_1403,ACPT_experiment_5_30_19,3.1.0,59.94121425454923,
,,,C,U,d,n,R,G,y,R,y,,,,,5,19,119,15,3,0,3,0,,,,,1,33,69,29,,,,,,down,0.8172827051894274,1824.4492579072885,None,001,90,2019_Nov_01_1403,ACPT_experiment_5_30_19,3.1.0,59.94121425454923,
,,,C,U,d,n,L,U,y,L,u,,,,,5,19,119,15,3,0,3,0,,,,,1,34,70,24,,,,,,down,0.6171152366514434,1826.5675363379287,None,001,90,2019_Nov_01_1403,ACPT_experiment_5_30_19,3.1.0,59.94121425454923,
,,,C,U,d,n,L,G,y,R,y,,,,,5,19,119,15,3,0,3,0,,,,,1,35,71,35,,,,,,down,0.6669018108514138,1828.4858981406123,None,001,90,2019_Nov_01_1403,ACPT_experiment_5_30_19,3.1.0,59.94121425454923,
,,,C,U,d,n,,,,,,,,,,5,19,119,15,4,0,4,0,0,0,0,0,,,,,,,,,,,,,,001,90,2019_Nov_01_1403,ACPT_experiment_5_30_19,3.1.0,59.94121425454923,
,,,C,U,d,n,R,G,g,L,c ,,,,,5,19,119,15,4,0,4,0,,,,,0,0,0,6,,,,,,up,0.48369551273208344,1833.6228643459526,None,001,90,2019_Nov_01_1403,ACPT_experiment_5_30_19,3.1.0,59.94121425454923,
,,,C,U,d,n,L,G,g,R,c ,,,,,5,19,119,15,4,0,4,0,,,,,0,1,1,19,,,,,,up,0.3836037793298601,1835.3908745341269,None,001,90,2019_Nov_01_1403,ACPT_experiment_5_30_19,3.1.0,59.94121425454923,
,,,C,U,d,n,L,U,y,R,u,,,,,5,19,119,15,4,0,4,0,,,,,0,2,2,25,,,,,,down,0.550377453204419,1837.058818344629,None,001,90,2019_Nov_01_1403,ACPT_experiment_5_30_19,3.1.0,59.94121425454923,
,,,C,U,d,n,L,U,d,R,u,,,,,5,19,119,15,4,0,4,0,,,,,0,3,3,21,,,,,,up,0.5170509719537222,1838.893526773385,None,001,90,2019_Nov_01_1403,ACPT_experiment_5_30_19,3.1.0,59.94121425454923,
,,,C,U,d,n,L,D,d,L,c ,,,,,5,19,119,15,4,0,4,0,,,,,0,4,4,12,,,,,,up,0.5003729404888873,1840.69488155404,None,001,90,2019_Nov_01_1403,ACPT_experiment_5_30_19,3.1.0,59.94121425454923,
,,,C,U,d,n,L,U,d,L,u,,,,,5,19,119,15,4,0,4,0,,,,,0,5,5,20,,,,,,up,0.41669964420361794,1842.4798381217934,None,001,90,2019_Nov_01_1403,ACPT_experiment_5_30_19,3.1.0,59.94121425454923,
,,,C,U,d,n,R,U,y,R,u,,,,,5,19,119,15,4,0,4,0,,,,,0,6,6,31,,,,,,down,0.5170666683588934,1844.1808439895303,None,001,90,2019_Nov_01_1403,ACPT_experiment_5_30_19,3.1.0,59.94121425454923,
,,,C,U,d,n,R,U,y,L,u,,,,,5,19,119,15,4,0,4,0,,,,,0,7,7,30,,,,,,down,0.5337389645974326,1845.9822129573204,None,001,90,2019_Nov_01_1403,ACPT_experiment_5_30_19,3.1.0,59.94121425454923,
,,,C,U,d,n,R,G,g,R,c ,,,,,5,19,119,15,4,0,4,0,,,,,0,8,8,7,,,,,,up,0.3669399349964806,1847.8002548250606,None,001,90,2019_Nov_01_1403,ACPT_experiment_5_30_19,3.1.0,59.94121425454923,
,,,C,U,d,n,R,G,d,R,i,,,,,5,19,119,15,4,0,4,0,,,,,0,9,9,5,,,,,,up,0.4333930702196085,1849.451771746537,None,001,90,2019_Nov_01_1403,ACPT_experiment_5_30_19,3.1.0,59.94121425454923,
,,,C,U,d,n,R,G,y,L,y,,,,,5,19,119,15,4,0,4,0,,,,,0,10,10,28,,,,,,down,0.5504172979199211,1851.1694665124796,None,001,90,2019_Nov_01_1403,ACPT_experiment_5_30_19,3.1.0,59.94121425454923,
,,,C,U,d,n,L,G,d,R,i,,,,,5,19,119,15,4,0,4,0,,,,,0,11,11,17,,,,,,up,0.41698338686910574,1853.0041939580315,None,001,90,2019_Nov_01_1403,ACPT_experiment_5_30_19,3.1.0,59.94121425454923,
,,,C,U,d,n,L,G,y,R,y,,,,,5,19,119,15,4,0,4,0,,,,,0,12,12,35,,,,,,down,0.517060027570551,1854.7054790406237,None,001,90,2019_Nov_01_1403,ACPT_experiment_5_30_19,3.1.0,59.94121425454923,
,,,C,U,d,n,L,D,g,L,i,,,,,5,19,119,15,4,0,4,0,,,,,0,13,13,14,,,,,,up,0.4834582555668021,1856.5237614859197,None,001,90,2019_Nov_01_1403,ACPT_experiment_5_30_19,3.1.0,59.94121425454923,
,,,C,U,d,n,R,U,d,R,u,,,,,5,19,119,15,4,0,4,0,,,,,0,14,14,9,,,,,,up,0.7005174681326025,1858.2915313983885,None,001,90,2019_Nov_01_1403,ACPT_experiment_5_30_19,3.1.0,59.94121425454923,
,,,C,U,d,n,L,D,y,R,y,,,,,5,19,119,15,4,0,4,0,,,,,0,15,15,33,,,,,,down,0.6337977959228738,1860.293044591972,None,001,90,2019_Nov_01_1403,ACPT_experiment_5_30_19,3.1.0,59.94121425454923,
,,,C,U,d,n,L,D,g,R,i,,,,,5,19,119,15,4,0,4,0,,,,,0,16,16,15,,,,,,up,0.4336756054653961,1862.211158572607,None,001,90,2019_Nov_01_1403,ACPT_experiment_5_30_19,3.1.0,59.94121425454923,
,,,C,U,d,n,R,D,d,L,c,,,,,5,19,119,15,4,0,4,0,,,,,0,17,17,0,,,,,,up,0.4670192923877039,1863.9291259126167,None,001,90,2019_Nov_01_1403,ACPT_experiment_5_30_19,3.1.0,59.94121425454923,
,,,C,U,d,n,R,D,y,L,y,,,,,5,19,119,15,4,0,4,0,,,,,0,18,18,26,,,,,,down,0.6505509890121175,1865.6804239598332,None,001,90,2019_Nov_01_1403,ACPT_experiment_5_30_19,3.1.0,59.94121425454923,
,,,C,U,d,n,R,D,g,R,i,,,,,5,19,119,15,4,0,4,0,,,,,0,19,19,3,,,,,,up,0.5170588201544888,1867.6152440443493,None,001,90,2019_Nov_01_1403,ACPT_experiment_5_30_19,3.1.0,59.94121425454923,
,,,C,U,d,n,R,U,d,L,u,,,,,5,19,119,15,4,0,4,0,,,,,0,20,20,8,,,,,,up,0.6972743498772616,1869.4366213976373,None,001,90,2019_Nov_01_1403,ACPT_experiment_5_30_19,3.1.0,59.94121425454923,
,,,C,U,d,n,L,D,d,R,c ,,,,,5,19,119,15,4,0,4,0,,,,,0,21,21,13,,,,,,up,0.48371452952414984,1871.4014457594221,None,001,90,2019_Nov_01_1403,ACPT_experiment_5_30_19,3.1.0,59.94121425454923,
,,,C,U,d,n,R,G,d,L,i,,,,,5,19,119,15,4,0,4,0,,,,,0,22,22,4,,,,,,up,0.7005292404392094,1873.1694459864138,None,001,90,2019_Nov_01_1403,ACPT_experiment_5_30_19,3.1.0,59.94121425454923,
,,,C,U,d,n,R,G,y,R,y,,,,,5,19,119,15,4,0,4,0,,,,,0,23,23,29,,,,,,down,0.7005473516692291,1875.1375841002682,None,001,90,2019_Nov_01_1403,ACPT_experiment_5_30_19,3.1.0,59.94121425454923,
,,,C,U,d,n,L,G,y,L,y,,,,,5,19,119,15,4,0,4,0,,,,,0,24,24,34,,,,,,down,0.6504685828949732,1877.1224461273796,None,001,90,2019_Nov_01_1403,ACPT_experiment_5_30_19,3.1.0,59.94121425454923,
,,,C,U,d,n,L,D,y,L,y,,,,,5,19,119,15,4,0,4,0,,,,,0,25,25,32,,,,,,down,0.8172691217660031,1879.0739213024626,None,001,90,2019_Nov_01_1403,ACPT_experiment_5_30_19,3.1.0,59.94121425454923,
,,,C,U,d,n,R,D,y,R,y,,,,,5,19,119,15,4,0,4,0,,,,,0,26,26,27,,,,,,down,0.5170467460011423,1881.192189771924,None,001,90,2019_Nov_01_1403,ACPT_experiment_5_30_19,3.1.0,59.94121425454923,
,,,C,U,d,n,L,U,g,R,u,,,,,5,19,119,15,4,0,4,0,,,,,0,27,27,23,,,,,,up,0.4836991349766322,1882.993546061849,None,001,90,2019_Nov_01_1403,ACPT_experiment_5_30_19,3.1.0,59.94121425454923,
,,,C,U,d,n,L,G,d,L,i,,,,,5,19,119,15,4,0,4,0,,,,,0,28,28,16,,,,,,up,0.7172015366777487,1884.761553533337,None,001,90,2019_Nov_01_1403,ACPT_experiment_5_30_19,3.1.0,59.94121425454923,
,,,C,U,d,n,R,U,g,L,u,,,,,5,19,119,15,4,0,4,0,,,,,0,29,29,10,,,,,,up,0.5170962500378664,1886.763070349165,None,001,90,2019_Nov_01_1403,ACPT_experiment_5_30_19,3.1.0,59.94121425454923,
,,,C,U,d,n,R,U,g,R,u,,,,,5,19,119,15,4,0,4,0,,,,,0,30,30,11,,,,,,up,0.4336547775492363,1888.5644326761667,None,001,90,2019_Nov_01_1403,ACPT_experiment_5_30_19,3.1.0,59.94121425454923,
,,,C,U,d,n,R,D,d,R,c ,,,,,5,19,119,15,4,0,4,0,,,,,0,31,31,1,,,,,,up,0.48372086845483864,1890.2823915642712,None,001,90,2019_Nov_01_1403,ACPT_experiment_5_30_19,3.1.0,59.94121425454923,
,,,C,U,d,n,L,U,g,L,u,,,,,5,19,119,15,4,0,4,0,,,,,0,32,32,22,,,,,,up,0.6338065496856871,1892.050406582106,None,001,90,2019_Nov_01_1403,ACPT_experiment_5_30_19,3.1.0,59.94121425454923,
,,,C,U,d,n,R,D,g,L,i,,,,,5,19,119,15,4,0,4,0,,,,,0,33,33,2,,,,,,up,0.4670355924972682,1893.9685217701572,None,001,90,2019_Nov_01_1403,ACPT_experiment_5_30_19,3.1.0,59.94121425454923,
,,,C,U,d,n,L,U,y,L,u,,,,,5,19,119,15,4,0,4,0,,,,,0,34,34,24,,,,,,down,0.5835213128484611,1895.7367731395916,None,001,90,2019_Nov_01_1403,ACPT_experiment_5_30_19,3.1.0,59.94121425454923,
,,,C,U,d,n,L,G,g,L,c ,,,,,5,19,119,15,4,0,4,0,,,,,0,35,35,18,,,,,,up,0.5670968386548338,1897.604603996364,None,001,90,2019_Nov_01_1403,ACPT_experiment_5_30_19,3.1.0,59.94121425454923,
,,,C,U,d,n,R,G,y,L,y,,,,,5,19,119,15,4,0,4,0,,,,,1,0,36,28,,,,,,down,0.5837790960722486,1899.4560007196214,None,001,90,2019_Nov_01_1403,ACPT_experiment_5_30_19,3.1.0,59.94121425454923,
,,,C,U,d,n,R,D,y,R,y,,,,,5,19,119,15,4,0,4,0,,,,,1,1,37,27,,,,,,down,0.6838092512807634,1901.3241225635484,None,001,90,2019_Nov_01_1403,ACPT_experiment_5_30_19,3.1.0,59.94121425454923,
,,,C,U,d,n,L,U,g,R,u,,,,,5,19,119,15,4,0,4,0,,,,,1,2,38,23,,,,,,up,0.4503379405323358,1903.292239245775,None,001,90,2019_Nov_01_1403,ACPT_experiment_5_30_19,3.1.0,59.94121425454923,
,,,C,U,d,n,R,U,y,R,u,,,,,5,19,119,15,4,0,4,0,,,,,1,3,39,31,,,,,,down,0.6004486756319238,1905.026884013545,None,001,90,2019_Nov_01_1403,ACPT_experiment_5_30_19,3.1.0,59.94121425454923,
,,,C,U,d,n,R,U,g,R,u,,,,,5,19,119,15,4,0,4,0,,,,,1,4,40,11,,,,,,up,0.41698187759902794,1906.911647062765,None,001,90,2019_Nov_01_1403,ACPT_experiment_5_30_19,3.1.0,59.94121425454923,
,,,C,U,d,n,L,D,d,R,c ,,,,,5,19,119,15,4,0,4,0,,,,,1,5,41,13,,,,,,up,0.36666796464123763,1908.6298872786992,None,001,90,2019_Nov_01_1403,ACPT_experiment_5_30_19,3.1.0,59.94121425454923,
,,,C,U,d,n,R,U,y,L,u,,,,,5,19,119,15,4,0,4,0,,,,,1,6,42,30,,,,,,down,0.5837652107984468,1910.2808608631622,None,001,90,2019_Nov_01_1403,ACPT_experiment_5_30_19,3.1.0,59.94121425454923,
,,,C,U,d,n,R,D,y,L,y,,,,,5,19,119,15,4,0,4,0,,,,,1,7,43,26,,,,,,down,0.4670029922781396,1912.1656275346304,None,001,90,2019_Nov_01_1403,ACPT_experiment_5_30_19,3.1.0,59.94121425454923,
,,,C,U,d,n,L,D,y,L,y,,,,,5,19,119,15,4,0,4,0,,,,,1,8,44,32,,,,,,down,0.4336511553010496,1913.9336259505017,None,001,90,2019_Nov_01_1403,ACPT_experiment_5_30_19,3.1.0,59.94121425454923,
,,,C,U,d,n,L,U,d,L,u,,,,,5,19,119,15,4,0,4,0,,,,,1,9,45,20,,,,,,up,0.4835014206728374,1915.685141332522,None,001,90,2019_Nov_01_1403,ACPT_experiment_5_30_19,3.1.0,59.94121425454923,
,,,C,U,d,n,L,G,y,L,y,,,,,5,19,119,15,4,0,4,0,,,,,1,10,46,34,,,,,,down,0.6504709977270977,1917.4529752380204,None,001,90,2019_Nov_01_1403,ACPT_experiment_5_30_19,3.1.0,59.94121425454923,
,,,C,U,d,n,L,D,g,L,i,,,,,5,19,119,15,4,0,4,0,,,,,1,11,47,14,,,,,,up,0.633813492324407,1919.3877512518648,None,001,90,2019_Nov_01_1403,ACPT_experiment_5_30_19,3.1.0,59.94121425454923,
,,,C,U,d,n,L,U,g,L,u,,,,,5,19,119,15,4,0,4,0,,,,,1,12,48,22,,,,,,up,0.683873546156974,1921.305845310142,None,001,90,2019_Nov_01_1403,ACPT_experiment_5_30_19,3.1.0,59.94121425454923,
,,,C,U,d,n,R,U,g,L,u,,,,,5,19,119,15,4,0,4,0,,,,,1,13,49,10,,,,,,up,0.7172136108347331,1923.2740169297776,None,001,90,2019_Nov_01_1403,ACPT_experiment_5_30_19,3.1.0,59.94121425454923,
,,,C,U,d,n,R,G,g,L,c ,,,,,5,19,119,15,4,0,4,0,,,,,1,14,50,6,,,,,,up,0.9006746736413334,1925.2755434049304,None,001,90,2019_Nov_01_1403,ACPT_experiment_5_30_19,3.1.0,59.94121425454923,
,,,C,U,d,n,R,D,g,L,i,,,,,5,19,119,15,4,0,4,0,,,,,1,15,51,2,,,,,,up,0.5504112608396099,1927.4605276224993,None,001,90,2019_Nov_01_1403,ACPT_experiment_5_30_19,3.1.0,59.94121425454923,
,,,C,U,d,n,L,G,d,R,i,,,,,5,19,119,15,4,0,4,0,,,,,1,16,52,17,,,,,,up,0.45036118328062,1929.2952203548539,None,001,90,2019_Nov_01_1403,ACPT_experiment_5_30_19,3.1.0,59.94121425454923,
,,,C,U,d,n,L,U,y,R,u,,,,,5,19,119,15,4,0,4,0,,,,,1,17,53,25,,,,,,down,0.5837996221380308,1931.029866933748,None,001,90,2019_Nov_01_1403,ACPT_experiment_5_30_19,3.1.0,59.94121425454923,
,,,C,U,d,n,L,G,d,L,i,,,,,5,19,119,15,4,0,4,0,,,,,1,18,54,16,,,,,,up,0.467019896095735,1932.8979718738574,None,001,90,2019_Nov_01_1403,ACPT_experiment_5_30_19,3.1.0,59.94121425454923,
,,,C,U,d,n,R,G,y,R,y,,,,,5,19,119,15,4,0,4,0,,,,,1,19,55,29,,,,,,down,0.5334887277203961,1934.6662205266093,None,001,90,2019_Nov_01_1403,ACPT_experiment_5_30_19,3.1.0,59.94121425454923,
,,,C,U,d,n,L,G,g,R,c ,,,,,5,19,119,15,4,0,4,0,,,,,1,20,56,19,,,,,,up,0.6838512089707365,1936.4840206093777,None,001,90,2019_Nov_01_1403,ACPT_experiment_5_30_19,3.1.0,59.94121425454923,
,,,C,U,d,n,R,D,d,R,c ,,,,,5,19,119,15,4,0,4,0,,,,,1,21,57,1,,,,,,up,0.5337127033089928,1938.452189512327,None,001,90,2019_Nov_01_1403,ACPT_experiment_5_30_19,3.1.0,59.94121425454923,
,,,C,U,d,n,R,G,d,R,i,,,,,5,19,119,15,4,0,4,0,,,,,1,22,58,5,,,,,,up,0.45033371457247995,1940.2702144762497,None,001,90,2019_Nov_01_1403,ACPT_experiment_5_30_19,3.1.0,59.94121425454923,
,,,C,U,d,n,L,G,g,L,c ,,,,,5,19,119,15,4,0,4,0,,,,,1,23,59,18,,,,,,up,0.5837682293349644,1942.0048652810965,None,001,90,2019_Nov_01_1403,ACPT_experiment_5_30_19,3.1.0,59.94121425454923,
,,,C,U,d,n,R,D,g,R,i,,,,,5,19,119,15,4,0,4,0,,,,,1,24,60,3,,,,,,up,0.4002987146159285,1943.872941846943,None,001,90,2019_Nov_01_1403,ACPT_experiment_5_30_19,3.1.0,59.94121425454923,
,,,C,U,d,n,R,G,g,R,c ,,,,,5,19,119,15,4,0,4,0,,,,,1,25,61,7,,,,,,up,0.43367983141797595,1945.5575256553184,None,001,90,2019_Nov_01_1403,ACPT_experiment_5_30_19,3.1.0,59.94121425454923,
,,,C,U,d,n,L,U,y,L,u,,,,,5,19,119,15,4,0,4,0,,,,,1,26,62,24,,,,,,down,0.5837739645576221,1947.275515634372,None,001,90,2019_Nov_01_1403,ACPT_experiment_5_30_19,3.1.0,59.94121425454923,
,,,C,U,d,n,L,D,g,R,i,,,,,5,19,119,15,4,0,4,0,,,,,1,27,63,15,,,,,,up,0.45031409407238243,1949.1436127262805,None,001,90,2019_Nov_01_1403,ACPT_experiment_5_30_19,3.1.0,59.94121425454923,
,,,C,U,d,n,L,U,d,R,u,,,,,5,19,119,15,4,0,4,0,,,,,1,28,64,21,,,,,,up,0.617135460859572,1950.878241193941,None,001,90,2019_Nov_01_1403,ACPT_experiment_5_30_19,3.1.0,59.94121425454923,
,,,C,U,d,n,L,G,y,R,y,,,,,5,19,119,15,4,0,4,0,,,,,1,29,65,35,,,,,,down,0.6505256332820863,1952.7796563151915,None,001,90,2019_Nov_01_1403,ACPT_experiment_5_30_19,3.1.0,59.94121425454923,
,,,C,U,d,n,L,D,y,R,y,,,,,5,19,119,15,4,0,4,0,,,,,1,30,66,33,,,,,,down,0.5003714312188094,1954.714477305266,None,001,90,2019_Nov_01_1403,ACPT_experiment_5_30_19,3.1.0,59.94121425454923,
,,,C,U,d,n,R,G,d,L,i,,,,,5,19,119,15,4,0,4,0,,,,,1,31,67,4,,,,,,up,0.4503309978899779,1956.4991730712518,None,001,90,2019_Nov_01_1403,ACPT_experiment_5_30_19,3.1.0,59.94121425454923,
,,,C,U,d,n,R,U,d,R,u,,,,,5,19,119,15,4,0,4,0,,,,,1,32,68,9,,,,,,up,0.5837688330393576,1958.2338108963831,None,001,90,2019_Nov_01_1403,ACPT_experiment_5_30_19,3.1.0,59.94121425454923,
,,,C,U,d,n,L,D,d,L,c ,,,,,5,19,119,15,4,0,4,0,,,,,1,33,69,12,,,,,,up,0.6004468645078305,1960.1185881327347,None,001,90,2019_Nov_01_1403,ACPT_experiment_5_30_19,3.1.0,59.94121425454923,
,,,C,U,d,n,R,D,d,L,c,,,,,5,19,119,15,4,0,4,0,,,,,1,34,70,0,,,,,,up,0.45034910912363557,1961.9866474929058,None,001,90,2019_Nov_01_1403,ACPT_experiment_5_30_19,3.1.0,59.94121425454923,
,,,C,U,d,n,R,U,d,L,u,,,,,5,19,119,15,4,0,4,0,,,,,1,35,71,8,,,,,,up,0.5504124682556721,1963.7212922606795,None,001,90,2019_Nov_01_1403,ACPT_experiment_5_30_19,3.1.0,59.94121425454923,
,,,C,U,d,n,,,,,,,,,,5,19,119,15,5,0,5,0,0,0,0,0,,,,,,,,,,,,,,001,90,2019_Nov_01_1403,ACPT_experiment_5_30_19,3.1.0,59.94121425454923,
,,,C,U,d,n,L,G,g,R,c ,,,,,5,19,119,15,5,0,5,0,,,,,0,0,0,19,,,,,,up,0.5334651831144583,2036.092993940887,None,001,90,2019_Nov_01_1403,ACPT_experiment_5_30_19,3.1.0,59.94121425454923,
,,,C,U,d,n,R,G,g,L,c ,,,,,5,19,119,15,5,0,5,0,,,,,0,1,1,6,,,,,,up,0.5670805385416315,2037.910768667929,None,001,90,2019_Nov_01_1403,ACPT_experiment_5_30_19,3.1.0,59.94121425454923,
,,,C,U,d,n,L,U,g,L,u,,,,,5,19,119,15,5,0,5,0,,,,,0,2,2,22,,,,,,up,0.5670853682058805,2039.7621726356756,None,001,90,2019_Nov_01_1403,ACPT_experiment_5_30_19,3.1.0,59.94121425454923,
,,,C,U,d,n,R,D,y,R,y,,,,,5,19,119,15,5,0,5,0,,,,,0,3,3,27,,,,,,down,0.4836982294145855,2041.613569057079,None,001,90,2019_Nov_01_1403,ACPT_experiment_5_30_19,3.1.0,59.94121425454923,
,,,C,U,d,n,L,U,y,R,u,,,,,5,19,119,15,5,0,5,0,,,,,0,4,4,25,,,,,,down,0.9338321167124377,2043.431779962999,None,001,90,2019_Nov_01_1403,ACPT_experiment_5_30_19,3.1.0,59.94121425454923,
,,,C,U,d,n,L,D,y,R,y,,,,,5,19,119,15,5,0,5,0,,,,,0,5,5,33,,,,,,down,0.6671614051992947,2045.666634670155,None,001,90,2019_Nov_01_1403,ACPT_experiment_5_30_19,3.1.0,59.94121425454923,
,,,C,U,d,n,R,G,d,R,i,,,,,5,19,119,15,5,0,5,0,,,,,0,6,6,5,,,,,,up,0.45033643125862,2047.6181173915847,None,001,90,2019_Nov_01_1403,ACPT_experiment_5_30_19,3.1.0,59.94121425454923,
,,,C,U,d,n,R,U,g,R,u,,,,,5,19,119,15,5,0,5,0,,,,,0,7,7,11,,,,,,up,0.4337136390568048,2049.352756725986,None,001,90,2019_Nov_01_1403,ACPT_experiment_5_30_19,3.1.0,59.94121425454923,
,,,C,U,d,n,R,D,g,L,i,,,,,5,19,119,15,5,0,5,0,,,,,0,8,8,2,,,,,,up,0.45006385719170794,2051.087682217878,None,001,90,2019_Nov_01_1403,ACPT_experiment_5_30_19,3.1.0,59.94121425454923,
,,,C,U,d,n,R,G,d,L,i,,,,,5,19,119,15,5,0,5,0,,,,,0,9,9,4,,,,,,up,0.40029569607941085,2052.8220713153987,None,001,90,2019_Nov_01_1403,ACPT_experiment_5_30_19,3.1.0,59.94121425454923,
,,,C,U,d,n,R,D,y,L,y,,,,,5,19,119,15,5,0,5,0,,,,,0,10,10,26,,,,,,down,0.7005147514501004,2054.523348247936,None,001,90,2019_Nov_01_1403,ACPT_experiment_5_30_19,3.1.0,59.94121425454923,
,,,C,U,d,n,R,U,y,L,u,,,,,5,19,119,15,5,0,5,0,,,,,0,11,11,30,,,,,,down,0.517055197906302,2056.524852084045,None,001,90,2019_Nov_01_1403,ACPT_experiment_5_30_19,3.1.0,59.94121425454923,
,,,C,U,d,n,R,D,d,L,c,,,,,5,19,119,15,5,0,5,0,,,,,0,12,12,0,,,,,,up,0.7338635698870348,2058.342910251895,None,001,90,2019_Nov_01_1403,ACPT_experiment_5_30_19,3.1.0,59.94121425454923,
,,,C,U,d,n,L,G,d,L,i,,,,,5,19,119,15,5,0,5,0,,,,,0,13,13,16,,,,,,up,0.7339230351062724,2060.361084271268,None,001,90,2019_Nov_01_1403,ACPT_experiment_5_30_19,3.1.0,59.94121425454923,
,,,C,U,d,n,R,D,g,R,i,,,,,5,19,119,15,5,0,5,0,,,,,0,14,14,3,,,,,,up,0.46698759772698395,2062.3792930038417,None,001,90,2019_Nov_01_1403,ACPT_experiment_5_30_19,3.1.0,59.94121425454923,
,,,C,U,d,n,L,U,d,R,u,,,,,5,19,119,15,5,0,5,0,,,,,0,15,15,21,,,,,,up,0.45033914794476004,2064.130603125215,None,001,90,2019_Nov_01_1403,ACPT_experiment_5_30_19,3.1.0,59.94121425454923,
,,,C,U,d,n,R,U,y,R,u,,,,,5,19,119,15,5,0,5,0,,,,,0,16,16,31,,,,,,down,0.6504882033987087,2065.881932867089,None,001,90,2019_Nov_01_1403,ACPT_experiment_5_30_19,3.1.0,59.94121425454923,
,,,C,U,d,n,L,D,y,L,y,,,,,5,19,119,15,5,0,5,0,,,,,0,17,17,32,,,,,,down,0.5837920757912798,2067.8333823845915,None,001,90,2019_Nov_01_1403,ACPT_experiment_5_30_19,3.1.0,59.94121425454923,
,,,C,U,d,n,L,G,g,L,c ,,,,,5,19,119,15,5,0,5,0,,,,,0,18,18,18,,,,,,up,0.45034759985719575,2069.701488833971,None,001,90,2019_Nov_01_1403,ACPT_experiment_5_30_19,3.1.0,59.94121425454923,
,,,C,U,d,n,L,G,y,R,y,,,,,5,19,119,15,5,0,5,0,,,,,0,19,19,35,,,,,,down,0.5137311828038946,2071.456147118761,None,001,90,2019_Nov_01_1403,ACPT_experiment_5_30_19,3.1.0,59.94121425454923,
,,,C,U,d,n,L,G,y,L,y,,,,,5,19,119,15,5,0,5,0,,,,,0,20,20,34,,,,,,down,0.733903414598899,2073.2541612823497,None,001,90,2019_Nov_01_1403,ACPT_experiment_5_30_19,3.1.0,59.94121425454923,
,,,C,U,d,n,L,D,d,L,c ,,,,,5,19,119,15,5,0,5,0,,,,,0,21,21,12,,,,,,up,0.6338098700798582,2075.2723676000915,None,001,90,2019_Nov_01_1403,ACPT_experiment_5_30_19,3.1.0,59.94121425454923,
,,,C,U,d,n,L,U,y,L,u,,,,,5,19,119,15,5,0,5,0,,,,,0,22,22,24,,,,,,down,0.6338469981055823,2077.1904882215113,None,001,90,2019_Nov_01_1403,ACPT_experiment_5_30_19,3.1.0,59.94121425454923,
,,,C,U,d,n,L,U,d,L,u,,,,,5,19,119,15,5,0,5,0,,,,,0,23,23,20,,,,,,up,0.7672990203936934,2079.0919012297836,None,001,90,2019_Nov_01_1403,ACPT_experiment_5_30_19,3.1.0,59.94121425454923,
,,,C,U,d,n,R,D,d,R,c ,,,,,5,19,119,15,5,0,5,0,,,,,0,24,24,1,,,,,,up,0.5671158554505382,2081.1267780326434,None,001,90,2019_Nov_01_1403,ACPT_experiment_5_30_19,3.1.0,59.94121425454923,
,,,C,U,d,n,L,D,g,R,i,,,,,5,19,119,15,5,0,5,0,,,,,0,25,25,15,,,,,,up,0.6338077571017493,2082.9782010171893,None,001,90,2019_Nov_01_1403,ACPT_experiment_5_30_19,3.1.0,59.94121425454923,
,,,C,U,d,n,L,U,g,R,u,,,,,5,19,119,15,5,0,5,0,,,,,0,26,26,23,,,,,,up,0.5670935182606627,2084.896320431193,None,001,90,2019_Nov_01_1403,ACPT_experiment_5_30_19,3.1.0,59.94121425454923,
,,,C,U,d,n,R,G,y,R,y,,,,,5,19,119,15,5,0,5,0,,,,,0,27,27,29,,,,,,down,0.5503548141641659,2086.74777088444,None,001,90,2019_Nov_01_1403,ACPT_experiment_5_30_19,3.1.0,59.94121425454923,
,,,C,U,d,n,R,G,y,L,y,,,,,5,19,119,15,5,0,5,0,,,,,0,28,28,28,,,,,,down,0.7338850015148637,2088.582440374046,None,001,90,2019_Nov_01_1403,ACPT_experiment_5_30_19,3.1.0,59.94121425454923,
,,,C,U,d,n,L,G,d,R,i,,,,,5,19,119,15,5,0,5,0,,,,,0,29,29,17,,,,,,up,0.43322373018600047,2090.6177189444406,None,001,90,2019_Nov_01_1403,ACPT_experiment_5_30_19,3.1.0,59.94121425454923,
,,,C,U,d,n,R,U,d,R,u,,,,,5,19,119,15,5,0,5,0,,,,,0,30,30,9,,,,,,up,0.4003222592182283,2092.3352845169193,None,001,90,2019_Nov_01_1403,ACPT_experiment_5_30_19,3.1.0,59.94121425454923,
,,,C,U,d,n,R,U,d,L,u,,,,,5,19,119,15,5,0,5,0,,,,,0,31,31,8,,,,,,up,0.48371815177233657,2094.0031866715817,None,001,90,2019_Nov_01_1403,ACPT_experiment_5_30_19,3.1.0,59.94121425454923,
,,,C,U,d,n,L,D,d,R,c ,,,,,5,19,119,15,5,0,5,0,,,,,0,32,32,13,,,,,,up,0.4503237533972424,2095.77121678211,None,001,90,2019_Nov_01_1403,ACPT_experiment_5_30_19,3.1.0,59.94121425454923,
,,,C,U,d,n,L,D,g,L,i,,,,,5,19,119,15,5,0,5,0,,,,,0,33,33,14,,,,,,up,0.5334675979465828,2097.5061323128266,None,001,90,2019_Nov_01_1403,ACPT_experiment_5_30_19,3.1.0,59.94121425454923,
,,,C,U,d,n,R,G,g,R,c ,,,,,5,19,119,15,5,0,5,0,,,,,0,34,34,7,,,,,,up,0.4170220241685456,2099.3072211601993,None,001,90,2019_Nov_01_1403,ACPT_experiment_5_30_19,3.1.0,59.94121425454923,
,,,C,U,d,n,R,U,g,L,u,,,,,5,19,119,15,5,0,5,0,,,,,0,35,35,10,,,,,,up,0.48369460717003676,2100.9918276076187,None,001,90,2019_Nov_01_1403,ACPT_experiment_5_30_19,3.1.0,59.94121425454923,
,,,C,U,d,n,L,D,g,R,i,,,,,5,19,119,15,5,0,5,0,,,,,1,0,36,15,,,,,,up,0.5003853164962493,2102.743155538372,None,001,90,2019_Nov_01_1403,ACPT_experiment_5_30_19,3.1.0,59.94121425454923,
,,,C,U,d,n,L,G,d,L,i,,,,,5,19,119,15,5,0,5,0,,,,,1,1,37,16,,,,,,up,0.4667331348937296,2104.5448133803384,None,001,90,2019_Nov_01_1403,ACPT_experiment_5_30_19,3.1.0,59.94121425454923,
,,,C,U,d,n,L,D,y,R,y,,,,,5,19,119,15,5,0,5,0,,,,,1,2,38,33,,,,,,down,0.8506188457649841,2106.3125419388252,None,001,90,2019_Nov_01_1403,ACPT_experiment_5_30_19,3.1.0,59.94121425454923,
,,,C,U,d,n,R,G,g,R,c ,,,,,5,19,119,15,5,0,5,0,,,,,1,3,39,7,,,,,,up,0.6338243590689672,2108.464153491501,None,001,90,2019_Nov_01_1403,ACPT_experiment_5_30_19,3.1.0,59.94121425454923,
,,,C,U,d,n,R,G,y,L,y,,,,,5,19,119,15,5,0,5,0,,,,,1,4,40,28,,,,,,down,0.6672003443563881,2110.365564386795,None,001,90,2019_Nov_01_1403,ACPT_experiment_5_30_19,3.1.0,59.94121425454923,
,,,C,U,d,n,L,U,d,L,u,,,,,5,19,119,15,5,0,5,0,,,,,1,5,41,20,,,,,,up,0.6171312349069922,2112.3170652194585,None,001,90,2019_Nov_01_1403,ACPT_experiment_5_30_19,3.1.0,59.94121425454923,
,,,C,U,d,n,R,D,y,R,y,,,,,5,19,119,15,5,0,5,0,,,,,1,6,42,27,,,,,,down,0.7505588070234808,2114.2185108279537,None,001,90,2019_Nov_01_1403,ACPT_experiment_5_30_19,3.1.0,59.94121425454923,
,,,C,U,d,n,R,U,y,L,u,,,,,5,19,119,15,5,0,5,0,,,,,1,7,43,30,,,,,,down,0.6171390831077588,2116.25336951958,None,001,90,2019_Nov_01_1403,ACPT_experiment_5_30_19,3.1.0,59.94121425454923,
,,,C,U,d,n,L,U,d,R,u,,,,,5,19,119,15,5,0,5,0,,,,,1,8,44,21,,,,,,up,0.5337184385352884,2118.154824485542,None,001,90,2019_Nov_01_1403,ACPT_experiment_5_30_19,3.1.0,59.94121425454923,
,,,C,U,d,n,R,D,y,L,y,,,,,5,19,119,15,5,0,5,0,,,,,1,9,45,26,,,,,,down,0.6338352258062514,2119.972833149355,None,001,90,2019_Nov_01_1403,ACPT_experiment_5_30_19,3.1.0,59.94121425454923,
,,,C,U,d,n,L,D,g,L,i,,,,,5,19,119,15,5,0,5,0,,,,,1,10,46,14,,,,,,up,0.7505669570782629,2121.8909721838627,None,001,90,2019_Nov_01_1403,ACPT_experiment_5_30_19,3.1.0,59.94121425454923,
,,,C,U,d,n,R,U,y,R,u,,,,,5,19,119,15,5,0,5,0,,,,,1,11,47,31,,,,,,down,0.6169836283479526,2123.9760017097014,None,001,90,2019_Nov_01_1403,ACPT_experiment_5_30_19,3.1.0,59.94121425454923,
,,,C,U,d,n,L,G,y,L,y,,,,,5,19,119,15,5,0,5,0,,,,,1,12,48,34,,,,,,down,0.5837537403458555,2125.8773356322545,None,001,90,2019_Nov_01_1403,ACPT_experiment_5_30_19,3.1.0,59.94121425454923,
,,,C,U,d,n,R,U,d,L,u,,,,,5,19,119,15,5,0,5,0,,,,,1,13,49,8,,,,,,up,0.7839369052890106,2127.7620853999015,None,001,90,2019_Nov_01_1403,ACPT_experiment_5_30_19,3.1.0,59.94121425454923,
,,,C,U,d,n,R,G,y,R,y,,,,,5,19,119,15,5,0,5,0,,,,,1,14,50,29,,,,,,down,0.7839263404057419,2129.8303152471544,None,001,90,2019_Nov_01_1403,ACPT_experiment_5_30_19,3.1.0,59.94121425454923,
,,,C,U,d,n,R,G,d,R,i,,,,,5,19,119,15,5,0,5,0,,,,,1,15,51,5,,,,,,up,0.93404945151633,2131.8818540832235,None,001,90,2019_Nov_01_1403,ACPT_experiment_5_30_19,3.1.0,59.94121425454923,
,,,C,U,d,n,R,D,g,R,i,,,,,5,19,119,15,5,0,5,0,,,,,1,16,52,3,,,,,,up,0.5670938201146782,2134.1002121731053,None,001,90,2019_Nov_01_1403,ACPT_experiment_5_30_19,3.1.0,59.94121425454923,
,,,C,U,d,n,R,G,d,L,i,,,,,5,19,119,15,5,0,5,0,,,,,1,17,53,4,,,,,,up,0.6672266056448279,2135.9515877665854,None,001,90,2019_Nov_01_1403,ACPT_experiment_5_30_19,3.1.0,59.94121425454923,
,,,C,U,d,n,L,U,g,R,u,,,,,5,19,119,15,5,0,5,0,,,,,1,18,54,23,,,,,,up,0.5337501331923704,2137.903092523351,None,001,90,2019_Nov_01_1403,ACPT_experiment_5_30_19,3.1.0,59.94121425454923,
,,,C,U,d,n,L,D,d,L,c ,,,,,5,19,119,15,5,0,5,0,,,,,1,19,55,12,,,,,,up,0.850654766378284,2139.7211349947993,None,001,90,2019_Nov_01_1403,ACPT_experiment_5_30_19,3.1.0,59.94121425454923,
,,,C,U,d,n,R,D,g,L,i,,,,,5,19,119,15,5,0,5,0,,,,,1,20,56,2,,,,,,up,1.050808349642466,2141.856083910554,None,001,90,2019_Nov_01_1403,ACPT_experiment_5_30_19,3.1.0,59.94121425454923,
,,,C,U,d,n,L,G,g,L,c ,,,,,5,19,119,15,5,0,5,0,,,,,1,21,57,18,,,,,,up,0.5837697386050422,2144.1911824854706,None,001,90,2019_Nov_01_1403,ACPT_experiment_5_30_19,3.1.0,59.94121425454923,
,,,C,U,d,n,L,D,d,R,c ,,,,,5,19,119,15,5,0,5,0,,,,,1,22,58,13,,,,,,up,0.366939633146103,2146.059258145755,None,001,90,2019_Nov_01_1403,ACPT_experiment_5_30_19,3.1.0,59.94121425454923,
,,,C,U,d,n,R,U,g,L,u,,,,,5,19,119,15,5,0,5,0,,,,,1,23,59,10,,,,,,up,0.3669351053358696,2147.7105124543396,None,001,90,2019_Nov_01_1403,ACPT_experiment_5_30_19,3.1.0,59.94121425454923,
,,,C,U,d,n,L,D,y,L,y,,,,,5,19,119,15,5,0,5,0,,,,,1,24,60,32,,,,,,down,0.6004462607997993,2149.361761027705,None,001,90,2019_Nov_01_1403,ACPT_experiment_5_30_19,3.1.0,59.94121425454923,
,,,C,U,d,n,L,U,y,R,u,,,,,5,19,119,15,5,0,5,0,,,,,1,25,61,25,,,,,,down,0.5670935182606627,2151.246521058385,None,001,90,2019_Nov_01_1403,ACPT_experiment_5_30_19,3.1.0,59.94121425454923,
,,,C,U,d,n,L,G,d,R,i,,,,,5,19,119,15,5,0,5,0,,,,,1,26,62,17,,,,,,up,0.5504085441534698,2153.097922913157,None,001,90,2019_Nov_01_1403,ACPT_experiment_5_30_19,3.1.0,59.94121425454923,
,,,C,U,d,n,R,U,g,R,u,,,,,5,19,119,15,5,0,5,0,,,,,1,27,63,11,,,,,,up,0.5167868497956078,2154.9495907012115,None,001,90,2019_Nov_01_1403,ACPT_experiment_5_30_19,3.1.0,59.94121425454923,
