facing_vig,person_vig,text_vig,facing_train,person_train,food_train,correct_key_train,facing_exp,person_exp,food_exp,showL_R,consistent,vig_random.thisRepN,vig_random.thisTrialN,vig_random.thisN,vig_random.thisIndex,trainTrials.thisRepN,trainTrials.thisTrialN,trainTrials.thisN,trainTrials.thisIndex,expBlock.thisRepN,expBlock.thisTrialN,expBlock.thisN,expBlock.thisIndex,breakLoop.thisRepN,breakLoop.thisTrialN,breakLoop.thisN,breakLoop.thisIndex,expTrials.thisRepN,expTrials.thisTrialN,expTrials.thisN,expTrials.thisIndex,train_resp.keys,train_resp.corr,train_resp.rt,train_resp.started,train_resp.stopped,exp_resp.keys,exp_resp.rt,exp_resp.started,exp_resp.stopped,session,participant,date,expName,psychopyVersion,frameRate,
C,D,"is allergic to gluten, meaning she can’t eat wheat products. She enjoys eating dairy products. She thinks eating insects, like crickets, is disgusting.",,,,,,,,,,0,0,0,1,,,,,,,,,,,,,,,,,,,,,,,,,,001,91,2019_Nov_04_1100,ACPT_experiment_5_30_19,3.1.0,59.9556421839027,
C,G,"cannot eat dairy products because she is lactose intolerant. She enjoys eating wheat products. She thinks eating insects, like crickets, is disgusting.",,,,,,,,,,0,1,1,0,,,,,,,,,,,,,,,,,,,,,,,,,,001,91,2019_Nov_04_1100,ACPT_experiment_5_30_19,3.1.0,59.9556421839027,
C,U,"did not report her food preferences, so her food preferences are unknown.",,,,,,,,,,0,2,2,2,,,,,,,,,,,,,,,,,,,,,,,,,,001,91,2019_Nov_04_1100,ACPT_experiment_5_30_19,3.1.0,59.9556421839027,
,,,C,G,y,b,,,,,,,,,,0,0,0,14,,,,,,,,,,,,,b,1,4.736940668503621,1668.2707095166384,None,,,,,001,91,2019_Nov_04_1100,ACPT_experiment_5_30_19,3.1.0,59.9556421839027,
,,,C,G,d,b,,,,,,,,,,0,1,1,12,,,,,,,,,,,,,b,1,3.686155863466638,1676.2767758743878,None,,,,,001,91,2019_Nov_04_1100,ACPT_experiment_5_30_19,3.1.0,59.9556421839027,
,,,C,D,y,b,,,,,,,,,,0,2,2,11,,,,,,,,,,,,,b,1,2.0015276825681667,1683.248726402949,None,,,,,001,91,2019_Nov_04_1100,ACPT_experiment_5_30_19,3.1.0,59.9556421839027,
,,,C,U,g,n,,,,,,,,,,0,3,3,16,,,,,,,,,,,,,v,0,4.937086705418778,1688.5360626358909,None,,,,,001,91,2019_Nov_04_1100,ACPT_experiment_5_30_19,3.1.0,59.9556421839027,
,,,C,D,d,v,,,,,,,,,,0,4,4,18,,,,,,,,,,,,,v,1,4.119807924328825,1696.7589485342125,None,,,,,001,91,2019_Nov_04_1100,ACPT_experiment_5_30_19,3.1.0,59.9556421839027,
,,,C,D,g,b,,,,,,,,,,0,5,5,1,,,,,,,,,,,,,b,1,3.6527804818856566,1704.1478845626182,None,,,,,001,91,2019_Nov_04_1100,ACPT_experiment_5_30_19,3.1.0,59.9556421839027,
,,,C,D,d,v,,,,,,,,,,0,6,6,9,,,,,,,,,,,,,v,1,3.0189733284914837,1711.0697952615578,None,,,,,001,91,2019_Nov_04_1100,ACPT_experiment_5_30_19,3.1.0,59.9556421839027,
,,,C,U,d,n,,,,,,,,,,0,7,7,15,,,,,,,,,,,,,n,1,6.188041695682159,1717.3745641607059,None,,,,,001,91,2019_Nov_04_1100,ACPT_experiment_5_30_19,3.1.0,59.9556421839027,
,,,C,D,y,b,,,,,,,,,,0,8,8,2,,,,,,,,,,,,,b,1,1.5009494814300979,1726.8652569486012,None,,,,,001,91,2019_Nov_04_1100,ACPT_experiment_5_30_19,3.1.0,59.9556421839027,
,,,C,D,d,v,,,,,,,,,,0,9,9,0,,,,,,,,,,,,,v,1,3.6694545892507904,1731.6520475806258,None,,,,,001,91,2019_Nov_04_1100,ACPT_experiment_5_30_19,3.1.0,59.9556421839027,
,,,C,G,d,b,,,,,,,,,,0,10,10,3,,,,,,,,,,,,,b,1,4.086438881679669,1738.607312531374,None,,,,,001,91,2019_Nov_04_1100,ACPT_experiment_5_30_19,3.1.0,59.9556421839027,
,,,C,G,g,v,,,,,,,,,,0,11,11,19,,,,,,,,,,,,,v,1,3.8696181336918016,1745.962877706007,None,,,,,001,91,2019_Nov_04_1100,ACPT_experiment_5_30_19,3.1.0,59.9556421839027,
,,,C,U,y,n,,,,,,,,,,0,12,12,8,,,,,,,,,,,,,n,1,2.0682884069087777,1753.118300164118,None,,,,,001,91,2019_Nov_04_1100,ACPT_experiment_5_30_19,3.1.0,59.9556421839027,
,,,C,G,y,b,,,,,,,,,,0,13,13,5,,,,,,,,,,,,,b,1,1.5845455031164875,1758.4556768303892,None,,,,,001,91,2019_Nov_04_1100,ACPT_experiment_5_30_19,3.1.0,59.9556421839027,
,,,C,D,g,b,,,,,,,,,,0,14,14,10,,,,,,,,,,,,,b,1,4.970443975766102,1763.3260299783178,None,,,,,001,91,2019_Nov_04_1100,ACPT_experiment_5_30_19,3.1.0,59.9556421839027,
,,,C,U,d,n,,,,,,,,,,0,15,15,6,,,,,,,,,,,,,n,1,1.41774405868523,1771.5822852211427,None,,,,,001,91,2019_Nov_04_1100,ACPT_experiment_5_30_19,3.1.0,59.9556421839027,
,,,C,U,g,n,,,,,,,,,,0,16,16,7,,,,,,,,,,,,,n,1,1.667969166228204,1776.285845980257,None,,,,,001,91,2019_Nov_04_1100,ACPT_experiment_5_30_19,3.1.0,59.9556421839027,
,,,C,G,g,v,,,,,,,,,,0,17,17,4,,,,,,,,,,,,,v,1,3.6194156651908997,1781.239597737424,None,,,,,001,91,2019_Nov_04_1100,ACPT_experiment_5_30_19,3.1.0,59.9556421839027,
,,,C,U,y,n,,,,,,,,,,0,18,18,17,,,,,,,,,,,,,n,1,1.2842935456694704,1788.1448400642223,None,,,,,001,91,2019_Nov_04_1100,ACPT_experiment_5_30_19,3.1.0,59.9556421839027,
,,,C,G,g,v,,,,,,,,,,0,19,19,13,,,,,,,,,,,,,v,1,5.820849712680456,1792.7318752582737,None,,,,,001,91,2019_Nov_04_1100,ACPT_experiment_5_30_19,3.1.0,59.9556421839027,
,,,C,G,y,b,,,,,,,,,,1,0,20,5,,,,,,,,,,,,,b,1,1.5345105031574349,1801.8218461323913,None,,,,,001,91,2019_Nov_04_1100,ACPT_experiment_5_30_19,3.1.0,59.9556421839027,
,,,C,G,g,v,,,,,,,,,,1,1,21,19,,,,,,,,,,,,,v,1,3.5026715579069787,1806.625485947041,None,,,,,001,91,2019_Nov_04_1100,ACPT_experiment_5_30_19,3.1.0,59.9556421839027,
,,,C,D,y,b,,,,,,,,,,1,2,22,2,,,,,,,,,,,,,b,1,2.051571738144048,1813.4139545848739,None,,,,,001,91,2019_Nov_04_1100,ACPT_experiment_5_30_19,3.1.0,59.9556421839027,
,,,C,D,g,b,,,,,,,,,,1,3,23,1,,,,,,,,,,,,,b,1,4.236602441213108,1818.7346302787832,None,,,,,001,91,2019_Nov_04_1100,ACPT_experiment_5_30_19,3.1.0,59.9556421839027,
,,,C,U,y,n,,,,,,,,,,1,4,24,8,,,,,,,,,,,,,n,1,1.1842739553512729,1826.257015914643,None,,,,,001,91,2019_Nov_04_1100,ACPT_experiment_5_30_19,3.1.0,59.9556421839027,
,,,C,G,d,b,,,,,,,,,,1,5,25,12,,,,,,,,,,,,,b,1,2.1516064211568846,1830.7271062685695,None,,,,,001,91,2019_Nov_04_1100,ACPT_experiment_5_30_19,3.1.0,59.9556421839027,
,,,C,D,d,v,,,,,,,,,,1,6,26,18,,,,,,,,,,,,,v,1,3.7695312299551915,1836.1645170141455,None,,,,,001,91,2019_Nov_04_1100,ACPT_experiment_5_30_19,3.1.0,59.9556421839027,
,,,C,G,y,b,,,,,,,,,,1,7,27,14,,,,,,,,,,,,,b,1,1.3009993476935051,1843.2198598130135,None,,,,,001,91,2019_Nov_04_1100,ACPT_experiment_5_30_19,3.1.0,59.9556421839027,
,,,C,U,d,n,,,,,,,,,,1,8,28,15,,,,,,,,,,,,,n,1,1.401073271712903,1847.806662277711,None,,,,,001,91,2019_Nov_04_1100,ACPT_experiment_5_30_19,3.1.0,59.9556421839027,
,,,C,D,d,v,,,,,,,,,,1,9,29,0,,,,,,,,,,,,,v,1,3.63607981137784,1852.4935591924923,None,,,,,001,91,2019_Nov_04_1100,ACPT_experiment_5_30_19,3.1.0,59.9556421839027,
,,,C,G,g,v,,,,,,,,,,1,10,30,13,,,,,,,,,,,,,v,1,3.285847187672516,1859.4154330652568,None,,,,,001,91,2019_Nov_04_1100,ACPT_experiment_5_30_19,3.1.0,59.9556421839027,
,,,C,D,d,v,,,,,,,,,,1,11,31,9,,,,,,,,,,,,,v,1,3.485971792960754,1865.9871032922902,None,,,,,001,91,2019_Nov_04_1100,ACPT_experiment_5_30_19,3.1.0,59.9556421839027,
,,,C,G,d,b,,,,,,,,,,1,12,32,3,,,,,,,,,,,,,b,1,3.018935898608561,1872.758923480339,None,,,,,001,91,2019_Nov_04_1100,ACPT_experiment_5_30_19,3.1.0,59.9556421839027,
,,,C,U,g,n,,,,,,,,,,1,13,33,7,,,,,,,,,,,,,n,1,1.2843189013965457,1879.0636585718507,None,,,,,001,91,2019_Nov_04_1100,ACPT_experiment_5_30_19,3.1.0,59.9556421839027,
,,,C,G,g,v,,,,,,,,,,1,14,34,4,,,,,,,,,,,,,v,1,2.801851028461897,1883.650742968087,None,,,,,001,91,2019_Nov_04_1100,ACPT_experiment_5_30_19,3.1.0,59.9556421839027,
,,,C,D,y,b,,,,,,,,,,1,15,35,11,,,,,,,,,,,,,b,1,1.3009963291547137,1889.7550832950733,None,,,,,001,91,2019_Nov_04_1100,ACPT_experiment_5_30_19,3.1.0,59.9556421839027,
,,,C,U,g,n,,,,,,,,,,1,16,36,16,,,,,,,,,,,,,n,1,1.2843285607214057,1894.341888476456,None,,,,,001,91,2019_Nov_04_1100,ACPT_experiment_5_30_19,3.1.0,59.9556421839027,
,,,C,D,g,b,,,,,,,,,,1,17,37,10,,,,,,,,,,,,,b,1,3.2192171660685744,1898.9120132115413,None,,,,,001,91,2019_Nov_04_1100,ACPT_experiment_5_30_19,3.1.0,59.9556421839027,
,,,C,U,d,n,,,,,,,,,,1,18,38,6,,,,,,,,,,,,,n,1,1.0007582569869555,1905.4169507866463,None,,,,,001,91,2019_Nov_04_1100,ACPT_experiment_5_30_19,3.1.0,59.9556421839027,
,,,C,U,y,n,,,,,,,,,,1,19,39,17,,,,,,,,,,,,,n,1,2.384915636363985,1909.7204392215672,None,,,,,001,91,2019_Nov_04_1100,ACPT_experiment_5_30_19,3.1.0,59.9556421839027,
,,,C,U,g,n,,,,,,,,,,2,0,40,16,,,,,,,,,,,,,n,1,1.08417135521222,1915.391156163811,None,,,,,001,91,2019_Nov_04_1100,ACPT_experiment_5_30_19,3.1.0,59.9556421839027,
,,,C,D,y,b,,,,,,,,,,2,1,41,2,,,,,,,,,,,,,b,1,1.23394190097315,1919.794815115998,None,,,,,001,91,2019_Nov_04_1100,ACPT_experiment_5_30_19,3.1.0,59.9556421839027,
,,,C,U,d,n,,,,,,,,,,2,2,42,15,,,,,,,,,,,,,n,1,0.9340458292695075,1924.3145749248156,None,,,,,001,91,2019_Nov_04_1100,ACPT_experiment_5_30_19,3.1.0,59.9556421839027,
,,,C,U,g,n,,,,,,,,,,2,3,43,7,,,,,,,,,,,,,n,1,0.8172851200215518,1928.5177687805194,None,,,,,001,91,2019_Nov_04_1100,ACPT_experiment_5_30_19,3.1.0,59.9556421839027,
,,,C,G,g,v,,,,,,,,,,2,4,44,19,,,,,,,,,,,,,v,1,1.5345237847286626,1932.620857923106,None,,,,,001,91,2019_Nov_04_1100,ACPT_experiment_5_30_19,3.1.0,59.9556421839027,
,,,C,D,d,v,,,,,,,,,,2,5,45,9,,,,,,,,,,,,,v,1,2.134976384460515,1937.4411742599523,None,,,,,001,91,2019_Nov_04_1100,ACPT_experiment_5_30_19,3.1.0,59.9556421839027,
,,,C,D,g,b,,,,,,,,,,2,6,46,10,,,,,,,,,,,,,b,1,3.4025846541703686,1942.8452757299506,None,,,,,001,91,2019_Nov_04_1100,ACPT_experiment_5_30_19,3.1.0,59.9556421839027,
,,,C,G,g,v,,,,,,,,,,2,7,47,4,,,,,,,,,,,,,v,1,1.5845645199119645,1949.5336568603393,None,,,,,001,91,2019_Nov_04_1100,ACPT_experiment_5_30_19,3.1.0,59.9556421839027,
,,,C,G,d,b,,,,,,,,,,2,8,48,3,,,,,,,,,,,,,b,1,3.3859069245586397,1954.4040145360764,None,,,,,001,91,2019_Nov_04_1100,ACPT_experiment_5_30_19,3.1.0,59.9556421839027,
,,,C,D,d,v,,,,,,,,,,2,9,49,18,,,,,,,,,,,,,v,1,3.2191401933255293,1961.0757303128626,None,,,,,001,91,2019_Nov_04_1100,ACPT_experiment_5_30_19,3.1.0,59.9556421839027,
,,,C,U,y,n,,,,,,,,,,2,10,50,17,,,,,,,,,,,,,n,1,0.96740128849342,1967.5806537008343,None,,,,,001,91,2019_Nov_04_1100,ACPT_experiment_5_30_19,3.1.0,59.9556421839027,
,,,C,G,g,v,,,,,,,,,,2,11,51,13,,,,,,,,,,,,,v,1,1.9345535475226825,1971.8508023729337,None,,,,,001,91,2019_Nov_04_1100,ACPT_experiment_5_30_19,3.1.0,59.9556421839027,
,,,C,G,y,b,,,,,,,,,,2,12,52,5,,,,,,,,,,,,,b,1,1.301022590444063,1977.054467724423,None,,,,,001,91,2019_Nov_04_1100,ACPT_experiment_5_30_19,3.1.0,59.9556421839027,
,,,C,U,d,n,,,,,,,,,,2,13,53,6,,,,,,,,,,,,,n,1,1.0505532830989068,1981.658228039148,None,,,,,001,91,2019_Nov_04_1100,ACPT_experiment_5_30_19,3.1.0,59.9556421839027,
,,,C,G,d,b,,,,,,,,,,2,14,54,12,,,,,,,,,,,,,b,1,2.802154089773012,1985.99456270577,None,,,,,001,91,2019_Nov_04_1100,ACPT_experiment_5_30_19,3.1.0,59.9556421839027,
,,,C,U,y,n,,,,,,,,,,2,15,55,8,,,,,,,,,,,,,n,1,0.8673430608773742,1992.0825395330503,None,,,,,001,91,2019_Nov_04_1100,ACPT_experiment_5_30_19,3.1.0,59.9556421839027,
,,,C,G,y,b,,,,,,,,,,2,16,56,14,,,,,,,,,,,,,b,1,1.8347180880818996,1996.2523619312733,None,,,,,001,91,2019_Nov_04_1100,ACPT_experiment_5_30_19,3.1.0,59.9556421839027,
,,,C,D,y,b,,,,,,,,,,2,17,57,11,,,,,,,,,,,,,b,1,1.3009948198850907,2001.3728888715827,None,,,,,001,91,2019_Nov_04_1100,ACPT_experiment_5_30_19,3.1.0,59.9556421839027,
,,,C,D,d,v,,,,,,,,,,2,18,58,0,,,,,,,,,,,,,v,1,2.434918941664364,2005.9599648159096,None,,,,,001,91,2019_Nov_04_1100,ACPT_experiment_5_30_19,3.1.0,59.9556421839027,
,,,C,D,g,b,,,,,,,,,,2,19,59,1,,,,,,,,,,,,,b,1,2.1349305026683396,2011.6640260487839,None,,,,,001,91,2019_Nov_04_1100,ACPT_experiment_5_30_19,3.1.0,59.9556421839027,
,,,C,D,y,b,,,,,,,,,,3,0,60,11,,,,,,,,,,,,,b,1,1.0508306868291584,2017.0680777128891,None,,,,,001,91,2019_Nov_04_1100,ACPT_experiment_5_30_19,3.1.0,59.9556421839027,
,,,C,G,g,v,,,,,,,,,,3,1,61,13,,,,,,,,,,,,,v,1,1.1673233498172522,2021.421636766529,None,,,,,001,91,2019_Nov_04_1100,ACPT_experiment_5_30_19,3.1.0,59.9556421839027,
,,,C,D,d,v,,,,,,,,,,3,2,62,18,,,,,,,,,,,,,v,1,2.668698143387246,2025.8747617240806,None,,,,,001,91,2019_Nov_04_1100,ACPT_experiment_5_30_19,3.1.0,59.9556421839027,
,,,C,U,g,n,,,,,,,,,,3,3,63,16,,,,,,,,,,,,,n,1,0.9840889792840244,2031.829270228965,None,,,,,001,91,2019_Nov_04_1100,ACPT_experiment_5_30_19,3.1.0,59.9556421839027,
,,,C,U,g,n,,,,,,,,,,3,4,64,7,,,,,,,,,,,,,n,1,0.7505729941581194,2036.0824957642353,None,,,,,001,91,2019_Nov_04_1100,ACPT_experiment_5_30_19,3.1.0,59.9556421839027,
,,,C,G,d,b,,,,,,,,,,3,5,65,3,,,,,,,,,,,,,b,1,3.2525511936660223,2040.1188709698354,None,,,,,001,91,2019_Nov_04_1100,ACPT_experiment_5_30_19,3.1.0,59.9556421839027,
,,,C,D,y,b,,,,,,,,,,3,6,66,2,,,,,,,,,,,,,b,1,1.1341873383762504,2046.6571803042748,None,,,,,001,91,2019_Nov_04_1100,ACPT_experiment_5_30_19,3.1.0,59.9556421839027,
,,,C,D,g,b,,,,,,,,,,3,7,67,1,,,,,,,,,,,,,b,1,2.0315570137108807,2051.0971740136397,None,,,,,001,91,2019_Nov_04_1100,ACPT_experiment_5_30_19,3.1.0,59.9556421839027,
,,,C,G,y,b,,,,,,,,,,3,8,68,14,,,,,,,,,,,,,b,1,0.9507341237676883,2056.414538672163,None,,,,,001,91,2019_Nov_04_1100,ACPT_experiment_5_30_19,3.1.0,59.9556421839027,
,,,C,D,d,v,,,,,,,,,,3,9,69,0,,,,,,,,,,,,,v,1,3.819305126294239,2060.6680298388615,None,,,,,001,91,2019_Nov_04_1100,ACPT_experiment_5_30_19,3.1.0,59.9556421839027,
,,,C,U,y,n,,,,,,,,,,3,10,70,8,,,,,,,,,,,,,n,1,0.9674139663570713,2067.773133856205,None,,,,,001,91,2019_Nov_04_1100,ACPT_experiment_5_30_19,3.1.0,59.9556421839027,
,,,C,D,g,b,,,,,,,,,,3,11,71,10,,,,,,,,,,,,,b,1,2.1179952916832008,2072.043323882288,None,,,,,001,91,2019_Nov_04_1100,ACPT_experiment_5_30_19,3.1.0,59.9556421839027,
,,,C,G,d,b,,,,,,,,,,3,12,72,12,,,,,,,,,,,,,b,1,2.9689319896006054,2077.447120479851,None,,,,,001,91,2019_Nov_04_1100,ACPT_experiment_5_30_19,3.1.0,59.9556421839027,
,,,C,G,y,b,,,,,,,,,,3,13,73,5,,,,,,,,,,,,,b,1,1.034145410869769,2083.685182686506,None,,,,,001,91,2019_Nov_04_1100,ACPT_experiment_5_30_19,3.1.0,59.9556421839027,
,,,C,G,g,v,,,,,,,,,,3,14,74,4,,,,,,,,,,,,,v,1,1.3977085063334016,2088.025144127689,None,,,,,001,91,2019_Nov_04_1100,ACPT_experiment_5_30_19,3.1.0,59.9556421839027,
,,,C,U,d,n,,,,,,,,,,3,15,75,6,,,,,,,,,,,,,n,1,0.9340509607859531,2092.708666617766,None,,,,,001,91,2019_Nov_04_1100,ACPT_experiment_5_30_19,3.1.0,59.9556421839027,
,,,C,G,g,v,,,,,,,,,,3,16,76,19,,,,,,,,,,,,,v,1,1.0004908144351248,2096.9454851863693,None,,,,,001,91,2019_Nov_04_1100,ACPT_experiment_5_30_19,3.1.0,59.9556421839027,
,,,C,U,d,n,,,,,,,,,,3,17,77,15,,,,,,,,,,,,,n,1,1.3176791902828882,2101.2317800233695,None,,,,,001,91,2019_Nov_04_1100,ACPT_experiment_5_30_19,3.1.0,59.9556421839027,
,,,C,U,y,n,,,,,,,,,,3,18,78,17,,,,,,,,,,,,,n,1,0.7836661423466467,2105.8355403380942,None,,,,,001,91,2019_Nov_04_1100,ACPT_experiment_5_30_19,3.1.0,59.9556421839027,
,,,C,D,d,v,,,,,,,,,,3,19,79,9,,,,,,,,,,,,,v,1,1.9348140474348838,2109.9050120122756,None,,,,,001,91,2019_Nov_04_1100,ACPT_experiment_5_30_19,3.1.0,59.9556421839027,
,,,C,U,y,n,,,,,,,,,,4,0,80,8,,,,,,,,,,,,,n,1,1.0174622478880337,2115.125630987838,None,,,,,001,91,2019_Nov_04_1100,ACPT_experiment_5_30_19,3.1.0,59.9556421839027,
,,,C,U,g,n,,,,,,,,,,4,1,81,7,,,,,,,,,,,,,n,1,1.2509646495882407,2119.4121962859294,None,,,,,001,91,2019_Nov_04_1100,ACPT_experiment_5_30_19,3.1.0,59.9556421839027,
,,,C,D,d,v,,,,,,,,,,4,2,82,0,,,,,,,,,,,,,v,1,2.0514349983295688,2123.9489728062845,None,,,,,001,91,2019_Nov_04_1100,ACPT_experiment_5_30_19,3.1.0,59.9556421839027,
,,,C,G,g,v,,,,,,,,,,4,3,83,19,,,,,,,,,,,,,v,1,1.0509915749562424,2129.286340416939,None,,,,,001,91,2019_Nov_04_1100,ACPT_experiment_5_30_19,3.1.0,59.9556421839027,
,,,C,D,g,b,,,,,,,,,,4,4,84,10,,,,,,,,,,,,,b,1,1.0171914849429413,2133.6399043002407,None,,,,,001,91,2019_Nov_04_1100,ACPT_experiment_5_30_19,3.1.0,59.9556421839027,
,,,C,U,d,n,,,,,,,,,,4,5,85,15,,,,,,,,,,,,,n,1,0.7672606849487238,2137.942892261402,None,,,,,001,91,2019_Nov_04_1100,ACPT_experiment_5_30_19,3.1.0,59.9556421839027,
,,,C,D,g,b,,,,,,,,,,4,6,86,1,,,,,,,,,,,,,b,1,1.9679096104541713,2142.0129151207975,None,,,,,001,91,2019_Nov_04_1100,ACPT_experiment_5_30_19,3.1.0,59.9556421839027,
,,,C,D,y,b,,,,,,,,,,4,7,87,11,,,,,,,,,,,,,b,1,1.3510340457992243,2147.2499332148254,None,,,,,001,91,2019_Nov_04_1100,ACPT_experiment_5_30_19,3.1.0,59.9556421839027,
,,,C,D,d,v,,,,,,,,,,4,8,88,9,,,,,,,,,,,,,v,1,3.0353682210029547,2151.8870517054593,None,,,,,001,91,2019_Nov_04_1100,ACPT_experiment_5_30_19,3.1.0,59.9556421839027,
,,,C,D,d,v,,,,,,,,,,4,9,89,18,,,,,,,,,,,,,v,1,4.987141929589143,2158.191522976666,None,,,,,001,91,2019_Nov_04_1100,ACPT_experiment_5_30_19,3.1.0,59.9556421839027,
,,,C,U,y,n,,,,,,,,,,4,10,90,17,,,,,,,,,,,,,n,1,0.8506451070538787,2166.4644791918527,None,,,,,001,91,2019_Nov_04_1100,ACPT_experiment_5_30_19,3.1.0,59.9556421839027,
,,,C,U,d,n,,,,,,,,,,4,11,91,6,,,,,,,,,,,,,n,1,1.0975446902239128,2170.620932481019,None,,,,,001,91,2019_Nov_04_1100,ACPT_experiment_5_30_19,3.1.0,59.9556421839027,
,,,C,U,g,n,,,,,,,,,,4,12,92,16,,,,,,,,,,,,,n,1,1.5678650568197554,2175.0042648936974,None,,,,,001,91,2019_Nov_04_1100,ACPT_experiment_5_30_19,3.1.0,59.9556421839027,
,,,C,G,y,b,,,,,,,,,,4,13,93,5,,,,,,,,,,,,,b,1,1.317655041971193,2179.857956612125,None,,,,,001,91,2019_Nov_04_1100,ACPT_experiment_5_30_19,3.1.0,59.9556421839027,
,,,C,G,d,b,,,,,,,,,,4,14,94,3,,,,,,,,,,,,,b,1,1.7013146642734682,2184.444729796994,None,,,,,001,91,2019_Nov_04_1100,ACPT_experiment_5_30_19,3.1.0,59.9556421839027,
,,,C,G,d,b,,,,,,,,,,4,15,95,12,,,,,,,,,,,,,b,1,2.8021640509518875,2189.4151641134354,None,,,,,001,91,2019_Nov_04_1100,ACPT_experiment_5_30_19,3.1.0,59.9556421839027,
,,,C,G,g,v,,,,,,,,,,4,16,96,13,,,,,,,,,,,,,v,1,1.8514178530281242,2195.486426686782,None,,,,,001,91,2019_Nov_04_1100,ACPT_experiment_5_30_19,3.1.0,59.9556421839027,
,,,C,D,y,b,,,,,,,,,,4,17,97,2,,,,,,,,,,,,,b,1,1.3010029699403276,2200.623643732713,None,,,,,001,91,2019_Nov_04_1100,ACPT_experiment_5_30_19,3.1.0,59.9556421839027,
,,,C,G,y,b,,,,,,,,,,4,18,98,14,,,,,,,,,,,,,b,1,1.0172017479753777,2205.227384728789,None,,,,,001,91,2019_Nov_04_1100,ACPT_experiment_5_30_19,3.1.0,59.9556421839027,
,,,C,G,g,v,,,,,,,,,,4,19,99,4,,,,,,,,,,,,,v,1,1.3844471591169167,2209.513684999159,None,,,,,001,91,2019_Nov_04_1100,ACPT_experiment_5_30_19,3.1.0,59.9556421839027,
,,,C,U,y,n,,,,,,,,,,5,0,100,8,,,,,,,,,,,,,n,1,0.5001562093912071,2214.200833358236,None,,,,,001,91,2019_Nov_04_1100,ACPT_experiment_5_30_19,3.1.0,59.9556421839027,
,,,C,G,g,v,,,,,,,,,,5,1,101,4,,,,,,,,,,,,,v,1,0.8339782441821626,2217.986781214183,None,,,,,001,91,2019_Nov_04_1100,ACPT_experiment_5_30_19,3.1.0,59.9556421839027,
,,,C,U,g,n,,,,,,,,,,5,2,102,16,,,,,,,,,,,,,n,1,1.083885499572716,2222.123524349497,None,,,,,001,91,2019_Nov_04_1100,ACPT_experiment_5_30_19,3.1.0,59.9556421839027,
,,,C,U,y,n,,,,,,,,,,5,3,103,17,,,,,,,,,,,,,n,1,0.9841007515860838,2226.493203004895,None,,,,,001,91,2019_Nov_04_1100,ACPT_experiment_5_30_19,3.1.0,59.9556421839027,
,,,C,G,g,v,,,,,,,,,,5,4,104,19,,,,,,,,,,,,,v,1,0.750396711483063,2230.7799723562202,None,,,,,001,91,2019_Nov_04_1100,ACPT_experiment_5_30_19,3.1.0,59.9556421839027,
,,,C,D,g,b,,,,,,,,,,5,5,105,1,,,,,,,,,,,,,b,1,1.3177030367410225,2234.8161794292005,None,,,,,001,91,2019_Nov_04_1100,ACPT_experiment_5_30_19,3.1.0,59.9556421839027,
,,,C,D,d,v,,,,,,,,,,5,6,106,0,,,,,,,,,,,,,v,1,1.6509916956974848,2239.4366096253357,None,,,,,001,91,2019_Nov_04_1100,ACPT_experiment_5_30_19,3.1.0,59.9556421839027,
,,,C,D,g,b,,,,,,,,,,5,7,107,10,,,,,,,,,,,,,b,1,1.3844076162567944,2244.3733947787123,None,,,,,001,91,2019_Nov_04_1100,ACPT_experiment_5_30_19,3.1.0,59.9556421839027,
,,,C,D,d,v,,,,,,,,,,5,8,108,9,,,,,,,,,,,,,v,1,2.0179717772643926,2249.0438789916025,None,,,,,001,91,2019_Nov_04_1100,ACPT_experiment_5_30_19,3.1.0,59.9556421839027,
,,,C,G,g,v,,,,,,,,,,5,9,109,13,,,,,,,,,,,,,v,1,0.8506354477294735,2254.347647546939,None,,,,,001,91,2019_Nov_04_1100,ACPT_experiment_5_30_19,3.1.0,59.9556421839027,
,,,C,U,g,n,,,,,,,,,,5,10,110,7,,,,,,,,,,,,,n,1,0.7503052497522731,2258.5010379246214,None,,,,,001,91,2019_Nov_04_1100,ACPT_experiment_5_30_19,3.1.0,59.9556421839027,
,,,C,U,d,n,,,,,,,,,,5,11,111,6,,,,,,,,,,,,,n,1,0.6838623775638553,2262.5371556488485,None,,,,,001,91,2019_Nov_04_1100,ACPT_experiment_5_30_19,3.1.0,59.9556421839027,
,,,C,D,d,v,,,,,,,,,,5,12,112,18,,,,,,,,,,,,,v,1,1.984440035364969,2266.523877699668,None,,,,,001,91,2019_Nov_04_1100,ACPT_experiment_5_30_19,3.1.0,59.9556421839027,
,,,C,U,d,n,,,,,,,,,,5,13,113,15,,,,,,,,,,,,,n,1,0.9006900681920342,2271.7941570745043,None,,,,,001,91,2019_Nov_04_1100,ACPT_experiment_5_30_19,3.1.0,59.9556421839027,
,,,C,D,y,b,,,,,,,,,,5,14,114,2,,,,,,,,,,,,,b,1,1.234042418320314,2275.997583357708,None,,,,,001,91,2019_Nov_04_1100,ACPT_experiment_5_30_19,3.1.0,59.9556421839027,
,,,C,D,y,b,,,,,,,,,,5,15,115,11,,,,,,,,,,,,,b,1,1.0508584573881308,2280.500716450222,None,,,,,001,91,2019_Nov_04_1100,ACPT_experiment_5_30_19,3.1.0,59.9556421839027,
,,,C,G,y,b,,,,,,,,,,5,16,116,14,,,,,,,,,,,,,b,1,1.0670942728961563,2284.8544131492386,None,,,,,001,91,2019_Nov_04_1100,ACPT_experiment_5_30_19,3.1.0,59.9556421839027,
,,,C,G,d,b,,,,,,,,,,5,17,117,3,,,,,,,,,,,,,b,1,1.9348125381657155,2289.1906463929517,None,,,,,001,91,2019_Nov_04_1100,ACPT_experiment_5_30_19,3.1.0,59.9556421839027,
,,,C,G,d,b,,,,,,,,,,5,18,118,12,,,,,,,,,,,,,b,1,2.2517352825852868,2294.3945879407556,None,,,,,001,91,2019_Nov_04_1100,ACPT_experiment_5_30_19,3.1.0,59.9556421839027,
,,,C,G,y,b,,,,,,,,,,5,19,119,5,0,0,0,0,0,0,0,0,,,,,b,1,0.8173110794568856,2299.915412086411,None,,,,,001,91,2019_Nov_04_1100,ACPT_experiment_5_30_19,3.1.0,59.9556421839027,
,,,C,G,y,b,R,U,g,L,u,,,,,5,19,119,5,0,0,0,0,,,,,0,0,0,10,,,,,,up,0.9674118533798719,2356.991945934345,None,001,91,2019_Nov_04_1100,ACPT_experiment_5_30_19,3.1.0,59.9556421839027,
,,,C,G,y,b,R,D,d,L,c,,,,,5,19,119,5,0,0,0,0,,,,,0,1,1,0,,,,,,up,0.9673970625390211,2359.2436483148554,None,001,91,2019_Nov_04_1100,ACPT_experiment_5_30_19,3.1.0,59.9556421839027,
,,,C,G,y,b,R,U,g,R,u,,,,,5,19,119,5,0,0,0,0,,,,,0,2,2,11,,,,,,up,1.0174664738419779,2361.4953512990733,None,001,91,2019_Nov_04_1100,ACPT_experiment_5_30_19,3.1.0,59.9556421839027,
,,,C,G,y,b,L,D,g,L,i,,,,,5,19,119,5,0,0,0,0,,,,,0,3,3,14,,,,,,up,1.067476721782441,2363.7970926036437,None,001,91,2019_Nov_04_1100,ACPT_experiment_5_30_19,3.1.0,59.9556421839027,
,,,C,G,y,b,L,D,d,L,c ,,,,,5,19,119,5,0,0,0,0,,,,,0,4,4,12,,,,,,up,1.2342878255381038,2366.132173671035,None,001,91,2019_Nov_04_1100,ACPT_experiment_5_30_19,3.1.0,59.9556421839027,
,,,C,G,y,b,L,G,g,R,c ,,,,,5,19,119,5,0,0,0,0,,,,,0,5,5,19,,,,,,up,0.9006764847663362,2368.650766210837,None,001,91,2019_Nov_04_1100,ACPT_experiment_5_30_19,3.1.0,59.9556421839027,
,,,C,G,y,b,R,U,y,R,u,,,,,5,19,119,5,0,0,0,0,,,,,0,6,6,31,,,,,,down,1.0341149236264755,2370.8357498246983,None,001,91,2019_Nov_04_1100,ACPT_experiment_5_30_19,3.1.0,59.9556421839027,
,,,C,G,y,b,L,U,g,L,u,,,,,5,19,119,5,0,0,0,0,,,,,0,7,7,22,,,,,,up,0.7005669721729646,2373.1541709718576,None,001,91,2019_Nov_04_1100,ACPT_experiment_5_30_19,3.1.0,59.9556421839027,
,,,C,G,y,b,R,G,g,R,c ,,,,,5,19,119,5,0,0,0,0,,,,,0,8,8,7,,,,,,up,0.6004504867541982,2375.1390073413886,None,001,91,2019_Nov_04_1100,ACPT_experiment_5_30_19,3.1.0,59.9556421839027,
,,,C,G,y,b,R,G,g,L,c ,,,,,5,19,119,5,0,0,0,0,,,,,0,9,9,6,,,,,,down,0.5835288591947574,2377.0240366257444,None,001,91,2019_Nov_04_1100,ACPT_experiment_5_30_19,3.1.0,59.9556421839027,
,,,C,G,y,b,L,D,d,R,c ,,,,,5,19,119,5,0,0,0,0,,,,,0,10,10,13,,,,,,up,0.9173741367353614,2378.891827939657,None,001,91,2019_Nov_04_1100,ACPT_experiment_5_30_19,3.1.0,59.9556421839027,
,,,C,G,y,b,L,U,d,R,u,,,,,5,19,119,5,0,0,0,0,,,,,0,11,11,21,,,,,,up,0.7338699088190879,2381.093527618575,None,001,91,2019_Nov_04_1100,ACPT_experiment_5_30_19,3.1.0,59.9556421839027,
,,,C,G,y,b,R,U,y,L,u,,,,,5,19,119,5,0,0,0,0,,,,,0,12,12,30,,,,,,down,1.0341037550324472,2383.1117173343523,None,001,91,2019_Nov_04_1100,ACPT_experiment_5_30_19,3.1.0,59.9556421839027,
,,,C,G,y,b,R,U,d,R,u,,,,,5,19,119,5,0,0,0,0,,,,,0,13,13,9,,,,,,up,1.0341004346391856,2385.430141500051,None,001,91,2019_Nov_04_1100,ACPT_experiment_5_30_19,3.1.0,59.9556421839027,
,,,C,G,y,b,R,U,d,L,u,,,,,5,19,119,5,0,0,0,0,,,,,0,14,14,8,,,,,,up,0.7171958014537267,2387.7318897472605,None,001,91,2019_Nov_04_1100,ACPT_experiment_5_30_19,3.1.0,59.9556421839027,
,,,C,G,y,b,R,D,d,R,c ,,,,,5,19,119,5,0,0,0,0,,,,,0,15,15,1,,,,,,up,0.6671635181792226,2389.716701666626,None,001,91,2019_Nov_04_1100,ACPT_experiment_5_30_19,3.1.0,59.9556421839027,
,,,C,G,y,b,R,G,y,R,y,,,,,5,19,119,5,0,0,0,0,,,,,0,16,16,29,,,,,,down,0.817318927658107,2391.668175936147,None,001,91,2019_Nov_04_1100,ACPT_experiment_5_30_19,3.1.0,59.9556421839027,
,,,C,G,y,b,L,D,g,R,i,,,,,5,19,119,5,0,0,0,0,,,,,0,17,17,15,,,,,,up,0.7338898311759294,2393.7697675815557,None,001,91,2019_Nov_04_1100,ACPT_experiment_5_30_19,3.1.0,59.9556421839027,
,,,C,G,y,b,R,G,y,L,y,,,,,5,19,119,5,0,0,0,0,,,,,0,18,18,28,,,,,,down,0.8505276858882098,2395.7879621269954,None,001,91,2019_Nov_04_1100,ACPT_experiment_5_30_19,3.1.0,59.9556421839027,
,,,C,G,y,b,L,G,d,L,i,,,,,5,19,119,5,0,0,0,0,,,,,0,19,19,16,,,,,,up,0.7836721794246841,2397.939868590925,None,001,91,2019_Nov_04_1100,ACPT_experiment_5_30_19,3.1.0,59.9556421839027,
,,,C,G,y,b,L,U,y,L,u,,,,,5,19,119,5,0,0,0,0,,,,,0,20,20,24,,,,,,down,0.7005268256048112,2400.007821940009,None,001,91,2019_Nov_04_1100,ACPT_experiment_5_30_19,3.1.0,59.9556421839027,
,,,C,G,y,b,L,G,d,R,i,,,,,5,19,119,5,0,0,0,0,,,,,0,21,21,17,,,,,,up,0.6004918407384139,2401.9926534798774,None,001,91,2019_Nov_04_1100,ACPT_experiment_5_30_19,3.1.0,59.9556421839027,
,,,C,G,y,b,R,G,d,L,i,,,,,5,19,119,5,0,0,0,0,,,,,0,22,22,4,,,,,,up,1.4844432048312228,2403.8774174346586,None,001,91,2019_Nov_04_1100,ACPT_experiment_5_30_19,3.1.0,59.9556421839027,
,,,C,G,y,b,R,D,y,R,y,,,,,5,19,119,5,0,0,0,0,,,,,0,23,23,27,,,,,,down,0.8673180070036324,2406.646175013078,None,001,91,2019_Nov_04_1100,ACPT_experiment_5_30_19,3.1.0,59.9556421839027,
,,,C,G,y,b,R,D,g,R,i,,,,,5,19,119,5,0,0,0,0,,,,,0,24,24,3,,,,,,up,0.7005289385820106,2408.7978025640073,None,001,91,2019_Nov_04_1100,ACPT_experiment_5_30_19,3.1.0,59.9556421839027,
,,,C,G,y,b,R,D,y,L,y,,,,,5,19,119,5,0,0,0,0,,,,,0,25,25,26,,,,,,down,0.750608009210282,2410.782634103876,None,001,91,2019_Nov_04_1100,ACPT_experiment_5_30_19,3.1.0,59.9556421839027,
,,,C,G,y,b,L,U,g,R,u,,,,,5,19,119,5,0,0,0,0,,,,,0,26,26,23,,,,,,up,0.5504070348861205,2412.8175124160052,None,001,91,2019_Nov_04_1100,ACPT_experiment_5_30_19,3.1.0,59.9556421839027,
,,,C,G,y,b,L,G,g,L,c ,,,,,5,19,119,5,0,0,0,0,,,,,0,27,27,18,,,,,,up,0.6838690183499239,2414.6522256744247,None,001,91,2019_Nov_04_1100,ACPT_experiment_5_30_19,3.1.0,59.9556421839027,
,,,C,G,y,b,L,U,d,L,u,,,,,5,19,119,5,0,0,0,0,,,,,0,28,28,20,,,,,,up,0.7672428755690817,2416.620388238444,None,001,91,2019_Nov_04_1100,ACPT_experiment_5_30_19,3.1.0,59.9556421839027,
,,,C,G,y,b,R,D,g,L,i,,,,,5,19,119,5,0,0,0,0,,,,,0,29,29,2,,,,,,up,0.7005280330204187,2418.671939450523,None,001,91,2019_Nov_04_1100,ACPT_experiment_5_30_19,3.1.0,59.9556421839027,
,,,C,G,y,b,R,G,d,R,i,,,,,5,19,119,5,0,0,0,0,,,,,0,30,30,5,,,,,,up,0.8839966421769532,2420.6567878942096,None,001,91,2019_Nov_04_1100,ACPT_experiment_5_30_19,3.1.0,59.9556421839027,
,,,C,G,y,b,L,U,y,R,u,,,,,5,19,119,5,0,0,0,0,,,,,0,31,31,25,,,,,,down,0.9340416033151087,2422.8250753653715,None,001,91,2019_Nov_04_1100,ACPT_experiment_5_30_19,3.1.0,59.9556421839027,
,,,C,G,y,b,L,D,y,L,y,,,,,5,19,119,5,0,0,0,0,,,,,0,32,32,32,,,,,,down,1.0341312237369493,2425.0601063552017,None,001,91,2019_Nov_04_1100,ACPT_experiment_5_30_19,3.1.0,59.9556421839027,
,,,C,G,y,b,L,G,y,L,y,,,,,5,19,119,5,0,0,0,0,,,,,0,33,33,34,,,,,,down,1.4344057900407279,2427.3952100616357,None,001,91,2019_Nov_04_1100,ACPT_experiment_5_30_19,3.1.0,59.9556421839027,
,,,C,G,y,b,L,G,y,R,y,,,,,5,19,119,5,0,0,0,0,,,,,0,34,34,35,,,,,,down,1.5011616847186815,2430.113923584479,None,001,91,2019_Nov_04_1100,ACPT_experiment_5_30_19,3.1.0,59.9556421839027,
,,,C,G,y,b,L,D,y,R,y,,,,,5,19,119,5,0,0,0,0,,,,,0,35,35,33,,,,,,down,0.7839236237200566,2432.8993673444193,None,001,91,2019_Nov_04_1100,ACPT_experiment_5_30_19,3.1.0,59.9556421839027,
,,,C,G,y,b,L,G,d,L,i,,,,,5,19,119,5,0,0,0,0,,,,,1,0,36,16,,,,,,up,0.9173605533101181,2434.9675956824026,None,001,91,2019_Nov_04_1100,ACPT_experiment_5_30_19,3.1.0,59.9556421839027,
,,,C,G,y,b,L,U,y,L,u,,,,,5,19,119,5,0,0,0,0,,,,,1,1,37,24,,,,,,down,0.8339652644649505,2437.1692591388532,None,001,91,2019_Nov_04_1100,ACPT_experiment_5_30_19,3.1.0,59.9556421839027,
,,,C,G,y,b,L,D,d,L,c ,,,,,5,19,119,5,0,0,0,0,,,,,1,2,38,12,,,,,,up,1.0507923513846436,2439.2875342490975,None,001,91,2019_Nov_04_1100,ACPT_experiment_5_30_19,3.1.0,59.9556421839027,
,,,C,G,y,b,L,U,y,R,u,,,,,5,19,119,5,0,0,0,0,,,,,1,3,39,25,,,,,,down,0.7171948958921348,2441.62264791671,None,001,91,2019_Nov_04_1100,ACPT_experiment_5_30_19,3.1.0,59.9556421839027,
,,,C,G,y,b,L,G,d,R,i,,,,,5,19,119,5,0,0,0,0,,,,,1,4,40,17,,,,,,up,0.8339682830037418,2443.6241469231577,None,001,91,2019_Nov_04_1100,ACPT_experiment_5_30_19,3.1.0,59.9556421839027,
,,,C,G,y,b,R,D,g,L,i,,,,,5,19,119,5,0,0,0,0,,,,,1,5,41,2,,,,,,up,0.8339634533413118,2445.7424156944708,None,001,91,2019_Nov_04_1100,ACPT_experiment_5_30_19,3.1.0,59.9556421839027,
,,,C,G,y,b,L,G,y,L,y,,,,,5,19,119,5,0,0,0,0,,,,,1,6,42,34,,,,,,down,0.6838663016651481,2447.860682050952,None,001,91,2019_Nov_04_1100,ACPT_experiment_5_30_19,3.1.0,59.9556421839027,
,,,C,G,y,b,R,U,y,L,u,,,,,5,19,119,5,0,0,0,0,,,,,1,7,43,30,,,,,,down,0.9340482441011773,2449.8288358612085,None,001,91,2019_Nov_04_1100,ACPT_experiment_5_30_19,3.1.0,59.9556421839027,
,,,C,G,y,b,L,D,d,R,c ,,,,,5,19,119,5,0,0,0,0,,,,,1,8,44,13,,,,,,up,1.0508137830111082,2452.0471848954726,None,001,91,2019_Nov_04_1100,ACPT_experiment_5_30_19,3.1.0,59.9556421839027,
,,,C,G,y,b,R,U,g,L,u,,,,,5,19,119,5,0,0,0,0,,,,,1,9,45,10,,,,,,up,0.8840035848170373,2454.382286187075,None,001,91,2019_Nov_04_1100,ACPT_experiment_5_30_19,3.1.0,59.9556421839027,
,,,C,G,y,b,R,D,d,L,c,,,,,5,19,119,5,0,0,0,0,,,,,1,10,46,0,,,,,,up,0.8840038866710529,2456.550590863909,None,001,91,2019_Nov_04_1100,ACPT_experiment_5_30_19,3.1.0,59.9556421839027,
,,,C,G,y,b,L,G,g,L,c ,,,,,5,19,119,5,0,0,0,0,,,,,1,11,47,18,,,,,,up,0.5670938201146782,2458.7188964463044,None,001,91,2019_Nov_04_1100,ACPT_experiment_5_30_19,3.1.0,59.9556421839027,
,,,C,G,y,b,R,G,d,L,i,,,,,5,19,119,5,0,0,0,0,,,,,1,12,48,4,,,,,,up,1.034126695928535,2460.5702979992216,None,001,91,2019_Nov_04_1100,ACPT_experiment_5_30_19,3.1.0,59.9556421839027,
,,,C,G,y,b,R,U,y,R,u,,,,,5,19,119,5,0,0,0,0,,,,,1,13,49,31,,,,,,down,1.0507630715565028,2462.905420118743,None,001,91,2019_Nov_04_1100,ACPT_experiment_5_30_19,3.1.0,59.9556421839027,
,,,C,G,y,b,L,D,y,R,y,,,,,5,19,119,5,0,0,0,0,,,,,1,14,50,33,,,,,,down,0.833975527496932,2465.25718072687,None,001,91,2019_Nov_04_1100,ACPT_experiment_5_30_19,3.1.0,59.9556421839027,
,,,C,G,y,b,R,G,g,R,c ,,,,,5,19,119,5,0,0,0,0,,,,,1,15,51,7,,,,,,up,0.8173113813109012,2467.3754446685207,None,001,91,2019_Nov_04_1100,ACPT_experiment_5_30_19,3.1.0,59.9556421839027,
,,,C,G,y,b,L,U,g,L,u,,,,,5,19,119,5,0,0,0,0,,,,,1,16,52,22,,,,,,up,0.6671656311568768,2469.477036012075,None,001,91,2019_Nov_04_1100,ACPT_experiment_5_30_19,3.1.0,59.9556421839027,
,,,C,G,y,b,L,U,d,R,u,,,,,5,19,119,5,0,0,0,0,,,,,1,17,53,21,,,,,,up,0.6671955146925939,2471.411805686988,None,001,91,2019_Nov_04_1100,ACPT_experiment_5_30_19,3.1.0,59.9556421839027,
,,,C,G,y,b,L,U,g,R,u,,,,,5,19,119,5,0,0,0,0,,,,,1,18,54,23,,,,,,up,0.5670908015758869,2473.3466272807705,None,001,91,2019_Nov_04_1100,ACPT_experiment_5_30_19,3.1.0,59.9556421839027,
,,,C,G,y,b,L,U,d,L,u,,,,,5,19,119,5,0,0,0,0,,,,,1,19,55,20,,,,,,up,0.617152364678077,2475.1813269557642,None,001,91,2019_Nov_04_1100,ACPT_experiment_5_30_19,3.1.0,59.9556421839027,
,,,C,G,y,b,R,D,d,R,c ,,,,,5,19,119,5,0,0,0,0,,,,,1,20,56,1,,,,,,up,0.5170551979090305,2477.0661075125095,None,001,91,2019_Nov_04_1100,ACPT_experiment_5_30_19,3.1.0,59.9556421839027,
,,,C,G,y,b,L,D,g,L,i,,,,,5,19,119,5,0,0,0,0,,,,,1,21,57,14,,,,,,up,0.5837724552889085,2478.8674716506366,None,001,91,2019_Nov_04_1100,ACPT_experiment_5_30_19,3.1.0,59.9556421839027,
,,,C,G,y,b,R,U,d,L,u,,,,,5,19,119,5,0,0,0,0,,,,,1,22,58,8,,,,,,up,0.5671022720239307,2480.735557272098,None,001,91,2019_Nov_04_1100,ACPT_experiment_5_30_19,3.1.0,59.9556421839027,
,,,C,G,y,b,L,D,y,L,y,,,,,5,19,119,5,0,0,0,0,,,,,1,23,59,32,,,,,,down,0.7334464078026031,2482.604042246264,None,001,91,2019_Nov_04_1100,ACPT_experiment_5_30_19,3.1.0,59.9556421839027,
,,,C,G,y,b,R,D,g,R,i,,,,,5,19,119,5,0,0,0,0,,,,,1,24,60,3,,,,,,up,0.8840011699858223,2484.6218226481583,None,001,91,2019_Nov_04_1100,ACPT_experiment_5_30_19,3.1.0,59.9556421839027,
,,,C,G,y,b,R,G,y,L,y,,,,,5,19,119,5,0,0,0,0,,,,,1,25,61,28,,,,,,down,0.7505624292716675,2486.790133663924,None,001,91,2019_Nov_04_1100,ACPT_experiment_5_30_19,3.1.0,59.9556421839027,
,,,C,G,y,b,R,G,d,R,i,,,,,5,19,119,5,0,0,0,0,,,,,1,26,62,5,,,,,,up,0.5504200146037874,2488.825000505605,None,001,91,2019_Nov_04_1100,ACPT_experiment_5_30_19,3.1.0,59.9556421839027,
,,,C,G,y,b,R,D,y,L,y,,,,,5,19,119,5,0,0,0,0,,,,,1,27,63,26,,,,,,down,0.7670768559260068,2490.67656143738,None,001,91,2019_Nov_04_1100,ACPT_experiment_5_30_19,3.1.0,59.9556421839027,
,,,C,G,y,b,L,G,g,R,c ,,,,,5,19,119,5,0,0,0,0,,,,,1,28,64,19,,,,,,up,0.6671665367184687,2492.744633415045,None,001,91,2019_Nov_04_1100,ACPT_experiment_5_30_19,3.1.0,59.9556421839027,
,,,C,G,y,b,L,G,y,R,y,,,,,5,19,119,5,0,0,0,0,,,,,1,29,65,35,,,,,,down,1.0174773405824453,2494.6961013456344,None,001,91,2019_Nov_04_1100,ACPT_experiment_5_30_19,3.1.0,59.9556421839027,
,,,C,G,y,b,R,U,d,R,u,,,,,5,19,119,5,0,0,0,0,,,,,1,30,66,9,,,,,,up,0.7839073236095828,2497.014537283635,None,001,91,2019_Nov_04_1100,ACPT_experiment_5_30_19,3.1.0,59.9556421839027,
,,,C,G,y,b,R,U,g,R,u,,,,,5,19,119,5,0,0,0,0,,,,,1,31,67,11,,,,,,up,1.1175331533681856,2499.0660613288633,None,001,91,2019_Nov_04_1100,ACPT_experiment_5_30_19,3.1.0,59.9556421839027,
,,,C,G,y,b,L,D,g,R,i,,,,,5,19,119,5,0,0,0,0,,,,,1,32,68,15,,,,,,up,0.7005579165561358,2501.467898894641,None,001,91,2019_Nov_04_1100,ACPT_experiment_5_30_19,3.1.0,59.9556421839027,
,,,C,G,y,b,R,G,y,R,y,,,,,5,19,119,5,0,0,0,0,,,,,1,33,69,29,,,,,,down,0.7505624292716675,2503.4527358678797,None,001,91,2019_Nov_04_1100,ACPT_experiment_5_30_19,3.1.0,59.9556421839027,
,,,C,G,y,b,R,D,y,R,y,,,,,5,19,119,5,0,0,0,0,,,,,1,34,70,27,,,,,,down,0.7672117846177571,2505.487625952311,None,001,91,2019_Nov_04_1100,ACPT_experiment_5_30_19,3.1.0,59.9556421839027,
,,,C,G,y,b,R,G,g,L,c ,,,,,5,19,119,5,0,0,0,0,,,,,1,35,71,6,,,,,,up,0.7338883219063064,2507.539155732764,None,001,91,2019_Nov_04_1100,ACPT_experiment_5_30_19,3.1.0,59.9556421839027,
,,,C,G,y,b,,,,,,,,,,5,19,119,5,1,0,1,0,0,0,0,0,,,,,,,,,,,,,,001,91,2019_Nov_04_1100,ACPT_experiment_5_30_19,3.1.0,59.9556421839027,
,,,C,G,y,b,L,D,y,R,y,,,,,5,19,119,5,1,0,1,0,,,,,0,0,0,33,,,,,,down,0.7503879577197949,2527.6878987678624,None,001,91,2019_Nov_04_1100,ACPT_experiment_5_30_19,3.1.0,59.9556421839027,
,,,C,G,y,b,R,G,g,R,c ,,,,,5,19,119,5,1,0,1,0,,,,,0,1,1,7,,,,,,up,0.6338053422705343,2529.739291506646,None,001,91,2019_Nov_04_1100,ACPT_experiment_5_30_19,3.1.0,59.9556421839027,
,,,C,G,y,b,L,G,g,L,c ,,,,,5,19,119,5,1,0,1,0,,,,,0,2,2,18,,,,,,up,0.5838159222494141,2531.65740307245,None,001,91,2019_Nov_04_1100,ACPT_experiment_5_30_19,3.1.0,59.9556421839027,
,,,C,G,y,b,L,G,d,R,i,,,,,5,19,119,5,1,0,1,0,,,,,0,3,3,17,,,,,,up,0.583764908941248,2533.525483864249,None,001,91,2019_Nov_04_1100,ACPT_experiment_5_30_19,3.1.0,59.9556421839027,
,,,C,G,y,b,R,D,y,L,y,,,,,5,19,119,5,1,0,1,0,,,,,0,4,4,26,,,,,,down,0.6338095682249332,2535.3935580152624,None,001,91,2019_Nov_04_1100,ACPT_experiment_5_30_19,3.1.0,59.9556421839027,
,,,C,G,y,b,L,U,y,L,u,,,,,5,19,119,5,1,0,1,0,,,,,0,5,5,24,,,,,,down,0.6171318386132043,2537.3116786366827,None,001,91,2019_Nov_04_1100,ACPT_experiment_5_30_19,3.1.0,59.9556421839027,
,,,C,G,y,b,L,U,g,R,u,,,,,5,19,119,5,1,0,1,0,,,,,0,6,6,23,,,,,,up,0.7505470347232404,2539.213137526748,None,001,91,2019_Nov_04_1100,ACPT_experiment_5_30_19,3.1.0,59.9556421839027,
,,,C,G,y,b,L,U,g,L,u,,,,,5,19,119,5,1,0,1,0,,,,,0,7,7,22,,,,,,up,0.7338394215753397,2541.231286794103,None,001,91,2019_Nov_04_1100,ACPT_experiment_5_30_19,3.1.0,59.9556421839027,
,,,C,G,y,b,R,U,y,L,u,,,,,5,19,119,5,1,0,1,0,,,,,0,8,8,30,,,,,,down,1.517813454895986,2543.24950669527,None,001,91,2019_Nov_04_1100,ACPT_experiment_5_30_19,3.1.0,59.9556421839027,
,,,C,G,y,b,L,U,d,L,u,,,,,5,19,119,5,1,0,1,0,,,,,0,9,9,20,,,,,,up,0.8506345421674268,2546.0516321089235,None,001,91,2019_Nov_04_1100,ACPT_experiment_5_30_19,3.1.0,59.9556421839027,
,,,C,G,y,b,R,D,g,R,i,,,,,5,19,119,5,1,0,1,0,,,,,0,10,10,3,,,,,,down,0.9007851521691919,2548.1865746857475,None,001,91,2019_Nov_04_1100,ACPT_experiment_5_30_19,3.1.0,59.9556421839027,
,,,C,G,y,b,R,D,d,L,c,,,,,5,19,119,5,1,0,1,0,,,,,0,11,11,0,,,,,,up,0.6338107756409954,2550.3715589033163,None,001,91,2019_Nov_04_1100,ACPT_experiment_5_30_19,3.1.0,59.9556421839027,
,,,C,G,y,b,L,G,y,L,y,,,,,5,19,119,5,1,0,1,0,,,,,0,12,12,34,,,,,,down,1.351040988438399,2552.2896547727178,None,001,91,2019_Nov_04_1100,ACPT_experiment_5_30_19,3.1.0,59.9556421839027,
,,,C,G,y,b,R,G,d,L,i,,,,,5,19,119,5,1,0,1,0,,,,,0,13,13,4,,,,,,up,0.6838445681842131,2554.9250050032283,None,001,91,2019_Nov_04_1100,ACPT_experiment_5_30_19,3.1.0,59.9556421839027,
,,,C,G,y,b,R,D,y,R,y,,,,,5,19,119,5,1,0,1,0,,,,,0,14,14,27,,,,,,down,0.7839254348432405,2556.8931588134847,None,001,91,2019_Nov_04_1100,ACPT_experiment_5_30_19,3.1.0,59.9556421839027,
,,,C,G,y,b,L,D,g,L,i,,,,,5,19,119,5,1,0,1,0,,,,,0,15,15,14,,,,,,up,0.7506466465092672,2558.961389868153,None,001,91,2019_Nov_04_1100,ACPT_experiment_5_30_19,3.1.0,59.9556421839027,
,,,C,G,y,b,L,G,d,L,i,,,,,5,19,119,5,1,0,1,0,,,,,0,16,16,16,,,,,,up,0.9507477071933863,2560.9962627469126,None,001,91,2019_Nov_04_1100,ACPT_experiment_5_30_19,3.1.0,59.9556421839027,
,,,C,G,y,b,R,G,y,R,y,,,,,5,19,119,5,1,0,1,0,,,,,0,17,17,29,,,,,,down,0.6838518126783129,2563.231284379272,None,001,91,2019_Nov_04_1100,ACPT_experiment_5_30_19,3.1.0,59.9556421839027,
,,,C,G,y,b,R,U,d,R,u,,,,,5,19,119,5,1,0,1,0,,,,,0,18,18,9,,,,,,up,1.1508629550107798,2565.1994430191908,None,001,91,2019_Nov_04_1100,ACPT_experiment_5_30_19,3.1.0,59.9556421839027,
,,,C,G,y,b,L,D,d,L,c ,,,,,5,19,119,5,1,0,1,0,,,,,0,19,19,12,,,,,,up,0.6171104069862849,2567.6346342330694,None,001,91,2019_Nov_04_1100,ACPT_experiment_5_30_19,3.1.0,59.9556421839027,
,,,C,G,y,b,R,D,g,L,i,,,,,5,19,119,5,1,0,1,0,,,,,0,20,20,2,,,,,,up,0.884000566278246,2569.5360605229134,None,001,91,2019_Nov_04_1100,ACPT_experiment_5_30_19,3.1.0,59.9556421839027,
,,,C,G,y,b,L,G,y,R,y,,,,,5,19,119,5,1,0,1,0,,,,,0,21,21,35,,,,,,down,0.6838678109343164,2571.704360671939,None,001,91,2019_Nov_04_1100,ACPT_experiment_5_30_19,3.1.0,59.9556421839027,
,,,C,G,y,b,R,U,d,L,u,,,,,5,19,119,5,1,0,1,0,,,,,0,22,22,8,,,,,,up,0.68385271823945,2573.672518104442,None,001,91,2019_Nov_04_1100,ACPT_experiment_5_30_19,3.1.0,59.9556421839027,
,,,C,G,y,b,L,D,d,R,c ,,,,,5,19,119,5,1,0,1,0,,,,,0,23,23,13,,,,,,up,2.1516299657605487,2575.6239975054796,None,001,91,2019_Nov_04_1100,ACPT_experiment_5_30_19,3.1.0,59.9556421839027,
,,,C,G,y,b,R,G,d,R,i,,,,,5,19,119,5,1,0,1,0,,,,,0,24,24,5,,,,,,up,0.767251629331895,2579.059922828033,None,001,91,2019_Nov_04_1100,ACPT_experiment_5_30_19,3.1.0,59.9556421839027,
,,,C,G,y,b,R,D,d,R,c ,,,,,5,19,119,5,1,0,1,0,,,,,0,25,25,1,,,,,,up,0.6838578497558956,2581.111479473482,None,001,91,2019_Nov_04_1100,ACPT_experiment_5_30_19,3.1.0,59.9556421839027,
,,,C,G,y,b,L,G,g,R,c ,,,,,5,19,119,5,1,0,1,0,,,,,0,26,26,19,,,,,,up,0.6504912219375001,2583.079635396716,None,001,91,2019_Nov_04_1100,ACPT_experiment_5_30_19,3.1.0,59.9556421839027,
,,,C,G,y,b,L,D,y,L,y,,,,,5,19,119,5,1,0,1,0,,,,,0,27,27,32,,,,,,down,0.8337147257307151,2585.0313592994094,None,001,91,2019_Nov_04_1100,ACPT_experiment_5_30_19,3.1.0,59.9556421839027,
,,,C,G,y,b,L,D,g,R,i,,,,,5,19,119,5,1,0,1,0,,,,,0,28,28,15,,,,,,up,0.6504761292430885,2587.1327076505777,None,001,91,2019_Nov_04_1100,ACPT_experiment_5_30_19,3.1.0,59.9556421839027,
,,,C,G,y,b,L,U,d,R,u,,,,,5,19,119,5,1,0,1,0,,,,,0,29,29,21,,,,,,up,0.7171961033077423,2589.067509020149,None,001,91,2019_Nov_04_1100,ACPT_experiment_5_30_19,3.1.0,59.9556421839027,
,,,C,G,y,b,R,U,y,R,u,,,,,5,19,119,5,1,0,1,0,,,,,0,30,30,31,,,,,,down,0.7005256181892037,2591.069012856259,None,001,91,2019_Nov_04_1100,ACPT_experiment_5_30_19,3.1.0,59.9556421839027,
,,,C,G,y,b,R,U,g,L,u,,,,,5,19,119,5,1,0,1,0,,,,,0,31,31,10,,,,,,up,0.7505669570800819,2593.0538449998353,None,001,91,2019_Nov_04_1100,ACPT_experiment_5_30_19,3.1.0,59.9556421839027,
,,,C,G,y,b,R,G,g,L,c ,,,,,5,19,119,5,1,0,1,0,,,,,0,32,32,6,,,,,,up,0.6171315367591887,2595.0887184823027,None,001,91,2019_Nov_04_1100,ACPT_experiment_5_30_19,3.1.0,59.9556421839027,
,,,C,G,y,b,R,U,g,R,u,,,,,5,19,119,5,1,0,1,0,,,,,0,33,33,11,,,,,,up,0.7172090830254092,2596.9901544314716,None,001,91,2019_Nov_04_1100,ACPT_experiment_5_30_19,3.1.0,59.9556421839027,
,,,C,G,y,b,R,G,y,L,y,,,,,5,19,119,5,1,0,1,0,,,,,0,34,34,28,,,,,,down,0.7839532054017582,2598.99166430466,None,001,91,2019_Nov_04_1100,ACPT_experiment_5_30_19,3.1.0,59.9556421839027,
,,,C,G,y,b,L,U,y,R,u,,,,,5,19,119,5,1,0,1,0,,,,,0,35,35,25,,,,,,down,0.6171245941195593,2601.059902301968,None,001,91,2019_Nov_04_1100,ACPT_experiment_5_30_19,3.1.0,59.9556421839027,
,,,C,G,y,b,R,G,g,L,c ,,,,,5,19,119,5,1,0,1,0,,,,,1,0,36,6,,,,,,up,0.6671964202541858,2602.9613388548446,None,001,91,2019_Nov_04_1100,ACPT_experiment_5_30_19,3.1.0,59.9556421839027,
,,,C,G,y,b,L,D,d,R,c ,,,,,5,19,119,5,1,0,1,0,,,,,1,1,37,13,,,,,,up,0.8172748569891155,2604.9128194632976,None,001,91,2019_Nov_04_1100,ACPT_experiment_5_30_19,3.1.0,59.9556421839027,
,,,C,G,y,b,L,U,g,R,u,,,,,5,19,119,5,1,0,1,0,,,,,1,2,38,23,,,,,,up,1.0341342422757407,2607.0143836400016,None,001,91,2019_Nov_04_1100,ACPT_experiment_5_30_19,3.1.0,59.9556421839027,
,,,C,G,y,b,L,D,g,L,i,,,,,5,19,119,5,1,0,1,0,,,,,1,3,39,14,,,,,,up,0.600466786864672,2609.3328244076647,None,001,91,2019_Nov_04_1100,ACPT_experiment_5_30_19,3.1.0,59.9556421839027,
,,,C,G,y,b,R,U,g,R,u,,,,,5,19,119,5,1,0,1,0,,,,,1,4,40,11,,,,,,up,1.5345174457970643,2611.2175826272214,None,001,91,2019_Nov_04_1100,ACPT_experiment_5_30_19,3.1.0,59.9556421839027,
,,,C,G,y,b,R,D,d,L,c,,,,,5,19,119,5,1,0,1,0,,,,,1,5,41,0,,,,,,up,1.4010699513200962,2614.0363821482397,None,001,91,2019_Nov_04_1100,ACPT_experiment_5_30_19,3.1.0,59.9556421839027,
,,,C,G,y,b,L,G,y,L,y,,,,,5,19,119,5,1,0,1,0,,,,,1,6,42,34,,,,,,down,0.9173533088164731,2616.7217507767455,None,001,91,2019_Nov_04_1100,ACPT_experiment_5_30_19,3.1.0,59.9556421839027,
,,,C,G,y,b,L,G,d,R,i,,,,,5,19,119,5,1,0,1,0,,,,,1,7,43,17,,,,,,up,1.1175077976404282,2618.923411516511,None,001,91,2019_Nov_04_1100,ACPT_experiment_5_30_19,3.1.0,59.9556421839027,
,,,C,G,y,b,R,G,d,R,i,,,,,5,19,119,5,1,0,1,0,,,,,1,8,44,5,,,,,,up,0.6504912219375001,2621.3252297636395,None,001,91,2019_Nov_04_1100,ACPT_experiment_5_30_19,3.1.0,59.9556421839027,
,,,C,G,y,b,R,U,y,L,u,,,,,5,19,119,5,1,0,1,0,,,,,1,9,45,30,,,,,,down,1.0007718404121988,2623.2600250961327,None,001,91,2019_Nov_04_1100,ACPT_experiment_5_30_19,3.1.0,59.9556421839027,
,,,C,G,y,b,R,D,g,L,i,,,,,5,19,119,5,1,0,1,0,,,,,1,10,46,2,,,,,,up,0.8506414848070563,2625.545087161822,None,001,91,2019_Nov_04_1100,ACPT_experiment_5_30_19,3.1.0,59.9556421839027,
,,,C,G,y,b,L,U,d,R,u,,,,,5,19,119,5,1,0,1,0,,,,,1,11,47,21,,,,,,up,0.9006840311139968,2627.6800309460614,None,001,91,2019_Nov_04_1100,ACPT_experiment_5_30_19,3.1.0,59.9556421839027,
,,,C,G,y,b,L,G,y,R,y,,,,,5,19,119,5,1,0,1,0,,,,,1,12,48,35,,,,,,down,1.000753729178541,2629.881703458129,None,001,91,2019_Nov_04_1100,ACPT_experiment_5_30_19,3.1.0,59.9556421839027,
,,,C,G,y,b,L,U,d,L,u,,,,,5,19,119,5,1,0,1,0,,,,,1,13,49,20,,,,,,up,0.7172054607785867,2632.183447479384,None,001,91,2019_Nov_04_1100,ACPT_experiment_5_30_19,3.1.0,59.9556421839027,
,,,C,G,y,b,R,D,d,R,c ,,,,,5,19,119,5,1,0,1,0,,,,,1,14,50,1,,,,,,up,0.9004304738409701,2634.2019097692296,None,001,91,2019_Nov_04_1100,ACPT_experiment_5_30_19,3.1.0,59.9556421839027,
,,,C,G,y,b,R,G,d,L,i,,,,,5,19,119,5,1,0,1,0,,,,,1,15,51,4,,,,,,up,1.167560606979805,2636.386622318292,None,001,91,2019_Nov_04_1100,ACPT_experiment_5_30_19,3.1.0,59.9556421839027,
,,,C,G,y,b,R,G,y,R,y,,,,,5,19,119,5,1,0,1,0,,,,,1,16,52,29,,,,,,down,0.617164438834152,2638.8217700652094,None,001,91,2019_Nov_04_1100,ACPT_experiment_5_30_19,3.1.0,59.9556421839027,
,,,C,G,y,b,L,U,y,R,u,,,,,5,19,119,5,1,0,1,0,,,,,1,17,53,25,,,,,,down,0.6002207759397606,2640.7401566199123,None,001,91,2019_Nov_04_1100,ACPT_experiment_5_30_19,3.1.0,59.9556421839027,
,,,C,G,y,b,R,U,d,L,u,,,,,5,19,119,5,1,0,1,0,,,,,1,18,54,8,,,,,,up,0.6004571275402668,2642.6246730544985,None,001,91,2019_Nov_04_1100,ACPT_experiment_5_30_19,3.1.0,59.9556421839027,
,,,C,G,y,b,L,D,g,R,i,,,,,5,19,119,5,1,0,1,0,,,,,1,19,55,15,,,,,,up,0.5004043332937727,2644.509407729452,None,001,91,2019_Nov_04_1100,ACPT_experiment_5_30_19,3.1.0,59.9556421839027,
,,,C,G,y,b,L,D,d,L,c ,,,,,5,19,119,5,1,0,1,0,,,,,1,20,56,12,,,,,,up,0.6338002107540888,2646.277451423407,None,001,91,2019_Nov_04_1100,ACPT_experiment_5_30_19,3.1.0,59.9556421839027,
,,,C,G,y,b,L,G,d,L,i,,,,,5,19,119,5,1,0,1,0,,,,,1,21,57,16,,,,,,up,0.6835771256323824,2648.2125012187353,None,001,91,2019_Nov_04_1100,ACPT_experiment_5_30_19,3.1.0,59.9556421839027,
,,,C,G,y,b,L,D,y,R,y,,,,,5,19,119,5,1,0,1,0,,,,,1,22,58,33,,,,,,down,0.7672446866922655,2650.180389699417,None,001,91,2019_Nov_04_1100,ACPT_experiment_5_30_19,3.1.0,59.9556421839027,
,,,C,G,y,b,L,D,y,L,y,,,,,5,19,119,5,1,0,1,0,,,,,1,23,59,32,,,,,,down,0.767040935312707,2652.2487888867054,None,001,91,2019_Nov_04_1100,ACPT_experiment_5_30_19,3.1.0,59.9556421839027,
,,,C,G,y,b,L,G,g,R,c ,,,,,5,19,119,5,1,0,1,0,,,,,1,24,60,19,,,,,,up,0.7005413145916464,2654.316844866114,None,001,91,2019_Nov_04_1100,ACPT_experiment_5_30_19,3.1.0,59.9556421839027,
,,,C,G,y,b,L,U,y,L,u,,,,,5,19,119,5,1,0,1,0,,,,,1,25,61,24,,,,,,down,1.184220225358331,2656.3183668134584,None,001,91,2019_Nov_04_1100,ACPT_experiment_5_30_19,3.1.0,59.9556421839027,
,,,C,G,y,b,R,U,g,L,u,,,,,5,19,119,5,1,0,1,0,,,,,1,26,62,10,,,,,,up,1.20098700186918,2658.8035788401626,None,001,91,2019_Nov_04_1100,ACPT_experiment_5_30_19,3.1.0,59.9556421839027,
,,,C,G,y,b,R,U,y,R,u,,,,,5,19,119,5,1,0,1,0,,,,,1,27,63,31,,,,,,down,0.8840935372777494,2661.272090196359,None,001,91,2019_Nov_04_1100,ACPT_experiment_5_30_19,3.1.0,59.9556421839027,
,,,C,G,y,b,R,D,g,R,i,,,,,5,19,119,5,1,0,1,0,,,,,1,28,64,3,,,,,,up,0.9840802255207564,2663.4404163048193,None,001,91,2019_Nov_04_1100,ACPT_experiment_5_30_19,3.1.0,59.9556421839027,
,,,C,G,y,b,R,U,d,R,u,,,,,5,19,119,5,1,0,1,0,,,,,1,29,65,9,,,,,,up,0.9006828236979345,2665.7088006408962,None,001,91,2019_Nov_04_1100,ACPT_experiment_5_30_19,3.1.0,59.9556421839027,
,,,C,G,y,b,R,G,g,R,c ,,,,,5,19,119,5,1,0,1,0,,,,,1,30,66,7,,,,,,up,0.533733229374775,2667.8937914992507,None,001,91,2019_Nov_04_1100,ACPT_experiment_5_30_19,3.1.0,59.9556421839027,
,,,C,G,y,b,R,D,y,R,y,,,,,5,19,119,5,1,0,1,0,,,,,1,31,67,27,,,,,,down,0.7172274961130825,2669.728511398456,None,001,91,2019_Nov_04_1100,ACPT_experiment_5_30_19,3.1.0,59.9556421839027,
,,,C,G,y,b,L,G,g,L,c ,,,,,5,19,119,5,1,0,1,0,,,,,1,32,68,18,,,,,,up,0.5837745682656532,2671.7466944734474,None,001,91,2019_Nov_04_1100,ACPT_experiment_5_30_19,3.1.0,59.9556421839027,
,,,C,G,y,b,L,U,g,L,u,,,,,5,19,119,5,1,0,1,0,,,,,1,33,69,22,,,,,,up,0.6338153034494098,2673.614774963393,None,001,91,2019_Nov_04_1100,ACPT_experiment_5_30_19,3.1.0,59.9556421839027,
,,,C,G,y,b,R,D,y,L,y,,,,,5,19,119,5,1,0,1,0,,,,,1,34,70,26,,,,,,down,0.6671632163256618,2675.549576332964,None,001,91,2019_Nov_04_1100,ACPT_experiment_5_30_19,3.1.0,59.9556421839027,
,,,C,G,y,b,R,G,y,L,y,,,,,5,19,119,5,1,0,1,0,,,,,1,35,71,28,,,,,,down,0.6171070865939328,2677.5344323229983,None,001,91,2019_Nov_04_1100,ACPT_experiment_5_30_19,3.1.0,59.9556421839027,
,,,C,G,y,b,,,,,,,,,,5,19,119,5,2,0,2,0,0,0,0,0,,,,,,,,,,,,,,001,91,2019_Nov_04_1100,ACPT_experiment_5_30_19,3.1.0,59.9556421839027,
,,,C,G,y,b,R,D,g,R,i,,,,,5,19,119,5,2,0,2,0,,,,,0,0,0,3,,,,,,up,0.7836812350410582,2684.3731620493586,None,001,91,2019_Nov_04_1100,ACPT_experiment_5_30_19,3.1.0,59.9556421839027,
,,,C,G,y,b,R,U,d,R,u,,,,,5,19,119,5,2,0,2,0,,,,,0,1,1,9,,,,,,up,0.5504314850518313,2686.44115162091,None,001,91,2019_Nov_04_1100,ACPT_experiment_5_30_19,3.1.0,59.9556421839027,
,,,C,G,y,b,L,G,y,R,y,,,,,5,19,119,5,2,0,2,0,,,,,0,2,2,35,,,,,,down,1.0174770387288845,2688.292548646019,None,001,91,2019_Nov_04_1100,ACPT_experiment_5_30_19,3.1.0,59.9556421839027,
,,,C,G,y,b,L,G,g,R,c ,,,,,5,19,119,5,2,0,2,0,,,,,0,3,3,19,,,,,,up,0.5337320219591675,2690.610970095033,None,001,91,2019_Nov_04_1100,ACPT_experiment_5_30_19,3.1.0,59.9556421839027,
,,,C,G,y,b,L,G,y,L,y,,,,,5,19,119,5,2,0,2,0,,,,,0,4,4,34,,,,,,down,0.7472326789443287,2692.4490245742277,None,001,91,2019_Nov_04_1100,ACPT_experiment_5_30_19,3.1.0,59.9556421839027,
,,,C,G,y,b,L,U,y,R,u,,,,,5,19,119,5,2,0,2,0,,,,,0,5,5,25,,,,,,down,0.8506571812099537,2694.4972445267094,None,001,91,2019_Nov_04_1100,ACPT_experiment_5_30_19,3.1.0,59.9556421839027,
,,,C,G,y,b,R,D,g,L,i,,,,,5,19,119,5,2,0,2,0,,,,,0,6,6,2,,,,,,up,0.5003871276217069,2696.6488500423047,None,001,91,2019_Nov_04_1100,ACPT_experiment_5_30_19,3.1.0,59.9556421839027,
,,,C,G,y,b,R,G,d,L,i,,,,,5,19,119,5,2,0,2,0,,,,,0,7,7,4,,,,,,up,0.6004441478225999,2698.4335575805926,None,001,91,2019_Nov_04_1100,ACPT_experiment_5_30_19,3.1.0,59.9556421839027,
,,,C,G,y,b,L,U,d,L,u,,,,,5,19,119,5,2,0,2,0,,,,,0,8,8,20,,,,,,up,0.5671007627547624,2700.3183167057114,None,001,91,2019_Nov_04_1100,ACPT_experiment_5_30_19,3.1.0,59.9556421839027,
,,,C,G,y,b,L,G,d,L,i,,,,,5,19,119,5,2,0,2,0,,,,,0,9,9,16,,,,,,up,0.5337534535860868,2702.16971524009,None,001,91,2019_Nov_04_1100,ACPT_experiment_5_30_19,3.1.0,59.9556421839027,
,,,C,G,y,b,R,G,d,R,i,,,,,5,19,119,5,2,0,2,0,,,,,0,10,10,5,,,,,,up,0.533772772235352,2703.9710721337237,None,001,91,2019_Nov_04_1100,ACPT_experiment_5_30_19,3.1.0,59.9556421839027,
,,,C,G,y,b,R,D,d,L,c,,,,,5,19,119,5,2,0,2,0,,,,,0,11,11,0,,,,,,up,0.9337874423345056,2705.8060742663215,None,001,91,2019_Nov_04_1100,ACPT_experiment_5_30_19,3.1.0,59.9556421839027,
,,,C,G,y,b,L,U,g,L,u,,,,,5,19,119,5,2,0,2,0,,,,,0,12,12,22,,,,,,up,0.6504900145223473,2708.0241425764616,None,001,91,2019_Nov_04_1100,ACPT_experiment_5_30_19,3.1.0,59.9556421839027,
,,,C,G,y,b,R,G,g,R,c ,,,,,5,19,119,5,2,0,2,0,,,,,0,13,13,7,,,,,,up,0.6671767997513598,2709.9422541422655,None,001,91,2019_Nov_04_1100,ACPT_experiment_5_30_19,3.1.0,59.9556421839027,
,,,C,G,y,b,L,G,g,L,c ,,,,,5,19,119,5,2,0,2,0,,,,,0,14,14,18,,,,,,up,0.8339688867117729,2711.877055209983,None,001,91,2019_Nov_04_1100,ACPT_experiment_5_30_19,3.1.0,59.9556421839027,
,,,C,G,y,b,L,G,d,R,i,,,,,5,19,119,5,2,0,2,0,,,,,0,15,15,17,,,,,,up,0.7338780588743248,2713.9953333387666,None,001,91,2019_Nov_04_1100,ACPT_experiment_5_30_19,3.1.0,59.9556421839027,
,,,C,G,y,b,R,D,d,R,c ,,,,,5,19,119,5,2,0,2,0,,,,,0,16,16,1,,,,,,up,0.6338119830566029,2716.0135194322975,None,001,91,2019_Nov_04_1100,ACPT_experiment_5_30_19,3.1.0,59.9556421839027,
,,,C,G,y,b,R,D,y,R,y,,,,,5,19,119,5,2,0,2,0,,,,,0,17,17,27,,,,,,down,0.7839453572005368,2717.914945118434,None,001,91,2019_Nov_04_1100,ACPT_experiment_5_30_19,3.1.0,59.9556421839027,
,,,C,G,y,b,R,U,y,R,u,,,,,5,19,119,5,2,0,2,0,,,,,0,18,18,31,,,,,,down,0.5671131387639434,2719.9665065935455,None,001,91,2019_Nov_04_1100,ACPT_experiment_5_30_19,3.1.0,59.9556421839027,
,,,C,G,y,b,L,D,y,L,y,,,,,5,19,119,5,2,0,2,0,,,,,0,19,19,32,,,,,,down,0.8339450402536386,2721.8012470188155,None,001,91,2019_Nov_04_1100,ACPT_experiment_5_30_19,3.1.0,59.9556421839027,
,,,C,G,y,b,L,D,g,L,i,,,,,5,19,119,5,2,0,2,0,,,,,0,20,20,14,,,,,,up,0.6338642037803766,2723.902791575016,None,001,91,2019_Nov_04_1100,ACPT_experiment_5_30_19,3.1.0,59.9556421839027,
,,,C,G,y,b,R,U,g,R,u,,,,,5,19,119,5,2,0,2,0,,,,,0,21,21,11,,,,,,up,0.7502883459342229,2725.837893591068,None,001,91,2019_Nov_04_1100,ACPT_experiment_5_30_19,3.1.0,59.9556421839027,
,,,C,G,y,b,R,U,y,L,u,,,,,5,19,119,5,2,0,2,0,,,,,0,22,22,30,,,,,,down,0.8673388349225206,2727.8557896030047,None,001,91,2019_Nov_04_1100,ACPT_experiment_5_30_19,3.1.0,59.9556421839027,
,,,C,G,y,b,R,U,d,L,u,,,,,5,19,119,5,2,0,2,0,,,,,0,23,23,8,,,,,,up,0.5670950275302857,2730.00743466146,None,001,91,2019_Nov_04_1100,ACPT_experiment_5_30_19,3.1.0,59.9556421839027,
,,,C,G,y,b,L,D,y,R,y,,,,,5,19,119,5,2,0,2,0,,,,,0,24,24,33,,,,,,down,0.8173101738952937,2731.8588190087057,None,001,91,2019_Nov_04_1100,ACPT_experiment_5_30_19,3.1.0,59.9556421839027,
,,,C,G,y,b,L,D,d,L,c ,,,,,5,19,119,5,2,0,2,0,,,,,0,25,25,12,,,,,,up,0.9006831255524048,2733.960425444955,None,001,91,2019_Nov_04_1100,ACPT_experiment_5_30_19,3.1.0,59.9556421839027,
,,,C,G,y,b,R,G,y,R,y,,,,,5,19,119,5,2,0,2,0,,,,,0,26,26,29,,,,,,down,0.7171635030867947,2736.162122105334,None,001,91,2019_Nov_04_1100,ACPT_experiment_5_30_19,3.1.0,59.9556421839027,
,,,C,G,y,b,L,U,g,R,u,,,,,5,19,119,5,2,0,2,0,,,,,0,27,27,23,,,,,,up,0.6838515108238425,2738.180284956115,None,001,91,2019_Nov_04_1100,ACPT_experiment_5_30_19,3.1.0,59.9556421839027,
,,,C,G,y,b,L,U,d,R,u,,,,,5,19,119,5,2,0,2,0,,,,,0,28,28,21,,,,,,up,0.68387203688917,2740.1317414162563,None,001,91,2019_Nov_04_1100,ACPT_experiment_5_30_19,3.1.0,59.9556421839027,
,,,C,G,y,b,L,U,y,L,u,,,,,5,19,119,5,2,0,2,0,,,,,0,29,29,24,,,,,,down,0.7672389514682436,2742.0999196766784,None,001,91,2019_Nov_04_1100,ACPT_experiment_5_30_19,3.1.0,59.9556421839027,
,,,C,G,y,b,L,D,g,R,i,,,,,5,19,119,5,2,0,2,0,,,,,0,30,30,15,,,,,,up,1.050780880936145,2744.1681625036485,None,001,91,2019_Nov_04_1100,ACPT_experiment_5_30_19,3.1.0,59.9556421839027,
,,,C,G,y,b,L,D,d,R,c ,,,,,5,19,119,5,2,0,2,0,,,,,0,31,31,13,,,,,,up,0.9841025627092677,2746.486540787555,None,001,91,2019_Nov_04_1100,ACPT_experiment_5_30_19,3.1.0,59.9556421839027,
,,,C,G,y,b,R,U,g,L,u,,,,,5,19,119,5,2,0,2,0,,,,,0,32,32,10,,,,,,up,1.150872614335185,2748.754949573797,None,001,91,2019_Nov_04_1100,ACPT_experiment_5_30_19,3.1.0,59.9556421839027,
,,,C,G,y,b,R,G,g,L,c ,,,,,5,19,119,5,2,0,2,0,,,,,0,33,33,6,,,,,,up,1.1341900550610262,2751.1901266005425,None,001,91,2019_Nov_04_1100,ACPT_experiment_5_30_19,3.1.0,59.9556421839027,
,,,C,G,y,b,R,D,y,L,y,,,,,5,19,119,5,2,0,2,0,,,,,0,34,34,26,,,,,,down,0.5838144129802458,2753.6086204643057,None,001,91,2019_Nov_04_1100,ACPT_experiment_5_30_19,3.1.0,59.9556421839027,
,,,C,G,y,b,R,G,y,L,y,,,,,5,19,119,5,2,0,2,0,,,,,0,35,35,28,,,,,,down,1.0508071422254943,2755.476700048689,None,001,91,2019_Nov_04_1100,ACPT_experiment_5_30_19,3.1.0,59.9556421839027,
,,,C,G,y,b,L,G,g,R,c ,,,,,5,19,119,5,2,0,2,0,,,,,1,0,36,19,,,,,,up,0.6338035311473504,2757.8118016421454,None,001,91,2019_Nov_04_1100,ACPT_experiment_5_30_19,3.1.0,59.9556421839027,
,,,C,G,y,b,L,D,g,L,i,,,,,5,19,119,5,2,0,2,0,,,,,1,1,37,14,,,,,,up,1.1008279550514999,2759.72992799879,None,001,91,2019_Nov_04_1100,ACPT_experiment_5_30_19,3.1.0,59.9556421839027,
,,,C,G,y,b,L,D,y,R,y,,,,,5,19,119,5,2,0,2,0,,,,,1,2,38,33,,,,,,down,0.9507199366348686,2762.115057649566,None,001,91,2019_Nov_04_1100,ACPT_experiment_5_30_19,3.1.0,59.9556421839027,
,,,C,G,y,b,L,G,g,L,c ,,,,,5,19,119,5,2,0,2,0,,,,,1,3,39,18,,,,,,up,1.050837327615227,2764.350078376364,None,001,91,2019_Nov_04_1100,ACPT_experiment_5_30_19,3.1.0,59.9556421839027,
,,,C,G,y,b,R,G,y,R,y,,,,,5,19,119,5,2,0,2,0,,,,,1,4,40,29,,,,,,down,0.950696995738781,2766.685182082798,None,001,91,2019_Nov_04_1100,ACPT_experiment_5_30_19,3.1.0,59.9556421839027,
,,,C,G,y,b,L,U,y,L,u,,,,,5,19,119,5,2,0,2,0,,,,,1,5,41,24,,,,,,down,0.7170198206322311,2768.9370378050876,None,001,91,2019_Nov_04_1100,ACPT_experiment_5_30_19,3.1.0,59.9556421839027,
,,,C,G,y,b,R,G,d,R,i,,,,,5,19,119,5,2,0,2,0,,,,,1,6,42,5,,,,,,up,0.8172769699667697,2770.9550805180174,None,001,91,2019_Nov_04_1100,ACPT_experiment_5_30_19,3.1.0,59.9556421839027,
,,,C,G,y,b,L,U,g,L,u,,,,,5,19,119,5,2,0,2,0,,,,,1,7,43,22,,,,,,up,0.6505180869344258,2773.0566628059555,None,001,91,2019_Nov_04_1100,ACPT_experiment_5_30_19,3.1.0,59.9556421839027,
,,,C,G,y,b,R,U,y,L,u,,,,,5,19,119,5,2,0,2,0,,,,,1,8,44,30,,,,,,down,0.7839435460768982,2774.9914617606955,None,001,91,2019_Nov_04_1100,ACPT_experiment_5_30_19,3.1.0,59.9556421839027,
,,,C,G,y,b,L,D,d,R,c ,,,,,5,19,119,5,2,0,2,0,,,,,1,9,45,13,,,,,,up,0.8339586236788818,2777.059696437611,None,001,91,2019_Nov_04_1100,ACPT_experiment_5_30_19,3.1.0,59.9556421839027,
,,,C,G,y,b,R,G,d,L,i,,,,,5,19,119,5,2,0,2,0,,,,,1,10,46,4,,,,,,up,0.9673982699546286,2779.177960681115,None,001,91,2019_Nov_04_1100,ACPT_experiment_5_30_19,3.1.0,59.9556421839027,
,,,C,G,y,b,L,G,d,L,i,,,,,5,19,119,5,2,0,2,0,,,,,1,11,47,16,,,,,,up,0.517064555379875,2781.4129805023513,None,001,91,2019_Nov_04_1100,ACPT_experiment_5_30_19,3.1.0,59.9556421839027,
,,,C,G,y,b,L,G,d,R,i,,,,,5,19,119,5,2,0,2,0,,,,,1,12,48,17,,,,,,up,0.6171285182203974,2783.197668118282,None,001,91,2019_Nov_04_1100,ACPT_experiment_5_30_19,3.1.0,59.9556421839027,
,,,C,G,y,b,R,G,y,L,y,,,,,5,19,119,5,2,0,2,0,,,,,1,13,49,28,,,,,,down,0.7172072719017706,2785.099106482282,None,001,91,2019_Nov_04_1100,ACPT_experiment_5_30_19,3.1.0,59.9556421839027,
,,,C,G,y,b,R,U,d,L,u,,,,,5,19,119,5,2,0,2,0,,,,,1,14,50,8,,,,,,up,0.8673189125652243,2787.100620279571,None,001,91,2019_Nov_04_1100,ACPT_experiment_5_30_19,3.1.0,59.9556421839027,
,,,C,G,y,b,R,D,d,L,c,,,,,5,19,119,5,2,0,2,0,,,,,1,15,51,0,,,,,,up,0.8006043718705769,2789.2522460193773,None,001,91,2019_Nov_04_1100,ACPT_experiment_5_30_19,3.1.0,59.9556421839027,
,,,C,G,y,b,R,D,y,L,y,,,,,5,19,119,5,2,0,2,0,,,,,1,16,52,26,,,,,,up,1.234285108853328,2791.32045805725,None,001,91,2019_Nov_04_1100,ACPT_experiment_5_30_19,3.1.0,59.9556421839027,
,,,C,G,y,b,L,G,y,L,y,,,,,5,19,119,5,2,0,2,0,,,,,1,17,53,34,,,,,,down,0.833711405338363,2793.855983996914,None,001,91,2019_Nov_04_1100,ACPT_experiment_5_30_19,3.1.0,59.9556421839027,
,,,C,G,y,b,L,D,y,L,y,,,,,5,19,119,5,2,0,2,0,,,,,1,18,54,32,,,,,,down,1.1175108161796743,2795.9740019276387,None,001,91,2019_Nov_04_1100,ACPT_experiment_5_30_19,3.1.0,59.9556421839027,
,,,C,G,y,b,L,U,d,R,u,,,,,5,19,119,5,2,0,2,0,,,,,1,19,55,21,,,,,,up,1.4010618012648592,2798.3758114210045,None,001,91,2019_Nov_04_1100,ACPT_experiment_5_30_19,3.1.0,59.9556421839027,
,,,C,G,y,b,R,U,y,R,u,,,,,5,19,119,5,2,0,2,0,,,,,1,20,56,31,,,,,,down,1.5845319196910168,2801.0611815587795,None,001,91,2019_Nov_04_1100,ACPT_experiment_5_30_19,3.1.0,59.9556421839027,
,,,C,G,y,b,R,D,d,R,c ,,,,,5,19,119,5,2,0,2,0,,,,,1,21,57,1,,,,,,up,0.600466786864672,2803.930014268634,None,001,91,2019_Nov_04_1100,ACPT_experiment_5_30_19,3.1.0,59.9556421839027,
,,,C,G,y,b,L,G,y,R,y,,,,,5,19,119,5,2,0,2,0,,,,,1,22,58,35,,,,,,down,0.66720336289427,2805.814762828866,None,001,91,2019_Nov_04_1100,ACPT_experiment_5_30_19,3.1.0,59.9556421839027,
,,,C,G,y,b,R,D,y,R,y,,,,,5,19,119,5,2,0,2,0,,,,,1,23,59,27,,,,,,down,1.1008355013987057,2807.7662473614196,None,001,91,2019_Nov_04_1100,ACPT_experiment_5_30_19,3.1.0,59.9556421839027,
,,,C,G,y,b,R,D,g,R,i,,,,,5,19,119,5,2,0,2,0,,,,,1,24,60,3,,,,,,up,0.6171342534444193,2810.151389690059,None,001,91,2019_Nov_04_1100,ACPT_experiment_5_30_19,3.1.0,59.9556421839027,
,,,C,G,y,b,L,D,d,L,c ,,,,,5,19,119,5,2,0,2,0,,,,,1,25,61,12,,,,,,up,1.5011342160146341,2812.052830167037,None,001,91,2019_Nov_04_1100,ACPT_experiment_5_30_19,3.1.0,59.9556421839027,
,,,C,G,y,b,L,U,d,L,u,,,,,5,19,119,5,2,0,2,0,,,,,1,26,62,20,,,,,,up,0.5003792794200308,2814.8215838213555,None,001,91,2019_Nov_04_1100,ACPT_experiment_5_30_19,3.1.0,59.9556421839027,
,,,C,G,y,b,R,U,g,R,u,,,,,5,19,119,5,2,0,2,0,,,,,1,27,63,11,,,,,,up,0.6671692534036993,2816.6062711354325,None,001,91,2019_Nov_04_1100,ACPT_experiment_5_30_19,3.1.0,59.9556421839027,
,,,C,G,y,b,L,U,g,R,u,,,,,5,19,119,5,2,0,2,0,,,,,1,28,64,23,,,,,,up,0.5337495294852488,2818.5577508383235,None,001,91,2019_Nov_04_1100,ACPT_experiment_5_30_19,3.1.0,59.9556421839027,
,,,C,G,y,b,R,G,g,L,c ,,,,,5,19,119,5,2,0,2,0,,,,,1,29,65,6,,,,,,up,0.617127914512821,2820.3757899893776,None,001,91,2019_Nov_04_1100,ACPT_experiment_5_30_19,3.1.0,59.9556421839027,
,,,C,G,y,b,L,D,g,R,i,,,,,5,19,119,5,2,0,2,0,,,,,1,30,66,15,,,,,,up,0.5337401720148591,2822.277225032985,None,001,91,2019_Nov_04_1100,ACPT_experiment_5_30_19,3.1.0,59.9556421839027,
,,,C,G,y,b,R,U,g,L,u,,,,,5,19,119,5,2,0,2,0,,,,,1,31,67,10,,,,,,up,0.6001715737543236,2824.11222927856,None,001,91,2019_Nov_04_1100,ACPT_experiment_5_30_19,3.1.0,59.9556421839027,
,,,C,G,y,b,R,D,g,L,i,,,,,5,19,119,5,2,0,2,0,,,,,1,32,68,2,,,,,,up,0.43369250928435576,2825.9966814182667,None,001,91,2019_Nov_04_1100,ACPT_experiment_5_30_19,3.1.0,59.9556421839027,
,,,C,G,y,b,R,U,d,R,u,,,,,5,19,119,5,2,0,2,0,,,,,1,33,69,9,,,,,,up,0.7171903680837204,2827.7146901122624,None,001,91,2019_Nov_04_1100,ACPT_experiment_5_30_19,3.1.0,59.9556421839027,
,,,C,G,y,b,L,U,y,R,u,,,,,5,19,119,5,2,0,2,0,,,,,1,34,70,25,,,,,,down,0.7839215107428572,2829.71618911871,None,001,91,2019_Nov_04_1100,ACPT_experiment_5_30_19,3.1.0,59.9556421839027,
,,,C,G,y,b,R,G,g,R,c ,,,,,5,19,119,5,2,0,2,0,,,,,1,35,71,7,,,,,,up,0.5337386627452361,2831.7844216826484,None,001,91,2019_Nov_04_1100,ACPT_experiment_5_30_19,3.1.0,59.9556421839027,
,,,C,G,y,b,,,,,,,,,,5,19,119,5,3,0,3,0,0,0,0,0,,,,,,,,,,,,,,001,91,2019_Nov_04_1100,ACPT_experiment_5_30_19,3.1.0,59.9556421839027,
,,,C,G,y,b,L,D,y,L,y,,,,,5,19,119,5,3,0,3,0,,,,,0,0,0,32,,,,,,down,0.7502943830118056,2849.714921030493,None,001,91,2019_Nov_04_1100,ACPT_experiment_5_30_19,3.1.0,59.9556421839027,
,,,C,G,y,b,R,D,g,R,i,,,,,5,19,119,5,3,0,3,0,,,,,0,1,1,3,,,,,,up,0.8005971273773866,2851.749520127769,None,001,91,2019_Nov_04_1100,ACPT_experiment_5_30_19,3.1.0,59.9556421839027,
,,,C,G,y,b,L,G,g,L,c ,,,,,5,19,119,5,3,0,3,0,,,,,0,2,2,18,,,,,,up,0.7505609200024992,2853.817755408392,None,001,91,2019_Nov_04_1100,ACPT_experiment_5_30_19,3.1.0,59.9556421839027,
,,,C,G,y,b,R,G,g,L,c ,,,,,5,19,119,5,3,0,3,0,,,,,0,3,3,6,,,,,,up,0.5170434256069711,2855.8526358334984,None,001,91,2019_Nov_04_1100,ACPT_experiment_5_30_19,3.1.0,59.9556421839027,
,,,C,G,y,b,R,G,g,R,c ,,,,,5,19,119,5,3,0,3,0,,,,,0,4,4,7,,,,,,up,0.6672136259262516,2857.6372905473545,None,001,91,2019_Nov_04_1100,ACPT_experiment_5_30_19,3.1.0,59.9556421839027,
,,,C,G,y,b,R,D,g,L,i,,,,,5,19,119,5,3,0,3,0,,,,,0,5,5,2,,,,,,up,0.6004692016963418,2859.588783833671,None,001,91,2019_Nov_04_1100,ACPT_experiment_5_30_19,3.1.0,59.9556421839027,
,,,C,G,y,b,L,U,g,R,u,,,,,5,19,119,5,3,0,3,0,,,,,0,6,6,23,,,,,,up,0.5671083091019682,2861.4568489290677,None,001,91,2019_Nov_04_1100,ACPT_experiment_5_30_19,3.1.0,59.9556421839027,
,,,C,G,y,b,L,D,g,R,i,,,,,5,19,119,5,3,0,3,0,,,,,0,7,7,15,,,,,,up,0.7005289385820106,2863.3082637635566,None,001,91,2019_Nov_04_1100,ACPT_experiment_5_30_19,3.1.0,59.9556421839027,
,,,C,G,y,b,L,G,y,R,y,,,,,5,19,119,5,3,0,3,0,,,,,0,8,8,35,,,,,,down,1.0174248180051109,2865.309779371969,None,001,91,2019_Nov_04_1100,ACPT_experiment_5_30_19,3.1.0,59.9556421839027,
,,,C,G,y,b,R,G,y,R,y,,,,,5,19,119,5,3,0,3,0,,,,,0,9,9,29,,,,,,down,0.6338264720434381,2867.6115188654157,None,001,91,2019_Nov_04_1100,ACPT_experiment_5_30_19,3.1.0,59.9556421839027,
,,,C,G,y,b,L,D,y,R,y,,,,,5,19,119,5,3,0,3,0,,,,,0,10,10,33,,,,,,down,1.0174323643523167,2869.52963435532,None,001,91,2019_Nov_04_1100,ACPT_experiment_5_30_19,3.1.0,59.9556421839027,
,,,C,G,y,b,L,G,d,R,i,,,,,5,19,119,5,3,0,3,0,,,,,0,11,11,17,,,,,,up,0.9672763209805453,2871.848060332142,None,001,91,2019_Nov_04_1100,ACPT_experiment_5_30_19,3.1.0,59.9556421839027,
,,,C,G,y,b,L,G,g,R,c ,,,,,5,19,119,5,3,0,3,0,,,,,0,12,12,19,,,,,,up,0.8006279164746957,2874.083059023605,None,001,91,2019_Nov_04_1100,ACPT_experiment_5_30_19,3.1.0,59.9556421839027,
,,,C,G,y,b,L,U,y,R,u,,,,,5,19,119,5,3,0,3,0,,,,,0,13,13,25,,,,,,down,0.7338831903903156,2876.1679949747363,None,001,91,2019_Nov_04_1100,ACPT_experiment_5_30_19,3.1.0,59.9556421839027,
,,,C,G,y,b,L,D,d,R,c ,,,,,5,19,119,5,3,0,3,0,,,,,0,14,14,13,,,,,,up,0.7839049087783678,2878.1861946516924,None,001,91,2019_Nov_04_1100,ACPT_experiment_5_30_19,3.1.0,59.9556421839027,
,,,C,G,y,b,L,G,d,L,i,,,,,5,19,119,5,3,0,3,0,,,,,0,15,15,16,,,,,,up,0.8006122200717982,2880.254413028497,None,001,91,2019_Nov_04_1100,ACPT_experiment_5_30_19,3.1.0,59.9556421839027,
,,,C,G,y,b,R,D,d,L,c,,,,,5,19,119,5,3,0,3,0,,,,,0,16,16,0,,,,,,up,1.3676963808620712,2882.3226519313666,None,001,91,2019_Nov_04_1100,ACPT_experiment_5_30_19,3.1.0,59.9556421839027,
,,,C,G,y,b,R,U,g,L,u,,,,,5,19,119,5,3,0,3,0,,,,,0,17,17,10,,,,,,up,1.3510274050136104,2884.9746518190773,None,001,91,2019_Nov_04_1100,ACPT_experiment_5_30_19,3.1.0,59.9556421839027,
,,,C,G,y,b,R,D,y,R,y,,,,,5,19,119,5,3,0,3,0,,,,,0,18,18,27,,,,,,down,0.9840759995663575,2887.6266577438655,None,001,91,2019_Nov_04_1100,ACPT_experiment_5_30_19,3.1.0,59.9556421839027,
,,,C,G,y,b,R,U,y,L,u,,,,,5,19,119,5,3,0,3,0,,,,,0,19,19,30,,,,,,down,0.8005983347929941,2889.9117249410706,None,001,91,2019_Nov_04_1100,ACPT_experiment_5_30_19,3.1.0,59.9556421839027,
,,,C,G,y,b,R,G,d,R,i,,,,,5,19,119,5,3,0,3,0,,,,,0,20,20,5,,,,,,up,0.6338485073779339,2891.9966322160813,None,001,91,2019_Nov_04_1100,ACPT_experiment_5_30_19,3.1.0,59.9556421839027,
,,,C,G,y,b,R,G,y,L,y,,,,,5,19,119,5,3,0,3,0,,,,,0,21,21,28,,,,,,down,0.7005521813321138,2893.8980470354777,None,001,91,2019_Nov_04_1100,ACPT_experiment_5_30_19,3.1.0,59.9556421839027,
,,,C,G,y,b,L,G,y,L,y,,,,,5,19,119,5,3,0,3,0,,,,,0,22,22,34,,,,,,down,0.8006019570398166,2895.882902723658,None,001,91,2019_Nov_04_1100,ACPT_experiment_5_30_19,3.1.0,59.9556421839027,
,,,C,G,y,b,R,D,d,R,c ,,,,,5,19,119,5,3,0,3,0,,,,,0,23,23,1,,,,,,up,0.850665934972767,2897.967814828331,None,001,91,2019_Nov_04_1100,ACPT_experiment_5_30_19,3.1.0,59.9556421839027,
,,,C,G,y,b,L,D,g,L,i,,,,,5,19,119,5,3,0,3,0,,,,,0,24,24,14,,,,,,up,0.6671629144716462,2900.102761329256,None,001,91,2019_Nov_04_1100,ACPT_experiment_5_30_19,3.1.0,59.9556421839027,
,,,C,G,y,b,R,G,d,L,i,,,,,5,19,119,5,3,0,3,0,,,,,0,25,25,4,,,,,,up,0.6171544776552764,2902.0542431451245,None,001,91,2019_Nov_04_1100,ACPT_experiment_5_30_19,3.1.0,59.9556421839027,
,,,C,G,y,b,L,D,d,L,c ,,,,,5,19,119,5,3,0,3,0,,,,,0,26,26,12,,,,,,up,0.5504224294350024,2903.9556721516537,None,001,91,2019_Nov_04_1100,ACPT_experiment_5_30_19,3.1.0,59.9556421839027,
,,,C,G,y,b,L,U,d,L,u,,,,,5,19,119,5,3,0,3,0,,,,,0,27,27,20,,,,,,up,0.6671731775040826,2905.790397786083,None,001,91,2019_Nov_04_1100,ACPT_experiment_5_30_19,3.1.0,59.9556421839027,
,,,C,G,y,b,L,U,g,L,u,,,,,5,19,119,5,3,0,3,0,,,,,0,28,28,22,,,,,,up,0.6337947773840824,2907.741886242737,None,001,91,2019_Nov_04_1100,ACPT_experiment_5_30_19,3.1.0,59.9556421839027,
,,,C,G,y,b,R,D,y,L,y,,,,,5,19,119,5,3,0,3,0,,,,,0,29,29,26,,,,,,down,0.7338910385915369,2909.659993280732,None,001,91,2019_Nov_04_1100,ACPT_experiment_5_30_19,3.1.0,59.9556421839027,
,,,C,G,y,b,R,U,g,R,u,,,,,5,19,119,5,3,0,3,0,,,,,0,30,30,11,,,,,,up,0.8005883736145734,2911.6782104652143,None,001,91,2019_Nov_04_1100,ACPT_experiment_5_30_19,3.1.0,59.9556421839027,
,,,C,G,y,b,R,U,d,R,u,,,,,5,19,119,5,3,0,3,0,,,,,0,31,31,9,,,,,,up,0.5170536886398622,2913.7464001658986,None,001,91,2019_Nov_04_1100,ACPT_experiment_5_30_19,3.1.0,59.9556421839027,
,,,C,G,y,b,L,U,d,R,u,,,,,5,19,119,5,3,0,3,0,,,,,0,32,32,21,,,,,,up,0.6004704091114945,2915.54779871537,None,001,91,2019_Nov_04_1100,ACPT_experiment_5_30_19,3.1.0,59.9556421839027,
,,,C,G,y,b,R,U,d,L,u,,,,,5,19,119,5,3,0,3,0,,,,,0,33,33,8,,,,,,up,0.6835783330484446,2917.432804455122,None,001,91,2019_Nov_04_1100,ACPT_experiment_5_30_19,3.1.0,59.9556421839027,
,,,C,G,y,b,L,U,y,L,u,,,,,5,19,119,5,3,0,3,0,,,,,0,34,34,24,,,,,,down,0.6838472848694437,2919.400695048781,None,001,91,2019_Nov_04_1100,ACPT_experiment_5_30_19,3.1.0,59.9556421839027,
,,,C,G,y,b,R,U,y,R,u,,,,,5,19,119,5,3,0,3,0,,,,,0,35,35,31,,,,,,down,0.7338846996599386,2921.352169318302,None,001,91,2019_Nov_04_1100,ACPT_experiment_5_30_19,3.1.0,59.9556421839027,
,,,C,G,y,b,L,D,g,R,i,,,,,5,19,119,5,3,0,3,0,,,,,1,0,36,15,,,,,,up,0.8006058811401999,2923.370361448911,None,001,91,2019_Nov_04_1100,ACPT_experiment_5_30_19,3.1.0,59.9556421839027,
,,,C,G,y,b,R,G,d,R,i,,,,,5,19,119,5,3,0,3,0,,,,,1,1,37,5,,,,,,up,0.6838659998111325,2925.455275364707,None,001,91,2019_Nov_04_1100,ACPT_experiment_5_30_19,3.1.0,59.9556421839027,
,,,C,G,y,b,R,D,y,L,y,,,,,5,19,119,5,3,0,3,0,,,,,1,2,38,26,,,,,,down,0.7839227181584647,2927.4234297786716,None,001,91,2019_Nov_04_1100,ACPT_experiment_5_30_19,3.1.0,59.9556421839027,
,,,C,G,y,b,R,G,g,L,c ,,,,,5,19,119,5,3,0,3,0,,,,,1,3,39,6,,,,,,up,0.6170938050222503,2929.4916922261455,None,001,91,2019_Nov_04_1100,ACPT_experiment_5_30_19,3.1.0,59.9556421839027,
,,,C,G,y,b,L,U,d,L,u,,,,,5,19,119,5,3,0,3,0,,,,,1,4,40,20,,,,,,up,0.7339022071855652,2931.3930937639702,None,001,91,2019_Nov_04_1100,ACPT_experiment_5_30_19,3.1.0,59.9556421839027,
,,,C,G,y,b,R,D,d,L,c,,,,,5,19,119,5,3,0,3,0,,,,,1,5,41,0,,,,,,up,0.733899792354805,2933.411288611264,None,001,91,2019_Nov_04_1100,ACPT_experiment_5_30_19,3.1.0,59.9556421839027,
,,,C,G,y,b,R,U,g,L,u,,,,,5,19,119,5,3,0,3,0,,,,,1,6,42,10,,,,,,up,0.6671870627837961,2935.429484364119,None,001,91,2019_Nov_04_1100,ACPT_experiment_5_30_19,3.1.0,59.9556421839027,
,,,C,G,y,b,R,U,y,L,u,,,,,5,19,119,5,3,0,3,0,,,,,1,7,43,30,,,,,,down,0.6504746199734655,2937.3809685948186,None,001,91,2019_Nov_04_1100,ACPT_experiment_5_30_19,3.1.0,59.9556421839027,
,,,C,G,y,b,L,D,y,R,y,,,,,5,19,119,5,3,0,3,0,,,,,1,8,44,33,,,,,,down,0.7338759458966706,2939.3324380346776,None,001,91,2019_Nov_04_1100,ACPT_experiment_5_30_19,3.1.0,59.9556421839027,
,,,C,G,y,b,R,U,d,L,u,,,,,5,19,119,5,3,0,3,0,,,,,1,9,45,8,,,,,,up,0.8172772718203305,2941.350632278263,None,001,91,2019_Nov_04_1100,ACPT_experiment_5_30_19,3.1.0,59.9556421839027,
,,,C,G,y,b,L,D,y,L,y,,,,,5,19,119,5,3,0,3,0,,,,,1,10,46,32,,,,,,down,0.6338551481635477,2943.452197360529,None,001,91,2019_Nov_04_1100,ACPT_experiment_5_30_19,3.1.0,59.9556421839027,
,,,C,G,y,b,L,G,y,L,y,,,,,5,19,119,5,3,0,3,0,,,,,1,11,47,34,,,,,,down,0.6004501849006374,2945.3703339802064,None,001,91,2019_Nov_04_1100,ACPT_experiment_5_30_19,3.1.0,59.9556421839027,
,,,C,G,y,b,L,G,y,R,y,,,,,5,19,119,5,3,0,3,0,,,,,1,12,48,35,,,,,,down,0.7505600144404525,2947.25509582201,None,001,91,2019_Nov_04_1100,ACPT_experiment_5_30_19,3.1.0,59.9556421839027,
,,,C,G,y,b,L,U,d,R,u,,,,,5,19,119,5,3,0,3,0,,,,,1,13,49,21,,,,,,up,0.5334494867124704,2949.3069256452354,None,001,91,2019_Nov_04_1100,ACPT_experiment_5_30_19,3.1.0,59.9556421839027,
,,,C,G,y,b,L,U,g,L,u,,,,,5,19,119,5,3,0,3,0,,,,,1,14,50,22,,,,,,up,0.850665934972767,2951.1079855146354,None,001,91,2019_Nov_04_1100,ACPT_experiment_5_30_19,3.1.0,59.9556421839027,
,,,C,G,y,b,L,U,y,R,u,,,,,5,19,119,5,3,0,3,0,,,,,1,15,51,25,,,,,,down,1.1342163163503756,2953.226251871117,None,001,91,2019_Nov_04_1100,ACPT_experiment_5_30_19,3.1.0,59.9556421839027,
,,,C,G,y,b,L,U,g,R,u,,,,,5,19,119,5,3,0,3,0,,,,,1,16,52,23,,,,,,up,1.1175228903357493,2955.6280867202095,None,001,91,2019_Nov_04_1100,ACPT_experiment_5_30_19,3.1.0,59.9556421839027,
,,,C,G,y,b,L,G,g,R,c ,,,,,5,19,119,5,3,0,3,0,,,,,1,17,53,19,,,,,,up,0.483698229415495,2958.0299125136853,None,001,91,2019_Nov_04_1100,ACPT_experiment_5_30_19,3.1.0,59.9556421839027,
,,,C,G,y,b,R,G,y,L,y,,,,,5,19,119,5,3,0,3,0,,,,,1,18,54,28,,,,,,down,0.5670983479235474,2959.7979178721957,None,001,91,2019_Nov_04_1100,ACPT_experiment_5_30_19,3.1.0,59.9556421839027,
,,,C,G,y,b,R,G,d,L,i,,,,,5,19,119,5,3,0,3,0,,,,,1,19,55,4,,,,,,up,0.950710579164479,2961.64932848073,None,001,91,2019_Nov_04_1100,ACPT_experiment_5_30_19,3.1.0,59.9556421839027,
,,,C,G,y,b,L,D,g,L,i,,,,,5,19,119,5,3,0,3,0,,,,,1,20,56,14,,,,,,up,0.48370064424671,2963.884339246349,None,001,91,2019_Nov_04_1100,ACPT_experiment_5_30_19,3.1.0,59.9556421839027,
,,,C,G,y,b,R,U,y,R,u,,,,,5,19,119,5,3,0,3,0,,,,,1,21,57,31,,,,,,down,0.7172072719017706,2965.6523560753076,None,001,91,2019_Nov_04_1100,ACPT_experiment_5_30_19,3.1.0,59.9556421839027,
,,,C,G,y,b,R,U,g,R,u,,,,,5,19,119,5,3,0,3,0,,,,,1,22,58,11,,,,,,up,0.6672296241827098,2967.637152901978,None,001,91,2019_Nov_04_1100,ACPT_experiment_5_30_19,3.1.0,59.9556421839027,
,,,C,G,y,b,R,G,y,R,y,,,,,5,19,119,5,3,0,3,0,,,,,1,23,59,29,,,,,,down,0.7839209070348261,2969.5886579605967,None,001,91,2019_Nov_04_1100,ACPT_experiment_5_30_19,3.1.0,59.9556421839027,
,,,C,G,y,b,R,D,y,R,y,,,,,5,19,119,5,3,0,3,0,,,,,1,24,60,27,,,,,,down,0.7505657496644744,2971.656884185603,None,001,91,2019_Nov_04_1100,ACPT_experiment_5_30_19,3.1.0,59.9556421839027,
,,,C,G,y,b,L,U,y,L,u,,,,,5,19,119,5,3,0,3,0,,,,,1,25,61,24,,,,,,down,0.833996355416275,2973.6917555550926,None,001,91,2019_Nov_04_1100,ACPT_experiment_5_30_19,3.1.0,59.9556421839027,
,,,C,G,y,b,R,U,d,R,u,,,,,5,19,119,5,3,0,3,0,,,,,1,26,62,9,,,,,,up,1.1508738217507926,2975.8100267412365,None,001,91,2019_Nov_04_1100,ACPT_experiment_5_30_19,3.1.0,59.9556421839027,
,,,C,G,y,b,R,D,g,R,i,,,,,5,19,119,5,3,0,3,0,,,,,1,27,63,3,,,,,,up,0.5337268904427219,2978.2452137291602,None,001,91,2019_Nov_04_1100,ACPT_experiment_5_30_19,3.1.0,59.9556421839027,
,,,C,G,y,b,R,D,g,L,i,,,,,5,19,119,5,3,0,3,0,,,,,1,28,64,2,,,,,,up,0.8673439664385114,2980.04654164482,None,001,91,2019_Nov_04_1100,ACPT_experiment_5_30_19,3.1.0,59.9556421839027,
,,,C,G,y,b,L,G,d,R,i,,,,,5,19,119,5,3,0,3,0,,,,,1,29,65,17,,,,,,up,0.98408928113804,2982.198174025412,None,001,91,2019_Nov_04_1100,ACPT_experiment_5_30_19,3.1.0,59.9556421839027,
,,,C,G,y,b,L,G,g,L,c ,,,,,5,19,119,5,3,0,3,0,,,,,1,30,66,18,,,,,,up,0.6171514591164851,2984.4498718781138,None,001,91,2019_Nov_04_1100,ACPT_experiment_5_30_19,3.1.0,59.9556421839027,
,,,C,G,y,b,R,D,d,R,c ,,,,,5,19,119,5,3,0,3,0,,,,,1,31,67,1,,,,,,up,0.48369581458428,2986.3513346922796,None,001,91,2019_Nov_04_1100,ACPT_experiment_5_30_19,3.1.0,59.9556421839027,
,,,C,G,y,b,L,D,d,L,c ,,,,,5,19,119,5,3,0,3,0,,,,,1,32,68,12,,,,,,up,0.5834974663889625,2988.1196105118806,None,001,91,2019_Nov_04_1100,ACPT_experiment_5_30_19,3.1.0,59.9556421839027,
,,,C,G,y,b,L,D,d,R,c ,,,,,5,19,119,5,3,0,3,0,,,,,1,33,69,13,,,,,,up,0.7339390333609117,2989.9707099090483,None,001,91,2019_Nov_04_1100,ACPT_experiment_5_30_19,3.1.0,59.9556421839027,
,,,C,G,y,b,R,G,g,R,c ,,,,,5,19,119,5,3,0,3,0,,,,,1,34,70,7,,,,,,up,0.5337350404984136,2991.9889261879684,None,001,91,2019_Nov_04_1100,ACPT_experiment_5_30_19,3.1.0,59.9556421839027,
,,,C,G,y,b,L,G,d,L,i,,,,,5,19,119,5,3,0,3,0,,,,,1,35,71,16,,,,,,up,0.8840026792549907,2993.8069716779546,None,001,91,2019_Nov_04_1100,ACPT_experiment_5_30_19,3.1.0,59.9556421839027,
,,,C,G,y,b,,,,,,,,,,5,19,119,5,4,0,4,0,0,0,0,0,,,,,,,,,,,,,,001,91,2019_Nov_04_1100,ACPT_experiment_5_30_19,3.1.0,59.9556421839027,
,,,C,G,y,b,R,U,d,R,u,,,,,5,19,119,5,4,0,4,0,,,,,0,0,0,9,,,,,,up,0.8139568789633813,3001.3993720231547,None,001,91,2019_Nov_04_1100,ACPT_experiment_5_30_19,3.1.0,59.9556421839027,
,,,C,G,y,b,R,D,g,L,i,,,,,5,19,119,5,4,0,4,0,,,,,0,1,1,2,,,,,,up,0.6004498830466218,3003.49763271082,None,001,91,2019_Nov_04_1100,ACPT_experiment_5_30_19,3.1.0,59.9556421839027,
,,,C,G,y,b,L,G,g,L,c ,,,,,5,19,119,5,4,0,4,0,,,,,0,2,2,18,,,,,,up,0.5670959330923324,3005.3823945526237,None,001,91,2019_Nov_04_1100,ACPT_experiment_5_30_19,3.1.0,59.9556421839027,
,,,C,G,y,b,L,D,d,R,c ,,,,,5,19,119,5,4,0,4,0,,,,,0,3,3,13,,,,,,up,0.6504936367687151,3007.233791879587,None,001,91,2019_Nov_04_1100,ACPT_experiment_5_30_19,3.1.0,59.9556421839027,
,,,C,G,y,b,R,G,g,L,c ,,,,,5,19,119,5,4,0,4,0,,,,,0,4,4,6,,,,,,up,0.9173351975828155,3009.168608945561,None,001,91,2019_Nov_04_1100,ACPT_experiment_5_30_19,3.1.0,59.9556421839027,
,,,C,G,y,b,R,U,g,R,u,,,,,5,19,119,5,4,0,4,0,,,,,0,5,5,11,,,,,,up,0.934042207022685,3011.3702542907777,None,001,91,2019_Nov_04_1100,ACPT_experiment_5_30_19,3.1.0,59.9556421839027,
,,,C,G,y,b,L,G,d,L,i,,,,,5,19,119,5,4,0,4,0,,,,,0,6,6,16,,,,,,up,0.6004513923157901,3013.588601212064,None,001,91,2019_Nov_04_1100,ACPT_experiment_5_30_19,3.1.0,59.9556421839027,
,,,C,G,y,b,R,D,d,L,c,,,,,5,19,119,5,4,0,4,0,,,,,0,7,7,0,,,,,,up,0.6838466811618673,3015.4733582242056,None,001,91,2019_Nov_04_1100,ACPT_experiment_5_30_19,3.1.0,59.9556421839027,
,,,C,G,y,b,L,U,g,R,u,,,,,5,19,119,5,4,0,4,0,,,,,0,8,8,23,,,,,,up,1.5678433233392752,3017.44152350491,None,001,91,2019_Nov_04_1100,ACPT_experiment_5_30_19,3.1.0,59.9556421839027,
,,,C,G,y,b,L,U,d,R,u,,,,,5,19,119,5,4,0,4,0,,,,,0,9,9,21,,,,,,up,0.7171951977461504,3020.293675768467,None,001,91,2019_Nov_04_1100,ACPT_experiment_5_30_19,3.1.0,59.9556421839027,
,,,C,G,y,b,R,U,y,L,u,,,,,5,19,119,5,4,0,4,0,,,,,0,10,10,30,,,,,,down,2.0182268438065876,3022.2951874527785,None,001,91,2019_Nov_04_1100,ACPT_experiment_5_30_19,3.1.0,59.9556421839027,
,,,C,G,y,b,R,G,g,R,c ,,,,,5,19,119,5,4,0,4,0,,,,,0,11,11,7,,,,,,up,1.7346326936144578,3025.5976900328747,None,001,91,2019_Nov_04_1100,ACPT_experiment_5_30_19,3.1.0,59.9556421839027,
,,,C,G,y,b,L,G,y,R,y,,,,,5,19,119,5,4,0,4,0,,,,,0,12,12,35,,,,,,down,1.6512494789244556,3028.616632874123,None,001,91,2019_Nov_04_1100,ACPT_experiment_5_30_19,3.1.0,59.9556421839027,
,,,C,G,y,b,L,U,g,L,u,,,,,5,19,119,5,4,0,4,0,,,,,0,13,13,22,,,,,,down,1.6846094659567825,3031.552185256188,None,001,91,2019_Nov_04_1100,ACPT_experiment_5_30_19,3.1.0,59.9556421839027,
,,,C,G,y,b,R,U,y,R,u,,,,,5,19,119,5,4,0,4,0,,,,,0,14,14,31,,,,,,down,1.0507971810466188,3034.5210988327008,None,001,91,2019_Nov_04_1100,ACPT_experiment_5_30_19,3.1.0,59.9556421839027,
,,,C,G,y,b,L,D,g,L,i,,,,,5,19,119,5,4,0,4,0,,,,,0,15,15,14,,,,,,up,1.3843566029486283,3036.8562224614916,None,001,91,2019_Nov_04_1100,ACPT_experiment_5_30_19,3.1.0,59.9556421839027,
,,,C,G,y,b,R,D,d,R,c ,,,,,5,19,119,5,4,0,4,0,,,,,0,16,16,1,,,,,,up,1.1675500420938079,3039.5248837787035,None,001,91,2019_Nov_04_1100,ACPT_experiment_5_30_19,3.1.0,59.9556421839027,
,,,C,G,y,b,L,D,d,L,c ,,,,,5,19,119,5,4,0,4,0,,,,,0,17,17,12,,,,,,up,0.5170524812242547,3041.9767385350606,None,001,91,2019_Nov_04_1100,ACPT_experiment_5_30_19,3.1.0,59.9556421839027,
,,,C,G,y,b,R,D,y,L,y,,,,,5,19,119,5,4,0,4,0,,,,,0,18,18,26,,,,,,down,0.8006013533317855,3043.77810206948,None,001,91,2019_Nov_04_1100,ACPT_experiment_5_30_19,3.1.0,59.9556421839027,
,,,C,G,y,b,L,D,y,L,y,,,,,5,19,119,5,4,0,4,0,,,,,0,19,19,32,,,,,,down,0.7170970952297466,3045.8630087407832,None,001,91,2019_Nov_04_1100,ACPT_experiment_5_30_19,3.1.0,59.9556421839027,
,,,C,G,y,b,R,G,d,R,i,,,,,5,19,119,5,4,0,4,0,,,,,0,20,20,5,,,,,,up,0.7503324166032144,3047.8814369211386,None,001,91,2019_Nov_04_1100,ACPT_experiment_5_30_19,3.1.0,59.9556421839027,
,,,C,G,y,b,L,U,y,L,u,,,,,5,19,119,5,4,0,4,0,,,,,0,21,21,24,,,,,,down,0.7505971424698146,3049.916048696278,None,001,91,2019_Nov_04_1100,ACPT_experiment_5_30_19,3.1.0,59.9556421839027,
,,,C,G,y,b,R,U,d,L,u,,,,,5,19,119,5,4,0,4,0,,,,,0,22,22,8,,,,,,up,0.650470997726643,3051.950965343852,None,001,91,2019_Nov_04_1100,ACPT_experiment_5_30_19,3.1.0,59.9556421839027,
,,,C,G,y,b,L,D,y,R,y,,,,,5,19,119,5,4,0,4,0,,,,,0,23,23,33,,,,,,down,1.0007763682206132,3053.885719020508,None,001,91,2019_Nov_04_1100,ACPT_experiment_5_30_19,3.1.0,59.9556421839027,
,,,C,G,y,b,R,G,y,L,y,,,,,5,19,119,5,4,0,4,0,,,,,0,24,24,28,,,,,,down,0.8840238090278945,3056.170798895577,None,001,91,2019_Nov_04_1100,ACPT_experiment_5_30_19,3.1.0,59.9556421839027,
,,,C,G,y,b,R,U,g,L,u,,,,,5,19,119,5,4,0,4,0,,,,,0,25,25,10,,,,,,up,0.7838955513075234,3058.3391307392612,None,001,91,2019_Nov_04_1100,ACPT_experiment_5_30_19,3.1.0,59.9556421839027,
,,,C,G,y,b,R,D,y,R,y,,,,,5,19,119,5,4,0,4,0,,,,,0,26,26,27,,,,,,down,0.8671317631497004,3060.457535344827,None,001,91,2019_Nov_04_1100,ACPT_experiment_5_30_19,3.1.0,59.9556421839027,
,,,C,G,y,b,R,G,y,R,y,,,,,5,19,119,5,4,0,4,0,,,,,0,27,27,29,,,,,,down,0.6504830718822632,3062.609012572517,None,001,91,2019_Nov_04_1100,ACPT_experiment_5_30_19,3.1.0,59.9556421839027,
,,,C,G,y,b,L,U,d,L,u,,,,,5,19,119,5,4,0,4,0,,,,,0,28,28,20,,,,,,up,1.3343306586061772,3064.5604901624306,None,001,91,2019_Nov_04_1100,ACPT_experiment_5_30_19,3.1.0,59.9556421839027,
,,,C,G,y,b,R,G,d,L,i,,,,,5,19,119,5,4,0,4,0,,,,,0,29,29,4,,,,,,up,1.1008457644315968,3067.179134590917,None,001,91,2019_Nov_04_1100,ACPT_experiment_5_30_19,3.1.0,59.9556421839027,
,,,C,G,y,b,R,D,g,R,i,,,,,5,19,119,5,4,0,4,0,,,,,0,30,30,3,,,,,,up,0.8339673774421499,3069.5642690713553,None,001,91,2019_Nov_04_1100,ACPT_experiment_5_30_19,3.1.0,59.9556421839027,
,,,C,G,y,b,L,D,g,R,i,,,,,5,19,119,5,4,0,4,0,,,,,0,31,31,15,,,,,,up,0.6838632831259019,3071.6658598112026,None,001,91,2019_Nov_04_1100,ACPT_experiment_5_30_19,3.1.0,59.9556421839027,
,,,C,G,y,b,L,G,d,R,i,,,,,5,19,119,5,4,0,4,0,,,,,0,32,32,17,,,,,,up,0.5170440293150023,3073.634030223423,None,001,91,2019_Nov_04_1100,ACPT_experiment_5_30_19,3.1.0,59.9556421839027,
,,,C,G,y,b,L,G,y,L,y,,,,,5,19,119,5,4,0,4,0,,,,,0,33,33,34,,,,,,down,0.7505883887070013,3075.4186785983475,None,001,91,2019_Nov_04_1100,ACPT_experiment_5_30_19,3.1.0,59.9556421839027,
,,,C,G,y,b,L,G,g,R,c ,,,,,5,19,119,5,4,0,4,0,,,,,0,34,34,19,,,,,,up,0.6838346070057923,3077.4535792476654,None,001,91,2019_Nov_04_1100,ACPT_experiment_5_30_19,3.1.0,59.9556421839027,
,,,C,G,y,b,L,U,y,R,u,,,,,5,19,119,5,4,0,4,0,,,,,0,35,35,25,,,,,,down,0.8173162109728764,3079.4217285301133,None,001,91,2019_Nov_04_1100,ACPT_experiment_5_30_19,3.1.0,59.9556421839027,
,,,C,G,y,b,L,D,y,R,y,,,,,5,19,119,5,4,0,4,0,,,,,1,0,36,33,,,,,,down,0.6004462608002541,3081.5399985088416,None,001,91,2019_Nov_04_1100,ACPT_experiment_5_30_19,3.1.0,59.9556421839027,
,,,C,G,y,b,L,D,g,L,i,,,,,5,19,119,5,4,0,4,0,,,,,1,1,37,14,,,,,,up,0.9507145032648623,3083.44143596728,None,001,91,2019_Nov_04_1100,ACPT_experiment_5_30_19,3.1.0,59.9556421839027,
,,,C,G,y,b,R,U,y,R,u,,,,,5,19,119,5,4,0,4,0,,,,,1,2,38,31,,,,,,down,0.7005654629033415,3085.676459410763,None,001,91,2019_Nov_04_1100,ACPT_experiment_5_30_19,3.1.0,59.9556421839027,
,,,C,G,y,b,L,G,d,R,i,,,,,5,19,119,5,4,0,4,0,,,,,1,3,39,17,,,,,,up,0.7839281515284711,3087.661289743216,None,001,91,2019_Nov_04_1100,ACPT_experiment_5_30_19,3.1.0,59.9556421839027,
,,,C,G,y,b,L,U,d,R,u,,,,,5,19,119,5,4,0,4,0,,,,,1,4,40,21,,,,,,up,0.6504673754798205,3089.7128638961913,None,001,91,2019_Nov_04_1100,ACPT_experiment_5_30_19,3.1.0,59.9556421839027,
,,,C,G,y,b,R,U,y,L,u,,,,,5,19,119,5,4,0,4,0,,,,,1,5,41,30,,,,,,down,0.8506423903691029,3091.6476423248664,None,001,91,2019_Nov_04_1100,ACPT_experiment_5_30_19,3.1.0,59.9556421839027,
,,,C,G,y,b,L,G,d,L,i,,,,,5,19,119,5,4,0,4,0,,,,,1,6,42,16,,,,,,up,0.6671457088000352,3093.7826090500025,None,001,91,2019_Nov_04_1100,ACPT_experiment_5_30_19,3.1.0,59.9556421839027,
,,,C,G,y,b,L,U,d,L,u,,,,,5,19,119,5,4,0,4,0,,,,,1,7,43,20,,,,,,up,0.8006067867022466,3095.7340655101434,None,001,91,2019_Nov_04_1100,ACPT_experiment_5_30_19,3.1.0,59.9556421839027,
,,,C,G,y,b,R,D,g,L,i,,,,,5,19,119,5,4,0,4,0,,,,,1,8,44,2,,,,,,up,0.6171363664216187,3097.818971275885,None,001,91,2019_Nov_04_1100,ACPT_experiment_5_30_19,3.1.0,59.9556421839027,
,,,C,G,y,b,R,D,d,L,c,,,,,5,19,119,5,4,0,4,0,,,,,1,9,45,0,,,,,,up,0.7503173239078933,3099.7373388137926,None,001,91,2019_Nov_04_1100,ACPT_experiment_5_30_19,3.1.0,59.9556421839027,
,,,C,G,y,b,R,D,d,R,c ,,,,,5,19,119,5,4,0,4,0,,,,,1,10,46,1,,,,,,up,0.7004133285395255,3101.7719638705034,None,001,91,2019_Nov_04_1100,ACPT_experiment_5_30_19,3.1.0,59.9556421839027,
,,,C,G,y,b,L,D,g,R,i,,,,,5,19,119,5,4,0,4,0,,,,,1,11,47,15,,,,,,up,0.6504860904215093,3103.756800240034,None,001,91,2019_Nov_04_1100,ACPT_experiment_5_30_19,3.1.0,59.9556421839027,
,,,C,G,y,b,L,U,y,R,u,,,,,5,19,119,5,4,0,4,0,,,,,1,12,48,25,,,,,,down,0.7338856052215306,3105.691597081797,None,001,91,2019_Nov_04_1100,ACPT_experiment_5_30_19,3.1.0,59.9556421839027,
,,,C,G,y,b,R,D,y,L,y,,,,,5,19,119,5,4,0,4,0,,,,,1,13,49,26,,,,,,down,0.8638977005075503,3107.7299189431733,None,001,91,2019_Nov_04_1100,ACPT_experiment_5_30_19,3.1.0,59.9556421839027,
,,,C,G,y,b,L,G,g,R,c ,,,,,5,19,119,5,4,0,4,0,,,,,1,14,50,19,,,,,,up,0.5670935182611174,3109.878094794801,None,001,91,2019_Nov_04_1100,ACPT_experiment_5_30_19,3.1.0,59.9556421839027,
,,,C,G,y,b,R,U,d,L,u,,,,,5,19,119,5,4,0,4,0,,,,,1,15,51,8,,,,,,up,0.7005232033579887,3111.7294966495724,None,001,91,2019_Nov_04_1100,ACPT_experiment_5_30_19,3.1.0,59.9556421839027,
,,,C,G,y,b,R,G,d,R,i,,,,,5,19,119,5,4,0,4,0,,,,,1,16,52,5,,,,,,up,0.6338053422705343,3113.7143330191034,None,001,91,2019_Nov_04_1100,ACPT_experiment_5_30_19,3.1.0,59.9556421839027,
,,,C,G,y,b,R,U,g,L,u,,,,,5,19,119,5,4,0,4,0,,,,,1,17,53,10,,,,,,up,0.6004830869751459,3115.6324234551344,None,001,91,2019_Nov_04_1100,ACPT_experiment_5_30_19,3.1.0,59.9556421839027,
,,,C,G,y,b,L,G,y,R,y,,,,,5,19,119,5,4,0,4,0,,,,,1,18,54,35,,,,,,down,0.8506363532906107,3117.533892910086,None,001,91,2019_Nov_04_1100,ACPT_experiment_5_30_19,3.1.0,59.9556421839027,
,,,C,G,y,b,R,D,y,R,y,,,,,5,19,119,5,4,0,4,0,,,,,1,19,55,27,,,,,,down,0.5670917071374788,3119.6688303553938,None,001,91,2019_Nov_04_1100,ACPT_experiment_5_30_19,3.1.0,59.9556421839027,
,,,C,G,y,b,L,U,g,L,u,,,,,5,19,119,5,4,0,4,0,,,,,1,20,56,22,,,,,,up,0.6671505384620104,3121.536927145449,None,001,91,2019_Nov_04_1100,ACPT_experiment_5_30_19,3.1.0,59.9556421839027,
,,,C,G,y,b,R,G,y,R,y,,,,,5,19,119,5,4,0,4,0,,,,,1,21,57,29,,,,,,down,0.6504842792983254,3123.5050694852575,None,001,91,2019_Nov_04_1100,ACPT_experiment_5_30_19,3.1.0,59.9556421839027,
,,,C,G,y,b,L,U,g,R,u,,,,,5,19,119,5,4,0,4,0,,,,,1,22,58,23,,,,,,up,0.6504791477818799,3125.4565500937106,None,001,91,2019_Nov_04_1100,ACPT_experiment_5_30_19,3.1.0,59.9556421839027,
,,,C,G,y,b,L,G,y,L,y,,,,,5,19,119,5,4,0,4,0,,,,,1,23,59,34,,,,,,down,0.8170285442101886,3127.4082797316278,None,001,91,2019_Nov_04_1100,ACPT_experiment_5_30_19,3.1.0,59.9556421839027,
,,,C,G,y,b,L,U,y,L,u,,,,,5,19,119,5,4,0,4,0,,,,,1,24,60,24,,,,,,down,0.7172350424602882,3129.509608160439,None,001,91,2019_Nov_04_1100,ACPT_experiment_5_30_19,3.1.0,59.9556421839027,
,,,C,G,y,b,R,G,y,L,y,,,,,5,19,119,5,4,0,4,0,,,,,1,25,61,28,,,,,,down,0.6338174164266093,3131.5111201466043,None,001,91,2019_Nov_04_1100,ACPT_experiment_5_30_19,3.1.0,59.9556421839027,
,,,C,G,y,b,L,D,d,L,c ,,,,,5,19,119,5,4,0,4,0,,,,,1,26,62,12,,,,,,up,1.0508014070010177,3133.429238655048,None,001,91,2019_Nov_04_1100,ACPT_experiment_5_30_19,3.1.0,59.9556421839027,
,,,C,G,y,b,R,G,g,L,c ,,,,,5,19,119,5,4,0,4,0,,,,,1,27,63,6,,,,,,up,0.6671574811016399,3135.764355341199,None,001,91,2019_Nov_04_1100,ACPT_experiment_5_30_19,3.1.0,59.9556421839027,
,,,C,G,y,b,R,G,g,R,c ,,,,,5,19,119,5,4,0,4,0,,,,,1,28,64,7,,,,,,up,1.050817103403915,3137.6991159604945,None,001,91,2019_Nov_04_1100,ACPT_experiment_5_30_19,3.1.0,59.9556421839027,
,,,C,G,y,b,R,G,d,L,i,,,,,5,19,119,5,4,0,4,0,,,,,1,29,65,4,,,,,,up,1.0842000313323297,3140.017538013216,None,001,91,2019_Nov_04_1100,ACPT_experiment_5_30_19,3.1.0,59.9556421839027,
,,,C,G,y,b,R,D,g,R,i,,,,,5,19,119,5,4,0,4,0,,,,,1,30,66,3,,,,,,up,0.6837346933662047,3142.386016195669,None,001,91,2019_Nov_04_1100,ACPT_experiment_5_30_19,3.1.0,59.9556421839027,
,,,C,G,y,b,R,U,g,R,u,,,,,5,19,119,5,4,0,4,0,,,,,1,31,67,11,,,,,,up,0.5504097515708963,3144.3375007282225,None,001,91,2019_Nov_04_1100,ACPT_experiment_5_30_19,3.1.0,59.9556421839027,
,,,C,G,y,b,L,D,d,R,c ,,,,,5,19,119,5,4,0,4,0,,,,,1,32,68,13,,,,,,up,0.6171236885579674,3146.1722197218655,None,001,91,2019_Nov_04_1100,ACPT_experiment_5_30_19,3.1.0,59.9556421839027,
,,,C,G,y,b,L,G,g,L,c ,,,,,5,19,119,5,4,0,4,0,,,,,1,33,69,18,,,,,,up,1.501137536407441,3148.0736511432265,None,001,91,2019_Nov_04_1100,ACPT_experiment_5_30_19,3.1.0,59.9556421839027,
,,,C,G,y,b,L,D,y,L,y,,,,,5,19,119,5,4,0,4,0,,,,,1,34,70,32,,,,,,down,0.8006363683834934,3150.859093997605,None,001,91,2019_Nov_04_1100,ACPT_experiment_5_30_19,3.1.0,59.9556421839027,
,,,C,G,y,b,R,U,d,R,u,,,,,5,19,119,5,4,0,4,0,,,,,1,35,71,9,,,,,,up,0.6338101719329643,3152.9440024800315,None,001,91,2019_Nov_04_1100,ACPT_experiment_5_30_19,3.1.0,59.9556421839027,
,,,C,G,y,b,,,,,,,,,,5,19,119,5,5,0,5,0,0,0,0,0,,,,,,,,,,,,,,001,91,2019_Nov_04_1100,ACPT_experiment_5_30_19,3.1.0,59.9556421839027,
,,,C,G,y,b,L,U,g,R,u,,,,,5,19,119,5,5,0,5,0,,,,,0,0,0,23,,,,,,up,0.6805205530808962,3164.6561856956873,None,001,91,2019_Nov_04_1100,ACPT_experiment_5_30_19,3.1.0,59.9556421839027,
,,,C,G,y,b,L,U,y,L,u,,,,,5,19,119,5,5,0,5,0,,,,,0,1,1,24,,,,,,down,0.817311683164462,3166.6043166314553,None,001,91,2019_Nov_04_1100,ACPT_experiment_5_30_19,3.1.0,59.9556421839027,
,,,C,G,y,b,L,U,y,R,u,,,,,5,19,119,5,5,0,5,0,,,,,0,2,2,25,,,,,,down,0.8506275995282522,3168.7059291047826,None,001,91,2019_Nov_04_1100,ACPT_experiment_5_30_19,3.1.0,59.9556421839027,
,,,C,G,y,b,R,U,d,R,u,,,,,5,19,119,5,5,0,5,0,,,,,0,3,3,9,,,,,,up,0.9173539125245043,3170.8575509204884,None,001,91,2019_Nov_04_1100,ACPT_experiment_5_30_19,3.1.0,59.9556421839027,
,,,C,G,y,b,R,G,y,L,y,,,,,5,19,119,5,5,0,5,0,,,,,0,4,4,28,,,,,,down,0.9840702643423356,3173.0592246399715,None,001,91,2019_Nov_04_1100,ACPT_experiment_5_30_19,3.1.0,59.9556421839027,
,,,C,G,y,b,L,U,d,R,u,,,,,5,19,119,5,5,0,5,0,,,,,0,5,5,21,,,,,,up,0.68386237756431,3175.3276029389704,None,001,91,2019_Nov_04_1100,ACPT_experiment_5_30_19,3.1.0,59.9556421839027,
,,,C,G,y,b,L,U,g,L,u,,,,,5,19,119,5,5,0,5,0,,,,,0,6,6,22,,,,,,up,0.7002633071538185,3177.3126844138646,None,001,91,2019_Nov_04_1100,ACPT_experiment_5_30_19,3.1.0,59.9556421839027,
,,,C,G,y,b,R,G,g,R,c ,,,,,5,19,119,5,5,0,5,0,,,,,0,7,7,7,,,,,,up,0.5837658145028399,3179.2972702446614,None,001,91,2019_Nov_04_1100,ACPT_experiment_5_30_19,3.1.0,59.9556421839027,
,,,C,G,y,b,R,G,g,L,c ,,,,,5,19,119,5,5,0,5,0,,,,,0,8,8,6,,,,,,up,0.6673192747903158,3181.1485172483845,None,001,91,2019_Nov_04_1100,ACPT_experiment_5_30_19,3.1.0,59.9556421839027,
,,,C,G,y,b,L,D,d,L,c ,,,,,5,19,119,5,5,0,5,0,,,,,0,9,9,12,,,,,,up,0.5504182034801488,3183.100143048561,None,001,91,2019_Nov_04_1100,ACPT_experiment_5_30_19,3.1.0,59.9556421839027,
,,,C,G,y,b,R,U,y,L,u,,,,,5,19,119,5,5,0,5,0,,,,,0,10,10,30,,,,,,down,0.850637560706673,3184.9348735126528,None,001,91,2019_Nov_04_1100,ACPT_experiment_5_30_19,3.1.0,59.9556421839027,
,,,C,G,y,b,L,G,y,L,y,,,,,5,19,119,5,5,0,5,0,,,,,0,11,11,34,,,,,,down,0.6838515108242973,3187.053134737618,None,001,91,2019_Nov_04_1100,ACPT_experiment_5_30_19,3.1.0,59.9556421839027,
,,,C,G,y,b,L,G,g,R,c ,,,,,5,19,119,5,5,0,5,0,,,,,0,12,12,19,,,,,,up,0.7505956332006463,3189.0045884810743,None,001,91,2019_Nov_04_1100,ACPT_experiment_5_30_19,3.1.0,59.9556421839027,
,,,C,G,y,b,L,G,d,L,i,,,,,5,19,119,5,5,0,5,0,,,,,0,13,13,16,,,,,,up,0.7339145831956557,3191.022780007975,None,001,91,2019_Nov_04_1100,ACPT_experiment_5_30_19,3.1.0,59.9556421839027,
,,,C,G,y,b,R,U,g,L,u,,,,,5,19,119,5,5,0,5,0,,,,,0,14,14,10,,,,,,up,0.6338285850206375,3193.0409950794797,None,001,91,2019_Nov_04_1100,ACPT_experiment_5_30_19,3.1.0,59.9556421839027,
,,,C,G,y,b,L,D,d,R,c ,,,,,5,19,119,5,5,0,5,0,,,,,0,15,15,13,,,,,,up,0.8339658681725268,3194.9591141916308,None,001,91,2019_Nov_04_1100,ACPT_experiment_5_30_19,3.1.0,59.9556421839027,
,,,C,G,y,b,L,D,y,L,y,,,,,5,19,119,5,5,0,5,0,,,,,0,16,16,32,,,,,,down,0.8173068535024868,3197.0606838017047,None,001,91,2019_Nov_04_1100,ACPT_experiment_5_30_19,3.1.0,59.9556421839027,
,,,C,G,y,b,L,D,g,L,i,,,,,5,19,119,5,5,0,5,0,,,,,0,17,17,14,,,,,,up,0.6338349239522358,3199.1455925859855,None,001,91,2019_Nov_04_1100,ACPT_experiment_5_30_19,3.1.0,59.9556421839027,
,,,C,G,y,b,R,U,g,R,u,,,,,5,19,119,5,5,0,5,0,,,,,0,18,18,11,,,,,,up,0.6838352107133687,3201.0637461094807,None,001,91,2019_Nov_04_1100,ACPT_experiment_5_30_19,3.1.0,59.9556421839027,
,,,C,G,y,b,L,G,y,R,y,,,,,5,19,119,5,5,0,5,0,,,,,0,19,19,35,,,,,,down,0.6338059459785654,3203.0318893548506,None,001,91,2019_Nov_04_1100,ACPT_experiment_5_30_19,3.1.0,59.9556421839027,
,,,C,G,y,b,R,D,d,L,c,,,,,5,19,119,5,5,0,5,0,,,,,0,20,20,0,,,,,,up,0.50036931824161,3204.9500060521705,None,001,91,2019_Nov_04_1100,ACPT_experiment_5_30_19,3.1.0,59.9556421839027,
,,,C,G,y,b,L,G,g,L,c ,,,,,5,19,119,5,5,0,5,0,,,,,0,21,21,18,,,,,,up,0.4670328758134019,3206.734669217936,None,001,91,2019_Nov_04_1100,ACPT_experiment_5_30_19,3.1.0,59.9556421839027,
,,,C,G,y,b,L,D,g,R,i,,,,,5,19,119,5,5,0,5,0,,,,,0,22,22,15,,,,,,up,0.5303865752289312,3208.50603813441,None,001,91,2019_Nov_04_1100,ACPT_experiment_5_30_19,3.1.0,59.9556421839027,
,,,C,G,y,b,R,G,d,R,i,,,,,5,19,119,5,5,0,5,0,,,,,0,23,23,5,,,,,,up,0.8673300811597073,3210.3207306313184,None,001,91,2019_Nov_04_1100,ACPT_experiment_5_30_19,3.1.0,59.9556421839027,
,,,C,G,y,b,R,D,y,L,y,,,,,5,19,119,5,5,0,5,0,,,,,0,24,24,26,,,,,,down,1.36773441445348,3212.4890510045548,None,001,91,2019_Nov_04_1100,ACPT_experiment_5_30_19,3.1.0,59.9556421839027,
,,,C,G,y,b,R,U,y,R,u,,,,,5,19,119,5,5,0,5,0,,,,,0,25,25,31,,,,,,down,0.6671505384624652,3215.1410554200734,None,001,91,2019_Nov_04_1100,ACPT_experiment_5_30_19,3.1.0,59.9556421839027,
,,,C,G,y,b,R,D,g,L,i,,,,,5,19,119,5,5,0,5,0,,,,,0,26,26,2,,,,,,up,0.8506463144694862,3217.109199872859,None,001,91,2019_Nov_04_1100,ACPT_experiment_5_30_19,3.1.0,59.9556421839027,
,,,C,G,y,b,R,D,g,R,i,,,,,5,19,119,5,5,0,5,0,,,,,0,27,27,3,,,,,,up,0.6338421684463356,3219.2441527127157,None,001,91,2019_Nov_04_1100,ACPT_experiment_5_30_19,3.1.0,59.9556421839027,
,,,C,G,y,b,L,G,d,R,i,,,,,5,19,119,5,5,0,5,0,,,,,0,28,28,17,,,,,,up,0.9006849366755887,3221.1622672970584,None,001,91,2019_Nov_04_1100,ACPT_experiment_5_30_19,3.1.0,59.9556421839027,
,,,C,G,y,b,R,G,y,R,y,,,,,5,19,119,5,5,0,5,0,,,,,0,29,29,29,,,,,,down,0.6671695552572601,3223.347252722043,None,001,91,2019_Nov_04_1100,ACPT_experiment_5_30_19,3.1.0,59.9556421839027,
,,,C,G,y,b,R,U,d,L,u,,,,,5,19,119,5,5,0,5,0,,,,,0,30,30,8,,,,,,up,1.367704530917763,3225.298730311957,None,001,91,2019_Nov_04_1100,ACPT_experiment_5_30_19,3.1.0,59.9556421839027,
,,,C,G,y,b,L,U,d,L,u,,,,,5,19,119,5,5,0,5,0,,,,,0,31,31,20,,,,,,up,0.6838472848694437,3227.95073895343,None,001,91,2019_Nov_04_1100,ACPT_experiment_5_30_19,3.1.0,59.9556421839027,
,,,C,G,y,b,R,G,d,L,i,,,,,5,19,119,5,5,0,5,0,,,,,0,32,32,4,,,,,,up,1.084182825660264,3229.9188686153752,None,001,91,2019_Nov_04_1100,ACPT_experiment_5_30_19,3.1.0,59.9556421839027,
,,,C,G,y,b,R,D,d,R,c ,,,,,5,19,119,5,5,0,5,0,,,,,0,33,33,1,,,,,,up,0.8005065712081887,3232.287353438614,None,001,91,2019_Nov_04_1100,ACPT_experiment_5_30_19,3.1.0,59.9556421839027,
,,,C,G,y,b,L,D,y,R,y,,,,,5,19,119,5,5,0,5,0,,,,,0,34,34,33,,,,,,down,0.7172030459473717,3234.3722619210403,None,001,91,2019_Nov_04_1100,ACPT_experiment_5_30_19,3.1.0,59.9556421839027,
,,,C,G,y,b,R,D,y,R,y,,,,,5,19,119,5,5,0,5,0,,,,,0,35,35,27,,,,,,down,0.6004565238326904,3236.373770586813,None,001,91,2019_Nov_04_1100,ACPT_experiment_5_30_19,3.1.0,59.9556421839027,
,,,C,G,y,b,R,G,y,L,y,,,,,5,19,119,5,5,0,5,0,,,,,1,0,36,28,,,,,,down,1.0174326662063322,3238.2752134786215,None,001,91,2019_Nov_04_1100,ACPT_experiment_5_30_19,3.1.0,59.9556421839027,
,,,C,G,y,b,R,U,g,L,u,,,,,5,19,119,5,5,0,5,0,,,,,1,1,37,10,,,,,,up,0.9340343588219184,3240.610312053539,None,001,91,2019_Nov_04_1100,ACPT_experiment_5_30_19,3.1.0,59.9556421839027,
,,,C,G,y,b,L,D,g,L,i,,,,,5,19,119,5,5,0,5,0,,,,,1,2,38,14,,,,,,up,0.5837742664120924,3242.828655050725,None,001,91,2019_Nov_04_1100,ACPT_experiment_5_30_19,3.1.0,59.9556421839027,
,,,C,G,y,b,R,G,g,L,c ,,,,,5,19,119,5,5,0,5,0,,,,,1,3,39,6,,,,,,up,0.48372781109719654,3244.696738559209,None,001,91,2019_Nov_04_1100,ACPT_experiment_5_30_19,3.1.0,59.9556421839027,
,,,C,G,y,b,R,D,g,L,i,,,,,5,19,119,5,5,0,5,0,,,,,1,4,40,2,,,,,,up,0.5337287015663605,3246.464741804742,None,001,91,2019_Nov_04_1100,ACPT_experiment_5_30_19,3.1.0,59.9556421839027,
,,,C,G,y,b,R,D,d,L,c,,,,,5,19,119,5,5,0,5,0,,,,,1,5,41,0,,,,,,up,1.15088468849126,3248.266100811353,None,001,91,2019_Nov_04_1100,ACPT_experiment_5_30_19,3.1.0,59.9556421839027,
,,,C,G,y,b,L,D,d,L,c ,,,,,5,19,119,5,5,0,5,0,,,,,1,6,42,12,,,,,,up,0.5671397019073083,3250.701292930793,None,001,91,2019_Nov_04_1100,ACPT_experiment_5_30_19,3.1.0,59.9556421839027,
,,,C,G,y,b,L,U,y,L,u,,,,,5,19,119,5,5,0,5,0,,,,,1,7,43,24,,,,,,down,0.7005304478516337,3252.552676070623,None,001,91,2019_Nov_04_1100,ACPT_experiment_5_30_19,3.1.0,59.9556421839027,
,,,C,G,y,b,R,U,d,R,u,,,,,5,19,119,5,5,0,5,0,,,,,1,8,44,9,,,,,,up,0.7005213922348048,3254.537514553131,None,001,91,2019_Nov_04_1100,ACPT_experiment_5_30_19,3.1.0,59.9556421839027,
,,,C,G,y,b,L,G,y,R,y,,,,,5,19,119,5,5,0,5,0,,,,,1,9,45,35,,,,,,down,0.767296001854902,3256.5390032965465,None,001,91,2019_Nov_04_1100,ACPT_experiment_5_30_19,3.1.0,59.9556421839027,
,,,C,G,y,b,R,U,y,R,u,,,,,5,19,119,5,5,0,5,0,,,,,1,10,46,31,,,,,,down,0.550405827470513,3258.6072591032344,None,001,91,2019_Nov_04_1100,ACPT_experiment_5_30_19,3.1.0,59.9556421839027,
,,,C,G,y,b,R,G,y,R,y,,,,,5,19,119,5,5,0,5,0,,,,,1,11,47,29,,,,,,down,0.5504124682561269,3260.441975682046,None,001,91,2019_Nov_04_1100,ACPT_experiment_5_30_19,3.1.0,59.9556421839027,
,,,C,G,y,b,L,D,y,R,y,,,,,5,19,119,5,5,0,5,0,,,,,1,12,48,33,,,,,,down,0.46702049980376614,3262.276699203498,None,001,91,2019_Nov_04_1100,ACPT_experiment_5_30_19,3.1.0,59.9556421839027,
,,,C,G,y,b,L,U,d,L,u,,,,,5,19,119,5,5,0,5,0,,,,,1,13,49,20,,,,,,up,0.8336932941047053,3264.044971400853,None,001,91,2019_Nov_04_1100,ACPT_experiment_5_30_19,3.1.0,59.9556421839027,
,,,C,G,y,b,R,U,y,L,u,,,,,5,19,119,5,5,0,5,0,,,,,1,14,50,30,,,,,,down,0.6336384170658675,3266.1798243270696,None,001,91,2019_Nov_04_1100,ACPT_experiment_5_30_19,3.1.0,59.9556421839027,
,,,C,G,y,b,R,D,d,R,c ,,,,,5,19,119,5,5,0,5,0,,,,,1,15,51,1,,,,,,up,1.3843759215974387,3268.1144433768877,None,001,91,2019_Nov_04_1100,ACPT_experiment_5_30_19,3.1.0,59.9556421839027,
,,,C,G,y,b,R,D,g,R,i,,,,,5,19,119,5,5,0,5,0,,,,,1,16,52,3,,,,,,up,0.9340600164027819,3270.766432699712,None,001,91,2019_Nov_04_1100,ACPT_experiment_5_30_19,3.1.0,59.9556421839027,
,,,C,G,y,b,R,G,g,R,c ,,,,,5,19,119,5,5,0,5,0,,,,,1,17,53,7,,,,,,up,0.4503325071591462,3272.9681212100354,None,001,91,2019_Nov_04_1100,ACPT_experiment_5_30_19,3.1.0,59.9556421839027,
,,,C,G,y,b,L,G,g,L,c ,,,,,5,19,119,5,5,0,5,0,,,,,1,18,54,18,,,,,,up,0.6004402237217619,3274.686096096395,None,001,91,2019_Nov_04_1100,ACPT_experiment_5_30_19,3.1.0,59.9556421839027,
,,,C,G,y,b,L,G,y,L,y,,,,,5,19,119,5,5,0,5,0,,,,,1,19,55,34,,,,,,down,0.7005186755495743,3276.570847071459,None,001,91,2019_Nov_04_1100,ACPT_experiment_5_30_19,3.1.0,59.9556421839027,
,,,C,G,y,b,R,G,d,R,i,,,,,5,19,119,5,5,0,5,0,,,,,1,20,56,5,,,,,,up,0.7503088719990956,3278.6059662629973,None,001,91,2019_Nov_04_1100,ACPT_experiment_5_30_19,3.1.0,59.9556421839027,
,,,C,G,y,b,L,D,g,R,i,,,,,5,19,119,5,5,0,5,0,,,,,1,21,57,15,,,,,,up,0.567124609212442,3280.6405668695425,None,001,91,2019_Nov_04_1100,ACPT_experiment_5_30_19,3.1.0,59.9556421839027,
,,,C,G,y,b,R,D,y,L,y,,,,,5,19,119,5,5,0,5,0,,,,,1,22,58,26,,,,,,down,0.8506230717198378,3282.491998305996,None,001,91,2019_Nov_04_1100,ACPT_experiment_5_30_19,3.1.0,59.9556421839027,
,,,C,G,y,b,L,U,d,R,u,,,,,5,19,119,5,5,0,5,0,,,,,1,23,59,21,,,,,,up,0.6338213405269926,3284.6269215641705,None,001,91,2019_Nov_04_1100,ACPT_experiment_5_30_19,3.1.0,59.9556421839027,
,,,C,G,y,b,R,G,d,L,i,,,,,5,19,119,5,5,0,5,0,,,,,1,24,60,4,,,,,,up,0.6671659330108923,3286.545054259747,None,001,91,2019_Nov_04_1100,ACPT_experiment_5_30_19,3.1.0,59.9556421839027,
,,,C,G,y,b,L,U,y,R,u,,,,,5,19,119,5,5,0,5,0,,,,,1,25,61,25,,,,,,down,0.6838294754898016,3288.4965360756155,None,001,91,2019_Nov_04_1100,ACPT_experiment_5_30_19,3.1.0,59.9556421839027,
,,,C,G,y,b,L,G,d,L,i,,,,,5,19,119,5,5,0,5,0,,,,,1,26,62,16,,,,,,up,0.6838478885774748,3290.464686565479,None,001,91,2019_Nov_04_1100,ACPT_experiment_5_30_19,3.1.0,59.9556421839027,
,,,C,G,y,b,L,D,y,L,y,,,,,5,19,119,5,5,0,5,0,,,,,1,27,63,32,,,,,,down,0.7505431106224023,3292.449540442536,None,001,91,2019_Nov_04_1100,ACPT_experiment_5_30_19,3.1.0,59.9556421839027,
,,,C,G,y,b,L,U,g,L,u,,,,,5,19,119,5,5,0,5,0,,,,,1,28,64,22,,,,,,up,0.7505575996096923,3294.5010723359655,None,001,91,2019_Nov_04_1100,ACPT_experiment_5_30_19,3.1.0,59.9556421839027,
,,,C,G,y,b,R,U,d,L,u,,,,,5,19,119,5,5,0,5,0,,,,,1,29,65,8,,,,,,up,0.8673925649159173,3296.535945818433,None,001,91,2019_Nov_04_1100,ACPT_experiment_5_30_19,3.1.0,59.9556421839027,
,,,C,G,y,b,L,D,d,R,c ,,,,,5,19,119,5,5,0,5,0,,,,,1,30,66,13,,,,,,up,0.6338092663713724,3298.6875709545316,None,001,91,2019_Nov_04_1100,ACPT_experiment_5_30_19,3.1.0,59.9556421839027,
,,,C,G,y,b,L,G,d,R,i,,,,,5,19,119,5,5,0,5,0,,,,,1,31,67,17,,,,,,up,0.5337386627452361,3300.6056897648286,None,001,91,2019_Nov_04_1100,ACPT_experiment_5_30_19,3.1.0,59.9556421839027,
,,,C,G,y,b,R,D,y,R,y,,,,,5,19,119,5,5,0,5,0,,,,,1,32,68,27,,,,,,down,0.6671623107640698,3302.44041328628,None,001,91,2019_Nov_04_1100,ACPT_experiment_5_30_19,3.1.0,59.9556421839027,
,,,C,G,y,b,R,U,g,R,u,,,,,5,19,119,5,5,0,5,0,,,,,1,33,69,11,,,,,,up,0.6504894108143162,3304.4085640779977,None,001,91,2019_Nov_04_1100,ACPT_experiment_5_30_19,3.1.0,59.9556421839027,
