facing_vig,person_vig,text_vig,facing_train,person_train,food_train,correct_key_train,facing_exp,person_exp,food_exp,showL_R,consistent,vig_random.thisRepN,vig_random.thisTrialN,vig_random.thisN,vig_random.thisIndex,trainTrials.thisRepN,trainTrials.thisTrialN,trainTrials.thisN,trainTrials.thisIndex,expBlock.thisRepN,expBlock.thisTrialN,expBlock.thisN,expBlock.thisIndex,breakLoop.thisRepN,breakLoop.thisTrialN,breakLoop.thisN,breakLoop.thisIndex,expTrials.thisRepN,expTrials.thisTrialN,expTrials.thisN,expTrials.thisIndex,train_resp.keys,train_resp.corr,train_resp.rt,train_resp.started,train_resp.stopped,exp_resp.keys,exp_resp.rt,exp_resp.started,exp_resp.stopped,session,participant,date,expName,psychopyVersion,frameRate,
C,G,"cannot eat dairy products because she is lactose intolerant. She enjoys eating wheat products. She thinks eating insects, like crickets, is disgusting.",,,,,,,,,,0,0,0,0,,,,,,,,,,,,,,,,,,,,,,,,,,001,92,2019_Nov_04_1203,ACPT_experiment_5_30_19,3.1.0,59.965735013891,
C,U,"did not report her food preferences, so her food preferences are unknown.",,,,,,,,,,0,1,1,2,,,,,,,,,,,,,,,,,,,,,,,,,,001,92,2019_Nov_04_1203,ACPT_experiment_5_30_19,3.1.0,59.965735013891,
C,D,"is allergic to gluten, meaning she can’t eat wheat products. She enjoys eating dairy products. She thinks eating insects, like crickets, is disgusting.",,,,,,,,,,0,2,2,1,,,,,,,,,,,,,,,,,,,,,,,,,,001,92,2019_Nov_04_1203,ACPT_experiment_5_30_19,3.1.0,59.965735013891,
,,,C,G,g,v,,,,,,,,,,0,0,0,19,,,,,,,,,,,,,b,0,4.503204631887456,1449.5489822844966,None,,,,,001,92,2019_Nov_04_1203,ACPT_experiment_5_30_19,3.1.0,59.965735013891,
,,,C,G,g,v,,,,,,,,,,0,1,1,4,,,,,,,,,,,,,v,1,4.970467520370221,1457.3212857406334,None,,,,,001,92,2019_Nov_04_1203,ACPT_experiment_5_30_19,3.1.0,59.965735013891,
,,,C,U,g,n,,,,,,,,,,0,2,2,7,,,,,,,,,,,,,b,0,1.734700610741129,1465.577576602218,None,,,,,001,92,2019_Nov_04_1203,ACPT_experiment_5_30_19,3.1.0,59.965735013891,
,,,C,D,d,v,,,,,,,,,,0,3,3,18,,,,,,,,,,,,,b,0,6.20471187894691,1470.598027807384,None,,,,,001,92,2019_Nov_04_1203,ACPT_experiment_5_30_19,3.1.0,59.965735013891,
,,,C,D,d,v,,,,,,,,,,0,4,4,9,,,,,,,,,,,,,v,1,11.859030608286957,1480.0885449163125,None,,,,,001,92,2019_Nov_04_1203,ACPT_experiment_5_30_19,3.1.0,59.965735013891,
,,,C,D,g,b,,,,,,,,,,0,5,5,1,,,,,,,,,,,,,b,1,1.5345150309649398,1495.2166686136243,None,,,,,001,92,2019_Nov_04_1203,ACPT_experiment_5_30_19,3.1.0,59.965735013891,
,,,C,D,y,b,,,,,,,,,,0,6,6,11,,,,,,,,,,,,,b,1,7.539047970923093,1500.0369937042333,None,,,,,001,92,2019_Nov_04_1203,ACPT_experiment_5_30_19,3.1.0,59.965735013891,
,,,C,G,y,b,,,,,,,,,,0,7,7,14,,,,,,,,,,,,,v,0,6.821845830537313,1510.861855960754,None,,,,,001,92,2019_Nov_04_1203,ACPT_experiment_5_30_19,3.1.0,59.965735013891,
,,,C,G,g,v,,,,,,,,,,0,8,8,13,,,,,,,,,,,,,v,1,2.4519009400028153,1520.9528102748645,None,,,,,001,92,2019_Nov_04_1203,ACPT_experiment_5_30_19,3.1.0,59.965735013891,
,,,C,U,g,n,,,,,,,,,,0,9,9,16,,,,,,,,,,,,,n,1,2.0849238769751537,1526.6905146337258,None,,,,,001,92,2019_Nov_04_1203,ACPT_experiment_5_30_19,3.1.0,59.965735013891,
,,,C,D,g,b,,,,,,,,,,0,10,10,10,,,,,,,,,,,,,b,1,2.6520264508535547,1532.0612431369746,None,,,,,001,92,2019_Nov_04_1203,ACPT_experiment_5_30_19,3.1.0,59.965735013891,
,,,C,U,d,n,,,,,,,,,,0,11,11,6,,,,,,,,,,,,,v,0,6.504960817855135,1537.9990730066847,None,,,,,001,92,2019_Nov_04_1203,ACPT_experiment_5_30_19,3.1.0,59.965735013891,
,,,C,U,y,n,,,,,,,,,,0,12,12,8,,,,,,,,,,,,,n,1,1.2509462365005675,1547.789843884183,None,,,,,001,92,2019_Nov_04_1203,ACPT_experiment_5_30_19,3.1.0,59.965735013891,
,,,C,G,d,b,,,,,,,,,,0,13,13,12,,,,,,,,,,,,,b,1,1.8180774864986233,1552.32656939123,None,,,,,001,92,2019_Nov_04_1203,ACPT_experiment_5_30_19,3.1.0,59.965735013891,
,,,C,U,y,n,,,,,,,,,,0,14,14,17,,,,,,,,,,,,,n,1,2.6186565026418975,1557.4304548243945,None,,,,,001,92,2019_Nov_04_1203,ACPT_experiment_5_30_19,3.1.0,59.965735013891,
,,,C,G,d,b,,,,,,,,,,0,15,15,3,,,,,,,,,,,,,b,1,4.0530822150403765,1563.351609379325,None,,,,,001,92,2019_Nov_04_1203,ACPT_experiment_5_30_19,3.1.0,59.965735013891,
,,,C,D,d,v,,,,,,,,,,0,16,16,0,,,,,,,,,,,,,v,1,2.80215318421142,1570.6904968243462,None,,,,,001,92,2019_Nov_04_1203,ACPT_experiment_5_30_19,3.1.0,59.965735013891,
,,,C,U,d,n,,,,,,,,,,0,17,17,15,,,,,,,,,,,,,n,1,0.9507347274757194,1576.7617569828617,None,,,,,001,92,2019_Nov_04_1203,ACPT_experiment_5_30_19,3.1.0,59.965735013891,
,,,C,D,y,b,,,,,,,,,,0,18,18,2,,,,,,,,,,,,,b,1,5.120559842383955,1580.9983014681266,None,,,,,001,92,2019_Nov_04_1203,ACPT_experiment_5_30_19,3.1.0,59.965735013891,
,,,C,G,y,b,,,,,,,,,,0,19,19,5,,,,,,,,,,,,,v,0,2.9188921599788955,1589.4046671441993,None,,,,,001,92,2019_Nov_04_1203,ACPT_experiment_5_30_19,3.1.0,59.965735013891,
,,,C,G,g,v,,,,,,,,,,1,0,20,4,,,,,,,,,,,,,v,1,1.2009568164794473,1595.5926614488199,None,,,,,001,92,2019_Nov_04_1203,ACPT_experiment_5_30_19,3.1.0,59.965735013891,
,,,C,U,g,n,,,,,,,,,,1,1,21,7,,,,,,,,,,,,,n,1,0.9002958470036901,1600.0964936349574,None,,,,,001,92,2019_Nov_04_1203,ACPT_experiment_5_30_19,3.1.0,59.965735013891,
,,,C,U,d,n,,,,,,,,,,1,2,22,15,,,,,,,,,,,,,n,1,1.384413049626346,1604.2659154730609,None,,,,,001,92,2019_Nov_04_1203,ACPT_experiment_5_30_19,3.1.0,59.965735013891,
,,,C,D,g,b,,,,,,,,,,1,3,23,10,,,,,,,,,,,,,b,1,1.3007104735152097,1608.953092206404,None,,,,,001,92,2019_Nov_04_1203,ACPT_experiment_5_30_19,3.1.0,59.965735013891,
,,,C,G,y,b,,,,,,,,,,1,4,24,14,,,,,,,,,,,,,v,0,6.454903480707799,1613.5396018728225,None,,,,,001,92,2019_Nov_04_1203,ACPT_experiment_5_30_19,3.1.0,59.965735013891,
,,,C,G,g,v,,,,,,,,,,1,5,25,19,,,,,,,,,,,,,v,1,1.0174960555241341,1623.2636102148563,None,,,,,001,92,2019_Nov_04_1203,ACPT_experiment_5_30_19,3.1.0,59.965735013891,
,,,C,G,y,b,,,,,,,,,,1,6,26,5,,,,,,,,,,,,,b,1,1.497797523047666,1627.5869207914247,None,,,,,001,92,2019_Nov_04_1203,ACPT_experiment_5_30_19,3.1.0,59.965735013891,
,,,C,U,d,n,,,,,,,,,,1,7,27,6,,,,,,,,,,,,,n,1,0.950754649832561,1632.3705036220954,None,,,,,001,92,2019_Nov_04_1203,ACPT_experiment_5_30_19,3.1.0,59.965735013891,
,,,C,G,g,v,,,,,,,,,,1,8,28,13,,,,,,,,,,,,,v,1,0.7002790035558064,1636.624001127726,None,,,,,001,92,2019_Nov_04_1203,ACPT_experiment_5_30_19,3.1.0,59.965735013891,
,,,C,D,g,b,,,,,,,,,,1,9,29,1,,,,,,,,,,,,,b,1,2.2350469880866513,1640.610091700195,None,,,,,001,92,2019_Nov_04_1203,ACPT_experiment_5_30_19,3.1.0,59.965735013891,
,,,C,D,d,v,,,,,,,,,,1,10,30,9,,,,,,,,,,,,,v,1,2.502002649673159,1646.1142616608422,None,,,,,001,92,2019_Nov_04_1203,ACPT_experiment_5_30_19,3.1.0,59.965735013891,
,,,C,D,y,b,,,,,,,,,,1,11,31,2,,,,,,,,,,,,,b,1,2.2183614102732463,1651.9019759657886,None,,,,,001,92,2019_Nov_04_1203,ACPT_experiment_5_30_19,3.1.0,59.965735013891,
,,,C,G,d,b,,,,,,,,,,1,12,32,3,,,,,,,,,,,,,b,1,1.41775009576304,1657.4061447190206,None,,,,,001,92,2019_Nov_04_1203,ACPT_experiment_5_30_19,3.1.0,59.965735013891,
,,,C,G,d,b,,,,,,,,,,1,13,33,12,,,,,,,,,,,,,b,1,3.235528445050477,1662.1099771466415,None,,,,,001,92,2019_Nov_04_1203,ACPT_experiment_5_30_19,3.1.0,59.965735013891,
,,,C,D,d,v,,,,,,,,,,1,14,34,0,,,,,,,,,,,,,v,1,1.5845406734542848,1668.6313177643133,None,,,,,001,92,2019_Nov_04_1203,ACPT_experiment_5_30_19,3.1.0,59.965735013891,
,,,C,U,g,n,,,,,,,,,,1,15,35,16,,,,,,,,,,,,,n,1,1.4010569716019745,1673.5016757419035,None,,,,,001,92,2019_Nov_04_1203,ACPT_experiment_5_30_19,3.1.0,59.965735013891,
,,,C,D,y,b,,,,,,,,,,1,16,36,11,,,,,,,,,,,,,b,1,0.866923785815743,1678.2056298166444,None,,,,,001,92,2019_Nov_04_1203,ACPT_experiment_5_30_19,3.1.0,59.965735013891,
,,,C,D,d,v,,,,,,,,,,1,17,37,18,,,,,,,,,,,,,v,1,1.551191553161516,1682.3416853287836,None,,,,,001,92,2019_Nov_04_1203,ACPT_experiment_5_30_19,3.1.0,59.965735013891,
,,,C,U,y,n,,,,,,,,,,1,18,38,8,,,,,,,,,,,,,b,0,0.8840425239695833,1687.1786799989495,None,,,,,001,92,2019_Nov_04_1203,ACPT_experiment_5_30_19,3.1.0,59.965735013891,
,,,C,U,y,n,,,,,,,,,,1,19,39,17,,,,,,,,,,,,,n,1,1.5478910826623178,1691.3685065567188,None,,,,,001,92,2019_Nov_04_1203,ACPT_experiment_5_30_19,3.1.0,59.965735013891,
,,,C,U,d,n,,,,,,,,,,2,0,40,6,,,,,,,,,,,,,n,1,1.6012479847477152,1696.1854756357116,None,,,,,001,92,2019_Nov_04_1203,ACPT_experiment_5_30_19,3.1.0,59.965735013891,
,,,C,D,d,v,,,,,,,,,,2,1,41,9,,,,,,,,,,,,,v,1,2.4351897046090016,1701.072529454148,None,,,,,001,92,2019_Nov_04_1203,ACPT_experiment_5_30_19,3.1.0,59.965735013891,
,,,C,G,g,v,,,,,,,,,,2,2,42,4,,,,,,,,,,,,,v,1,1.1342220515743975,1706.79350597565,None,,,,,001,92,2019_Nov_04_1203,ACPT_experiment_5_30_19,3.1.0,59.965735013891,
,,,C,D,g,b,,,,,,,,,,2,3,43,10,,,,,,,,,,,,,b,1,2.268395202816464,1711.2135613296177,None,,,,,001,92,2019_Nov_04_1203,ACPT_experiment_5_30_19,3.1.0,59.965735013891,
,,,C,U,y,n,,,,,,,,,,2,4,44,17,,,,,,,,,,,,,b,0,0.7839393201229541,1716.767742141913,None,,,,,001,92,2019_Nov_04_1203,ACPT_experiment_5_30_19,3.1.0,59.965735013891,
,,,C,U,d,n,,,,,,,,,,2,5,45,15,,,,,,,,,,,,,n,1,1.1308838493368967,1720.857489946001,None,,,,,001,92,2019_Nov_04_1203,ACPT_experiment_5_30_19,3.1.0,59.965735013891,
,,,C,G,g,v,,,,,,,,,,2,6,46,19,,,,,,,,,,,,,v,1,1.4010805162060933,1725.2741832512738,None,,,,,001,92,2019_Nov_04_1203,ACPT_experiment_5_30_19,3.1.0,59.965735013891,
,,,C,D,d,v,,,,,,,,,,2,7,47,0,,,,,,,,,,,,,b,0,7.505705189562832,1729.961063865945,None,,,,,001,92,2019_Nov_04_1203,ACPT_experiment_5_30_19,3.1.0,59.965735013891,
,,,C,G,d,b,,,,,,,,,,2,8,48,12,,,,,,,,,,,,,b,1,1.3009987439863835,1740.7525582872322,None,,,,,001,92,2019_Nov_04_1203,ACPT_experiment_5_30_19,3.1.0,59.965735013891,
,,,C,G,g,v,,,,,,,,,,2,9,49,13,,,,,,,,,,,,,v,1,0.7169594498536753,1745.356325242743,None,,,,,001,92,2019_Nov_04_1203,ACPT_experiment_5_30_19,3.1.0,59.965735013891,
,,,C,D,y,b,,,,,,,,,,2,10,50,11,,,,,,,,,,,,,b,1,1.1342009218014937,1749.359075131736,None,,,,,001,92,2019_Nov_04_1203,ACPT_experiment_5_30_19,3.1.0,59.965735013891,
,,,C,D,y,b,,,,,,,,,,2,11,51,2,,,,,,,,,,,,,b,1,1.200918481035842,1753.7790867168887,None,,,,,001,92,2019_Nov_04_1203,ACPT_experiment_5_30_19,3.1.0,59.965735013891,
,,,C,G,y,b,,,,,,,,,,2,12,52,5,,,,,,,,,,,,,b,1,1.5345044660789426,1758.265817370544,None,,,,,001,92,2019_Nov_04_1203,ACPT_experiment_5_30_19,3.1.0,59.965735013891,
,,,C,G,y,b,,,,,,,,,,2,13,53,14,,,,,,,,,,,,,b,1,0.8508271249538666,1763.0692990137522,None,,,,,001,92,2019_Nov_04_1203,ACPT_experiment_5_30_19,3.1.0,59.965735013891,
,,,C,U,g,n,,,,,,,,,,2,14,54,16,,,,,,,,,,,,,n,1,1.2840765127175473,1767.2228388091135,None,,,,,001,92,2019_Nov_04_1203,ACPT_experiment_5_30_19,3.1.0,59.965735013891,
,,,C,U,y,n,,,,,,,,,,2,15,55,8,,,,,,,,,,,,,n,1,1.1842383365910791,1771.7927229666439,None,,,,,001,92,2019_Nov_04_1203,ACPT_experiment_5_30_19,3.1.0,59.965735013891,
,,,C,D,d,v,,,,,,,,,,2,16,56,18,,,,,,,,,,,,,v,1,2.8021380915170084,1776.2627683443397,None,,,,,001,92,2019_Nov_04_1203,ACPT_experiment_5_30_19,3.1.0,59.965735013891,
,,,C,U,g,n,,,,,,,,,,2,17,57,7,,,,,,,,,,,,,n,1,1.3176885477532778,1782.3507261548248,None,,,,,001,92,2019_Nov_04_1203,ACPT_experiment_5_30_19,3.1.0,59.965735013891,
,,,C,D,g,b,,,,,,,,,,2,18,58,1,,,,,,,,,,,,,b,1,2.635104219585628,1786.9711418619736,None,,,,,001,92,2019_Nov_04_1203,ACPT_experiment_5_30_19,3.1.0,59.965735013891,
,,,C,G,d,b,,,,,,,,,,2,19,59,3,,,,,,,,,,,,,b,1,1.901450438156644,1792.892018107611,None,,,,,001,92,2019_Nov_04_1203,ACPT_experiment_5_30_19,3.1.0,59.965735013891,
,,,C,G,g,v,,,,,,,,,,3,0,60,19,,,,,,,,,,,,,v,1,1.117545831231837,1798.0792755868715,None,,,,,001,92,2019_Nov_04_1203,ACPT_experiment_5_30_19,3.1.0,59.965735013891,
,,,C,G,d,b,,,,,,,,,,3,1,61,3,,,,,,,,,,,,,b,1,1.334085855095509,1802.4828826201883,None,,,,,001,92,2019_Nov_04_1203,ACPT_experiment_5_30_19,3.1.0,59.965735013891,
,,,C,G,y,b,,,,,,,,,,3,2,62,5,,,,,,,,,,,,,b,1,1.084164714427061,1807.0860941645296,None,,,,,001,92,2019_Nov_04_1203,ACPT_experiment_5_30_19,3.1.0,59.965735013891,
,,,C,U,g,n,,,,,,,,,,3,3,63,16,,,,,,,,,,,,,n,1,1.0005291498800943,1811.4729896605986,None,,,,,001,92,2019_Nov_04_1203,ACPT_experiment_5_30_19,3.1.0,59.965735013891,
,,,C,D,y,b,,,,,,,,,,3,4,64,2,,,,,,,,,,,,,b,1,0.8506728776128512,1815.759328870121,None,,,,,001,92,2019_Nov_04_1203,ACPT_experiment_5_30_19,3.1.0,59.965735013891,
,,,C,U,y,n,,,,,,,,,,3,5,65,8,,,,,,,,,,,,,b,0,0.6838454737462598,1819.9124777646875,None,,,,,001,92,2019_Nov_04_1203,ACPT_experiment_5_30_19,3.1.0,59.965735013891,
,,,C,D,g,b,,,,,,,,,,3,6,66,1,,,,,,,,,,,,,b,1,3.569444658257453,1823.8821420518398,None,,,,,001,92,2019_Nov_04_1203,ACPT_experiment_5_30_19,3.1.0,59.965735013891,
,,,C,G,d,b,,,,,,,,,,3,7,67,12,,,,,,,,,,,,,b,1,2.4685515027640577,1830.7373228155357,None,,,,,001,92,2019_Nov_04_1203,ACPT_experiment_5_30_19,3.1.0,59.965735013891,
,,,C,D,y,b,,,,,,,,,,3,8,68,11,,,,,,,,,,,,,b,1,1.3176764735972029,1836.4916792464273,None,,,,,001,92,2019_Nov_04_1203,ACPT_experiment_5_30_19,3.1.0,59.965735013891,
,,,C,G,y,b,,,,,,,,,,3,9,69,14,,,,,,,,,,,,,b,1,1.1005740959244577,1841.112115177787,None,,,,,001,92,2019_Nov_04_1203,ACPT_experiment_5_30_19,3.1.0,59.965735013891,
,,,C,U,g,n,,,,,,,,,,3,10,70,7,,,,,,,,,,,,,n,1,1.0007736515353827,1845.498494201839,None,,,,,001,92,2019_Nov_04_1203,ACPT_experiment_5_30_19,3.1.0,59.965735013891,
,,,C,U,d,n,,,,,,,,,,3,11,71,6,,,,,,,,,,,,,n,1,0.6669120738843048,1849.7853444500088,None,,,,,001,92,2019_Nov_04_1203,ACPT_experiment_5_30_19,3.1.0,59.965735013891,
,,,C,G,g,v,,,,,,,,,,3,12,72,13,,,,,,,,,,,,,v,1,1.100826143928316,1853.7380937503867,None,,,,,001,92,2019_Nov_04_1203,ACPT_experiment_5_30_19,3.1.0,59.965735013891,
,,,C,D,d,v,,,,,,,,,,3,13,73,18,,,,,,,,,,,,,v,1,2.6853858341783052,1858.124715766825,None,,,,,001,92,2019_Nov_04_1203,ACPT_experiment_5_30_19,3.1.0,59.965735013891,
,,,C,D,d,v,,,,,,,,,,3,14,74,0,,,,,,,,,,,,,v,1,1.2511149728288729,1864.0790691188067,None,,,,,001,92,2019_Nov_04_1203,ACPT_experiment_5_30_19,3.1.0,59.965735013891,
,,,C,U,y,n,,,,,,,,,,3,15,75,17,,,,,,,,,,,,,n,1,3.8526633022029273,1868.6329363049035,None,,,,,001,92,2019_Nov_04_1203,ACPT_experiment_5_30_19,3.1.0,59.965735013891,
,,,C,U,d,n,,,,,,,,,,3,16,76,15,,,,,,,,,,,,,n,1,1.6846426698848518,1875.754721674106,None,,,,,001,92,2019_Nov_04_1203,ACPT_experiment_5_30_19,3.1.0,59.965735013891,
,,,C,D,d,v,,,,,,,,,,3,17,77,9,,,,,,,,,,,,,v,1,2.0515681158976804,1880.7251511608847,None,,,,,001,92,2019_Nov_04_1203,ACPT_experiment_5_30_19,3.1.0,59.965735013891,
,,,C,D,g,b,,,,,,,,,,3,18,78,10,,,,,,,,,,,,,b,1,3.102359561720732,1886.0458440604662,None,,,,,001,92,2019_Nov_04_1203,ACPT_experiment_5_30_19,3.1.0,59.965735013891,
,,,C,G,g,v,,,,,,,,,,3,19,79,4,,,,,,,,,,,,,v,1,11.391988375002256,1892.434011870706,None,,,,,001,92,2019_Nov_04_1203,ACPT_experiment_5_30_19,3.1.0,59.965735013891,
,,,C,U,g,n,,,,,,,,,,4,0,80,7,,,,,,,,,,,,,n,1,1.5011634958427749,1907.1117861570401,None,,,,,001,92,2019_Nov_04_1203,ACPT_experiment_5_30_19,3.1.0,59.965735013891,
,,,C,D,y,b,,,,,,,,,,4,1,81,2,,,,,,,,,,,,,b,1,1.3510361587768784,1911.898737073484,None,,,,,001,92,2019_Nov_04_1203,ACPT_experiment_5_30_19,3.1.0,59.965735013891,
,,,C,G,d,b,,,,,,,,,,4,2,82,12,,,,,,,,,,,,,b,1,1.4341582698461934,1916.5525305770452,None,,,,,001,92,2019_Nov_04_1203,ACPT_experiment_5_30_19,3.1.0,59.965735013891,
,,,C,U,y,n,,,,,,,,,,4,3,83,17,,,,,,,,,,,,,n,1,1.1509043089945408,1921.2724753619304,None,,,,,001,92,2019_Nov_04_1203,ACPT_experiment_5_30_19,3.1.0,59.965735013891,
,,,C,D,d,v,,,,,,,,,,4,4,84,0,,,,,,,,,,,,,v,1,1.9512991942610824,1925.7260322724069,None,,,,,001,92,2019_Nov_04_1203,ACPT_experiment_5_30_19,3.1.0,59.965735013891,
,,,C,U,d,n,,,,,,,,,,4,5,85,15,,,,,,,,,,,,,n,1,0.9507425756773955,1930.9631502800748,None,,,,,001,92,2019_Nov_04_1203,ACPT_experiment_5_30_19,3.1.0,59.965735013891,
,,,C,G,g,v,,,,,,,,,,4,6,86,19,,,,,,,,,,,,,v,1,1.0005010774675611,1935.2166565394682,None,,,,,001,92,2019_Nov_04_1203,ACPT_experiment_5_30_19,3.1.0,59.965735013891,
,,,C,U,d,n,,,,,,,,,,4,7,87,6,,,,,,,,,,,,,n,1,1.3175487893995523,1939.502958017254,None,,,,,001,92,2019_Nov_04_1203,ACPT_experiment_5_30_19,3.1.0,59.965735013891,
,,,C,G,d,b,,,,,,,,,,4,8,88,3,,,,,,,,,,,,,b,1,1.1675672477658736,1944.106441230103,None,,,,,001,92,2019_Nov_04_1203,ACPT_experiment_5_30_19,3.1.0,59.965735013891,
,,,C,G,g,v,,,,,,,,,,4,9,89,4,,,,,,,,,,,,,v,1,0.8840047922330996,1948.5431405060453,None,,,,,001,92,2019_Nov_04_1203,ACPT_experiment_5_30_19,3.1.0,59.965735013891,
,,,C,D,y,b,,,,,,,,,,4,10,90,11,,,,,,,,,,,,,b,1,1.1506341497579342,1952.729905661602,None,,,,,001,92,2019_Nov_04_1203,ACPT_experiment_5_30_19,3.1.0,59.965735013891,
,,,C,G,y,b,,,,,,,,,,4,11,91,14,,,,,,,,,,,,,b,1,1.1842383365910791,1957.1663187800514,None,,,,,001,92,2019_Nov_04_1203,ACPT_experiment_5_30_19,3.1.0,59.965735013891,
,,,C,U,y,n,,,,,,,,,,4,12,92,8,,,,,,,,,,,,,n,1,1.5009606500243535,1961.6532121329565,None,,,,,001,92,2019_Nov_04_1203,ACPT_experiment_5_30_19,3.1.0,59.965735013891,
,,,C,D,g,b,,,,,,,,,,4,13,93,1,,,,,,,,,,,,,b,1,1.2342772606516519,1966.440006085374,None,,,,,001,92,2019_Nov_04_1203,ACPT_experiment_5_30_19,3.1.0,59.965735013891,
,,,C,G,g,v,,,,,,,,,,4,14,94,13,,,,,,,,,,,,,v,1,1.0171800144944427,1970.9770422000802,None,,,,,001,92,2019_Nov_04_1203,ACPT_experiment_5_30_19,3.1.0,59.965735013891,
,,,C,G,y,b,,,,,,,,,,4,15,95,5,,,,,,,,,,,,,b,1,1.4511155161662828,1975.2633479038204,None,,,,,001,92,2019_Nov_04_1203,ACPT_experiment_5_30_19,3.1.0,59.965735013891,
,,,C,D,d,v,,,,,,,,,,4,16,96,9,,,,,,,,,,,,,v,1,1.2510232092445221,1980.0002695555286,None,,,,,001,92,2019_Nov_04_1203,ACPT_experiment_5_30_19,3.1.0,59.965735013891,
,,,C,U,g,n,,,,,,,,,,4,17,97,16,,,,,,,,,,,,,n,1,3.1688452971611696,1984.553956232996,None,,,,,001,92,2019_Nov_04_1203,ACPT_experiment_5_30_19,3.1.0,59.965735013891,
,,,C,D,d,v,,,,,,,,,,4,18,98,18,,,,,,,,,,,,,v,1,1.8514145326353173,1991.008597704522,None,,,,,001,92,2019_Nov_04_1203,ACPT_experiment_5_30_19,3.1.0,59.965735013891,
,,,C,D,g,b,,,,,,,,,,4,19,99,10,,,,,,,,,,,,,b,1,2.4852576066423353,1996.1458153541607,None,,,,,001,92,2019_Nov_04_1203,ACPT_experiment_5_30_19,3.1.0,59.965735013891,
,,,C,G,g,v,,,,,,,,,,5,0,100,4,,,,,,,,,,,,,v,1,0.9507096736024323,2001.9168646073585,None,,,,,001,92,2019_Nov_04_1203,ACPT_experiment_5_30_19,3.1.0,59.965735013891,
,,,C,G,y,b,,,,,,,,,,5,1,101,5,,,,,,,,,,,,,b,1,1.3343466568621807,2006.1533988295914,None,,,,,001,92,2019_Nov_04_1203,ACPT_experiment_5_30_19,3.1.0,59.965735013891,
,,,C,D,y,b,,,,,,,,,,5,2,102,11,,,,,,,,,,,,,b,1,1.084142377238095,2010.7735739591844,None,,,,,001,92,2019_Nov_04_1203,ACPT_experiment_5_30_19,3.1.0,59.965735013891,
,,,C,D,y,b,,,,,,,,,,5,3,103,2,,,,,,,,,,,,,b,1,1.0505390959651777,2015.143794442326,None,,,,,001,92,2019_Nov_04_1203,ACPT_experiment_5_30_19,3.1.0,59.965735013891,
,,,C,D,d,v,,,,,,,,,,5,4,104,9,,,,,,,,,,,,,v,1,6.671722115717785,2019.463470094278,None,,,,,001,92,2019_Nov_04_1203,ACPT_experiment_5_30_19,3.1.0,59.965735013891,
,,,C,U,d,n,,,,,,,,,,5,5,105,15,,,,,,,,,,,,,n,1,4.586845026096853,2029.4209907991908,None,,,,,001,92,2019_Nov_04_1203,ACPT_experiment_5_30_19,3.1.0,59.965735013891,
,,,C,D,g,b,,,,,,,,,,5,6,106,1,,,,,,,,,,,,,b,1,12.326002811467333,2037.2936184162263,None,,,,,001,92,2019_Nov_04_1203,ACPT_experiment_5_30_19,3.1.0,59.965735013891,
,,,C,G,d,b,,,,,,,,,,5,7,107,12,,,,,,,,,,,,,b,1,2.885533380362176,2052.9054189113276,None,,,,,001,92,2019_Nov_04_1203,ACPT_experiment_5_30_19,3.1.0,59.965735013891,
,,,C,D,g,b,,,,,,,,,,5,8,108,10,,,,,,,,,,,,,b,1,6.755137326920703,2059.0767584272326,None,,,,,001,92,2019_Nov_04_1203,ACPT_experiment_5_30_19,3.1.0,59.965735013891,
,,,C,G,g,v,,,,,,,,,,5,9,109,19,,,,,,,,,,,,,v,1,1.7679670230654665,2069.1177061156504,None,,,,,001,92,2019_Nov_04_1203,ACPT_experiment_5_30_19,3.1.0,59.965735013891,
,,,C,G,g,v,,,,,,,,,,5,10,110,13,,,,,,,,,,,,,v,1,0.8173062497944557,2074.154845917169,None,,,,,001,92,2019_Nov_04_1203,ACPT_experiment_5_30_19,3.1.0,59.965735013891,
,,,C,U,d,n,,,,,,,,,,5,11,111,6,,,,,,,,,,,,,n,1,1.0672636129311286,2078.2748630262477,None,,,,,001,92,2019_Nov_04_1203,ACPT_experiment_5_30_19,3.1.0,59.965735013891,
,,,C,G,d,b,,,,,,,,,,5,12,112,3,,,,,,,,,,,,,b,1,0.9841179572576948,2082.6279131542187,None,,,,,001,92,2019_Nov_04_1203,ACPT_experiment_5_30_19,3.1.0,59.965735013891,
,,,C,G,y,b,,,,,,,,,,5,13,113,14,,,,,,,,,,,,,b,1,1.2507104886080924,2086.9147329151447,None,,,,,001,92,2019_Nov_04_1203,ACPT_experiment_5_30_19,3.1.0,59.965735013891,
,,,C,U,g,n,,,,,,,,,,5,14,114,16,,,,,,,,,,,,,n,1,4.069782885548193,2091.4512507467107,None,,,,,001,92,2019_Nov_04_1203,ACPT_experiment_5_30_19,3.1.0,59.965735013891,
,,,C,U,y,n,,,,,,,,,,5,15,115,17,,,,,,,,,,,,,n,1,1.2676384550995863,2098.7901369843166,None,,,,,001,92,2019_Nov_04_1203,ACPT_experiment_5_30_19,3.1.0,59.965735013891,
,,,C,D,d,v,,,,,,,,,,5,16,116,0,,,,,,,,,,,,,v,1,1.7847208198591034,2103.343582178666,None,,,,,001,92,2019_Nov_04_1203,ACPT_experiment_5_30_19,3.1.0,59.965735013891,
,,,C,U,y,n,,,,,,,,,,5,17,117,8,,,,,,,,,,,,,n,1,1.1342090718562758,2108.4140840801947,None,,,,,001,92,2019_Nov_04_1203,ACPT_experiment_5_30_19,3.1.0,59.965735013891,
,,,C,D,d,v,,,,,,,,,,5,18,118,18,,,,,,,,,,,,,v,1,1.1342238626966719,2112.8340872134386,None,,,,,001,92,2019_Nov_04_1203,ACPT_experiment_5_30_19,3.1.0,59.965735013891,
,,,C,U,g,n,,,,,,,,,,5,19,119,7,0,0,0,0,0,0,0,0,,,,,n,1,1.2508288153348985,2117.2541108727473,None,,,,,001,92,2019_Nov_04_1203,ACPT_experiment_5_30_19,3.1.0,59.965735013891,
,,,C,U,g,n,L,U,y,L,u,,,,,5,19,119,7,0,0,0,0,,,,,0,0,0,24,,,,,,down,1.1341969977011104,2162.1380718961645,None,001,92,2019_Nov_04_1203,ACPT_experiment_5_30_19,3.1.0,59.965735013891,
,,,C,U,g,n,L,D,y,L,y,,,,,5,19,119,7,0,0,0,0,,,,,0,1,1,32,,,,,,down,0.8006070885558074,2164.5565657599273,None,001,92,2019_Nov_04_1203,ACPT_experiment_5_30_19,3.1.0,59.965735013891,
,,,C,U,g,n,R,G,y,R,y,,,,,5,19,119,7,0,0,0,0,,,,,0,2,2,29,,,,,,down,1.0007621810882483,2166.6414739405,None,001,92,2019_Nov_04_1203,ACPT_experiment_5_30_19,3.1.0,59.965735013891,
,,,C,U,g,n,R,U,y,L,u,,,,,5,19,119,7,0,0,0,0,,,,,0,3,3,30,,,,,,down,0.6171360645676032,2168.9265384210203,None,001,92,2019_Nov_04_1203,ACPT_experiment_5_30_19,3.1.0,59.965735013891,
,,,C,U,g,n,L,G,y,L,y,,,,,5,19,119,7,0,0,0,0,,,,,0,4,4,34,,,,,,down,0.3836197775872279,2170.82797829429,None,001,92,2019_Nov_04_1203,ACPT_experiment_5_30_19,3.1.0,59.965735013891,
,,,C,U,g,n,L,D,d,L,c ,,,,,5,19,119,7,0,0,0,0,,,,,0,5,5,12,,,,,,up,0.7503130979539492,2172.512841015666,None,001,92,2019_Nov_04_1203,ACPT_experiment_5_30_19,3.1.0,59.965735013891,
,,,C,U,g,n,R,D,d,L,c,,,,,5,19,119,7,0,0,0,0,,,,,0,6,6,0,,,,,,up,0.8673077439707413,2174.5474739205774,None,001,92,2019_Nov_04_1203,ACPT_experiment_5_30_19,3.1.0,59.965735013891,
,,,C,U,g,n,L,D,y,R,y,,,,,5,19,119,7,0,0,0,0,,,,,0,7,7,33,,,,,,down,0.8506665386803434,2176.6990664564555,None,001,92,2019_Nov_04_1203,ACPT_experiment_5_30_19,3.1.0,59.965735013891,
,,,C,U,g,n,L,G,y,R,y,,,,,5,19,119,7,0,0,0,0,,,,,0,8,8,35,,,,,,down,0.5837682293340549,2178.834034992715,None,001,92,2019_Nov_04_1203,ACPT_experiment_5_30_19,3.1.0,59.965735013891,
,,,C,U,g,n,L,U,g,L,u,,,,,5,19,119,7,0,0,0,0,,,,,0,9,9,22,,,,,,up,1.2842754344355853,2180.702136914286,None,001,92,2019_Nov_04_1203,ACPT_experiment_5_30_19,3.1.0,59.965735013891,
,,,C,U,g,n,R,U,d,R,u,,,,,5,19,119,7,0,0,0,0,,,,,0,10,10,9,,,,,,up,1.2509305400981248,2183.270742116859,None,001,92,2019_Nov_04_1203,ACPT_experiment_5_30_19,3.1.0,59.965735013891,
,,,C,U,g,n,L,U,d,L,u,,,,,5,19,119,7,0,0,0,0,,,,,0,11,11,20,,,,,,up,0.617135460859572,2185.8059779749283,None,001,92,2019_Nov_04_1203,ACPT_experiment_5_30_19,3.1.0,59.965735013891,
,,,C,U,g,n,L,D,g,L,i,,,,,5,19,119,7,0,0,0,0,,,,,0,12,12,14,,,,,,up,0.7338913404455525,2187.707415433367,None,001,92,2019_Nov_04_1203,ACPT_experiment_5_30_19,3.1.0,59.965735013891,
,,,C,U,g,n,R,G,d,R,i,,,,,5,19,119,7,0,0,0,0,,,,,0,13,13,5,,,,,,up,0.9506022136147294,2189.7256096769524,None,001,92,2019_Nov_04_1203,ACPT_experiment_5_30_19,3.1.0,59.965735013891,
,,,C,U,g,n,R,D,d,R,c ,,,,,5,19,119,7,0,0,0,0,,,,,0,14,14,1,,,,,,up,0.45032435710345453,2191.9606500242535,None,001,92,2019_Nov_04_1203,ACPT_experiment_5_30_19,3.1.0,59.965735013891,
,,,C,U,g,n,L,G,d,L,i,,,,,5,19,119,7,0,0,0,0,,,,,0,15,15,16,,,,,,up,0.8673723407046054,2193.6952615880955,None,001,92,2019_Nov_04_1203,ACPT_experiment_5_30_19,3.1.0,59.965735013891,
,,,C,U,g,n,R,G,g,R,c ,,,,,5,19,119,7,0,0,0,0,,,,,0,16,16,7,,,,,,up,2.251728641799673,2195.846912381775,None,001,92,2019_Nov_04_1203,ACPT_experiment_5_30_19,3.1.0,59.965735013891,
,,,C,U,g,n,L,U,y,R,u,,,,,5,19,119,7,0,0,0,0,,,,,0,17,17,25,,,,,,down,0.9673895161913606,2199.3829218913797,None,001,92,2019_Nov_04_1203,ACPT_experiment_5_30_19,3.1.0,59.965735013891,
,,,C,U,g,n,R,D,y,R,y,,,,,5,19,119,7,0,0,0,0,,,,,0,18,18,27,,,,,,down,0.45033341272119287,2201.6346194422276,None,001,92,2019_Nov_04_1203,ACPT_experiment_5_30_19,3.1.0,59.965735013891,
,,,C,U,g,n,L,U,g,R,u,,,,,5,19,119,7,0,0,0,0,,,,,0,19,19,23,,,,,,up,0.8006046737245924,2203.369265719268,None,001,92,2019_Nov_04_1203,ACPT_experiment_5_30_19,3.1.0,59.965735013891,
,,,C,U,g,n,L,D,d,R,c ,,,,,5,19,119,7,0,0,0,0,,,,,0,20,20,13,,,,,,down,0.300245618514964,2205.454158807145,None,001,92,2019_Nov_04_1203,ACPT_experiment_5_30_19,3.1.0,59.965735013891,
,,,C,U,g,n,L,D,g,R,i,,,,,5,19,119,7,0,0,0,0,,,,,0,21,21,15,,,,,,up,1.351048232932044,2207.0220096768317,None,001,92,2019_Nov_04_1203,ACPT_experiment_5_30_19,3.1.0,59.965735013891,
,,,C,U,g,n,R,G,y,L,y,,,,,5,19,119,7,0,0,0,0,,,,,0,22,22,28,,,,,,down,1.7846990863781684,2209.6740364295392,None,001,92,2019_Nov_04_1203,ACPT_experiment_5_30_19,3.1.0,59.965735013891,
,,,C,U,g,n,R,D,y,L,y,,,,,5,19,119,7,0,0,0,0,,,,,0,23,23,26,,,,,,down,0.7172045552169948,2212.759704074514,None,001,92,2019_Nov_04_1203,ACPT_experiment_5_30_19,3.1.0,59.965735013891,
,,,C,U,g,n,R,D,g,R,i,,,,,5,19,119,7,0,0,0,0,,,,,0,24,24,3,,,,,,up,0.5170542923469839,2214.761233870059,None,001,92,2019_Nov_04_1203,ACPT_experiment_5_30_19,3.1.0,59.965735013891,
,,,C,U,g,n,R,G,d,L,i,,,,,5,19,119,7,0,0,0,0,,,,,0,25,25,4,,,,,,up,0.6337968903617366,2216.562588047008,None,001,92,2019_Nov_04_1203,ACPT_experiment_5_30_19,3.1.0,59.965735013891,
,,,C,U,g,n,L,G,g,L,c ,,,,,5,19,119,7,0,0,0,0,,,,,0,26,26,18,,,,,,up,0.4303316680052376,2218.5007058853353,None,001,92,2019_Nov_04_1203,ACPT_experiment_5_30_19,3.1.0,59.965735013891,
,,,C,U,g,n,R,G,g,L,c ,,,,,5,19,119,7,0,0,0,0,,,,,0,27,27,6,,,,,,up,0.4169830850132712,2220.2153386453583,None,001,92,2019_Nov_04_1203,ACPT_experiment_5_30_19,3.1.0,59.965735013891,
,,,C,U,g,n,R,U,y,R,u,,,,,5,19,119,7,0,0,0,0,,,,,0,28,28,31,,,,,,down,0.6004489774850299,2221.9333114187402,None,001,92,2019_Nov_04_1203,ACPT_experiment_5_30_19,3.1.0,59.965735013891,
,,,C,U,g,n,L,G,g,R,c ,,,,,5,19,119,7,0,0,0,0,,,,,0,29,29,19,,,,,,down,1.1508982719160485,2223.8347470660556,None,001,92,2019_Nov_04_1203,ACPT_experiment_5_30_19,3.1.0,59.965735013891,
,,,C,U,g,n,R,D,g,L,i,,,,,5,19,119,7,0,0,0,0,,,,,0,30,30,2,,,,,,up,1.8013674585199624,2226.2699274131937,None,001,92,2019_Nov_04_1203,ACPT_experiment_5_30_19,3.1.0,59.965735013891,
,,,C,U,g,n,R,U,g,L,u,,,,,5,19,119,7,0,0,0,0,,,,,0,31,31,10,,,,,,up,1.5011420642158555,2229.3556355065903,None,001,92,2019_Nov_04_1203,ACPT_experiment_5_30_19,3.1.0,59.965735013891,
,,,C,U,g,n,L,G,d,R,i,,,,,5,19,119,7,0,0,0,0,,,,,0,32,32,17,,,,,,up,2.0682349787693965,2232.141033384739,None,001,92,2019_Nov_04_1203,ACPT_experiment_5_30_19,3.1.0,59.965735013891,
,,,C,U,g,n,R,U,g,R,u,,,,,5,19,119,7,0,0,0,0,,,,,0,33,33,11,,,,,,up,0.6171538739472453,2235.493567946255,None,001,92,2019_Nov_04_1203,ACPT_experiment_5_30_19,3.1.0,59.965735013891,
,,,C,U,g,n,L,U,d,R,u,,,,,5,19,119,7,0,0,0,0,,,,,0,34,34,21,,,,,,up,0.383615551632829,2237.3950144603104,None,001,92,2019_Nov_04_1203,ACPT_experiment_5_30_19,3.1.0,59.965735013891,
,,,C,U,g,n,R,U,d,L,u,,,,,5,19,119,7,0,0,0,0,,,,,0,35,35,8,,,,,,up,0.6504833737371882,2239.06293955587,None,001,92,2019_Nov_04_1203,ACPT_experiment_5_30_19,3.1.0,59.965735013891,
,,,C,U,g,n,L,G,y,L,y,,,,,5,19,119,7,0,0,0,0,,,,,1,0,36,34,,,,,,up,0.6338288868746531,2240.9977170789834,None,001,92,2019_Nov_04_1203,ACPT_experiment_5_30_19,3.1.0,59.965735013891,
,,,C,U,g,n,R,G,d,L,i,,,,,5,19,119,7,0,0,0,0,,,,,1,1,37,4,,,,,,up,1.3843997680551183,2242.9158301540565,None,001,92,2019_Nov_04_1203,ACPT_experiment_5_30_19,3.1.0,59.965735013891,
,,,C,U,g,n,R,G,d,R,i,,,,,5,19,119,7,0,0,0,0,,,,,1,2,38,5,,,,,,up,1.3344930560024295,2245.58438461499,None,001,92,2019_Nov_04_1203,ACPT_experiment_5_30_19,3.1.0,59.965735013891,
,,,C,U,g,n,R,D,y,R,y,,,,,5,19,119,7,0,0,0,0,,,,,1,3,39,27,,,,,,down,0.8006212756890818,2248.2031688018296,None,001,92,2019_Nov_04_1203,ACPT_experiment_5_30_19,3.1.0,59.965735013891,
,,,C,U,g,n,R,U,y,L,u,,,,,5,19,119,7,0,0,0,0,,,,,1,4,40,30,,,,,,down,0.7839236237205114,2250.2880978103212,None,001,92,2019_Nov_04_1203,ACPT_experiment_5_30_19,3.1.0,59.965735013891,
,,,C,U,g,n,L,D,y,R,y,,,,,5,19,119,7,0,0,0,0,,,,,1,5,41,33,,,,,,down,0.7672793998899579,2252.356304414824,None,001,92,2019_Nov_04_1203,ACPT_experiment_5_30_19,3.1.0,59.965735013891,
,,,C,U,g,n,R,D,d,L,c,,,,,5,19,119,7,0,0,0,0,,,,,1,6,42,0,,,,,,up,0.883986982852548,2254.4078999994263,None,001,92,2019_Nov_04_1203,ACPT_experiment_5_30_19,3.1.0,59.965735013891,
,,,C,U,g,n,R,D,g,L,i,,,,,5,19,119,7,0,0,0,0,,,,,1,7,43,2,,,,,,up,0.7839305663592313,2256.5595049113135,None,001,92,2019_Nov_04_1203,ACPT_experiment_5_30_19,3.1.0,59.965735013891,
,,,C,U,g,n,L,U,g,R,u,,,,,5,19,119,7,0,0,0,0,,,,,1,8,44,23,,,,,,up,0.8673192144187851,2258.62774200306,None,001,92,2019_Nov_04_1203,ACPT_experiment_5_30_19,3.1.0,59.965735013891,
,,,C,U,g,n,L,D,d,R,c ,,,,,5,19,119,7,0,0,0,0,,,,,1,9,45,13,,,,,,up,1.4511010271780833,2260.779363818766,None,001,92,2019_Nov_04_1203,ACPT_experiment_5_30_19,3.1.0,59.965735013891,
,,,C,U,g,n,R,U,g,L,u,,,,,5,19,119,7,0,0,0,0,,,,,1,10,46,10,,,,,,up,0.9840826403524261,2263.514768654646,None,001,92,2019_Nov_04_1203,ACPT_experiment_5_30_19,3.1.0,59.965735013891,
,,,C,U,g,n,R,U,d,L,u,,,,,5,19,119,7,0,0,0,0,,,,,1,11,47,8,,,,,,up,0.6505060127792603,2265.7664523202147,None,001,92,2019_Nov_04_1203,ACPT_experiment_5_30_19,3.1.0,59.965735013891,
,,,C,U,g,n,L,D,d,L,c ,,,,,5,19,119,7,0,0,0,0,,,,,1,12,48,12,,,,,,up,0.767245894107873,2267.684589241746,None,001,92,2019_Nov_04_1203,ACPT_experiment_5_30_19,3.1.0,59.965735013891,
,,,C,U,g,n,L,G,y,R,y,,,,,5,19,119,7,0,0,0,0,,,,,1,13,49,35,,,,,,down,0.5170853832987632,2269.736138038994,None,001,92,2019_Nov_04_1203,ACPT_experiment_5_30_19,3.1.0,59.965735013891,
,,,C,U,g,n,R,G,g,L,c ,,,,,5,19,119,7,0,0,0,0,,,,,1,14,50,6,,,,,,up,0.7670013924525847,2271.554428634343,None,001,92,2019_Nov_04_1203,ACPT_experiment_5_30_19,3.1.0,59.965735013891,
,,,C,U,g,n,R,G,y,L,y,,,,,5,19,119,7,0,0,0,0,,,,,1,15,51,28,,,,,,down,0.7005654629028868,2273.6057549652696,None,001,92,2019_Nov_04_1203,ACPT_experiment_5_30_19,3.1.0,59.965735013891,
,,,C,U,g,n,L,G,d,L,i,,,,,5,19,119,7,0,0,0,0,,,,,1,16,52,16,,,,,,up,0.5170678757722271,2275.590572318005,None,001,92,2019_Nov_04_1203,ACPT_experiment_5_30_19,3.1.0,59.965735013891,
,,,C,U,g,n,L,U,g,L,u,,,,,5,19,119,7,0,0,0,0,,,,,1,17,53,22,,,,,,up,0.9507359348917817,2277.39193162647,None,001,92,2019_Nov_04_1203,ACPT_experiment_5_30_19,3.1.0,59.965735013891,
,,,C,U,g,n,L,D,y,L,y,,,,,5,19,119,7,0,0,0,0,,,,,1,18,54,32,,,,,,down,0.7172093848785153,2279.6269644274234,None,001,92,2019_Nov_04_1203,ACPT_experiment_5_30_19,3.1.0,59.965735013891,
,,,C,U,g,n,L,D,g,R,i,,,,,5,19,119,7,0,0,0,0,,,,,1,19,55,15,,,,,,up,0.8172872329996608,2281.6284694709493,None,001,92,2019_Nov_04_1203,ACPT_experiment_5_30_19,3.1.0,59.965735013891,
,,,C,U,g,n,L,U,d,R,u,,,,,5,19,119,7,0,0,0,0,,,,,1,20,56,21,,,,,,up,1.3843846753607068,2283.730057192258,None,001,92,2019_Nov_04_1203,ACPT_experiment_5_30_19,3.1.0,59.965735013891,
,,,C,U,g,n,R,U,y,R,u,,,,,5,19,119,7,0,0,0,0,,,,,1,21,57,31,,,,,,down,0.6504875996915871,2286.398745978174,None,001,92,2019_Nov_04_1203,ACPT_experiment_5_30_19,3.1.0,59.965735013891,
,,,C,U,g,n,L,U,y,R,u,,,,,5,19,119,7,0,0,0,0,,,,,1,22,58,25,,,,,,down,0.9173702126345233,2288.3502265866273,None,001,92,2019_Nov_04_1203,ACPT_experiment_5_30_19,3.1.0,59.965735013891,
,,,C,U,g,n,L,G,g,L,c ,,,,,5,19,119,7,0,0,0,0,,,,,1,23,59,18,,,,,,up,0.6171191607500077,2290.568580752407,None,001,92,2019_Nov_04_1203,ACPT_experiment_5_30_19,3.1.0,59.965735013891,
,,,C,U,g,n,R,G,g,R,c ,,,,,5,19,119,7,0,0,0,0,,,,,1,24,60,7,,,,,,down,0.6004598442250426,2292.470002212589,None,001,92,2019_Nov_04_1203,ACPT_experiment_5_30_19,3.1.0,59.965735013891,
,,,C,U,g,n,L,U,d,L,u,,,,,5,19,119,7,0,0,0,0,,,,,1,25,61,20,,,,,,up,1.5178228123668305,2294.354762846977,None,001,92,2019_Nov_04_1203,ACPT_experiment_5_30_19,3.1.0,59.965735013891,
,,,C,U,g,n,R,G,y,R,y,,,,,5,19,119,7,0,0,0,0,,,,,1,26,62,29,,,,,,up,0.400296299783804,2297.1568846383834,None,001,92,2019_Nov_04_1203,ACPT_experiment_5_30_19,3.1.0,59.965735013891,
,,,C,U,g,n,R,D,y,L,y,,,,,5,19,119,7,0,0,0,0,,,,,1,27,63,26,,,,,,down,0.767219029111402,2298.8415188563595,None,001,92,2019_Nov_04_1203,ACPT_experiment_5_30_19,3.1.0,59.965735013891,
,,,C,U,g,n,R,U,g,R,u,,,,,5,19,119,7,0,0,0,0,,,,,1,28,64,11,,,,,,up,0.6838844128988057,2300.89304380715,None,001,92,2019_Nov_04_1203,ACPT_experiment_5_30_19,3.1.0,59.965735013891,
,,,C,U,g,n,L,D,g,L,i,,,,,5,19,119,7,0,0,0,0,,,,,1,29,65,14,,,,,,up,1.1842482977708642,2302.861198221114,None,001,92,2019_Nov_04_1203,ACPT_experiment_5_30_19,3.1.0,59.965735013891,
,,,C,U,g,n,L,G,g,R,c ,,,,,5,19,119,7,0,0,0,0,,,,,1,30,66,19,,,,,,up,0.5003995036313427,2305.3297083698953,None,001,92,2019_Nov_04_1203,ACPT_experiment_5_30_19,3.1.0,59.965735013891,
,,,C,U,g,n,R,U,d,R,u,,,,,5,19,119,7,0,0,0,0,,,,,1,31,67,9,,,,,,up,0.5504145812328716,2307.1144165118912,None,001,92,2019_Nov_04_1203,ACPT_experiment_5_30_19,3.1.0,59.965735013891,
,,,C,U,g,n,L,U,y,L,u,,,,,5,19,119,7,0,0,0,0,,,,,1,32,68,24,,,,,,down,0.733913375780503,2308.9491152813234,None,001,92,2019_Nov_04_1203,ACPT_experiment_5_30_19,3.1.0,59.965735013891,
,,,C,U,g,n,R,D,g,R,i,,,,,5,19,119,7,0,0,0,0,,,,,1,33,69,3,,,,,,up,0.5170570090331239,2310.9673333713663,None,001,92,2019_Nov_04_1203,ACPT_experiment_5_30_19,3.1.0,59.965735013891,
,,,C,U,g,n,L,G,d,R,i,,,,,5,19,119,7,0,0,0,0,,,,,1,34,70,17,,,,,,up,0.45006989426929067,2312.7856463039043,None,001,92,2019_Nov_04_1203,ACPT_experiment_5_30_19,3.1.0,59.965735013891,
,,,C,U,g,n,R,D,d,R,c ,,,,,5,19,119,7,0,0,0,0,,,,,1,35,71,1,,,,,,up,0.8172920626611813,2314.5200151772133,None,001,92,2019_Nov_04_1203,ACPT_experiment_5_30_19,3.1.0,59.965735013891,
,,,C,U,g,n,,,,,,,,,,5,19,119,7,1,0,1,0,0,0,0,0,,,,,,,,,,,,,,001,92,2019_Nov_04_1203,ACPT_experiment_5_30_19,3.1.0,59.965735013891,
,,,C,U,g,n,R,U,y,R,u,,,,,5,19,119,7,1,0,1,0,,,,,0,0,0,31,,,,,,down,0.7169316792942482,2319.5907996139886,None,001,92,2019_Nov_04_1203,ACPT_experiment_5_30_19,3.1.0,59.965735013891,
,,,C,U,g,n,R,G,g,R,c ,,,,,5,19,119,7,1,0,1,0,,,,,0,1,1,7,,,,,,up,0.46701899053459783,2321.592057439174,None,001,92,2019_Nov_04_1203,ACPT_experiment_5_30_19,3.1.0,59.965735013891,
,,,C,U,g,n,L,G,g,L,c ,,,,,5,19,119,7,1,0,1,0,,,,,0,2,2,18,,,,,,up,0.4837211703115827,2323.343359108637,None,001,92,2019_Nov_04_1203,ACPT_experiment_5_30_19,3.1.0,59.965735013891,
,,,C,U,g,n,L,G,y,L,y,,,,,5,19,119,7,1,0,1,0,,,,,0,3,3,34,,,,,,down,0.6338651093419685,2325.094661985516,None,001,92,2019_Nov_04_1203,ACPT_experiment_5_30_19,3.1.0,59.965735013891,
,,,C,U,g,n,L,G,g,R,c ,,,,,5,19,119,7,1,0,1,0,,,,,0,4,4,19,,,,,,up,0.5837923776462048,2326.9961015569315,None,001,92,2019_Nov_04_1203,ACPT_experiment_5_30_19,3.1.0,59.965735013891,
,,,C,U,g,n,R,D,d,L,c,,,,,5,19,119,7,1,0,1,0,,,,,0,5,5,0,,,,,,up,0.6338095682258427,2328.8642061951887,None,001,92,2019_Nov_04_1203,ACPT_experiment_5_30_19,3.1.0,59.965735013891,
,,,C,U,g,n,L,G,y,R,y,,,,,5,19,119,7,1,0,1,0,,,,,0,6,6,35,,,,,,down,0.7005084125166832,2330.7990196389164,None,001,92,2019_Nov_04_1203,ACPT_experiment_5_30_19,3.1.0,59.965735013891,
,,,C,U,g,n,R,U,d,R,u,,,,,5,19,119,7,1,0,1,0,,,,,0,7,7,9,,,,,,up,0.6004408274302477,2332.817202412054,None,001,92,2019_Nov_04_1203,ACPT_experiment_5_30_19,3.1.0,59.965735013891,
,,,C,U,g,n,R,D,y,R,y,,,,,5,19,119,7,1,0,1,0,,,,,0,8,8,27,,,,,,down,0.4837045683480028,2334.7019464444775,None,001,92,2019_Nov_04_1203,ACPT_experiment_5_30_19,3.1.0,59.965735013891,
,,,C,U,g,n,R,D,d,R,c ,,,,,5,19,119,7,1,0,1,0,,,,,0,9,9,1,,,,,,up,0.650472506996266,2336.4699723290532,None,001,92,2019_Nov_04_1203,ACPT_experiment_5_30_19,3.1.0,59.965735013891,
,,,C,U,g,n,R,G,g,L,c ,,,,,5,19,119,7,1,0,1,0,,,,,0,10,10,6,,,,,,up,0.8506686516575428,2338.4047549836832,None,001,92,2019_Nov_04_1203,ACPT_experiment_5_30_19,3.1.0,59.965735013891,
,,,C,U,g,n,R,D,g,R,i,,,,,5,19,119,7,1,0,1,0,,,,,0,11,11,3,,,,,,up,1.067479136613656,2340.5396984660692,None,001,92,2019_Nov_04_1203,ACPT_experiment_5_30_19,3.1.0,59.965735013891,
,,,C,U,g,n,L,U,y,L,u,,,,,5,19,119,7,1,0,1,0,,,,,0,12,12,24,,,,,,down,0.7505603162944681,2342.891489259586,None,001,92,2019_Nov_04_1203,ACPT_experiment_5_30_19,3.1.0,59.965735013891,
,,,C,U,g,n,R,G,y,R,y,,,,,5,19,119,7,1,0,1,0,,,,,0,13,13,29,,,,,,down,0.7005219959428359,2344.9096856161486,None,001,92,2019_Nov_04_1203,ACPT_experiment_5_30_19,3.1.0,59.965735013891,
,,,C,U,g,n,R,U,y,L,u,,,,,5,19,119,7,1,0,1,0,,,,,0,14,14,30,,,,,,down,0.7338846996599386,2346.877835502304,None,001,92,2019_Nov_04_1203,ACPT_experiment_5_30_19,3.1.0,59.965735013891,
,,,C,U,g,n,R,U,d,L,u,,,,,5,19,119,7,1,0,1,0,,,,,0,15,15,8,,,,,,up,0.8504492038755416,2348.8961891247473,None,001,92,2019_Nov_04_1203,ACPT_experiment_5_30_19,3.1.0,59.965735013891,
,,,C,U,g,n,R,G,d,L,i,,,,,5,19,119,7,1,0,1,0,,,,,0,16,16,4,,,,,,up,0.517050066392585,2351.030974133838,None,001,92,2019_Nov_04_1203,ACPT_experiment_5_30_19,3.1.0,59.965735013891,
,,,C,U,g,n,L,D,y,R,y,,,,,5,19,119,7,1,0,1,0,,,,,0,17,17,33,,,,,,down,0.7005358812211853,2352.8323295182017,None,001,92,2019_Nov_04_1203,ACPT_experiment_5_30_19,3.1.0,59.965735013891,
,,,C,U,g,n,R,U,g,L,u,,,,,5,19,119,7,1,0,1,0,,,,,0,18,18,10,,,,,,up,0.6504809589050637,2354.817178565596,None,001,92,2019_Nov_04_1203,ACPT_experiment_5_30_19,3.1.0,59.965735013891,
,,,C,U,g,n,L,D,g,L,i,,,,,5,19,119,7,1,0,1,0,,,,,0,19,19,14,,,,,,up,0.6004547127095066,2356.7519657480343,None,001,92,2019_Nov_04_1203,ACPT_experiment_5_30_19,3.1.0,59.965735013891,
,,,C,U,g,n,L,U,d,R,u,,,,,5,19,119,7,1,0,1,0,,,,,0,20,20,21,,,,,,up,1.1842169049659788,2358.6367414751176,None,001,92,2019_Nov_04_1203,ACPT_experiment_5_30_19,3.1.0,59.965735013891,
,,,C,U,g,n,L,G,d,R,i,,,,,5,19,119,7,1,0,1,0,,,,,0,21,21,17,,,,,,up,0.4002944886606201,2361.1052621887848,None,001,92,2019_Nov_04_1203,ACPT_experiment_5_30_19,3.1.0,59.965735013891,
,,,C,U,g,n,L,U,g,R,u,,,,,5,19,119,7,1,0,1,0,,,,,0,22,22,23,,,,,,up,0.500371733072825,2362.7898728621576,None,001,92,2019_Nov_04_1203,ACPT_experiment_5_30_19,3.1.0,59.965735013891,
,,,C,U,g,n,L,D,y,L,y,,,,,5,19,119,7,1,0,1,0,,,,,0,23,23,32,,,,,,down,0.8172902515370879,2364.574552931741,None,001,92,2019_Nov_04_1203,ACPT_experiment_5_30_19,3.1.0,59.965735013891,
,,,C,U,g,n,R,D,y,L,y,,,,,5,19,119,7,1,0,1,0,,,,,0,24,24,26,,,,,,down,0.8506324291902274,2366.692824721592,None,001,92,2019_Nov_04_1203,ACPT_experiment_5_30_19,3.1.0,59.965735013891,
,,,C,U,g,n,L,D,d,R,c ,,,,,5,19,119,7,1,0,1,0,,,,,0,25,25,13,,,,,,up,0.7505859738757863,2368.844451668814,None,001,92,2019_Nov_04_1203,ACPT_experiment_5_30_19,3.1.0,59.965735013891,
,,,C,U,g,n,R,G,d,R,i,,,,,5,19,119,7,1,0,1,0,,,,,0,26,26,5,,,,,,up,0.5337540572936632,2370.8793230383044,None,001,92,2019_Nov_04_1203,ACPT_experiment_5_30_19,3.1.0,59.965735013891,
,,,C,U,g,n,L,G,d,L,i,,,,,5,19,119,7,1,0,1,0,,,,,0,27,27,16,,,,,,up,0.7172093848794248,2372.697366113459,None,001,92,2019_Nov_04_1203,ACPT_experiment_5_30_19,3.1.0,59.965735013891,
,,,C,U,g,n,L,U,d,L,u,,,,,5,19,119,7,1,0,1,0,,,,,0,28,28,20,,,,,,up,0.7002732683322392,2374.7158326292592,None,001,92,2019_Nov_04_1203,ACPT_experiment_5_30_19,3.1.0,59.965735013891,
,,,C,U,g,n,R,G,y,L,y,,,,,5,19,119,7,1,0,1,0,,,,,0,29,29,28,,,,,,down,0.7005536906008274,2376.700368956017,None,001,92,2019_Nov_04_1203,ACPT_experiment_5_30_19,3.1.0,59.965735013891,
,,,C,U,g,n,L,D,d,L,c ,,,,,5,19,119,7,1,0,1,0,,,,,0,30,30,12,,,,,,up,1.0174408162611144,2378.6852243423427,None,001,92,2019_Nov_04_1203,ACPT_experiment_5_30_19,3.1.0,59.965735013891,
,,,C,U,g,n,R,U,g,R,u,,,,,5,19,119,7,1,0,1,0,,,,,0,31,31,11,,,,,,up,0.8673189125656791,2380.986967458037,None,001,92,2019_Nov_04_1203,ACPT_experiment_5_30_19,3.1.0,59.965735013891,
,,,C,U,g,n,R,D,g,L,i,,,,,5,19,119,7,1,0,1,0,,,,,0,32,32,2,,,,,,up,1.034112206941245,2383.138595008966,None,001,92,2019_Nov_04_1203,ACPT_experiment_5_30_19,3.1.0,59.965735013891,
,,,C,U,g,n,L,U,y,R,u,,,,,5,19,119,7,1,0,1,0,,,,,0,33,33,25,,,,,,down,0.7338747384819726,2385.4738484349327,None,001,92,2019_Nov_04_1203,ACPT_experiment_5_30_19,3.1.0,59.965735013891,
,,,C,U,g,n,L,U,g,L,u,,,,,5,19,119,7,1,0,1,0,,,,,0,34,34,22,,,,,,up,0.7470856760974129,2387.5287224547,None,001,92,2019_Nov_04_1203,ACPT_experiment_5_30_19,3.1.0,59.965735013891,
,,,C,U,g,n,L,D,g,R,i,,,,,5,19,119,7,1,0,1,0,,,,,0,35,35,15,,,,,,up,0.7506185740967339,2389.560116769161,None,001,92,2019_Nov_04_1203,ACPT_experiment_5_30_19,3.1.0,59.965735013891,
,,,C,U,g,n,R,D,y,R,y,,,,,5,19,119,7,1,0,1,0,,,,,1,0,36,27,,,,,,down,0.9674115515254016,2391.5949908553357,None,001,92,2019_Nov_04_1203,ACPT_experiment_5_30_19,3.1.0,59.965735013891,
,,,C,U,g,n,R,U,y,L,u,,,,,5,19,119,7,1,0,1,0,,,,,1,1,37,30,,,,,,down,0.7503616964304456,2393.8802237703303,None,001,92,2019_Nov_04_1203,ACPT_experiment_5_30_19,3.1.0,59.965735013891,
,,,C,U,g,n,L,G,d,L,i,,,,,5,19,119,7,1,0,1,0,,,,,1,2,38,16,,,,,,up,1.6679223788751187,2395.931605642373,None,001,92,2019_Nov_04_1203,ACPT_experiment_5_30_19,3.1.0,59.965735013891,
,,,C,U,g,n,R,U,d,L,u,,,,,5,19,119,7,1,0,1,0,,,,,1,3,39,8,,,,,,up,0.5003771664432861,2398.8838408855663,None,001,92,2019_Nov_04_1203,ACPT_experiment_5_30_19,3.1.0,59.965735013891,
,,,C,U,g,n,L,U,g,L,u,,,,,5,19,119,7,1,0,1,0,,,,,1,4,40,22,,,,,,up,0.5003753553201022,2400.6685197477345,None,001,92,2019_Nov_04_1203,ACPT_experiment_5_30_19,3.1.0,59.965735013891,
,,,C,U,g,n,L,G,y,R,y,,,,,5,19,119,7,1,0,1,0,,,,,1,5,41,35,,,,,,down,0.48369853126951057,2402.4532058543955,None,001,92,2019_Nov_04_1203,ACPT_experiment_5_30_19,3.1.0,59.965735013891,
,,,C,U,g,n,L,D,d,R,c ,,,,,5,19,119,7,1,0,1,0,,,,,1,6,42,13,,,,,,up,0.5170539904929683,2404.2212106091984,None,001,92,2019_Nov_04_1203,ACPT_experiment_5_30_19,3.1.0,59.965735013891,
,,,C,U,g,n,R,U,y,R,u,,,,,5,19,119,7,1,0,1,0,,,,,1,7,43,31,,,,,,down,0.5837778886580054,2406.022572936202,None,001,92,2019_Nov_04_1203,ACPT_experiment_5_30_19,3.1.0,59.965735013891,
,,,C,U,g,n,R,G,y,L,y,,,,,5,19,119,7,1,0,1,0,,,,,1,8,44,28,,,,,,down,0.8670680719778829,2407.9076061446585,None,001,92,2019_Nov_04_1203,ACPT_experiment_5_30_19,3.1.0,59.965735013891,
,,,C,U,g,n,R,D,d,R,c ,,,,,5,19,119,7,1,0,1,0,,,,,1,9,45,1,,,,,,up,0.48369551273026445,2410.058958102981,None,001,92,2019_Nov_04_1203,ACPT_experiment_5_30_19,3.1.0,59.965735013891,
,,,C,U,g,n,R,U,g,R,u,,,,,5,19,119,7,1,0,1,0,,,,,1,10,46,11,,,,,,up,0.5003762608812394,2411.826964367053,None,001,92,2019_Nov_04_1203,ACPT_experiment_5_30_19,3.1.0,59.965735013891,
,,,C,U,g,n,R,D,g,R,i,,,,,5,19,119,7,1,0,1,0,,,,,1,11,47,3,,,,,,up,0.5337700555501215,2413.5949648959013,None,001,92,2019_Nov_04_1203,ACPT_experiment_5_30_19,3.1.0,59.965735013891,
,,,C,U,g,n,L,D,y,R,y,,,,,5,19,119,7,1,0,1,0,,,,,1,12,48,33,,,,,,down,0.4503424683371122,2415.4130070654937,None,001,92,2019_Nov_04_1203,ACPT_experiment_5_30_19,3.1.0,59.965735013891,
,,,C,U,g,n,L,U,y,R,u,,,,,5,19,119,7,1,0,1,0,,,,,1,13,49,25,,,,,,down,0.7005238070660198,2417.147655757365,None,001,92,2019_Nov_04_1203,ACPT_experiment_5_30_19,3.1.0,59.965735013891,
,,,C,U,g,n,L,G,g,L,c ,,,,,5,19,119,7,1,0,1,0,,,,,1,14,50,18,,,,,,up,0.6338249627733603,2419.132492126895,None,001,92,2019_Nov_04_1203,ACPT_experiment_5_30_19,3.1.0,59.965735013891,
,,,C,U,g,n,R,U,d,R,u,,,,,5,19,119,7,1,0,1,0,,,,,1,15,51,9,,,,,,up,0.9171109201379295,2421.0675437333466,None,001,92,2019_Nov_04_1203,ACPT_experiment_5_30_19,3.1.0,59.965735013891,
,,,C,U,g,n,R,G,d,R,i,,,,,5,19,119,7,1,0,1,0,,,,,1,16,52,5,,,,,,up,0.400303846132374,2423.2689542362323,None,001,92,2019_Nov_04_1203,ACPT_experiment_5_30_19,3.1.0,59.965735013891,
,,,C,U,g,n,L,G,y,L,y,,,,,5,19,119,7,1,0,1,0,,,,,1,17,53,34,,,,,,down,0.8339553032865297,2424.9702387151165,None,001,92,2019_Nov_04_1203,ACPT_experiment_5_30_19,3.1.0,59.965735013891,
,,,C,U,g,n,L,D,y,L,y,,,,,5,19,119,7,1,0,1,0,,,,,1,18,54,32,,,,,,down,0.5837691348951921,2427.105185216041,None,001,92,2019_Nov_04_1203,ACPT_experiment_5_30_19,3.1.0,59.965735013891,
,,,C,U,g,n,R,G,g,R,c ,,,,,5,19,119,7,1,0,1,0,,,,,1,19,55,7,,,,,,up,1.768013810418779,2428.9732641967166,None,001,92,2019_Nov_04_1203,ACPT_experiment_5_30_19,3.1.0,59.965735013891,
,,,C,U,g,n,L,U,d,L,u,,,,,5,19,119,7,1,0,1,0,,,,,1,20,56,20,,,,,,up,1.551265205512209,2432.0255727602216,None,001,92,2019_Nov_04_1203,ACPT_experiment_5_30_19,3.1.0,59.965735013891,
,,,C,U,g,n,R,G,d,L,i,,,,,5,19,119,7,1,0,1,0,,,,,1,21,57,4,,,,,,up,0.8506405792450096,2434.86105453866,None,001,92,2019_Nov_04_1203,ACPT_experiment_5_30_19,3.1.0,59.965735013891,
,,,C,U,g,n,R,D,g,L,i,,,,,5,19,119,7,1,0,1,0,,,,,1,22,58,2,,,,,,up,0.48370185166186275,2436.995998926607,None,001,92,2019_Nov_04_1203,ACPT_experiment_5_30_19,3.1.0,59.965735013891,
,,,C,U,g,n,R,G,y,R,y,,,,,5,19,119,7,1,0,1,0,,,,,1,23,59,29,,,,,,down,0.650491825645986,2438.7640097184876,None,001,92,2019_Nov_04_1203,ACPT_experiment_5_30_19,3.1.0,59.965735013891,
,,,C,U,g,n,L,G,g,R,c ,,,,,5,19,119,7,1,0,1,0,,,,,1,24,60,19,,,,,,up,0.46702140536490333,2440.6988017305885,None,001,92,2019_Nov_04_1203,ACPT_experiment_5_30_19,3.1.0,59.965735013891,
,,,C,U,g,n,L,U,g,R,u,,,,,5,19,119,7,1,0,1,0,,,,,1,25,61,23,,,,,,up,0.36695804623286676,2442.450123926117,None,001,92,2019_Nov_04_1203,ACPT_experiment_5_30_19,3.1.0,59.965735013891,
,,,C,U,g,n,R,D,y,L,y,,,,,5,19,119,7,1,0,1,0,,,,,1,26,62,26,,,,,,down,0.3502655257798324,2444.101374612457,None,001,92,2019_Nov_04_1203,ACPT_experiment_5_30_19,3.1.0,59.965735013891,
,,,C,U,g,n,R,D,d,L,c,,,,,5,19,119,7,1,0,1,0,,,,,1,27,63,0,,,,,,down,0.4000382147032724,2445.752886704271,None,001,92,2019_Nov_04_1203,ACPT_experiment_5_30_19,3.1.0,59.965735013891,
,,,C,U,g,n,R,U,g,L,u,,,,,5,19,119,7,1,0,1,0,,,,,1,28,64,10,,,,,,up,0.5837772849508838,2447.4372311425077,None,001,92,2019_Nov_04_1203,ACPT_experiment_5_30_19,3.1.0,59.965735013891,
,,,C,U,g,n,L,G,d,R,i,,,,,5,19,119,7,1,0,1,0,,,,,1,29,65,17,,,,,,up,1.167547023554107,2449.305316160261,None,001,92,2019_Nov_04_1203,ACPT_experiment_5_30_19,3.1.0,59.965735013891,
,,,C,U,g,n,L,D,d,L,c ,,,,,5,19,119,7,1,0,1,0,,,,,1,30,66,12,,,,,,up,0.4503497128307572,2451.740484735097,None,001,92,2019_Nov_04_1203,ACPT_experiment_5_30_19,3.1.0,59.965735013891,
,,,C,U,g,n,L,U,d,R,u,,,,,5,19,119,7,1,0,1,0,,,,,1,31,67,21,,,,,,up,0.9340437162918533,2453.4751325214065,None,001,92,2019_Nov_04_1203,ACPT_experiment_5_30_19,3.1.0,59.965735013891,
,,,C,U,g,n,R,G,g,L,c ,,,,,5,19,119,7,1,0,1,0,,,,,1,32,68,6,,,,,,up,0.6338092663718271,2455.693477027862,None,001,92,2019_Nov_04_1203,ACPT_experiment_5_30_19,3.1.0,59.965735013891,
,,,C,U,g,n,L,D,g,R,i,,,,,5,19,119,7,1,0,1,0,,,,,1,33,69,15,,,,,,up,0.6504954478914442,2457.5949129770306,None,001,92,2019_Nov_04_1203,ACPT_experiment_5_30_19,3.1.0,59.965735013891,
,,,C,U,g,n,L,D,g,L,i,,,,,5,19,119,7,1,0,1,0,,,,,1,34,70,14,,,,,,up,0.7839284533820319,2459.529712837333,None,001,92,2019_Nov_04_1203,ACPT_experiment_5_30_19,3.1.0,59.965735013891,
,,,C,U,g,n,L,U,y,L,u,,,,,5,19,119,7,1,0,1,0,,,,,1,35,71,24,,,,,,down,0.550411562694535,2461.5979463068325,None,001,92,2019_Nov_04_1203,ACPT_experiment_5_30_19,3.1.0,59.965735013891,
,,,C,U,g,n,,,,,,,,,,5,19,119,7,2,0,2,0,0,0,0,0,,,,,,,,,,,,,,001,92,2019_Nov_04_1203,ACPT_experiment_5_30_19,3.1.0,59.965735013891,
,,,C,U,g,n,L,G,g,L,c ,,,,,5,19,119,7,2,0,2,0,,,,,0,0,0,18,,,,,,up,0.6000233634913457,2467.786359584661,None,001,92,2019_Nov_04_1203,ACPT_experiment_5_30_19,3.1.0,59.965735013891,
,,,C,U,g,n,L,D,y,L,y,,,,,5,19,119,7,2,0,2,0,,,,,0,1,1,32,,,,,,down,0.6171584017556597,2469.6707169422443,None,001,92,2019_Nov_04_1203,ACPT_experiment_5_30_19,3.1.0,59.965735013891,
,,,C,U,g,n,L,D,g,L,i,,,,,5,19,119,7,2,0,2,0,,,,,0,2,2,14,,,,,,down,0.4003237684883061,2471.5554588616906,None,001,92,2019_Nov_04_1203,ACPT_experiment_5_30_19,3.1.0,59.965735013891,
,,,C,U,g,n,R,D,g,L,i,,,,,5,19,119,7,2,0,2,0,,,,,0,3,3,2,,,,,,up,0.4836967201463267,2473.223406898146,None,001,92,2019_Nov_04_1203,ACPT_experiment_5_30_19,3.1.0,59.965735013891,
,,,C,U,g,n,R,D,g,R,i,,,,,5,19,119,7,2,0,2,0,,,,,0,4,4,3,,,,,,up,0.8336923885426586,2474.9916818121856,None,001,92,2019_Nov_04_1203,ACPT_experiment_5_30_19,3.1.0,59.965735013891,
,,,C,U,g,n,R,U,d,L,u,,,,,5,19,119,7,2,0,2,0,,,,,0,5,5,8,,,,,,up,1.351018953104358,2477.1096786131384,None,001,92,2019_Nov_04_1203,ACPT_experiment_5_30_19,3.1.0,59.965735013891,
,,,C,U,g,n,L,D,d,R,c ,,,,,5,19,119,7,2,0,2,0,,,,,0,6,6,13,,,,,,up,0.45035876844849554,2479.7449835655643,None,001,92,2019_Nov_04_1203,ACPT_experiment_5_30_19,3.1.0,59.965735013891,
,,,C,U,g,n,L,D,d,L,c ,,,,,5,19,119,7,2,0,2,0,,,,,0,7,7,12,,,,,,up,0.3169465908767961,2481.462951811138,None,001,92,2019_Nov_04_1203,ACPT_experiment_5_30_19,3.1.0,59.965735013891,
,,,C,U,g,n,R,G,y,R,y,,,,,5,19,119,7,2,0,2,0,,,,,0,8,8,29,,,,,,down,0.4670153682873206,2483.064182892068,None,001,92,2019_Nov_04_1203,ACPT_experiment_5_30_19,3.1.0,59.965735013891,
,,,C,U,g,n,R,G,d,L,i,,,,,5,19,119,7,2,0,2,0,,,,,0,9,9,4,,,,,,up,0.41676605206157546,2484.815784906158,None,001,92,2019_Nov_04_1203,ACPT_experiment_5_30_19,3.1.0,59.965735013891,
,,,C,U,g,n,L,D,y,R,y,,,,,5,19,119,7,2,0,2,0,,,,,0,10,10,33,,,,,,down,0.5670989516311238,2486.516793490581,None,001,92,2019_Nov_04_1203,ACPT_experiment_5_30_19,3.1.0,59.965735013891,
,,,C,U,g,n,R,U,d,R,u,,,,,5,19,119,7,2,0,2,0,,,,,0,11,11,9,,,,,,up,0.5003756571732083,2488.3681947416444,None,001,92,2019_Nov_04_1203,ACPT_experiment_5_30_19,3.1.0,59.965735013891,
,,,C,U,g,n,L,U,y,L,u,,,,,5,19,119,7,2,0,2,0,,,,,0,12,12,24,,,,,,up,0.5170545942009994,2490.152878735328,None,001,92,2019_Nov_04_1203,ACPT_experiment_5_30_19,3.1.0,59.965735013891,
,,,C,U,g,n,R,D,y,R,y,,,,,5,19,119,7,2,0,2,0,,,,,0,13,13,27,,,,,,down,0.9840657365339212,2491.9876116142514,None,001,92,2019_Nov_04_1203,ACPT_experiment_5_30_19,3.1.0,59.965735013891,
,,,C,U,g,n,R,D,d,R,c ,,,,,5,19,119,7,2,0,2,0,,,,,0,14,14,1,,,,,,up,1.2509408031301064,2494.2726643224687,None,001,92,2019_Nov_04_1203,ACPT_experiment_5_30_19,3.1.0,59.965735013891,
,,,C,U,g,n,L,U,g,L,u,,,,,5,19,119,7,2,0,2,0,,,,,0,15,15,22,,,,,,up,1.0841613940337993,2496.8079137639643,None,001,92,2019_Nov_04_1203,ACPT_experiment_5_30_19,3.1.0,59.965735013891,
,,,C,U,g,n,L,G,y,L,y,,,,,5,19,119,7,2,0,2,0,,,,,0,16,16,34,,,,,,down,0.967435397983536,2499.176374137037,None,001,92,2019_Nov_04_1203,ACPT_experiment_5_30_19,3.1.0,59.965735013891,
,,,C,U,g,n,R,U,y,L,u,,,,,5,19,119,7,2,0,2,0,,,,,0,17,17,30,,,,,,down,0.9007090849872839,2501.411370111816,None,001,92,2019_Nov_04_1203,ACPT_experiment_5_30_19,3.1.0,59.965735013891,
,,,C,U,g,n,L,D,g,R,i,,,,,5,19,119,7,2,0,2,0,,,,,0,18,18,15,,,,,,up,1.0341254885124727,2503.596378477696,None,001,92,2019_Nov_04_1203,ACPT_experiment_5_30_19,3.1.0,59.965735013891,
,,,C,U,g,n,L,G,d,R,i,,,,,5,19,119,7,2,0,2,0,,,,,0,19,19,17,,,,,,up,0.7505572977561314,2505.9148080767645,None,001,92,2019_Nov_04_1203,ACPT_experiment_5_30_19,3.1.0,59.965735013891,
,,,C,U,g,n,L,G,d,L,i,,,,,5,19,119,7,2,0,2,0,,,,,0,20,20,16,,,,,,up,0.7005343719529264,2507.9496743147383,None,001,92,2019_Nov_04_1203,ACPT_experiment_5_30_19,3.1.0,59.965735013891,
,,,C,U,g,n,R,G,g,L,c ,,,,,5,19,119,7,2,0,2,0,,,,,0,21,21,6,,,,,,up,0.5337274941502983,2509.934518532471,None,001,92,2019_Nov_04_1203,ACPT_experiment_5_30_19,3.1.0,59.965735013891,
,,,C,U,g,n,R,G,d,R,i,,,,,5,19,119,7,2,0,2,0,,,,,0,22,22,5,,,,,,up,0.7672588738250852,2511.7525516464466,None,001,92,2019_Nov_04_1203,ACPT_experiment_5_30_19,3.1.0,59.965735013891,
,,,C,U,g,n,R,D,d,L,c,,,,,5,19,119,7,2,0,2,0,,,,,0,23,23,0,,,,,,up,0.4336408922681585,2513.8041206679054,None,001,92,2019_Nov_04_1203,ACPT_experiment_5_30_19,3.1.0,59.965735013891,
,,,C,U,g,n,L,U,g,R,u,,,,,5,19,119,7,2,0,2,0,,,,,0,24,24,23,,,,,,up,0.5337178348263478,2515.52208891348,None,001,92,2019_Nov_04_1203,ACPT_experiment_5_30_19,3.1.0,59.965735013891,
,,,C,U,g,n,L,U,y,R,u,,,,,5,19,119,7,2,0,2,0,,,,,0,25,25,25,,,,,,up,0.45034880726962,2517.340118405209,None,001,92,2019_Nov_04_1203,ACPT_experiment_5_30_19,3.1.0,59.965735013891,
,,,C,U,g,n,R,U,g,R,u,,,,,5,19,119,7,2,0,2,0,,,,,0,26,26,11,,,,,,up,0.5003729404879778,2519.0747562303395,None,001,92,2019_Nov_04_1203,ACPT_experiment_5_30_19,3.1.0,59.965735013891,
,,,C,U,g,n,R,G,g,R,c ,,,,,5,19,119,7,2,0,2,0,,,,,0,27,27,7,,,,,,up,0.533733229374775,2520.8594417332934,None,001,92,2019_Nov_04_1203,ACPT_experiment_5_30_19,3.1.0,59.965735013891,
,,,C,U,g,n,R,U,g,L,u,,,,,5,19,119,7,2,0,2,0,,,,,0,28,28,10,,,,,,up,0.700279305409822,2522.6777534584153,None,001,92,2019_Nov_04_1203,ACPT_experiment_5_30_19,3.1.0,59.965735013891,
,,,C,U,g,n,L,U,d,R,u,,,,,5,19,119,7,2,0,2,0,,,,,0,29,29,21,,,,,,up,0.4670265368813489,2524.6623151409003,None,001,92,2019_Nov_04_1203,ACPT_experiment_5_30_19,3.1.0,59.965735013891,
,,,C,U,g,n,L,G,y,R,y,,,,,5,19,119,7,2,0,2,0,,,,,0,30,30,35,,,,,,down,0.6004507886082138,2526.4136439772146,None,001,92,2019_Nov_04_1203,ACPT_experiment_5_30_19,3.1.0,59.965735013891,
,,,C,U,g,n,R,U,y,R,u,,,,,5,19,119,7,2,0,2,0,,,,,0,31,31,31,,,,,,down,0.48369641829140164,2528.29839978194,None,001,92,2019_Nov_04_1203,ACPT_experiment_5_30_19,3.1.0,59.965735013891,
,,,C,U,g,n,R,G,y,L,y,,,,,5,19,119,7,2,0,2,0,,,,,0,32,32,28,,,,,,down,0.5504163923569649,2530.066404838597,None,001,92,2019_Nov_04_1203,ACPT_experiment_5_30_19,3.1.0,59.965735013891,
,,,C,U,g,n,L,G,g,R,c ,,,,,5,19,119,7,2,0,2,0,,,,,0,33,33,19,,,,,,up,0.4503654092341094,2531.901100287636,None,001,92,2019_Nov_04_1203,ACPT_experiment_5_30_19,3.1.0,59.965735013891,
,,,C,U,g,n,L,U,d,L,u,,,,,5,19,119,7,2,0,2,0,,,,,0,34,34,20,,,,,,up,0.6171330460292666,2533.635770411134,None,001,92,2019_Nov_04_1203,ACPT_experiment_5_30_19,3.1.0,59.965735013891,
,,,C,U,g,n,R,D,y,L,y,,,,,5,19,119,7,2,0,2,0,,,,,0,35,35,26,,,,,,down,0.7167611318436684,2535.5543127224473,None,001,92,2019_Nov_04_1203,ACPT_experiment_5_30_19,3.1.0,59.965735013891,
,,,C,U,g,n,R,G,y,R,y,,,,,5,19,119,7,2,0,2,0,,,,,1,0,36,29,,,,,,up,0.4503394497987756,2537.5554012075963,None,001,92,2019_Nov_04_1203,ACPT_experiment_5_30_19,3.1.0,59.965735013891,
,,,C,U,g,n,L,U,g,R,u,,,,,5,19,119,7,2,0,2,0,,,,,1,1,37,23,,,,,,up,0.6004453552377527,2539.2900495976137,None,001,92,2019_Nov_04_1203,ACPT_experiment_5_30_19,3.1.0,59.965735013891,
,,,C,U,g,n,R,D,d,L,c,,,,,5,19,119,7,2,0,2,0,,,,,1,2,38,0,,,,,,up,0.5670829533746655,2541.1748102320016,None,001,92,2019_Nov_04_1203,ACPT_experiment_5_30_19,3.1.0,59.965735013891,
,,,C,U,g,n,L,U,y,R,u,,,,,5,19,119,7,2,0,2,0,,,,,1,3,39,25,,,,,,down,0.46689975824483554,2543.0262114830657,None,001,92,2019_Nov_04_1203,ACPT_experiment_5_30_19,3.1.0,59.965735013891,
,,,C,U,g,n,R,U,d,L,u,,,,,5,19,119,7,2,0,2,0,,,,,1,4,40,8,,,,,,up,0.5504625760022464,2544.777506813597,None,001,92,2019_Nov_04_1203,ACPT_experiment_5_30_19,3.1.0,59.965735013891,
,,,C,U,g,n,L,U,d,L,u,,,,,5,19,119,7,2,0,2,0,,,,,1,5,41,20,,,,,,up,0.46701808497255115,2546.612248446282,None,001,92,2019_Nov_04_1203,ACPT_experiment_5_30_19,3.1.0,59.965735013891,
,,,C,U,g,n,L,G,y,R,y,,,,,5,19,119,7,2,0,2,0,,,,,1,6,42,35,,,,,,down,0.4336179513720708,2548.380297573608,None,001,92,2019_Nov_04_1203,ACPT_experiment_5_30_19,3.1.0,59.965735013891,
,,,C,U,g,n,R,U,g,R,u,,,,,5,19,119,7,2,0,2,0,,,,,1,7,43,11,,,,,,down,0.4170002906848822,2550.0982015243017,None,001,92,2019_Nov_04_1203,ACPT_experiment_5_30_19,3.1.0,59.965735013891,
,,,C,U,g,n,R,G,y,L,y,,,,,5,19,119,7,2,0,2,0,,,,,1,8,44,28,,,,,,down,0.7172018385317642,2551.8161924089172,None,001,92,2019_Nov_04_1203,ACPT_experiment_5_30_19,3.1.0,59.965735013891,
,,,C,U,g,n,L,G,d,R,i,,,,,5,19,119,7,2,0,2,0,,,,,1,9,45,17,,,,,,up,0.7171994237005492,2553.8343854450877,None,001,92,2019_Nov_04_1203,ACPT_experiment_5_30_19,3.1.0,59.965735013891,
,,,C,U,g,n,R,U,d,R,u,,,,,5,19,119,7,2,0,2,0,,,,,1,10,46,9,,,,,,up,0.6338098700789487,2555.835897431253,None,001,92,2019_Nov_04_1203,ACPT_experiment_5_30_19,3.1.0,59.965735013891,
,,,C,U,g,n,L,U,d,R,u,,,,,5,19,119,7,2,0,2,0,,,,,1,11,47,21,,,,,,up,0.5003771664432861,2557.7540159396967,None,001,92,2019_Nov_04_1203,ACPT_experiment_5_30_19,3.1.0,59.965735013891,
,,,C,U,g,n,R,D,d,R,c ,,,,,5,19,119,7,2,0,2,0,,,,,1,12,48,1,,,,,,up,0.46701416087216785,2559.522022807477,None,001,92,2019_Nov_04_1203,ACPT_experiment_5_30_19,3.1.0,59.965735013891,
,,,C,U,g,n,L,G,y,L,y,,,,,5,19,119,7,2,0,2,0,,,,,1,13,49,34,,,,,,down,1.1337695725842423,2561.290440196555,None,001,92,2019_Nov_04_1203,ACPT_experiment_5_30_19,3.1.0,59.965735013891,
,,,C,U,g,n,R,G,g,R,c ,,,,,5,19,119,7,2,0,2,0,,,,,1,14,50,7,,,,,,up,0.7672437811306736,2563.7085214260424,None,001,92,2019_Nov_04_1203,ACPT_experiment_5_30_19,3.1.0,59.965735013891,
,,,C,U,g,n,R,G,d,R,i,,,,,5,19,119,7,2,0,2,0,,,,,1,15,51,5,,,,,,up,1.117536775615008,2565.7433710620517,None,001,92,2019_Nov_04_1203,ACPT_experiment_5_30_19,3.1.0,59.965735013891,
,,,C,U,g,n,L,D,g,L,i,,,,,5,19,119,7,2,0,2,0,,,,,1,16,52,14,,,,,,up,0.6004353940597866,2568.145214061199,None,001,92,2019_Nov_04_1203,ACPT_experiment_5_30_19,3.1.0,59.965735013891,
,,,C,U,g,n,L,D,y,L,y,,,,,5,19,119,7,2,0,2,0,,,,,1,17,53,32,,,,,,down,0.7338874163451692,2570.0299677529483,None,001,92,2019_Nov_04_1203,ACPT_experiment_5_30_19,3.1.0,59.965735013891,
,,,C,U,g,n,L,G,d,L,i,,,,,5,19,119,7,2,0,2,0,,,,,1,18,54,16,,,,,,up,0.6671734793580981,2572.0481571668715,None,001,92,2019_Nov_04_1203,ACPT_experiment_5_30_19,3.1.0,59.965735013891,
,,,C,U,g,n,R,U,y,R,u,,,,,5,19,119,7,2,0,2,0,,,,,1,19,55,31,,,,,,down,0.934032245844719,2574.016317617914,None,001,92,2019_Nov_04_1203,ACPT_experiment_5_30_19,3.1.0,59.965735013891,
,,,C,U,g,n,R,G,d,L,i,,,,,5,19,119,7,2,0,2,0,,,,,1,20,56,4,,,,,,up,0.9507564609566543,2576.2513395521273,None,001,92,2019_Nov_04_1203,ACPT_experiment_5_30_19,3.1.0,59.965735013891,
,,,C,U,g,n,L,D,d,L,c ,,,,,5,19,119,7,2,0,2,0,,,,,1,21,57,12,,,,,,up,0.9007033497637167,2578.486363297464,None,001,92,2019_Nov_04_1203,ACPT_experiment_5_30_19,3.1.0,59.965735013891,
,,,C,U,g,n,L,G,g,R,c ,,,,,5,19,119,7,2,0,2,0,,,,,1,22,58,19,,,,,,up,0.6171369701296499,2580.6713484205948,None,001,92,2019_Nov_04_1203,ACPT_experiment_5_30_19,3.1.0,59.965735013891,
,,,C,U,g,n,L,D,y,R,y,,,,,5,19,119,7,2,0,2,0,,,,,1,23,59,33,,,,,,down,1.3510234809127724,2582.5727879920105,None,001,92,2019_Nov_04_1203,ACPT_experiment_5_30_19,3.1.0,59.965735013891,
,,,C,U,g,n,L,G,g,L,c ,,,,,5,19,119,7,2,0,2,0,,,,,1,24,60,18,,,,,,up,0.583771247873301,2585.2081167908946,None,001,92,2019_Nov_04_1203,ACPT_experiment_5_30_19,3.1.0,59.965735013891,
,,,C,U,g,n,L,U,g,L,u,,,,,5,19,119,7,2,0,2,0,,,,,1,25,61,22,,,,,,up,0.5003898443073922,2587.076192149323,None,001,92,2019_Nov_04_1203,ACPT_experiment_5_30_19,3.1.0,59.965735013891,
,,,C,U,g,n,R,D,y,L,y,,,,,5,19,119,7,2,0,2,0,,,,,1,26,62,26,,,,,,down,0.5170579145933516,2588.8608752374457,None,001,92,2019_Nov_04_1203,ACPT_experiment_5_30_19,3.1.0,59.965735013891,
,,,C,U,g,n,R,U,g,L,u,,,,,5,19,119,7,2,0,2,0,,,,,1,27,63,10,,,,,,down,0.46677328146324726,2590.6791866607136,None,001,92,2019_Nov_04_1203,ACPT_experiment_5_30_19,3.1.0,59.965735013891,
,,,C,U,g,n,R,U,y,L,u,,,,,5,19,119,7,2,0,2,0,,,,,1,28,64,30,,,,,,down,0.6171430072081421,2592.4135549303155,None,001,92,2019_Nov_04_1203,ACPT_experiment_5_30_19,3.1.0,59.965735013891,
,,,C,U,g,n,L,D,d,R,c ,,,,,5,19,119,7,2,0,2,0,,,,,1,29,65,13,,,,,,up,0.5504139775257499,2594.315002651786,None,001,92,2019_Nov_04_1203,ACPT_experiment_5_30_19,3.1.0,59.965735013891,
,,,C,U,g,n,R,D,g,L,i,,,,,5,19,119,7,2,0,2,0,,,,,1,30,66,2,,,,,,up,0.6838503034086898,2596.149722249137,None,001,92,2019_Nov_04_1203,ACPT_experiment_5_30_19,3.1.0,59.965735013891,
,,,C,U,g,n,L,D,g,R,i,,,,,5,19,119,7,2,0,2,0,,,,,1,31,67,15,,,,,,up,0.8673207236879534,2598.117878474225,None,001,92,2019_Nov_04_1203,ACPT_experiment_5_30_19,3.1.0,59.965735013891,
,,,C,U,g,n,L,U,y,L,u,,,,,5,19,119,7,2,0,2,0,,,,,1,32,68,24,,,,,,down,0.6838400403757987,2600.2861879807206,None,001,92,2019_Nov_04_1203,ACPT_experiment_5_30_19,3.1.0,59.965735013891,
,,,C,U,g,n,R,D,g,R,i,,,,,5,19,119,7,2,0,2,0,,,,,1,33,69,3,,,,,,up,0.5170624424026755,2602.271021029859,None,001,92,2019_Nov_04_1203,ACPT_experiment_5_30_19,3.1.0,59.965735013891,
,,,C,U,g,n,R,G,g,L,c ,,,,,5,19,119,7,2,0,2,0,,,,,1,34,70,6,,,,,,up,0.6668906422573855,2604.08934120689,None,001,92,2019_Nov_04_1203,ACPT_experiment_5_30_19,3.1.0,59.965735013891,
,,,C,U,g,n,R,D,y,R,y,,,,,5,19,119,7,2,0,2,0,,,,,1,35,71,27,,,,,,down,0.5504012996625534,2606.040540789366,None,001,92,2019_Nov_04_1203,ACPT_experiment_5_30_19,3.1.0,59.965735013891,
,,,C,U,g,n,,,,,,,,,,5,19,119,7,3,0,3,0,0,0,0,0,,,,,,,,,,,,,,001,92,2019_Nov_04_1203,ACPT_experiment_5_30_19,3.1.0,59.965735013891,
,,,C,U,g,n,R,G,d,L,i,,,,,5,19,119,7,3,0,3,0,,,,,0,0,0,4,,,,,,up,1.5678590197412632,2609.6766212044513,None,001,92,2019_Nov_04_1203,ACPT_experiment_5_30_19,3.1.0,59.965735013891,
,,,C,U,g,n,L,U,y,R,u,,,,,5,19,119,7,3,0,3,0,,,,,0,1,1,25,,,,,,down,0.48370185166277224,2612.5287798069403,None,001,92,2019_Nov_04_1203,ACPT_experiment_5_30_19,3.1.0,59.965735013891,
,,,C,U,g,n,L,G,d,R,i,,,,,5,19,119,7,3,0,3,0,,,,,0,2,2,17,,,,,,up,0.5836677119868909,2614.296783052473,None,001,92,2019_Nov_04_1203,ACPT_experiment_5_30_19,3.1.0,59.965735013891,
,,,C,U,g,n,R,D,d,R,c ,,,,,5,19,119,7,3,0,3,0,,,,,0,3,3,1,,,,,,up,0.5337335312287905,2616.1648665609573,None,001,92,2019_Nov_04_1203,ACPT_experiment_5_30_19,3.1.0,59.965735013891,
,,,C,U,g,n,R,G,y,R,y,,,,,5,19,119,7,3,0,3,0,,,,,0,4,4,29,,,,,,down,0.6171360645676032,2617.9829054101574,None,001,92,2019_Nov_04_1203,ACPT_experiment_5_30_19,3.1.0,59.965735013891,
,,,C,U,g,n,R,U,g,L,u,,,,,5,19,119,7,3,0,3,0,,,,,0,5,5,10,,,,,,up,0.5670847644978494,2619.884356753875,None,001,92,2019_Nov_04_1203,ACPT_experiment_5_30_19,3.1.0,59.965735013891,
,,,C,U,g,n,L,G,y,R,y,,,,,5,19,119,7,3,0,3,0,,,,,0,6,6,35,,,,,,down,0.8006104089490691,2621.735745025221,None,001,92,2019_Nov_04_1203,ACPT_experiment_5_30_19,3.1.0,59.965735013891,
,,,C,U,g,n,L,U,g,L,u,,,,,5,19,119,7,3,0,3,0,,,,,0,7,7,22,,,,,,up,0.6167007912499685,2623.837742060412,None,001,92,2019_Nov_04_1203,ACPT_experiment_5_30_19,3.1.0,59.965735013891,
,,,C,U,g,n,L,D,d,R,c ,,,,,5,19,119,7,3,0,3,0,,,,,0,8,8,13,,,,,,up,0.5170636498178283,2625.738769299406,None,001,92,2019_Nov_04_1203,ACPT_experiment_5_30_19,3.1.0,59.965735013891,
,,,C,U,g,n,R,D,d,L,c,,,,,5,19,119,7,3,0,3,0,,,,,0,9,9,0,,,,,,up,0.7338877181991847,2627.5401379653413,None,001,92,2019_Nov_04_1203,ACPT_experiment_5_30_19,3.1.0,59.965735013891,
,,,C,U,g,n,R,D,y,R,y,,,,,5,19,119,7,3,0,3,0,,,,,0,10,10,27,,,,,,down,0.8171604543631474,2629.55833160522,None,001,92,2019_Nov_04_1203,ACPT_experiment_5_30_19,3.1.0,59.965735013891,
,,,C,U,g,n,R,U,y,L,u,,,,,5,19,119,7,3,0,3,0,,,,,0,11,11,30,,,,,,down,0.9006662217334451,2631.676615167373,None,001,92,2019_Nov_04_1203,ACPT_experiment_5_30_19,3.1.0,59.965735013891,
,,,C,U,g,n,L,D,g,R,i,,,,,5,19,119,7,3,0,3,0,,,,,0,12,12,15,,,,,,up,1.234268205034823,2633.861582481124,None,001,92,2019_Nov_04_1203,ACPT_experiment_5_30_19,3.1.0,59.965735013891,
,,,C,U,g,n,L,G,g,R,c ,,,,,5,19,119,7,3,0,3,0,,,,,0,13,13,19,,,,,,up,0.9006683347106446,2636.3801717005326,None,001,92,2019_Nov_04_1203,ACPT_experiment_5_30_19,3.1.0,59.965735013891,
,,,C,U,g,n,L,D,y,L,y,,,,,5,19,119,7,3,0,3,0,,,,,0,14,14,32,,,,,,down,1.7179748863600253,2638.5651541069783,None,001,92,2019_Nov_04_1203,ACPT_experiment_5_30_19,3.1.0,59.965735013891,
,,,C,U,g,n,L,G,g,L,c ,,,,,5,19,119,7,3,0,3,0,,,,,0,15,15,18,,,,,,up,0.7671290766502352,2641.567416803784,None,001,92,2019_Nov_04_1203,ACPT_experiment_5_30_19,3.1.0,59.965735013891,
,,,C,U,g,n,R,U,g,R,u,,,,,5,19,119,7,3,0,3,0,,,,,0,16,16,11,,,,,,up,0.6671695552577148,2643.618965902885,None,001,92,2019_Nov_04_1203,ACPT_experiment_5_30_19,3.1.0,59.965735013891,
,,,C,U,g,n,L,G,y,L,y,,,,,5,19,119,7,3,0,3,0,,,,,0,17,17,34,,,,,,down,1.0505828647801536,2645.5873002217722,None,001,92,2019_Nov_04_1203,ACPT_experiment_5_30_19,3.1.0,59.965735013891,
,,,C,U,g,n,R,D,y,L,y,,,,,5,19,119,7,3,0,3,0,,,,,0,18,18,26,,,,,,down,1.1675421938925865,2647.9389008473336,None,001,92,2019_Nov_04_1203,ACPT_experiment_5_30_19,3.1.0,59.965735013891,
,,,C,U,g,n,L,G,d,L,i,,,,,5,19,119,7,3,0,3,0,,,,,0,19,19,16,,,,,,up,0.5170594238634294,2650.390752585152,None,001,92,2019_Nov_04_1203,ACPT_experiment_5_30_19,3.1.0,59.965735013891,
,,,C,U,g,n,R,G,d,R,i,,,,,5,19,119,7,3,0,3,0,,,,,0,20,20,5,,,,,,up,1.0841426790921105,2652.208805621485,None,001,92,2019_Nov_04_1203,ACPT_experiment_5_30_19,3.1.0,59.965735013891,
,,,C,U,g,n,R,G,g,L,c ,,,,,5,19,119,7,3,0,3,0,,,,,0,21,21,6,,,,,,up,0.5337622073493549,2654.560555362872,None,001,92,2019_Nov_04_1203,ACPT_experiment_5_30_19,3.1.0,59.965735013891,
,,,C,U,g,n,L,U,y,L,u,,,,,5,19,119,7,3,0,3,0,,,,,0,22,22,24,,,,,,down,0.6337914569912755,2656.39529639185,None,001,92,2019_Nov_04_1203,ACPT_experiment_5_30_19,3.1.0,59.965735013891,
,,,C,U,g,n,R,U,y,R,u,,,,,5,19,119,7,3,0,3,0,,,,,0,23,23,31,,,,,,down,0.683846379307397,2658.330090215074,None,001,92,2019_Nov_04_1203,ACPT_experiment_5_30_19,3.1.0,59.965735013891,
,,,C,U,g,n,L,D,d,L,c ,,,,,5,19,119,7,3,0,3,0,,,,,0,24,24,12,,,,,,up,0.46702231092695,2660.2982503642615,None,001,92,2019_Nov_04_1203,ACPT_experiment_5_30_19,3.1.0,59.965735013891,
,,,C,U,g,n,R,D,g,R,i,,,,,5,19,119,7,3,0,3,0,,,,,0,25,25,3,,,,,,up,1.617891303016222,2662.0495734653523,None,001,92,2019_Nov_04_1203,ACPT_experiment_5_30_19,3.1.0,59.965735013891,
,,,C,U,g,n,L,U,g,R,u,,,,,5,19,119,7,3,0,3,0,,,,,0,26,26,23,,,,,,up,0.8172893459768602,2664.9517685770697,None,001,92,2019_Nov_04_1203,ACPT_experiment_5_30_19,3.1.0,59.965735013891,
,,,C,U,g,n,R,U,d,R,u,,,,,5,19,119,7,3,0,3,0,,,,,0,27,27,9,,,,,,down,0.5671152517425071,2667.0533578076465,None,001,92,2019_Nov_04_1203,ACPT_experiment_5_30_19,3.1.0,59.965735013891,
,,,C,U,g,n,L,D,g,L,i,,,,,5,19,119,7,3,0,3,0,,,,,0,28,28,14,,,,,,up,0.8172790829439691,2668.9047599642727,None,001,92,2019_Nov_04_1203,ACPT_experiment_5_30_19,3.1.0,59.965735013891,
,,,C,U,g,n,L,U,d,L,u,,,,,5,19,119,7,3,0,3,0,,,,,0,29,29,20,,,,,,up,0.5503831884288957,2671.006366702376,None,001,92,2019_Nov_04_1203,ACPT_experiment_5_30_19,3.1.0,59.965735013891,
,,,C,U,g,n,R,U,d,L,u,,,,,5,19,119,7,3,0,3,0,,,,,0,30,30,8,,,,,,up,0.6335400126954482,2672.858021812566,None,001,92,2019_Nov_04_1203,ACPT_experiment_5_30_19,3.1.0,59.965735013891,
,,,C,U,g,n,R,D,g,L,i,,,,,5,19,119,7,3,0,3,0,,,,,0,31,31,2,,,,,,up,0.4503424683380217,2674.7758617098634,None,001,92,2019_Nov_04_1203,ACPT_experiment_5_30_19,3.1.0,59.965735013891,
,,,C,U,g,n,R,G,g,R,c ,,,,,5,19,119,7,3,0,3,0,,,,,0,32,32,7,,,,,,up,0.6004710128190709,2676.510512212857,None,001,92,2019_Nov_04_1203,ACPT_experiment_5_30_19,3.1.0,59.965735013891,
,,,C,U,g,n,L,D,y,R,y,,,,,5,19,119,7,3,0,3,0,,,,,0,33,33,33,,,,,,up,0.7839855037682355,2678.395263489775,None,001,92,2019_Nov_04_1203,ACPT_experiment_5_30_19,3.1.0,59.965735013891,
,,,C,U,g,n,L,U,d,R,u,,,,,5,19,119,7,3,0,3,0,,,,,0,34,34,21,,,,,,up,0.7005247126280665,2680.463501788937,None,001,92,2019_Nov_04_1203,ACPT_experiment_5_30_19,3.1.0,59.965735013891,
,,,C,U,g,n,R,G,y,L,y,,,,,5,19,119,7,3,0,3,0,,,,,0,35,35,28,,,,,,down,0.8506469181775174,2682.465011360271,None,001,92,2019_Nov_04_1203,ACPT_experiment_5_30_19,3.1.0,59.965735013891,
,,,C,U,g,n,R,G,d,R,i,,,,,5,19,119,7,3,0,3,0,,,,,1,0,36,5,,,,,,up,0.9006870496532429,2684.5999587667575,None,001,92,2019_Nov_04_1203,ACPT_experiment_5_30_19,3.1.0,59.965735013891,
,,,C,U,g,n,R,D,y,L,y,,,,,5,19,119,7,3,0,3,0,,,,,1,1,37,26,,,,,,down,0.6671737812121137,2686.7849478139888,None,001,92,2019_Nov_04_1203,ACPT_experiment_5_30_19,3.1.0,59.965735013891,
,,,C,U,g,n,L,D,g,L,i,,,,,5,19,119,7,3,0,3,0,,,,,1,2,38,14,,,,,,up,0.7672471015230258,2688.7364220835098,None,001,92,2019_Nov_04_1203,ACPT_experiment_5_30_19,3.1.0,59.965735013891,
,,,C,U,g,n,L,U,d,L,u,,,,,5,19,119,7,3,0,3,0,,,,,1,3,39,20,,,,,,up,0.9673967606850056,2690.787973295589,None,001,92,2019_Nov_04_1203,ACPT_experiment_5_30_19,3.1.0,59.965735013891,
,,,C,U,g,n,R,G,g,L,c ,,,,,5,19,119,7,3,0,3,0,,,,,1,4,40,6,,,,,,up,0.8173044386703623,2693.0396584704276,None,001,92,2019_Nov_04_1203,ACPT_experiment_5_30_19,3.1.0,59.965735013891,
,,,C,U,g,n,L,G,g,L,c ,,,,,5,19,119,7,3,0,3,0,,,,,1,5,41,18,,,,,,up,0.867323742228109,2695.1412703400474,None,001,92,2019_Nov_04_1203,ACPT_experiment_5_30_19,3.1.0,59.965735013891,
,,,C,U,g,n,R,U,d,L,u,,,,,5,19,119,7,3,0,3,0,,,,,1,6,42,8,,,,,,up,0.5170600275714605,2697.2928933631683,None,001,92,2019_Nov_04_1203,ACPT_experiment_5_30_19,3.1.0,59.965735013891,
,,,C,U,g,n,L,U,y,R,u,,,,,5,19,119,7,3,0,3,0,,,,,1,7,43,25,,,,,,down,0.800600145916178,2699.110940362423,None,001,92,2019_Nov_04_1203,ACPT_experiment_5_30_19,3.1.0,59.965735013891,
,,,C,U,g,n,R,D,d,L,c,,,,,5,19,119,7,3,0,3,0,,,,,1,8,44,0,,,,,,up,0.6338095682249332,2701.212529291147,None,001,92,2019_Nov_04_1203,ACPT_experiment_5_30_19,3.1.0,59.965735013891,
,,,C,U,g,n,R,U,y,R,u,,,,,5,19,119,7,3,0,3,0,,,,,1,9,45,31,,,,,,up,0.5337344367908372,2703.1306487051525,None,001,92,2019_Nov_04_1203,ACPT_experiment_5_30_19,3.1.0,59.965735013891,
,,,C,U,g,n,L,G,g,R,c ,,,,,5,19,119,7,3,0,3,0,,,,,1,10,46,19,,,,,,up,0.6335726129163959,2704.9656399710093,None,001,92,2019_Nov_04_1203,ACPT_experiment_5_30_19,3.1.0,59.965735013891,
,,,C,U,g,n,R,G,y,R,y,,,,,5,19,119,7,3,0,3,0,,,,,1,11,47,29,,,,,,down,0.5504112608405194,2706.8834831886998,None,001,92,2019_Nov_04_1203,ACPT_experiment_5_30_19,3.1.0,59.965735013891,
,,,C,U,g,n,L,D,g,R,i,,,,,5,19,119,7,3,0,3,0,,,,,1,12,48,15,,,,,,up,0.6171318386132043,2708.71820580459,None,001,92,2019_Nov_04_1203,ACPT_experiment_5_30_19,3.1.0,59.965735013891,
,,,C,U,g,n,R,D,g,R,i,,,,,5,19,119,7,3,0,3,0,,,,,1,13,49,3,,,,,,up,0.4503306960359623,2710.6196656002166,None,001,92,2019_Nov_04_1203,ACPT_experiment_5_30_19,3.1.0,59.965735013891,
,,,C,U,g,n,R,D,g,L,i,,,,,5,19,119,7,3,0,3,0,,,,,1,14,50,2,,,,,,down,0.6171602128788436,2712.337585851021,None,001,92,2019_Nov_04_1203,ACPT_experiment_5_30_19,3.1.0,59.965735013891,
,,,C,U,g,n,L,G,d,R,i,,,,,5,19,119,7,3,0,3,0,,,,,1,15,51,17,,,,,,up,0.9507154088259995,2714.239051683726,None,001,92,2019_Nov_04_1203,ACPT_experiment_5_30_19,3.1.0,59.965735013891,
,,,C,U,g,n,R,D,d,R,c ,,,,,5,19,119,7,3,0,3,0,,,,,1,16,52,1,,,,,,up,0.7505856720217707,2716.4740521863123,None,001,92,2019_Nov_04_1203,ACPT_experiment_5_30_19,3.1.0,59.965735013891,
,,,C,U,g,n,L,D,d,R,c ,,,,,5,19,119,7,3,0,3,0,,,,,1,17,53,13,,,,,,down,0.617145120184432,2718.5089549486074,None,001,92,2019_Nov_04_1203,ACPT_experiment_5_30_19,3.1.0,59.965735013891,
,,,C,U,g,n,R,G,d,L,i,,,,,5,19,119,7,3,0,3,0,,,,,1,18,54,4,,,,,,up,0.8840014718389284,2720.4103863699684,None,001,92,2019_Nov_04_1203,ACPT_experiment_5_30_19,3.1.0,59.965735013891,
,,,C,U,g,n,L,G,d,L,i,,,,,5,19,119,7,3,0,3,0,,,,,1,19,55,16,,,,,,up,0.8006070885558074,2722.578686518994,None,001,92,2019_Nov_04_1203,ACPT_experiment_5_30_19,3.1.0,59.965735013891,
,,,C,U,g,n,R,U,d,R,u,,,,,5,19,119,7,3,0,3,0,,,,,1,20,56,9,,,,,,up,0.783931471921278,2724.663601038498,None,001,92,2019_Nov_04_1203,ACPT_experiment_5_30_19,3.1.0,59.965735013891,
,,,C,U,g,n,L,G,y,R,y,,,,,5,19,119,7,3,0,3,0,,,,,1,21,57,35,,,,,,down,0.9840883755769028,2726.731830885751,None,001,92,2019_Nov_04_1203,ACPT_experiment_5_30_19,3.1.0,59.965735013891,
,,,C,U,g,n,L,U,d,R,u,,,,,5,19,119,7,3,0,3,0,,,,,1,22,58,21,,,,,,up,0.8172971941776268,2729.0002125051424,None,001,92,2019_Nov_04_1203,ACPT_experiment_5_30_19,3.1.0,59.965735013891,
,,,C,U,g,n,L,D,y,L,y,,,,,5,19,119,7,3,0,3,0,,,,,1,23,59,32,,,,,,down,2.585262406119,2731.10182497847,None,001,92,2019_Nov_04_1203,ACPT_experiment_5_30_19,3.1.0,59.965735013891,
,,,C,U,g,n,L,D,d,L,c ,,,,,5,19,119,7,3,0,3,0,,,,,1,24,60,12,,,,,,up,0.8339553032865297,2734.9714059841326,None,001,92,2019_Nov_04_1203,ACPT_experiment_5_30_19,3.1.0,59.965735013891,
,,,C,U,g,n,R,G,y,L,y,,,,,5,19,119,7,3,0,3,0,,,,,1,25,61,28,,,,,,down,0.6004507886082138,2737.0896669072436,None,001,92,2019_Nov_04_1203,ACPT_experiment_5_30_19,3.1.0,59.965735013891,
,,,C,U,g,n,L,D,y,R,y,,,,,5,19,119,7,3,0,3,0,,,,,1,26,62,33,,,,,,down,0.6671689515505932,2738.974425730509,None,001,92,2019_Nov_04_1203,ACPT_experiment_5_30_19,3.1.0,59.965735013891,
,,,C,U,g,n,L,U,y,L,u,,,,,5,19,119,7,3,0,3,0,,,,,1,27,63,24,,,,,,down,0.5504133738186283,2740.9259009055913,None,001,92,2019_Nov_04_1203,ACPT_experiment_5_30_19,3.1.0,59.965735013891,
,,,C,U,g,n,L,G,y,L,y,,,,,5,19,119,7,3,0,3,0,,,,,1,28,64,34,,,,,,down,0.5671433241541308,2742.760603900979,None,001,92,2019_Nov_04_1203,ACPT_experiment_5_30_19,3.1.0,59.965735013891,
,,,C,U,g,n,R,G,g,R,c ,,,,,5,19,119,7,3,0,3,0,,,,,1,29,65,7,,,,,,down,1.1008388217915126,2744.612026885523,None,001,92,2019_Nov_04_1203,ACPT_experiment_5_30_19,3.1.0,59.965735013891,
,,,C,U,g,n,R,U,y,L,u,,,,,5,19,119,7,3,0,3,0,,,,,1,30,66,30,,,,,,down,0.6338168127185781,2747.0138406048427,None,001,92,2019_Nov_04_1203,ACPT_experiment_5_30_19,3.1.0,59.965735013891,
,,,C,U,g,n,R,U,g,R,u,,,,,5,19,119,7,3,0,3,0,,,,,1,31,67,11,,,,,,up,0.46690217307605053,2748.948635937336,None,001,92,2019_Nov_04_1203,ACPT_experiment_5_30_19,3.1.0,59.965735013891,
,,,C,U,g,n,L,U,g,R,u,,,,,5,19,119,7,3,0,3,0,,,,,1,32,68,23,,,,,,up,0.5504637834183086,2750.699960547696,None,001,92,2019_Nov_04_1203,ACPT_experiment_5_30_19,3.1.0,59.965735013891,
,,,C,U,g,n,R,D,y,R,y,,,,,5,19,119,7,3,0,3,0,,,,,1,33,69,27,,,,,,down,1.5008658679007567,2752.5516446358597,None,001,92,2019_Nov_04_1203,ACPT_experiment_5_30_19,3.1.0,59.965735013891,
,,,C,U,g,n,R,U,g,L,u,,,,,5,19,119,7,3,0,3,0,,,,,1,34,70,10,,,,,,up,0.9173593458945106,2755.3368046531377,None,001,92,2019_Nov_04_1203,ACPT_experiment_5_30_19,3.1.0,59.965735013891,
,,,C,U,g,n,L,U,g,L,u,,,,,5,19,119,7,3,0,3,0,,,,,1,35,71,22,,,,,,up,1.184255240409584,2757.538465392903,None,001,92,2019_Nov_04_1203,ACPT_experiment_5_30_19,3.1.0,59.965735013891,
,,,C,U,g,n,,,,,,,,,,5,19,119,7,4,0,4,0,0,0,0,0,,,,,,,,,,,,,,001,92,2019_Nov_04_1203,ACPT_experiment_5_30_19,3.1.0,59.965735013891,
,,,C,U,g,n,L,U,g,R,u,,,,,5,19,119,7,4,0,4,0,,,,,0,0,0,23,,,,,,up,0.7669866016112792,2771.349180361023,None,001,92,2019_Nov_04_1203,ACPT_experiment_5_30_19,3.1.0,59.965735013891,
,,,C,U,g,n,L,G,y,L,y,,,,,5,19,119,7,4,0,4,0,,,,,0,1,1,34,,,,,,down,0.583773662704516,2773.400465036112,None,001,92,2019_Nov_04_1203,ACPT_experiment_5_30_19,3.1.0,59.965735013891,
,,,C,U,g,n,R,G,y,R,y,,,,,5,19,119,7,4,0,4,0,,,,,0,2,2,29,,,,,,down,1.0841517347089393,2775.2685491483035,None,001,92,2019_Nov_04_1203,ACPT_experiment_5_30_19,3.1.0,59.965735013891,
,,,C,U,g,n,R,U,d,L,u,,,,,5,19,119,7,4,0,4,0,,,,,0,3,3,8,,,,,,up,0.583776077535731,2777.6370034842994,None,001,92,2019_Nov_04_1203,ACPT_experiment_5_30_19,3.1.0,59.965735013891,
,,,C,U,g,n,R,G,y,L,y,,,,,5,19,119,7,4,0,4,0,,,,,0,4,4,28,,,,,,down,0.6338089645178115,2779.5217659298105,None,001,92,2019_Nov_04_1203,ACPT_experiment_5_30_19,3.1.0,59.965735013891,
,,,C,U,g,n,R,D,g,L,i,,,,,5,19,119,7,4,0,4,0,,,,,0,5,5,2,,,,,,up,0.5504079404472577,2781.456566695674,None,001,92,2019_Nov_04_1203,ACPT_experiment_5_30_19,3.1.0,59.965735013891,
,,,C,U,g,n,L,G,d,L,i,,,,,5,19,119,7,4,0,4,0,,,,,0,6,6,16,,,,,,up,0.583780907198161,2783.2912814633637,None,001,92,2019_Nov_04_1203,ACPT_experiment_5_30_19,3.1.0,59.965735013891,
,,,C,U,g,n,L,D,d,R,c ,,,,,5,19,119,7,4,0,4,0,,,,,0,7,7,13,,,,,,up,0.6838714331815936,2785.15936285887,None,001,92,2019_Nov_04_1203,ACPT_experiment_5_30_19,3.1.0,59.965735013891,
,,,C,U,g,n,L,D,g,R,i,,,,,5,19,119,7,4,0,4,0,,,,,0,8,8,15,,,,,,up,0.5504151849409027,2787.127519989519,None,001,92,2019_Nov_04_1203,ACPT_experiment_5_30_19,3.1.0,59.965735013891,
,,,C,U,g,n,R,G,g,R,c ,,,,,5,19,119,7,4,0,4,0,,,,,0,9,9,7,,,,,,up,0.5837691348961016,2788.962240794286,None,001,92,2019_Nov_04_1203,ACPT_experiment_5_30_19,3.1.0,59.965735013891,
,,,C,U,g,n,R,U,y,R,u,,,,,5,19,119,7,4,0,4,0,,,,,0,10,10,31,,,,,,down,0.5501718907007671,2790.847244119207,None,001,92,2019_Nov_04_1203,ACPT_experiment_5_30_19,3.1.0,59.965735013891,
,,,C,U,g,n,L,G,y,R,y,,,,,5,19,119,7,4,0,4,0,,,,,0,11,11,35,,,,,,down,0.7338756440422003,2792.698402679738,None,001,92,2019_Nov_04_1203,ACPT_experiment_5_30_19,3.1.0,59.965735013891,
,,,C,U,g,n,L,U,y,R,u,,,,,5,19,119,7,4,0,4,0,,,,,0,12,12,25,,,,,,down,0.7339006979163969,2794.7332740492275,None,001,92,2019_Nov_04_1203,ACPT_experiment_5_30_19,3.1.0,59.965735013891,
,,,C,U,g,n,R,G,d,R,i,,,,,5,19,119,7,4,0,4,0,,,,,0,13,13,5,,,,,,up,0.50037897756647,2796.7514640668596,None,001,92,2019_Nov_04_1203,ACPT_experiment_5_30_19,3.1.0,59.965735013891,
,,,C,U,g,n,R,G,d,L,i,,,,,5,19,119,7,4,0,4,0,,,,,0,14,14,4,,,,,,up,0.7005856871146534,2798.5194455789115,None,001,92,2019_Nov_04_1203,ACPT_experiment_5_30_19,3.1.0,59.965735013891,
,,,C,U,g,n,L,G,d,R,i,,,,,5,19,119,7,4,0,4,0,,,,,0,15,15,17,,,,,,up,0.5170373885284789,2800.4876446672524,None,001,92,2019_Nov_04_1203,ACPT_experiment_5_30_19,3.1.0,59.965735013891,
,,,C,U,g,n,R,D,d,L,c,,,,,5,19,119,7,4,0,4,0,,,,,0,16,16,0,,,,,,up,0.5170576127402455,2802.272305116333,None,001,92,2019_Nov_04_1203,ACPT_experiment_5_30_19,3.1.0,59.965735013891,
,,,C,U,g,n,L,U,y,L,u,,,,,5,19,119,7,4,0,4,0,,,,,0,17,17,24,,,,,,down,0.5999738594528026,2804.0907910111528,None,001,92,2019_Nov_04_1203,ACPT_experiment_5_30_19,3.1.0,59.965735013891,
,,,C,U,g,n,L,G,g,L,c ,,,,,5,19,119,7,4,0,4,0,,,,,0,18,18,18,,,,,,up,0.617132744175251,2805.9751079203143,None,001,92,2019_Nov_04_1203,ACPT_experiment_5_30_19,3.1.0,59.965735013891,
,,,C,U,g,n,L,D,d,L,c ,,,,,5,19,119,7,4,0,4,0,,,,,0,19,19,12,,,,,,up,0.5337262867351455,2807.8765514158304,None,001,92,2019_Nov_04_1203,ACPT_experiment_5_30_19,3.1.0,59.965735013891,
,,,C,U,g,n,R,U,g,L,u,,,,,5,19,119,7,4,0,4,0,,,,,0,20,20,10,,,,,,up,0.4003249759052778,2809.694587548345,None,001,92,2019_Nov_04_1203,ACPT_experiment_5_30_19,3.1.0,59.965735013891,
,,,C,U,g,n,R,G,g,L,c ,,,,,5,19,119,7,4,0,4,0,,,,,0,21,21,6,,,,,,up,0.3666724924460141,2811.3794662679775,None,001,92,2019_Nov_04_1203,ACPT_experiment_5_30_19,3.1.0,59.965735013891,
,,,C,U,g,n,R,D,y,L,y,,,,,5,19,119,7,4,0,4,0,,,,,0,22,22,26,,,,,,down,0.6171276126588054,2813.0471257321087,None,001,92,2019_Nov_04_1203,ACPT_experiment_5_30_19,3.1.0,59.965735013891,
,,,C,U,g,n,R,U,y,L,u,,,,,5,19,119,7,4,0,4,0,,,,,0,23,23,30,,,,,,down,0.8839981514474857,2814.965243033136,None,001,92,2019_Nov_04_1203,ACPT_experiment_5_30_19,3.1.0,59.965735013891,
,,,C,U,g,n,L,D,y,L,y,,,,,5,19,119,7,4,0,4,0,,,,,0,24,24,32,,,,,,down,0.8339622459261591,2817.133545295139,None,001,92,2019_Nov_04_1203,ACPT_experiment_5_30_19,3.1.0,59.965735013891,
,,,C,U,g,n,R,D,g,R,i,,,,,5,19,119,7,4,0,4,0,,,,,0,25,25,3,,,,,,up,0.5337299089824228,2819.25182010353,None,001,92,2019_Nov_04_1203,ACPT_experiment_5_30_19,3.1.0,59.965735013891,
,,,C,U,g,n,L,D,g,L,i,,,,,5,19,119,7,4,0,4,0,,,,,0,26,26,14,,,,,,up,0.7005225996499576,2821.0698634805385,None,001,92,2019_Nov_04_1203,ACPT_experiment_5_30_19,3.1.0,59.965735013891,
,,,C,U,g,n,L,U,g,L,u,,,,,5,19,119,7,4,0,4,0,,,,,0,27,27,22,,,,,,up,0.6171626277109681,2823.054691700014,None,001,92,2019_Nov_04_1203,ACPT_experiment_5_30_19,3.1.0,59.965735013891,
,,,C,U,g,n,L,D,y,R,y,,,,,5,19,119,7,4,0,4,0,,,,,0,28,28,33,,,,,,down,1.1342148070807525,2824.9561297621603,None,001,92,2019_Nov_04_1203,ACPT_experiment_5_30_19,3.1.0,59.965735013891,
,,,C,U,g,n,R,D,d,R,c ,,,,,5,19,119,7,4,0,4,0,,,,,0,29,29,1,,,,,,up,0.6504761292435433,2827.3746402278875,None,001,92,2019_Nov_04_1203,ACPT_experiment_5_30_19,3.1.0,59.965735013891,
,,,C,U,g,n,R,U,g,R,u,,,,,5,19,119,7,4,0,4,0,,,,,0,30,30,11,,,,,,up,0.5004043332937727,2829.3094222788095,None,001,92,2019_Nov_04_1203,ACPT_experiment_5_30_19,3.1.0,59.965735013891,
,,,C,U,g,n,R,U,d,R,u,,,,,5,19,119,7,4,0,4,0,,,,,0,31,31,9,,,,,,up,0.5169646417398326,2831.077409224232,None,001,92,2019_Nov_04_1203,ACPT_experiment_5_30_19,3.1.0,59.965735013891,
,,,C,U,g,n,L,U,d,L,u,,,,,5,19,119,7,4,0,4,0,,,,,0,32,32,20,,,,,,up,0.7005603313873507,2832.878791171739,None,001,92,2019_Nov_04_1203,ACPT_experiment_5_30_19,3.1.0,59.965735013891,
,,,C,U,g,n,R,D,y,R,y,,,,,5,19,119,7,4,0,4,0,,,,,0,33,33,27,,,,,,up,0.4168055949221525,2834.880461027492,None,001,92,2019_Nov_04_1203,ACPT_experiment_5_30_19,3.1.0,59.965735013891,
,,,C,U,g,n,L,U,d,R,u,,,,,5,19,119,7,4,0,4,0,,,,,0,34,34,21,,,,,,up,0.6835991609668781,2836.598546090524,None,001,92,2019_Nov_04_1203,ACPT_experiment_5_30_19,3.1.0,59.965735013891,
,,,C,U,g,n,L,G,g,R,c ,,,,,5,19,119,7,4,0,4,0,,,,,0,35,35,19,,,,,,up,0.850639975537888,2838.566428835982,None,001,92,2019_Nov_04_1203,ACPT_experiment_5_30_19,3.1.0,59.965735013891,
,,,C,U,g,n,L,D,y,L,y,,,,,5,19,119,7,4,0,4,0,,,,,1,0,36,32,,,,,,down,0.7672860406755717,2840.701370809098,None,001,92,2019_Nov_04_1203,ACPT_experiment_5_30_19,3.1.0,59.965735013891,
,,,C,U,g,n,L,G,y,R,y,,,,,5,19,119,7,4,0,4,0,,,,,1,1,37,35,,,,,,down,1.517820699389631,2842.752929869379,None,001,92,2019_Nov_04_1203,ACPT_experiment_5_30_19,3.1.0,59.965735013891,
,,,C,U,g,n,R,D,y,L,y,,,,,5,19,119,7,4,0,4,0,,,,,1,2,38,26,,,,,,down,0.7172039515089637,2845.5550531700546,None,001,92,2019_Nov_04_1203,ACPT_experiment_5_30_19,3.1.0,59.965735013891,
,,,C,U,g,n,L,D,d,L,c ,,,,,5,19,119,7,4,0,4,0,,,,,1,3,39,12,,,,,,up,0.5670974423619555,2847.556561232119,None,001,92,2019_Nov_04_1203,ACPT_experiment_5_30_19,3.1.0,59.965735013891,
,,,C,U,g,n,L,G,g,R,c ,,,,,5,19,119,7,4,0,4,0,,,,,1,4,40,19,,,,,,up,0.5003786757124544,2849.4079597664977,None,001,92,2019_Nov_04_1203,ACPT_experiment_5_30_19,3.1.0,59.965735013891,
,,,C,U,g,n,R,G,d,L,i,,,,,5,19,119,7,4,0,4,0,,,,,1,5,41,4,,,,,,up,0.5168070740055555,2851.2095765563354,None,001,92,2019_Nov_04_1203,ACPT_experiment_5_30_19,3.1.0,59.965735013891,
,,,C,U,g,n,L,U,y,L,u,,,,,5,19,119,7,4,0,4,0,,,,,1,6,42,24,,,,,,down,0.583780907198161,2853.0106847223587,None,001,92,2019_Nov_04_1203,ACPT_experiment_5_30_19,3.1.0,59.965735013891,
,,,C,U,g,n,R,U,d,L,u,,,,,5,19,119,7,4,0,4,0,,,,,1,7,43,8,,,,,,up,1.601237419861718,2854.8787443843858,None,001,92,2019_Nov_04_1203,ACPT_experiment_5_30_19,3.1.0,59.965735013891,
,,,C,U,g,n,L,G,y,L,y,,,,,5,19,119,7,4,0,4,0,,,,,1,8,44,34,,,,,,down,0.7839269441128636,2857.7642816888483,None,001,92,2019_Nov_04_1203,ACPT_experiment_5_30_19,3.1.0,59.965735013891,
,,,C,U,g,n,R,D,d,L,c,,,,,5,19,119,7,4,0,4,0,,,,,1,9,45,0,,,,,,up,0.8840334683527544,2859.8325112342472,None,001,92,2019_Nov_04_1203,ACPT_experiment_5_30_19,3.1.0,59.965735013891,
,,,C,U,g,n,R,D,y,R,y,,,,,5,19,119,7,4,0,4,0,,,,,1,10,46,27,,,,,,down,0.583795698038557,2861.984119768381,None,001,92,2019_Nov_04_1203,ACPT_experiment_5_30_19,3.1.0,59.965735013891,
,,,C,U,g,n,L,U,g,R,u,,,,,5,19,119,7,4,0,4,0,,,,,1,11,47,23,,,,,,up,0.617135159006466,2863.8522210862448,None,001,92,2019_Nov_04_1203,ACPT_experiment_5_30_19,3.1.0,59.965735013891,
,,,C,U,g,n,L,D,g,L,i,,,,,5,19,119,7,4,0,4,0,,,,,1,12,48,14,,,,,,up,0.5837730589964849,2865.7536606576605,None,001,92,2019_Nov_04_1203,ACPT_experiment_5_30_19,3.1.0,59.965735013891,
,,,C,U,g,n,L,U,g,L,u,,,,,5,19,119,7,4,0,4,0,,,,,1,13,49,22,,,,,,up,0.6838545293621792,2867.6217396383363,None,001,92,2019_Nov_04_1203,ACPT_experiment_5_30_19,3.1.0,59.965735013891,
,,,C,U,g,n,L,U,y,R,u,,,,,5,19,119,7,4,0,4,0,,,,,1,14,50,25,,,,,,down,0.5470815105136353,2869.6099000229706,None,001,92,2019_Nov_04_1203,ACPT_experiment_5_30_19,3.1.0,59.965735013891,
,,,C,U,g,n,L,G,d,R,i,,,,,5,19,119,7,4,0,4,0,,,,,1,15,51,17,,,,,,up,0.8339556051405452,2871.4412956052183,None,001,92,2019_Nov_04_1203,ACPT_experiment_5_30_19,3.1.0,59.965735013891,
,,,C,U,g,n,R,D,g,R,i,,,,,5,19,119,7,4,0,4,0,,,,,1,16,52,3,,,,,,up,0.850645107053424,2873.55956739507,None,001,92,2019_Nov_04_1203,ACPT_experiment_5_30_19,3.1.0,59.965735013891,
,,,C,U,g,n,R,U,g,R,u,,,,,5,19,119,7,4,0,4,0,,,,,1,17,53,11,,,,,,up,0.5670992534851393,2875.6945163108257,None,001,92,2019_Nov_04_1203,ACPT_experiment_5_30_19,3.1.0,59.965735013891,
,,,C,U,g,n,R,G,g,L,c ,,,,,5,19,119,7,4,0,4,0,,,,,1,18,54,6,,,,,,up,0.6838294754898016,2877.545940200932,None,001,92,2019_Nov_04_1203,ACPT_experiment_5_30_19,3.1.0,59.965735013891,
,,,C,U,g,n,L,U,d,R,u,,,,,5,19,119,7,4,0,4,0,,,,,1,19,55,21,,,,,,up,1.9348197826593605,2879.5140683536074,None,001,92,2019_Nov_04_1203,ACPT_experiment_5_30_19,3.1.0,59.965735013891,
,,,C,U,g,n,R,G,g,R,c ,,,,,5,19,119,7,4,0,4,0,,,,,1,20,56,7,,,,,,up,1.4844595049407872,2882.733171117049,None,001,92,2019_Nov_04_1203,ACPT_experiment_5_30_19,3.1.0,59.965735013891,
,,,C,U,g,n,R,U,d,R,u,,,,,5,19,119,7,4,0,4,0,,,,,1,21,57,9,,,,,,up,0.48369581458428,2885.501933525131,None,001,92,2019_Nov_04_1203,ACPT_experiment_5_30_19,3.1.0,59.965735013891,
,,,C,U,g,n,R,G,y,L,y,,,,,5,19,119,7,4,0,4,0,,,,,1,22,58,28,,,,,,down,0.5837742664125471,2887.2699376762257,None,001,92,2019_Nov_04_1203,ACPT_experiment_5_30_19,3.1.0,59.965735013891,
,,,C,U,g,n,L,D,g,R,i,,,,,5,19,119,7,4,0,4,0,,,,,1,23,59,15,,,,,,up,0.3502872592598578,2889.1380166569015,None,001,92,2019_Nov_04_1203,ACPT_experiment_5_30_19,3.1.0,59.965735013891,
,,,C,U,g,n,R,G,d,R,i,,,,,5,19,119,7,4,0,4,0,,,,,1,24,60,5,,,,,,up,0.33356787381035247,2890.7725974618306,None,001,92,2019_Nov_04_1203,ACPT_experiment_5_30_19,3.1.0,59.965735013891,
,,,C,U,g,n,R,D,g,L,i,,,,,5,19,119,7,4,0,4,0,,,,,1,25,61,2,,,,,,up,0.5004019184625577,2892.390478501814,None,001,92,2019_Nov_04_1203,ACPT_experiment_5_30_19,3.1.0,59.965735013891,
,,,C,U,g,n,R,D,d,R,c ,,,,,5,19,119,7,4,0,4,0,,,,,1,26,62,1,,,,,,up,0.33358930543727183,2894.1584699750456,None,001,92,2019_Nov_04_1203,ACPT_experiment_5_30_19,3.1.0,59.965735013891,
,,,C,U,g,n,R,U,y,L,u,,,,,5,19,119,7,4,0,4,0,,,,,1,27,63,30,,,,,,down,0.7172495314480329,2895.776373050363,None,001,92,2019_Nov_04_1203,ACPT_experiment_5_30_19,3.1.0,59.965735013891,
,,,C,U,g,n,L,D,d,R,c ,,,,,5,19,119,7,4,0,4,0,,,,,1,28,64,13,,,,,,up,0.6004586368098899,2897.7778829235513,None,001,92,2019_Nov_04_1203,ACPT_experiment_5_30_19,3.1.0,59.965735013891,
,,,C,U,g,n,R,U,g,L,u,,,,,5,19,119,7,4,0,4,0,,,,,1,29,65,10,,,,,,up,0.40030112944714347,2899.662642652378,None,001,92,2019_Nov_04_1203,ACPT_experiment_5_30_19,3.1.0,59.965735013891,
,,,C,U,g,n,R,U,y,R,u,,,,,5,19,119,7,4,0,4,0,,,,,1,30,66,31,,,,,,up,0.33037305217476387,2901.3672608056904,None,001,92,2019_Nov_04_1203,ACPT_experiment_5_30_19,3.1.0,59.965735013891,
,,,C,U,g,n,R,G,y,R,y,,,,,5,19,119,7,4,0,4,0,,,,,1,31,67,29,,,,,,down,0.7338919441535836,2902.9818181324235,None,001,92,2019_Nov_04_1203,ACPT_experiment_5_30_19,3.1.0,59.965735013891,
,,,C,U,g,n,L,G,d,L,i,,,,,5,19,119,7,4,0,4,0,,,,,1,32,68,16,,,,,,up,1.1008524052167559,2904.9999939629215,None,001,92,2019_Nov_04_1203,ACPT_experiment_5_30_19,3.1.0,59.965735013891,
,,,C,U,g,n,L,D,y,R,y,,,,,5,19,119,7,4,0,4,0,,,,,1,33,69,33,,,,,,down,0.6671994387925224,2907.3851541009417,None,001,92,2019_Nov_04_1203,ACPT_experiment_5_30_19,3.1.0,59.965735013891,
,,,C,U,g,n,L,G,g,L,c ,,,,,5,19,119,7,4,0,4,0,,,,,1,34,70,18,,,,,,up,0.5504121664025661,2909.3366271630466,None,001,92,2019_Nov_04_1203,ACPT_experiment_5_30_19,3.1.0,59.965735013891,
,,,C,U,g,n,L,U,d,L,u,,,,,5,19,119,7,4,0,4,0,,,,,1,35,71,20,,,,,,up,0.6504969571624315,2911.1713449492745,None,001,92,2019_Nov_04_1203,ACPT_experiment_5_30_19,3.1.0,59.965735013891,
,,,C,U,g,n,,,,,,,,,,5,19,119,7,5,0,5,0,0,0,0,0,,,,,,,,,,,,,,001,92,2019_Nov_04_1203,ACPT_experiment_5_30_19,3.1.0,59.965735013891,
,,,C,U,g,n,R,D,d,L,c,,,,,5,19,119,7,5,0,5,0,,,,,0,0,0,0,,,,,,up,2.518304571185581,2915.9752543194536,None,001,92,2019_Nov_04_1203,ACPT_experiment_5_30_19,3.1.0,59.965735013891,
,,,C,U,g,n,R,G,g,L,c ,,,,,5,19,119,7,5,0,5,0,,,,,0,1,1,6,,,,,,up,0.7505735978666053,2919.777858171532,None,001,92,2019_Nov_04_1203,ACPT_experiment_5_30_19,3.1.0,59.965735013891,
,,,C,U,g,n,L,G,d,R,i,,,,,5,19,119,7,5,0,5,0,,,,,0,2,2,17,,,,,,up,0.9840666420950583,2921.812739804054,None,001,92,2019_Nov_04_1203,ACPT_experiment_5_30_19,3.1.0,59.965735013891,
,,,C,U,g,n,R,D,y,R,y,,,,,5,19,119,7,5,0,5,0,,,,,0,3,3,27,,,,,,down,0.667162914472101,2924.081118103053,None,001,92,2019_Nov_04_1203,ACPT_experiment_5_30_19,3.1.0,59.965735013891,
,,,C,U,g,n,R,U,g,L,u,,,,,5,19,119,7,5,0,5,0,,,,,0,4,4,10,,,,,,up,1.367704530917763,2926.0325890521817,None,001,92,2019_Nov_04_1203,ACPT_experiment_5_30_19,3.1.0,59.965735013891,
,,,C,U,g,n,L,U,d,R,u,,,,,5,19,119,7,5,0,5,0,,,,,0,5,5,21,,,,,,up,0.5337305126904539,2928.684600108486,None,001,92,2019_Nov_04_1203,ACPT_experiment_5_30_19,3.1.0,59.965735013891,
,,,C,U,g,n,R,G,y,R,y,,,,,5,19,119,7,5,0,5,0,,,,,0,6,6,29,,,,,,down,1.5844972064933245,2930.5026794061087,None,001,92,2019_Nov_04_1203,ACPT_experiment_5_30_19,3.1.0,59.965735013891,
,,,C,U,g,n,L,U,g,R,u,,,,,5,19,119,7,5,0,5,0,,,,,0,7,7,23,,,,,,up,1.234274845820437,2933.3714737805176,None,001,92,2019_Nov_04_1203,ACPT_experiment_5_30_19,3.1.0,59.965735013891,
,,,C,U,g,n,L,G,g,L,c ,,,,,5,19,119,7,5,0,5,0,,,,,0,8,8,18,,,,,,up,0.6505051072172137,2935.8900463979617,None,001,92,2019_Nov_04_1203,ACPT_experiment_5_30_19,3.1.0,59.965735013891,
,,,C,U,g,n,L,D,y,R,y,,,,,5,19,119,7,5,0,5,0,,,,,0,9,9,33,,,,,,down,0.48369490902223333,2937.824845352702,None,001,92,2019_Nov_04_1203,ACPT_experiment_5_30_19,3.1.0,59.965735013891,
,,,C,U,g,n,R,G,d,R,i,,,,,5,19,119,7,5,0,5,0,,,,,0,10,10,5,,,,,,up,0.40004244065858074,2939.6097892425905,None,001,92,2019_Nov_04_1203,ACPT_experiment_5_30_19,3.1.0,59.965735013891,
,,,C,U,g,n,R,U,y,L,u,,,,,5,19,119,7,5,0,5,0,,,,,0,11,11,30,,,,,,down,0.5838101870249375,2941.294130964142,None,001,92,2019_Nov_04_1203,ACPT_experiment_5_30_19,3.1.0,59.965735013891,
,,,C,U,g,n,R,U,g,R,u,,,,,5,19,119,7,5,0,5,0,,,,,0,12,12,11,,,,,,up,0.4169815757441029,2943.162211454087,None,001,92,2019_Nov_04_1203,ACPT_experiment_5_30_19,3.1.0,59.965735013891,
,,,C,U,g,n,R,D,d,R,c ,,,,,5,19,119,7,5,0,5,0,,,,,0,13,13,1,,,,,,up,0.5837769830977777,2944.86349502741,None,001,92,2019_Nov_04_1203,ACPT_experiment_5_30_19,3.1.0,59.965735013891,
,,,C,U,g,n,L,G,d,L,i,,,,,5,19,119,7,5,0,5,0,,,,,0,14,14,16,,,,,,up,0.5971279809209591,2946.7515848084176,None,001,92,2019_Nov_04_1203,ACPT_experiment_5_30_19,3.1.0,59.965735013891,
,,,C,U,g,n,R,U,y,R,u,,,,,5,19,119,7,5,0,5,0,,,,,0,15,15,31,,,,,,down,0.5170627442566911,2948.633016296186,None,001,92,2019_Nov_04_1203,ACPT_experiment_5_30_19,3.1.0,59.965735013891,
,,,C,U,g,n,L,U,y,R,u,,,,,5,19,119,7,5,0,5,0,,,,,0,16,16,25,,,,,,up,0.30022811098933744,2950.4343786231902,None,001,92,2019_Nov_04_1203,ACPT_experiment_5_30_19,3.1.0,59.965735013891,
,,,C,U,g,n,L,D,g,L,i,,,,,5,19,119,7,5,0,5,0,,,,,0,17,17,14,,,,,,up,0.8172842144595052,2952.018912052151,None,001,92,2019_Nov_04_1203,ACPT_experiment_5_30_19,3.1.0,59.965735013891,
,,,C,U,g,n,L,U,g,L,u,,,,,5,19,119,7,5,0,5,0,,,,,0,18,18,22,,,,,,up,0.5170609331325977,2954.1204982641893,None,001,92,2019_Nov_04_1203,ACPT_experiment_5_30_19,3.1.0,59.965735013891,
,,,C,U,g,n,L,D,d,L,c ,,,,,5,19,119,7,5,0,5,0,,,,,0,19,19,12,,,,,,up,0.46703921474545496,2955.9218666282704,None,001,92,2019_Nov_04_1203,ACPT_experiment_5_30_19,3.1.0,59.965735013891,
,,,C,U,g,n,L,D,g,R,i,,,,,5,19,119,7,5,0,5,0,,,,,0,20,20,15,,,,,,up,0.5504399369610837,2957.6564899644145,None,001,92,2019_Nov_04_1203,ACPT_experiment_5_30_19,3.1.0,59.965735013891,
,,,C,U,g,n,L,G,g,R,c ,,,,,5,19,119,7,5,0,5,0,,,,,0,21,21,19,,,,,,up,0.666900603436261,2959.508179184095,None,001,92,2019_Nov_04_1203,ACPT_experiment_5_30_19,3.1.0,59.965735013891,
,,,C,U,g,n,L,D,d,R,c ,,,,,5,19,119,7,5,0,5,0,,,,,0,22,22,13,,,,,,up,1.5511818938375654,2961.459382690671,None,001,92,2019_Nov_04_1203,ACPT_experiment_5_30_19,3.1.0,59.965735013891,
,,,C,U,g,n,L,G,y,L,y,,,,,5,19,119,7,5,0,5,0,,,,,0,23,23,34,,,,,,up,0.46701355716413673,2964.294867789503,None,001,92,2019_Nov_04_1203,ACPT_experiment_5_30_19,3.1.0,59.965735013891,
,,,C,U,g,n,R,G,d,L,i,,,,,5,19,119,7,5,0,5,0,,,,,0,24,24,4,,,,,,up,0.6971901326378429,2966.066206218733,None,001,92,2019_Nov_04_1203,ACPT_experiment_5_30_19,3.1.0,59.965735013891,
,,,C,U,g,n,R,G,y,L,y,,,,,5,19,119,7,5,0,5,0,,,,,0,25,25,28,,,,,,up,0.3502842407206117,2968.047687482209,None,001,92,2019_Nov_04_1203,ACPT_experiment_5_30_19,3.1.0,59.965735013891,
,,,C,U,g,n,L,U,d,L,u,,,,,5,19,119,7,5,0,5,0,,,,,0,26,26,20,,,,,,up,0.6005066315792646,2969.682269796408,None,001,92,2019_Nov_04_1203,ACPT_experiment_5_30_19,3.1.0,59.965735013891,
,,,C,U,g,n,R,D,y,L,y,,,,,5,19,119,7,5,0,5,0,,,,,0,27,27,26,,,,,,down,0.5671735095438635,2971.5670364678745,None,001,92,2019_Nov_04_1203,ACPT_experiment_5_30_19,3.1.0,59.965735013891,
,,,C,U,g,n,L,G,y,R,y,,,,,5,19,119,7,5,0,5,0,,,,,0,28,28,35,,,,,,down,0.7004951309454555,2973.4684989801863,None,001,92,2019_Nov_04_1203,ACPT_experiment_5_30_19,3.1.0,59.965735013891,
,,,C,U,g,n,L,D,y,L,y,,,,,5,19,119,7,5,0,5,0,,,,,0,29,29,32,,,,,,down,0.5003720349268406,2975.4699874217476,None,001,92,2019_Nov_04_1203,ACPT_experiment_5_30_19,3.1.0,59.965735013891,
,,,C,U,g,n,R,U,d,R,u,,,,,5,19,119,7,5,0,5,0,,,,,0,30,30,9,,,,,,up,0.5837739645576221,2977.254666283916,None,001,92,2019_Nov_04_1203,ACPT_experiment_5_30_19,3.1.0,59.965735013891,
,,,C,U,g,n,R,G,g,R,c ,,,,,5,19,119,7,5,0,5,0,,,,,0,31,31,7,,,,,,up,1.3510446106856762,2979.122724436673,None,001,92,2019_Nov_04_1203,ACPT_experiment_5_30_19,3.1.0,59.965735013891,
,,,C,U,g,n,R,D,g,L,i,,,,,5,19,119,7,5,0,5,0,,,,,0,32,32,2,,,,,,up,0.850647823739564,2981.7580737616217,None,001,92,2019_Nov_04_1203,ACPT_experiment_5_30_19,3.1.0,59.965735013891,
,,,C,U,g,n,L,U,y,L,u,,,,,5,19,119,7,5,0,5,0,,,,,0,33,33,24,,,,,,down,0.6171532702401237,2983.8930226773773,None,001,92,2019_Nov_04_1203,ACPT_experiment_5_30_19,3.1.0,59.965735013891,
,,,C,U,g,n,R,U,d,L,u,,,,,5,19,119,7,5,0,5,0,,,,,0,34,34,8,,,,,,up,0.4167452241435967,2985.811404402418,None,001,92,2019_Nov_04_1203,ACPT_experiment_5_30_19,3.1.0,59.965735013891,
,,,C,U,g,n,R,D,g,R,i,,,,,5,19,119,7,5,0,5,0,,,,,0,35,35,3,,,,,,up,0.7338868126371381,2987.512426268412,None,001,92,2019_Nov_04_1203,ACPT_experiment_5_30_19,3.1.0,59.965735013891,
,,,C,U,g,n,L,G,g,R,c ,,,,,5,19,119,7,5,0,5,0,,,,,1,0,36,19,,,,,,up,1.0674857773992699,2989.5306199082906,None,001,92,2019_Nov_04_1203,ACPT_experiment_5_30_19,3.1.0,59.965735013891,
,,,C,U,g,n,R,U,g,L,u,,,,,5,19,119,7,5,0,5,0,,,,,1,1,37,10,,,,,,up,0.48366744031864073,2991.882420662985,None,001,92,2019_Nov_04_1203,ACPT_experiment_5_30_19,3.1.0,59.965735013891,
,,,C,U,g,n,L,U,y,L,u,,,,,5,19,119,7,5,0,5,0,,,,,1,2,38,24,,,,,,down,0.6838430589150448,2993.650403986161,None,001,92,2019_Nov_04_1203,ACPT_experiment_5_30_19,3.1.0,59.965735013891,
,,,C,U,g,n,R,G,g,R,c ,,,,,5,19,119,7,5,0,5,0,,,,,1,3,39,7,,,,,,up,0.6004906333228064,2995.618534251814,None,001,92,2019_Nov_04_1203,ACPT_experiment_5_30_19,3.1.0,59.965735013891,
,,,C,U,g,n,L,D,g,L,i,,,,,5,19,119,7,5,0,5,0,,,,,1,4,40,14,,,,,,up,0.5837739645585316,2997.5033166196827,None,001,92,2019_Nov_04_1203,ACPT_experiment_5_30_19,3.1.0,59.965735013891,
,,,C,U,g,n,L,G,g,L,c ,,,,,5,19,119,7,5,0,5,0,,,,,1,5,41,18,,,,,,up,0.5001272314175367,2999.3883528466786,None,001,92,2019_Nov_04_1203,ACPT_experiment_5_30_19,3.1.0,59.965735013891,
,,,C,U,g,n,R,U,y,L,u,,,,,5,19,119,7,5,0,5,0,,,,,1,6,42,30,,,,,,down,0.5670923108455099,3001.1727609459012,None,001,92,2019_Nov_04_1203,ACPT_experiment_5_30_19,3.1.0,59.965735013891,
,,,C,U,g,n,L,U,y,R,u,,,,,5,19,119,7,5,0,5,0,,,,,1,7,43,25,,,,,,up,0.6672090981173824,3003.024158876572,None,001,92,2019_Nov_04_1203,ACPT_experiment_5_30_19,3.1.0,59.965735013891,
,,,C,U,g,n,R,D,y,R,y,,,,,5,19,119,7,5,0,5,0,,,,,1,8,44,27,,,,,,down,0.8506484274466857,3004.9756370701934,None,001,92,2019_Nov_04_1203,ACPT_experiment_5_30_19,3.1.0,59.965735013891,
,,,C,U,g,n,R,D,d,R,c ,,,,,5,19,119,7,5,0,5,0,,,,,1,9,45,1,,,,,,up,1.000758558840971,3007.110586287804,None,001,92,2019_Nov_04_1203,ACPT_experiment_5_30_19,3.1.0,59.965735013891,
,,,C,U,g,n,L,D,y,R,y,,,,,5,19,119,7,5,0,5,0,,,,,1,10,46,33,,,,,,down,1.0507914458230516,3009.412330007205,None,001,92,2019_Nov_04_1203,ACPT_experiment_5_30_19,3.1.0,59.965735013891,
,,,C,U,g,n,L,U,d,R,u,,,,,5,19,119,7,5,0,5,0,,,,,1,11,47,21,,,,,,up,0.7839287552360474,3011.764104198757,None,001,92,2019_Nov_04_1203,ACPT_experiment_5_30_19,3.1.0,59.965735013891,
,,,C,U,g,n,L,D,d,R,c ,,,,,5,19,119,7,5,0,5,0,,,,,1,12,48,13,,,,,,up,0.500371733072825,3013.8323355552793,None,001,92,2019_Nov_04_1203,ACPT_experiment_5_30_19,3.1.0,59.965735013891,
,,,C,U,g,n,L,U,g,L,u,,,,,5,19,119,7,5,0,5,0,,,,,1,13,49,22,,,,,,up,0.6171327441743415,3015.617020756379,None,001,92,2019_Nov_04_1203,ACPT_experiment_5_30_19,3.1.0,59.965735013891,
,,,C,U,g,n,L,U,g,R,u,,,,,5,19,119,7,5,0,5,0,,,,,1,14,50,23,,,,,,up,0.4838322525456533,3017.501647971345,None,001,92,2019_Nov_04_1203,ACPT_experiment_5_30_19,3.1.0,59.965735013891,
,,,C,U,g,n,R,G,d,L,i,,,,,5,19,119,7,5,0,5,0,,,,,1,15,51,4,,,,,,up,0.6171164440647772,3019.2697948993327,None,001,92,2019_Nov_04_1203,ACPT_experiment_5_30_19,3.1.0,59.965735013891,
,,,C,U,g,n,R,G,d,R,i,,,,,5,19,119,7,5,0,5,0,,,,,1,16,52,5,,,,,,up,0.867323742228109,3021.171220585469,None,001,92,2019_Nov_04_1203,ACPT_experiment_5_30_19,3.1.0,59.965735013891,
,,,C,U,g,n,R,D,y,L,y,,,,,5,19,119,7,5,0,5,0,,,,,1,17,53,26,,,,,,down,0.7172072719013158,3023.3228505512307,None,001,92,2019_Nov_04_1203,ACPT_experiment_5_30_19,3.1.0,59.965735013891,
,,,C,U,g,n,R,G,y,L,y,,,,,5,19,119,7,5,0,5,0,,,,,1,18,54,28,,,,,,down,0.9840874700148561,3025.32436132998,None,001,92,2019_Nov_04_1203,ACPT_experiment_5_30_19,3.1.0,59.965735013891,
,,,C,U,g,n,L,U,d,L,u,,,,,5,19,119,7,5,0,5,0,,,,,1,19,55,20,,,,,,up,0.600454109000566,3027.5927453642034,None,001,92,2019_Nov_04_1203,ACPT_experiment_5_30_19,3.1.0,59.965735013891,
,,,C,U,g,n,L,G,y,L,y,,,,,5,19,119,7,5,0,5,0,,,,,1,20,56,34,,,,,,down,0.917378362690215,3029.477481548426,None,001,92,2019_Nov_04_1203,ACPT_experiment_5_30_19,3.1.0,59.965735013891,
,,,C,U,g,n,R,U,g,R,u,,,,,5,19,119,7,5,0,5,0,,,,,1,21,57,11,,,,,,up,0.6838509071167209,3031.679168851334,None,001,92,2019_Nov_04_1203,ACPT_experiment_5_30_19,3.1.0,59.965735013891,
,,,C,U,g,n,L,G,d,L,i,,,,,5,19,119,7,5,0,5,0,,,,,1,22,58,16,,,,,,up,0.8840310535215394,3033.647322359737,None,001,92,2019_Nov_04_1203,ACPT_experiment_5_30_19,3.1.0,59.965735013891,
,,,C,U,g,n,L,D,y,L,y,,,,,5,19,119,7,5,0,5,0,,,,,1,23,59,32,,,,,,down,0.6002657521703441,3035.8324671635783,None,001,92,2019_Nov_04_1203,ACPT_experiment_5_30_19,3.1.0,59.965735013891,
,,,C,U,g,n,L,D,g,R,i,,,,,5,19,119,7,5,0,5,0,,,,,1,24,60,15,,,,,,up,0.7005796500361612,3037.7337500728217,None,001,92,2019_Nov_04_1203,ACPT_experiment_5_30_19,3.1.0,59.965735013891,
,,,C,U,g,n,R,D,g,L,i,,,,,5,19,119,7,5,0,5,0,,,,,1,25,61,2,,,,,,up,0.9674070237169872,3039.718580405275,None,001,92,2019_Nov_04_1203,ACPT_experiment_5_30_19,3.1.0,59.965735013891,
,,,C,U,g,n,R,U,d,R,u,,,,,5,19,119,7,5,0,5,0,,,,,1,26,62,9,,,,,,up,0.6504996738467526,3041.970287313594,None,001,92,2019_Nov_04_1203,ACPT_experiment_5_30_19,3.1.0,59.965735013891,
,,,C,U,g,n,L,G,d,R,i,,,,,5,19,119,7,5,0,5,0,,,,,1,27,63,17,,,,,,up,0.5002011856213358,3043.9219351491047,None,001,92,2019_Nov_04_1203,ACPT_experiment_5_30_19,3.1.0,59.965735013891,
,,,C,U,g,n,R,D,g,R,i,,,,,5,19,119,7,5,0,5,0,,,,,1,28,64,3,,,,,,up,0.48371905733438325,3045.706447387922,None,001,92,2019_Nov_04_1203,ACPT_experiment_5_30_19,3.1.0,59.965735013891,
,,,C,U,g,n,L,D,d,L,c ,,,,,5,19,119,7,5,0,5,0,,,,,1,29,65,12,,,,,,up,0.7839275478208947,3047.474446709354,None,001,92,2019_Nov_04_1203,ACPT_experiment_5_30_19,3.1.0,59.965735013891,
,,,C,U,g,n,R,D,d,L,c,,,,,5,19,119,7,5,0,5,0,,,,,1,30,66,0,,,,,,up,0.5837627959635938,3049.5426922530105,None,001,92,2019_Nov_04_1203,ACPT_experiment_5_30_19,3.1.0,59.965735013891,
,,,C,U,g,n,L,G,y,R,y,,,,,5,19,119,7,5,0,5,0,,,,,1,31,67,35,,,,,,down,0.550448388870791,3051.4107594613833,None,001,92,2019_Nov_04_1203,ACPT_experiment_5_30_19,3.1.0,59.965735013891,
,,,C,U,g,n,R,U,y,R,u,,,,,5,19,119,7,5,0,5,0,,,,,1,32,68,31,,,,,,down,0.833964057049343,3053.2454817754196,None,001,92,2019_Nov_04_1203,ACPT_experiment_5_30_19,3.1.0,59.965735013891,
,,,C,U,g,n,R,G,g,L,c ,,,,,5,19,119,7,5,0,5,0,,,,,1,33,69,6,,,,,,up,1.0674746088052416,3055.3637517541483,None,001,92,2019_Nov_04_1203,ACPT_experiment_5_30_19,3.1.0,59.965735013891,
,,,C,U,g,n,R,U,d,L,u,,,,,5,19,119,7,5,0,5,0,,,,,1,34,70,8,,,,,,up,0.5504185053341644,3057.7155274549696,None,001,92,2019_Nov_04_1203,ACPT_experiment_5_30_19,3.1.0,59.965735013891,
,,,C,U,g,n,R,G,y,R,y,,,,,5,19,119,7,5,0,5,0,,,,,1,35,71,29,,,,,,down,0.7005283348744342,3059.5502473541746,None,001,92,2019_Nov_04_1203,ACPT_experiment_5_30_19,3.1.0,59.965735013891,
,,,C,U,g,n,,,,,,,,,,5,19,119,7,6,0,6,0,0,0,0,0,,,,,,,,,,,,,,001,92,2019_Nov_04_1203,ACPT_experiment_5_30_19,3.1.0,59.965735013891,
