facing_vig,person_vig,text_vig,facing_train,person_train,food_train,correct_key_train,facing_exp,person_exp,food_exp,showL_R,consistent,vig_random.thisRepN,vig_random.thisTrialN,vig_random.thisN,vig_random.thisIndex,trainTrials.thisRepN,trainTrials.thisTrialN,trainTrials.thisN,trainTrials.thisIndex,expBlock.thisRepN,expBlock.thisTrialN,expBlock.thisN,expBlock.thisIndex,breakLoop.thisRepN,breakLoop.thisTrialN,breakLoop.thisN,breakLoop.thisIndex,expTrials.thisRepN,expTrials.thisTrialN,expTrials.thisN,expTrials.thisIndex,train_resp.keys,train_resp.corr,train_resp.rt,train_resp.started,train_resp.stopped,exp_resp.keys,exp_resp.rt,exp_resp.started,exp_resp.stopped,session,participant,date,expName,psychopyVersion,frameRate,
C,G,"cannot eat dairy products because she is lactose intolerant. She enjoys eating wheat products. She thinks eating insects, like crickets, is disgusting.",,,,,,,,,,0,0,0,0,,,,,,,,,,,,,,,,,,,,,,,,,,001,93,2019_Nov_05_1200,ACPT_experiment_5_30_19,3.1.0,59.955008840755866,
C,D,"is allergic to gluten, meaning she can’t eat wheat products. She enjoys eating dairy products. She thinks eating insects, like crickets, is disgusting.",,,,,,,,,,0,1,1,1,,,,,,,,,,,,,,,,,,,,,,,,,,001,93,2019_Nov_05_1200,ACPT_experiment_5_30_19,3.1.0,59.955008840755866,
C,U,"did not report her food preferences, so her food preferences are unknown.",,,,,,,,,,0,2,2,2,,,,,,,,,,,,,,,,,,,,,,,,,,001,93,2019_Nov_05_1200,ACPT_experiment_5_30_19,3.1.0,59.955008840755866,
,,,C,U,y,n,,,,,,,,,,0,0,0,8,,,,,,,,,,,,,n,1,3.3859329419663027,459.29573851013265,None,,,,,001,93,2019_Nov_05_1200,ACPT_experiment_5_30_19,3.1.0,59.955008840755866,
,,,C,G,y,b,,,,,,,,,,0,1,1,5,,,,,,,,,,,,,b,1,1.9014827796881946,465.96751148262274,None,,,,,001,93,2019_Nov_05_1200,ACPT_experiment_5_30_19,3.1.0,59.955008840755866,
,,,C,U,d,n,,,,,,,,,,0,2,2,15,,,,,,,,,,,,,v,0,3.0023484438690957,471.15480320161123,None,,,,,001,93,2019_Nov_05_1200,ACPT_experiment_5_30_19,3.1.0,59.955008840755866,
,,,C,G,g,v,,,,,,,,,,0,3,3,19,,,,,,,,,,,,,v,1,1.9849050600814735,477.4429762813206,None,,,,,001,93,2019_Nov_05_1200,ACPT_experiment_5_30_19,3.1.0,59.955008840755866,
,,,C,D,y,b,,,,,,,,,,0,4,4,2,,,,,,,,,,,,,b,1,2.6020190580143208,482.7136812250062,None,,,,,001,93,2019_Nov_05_1200,ACPT_experiment_5_30_19,3.1.0,59.955008840755866,
,,,C,D,y,b,,,,,,,,,,0,5,5,11,,,,,,,,,,,,,b,1,1.284331049688035,488.6015228058652,None,,,,,001,93,2019_Nov_05_1200,ACPT_experiment_5_30_19,3.1.0,59.955008840755866,
,,,C,D,d,v,,,,,,,,,,0,6,6,18,,,,,,,,,,,,,b,0,2.1516641954676743,493.1550277828758,None,,,,,001,93,2019_Nov_05_1200,ACPT_experiment_5_30_19,3.1.0,59.955008840755866,
,,,C,U,d,n,,,,,,,,,,0,7,7,6,,,,,,,,,,,,,v,0,1.8847934335335594,498.592506652918,None,,,,,001,93,2019_Nov_05_1200,ACPT_experiment_5_30_19,3.1.0,59.955008840755866,
,,,C,D,d,v,,,,,,,,,,0,8,8,9,,,,,,,,,,,,,v,1,1.3677267667058004,503.76313679655345,None,,,,,001,93,2019_Nov_05_1200,ACPT_experiment_5_30_19,3.1.0,59.955008840755866,
,,,C,D,g,b,,,,,,,,,,0,9,9,1,,,,,,,,,,,,,b,1,1.8178027138110338,508.41697858508974,None,,,,,001,93,2019_Nov_05_1200,ACPT_experiment_5_30_19,3.1.0,59.955008840755866,
,,,C,G,d,b,,,,,,,,,,0,10,10,3,,,,,,,,,,,,,v,0,3.519381906477747,513.5206122737284,None,,,,,001,93,2019_Nov_05_1200,ACPT_experiment_5_30_19,3.1.0,59.955008840755866,
,,,C,G,y,b,,,,,,,,,,0,11,11,14,,,,,,,,,,,,,b,1,2.1516623843285743,520.3258302865947,None,,,,,001,93,2019_Nov_05_1200,ACPT_experiment_5_30_19,3.1.0,59.955008840755866,
,,,C,D,g,b,,,,,,,,,,0,12,12,10,,,,,,,,,,,,,b,1,4.45344617535693,525.7633284754554,None,,,,,001,93,2019_Nov_05_1200,ACPT_experiment_5_30_19,3.1.0,59.955008840755866,
,,,C,U,g,n,,,,,,,,,,0,13,13,16,,,,,,,,,,,,,n,1,0.96741458667384,533.5025947588044,None,,,,,001,93,2019_Nov_05_1200,ACPT_experiment_5_30_19,3.1.0,59.955008840755866,
,,,C,U,y,n,,,,,,,,,,0,14,14,17,,,,,,,,,,,,,n,1,1.4842159216043456,537.7561222543129,None,,,,,001,93,2019_Nov_05_1200,ACPT_experiment_5_30_19,3.1.0,59.955008840755866,
,,,C,D,d,v,,,,,,,,,,0,15,15,0,,,,,,,,,,,,,v,1,2.0182285126443276,542.5261724711665,None,,,,,001,93,2019_Nov_05_1200,ACPT_experiment_5_30_19,3.1.0,59.955008840755866,
,,,C,G,g,v,,,,,,,,,,0,16,16,4,,,,,,,,,,,,,b,0,2.3184456682379277,547.8302497681741,None,,,,,001,93,2019_Nov_05_1200,ACPT_experiment_5_30_19,3.1.0,59.955008840755866,
,,,C,U,g,n,,,,,,,,,,0,17,17,7,,,,,,,,,,,,,n,1,1.701303295790467,553.4345427114927,None,,,,,001,93,2019_Nov_05_1200,ACPT_experiment_5_30_19,3.1.0,59.955008840755866,
,,,C,G,g,v,,,,,,,,,,0,18,18,13,,,,,,,,,,,,,v,1,6.25480133010069,558.4216908675116,None,,,,,001,93,2019_Nov_05_1200,ACPT_experiment_5_30_19,3.1.0,59.955008840755866,
,,,C,G,d,b,,,,,,,,,,0,19,19,12,,,,,,,,,,,,,b,1,1.267649853660032,567.9623340392752,None,,,,,001,93,2019_Nov_05_1200,ACPT_experiment_5_30_19,3.1.0,59.955008840755866,
,,,C,G,y,b,,,,,,,,,,1,0,20,14,,,,,,,,,,,,,b,1,1.484223468017717,572.5327707532408,None,,,,,001,93,2019_Nov_05_1200,ACPT_experiment_5_30_19,3.1.0,59.955008840755866,
,,,C,G,g,v,,,,,,,,,,1,1,21,13,,,,,,,,,,,,,v,1,3.385937771671024,577.2861427926318,None,,,,,001,93,2019_Nov_05_1200,ACPT_experiment_5_30_19,3.1.0,59.955008840755866,
,,,C,D,y,b,,,,,,,,,,1,2,22,11,,,,,,,,,,,,,b,1,1.9348382290438622,583.9579154632652,None,,,,,001,93,2019_Nov_05_1200,ACPT_experiment_5_30_19,3.1.0,59.955008840755866,
,,,C,G,y,b,,,,,,,,,,1,3,23,5,,,,,,,,,,,,,b,1,1.0508220760968925,589.1785822522845,None,,,,,001,93,2019_Nov_05_1200,ACPT_experiment_5_30_19,3.1.0,59.955008840755866,
,,,C,G,d,b,,,,,,,,,,1,4,24,12,,,,,,,,,,,,,b,1,4.37003264880309,593.4985767464211,None,,,,,001,93,2019_Nov_05_1200,ACPT_experiment_5_30_19,3.1.0,59.955008840755866,
,,,C,G,d,b,,,,,,,,,,1,5,25,3,,,,,,,,,,,,,b,1,0.784107373993038,601.13759556778,None,,,,,001,93,2019_Nov_05_1200,ACPT_experiment_5_30_19,3.1.0,59.955008840755866,
,,,C,D,g,b,,,,,,,,,,1,6,26,1,,,,,,,,,,,,,b,1,2.4682993281880954,605.2244855760871,None,,,,,001,93,2019_Nov_05_1200,ACPT_experiment_5_30_19,3.1.0,59.955008840755866,
,,,C,U,y,n,,,,,,,,,,1,7,27,17,,,,,,,,,,,,,n,1,1.517850588257943,610.9786216143771,None,,,,,001,93,2019_Nov_05_1200,ACPT_experiment_5_30_19,3.1.0,59.955008840755866,
,,,C,D,g,b,,,,,,,,,,1,8,28,10,,,,,,,,,,,,,b,1,3.7028566495373525,615.7823019700365,None,,,,,001,93,2019_Nov_05_1200,ACPT_experiment_5_30_19,3.1.0,59.955008840755866,
,,,C,U,g,n,,,,,,,,,,1,9,29,16,,,,,,,,,,,,,n,1,1.5512163007360869,622.7542942111161,None,,,,,001,93,2019_Nov_05_1200,ACPT_experiment_5_30_19,3.1.0,59.955008840755866,
,,,C,D,d,v,,,,,,,,,,1,10,30,18,,,,,,,,,,,,,v,1,2.3184480830902885,627.5913577869328,None,,,,,001,93,2019_Nov_05_1200,ACPT_experiment_5_30_19,3.1.0,59.955008840755866,
,,,C,D,d,v,,,,,,,,,,1,11,31,9,,,,,,,,,,,,,v,1,0.8673702741339184,633.1789619878098,None,,,,,001,93,2019_Nov_05_1200,ACPT_experiment_5_30_19,3.1.0,59.955008840755866,
,,,C,G,g,v,,,,,,,,,,1,12,32,4,,,,,,,,,,,,,v,1,2.3682317726947986,637.3490940681568,None,,,,,001,93,2019_Nov_05_1200,ACPT_experiment_5_30_19,3.1.0,59.955008840755866,
,,,C,G,g,v,,,,,,,,,,1,13,33,19,,,,,,,,,,,,,v,1,0.7507371336669166,642.9863304266562,None,,,,,001,93,2019_Nov_05_1200,ACPT_experiment_5_30_19,3.1.0,59.955008840755866,
,,,C,U,y,n,,,,,,,,,,1,14,34,8,,,,,,,,,,,,,n,1,1.10053935726296,647.0398942656916,None,,,,,001,93,2019_Nov_05_1200,ACPT_experiment_5_30_19,3.1.0,59.955008840755866,
,,,C,U,d,n,,,,,,,,,,1,15,35,15,,,,,,,,,,,,,n,1,1.584568127813327,651.4095987964376,None,,,,,001,93,2019_Nov_05_1200,ACPT_experiment_5_30_19,3.1.0,59.955008840755866,
,,,C,D,d,v,,,,,,,,,,1,16,36,0,,,,,,,,,,,,,v,1,1.2342814244730107,656.2800003139307,None,,,,,001,93,2019_Nov_05_1200,ACPT_experiment_5_30_19,3.1.0,59.955008840755866,
,,,C,U,g,n,,,,,,,,,,1,17,37,7,,,,,,,,,,,,,n,1,1.3007288024266472,660.8170906342368,None,,,,,001,93,2019_Nov_05_1200,ACPT_experiment_5_30_19,3.1.0,59.955008840755866,
,,,C,U,d,n,,,,,,,,,,1,18,38,6,,,,,,,,,,,,,n,1,1.350920602071028,665.3869758563067,None,,,,,001,93,2019_Nov_05_1200,ACPT_experiment_5_30_19,3.1.0,59.955008840755866,
,,,C,D,y,b,,,,,,,,,,1,19,39,2,,,,,,,,,,,,,b,1,2.2684066080018965,670.0405489925236,None,,,,,001,93,2019_Nov_05_1200,ACPT_experiment_5_30_19,3.1.0,59.955008840755866,
,,,C,G,d,b,,,,,,,,,,2,0,40,12,,,,,,,,,,,,,b,1,1.9181775592605845,675.5947717843826,None,,,,,001,93,2019_Nov_05_1200,ACPT_experiment_5_30_19,3.1.0,59.955008840755866,
,,,C,U,d,n,,,,,,,,,,2,1,41,15,,,,,,,,,,,,,n,1,1.351054324517463,680.7987875630276,None,,,,,001,93,2019_Nov_05_1200,ACPT_experiment_5_30_19,3.1.0,59.955008840755866,
,,,C,D,y,b,,,,,,,,,,2,2,42,2,,,,,,,,,,,,,b,1,1.3841791554777956,685.4525892046443,None,,,,,001,93,2019_Nov_05_1200,ACPT_experiment_5_30_19,3.1.0,59.955008840755866,
,,,C,G,y,b,,,,,,,,,,2,3,43,14,,,,,,,,,,,,,b,1,1.5845421681510743,690.122606881363,None,,,,,001,93,2019_Nov_05_1200,ACPT_experiment_5_30_19,3.1.0,59.955008840755866,
,,,C,G,g,v,,,,,,,,,,2,4,44,19,,,,,,,,,,,,,b,0,3.302526056256511,694.9930041728649,None,,,,,001,93,2019_Nov_05_1200,ACPT_experiment_5_30_19,3.1.0,59.955008840755866,
,,,C,D,y,b,,,,,,,,,,2,5,45,11,,,,,,,,,,,,,b,1,1.1508953668642334,701.5813772023453,None,,,,,001,93,2019_Nov_05_1200,ACPT_experiment_5_30_19,3.1.0,59.955008840755866,
,,,C,D,g,b,,,,,,,,,,2,6,46,10,,,,,,,,,,,,,b,1,1.1975107702412515,706.0382117173463,None,,,,,001,93,2019_Nov_05_1200,ACPT_experiment_5_30_19,3.1.0,59.955008840755866,
,,,C,U,y,n,,,,,,,,,,2,7,47,8,,,,,,,,,,,,,n,1,2.4518973494580223,710.521552254989,None,,,,,001,93,2019_Nov_05_1200,ACPT_experiment_5_30_19,3.1.0,59.955008840755866,
,,,C,G,d,b,,,,,,,,,,2,8,48,3,,,,,,,,,,,,,b,1,1.4344572860923108,716.2592793718486,None,,,,,001,93,2019_Nov_05_1200,ACPT_experiment_5_30_19,3.1.0,59.955008840755866,
,,,C,G,g,v,,,,,,,,,,2,9,49,4,,,,,,,,,,,,,v,1,0.8006385473215687,720.9628834181751,None,,,,,001,93,2019_Nov_05_1200,ACPT_experiment_5_30_19,3.1.0,59.955008840755866,
,,,C,G,g,v,,,,,,,,,,2,10,50,13,,,,,,,,,,,,,v,1,0.5673176303537275,725.0325168918919,None,,,,,001,93,2019_Nov_05_1200,ACPT_experiment_5_30_19,3.1.0,59.955008840755866,
,,,C,D,d,v,,,,,,,,,,2,11,51,18,,,,,,,,,,,,,v,1,0.8840409051831557,728.8856156907443,None,,,,,001,93,2019_Nov_05_1200,ACPT_experiment_5_30_19,3.1.0,59.955008840755866,
,,,C,U,g,n,,,,,,,,,,2,12,52,7,,,,,,,,,,,,,n,1,1.150899290999405,733.0554821373375,None,,,,,001,93,2019_Nov_05_1200,ACPT_experiment_5_30_19,3.1.0,59.955008840755866,
,,,C,U,g,n,,,,,,,,,,2,13,53,16,,,,,,,,,,,,,n,1,0.934059439174689,737.4922151198732,None,,,,,001,93,2019_Nov_05_1200,ACPT_experiment_5_30_19,3.1.0,59.955008840755866,
,,,C,U,d,n,,,,,,,,,,2,14,54,6,,,,,,,,,,,,,n,1,1.1842535329290058,741.7121139858587,None,,,,,001,93,2019_Nov_05_1200,ACPT_experiment_5_30_19,3.1.0,59.955008840755866,
,,,C,D,d,v,,,,,,,,,,2,15,55,0,,,,,,,,,,,,,v,1,1.5345290675770684,746.1822024177502,None,,,,,001,93,2019_Nov_05_1200,ACPT_experiment_5_30_19,3.1.0,59.955008840755866,
,,,C,D,d,v,,,,,,,,,,2,16,56,9,,,,,,,,,,,,,v,1,1.3844013218902091,750.9858857919749,None,,,,,001,93,2019_Nov_05_1200,ACPT_experiment_5_30_19,3.1.0,59.955008840755866,
,,,C,G,y,b,,,,,,,,,,2,17,57,5,,,,,,,,,,,,,b,1,1.2173418392480926,755.6730809168712,None,,,,,001,93,2019_Nov_05_1200,ACPT_experiment_5_30_19,3.1.0,59.955008840755866,
,,,C,U,y,n,,,,,,,,,,2,18,58,17,,,,,,,,,,,,,n,1,1.1509195153873861,760.1762371288371,None,,,,,001,93,2019_Nov_05_1200,ACPT_experiment_5_30_19,3.1.0,59.955008840755866,
,,,C,D,g,b,,,,,,,,,,2,19,59,1,,,,,,,,,,,,,b,1,0.96701160819498,764.6300500598884,None,,,,,001,93,2019_Nov_05_1200,ACPT_experiment_5_30_19,3.1.0,59.955008840755866,
,,,C,D,g,b,,,,,,,,,,3,0,60,10,,,,,,,,,,,,,b,1,2.3184622703474815,768.866244047389,None,,,,,001,93,2019_Nov_05_1200,ACPT_experiment_5_30_19,3.1.0,59.955008840755866,
,,,C,U,g,n,,,,,,,,,,3,1,61,16,,,,,,,,,,,,,n,1,1.3343800711897984,774.4705381981337,None,,,,,001,93,2019_Nov_05_1200,ACPT_experiment_5_30_19,3.1.0,59.955008840755866,
,,,C,U,y,n,,,,,,,,,,3,2,62,8,,,,,,,,,,,,,n,1,0.7806073474296227,779.1107608233681,None,,,,,001,93,2019_Nov_05_1200,ACPT_experiment_5_30_19,3.1.0,59.955008840755866,
,,,C,G,y,b,,,,,,,,,,3,3,63,5,,,,,,,,,,,,,b,1,1.9848893635414697,783.1771855620809,None,,,,,001,93,2019_Nov_05_1200,ACPT_experiment_5_30_19,3.1.0,59.955008840755866,
,,,C,D,y,b,,,,,,,,,,3,4,64,2,,,,,,,,,,,,,b,1,1.884802187373225,788.4479173709985,None,,,,,001,93,2019_Nov_05_1200,ACPT_experiment_5_30_19,3.1.0,59.955008840755866,
,,,C,G,g,v,,,,,,,,,,3,5,65,19,,,,,,,,,,,,,v,1,2.768821962598622,793.6185514387689,None,,,,,001,93,2019_Nov_05_1200,ACPT_experiment_5_30_19,3.1.0,59.955008840755866,
,,,C,D,y,b,,,,,,,,,,3,6,66,11,,,,,,,,,,,,,b,1,1.200933219674198,799.6731916982208,None,,,,,001,93,2019_Nov_05_1200,ACPT_experiment_5_30_19,3.1.0,59.955008840755866,
,,,C,D,d,v,,,,,,,,,,3,7,67,18,,,,,,,,,,,,,v,1,2.118300294129085,804.1432746966946,None,,,,,001,93,2019_Nov_05_1200,ACPT_experiment_5_30_19,3.1.0,59.955008840755866,
,,,C,D,d,v,,,,,,,,,,3,8,68,0,,,,,,,,,,,,,v,1,0.6671723769875371,809.5307226566274,None,,,,,001,93,2019_Nov_05_1200,ACPT_experiment_5_30_19,3.1.0,59.955008840755866,
,,,C,G,g,v,,,,,,,,,,3,9,69,13,,,,,,,,,,,,,v,1,1.4177730714989139,813.4837414031258,None,,,,,001,93,2019_Nov_05_1200,ACPT_experiment_5_30_19,3.1.0,59.955008840755866,
,,,C,U,d,n,,,,,,,,,,3,10,70,15,,,,,,,,,,,,,n,1,1.3677291815583885,818.1873551088615,None,,,,,001,93,2019_Nov_05_1200,ACPT_experiment_5_30_19,3.1.0,59.955008840755866,
,,,C,D,g,b,,,,,,,,,,3,11,71,1,,,,,,,,,,,,,b,1,2.685151857987421,822.8578467003458,None,,,,,001,93,2019_Nov_05_1200,ACPT_experiment_5_30_19,3.1.0,59.955008840755866,
,,,C,U,g,n,,,,,,,,,,3,12,72,7,,,,,,,,,,,,,n,1,1.067473992040732,828.8288524742577,None,,,,,001,93,2019_Nov_05_1200,ACPT_experiment_5_30_19,3.1.0,59.955008840755866,
,,,C,D,d,v,,,,,,,,,,3,13,73,9,,,,,,,,,,,,,v,1,1.8180949109403173,833.1821495928559,None,,,,,001,93,2019_Nov_05_1200,ACPT_experiment_5_30_19,3.1.0,59.955008840755866,
,,,C,G,d,b,,,,,,,,,,3,14,74,3,,,,,,,,,,,,,b,1,1.9682145065007717,838.286057065375,None,,,,,001,93,2019_Nov_05_1200,ACPT_experiment_5_30_19,3.1.0,59.955008840755866,
,,,C,U,d,n,,,,,,,,,,3,15,75,6,,,,,,,,,,,,,n,1,0.8173097820838393,843.540100131851,None,,,,,001,93,2019_Nov_05_1200,ACPT_experiment_5_30_19,3.1.0,59.955008840755866,
,,,C,G,d,b,,,,,,,,,,3,16,76,12,,,,,,,,,,,,,b,1,2.682061752603204,847.6799481531209,None,,,,,001,93,2019_Nov_05_1200,ACPT_experiment_5_30_19,3.1.0,59.955008840755866,
,,,C,U,y,n,,,,,,,,,,3,17,77,17,,,,,,,,,,,,,n,1,1.0007896567046828,853.6478420879778,None,,,,,001,93,2019_Nov_05_1200,ACPT_experiment_5_30_19,3.1.0,59.955008840755866,
,,,C,G,g,v,,,,,,,,,,3,18,78,4,,,,,,,,,,,,,v,1,1.697988609141703,857.9711518724764,None,,,,,001,93,2019_Nov_05_1200,ACPT_experiment_5_30_19,3.1.0,59.955008840755866,
,,,C,G,y,b,,,,,,,,,,3,19,79,14,,,,,,,,,,,,,b,1,0.9840954808453262,862.9549756824372,None,,,,,001,93,2019_Nov_05_1200,ACPT_experiment_5_30_19,3.1.0,59.955008840755866,
,,,C,U,g,n,,,,,,,,,,4,0,80,7,,,,,,,,,,,,,n,1,1.2976761272532258,867.2615946114986,None,,,,,001,93,2019_Nov_05_1200,ACPT_experiment_5_30_19,3.1.0,59.955008840755866,
,,,C,U,g,n,,,,,,,,,,4,1,81,16,,,,,,,,,,,,,n,1,1.334409653130706,871.8284328936693,None,,,,,001,93,2019_Nov_05_1200,ACPT_experiment_5_30_19,3.1.0,59.955008840755866,
,,,C,D,g,b,,,,,,,,,,4,2,82,1,,,,,,,,,,,,,b,1,2.1983755892240424,876.468641331646,None,,,,,001,93,2019_Nov_05_1200,ACPT_experiment_5_30_19,3.1.0,59.955008840755866,
,,,C,U,y,n,,,,,,,,,,4,3,83,17,,,,,,,,,,,,,n,1,0.8173115932229393,881.9528545365415,None,,,,,001,93,2019_Nov_05_1200,ACPT_experiment_5_30_19,3.1.0,59.955008840755866,
,,,C,G,d,b,,,,,,,,,,4,4,84,12,,,,,,,,,,,,,b,1,1.4644458276181922,886.0926868612717,None,,,,,001,93,2019_Nov_05_1200,ACPT_experiment_5_30_19,3.1.0,59.955008840755866,
,,,C,G,g,v,,,,,,,,,,4,5,85,4,,,,,,,,,,,,,v,1,1.601262605528973,890.8262882029635,None,,,,,001,93,2019_Nov_05_1200,ACPT_experiment_5_30_19,3.1.0,59.955008840755866,
,,,C,D,y,b,,,,,,,,,,4,6,86,11,,,,,,,,,,,,,b,1,1.401071349226413,895.7133998947124,None,,,,,001,93,2019_Nov_05_1200,ACPT_experiment_5_30_19,3.1.0,59.955008840755866,
,,,C,G,g,v,,,,,,,,,,4,7,87,19,,,,,,,,,,,,,v,1,1.751108719065769,900.4172418039911,None,,,,,001,93,2019_Nov_05_1200,ACPT_experiment_5_30_19,3.1.0,59.955008840755866,
,,,C,D,d,v,,,,,,,,,,4,8,88,9,,,,,,,,,,,,,v,1,1.0841636400518837,905.4541932702896,None,,,,,001,93,2019_Nov_05_1200,ACPT_experiment_5_30_19,3.1.0,59.955008840755866,
,,,C,D,d,v,,,,,,,,,,4,9,89,0,,,,,,,,,,,,,v,1,1.0170183697814537,909.8412787005198,None,,,,,001,93,2019_Nov_05_1200,ACPT_experiment_5_30_19,3.1.0,59.955008840755866,
,,,C,D,d,v,,,,,,,,,,4,10,90,18,,,,,,,,,,,,,v,1,1.0508178501052043,914.1441700031876,None,,,,,001,93,2019_Nov_05_1200,ACPT_experiment_5_30_19,3.1.0,59.955008840755866,
,,,C,U,y,n,,,,,,,,,,4,11,91,8,,,,,,,,,,,,,n,1,1.7346656878464728,918.4975048538531,None,,,,,001,93,2019_Nov_05_1200,ACPT_experiment_5_30_19,3.1.0,59.955008840755866,
,,,C,G,y,b,,,,,,,,,,4,12,92,14,,,,,,,,,,,,,b,1,1.3010062085852496,923.5180114777929,None,,,,,001,93,2019_Nov_05_1200,ACPT_experiment_5_30_19,3.1.0,59.955008840755866,
,,,C,G,d,b,,,,,,,,,,4,13,93,3,,,,,,,,,,,,,b,1,1.0338586442053384,928.1218078671059,None,,,,,001,93,2019_Nov_05_1200,ACPT_experiment_5_30_19,3.1.0,59.955008840755866,
,,,C,U,d,n,,,,,,,,,,4,14,94,15,,,,,,,,,,,,,n,1,1.4511203707279492,932.4415095604002,None,,,,,001,93,2019_Nov_05_1200,ACPT_experiment_5_30_19,3.1.0,59.955008840755866,
,,,C,G,y,b,,,,,,,,,,4,15,95,5,,,,,,,,,,,,,b,1,0.9841211386510622,937.1784433982768,None,,,,,001,93,2019_Nov_05_1200,ACPT_experiment_5_30_19,3.1.0,59.955008840755866,
,,,C,D,g,b,,,,,,,,,,4,16,96,10,,,,,,,,,,,,,b,1,1.7844249270713135,941.465366791917,None,,,,,001,93,2019_Nov_05_1200,ACPT_experiment_5_30_19,3.1.0,59.955008840755866,
,,,C,G,g,v,,,,,,,,,,4,17,97,13,,,,,,,,,,,,,v,1,2.535271332805223,946.5356453330564,None,,,,,001,93,2019_Nov_05_1200,ACPT_experiment_5_30_19,3.1.0,59.955008840755866,
,,,C,U,d,n,,,,,,,,,,4,18,98,6,,,,,,,,,,,,,n,1,1.100879549581805,952.3567325478623,None,,,,,001,93,2019_Nov_05_1200,ACPT_experiment_5_30_19,3.1.0,59.955008840755866,
,,,C,D,y,b,,,,,,,,,,4,19,99,2,,,,,,,,,,,,,b,1,0.7502840470026513,956.7771006800224,None,,,,,001,93,2019_Nov_05_1200,ACPT_experiment_5_30_19,3.1.0,59.955008840755866,
,,,C,G,y,b,,,,,,,,,,5,0,100,5,,,,,,,,,,,,,b,1,0.6338187387709695,960.8132323039622,None,,,,,001,93,2019_Nov_05_1200,ACPT_experiment_5_30_19,3.1.0,59.955008840755866,
,,,C,U,g,n,,,,,,,,,,5,1,101,16,,,,,,,,,,,,,n,1,1.0839306068041878,964.7498179805073,None,,,,,001,93,2019_Nov_05_1200,ACPT_experiment_5_30_19,3.1.0,59.955008840755866,
,,,C,D,y,b,,,,,,,,,,5,2,102,11,,,,,,,,,,,,,b,1,0.9340515909045735,969.1195913345439,None,,,,,001,93,2019_Nov_05_1200,ACPT_experiment_5_30_19,3.1.0,59.955008840755866,
,,,C,D,d,v,,,,,,,,,,5,3,103,0,,,,,,,,,,,,,v,1,0.8807068997159604,973.3594969500416,None,,,,,001,93,2019_Nov_05_1200,ACPT_experiment_5_30_19,3.1.0,59.955008840755866,
,,,C,D,g,b,,,,,,,,,,5,4,104,1,,,,,,,,,,,,,b,1,1.601249625698074,977.5260218447538,None,,,,,001,93,2019_Nov_05_1200,ACPT_experiment_5_30_19,3.1.0,59.955008840755866,
,,,C,U,d,n,,,,,,,,,,5,5,105,15,,,,,,,,,,,,,n,1,1.2843464443717494,982.4130761837605,None,,,,,001,93,2019_Nov_05_1200,ACPT_experiment_5_30_19,3.1.0,59.955008840755866,
,,,C,U,y,n,,,,,,,,,,5,6,106,17,,,,,,,,,,,,,n,1,1.5175973306222659,987.0001823213493,None,,,,,001,93,2019_Nov_05_1200,ACPT_experiment_5_30_19,3.1.0,59.955008840755866,
,,,C,D,y,b,,,,,,,,,,5,7,107,2,,,,,,,,,,,,,b,1,0.9674124736779959,991.8036239084868,None,,,,,001,93,2019_Nov_05_1200,ACPT_experiment_5_30_19,3.1.0,59.955008840755866,
,,,C,U,d,n,,,,,,,,,,5,8,108,6,,,,,,,,,,,,,n,1,1.0174717583022357,996.0568628291444,None,,,,,001,93,2019_Nov_05_1200,ACPT_experiment_5_30_19,3.1.0,59.955008840755866,
,,,C,G,y,b,,,,,,,,,,5,9,109,14,,,,,,,,,,,,,b,1,0.9674176052390067,1000.3601728068311,None,,,,,001,93,2019_Nov_05_1200,ACPT_experiment_5_30_19,3.1.0,59.955008840755866,
,,,C,U,y,n,,,,,,,,,,5,10,110,8,,,,,,,,,,,,,n,1,0.9671386897980483,1004.6470581665476,None,,,,,001,93,2019_Nov_05_1200,ACPT_experiment_5_30_19,3.1.0,59.955008840755866,
,,,C,G,g,v,,,,,,,,,,5,11,111,4,,,,,,,,,,,,,v,1,1.7179941512281403,1008.9000405091474,None,,,,,001,93,2019_Nov_05_1200,ACPT_experiment_5_30_19,3.1.0,59.955008840755866,
,,,C,G,d,b,,,,,,,,,,5,12,112,12,,,,,,,,,,,,,b,1,0.7505659810094585,1013.8871889670227,None,,,,,001,93,2019_Nov_05_1200,ACPT_experiment_5_30_19,3.1.0,59.955008840755866,
,,,C,G,g,v,,,,,,,,,,5,13,113,19,,,,,,,,,,,,,v,1,1.0505501033558176,1017.923889288681,None,,,,,001,93,2019_Nov_05_1200,ACPT_experiment_5_30_19,3.1.0,59.955008840755866,
,,,C,D,d,v,,,,,,,,,,5,14,114,9,,,,,,,,,,,,,v,1,1.0007790917256898,1022.260255575894,None,,,,,001,93,2019_Nov_05_1200,ACPT_experiment_5_30_19,3.1.0,59.955008840755866,
,,,C,D,g,b,,,,,,,,,,5,15,115,10,,,,,,,,,,,,,b,1,1.3677352186891767,1026.5468746981433,None,,,,,001,93,2019_Nov_05_1200,ACPT_experiment_5_30_19,3.1.0,59.955008840755866,
,,,C,U,g,n,,,,,,,,,,5,16,116,7,,,,,,,,,,,,,n,1,1.1675711294747089,1031.2004463250778,None,,,,,001,93,2019_Nov_05_1200,ACPT_experiment_5_30_19,3.1.0,59.955008840755866,
,,,C,D,d,v,,,,,,,,,,5,17,117,18,,,,,,,,,,,,,v,1,0.8006602809919059,1035.6705480386568,None,,,,,001,93,2019_Nov_05_1200,ACPT_experiment_5_30_19,3.1.0,59.955008840755866,
,,,C,G,d,b,,,,,,,,,,5,18,118,3,,,,,,,,,,,,,b,1,0.950720108958194,1039.7570100143926,None,,,,,001,93,2019_Nov_05_1200,ACPT_experiment_5_30_19,3.1.0,59.955008840755866,
,,,C,G,g,v,,,,,,,,,,5,19,119,13,0,0,0,0,0,0,0,0,,,,,v,1,0.9337904849985534,1043.9938415229026,None,,,,,001,93,2019_Nov_05_1200,ACPT_experiment_5_30_19,3.1.0,59.955008840755866,
,,,C,G,g,v,L,U,y,L,u,,,,,5,19,119,13,0,0,0,0,,,,,0,0,0,24,,,,,,down,1.5649127393116942,1087.980226585592,None,001,93,2019_Nov_05_1200,ACPT_experiment_5_30_19,3.1.0,59.955008840755866,
,,,C,G,g,v,L,U,g,R,u,,,,,5,19,119,13,0,0,0,0,,,,,0,1,1,23,,,,,,up,0.8006092672371778,1090.8461041791434,None,001,93,2019_Nov_05_1200,ACPT_experiment_5_30_19,3.1.0,59.955008840755866,
,,,C,G,g,v,R,G,y,R,y,,,,,5,19,119,13,0,0,0,0,,,,,0,2,2,29,,,,,,down,0.8172811057124818,1092.94771844754,None,001,93,2019_Nov_05_1200,ACPT_experiment_5_30_19,3.1.0,59.955008840755866,
,,,C,G,g,v,L,G,y,L,y,,,,,5,19,119,13,0,0,0,0,,,,,0,3,3,34,,,,,,down,0.8006044375329111,1095.0826839393003,None,001,93,2019_Nov_05_1200,ACPT_experiment_5_30_19,3.1.0,59.955008840755866,
,,,C,G,g,v,L,G,g,R,c ,,,,,5,19,119,13,0,0,0,0,,,,,0,4,4,19,,,,,,up,0.8840125306687696,1097.1676136912465,None,001,93,2019_Nov_05_1200,ACPT_experiment_5_30_19,3.1.0,59.955008840755866,
,,,C,G,g,v,R,U,d,R,u,,,,,5,19,119,13,0,0,0,0,,,,,0,5,5,9,,,,,,up,0.5837781692521276,1099.3359358397888,None,001,93,2019_Nov_05_1200,ACPT_experiment_5_30_19,3.1.0,59.955008840755866,
,,,C,G,g,v,R,D,g,L,i,,,,,5,19,119,13,0,0,0,0,,,,,0,6,6,2,,,,,,up,0.7839467863145728,1101.2040350974635,None,001,93,2019_Nov_05_1200,ACPT_experiment_5_30_19,3.1.0,59.955008840755866,
,,,C,G,g,v,R,G,y,L,y,,,,,5,19,119,13,0,0,0,0,,,,,0,7,7,28,,,,,,down,0.83400878764769,1103.2722803329598,None,001,93,2019_Nov_05_1200,ACPT_experiment_5_30_19,3.1.0,59.955008840755866,
,,,C,G,g,v,L,G,d,R,i,,,,,5,19,119,13,0,0,0,0,,,,,0,8,8,17,,,,,,up,0.8173094802273226,1105.3905700621099,None,001,93,2019_Nov_05_1200,ACPT_experiment_5_30_19,3.1.0,59.955008840755866,
,,,C,G,g,v,R,U,y,R,u,,,,,5,19,119,13,0,0,0,0,,,,,0,9,9,31,,,,,,down,0.7339194984833739,1107.4921586727005,None,001,93,2019_Nov_05_1200,ACPT_experiment_5_30_19,3.1.0,59.955008840755866,
,,,C,G,g,v,R,G,g,L,c ,,,,,5,19,119,13,0,0,0,0,,,,,0,10,10,6,,,,,,up,0.8172826149952925,1109.5103959391845,None,001,93,2019_Nov_05_1200,ACPT_experiment_5_30_19,3.1.0,59.955008840755866,
,,,C,G,g,v,R,D,d,L,c,,,,,5,19,119,13,0,0,0,0,,,,,0,11,11,0,,,,,,up,0.7005338634739928,1111.6119984351758,None,001,93,2019_Nov_05_1200,ACPT_experiment_5_30_19,3.1.0,59.955008840755866,
,,,C,G,g,v,L,U,g,L,u,,,,,5,19,119,13,0,0,0,0,,,,,0,12,12,22,,,,,,up,0.5837724339776287,1113.5968612353417,None,001,93,2019_Nov_05_1200,ACPT_experiment_5_30_19,3.1.0,59.955008840755866,
,,,C,G,g,v,L,U,d,L,u,,,,,5,19,119,13,0,0,0,0,,,,,0,13,13,20,,,,,,up,0.7839329009138964,1115.464953248459,None,001,93,2019_Nov_05_1200,ACPT_experiment_5_30_19,3.1.0,59.955008840755866,
,,,C,G,g,v,L,U,y,R,u,,,,,5,19,119,13,0,0,0,0,,,,,0,14,14,25,,,,,,down,0.8840113232427029,1117.533198182099,None,001,93,2019_Nov_05_1200,ACPT_experiment_5_30_19,3.1.0,59.955008840755866,
,,,C,G,g,v,R,U,g,L,u,,,,,5,19,119,13,0,0,0,0,,,,,0,15,15,10,,,,,,up,0.8339710555801503,1119.7015236510633,None,001,93,2019_Nov_05_1200,ACPT_experiment_5_30_19,3.1.0,59.955008840755866,
,,,C,G,g,v,L,G,d,L,i,,,,,5,19,119,13,0,0,0,0,,,,,0,16,16,16,,,,,,up,0.7672728348434248,1121.819792853969,None,001,93,2019_Nov_05_1200,ACPT_experiment_5_30_19,3.1.0,59.955008840755866,
,,,C,G,g,v,L,D,d,R,c ,,,,,5,19,119,13,0,0,0,0,,,,,0,17,17,13,,,,,,up,0.783956445723561,1123.8713581008637,None,001,93,2019_Nov_05_1200,ACPT_experiment_5_30_19,3.1.0,59.955008840755866,
,,,C,G,g,v,R,D,d,R,c ,,,,,5,19,119,13,0,0,0,0,,,,,0,18,18,1,,,,,,up,0.6338308130325458,1125.9396265793134,None,001,93,2019_Nov_05_1200,ACPT_experiment_5_30_19,3.1.0,59.955008840755866,
,,,C,G,g,v,R,G,d,L,i,,,,,5,19,119,13,0,0,0,0,,,,,0,19,19,4,,,,,,up,0.5504800726384929,1127.857745276549,None,001,93,2019_Nov_05_1200,ACPT_experiment_5_30_19,3.1.0,59.955008840755866,
,,,C,G,g,v,R,G,d,R,i,,,,,5,19,119,13,0,0,0,0,,,,,0,20,20,5,,,,,,up,0.49696241765377636,1129.7126168788518,None,001,93,2019_Nov_05_1200,ACPT_experiment_5_30_19,3.1.0,59.955008840755866,
,,,C,G,g,v,L,D,g,R,i,,,,,5,19,119,13,0,0,0,0,,,,,0,21,21,15,,,,,,up,0.5670927472324365,1131.4938822735353,None,001,93,2019_Nov_05_1200,ACPT_experiment_5_30_19,3.1.0,59.955008840755866,
,,,C,G,g,v,R,U,y,L,u,,,,,5,19,119,13,0,0,0,0,,,,,0,22,22,30,,,,,,down,0.8506549683170306,1133.345292788768,None,001,93,2019_Nov_05_1200,ACPT_experiment_5_30_19,3.1.0,59.955008840755866,
,,,C,G,g,v,L,G,g,L,c ,,,,,5,19,119,13,0,0,0,0,,,,,0,23,23,18,,,,,,up,0.6504757862762744,1135.4802748826382,None,001,93,2019_Nov_05_1200,ACPT_experiment_5_30_19,3.1.0,59.955008840755866,
,,,C,G,g,v,L,G,y,R,y,,,,,5,19,119,13,0,0,0,0,,,,,0,24,24,35,,,,,,down,0.7505717162839574,1137.4150811148888,None,001,93,2019_Nov_05_1200,ACPT_experiment_5_30_19,3.1.0,59.955008840755866,
,,,C,G,g,v,R,D,y,R,y,,,,,5,19,119,13,0,0,0,0,,,,,0,25,25,27,,,,,,down,0.6004798915250831,1139.4499727121688,None,001,93,2019_Nov_05_1200,ACPT_experiment_5_30_19,3.1.0,59.955008840755866,
,,,C,G,g,v,R,U,g,R,u,,,,,5,19,119,13,0,0,0,0,,,,,0,26,26,11,,,,,,up,0.8173134043622667,1141.3347250932134,None,001,93,2019_Nov_05_1200,ACPT_experiment_5_30_19,3.1.0,59.955008840755866,
,,,C,G,g,v,L,U,d,R,u,,,,,5,19,119,13,0,0,0,0,,,,,0,27,27,21,,,,,,up,0.5838071474800017,1143.4363583785716,None,001,93,2019_Nov_05_1200,ACPT_experiment_5_30_19,3.1.0,59.955008840755866,
,,,C,G,g,v,R,U,d,L,u,,,,,5,19,119,13,0,0,0,0,,,,,0,28,28,8,,,,,,up,0.8506730797093951,1145.3044280543054,None,001,93,2019_Nov_05_1200,ACPT_experiment_5_30_19,3.1.0,59.955008840755866,
,,,C,G,g,v,R,G,g,R,c ,,,,,5,19,119,13,0,0,0,0,,,,,0,29,29,7,,,,,,up,1.0007878455653554,1147.4393986776267,None,001,93,2019_Nov_05_1200,ACPT_experiment_5_30_19,3.1.0,59.955008840755866,
,,,C,G,g,v,R,D,y,L,y,,,,,5,19,119,13,0,0,0,0,,,,,0,30,30,26,,,,,,down,0.7172111353670516,1149.7245021781969,None,001,93,2019_Nov_05_1200,ACPT_experiment_5_30_19,3.1.0,59.955008840755866,
,,,C,G,g,v,L,D,y,R,y,,,,,5,19,119,13,0,0,0,0,,,,,0,31,31,33,,,,,,down,0.5837857156652717,1151.726030477851,None,001,93,2019_Nov_05_1200,ACPT_experiment_5_30_19,3.1.0,59.955008840755866,
,,,C,G,g,v,L,D,g,L,i,,,,,5,19,119,13,0,0,0,0,,,,,0,32,32,14,,,,,,up,0.7672520067421829,1153.5941309429513,None,001,93,2019_Nov_05_1200,ACPT_experiment_5_30_19,3.1.0,59.955008840755866,
,,,C,G,g,v,L,D,y,L,y,,,,,5,19,119,13,0,0,0,0,,,,,0,33,33,32,,,,,,down,0.7839570494365944,1155.628997184282,None,001,93,2019_Nov_05_1200,ACPT_experiment_5_30_19,3.1.0,59.955008840755866,
,,,C,G,g,v,R,D,g,R,i,,,,,5,19,119,13,0,0,0,0,,,,,0,34,34,3,,,,,,up,0.8339891669725148,1157.6972662664452,None,001,93,2019_Nov_05_1200,ACPT_experiment_5_30_19,3.1.0,59.955008840755866,
,,,C,G,g,v,L,D,d,L,c ,,,,,5,19,119,13,0,0,0,0,,,,,0,35,35,12,,,,,,up,0.6505485337020218,1159.8155342619243,None,001,93,2019_Nov_05_1200,ACPT_experiment_5_30_19,3.1.0,59.955008840755866,
,,,C,G,g,v,R,G,d,L,i,,,,,5,19,119,13,0,0,0,0,,,,,1,0,36,4,,,,,,up,0.500356794428626,1161.7504050914745,None,001,93,2019_Nov_05_1200,ACPT_experiment_5_30_19,3.1.0,59.955008840755866,
,,,C,G,g,v,R,D,g,L,i,,,,,5,19,119,13,0,0,0,0,,,,,1,1,37,2,,,,,,up,0.550423927322754,1163.5350657685026,None,001,93,2019_Nov_05_1200,ACPT_experiment_5_30_19,3.1.0,59.955008840755866,
,,,C,G,g,v,L,D,y,R,y,,,,,5,19,119,13,0,0,0,0,,,,,1,2,38,33,,,,,,down,0.6004557430019304,1165.3698089731083,None,001,93,2019_Nov_05_1200,ACPT_experiment_5_30_19,3.1.0,59.955008840755866,
,,,C,G,g,v,R,G,y,R,y,,,,,5,19,119,13,0,0,0,0,,,,,1,3,39,29,,,,,,down,0.46370084568116,1167.2745898373355,None,001,93,2019_Nov_05_1200,ACPT_experiment_5_30_19,3.1.0,59.955008840755866,
,,,C,G,g,v,L,D,y,L,y,,,,,5,19,119,13,0,0,0,0,,,,,1,4,40,32,,,,,,down,0.6338181350574814,1169.0226075454475,None,001,93,2019_Nov_05_1200,ACPT_experiment_5_30_19,3.1.0,59.955008840755866,
,,,C,G,g,v,R,U,g,R,u,,,,,5,19,119,13,0,0,0,0,,,,,1,5,41,11,,,,,,up,0.5337388071593523,1170.9407404299404,None,001,93,2019_Nov_05_1200,ACPT_experiment_5_30_19,3.1.0,59.955008840755866,
,,,C,G,g,v,R,U,y,L,u,,,,,5,19,119,13,0,0,0,0,,,,,1,6,42,30,,,,,,down,0.7504802537523574,1172.7587921753957,None,001,93,2019_Nov_05_1200,ACPT_experiment_5_30_19,3.1.0,59.955008840755866,
,,,C,G,g,v,R,D,d,R,c ,,,,,5,19,119,13,0,0,0,0,,,,,1,7,43,1,,,,,,up,0.7672456677551054,1174.7936970543633,None,001,93,2019_Nov_05_1200,ACPT_experiment_5_30_19,3.1.0,59.955008840755866,
,,,C,G,g,v,R,D,d,L,c,,,,,5,19,119,13,0,0,0,0,,,,,1,8,44,0,,,,,,up,0.9173706967330872,1176.8285765773817,None,001,93,2019_Nov_05_1200,ACPT_experiment_5_30_19,3.1.0,59.955008840755866,
,,,C,G,g,v,L,U,d,L,u,,,,,5,19,119,13,0,0,0,0,,,,,1,9,45,20,,,,,,up,0.6838587045763234,1179.0302768145202,None,001,93,2019_Nov_05_1200,ACPT_experiment_5_30_19,3.1.0,59.955008840755866,
,,,C,G,g,v,L,G,g,L,c ,,,,,5,19,119,13,0,0,0,0,,,,,1,10,46,18,,,,,,up,0.5503855915421809,1180.998464455789,None,001,93,2019_Nov_05_1200,ACPT_experiment_5_30_19,3.1.0,59.955008840755866,
,,,C,G,g,v,R,G,y,L,y,,,,,5,19,119,13,0,0,0,0,,,,,1,11,47,28,,,,,,down,0.6504899735332401,1182.83317838031,None,001,93,2019_Nov_05_1200,ACPT_experiment_5_30_19,3.1.0,59.955008840755866,
,,,C,G,g,v,R,D,g,R,i,,,,,5,19,119,13,0,0,0,0,,,,,1,12,48,3,,,,,,up,0.5504067215001669,1184.7680051388056,None,001,93,2019_Nov_05_1200,ACPT_experiment_5_30_19,3.1.0,59.955008840755866,
,,,C,G,g,v,L,D,d,R,c ,,,,,5,19,119,13,0,0,0,0,,,,,1,13,49,13,,,,,,up,0.6168661737146977,1186.6196761562314,None,001,93,2019_Nov_05_1200,ACPT_experiment_5_30_19,3.1.0,59.955008840755866,
,,,C,G,g,v,R,D,y,R,y,,,,,5,19,119,13,0,0,0,0,,,,,1,14,50,27,,,,,,down,0.6338353408805233,1188.5208431939805,None,001,93,2019_Nov_05_1200,ACPT_experiment_5_30_19,3.1.0,59.955008840755866,
,,,C,G,g,v,L,G,y,R,y,,,,,5,19,119,13,0,0,0,0,,,,,1,15,51,35,,,,,,down,0.7171996648185086,1190.4390104901186,None,001,93,2019_Nov_05_1200,ACPT_experiment_5_30_19,3.1.0,59.955008840755866,
,,,C,G,g,v,L,G,d,L,i,,,,,5,19,119,13,0,0,0,0,,,,,1,16,52,16,,,,,,up,0.7339167817744965,1192.4405086041188,None,001,93,2019_Nov_05_1200,ACPT_experiment_5_30_19,3.1.0,59.955008840755866,
,,,C,G,g,v,L,U,d,R,u,,,,,5,19,119,13,0,0,0,0,,,,,1,17,53,21,,,,,,up,0.6338090793615265,1194.4587446631763,None,001,93,2019_Nov_05_1200,ACPT_experiment_5_30_19,3.1.0,59.955008840755866,
,,,C,G,g,v,L,G,y,L,y,,,,,5,19,119,13,0,0,0,0,,,,,1,18,54,34,,,,,,down,0.8172880484130474,1196.3768760383864,None,001,93,2019_Nov_05_1200,ACPT_experiment_5_30_19,3.1.0,59.955008840755866,
,,,C,G,g,v,R,D,y,L,y,,,,,5,19,119,13,0,0,0,0,,,,,1,19,55,26,,,,,,down,0.750559642022381,1198.4951690879584,None,001,93,2019_Nov_05_1200,ACPT_experiment_5_30_19,3.1.0,59.955008840755866,
,,,C,G,g,v,L,G,g,R,c ,,,,,5,19,119,13,0,0,0,0,,,,,1,20,56,19,,,,,,up,0.6171544467092644,1200.5467261847266,None,001,93,2019_Nov_05_1200,ACPT_experiment_5_30_19,3.1.0,59.955008840755866,
,,,C,G,g,v,L,U,y,L,u,,,,,5,19,119,13,0,0,0,0,,,,,1,21,57,24,,,,,,down,0.5170654594016924,1202.4481878344573,None,001,93,2019_Nov_05_1200,ACPT_experiment_5_30_19,3.1.0,59.955008840755866,
,,,C,G,g,v,R,U,d,R,u,,,,,5,19,119,13,0,0,0,0,,,,,1,22,58,9,,,,,,up,0.8006316046212305,1204.2495444984834,None,001,93,2019_Nov_05_1200,ACPT_experiment_5_30_19,3.1.0,59.955008840755866,
,,,C,G,g,v,R,U,d,L,u,,,,,5,19,119,13,0,0,0,0,,,,,1,23,59,8,,,,,,up,0.8002005534840464,1206.3515517840929,None,001,93,2019_Nov_05_1200,ACPT_experiment_5_30_19,3.1.0,59.955008840755866,
,,,C,G,g,v,L,D,g,L,i,,,,,5,19,119,13,0,0,0,0,,,,,1,24,60,14,,,,,,up,0.5337388071593523,1208.4361033097966,None,001,93,2019_Nov_05_1200,ACPT_experiment_5_30_19,3.1.0,59.955008840755866,
,,,C,G,g,v,R,U,y,R,u,,,,,5,19,119,13,0,0,0,0,,,,,1,25,61,31,,,,,,down,0.6171574652744312,1210.2541384531423,None,001,93,2019_Nov_05_1200,ACPT_experiment_5_30_19,3.1.0,59.955008840755866,
,,,C,G,g,v,L,D,d,L,c ,,,,,5,19,119,13,0,0,0,0,,,,,1,26,62,12,,,,,,up,0.5671008973590688,1212.1556257606785,None,001,93,2019_Nov_05_1200,ACPT_experiment_5_30_19,3.1.0,59.955008840755866,
,,,C,G,g,v,L,U,g,L,u,,,,,5,19,119,13,0,0,0,0,,,,,1,27,63,22,,,,,,up,0.7001176033077172,1214.0241011315998,None,001,93,2019_Nov_05_1200,ACPT_experiment_5_30_19,3.1.0,59.955008840755866,
,,,C,G,g,v,R,G,g,R,c ,,,,,5,19,119,13,0,0,0,0,,,,,1,28,64,7,,,,,,up,0.5504148716263444,1216.008563669996,None,001,93,2019_Nov_05_1200,ACPT_experiment_5_30_19,3.1.0,59.955008840755866,
,,,C,G,g,v,R,G,d,R,i,,,,,5,19,119,13,0,0,0,0,,,,,1,29,65,5,,,,,,up,0.550410645635111,1217.843308383884,None,001,93,2019_Nov_05_1200,ACPT_experiment_5_30_19,3.1.0,59.955008840755866,
,,,C,G,g,v,L,U,y,R,u,,,,,5,19,119,13,0,0,0,0,,,,,1,30,66,25,,,,,,down,0.6004943806387928,1219.678040419798,None,001,93,2019_Nov_05_1200,ACPT_experiment_5_30_19,3.1.0,59.955008840755866,
,,,C,G,g,v,R,G,g,L,c ,,,,,5,19,119,13,0,0,0,0,,,,,1,31,67,6,,,,,,up,0.8170468650387193,1221.5797396306243,None,001,93,2019_Nov_05_1200,ACPT_experiment_5_30_19,3.1.0,59.955008840755866,
,,,C,G,g,v,L,U,g,R,u,,,,,5,19,119,13,0,0,0,0,,,,,1,32,68,23,,,,,,up,1.1508790666111963,1223.6811078859419,None,001,93,2019_Nov_05_1200,ACPT_experiment_5_30_19,3.1.0,59.955008840755866,
,,,C,G,g,v,R,U,g,L,u,,,,,5,19,119,13,0,0,0,0,,,,,1,33,69,10,,,,,,up,0.8673382773408775,1226.1162959667136,None,001,93,2019_Nov_05_1200,ACPT_experiment_5_30_19,3.1.0,59.955008840755866,
,,,C,G,g,v,L,G,d,R,i,,,,,5,19,119,13,0,0,0,0,,,,,1,34,70,17,,,,,,up,0.633821757336591,1228.2679447674982,None,001,93,2019_Nov_05_1200,ACPT_experiment_5_30_19,3.1.0,59.955008840755866,
,,,C,G,g,v,L,D,g,R,i,,,,,5,19,119,13,0,0,0,0,,,,,1,35,71,15,,,,,,up,0.5837706228389834,1230.1860864058303,None,001,93,2019_Nov_05_1200,ACPT_experiment_5_30_19,3.1.0,59.955008840755866,
,,,C,G,g,v,,,,,,,,,,5,19,119,13,1,0,1,0,0,0,0,0,,,,,,,,,,,,,,001,93,2019_Nov_05_1200,ACPT_experiment_5_30_19,3.1.0,59.955008840755866,
,,,C,G,g,v,R,G,g,L,c ,,,,,5,19,119,13,1,0,1,0,,,,,0,0,0,6,,,,,,up,0.6168770405502073,1240.861191874505,None,001,93,2019_Nov_05_1200,ACPT_experiment_5_30_19,3.1.0,59.955008840755866,
,,,C,G,g,v,R,D,d,L,c,,,,,5,19,119,13,1,0,1,0,,,,,0,1,1,0,,,,,,up,0.5337590315475609,1242.7623755143636,None,001,93,2019_Nov_05_1200,ACPT_experiment_5_30_19,3.1.0,59.955008840755866,
,,,C,G,g,v,R,G,y,L,y,,,,,5,19,119,13,1,0,1,0,,,,,0,2,2,28,,,,,,down,0.6838505544501459,1244.597110266986,None,001,93,2019_Nov_05_1200,ACPT_experiment_5_30_19,3.1.0,59.955008840755866,
,,,C,G,g,v,L,U,y,R,u,,,,,5,19,119,13,1,0,1,0,,,,,0,3,3,25,,,,,,down,0.6838614212856555,1246.5819486167725,None,001,93,2019_Nov_05_1200,ACPT_experiment_5_30_19,3.1.0,59.955008840755866,
,,,C,G,g,v,L,U,g,R,u,,,,,5,19,119,13,1,0,1,0,,,,,0,4,4,23,,,,,,up,0.6671953180843957,1248.5334375543343,None,001,93,2019_Nov_05_1200,ACPT_experiment_5_30_19,3.1.0,59.955008840755866,
,,,C,G,g,v,R,D,d,R,c ,,,,,5,19,119,13,1,0,1,0,,,,,0,5,5,1,,,,,,up,0.7172093242279516,1250.4849548664101,None,001,93,2019_Nov_05_1200,ACPT_experiment_5_30_19,3.1.0,59.955008840755866,
,,,C,G,g,v,L,U,d,R,u,,,,,5,19,119,13,1,0,1,0,,,,,0,6,6,21,,,,,,up,0.48374804396962645,1252.4864846753471,None,001,93,2019_Nov_05_1200,ACPT_experiment_5_30_19,3.1.0,59.955008840755866,
,,,C,G,g,v,R,G,y,R,y,,,,,5,19,119,13,1,0,1,0,,,,,0,7,7,29,,,,,,down,0.8339988263819578,1254.254476532465,None,001,93,2019_Nov_05_1200,ACPT_experiment_5_30_19,3.1.0,59.955008840755866,
,,,C,G,g,v,L,U,y,L,u,,,,,5,19,119,13,1,0,1,0,,,,,0,8,8,24,,,,,,down,0.5336228942492198,1256.3895820856596,None,001,93,2019_Nov_05_1200,ACPT_experiment_5_30_19,3.1.0,59.955008840755866,
,,,C,G,g,v,R,U,y,R,u,,,,,5,19,119,13,1,0,1,0,,,,,0,9,9,31,,,,,,down,0.7339047075129201,1258.240889667813,None,001,93,2019_Nov_05_1200,ACPT_experiment_5_30_19,3.1.0,59.955008840755866,
,,,C,G,g,v,R,G,g,R,c ,,,,,5,19,119,13,1,0,1,0,,,,,0,10,10,7,,,,,,up,0.917374017154998,1260.259107011765,None,001,93,2019_Nov_05_1200,ACPT_experiment_5_30_19,3.1.0,59.955008840755866,
,,,C,G,g,v,L,G,g,L,c ,,,,,5,19,119,13,1,0,1,0,,,,,0,11,11,18,,,,,,up,0.5671002936460354,1262.4607821948111,None,001,93,2019_Nov_05_1200,ACPT_experiment_5_30_19,3.1.0,59.955008840755866,
,,,C,G,g,v,L,G,g,R,c ,,,,,5,19,119,13,1,0,1,0,,,,,0,12,12,19,,,,,,up,0.5504169846221885,1264.3122002564573,None,001,93,2019_Nov_05_1200,ACPT_experiment_5_30_19,3.1.0,59.955008840755866,
,,,C,G,g,v,L,G,d,R,i,,,,,5,19,119,13,1,0,1,0,,,,,0,13,13,17,,,,,,up,0.5671229328863774,1266.1469141809785,None,001,93,2019_Nov_05_1200,ACPT_experiment_5_30_19,3.1.0,59.955008840755866,
,,,C,G,g,v,L,G,y,R,y,,,,,5,19,119,13,1,0,1,0,,,,,0,14,14,35,,,,,,down,0.9674245479395722,1267.9983364686163,None,001,93,2019_Nov_05_1200,ACPT_experiment_5_30_19,3.1.0,59.955008840755866,
,,,C,G,g,v,L,D,g,R,i,,,,,5,19,119,13,1,0,1,0,,,,,0,15,15,15,,,,,,up,0.7672381213415065,1270.2667726585591,None,001,93,2019_Nov_05_1200,ACPT_experiment_5_30_19,3.1.0,59.955008840755866,
,,,C,G,g,v,R,U,g,L,u,,,,,5,19,119,13,1,0,1,0,,,,,0,16,16,10,,,,,,up,0.7505819794059789,1272.3183270386185,None,001,93,2019_Nov_05_1200,ACPT_experiment_5_30_19,3.1.0,59.955008840755866,
,,,C,G,g,v,R,U,d,R,u,,,,,5,19,119,13,1,0,1,0,,,,,0,17,17,9,,,,,,up,0.5671193106081773,1274.3365178191953,None,001,93,2019_Nov_05_1200,ACPT_experiment_5_30_19,3.1.0,59.955008840755866,
,,,C,G,g,v,R,G,d,R,i,,,,,5,19,119,13,1,0,1,0,,,,,0,18,18,5,,,,,,up,0.5170485554353945,1276.1879651609256,None,001,93,2019_Nov_05_1200,ACPT_experiment_5_30_19,3.1.0,59.955008840755866,
,,,C,G,g,v,R,U,g,R,u,,,,,5,19,119,13,1,0,1,0,,,,,0,19,19,11,,,,,,up,0.45035154212428097,1277.9893402382008,None,001,93,2019_Nov_05_1200,ACPT_experiment_5_30_19,3.1.0,59.955008840755866,
,,,C,G,g,v,L,G,y,L,y,,,,,5,19,119,13,1,0,1,0,,,,,0,20,20,34,,,,,,down,0.8337280610667221,1279.7409219664623,None,001,93,2019_Nov_05_1200,ACPT_experiment_5_30_19,3.1.0,59.955008840755866,
,,,C,G,g,v,L,U,d,L,u,,,,,5,19,119,13,1,0,1,0,,,,,0,21,21,20,,,,,,up,0.5837775655390942,1281.8589626639687,None,001,93,2019_Nov_05_1200,ACPT_experiment_5_30_19,3.1.0,59.955008840755866,
,,,C,G,g,v,L,D,y,L,y,,,,,5,19,119,13,1,0,1,0,,,,,0,22,22,32,,,,,,down,0.6505138201996488,1283.7270395842588,None,001,93,2019_Nov_05_1200,ACPT_experiment_5_30_19,3.1.0,59.955008840755866,
,,,C,G,g,v,R,U,d,L,u,,,,,5,19,119,13,1,0,1,0,,,,,0,23,23,8,,,,,,up,0.6004569504279971,1285.661874492881,None,001,93,2019_Nov_05_1200,ACPT_experiment_5_30_19,3.1.0,59.955008840755866,
,,,C,G,g,v,L,D,g,L,i,,,,,5,19,119,13,1,0,1,0,,,,,0,24,24,14,,,,,,up,0.5671187068946892,1287.5466226479339,None,001,93,2019_Nov_05_1200,ACPT_experiment_5_30_19,3.1.0,59.955008840755866,
,,,C,G,g,v,L,U,g,L,u,,,,,5,19,119,13,1,0,1,0,,,,,0,25,25,22,,,,,,up,0.6171384483122893,1289.3980545949807,None,001,93,2019_Nov_05_1200,ACPT_experiment_5_30_19,3.1.0,59.955008840755866,
,,,C,G,g,v,R,D,g,L,i,,,,,5,19,119,13,1,0,1,0,,,,,0,26,26,2,,,,,,up,0.567095765798058,1291.299520470703,None,001,93,2019_Nov_05_1200,ACPT_experiment_5_30_19,3.1.0,59.955008840755866,
,,,C,G,g,v,R,U,y,L,u,,,,,5,19,119,13,1,0,1,0,,,,,0,27,27,30,,,,,,down,0.733897161099776,1293.1509309859357,None,001,93,2019_Nov_05_1200,ACPT_experiment_5_30_19,3.1.0,59.955008840755866,
,,,C,G,g,v,L,D,d,L,c ,,,,,5,19,119,13,1,0,1,0,,,,,0,28,28,12,,,,,,up,0.5504181920482552,1295.1691507447404,None,001,93,2019_Nov_05_1200,ACPT_experiment_5_30_19,3.1.0,59.955008840755866,
,,,C,G,g,v,L,D,y,R,y,,,,,5,19,119,13,1,0,1,0,,,,,0,29,29,33,,,,,,down,0.7339089335046083,1297.0038634618359,None,001,93,2019_Nov_05_1200,ACPT_experiment_5_30_19,3.1.0,59.955008840755866,
,,,C,G,g,v,R,D,y,R,y,,,,,5,19,119,13,1,0,1,0,,,,,0,30,30,27,,,,,,down,0.633563669995965,1299.055699474045,None,001,93,2019_Nov_05_1200,ACPT_experiment_5_30_19,3.1.0,59.955008840755866,
,,,C,G,g,v,R,G,d,L,i,,,,,5,19,119,13,1,0,1,0,,,,,0,31,31,4,,,,,,up,0.6003488857872981,1300.9735902695943,None,001,93,2019_Nov_05_1200,ACPT_experiment_5_30_19,3.1.0,59.955008840755866,
,,,C,G,g,v,L,G,d,L,i,,,,,5,19,119,13,1,0,1,0,,,,,0,32,32,16,,,,,,up,0.5337098289319329,1302.8584024182333,None,001,93,2019_Nov_05_1200,ACPT_experiment_5_30_19,3.1.0,59.955008840755866,
,,,C,G,g,v,L,D,d,R,c ,,,,,5,19,119,13,1,0,1,0,,,,,0,33,33,13,,,,,,up,0.6004651005546293,1304.6764239780346,None,001,93,2019_Nov_05_1200,ACPT_experiment_5_30_19,3.1.0,59.955008840755866,
,,,C,G,g,v,R,D,y,L,y,,,,,5,19,119,13,1,0,1,0,,,,,0,34,34,26,,,,,,down,0.7672553271645484,1306.561195677897,None,001,93,2019_Nov_05_1200,ACPT_experiment_5_30_19,3.1.0,59.955008840755866,
,,,C,G,g,v,R,D,g,R,i,,,,,5,19,119,13,1,0,1,0,,,,,0,35,35,3,,,,,,up,0.8839971359852825,1308.6127826584625,None,001,93,2019_Nov_05_1200,ACPT_experiment_5_30_19,3.1.0,59.955008840755866,
,,,C,G,g,v,R,U,d,L,u,,,,,5,19,119,13,1,0,1,0,,,,,1,0,36,8,,,,,,up,0.9507496908986468,1310.7810728102118,None,001,93,2019_Nov_05_1200,ACPT_experiment_5_30_19,3.1.0,59.955008840755866,
,,,C,G,g,v,L,U,d,L,u,,,,,5,19,119,13,1,0,1,0,,,,,1,1,37,20,,,,,,up,0.6838744011165545,1313.0161191391535,None,001,93,2019_Nov_05_1200,ACPT_experiment_5_30_19,3.1.0,59.955008840755866,
,,,C,G,g,v,R,D,y,R,y,,,,,5,19,119,13,1,0,1,0,,,,,1,2,38,27,,,,,,down,0.600479287811595,1314.9842941024476,None,001,93,2019_Nov_05_1200,ACPT_experiment_5_30_19,3.1.0,59.955008840755866,
,,,C,G,g,v,R,D,d,L,c,,,,,5,19,119,13,1,0,1,0,,,,,1,3,39,0,,,,,,up,1.0674933108593905,1316.8690721412977,None,001,93,2019_Nov_05_1200,ACPT_experiment_5_30_19,3.1.0,59.955008840755866,
,,,C,G,g,v,L,U,y,R,u,,,,,5,19,119,13,1,0,1,0,,,,,1,4,40,25,,,,,,down,0.6671651324304548,1319.2375695477463,None,001,93,2019_Nov_05_1200,ACPT_experiment_5_30_19,3.1.0,59.955008840755866,
,,,C,G,g,v,R,U,y,R,u,,,,,5,19,119,13,1,0,1,0,,,,,1,5,41,31,,,,,,down,0.8673189585224463,1321.22242299036,None,001,93,2019_Nov_05_1200,ACPT_experiment_5_30_19,3.1.0,59.955008840755866,
,,,C,G,g,v,R,D,g,R,i,,,,,5,19,119,13,1,0,1,0,,,,,1,6,42,3,,,,,,up,0.5837757543999942,1323.374069376292,None,001,93,2019_Nov_05_1200,ACPT_experiment_5_30_19,3.1.0,59.955008840755866,
,,,C,G,g,v,R,D,g,L,i,,,,,5,19,119,13,1,0,1,0,,,,,1,7,43,2,,,,,,up,0.6171520318571311,1325.225463893128,None,001,93,2019_Nov_05_1200,ACPT_experiment_5_30_19,3.1.0,59.955008840755866,
,,,C,G,g,v,L,U,y,L,u,,,,,5,19,119,13,1,0,1,0,,,,,1,8,44,24,,,,,,down,0.6338178332011921,1327.1269394282594,None,001,93,2019_Nov_05_1200,ACPT_experiment_5_30_19,3.1.0,59.955008840755866,
,,,C,G,g,v,L,U,g,L,u,,,,,5,19,119,13,1,0,1,0,,,,,1,9,45,22,,,,,,up,0.6338172294881588,1329.0450698979002,None,001,93,2019_Nov_05_1200,ACPT_experiment_5_30_19,3.1.0,59.955008840755866,
,,,C,G,g,v,R,D,d,R,c ,,,,,5,19,119,13,1,0,1,0,,,,,1,10,46,1,,,,,,up,0.917101138844373,1330.9801568567318,None,001,93,2019_Nov_05_1200,ACPT_experiment_5_30_19,3.1.0,59.955008840755866,
,,,C,G,g,v,L,D,g,R,i,,,,,5,19,119,13,1,0,1,0,,,,,1,11,47,15,,,,,,up,0.5337312607462081,1333.1815712357284,None,001,93,2019_Nov_05_1200,ACPT_experiment_5_30_19,3.1.0,59.955008840755866,
,,,C,G,g,v,L,D,d,L,c ,,,,,5,19,119,13,1,0,1,0,,,,,1,12,48,12,,,,,,up,0.5504414350016305,1334.9829251830456,None,001,93,2019_Nov_05_1200,ACPT_experiment_5_30_19,3.1.0,59.955008840755866,
,,,C,G,g,v,R,G,g,L,c ,,,,,5,19,119,13,1,0,1,0,,,,,1,13,49,6,,,,,,up,0.5670658820008612,1336.8177061197189,None,001,93,2019_Nov_05_1200,ACPT_experiment_5_30_19,3.1.0,59.955008840755866,
,,,C,G,g,v,L,G,g,L,c ,,,,,5,19,119,13,1,0,1,0,,,,,1,14,50,18,,,,,,up,0.5337406182989071,1338.6691015421247,None,001,93,2019_Nov_05_1200,ACPT_experiment_5_30_19,3.1.0,59.955008840755866,
,,,C,G,g,v,L,G,d,L,i,,,,,5,19,119,13,1,0,1,0,,,,,1,15,51,16,,,,,,up,0.48369793578422104,1340.487163550702,None,001,93,2019_Nov_05_1200,ACPT_experiment_5_30_19,3.1.0,59.955008840755866,
,,,C,G,g,v,R,U,d,R,u,,,,,5,19,119,13,1,0,1,0,,,,,1,16,52,9,,,,,,up,0.6004466873055208,1342.2551907250354,None,001,93,2019_Nov_05_1200,ACPT_experiment_5_30_19,3.1.0,59.955008840755866,
,,,C,G,g,v,L,D,y,L,y,,,,,5,19,119,13,1,0,1,0,,,,,1,17,53,32,,,,,,down,0.550055360488841,1344.1570079617682,None,001,93,2019_Nov_05_1200,ACPT_experiment_5_30_19,3.1.0,59.955008840755866,
,,,C,G,g,v,R,G,d,R,i,,,,,5,19,119,13,1,0,1,0,,,,,1,18,54,5,,,,,,up,0.6504872568243627,1345.9913789772618,None,001,93,2019_Nov_05_1200,ACPT_experiment_5_30_19,3.1.0,59.955008840755866,
,,,C,G,g,v,R,U,y,L,u,,,,,5,19,119,13,1,0,1,0,,,,,1,19,55,30,,,,,,down,0.6338178332011921,1347.9261903410738,None,001,93,2019_Nov_05_1200,ACPT_experiment_5_30_19,3.1.0,59.955008840755866,
,,,C,G,g,v,L,U,g,R,u,,,,,5,19,119,13,1,0,1,0,,,,,1,20,56,23,,,,,,up,0.5837881305178598,1349.8443165847225,None,001,93,2019_Nov_05_1200,ACPT_experiment_5_30_19,3.1.0,59.955008840755866,
,,,C,G,g,v,R,G,d,L,i,,,,,5,19,119,13,1,0,1,0,,,,,1,21,57,4,,,,,,up,0.7336432997508382,1351.7293466737824,None,001,93,2019_Nov_05_1200,ACPT_experiment_5_30_19,3.1.0,59.955008840755866,
,,,C,G,g,v,R,U,g,L,u,,,,,5,19,119,13,1,0,1,0,,,,,1,22,58,10,,,,,,up,0.5504227198966873,1353.7473086471032,None,001,93,2019_Nov_05_1200,ACPT_experiment_5_30_19,3.1.0,59.955008840755866,
,,,C,G,g,v,R,G,g,R,c ,,,,,5,19,119,13,1,0,1,0,,,,,1,23,59,7,,,,,,up,0.5837848100959491,1355.5820440034386,None,001,93,2019_Nov_05_1200,ACPT_experiment_5_30_19,3.1.0,59.955008840755866,
,,,C,G,g,v,R,D,y,L,y,,,,,5,19,119,13,1,0,1,0,,,,,1,24,60,26,,,,,,down,0.7005643509846777,1357.4501188107333,None,001,93,2019_Nov_05_1200,ACPT_experiment_5_30_19,3.1.0,59.955008840755866,
,,,C,G,g,v,R,G,y,R,y,,,,,5,19,119,13,1,0,1,0,,,,,1,25,61,29,,,,,,down,0.5170527814270827,1359.4349948925874,None,001,93,2019_Nov_05_1200,ACPT_experiment_5_30_19,3.1.0,59.955008840755866,
,,,C,G,g,v,R,G,y,L,y,,,,,5,19,119,13,1,0,1,0,,,,,1,26,62,28,,,,,,down,0.4670318325829612,1361.2363690642928,None,001,93,2019_Nov_05_1200,ACPT_experiment_5_30_19,3.1.0,59.955008840755866,
,,,C,G,g,v,L,D,y,R,y,,,,,5,19,119,13,1,0,1,0,,,,,1,27,63,33,,,,,,down,0.4670300214438612,1362.9877168537373,None,001,93,2019_Nov_05_1200,ACPT_experiment_5_30_19,3.1.0,59.955008840755866,
,,,C,G,g,v,L,G,y,L,y,,,,,5,19,119,13,1,0,1,0,,,,,1,28,64,34,,,,,,down,0.7003455049939475,1364.7725670966715,None,001,93,2019_Nov_05_1200,ACPT_experiment_5_30_19,3.1.0,59.955008840755866,
,,,C,G,g,v,L,G,g,R,c ,,,,,5,19,119,13,1,0,1,0,,,,,1,29,65,19,,,,,,up,0.6338658283907534,1366.7739471847653,None,001,93,2019_Nov_05_1200,ACPT_experiment_5_30_19,3.1.0,59.955008840755866,
,,,C,G,g,v,L,D,d,R,c ,,,,,5,19,119,13,1,0,1,0,,,,,1,30,66,13,,,,,,up,0.7005356746130929,1368.6920858045323,None,001,93,2019_Nov_05_1200,ACPT_experiment_5_30_19,3.1.0,59.955008840755866,
,,,C,G,g,v,L,G,y,R,y,,,,,5,19,119,13,1,0,1,0,,,,,1,31,67,35,,,,,,up,0.5003842633736895,1370.6936135004735,None,001,93,2019_Nov_05_1200,ACPT_experiment_5_30_19,3.1.0,59.955008840755866,
,,,C,G,g,v,L,D,g,L,i,,,,,5,19,119,13,1,0,1,0,,,,,1,32,68,14,,,,,,up,0.5670791636885042,1372.4950078965671,None,001,93,2019_Nov_05_1200,ACPT_experiment_5_30_19,3.1.0,59.955008840755866,
,,,C,G,g,v,R,U,g,R,u,,,,,5,19,119,13,1,0,1,0,,,,,1,33,69,11,,,,,,up,0.8339653203061062,1374.3464105635298,None,001,93,2019_Nov_05_1200,ACPT_experiment_5_30_19,3.1.0,59.955008840755866,
,,,C,G,g,v,L,U,d,R,u,,,,,5,19,119,13,1,0,1,0,,,,,1,34,70,21,,,,,,up,0.5170473480093278,1376.4647048205284,None,001,93,2019_Nov_05_1200,ACPT_experiment_5_30_19,3.1.0,59.955008840755866,
,,,C,G,g,v,L,G,d,R,i,,,,,5,19,119,13,1,0,1,0,,,,,1,35,71,17,,,,,,up,0.48342867975179615,1378.2830273312984,None,001,93,2019_Nov_05_1200,ACPT_experiment_5_30_19,3.1.0,59.955008840755866,
,,,C,G,g,v,,,,,,,,,,5,19,119,13,2,0,2,0,0,0,0,0,,,,,,,,,,,,,,001,93,2019_Nov_05_1200,ACPT_experiment_5_30_19,3.1.0,59.955008840755866,
,,,C,G,g,v,L,D,y,L,y,,,,,5,19,119,13,2,0,2,0,,,,,0,0,0,32,,,,,,down,0.6338522448468211,1383.3199437822382,None,001,93,2019_Nov_05_1200,ACPT_experiment_5_30_19,3.1.0,59.955008840755866,
,,,C,G,g,v,R,D,g,R,i,,,,,5,19,119,13,2,0,2,0,,,,,0,1,1,3,,,,,,up,0.5333008133225121,1385.2551638598034,None,001,93,2019_Nov_05_1200,ACPT_experiment_5_30_19,3.1.0,59.955008840755866,
,,,C,G,g,v,L,U,d,L,u,,,,,5,19,119,13,2,0,2,0,,,,,0,2,2,20,,,,,,up,0.7839289767784976,1387.0728147397754,None,001,93,2019_Nov_05_1200,ACPT_experiment_5_30_19,3.1.0,59.955008840755866,
,,,C,G,g,v,L,U,y,L,u,,,,,5,19,119,13,2,0,2,0,,,,,0,3,3,24,,,,,,down,0.7005368820391595,1389.1243811940963,None,001,93,2019_Nov_05_1200,ACPT_experiment_5_30_19,3.1.0,59.955008840755866,
,,,C,G,g,v,L,G,y,R,y,,,,,5,19,119,13,2,0,2,0,,,,,0,4,4,35,,,,,,down,0.7005661621237778,1391.092528386589,None,001,93,2019_Nov_05_1200,ACPT_experiment_5_30_19,3.1.0,59.955008840755866,
,,,C,G,g,v,R,G,g,R,c ,,,,,5,19,119,13,2,0,2,0,,,,,0,5,5,7,,,,,,up,0.5671099530550237,1393.0774059777254,None,001,93,2019_Nov_05_1200,ACPT_experiment_5_30_19,3.1.0,59.955008840755866,
,,,C,G,g,v,R,D,d,R,c ,,,,,5,19,119,13,2,0,2,0,,,,,0,6,6,1,,,,,,up,0.5003758113903132,1394.9288273597936,None,001,93,2019_Nov_05_1200,ACPT_experiment_5_30_19,3.1.0,59.955008840755866,
,,,C,G,g,v,L,U,g,R,u,,,,,5,19,119,13,2,0,2,0,,,,,0,7,7,23,,,,,,up,0.5670981806501914,1396.7135233540366,None,001,93,2019_Nov_05_1200,ACPT_experiment_5_30_19,3.1.0,59.955008840755866,
,,,C,G,g,v,R,D,y,L,y,,,,,5,19,119,13,2,0,2,0,,,,,0,8,8,26,,,,,,down,0.5835261190427445,1398.5819072624267,None,001,93,2019_Nov_05_1200,ACPT_experiment_5_30_19,3.1.0,59.955008840755866,
,,,C,G,g,v,R,U,d,R,u,,,,,5,19,119,13,2,0,2,0,,,,,0,9,9,9,,,,,,up,0.6004699302593508,1400.44970315428,None,001,93,2019_Nov_05_1200,ACPT_experiment_5_30_19,3.1.0,59.955008840755866,
,,,C,G,g,v,R,G,y,L,y,,,,,5,19,119,13,2,0,2,0,,,,,0,10,10,28,,,,,,down,0.6004587615670971,1402.3344920599657,None,001,93,2019_Nov_05_1200,ACPT_experiment_5_30_19,3.1.0,59.955008840755866,
,,,C,G,g,v,R,U,y,R,u,,,,,5,19,119,13,2,0,2,0,,,,,0,11,11,31,,,,,,down,0.4670224750302623,1404.2025861860789,None,001,93,2019_Nov_05_1200,ACPT_experiment_5_30_19,3.1.0,59.955008840755866,
,,,C,G,g,v,L,D,y,R,y,,,,,5,19,119,13,2,0,2,0,,,,,0,12,12,33,,,,,,down,0.5167832235383685,1405.9708850312963,None,001,93,2019_Nov_05_1200,ACPT_experiment_5_30_19,3.1.0,59.955008840755866,
,,,C,G,g,v,R,G,y,R,y,,,,,5,19,119,13,2,0,2,0,,,,,0,13,13,29,,,,,,down,0.500381244808068,1407.7886654077238,None,001,93,2019_Nov_05_1200,ACPT_experiment_5_30_19,3.1.0,59.955008840755866,
,,,C,G,g,v,L,D,d,R,c ,,,,,5,19,119,13,2,0,2,0,,,,,0,14,14,13,,,,,,up,0.700528128199494,1409.5900465221298,None,001,93,2019_Nov_05_1200,ACPT_experiment_5_30_19,3.1.0,59.955008840755866,
,,,C,G,g,v,L,G,g,L,c ,,,,,5,19,119,13,2,0,2,0,,,,,0,15,15,18,,,,,,up,0.7338902183992104,1411.5748972480342,None,001,93,2019_Nov_05_1200,ACPT_experiment_5_30_19,3.1.0,59.955008840755866,
,,,C,G,g,v,L,G,d,L,i,,,,,5,19,119,13,2,0,2,0,,,,,0,16,16,16,,,,,,up,0.6838514600199233,1413.593105234434,None,001,93,2019_Nov_05_1200,ACPT_experiment_5_30_19,3.1.0,59.955008840755866,
,,,C,G,g,v,R,D,g,L,i,,,,,5,19,119,13,2,0,2,0,,,,,0,17,17,2,,,,,,up,0.6171426743044321,1415.5612687271796,None,001,93,2019_Nov_05_1200,ACPT_experiment_5_30_19,3.1.0,59.955008840755866,
,,,C,G,g,v,L,G,d,R,i,,,,,5,19,119,13,2,0,2,0,,,,,0,18,18,17,,,,,,up,0.5337433350077845,1417.4627273583446,None,001,93,2019_Nov_05_1200,ACPT_experiment_5_30_19,3.1.0,59.955008840755866,
,,,C,G,g,v,R,G,d,L,i,,,,,5,19,119,13,2,0,2,0,,,,,0,19,19,4,,,,,,up,0.48369220050972217,1419.2974829390682,None,001,93,2019_Nov_05_1200,ACPT_experiment_5_30_19,3.1.0,59.955008840755866,
,,,C,G,g,v,R,U,y,L,u,,,,,5,19,119,13,2,0,2,0,,,,,0,20,20,30,,,,,,down,0.6671720751310204,1421.0654962280005,None,001,93,2019_Nov_05_1200,ACPT_experiment_5_30_19,3.1.0,59.955008840755866,
,,,C,G,g,v,R,U,g,R,u,,,,,5,19,119,13,2,0,2,0,,,,,0,21,21,11,,,,,,up,0.6671750936961871,1423.0169869767014,None,001,93,2019_Nov_05_1200,ACPT_experiment_5_30_19,3.1.0,59.955008840755866,
,,,C,G,g,v,L,G,g,R,c ,,,,,5,19,119,13,2,0,2,0,,,,,0,22,22,19,,,,,,up,0.6004448761664207,1424.9684828569634,None,001,93,2019_Nov_05_1200,ACPT_experiment_5_30_19,3.1.0,59.955008840755866,
,,,C,G,g,v,R,D,d,L,c,,,,,5,19,119,13,2,0,2,0,,,,,0,23,23,0,,,,,,up,0.5170651575449483,1426.8532521419738,None,001,93,2019_Nov_05_1200,ACPT_experiment_5_30_19,3.1.0,59.955008840755866,
,,,C,G,g,v,R,U,d,L,u,,,,,5,19,119,13,2,0,2,0,,,,,0,24,24,8,,,,,,up,0.7339047075129201,1428.654627219249,None,001,93,2019_Nov_05_1200,ACPT_experiment_5_30_19,3.1.0,59.955008840755866,
,,,C,G,g,v,R,G,d,R,i,,,,,5,19,119,13,2,0,2,0,,,,,0,25,25,5,,,,,,up,0.5504438498542186,1430.6728222258175,None,001,93,2019_Nov_05_1200,ACPT_experiment_5_30_19,3.1.0,59.955008840755866,
,,,C,G,g,v,L,U,g,L,u,,,,,5,19,119,13,2,0,2,0,,,,,0,26,26,22,,,,,,up,0.5668298301875438,1432.524534597589,None,001,93,2019_Nov_05_1200,ACPT_experiment_5_30_19,3.1.0,59.955008840755866,
,,,C,G,g,v,L,D,g,R,i,,,,,5,19,119,13,2,0,2,0,,,,,0,27,27,15,,,,,,up,0.5671232347426667,1434.3756535194057,None,001,93,2019_Nov_05_1200,ACPT_experiment_5_30_19,3.1.0,59.955008840755866,
,,,C,G,g,v,L,U,d,R,u,,,,,5,19,119,13,2,0,2,0,,,,,0,28,28,21,,,,,,up,0.6004756655333949,1436.2270785237524,None,001,93,2019_Nov_05_1200,ACPT_experiment_5_30_19,3.1.0,59.955008840755866,
,,,C,G,g,v,L,U,y,R,u,,,,,5,19,119,13,2,0,2,0,,,,,0,29,29,25,,,,,,down,0.7839570494370491,1438.1118459976237,None,001,93,2019_Nov_05_1200,ACPT_experiment_5_30_19,3.1.0,59.955008840755866,
,,,C,G,g,v,L,D,g,L,i,,,,,5,19,119,13,2,0,2,0,,,,,0,30,30,14,,,,,,up,0.633815720205348,1440.1801205132042,None,001,93,2019_Nov_05_1200,ACPT_experiment_5_30_19,3.1.0,59.955008840755866,
,,,C,G,g,v,R,U,g,L,u,,,,,5,19,119,13,2,0,2,0,,,,,0,31,31,10,,,,,,up,0.6671889790973182,1442.0982536995539,None,001,93,2019_Nov_05_1200,ACPT_experiment_5_30_19,3.1.0,59.955008840755866,
,,,C,G,g,v,R,D,y,R,y,,,,,5,19,119,13,2,0,2,0,,,,,0,32,32,27,,,,,,down,0.6171248647683569,1444.0497438445414,None,001,93,2019_Nov_05_1200,ACPT_experiment_5_30_19,3.1.0,59.955008840755866,
,,,C,G,g,v,R,G,g,L,c ,,,,,5,19,119,13,2,0,2,0,,,,,0,33,33,6,,,,,,up,0.6504969162333509,1445.9512039849892,None,001,93,2019_Nov_05_1200,ACPT_experiment_5_30_19,3.1.0,59.955008840755866,
,,,C,G,g,v,L,G,y,L,y,,,,,5,19,119,13,2,0,2,0,,,,,0,34,34,34,,,,,,down,0.7005465414486025,1447.8860138395185,None,001,93,2019_Nov_05_1200,ACPT_experiment_5_30_19,3.1.0,59.955008840755866,
,,,C,G,g,v,L,D,d,L,c ,,,,,5,19,119,13,2,0,2,0,,,,,0,35,35,12,,,,,,up,0.6505280074570692,1449.8708455484611,None,001,93,2019_Nov_05_1200,ACPT_experiment_5_30_19,3.1.0,59.955008840755866,
,,,C,G,g,v,R,G,y,L,y,,,,,5,19,119,13,2,0,2,0,,,,,1,0,36,28,,,,,,down,0.6004868342251939,1451.822371614377,None,001,93,2019_Nov_05_1200,ACPT_experiment_5_30_19,3.1.0,59.955008840755866,
,,,C,G,g,v,R,G,d,R,i,,,,,5,19,119,13,2,0,2,0,,,,,1,1,37,5,,,,,,up,0.6671877716707968,1453.7071381826786,None,001,93,2019_Nov_05_1200,ACPT_experiment_5_30_19,3.1.0,59.955008840755866,
,,,C,G,g,v,R,U,y,L,u,,,,,5,19,119,13,2,0,2,0,,,,,1,2,38,30,,,,,,down,0.5504200031878099,1455.6586292332363,None,001,93,2019_Nov_05_1200,ACPT_experiment_5_30_19,3.1.0,59.955008840755866,
,,,C,G,g,v,R,G,d,L,i,,,,,5,19,119,13,2,0,2,0,,,,,1,3,39,4,,,,,,up,0.733911952069775,1457.4933470818924,None,001,93,2019_Nov_05_1200,ACPT_experiment_5_30_19,3.1.0,59.955008840755866,
,,,C,G,g,v,L,U,d,L,u,,,,,5,19,119,13,2,0,2,0,,,,,1,4,40,20,,,,,,up,0.5837745469739275,1459.5115837446633,None,001,93,2019_Nov_05_1200,ACPT_experiment_5_30_19,3.1.0,59.955008840755866,
,,,C,G,g,v,R,G,y,R,y,,,,,5,19,119,13,2,0,2,0,,,,,1,5,41,29,,,,,,down,0.7003276954583271,1461.3965184470567,None,001,93,2019_Nov_05_1200,ACPT_experiment_5_30_19,3.1.0,59.955008840755866,
,,,C,G,g,v,L,G,y,L,y,,,,,5,19,119,13,2,0,2,0,,,,,1,6,42,34,,,,,,down,0.7005157520816283,1463.397903666712,None,001,93,2019_Nov_05_1200,ACPT_experiment_5_30_19,3.1.0,59.955008840755866,
,,,C,G,g,v,L,G,d,L,i,,,,,5,19,119,13,2,0,2,0,,,,,1,7,43,16,,,,,,up,0.9340727208627868,1465.3660375775166,None,001,93,2019_Nov_05_1200,ACPT_experiment_5_30_19,3.1.0,59.955008840755866,
,,,C,G,g,v,R,G,g,R,c ,,,,,5,19,119,13,2,0,2,0,,,,,1,8,44,7,,,,,,up,0.6004596671364197,1467.5844247459577,None,001,93,2019_Nov_05_1200,ACPT_experiment_5_30_19,3.1.0,59.955008840755866,
,,,C,G,g,v,L,G,g,L,c ,,,,,5,19,119,13,2,0,2,0,,,,,1,9,45,18,,,,,,up,0.7172123427931183,1469.4691988606728,None,001,93,2019_Nov_05_1200,ACPT_experiment_5_30_19,3.1.0,59.955008840755866,
,,,C,G,g,v,L,D,d,R,c ,,,,,5,19,119,13,2,0,2,0,,,,,1,10,46,13,,,,,,up,0.5837724339780834,1471.4707344048838,None,001,93,2019_Nov_05_1200,ACPT_experiment_5_30_19,3.1.0,59.955008840755866,
,,,C,G,g,v,R,D,y,R,y,,,,,5,19,119,13,2,0,2,0,,,,,1,11,47,27,,,,,,down,0.6838722881211652,1473.3388086084656,None,001,93,2019_Nov_05_1200,ACPT_experiment_5_30_19,3.1.0,59.955008840755866,
,,,C,G,g,v,R,D,g,L,i,,,,,5,19,119,13,2,0,2,0,,,,,1,12,48,2,,,,,,up,0.5838008084924695,1475.29029814974,None,001,93,2019_Nov_05_1200,ACPT_experiment_5_30_19,3.1.0,59.955008840755866,
,,,C,G,g,v,R,D,d,L,c,,,,,5,19,119,13,2,0,2,0,,,,,1,13,49,0,,,,,,up,0.6001997686571485,1477.158679643278,None,001,93,2019_Nov_05_1200,ACPT_experiment_5_30_19,3.1.0,59.955008840755866,
,,,C,G,g,v,L,U,g,L,u,,,,,5,19,119,13,2,0,2,0,,,,,1,14,50,22,,,,,,up,0.5003730946814358,1479.0431932558004,None,001,93,2019_Nov_05_1200,ACPT_experiment_5_30_19,3.1.0,59.955008840755866,
,,,C,G,g,v,L,G,y,R,y,,,,,5,19,119,13,2,0,2,0,,,,,1,15,51,35,,,,,,down,0.6671636231480988,1480.8278992113092,None,001,93,2019_Nov_05_1200,ACPT_experiment_5_30_19,3.1.0,59.955008840755866,
,,,C,G,g,v,L,D,g,R,i,,,,,5,19,119,13,2,0,2,0,,,,,1,16,52,15,,,,,,up,0.7505744329928348,1482.7793866395882,None,001,93,2019_Nov_05_1200,ACPT_experiment_5_30_19,3.1.0,59.955008840755866,
,,,C,G,g,v,L,D,y,R,y,,,,,5,19,119,13,2,0,2,0,,,,,1,17,53,33,,,,,,down,0.5170557999927041,1484.8142767275854,None,001,93,2019_Nov_05_1200,ACPT_experiment_5_30_19,3.1.0,59.955008840755866,
,,,C,G,g,v,R,U,g,R,u,,,,,5,19,119,13,2,0,2,0,,,,,1,18,54,11,,,,,,up,0.5837823952438157,1486.615647578869,None,001,93,2019_Nov_05_1200,ACPT_experiment_5_30_19,3.1.0,59.955008840755866,
,,,C,G,g,v,R,U,d,L,u,,,,,5,19,119,13,2,0,2,0,,,,,1,19,55,8,,,,,,up,0.6838873809474535,1488.4670442087013,None,001,93,2019_Nov_05_1200,ACPT_experiment_5_30_19,3.1.0,59.955008840755866,
,,,C,G,g,v,L,U,y,R,u,,,,,5,19,119,13,2,0,2,0,,,,,1,20,56,25,,,,,,down,0.6166995489056717,1490.4523431915654,None,001,93,2019_Nov_05_1200,ACPT_experiment_5_30_19,3.1.0,59.955008840755866,
,,,C,G,g,v,R,U,d,R,u,,,,,5,19,119,13,2,0,2,0,,,,,1,21,57,9,,,,,,up,0.6337115797000479,1492.3533746957287,None,001,93,2019_Nov_05_1200,ACPT_experiment_5_30_19,3.1.0,59.955008840755866,
,,,C,G,g,v,R,D,d,R,c ,,,,,5,19,119,13,2,0,2,0,,,,,1,22,58,1,,,,,,up,0.5170802503716914,1494.2714894688293,None,001,93,2019_Nov_05_1200,ACPT_experiment_5_30_19,3.1.0,59.955008840755866,
,,,C,G,g,v,L,G,d,R,i,,,,,5,19,119,13,2,0,2,0,,,,,1,23,59,17,,,,,,up,0.7172283411896387,1496.0728847704922,None,001,93,2019_Nov_05_1200,ACPT_experiment_5_30_19,3.1.0,59.955008840755866,
,,,C,G,g,v,R,D,y,L,y,,,,,5,19,119,13,2,0,2,0,,,,,1,24,60,26,,,,,,down,0.5335911993120135,1498.0745395480362,None,001,93,2019_Nov_05_1200,ACPT_experiment_5_30_19,3.1.0,59.955008840755866,
,,,C,G,g,v,L,D,y,L,y,,,,,5,19,119,13,2,0,2,0,,,,,1,25,61,32,,,,,,down,0.6505014440817831,1499.8924780972898,None,001,93,2019_Nov_05_1200,ACPT_experiment_5_30_19,3.1.0,59.955008840755866,
,,,C,G,g,v,L,G,g,R,c ,,,,,5,19,119,13,2,0,2,0,,,,,1,26,62,19,,,,,,up,0.6505002366552617,1501.827289159245,None,001,93,2019_Nov_05_1200,ACPT_experiment_5_30_19,3.1.0,59.955008840755866,
,,,C,G,g,v,R,U,g,L,u,,,,,5,19,119,13,2,0,2,0,,,,,1,27,63,10,,,,,,up,1.08374496503302,1503.779175340011,None,001,93,2019_Nov_05_1200,ACPT_experiment_5_30_19,3.1.0,59.955008840755866,
,,,C,G,g,v,L,U,d,R,u,,,,,5,19,119,13,2,0,2,0,,,,,1,28,64,21,,,,,,up,0.9840957827022976,1506.1472519584454,None,001,93,2019_Nov_05_1200,ACPT_experiment_5_30_19,3.1.0,59.955008840755866,
,,,C,G,g,v,R,G,g,L,c ,,,,,5,19,119,13,2,0,2,0,,,,,1,29,65,6,,,,,,up,0.6838532711590233,1508.4156694332823,None,001,93,2019_Nov_05_1200,ACPT_experiment_5_30_19,3.1.0,59.955008840755866,
,,,C,G,g,v,R,U,y,R,u,,,,,5,19,119,13,2,0,2,0,,,,,1,30,66,31,,,,,,down,0.6671796215441645,1510.3838380575894,None,001,93,2019_Nov_05_1200,ACPT_experiment_5_30_19,3.1.0,59.955008840755866,
,,,C,G,g,v,R,D,g,R,i,,,,,5,19,119,13,2,0,2,0,,,,,1,31,67,3,,,,,,up,0.7005471451616359,1512.3353363527035,None,001,93,2019_Nov_05_1200,ACPT_experiment_5_30_19,3.1.0,59.955008840755866,
,,,C,G,g,v,L,D,g,L,i,,,,,5,19,119,13,2,0,2,0,,,,,1,32,68,14,,,,,,up,0.6004557430019304,1514.3035095048585,None,001,93,2019_Nov_05_1200,ACPT_experiment_5_30_19,3.1.0,59.955008840755866,
,,,C,G,g,v,L,U,y,L,u,,,,,5,19,119,13,2,0,2,0,,,,,1,33,69,24,,,,,,down,0.5837682079863953,1516.1882929771264,None,001,93,2019_Nov_05_1200,ACPT_experiment_5_30_19,3.1.0,59.955008840755866,
,,,C,G,g,v,L,D,d,L,c ,,,,,5,19,119,13,2,0,2,0,,,,,1,34,70,12,,,,,,up,0.550173688252471,1518.073300426946,None,001,93,2019_Nov_05_1200,ACPT_experiment_5_30_19,3.1.0,59.955008840755866,
,,,C,G,g,v,L,U,g,R,u,,,,,5,19,119,13,2,0,2,0,,,,,1,35,71,23,,,,,,up,0.5003724909684024,1519.907807881595,None,001,93,2019_Nov_05_1200,ACPT_experiment_5_30_19,3.1.0,59.955008840755866,
,,,C,G,g,v,,,,,,,,,,5,19,119,13,3,0,3,0,0,0,0,0,,,,,,,,,,,,,,001,93,2019_Nov_05_1200,ACPT_experiment_5_30_19,3.1.0,59.955008840755866,
,,,C,G,g,v,R,U,d,L,u,,,,,5,19,119,13,3,0,3,0,,,,,0,0,0,8,,,,,,up,0.5671002936460354,1523.6606643500181,None,001,93,2019_Nov_05_1200,ACPT_experiment_5_30_19,3.1.0,59.955008840755866,
,,,C,G,g,v,L,D,g,L,i,,,,,5,19,119,13,3,0,3,0,,,,,0,1,1,14,,,,,,up,0.4503421845720368,1525.5120839209476,None,001,93,2019_Nov_05_1200,ACPT_experiment_5_30_19,3.1.0,59.955008840755866,
,,,C,G,g,v,L,D,y,L,y,,,,,5,19,119,13,3,0,3,0,,,,,0,2,2,32,,,,,,down,0.5170871930722569,1527.2467206305664,None,001,93,2019_Nov_05_1200,ACPT_experiment_5_30_19,3.1.0,59.955008840755866,
,,,C,G,g,v,L,U,g,R,u,,,,,5,19,119,13,3,0,3,0,,,,,0,3,3,23,,,,,,up,0.6338127016401813,1529.0481237804997,None,001,93,2019_Nov_05_1200,ACPT_experiment_5_30_19,3.1.0,59.955008840755866,
,,,C,G,g,v,R,D,y,R,y,,,,,5,19,119,13,3,0,3,0,,,,,0,4,4,27,,,,,,down,0.6167046804666825,1530.9833453673473,None,001,93,2019_Nov_05_1200,ACPT_experiment_5_30_19,3.1.0,59.955008840755866,
,,,C,G,g,v,R,U,d,R,u,,,,,5,19,119,13,3,0,3,0,,,,,0,5,5,9,,,,,,up,0.667182640109786,1532.8843943791899,None,001,93,2019_Nov_05_1200,ACPT_experiment_5_30_19,3.1.0,59.955008840755866,
,,,C,G,g,v,R,D,g,R,i,,,,,5,19,119,13,3,0,3,0,,,,,0,6,6,3,,,,,,up,0.6338108905006266,1534.83589388173,None,001,93,2019_Nov_05_1200,ACPT_experiment_5_30_19,3.1.0,59.955008840755866,
,,,C,G,g,v,L,U,d,L,u,,,,,5,19,119,13,3,0,3,0,,,,,0,7,7,20,,,,,,up,0.5504320774493863,1536.7540032214129,None,001,93,2019_Nov_05_1200,ACPT_experiment_5_30_19,3.1.0,59.955008840755866,
,,,C,G,g,v,L,D,d,R,c ,,,,,5,19,119,13,3,0,3,0,,,,,0,8,8,13,,,,,,up,0.6838520637329566,1538.5887578965671,None,001,93,2019_Nov_05_1200,ACPT_experiment_5_30_19,3.1.0,59.955008840755866,
,,,C,G,g,v,R,D,d,R,c ,,,,,5,19,119,13,3,0,3,0,,,,,0,9,9,1,,,,,,up,0.45034278828507013,1540.5569292375826,None,001,93,2019_Nov_05_1200,ACPT_experiment_5_30_19,3.1.0,59.955008840755866,
,,,C,G,g,v,L,U,y,R,u,,,,,5,19,119,13,3,0,3,0,,,,,0,10,10,25,,,,,,down,0.5504245310357874,1542.2915795307458,None,001,93,2019_Nov_05_1200,ACPT_experiment_5_30_19,3.1.0,59.955008840755866,
,,,C,G,g,v,L,G,y,R,y,,,,,5,19,119,13,3,0,3,0,,,,,0,11,11,35,,,,,,down,0.5668576009893513,1544.1432505481716,None,001,93,2019_Nov_05_1200,ACPT_experiment_5_30_19,3.1.0,59.955008840755866,
,,,C,G,g,v,L,D,d,L,c ,,,,,5,19,119,13,3,0,3,0,,,,,0,12,12,12,,,,,,up,0.5003803392382906,1545.9944238041653,None,001,93,2019_Nov_05_1200,ACPT_experiment_5_30_19,3.1.0,59.955008840755866,
,,,C,G,g,v,L,U,g,L,u,,,,,5,19,119,13,3,0,3,0,,,,,0,13,13,22,,,,,,up,0.4670179471827396,1547.7791225151168,None,001,93,2019_Nov_05_1200,ACPT_experiment_5_30_19,3.1.0,59.955008840755866,
,,,C,G,g,v,R,U,g,L,u,,,,,5,19,119,13,3,0,3,0,,,,,0,14,14,10,,,,,,up,0.3669476749801106,1549.5304603432955,None,001,93,2019_Nov_05_1200,ACPT_experiment_5_30_19,3.1.0,59.955008840755866,
,,,C,G,g,v,L,U,d,R,u,,,,,5,19,119,13,3,0,3,0,,,,,0,15,15,21,,,,,,up,0.6502327917623916,1551.1986726160576,None,001,93,2019_Nov_05_1200,ACPT_experiment_5_30_19,3.1.0,59.955008840755866,
,,,C,G,g,v,R,G,d,L,i,,,,,5,19,119,13,3,0,3,0,,,,,0,16,16,4,,,,,,up,0.5337409201556511,1553.1332141201242,None,001,93,2019_Nov_05_1200,ACPT_experiment_5_30_19,3.1.0,59.955008840755866,
,,,C,G,g,v,R,G,y,R,y,,,,,5,19,119,13,3,0,3,0,,,,,0,17,17,29,,,,,,down,0.6004883435080046,1554.9512613377315,None,001,93,2019_Nov_05_1200,ACPT_experiment_5_30_19,3.1.0,59.955008840755866,
,,,C,G,g,v,L,G,y,L,y,,,,,5,19,119,13,3,0,3,0,,,,,0,18,18,34,,,,,,down,0.633810286788048,1556.8527356654367,None,001,93,2019_Nov_05_1200,ACPT_experiment_5_30_19,3.1.0,59.955008840755866,
,,,C,G,g,v,L,U,y,L,u,,,,,5,19,119,13,3,0,3,0,,,,,0,19,19,24,,,,,,down,0.7338865961210104,1558.7875569905145,None,001,93,2019_Nov_05_1200,ACPT_experiment_5_30_19,3.1.0,59.955008840755866,
,,,C,G,g,v,L,G,g,L,c ,,,,,5,19,119,13,3,0,3,0,,,,,0,20,20,18,,,,,,up,0.5670972750808687,1560.805760449066,None,001,93,2019_Nov_05_1200,ACPT_experiment_5_30_19,3.1.0,59.955008840755866,
,,,C,G,g,v,L,D,y,R,y,,,,,5,19,119,13,3,0,3,0,,,,,0,21,21,33,,,,,,down,0.5170621389797816,1562.657174888434,None,001,93,2019_Nov_05_1200,ACPT_experiment_5_30_19,3.1.0,59.955008840755866,
,,,C,G,g,v,R,G,g,R,c ,,,,,5,19,119,13,3,0,3,0,,,,,0,22,22,7,,,,,,up,0.4834479985706821,1564.4754886453643,None,001,93,2019_Nov_05_1200,ACPT_experiment_5_30_19,3.1.0,59.955008840755866,
,,,C,G,g,v,R,G,d,R,i,,,,,5,19,119,13,3,0,3,0,,,,,0,23,23,5,,,,,,up,0.45032980845417114,1566.2432562230742,None,001,93,2019_Nov_05_1200,ACPT_experiment_5_30_19,3.1.0,59.955008840755866,
,,,C,G,g,v,R,D,y,L,y,,,,,5,19,119,13,3,0,3,0,,,,,0,24,24,26,,,,,,down,0.5504172864789325,1567.9779104403724,None,001,93,2019_Nov_05_1200,ACPT_experiment_5_30_19,3.1.0,59.955008840755866,
,,,C,G,g,v,R,G,y,L,y,,,,,5,19,119,13,3,0,3,0,,,,,0,25,25,28,,,,,,down,0.5837811878172943,1569.8126515319823,None,001,93,2019_Nov_05_1200,ACPT_experiment_5_30_19,3.1.0,59.955008840755866,
,,,C,G,g,v,L,G,d,L,i,,,,,5,19,119,13,3,0,3,0,,,,,0,26,26,16,,,,,,up,0.6335754424007973,1571.6976719616328,None,001,93,2019_Nov_05_1200,ACPT_experiment_5_30_19,3.1.0,59.955008840755866,
,,,C,G,g,v,R,U,g,R,u,,,,,5,19,119,13,3,0,3,0,,,,,0,27,27,11,,,,,,up,0.5670984825064807,1573.6155579274773,None,001,93,2019_Nov_05_1200,ACPT_experiment_5_30_19,3.1.0,59.955008840755866,
,,,C,G,g,v,L,D,g,R,i,,,,,5,19,119,13,3,0,3,0,,,,,0,28,28,15,,,,,,up,0.4837232917334404,1575.4669735742714,None,001,93,2019_Nov_05_1200,ACPT_experiment_5_30_19,3.1.0,59.955008840755866,
,,,C,G,g,v,R,U,y,R,u,,,,,5,19,119,13,3,0,3,0,,,,,0,29,29,31,,,,,,down,0.533738807159807,1577.2349907873386,None,001,93,2019_Nov_05_1200,ACPT_experiment_5_30_19,3.1.0,59.955008840755866,
,,,C,G,g,v,L,G,g,R,c ,,,,,5,19,119,13,3,0,3,0,,,,,0,30,30,19,,,,,,up,0.533740316442163,1579.0530533996289,None,001,93,2019_Nov_05_1200,ACPT_experiment_5_30_19,3.1.0,59.955008840755866,
,,,C,G,g,v,R,D,g,L,i,,,,,5,19,119,13,3,0,3,0,,,,,0,31,31,2,,,,,,up,0.6838535730153126,1580.8711154082066,None,001,93,2019_Nov_05_1200,ACPT_experiment_5_30_19,3.1.0,59.955008840755866,
,,,C,G,g,v,R,D,d,L,c,,,,,5,19,119,13,3,0,3,0,,,,,0,32,32,0,,,,,,up,0.7338971610993212,1582.8226034401987,None,001,93,2019_Nov_05_1200,ACPT_experiment_5_30_19,3.1.0,59.955008840755866,
,,,C,G,g,v,L,G,d,R,i,,,,,5,19,119,13,3,0,3,0,,,,,0,33,33,17,,,,,,up,0.5001829250622905,1584.8576628697137,None,001,93,2019_Nov_05_1200,ACPT_experiment_5_30_19,3.1.0,59.955008840755866,
,,,C,G,g,v,R,G,g,L,c ,,,,,5,19,119,13,3,0,3,0,,,,,0,34,34,6,,,,,,up,0.5671229328863774,1586.6421723166163,None,001,93,2019_Nov_05_1200,ACPT_experiment_5_30_19,3.1.0,59.955008840755866,
,,,C,G,g,v,R,U,y,L,u,,,,,5,19,119,13,3,0,3,0,,,,,0,35,35,30,,,,,,down,0.667172980700343,1588.4936093952242,None,001,93,2019_Nov_05_1200,ACPT_experiment_5_30_19,3.1.0,59.955008840755866,
,,,C,G,g,v,R,G,y,L,y,,,,,5,19,119,13,3,0,3,0,,,,,1,0,36,28,,,,,,down,0.5504233236097207,1590.4450992383554,None,001,93,2019_Nov_05_1200,ACPT_experiment_5_30_19,3.1.0,59.955008840755866,
,,,C,G,g,v,R,D,g,L,i,,,,,5,19,119,13,3,0,3,0,,,,,1,1,37,2,,,,,,up,0.7505662828662025,1592.279845763383,None,001,93,2019_Nov_05_1200,ACPT_experiment_5_30_19,3.1.0,59.955008840755866,
,,,C,G,g,v,L,G,y,R,y,,,,,5,19,119,13,3,0,3,0,,,,,1,2,38,35,,,,,,down,0.6171393538820666,1594.3147277012536,None,001,93,2019_Nov_05_1200,ACPT_experiment_5_30_19,3.1.0,59.955008840755866,
,,,C,G,g,v,R,U,d,R,u,,,,,5,19,119,13,3,0,3,0,,,,,1,3,39,9,,,,,,up,0.8506407810596102,1596.2161990103937,None,001,93,2019_Nov_05_1200,ACPT_experiment_5_30_19,3.1.0,59.955008840755866,
,,,C,G,g,v,L,G,g,L,c ,,,,,5,19,119,13,3,0,3,0,,,,,1,4,40,18,,,,,,up,0.5504121549179217,1598.3511635965842,None,001,93,2019_Nov_05_1200,ACPT_experiment_5_30_19,3.1.0,59.955008840755866,
,,,C,G,g,v,L,U,g,R,u,,,,,5,19,119,13,3,0,3,0,,,,,1,5,41,23,,,,,,up,0.43366340339616727,1600.1858895953674,None,001,93,2019_Nov_05_1200,ACPT_experiment_5_30_19,3.1.0,59.955008840755866,
,,,C,G,g,v,R,U,g,L,u,,,,,5,19,119,13,3,0,3,0,,,,,1,6,42,10,,,,,,up,0.46701372119105145,1601.9038765020382,None,001,93,2019_Nov_05_1200,ACPT_experiment_5_30_19,3.1.0,59.955008840755866,
,,,C,G,g,v,R,G,d,L,i,,,,,5,19,119,13,3,0,3,0,,,,,1,7,43,4,,,,,,up,0.46679849747897606,1603.6720760364547,None,001,93,2019_Nov_05_1200,ACPT_experiment_5_30_19,3.1.0,59.955008840755866,
,,,C,G,g,v,L,G,g,R,c ,,,,,5,19,119,13,3,0,3,0,,,,,1,8,44,19,,,,,,up,0.450340373432482,1605.4232288265748,None,001,93,2019_Nov_05_1200,ACPT_experiment_5_30_19,3.1.0,59.955008840755866,
,,,C,G,g,v,R,D,g,R,i,,,,,5,19,119,13,3,0,3,0,,,,,1,9,45,3,,,,,,up,0.48369099308411023,1607.157902060835,None,001,93,2019_Nov_05_1200,ACPT_experiment_5_30_19,3.1.0,59.955008840755866,
,,,C,G,g,v,L,U,d,R,u,,,,,5,19,119,13,3,0,3,0,,,,,1,10,46,21,,,,,,up,0.517079646658658,1608.9258942198094,None,001,93,2019_Nov_05_1200,ACPT_experiment_5_30_19,3.1.0,59.955008840755866,
,,,C,G,g,v,R,G,g,L,c ,,,,,5,19,119,13,3,0,3,0,,,,,1,11,47,6,,,,,,up,0.6835930708225533,1610.7442354456853,None,001,93,2019_Nov_05_1200,ACPT_experiment_5_30_19,3.1.0,59.955008840755866,
,,,C,G,g,v,R,G,d,R,i,,,,,5,19,119,13,3,0,3,0,,,,,1,12,48,5,,,,,,up,0.6671907902359635,1612.6954448640922,None,001,93,2019_Nov_05_1200,ACPT_experiment_5_30_19,3.1.0,59.955008840755866,
,,,C,G,g,v,R,U,y,L,u,,,,,5,19,119,13,3,0,3,0,,,,,1,13,49,30,,,,,,down,0.7172099279405302,1614.646957044607,None,001,93,2019_Nov_05_1200,ACPT_experiment_5_30_19,3.1.0,59.955008840755866,
,,,C,G,g,v,R,D,d,R,c ,,,,,5,19,119,13,3,0,3,0,,,,,1,14,50,1,,,,,,up,0.4670774129203892,1616.6484648180167,None,001,93,2019_Nov_05_1200,ACPT_experiment_5_30_19,3.1.0,59.955008840755866,
,,,C,G,g,v,L,G,d,R,i,,,,,5,19,119,13,3,0,3,0,,,,,1,15,51,17,,,,,,up,0.5171179824392311,1618.3998044573345,None,001,93,2019_Nov_05_1200,ACPT_experiment_5_30_19,3.1.0,59.955008840755866,
,,,C,G,g,v,L,D,g,R,i,,,,,5,19,119,13,3,0,3,0,,,,,1,16,52,15,,,,,,up,0.45033101588023783,1620.2012202852425,None,001,93,2019_Nov_05_1200,ACPT_experiment_5_30_19,3.1.0,59.955008840755866,
,,,C,G,g,v,L,G,y,L,y,,,,,5,19,119,13,3,0,3,0,,,,,1,17,53,34,,,,,,down,0.7172298504724495,1621.9358476373086,None,001,93,2019_Nov_05_1200,ACPT_experiment_5_30_19,3.1.0,59.955008840755866,
,,,C,G,g,v,R,U,y,R,u,,,,,5,19,119,13,3,0,3,0,,,,,1,18,54,31,,,,,,down,0.8335828680719715,1623.9544534706256,None,001,93,2019_Nov_05_1200,ACPT_experiment_5_30_19,3.1.0,59.955008840755866,
,,,C,G,g,v,L,D,d,L,c ,,,,,5,19,119,13,3,0,3,0,,,,,1,19,55,12,,,,,,up,0.6004554411451863,1626.072365879103,None,001,93,2019_Nov_05_1200,ACPT_experiment_5_30_19,3.1.0,59.955008840755866,
,,,C,G,g,v,L,U,y,L,u,,,,,5,19,119,13,3,0,3,0,,,,,1,20,56,24,,,,,,down,0.9672066075190742,1627.973988720225,None,001,93,2019_Nov_05_1200,ACPT_experiment_5_30_19,3.1.0,59.955008840755866,
,,,C,G,g,v,L,G,d,L,i,,,,,5,19,119,13,3,0,3,0,,,,,1,21,57,16,,,,,,up,0.600454535575409,1630.2589029567453,None,001,93,2019_Nov_05_1200,ACPT_experiment_5_30_19,3.1.0,59.955008840755866,
,,,C,G,g,v,R,G,g,R,c ,,,,,5,19,119,13,3,0,3,0,,,,,1,22,58,7,,,,,,up,1.367737331684566,1632.143668015764,None,001,93,2019_Nov_05_1200,ACPT_experiment_5_30_19,3.1.0,59.955008840755866,
,,,C,G,g,v,R,G,y,R,y,,,,,5,19,119,13,3,0,3,0,,,,,1,23,59,29,,,,,,down,1.0341233723897858,1634.7957080226224,None,001,93,2019_Nov_05_1200,ACPT_experiment_5_30_19,3.1.0,59.955008840755866,
,,,C,G,g,v,R,U,d,L,u,,,,,5,19,119,13,3,0,3,0,,,,,1,24,60,8,,,,,,up,0.9674003994164195,1637.1141512760078,None,001,93,2019_Nov_05_1200,ACPT_experiment_5_30_19,3.1.0,59.955008840755866,
,,,C,G,g,v,R,D,y,L,y,,,,,5,19,119,13,3,0,3,0,,,,,1,25,61,26,,,,,,down,0.7338932369648319,1639.365871254564,None,001,93,2019_Nov_05_1200,ACPT_experiment_5_30_19,3.1.0,59.955008840755866,
,,,C,G,g,v,R,U,g,R,u,,,,,5,19,119,13,3,0,3,0,,,,,1,26,62,11,,,,,,up,0.9173568113324109,1641.3840910133686,None,001,93,2019_Nov_05_1200,ACPT_experiment_5_30_19,3.1.0,59.955008840755866,
,,,C,G,g,v,L,D,y,L,y,,,,,5,19,119,13,3,0,3,0,,,,,1,27,63,32,,,,,,down,0.9505112242331961,1643.6026260915132,None,001,93,2019_Nov_05_1200,ACPT_experiment_5_30_19,3.1.0,59.955008840755866,
,,,C,G,g,v,L,U,g,L,u,,,,,5,19,119,13,3,0,3,0,,,,,1,28,64,22,,,,,,up,0.750572923710024,1645.8541718988467,None,001,93,2019_Nov_05_1200,ACPT_experiment_5_30_19,3.1.0,59.955008840755866,
,,,C,G,g,v,L,D,d,R,c ,,,,,5,19,119,13,3,0,3,0,,,,,1,29,65,13,,,,,,up,0.5836365985360317,1647.8892114058303,None,001,93,2019_Nov_05_1200,ACPT_experiment_5_30_19,3.1.0,59.955008840755866,
,,,C,G,g,v,L,D,y,R,y,,,,,5,19,119,13,3,0,3,0,,,,,1,30,66,33,,,,,,down,0.6004675154067627,1649.757160640805,None,001,93,2019_Nov_05_1200,ACPT_experiment_5_30_19,3.1.0,59.955008840755866,
,,,C,G,g,v,L,U,d,L,u,,,,,5,19,119,13,3,0,3,0,,,,,1,31,67,20,,,,,,up,0.9006973489749726,1651.6419214738326,None,001,93,2019_Nov_05_1200,ACPT_experiment_5_30_19,3.1.0,59.955008840755866,
,,,C,G,g,v,R,D,d,L,c,,,,,5,19,119,13,3,0,3,0,,,,,1,32,68,0,,,,,,up,0.6672149387595709,1653.826939307517,None,001,93,2019_Nov_05_1200,ACPT_experiment_5_30_19,3.1.0,59.955008840755866,
,,,C,G,g,v,L,U,y,R,u,,,,,5,19,119,13,3,0,3,0,,,,,1,33,69,25,,,,,,down,0.6004617801327186,1655.778431263644,None,001,93,2019_Nov_05_1200,ACPT_experiment_5_30_19,3.1.0,59.955008840755866,
,,,C,G,g,v,L,D,g,L,i,,,,,5,19,119,13,3,0,3,0,,,,,1,34,70,14,,,,,,up,0.6004527244367637,1657.6632071894983,None,001,93,2019_Nov_05_1200,ACPT_experiment_5_30_19,3.1.0,59.955008840755866,
,,,C,G,g,v,R,D,y,R,y,,,,,5,19,119,13,3,0,3,0,,,,,1,35,71,27,,,,,,down,0.48326658279074763,1659.5650582341632,None,001,93,2019_Nov_05_1200,ACPT_experiment_5_30_19,3.1.0,59.955008840755866,
,,,C,G,g,v,,,,,,,,,,5,19,119,13,4,0,4,0,0,0,0,0,,,,,,,,,,,,,,001,93,2019_Nov_05_1200,ACPT_experiment_5_30_19,3.1.0,59.955008840755866,
,,,C,G,g,v,R,G,y,R,y,,,,,5,19,119,13,4,0,4,0,,,,,0,0,0,29,,,,,,down,0.6671678491393322,1662.7837985747542,None,001,93,2019_Nov_05_1200,ACPT_experiment_5_30_19,3.1.0,59.955008840755866,
,,,C,G,g,v,R,D,g,L,i,,,,,5,19,119,13,4,0,4,0,,,,,0,1,1,2,,,,,,up,0.6171339204643118,1664.7519635767826,None,001,93,2019_Nov_05_1200,ACPT_experiment_5_30_19,3.1.0,59.955008840755866,
,,,C,G,g,v,L,D,d,R,c ,,,,,5,19,119,13,4,0,4,0,,,,,0,2,2,13,,,,,,up,0.5971301895174292,1666.6734232221856,None,001,93,2019_Nov_05_1200,ACPT_experiment_5_30_19,3.1.0,59.955008840755866,
,,,C,G,g,v,L,G,g,R,c ,,,,,5,19,119,13,4,0,4,0,,,,,0,3,3,19,,,,,,up,0.4836837485268006,1668.55488808367,None,001,93,2019_Nov_05_1200,ACPT_experiment_5_30_19,3.1.0,59.955008840755866,
,,,C,G,g,v,L,U,g,L,u,,,,,5,19,119,13,4,0,4,0,,,,,0,4,4,22,,,,,,up,0.48370065249309846,1670.3228938261886,None,001,93,2019_Nov_05_1200,ACPT_experiment_5_30_19,3.1.0,59.955008840755866,
,,,C,G,g,v,L,D,g,R,i,,,,,5,19,119,13,4,0,4,0,,,,,0,5,5,15,,,,,,up,0.4503331288760819,1672.0909188875257,None,001,93,2019_Nov_05_1200,ACPT_experiment_5_30_19,3.1.0,59.955008840755866,
,,,C,G,g,v,R,U,g,L,u,,,,,5,19,119,13,4,0,4,0,,,,,0,6,6,10,,,,,,up,0.5668168503561901,1673.8425320088672,None,001,93,2019_Nov_05_1200,ACPT_experiment_5_30_19,3.1.0,59.955008840755866,
,,,C,G,g,v,L,U,y,L,u,,,,,5,19,119,13,4,0,4,0,,,,,0,7,7,24,,,,,,down,0.7005350709000595,1675.6936639105152,None,001,93,2019_Nov_05_1200,ACPT_experiment_5_30_19,3.1.0,59.955008840755866,
,,,C,G,g,v,L,U,d,L,u,,,,,5,19,119,13,4,0,4,0,,,,,0,8,8,20,,,,,,up,0.5671217254603107,1677.678497430597,None,001,93,2019_Nov_05_1200,ACPT_experiment_5_30_19,3.1.0,59.955008840755866,
,,,C,G,g,v,L,D,y,L,y,,,,,5,19,119,13,4,0,4,0,,,,,0,9,9,32,,,,,,down,0.6338114942141146,1679.529936924058,None,001,93,2019_Nov_05_1200,ACPT_experiment_5_30_19,3.1.0,59.955008840755866,
,,,C,G,g,v,L,U,d,R,u,,,,,5,19,119,13,4,0,4,0,,,,,0,10,10,21,,,,,,up,0.8006086635241445,1681.4480758456812,None,001,93,2019_Nov_05_1200,ACPT_experiment_5_30_19,3.1.0,59.955008840755866,
,,,C,G,g,v,L,G,y,L,y,,,,,5,19,119,13,4,0,4,0,,,,,0,11,11,34,,,,,,down,0.6171290907600451,1683.549680152812,None,001,93,2019_Nov_05_1200,ACPT_experiment_5_30_19,3.1.0,59.955008840755866,
,,,C,G,g,v,L,U,g,R,u,,,,,5,19,119,13,4,0,4,0,,,,,0,12,12,23,,,,,,up,0.4169773776634429,1685.4678133391612,None,001,93,2019_Nov_05_1200,ACPT_experiment_5_30_19,3.1.0,59.955008840755866,
,,,C,G,g,v,R,D,d,R,c ,,,,,5,19,119,13,4,0,4,0,,,,,0,13,13,1,,,,,,up,0.5669155574441902,1687.2026184847286,None,001,93,2019_Nov_05_1200,ACPT_experiment_5_30_19,3.1.0,59.955008840755866,
,,,C,G,g,v,R,D,d,L,c,,,,,5,19,119,13,4,0,4,0,,,,,0,14,14,0,,,,,,up,0.7172066075186194,1689.0538970886541,None,001,93,2019_Nov_05_1200,ACPT_experiment_5_30_19,3.1.0,59.955008840755866,
,,,C,G,g,v,R,D,y,L,y,,,,,5,19,119,13,4,0,4,0,,,,,0,15,15,26,,,,,,down,0.7339083297915749,1691.0554018434982,None,001,93,2019_Nov_05_1200,ACPT_experiment_5_30_19,3.1.0,59.955008840755866,
,,,C,G,g,v,L,D,d,L,c ,,,,,5,19,119,13,4,0,4,0,,,,,0,16,16,12,,,,,,up,0.5504212106134219,1693.0903139670227,None,001,93,2019_Nov_05_1200,ACPT_experiment_5_30_19,3.1.0,59.955008840755866,
,,,C,G,g,v,R,G,d,R,i,,,,,5,19,119,13,4,0,4,0,,,,,0,17,17,5,,,,,,up,0.7806046307209726,1694.9450584877227,None,001,93,2019_Nov_05_1200,ACPT_experiment_5_30_19,3.1.0,59.955008840755866,
,,,C,G,g,v,L,G,d,R,i,,,,,5,19,119,13,4,0,4,0,,,,,0,18,18,17,,,,,,up,0.9173999768177055,1697.0099654917603,None,001,93,2019_Nov_05_1200,ACPT_experiment_5_30_19,3.1.0,59.955008840755866,
,,,C,G,g,v,R,U,y,R,u,,,,,5,19,119,13,4,0,4,0,,,,,0,19,19,31,,,,,,down,0.6004741562505842,1699.211663615903,None,001,93,2019_Nov_05_1200,ACPT_experiment_5_30_19,3.1.0,59.955008840755866,
,,,C,G,g,v,L,D,g,L,i,,,,,5,19,119,13,4,0,4,0,,,,,0,20,20,14,,,,,,up,0.8339659240191395,1701.0964416547536,None,001,93,2019_Nov_05_1200,ACPT_experiment_5_30_19,3.1.0,59.955008840755866,
,,,C,G,g,v,R,U,d,L,u,,,,,5,19,119,13,4,0,4,0,,,,,0,21,21,8,,,,,,up,0.8006041356761671,1703.2147280634817,None,001,93,2019_Nov_05_1200,ACPT_experiment_5_30_19,3.1.0,59.955008840755866,
,,,C,G,g,v,L,G,g,L,c ,,,,,5,19,119,13,4,0,4,0,,,,,0,22,22,18,,,,,,up,0.6004596671368745,1705.299653891293,None,001,93,2019_Nov_05_1200,ACPT_experiment_5_30_19,3.1.0,59.955008840755866,
,,,C,G,g,v,L,U,y,R,u,,,,,5,19,119,13,4,0,4,0,,,,,0,23,23,25,,,,,,down,0.6171411650216214,1707.1844258930123,None,001,93,2019_Nov_05_1200,ACPT_experiment_5_30_19,3.1.0,59.955008840755866,
,,,C,G,g,v,R,D,g,R,i,,,,,5,19,119,13,4,0,4,0,,,,,0,24,24,3,,,,,,up,0.6671759992659645,1709.085886335317,None,001,93,2019_Nov_05_1200,ACPT_experiment_5_30_19,3.1.0,59.955008840755866,
,,,C,G,g,v,R,G,g,L,c ,,,,,5,19,119,13,4,0,4,0,,,,,0,25,25,6,,,,,,up,0.7839295804919857,1711.037378895157,None,001,93,2019_Nov_05_1200,ACPT_experiment_5_30_19,3.1.0,59.955008840755866,
,,,C,G,g,v,R,G,d,L,i,,,,,5,19,119,13,4,0,4,0,,,,,0,26,26,4,,,,,,up,0.5170835707936021,1713.0889263325157,None,001,93,2019_Nov_05_1200,ACPT_experiment_5_30_19,3.1.0,59.955008840755866,
,,,C,G,g,v,L,G,d,L,i,,,,,5,19,119,13,4,0,4,0,,,,,0,27,27,16,,,,,,up,0.5004029784790873,1714.8736286657459,None,001,93,2019_Nov_05_1200,ACPT_experiment_5_30_19,3.1.0,59.955008840755866,
,,,C,G,g,v,R,G,g,R,c ,,,,,5,19,119,13,4,0,4,0,,,,,0,28,28,7,,,,,,up,0.7172102297972742,1716.6583515252205,None,001,93,2019_Nov_05_1200,ACPT_experiment_5_30_19,3.1.0,59.955008840755866,
,,,C,G,g,v,R,G,y,L,y,,,,,5,19,119,13,4,0,4,0,,,,,0,29,29,28,,,,,,down,0.7005392968917477,1718.6598771081663,None,001,93,2019_Nov_05_1200,ACPT_experiment_5_30_19,3.1.0,59.955008840755866,
,,,C,G,g,v,R,D,y,R,y,,,,,5,19,119,13,4,0,4,0,,,,,0,30,30,27,,,,,,down,0.6171318074684677,1720.6447347767712,None,001,93,2019_Nov_05_1200,ACPT_experiment_5_30_19,3.1.0,59.955008840755866,
,,,C,G,g,v,L,G,y,R,y,,,,,5,19,119,13,4,0,4,0,,,,,0,31,31,35,,,,,,down,0.6004771748157509,1722.5461882763752,None,001,93,2019_Nov_05_1200,ACPT_experiment_5_30_19,3.1.0,59.955008840755866,
,,,C,G,g,v,R,U,y,L,u,,,,,5,19,119,13,4,0,4,0,,,,,0,32,32,30,,,,,,down,0.7005341653302821,1724.4476399648397,None,001,93,2019_Nov_05_1200,ACPT_experiment_5_30_19,3.1.0,59.955008840755866,
,,,C,G,g,v,R,U,g,R,u,,,,,5,19,119,13,4,0,4,0,,,,,0,33,33,11,,,,,,up,0.5136200688716599,1726.4693075290265,None,001,93,2019_Nov_05_1200,ACPT_experiment_5_30_19,3.1.0,59.955008840755866,
,,,C,G,g,v,L,D,y,R,y,,,,,5,19,119,13,4,0,4,0,,,,,0,34,34,33,,,,,,down,0.5504411331453412,1728.2672052189787,None,001,93,2019_Nov_05_1200,ACPT_experiment_5_30_19,3.1.0,59.955008840755866,
,,,C,G,g,v,R,U,d,R,u,,,,,5,19,119,13,4,0,4,0,,,,,0,35,35,9,,,,,,up,0.5170576111313494,1730.1019653275507,None,001,93,2019_Nov_05_1200,ACPT_experiment_5_30_19,3.1.0,59.955008840755866,
,,,C,G,g,v,L,G,d,L,i,,,,,5,19,119,13,4,0,4,0,,,,,1,0,36,16,,,,,,up,0.734115101520274,1731.9033443289609,None,001,93,2019_Nov_05_1200,ACPT_experiment_5_30_19,3.1.0,59.955008840755866,
,,,C,G,g,v,L,U,d,L,u,,,,,5,19,119,13,4,0,4,0,,,,,1,1,37,20,,,,,,up,0.5003773206731239,1733.921558956204,None,001,93,2019_Nov_05_1200,ACPT_experiment_5_30_19,3.1.0,59.955008840755866,
,,,C,G,g,v,R,G,d,L,i,,,,,5,19,119,13,4,0,4,0,,,,,1,2,38,4,,,,,,up,0.46704752912319236,1735.689549605896,None,001,93,2019_Nov_05_1200,ACPT_experiment_5_30_19,3.1.0,59.955008840755866,
,,,C,G,g,v,R,U,g,L,u,,,,,5,19,119,13,4,0,4,0,,,,,1,3,39,10,,,,,,up,0.5002683504626475,1737.4409115825974,None,001,93,2019_Nov_05_1200,ACPT_experiment_5_30_19,3.1.0,59.955008840755866,
,,,C,G,g,v,L,G,d,R,i,,,,,5,19,119,13,4,0,4,0,,,,,1,4,40,17,,,,,,up,0.583505894654536,1739.2425658771708,None,001,93,2019_Nov_05_1200,ACPT_experiment_5_30_19,3.1.0,59.955008840755866,
,,,C,G,g,v,L,U,g,R,u,,,,,5,19,119,13,4,0,4,0,,,,,1,5,41,23,,,,,,up,0.6004620819894626,1741.1103928602479,None,001,93,2019_Nov_05_1200,ACPT_experiment_5_30_19,3.1.0,59.955008840755866,
,,,C,G,g,v,L,D,g,L,i,,,,,5,19,119,13,4,0,4,0,,,,,1,6,42,14,,,,,,up,0.5337237143326092,1742.995174823233,None,001,93,2019_Nov_05_1200,ACPT_experiment_5_30_19,3.1.0,59.955008840755866,
,,,C,G,g,v,R,U,g,R,u,,,,,5,19,119,13,4,0,4,0,,,,,1,7,43,11,,,,,,up,0.4336724590925769,1744.8132217389834,None,001,93,2019_Nov_05_1200,ACPT_experiment_5_30_19,3.1.0,59.955008840755866,
,,,C,G,g,v,R,D,y,L,y,,,,,5,19,119,13,4,0,4,0,,,,,1,8,44,26,,,,,,down,0.700518770646795,1746.5645737544191,None,001,93,2019_Nov_05_1200,ACPT_experiment_5_30_19,3.1.0,59.955008840755866,
,,,C,G,g,v,R,U,d,R,u,,,,,5,19,119,13,4,0,4,0,,,,,1,9,45,9,,,,,,up,0.7505865072539564,1748.5660990355082,None,001,93,2019_Nov_05_1200,ACPT_experiment_5_30_19,3.1.0,59.955008840755866,
,,,C,G,g,v,L,G,g,L,c ,,,,,5,19,119,13,4,0,4,0,,,,,1,10,46,18,,,,,,up,0.7672649865735366,1750.6009845956573,None,001,93,2019_Nov_05_1200,ACPT_experiment_5_30_19,3.1.0,59.955008840755866,
,,,C,G,g,v,R,U,y,R,u,,,,,5,19,119,13,4,0,4,0,,,,,1,11,47,31,,,,,,down,0.767244762185328,1752.6692361701407,None,001,93,2019_Nov_05_1200,ACPT_experiment_5_30_19,3.1.0,59.955008840755866,
,,,C,G,g,v,L,D,d,R,c ,,,,,5,19,119,13,4,0,4,0,,,,,1,12,48,13,,,,,,up,0.6171396557383559,1754.7374853297724,None,001,93,2019_Nov_05_1200,ACPT_experiment_5_30_19,3.1.0,59.955008840755866,
,,,C,G,g,v,L,U,y,L,u,,,,,5,19,119,13,4,0,4,0,,,,,1,13,49,24,,,,,,down,0.6338208517668136,1756.6389333959587,None,001,93,2019_Nov_05_1200,ACPT_experiment_5_30_19,3.1.0,59.955008840755866,
,,,C,G,g,v,L,U,d,R,u,,,,,5,19,119,13,4,0,4,0,,,,,1,14,50,21,,,,,,up,0.5670900305235591,1758.5570747324346,None,001,93,2019_Nov_05_1200,ACPT_experiment_5_30_19,3.1.0,59.955008840755866,
,,,C,G,g,v,L,G,y,L,y,,,,,5,19,119,13,4,0,4,0,,,,,1,15,51,34,,,,,,down,0.7005257133473606,1760.4251794235265,None,001,93,2019_Nov_05_1200,ACPT_experiment_5_30_19,3.1.0,59.955008840755866,
,,,C,G,g,v,R,D,d,L,c,,,,,5,19,119,13,4,0,4,0,,,,,1,16,52,0,,,,,,up,0.6338130034969254,1762.4100244141569,None,001,93,2019_Nov_05_1200,ACPT_experiment_5_30_19,3.1.0,59.955008840755866,
,,,C,G,g,v,R,D,d,R,c ,,,,,5,19,119,13,4,0,4,0,,,,,1,17,53,1,,,,,,up,0.5004066007572874,1764.3281316408438,None,001,93,2019_Nov_05_1200,ACPT_experiment_5_30_19,3.1.0,59.955008840755866,
,,,C,G,g,v,L,D,g,R,i,,,,,5,19,119,13,4,0,4,0,,,,,1,18,54,15,,,,,,up,0.5670939546585032,1766.112856915171,None,001,93,2019_Nov_05_1200,ACPT_experiment_5_30_19,3.1.0,59.955008840755866,
,,,C,G,g,v,R,D,g,L,i,,,,,5,19,119,13,4,0,4,0,,,,,1,19,55,2,,,,,,up,0.5837682079863953,1767.9476055531945,None,001,93,2019_Nov_05_1200,ACPT_experiment_5_30_19,3.1.0,59.955008840755866,
,,,C,G,g,v,L,D,d,L,c ,,,,,5,19,119,13,4,0,4,0,,,,,1,20,56,12,,,,,,up,0.45034550499394754,1769.8156845864805,None,001,93,2019_Nov_05_1200,ACPT_experiment_5_30_19,3.1.0,59.955008840755866,
,,,C,G,g,v,R,U,y,L,u,,,,,5,19,119,13,4,0,4,0,,,,,1,21,57,30,,,,,,down,0.6503954924369282,1771.5504519999809,None,001,93,2019_Nov_05_1200,ACPT_experiment_5_30_19,3.1.0,59.955008840755866,
,,,C,G,g,v,L,G,g,R,c ,,,,,5,19,119,13,4,0,4,0,,,,,1,22,58,19,,,,,,up,0.5970064283369538,1773.5219694207253,None,001,93,2019_Nov_05_1200,ACPT_experiment_5_30_19,3.1.0,59.955008840755866,
,,,C,G,g,v,L,D,y,L,y,,,,,5,19,119,13,4,0,4,0,,,,,1,23,59,32,,,,,,down,0.6171505225743203,1775.419956701698,None,001,93,2019_Nov_05_1200,ACPT_experiment_5_30_19,3.1.0,59.955008840755866,
,,,C,G,g,v,R,G,y,L,y,,,,,5,19,119,13,4,0,4,0,,,,,1,24,60,28,,,,,,down,0.5837709246952727,1777.3381161495663,None,001,93,2019_Nov_05_1200,ACPT_experiment_5_30_19,3.1.0,59.955008840755866,
,,,C,G,g,v,R,G,g,L,c ,,,,,5,19,119,13,4,0,4,0,,,,,1,25,61,6,,,,,,up,0.7505768478449681,1779.206202729266,None,001,93,2019_Nov_05_1200,ACPT_experiment_5_30_19,3.1.0,59.955008840755866,
,,,C,G,g,v,R,D,g,R,i,,,,,5,19,119,13,4,0,4,0,,,,,1,26,62,3,,,,,,up,0.5170561018485387,1781.2410973451115,None,001,93,2019_Nov_05_1200,ACPT_experiment_5_30_19,3.1.0,59.955008840755866,
,,,C,G,g,v,L,G,y,R,y,,,,,5,19,119,13,4,0,4,0,,,,,1,27,63,35,,,,,,down,0.6002701012307625,1783.0593078671059,None,001,93,2019_Nov_05_1200,ACPT_experiment_5_30_19,3.1.0,59.955008840755866,
,,,C,G,g,v,R,G,y,R,y,,,,,5,19,119,13,4,0,4,0,,,,,1,28,64,29,,,,,,down,0.4836915967966888,1784.9606222108455,None,001,93,2019_Nov_05_1200,ACPT_experiment_5_30_19,3.1.0,59.955008840755866,
,,,C,G,g,v,L,U,y,R,u,,,,,5,19,119,13,4,0,4,0,,,,,1,29,65,25,,,,,,down,0.46677766937773413,1786.7455551624712,None,001,93,2019_Nov_05_1200,ACPT_experiment_5_30_19,3.1.0,59.955008840755866,
,,,C,G,g,v,R,G,d,R,i,,,,,5,19,119,13,4,0,4,0,,,,,1,30,66,5,,,,,,up,0.5671036140679462,1788.496647581284,None,001,93,2019_Nov_05_1200,ACPT_experiment_5_30_19,3.1.0,59.955008840755866,
,,,C,G,g,v,L,D,y,R,y,,,,,5,19,119,13,4,0,4,0,,,,,1,31,67,33,,,,,,down,0.5837953750747147,1790.3480445129726,None,001,93,2019_Nov_05_1200,ACPT_experiment_5_30_19,3.1.0,59.955008840755866,
,,,C,G,g,v,L,U,g,L,u,,,,,5,19,119,13,4,0,4,0,,,,,1,32,68,22,,,,,,up,0.8339927892507148,1792.21613652609,None,001,93,2019_Nov_05_1200,ACPT_experiment_5_30_19,3.1.0,59.955008840755866,
,,,C,G,g,v,R,U,d,L,u,,,,,5,19,119,13,4,0,4,0,,,,,1,33,69,8,,,,,,up,0.9838168672604297,1794.3513987428278,None,001,93,2019_Nov_05_1200,ACPT_experiment_5_30_19,3.1.0,59.955008840755866,
,,,C,G,g,v,R,D,y,R,y,,,,,5,19,119,13,4,0,4,0,,,,,1,34,70,27,,,,,,down,0.6004647986978853,1796.619527944671,None,001,93,2019_Nov_05_1200,ACPT_experiment_5_30_19,3.1.0,59.955008840755866,
,,,C,G,g,v,R,G,g,R,c ,,,,,5,19,119,13,4,0,4,0,,,,,1,35,71,7,,,,,,up,0.6838390839016029,1798.504321680061,None,001,93,2019_Nov_05_1200,ACPT_experiment_5_30_19,3.1.0,59.955008840755866,
,,,C,G,g,v,,,,,,,,,,5,19,119,13,5,0,5,0,0,0,0,0,,,,,,,,,,,,,,001,93,2019_Nov_05_1200,ACPT_experiment_5_30_19,3.1.0,59.955008840755866,
,,,C,G,g,v,L,U,d,L,u,,,,,5,19,119,13,5,0,5,0,,,,,0,0,0,20,,,,,,up,0.5334641177096273,1802.324166151498,None,001,93,2019_Nov_05_1200,ACPT_experiment_5_30_19,3.1.0,59.955008840755866,
,,,C,G,g,v,R,U,g,L,u,,,,,5,19,119,13,5,0,5,0,,,,,0,1,1,10,,,,,,up,0.5670836915364816,1804.1419685634528,None,001,93,2019_Nov_05_1200,ACPT_experiment_5_30_19,3.1.0,59.955008840755866,
,,,C,G,g,v,R,G,d,R,i,,,,,5,19,119,13,5,0,5,0,,,,,0,2,2,5,,,,,,up,0.4836918986534329,1805.9933799842552,None,001,93,2019_Nov_05_1200,ACPT_experiment_5_30_19,3.1.0,59.955008840755866,
,,,C,G,g,v,L,D,d,L,c ,,,,,5,19,119,13,5,0,5,0,,,,,0,3,3,12,,,,,,up,0.4170338248363805,1807.761368822808,None,001,93,2019_Nov_05_1200,ACPT_experiment_5_30_19,3.1.0,59.955008840755866,
,,,C,G,g,v,L,G,y,L,y,,,,,5,19,119,13,5,0,5,0,,,,,0,4,4,34,,,,,,down,0.6671515488860678,1809.4793937634026,None,001,93,2019_Nov_05_1200,ACPT_experiment_5_30_19,3.1.0,59.955008840755866,
,,,C,G,g,v,L,U,g,R,u,,,,,5,19,119,13,5,0,5,0,,,,,0,5,5,23,,,,,,up,0.5504299644535422,1811.430864287715,None,001,93,2019_Nov_05_1200,ACPT_experiment_5_30_19,3.1.0,59.955008840755866,
,,,C,G,g,v,L,G,g,R,c ,,,,,5,19,119,13,5,0,5,0,,,,,0,6,6,19,,,,,,up,0.5671018029288462,1813.2655999459075,None,001,93,2019_Nov_05_1200,ACPT_experiment_5_30_19,3.1.0,59.955008840755866,
,,,C,G,g,v,R,G,d,L,i,,,,,5,19,119,13,5,0,5,0,,,,,0,7,7,4,,,,,,up,0.8172916706917022,1815.117013781562,None,001,93,2019_Nov_05_1200,ACPT_experiment_5_30_19,3.1.0,59.955008840755866,
,,,C,G,g,v,L,G,y,R,y,,,,,5,19,119,13,5,0,5,0,,,,,0,8,8,35,,,,,,down,0.6838722881211652,1817.2186075237137,None,001,93,2019_Nov_05_1200,ACPT_experiment_5_30_19,3.1.0,59.955008840755866,
,,,C,G,g,v,R,D,y,R,y,,,,,5,19,119,13,5,0,5,0,,,,,0,9,9,27,,,,,,down,0.5337309588894641,1819.1868042206788,None,001,93,2019_Nov_05_1200,ACPT_experiment_5_30_19,3.1.0,59.955008840755866,
,,,C,G,g,v,L,G,g,L,c ,,,,,5,19,119,13,5,0,5,0,,,,,0,10,10,18,,,,,,up,0.5504067214997121,1821.0048617014081,None,001,93,2019_Nov_05_1200,ACPT_experiment_5_30_19,3.1.0,59.955008840755866,
,,,C,G,g,v,R,G,g,R,c ,,,,,5,19,119,13,5,0,5,0,,,,,0,11,11,7,,,,,,up,0.6004512151534982,1822.839592529896,None,001,93,2019_Nov_05_1200,ACPT_experiment_5_30_19,3.1.0,59.955008840755866,
,,,C,G,g,v,R,U,y,L,u,,,,,5,19,119,13,5,0,5,0,,,,,0,12,12,30,,,,,,down,0.7172244170546946,1824.724368757607,None,001,93,2019_Nov_05_1200,ACPT_experiment_5_30_19,3.1.0,59.955008840755866,
,,,C,G,g,v,R,U,g,R,u,,,,,5,19,119,13,5,0,5,0,,,,,0,13,13,11,,,,,,up,0.6171396557388107,1826.7092173705155,None,001,93,2019_Nov_05_1200,ACPT_experiment_5_30_19,3.1.0,59.955008840755866,
,,,C,G,g,v,R,G,y,R,y,,,,,5,19,119,13,5,0,5,0,,,,,0,14,14,29,,,,,,down,0.5503430297703744,1828.6607663775285,None,001,93,2019_Nov_05_1200,ACPT_experiment_5_30_19,3.1.0,59.955008840755866,
,,,C,G,g,v,L,D,y,R,y,,,,,5,19,119,13,5,0,5,0,,,,,0,15,15,33,,,,,,down,0.5170582148443827,1830.5288073768907,None,001,93,2019_Nov_05_1200,ACPT_experiment_5_30_19,3.1.0,59.955008840755866,
,,,C,G,g,v,R,G,g,L,c ,,,,,5,19,119,13,5,0,5,0,,,,,0,16,16,6,,,,,,up,0.7005305430520821,1832.3301915098623,None,001,93,2019_Nov_05_1200,ACPT_experiment_5_30_19,3.1.0,59.955008840755866,
,,,C,G,g,v,L,G,d,L,i,,,,,5,19,119,13,5,0,5,0,,,,,0,17,17,16,,,,,,up,0.5170841745066355,1834.3150174835305,None,001,93,2019_Nov_05_1200,ACPT_experiment_5_30_19,3.1.0,59.955008840755866,
,,,C,G,g,v,R,D,d,L,c,,,,,5,19,119,13,5,0,5,0,,,,,0,18,18,0,,,,,,up,1.1508745387632189,1836.1164212371773,None,001,93,2019_Nov_05_1200,ACPT_experiment_5_30_19,3.1.0,59.955008840755866,
,,,C,G,g,v,R,U,d,L,u,,,,,5,19,119,13,5,0,5,0,,,,,0,19,19,8,,,,,,up,0.9674121718217066,1838.5516111290885,None,001,93,2019_Nov_05_1200,ACPT_experiment_5_30_19,3.1.0,59.955008840755866,
,,,C,G,g,v,R,D,g,R,i,,,,,5,19,119,13,5,0,5,0,,,,,0,20,20,3,,,,,,up,0.6171339204643118,1840.803340465197,None,001,93,2019_Nov_05_1200,ACPT_experiment_5_30_19,3.1.0,59.955008840755866,
,,,C,G,g,v,R,D,d,R,c ,,,,,5,19,119,13,5,0,5,0,,,,,0,21,21,1,,,,,,up,0.6004717413984508,1842.7047897388097,None,001,93,2019_Nov_05_1200,ACPT_experiment_5_30_19,3.1.0,59.955008840755866,
,,,C,G,g,v,L,D,y,L,y,,,,,5,19,119,13,5,0,5,0,,,,,0,22,22,32,,,,,,down,0.6672007515016958,1844.5895445347064,None,001,93,2019_Nov_05_1200,ACPT_experiment_5_30_19,3.1.0,59.955008840755866,
,,,C,G,g,v,L,D,d,R,c ,,,,,5,19,119,13,5,0,5,0,,,,,0,23,23,13,,,,,,up,0.5670981806501914,1846.541064563491,None,001,93,2019_Nov_05_1200,ACPT_experiment_5_30_19,3.1.0,59.955008840755866,
,,,C,G,g,v,L,D,g,R,i,,,,,5,19,119,13,5,0,5,0,,,,,0,24,24,15,,,,,,up,0.6838574971502567,1848.375802938392,None,001,93,2019_Nov_05_1200,ACPT_experiment_5_30_19,3.1.0,59.955008840755866,
,,,C,G,g,v,R,D,g,L,i,,,,,5,19,119,13,5,0,5,0,,,,,0,25,25,2,,,,,,up,0.767280683113313,1850.3272882536753,None,001,93,2019_Nov_05_1200,ACPT_experiment_5_30_19,3.1.0,59.955008840755866,
,,,C,G,g,v,R,D,y,L,y,,,,,5,19,119,13,5,0,5,0,,,,,0,26,26,26,,,,,,down,0.6671980347932731,1852.362159626567,None,001,93,2019_Nov_05_1200,ACPT_experiment_5_30_19,3.1.0,59.955008840755866,
,,,C,G,g,v,L,D,g,L,i,,,,,5,19,119,13,5,0,5,0,,,,,0,27,27,14,,,,,,up,0.5003791318122239,1854.3136745237912,None,001,93,2019_Nov_05_1200,ACPT_experiment_5_30_19,3.1.0,59.955008840755866,
,,,C,G,g,v,R,U,d,R,u,,,,,5,19,119,13,5,0,5,0,,,,,0,28,28,9,,,,,,up,0.5837799803912276,1856.0983714236036,None,001,93,2019_Nov_05_1200,ACPT_experiment_5_30_19,3.1.0,59.955008840755866,
,,,C,G,g,v,L,U,y,R,u,,,,,5,19,119,13,5,0,5,0,,,,,0,29,29,25,,,,,,down,0.5837799803912276,1857.9664664552865,None,001,93,2019_Nov_05_1200,ACPT_experiment_5_30_19,3.1.0,59.955008840755866,
,,,C,G,g,v,L,U,g,L,u,,,,,5,19,119,13,5,0,5,0,,,,,0,30,30,22,,,,,,up,0.5334629102835606,1859.851520089156,None,001,93,2019_Nov_05_1200,ACPT_experiment_5_30_19,3.1.0,59.955008840755866,
,,,C,G,g,v,L,U,d,R,u,,,,,5,19,119,13,5,0,5,0,,,,,0,31,31,21,,,,,,up,0.4837208768808523,1861.669283863474,None,001,93,2019_Nov_05_1200,ACPT_experiment_5_30_19,3.1.0,59.955008840755866,
,,,C,G,g,v,L,G,d,R,i,,,,,5,19,119,13,5,0,5,0,,,,,0,32,32,17,,,,,,up,0.7172376987423377,1863.4373234139248,None,001,93,2019_Nov_05_1200,ACPT_experiment_5_30_19,3.1.0,59.955008840755866,
,,,C,G,g,v,R,G,y,L,y,,,,,5,19,119,13,5,0,5,0,,,,,0,33,33,28,,,,,,down,0.6338211536231029,1865.438851109866,None,001,93,2019_Nov_05_1200,ACPT_experiment_5_30_19,3.1.0,59.955008840755866,
,,,C,G,g,v,R,U,y,R,u,,,,,5,19,119,13,5,0,5,0,,,,,0,34,34,31,,,,,,down,0.6171758785235397,1867.3569891259199,None,001,93,2019_Nov_05_1200,ACPT_experiment_5_30_19,3.1.0,59.955008840755866,
,,,C,G,g,v,L,U,y,L,u,,,,,5,19,119,13,5,0,5,0,,,,,0,35,35,24,,,,,,down,0.48371725460265225,1869.25843598468,None,001,93,2019_Nov_05_1200,ACPT_experiment_5_30_19,3.1.0,59.955008840755866,
,,,C,G,g,v,R,D,y,R,y,,,,,5,19,119,13,5,0,5,0,,,,,1,0,36,27,,,,,,down,0.4668507186597708,1871.0432829071924,None,001,93,2019_Nov_05_1200,ACPT_experiment_5_30_19,3.1.0,59.955008840755866,
,,,C,G,g,v,L,D,d,L,c ,,,,,5,19,119,13,5,0,5,0,,,,,1,1,37,12,,,,,,up,0.48370759519320927,1872.8278536309717,None,001,93,2019_Nov_05_1200,ACPT_experiment_5_30_19,3.1.0,59.955008840755866,
,,,C,G,g,v,R,U,g,R,u,,,,,5,19,119,13,5,0,5,0,,,,,1,2,38,11,,,,,,up,0.5671045196372688,1874.595857864208,None,001,93,2019_Nov_05_1200,ACPT_experiment_5_30_19,3.1.0,59.955008840755866,
,,,C,G,g,v,L,U,d,R,u,,,,,5,19,119,13,5,0,5,0,,,,,1,3,39,21,,,,,,up,0.4837024636321985,1876.447275623998,None,001,93,2019_Nov_05_1200,ACPT_experiment_5_30_19,3.1.0,59.955008840755866,
,,,C,G,g,v,L,G,d,L,i,,,,,5,19,119,13,5,0,5,0,,,,,1,4,40,16,,,,,,up,0.6839214907367932,1878.215305816896,None,001,93,2019_Nov_05_1200,ACPT_experiment_5_30_19,3.1.0,59.955008840755866,
,,,C,G,g,v,L,D,g,L,i,,,,,5,19,119,13,5,0,5,0,,,,,1,5,41,14,,,,,,up,0.9173646596022991,1880.183470818925,None,001,93,2019_Nov_05_1200,ACPT_experiment_5_30_19,3.1.0,59.955008840755866,
,,,C,G,g,v,L,G,g,R,c ,,,,,5,19,119,13,5,0,5,0,,,,,1,6,42,19,,,,,,up,0.6005058511873358,1882.3851269850088,None,001,93,2019_Nov_05_1200,ACPT_experiment_5_30_19,3.1.0,59.955008840755866,
,,,C,G,g,v,R,D,y,L,y,,,,,5,19,119,13,5,0,5,0,,,,,1,7,43,26,,,,,,down,0.6505207628997596,1884.2699258519597,None,001,93,2019_Nov_05_1200,ACPT_experiment_5_30_19,3.1.0,59.955008840755866,
,,,C,G,g,v,R,G,d,R,i,,,,,5,19,119,13,5,0,5,0,,,,,1,8,44,5,,,,,,up,0.8173046505226012,1886.204745064042,None,001,93,2019_Nov_05_1200,ACPT_experiment_5_30_19,3.1.0,59.955008840755866,
,,,C,G,g,v,R,G,g,R,c ,,,,,5,19,119,13,5,0,5,0,,,,,1,9,45,7,,,,,,up,0.5837860175220158,1888.2896633454397,None,001,93,2019_Nov_05_1200,ACPT_experiment_5_30_19,3.1.0,59.955008840755866,
,,,C,G,g,v,L,U,y,R,u,,,,,5,19,119,13,5,0,5,0,,,,,1,10,46,25,,,,,,down,0.5670984825069354,1890.1577665272494,None,001,93,2019_Nov_05_1200,ACPT_experiment_5_30_19,3.1.0,59.955008840755866,
,,,C,G,g,v,R,G,d,L,i,,,,,5,19,119,13,5,0,5,0,,,,,1,11,47,4,,,,,,up,0.5837510021633534,1892.00920511514,None,001,93,2019_Nov_05_1200,ACPT_experiment_5_30_19,3.1.0,59.955008840755866,
,,,C,G,g,v,L,D,g,R,i,,,,,5,19,119,13,5,0,5,0,,,,,1,12,48,15,,,,,,up,0.5003670575506476,1893.8939734945811,None,001,93,2019_Nov_05_1200,ACPT_experiment_5_30_19,3.1.0,59.955008840755866,
,,,C,G,g,v,R,G,y,L,y,,,,,5,19,119,13,5,0,5,0,,,,,1,13,49,28,,,,,,down,0.6671615101522548,1895.6786709981066,None,001,93,2019_Nov_05_1200,ACPT_experiment_5_30_19,3.1.0,59.955008840755866,
,,,C,G,g,v,L,U,d,L,u,,,,,5,19,119,13,5,0,5,0,,,,,1,14,50,20,,,,,,up,0.5837836026698824,1897.6301481632631,None,001,93,2019_Nov_05_1200,ACPT_experiment_5_30_19,3.1.0,59.955008840755866,
,,,C,G,g,v,R,D,g,R,i,,,,,5,19,119,13,5,0,5,0,,,,,1,15,51,3,,,,,,up,0.5003836596606561,1899.498245307942,None,001,93,2019_Nov_05_1200,ACPT_experiment_5_30_19,3.1.0,59.955008840755866,
,,,C,G,g,v,L,U,y,L,u,,,,,5,19,119,13,5,0,5,0,,,,,1,16,52,24,,,,,,down,0.5671081419163784,1901.2829422077548,None,001,93,2019_Nov_05_1200,ACPT_experiment_5_30_19,3.1.0,59.955008840755866,
,,,C,G,g,v,L,D,d,R,c ,,,,,5,19,119,13,5,0,5,0,,,,,1,17,53,13,,,,,,up,0.5504145697696003,1903.1343657028187,None,001,93,2019_Nov_05_1200,ACPT_experiment_5_30_19,3.1.0,59.955008840755866,
,,,C,G,g,v,R,U,g,L,u,,,,,5,19,119,13,5,0,5,0,,,,,1,18,54,10,,,,,,up,0.5671024066418795,1904.9691001535848,None,001,93,2019_Nov_05_1200,ACPT_experiment_5_30_19,3.1.0,59.955008840755866,
,,,C,G,g,v,R,D,d,R,c ,,,,,5,19,119,13,5,0,5,0,,,,,1,19,55,1,,,,,,up,0.6838276133530599,1906.837205146533,None,001,93,2019_Nov_05_1200,ACPT_experiment_5_30_19,3.1.0,59.955008840755866,
,,,C,G,g,v,L,D,y,L,y,,,,,5,19,119,13,5,0,5,0,,,,,1,20,56,32,,,,,,down,0.650495406950995,1908.8053677337093,None,001,93,2019_Nov_05_1200,ACPT_experiment_5_30_19,3.1.0,59.955008840755866,
,,,C,G,g,v,R,U,y,R,u,,,,,5,19,119,13,5,0,5,0,,,,,1,21,57,31,,,,,,down,1.0341263909549525,1910.7401851346522,None,001,93,2019_Nov_05_1200,ACPT_experiment_5_30_19,3.1.0,59.955008840755866,
,,,C,G,g,v,L,G,g,L,c ,,,,,5,19,119,13,5,0,5,0,,,,,1,22,58,18,,,,,,up,0.6671787159748419,1913.0586241620463,None,001,93,2019_Nov_05_1200,ACPT_experiment_5_30_19,3.1.0,59.955008840755866,
,,,C,G,g,v,R,U,y,L,u,,,,,5,19,119,13,5,0,5,0,,,,,1,23,59,30,,,,,,down,0.700531750477694,1915.010117627456,None,001,93,2019_Nov_05_1200,ACPT_experiment_5_30_19,3.1.0,59.955008840755866,
,,,C,G,g,v,L,G,d,R,i,,,,,5,19,119,13,5,0,5,0,,,,,1,24,60,17,,,,,,up,0.6004554411451863,1916.9949698626433,None,001,93,2019_Nov_05_1200,ACPT_experiment_5_30_19,3.1.0,59.955008840755866,
