facing_vig,person_vig,text_vig,facing_train,person_train,food_train,correct_key_train,facing_exp,person_exp,food_exp,showL_R,consistent,vig_random.thisRepN,vig_random.thisTrialN,vig_random.thisN,vig_random.thisIndex,trainTrials.thisRepN,trainTrials.thisTrialN,trainTrials.thisN,trainTrials.thisIndex,expBlock.thisRepN,expBlock.thisTrialN,expBlock.thisN,expBlock.thisIndex,breakLoop.thisRepN,breakLoop.thisTrialN,breakLoop.thisN,breakLoop.thisIndex,expTrials.thisRepN,expTrials.thisTrialN,expTrials.thisN,expTrials.thisIndex,train_resp.keys,train_resp.corr,train_resp.rt,train_resp.started,train_resp.stopped,exp_resp.keys,exp_resp.rt,exp_resp.started,exp_resp.stopped,session,participant,date,expName,psychopyVersion,frameRate,
C,G,"cannot eat dairy products because she is lactose intolerant. She enjoys eating wheat products. She thinks eating insects, like crickets, is disgusting.",,,,,,,,,,0,0,0,0,,,,,,,,,,,,,,,,,,,,,,,,,,001,94,2019_Nov_05_1301,ACPT_experiment_5_30_19,3.1.0,59.95283881048758,
C,U,"did not report her food preferences, so her food preferences are unknown.",,,,,,,,,,0,1,1,2,,,,,,,,,,,,,,,,,,,,,,,,,,001,94,2019_Nov_05_1301,ACPT_experiment_5_30_19,3.1.0,59.95283881048758,
C,D,"is allergic to gluten, meaning she can’t eat wheat products. She enjoys eating dairy products. She thinks eating insects, like crickets, is disgusting.",,,,,,,,,,0,2,2,1,,,,,,,,,,,,,,,,,,,,,,,,,,001,94,2019_Nov_05_1301,ACPT_experiment_5_30_19,3.1.0,59.95283881048758,
,,,C,D,y,b,,,,,,,,,,0,0,0,2,,,,,,,,,,,,,v,0,2.0182218718000513,497.13941636641994,None,,,,,001,94,2019_Nov_05_1301,ACPT_experiment_5_30_19,3.1.0,59.95283881048758,
,,,C,U,d,n,,,,,,,,,,0,1,1,15,,,,,,,,,,,,,v,0,1.0508127185439662,502.4434906448623,None,,,,,001,94,2019_Nov_05_1301,ACPT_experiment_5_30_19,3.1.0,59.95283881048758,
,,,C,D,d,v,,,,,,,,,,0,2,2,18,,,,,,,,,,,,,v,1,1.5178327787216404,506.78014007350794,None,,,,,001,94,2019_Nov_05_1301,ACPT_experiment_5_30_19,3.1.0,59.95283881048758,
,,,C,G,y,b,,,,,,,,,,0,3,3,5,,,,,,,,,,,,,b,1,1.8514207783546226,511.58381620317596,None,,,,,001,94,2019_Nov_05_1301,ACPT_experiment_5_30_19,3.1.0,59.95283881048758,
,,,C,D,d,v,,,,,,,,,,0,4,4,9,,,,,,,,,,,,,v,1,1.0507891737343016,516.7210872751775,None,,,,,001,94,2019_Nov_05_1301,ACPT_experiment_5_30_19,3.1.0,59.95283881048758,
,,,C,D,g,b,,,,,,,,,,0,5,5,1,,,,,,,,,,,,,v,0,0.8503869197111271,521.0746913818748,None,,,,,001,94,2019_Nov_05_1301,ACPT_experiment_5_30_19,3.1.0,59.95283881048758,
,,,C,G,d,b,,,,,,,,,,0,6,6,3,,,,,,,,,,,,,v,0,0.8673461256112205,525.2109183321099,None,,,,,001,94,2019_Nov_05_1301,ACPT_experiment_5_30_19,3.1.0,59.95283881048758,
,,,C,G,g,v,,,,,,,,,,0,7,7,4,,,,,,,,,,,,,v,1,0.9507276553722477,529.3474329516257,None,,,,,001,94,2019_Nov_05_1301,ACPT_experiment_5_30_19,3.1.0,59.95283881048758,
,,,C,U,y,n,,,,,,,,,,0,8,8,17,,,,,,,,,,,,,b,0,1.1509071392692931,533.5839976189554,None,,,,,001,94,2019_Nov_05_1301,ACPT_experiment_5_30_19,3.1.0,59.95283881048758,
,,,C,D,d,v,,,,,,,,,,0,9,9,0,,,,,,,,,,,,,v,1,1.5011570161123018,538.0374193439329,None,,,,,001,94,2019_Nov_05_1301,ACPT_experiment_5_30_19,3.1.0,59.95283881048758,
,,,C,G,d,b,,,,,,,,,,0,10,10,12,,,,,,,,,,,,,v,0,1.3176919324614573,542.8244142775729,None,,,,,001,94,2019_Nov_05_1301,ACPT_experiment_5_30_19,3.1.0,59.95283881048758,
,,,C,G,g,v,,,,,,,,,,0,11,11,13,,,,,,,,,,,,,b,0,0.6669179119253386,547.4282106668852,None,,,,,001,94,2019_Nov_05_1301,ACPT_experiment_5_30_19,3.1.0,59.95283881048758,
,,,C,D,y,b,,,,,,,,,,0,12,12,11,,,,,,,,,,,,,b,1,0.8673337494929001,551.3809686093346,None,,,,,001,94,2019_Nov_05_1301,ACPT_experiment_5_30_19,3.1.0,59.95283881048758,
,,,C,U,y,n,,,,,,,,,,0,13,13,8,,,,,,,,,,,,,v,0,1.3676579434149971,555.55089331424,None,,,,,001,94,2019_Nov_05_1301,ACPT_experiment_5_30_19,3.1.0,59.95283881048758,
,,,C,G,y,b,,,,,,,,,,0,14,14,14,,,,,,,,,,,,,b,1,1.200938653092635,560.2043879677567,None,,,,,001,94,2019_Nov_05_1301,ACPT_experiment_5_30_19,3.1.0,59.95283881048758,
,,,C,U,g,n,,,,,,,,,,0,15,15,16,,,,,,,,,,,,,b,0,1.4840236389891288,564.7082755781157,None,,,,,001,94,2019_Nov_05_1301,ACPT_experiment_5_30_19,3.1.0,59.95283881048758,
,,,C,U,d,n,,,,,,,,,,0,16,16,6,,,,,,,,,,,,,b,0,0.7672667977130914,569.4614818982673,None,,,,,001,94,2019_Nov_05_1301,ACPT_experiment_5_30_19,3.1.0,59.95283881048758,
,,,C,D,g,b,,,,,,,,,,0,17,17,10,,,,,,,,,,,,,b,1,1.8511596724492847,573.5315412915597,None,,,,,001,94,2019_Nov_05_1301,ACPT_experiment_5_30_19,3.1.0,59.95283881048758,
,,,C,G,g,v,,,,,,,,,,0,18,18,19,,,,,,,,,,,,,v,1,2.602016039449154,578.6685379759674,None,,,,,001,94,2019_Nov_05_1301,ACPT_experiment_5_30_19,3.1.0,59.95283881048758,
,,,C,U,g,n,,,,,,,,,,0,19,19,7,,,,,,,,,,,,,b,0,0.9674230386563067,584.5563804623962,None,,,,,001,94,2019_Nov_05_1301,ACPT_experiment_5_30_19,3.1.0,59.95283881048758,
,,,C,G,g,v,,,,,,,,,,1,0,20,19,,,,,,,,,,,,,v,1,1.1475667948143382,588.8296463569541,None,,,,,001,94,2019_Nov_05_1301,ACPT_experiment_5_30_19,3.1.0,59.95283881048758,
,,,C,G,d,b,,,,,,,,,,1,1,21,12,,,,,,,,,,,,,b,1,1.117532371094967,593.2463719862644,None,,,,,001,94,2019_Nov_05_1301,ACPT_experiment_5_30_19,3.1.0,59.95283881048758,
,,,C,U,d,n,,,,,,,,,,1,2,22,6,,,,,,,,,,,,,b,0,1.4008585403662437,597.666649259606,None,,,,,001,94,2019_Nov_05_1301,ACPT_experiment_5_30_19,3.1.0,59.95283881048758,
,,,C,U,g,n,,,,,,,,,,1,3,23,16,,,,,,,,,,,,,b,0,2.03482730183714,602.3534199742089,None,,,,,001,94,2019_Nov_05_1301,ACPT_experiment_5_30_19,3.1.0,59.95283881048758,
,,,C,U,d,n,,,,,,,,,,1,4,24,15,,,,,,,,,,,,,v,0,0.7505795645538456,607.6574097328203,None,,,,,001,94,2019_Nov_05_1301,ACPT_experiment_5_30_19,3.1.0,59.95283881048758,
,,,C,D,y,b,,,,,,,,,,1,5,25,2,,,,,,,,,,,,,b,1,1.6345782098223935,611.7105319557404,None,,,,,001,94,2019_Nov_05_1301,ACPT_experiment_5_30_19,3.1.0,59.95283881048758,
,,,C,U,y,n,,,,,,,,,,1,6,26,8,,,,,,,,,,,,,b,0,5.52090205600598,616.6309520072255,None,,,,,001,94,2019_Nov_05_1301,ACPT_experiment_5_30_19,3.1.0,59.95283881048758,
,,,C,G,d,b,,,,,,,,,,1,7,27,3,,,,,,,,,,,,,v,0,2.034888578715254,625.4377185441335,None,,,,,001,94,2019_Nov_05_1301,ACPT_experiment_5_30_19,3.1.0,59.95283881048758,
,,,C,G,y,b,,,,,,,,,,1,8,28,14,,,,,,,,,,,,,b,1,1.0174590803271713,630.7417602220694,None,,,,,001,94,2019_Nov_05_1301,ACPT_experiment_5_30_19,3.1.0,59.95283881048758,
,,,C,D,y,b,,,,,,,,,,1,9,29,11,,,,,,,,,,,,,b,1,1.984437484303271,635.0621320368791,None,,,,,001,94,2019_Nov_05_1301,ACPT_experiment_5_30_19,3.1.0,59.95283881048758,
,,,C,G,y,b,,,,,,,,,,1,10,30,5,,,,,,,,,,,,,b,1,2.2517356750968247,640.3324430577823,None,,,,,001,94,2019_Nov_05_1301,ACPT_experiment_5_30_19,3.1.0,59.95283881048758,
,,,C,D,g,b,,,,,,,,,,1,11,31,10,,,,,,,,,,,,,v,0,2.618691198345914,645.8700199708283,None,,,,,001,94,2019_Nov_05_1301,ACPT_experiment_5_30_19,3.1.0,59.95283881048758,
,,,C,D,g,b,,,,,,,,,,1,12,32,1,,,,,,,,,,,,,b,1,2.201700237138539,651.7578636646831,None,,,,,001,94,2019_Nov_05_1301,ACPT_experiment_5_30_19,3.1.0,59.95283881048758,
,,,C,D,d,v,,,,,,,,,,1,13,33,9,,,,,,,,,,,,,v,1,2.118318103664933,657.2287194158953,None,,,,,001,94,2019_Nov_05_1301,ACPT_experiment_5_30_19,3.1.0,59.95283881048758,
,,,C,G,g,v,,,,,,,,,,1,14,34,4,,,,,,,,,,,,,v,1,1.8847997725215464,662.6328576275528,None,,,,,001,94,2019_Nov_05_1301,ACPT_experiment_5_30_19,3.1.0,59.95283881048758,
,,,C,U,y,n,,,,,,,,,,1,15,35,17,,,,,,,,,,,,,v,0,1.3677201258624336,667.8034874693312,None,,,,,001,94,2019_Nov_05_1301,ACPT_experiment_5_30_19,3.1.0,59.95283881048758,
,,,C,G,g,v,,,,,,,,,,1,16,36,13,,,,,,,,,,,,,b,0,3.6692358682839767,672.4739808719551,None,,,,,001,94,2019_Nov_05_1301,ACPT_experiment_5_30_19,3.1.0,59.95283881048758,
,,,C,D,d,v,,,,,,,,,,1,17,37,18,,,,,,,,,,,,,b,0,1.4177812216257735,679.4290359426614,None,,,,,001,94,2019_Nov_05_1301,ACPT_experiment_5_30_19,3.1.0,59.95283881048758,
,,,C,U,g,n,,,,,,,,,,1,18,38,7,,,,,,,,,,,,,n,1,1.601253549833018,684.1326632319415,None,,,,,001,94,2019_Nov_05_1301,ACPT_experiment_5_30_19,3.1.0,59.95283881048758,
,,,C,D,d,v,,,,,,,,,,1,19,39,0,,,,,,,,,,,,,v,1,3.0690264402173852,689.0197380971931,None,,,,,001,94,2019_Nov_05_1301,ACPT_experiment_5_30_19,3.1.0,59.95283881048758,
,,,C,U,y,n,,,,,,,,,,2,0,40,17,,,,,,,,,,,,,n,1,1.1841146789211052,695.3746057753606,None,,,,,001,94,2019_Nov_05_1301,ACPT_experiment_5_30_19,3.1.0,59.95283881048758,
,,,C,G,d,b,,,,,,,,,,2,1,41,3,,,,,,,,,,,,,b,1,1.5178370047133285,699.8446960183919,None,,,,,001,94,2019_Nov_05_1301,ACPT_experiment_5_30_19,3.1.0,59.95283881048758,
,,,C,G,g,v,,,,,,,,,,2,2,42,19,,,,,,,,,,,,,v,1,1.2176065674320853,704.6317000077279,None,,,,,001,94,2019_Nov_05_1301,ACPT_experiment_5_30_19,3.1.0,59.95283881048758,
,,,C,G,y,b,,,,,,,,,,2,3,43,5,,,,,,,,,,,,,n,0,1.4675253680234164,709.1354164654285,None,,,,,001,94,2019_Nov_05_1301,ACPT_experiment_5_30_19,3.1.0,59.95283881048758,
,,,C,G,d,b,,,,,,,,,,2,4,44,12,,,,,,,,,,,,,b,1,2.3017711130532916,713.8721094217881,None,,,,,001,94,2019_Nov_05_1301,ACPT_experiment_5_30_19,3.1.0,59.95283881048758,
,,,C,D,d,v,,,,,,,,,,2,5,45,0,,,,,,,,,,,,,v,1,2.2016963130035947,719.4597193579393,None,,,,,001,94,2019_Nov_05_1301,ACPT_experiment_5_30_19,3.1.0,59.95283881048758,
,,,C,G,y,b,,,,,,,,,,2,6,46,14,,,,,,,,,,,,,b,1,1.6012589832498634,724.9472324585131,None,,,,,001,94,2019_Nov_05_1301,ACPT_experiment_5_30_19,3.1.0,59.95283881048758,
,,,C,U,d,n,,,,,,,,,,2,7,47,6,,,,,,,,,,,,,n,1,1.9515040303886053,729.8343341889959,None,,,,,001,94,2019_Nov_05_1301,ACPT_experiment_5_30_19,3.1.0,59.95283881048758,
,,,C,U,g,n,,,,,,,,,,2,8,48,7,,,,,,,,,,,,,n,1,1.1508932538690715,735.0549967520237,None,,,,,001,94,2019_Nov_05_1301,ACPT_experiment_5_30_19,3.1.0,59.95283881048758,
,,,C,G,g,v,,,,,,,,,,2,9,49,13,,,,,,,,,,,,,v,1,2.418102095125505,739.5088042496573,None,,,,,001,94,2019_Nov_05_1301,ACPT_experiment_5_30_19,3.1.0,59.95283881048758,
,,,C,D,d,v,,,,,,,,,,2,10,50,18,,,,,,,,,,,,,v,1,2.4852733250590973,745.2127490920157,None,,,,,001,94,2019_Nov_05_1301,ACPT_experiment_5_30_19,3.1.0,59.95283881048758,
,,,C,U,d,n,,,,,,,,,,2,11,51,15,,,,,,,,,,,,,n,1,1.0508398856327403,750.9838373935054,None,,,,,001,94,2019_Nov_05_1301,ACPT_experiment_5_30_19,3.1.0,59.95283881048758,
,,,C,D,y,b,,,,,,,,,,2,12,52,11,,,,,,,,,,,,,b,1,1.5843187943128214,755.3374517633247,None,,,,,001,94,2019_Nov_05_1301,ACPT_experiment_5_30_19,3.1.0,59.95283881048758,
,,,C,G,g,v,,,,,,,,,,2,13,53,4,,,,,,,,,,,,,v,1,2.9689531494495895,760.2075900619166,None,,,,,001,94,2019_Nov_05_1301,ACPT_experiment_5_30_19,3.1.0,59.95283881048758,
,,,C,D,y,b,,,,,,,,,,2,14,54,2,,,,,,,,,,,,,b,1,0.8840125306678601,766.4623829400343,None,,,,,001,94,2019_Nov_05_1301,ACPT_experiment_5_30_19,3.1.0,59.95283881048758,
,,,C,D,d,v,,,,,,,,,,2,15,55,9,,,,,,,,,,,,,v,1,1.4644678631457282,770.6522513064347,None,,,,,001,94,2019_Nov_05_1301,ACPT_experiment_5_30_19,3.1.0,59.95283881048758,
,,,C,D,g,b,,,,,,,,,,2,16,56,1,,,,,,,,,,,,,b,1,1.3010101327199664,775.3858780040764,None,,,,,001,94,2019_Nov_05_1301,ACPT_experiment_5_30_19,3.1.0,59.95283881048758,
,,,C,U,y,n,,,,,,,,,,2,17,57,8,,,,,,,,,,,,,n,1,1.4842400701272709,779.9896481318701,None,,,,,001,94,2019_Nov_05_1301,ACPT_experiment_5_30_19,3.1.0,59.95283881048758,
,,,C,U,g,n,,,,,,,,,,2,18,58,16,,,,,,,,,,,,,n,1,1.0675189686644444,784.7430256046791,None,,,,,001,94,2019_Nov_05_1301,ACPT_experiment_5_30_19,3.1.0,59.95283881048758,
,,,C,D,g,b,,,,,,,,,,2,19,59,10,,,,,,,,,,,,,b,1,3.4690904941753615,789.1133060777001,None,,,,,001,94,2019_Nov_05_1301,ACPT_experiment_5_30_19,3.1.0,59.95283881048758,
,,,C,G,d,b,,,,,,,,,,3,0,60,12,,,,,,,,,,,,,b,1,2.8355114294954546,795.8682314708385,None,,,,,001,94,2019_Nov_05_1301,ACPT_experiment_5_30_19,3.1.0,59.95283881048758,
,,,C,G,d,b,,,,,,,,,,3,1,61,3,,,,,,,,,,,,,b,1,1.0508166426789103,801.9729008292607,None,,,,,001,94,2019_Nov_05_1301,ACPT_experiment_5_30_19,3.1.0,59.95283881048758,
,,,C,U,y,n,,,,,,,,,,3,2,62,17,,,,,,,,,,,,,n,1,0.8168678641113729,806.3266459029619,None,,,,,001,94,2019_Nov_05_1301,ACPT_experiment_5_30_19,3.1.0,59.95283881048758,
,,,C,G,g,v,,,,,,,,,,3,3,63,19,,,,,,,,,,,,,v,1,1.9348192120824024,810.4293812665419,None,,,,,001,94,2019_Nov_05_1301,ACPT_experiment_5_30_19,3.1.0,59.95283881048758,
,,,C,D,y,b,,,,,,,,,,3,4,64,11,,,,,,,,,,,,,b,1,1.8847861889762498,815.6500441314256,None,,,,,001,94,2019_Nov_05_1301,ACPT_experiment_5_30_19,3.1.0,59.95283881048758,
,,,C,U,g,n,,,,,,,,,,3,5,65,7,,,,,,,,,,,,,n,1,0.9507421444859574,820.8206679360737,None,,,,,001,94,2019_Nov_05_1301,ACPT_experiment_5_30_19,3.1.0,59.95283881048758,
,,,C,G,y,b,,,,,,,,,,3,6,66,5,,,,,,,,,,,,,b,1,3.2354254607544135,825.0742989683749,None,,,,,001,94,2019_Nov_05_1301,ACPT_experiment_5_30_19,3.1.0,59.95283881048758,
,,,C,D,g,b,,,,,,,,,,3,7,67,10,,,,,,,,,,,,,b,1,6.771846565114174,831.5956033991461,None,,,,,001,94,2019_Nov_05_1301,ACPT_experiment_5_30_19,3.1.0,59.95283881048758,
,,,C,D,g,b,,,,,,,,,,3,8,68,1,,,,,,,,,,,,,b,1,0.9507397296329145,841.6366060820474,None,,,,,001,94,2019_Nov_05_1301,ACPT_experiment_5_30_19,3.1.0,59.95283881048758,
,,,C,U,d,n,,,,,,,,,,3,9,69,6,,,,,,,,,,,,,n,1,3.6190528224797163,845.89024043477,None,,,,,001,94,2019_Nov_05_1301,ACPT_experiment_5_30_19,3.1.0,59.95283881048758,
,,,C,G,g,v,,,,,,,,,,3,10,70,4,,,,,,,,,,,,,v,1,2.2517486549277237,852.7951480787433,None,,,,,001,94,2019_Nov_05_1301,ACPT_experiment_5_30_19,3.1.0,59.95283881048758,
,,,C,D,d,v,,,,,,,,,,3,11,71,0,,,,,,,,,,,,,v,1,1.2009449920797124,858.3327198602283,None,,,,,001,94,2019_Nov_05_1301,ACPT_experiment_5_30_19,3.1.0,59.95283881048758,
,,,C,G,g,v,,,,,,,,,,3,12,72,13,,,,,,,,,,,,,v,1,2.2683975523059416,862.8195085051102,None,,,,,001,94,2019_Nov_05_1301,ACPT_experiment_5_30_19,3.1.0,59.95283881048758,
,,,C,G,y,b,,,,,,,,,,3,13,73,14,,,,,,,,,,,,,b,1,0.7505801682673336,868.3570639863419,None,,,,,001,94,2019_Nov_05_1301,ACPT_experiment_5_30_19,3.1.0,59.95283881048758,
,,,C,D,d,v,,,,,,,,,,3,14,74,9,,,,,,,,,,,,,v,1,2.6353434161464975,872.410182586983,None,,,,,001,94,2019_Nov_05_1301,ACPT_experiment_5_30_19,3.1.0,59.95283881048758,
,,,C,D,d,v,,,,,,,,,,3,15,75,18,,,,,,,,,,,,,v,1,0.7505843942581123,878.3313675429363,None,,,,,001,94,2019_Nov_05_1301,ACPT_experiment_5_30_19,3.1.0,59.95283881048758,
,,,C,U,d,n,,,,,,,,,,3,16,76,15,,,,,,,,,,,,,n,1,0.6669360233181578,882.3847243083865,None,,,,,001,94,2019_Nov_05_1301,ACPT_experiment_5_30_19,3.1.0,59.95283881048758,
,,,C,D,y,b,,,,,,,,,,3,17,77,2,,,,,,,,,,,,,b,1,0.73389746295652,886.3375006640845,None,,,,,001,94,2019_Nov_05_1301,ACPT_experiment_5_30_19,3.1.0,59.95283881048758,
,,,C,U,g,n,,,,,,,,,,3,18,78,16,,,,,,,,,,,,,n,1,0.9336347270245824,890.3743165967971,None,,,,,001,94,2019_Nov_05_1301,ACPT_experiment_5_30_19,3.1.0,59.95283881048758,
,,,C,U,y,n,,,,,,,,,,3,19,79,8,,,,,,,,,,,,,n,1,0.6671808289702312,894.5771394384019,None,,,,,001,94,2019_Nov_05_1301,ACPT_experiment_5_30_19,3.1.0,59.95283881048758,
,,,C,D,y,b,,,,,,,,,,4,0,80,11,,,,,,,,,,,,,b,1,1.3175648508586164,898.5470902237121,None,,,,,001,94,2019_Nov_05_1301,ACPT_experiment_5_30_19,3.1.0,59.95283881048758,
,,,C,D,d,v,,,,,,,,,,4,1,81,0,,,,,,,,,,,,,v,1,1.6679562984172662,903.1336883367467,None,,,,,001,94,2019_Nov_05_1301,ACPT_experiment_5_30_19,3.1.0,59.95283881048758,
,,,C,D,d,v,,,,,,,,,,4,2,82,18,,,,,,,,,,,,,v,1,0.6840195941122147,908.0706465042595,None,,,,,001,94,2019_Nov_05_1301,ACPT_experiment_5_30_19,3.1.0,59.95283881048758,
,,,C,G,g,v,,,,,,,,,,4,3,83,19,,,,,,,,,,,,,v,1,1.834757693719439,912.040507034465,None,,,,,001,94,2019_Nov_05_1301,ACPT_experiment_5_30_19,3.1.0,59.95283881048758,
,,,C,G,d,b,,,,,,,,,,4,4,84,12,,,,,,,,,,,,,b,1,0.9173800542857862,917.1610908733073,None,,,,,001,94,2019_Nov_05_1301,ACPT_experiment_5_30_19,3.1.0,59.95283881048758,
,,,C,D,g,b,,,,,,,,,,4,5,85,10,,,,,,,,,,,,,b,1,1.1840072179929848,921.3812336393758,None,,,,,001,94,2019_Nov_05_1301,ACPT_experiment_5_30_19,3.1.0,59.95283881048758,
,,,C,U,y,n,,,,,,,,,,4,6,86,17,,,,,,,,,,,,,n,1,0.7339053112264082,925.8510799823234,None,,,,,001,94,2019_Nov_05_1301,ACPT_experiment_5_30_19,3.1.0,59.95283881048758,
,,,C,D,y,b,,,,,,,,,,4,7,87,2,,,,,,,,,,,,,b,1,1.350785068485493,929.887766720437,None,,,,,001,94,2019_Nov_05_1301,ACPT_experiment_5_30_19,3.1.0,59.95283881048758,
,,,C,U,d,n,,,,,,,,,,4,8,88,6,,,,,,,,,,,,,n,1,1.9514985969708505,934.5243854804594,None,,,,,001,94,2019_Nov_05_1301,ACPT_experiment_5_30_19,3.1.0,59.95283881048758,
,,,C,D,g,b,,,,,,,,,,4,9,89,1,,,,,,,,,,,,,b,1,2.2517399010876034,939.7617235042408,None,,,,,001,94,2019_Nov_05_1301,ACPT_experiment_5_30_19,3.1.0,59.95283881048758,
,,,C,D,d,v,,,,,,,,,,4,10,90,9,,,,,,,,,,,,,v,1,0.8173140080753001,945.2826146934103,None,,,,,001,94,2019_Nov_05_1301,ACPT_experiment_5_30_19,3.1.0,59.95283881048758,
,,,C,G,g,v,,,,,,,,,,4,11,91,4,,,,,,,,,,,,,v,1,5.704112976450233,949.4027107320862,None,,,,,001,94,2019_Nov_05_1301,ACPT_experiment_5_30_19,3.1.0,59.95283881048758,
,,,C,U,g,n,,,,,,,,,,4,12,92,16,,,,,,,,,,,,,n,1,0.7005441265964691,958.3926558907906,None,,,,,001,94,2019_Nov_05_1301,ACPT_experiment_5_30_19,3.1.0,59.95283881048758,
,,,C,U,y,n,,,,,,,,,,4,13,93,8,,,,,,,,,,,,,n,1,1.0338867168629804,962.3959606161734,None,,,,,001,94,2019_Nov_05_1301,ACPT_experiment_5_30_19,3.1.0,59.95283881048758,
,,,C,U,d,n,,,,,,,,,,4,14,94,15,,,,,,,,,,,,,n,1,0.7005405043173596,966.715690382126,None,,,,,001,94,2019_Nov_05_1301,ACPT_experiment_5_30_19,3.1.0,59.95283881048758,
,,,C,G,y,b,,,,,,,,,,4,15,95,14,,,,,,,,,,,,,b,1,0.8673382773404228,970.7020763503851,None,,,,,001,94,2019_Nov_05_1301,ACPT_experiment_5_30_19,3.1.0,59.95283881048758,
,,,C,U,g,n,,,,,,,,,,4,16,96,7,,,,,,,,,,,,,n,1,0.6505098960642499,974.8552555638198,None,,,,,001,94,2019_Nov_05_1301,ACPT_experiment_5_30_19,3.1.0,59.95283881048758,
,,,C,G,y,b,,,,,,,,,,4,17,97,5,,,,,,,,,,,,,b,1,1.9348077415343141,978.8082924217106,None,,,,,001,94,2019_Nov_05_1301,ACPT_experiment_5_30_19,3.1.0,59.95283881048758,
,,,C,G,d,b,,,,,,,,,,4,18,98,3,,,,,,,,,,,,,b,1,2.33513078840042,984.028940193768,None,,,,,001,94,2019_Nov_05_1301,ACPT_experiment_5_30_19,3.1.0,59.95283881048758,
,,,C,G,g,v,,,,,,,,,,4,19,99,13,,,,,,,,,,,,,v,1,0.9840994049809524,989.6332346463687,None,,,,,001,94,2019_Nov_05_1301,ACPT_experiment_5_30_19,3.1.0,59.95283881048758,
,,,C,G,g,v,,,,,,,,,,5,0,100,4,,,,,,,,,,,,,v,1,0.8837553488974663,993.9034342822097,None,,,,,001,94,2019_Nov_05_1301,ACPT_experiment_5_30_19,3.1.0,59.95283881048758,
,,,C,U,g,n,,,,,,,,,,5,1,101,16,,,,,,,,,,,,,n,1,1.0674797273150034,998.0730293597744,None,,,,,001,94,2019_Nov_05_1301,ACPT_experiment_5_30_19,3.1.0,59.95283881048758,
,,,C,D,g,b,,,,,,,,,,5,2,102,1,,,,,,,,,,,,,b,1,1.167319682978814,1002.4432862879858,None,,,,,001,94,2019_Nov_05_1301,ACPT_experiment_5_30_19,3.1.0,59.95283881048758,
,,,C,U,g,n,,,,,,,,,,5,3,103,7,,,,,,,,,,,,,n,1,0.6505086886390927,1006.8964460014877,None,,,,,001,94,2019_Nov_05_1301,ACPT_experiment_5_30_19,3.1.0,59.95283881048758,
,,,C,D,g,b,,,,,,,,,,5,4,104,10,,,,,,,,,,,,,b,1,1.1642328980151433,1010.852808412862,None,,,,,001,94,2019_Nov_05_1301,ACPT_experiment_5_30_19,3.1.0,59.95283881048758,
,,,C,D,d,v,,,,,,,,,,5,5,105,18,,,,,,,,,,,,,v,1,0.8840206807944924,1015.2861995416606,None,,,,,001,94,2019_Nov_05_1301,ACPT_experiment_5_30_19,3.1.0,59.95283881048758,
,,,C,G,g,v,,,,,,,,,,5,6,106,13,,,,,,,,,,,,,v,1,2.4349345212795015,1019.4730152328884,None,,,,,001,94,2019_Nov_05_1301,ACPT_experiment_5_30_19,3.1.0,59.95283881048758,
,,,C,D,y,b,,,,,,,,,,5,7,107,11,,,,,,,,,,,,,b,1,8.072867262813816,1025.193780728996,None,,,,,001,94,2019_Nov_05_1301,ACPT_experiment_5_30_19,3.1.0,59.95283881048758,
,,,C,G,y,b,,,,,,,,,,5,8,108,5,,,,,,,,,,,,,b,1,0.8506767019880499,1036.5524756462146,None,,,,,001,94,2019_Nov_05_1301,ACPT_experiment_5_30_19,3.1.0,59.95283881048758,
,,,C,U,y,n,,,,,,,,,,5,9,109,17,,,,,,,,,,,,,n,1,0.8337078366785136,1040.705929549099,None,,,,,001,94,2019_Nov_05_1301,ACPT_experiment_5_30_19,3.1.0,59.95283881048758,
,,,C,D,d,v,,,,,,,,,,5,10,110,0,,,,,,,,,,,,,v,1,0.7505777534152003,1044.8254822460058,None,,,,,001,94,2019_Nov_05_1301,ACPT_experiment_5_30_19,3.1.0,59.95283881048758,
,,,C,G,y,b,,,,,,,,,,5,11,111,14,,,,,,,,,,,,,b,1,0.600471137684508,1048.8618994262306,None,,,,,001,94,2019_Nov_05_1301,ACPT_experiment_5_30_19,3.1.0,59.95283881048758,
,,,C,U,d,n,,,,,,,,,,5,12,112,15,,,,,,,,,,,,,n,1,1.117549576917554,1052.7481852384908,None,,,,,001,94,2019_Nov_05_1301,ACPT_experiment_5_30_19,3.1.0,59.95283881048758,
,,,C,D,d,v,,,,,,,,,,5,13,113,9,,,,,,,,,,,,,v,1,0.9172593116709322,1057.1683465989217,None,,,,,001,94,2019_Nov_05_1301,ACPT_experiment_5_30_19,3.1.0,59.95283881048758,
,,,C,G,d,b,,,,,,,,,,5,14,114,3,,,,,,,,,,,,,b,1,1.6512953267783814,1061.3714543930992,None,,,,,001,94,2019_Nov_05_1301,ACPT_experiment_5_30_19,3.1.0,59.95283881048758,
,,,C,G,g,v,,,,,,,,,,5,15,115,19,,,,,,,,,,,,,v,1,0.9339199814539825,1066.2919203267775,None,,,,,001,94,2019_Nov_05_1301,ACPT_experiment_5_30_19,3.1.0,59.95283881048758,
,,,C,U,d,n,,,,,,,,,,5,16,116,6,,,,,,,,,,,,,n,1,1.334087572203316,1070.5287605891272,None,,,,,001,94,2019_Nov_05_1301,ACPT_experiment_5_30_19,3.1.0,59.95283881048758,
,,,C,D,y,b,,,,,,,,,,5,17,117,2,,,,,,,,,,,,,b,1,1.0508136241141983,1075.148683664007,None,,,,,001,94,2019_Nov_05_1301,ACPT_experiment_5_30_19,3.1.0,59.95283881048758,
,,,C,U,y,n,,,,,,,,,,5,18,118,8,,,,,,,,,,,,,n,1,0.5002752931623036,1079.5021160143342,None,,,,,001,94,2019_Nov_05_1301,ACPT_experiment_5_30_19,3.1.0,59.95283881048758,
,,,C,G,d,b,,,,,,,,,,5,19,119,12,,,,,,,,,,,,,b,1,1.5011564123988137,1083.321601880204,None,,,,,001,94,2019_Nov_05_1301,ACPT_experiment_5_30_19,3.1.0,59.95283881048758,
,,,C,D,g,b,,,,,,,,,,6,0,120,1,,,,,,,,,,,,,b,1,1.2176352438036702,1088.1085762875991,None,,,,,001,94,2019_Nov_05_1301,ACPT_experiment_5_30_19,3.1.0,59.95283881048758,
,,,C,D,d,v,,,,,,,,,,6,1,121,0,,,,,,,,,,,,,v,1,0.7172102297972742,1092.5953857605818,None,,,,,001,94,2019_Nov_05_1301,ACPT_experiment_5_30_19,3.1.0,59.95283881048758,
,,,C,D,d,v,,,,,,,,,,6,2,122,18,,,,,,,,,,,,,v,1,0.6673568113328656,1096.5816026891798,None,,,,,001,94,2019_Nov_05_1301,ACPT_experiment_5_30_19,3.1.0,59.95283881048758,
,,,C,G,y,b,,,,,,,,,,6,3,123,14,,,,,,,,,,,,,b,1,0.7339053112254987,1100.534781419643,None,,,,,001,94,2019_Nov_05_1301,ACPT_experiment_5_30_19,3.1.0,59.95283881048758,
,,,C,G,y,b,,,,,,,,,,6,4,124,5,,,,,,,,,,,,,b,1,0.5671081419168331,1104.5378464709347,None,,,,,001,94,2019_Nov_05_1301,ACPT_experiment_5_30_19,3.1.0,59.95283881048758,
,,,C,G,g,v,,,,,,,,,,6,5,125,19,,,,,,,,,,,,,b,0,1.01412990456447,1108.4108077318742,None,,,,,001,94,2019_Nov_05_1301,ACPT_experiment_5_30_19,3.1.0,59.95283881048758,
,,,C,D,g,b,,,,,,,,,,6,6,126,10,,,,,,,,,,,,,b,1,3.3192455880644047,1112.7107456701697,None,,,,,001,94,2019_Nov_05_1301,ACPT_experiment_5_30_19,3.1.0,59.95283881048758,
,,,C,G,g,v,,,,,,,,,,6,7,127,13,,,,,,,,,,,,,v,1,1.2509725817672006,1119.3158219312054,None,,,,,001,94,2019_Nov_05_1301,ACPT_experiment_5_30_19,3.1.0,59.95283881048758,
,,,C,D,y,b,,,,,,,,,,6,8,128,2,,,,,,,,,,,,,b,1,1.5175728802423691,1123.8695699027294,None,,,,,001,94,2019_Nov_05_1301,ACPT_experiment_5_30_19,3.1.0,59.95283881048758,
,,,C,G,d,b,,,,,,,,,,6,9,129,3,,,,,,,,,,,,,b,1,1.0174590803271713,1128.6729828134958,None,,,,,001,94,2019_Nov_05_1301,ACPT_experiment_5_30_19,3.1.0,59.95283881048758,
,,,C,U,d,n,,,,,,,,,,6,10,130,6,0,0,0,0,0,0,0,0,,,,,n,1,1.3677149943005134,1132.9762870559089,None,,,,,001,94,2019_Nov_05_1301,ACPT_experiment_5_30_19,3.1.0,59.95283881048758,
,,,C,U,d,n,R,D,d,L,c,,,,,6,10,130,6,0,0,0,0,,,,,0,0,0,0,,,,,,down,2.7020654835496316,1190.5203194728856,None,001,94,2019_Nov_05_1301,ACPT_experiment_5_30_19,3.1.0,59.95283881048758,
,,,C,U,d,n,L,U,d,L,u,,,,,6,10,130,6,0,0,0,0,,,,,0,1,1,20,,,,,,up,0.7338959536737093,1194.5067054411447,None,001,94,2019_Nov_05_1301,ACPT_experiment_5_30_19,3.1.0,59.95283881048758,
,,,C,U,d,n,L,D,y,L,y,,,,,6,10,130,6,0,0,0,0,,,,,0,2,2,32,,,,,,down,1.2675583911286594,1196.5416562023065,None,001,94,2019_Nov_05_1301,ACPT_experiment_5_30_19,3.1.0,59.95283881048758,
,,,C,U,d,n,R,G,y,R,y,,,,,6,10,130,6,0,0,0,0,,,,,0,3,3,29,,,,,,down,0.934038007359959,1199.1102328762827,None,001,94,2019_Nov_05_1301,ACPT_experiment_5_30_19,3.1.0,59.95283881048758,
,,,C,U,d,n,L,D,d,R,c ,,,,,6,10,130,6,0,0,0,0,,,,,0,4,4,13,,,,,,up,0.6672070904896827,1201.3285666161155,None,001,94,2019_Nov_05_1301,ACPT_experiment_5_30_19,3.1.0,59.95283881048758,
,,,C,U,d,n,R,U,d,L,u,,,,,6,10,130,6,0,0,0,0,,,,,0,5,5,8,,,,,,up,0.5337315626029522,1203.2634093730076,None,001,94,2019_Nov_05_1301,ACPT_experiment_5_30_19,3.1.0,59.95283881048758,
,,,C,U,d,n,R,D,d,R,c ,,,,,6,10,130,6,0,0,0,0,,,,,0,6,6,1,,,,,,down,1.0508063795568887,1205.0814632314587,None,001,94,2019_Nov_05_1301,ACPT_experiment_5_30_19,3.1.0,59.95283881048758,
,,,C,U,d,n,R,G,d,L,i,,,,,6,10,130,6,0,0,0,0,,,,,0,7,7,4,,,,,,down,0.8006316046212305,1207.4165617212102,None,001,94,2019_Nov_05_1301,ACPT_experiment_5_30_19,3.1.0,59.95283881048758,
,,,C,U,d,n,R,D,y,L,y,,,,,6,10,130,6,0,0,0,0,,,,,0,8,8,26,,,,,,down,0.8006319064770651,1209.5014896620169,None,001,94,2019_Nov_05_1301,ACPT_experiment_5_30_19,3.1.0,59.95283881048758,
,,,C,U,d,n,L,D,g,L,i,,,,,6,10,130,6,0,0,0,0,,,,,0,9,9,14,,,,,,up,0.8339698481540836,1211.5864423550602,None,001,94,2019_Nov_05_1301,ACPT_experiment_5_30_19,3.1.0,59.95283881048758,
,,,C,U,d,n,L,U,g,L,u,,,,,6,10,130,6,0,0,0,0,,,,,0,10,10,22,,,,,,up,0.6338130034964706,1213.704733593493,None,001,94,2019_Nov_05_1301,ACPT_experiment_5_30_19,3.1.0,59.95283881048758,
,,,C,U,d,n,L,G,g,R,c ,,,,,6,10,130,6,0,0,0,0,,,,,0,11,11,19,,,,,,up,0.5837893379439265,1215.6228622519948,None,001,94,2019_Nov_05_1301,ACPT_experiment_5_30_19,3.1.0,59.95283881048758,
,,,C,U,d,n,L,D,d,L,c ,,,,,6,10,130,6,0,0,0,0,,,,,0,12,12,12,,,,,,down,0.7338917276820212,1217.4909627170955,None,001,94,2019_Nov_05_1301,ACPT_experiment_5_30_19,3.1.0,59.95283881048758,
,,,C,U,d,n,R,G,y,L,y,,,,,6,10,130,6,0,0,0,0,,,,,0,13,13,28,,,,,,down,0.6338048533698384,1219.5258573329402,None,001,94,2019_Nov_05_1301,ACPT_experiment_5_30_19,3.1.0,59.95283881048758,
,,,C,U,d,n,R,D,y,R,y,,,,,6,10,130,6,0,0,0,0,,,,,0,14,14,27,,,,,,down,1.0007612821900693,1221.4773447612197,None,001,94,2019_Nov_05_1301,ACPT_experiment_5_30_19,3.1.0,59.95283881048758,
,,,C,U,d,n,R,U,g,L,u,,,,,6,10,130,6,0,0,0,0,,,,,0,15,15,10,,,,,,up,0.9673994938475516,1223.762433470819,None,001,94,2019_Nov_05_1301,ACPT_experiment_5_30_19,3.1.0,59.95283881048758,
,,,C,U,d,n,R,U,y,R,u,,,,,6,10,130,6,0,0,0,0,,,,,0,16,16,31,,,,,,down,0.800605644958523,1226.0141543549444,None,001,94,2019_Nov_05_1301,ACPT_experiment_5_30_19,3.1.0,59.95283881048758,
,,,C,U,d,n,L,G,y,L,y,,,,,6,10,130,6,0,0,0,0,,,,,0,17,17,34,,,,,,down,0.5504142679137658,1228.1157662084888,None,001,94,2019_Nov_05_1301,ACPT_experiment_5_30_19,3.1.0,59.95283881048758,
,,,C,U,d,n,R,U,d,R,u,,,,,6,10,130,6,0,0,0,0,,,,,0,18,18,9,,,,,,down,0.8006279823430305,1229.967158008616,None,001,94,2019_Nov_05_1301,ACPT_experiment_5_30_19,3.1.0,59.95283881048758,
,,,C,U,d,n,L,G,d,R,i,,,,,6,10,130,6,0,0,0,0,,,,,0,19,19,17,,,,,,down,0.6504963125198628,1232.052105871955,None,001,94,2019_Nov_05_1301,ACPT_experiment_5_30_19,3.1.0,59.95283881048758,
,,,C,U,d,n,R,U,y,L,u,,,,,6,10,130,6,0,0,0,0,,,,,0,20,20,30,,,,,,down,0.5671165938992999,1233.9869223673277,None,001,94,2019_Nov_05_1301,ACPT_experiment_5_30_19,3.1.0,59.95283881048758,
,,,C,U,d,n,R,D,g,R,i,,,,,6,10,130,6,0,0,0,0,,,,,0,21,21,3,,,,,,up,0.783668172729449,1235.8552854476166,None,001,94,2019_Nov_05_1301,ACPT_experiment_5_30_19,3.1.0,59.95283881048758,
,,,C,U,d,n,L,G,g,L,c ,,,,,6,10,130,6,0,0,0,0,,,,,0,22,22,18,,,,,,up,0.6504966143766069,1237.923270784634,None,001,94,2019_Nov_05_1301,ACPT_experiment_5_30_19,3.1.0,59.95283881048758,
,,,C,U,d,n,R,G,g,L,c ,,,,,6,10,130,6,0,0,0,0,,,,,0,23,23,6,,,,,,up,0.6671811308269753,1239.858076715028,None,001,94,2019_Nov_05_1301,ACPT_experiment_5_30_19,3.1.0,59.95283881048758,
,,,C,U,d,n,L,U,y,R,u,,,,,6,10,130,6,0,0,0,0,,,,,0,24,24,25,,,,,,down,0.6838617231423996,1241.8095722934331,None,001,94,2019_Nov_05_1301,ACPT_experiment_5_30_19,3.1.0,59.95283881048758,
,,,C,U,d,n,R,G,g,R,c ,,,,,6,10,130,6,0,0,0,0,,,,,0,25,25,7,,,,,,up,0.8339713574368943,1243.7777454455882,None,001,94,2019_Nov_05_1301,ACPT_experiment_5_30_19,3.1.0,59.95283881048758,
,,,C,U,d,n,L,G,y,R,y,,,,,6,10,130,6,0,0,0,0,,,,,0,26,26,35,,,,,,down,1.9348170990861036,1245.896032759886,None,001,94,2019_Nov_05_1301,ACPT_experiment_5_30_19,3.1.0,59.95283881048758,
,,,C,U,d,n,L,D,g,R,i,,,,,6,10,130,6,0,0,0,0,,,,,0,27,27,15,,,,,,up,0.6838822493864427,1249.1151389506022,None,001,94,2019_Nov_05_1301,ACPT_experiment_5_30_19,3.1.0,59.95283881048758,
,,,C,U,d,n,R,G,d,R,i,,,,,6,10,130,6,0,0,0,0,,,,,0,28,28,5,,,,,,up,0.8506483274732091,1251.0833386661325,None,001,94,2019_Nov_05_1301,ACPT_experiment_5_30_19,3.1.0,59.95283881048758,
,,,C,U,d,n,R,D,g,L,i,,,,,6,10,130,6,0,0,0,0,,,,,0,29,29,2,,,,,,up,0.7005803493811982,1253.2183056671756,None,001,94,2019_Nov_05_1301,ACPT_experiment_5_30_19,3.1.0,59.95283881048758,
,,,C,U,d,n,L,U,y,L,u,,,,,6,10,130,6,0,0,0,0,,,,,0,30,30,24,,,,,,down,0.6838535730157673,1255.2031594116452,None,001,94,2019_Nov_05_1301,ACPT_experiment_5_30_19,3.1.0,59.95283881048758,
,,,C,U,d,n,L,U,g,R,u,,,,,6,10,130,6,0,0,0,0,,,,,0,31,31,23,,,,,,up,0.817296802252713,1257.1713292433788,None,001,94,2019_Nov_05_1301,ACPT_experiment_5_30_19,3.1.0,59.95283881048758,
,,,C,U,d,n,R,U,g,R,u,,,,,6,10,130,6,0,0,0,0,,,,,0,32,32,11,,,,,,up,0.5671386294270633,1259.2729347579352,None,001,94,2019_Nov_05_1301,ACPT_experiment_5_30_19,3.1.0,59.95283881048758,
,,,C,U,d,n,L,U,d,R,u,,,,,6,10,130,6,0,0,0,0,,,,,0,33,33,21,,,,,,down,0.9671245025401731,1261.141310818055,None,001,94,2019_Nov_05_1301,ACPT_experiment_5_30_19,3.1.0,59.95283881048758,
,,,C,U,d,n,L,D,y,R,y,,,,,6,10,130,6,0,0,0,0,,,,,0,34,34,33,,,,,,down,0.7338923313955092,1263.392756710875,None,001,94,2019_Nov_05_1301,ACPT_experiment_5_30_19,3.1.0,59.95283881048758,
,,,C,U,d,n,L,G,d,L,i,,,,,6,10,130,6,0,0,0,0,,,,,0,35,35,16,,,,,,up,1.3176605393819045,1265.4109701306916,None,001,94,2019_Nov_05_1301,ACPT_experiment_5_30_19,3.1.0,59.95283881048758,
,,,C,U,d,n,L,D,y,R,y,,,,,6,10,130,6,0,0,0,0,,,,,1,0,36,33,,,,,,down,0.7339222151922513,1268.0129330433901,None,001,94,2019_Nov_05_1301,ACPT_experiment_5_30_19,3.1.0,59.95283881048758,
,,,C,U,d,n,R,D,y,R,y,,,,,6,10,130,6,0,0,0,0,,,,,1,1,37,27,,,,,,down,0.517054894422472,1270.0311721210128,None,001,94,2019_Nov_05_1301,ACPT_experiment_5_30_19,3.1.0,59.95283881048758,
,,,C,U,d,n,L,D,d,L,c ,,,,,6,10,130,6,0,0,0,0,,,,,1,2,38,12,,,,,,up,0.934038007359959,1271.8325505187104,None,001,94,2019_Nov_05_1301,ACPT_experiment_5_30_19,3.1.0,59.95283881048758,
,,,C,U,d,n,L,U,d,L,u,,,,,6,10,130,6,0,0,0,0,,,,,1,3,39,20,,,,,,up,0.4837139341807415,1274.0342163442037,None,001,94,2019_Nov_05_1301,ACPT_experiment_5_30_19,3.1.0,59.95283881048758,
,,,C,U,d,n,L,D,g,L,i,,,,,6,10,130,6,0,0,0,0,,,,,1,4,40,14,,,,,,up,0.7672553271640936,1275.8022528760894,None,001,94,2019_Nov_05_1301,ACPT_experiment_5_30_19,3.1.0,59.95283881048758,
,,,C,U,d,n,L,U,g,L,u,,,,,6,10,130,6,0,0,0,0,,,,,1,5,41,22,,,,,,up,0.5003815466643573,1277.8538217452624,None,001,94,2019_Nov_05_1301,ACPT_experiment_5_30_19,3.1.0,59.95283881048758,
,,,C,U,d,n,L,U,y,R,u,,,,,6,10,130,6,0,0,0,0,,,,,1,6,42,25,,,,,,down,0.7672915499488226,1279.6218202432237,None,001,94,2019_Nov_05_1301,ACPT_experiment_5_30_19,3.1.0,59.95283881048758,
,,,C,U,d,n,R,D,y,L,y,,,,,6,10,130,6,0,0,0,0,,,,,1,7,43,26,,,,,,down,0.7502864618545573,1281.6903718631065,None,001,94,2019_Nov_05_1301,ACPT_experiment_5_30_19,3.1.0,59.95283881048758,
,,,C,U,d,n,L,G,d,L,i,,,,,6,10,130,6,0,0,0,0,,,,,1,8,44,16,,,,,,down,0.7672477807509495,1283.7249842430883,None,001,94,2019_Nov_05_1301,ACPT_experiment_5_30_19,3.1.0,59.95283881048758,
,,,C,U,d,n,R,D,d,R,c ,,,,,6,10,130,6,0,0,0,0,,,,,1,9,45,1,,,,,,up,0.8339704518675717,1285.7765543196874,None,001,94,2019_Nov_05_1301,ACPT_experiment_5_30_19,3.1.0,59.95283881048758,
,,,C,U,d,n,R,G,g,R,c ,,,,,6,10,130,6,0,0,0,0,,,,,1,10,46,7,,,,,,up,0.5504489814147746,1287.89481507061,None,001,94,2019_Nov_05_1301,ACPT_experiment_5_30_19,3.1.0,59.95283881048758,
,,,C,U,d,n,L,U,g,R,u,,,,,6,10,130,6,0,0,0,0,,,,,1,11,47,23,,,,,,up,0.467022173173973,1289.7295791033166,None,001,94,2019_Nov_05_1301,ACPT_experiment_5_30_19,3.1.0,59.95283881048758,
,,,C,U,d,n,R,D,g,R,i,,,,,6,10,130,6,0,0,0,0,,,,,1,12,48,3,,,,,,up,0.5004576145129249,1291.4808912736898,None,001,94,2019_Nov_05_1301,ACPT_experiment_5_30_19,3.1.0,59.95283881048758,
,,,C,U,d,n,R,G,y,R,y,,,,,6,10,130,6,0,0,0,0,,,,,1,13,49,29,,,,,,down,0.6504984255170712,1293.2656165480166,None,001,94,2019_Nov_05_1301,ACPT_experiment_5_30_19,3.1.0,59.95283881048758,
,,,C,U,d,n,L,U,d,R,u,,,,,6,10,130,6,0,0,0,0,,,,,1,14,50,21,,,,,,down,0.6171312037558891,1295.2004348545288,None,001,94,2019_Nov_05_1301,ACPT_experiment_5_30_19,3.1.0,59.95283881048758,
,,,C,U,d,n,R,G,y,L,y,,,,,6,10,130,6,0,0,0,0,,,,,1,15,51,28,,,,,,down,0.7839325990571524,1297.1018865429942,None,001,94,2019_Nov_05_1301,ACPT_experiment_5_30_19,3.1.0,59.95283881048758,
,,,C,U,d,n,L,G,y,L,y,,,,,6,10,130,6,0,0,0,0,,,,,1,16,52,34,,,,,,down,0.6171345241773452,1299.1701360044817,None,001,94,2019_Nov_05_1301,ACPT_experiment_5_30_19,3.1.0,59.95283881048758,
,,,C,U,d,n,L,G,g,L,c ,,,,,6,10,130,6,0,0,0,0,,,,,1,17,53,18,,,,,,up,0.7336176419448748,1301.071864797249,None,001,94,2019_Nov_05_1301,ACPT_experiment_5_30_19,3.1.0,59.95283881048758,
,,,C,U,d,n,R,G,d,R,i,,,,,6,10,130,6,0,0,0,0,,,,,1,18,54,5,,,,,,down,0.7505798664105896,1303.0897993016242,None,001,94,2019_Nov_05_1301,ACPT_experiment_5_30_19,3.1.0,59.95283881048758,
,,,C,U,d,n,L,G,d,R,i,,,,,6,10,130,6,0,0,0,0,,,,,1,19,55,17,,,,,,down,0.38365362324475427,1305.1079891766321,None,001,94,2019_Nov_05_1301,ACPT_experiment_5_30_19,3.1.0,59.95283881048758,
,,,C,U,d,n,L,D,d,R,c ,,,,,6,10,130,6,0,0,0,0,,,,,1,20,56,13,,,,,,down,0.6671705658482097,1306.7759566437417,None,001,94,2019_Nov_05_1301,ACPT_experiment_5_30_19,3.1.0,59.95283881048758,
,,,C,U,d,n,R,U,d,L,u,,,,,6,10,130,6,0,0,0,0,,,,,1,21,57,8,,,,,,down,0.6505150276261702,1308.7274253569149,None,001,94,2019_Nov_05_1301,ACPT_experiment_5_30_19,3.1.0,59.95283881048758,
,,,C,U,d,n,R,G,d,L,i,,,,,6,10,130,6,0,0,0,0,,,,,1,22,58,4,,,,,,up,0.7005347690437702,1310.662260265537,None,001,94,2019_Nov_05_1301,ACPT_experiment_5_30_19,3.1.0,59.95283881048758,
,,,C,U,d,n,R,G,g,L,c ,,,,,6,10,130,6,0,0,0,0,,,,,1,23,59,6,,,,,,up,0.5504326811615101,1312.6304171174388,None,001,94,2019_Nov_05_1301,ACPT_experiment_5_30_19,3.1.0,59.95283881048758,
,,,C,U,d,n,L,G,y,R,y,,,,,6,10,130,6,0,0,0,0,,,,,1,24,60,35,,,,,,down,0.8005902502754907,1314.4651938281204,None,001,94,2019_Nov_05_1301,ACPT_experiment_5_30_19,3.1.0,59.95283881048758,
,,,C,U,d,n,R,U,g,L,u,,,,,6,10,130,6,0,0,0,0,,,,,1,25,61,10,,,,,,up,0.8506619110175961,1316.5500970166913,None,001,94,2019_Nov_05_1301,ACPT_experiment_5_30_19,3.1.0,59.95283881048758,
,,,C,U,d,n,L,G,g,R,c ,,,,,6,10,130,6,0,0,0,0,,,,,1,26,62,19,,,,,,up,0.7504751221913466,1318.6850727715746,None,001,94,2019_Nov_05_1301,ACPT_experiment_5_30_19,3.1.0,59.95283881048758,
,,,C,U,d,n,R,U,y,R,u,,,,,6,10,130,6,0,0,0,0,,,,,1,27,63,31,,,,,,down,0.7005317504781488,1320.7199589354368,None,001,94,2019_Nov_05_1301,ACPT_experiment_5_30_19,3.1.0,59.95283881048758,
,,,C,U,d,n,L,U,y,L,u,,,,,6,10,130,6,0,0,0,0,,,,,1,28,64,24,,,,,,down,0.5670728247014267,1322.7048359228602,None,001,94,2019_Nov_05_1301,ACPT_experiment_5_30_19,3.1.0,59.95283881048758,
,,,C,U,d,n,R,D,g,L,i,,,,,6,10,130,6,0,0,0,0,,,,,1,29,65,2,,,,,,up,0.6838574971498019,1324.556226817418,None,001,94,2019_Nov_05_1301,ACPT_experiment_5_30_19,3.1.0,59.95283881048758,
,,,C,U,d,n,R,D,d,L,c,,,,,6,10,130,6,0,0,0,0,,,,,1,30,66,0,,,,,,up,0.6171366371727345,1326.5077211883972,None,001,94,2019_Nov_05_1301,ACPT_experiment_5_30_19,3.1.0,59.95283881048758,
,,,C,U,d,n,R,U,g,R,u,,,,,6,10,130,6,0,0,0,0,,,,,1,31,67,11,,,,,,up,1.2342687464979463,1328.4091819325577,None,001,94,2019_Nov_05_1301,ACPT_experiment_5_30_19,3.1.0,59.95283881048758,
,,,C,U,d,n,L,D,g,R,i,,,,,6,10,130,6,0,0,0,0,,,,,1,32,68,15,,,,,,up,0.7672550253073496,1330.9277732767614,None,001,94,2019_Nov_05_1301,ACPT_experiment_5_30_19,3.1.0,59.95283881048758,
,,,C,U,d,n,R,U,y,L,u,,,,,6,10,130,6,0,0,0,0,,,,,1,33,69,30,,,,,,down,0.667179017831586,1332.9793382217995,None,001,94,2019_Nov_05_1301,ACPT_experiment_5_30_19,3.1.0,59.95283881048758,
,,,C,U,d,n,R,U,d,R,u,,,,,6,10,130,6,0,0,0,0,,,,,1,34,70,9,,,,,,down,0.5337418257249738,1334.930832290922,None,001,94,2019_Nov_05_1301,ACPT_experiment_5_30_19,3.1.0,59.95283881048758,
,,,C,U,d,n,L,D,y,L,y,,,,,6,10,130,6,0,0,0,0,,,,,1,35,71,32,,,,,,down,0.700543522882981,1336.7655555729962,None,001,94,2019_Nov_05_1301,ACPT_experiment_5_30_19,3.1.0,59.95283881048758,
,,,C,U,d,n,,,,,,,,,,6,10,130,6,1,0,1,0,0,0,0,0,,,,,,,,,,,,,,001,94,2019_Nov_05_1301,ACPT_experiment_5_30_19,3.1.0,59.95283881048758,
,,,C,U,d,n,L,D,g,R,i,,,,,6,10,130,6,1,0,1,0,,,,,0,0,0,15,,,,,,up,0.7836739080039479,1349.375467877635,None,001,94,2019_Nov_05_1301,ACPT_experiment_5_30_19,3.1.0,59.95283881048758,
,,,C,U,d,n,R,U,y,R,u,,,,,6,10,130,6,1,0,1,0,,,,,0,1,1,31,,,,,,down,0.6671968273676612,1351.4434480830905,None,001,94,2019_Nov_05_1301,ACPT_experiment_5_30_19,3.1.0,59.95283881048758,
,,,C,U,d,n,R,U,g,L,u,,,,,6,10,130,6,1,0,1,0,,,,,0,2,2,10,,,,,,up,0.9173924304041066,1353.3949406429301,None,001,94,2019_Nov_05_1301,ACPT_experiment_5_30_19,3.1.0,59.95283881048758,
,,,C,U,d,n,L,D,d,R,c ,,,,,6,10,130,6,1,0,1,0,,,,,0,3,3,13,,,,,,down,0.7172120409359195,1355.5966556710391,None,001,94,2019_Nov_05_1301,ACPT_experiment_5_30_19,3.1.0,59.95283881048758,
,,,C,U,d,n,R,G,d,L,i,,,,,6,10,130,6,1,0,1,0,,,,,0,4,4,4,,,,,,down,0.7172325671808721,1357.5981604258832,None,001,94,2019_Nov_05_1301,ACPT_experiment_5_30_19,3.1.0,59.95283881048758,
,,,C,U,d,n,R,D,d,R,c ,,,,,6,10,130,6,1,0,1,0,,,,,0,5,5,1,,,,,,up,0.5670990862199687,1359.5997119684907,None,001,94,2019_Nov_05_1301,ACPT_experiment_5_30_19,3.1.0,59.95283881048758,
,,,C,U,d,n,L,G,g,R,c ,,,,,6,10,130,6,1,0,1,0,,,,,0,6,6,19,,,,,,up,0.5003718872549143,1361.4511327468463,None,001,94,2019_Nov_05_1301,ACPT_experiment_5_30_19,3.1.0,59.95283881048758,
,,,C,U,d,n,R,D,y,L,y,,,,,6,10,130,6,1,0,1,0,,,,,0,7,7,26,,,,,,down,0.6335594440042769,1363.2527804005758,None,001,94,2019_Nov_05_1301,ACPT_experiment_5_30_19,3.1.0,59.95283881048758,
,,,C,U,d,n,R,G,g,L,c ,,,,,6,10,130,6,1,0,1,0,,,,,0,8,8,6,,,,,,down,0.550307712554968,1365.1706425197535,None,001,94,2019_Nov_05_1301,ACPT_experiment_5_30_19,3.1.0,59.95283881048758,
,,,C,U,d,n,L,U,g,L,u,,,,,6,10,130,6,1,0,1,0,,,,,0,9,9,22,,,,,,up,0.700543221026237,1367.0053769705191,None,001,94,2019_Nov_05_1301,ACPT_experiment_5_30_19,3.1.0,59.95283881048758,
,,,C,U,d,n,R,U,y,L,u,,,,,6,10,130,6,1,0,1,0,,,,,0,10,10,30,,,,,,down,0.6838596101461007,1368.9902292057068,None,001,94,2019_Nov_05_1301,ACPT_experiment_5_30_19,3.1.0,59.95283881048758,
,,,C,U,d,n,L,D,y,L,y,,,,,6,10,130,6,1,0,1,0,,,,,0,11,11,32,,,,,,down,0.5003752076772798,1370.958404772714,None,001,94,2019_Nov_05_1301,ACPT_experiment_5_30_19,3.1.0,59.95283881048758,
,,,C,U,d,n,L,U,d,L,u,,,,,6,10,130,6,1,0,1,0,,,,,0,12,12,20,,,,,,down,0.6171399575951,1372.7431022762394,None,001,94,2019_Nov_05_1301,ACPT_experiment_5_30_19,3.1.0,59.95283881048758,
,,,C,U,d,n,R,G,y,L,y,,,,,6,10,130,6,1,0,1,0,,,,,0,13,13,28,,,,,,down,0.4670463216971257,1374.6445343440291,None,001,94,2019_Nov_05_1301,ACPT_experiment_5_30_19,3.1.0,59.95283881048758,
,,,C,U,d,n,L,G,g,L,c ,,,,,6,10,130,6,1,0,1,0,,,,,0,14,14,18,,,,,,up,0.6333602186896314,1376.4130019270524,None,001,94,2019_Nov_05_1301,ACPT_experiment_5_30_19,3.1.0,59.95283881048758,
,,,C,U,d,n,R,G,d,R,i,,,,,6,10,130,6,1,0,1,0,,,,,0,15,15,5,,,,,,up,0.717212040936829,1378.3307176458084,None,001,94,2019_Nov_05_1301,ACPT_experiment_5_30_19,3.1.0,59.95283881048758,
,,,C,U,d,n,R,U,g,R,u,,,,,6,10,130,6,1,0,1,0,,,,,0,16,16,11,,,,,,up,0.55042181432691,1380.3322441343234,None,001,94,2019_Nov_05_1301,ACPT_experiment_5_30_19,3.1.0,59.95283881048758,
,,,C,U,d,n,R,D,y,R,y,,,,,6,10,130,6,1,0,1,0,,,,,0,17,17,27,,,,,,down,0.717215663215029,1382.1669822073682,None,001,94,2019_Nov_05_1301,ACPT_experiment_5_30_19,3.1.0,59.95283881048758,
,,,C,U,d,n,R,D,g,L,i,,,,,6,10,130,6,1,0,1,0,,,,,0,18,18,2,,,,,,up,1.100841213800777,1384.1685135255875,None,001,94,2019_Nov_05_1301,ACPT_experiment_5_30_19,3.1.0,59.95283881048758,
,,,C,U,d,n,R,G,y,R,y,,,,,6,10,130,6,1,0,1,0,,,,,0,19,19,29,,,,,,down,0.583776056257193,1386.5536746203852,None,001,94,2019_Nov_05_1301,ACPT_experiment_5_30_19,3.1.0,59.95283881048758,
,,,C,U,d,n,L,D,y,R,y,,,,,6,10,130,6,1,0,1,0,,,,,0,20,20,33,,,,,,down,0.5170597241267387,1388.4217666335026,None,001,94,2019_Nov_05_1301,ACPT_experiment_5_30_19,3.1.0,59.95283881048758,
,,,C,U,d,n,R,U,d,R,u,,,,,6,10,130,6,1,0,1,0,,,,,0,21,21,9,,,,,,up,0.6671763011227085,1390.2231459367695,None,001,94,2019_Nov_05_1301,ACPT_experiment_5_30_19,3.1.0,59.95283881048758,
,,,C,U,d,n,L,U,g,R,u,,,,,6,10,130,6,1,0,1,0,,,,,0,22,22,23,,,,,,up,0.6504945013812176,1392.1746409114621,None,001,94,2019_Nov_05_1301,ACPT_experiment_5_30_19,3.1.0,59.95283881048758,
,,,C,U,d,n,L,G,d,R,i,,,,,6,10,130,6,1,0,1,0,,,,,0,23,23,17,,,,,,up,0.5504299644535422,1394.1094411065815,None,001,94,2019_Nov_05_1301,ACPT_experiment_5_30_19,3.1.0,59.95283881048758,
,,,C,U,d,n,L,G,y,R,y,,,,,6,10,130,6,1,0,1,0,,,,,0,24,24,35,,,,,,down,0.7505683958615919,1395.9441915557445,None,001,94,2019_Nov_05_1301,ACPT_experiment_5_30_19,3.1.0,59.95283881048758,
,,,C,U,d,n,L,G,y,L,y,,,,,6,10,130,6,1,0,1,0,,,,,0,25,25,34,,,,,,down,0.9674055309769756,1397.979081341885,None,001,94,2019_Nov_05_1301,ACPT_experiment_5_30_19,3.1.0,59.95283881048758,
,,,C,U,d,n,R,G,g,R,c ,,,,,6,10,130,6,1,0,1,0,,,,,0,26,26,7,,,,,,up,0.6338211536231029,1400.230801320441,None,001,94,2019_Nov_05_1301,ACPT_experiment_5_30_19,3.1.0,59.95283881048758,
,,,C,U,d,n,L,U,y,R,u,,,,,6,10,130,6,1,0,1,0,,,,,0,27,27,25,,,,,,down,0.6338018348042169,1402.1489508070435,None,001,94,2019_Nov_05_1301,ACPT_experiment_5_30_19,3.1.0,59.95283881048758,
,,,C,U,d,n,L,D,g,L,i,,,,,6,10,130,6,1,0,1,0,,,,,0,28,28,14,,,,,,up,0.6338585838338986,1404.0670507891737,None,001,94,2019_Nov_05_1301,ACPT_experiment_5_30_19,3.1.0,59.95283881048758,
,,,C,U,d,n,R,U,d,L,u,,,,,6,10,130,6,1,0,1,0,,,,,0,29,29,8,,,,,,down,0.7172102297972742,1405.9852111426117,None,001,94,2019_Nov_05_1301,ACPT_experiment_5_30_19,3.1.0,59.95283881048758,
,,,C,U,d,n,R,D,d,L,c,,,,,6,10,130,6,1,0,1,0,,,,,0,30,30,0,,,,,,down,0.6504797104107638,1407.9867521202405,None,001,94,2019_Nov_05_1301,ACPT_experiment_5_30_19,3.1.0,59.95283881048758,
,,,C,U,d,n,L,U,d,R,u,,,,,6,10,130,6,1,0,1,0,,,,,0,31,31,21,,,,,,down,0.633815418348604,1409.9215514097905,None,001,94,2019_Nov_05_1301,ACPT_experiment_5_30_19,3.1.0,59.95283881048758,
,,,C,U,d,n,R,D,g,R,i,,,,,6,10,130,6,1,0,1,0,,,,,0,32,32,3,,,,,,up,0.6838593082902662,1411.8396864072793,None,001,94,2019_Nov_05_1301,ACPT_experiment_5_30_19,3.1.0,59.95283881048758,
,,,C,U,d,n,L,U,y,L,u,,,,,6,10,130,6,1,0,1,0,,,,,0,33,33,24,,,,,,down,0.7503172512215315,1413.8247928056717,None,001,94,2019_Nov_05_1301,ACPT_experiment_5_30_19,3.1.0,59.95283881048758,
,,,C,U,d,n,L,D,d,L,c ,,,,,6,10,130,6,1,0,1,0,,,,,0,34,34,12,,,,,,down,0.6338108905010813,1415.8594438232903,None,001,94,2019_Nov_05_1301,ACPT_experiment_5_30_19,3.1.0,59.95283881048758,
,,,C,U,d,n,L,G,d,L,i,,,,,6,10,130,6,1,0,1,0,,,,,0,35,35,16,,,,,,down,0.7172087205144635,1417.777566142805,None,001,94,2019_Nov_05_1301,ACPT_experiment_5_30_19,3.1.0,59.95283881048758,
,,,C,U,d,n,R,U,y,R,u,,,,,6,10,130,6,1,0,1,0,,,,,1,0,36,31,,,,,,down,0.8840067953942707,1419.7957792607658,None,001,94,2019_Nov_05_1301,ACPT_experiment_5_30_19,3.1.0,59.95283881048758,
,,,C,U,d,n,L,G,y,L,y,,,,,6,10,130,6,1,0,1,0,,,,,1,1,37,34,,,,,,down,0.650506877499538,1421.9807841146185,None,001,94,2019_Nov_05_1301,ACPT_experiment_5_30_19,3.1.0,59.95283881048758,
,,,C,U,d,n,R,U,d,R,u,,,,,6,10,130,6,1,0,1,0,,,,,1,2,38,9,,,,,,up,0.8006373398957294,1423.9155740466158,None,001,94,2019_Nov_05_1301,ACPT_experiment_5_30_19,3.1.0,59.95283881048758,
,,,C,U,d,n,R,D,g,R,i,,,,,6,10,130,6,1,0,1,0,,,,,1,3,39,3,,,,,,up,0.833975885284417,1426.0005249285205,None,001,94,2019_Nov_05_1301,ACPT_experiment_5_30_19,3.1.0,59.95283881048758,
,,,C,U,d,n,R,D,y,L,y,,,,,6,10,130,6,1,0,1,0,,,,,1,4,40,26,,,,,,down,0.8006098709502112,1428.1188131483877,None,001,94,2019_Nov_05_1301,ACPT_experiment_5_30_19,3.1.0,59.95283881048758,
,,,C,U,d,n,R,G,y,R,y,,,,,6,10,130,6,1,0,1,0,,,,,1,5,41,29,,,,,,down,0.7005229966389379,1430.2037549745955,None,001,94,2019_Nov_05_1301,ACPT_experiment_5_30_19,3.1.0,59.95283881048758,
,,,C,U,d,n,R,U,y,L,u,,,,,6,10,130,6,1,0,1,0,,,,,1,6,42,30,,,,,,down,0.5170603278402268,1432.1885954373784,None,001,94,2019_Nov_05_1301,ACPT_experiment_5_30_19,3.1.0,59.95283881048758,
,,,C,U,d,n,R,U,g,R,u,,,,,6,10,130,6,1,0,1,0,,,,,1,7,43,11,,,,,,up,0.9006834635738414,1433.989973835075,None,001,94,2019_Nov_05_1301,ACPT_experiment_5_30_19,3.1.0,59.95283881048758,
,,,C,U,d,n,L,D,d,L,c ,,,,,6,10,130,6,1,0,1,0,,,,,1,8,44,12,,,,,,down,0.7505644717266478,1436.17498200935,None,001,94,2019_Nov_05_1301,ACPT_experiment_5_30_19,3.1.0,59.95283881048758,
,,,C,U,d,n,L,G,g,R,c ,,,,,6,10,130,6,1,0,1,0,,,,,1,9,45,19,,,,,,up,0.6504923883858282,1438.2098681732123,None,001,94,2019_Nov_05_1301,ACPT_experiment_5_30_19,3.1.0,59.95283881048758,
,,,C,U,d,n,L,U,g,R,u,,,,,6,10,130,6,1,0,1,0,,,,,1,10,46,23,,,,,,up,0.5504145697696003,1440.1446849704425,None,001,94,2019_Nov_05_1301,ACPT_experiment_5_30_19,3.1.0,59.95283881048758,
,,,C,U,d,n,L,G,y,R,y,,,,,6,10,130,6,1,0,1,0,,,,,1,11,47,35,,,,,,down,0.6505246870347037,1441.9793949708283,None,001,94,2019_Nov_05_1301,ACPT_experiment_5_30_19,3.1.0,59.95283881048758,
,,,C,U,d,n,R,G,y,L,y,,,,,6,10,130,6,1,0,1,0,,,,,1,12,48,28,,,,,,down,0.7005335616177035,1443.9142322943026,None,001,94,2019_Nov_05_1301,ACPT_experiment_5_30_19,3.1.0,59.95283881048758,
,,,C,U,d,n,L,D,d,R,c ,,,,,6,10,130,6,1,0,1,0,,,,,1,13,49,13,,,,,,down,0.6171221480590248,1445.8990996223174,None,001,94,2019_Nov_05_1301,ACPT_experiment_5_30_19,3.1.0,59.95283881048758,
,,,C,U,d,n,R,D,y,R,y,,,,,6,10,130,6,1,0,1,0,,,,,1,14,50,27,,,,,,down,0.5337330718848534,1447.8172198288348,None,001,94,2019_Nov_05_1301,ACPT_experiment_5_30_19,3.1.0,59.95283881048758,
,,,C,U,d,n,L,G,g,L,c ,,,,,6,10,130,6,1,0,1,0,,,,,1,15,51,18,,,,,,up,0.8173242711973217,1449.6519621278712,None,001,94,2019_Nov_05_1301,ACPT_experiment_5_30_19,3.1.0,59.95283881048758,
,,,C,U,d,n,L,G,d,L,i,,,,,6,10,130,6,1,0,1,0,,,,,1,16,52,16,,,,,,down,0.8003375963526196,1451.7538393133127,None,001,94,2019_Nov_05_1301,ACPT_experiment_5_30_19,3.1.0,59.95283881048758,
,,,C,U,d,n,R,G,g,L,c ,,,,,6,10,130,6,1,0,1,0,,,,,1,17,53,6,,,,,,up,0.7839304860617631,1453.8384952813785,None,001,94,2019_Nov_05_1301,ACPT_experiment_5_30_19,3.1.0,59.95283881048758,
,,,C,U,d,n,R,U,d,L,u,,,,,6,10,130,6,1,0,1,0,,,,,1,18,54,8,,,,,,up,0.5670882193844591,1455.906749874428,None,001,94,2019_Nov_05_1301,ACPT_experiment_5_30_19,3.1.0,59.95283881048758,
,,,C,U,d,n,L,U,g,L,u,,,,,6,10,130,6,1,0,1,0,,,,,1,19,55,22,,,,,,up,0.6171592764130764,1457.758158578521,None,001,94,2019_Nov_05_1301,ACPT_experiment_5_30_19,3.1.0,59.95283881048758,
,,,C,U,d,n,R,G,d,R,i,,,,,6,10,130,6,1,0,1,0,,,,,1,20,56,5,,,,,,down,0.6505026515078498,1459.6596117762683,None,001,94,2019_Nov_05_1301,ACPT_experiment_5_30_19,3.1.0,59.95283881048758,
,,,C,U,d,n,L,D,y,R,y,,,,,6,10,130,6,1,0,1,0,,,,,1,21,57,33,,,,,,down,0.8006623939882047,1461.5944035194061,None,001,94,2019_Nov_05_1301,ACPT_experiment_5_30_19,3.1.0,59.95283881048758,
,,,C,U,d,n,R,U,g,L,u,,,,,6,10,130,6,1,0,1,0,,,,,1,22,58,10,,,,,,up,0.6671793196874205,1463.6793540994531,None,001,94,2019_Nov_05_1301,ACPT_experiment_5_30_19,3.1.0,59.95283881048758,
,,,C,U,d,n,R,D,d,R,c ,,,,,6,10,130,6,1,0,1,0,,,,,1,23,59,1,,,,,,down,1.1008424212277532,1465.6308533001375,None,001,94,2019_Nov_05_1301,ACPT_experiment_5_30_19,3.1.0,59.95283881048758,
,,,C,U,d,n,L,U,y,L,u,,,,,6,10,130,6,1,0,1,0,,,,,1,24,60,24,,,,,,down,0.5670864082449043,1468.0160116782254,None,001,94,2019_Nov_05_1301,ACPT_experiment_5_30_19,3.1.0,59.95283881048758,
,,,C,U,d,n,L,U,y,R,u,,,,,6,10,130,6,1,0,1,0,,,,,1,25,61,25,,,,,,down,0.43367306280561024,1469.850734356587,None,001,94,2019_Nov_05_1301,ACPT_experiment_5_30_19,3.1.0,59.95283881048758,
,,,C,U,d,n,R,G,d,L,i,,,,,6,10,130,6,1,0,1,0,,,,,1,26,62,4,,,,,,up,0.8172892558395688,1471.5687254892491,None,001,94,2019_Nov_05_1301,ACPT_experiment_5_30_19,3.1.0,59.95283881048758,
,,,C,U,d,n,L,D,g,R,i,,,,,6,10,130,6,1,0,1,0,,,,,1,27,63,15,,,,,,up,0.7172476600080699,1473.67033673908,None,001,94,2019_Nov_05_1301,ACPT_experiment_5_30_19,3.1.0,59.95283881048758,
,,,C,U,d,n,L,U,d,R,u,,,,,6,10,130,6,1,0,1,0,,,,,1,28,64,21,,,,,,down,0.7839479937401848,1475.6718475310554,None,001,94,2019_Nov_05_1301,ACPT_experiment_5_30_19,3.1.0,59.95283881048758,
,,,C,U,d,n,R,D,g,L,i,,,,,6,10,130,6,1,0,1,0,,,,,1,29,65,2,,,,,,up,0.7672444603294934,1477.7401193299265,None,001,94,2019_Nov_05_1301,ACPT_experiment_5_30_19,3.1.0,59.95283881048758,
,,,C,U,d,n,R,D,d,L,c,,,,,6,10,130,6,1,0,1,0,,,,,1,30,66,0,,,,,,up,0.4837003506363544,1479.791686387961,None,001,94,2019_Nov_05_1301,ACPT_experiment_5_30_19,3.1.0,59.95283881048758,
,,,C,U,d,n,L,D,g,L,i,,,,,6,10,130,6,1,0,1,0,,,,,1,31,67,14,,,,,,up,0.5837808859614597,1481.559709638159,None,001,94,2019_Nov_05_1301,ACPT_experiment_5_30_19,3.1.0,59.95283881048758,
,,,C,U,d,n,R,G,g,R,c ,,,,,6,10,130,6,1,0,1,0,,,,,1,32,68,7,,,,,,up,0.7336221697923975,1483.4447593478935,None,001,94,2019_Nov_05_1301,ACPT_experiment_5_30_19,3.1.0,59.95283881048758,
,,,C,U,d,n,L,G,d,R,i,,,,,6,10,130,6,1,0,1,0,,,,,1,33,69,17,,,,,,down,1.050804870274078,1485.462694757838,None,001,94,2019_Nov_05_1301,ACPT_experiment_5_30_19,3.1.0,59.95283881048758,
,,,C,U,d,n,L,D,y,L,y,,,,,6,10,130,6,1,0,1,0,,,,,1,34,70,32,,,,,,down,0.9507303720802156,1487.7978134719779,None,001,94,2019_Nov_05_1301,ACPT_experiment_5_30_19,3.1.0,59.95283881048758,
,,,C,U,d,n,L,U,d,L,u,,,,,6,10,130,6,1,0,1,0,,,,,1,35,71,20,,,,,,down,0.7172295486161602,1490.0328410858137,None,001,94,2019_Nov_05_1301,ACPT_experiment_5_30_19,3.1.0,59.95283881048758,
,,,C,U,d,n,,,,,,,,,,6,10,130,6,2,0,2,0,0,0,0,0,,,,,,,,,,,,,,001,94,2019_Nov_05_1301,ACPT_experiment_5_30_19,3.1.0,59.95283881048758,
,,,C,U,d,n,L,G,d,R,i,,,,,6,10,130,6,2,0,2,0,,,,,0,0,0,17,,,,,,up,0.6805292269573329,1517.0735394973244,None,001,94,2019_Nov_05_1301,ACPT_experiment_5_30_19,3.1.0,59.95283881048758,
,,,C,U,d,n,R,U,d,R,u,,,,,6,10,130,6,2,0,2,0,,,,,0,1,1,9,,,,,,down,0.6338178332007374,1519.038387095995,None,001,94,2019_Nov_05_1301,ACPT_experiment_5_30_19,3.1.0,59.95283881048758,
,,,C,U,d,n,R,G,g,R,c ,,,,,6,10,130,6,2,0,2,0,,,,,0,2,2,7,,,,,,up,0.6838647417071115,1520.956521791627,None,001,94,2019_Nov_05_1301,ACPT_experiment_5_30_19,3.1.0,59.95283881048758,
,,,C,U,d,n,R,D,g,L,i,,,,,6,10,130,6,2,0,2,0,,,,,0,3,3,2,,,,,,up,0.8506504404695079,1522.9246940382127,None,001,94,2019_Nov_05_1301,ACPT_experiment_5_30_19,3.1.0,59.95283881048758,
,,,C,U,d,n,R,G,d,L,i,,,,,6,10,130,6,2,0,2,0,,,,,0,4,4,4,,,,,,down,0.7339173854879846,1525.059642927864,None,001,94,2019_Nov_05_1301,ACPT_experiment_5_30_19,3.1.0,59.95283881048758,
,,,C,U,d,n,L,U,y,L,u,,,,,6,10,130,6,2,0,2,0,,,,,0,5,5,24,,,,,,down,0.6505044626464951,1527.0778720442204,None,001,94,2019_Nov_05_1301,ACPT_experiment_5_30_19,3.1.0,59.95283881048758,
,,,C,U,d,n,R,G,y,L,y,,,,,6,10,130,6,2,0,2,0,,,,,0,6,6,28,,,,,,down,0.583773037690662,1529.0126918600154,None,001,94,2019_Nov_05_1301,ACPT_experiment_5_30_19,3.1.0,59.95283881048758,
,,,C,U,d,n,L,U,g,L,u,,,,,6,10,130,6,2,0,2,0,,,,,0,7,7,22,,,,,,up,0.6505258944607704,1530.880755196762,None,001,94,2019_Nov_05_1301,ACPT_experiment_5_30_19,3.1.0,59.95283881048758,
,,,C,U,d,n,R,D,g,R,i,,,,,6,10,130,6,2,0,2,0,,,,,0,8,8,3,,,,,,up,0.7672767589792784,1532.815576219983,None,001,94,2019_Nov_05_1301,ACPT_experiment_5_30_19,3.1.0,59.95283881048758,
,,,C,U,d,n,R,D,d,R,c ,,,,,6,10,130,6,2,0,2,0,,,,,0,9,9,1,,,,,,down,0.9840662007609353,1534.8671882546414,None,001,94,2019_Nov_05_1301,ACPT_experiment_5_30_19,3.1.0,59.95283881048758,
,,,C,U,d,n,R,U,y,R,u,,,,,6,10,130,6,2,0,2,0,,,,,0,10,10,31,,,,,,down,0.5336554947552941,1537.1356540265251,None,001,94,2019_Nov_05_1301,ACPT_experiment_5_30_19,3.1.0,59.95283881048758,
,,,C,U,d,n,L,G,d,L,i,,,,,6,10,130,6,2,0,2,0,,,,,0,11,11,16,,,,,,up,0.6338136072099587,1538.9536291004188,None,001,94,2019_Nov_05_1301,ACPT_experiment_5_30_19,3.1.0,59.95283881048758,
,,,C,U,d,n,L,G,g,L,c ,,,,,6,10,130,6,2,0,2,0,,,,,0,12,12,18,,,,,,up,0.4837148397509736,1540.8550662997704,None,001,94,2019_Nov_05_1301,ACPT_experiment_5_30_19,3.1.0,59.95283881048758,
,,,C,U,d,n,L,G,g,R,c ,,,,,6,10,130,6,2,0,2,0,,,,,0,13,13,19,,,,,,up,0.7672695144210593,1542.6064062409441,None,001,94,2019_Nov_05_1301,ACPT_experiment_5_30_19,3.1.0,59.95283881048758,
,,,C,U,d,n,L,G,y,L,y,,,,,6,10,130,6,2,0,2,0,,,,,0,14,14,34,,,,,,down,0.7672511011724055,1544.6413165533295,None,001,94,2019_Nov_05_1301,ACPT_experiment_5_30_19,3.1.0,59.95283881048758,
,,,C,U,d,n,R,D,y,L,y,,,,,6,10,130,6,2,0,2,0,,,,,0,15,15,26,,,,,,down,0.5002103940068992,1546.7096988316944,None,001,94,2019_Nov_05_1301,ACPT_experiment_5_30_19,3.1.0,59.95283881048758,
,,,C,U,d,n,L,D,g,L,i,,,,,6,10,130,6,2,0,2,0,,,,,0,16,16,14,,,,,,up,0.5837383241887437,1548.544335782798,None,001,94,2019_Nov_05_1301,ACPT_experiment_5_30_19,3.1.0,59.95283881048758,
,,,C,U,d,n,L,U,d,R,u,,,,,6,10,130,6,2,0,2,0,,,,,0,17,17,21,,,,,,down,0.7841309188024752,1550.4124003269708,None,001,94,2019_Nov_05_1301,ACPT_experiment_5_30_19,3.1.0,59.95283881048758,
,,,C,U,d,n,R,U,y,L,u,,,,,6,10,130,6,2,0,2,0,,,,,0,18,18,30,,,,,,down,0.717211739080085,1552.5140058415273,None,001,94,2019_Nov_05_1301,ACPT_experiment_5_30_19,3.1.0,59.95283881048758,
,,,C,U,d,n,R,G,y,R,y,,,,,6,10,130,6,2,0,2,0,,,,,0,19,19,29,,,,,,down,0.6504866531113294,1554.5322234873365,None,001,94,2019_Nov_05_1301,ACPT_experiment_5_30_19,3.1.0,59.95283881048758,
,,,C,U,d,n,L,D,y,R,y,,,,,6,10,130,6,2,0,2,0,,,,,0,20,20,33,,,,,,down,0.5837639819947071,1556.4837229898767,None,001,94,2019_Nov_05_1301,ACPT_experiment_5_30_19,3.1.0,59.95283881048758,
,,,C,U,d,n,L,U,d,L,u,,,,,6,10,130,6,2,0,2,0,,,,,0,21,21,20,,,,,,down,0.6504978218026736,1558.368482011765,None,001,94,2019_Nov_05_1301,ACPT_experiment_5_30_19,3.1.0,59.95283881048758,
,,,C,U,d,n,L,D,d,L,c ,,,,,6,10,130,6,2,0,2,0,,,,,0,22,22,12,,,,,,down,0.6838611194289115,1560.303296695999,None,001,94,2019_Nov_05_1301,ACPT_experiment_5_30_19,3.1.0,59.95283881048758,
,,,C,U,d,n,L,U,g,R,u,,,,,6,10,130,6,2,0,2,0,,,,,0,23,23,23,,,,,,up,0.5503982695172454,1562.2714671314452,None,001,94,2019_Nov_05_1301,ACPT_experiment_5_30_19,3.1.0,59.95283881048758,
,,,C,U,d,n,L,D,d,R,c ,,,,,6,10,130,6,2,0,2,0,,,,,0,24,24,13,,,,,,down,0.8173016319569797,1564.1061904135195,None,001,94,2019_Nov_05_1301,ACPT_experiment_5_30_19,3.1.0,59.95283881048758,
,,,C,U,d,n,R,U,d,L,u,,,,,6,10,130,6,2,0,2,0,,,,,0,25,25,8,,,,,,down,0.6004512151530434,1566.2078194728856,None,001,94,2019_Nov_05_1301,ACPT_experiment_5_30_19,3.1.0,59.95283881048758,
,,,C,U,d,n,R,G,g,L,c ,,,,,6,10,130,6,2,0,2,0,,,,,0,26,26,6,,,,,,up,0.667176301121799,1568.0925935876012,None,001,94,2019_Nov_05_1301,ACPT_experiment_5_30_19,3.1.0,59.95283881048758,
,,,C,U,d,n,L,U,y,R,u,,,,,6,10,130,6,2,0,2,0,,,,,0,27,27,25,,,,,,down,0.7672489881761066,1570.0440873548678,None,001,94,2019_Nov_05_1301,ACPT_experiment_5_30_19,3.1.0,59.95283881048758,
,,,C,U,d,n,L,G,y,R,y,,,,,6,10,130,6,2,0,2,0,,,,,0,28,28,35,,,,,,down,0.517058516700672,1572.0956619593144,None,001,94,2019_Nov_05_1301,ACPT_experiment_5_30_19,3.1.0,59.95283881048758,
,,,C,U,d,n,L,D,g,R,i,,,,,6,10,130,6,2,0,2,0,,,,,0,29,29,15,,,,,,up,0.6168661737146977,1573.9139886960766,None,001,94,2019_Nov_05_1301,ACPT_experiment_5_30_19,3.1.0,59.95283881048758,
,,,C,U,d,n,R,G,d,R,i,,,,,6,10,130,6,2,0,2,0,,,,,0,30,30,5,,,,,,down,0.7338950481034772,1575.8151690155128,None,001,94,2019_Nov_05_1301,ACPT_experiment_5_30_19,3.1.0,59.95283881048758,
,,,C,U,d,n,R,U,g,L,u,,,,,6,10,130,6,2,0,2,0,,,,,0,31,31,10,,,,,,up,0.8506498367560198,1577.8333818316169,None,001,94,2019_Nov_05_1301,ACPT_experiment_5_30_19,3.1.0,59.95283881048758,
,,,C,U,d,n,R,D,y,R,y,,,,,6,10,130,6,2,0,2,0,,,,,0,32,32,27,,,,,,down,0.6336424545525006,1579.985167071557,None,001,94,2019_Nov_05_1301,ACPT_experiment_5_30_19,3.1.0,59.95283881048758,
,,,C,U,d,n,R,U,g,R,u,,,,,6,10,130,6,2,0,2,0,,,,,0,33,33,11,,,,,,up,0.6339062771676254,1581.919844712922,None,001,94,2019_Nov_05_1301,ACPT_experiment_5_30_19,3.1.0,59.95283881048758,
,,,C,U,d,n,R,D,d,L,c,,,,,6,10,130,6,2,0,2,0,,,,,0,34,34,0,,,,,,down,0.7505677921490133,1583.8379775974154,None,001,94,2019_Nov_05_1301,ACPT_experiment_5_30_19,3.1.0,59.95283881048758,
,,,C,U,d,n,L,D,y,L,y,,,,,6,10,130,6,2,0,2,0,,,,,0,35,35,32,,,,,,down,0.5670815785406376,1585.8895627668408,None,001,94,2019_Nov_05_1301,ACPT_experiment_5_30_19,3.1.0,59.95283881048758,
,,,C,U,d,n,L,G,d,R,i,,,,,6,10,130,6,2,0,2,0,,,,,1,0,36,17,,,,,,down,0.7172162669276076,1587.7409627170955,None,001,94,2019_Nov_05_1301,ACPT_experiment_5_30_19,3.1.0,59.95283881048758,
,,,C,U,d,n,R,U,d,R,u,,,,,6,10,130,6,2,0,2,0,,,,,1,1,37,9,,,,,,up,0.7005305430511726,1589.7424973557363,None,001,94,2019_Nov_05_1301,ACPT_experiment_5_30_19,3.1.0,59.95283881048758,
,,,C,U,d,n,L,D,d,R,c ,,,,,6,10,130,6,2,0,2,0,,,,,1,2,38,13,,,,,,down,0.6838571952939674,1591.727346874215,None,001,94,2019_Nov_05_1301,ACPT_experiment_5_30_19,3.1.0,59.95283881048758,
,,,C,U,d,n,L,D,y,R,y,,,,,6,10,130,6,2,0,2,0,,,,,1,3,39,33,,,,,,down,0.4670194564650956,1593.695518818944,None,001,94,2019_Nov_05_1301,ACPT_experiment_5_30_19,3.1.0,59.95283881048758,
,,,C,U,d,n,L,G,y,L,y,,,,,6,10,130,6,2,0,2,0,,,,,1,4,40,34,,,,,,down,0.5504206069008433,1595.4468602694005,None,001,94,2019_Nov_05_1301,ACPT_experiment_5_30_19,3.1.0,59.95283881048758,
,,,C,U,d,n,R,D,y,L,y,,,,,6,10,130,6,2,0,2,0,,,,,1,5,41,26,,,,,,down,0.5337357885946403,1597.281597436876,None,001,94,2019_Nov_05_1301,ACPT_experiment_5_30_19,3.1.0,59.95283881048758,
,,,C,U,d,n,R,D,y,R,y,,,,,6,10,130,6,2,0,2,0,,,,,1,6,42,27,,,,,,down,0.5137175685331385,1599.1196788729403,None,001,94,2019_Nov_05_1301,ACPT_experiment_5_30_19,3.1.0,59.95283881048758,
,,,C,U,d,n,R,G,d,L,i,,,,,6,10,130,6,2,0,2,0,,,,,1,7,43,4,,,,,,down,0.7172105316540183,1600.9177127001913,None,001,94,2019_Nov_05_1301,ACPT_experiment_5_30_19,3.1.0,59.95283881048758,
,,,C,U,d,n,L,U,d,L,u,,,,,6,10,130,6,2,0,2,0,,,,,1,8,44,20,,,,,,up,0.8840049842556255,1602.9192443202674,None,001,94,2019_Nov_05_1301,ACPT_experiment_5_30_19,3.1.0,59.95283881048758,
,,,C,U,d,n,R,U,y,L,u,,,,,6,10,130,6,2,0,2,0,,,,,1,9,45,30,,,,,,down,0.7005272226306261,1605.0875746189358,None,001,94,2019_Nov_05_1301,ACPT_experiment_5_30_19,3.1.0,59.95283881048758,
,,,C,U,d,n,L,U,d,R,u,,,,,6,10,130,6,2,0,2,0,,,,,1,10,46,21,,,,,,up,0.7005525785798454,1607.0723957628998,None,001,94,2019_Nov_05_1301,ACPT_experiment_5_30_19,3.1.0,59.95283881048758,
,,,C,U,d,n,L,U,y,R,u,,,,,6,10,130,6,2,0,2,0,,,,,1,11,47,25,,,,,,down,0.6171559559916204,1609.0405746503293,None,001,94,2019_Nov_05_1301,ACPT_experiment_5_30_19,3.1.0,59.95283881048758,
,,,C,U,d,n,R,G,y,L,y,,,,,6,10,130,6,2,0,2,0,,,,,1,12,48,28,,,,,,down,0.5504341904452303,1610.9420501854602,None,001,94,2019_Nov_05_1301,ACPT_experiment_5_30_19,3.1.0,59.95283881048758,
,,,C,U,d,n,R,D,g,R,i,,,,,6,10,130,6,2,0,2,0,,,,,1,13,49,3,,,,,,up,0.7172126446503171,1612.7767897677877,None,001,94,2019_Nov_05_1301,ACPT_experiment_5_30_19,3.1.0,59.95283881048758,
,,,C,U,d,n,L,U,g,R,u,,,,,6,10,130,6,2,0,2,0,,,,,1,14,50,23,,,,,,up,0.4503645219565442,1614.7616166470261,None,001,94,2019_Nov_05_1301,ACPT_experiment_5_30_19,3.1.0,59.95283881048758,
,,,C,U,d,n,L,U,g,L,u,,,,,6,10,130,6,2,0,2,0,,,,,1,15,51,22,,,,,,up,0.8506655332957962,1616.4796026481272,None,001,94,2019_Nov_05_1301,ACPT_experiment_5_30_19,3.1.0,59.95283881048758,
,,,C,U,d,n,R,U,g,L,u,,,,,6,10,130,6,2,0,2,0,,,,,1,16,52,10,,,,,,up,0.7172060038064956,1618.6145904772711,None,001,94,2019_Nov_05_1301,ACPT_experiment_5_30_19,3.1.0,59.95283881048758,
,,,C,U,d,n,L,U,y,L,u,,,,,6,10,130,6,2,0,2,0,,,,,1,17,53,24,,,,,,down,0.8006089653808885,1620.616117267643,None,001,94,2019_Nov_05_1301,ACPT_experiment_5_30_19,3.1.0,59.95283881048758,
,,,C,U,d,n,R,U,y,R,u,,,,,6,10,130,6,2,0,2,0,,,,,1,18,54,31,,,,,,down,0.6671808289702312,1622.7010506418674,None,001,94,2019_Nov_05_1301,ACPT_experiment_5_30_19,3.1.0,59.95283881048758,
,,,C,U,d,n,L,G,y,R,y,,,,,6,10,130,6,2,0,2,0,,,,,1,19,55,35,,,,,,down,0.5003785280996453,1624.6525413905683,None,001,94,2019_Nov_05_1301,ACPT_experiment_5_30_19,3.1.0,59.95283881048758,
,,,C,U,d,n,L,D,g,R,i,,,,,6,10,130,6,2,0,2,0,,,,,1,20,56,15,,,,,,up,0.7172213984895279,1626.43723225325,None,001,94,2019_Nov_05_1301,ACPT_experiment_5_30_19,3.1.0,59.95283881048758,
,,,C,U,d,n,R,U,g,R,u,,,,,6,10,130,6,2,0,2,0,,,,,1,21,57,11,,,,,,up,0.5170594222709042,1628.4387708160266,None,001,94,2019_Nov_05_1301,ACPT_experiment_5_30_19,3.1.0,59.95283881048758,
,,,C,U,d,n,L,G,g,R,c ,,,,,6,10,130,6,2,0,2,0,,,,,1,22,58,19,,,,,,up,0.500107762783955,1630.2571008732102,None,001,94,2019_Nov_05_1301,ACPT_experiment_5_30_19,3.1.0,59.95283881048758,
,,,C,U,d,n,R,U,d,L,u,,,,,6,10,130,6,2,0,2,0,,,,,1,23,59,8,,,,,,down,0.8506519497523186,1632.0415279132776,None,001,94,2019_Nov_05_1301,ACPT_experiment_5_30_19,3.1.0,59.95283881048758,
,,,C,U,d,n,R,D,d,L,c,,,,,6,10,130,6,2,0,2,0,,,,,1,24,60,0,,,,,,up,0.7839319953445738,1634.1764937068947,None,001,94,2019_Nov_05_1301,ACPT_experiment_5_30_19,3.1.0,59.95283881048758,
,,,C,U,d,n,R,D,g,L,i,,,,,6,10,130,6,2,0,2,0,,,,,1,25,61,2,,,,,,up,0.6338359445935566,1636.2280435591056,None,001,94,2019_Nov_05_1301,ACPT_experiment_5_30_19,3.1.0,59.95283881048758,
,,,C,U,d,n,R,G,g,L,c ,,,,,6,10,130,6,2,0,2,0,,,,,1,26,62,6,,,,,,up,0.5170609315537149,1638.1461990828393,None,001,94,2019_Nov_05_1301,ACPT_experiment_5_30_19,3.1.0,59.95283881048758,
,,,C,U,d,n,L,D,y,L,y,,,,,6,10,130,6,2,0,2,0,,,,,1,27,63,32,,,,,,down,0.6337982125260169,1639.9642668266906,None,001,94,2019_Nov_05_1301,ACPT_experiment_5_30_19,3.1.0,59.95283881048758,
,,,C,U,d,n,R,G,g,R,c ,,,,,6,10,130,6,2,0,2,0,,,,,1,28,64,7,,,,,,up,0.7672438566160054,1641.89907577565,None,001,94,2019_Nov_05_1301,ACPT_experiment_5_30_19,3.1.0,59.95283881048758,
,,,C,U,d,n,R,G,y,R,y,,,,,6,10,130,6,2,0,2,0,,,,,1,29,65,29,,,,,,down,0.7170140230473407,1643.9674791839734,None,001,94,2019_Nov_05_1301,ACPT_experiment_5_30_19,3.1.0,59.95283881048758,
,,,C,U,d,n,R,G,d,R,i,,,,,6,10,130,6,2,0,2,0,,,,,1,30,66,5,,,,,,up,0.6504899735336949,1645.9855305068295,None,001,94,2019_Nov_05_1301,ACPT_experiment_5_30_19,3.1.0,59.95283881048758,
,,,C,U,d,n,R,D,d,R,c ,,,,,6,10,130,6,2,0,2,0,,,,,1,31,67,1,,,,,,down,0.6838577990074555,1647.920343379924,None,001,94,2019_Nov_05_1301,ACPT_experiment_5_30_19,3.1.0,59.95283881048758,
,,,C,U,d,n,L,D,g,L,i,,,,,6,10,130,6,2,0,2,0,,,,,1,32,68,14,,,,,,up,0.7339243281885501,1649.8885186450743,None,001,94,2019_Nov_05_1301,ACPT_experiment_5_30_19,3.1.0,59.95283881048758,
,,,C,U,d,n,L,G,g,L,c ,,,,,6,10,130,6,2,0,2,0,,,,,1,33,69,18,,,,,,up,0.5337385053026082,1651.9067302537524,None,001,94,2019_Nov_05_1301,ACPT_experiment_5_30_19,3.1.0,59.95283881048758,
,,,C,U,d,n,L,D,d,L,c ,,,,,6,10,130,6,2,0,2,0,,,,,1,34,70,12,,,,,,up,0.5337294496066534,1653.724794979039,None,001,94,2019_Nov_05_1301,ACPT_experiment_5_30_19,3.1.0,59.95283881048758,
,,,C,U,d,n,L,G,d,L,i,,,,,6,10,130,6,2,0,2,0,,,,,1,35,71,16,,,,,,down,0.6638471253600073,1655.5628543795765,None,001,94,2019_Nov_05_1301,ACPT_experiment_5_30_19,3.1.0,59.95283881048758,
,,,C,U,d,n,,,,,,,,,,6,10,130,6,3,0,3,0,0,0,0,0,,,,,,,,,,,,,,001,94,2019_Nov_05_1301,ACPT_experiment_5_30_19,3.1.0,59.95283881048758,
,,,C,U,d,n,R,G,y,R,y,,,,,6,10,130,6,3,0,3,0,,,,,0,0,0,29,,,,,,down,0.9170981202787516,1688.551706213898,None,001,94,2019_Nov_05_1301,ACPT_experiment_5_30_19,3.1.0,59.95283881048758,
,,,C,U,d,n,L,D,y,R,y,,,,,6,10,130,6,3,0,3,0,,,,,0,1,1,33,,,,,,down,0.6504920865290842,1690.7531230077466,None,001,94,2019_Nov_05_1301,ACPT_experiment_5_30_19,3.1.0,59.95283881048758,
,,,C,U,d,n,R,U,y,R,u,,,,,6,10,130,6,3,0,3,0,,,,,0,2,2,31,,,,,,down,0.5004090156098755,1692.6879388994066,None,001,94,2019_Nov_05_1301,ACPT_experiment_5_30_19,3.1.0,59.95283881048758,
,,,C,U,d,n,L,G,y,R,y,,,,,6,10,130,6,3,0,3,0,,,,,0,3,3,35,,,,,,down,0.36694465641448915,1694.4726373085023,None,001,94,2019_Nov_05_1301,ACPT_experiment_5_30_19,3.1.0,59.95283881048758,
,,,C,U,d,n,L,G,d,R,i,,,,,6,10,130,6,3,0,3,0,,,,,0,4,4,17,,,,,,up,0.6504914828155961,1696.1239024496263,None,001,94,2019_Nov_05_1301,ACPT_experiment_5_30_19,3.1.0,59.95283881048758,
,,,C,U,d,n,L,U,y,L,u,,,,,6,10,130,6,3,0,3,0,,,,,0,5,5,24,,,,,,down,0.7505765459882241,1698.0587141152946,None,001,94,2019_Nov_05_1301,ACPT_experiment_5_30_19,3.1.0,59.95283881048758,
,,,C,U,d,n,R,D,g,L,i,,,,,6,10,130,6,3,0,3,0,,,,,0,6,6,2,,,,,,up,0.5837790748219049,1700.0936035995792,None,001,94,2019_Nov_05_1301,ACPT_experiment_5_30_19,3.1.0,59.95283881048758,
,,,C,U,d,n,L,G,d,L,i,,,,,6,10,130,6,3,0,3,0,,,,,0,7,7,16,,,,,,up,0.5003788299563894,1701.9616971219793,None,001,94,2019_Nov_05_1301,ACPT_experiment_5_30_19,3.1.0,59.95283881048758,
,,,C,U,d,n,L,D,d,L,c ,,,,,6,10,130,6,3,0,3,0,,,,,0,8,8,12,,,,,,down,0.6840401203562578,1703.746398247783,None,001,94,2019_Nov_05_1301,ACPT_experiment_5_30_19,3.1.0,59.95283881048758,
,,,C,U,d,n,R,D,y,L,y,,,,,6,10,130,6,3,0,3,0,,,,,0,9,9,26,,,,,,down,0.5170621389797816,1705.7145750222162,None,001,94,2019_Nov_05_1301,ACPT_experiment_5_30_19,3.1.0,59.95283881048758,
,,,C,U,d,n,L,D,g,L,i,,,,,6,10,130,6,3,0,3,0,,,,,0,10,10,14,,,,,,up,0.6000086934682258,1707.533057215096,None,001,94,2019_Nov_05_1301,ACPT_experiment_5_30_19,3.1.0,59.95283881048758,
,,,C,U,d,n,R,U,g,L,u,,,,,6,10,130,6,3,0,3,0,,,,,0,11,11,10,,,,,,up,0.5337430331510404,1709.417405410235,None,001,94,2019_Nov_05_1301,ACPT_experiment_5_30_19,3.1.0,59.95283881048758,
,,,C,U,d,n,R,U,y,L,u,,,,,6,10,130,6,3,0,3,0,,,,,0,12,12,30,,,,,,down,0.6169703142204526,1711.252284148426,None,001,94,2019_Nov_05_1301,ACPT_experiment_5_30_19,3.1.0,59.95283881048758,
,,,C,U,d,n,L,U,d,R,u,,,,,6,10,130,6,3,0,3,0,,,,,0,13,13,21,,,,,,down,0.6505539671188671,1713.170280593764,None,001,94,2019_Nov_05_1301,ACPT_experiment_5_30_19,3.1.0,59.95283881048758,
,,,C,U,d,n,L,D,y,L,y,,,,,6,10,130,6,3,0,3,0,,,,,0,14,14,32,,,,,,down,0.7672441584727494,1715.1050958817104,None,001,94,2019_Nov_05_1301,ACPT_experiment_5_30_19,3.1.0,59.95283881048758,
,,,C,U,d,n,R,G,y,L,y,,,,,6,10,130,6,3,0,3,0,,,,,0,15,15,28,,,,,,down,0.5670933509454699,1717.1733432302026,None,001,94,2019_Nov_05_1301,ACPT_experiment_5_30_19,3.1.0,59.95283881048758,
,,,C,U,d,n,R,G,d,L,i,,,,,6,10,130,6,3,0,3,0,,,,,0,16,16,4,,,,,,up,0.6504926902416628,1719.0414397711684,None,001,94,2019_Nov_05_1301,ACPT_experiment_5_30_19,3.1.0,59.95283881048758,
,,,C,U,d,n,L,G,g,R,c ,,,,,6,10,130,6,3,0,3,0,,,,,0,17,17,19,,,,,,up,0.7004218746988045,1720.976248418272,None,001,94,2019_Nov_05_1301,ACPT_experiment_5_30_19,3.1.0,59.95283881048758,
,,,C,U,d,n,R,U,g,R,u,,,,,6,10,130,6,3,0,3,0,,,,,0,18,18,11,,,,,,up,0.4837272158683845,1722.961122085273,None,001,94,2019_Nov_05_1301,ACPT_experiment_5_30_19,3.1.0,59.95283881048758,
,,,C,U,d,n,R,U,d,R,u,,,,,6,10,130,6,3,0,3,0,,,,,0,19,19,9,,,,,,down,0.6840331776556923,1724.7124236906666,None,001,94,2019_Nov_05_1301,ACPT_experiment_5_30_19,3.1.0,59.95283881048758,
,,,C,U,d,n,L,U,g,R,u,,,,,6,10,130,6,3,0,3,0,,,,,0,20,20,23,,,,,,up,0.6002142577708582,1726.6975744619713,None,001,94,2019_Nov_05_1301,ACPT_experiment_5_30_19,3.1.0,59.95283881048758,
,,,C,U,d,n,L,U,g,L,u,,,,,6,10,130,6,3,0,3,0,,,,,0,21,21,22,,,,,,up,0.75057624413148,1728.5820663408222,None,001,94,2019_Nov_05_1301,ACPT_experiment_5_30_19,3.1.0,59.95283881048758,
,,,C,U,d,n,L,U,y,R,u,,,,,6,10,130,6,3,0,3,0,,,,,0,22,22,25,,,,,,down,0.7506006945113768,1730.6002625548172,None,001,94,2019_Nov_05_1301,ACPT_experiment_5_30_19,3.1.0,59.95283881048758,
,,,C,U,d,n,R,D,y,R,y,,,,,6,10,130,6,3,0,3,0,,,,,0,23,23,27,,,,,,down,0.450363314529568,1732.6351544539539,None,001,94,2019_Nov_05_1301,ACPT_experiment_5_30_19,3.1.0,59.95283881048758,
,,,C,U,d,n,R,D,g,R,i,,,,,6,10,130,6,3,0,3,0,,,,,0,24,24,3,,,,,,up,0.6338501318514318,1734.3698373476227,None,001,94,2019_Nov_05_1301,ACPT_experiment_5_30_19,3.1.0,59.95283881048758,
,,,C,U,d,n,L,U,d,L,u,,,,,6,10,130,6,3,0,3,0,,,,,0,25,25,20,,,,,,up,0.6672227870294591,1736.2879738543943,None,001,94,2019_Nov_05_1301,ACPT_experiment_5_30_19,3.1.0,59.95283881048758,
,,,C,U,d,n,L,G,g,L,c ,,,,,6,10,130,6,3,0,3,0,,,,,0,26,26,18,,,,,,up,0.43368604263650923,1738.2394748662173,None,001,94,2019_Nov_05_1301,ACPT_experiment_5_30_19,3.1.0,59.95283881048758,
,,,C,U,d,n,R,D,d,L,c,,,,,6,10,130,6,3,0,3,0,,,,,0,27,27,0,,,,,,up,0.3970110769269013,1739.9774543351432,None,001,94,2019_Nov_05_1301,ACPT_experiment_5_30_19,3.1.0,59.95283881048758,
,,,C,U,d,n,R,G,d,R,i,,,,,6,10,130,6,3,0,3,0,,,,,0,28,28,5,,,,,,up,0.7172884106412312,1741.642045235013,None,001,94,2019_Nov_05_1301,ACPT_experiment_5_30_19,3.1.0,59.95283881048758,
,,,C,U,d,n,L,D,g,R,i,,,,,6,10,130,6,3,0,3,0,,,,,0,29,29,15,,,,,,up,0.48373778084715013,1743.6436046258914,None,001,94,2019_Nov_05_1301,ACPT_experiment_5_30_19,3.1.0,59.95283881048758,
,,,C,U,d,n,L,D,d,R,c ,,,,,6,10,130,6,3,0,3,0,,,,,0,30,30,13,,,,,,up,0.4670602070973473,1745.4116239519544,None,001,94,2019_Nov_05_1301,ACPT_experiment_5_30_19,3.1.0,59.95283881048758,
,,,C,U,d,n,R,U,d,L,u,,,,,6,10,130,6,3,0,3,0,,,,,0,31,31,8,,,,,,up,0.5803626625202014,1747.1829709444974,None,001,94,2019_Nov_05_1301,ACPT_experiment_5_30_19,3.1.0,59.95283881048758,
,,,C,U,d,n,R,G,g,R,c ,,,,,6,10,130,6,3,0,3,0,,,,,0,32,32,7,,,,,,up,0.5170884004983236,1749.0477470635396,None,001,94,2019_Nov_05_1301,ACPT_experiment_5_30_19,3.1.0,59.95283881048758,
,,,C,U,d,n,L,G,y,L,y,,,,,6,10,130,6,3,0,3,0,,,,,0,33,33,34,,,,,,down,0.7672945685135346,1750.8658009219907,None,001,94,2019_Nov_05_1301,ACPT_experiment_5_30_19,3.1.0,59.95283881048758,
,,,C,U,d,n,R,D,d,R,c ,,,,,6,10,130,6,3,0,3,0,,,,,0,34,34,1,,,,,,up,0.6172027437551151,1752.9340407240688,None,001,94,2019_Nov_05_1301,ACPT_experiment_5_30_19,3.1.0,59.95283881048758,
,,,C,U,d,n,R,G,g,L,c ,,,,,6,10,130,6,3,0,3,0,,,,,0,35,35,6,,,,,,up,0.5671253477394202,1754.8355047886516,None,001,94,2019_Nov_05_1301,ACPT_experiment_5_30_19,3.1.0,59.95283881048758,
,,,C,U,d,n,R,G,y,R,y,,,,,6,10,130,6,3,0,3,0,,,,,1,0,36,29,,,,,,down,0.7172663751134678,1756.670215090895,None,001,94,2019_Nov_05_1301,ACPT_experiment_5_30_19,3.1.0,59.95283881048758,
,,,C,U,d,n,L,G,g,R,c ,,,,,6,10,130,6,3,0,3,0,,,,,1,1,37,19,,,,,,up,0.7005558990013014,1758.6717732743464,None,001,94,2019_Nov_05_1301,ACPT_experiment_5_30_19,3.1.0,59.95283881048758,
,,,C,U,d,n,L,D,g,R,i,,,,,6,10,130,6,3,0,3,0,,,,,1,2,38,15,,,,,,up,0.5171279437054181,1760.656621585399,None,001,94,2019_Nov_05_1301,ACPT_experiment_5_30_19,3.1.0,59.95283881048758,
,,,C,U,d,n,L,G,d,L,i,,,,,6,10,130,6,3,0,3,0,,,,,1,3,39,16,,,,,,up,0.5338387216743286,1762.4580030016614,None,001,94,2019_Nov_05_1301,ACPT_experiment_5_30_19,3.1.0,59.95283881048758,
,,,C,U,d,n,R,U,y,L,u,,,,,6,10,130,6,3,0,3,0,,,,,1,4,40,30,,,,,,down,0.7339164799186619,1764.2760559545432,None,001,94,2019_Nov_05_1301,ACPT_experiment_5_30_19,3.1.0,59.95283881048758,
,,,C,U,d,n,L,U,d,L,u,,,,,6,10,130,6,3,0,3,0,,,,,1,5,41,20,,,,,,up,0.5169030605829903,1766.311238843382,None,001,94,2019_Nov_05_1301,ACPT_experiment_5_30_19,3.1.0,59.95283881048758,
,,,C,U,d,n,R,U,g,R,u,,,,,6,10,130,6,3,0,3,0,,,,,1,6,42,11,,,,,,up,0.6004723451114842,1768.112331986651,None,001,94,2019_Nov_05_1301,ACPT_experiment_5_30_19,3.1.0,59.95283881048758,
,,,C,U,d,n,R,U,d,L,u,,,,,6,10,130,6,3,0,3,0,,,,,1,7,43,8,,,,,,up,0.5170868912155129,1769.9971036865136,None,001,94,2019_Nov_05_1301,ACPT_experiment_5_30_19,3.1.0,59.95283881048758,
,,,C,U,d,n,L,D,d,R,c ,,,,,6,10,130,6,3,0,3,0,,,,,1,8,44,13,,,,,,down,0.7172639602613344,1771.7984869139154,None,001,94,2019_Nov_05_1301,ACPT_experiment_5_30_19,3.1.0,59.95283881048758,
,,,C,U,d,n,L,D,g,L,i,,,,,6,10,130,6,3,0,3,0,,,,,1,9,45,14,,,,,,up,0.7339164799186619,1773.8000146098566,None,001,94,2019_Nov_05_1301,ACPT_experiment_5_30_19,3.1.0,59.95283881048758,
,,,C,U,d,n,L,D,y,L,y,,,,,6,10,130,6,3,0,3,0,,,,,1,10,46,32,,,,,,down,0.7005546915752348,1775.8182316519524,None,001,94,2019_Nov_05_1301,ACPT_experiment_5_30_19,3.1.0,59.95283881048758,
,,,C,U,d,n,R,G,g,R,c ,,,,,6,10,130,6,3,0,3,0,,,,,1,11,47,7,,,,,,up,0.6840902285412085,1777.8030793592916,None,001,94,2019_Nov_05_1301,ACPT_experiment_5_30_19,3.1.0,59.95283881048758,
,,,C,U,d,n,R,U,y,R,u,,,,,6,10,130,6,3,0,3,0,,,,,1,12,48,31,,,,,,down,0.7172337746078483,1779.7712528133025,None,001,94,2019_Nov_05_1301,ACPT_experiment_5_30_19,3.1.0,59.95283881048758,
,,,C,U,d,n,R,U,d,R,u,,,,,6,10,130,6,3,0,3,0,,,,,1,13,49,9,,,,,,up,0.6338362464493912,1781.7727841315227,None,001,94,2019_Nov_05_1301,ACPT_experiment_5_30_19,3.1.0,59.95283881048758,
,,,C,U,d,n,L,G,d,R,i,,,,,6,10,130,6,3,0,3,0,,,,,1,14,50,17,,,,,,down,0.8173562679903625,1783.6909109788849,None,001,94,2019_Nov_05_1301,ACPT_experiment_5_30_19,3.1.0,59.95283881048758,
,,,C,U,d,n,R,G,g,L,c ,,,,,6,10,130,6,3,0,3,0,,,,,1,15,51,6,,,,,,up,0.8339810168463373,1785.7925261528508,None,001,94,2019_Nov_05_1301,ACPT_experiment_5_30_19,3.1.0,59.95283881048758,
,,,C,U,d,n,L,U,g,L,u,,,,,6,10,130,6,3,0,3,0,,,,,1,16,52,22,,,,,,up,0.5337572204080061,1787.910808033731,None,001,94,2019_Nov_05_1301,ACPT_experiment_5_30_19,3.1.0,59.95283881048758,
,,,C,U,d,n,L,G,y,R,y,,,,,6,10,130,6,3,0,3,0,,,,,1,17,53,35,,,,,,down,0.8506419884861316,1789.745531617661,None,001,94,2019_Nov_05_1301,ACPT_experiment_5_30_19,3.1.0,59.95283881048758,
,,,C,U,d,n,R,D,d,R,c ,,,,,6,10,130,6,3,0,3,0,,,,,1,18,54,1,,,,,,up,0.6505446095661682,1791.8971686460409,None,001,94,2019_Nov_05_1301,ACPT_experiment_5_30_19,3.1.0,59.95283881048758,
,,,C,U,d,n,R,G,d,L,i,,,,,6,10,130,6,3,0,3,0,,,,,1,19,55,4,,,,,,down,0.7672495918905042,1793.832002347236,None,001,94,2019_Nov_05_1301,ACPT_experiment_5_30_19,3.1.0,59.95283881048758,
,,,C,U,d,n,R,G,d,R,i,,,,,6,10,130,6,3,0,3,0,,,,,1,20,56,5,,,,,,up,0.6004635912722733,1795.8668912278072,None,001,94,2019_Nov_05_1301,ACPT_experiment_5_30_19,3.1.0,59.95283881048758,
,,,C,U,d,n,L,U,y,R,u,,,,,6,10,130,6,3,0,3,0,,,,,1,21,57,25,,,,,,down,0.6502518087245335,1797.7685970794773,None,001,94,2019_Nov_05_1301,ACPT_experiment_5_30_19,3.1.0,59.95283881048758,
,,,C,U,d,n,L,U,y,L,u,,,,,6,10,130,6,3,0,3,0,,,,,1,22,58,24,,,,,,down,0.5670954639417687,1799.7198418150992,None,001,94,2019_Nov_05_1301,ACPT_experiment_5_30_19,3.1.0,59.95283881048758,
,,,C,U,d,n,R,D,y,R,y,,,,,6,10,130,6,3,0,3,0,,,,,1,23,59,27,,,,,,down,1.1175094299987904,1801.5879398653478,None,001,94,2019_Nov_05_1301,ACPT_experiment_5_30_19,3.1.0,59.95283881048758,
,,,C,U,d,n,L,D,d,L,c ,,,,,6,10,130,6,3,0,3,0,,,,,1,24,60,12,,,,,,up,0.717215059501541,1803.989775213473,None,001,94,2019_Nov_05_1301,ACPT_experiment_5_30_19,3.1.0,59.95283881048758,
,,,C,U,d,n,L,U,d,R,u,,,,,6,10,130,6,3,0,3,0,,,,,1,25,61,21,,,,,,down,0.6838846642385761,1805.991278760891,None,001,94,2019_Nov_05_1301,ACPT_experiment_5_30_19,3.1.0,59.95283881048758,
,,,C,U,d,n,L,G,g,L,c ,,,,,6,10,130,6,3,0,3,0,,,,,1,26,62,18,,,,,,up,0.6672058830636161,1807.9594510074767,None,001,94,2019_Nov_05_1301,ACPT_experiment_5_30_19,3.1.0,59.95283881048758,
,,,C,U,d,n,R,G,y,L,y,,,,,6,10,130,6,3,0,3,0,,,,,1,27,63,28,,,,,,down,0.5837968843570707,1809.927630196762,None,001,94,2019_Nov_05_1301,ACPT_experiment_5_30_19,3.1.0,59.95283881048758,
,,,C,U,d,n,L,D,y,R,y,,,,,6,10,130,6,3,0,3,0,,,,,1,28,64,33,,,,,,down,0.5337430331510404,1811.7957376045633,None,001,94,2019_Nov_05_1301,ACPT_experiment_5_30_19,3.1.0,59.95283881048758,
,,,C,U,d,n,R,D,g,R,i,,,,,6,10,130,6,3,0,3,0,,,,,1,29,65,3,,,,,,up,0.6671868661005647,1813.613799613141,None,001,94,2019_Nov_05_1301,ACPT_experiment_5_30_19,3.1.0,59.95283881048758,
,,,C,U,d,n,L,U,g,R,u,,,,,6,10,130,6,3,0,3,0,,,,,1,30,66,23,,,,,,up,0.7338986703825867,1815.5652963989724,None,001,94,2019_Nov_05_1301,ACPT_experiment_5_30_19,3.1.0,59.95283881048758,
,,,C,U,d,n,R,D,d,L,c,,,,,6,10,130,6,3,0,3,0,,,,,1,31,67,0,,,,,,up,0.5337354867378963,1817.5835068002243,None,001,94,2019_Nov_05_1301,ACPT_experiment_5_30_19,3.1.0,59.95283881048758,
,,,C,U,d,n,R,D,g,L,i,,,,,6,10,130,6,3,0,3,0,,,,,1,32,68,2,,,,,,up,0.7839504085923181,1819.3848815756428,None,001,94,2019_Nov_05_1301,ACPT_experiment_5_30_19,3.1.0,59.95283881048758,
,,,C,U,d,n,R,D,y,L,y,,,,,6,10,130,6,3,0,3,0,,,,,1,33,69,26,,,,,,down,0.650497519946839,1821.4531310371303,None,001,94,2019_Nov_05_1301,ACPT_experiment_5_30_19,3.1.0,59.95283881048758,
,,,C,U,d,n,L,G,y,L,y,,,,,6,10,130,6,3,0,3,0,,,,,1,34,70,34,,,,,,down,0.450317432335396,1823.4046314452407,None,001,94,2019_Nov_05_1301,ACPT_experiment_5_30_19,3.1.0,59.95283881048758,
,,,C,U,d,n,R,U,g,L,u,,,,,6,10,130,6,3,0,3,0,,,,,1,35,71,10,,,,,,up,0.6671672454258442,1825.155968065993,None,001,94,2019_Nov_05_1301,ACPT_experiment_5_30_19,3.1.0,59.95283881048758,
,,,C,U,d,n,,,,,,,,,,6,10,130,6,4,0,4,0,0,0,0,0,,,,,,,,,,,,,,001,94,2019_Nov_05_1301,ACPT_experiment_5_30_19,3.1.0,59.95283881048758,
,,,C,U,d,n,L,D,y,L,y,,,,,6,10,130,6,4,0,4,0,,,,,0,0,0,32,,,,,,down,0.7336662408479242,1851.9600559279797,None,001,94,2019_Nov_05_1301,ACPT_experiment_5_30_19,3.1.0,59.95283881048758,
,,,C,U,d,n,R,G,d,L,i,,,,,6,10,130,6,4,0,4,0,,,,,0,1,1,4,,,,,,down,0.5339561438677265,1853.9779952620593,None,001,94,2019_Nov_05_1301,ACPT_experiment_5_30_19,3.1.0,59.95283881048758,
,,,C,U,d,n,L,U,g,L,u,,,,,6,10,130,6,4,0,4,0,,,,,0,2,2,22,,,,,,up,0.7004867738532994,1855.7961203586538,None,001,94,2019_Nov_05_1301,ACPT_experiment_5_30_19,3.1.0,59.95283881048758,
,,,C,U,d,n,R,U,g,R,u,,,,,6,10,130,6,4,0,4,0,,,,,0,3,3,11,,,,,,up,0.633955781639088,1857.7809200708034,None,001,94,2019_Nov_05_1301,ACPT_experiment_5_30_19,3.1.0,59.95283881048758,
,,,C,U,d,n,L,U,y,L,u,,,,,6,10,130,6,4,0,4,0,,,,,0,4,4,24,,,,,,down,0.6672221833168805,1859.7157875799312,None,001,94,2019_Nov_05_1301,ACPT_experiment_5_30_19,3.1.0,59.95283881048758,
,,,C,U,d,n,R,D,d,L,c,,,,,6,10,130,6,4,0,4,0,,,,,0,5,5,0,,,,,,up,0.6504477136177229,1861.6839540912424,None,001,94,2019_Nov_05_1301,ACPT_experiment_5_30_19,3.1.0,59.95283881048758,
,,,C,U,d,n,R,G,d,R,i,,,,,6,10,130,6,4,0,4,0,,,,,0,6,6,5,,,,,,down,0.7006259297186261,1863.6187530789366,None,001,94,2019_Nov_05_1301,ACPT_experiment_5_30_19,3.1.0,59.95283881048758,
,,,C,U,d,n,L,G,d,L,i,,,,,6,10,130,6,4,0,4,0,,,,,0,7,7,16,,,,,,up,0.7002510238971809,1865.6205448993487,None,001,94,2019_Nov_05_1301,ACPT_experiment_5_30_19,3.1.0,59.95283881048758,
,,,C,U,d,n,L,U,y,R,u,,,,,6,10,130,6,4,0,4,0,,,,,0,8,8,25,,,,,,down,0.6838547804409245,1867.6218090745324,None,001,94,2019_Nov_05_1301,ACPT_experiment_5_30_19,3.1.0,59.95283881048758,
,,,C,U,d,n,L,D,d,L,c ,,,,,6,10,130,6,4,0,4,0,,,,,0,9,9,12,,,,,,up,0.5671510055444742,1869.5899861508224,None,001,94,2019_Nov_05_1301,ACPT_experiment_5_30_19,3.1.0,59.95283881048758,
,,,C,U,d,n,L,D,g,L,i,,,,,6,10,130,6,4,0,4,0,,,,,0,10,10,14,,,,,,up,0.6173053749780593,1871.4247082254697,None,001,94,2019_Nov_05_1301,ACPT_experiment_5_30_19,3.1.0,59.95283881048758,
,,,C,U,d,n,L,D,g,R,i,,,,,6,10,130,6,4,0,4,0,,,,,0,11,11,15,,,,,,up,0.650487256823908,1873.326165045496,None,001,94,2019_Nov_05_1301,ACPT_experiment_5_30_19,3.1.0,59.95283881048758,
,,,C,U,d,n,R,D,d,R,c ,,,,,6,10,130,6,4,0,4,0,,,,,0,12,12,1,,,,,,up,0.6004527244367637,1875.2609742963123,None,001,94,2019_Nov_05_1301,ACPT_experiment_5_30_19,3.1.0,59.95283881048758,
,,,C,U,d,n,L,G,y,L,y,,,,,6,10,130,6,4,0,4,0,,,,,0,13,13,34,,,,,,down,0.7171818552833429,1877.162453755578,None,001,94,2019_Nov_05_1301,ACPT_experiment_5_30_19,3.1.0,59.95283881048758,
,,,C,U,d,n,R,U,g,L,u,,,,,6,10,130,6,4,0,4,0,,,,,0,14,14,10,,,,,,up,0.984100008693531,1879.1806194820629,None,001,94,2019_Nov_05_1301,ACPT_experiment_5_30_19,3.1.0,59.95283881048758,
,,,C,U,d,n,R,D,y,L,y,,,,,6,10,130,6,4,0,4,0,,,,,0,15,15,26,,,,,,down,0.8169735138999386,1881.4825777461701,None,001,94,2019_Nov_05_1301,ACPT_experiment_5_30_19,3.1.0,59.95283881048758,
,,,C,U,d,n,R,U,y,R,u,,,,,6,10,130,6,4,0,4,0,,,,,0,16,16,31,,,,,,down,0.7007059217012284,1883.600685757684,None,001,94,2019_Nov_05_1301,ACPT_experiment_5_30_19,3.1.0,59.95283881048758,
,,,C,U,d,n,R,D,y,R,y,,,,,6,10,130,6,4,0,4,0,,,,,0,17,17,27,,,,,,down,0.7172796568011108,1885.568833252033,None,001,94,2019_Nov_05_1301,ACPT_experiment_5_30_19,3.1.0,59.95283881048758,
,,,C,U,d,n,L,D,d,R,c ,,,,,6,10,130,6,4,0,4,0,,,,,0,18,18,13,,,,,,down,0.8339535479008191,1887.5704020004632,None,001,94,2019_Nov_05_1301,ACPT_experiment_5_30_19,3.1.0,59.95283881048758,
,,,C,U,d,n,R,U,d,L,u,,,,,6,10,130,6,4,0,4,0,,,,,0,19,19,8,,,,,,up,0.5837763581130275,1889.688672712652,None,001,94,2019_Nov_05_1301,ACPT_experiment_5_30_19,3.1.0,59.95283881048758,
,,,C,U,d,n,L,G,g,L,c ,,,,,6,10,130,6,4,0,4,0,,,,,0,20,20,18,,,,,,up,0.5334677399878274,1891.5737254409523,None,001,94,2019_Nov_05_1301,ACPT_experiment_5_30_19,3.1.0,59.95283881048758,
,,,C,U,d,n,L,U,g,R,u,,,,,6,10,130,6,4,0,4,0,,,,,0,21,21,23,,,,,,up,0.6171230536292569,1893.3915121563668,None,001,94,2019_Nov_05_1301,ACPT_experiment_5_30_19,3.1.0,59.95283881048758,
,,,C,U,d,n,L,U,d,L,u,,,,,6,10,130,6,4,0,4,0,,,,,0,22,22,20,,,,,,up,0.6171535411394871,1895.27626634855,None,001,94,2019_Nov_05_1301,ACPT_experiment_5_30_19,3.1.0,59.95283881048758,
,,,C,U,d,n,R,G,g,L,c ,,,,,6,10,130,6,4,0,4,0,,,,,0,23,23,6,,,,,,up,0.5670957657985127,1897.1777388651162,None,001,94,2019_Nov_05_1301,ACPT_experiment_5_30_19,3.1.0,59.95283881048758,
,,,C,U,d,n,L,G,g,R,c ,,,,,6,10,130,6,4,0,4,0,,,,,0,24,24,19,,,,,,up,0.5504163809091551,1899.0291523989144,None,001,94,2019_Nov_05_1301,ACPT_experiment_5_30_19,3.1.0,59.95283881048758,
,,,C,U,d,n,R,D,g,R,i,,,,,6,10,130,6,4,0,4,0,,,,,0,25,25,3,,,,,,up,0.4836964265023198,1900.8472141056354,None,001,94,2019_Nov_05_1301,ACPT_experiment_5_30_19,3.1.0,59.95283881048758,
,,,C,U,d,n,L,G,y,R,y,,,,,6,10,130,6,4,0,4,0,,,,,0,26,26,35,,,,,,down,0.767261364294427,1902.615231620559,None,001,94,2019_Nov_05_1301,ACPT_experiment_5_30_19,3.1.0,59.95283881048758,
,,,C,U,d,n,R,D,g,L,i,,,,,6,10,130,6,4,0,4,0,,,,,0,27,27,2,,,,,,up,0.8337144775232446,1904.6837331322567,None,001,94,2019_Nov_05_1301,ACPT_experiment_5_30_19,3.1.0,59.95283881048758,
,,,C,U,d,n,R,G,g,R,c ,,,,,6,10,130,6,4,0,4,0,,,,,0,28,28,7,,,,,,up,0.4670242861693623,1906.801767490775,None,001,94,2019_Nov_05_1301,ACPT_experiment_5_30_19,3.1.0,59.95283881048758,
,,,C,U,d,n,R,G,y,R,y,,,,,6,10,130,6,4,0,4,0,,,,,0,29,29,29,,,,,,down,0.6171737655276957,1908.5531119597972,None,001,94,2019_Nov_05_1301,ACPT_experiment_5_30_19,3.1.0,59.95283881048758,
,,,C,U,d,n,L,D,y,R,y,,,,,6,10,130,6,4,0,4,0,,,,,0,30,30,33,,,,,,down,0.7005245059208391,1910.47124574986,None,001,94,2019_Nov_05_1301,ACPT_experiment_5_30_19,3.1.0,59.95283881048758,
,,,C,U,d,n,L,G,d,R,i,,,,,6,10,130,6,4,0,4,0,,,,,0,31,31,17,,,,,,down,0.7171942314016633,1912.4894609808161,None,001,94,2019_Nov_05_1301,ACPT_experiment_5_30_19,3.1.0,59.95283881048758,
,,,C,U,d,n,R,U,y,L,u,,,,,6,10,130,6,4,0,4,0,,,,,0,32,32,30,,,,,,down,0.5670960676543473,1914.507662628229,None,001,94,2019_Nov_05_1301,ACPT_experiment_5_30_19,3.1.0,59.95283881048758,
,,,C,U,d,n,L,U,d,R,u,,,,,6,10,130,6,4,0,4,0,,,,,0,33,33,21,,,,,,down,0.5504381145801744,1916.3590668044744,None,001,94,2019_Nov_05_1301,ACPT_experiment_5_30_19,3.1.0,59.95283881048758,
,,,C,U,d,n,R,U,d,R,u,,,,,6,10,130,6,4,0,4,0,,,,,0,34,34,9,,,,,,down,0.7806139882732168,1918.2138288328533,None,001,94,2019_Nov_05_1301,ACPT_experiment_5_30_19,3.1.0,59.95283881048758,
,,,C,U,d,n,R,G,y,L,y,,,,,6,10,130,6,4,0,4,0,,,,,0,35,35,28,,,,,,down,0.6504969162333509,1920.278743987018,None,001,94,2019_Nov_05_1301,ACPT_experiment_5_30_19,3.1.0,59.95283881048758,
,,,C,U,d,n,R,U,g,L,u,,,,,6,10,130,6,4,0,4,0,,,,,1,0,36,10,,,,,,up,0.717215663215029,1922.2135580675385,None,001,94,2019_Nov_05_1301,ACPT_experiment_5_30_19,3.1.0,59.95283881048758,
,,,C,U,d,n,R,G,g,R,c ,,,,,6,10,130,6,4,0,4,0,,,,,1,1,37,7,,,,,,up,0.6171481077217322,1924.2150899894714,None,001,94,2019_Nov_05_1301,ACPT_experiment_5_30_19,3.1.0,59.95283881048758,
,,,C,U,d,n,L,G,d,R,i,,,,,6,10,130,6,4,0,4,0,,,,,1,2,38,17,,,,,,down,0.7005332597609595,1926.1165449983582,None,001,94,2019_Nov_05_1301,ACPT_experiment_5_30_19,3.1.0,59.95283881048758,
,,,C,U,d,n,L,D,g,L,i,,,,,6,10,130,6,4,0,4,0,,,,,1,3,39,14,,,,,,up,0.6838538748716019,1928.1013963279756,None,001,94,2019_Nov_05_1301,ACPT_experiment_5_30_19,3.1.0,59.95283881048758,
,,,C,U,d,n,L,G,g,R,c ,,,,,6,10,130,6,4,0,4,0,,,,,1,4,40,19,,,,,,up,0.6171336186080225,1930.0695718949828,None,001,94,2019_Nov_05_1301,ACPT_experiment_5_30_19,3.1.0,59.95283881048758,
,,,C,U,d,n,R,G,y,L,y,,,,,6,10,130,6,4,0,4,0,,,,,1,5,41,28,,,,,,down,0.7672408380503839,1931.971026602013,None,001,94,2019_Nov_05_1301,ACPT_experiment_5_30_19,3.1.0,59.95283881048758,
,,,C,U,d,n,L,G,g,L,c ,,,,,6,10,130,6,4,0,4,0,,,,,1,6,42,18,,,,,,up,0.8172877465567581,1934.0225924526203,None,001,94,2019_Nov_05_1301,ACPT_experiment_5_30_19,3.1.0,59.95283881048758,
,,,C,U,d,n,R,D,d,R,c ,,,,,6,10,130,6,4,0,4,0,,,,,1,7,43,1,,,,,,up,0.700526618917138,1936.124202796882,None,001,94,2019_Nov_05_1301,ACPT_experiment_5_30_19,3.1.0,59.95283881048758,
,,,C,U,d,n,L,U,y,R,u,,,,,6,10,130,6,4,0,4,0,,,,,1,8,44,25,,,,,,down,0.8173109895096786,1938.109026355698,None,001,94,2019_Nov_05_1301,ACPT_experiment_5_30_19,3.1.0,59.95283881048758,
,,,C,U,d,n,R,G,y,R,y,,,,,6,10,130,6,4,0,4,0,,,,,1,9,45,29,,,,,,down,0.6004705339728389,1940.2106614521954,None,001,94,2019_Nov_05_1301,ACPT_experiment_5_30_19,3.1.0,59.95283881048758,
,,,C,U,d,n,L,D,y,R,y,,,,,6,10,130,6,4,0,4,0,,,,,1,10,46,33,,,,,,down,0.6671675472825882,1942.0954400947585,None,001,94,2019_Nov_05_1301,ACPT_experiment_5_30_19,3.1.0,59.95283881048758,
,,,C,U,d,n,L,G,y,L,y,,,,,6,10,130,6,4,0,4,0,,,,,1,11,47,34,,,,,,down,0.5003743021070477,1944.0469329564557,None,001,94,2019_Nov_05_1301,ACPT_experiment_5_30_19,3.1.0,59.95283881048758,
,,,C,U,d,n,R,D,g,R,i,,,,,6,10,130,6,4,0,4,0,,,,,1,12,48,3,,,,,,up,0.6004569504284518,1945.8316286488416,None,001,94,2019_Nov_05_1301,ACPT_experiment_5_30_19,3.1.0,59.95283881048758,
,,,C,U,d,n,R,D,y,L,y,,,,,6,10,130,6,4,0,4,0,,,,,1,13,49,26,,,,,,down,0.6671769048352871,1947.7164039709833,None,001,94,2019_Nov_05_1301,ACPT_experiment_5_30_19,3.1.0,59.95283881048758,
,,,C,U,d,n,L,U,g,R,u,,,,,6,10,130,6,4,0,4,0,,,,,1,14,50,23,,,,,,up,0.6171556541348764,1949.6678754008653,None,001,94,2019_Nov_05_1301,ACPT_experiment_5_30_19,3.1.0,59.95283881048758,
,,,C,U,d,n,L,U,y,L,u,,,,,6,10,130,6,4,0,4,0,,,,,1,15,51,24,,,,,,down,0.667172980700343,1951.5693521434232,None,001,94,2019_Nov_05_1301,ACPT_experiment_5_30_19,3.1.0,59.95283881048758,
,,,C,U,d,n,R,D,d,L,c,,,,,6,10,130,6,4,0,4,0,,,,,1,16,52,0,,,,,,down,0.7839268637826535,1953.5208459106889,None,001,94,2019_Nov_05_1301,ACPT_experiment_5_30_19,3.1.0,59.95283881048758,
,,,C,U,d,n,R,U,g,R,u,,,,,6,10,130,6,4,0,4,0,,,,,1,17,53,11,,,,,,up,0.7640438754515344,1955.6091048383978,None,001,94,2019_Nov_05_1301,ACPT_experiment_5_30_19,3.1.0,59.95283881048758,
,,,C,U,d,n,R,U,y,L,u,,,,,6,10,130,6,4,0,4,0,,,,,1,18,54,30,,,,,,down,0.7338823701284127,1957.6573442299523,None,001,94,2019_Nov_05_1301,ACPT_experiment_5_30_19,3.1.0,59.95283881048758,
,,,C,U,d,n,R,D,y,R,y,,,,,6,10,130,6,4,0,4,0,,,,,1,19,55,27,,,,,,down,0.7172111353665969,1959.6755531219214,None,001,94,2019_Nov_05_1301,ACPT_experiment_5_30_19,3.1.0,59.95283881048758,
,,,C,U,d,n,R,G,g,L,c ,,,,,6,10,130,6,4,0,4,0,,,,,1,20,56,6,,,,,,up,0.6004705339719294,1961.6937638250292,None,001,94,2019_Nov_05_1301,ACPT_experiment_5_30_19,3.1.0,59.95283881048758,
,,,C,U,d,n,L,U,d,R,u,,,,,6,10,130,6,4,0,4,0,,,,,1,21,57,21,,,,,,down,0.6671738862696657,1963.5785367323188,None,001,94,2019_Nov_05_1301,ACPT_experiment_5_30_19,3.1.0,59.95283881048758,
,,,C,U,d,n,L,D,y,L,y,,,,,6,10,130,6,4,0,4,0,,,,,1,22,58,32,,,,,,down,0.5003758113898584,1965.5300347255761,None,001,94,2019_Nov_05_1301,ACPT_experiment_5_30_19,3.1.0,59.95283881048758,
,,,C,U,d,n,L,D,g,R,i,,,,,6,10,130,6,4,0,4,0,,,,,1,23,59,15,,,,,,up,0.7505747348495788,1967.31472890868,None,001,94,2019_Nov_05_1301,ACPT_experiment_5_30_19,3.1.0,59.95283881048758,
,,,C,U,d,n,R,G,d,R,i,,,,,6,10,130,6,4,0,4,0,,,,,1,24,60,5,,,,,,down,0.7672514030291495,1969.3496214115294,None,001,94,2019_Nov_05_1301,ACPT_experiment_5_30_19,3.1.0,59.95283881048758,
,,,C,U,d,n,L,U,d,L,u,,,,,6,10,130,6,4,0,4,0,,,,,1,25,61,20,,,,,,down,0.7839211285081547,1971.401192091842,None,001,94,2019_Nov_05_1301,ACPT_experiment_5_30_19,3.1.0,59.95283881048758,
,,,C,U,d,n,R,D,g,L,i,,,,,6,10,130,6,4,0,4,0,,,,,1,26,62,2,,,,,,up,0.5671256495952548,1973.4694110658193,None,001,94,2019_Nov_05_1301,ACPT_experiment_5_30_19,3.1.0,59.95283881048758,
,,,C,U,d,n,L,G,y,R,y,,,,,6,10,130,6,4,0,4,0,,,,,1,27,63,35,,,,,,down,0.6503067466146604,1975.3543678037404,None,001,94,2019_Nov_05_1301,ACPT_experiment_5_30_19,3.1.0,59.95283881048758,
,,,C,U,d,n,R,G,d,L,i,,,,,6,10,130,6,4,0,4,0,,,,,1,28,64,4,,,,,,down,0.5670848989630031,1977.3057157742978,None,001,94,2019_Nov_05_1301,ACPT_experiment_5_30_19,3.1.0,59.95283881048758,
,,,C,U,d,n,R,U,d,R,u,,,,,6,10,130,6,4,0,4,0,,,,,1,29,65,9,,,,,,down,0.6838538748725114,1979.1571226672522,None,001,94,2019_Nov_05_1301,ACPT_experiment_5_30_19,3.1.0,59.95283881048758,
,,,C,U,d,n,L,D,d,L,c ,,,,,6,10,130,6,4,0,4,0,,,,,1,30,66,12,,,,,,up,0.7005329579042154,1981.1252964231207,None,001,94,2019_Nov_05_1301,ACPT_experiment_5_30_19,3.1.0,59.95283881048758,
,,,C,U,d,n,R,U,y,R,u,,,,,6,10,130,6,4,0,4,0,,,,,1,31,67,31,,,,,,down,0.7170816389125321,1983.1436505080846,None,001,94,2019_Nov_05_1301,ACPT_experiment_5_30_19,3.1.0,59.95283881048758,
,,,C,U,d,n,R,U,d,L,u,,,,,6,10,130,6,4,0,4,0,,,,,1,32,68,8,,,,,,down,0.6171290907595903,1985.1617196404768,None,001,94,2019_Nov_05_1301,ACPT_experiment_5_30_19,3.1.0,59.95283881048758,
,,,C,U,d,n,L,G,d,L,i,,,,,6,10,130,6,4,0,4,0,,,,,1,33,69,16,,,,,,down,0.6171357316034118,1987.0631746493636,None,001,94,2019_Nov_05_1301,ACPT_experiment_5_30_19,3.1.0,59.95283881048758,
,,,C,U,d,n,L,U,g,L,u,,,,,6,10,130,6,4,0,4,0,,,,,1,34,70,22,,,,,,up,0.6671820363972074,1988.9646154709926,None,001,94,2019_Nov_05_1301,ACPT_experiment_5_30_19,3.1.0,59.95283881048758,
,,,C,U,d,n,L,D,d,R,c ,,,,,6,10,130,6,4,0,4,0,,,,,1,35,71,13,,,,,,down,0.7172111353665969,1990.9161188976677,None,001,94,2019_Nov_05_1301,ACPT_experiment_5_30_19,3.1.0,59.95283881048758,
,,,C,U,d,n,,,,,,,,,,6,10,130,6,5,0,5,0,0,0,0,0,,,,,,,,,,,,,,001,94,2019_Nov_05_1301,ACPT_experiment_5_30_19,3.1.0,59.95283881048758,
,,,C,U,d,n,R,G,d,L,i,,,,,6,10,130,6,5,0,5,0,,,,,0,0,0,4,,,,,,down,1.033848381082862,2015.685341423893,None,001,94,2019_Nov_05_1301,ACPT_experiment_5_30_19,3.1.0,59.95283881048758,
,,,C,U,d,n,R,U,d,R,u,,,,,6,10,130,6,5,0,5,0,,,,,0,1,1,9,,,,,,up,0.5837718302655048,2018.0035139119645,None,001,94,2019_Nov_05_1301,ACPT_experiment_5_30_19,3.1.0,59.95283881048758,
,,,C,U,d,n,L,G,d,R,i,,,,,6,10,130,6,5,0,5,0,,,,,0,2,2,17,,,,,,up,0.7172331708934507,2019.871586606263,None,001,94,2019_Nov_05_1301,ACPT_experiment_5_30_19,3.1.0,59.95283881048758,
,,,C,U,d,n,R,U,y,L,u,,,,,6,10,130,6,5,0,5,0,,,,,0,3,3,30,,,,,,down,0.6670471065235688,2021.8899376726622,None,001,94,2019_Nov_05_1301,ACPT_experiment_5_30_19,3.1.0,59.95283881048758,
,,,C,U,d,n,L,G,g,L,c ,,,,,6,10,130,6,5,0,5,0,,,,,0,4,4,18,,,,,,up,0.6504863512545853,2023.8579934026238,None,001,94,2019_Nov_05_1301,ACPT_experiment_5_30_19,3.1.0,59.95283881048758,
,,,C,U,d,n,R,D,y,L,y,,,,,6,10,130,6,5,0,5,0,,,,,0,5,5,26,,,,,,down,0.6838590064326127,2025.7928044645787,None,001,94,2019_Nov_05_1301,ACPT_experiment_5_30_19,3.1.0,59.95283881048758,
,,,C,U,d,n,L,G,y,L,y,,,,,6,10,130,6,5,0,5,0,,,,,0,6,6,34,,,,,,down,0.567097878793902,2027.7609803334426,None,001,94,2019_Nov_05_1301,ACPT_experiment_5_30_19,3.1.0,59.95283881048758,
,,,C,U,d,n,L,U,g,L,u,,,,,6,10,130,6,5,0,5,0,,,,,0,7,7,22,,,,,,up,0.6338127016397266,2029.6123959802371,None,001,94,2019_Nov_05_1301,ACPT_experiment_5_30_19,3.1.0,59.95283881048758,
,,,C,U,d,n,R,G,y,L,y,,,,,6,10,130,6,5,0,5,0,,,,,0,8,8,28,,,,,,down,0.6004533281493423,2031.53052705359,None,001,94,2019_Nov_05_1301,ACPT_experiment_5_30_19,3.1.0,59.95283881048758,
,,,C,U,d,n,L,U,y,R,u,,,,,6,10,130,6,5,0,5,0,,,,,0,9,9,25,,,,,,down,0.7506257486047616,2033.4153026775884,None,001,94,2019_Nov_05_1301,ACPT_experiment_5_30_19,3.1.0,59.95283881048758,
,,,C,U,d,n,L,G,y,R,y,,,,,6,10,130,6,5,0,5,0,,,,,0,10,10,35,,,,,,down,0.7505928462414886,2035.450171937484,None,001,94,2019_Nov_05_1301,ACPT_experiment_5_30_19,3.1.0,59.95283881048758,
,,,C,U,d,n,L,D,d,L,c ,,,,,6,10,130,6,5,0,5,0,,,,,0,11,11,12,,,,,,up,0.5670933509454699,2037.4850855702916,None,001,94,2019_Nov_05_1301,ACPT_experiment_5_30_19,3.1.0,59.95283881048758,
,,,C,U,d,n,R,U,g,L,u,,,,,6,10,130,6,5,0,5,0,,,,,0,12,12,10,,,,,,up,0.6171206387771235,2039.3365144987729,None,001,94,2019_Nov_05_1301,ACPT_experiment_5_30_19,3.1.0,59.95283881048758,
,,,C,U,d,n,R,U,g,R,u,,,,,6,10,130,6,5,0,5,0,,,,,0,13,13,11,,,,,,up,0.633965742905275,2041.2211268183837,None,001,94,2019_Nov_05_1301,ACPT_experiment_5_30_19,3.1.0,59.95283881048758,
,,,C,U,d,n,L,G,g,R,c ,,,,,6,10,130,6,5,0,5,0,,,,,0,14,14,19,,,,,,up,0.583769415412462,2043.1394148571371,None,001,94,2019_Nov_05_1301,ACPT_experiment_5_30_19,3.1.0,59.95283881048758,
,,,C,U,d,n,R,U,d,L,u,,,,,6,10,130,6,5,0,5,0,,,,,0,15,15,8,,,,,,down,0.8339671314452062,2045.007506266542,None,001,94,2019_Nov_05_1301,ACPT_experiment_5_30_19,3.1.0,59.95283881048758,
,,,C,U,d,n,R,G,d,R,i,,,,,6,10,130,6,5,0,5,0,,,,,0,16,16,5,,,,,,up,0.7002842281171979,2047.142719280664,None,001,94,2019_Nov_05_1301,ACPT_experiment_5_30_19,3.1.0,59.95283881048758,
,,,C,U,d,n,R,G,g,R,c ,,,,,6,10,130,6,5,0,5,0,,,,,0,17,17,7,,,,,,up,1.0508220760966651,2049.1106240823565,None,001,94,2019_Nov_05_1301,ACPT_experiment_5_30_19,3.1.0,59.95283881048758,
,,,C,U,d,n,R,D,d,R,c ,,,,,6,10,130,6,5,0,5,0,,,,,0,18,18,1,,,,,,up,0.6839112276147716,2051.445767548732,None,001,94,2019_Nov_05_1301,ACPT_experiment_5_30_19,3.1.0,59.95283881048758,
,,,C,U,d,n,L,D,y,R,y,,,,,6,10,130,6,5,0,5,0,,,,,0,19,19,33,,,,,,down,0.7172029852408741,2053.413943417596,None,001,94,2019_Nov_05_1301,ACPT_experiment_5_30_19,3.1.0,59.95283881048758,
,,,C,U,d,n,R,D,g,R,i,,,,,6,10,130,6,5,0,5,0,,,,,0,20,20,3,,,,,,up,0.5504184939045444,2055.4154732265324,None,001,94,2019_Nov_05_1301,ACPT_experiment_5_30_19,3.1.0,59.95283881048758,
,,,C,U,d,n,L,D,g,R,i,,,,,6,10,130,6,5,0,5,0,,,,,0,21,21,15,,,,,,up,0.6004560448582197,2057.250211601433,None,001,94,2019_Nov_05_1301,ACPT_experiment_5_30_19,3.1.0,59.95283881048758,
,,,C,U,d,n,R,D,d,L,c,,,,,6,10,130,6,5,0,5,0,,,,,0,22,22,0,,,,,,up,0.8173028393830464,2059.134982697583,None,001,94,2019_Nov_05_1301,ACPT_experiment_5_30_19,3.1.0,59.95283881048758,
,,,C,U,d,n,L,D,g,L,i,,,,,6,10,130,6,5,0,5,0,,,,,0,23,23,14,,,,,,up,0.5835179689156575,2061.253540173483,None,001,94,2019_Nov_05_1301,ACPT_experiment_5_30_19,3.1.0,59.95283881048758,
,,,C,U,d,n,R,D,g,L,i,,,,,6,10,130,6,5,0,5,0,,,,,0,24,24,2,,,,,,up,0.4003061429011723,2063.12136625099,None,001,94,2019_Nov_05_1301,ACPT_experiment_5_30_19,3.1.0,59.95283881048758,
,,,C,U,d,n,L,D,d,R,c ,,,,,6,10,130,6,5,0,5,0,,,,,0,25,25,13,,,,,,up,0.6338166257746707,2064.805987445183,None,001,94,2019_Nov_05_1301,ACPT_experiment_5_30_19,3.1.0,59.95283881048758,
,,,C,U,d,n,L,U,d,R,u,,,,,6,10,130,6,5,0,5,0,,,,,0,26,26,21,,,,,,up,0.5170470461525838,2066.7241357243593,None,001,94,2019_Nov_05_1301,ACPT_experiment_5_30_19,3.1.0,59.95283881048758,
,,,C,U,d,n,L,U,d,L,u,,,,,6,10,130,6,5,0,5,0,,,,,0,27,27,20,,,,,,down,0.9171029499839278,2068.542441331163,None,001,94,2019_Nov_05_1301,ACPT_experiment_5_30_19,3.1.0,59.95283881048758,
,,,C,U,d,n,L,U,g,R,u,,,,,6,10,130,6,5,0,5,0,,,,,0,28,28,23,,,,,,up,0.8006092672376326,2070.743866576995,None,001,94,2019_Nov_05_1301,ACPT_experiment_5_30_19,3.1.0,59.95283881048758,
,,,C,U,d,n,L,D,y,L,y,,,,,6,10,130,6,5,0,5,0,,,,,0,29,29,32,,,,,,down,0.8506374606376994,2072.828799347507,None,001,94,2019_Nov_05_1301,ACPT_experiment_5_30_19,3.1.0,59.95283881048758,
,,,C,U,d,n,L,G,d,L,i,,,,,6,10,130,6,5,0,5,0,,,,,0,30,30,16,,,,,,down,0.7005054889596067,2074.9804599206964,None,001,94,2019_Nov_05_1301,ACPT_experiment_5_30_19,3.1.0,59.95283881048758,
,,,C,U,d,n,R,U,y,R,u,,,,,6,10,130,6,5,0,5,0,,,,,0,31,31,31,,,,,,down,0.5337593334043049,2076.96526627369,None,001,94,2019_Nov_05_1301,ACPT_experiment_5_30_19,3.1.0,59.95283881048758,
,,,C,U,d,n,R,D,y,R,y,,,,,6,10,130,6,5,0,5,0,,,,,0,32,32,27,,,,,,down,0.7005211854993831,2078.7833629957695,None,001,94,2019_Nov_05_1301,ACPT_experiment_5_30_19,3.1.0,59.95283881048758,
,,,C,U,d,n,L,U,y,L,u,,,,,6,10,130,6,5,0,5,0,,,,,0,33,33,24,,,,,,down,0.7839283730654643,2080.768202552982,None,001,94,2019_Nov_05_1301,ACPT_experiment_5_30_19,3.1.0,59.95283881048758,
,,,C,U,d,n,R,G,g,L,c ,,,,,6,10,130,6,5,0,5,0,,,,,0,34,34,6,,,,,,up,0.6671660379997775,2082.8364532218957,None,001,94,2019_Nov_05_1301,ACPT_experiment_5_30_19,3.1.0,59.95283881048758,
,,,C,U,d,n,R,G,y,R,y,,,,,6,10,130,6,5,0,5,0,,,,,0,35,35,29,,,,,,down,0.6338202480537802,2084.7879427631706,None,001,94,2019_Nov_05_1301,ACPT_experiment_5_30_19,3.1.0,59.95283881048758,
,,,C,U,d,n,R,D,d,L,c,,,,,6,10,130,6,5,0,5,0,,,,,1,0,36,0,,,,,,down,0.7172132483628957,2086.706079269942,None,001,94,2019_Nov_05_1301,ACPT_experiment_5_30_19,3.1.0,59.95283881048758,
,,,C,U,d,n,R,G,d,L,i,,,,,6,10,130,6,5,0,5,0,,,,,1,1,37,4,,,,,,down,0.5003776225303227,2088.707611191874,None,001,94,2019_Nov_05_1301,ACPT_experiment_5_30_19,3.1.0,59.95283881048758,
,,,C,U,d,n,R,D,y,L,y,,,,,6,10,130,6,5,0,5,0,,,,,1,2,38,26,,,,,,down,0.5170585167015815,2090.4923071861176,None,001,94,2019_Nov_05_1301,ACPT_experiment_5_30_19,3.1.0,59.95283881048758,
,,,C,U,d,n,L,U,g,R,u,,,,,6,10,130,6,5,0,5,0,,,,,1,3,39,23,,,,,,up,0.7672329897795862,2092.293703695207,None,001,94,2019_Nov_05_1301,ACPT_experiment_5_30_19,3.1.0,59.95283881048758,
,,,C,U,d,n,L,U,g,L,u,,,,,6,10,130,6,5,0,5,0,,,,,1,4,40,22,,,,,,up,0.6171432780174655,2094.345244491722,None,001,94,2019_Nov_05_1301,ACPT_experiment_5_30_19,3.1.0,59.95283881048758,
,,,C,U,d,n,L,G,g,L,c ,,,,,6,10,130,6,5,0,5,0,,,,,1,5,41,18,,,,,,up,0.5003758113898584,2096.24671248044,None,001,94,2019_Nov_05_1301,ACPT_experiment_5_30_19,3.1.0,59.95283881048758,
,,,C,U,d,n,L,U,y,R,u,,,,,6,10,130,6,5,0,5,0,,,,,1,6,42,25,,,,,,down,0.6671929032318076,2098.031388552151,None,001,94,2019_Nov_05_1301,ACPT_experiment_5_30_19,3.1.0,59.95283881048758,
,,,C,U,d,n,R,U,d,L,u,,,,,6,10,130,6,5,0,5,0,,,,,1,7,43,8,,,,,,down,0.733648733168593,2099.9998237157815,None,001,94,2019_Nov_05_1301,ACPT_experiment_5_30_19,3.1.0,59.95283881048758,
,,,C,U,d,n,L,D,g,R,i,,,,,6,10,130,6,5,0,5,0,,,,,1,8,44,15,,,,,,up,0.7672538178812829,2102.017792329946,None,001,94,2019_Nov_05_1301,ACPT_experiment_5_30_19,3.1.0,59.95283881048758,
,,,C,U,d,n,R,G,y,L,y,,,,,6,10,130,6,5,0,5,0,,,,,1,9,45,28,,,,,,down,0.6168489678921105,2104.086177023163,None,001,94,2019_Nov_05_1301,ACPT_experiment_5_30_19,3.1.0,59.95283881048758,
,,,C,U,d,n,R,G,d,R,i,,,,,6,10,130,6,5,0,5,0,,,,,1,10,46,5,,,,,,up,0.9840806898755545,2106.004177090779,None,001,94,2019_Nov_05_1301,ACPT_experiment_5_30_19,3.1.0,59.95283881048758,
,,,C,U,d,n,R,U,g,L,u,,,,,6,10,130,6,5,0,5,0,,,,,1,11,47,10,,,,,,up,0.7338878035470771,2108.272580982072,None,001,94,2019_Nov_05_1301,ACPT_experiment_5_30_19,3.1.0,59.95283881048758,
,,,C,U,d,n,L,G,d,L,i,,,,,6,10,130,6,5,0,5,0,,,,,1,12,48,16,,,,,,up,0.6004569504275423,2110.2907871573325,None,001,94,2019_Nov_05_1301,ACPT_experiment_5_30_19,3.1.0,59.95283881048758,
,,,C,U,d,n,L,D,g,L,i,,,,,6,10,130,6,5,0,5,0,,,,,1,13,49,14,,,,,,up,0.6171408631653321,2112.175565196182,None,001,94,2019_Nov_05_1301,ACPT_experiment_5_30_19,3.1.0,59.95283881048758,
,,,C,U,d,n,R,U,y,L,u,,,,,6,10,130,6,5,0,5,0,,,,,1,14,50,30,,,,,,down,0.6668210159768932,2114.0940234820237,None,001,94,2019_Nov_05_1301,ACPT_experiment_5_30_19,3.1.0,59.95283881048758,
,,,C,U,d,n,L,D,d,L,c ,,,,,6,10,130,6,5,0,5,0,,,,,1,15,51,12,,,,,,down,0.5837748488302168,2116.0451930553672,None,001,94,2019_Nov_05_1301,ACPT_experiment_5_30_19,3.1.0,59.95283881048758,
,,,C,U,d,n,R,D,d,R,c ,,,,,6,10,130,6,5,0,5,0,,,,,1,16,52,1,,,,,,down,0.6671744899831538,2117.9132877851944,None,001,94,2019_Nov_05_1301,ACPT_experiment_5_30_19,3.1.0,59.95283881048758,
,,,C,U,d,n,R,G,g,L,c ,,,,,6,10,130,6,5,0,5,0,,,,,1,17,53,6,,,,,,up,0.7338947462467331,2119.8647782320386,None,001,94,2019_Nov_05_1301,ACPT_experiment_5_30_19,3.1.0,59.95283881048758,
,,,C,U,d,n,L,D,d,R,c ,,,,,6,10,130,6,5,0,5,0,,,,,1,18,54,13,,,,,,down,0.6671726788445085,2121.8829925574255,None,001,94,2019_Nov_05_1301,ACPT_experiment_5_30_19,3.1.0,59.95283881048758,
,,,C,U,d,n,L,U,d,R,u,,,,,6,10,130,6,5,0,5,0,,,,,1,19,55,21,,,,,,down,0.5337342793118296,2123.8344872302605,None,001,94,2019_Nov_05_1301,ACPT_experiment_5_30_19,3.1.0,59.95283881048758,
