facing_vig,person_vig,text_vig,facing_train,person_train,food_train,correct_key_train,facing_exp,person_exp,food_exp,showL_R,consistent,vig_random.thisRepN,vig_random.thisTrialN,vig_random.thisN,vig_random.thisIndex,trainTrials.thisRepN,trainTrials.thisTrialN,trainTrials.thisN,trainTrials.thisIndex,expBlock.thisRepN,expBlock.thisTrialN,expBlock.thisN,expBlock.thisIndex,breakLoop.thisRepN,breakLoop.thisTrialN,breakLoop.thisN,breakLoop.thisIndex,expTrials.thisRepN,expTrials.thisTrialN,expTrials.thisN,expTrials.thisIndex,train_resp.keys,train_resp.corr,train_resp.rt,train_resp.started,train_resp.stopped,exp_resp.keys,exp_resp.rt,exp_resp.started,exp_resp.stopped,session,participant,date,expName,psychopyVersion,frameRate,
C,U,"did not report her food preferences, so her food preferences are unknown.",,,,,,,,,,0,0,0,2,,,,,,,,,,,,,,,,,,,,,,,,,,001,95,2019_Nov_07_1103,ACPT_experiment_5_30_19,3.1.0,59.955008840755866,
C,G,"cannot eat dairy products because she is lactose intolerant. She enjoys eating wheat products. She thinks eating insects, like crickets, is disgusting.",,,,,,,,,,0,1,1,0,,,,,,,,,,,,,,,,,,,,,,,,,,001,95,2019_Nov_07_1103,ACPT_experiment_5_30_19,3.1.0,59.955008840755866,
C,D,"is allergic to gluten, meaning she can’t eat wheat products. She enjoys eating dairy products. She thinks eating insects, like crickets, is disgusting.",,,,,,,,,,0,2,2,1,,,,,,,,,,,,,,,,,,,,,,,,,,001,95,2019_Nov_07_1103,ACPT_experiment_5_30_19,3.1.0,59.955008840755866,
,,,C,D,y,b,,,,,,,,,,0,0,0,2,,,,,,,,,,,,,b,1,3.1022421299962843,1161.1602489954214,None,,,,,001,95,2019_Nov_07_1103,ACPT_experiment_5_30_19,3.1.0,59.955008840755866,
,,,C,U,y,n,,,,,,,,,,0,1,1,17,,,,,,,,,,,,,v,0,4.486782305894167,1167.548489026911,None,,,,,001,95,2019_Nov_07_1103,ACPT_experiment_5_30_19,3.1.0,59.955008840755866,
,,,C,U,y,n,,,,,,,,,,0,2,2,8,,,,,,,,,,,,,b,0,1.0341614063133875,1175.3043990760775,None,,,,,001,95,2019_Nov_07_1103,ACPT_experiment_5_30_19,3.1.0,59.955008840755866,
,,,C,G,g,v,,,,,,,,,,0,3,3,4,,,,,,,,,,,,,v,1,5.470911896528378,1179.624391155362,None,,,,,001,95,2019_Nov_07_1103,ACPT_experiment_5_30_19,3.1.0,59.955008840755866,
,,,C,G,y,b,,,,,,,,,,0,4,4,14,,,,,,,,,,,,,v,0,2.7354287811758695,1188.3644223431795,None,,,,,001,95,2019_Nov_07_1103,ACPT_experiment_5_30_19,3.1.0,59.955008840755866,
,,,C,D,d,v,,,,,,,,,,0,5,5,9,,,,,,,,,,,,,v,1,1.918147977319677,1194.385702323571,None,,,,,001,95,2019_Nov_07_1103,ACPT_experiment_5_30_19,3.1.0,59.955008840755866,
,,,C,D,y,b,,,,,,,,,,0,6,6,11,,,,,,,,,,,,,b,1,2.551964301238513,1199.5730088335297,None,,,,,001,95,2019_Nov_07_1103,ACPT_experiment_5_30_19,3.1.0,59.955008840755866,
,,,C,D,g,b,,,,,,,,,,0,7,7,1,,,,,,,,,,,,,b,1,4.370019970828707,1205.394140421247,None,,,,,001,95,2019_Nov_07_1103,ACPT_experiment_5_30_19,3.1.0,59.955008840755866,
,,,C,G,g,v,,,,,,,,,,0,8,8,19,,,,,,,,,,,,,v,1,1.4511215781542433,1213.0500055541604,None,,,,,001,95,2019_Nov_07_1103,ACPT_experiment_5_30_19,3.1.0,59.955008840755866,
,,,C,D,g,b,,,,,,,,,,0,9,9,10,,,,,,,,,,,,,b,1,1.6679442241561446,1217.786968068408,None,,,,,001,95,2019_Nov_07_1103,ACPT_experiment_5_30_19,3.1.0,59.955008840755866,
,,,C,G,y,b,,,,,,,,,,0,10,10,5,,,,,,,,,,,,,b,1,0.8006418677432521,1222.7407559453663,None,,,,,001,95,2019_Nov_07_1103,ACPT_experiment_5_30_19,3.1.0,59.955008840755866,
,,,C,D,d,v,,,,,,,,,,0,11,11,18,,,,,,,,,,,,,b,0,4.16985739089705,1226.8439172285223,None,,,,,001,95,2019_Nov_07_1103,ACPT_experiment_5_30_19,3.1.0,59.955008840755866,
,,,C,G,g,v,,,,,,,,,,0,12,12,13,,,,,,,,,,,,,b,0,1.1508881223073786,1234.2996149517996,None,,,,,001,95,2019_Nov_07_1103,ACPT_experiment_5_30_19,3.1.0,59.955008840755866,
,,,C,U,d,n,,,,,,,,,,0,13,13,15,,,,,,,,,,,,,v,0,1.9480631677065503,1238.7898224238356,None,,,,,001,95,2019_Nov_07_1103,ACPT_experiment_5_30_19,3.1.0,59.955008840755866,
,,,C,G,d,b,,,,,,,,,,0,14,14,3,,,,,,,,,,,,,v,0,0.8840240012170852,1244.023726829492,None,,,,,001,95,2019_Nov_07_1103,ACPT_experiment_5_30_19,3.1.0,59.955008840755866,
,,,C,D,d,v,,,,,,,,,,0,15,15,0,,,,,,,,,,,,,v,1,2.5016943207501754,1248.2105056942216,None,,,,,001,95,2019_Nov_07_1103,ACPT_experiment_5_30_19,3.1.0,59.955008840755866,
,,,C,G,d,b,,,,,,,,,,0,16,16,12,,,,,,,,,,,,,b,1,1.15089385758165,1253.9980379325,None,,,,,001,95,2019_Nov_07_1103,ACPT_experiment_5_30_19,3.1.0,59.955008840755866,
,,,C,U,d,n,,,,,,,,,,0,17,17,6,,,,,,,,,,,,,v,0,2.0847036613990895,1258.4516896721595,None,,,,,001,95,2019_Nov_07_1103,ACPT_experiment_5_30_19,3.1.0,59.955008840755866,
,,,C,U,g,n,,,,,,,,,,0,18,18,7,,,,,,,,,,,,,b,0,0.717226228194022,1263.8222357789348,None,,,,,001,95,2019_Nov_07_1103,ACPT_experiment_5_30_19,3.1.0,59.955008840755866,
,,,C,U,g,n,,,,,,,,,,0,19,19,16,,,,,,,,,,,,,v,0,1.7344021670883194,1267.8255688788324,None,,,,,001,95,2019_Nov_07_1103,ACPT_experiment_5_30_19,3.1.0,59.955008840755866,
,,,C,G,g,v,,,,,,,,,,1,0,20,19,,,,,,,,,,,,,v,1,4.019763151285815,1272.845810774588,None,,,,,001,95,2019_Nov_07_1103,ACPT_experiment_5_30_19,3.1.0,59.955008840755866,
,,,C,D,d,v,,,,,,,,,,1,1,21,18,,,,,,,,,,,,,b,0,1.8180689512780646,1280.1514079192666,None,,,,,001,95,2019_Nov_07_1103,ACPT_experiment_5_30_19,3.1.0,59.955008840755866,
,,,C,D,g,b,,,,,,,,,,1,2,22,1,,,,,,,,,,,,,v,0,1.5178717182157015,1285.2386115565173,None,,,,,001,95,2019_Nov_07_1103,ACPT_experiment_5_30_19,3.1.0,59.955008840755866,
,,,C,U,d,n,,,,,,,,,,1,3,23,15,,,,,,,,,,,,,b,0,2.602000342908923,1290.0423275312482,None,,,,,001,95,2019_Nov_07_1103,ACPT_experiment_5_30_19,3.1.0,59.955008840755866,
,,,C,D,g,b,,,,,,,,,,1,4,24,10,,,,,,,,,,,,,b,1,2.0515887917044893,1295.930160660124,None,,,,,001,95,2019_Nov_07_1103,ACPT_experiment_5_30_19,3.1.0,59.955008840755866,
,,,C,D,y,b,,,,,,,,,,1,5,25,11,,,,,,,,,,,,,b,1,0.9507397296331419,1301.2509055696153,None,,,,,001,95,2019_Nov_07_1103,ACPT_experiment_5_30_19,3.1.0,59.955008840755866,
,,,C,U,g,n,,,,,,,,,,1,6,26,16,,,,,,,,,,,,,v,0,1.3339523404749798,1305.5045556188784,None,,,,,001,95,2019_Nov_07_1103,ACPT_experiment_5_30_19,3.1.0,59.955008840755866,
,,,C,G,d,b,,,,,,,,,,1,7,27,3,,,,,,,,,,,,,b,1,2.4852395171262742,1310.12437998667,None,,,,,001,95,2019_Nov_07_1103,ACPT_experiment_5_30_19,3.1.0,59.955008840755866,
,,,C,U,g,n,,,,,,,,,,1,8,28,7,,,,,,,,,,,,,b,0,1.8180834403917743,1315.8954459507756,None,,,,,001,95,2019_Nov_07_1103,ACPT_experiment_5_30_19,3.1.0,59.955008840755866,
,,,C,G,g,v,,,,,,,,,,1,9,29,13,,,,,,,,,,,,,v,1,3.8029136400516563,1320.9993808922395,None,,,,,001,95,2019_Nov_07_1103,ACPT_experiment_5_30_19,3.1.0,59.955008840755866,
,,,C,D,d,v,,,,,,,,,,1,10,30,0,,,,,,,,,,,,,v,1,2.0016294215945436,1328.0881070938701,None,,,,,001,95,2019_Nov_07_1103,ACPT_experiment_5_30_19,3.1.0,59.955008840755866,
,,,C,D,y,b,,,,,,,,,,1,11,31,2,,,,,,,,,,,,,b,1,0.767270419991064,1333.3588283378087,None,,,,,001,95,2019_Nov_07_1103,ACPT_experiment_5_30_19,3.1.0,59.955008840755866,
,,,C,G,d,b,,,,,,,,,,1,12,32,12,,,,,,,,,,,,,b,1,1.4511182577325599,1337.4119439198848,None,,,,,001,95,2019_Nov_07_1103,ACPT_experiment_5_30_19,3.1.0,59.955008840755866,
,,,C,U,y,n,,,,,,,,,,1,13,33,17,,,,,,,,,,,,,b,0,4.1198382531924835,1342.1488997932886,None,,,,,001,95,2019_Nov_07_1103,ACPT_experiment_5_30_19,3.1.0,59.955008840755866,
,,,C,D,d,v,,,,,,,,,,1,14,34,9,,,,,,,,,,,,,b,0,2.1850205503931193,1349.5545708324478,None,,,,,001,95,2019_Nov_07_1103,ACPT_experiment_5_30_19,3.1.0,59.955008840755866,
,,,C,U,y,n,,,,,,,,,,1,15,35,8,,,,,,,,,,,,,v,0,1.0174596840406593,1355.0254317152212,None,,,,,001,95,2019_Nov_07_1103,ACPT_experiment_5_30_19,3.1.0,59.955008840755866,
,,,C,G,y,b,,,,,,,,,,1,16,36,5,,,,,,,,,,,,,b,1,3.285862971620645,1359.3287302223596,None,,,,,001,95,2019_Nov_07_1103,ACPT_experiment_5_30_19,3.1.0,59.955008840755866,
,,,C,U,d,n,,,,,,,,,,1,17,37,6,,,,,,,,,,,,,b,0,1.6012426829975084,1365.9004289985126,None,,,,,001,95,2019_Nov_07_1103,ACPT_experiment_5_30_19,3.1.0,59.955008840755866,
,,,C,G,g,v,,,,,,,,,,1,18,38,4,,,,,,,,,,,,,v,1,3.4526755356143894,1370.787510202751,None,,,,,001,95,2019_Nov_07_1103,ACPT_experiment_5_30_19,3.1.0,59.955008840755866,
,,,C,G,y,b,,,,,,,,,,1,19,39,14,,,,,,,,,,,,,b,1,1.0174548543361652,1377.5260034315052,None,,,,,001,95,2019_Nov_07_1103,ACPT_experiment_5_30_19,3.1.0,59.955008840755866,
,,,C,U,y,n,,,,,,,,,,2,0,40,17,,,,,,,,,,,,,b,0,0.7139094285494139,1381.8659823377702,None,,,,,001,95,2019_Nov_07_1103,ACPT_experiment_5_30_19,3.1.0,59.955008840755866,
,,,C,G,y,b,,,,,,,,,,2,1,41,5,,,,,,,,,,,,,b,1,0.7839389380444572,1385.8657281745648,None,,,,,001,95,2019_Nov_07_1103,ACPT_experiment_5_30_19,3.1.0,59.955008840755866,
,,,C,U,g,n,,,,,,,,,,2,2,42,16,,,,,,,,,,,,,n,1,0.5666770907789669,1389.9525937324922,None,,,,,001,95,2019_Nov_07_1103,ACPT_experiment_5_30_19,3.1.0,59.955008840755866,
,,,C,D,d,v,,,,,,,,,,2,3,43,0,,,,,,,,,,,,,v,1,3.0690291569267174,1393.8051386245968,None,,,,,001,95,2019_Nov_07_1103,ACPT_experiment_5_30_19,3.1.0,59.955008840755866,
,,,C,D,g,b,,,,,,,,,,2,4,44,10,,,,,,,,,,,,,b,1,1.901462555299986,1400.1433335587196,None,,,,,001,95,2019_Nov_07_1103,ACPT_experiment_5_30_19,3.1.0,59.955008840755866,
,,,C,U,d,n,,,,,,,,,,2,5,45,6,,,,,,,,,,,,,n,1,0.8506525534646698,1405.330640974248,None,,,,,001,95,2019_Nov_07_1103,ACPT_experiment_5_30_19,3.1.0,59.955008840755866,
,,,C,G,d,b,,,,,,,,,,2,6,46,12,,,,,,,,,,,,,b,1,1.6012339291578428,1409.467137784228,None,,,,,001,95,2019_Nov_07_1103,ACPT_experiment_5_30_19,3.1.0,59.955008840755866,
,,,C,D,y,b,,,,,,,,,,2,7,47,2,,,,,,,,,,,,,b,1,0.7839507104495169,1414.3542114420532,None,,,,,001,95,2019_Nov_07_1103,ACPT_experiment_5_30_19,3.1.0,59.955008840755866,
,,,C,G,y,b,,,,,,,,,,2,8,48,14,,,,,,,,,,,,,b,1,1.0005382102078784,1418.4409188271545,None,,,,,001,95,2019_Nov_07_1103,ACPT_experiment_5_30_19,3.1.0,59.955008840755866,
,,,C,G,g,v,,,,,,,,,,2,9,49,19,,,,,,,,,,,,,v,1,1.8514370786081145,1422.7106158718582,None,,,,,001,95,2019_Nov_07_1103,ACPT_experiment_5_30_19,3.1.0,59.955008840755866,
,,,C,U,d,n,,,,,,,,,,2,10,50,15,,,,,,,,,,,,,n,1,1.0341617081699042,1427.847858569345,None,,,,,001,95,2019_Nov_07_1103,ACPT_experiment_5_30_19,3.1.0,59.955008840755866,
,,,C,G,d,b,,,,,,,,,,2,11,51,3,,,,,,,,,,,,,b,1,2.068295645538228,1432.167831329811,None,,,,,001,95,2019_Nov_07_1103,ACPT_experiment_5_30_19,3.1.0,59.955008840755866,
,,,C,D,d,v,,,,,,,,,,2,12,52,18,,,,,,,,,,,,,v,1,1.2009480106446517,1437.5219383295018,None,,,,,001,95,2019_Nov_07_1103,ACPT_experiment_5_30_19,3.1.0,59.955008840755866,
,,,C,G,g,v,,,,,,,,,,2,13,53,4,,,,,,,,,,,,,v,1,1.601252644263468,1442.0087327096576,None,,,,,001,95,2019_Nov_07_1103,ACPT_experiment_5_30_19,3.1.0,59.955008840755866,
,,,C,D,g,b,,,,,,,,,,2,14,54,1,,,,,,,,,,,,,b,1,1.8514274191991262,1446.8958069711957,None,,,,,001,95,2019_Nov_07_1103,ACPT_experiment_5_30_19,3.1.0,59.955008840755866,
,,,C,D,d,v,,,,,,,,,,2,15,55,9,,,,,,,,,,,,,v,1,1.0508096999787995,1452.0163971490254,None,,,,,001,95,2019_Nov_07_1103,ACPT_experiment_5_30_19,3.1.0,59.955008840755866,
,,,C,G,g,v,,,,,,,,,,2,16,56,13,,,,,,,,,,,,,v,1,1.4845570194927404,1456.3530553315109,None,,,,,001,95,2019_Nov_07_1103,ACPT_experiment_5_30_19,3.1.0,59.955008840755866,
,,,C,U,g,n,,,,,,,,,,2,17,57,7,,,,,,,,,,,,,n,1,0.9507518038947183,1461.1233805396712,None,,,,,001,95,2019_Nov_07_1103,ACPT_experiment_5_30_19,3.1.0,59.955008840755866,
,,,C,D,y,b,,,,,,,,,,2,18,58,11,,,,,,,,,,,,,b,1,0.8502610455343529,1465.3770160998204,None,,,,,001,95,2019_Nov_07_1103,ACPT_experiment_5_30_19,3.1.0,59.955008840755866,
,,,C,U,y,n,,,,,,,,,,2,19,59,8,,,,,,,,,,,,,n,1,1.7513462801614423,1469.5131374002665,None,,,,,001,95,2019_Nov_07_1103,ACPT_experiment_5_30_19,3.1.0,59.955008840755866,
,,,C,U,y,n,,,,,,,,,,3,0,60,17,,,,,,,,,,,,,n,1,0.9507702171433721,1474.533614140409,None,,,,,001,95,2019_Nov_07_1103,ACPT_experiment_5_30_19,3.1.0,59.955008840755866,
,,,C,G,g,v,,,,,,,,,,3,1,61,4,,,,,,,,,,,,,v,1,2.3184583462125374,1478.7702177472327,None,,,,,001,95,2019_Nov_07_1103,ACPT_experiment_5_30_19,3.1.0,59.955008840755866,
,,,C,U,g,n,,,,,,,,,,3,2,62,16,,,,,,,,,,,,,n,1,0.5670939546587306,1484.3745170295385,None,,,,,001,95,2019_Nov_07_1103,ACPT_experiment_5_30_19,3.1.0,59.955008840755866,
,,,C,D,g,b,,,,,,,,,,3,3,63,1,,,,,,,,,,,,,b,1,1.6679668633964866,1488.2274543351427,None,,,,,001,95,2019_Nov_07_1103,ACPT_experiment_5_30_19,3.1.0,59.955008840755866,
,,,C,D,y,b,,,,,,,,,,3,4,64,2,,,,,,,,,,,,,b,1,0.8339773945676825,1493.1645806367483,None,,,,,001,95,2019_Nov_07_1103,ACPT_experiment_5_30_19,3.1.0,59.955008840755866,
,,,C,G,d,b,,,,,,,,,,3,5,65,12,,,,,,,,,,,,,b,1,1.401080404922368,1497.2844050045398,None,,,,,001,95,2019_Nov_07_1103,ACPT_experiment_5_30_19,3.1.0,59.955008840755866,
,,,C,D,d,v,,,,,,,,,,3,6,66,9,,,,,,,,,,,,,v,1,1.4010858383401228,1501.9713191009987,None,,,,,001,95,2019_Nov_07_1103,ACPT_experiment_5_30_19,3.1.0,59.955008840755866,
,,,C,U,y,n,,,,,,,,,,3,7,67,8,,,,,,,,,,,,,n,1,0.9507228256670714,1506.6749340141607,None,,,,,001,95,2019_Nov_07_1103,ACPT_experiment_5_30_19,3.1.0,59.955008840755866,
,,,C,U,g,n,,,,,,,,,,3,8,68,7,,,,,,,,,,,,,n,1,0.8506619110175961,1510.911501700056,None,,,,,001,95,2019_Nov_07_1103,ACPT_experiment_5_30_19,3.1.0,59.955008840755866,
,,,C,G,d,b,,,,,,,,,,3,9,69,3,,,,,,,,,,,,,b,1,1.28432471070073,1515.04800515088,None,,,,,001,95,2019_Nov_07_1103,ACPT_experiment_5_30_19,3.1.0,59.955008840755866,
,,,C,D,d,v,,,,,,,,,,3,10,70,18,,,,,,,,,,,,,b,0,2.7688104920503065,1519.6181535918513,None,,,,,001,95,2019_Nov_07_1103,ACPT_experiment_5_30_19,3.1.0,59.955008840755866,
,,,C,D,d,v,,,,,,,,,,3,11,71,0,,,,,,,,,,,,,v,1,2.2517386936613093,1525.656125635106,None,,,,,001,95,2019_Nov_07_1103,ACPT_experiment_5_30_19,3.1.0,59.955008840755866,
,,,C,U,d,n,,,,,,,,,,3,12,72,6,,,,,,,,,,,,,n,1,0.8673391829106549,1531.1937022462955,None,,,,,001,95,2019_Nov_07_1103,ACPT_experiment_5_30_19,3.1.0,59.955008840755866,
,,,C,D,y,b,,,,,,,,,,3,13,73,11,,,,,,,,,,,,,b,1,1.0839031378591244,1535.3638113855457,None,,,,,001,95,2019_Nov_07_1103,ACPT_experiment_5_30_19,3.1.0,59.955008840755866,
,,,C,G,g,v,,,,,,,,,,3,14,74,13,,,,,,,,,,,,,v,1,6.4883229816664425,1539.7335723634642,None,,,,,001,95,2019_Nov_07_1103,ACPT_experiment_5_30_19,3.1.0,59.955008840755866,
,,,C,D,g,b,,,,,,,,,,3,15,75,10,,,,,,,,,,,,,b,1,2.5186453765236365,1549.5076988510132,None,,,,,001,95,2019_Nov_07_1103,ACPT_experiment_5_30_19,3.1.0,59.955008840755866,
,,,C,U,d,n,,,,,,,,,,3,16,76,15,,,,,,,,,,,,,n,1,0.41699186677738,1555.3121682596643,None,,,,,001,95,2019_Nov_07_1103,ACPT_experiment_5_30_19,3.1.0,59.955008840755866,
,,,C,G,y,b,,,,,,,,,,3,17,77,14,,,,,,,,,,,,,b,1,0.6836000135231188,1559.0319554387304,None,,,,,001,95,2019_Nov_07_1103,ACPT_experiment_5_30_19,3.1.0,59.955008840755866,
,,,C,G,g,v,,,,,,,,,,3,18,78,19,,,,,,,,,,,,,v,1,1.4010852346270894,1562.9847100607576,None,,,,,001,95,2019_Nov_07_1103,ACPT_experiment_5_30_19,3.1.0,59.955008840755866,
,,,C,G,y,b,,,,,,,,,,3,19,79,5,,,,,,,,,,,,,b,1,0.7639358108108354,1567.69163603829,None,,,,,001,95,2019_Nov_07_1103,ACPT_experiment_5_30_19,3.1.0,59.955008840755866,
,,,C,D,d,v,,,,,,,,,,4,0,80,18,,,,,,,,,,,,,v,1,1.3510582486524072,1571.7414182186117,None,,,,,001,95,2019_Nov_07_1103,ACPT_experiment_5_30_19,3.1.0,59.955008840755866,
,,,C,D,g,b,,,,,,,,,,4,1,81,1,,,,,,,,,,,,,b,1,4.569910578019062,1576.3785646238625,None,,,,,001,95,2019_Nov_07_1103,ACPT_experiment_5_30_19,3.1.0,59.955008840755866,
,,,C,U,d,n,,,,,,,,,,4,2,82,6,,,,,,,,,,,,,n,1,0.5504290588837648,1584.2343152324054,None,,,,,001,95,2019_Nov_07_1103,ACPT_experiment_5_30_19,3.1.0,59.955008840755866,
,,,C,D,g,b,,,,,,,,,,4,3,83,10,,,,,,,,,,,,,b,1,1.2840796031914579,1588.0875082104978,None,,,,,001,95,2019_Nov_07_1103,ACPT_experiment_5_30_19,3.1.0,59.955008840755866,
,,,C,U,y,n,,,,,,,,,,4,4,84,8,,,,,,,,,,,,,b,0,0.7005483525877025,1592.657432372061,None,,,,,001,95,2019_Nov_07_1103,ACPT_experiment_5_30_19,3.1.0,59.955008840755866,
,,,C,U,d,n,,,,,,,,,,4,5,85,15,,,,,,,,,,,,,n,1,0.8139778896122607,1596.6638154304233,None,,,,,001,95,2019_Nov_07_1103,ACPT_experiment_5_30_19,3.1.0,59.955008840755866,
,,,C,U,g,n,,,,,,,,,,4,6,86,16,,,,,,,,,,,,,n,1,2.6353624331086394,1600.7469618139405,None,,,,,001,95,2019_Nov_07_1103,ACPT_experiment_5_30_19,3.1.0,59.955008840755866,
,,,C,D,y,b,,,,,,,,,,4,7,87,11,,,,,,,,,,,,,b,1,0.7339004815214594,1606.6681612590073,None,,,,,001,95,2019_Nov_07_1103,ACPT_experiment_5_30_19,3.1.0,59.955008840755866,
,,,C,U,y,n,,,,,,,,,,4,8,88,17,,,,,,,,,,,,,n,1,0.8836038169154108,1610.7049844362768,None,,,,,001,95,2019_Nov_07_1103,ACPT_experiment_5_30_19,3.1.0,59.955008840755866,
,,,C,G,y,b,,,,,,,,,,4,9,89,5,,,,,,,,,,,,,b,1,1.5511906429301234,1614.8744542433785,None,,,,,001,95,2019_Nov_07_1103,ACPT_experiment_5_30_19,3.1.0,59.955008840755866,
,,,C,G,d,b,,,,,,,,,,4,10,90,3,,,,,,,,,,,,,b,1,3.0857082399591036,1619.6948028152349,None,,,,,001,95,2019_Nov_07_1103,ACPT_experiment_5_30_19,3.1.0,59.955008840755866,
,,,C,G,g,v,,,,,,,,,,4,11,91,19,,,,,,,,,,,,,v,1,0.9674218312309222,1626.0496629469892,None,,,,,001,95,2019_Nov_07_1103,ACPT_experiment_5_30_19,3.1.0,59.955008840755866,
,,,C,U,g,n,,,,,,,,,,4,12,92,7,,,,,,,,,,,,,n,1,0.9171376634853914,1630.3198369250238,None,,,,,001,95,2019_Nov_07_1103,ACPT_experiment_5_30_19,3.1.0,59.955008840755866,
,,,C,D,y,b,,,,,,,,,,4,13,93,2,,,,,,,,,,,,,b,1,1.1675738461835863,1634.5228170338853,None,,,,,001,95,2019_Nov_07_1103,ACPT_experiment_5_30_19,3.1.0,59.955008840755866,
,,,C,D,d,v,,,,,,,,,,4,14,94,0,,,,,,,,,,,,,v,1,1.2009145045688001,1638.9595614869695,None,,,,,001,95,2019_Nov_07_1103,ACPT_experiment_5_30_19,3.1.0,59.955008840755866,
,,,C,G,g,v,,,,,,,,,,4,15,95,4,,,,,,,,,,,,,v,1,3.269179662596798,1643.4463178332014,None,,,,,001,95,2019_Nov_07_1103,ACPT_experiment_5_30_19,3.1.0,59.955008840755866,
,,,C,G,d,b,,,,,,,,,,4,16,96,12,,,,,,,,,,,,,b,1,0.8840336606263008,1649.984649085737,None,,,,,001,95,2019_Nov_07_1103,ACPT_experiment_5_30_19,3.1.0,59.955008840755866,
,,,C,D,d,v,,,,,,,,,,4,17,97,9,,,,,,,,,,,,,v,1,1.167179621544392,1654.1714605509726,None,,,,,001,95,2019_Nov_07_1103,ACPT_experiment_5_30_19,3.1.0,59.955008840755866,
,,,C,G,y,b,,,,,,,,,,4,18,98,14,,,,,,,,,,,,,b,1,0.56712112174705,1658.624583437977,None,,,,,001,95,2019_Nov_07_1103,ACPT_experiment_5_30_19,3.1.0,59.955008840755866,
,,,C,G,g,v,,,,,,,,,,4,19,99,13,,,,,,,,,,,,,v,1,1.264330639163063,1662.4975440952032,None,,,,,001,95,2019_Nov_07_1103,ACPT_experiment_5_30_19,3.1.0,59.955008840755866,
,,,C,G,y,b,,,,,,,,,,5,0,100,14,,,,,,,,,,,,,b,1,0.9173882044124184,1667.0477168778857,None,,,,,001,95,2019_Nov_07_1103,ACPT_experiment_5_30_19,3.1.0,59.955008840755866,
,,,C,G,y,b,,,,,,,,,,5,1,101,5,,,,,,,,,,,,,b,1,0.5833757944865283,1671.2680021202402,None,,,,,001,95,2019_Nov_07_1103,ACPT_experiment_5_30_19,3.1.0,59.955008840755866,
,,,C,U,g,n,,,,,,,,,,5,2,102,16,,,,,,,,,,,,,n,1,0.9173498686320727,1675.1372629218747,None,,,,,001,95,2019_Nov_07_1103,ACPT_experiment_5_30_19,3.1.0,59.955008840755866,
,,,C,D,d,v,,,,,,,,,,5,3,103,0,,,,,,,,,,,,,v,1,2.2181278736741206,1679.3574129325,None,,,,,001,95,2019_Nov_07_1103,ACPT_experiment_5_30_19,3.1.0,59.955008840755866,
,,,C,G,g,v,,,,,,,,,,5,4,104,13,,,,,,,,,,,,,v,1,1.534522728589991,1684.861356084462,None,,,,,001,95,2019_Nov_07_1103,ACPT_experiment_5_30_19,3.1.0,59.955008840755866,
,,,C,D,d,v,,,,,,,,,,5,5,105,18,,,,,,,,,,,,,v,1,2.8021532634313644,1689.6817131083012,None,,,,,001,95,2019_Nov_07_1103,ACPT_experiment_5_30_19,3.1.0,59.955008840755866,
,,,C,U,g,n,,,,,,,,,,5,6,106,7,,,,,,,,,,,,,n,1,2.468587601182435,1695.769683159303,None,,,,,001,95,2019_Nov_07_1103,ACPT_experiment_5_30_19,3.1.0,59.955008840755866,
,,,C,U,y,n,,,,,,,,,,5,7,107,17,,,,,,,,,,,,,n,1,1.267647740664188,1701.507432915403,None,,,,,001,95,2019_Nov_07_1103,ACPT_experiment_5_30_19,3.1.0,59.955008840755866,
,,,C,U,d,n,,,,,,,,,,5,8,108,6,,,,,,,,,,,,,n,1,1.467538951567576,1706.0611845092053,None,,,,,001,95,2019_Nov_07_1103,ACPT_experiment_5_30_19,3.1.0,59.955008840755866,
,,,C,G,g,v,,,,,,,,,,5,9,109,4,,,,,,,,,,,,,v,1,3.686167907095978,1710.8145547374572,None,,,,,001,95,2019_Nov_07_1103,ACPT_experiment_5_30_19,3.1.0,59.955008840755866,
,,,C,D,y,b,,,,,,,,,,5,10,110,2,,,,,,,,,,,,,b,1,1.0341402763556289,1717.7865584490853,None,,,,,001,95,2019_Nov_07_1103,ACPT_experiment_5_30_19,3.1.0,59.955008840755866,
,,,C,U,d,n,,,,,,,,,,5,11,111,15,,,,,,,,,,,,,n,1,0.8504409520314766,1722.1234563056623,None,,,,,001,95,2019_Nov_07_1103,ACPT_experiment_5_30_19,3.1.0,59.955008840755866,
,,,C,G,d,b,,,,,,,,,,5,12,112,3,,,,,,,,,,,,,b,1,1.9014704035701016,1726.2597092155593,None,,,,,001,95,2019_Nov_07_1103,ACPT_experiment_5_30_19,3.1.0,59.955008840755866,
,,,C,G,g,v,,,,,,,,,,5,13,113,19,,,,,,,,,,,,,v,1,1.0507909848734016,1731.430341170334,None,,,,,001,95,2019_Nov_07_1103,ACPT_experiment_5_30_19,3.1.0,59.955008840755866,
,,,C,D,y,b,,,,,,,,,,5,14,114,11,,,,,,,,,,,,,b,1,0.6502427530281238,1735.783939239901,None,,,,,001,95,2019_Nov_07_1103,ACPT_experiment_5_30_19,3.1.0,59.955008840755866,
,,,C,D,g,b,,,,,,,,,,5,15,115,10,,,,,,,,,,,,,v,0,1.1342138689799413,1739.7033390162858,None,,,,,001,95,2019_Nov_07_1103,ACPT_experiment_5_30_19,3.1.0,59.955008840755866,
,,,C,D,g,b,,,,,,,,,,5,16,116,1,,,,,,,,,,,,,b,1,2.017958049185836,1744.1236482864208,None,,,,,001,95,2019_Nov_07_1103,ACPT_experiment_5_30_19,3.1.0,59.955008840755866,
,,,C,U,y,n,,,,,,,,,,5,17,117,8,,,,,,,,,,,,,n,1,0.6505053682167272,1749.4274451587041,None,,,,,001,95,2019_Nov_07_1103,ACPT_experiment_5_30_19,3.1.0,59.955008840755866,
,,,C,D,d,v,,,,,,,,,,5,18,118,9,,,,,,,,,,,,,v,1,1.0675165538125384,1753.3638041409888,None,,,,,001,95,2019_Nov_07_1103,ACPT_experiment_5_30_19,3.1.0,59.955008840755866,
,,,C,G,d,b,,,,,,,,,,5,19,119,12,,,,,,,,,,,,,b,1,0.8673557850202087,1757.700425798833,None,,,,,001,95,2019_Nov_07_1103,ACPT_experiment_5_30_19,3.1.0,59.955008840755866,
,,,C,U,d,n,,,,,,,,,,6,0,120,6,,,,,,,,,,,,,n,1,0.5804758587214565,1761.8736205156192,None,,,,,001,95,2019_Nov_07_1103,ACPT_experiment_5_30_19,3.1.0,59.955008840755866,
,,,C,U,d,n,,,,,,,,,,6,1,121,15,,,,,,,,,,,,,n,1,0.6505101979212213,1765.7232491717057,None,,,,,001,95,2019_Nov_07_1103,ACPT_experiment_5_30_19,3.1.0,59.955008840755866,
,,,C,D,y,b,,,,,,,,,,6,2,122,2,,,,,,,,,,,,,b,1,0.8837843271255679,1769.6765516633502,None,,,,,001,95,2019_Nov_07_1103,ACPT_experiment_5_30_19,3.1.0,59.955008840755866,
,,,C,G,g,v,,,,,,,,,,6,3,123,13,,,,,,,,,,,,,v,1,1.901465875722124,1773.8461376852192,None,,,,,001,95,2019_Nov_07_1103,ACPT_experiment_5_30_19,3.1.0,59.955008840755866,
,,,C,U,y,n,,,,,,,,,,6,4,124,17,,,,,,,,,,,,,b,0,0.6339216718504304,1779.0334188392287,None,,,,,001,95,2019_Nov_07_1103,ACPT_experiment_5_30_19,3.1.0,59.955008840755866,
,,,C,D,d,v,,,,,,,,,,6,5,125,0,,,,,,,,,,,,,v,1,1.5176000473311433,1782.9700262494446,None,,,,,001,95,2019_Nov_07_1103,ACPT_experiment_5_30_19,3.1.0,59.955008840755866,
,,,C,G,g,v,,,,,,,,,,6,6,126,19,,,,,,,,,,,,,v,1,1.3176904231786466,1787.7734602901687,None,,,,,001,95,2019_Nov_07_1103,ACPT_experiment_5_30_19,3.1.0,59.955008840755866,
,,,C,D,g,b,,,,,,,,,,6,7,127,10,,,,,,,,,,,,,b,1,2.067987148156135,1792.393933045805,None,,,,,001,95,2019_Nov_07_1103,ACPT_experiment_5_30_19,3.1.0,59.955008840755866,
,,,C,U,g,n,,,,,,,,,,6,8,128,7,,,,,,,,,,,,,n,1,0.7339077260785416,1797.7477635449065,None,,,,,001,95,2019_Nov_07_1103,ACPT_experiment_5_30_19,3.1.0,59.955008840755866,
,,,C,G,y,b,,,,,,,,,,6,9,129,5,,,,,,,,,,,,,b,1,0.6171683321099408,1801.7674901715511,None,,,,,001,95,2019_Nov_07_1103,ACPT_experiment_5_30_19,3.1.0,59.955008840755866,
,,,C,D,d,v,,,,,,,,,,6,10,130,9,,,,,,,,,,,,,v,1,1.7846437730618163,1805.6705579999227,None,,,,,001,95,2019_Nov_07_1103,ACPT_experiment_5_30_19,3.1.0,59.955008840755866,
,,,C,U,y,n,,,,,,,,,,6,11,131,8,,,,,,,,,,,,,n,1,0.6338510374207544,1810.7410173531287,None,,,,,001,95,2019_Nov_07_1103,ACPT_experiment_5_30_19,3.1.0,59.955008840755866,
,,,C,D,y,b,,,,,,,,,,6,12,132,11,,,,,,,,,,,,,b,1,0.8837638008808426,1814.6776501192937,None,,,,,001,95,2019_Nov_07_1103,ACPT_experiment_5_30_19,3.1.0,59.955008840755866,
,,,C,G,d,b,,,,,,,,,,6,13,133,12,,,,,,,,,,,,,b,1,4.486766609354163,1818.8472494228502,None,,,,,001,95,2019_Nov_07_1103,ACPT_experiment_5_30_19,3.1.0,59.955008840755866,
,,,C,G,y,b,,,,,,,,,,6,14,134,14,0,0,0,0,0,0,0,0,,,,,b,1,0.7172153613587398,1826.6031857335354,None,,,,,001,95,2019_Nov_07_1103,ACPT_experiment_5_30_19,3.1.0,59.955008840755866,
,,,C,G,y,b,L,U,y,L,u,,,,,6,14,134,14,0,0,0,0,,,,,0,0,0,24,,,,,,down,1.1840093309897384,1878.8934431326431,None,001,95,2019_Nov_07_1103,ACPT_experiment_5_30_19,3.1.0,59.955008840755866,
,,,C,G,y,b,R,U,g,R,u,,,,,6,14,134,14,0,0,0,0,,,,,0,1,1,11,,,,,,up,1.00076641375108,1881.3617651000716,None,001,95,2019_Nov_07_1103,ACPT_experiment_5_30_19,3.1.0,59.955008840755866,
,,,C,G,y,b,R,G,y,L,y,,,,,6,14,134,14,0,0,0,0,,,,,0,2,2,28,,,,,,down,0.9173649614585884,1883.663527761142,None,001,95,2019_Nov_07_1103,ACPT_experiment_5_30_19,3.1.0,59.955008840755866,
,,,C,G,y,b,R,U,d,L,u,,,,,6,14,134,14,0,0,0,0,,,,,0,3,3,8,,,,,,up,1.0341342392248407,1885.8818741789503,None,001,95,2019_Nov_07_1103,ACPT_experiment_5_30_19,3.1.0,59.955008840755866,
,,,C,G,y,b,R,D,d,L,c,,,,,6,14,134,14,0,0,0,0,,,,,0,4,4,0,,,,,,up,0.8339680370149836,1888.2003373548675,None,001,95,2019_Nov_07_1103,ACPT_experiment_5_30_19,3.1.0,59.955008840755866,
,,,C,G,y,b,L,U,g,L,u,,,,,6,14,134,14,0,0,0,0,,,,,0,5,5,22,,,,,,up,0.8006071542413338,1890.318624669165,None,001,95,2019_Nov_07_1103,ACPT_experiment_5_30_19,3.1.0,59.955008840755866,
,,,C,G,y,b,L,D,y,L,y,,,,,6,14,134,14,0,0,0,0,,,,,0,6,6,32,,,,,,down,0.7839181099434427,1892.4035571378206,None,001,95,2019_Nov_07_1103,ACPT_experiment_5_30_19,3.1.0,59.955008840755866,
,,,C,G,y,b,L,G,g,R,c ,,,,,6,14,134,14,0,0,0,0,,,,,0,7,7,19,,,,,,down,1.4844746126577775,1894.471798449182,None,001,95,2019_Nov_07_1103,ACPT_experiment_5_30_19,3.1.0,59.955008840755866,
,,,C,G,y,b,R,D,y,R,y,,,,,6,14,134,14,0,0,0,0,,,,,0,8,8,27,,,,,,down,0.7839353157660298,1897.2405814722872,None,001,95,2019_Nov_07_1103,ACPT_experiment_5_30_19,3.1.0,59.955008840755866,
,,,C,G,y,b,L,U,g,R,u,,,,,6,14,134,14,0,0,0,0,,,,,0,9,9,23,,,,,,up,0.7005465414486025,1899.308838178332,None,001,95,2019_Nov_07_1103,ACPT_experiment_5_30_19,3.1.0,59.955008840755866,
,,,C,G,y,b,R,G,y,R,y,,,,,6,14,134,14,0,0,0,0,,,,,0,10,10,29,,,,,,down,0.7672414417634172,1901.2936943376542,None,001,95,2019_Nov_07_1103,ACPT_experiment_5_30_19,3.1.0,59.955008840755866,
,,,C,G,y,b,R,U,g,L,u,,,,,6,14,134,14,0,0,0,0,,,,,0,11,11,10,,,,,,up,0.767254421594771,1903.3452571696964,None,001,95,2019_Nov_07_1103,ACPT_experiment_5_30_19,3.1.0,59.955008840755866,
,,,C,G,y,b,L,D,g,L,i,,,,,6,14,134,14,0,0,0,0,,,,,0,12,12,14,,,,,,up,0.767328376446585,1905.3968248314434,None,001,95,2019_Nov_07_1103,ACPT_experiment_5_30_19,3.1.0,59.955008840755866,
,,,C,G,y,b,L,G,g,L,c ,,,,,6,14,134,14,0,0,0,0,,,,,0,13,13,18,,,,,,down,1.300991115758734,1907.4483994358905,None,001,95,2019_Nov_07_1103,ACPT_experiment_5_30_19,3.1.0,59.955008840755866,
,,,C,G,y,b,L,U,y,R,u,,,,,6,14,134,14,0,0,0,0,,,,,0,14,14,25,,,,,,down,0.6671922995187742,1910.033693528679,None,001,95,2019_Nov_07_1103,ACPT_experiment_5_30_19,3.1.0,59.955008840755866,
,,,C,G,y,b,L,U,d,L,u,,,,,6,14,134,14,0,0,0,0,,,,,0,15,15,20,,,,,,up,1.4844987611809302,1911.9851761272532,None,001,95,2019_Nov_07_1103,ACPT_experiment_5_30_19,3.1.0,59.955008840755866,
,,,C,G,y,b,R,D,g,R,i,,,,,6,14,134,14,0,0,0,0,,,,,0,16,16,3,,,,,,up,0.633821757336591,1914.7539866193035,None,001,95,2019_Nov_07_1103,ACPT_experiment_5_30_19,3.1.0,59.955008840755866,
,,,C,G,y,b,R,U,d,R,u,,,,,6,14,134,14,0,0,0,0,,,,,0,17,17,9,,,,,,up,0.6838535730153126,1916.6721255409268,None,001,95,2019_Nov_07_1103,ACPT_experiment_5_30_19,3.1.0,59.955008840755866,
,,,C,G,y,b,L,G,d,L,i,,,,,6,14,134,14,0,0,0,0,,,,,0,18,18,16,,,,,,up,0.7672523085989269,1918.6402968819427,None,001,95,2019_Nov_07_1103,ACPT_experiment_5_30_19,3.1.0,59.955008840755866,
,,,C,G,y,b,L,D,g,R,i,,,,,6,14,134,14,0,0,0,0,,,,,0,19,19,15,,,,,,down,1.3510344019859986,1920.691864241833,None,001,95,2019_Nov_07_1103,ACPT_experiment_5_30_19,3.1.0,59.955008840755866,
,,,C,G,y,b,R,D,d,R,c ,,,,,6,14,134,14,0,0,0,0,,,,,0,20,20,1,,,,,,up,0.6838762122556545,1923.327192263296,None,001,95,2019_Nov_07_1103,ACPT_experiment_5_30_19,3.1.0,59.955008840755866,
,,,C,G,y,b,R,U,y,R,u,,,,,6,14,134,14,0,0,0,0,,,,,0,21,21,31,,,,,,down,0.7338829738423556,1925.2954085809363,None,001,95,2019_Nov_07_1103,ACPT_experiment_5_30_19,3.1.0,59.955008840755866,
,,,C,G,y,b,R,G,d,R,i,,,,,6,14,134,14,0,0,0,0,,,,,0,22,22,5,,,,,,up,2.0515815471476344,1927.3135909095301,None,001,95,2019_Nov_07_1103,ACPT_experiment_5_30_19,3.1.0,59.955008840755866,
,,,C,G,y,b,L,D,y,R,y,,,,,6,14,134,14,0,0,0,0,,,,,0,23,23,33,,,,,,down,0.68385447858509,1930.6494905265342,None,001,95,2019_Nov_07_1103,ACPT_experiment_5_30_19,3.1.0,59.955008840755866,
,,,C,G,y,b,L,G,y,L,y,,,,,6,14,134,14,0,0,0,0,,,,,0,24,24,34,,,,,,down,0.5337590315475609,1932.6176618675502,None,001,95,2019_Nov_07_1103,ACPT_experiment_5_30_19,3.1.0,59.955008840755866,
,,,C,G,y,b,R,G,g,L,c ,,,,,6,14,134,14,0,0,0,0,,,,,0,25,25,6,,,,,,up,0.6338241721882696,1934.435727498406,None,001,95,2019_Nov_07_1103,ACPT_experiment_5_30_19,3.1.0,59.955008840755866,
,,,C,G,y,b,L,U,d,R,u,,,,,6,14,134,14,0,0,0,0,,,,,0,26,26,21,,,,,,up,0.4670233806000397,1936.3538543457682,None,001,95,2019_Nov_07_1103,ACPT_experiment_5_30_19,3.1.0,59.955008840755866,
,,,C,G,y,b,L,G,d,R,i,,,,,6,14,134,14,0,0,0,0,,,,,0,27,27,17,,,,,,up,0.8339737722890277,1938.1051885516683,None,001,95,2019_Nov_07_1103,ACPT_experiment_5_30_19,3.1.0,59.955008840755866,
,,,C,G,y,b,R,D,y,L,y,,,,,6,14,134,14,0,0,0,0,,,,,0,28,28,26,,,,,,down,0.6004865323684498,1940.2234571508604,None,001,95,2019_Nov_07_1103,ACPT_experiment_5_30_19,3.1.0,59.955008840755866,
,,,C,G,y,b,R,G,g,R,c ,,,,,6,14,134,14,0,0,0,0,,,,,0,29,29,7,,,,,,up,0.6638679534607945,1942.1282540134846,None,001,95,2019_Nov_07_1103,ACPT_experiment_5_30_19,3.1.0,59.955008840755866,
,,,C,G,y,b,R,G,d,L,i,,,,,6,14,134,14,0,0,0,0,,,,,0,30,30,4,,,,,,up,0.5337614463996943,1944.0597295606901,None,001,95,2019_Nov_07_1103,ACPT_experiment_5_30_19,3.1.0,59.955008840755866,
,,,C,G,y,b,L,D,d,R,c ,,,,,6,14,134,14,0,0,0,0,,,,,0,31,31,13,,,,,,up,0.3502857977705389,1945.877785532137,None,001,95,2019_Nov_07_1103,ACPT_experiment_5_30_19,3.1.0,59.955008840755866,
,,,C,G,y,b,L,G,y,R,y,,,,,6,14,134,14,0,0,0,0,,,,,0,32,32,35,,,,,,down,0.650495708807739,1947.51239151276,None,001,95,2019_Nov_07_1103,ACPT_experiment_5_30_19,3.1.0,59.955008840755866,
,,,C,G,y,b,R,U,y,L,u,,,,,6,14,134,14,0,0,0,0,,,,,0,33,33,30,,,,,,down,0.5167962033688127,1949.4641506119235,None,001,95,2019_Nov_07_1103,ACPT_experiment_5_30_19,3.1.0,59.955008840755866,
,,,C,G,y,b,R,D,g,L,i,,,,,6,14,134,14,0,0,0,0,,,,,0,34,34,2,,,,,,up,0.7505717162835026,1951.26526397958,None,001,95,2019_Nov_07_1103,ACPT_experiment_5_30_19,3.1.0,59.955008840755866,
,,,C,G,y,b,L,D,d,L,c ,,,,,6,14,134,14,0,0,0,0,,,,,0,35,35,12,,,,,,up,0.4169852259333311,1953.3001531620077,None,001,95,2019_Nov_07_1103,ACPT_experiment_5_30_19,3.1.0,59.955008840755866,
,,,C,G,y,b,R,D,y,L,y,,,,,6,14,134,14,0,0,0,0,,,,,1,0,36,26,,,,,,down,0.7672794756872463,1955.001433516701,None,001,95,2019_Nov_07_1103,ACPT_experiment_5_30_19,3.1.0,59.955008840755866,
,,,C,G,y,b,R,U,g,L,u,,,,,6,14,134,14,0,0,0,0,,,,,1,1,37,10,,,,,,up,0.533738203446319,1957.0530268362538,None,001,95,2019_Nov_07_1103,ACPT_experiment_5_30_19,3.1.0,59.955008840755866,
,,,C,G,y,b,L,U,g,L,u,,,,,6,14,134,14,0,0,0,0,,,,,1,2,38,22,,,,,,down,0.8340109006435341,1958.8710776761393,None,001,95,2019_Nov_07_1103,ACPT_experiment_5_30_19,3.1.0,59.955008840755866,
,,,C,G,y,b,R,G,g,R,c ,,,,,6,14,134,14,0,0,0,0,,,,,1,3,39,7,,,,,,up,0.8339598868883513,1960.9893821962598,None,001,95,2019_Nov_07_1103,ACPT_experiment_5_30_19,3.1.0,59.955008840755866,
,,,C,G,y,b,R,G,y,L,y,,,,,6,14,134,14,0,0,0,0,,,,,1,4,40,28,,,,,,down,0.5337279403242974,1963.1076604548614,None,001,95,2019_Nov_07_1103,ACPT_experiment_5_30_19,3.1.0,59.955008840755866,
,,,C,G,y,b,L,G,g,R,c ,,,,,6,14,134,14,0,0,0,0,,,,,1,5,41,19,,,,,,up,1.0341194482548417,1964.942396716767,None,001,95,2019_Nov_07_1103,ACPT_experiment_5_30_19,3.1.0,59.955008840755866,
,,,C,G,y,b,R,U,d,R,u,,,,,6,14,134,14,0,0,0,0,,,,,1,6,42,9,,,,,,up,1.4010695380870857,1967.2608393664393,None,001,95,2019_Nov_07_1103,ACPT_experiment_5_30_19,3.1.0,59.955008840755866,
,,,C,G,y,b,R,D,g,R,i,,,,,6,14,134,14,0,0,0,0,,,,,1,7,43,3,,,,,,down,1.1342017947181375,1969.9462305966615,None,001,95,2019_Nov_07_1103,ACPT_experiment_5_30_19,3.1.0,59.955008840755866,
,,,C,G,y,b,L,D,y,R,y,,,,,6,14,134,14,0,0,0,0,,,,,1,8,44,33,,,,,,down,0.767252610455671,1972.3647450278193,None,001,95,2019_Nov_07_1103,ACPT_experiment_5_30_19,3.1.0,59.955008840755866,
,,,C,G,y,b,R,D,d,R,c ,,,,,6,14,134,14,0,0,0,0,,,,,1,9,45,1,,,,,,up,1.0674908960068024,1974.4163123877095,None,001,95,2019_Nov_07_1103,ACPT_experiment_5_30_19,3.1.0,59.955008840755866,
,,,C,G,y,b,L,D,y,L,y,,,,,6,14,134,14,0,0,0,0,,,,,1,10,46,32,,,,,,down,1.0674812365978141,1976.7681171275815,None,001,95,2019_Nov_07_1103,ACPT_experiment_5_30_19,3.1.0,59.955008840755866,
,,,C,G,y,b,R,G,d,L,i,,,,,6,14,134,14,0,0,0,0,,,,,1,11,47,4,,,,,,up,0.6004533281493423,1979.1199149247534,None,001,95,2019_Nov_07_1103,ACPT_experiment_5_30_19,3.1.0,59.955008840755866,
,,,C,G,y,b,L,U,g,R,u,,,,,6,14,134,14,0,0,0,0,,,,,1,12,48,23,,,,,,down,1.6846242127580808,1981.0046893413248,None,001,95,2019_Nov_07_1103,ACPT_experiment_5_30_19,3.1.0,59.955008840755866,
,,,C,G,y,b,L,U,d,L,u,,,,,6,14,134,14,0,0,0,0,,,,,1,13,49,20,,,,,,up,0.5838560482393405,1983.9569311090934,None,001,95,2019_Nov_07_1103,ACPT_experiment_5_30_19,3.1.0,59.955008840755866,
,,,C,G,y,b,R,U,y,R,u,,,,,6,14,134,14,0,0,0,0,,,,,1,14,50,31,,,,,,down,0.583781187817749,1985.825043950312,None,001,95,2019_Nov_07_1103,ACPT_experiment_5_30_19,3.1.0,59.955008840755866,
,,,C,G,y,b,L,D,g,L,i,,,,,6,14,134,14,0,0,0,0,,,,,1,15,51,14,,,,,,up,0.6004469891622648,1987.6931531692524,None,001,95,2019_Nov_07_1103,ACPT_experiment_5_30_19,3.1.0,59.955008840755866,
,,,C,G,y,b,L,U,d,R,u,,,,,6,14,134,14,0,0,0,0,,,,,1,16,52,21,,,,,,up,0.5504203050440992,1989.5779103800012,None,001,95,2019_Nov_07_1103,ACPT_experiment_5_30_19,3.1.0,59.955008840755866,
,,,C,G,y,b,R,D,d,L,c,,,,,6,14,134,14,0,0,0,0,,,,,1,17,53,0,,,,,,up,0.5170642519751709,1991.412650867898,None,001,95,2019_Nov_07_1103,ACPT_experiment_5_30_19,3.1.0,59.955008840755866,
,,,C,G,y,b,R,D,y,R,y,,,,,6,14,134,14,0,0,0,0,,,,,1,18,54,27,,,,,,down,0.7005441265964691,1993.214013569055,None,001,95,2019_Nov_07_1103,ACPT_experiment_5_30_19,3.1.0,59.955008840755866,
,,,C,G,y,b,R,D,g,L,i,,,,,6,14,134,14,0,0,0,0,,,,,1,19,55,2,,,,,,up,0.617104036667115,1995.198916516141,None,001,95,2019_Nov_07_1103,ACPT_experiment_5_30_19,3.1.0,59.955008840755866,
,,,C,G,y,b,L,U,y,R,u,,,,,6,14,134,14,0,0,0,0,,,,,1,20,56,25,,,,,,down,0.650483936402452,1997.1003537154918,None,001,95,2019_Nov_07_1103,ACPT_experiment_5_30_19,3.1.0,59.955008840755866,
,,,C,G,y,b,L,G,d,R,i,,,,,6,14,134,14,0,0,0,0,,,,,1,21,57,17,,,,,,up,0.7505738292798014,1999.0351527031855,None,001,95,2019_Nov_07_1103,ACPT_experiment_5_30_19,3.1.0,59.955008840755866,
,,,C,G,y,b,R,U,d,L,u,,,,,6,14,134,14,0,0,0,0,,,,,1,22,58,8,,,,,,up,0.6671672454262989,2001.0700524505921,None,001,95,2019_Nov_07_1103,ACPT_experiment_5_30_19,3.1.0,59.955008840755866,
,,,C,G,y,b,L,D,d,L,c ,,,,,6,14,134,14,0,0,0,0,,,,,1,23,59,12,,,,,,up,0.6505023496511058,2003.0215356528795,None,001,95,2019_Nov_07_1103,ACPT_experiment_5_30_19,3.1.0,59.955008840755866,
,,,C,G,y,b,L,G,y,L,y,,,,,6,14,134,14,0,0,0,0,,,,,1,24,60,34,,,,,,down,0.6838448191761017,2004.9730351554197,None,001,95,2019_Nov_07_1103,ACPT_experiment_5_30_19,3.1.0,59.955008840755866,
,,,C,G,y,b,R,U,g,R,u,,,,,6,14,134,14,0,0,0,0,,,,,1,25,61,11,,,,,,down,1.2008701316576662,2006.9746111484071,None,001,95,2019_Nov_07_1103,ACPT_experiment_5_30_19,3.1.0,59.955008840755866,
,,,C,G,y,b,L,U,y,L,u,,,,,6,14,134,14,0,0,0,0,,,,,1,26,62,24,,,,,,down,0.8506634203004069,2009.459782144099,None,001,95,2019_Nov_07_1103,ACPT_experiment_5_30_19,3.1.0,59.955008840755866,
,,,C,G,y,b,L,D,d,R,c ,,,,,6,14,134,14,0,0,0,0,,,,,1,27,63,13,,,,,,up,0.9006901044181177,2011.5947654453955,None,001,95,2019_Nov_07_1103,ACPT_experiment_5_30_19,3.1.0,59.955008840755866,
,,,C,G,y,b,L,G,g,L,c ,,,,,6,14,134,14,0,0,0,0,,,,,1,28,64,18,,,,,,down,0.5003767169600906,2013.7797739215268,None,001,95,2019_Nov_07_1103,ACPT_experiment_5_30_19,3.1.0,59.955008840755866,
,,,C,G,y,b,R,G,y,R,y,,,,,6,14,134,14,0,0,0,0,,,,,1,29,65,29,,,,,,down,0.6170213279756354,2015.581148998802,None,001,95,2019_Nov_07_1103,ACPT_experiment_5_30_19,3.1.0,59.955008840755866,
,,,C,G,y,b,L,G,y,R,y,,,,,6,14,134,14,0,0,0,0,,,,,1,30,66,35,,,,,,down,0.6672143350460829,2017.482607026254,None,001,95,2019_Nov_07_1103,ACPT_experiment_5_30_19,3.1.0,59.955008840755866,
,,,C,G,y,b,L,D,g,R,i,,,,,6,14,134,14,0,0,0,0,,,,,1,31,67,15,,,,,,down,0.800623152638309,2019.45077836727,None,001,95,2019_Nov_07_1103,ACPT_experiment_5_30_19,3.1.0,59.955008840755866,
,,,C,G,y,b,R,U,y,L,u,,,,,6,14,134,14,0,0,0,0,,,,,1,32,68,30,,,,,,down,0.5835083095066693,2021.5526552508547,None,001,95,2019_Nov_07_1103,ACPT_experiment_5_30_19,3.1.0,59.955008840755866,
,,,C,G,y,b,L,G,d,L,i,,,,,6,14,134,14,0,0,0,0,,,,,1,33,69,16,,,,,,up,0.5670987843632247,2023.4204792153662,None,001,95,2019_Nov_07_1103,ACPT_experiment_5_30_19,3.1.0,59.955008840755866,
,,,C,G,y,b,R,G,d,R,i,,,,,6,14,134,14,0,0,0,0,,,,,1,34,70,5,,,,,,up,0.6004626857020412,2025.271899691865,None,001,95,2019_Nov_07_1103,ACPT_experiment_5_30_19,3.1.0,59.955008840755866,
,,,C,G,y,b,R,G,g,L,c ,,,,,6,14,134,14,0,0,0,0,,,,,1,35,71,6,,,,,,down,1.0841705827519945,2027.1399865734213,None,001,95,2019_Nov_07_1103,ACPT_experiment_5_30_19,3.1.0,59.955008840755866,
,,,C,G,y,b,,,,,,,,,,6,14,134,14,1,0,1,0,0,0,0,0,,,,,,,,,,,,,,001,95,2019_Nov_07_1103,ACPT_experiment_5_30_19,3.1.0,59.955008840755866,
,,,C,G,y,b,L,U,g,L,u,,,,,6,14,134,14,1,0,1,0,,,,,0,0,0,22,,,,,,down,0.7503193642178303,2036.3472832307828,None,001,95,2019_Nov_07_1103,ACPT_experiment_5_30_19,3.1.0,59.955008840755866,
,,,C,G,y,b,R,U,y,L,u,,,,,6,14,134,14,1,0,1,0,,,,,0,1,1,30,,,,,,down,0.6338202480537802,2038.3819300224097,None,001,95,2019_Nov_07_1103,ACPT_experiment_5_30_19,3.1.0,59.955008840755866,
,,,C,G,y,b,L,G,y,L,y,,,,,6,14,134,14,1,0,1,0,,,,,0,2,2,34,,,,,,down,0.5837772636823502,2040.2833838238705,None,001,95,2019_Nov_07_1103,ACPT_experiment_5_30_19,3.1.0,59.955008840755866,
,,,C,G,y,b,L,G,d,R,i,,,,,6,14,134,14,1,0,1,0,,,,,0,3,3,17,,,,,,up,0.8339689425843062,2042.1514809685489,None,001,95,2019_Nov_07_1103,ACPT_experiment_5_30_19,3.1.0,59.955008840755866,
,,,C,G,y,b,L,D,y,R,y,,,,,6,14,134,14,1,0,1,0,,,,,0,4,4,33,,,,,,down,0.5838002047794362,2044.2697453417497,None,001,95,2019_Nov_07_1103,ACPT_experiment_5_30_19,3.1.0,59.955008840755866,
,,,C,G,y,b,L,U,g,R,u,,,,,6,14,134,14,1,0,1,0,,,,,0,5,5,23,,,,,,down,1.067429317272854,2046.1379203654153,None,001,95,2019_Nov_07_1103,ACPT_experiment_5_30_19,3.1.0,59.955008840755866,
,,,C,G,y,b,L,G,g,R,c ,,,,,6,14,134,14,1,0,1,0,,,,,0,6,6,19,,,,,,down,0.8840107195292148,2048.4896656395495,None,001,95,2019_Nov_07_1103,ACPT_experiment_5_30_19,3.1.0,59.955008840755866,
,,,C,G,y,b,R,G,g,R,c ,,,,,6,14,134,14,1,0,1,0,,,,,0,7,7,7,,,,,,up,0.500381244808068,2050.657992014083,None,001,95,2019_Nov_07_1103,ACPT_experiment_5_30_19,3.1.0,59.955008840755866,
,,,C,G,y,b,R,D,y,R,y,,,,,6,14,134,14,1,0,1,0,,,,,0,8,8,27,,,,,,down,0.617162596835442,2052.4426946491703,None,001,95,2019_Nov_07_1103,ACPT_experiment_5_30_19,3.1.0,59.955008840755866,
,,,C,G,y,b,R,D,y,L,y,,,,,6,14,134,14,1,0,1,0,,,,,0,9,9,26,,,,,,down,0.5171016821864214,2054.3441442246394,None,001,95,2019_Nov_07_1103,ACPT_experiment_5_30_19,3.1.0,59.955008840755866,
,,,C,G,y,b,R,D,d,L,c,,,,,6,14,134,14,1,0,1,0,,,,,0,10,10,0,,,,,,up,0.5167928829473567,2056.145793085795,None,001,95,2019_Nov_07_1103,ACPT_experiment_5_30_19,3.1.0,59.955008840755866,
,,,C,G,y,b,R,G,g,L,c ,,,,,6,14,134,14,1,0,1,0,,,,,0,11,11,6,,,,,,up,0.5337351848811522,2057.946906755308,None,001,95,2019_Nov_07_1103,ACPT_experiment_5_30_19,3.1.0,59.955008840755866,
,,,C,G,y,b,R,D,g,L,i,,,,,6,14,134,14,1,0,1,0,,,,,0,12,12,2,,,,,,down,0.5837718302650501,2059.7649642360375,None,001,95,2019_Nov_07_1103,ACPT_experiment_5_30_19,3.1.0,59.955008840755866,
,,,C,G,y,b,R,D,d,R,c ,,,,,6,14,134,14,1,0,1,0,,,,,0,13,13,1,,,,,,down,0.6838562897246447,2061.633058664007,None,001,95,2019_Nov_07_1103,ACPT_experiment_5_30_19,3.1.0,59.955008840755866,
,,,C,G,y,b,R,U,g,L,u,,,,,6,14,134,14,1,0,1,0,,,,,0,14,14,10,,,,,,up,0.7505677921490133,2063.6012312124494,None,001,95,2019_Nov_07_1103,ACPT_experiment_5_30_19,3.1.0,59.955008840755866,
,,,C,G,y,b,R,G,d,L,i,,,,,6,14,134,14,1,0,1,0,,,,,0,15,15,4,,,,,,up,0.567097275080414,2065.6361200930205,None,001,95,2019_Nov_07_1103,ACPT_experiment_5_30_19,3.1.0,59.955008840755866,
,,,C,G,y,b,L,U,y,R,u,,,,,6,14,134,14,1,0,1,0,,,,,0,16,16,25,,,,,,down,0.7506055242160983,2067.5042163321295,None,001,95,2019_Nov_07_1103,ACPT_experiment_5_30_19,3.1.0,59.955008840755866,
,,,C,G,y,b,R,D,g,R,i,,,,,6,14,134,14,1,0,1,0,,,,,0,17,17,3,,,,,,down,0.850644705195009,2069.572467001043,None,001,95,2019_Nov_07_1103,ACPT_experiment_5_30_19,3.1.0,59.955008840755866,
,,,C,G,y,b,L,D,d,L,c ,,,,,6,14,134,14,1,0,1,0,,,,,0,18,18,12,,,,,,up,0.6004762692464283,2071.707431587234,None,001,95,2019_Nov_07_1103,ACPT_experiment_5_30_19,3.1.0,59.955008840755866,
,,,C,G,y,b,L,D,g,R,i,,,,,6,14,134,14,1,0,1,0,,,,,0,19,19,15,,,,,,up,0.600456346714509,2073.575530844909,None,001,95,2019_Nov_07_1103,ACPT_experiment_5_30_19,3.1.0,59.955008840755866,
,,,C,G,y,b,L,D,g,L,i,,,,,6,14,134,14,1,0,1,0,,,,,0,20,20,14,,,,,,down,0.8837360300794899,2075.460574819369,None,001,95,2019_Nov_07_1103,ACPT_experiment_5_30_19,3.1.0,59.955008840755866,
,,,C,G,y,b,L,U,y,L,u,,,,,6,14,134,14,1,0,1,0,,,,,0,21,21,24,,,,,,down,0.6671753955529311,2077.628627711879,None,001,95,2019_Nov_07_1103,ACPT_experiment_5_30_19,3.1.0,59.955008840755866,
,,,C,G,y,b,R,G,y,L,y,,,,,6,14,134,14,1,0,1,0,,,,,0,22,22,28,,,,,,down,0.9006882932790177,2079.5801275162758,None,001,95,2019_Nov_07_1103,ACPT_experiment_5_30_19,3.1.0,59.955008840755866,
,,,C,G,y,b,L,D,d,R,c ,,,,,6,14,134,14,1,0,1,0,,,,,0,23,23,13,,,,,,up,0.617138146456,2081.7651323701293,None,001,95,2019_Nov_07_1103,ACPT_experiment_5_30_19,3.1.0,59.955008840755866,
,,,C,G,y,b,L,G,y,R,y,,,,,6,14,134,14,1,0,1,0,,,,,0,24,24,35,,,,,,down,0.5838201273109007,2083.6665614193535,None,001,95,2019_Nov_07_1103,ACPT_experiment_5_30_19,3.1.0,59.955008840755866,
,,,C,G,y,b,R,U,g,R,u,,,,,6,14,134,14,1,0,1,0,,,,,0,25,25,11,,,,,,up,0.7338814645599996,2085.5346860329773,None,001,95,2019_Nov_07_1103,ACPT_experiment_5_30_19,3.1.0,59.955008840755866,
,,,C,G,y,b,R,U,y,R,u,,,,,6,14,134,14,1,0,1,0,,,,,0,26,26,31,,,,,,down,0.8506570813128747,2087.552877719124,None,001,95,2019_Nov_07_1103,ACPT_experiment_5_30_19,3.1.0,59.955008840755866,
,,,C,G,y,b,R,U,d,R,u,,,,,6,14,134,14,1,0,1,0,,,,,0,27,27,9,,,,,,up,0.7005350709000595,2089.687857398141,None,001,95,2019_Nov_07_1103,ACPT_experiment_5_30_19,3.1.0,59.955008840755866,
,,,C,G,y,b,R,U,d,L,u,,,,,6,14,134,14,1,0,1,0,,,,,0,28,28,8,,,,,,up,0.5504163809091551,2091.656030852153,None,001,95,2019_Nov_07_1103,ACPT_experiment_5_30_19,3.1.0,59.955008840755866,
,,,C,G,y,b,L,U,d,R,u,,,,,6,14,134,14,1,0,1,0,,,,,0,29,29,21,,,,,,up,1.0174442893571722,2093.4907689251977,None,001,95,2019_Nov_07_1103,ACPT_experiment_5_30_19,3.1.0,59.955008840755866,
,,,C,G,y,b,L,D,y,L,y,,,,,6,14,134,14,1,0,1,0,,,,,0,30,30,32,,,,,,down,0.5170612334100042,2095.792533699264,None,001,95,2019_Nov_07_1103,ACPT_experiment_5_30_19,3.1.0,59.955008840755866,
,,,C,G,y,b,L,G,g,L,c ,,,,,6,14,134,14,1,0,1,0,,,,,0,31,31,18,,,,,,up,0.5838044307711243,2097.593909983965,None,001,95,2019_Nov_07_1103,ACPT_experiment_5_30_19,3.1.0,59.955008840755866,
,,,C,G,y,b,L,G,d,L,i,,,,,6,14,134,14,1,0,1,0,,,,,0,32,32,16,,,,,,up,0.5504423405714078,2099.4453054063715,None,001,95,2019_Nov_07_1103,ACPT_experiment_5_30_19,3.1.0,59.955008840755866,
,,,C,G,y,b,R,G,y,R,y,,,,,6,14,134,14,1,0,1,0,,,,,0,33,33,29,,,,,,down,0.60044698916181,2101.2967476165404,None,001,95,2019_Nov_07_1103,ACPT_experiment_5_30_19,3.1.0,59.955008840755866,
,,,C,G,y,b,L,U,d,L,u,,,,,6,14,134,14,1,0,1,0,,,,,0,34,34,20,,,,,,up,0.6505029533641391,2103.1982032291407,None,001,95,2019_Nov_07_1103,ACPT_experiment_5_30_19,3.1.0,59.955008840755866,
,,,C,G,y,b,R,G,d,R,i,,,,,6,14,134,14,1,0,1,0,,,,,0,35,35,5,,,,,,up,0.6004457817357434,2105.133016102235,None,001,95,2019_Nov_07_1103,ACPT_experiment_5_30_19,3.1.0,59.955008840755866,
,,,C,G,y,b,R,G,g,L,c ,,,,,6,14,134,14,1,0,1,0,,,,,1,0,36,6,,,,,,down,0.6502512050110454,2107.051382925545,None,001,95,2019_Nov_07_1103,ACPT_experiment_5_30_19,3.1.0,59.955008840755866,
,,,C,G,y,b,R,U,y,L,u,,,,,6,14,134,14,1,0,1,0,,,,,1,1,37,30,,,,,,down,1.034119750111131,2108.985961557966,None,001,95,2019_Nov_07_1103,ACPT_experiment_5_30_19,3.1.0,59.955008840755866,
,,,C,G,y,b,R,D,y,L,y,,,,,6,14,134,14,1,0,1,0,,,,,1,2,38,26,,,,,,down,0.6506221866970918,2111.3044033020687,None,001,95,2019_Nov_07_1103,ACPT_experiment_5_30_19,3.1.0,59.955008840755866,
,,,C,G,y,b,R,G,d,R,i,,,,,6,14,134,14,1,0,1,0,,,,,1,3,39,5,,,,,,up,0.5837682079863953,2113.2392179863027,None,001,95,2019_Nov_07_1103,ACPT_experiment_5_30_19,3.1.0,59.955008840755866,
,,,C,G,y,b,L,D,g,L,i,,,,,6,14,134,14,1,0,1,0,,,,,1,4,40,14,,,,,,down,0.5167862421030804,2115.12426316819,None,001,95,2019_Nov_07_1103,ACPT_experiment_5_30_19,3.1.0,59.955008840755866,
,,,C,G,y,b,L,D,d,R,c ,,,,,6,14,134,14,1,0,1,0,,,,,1,5,41,13,,,,,,up,0.7839519178760384,2116.925371706141,None,001,95,2019_Nov_07_1103,ACPT_experiment_5_30_19,3.1.0,59.955008840755866,
,,,C,G,y,b,R,U,d,R,u,,,,,6,14,134,14,1,0,1,0,,,,,1,6,42,9,,,,,,up,0.5170856837894462,2118.993593396828,None,001,95,2019_Nov_07_1103,ACPT_experiment_5_30_19,3.1.0,59.955008840755866,
,,,C,G,y,b,R,U,g,R,u,,,,,6,14,134,14,1,0,1,0,,,,,1,7,43,11,,,,,,down,0.700540202461525,2120.778295730058,None,001,95,2019_Nov_07_1103,ACPT_experiment_5_30_19,3.1.0,59.955008840755866,
,,,C,G,y,b,R,D,y,R,y,,,,,6,14,134,14,1,0,1,0,,,,,1,8,44,27,,,,,,down,0.9006810487221628,2122.763169095203,None,001,95,2019_Nov_07_1103,ACPT_experiment_5_30_19,3.1.0,59.955008840755866,
,,,C,G,y,b,R,G,g,R,c ,,,,,6,14,134,14,1,0,1,0,,,,,1,9,45,7,,,,,,up,0.5170853819331569,2124.948174552769,None,001,95,2019_Nov_07_1103,ACPT_experiment_5_30_19,3.1.0,59.955008840755866,
,,,C,G,y,b,R,G,d,L,i,,,,,6,14,134,14,1,0,1,0,,,,,1,10,46,4,,,,,,up,0.5504420387151185,2126.7328515300505,None,001,95,2019_Nov_07_1103,ACPT_experiment_5_30_19,3.1.0,59.955008840755866,
,,,C,G,y,b,R,U,y,R,u,,,,,6,14,134,14,1,0,1,0,,,,,1,11,47,31,,,,,,down,0.6671723769873097,2128.5676101293393,None,001,95,2019_Nov_07_1103,ACPT_experiment_5_30_19,3.1.0,59.955008840755866,
,,,C,G,y,b,R,U,d,L,u,,,,,6,14,134,14,1,0,1,0,,,,,1,12,48,8,,,,,,up,0.850670966713551,2130.5024064003246,None,001,95,2019_Nov_07_1103,ACPT_experiment_5_30_19,3.1.0,59.955008840755866,
,,,C,G,y,b,R,D,d,L,c,,,,,6,14,134,14,1,0,1,0,,,,,1,13,49,0,,,,,,up,1.417740169136323,2132.6373933238992,None,001,95,2019_Nov_07_1103,ACPT_experiment_5_30_19,3.1.0,59.955008840755866,
,,,C,G,y,b,L,G,g,L,c ,,,,,6,14,134,14,1,0,1,0,,,,,1,14,50,18,,,,,,down,0.8339641128795847,2135.3394606185884,None,001,95,2019_Nov_07_1103,ACPT_experiment_5_30_19,3.1.0,59.955008840755866,
,,,C,G,y,b,L,G,y,R,y,,,,,6,14,134,14,1,0,1,0,,,,,1,15,51,35,,,,,,down,1.2175833244791647,2137.474430940054,None,001,95,2019_Nov_07_1103,ACPT_experiment_5_30_19,3.1.0,59.955008840755866,
,,,C,G,y,b,L,D,y,R,y,,,,,6,14,134,14,1,0,1,0,,,,,1,16,52,33,,,,,,down,0.5170488572916838,2139.9930262083917,None,001,95,2019_Nov_07_1103,ACPT_experiment_5_30_19,3.1.0,59.955008840755866,
,,,C,G,y,b,L,G,d,R,i,,,,,6,14,134,14,1,0,1,0,,,,,1,17,53,17,,,,,,up,0.5170585167011268,2141.794398267102,None,001,95,2019_Nov_07_1103,ACPT_experiment_5_30_19,3.1.0,59.955008840755866,
,,,C,G,y,b,L,U,g,L,u,,,,,6,14,134,14,1,0,1,0,,,,,1,18,54,22,,,,,,up,0.7172135502196397,2143.5957799852213,None,001,95,2019_Nov_07_1103,ACPT_experiment_5_30_19,3.1.0,59.955008840755866,
,,,C,G,y,b,L,U,g,R,u,,,,,6,14,134,14,1,0,1,0,,,,,1,19,55,23,,,,,,up,0.5170844763633795,2145.5806032421806,None,001,95,2019_Nov_07_1103,ACPT_experiment_5_30_19,3.1.0,59.955008840755866,
,,,C,G,y,b,R,G,y,R,y,,,,,6,14,134,14,1,0,1,0,,,,,1,20,56,29,,,,,,down,0.5501794235265152,2147.3989263566637,None,001,95,2019_Nov_07_1103,ACPT_experiment_5_30_19,3.1.0,59.955008840755866,
,,,C,G,y,b,R,U,g,L,u,,,,,6,14,134,14,1,0,1,0,,,,,1,21,57,10,,,,,,down,0.9340425352083912,2149.233427774182,None,001,95,2019_Nov_07_1103,ACPT_experiment_5_30_19,3.1.0,59.955008840755866,
,,,C,G,y,b,L,U,y,R,u,,,,,6,14,134,14,1,0,1,0,,,,,1,22,58,25,,,,,,down,0.6171306000424011,2151.451792907096,None,001,95,2019_Nov_07_1103,ACPT_experiment_5_30_19,3.1.0,59.955008840755866,
,,,C,G,y,b,L,U,d,L,u,,,,,6,14,134,14,1,0,1,0,,,,,1,23,59,20,,,,,,up,0.7172105316540183,2153.35324550113,None,001,95,2019_Nov_07_1103,ACPT_experiment_5_30_19,3.1.0,59.955008840755866,
,,,C,G,y,b,R,D,g,R,i,,,,,6,14,134,14,1,0,1,0,,,,,1,24,60,3,,,,,,down,0.5504055140736455,2155.354782252767,None,001,95,2019_Nov_07_1103,ACPT_experiment_5_30_19,3.1.0,59.955008840755866,
,,,C,G,y,b,L,D,g,R,i,,,,,6,14,134,14,1,0,1,0,,,,,1,25,61,15,,,,,,up,0.6004823063772164,2157.1894859141667,None,001,95,2019_Nov_07_1103,ACPT_experiment_5_30_19,3.1.0,59.955008840755866,
,,,C,G,y,b,R,D,d,R,c ,,,,,6,14,134,14,1,0,1,0,,,,,1,26,62,1,,,,,,up,0.8006053431022337,2159.0742932331004,None,001,95,2019_Nov_07_1103,ACPT_experiment_5_30_19,3.1.0,59.955008840755866,
,,,C,G,y,b,L,G,g,R,c ,,,,,6,14,134,14,1,0,1,0,,,,,1,27,63,19,,,,,,down,0.633799118096249,2161.1759105200626,None,001,95,2019_Nov_07_1103,ACPT_experiment_5_30_19,3.1.0,59.955008840755866,
,,,C,G,y,b,L,G,y,L,y,,,,,6,14,134,14,1,0,1,0,,,,,1,28,64,34,,,,,,down,0.6171299963293677,2163.094032235864,None,001,95,2019_Nov_07_1103,ACPT_experiment_5_30_19,3.1.0,59.955008840755866,
,,,C,G,y,b,L,U,y,L,u,,,,,6,14,134,14,1,0,1,0,,,,,1,29,65,24,,,,,,down,0.60044336688361,2165.0121717612,None,001,95,2019_Nov_07_1103,ACPT_experiment_5_30_19,3.1.0,59.955008840755866,
,,,C,G,y,b,L,U,d,R,u,,,,,6,14,134,14,1,0,1,0,,,,,1,30,66,21,,,,,,up,0.7505650754401358,2166.9136246570906,None,001,95,2019_Nov_07_1103,ACPT_experiment_5_30_19,3.1.0,59.955008840755866,
,,,C,G,y,b,L,G,d,L,i,,,,,6,14,134,14,1,0,1,0,,,,,1,31,67,16,,,,,,up,0.6171411650216214,2168.9485126320924,None,001,95,2019_Nov_07_1103,ACPT_experiment_5_30_19,3.1.0,59.955008840755866,
,,,C,G,y,b,L,D,y,L,y,,,,,6,14,134,14,1,0,1,0,,,,,1,32,68,32,,,,,,down,0.6671787159748419,2170.8499661316964,None,001,95,2019_Nov_07_1103,ACPT_experiment_5_30_19,3.1.0,59.955008840755866,
,,,C,G,y,b,R,G,y,L,y,,,,,6,14,134,14,1,0,1,0,,,,,1,33,69,28,,,,,,down,0.48373174371636196,2172.801457182254,None,001,95,2019_Nov_07_1103,ACPT_experiment_5_30_19,3.1.0,59.955008840755866,
,,,C,G,y,b,R,D,g,L,i,,,,,6,14,134,14,1,0,1,0,,,,,1,34,70,2,,,,,,down,0.7005420136006251,2174.5694771120297,None,001,95,2019_Nov_07_1103,ACPT_experiment_5_30_19,3.1.0,59.955008840755866,
,,,C,G,y,b,L,D,d,L,c ,,,,,6,14,134,14,1,0,1,0,,,,,1,35,71,12,,,,,,up,0.5671256495952548,2176.5543061042636,None,001,95,2019_Nov_07_1103,ACPT_experiment_5_30_19,3.1.0,59.955008840755866,
,,,C,G,y,b,,,,,,,,,,6,14,134,14,2,0,2,0,0,0,0,0,,,,,,,,,,,,,,001,95,2019_Nov_07_1103,ACPT_experiment_5_30_19,3.1.0,59.955008840755866,
,,,C,G,y,b,R,G,d,R,i,,,,,6,14,134,14,2,0,2,0,,,,,0,0,0,5,,,,,,up,0.5334746826883929,2182.242284848734,None,001,95,2019_Nov_07_1103,ACPT_experiment_5_30_19,3.1.0,59.955008840755866,
,,,C,G,y,b,R,G,g,L,c ,,,,,6,14,134,14,2,0,2,0,,,,,0,1,1,6,,,,,,down,0.6672001477886624,2184.0433725585845,None,001,95,2019_Nov_07_1103,ACPT_experiment_5_30_19,3.1.0,59.955008840755866,
,,,C,G,y,b,L,G,y,R,y,,,,,6,14,134,14,2,0,2,0,,,,,0,2,2,35,,,,,,up,0.40030312433600557,2186.011564123988,None,001,95,2019_Nov_07_1103,ACPT_experiment_5_30_19,3.1.0,59.955008840755866,
,,,C,G,y,b,L,U,g,R,u,,,,,6,14,134,14,2,0,2,0,,,,,0,3,3,23,,,,,,up,0.5337363923072189,2187.7128737587655,None,001,95,2019_Nov_07_1103,ACPT_experiment_5_30_19,3.1.0,59.955008840755866,
,,,C,G,y,b,L,U,y,L,u,,,,,6,14,134,14,2,0,2,0,,,,,0,4,4,24,,,,,,down,0.49706293588087647,2189.5509274240285,None,001,95,2019_Nov_07_1103,ACPT_experiment_5_30_19,3.1.0,59.955008840755866,
,,,C,G,y,b,L,G,d,R,i,,,,,6,14,134,14,2,0,2,0,,,,,0,5,5,17,,,,,,up,0.5170696853929257,2191.332290922087,None,001,95,2019_Nov_07_1103,ACPT_experiment_5_30_19,3.1.0,59.955008840755866,
,,,C,G,y,b,R,D,d,R,c ,,,,,6,14,134,14,2,0,2,0,,,,,0,6,6,1,,,,,,up,0.5003724909684024,2193.133685620038,None,001,95,2019_Nov_07_1103,ACPT_experiment_5_30_19,3.1.0,59.955008840755866,
,,,C,G,y,b,R,U,y,R,u,,,,,6,14,134,14,2,0,2,0,,,,,0,7,7,31,,,,,,up,0.46701855089577293,2194.9183864439847,None,001,95,2019_Nov_07_1103,ACPT_experiment_5_30_19,3.1.0,59.955008840755866,
,,,C,G,y,b,L,D,d,R,c ,,,,,6,14,134,14,2,0,2,0,,,,,0,8,8,13,,,,,,up,0.4834374335919165,2196.686672007515,None,001,95,2019_Nov_07_1103,ACPT_experiment_5_30_19,3.1.0,59.955008840755866,
,,,C,G,y,b,L,D,g,R,i,,,,,6,14,134,14,2,0,2,0,,,,,0,9,9,15,,,,,,up,0.4336570644090898,2198.4544269072503,None,001,95,2019_Nov_07_1103,ACPT_experiment_5_30_19,3.1.0,59.955008840755866,
,,,C,G,y,b,R,U,g,R,u,,,,,6,14,134,14,2,0,2,0,,,,,0,10,10,11,,,,,,down,0.6004862305121605,2200.172405965651,None,001,95,2019_Nov_07_1103,ACPT_experiment_5_30_19,3.1.0,59.955008840755866,
,,,C,G,y,b,R,G,d,L,i,,,,,6,14,134,14,2,0,2,0,,,,,0,11,11,4,,,,,,up,1.0174415726482948,2202.057181589649,None,001,95,2019_Nov_07_1103,ACPT_experiment_5_30_19,3.1.0,59.955008840755866,
,,,C,G,y,b,R,D,g,R,i,,,,,6,14,134,14,2,0,2,0,,,,,0,12,12,3,,,,,,up,0.6171598801270193,2204.3589182910573,None,001,95,2019_Nov_07_1103,ACPT_experiment_5_30_19,3.1.0,59.955008840755866,
,,,C,G,y,b,R,G,y,L,y,,,,,6,14,134,14,2,0,2,0,,,,,0,13,13,28,,,,,,down,0.5670996899330021,2206.2603947317584,None,001,95,2019_Nov_07_1103,ACPT_experiment_5_30_19,3.1.0,59.955008840755866,
,,,C,G,y,b,L,U,y,R,u,,,,,6,14,134,14,2,0,2,0,,,,,0,14,14,25,,,,,,down,0.6171399575955547,2208.1118112841223,None,001,95,2019_Nov_07_1103,ACPT_experiment_5_30_19,3.1.0,59.955008840755866,
,,,C,G,y,b,R,U,y,L,u,,,,,6,14,134,14,2,0,2,0,,,,,0,15,15,30,,,,,,down,0.6504766918455971,2210.0299622800067,None,001,95,2019_Nov_07_1103,ACPT_experiment_5_30_19,3.1.0,59.955008840755866,
,,,C,G,y,b,L,G,d,L,i,,,,,6,14,134,14,2,0,2,0,,,,,0,16,16,16,,,,,,up,0.5837666987040393,2211.964770323397,None,001,95,2019_Nov_07_1103,ACPT_experiment_5_30_19,3.1.0,59.955008840755866,
,,,C,G,y,b,L,D,d,L,c ,,,,,6,14,134,14,2,0,2,0,,,,,0,17,17,12,,,,,,up,0.850667646292095,2213.832854790101,None,001,95,2019_Nov_07_1103,ACPT_experiment_5_30_19,3.1.0,59.955008840755866,
,,,C,G,y,b,R,U,d,L,u,,,,,6,14,134,14,2,0,2,0,,,,,0,18,18,8,,,,,,up,0.8339686407275622,2215.9678263189926,None,001,95,2019_Nov_07_1103,ACPT_experiment_5_30_19,3.1.0,59.955008840755866,
,,,C,G,y,b,R,U,d,R,u,,,,,6,14,134,14,2,0,2,0,,,,,0,19,19,9,,,,,,up,0.7674035387244658,2218.069280603423,None,001,95,2019_Nov_07_1103,ACPT_experiment_5_30_19,3.1.0,59.955008840755866,
,,,C,G,y,b,L,G,g,L,c ,,,,,6,14,134,14,2,0,2,0,,,,,0,20,20,18,,,,,,down,0.6504975199463843,2220.121003117574,None,001,95,2019_Nov_07_1103,ACPT_experiment_5_30_19,3.1.0,59.955008840755866,
,,,C,G,y,b,L,G,g,R,c ,,,,,6,14,134,14,2,0,2,0,,,,,0,21,21,19,,,,,,down,0.7839102616735545,2222.055821725943,None,001,95,2019_Nov_07_1103,ACPT_experiment_5_30_19,3.1.0,59.955008840755866,
,,,C,G,y,b,L,D,y,R,y,,,,,6,14,134,14,2,0,2,0,,,,,0,22,22,33,,,,,,down,0.7004596067654347,2224.1241315587386,None,001,95,2019_Nov_07_1103,ACPT_experiment_5_30_19,3.1.0,59.955008840755866,
,,,C,G,y,b,R,D,y,L,y,,,,,6,14,134,14,2,0,2,0,,,,,0,23,23,26,,,,,,down,0.7172165687848064,2226.1088920295388,None,001,95,2019_Nov_07_1103,ACPT_experiment_5_30_19,3.1.0,59.955008840755866,
,,,C,G,y,b,R,G,g,R,c ,,,,,6,14,134,14,2,0,2,0,,,,,0,24,24,7,,,,,,down,0.8172841242781033,2228.110452024129,None,001,95,2019_Nov_07_1103,ACPT_experiment_5_30_19,3.1.0,59.955008840755866,
,,,C,G,y,b,R,D,g,L,i,,,,,6,14,134,14,2,0,2,0,,,,,0,25,25,2,,,,,,up,0.40030946332308304,2230.2120572368294,None,001,95,2019_Nov_07_1103,ACPT_experiment_5_30_19,3.1.0,59.955008840755866,
,,,C,G,y,b,R,G,y,R,y,,,,,6,14,134,14,2,0,2,0,,,,,0,26,26,29,,,,,,down,0.5837775655390942,2231.8966796384484,None,001,95,2019_Nov_07_1103,ACPT_experiment_5_30_19,3.1.0,59.955008840755866,
,,,C,G,y,b,L,U,d,L,u,,,,,6,14,134,14,2,0,2,0,,,,,0,27,27,20,,,,,,up,0.5504172864789325,2233.7647767831268,None,001,95,2019_Nov_07_1103,ACPT_experiment_5_30_19,3.1.0,59.955008840755866,
,,,C,G,y,b,R,U,g,L,u,,,,,6,14,134,14,2,0,2,0,,,,,0,28,28,10,,,,,,down,1.4844329564552936,2235.616229860132,None,001,95,2019_Nov_07_1103,ACPT_experiment_5_30_19,3.1.0,59.955008840755866,
,,,C,G,y,b,L,U,d,R,u,,,,,6,14,134,14,2,0,2,0,,,,,0,29,29,21,,,,,,up,0.9507255423759489,2238.384981490157,None,001,95,2019_Nov_07_1103,ACPT_experiment_5_30_19,3.1.0,59.955008840755866,
,,,C,G,y,b,L,D,g,L,i,,,,,6,14,134,14,2,0,2,0,,,,,0,30,30,14,,,,,,up,0.7338911239689878,2240.6200223856813,None,001,95,2019_Nov_07_1103,ACPT_experiment_5_30_19,3.1.0,59.955008840755866,
,,,C,G,y,b,R,D,y,R,y,,,,,6,14,134,14,2,0,2,0,,,,,0,31,31,27,,,,,,down,0.5003758113903132,2242.638237012924,None,001,95,2019_Nov_07_1103,ACPT_experiment_5_30_19,3.1.0,59.955008840755866,
,,,C,G,y,b,L,D,y,L,y,,,,,6,14,134,14,2,0,2,0,,,,,0,32,32,32,,,,,,down,0.6002468582769325,2244.456460212893,None,001,95,2019_Nov_07_1103,ACPT_experiment_5_30_19,3.1.0,59.955008840755866,
,,,C,G,y,b,L,U,g,L,u,,,,,6,14,134,14,2,0,2,0,,,,,0,33,33,22,,,,,,up,0.9507185996753833,2246.3577501062537,None,001,95,2019_Nov_07_1103,ACPT_experiment_5_30_19,3.1.0,59.955008840755866,
,,,C,G,y,b,L,G,y,L,y,,,,,6,14,134,14,2,0,2,0,,,,,0,34,34,34,,,,,,down,0.6003419430867325,2248.5927876813557,None,001,95,2019_Nov_07_1103,ACPT_experiment_5_30_19,3.1.0,59.955008840755866,
,,,C,G,y,b,R,D,d,L,c,,,,,6,14,134,14,2,0,2,0,,,,,0,35,35,0,,,,,,up,0.6838565915804793,2250.477568738771,None,001,95,2019_Nov_07_1103,ACPT_experiment_5_30_19,3.1.0,59.955008840755866,
,,,C,G,y,b,R,U,d,L,u,,,,,6,14,134,14,2,0,2,0,,,,,1,0,36,8,,,,,,up,0.44702689421001196,2252.4657320383285,None,001,95,2019_Nov_07_1103,ACPT_experiment_5_30_19,3.1.0,59.955008840755866,
,,,C,G,y,b,R,G,y,R,y,,,,,6,14,134,14,2,0,2,0,,,,,1,1,37,29,,,,,,down,0.8339619998841954,2254.1970791153917,None,001,95,2019_Nov_07_1103,ACPT_experiment_5_30_19,3.1.0,59.955008840755866,
,,,C,G,y,b,R,G,d,R,i,,,,,6,14,134,14,2,0,2,0,,,,,1,2,38,5,,,,,,up,0.9840764638834116,2256.315370957537,None,001,95,2019_Nov_07_1103,ACPT_experiment_5_30_19,3.1.0,59.955008840755866,
,,,C,G,y,b,R,U,d,R,u,,,,,6,14,134,14,2,0,2,0,,,,,1,3,39,9,,,,,,up,0.41696771825445467,2258.583781489674,None,001,95,2019_Nov_07_1103,ACPT_experiment_5_30_19,3.1.0,59.955008840755866,
,,,C,G,y,b,R,D,y,L,y,,,,,6,14,134,14,2,0,2,0,,,,,1,4,40,26,,,,,,down,0.500380942951324,2260.285066975929,None,001,95,2019_Nov_07_1103,ACPT_experiment_5_30_19,3.1.0,59.955008840755866,
,,,C,G,y,b,L,D,d,L,c ,,,,,6,14,134,14,2,0,2,0,,,,,1,5,41,12,,,,,,up,0.6504893698202068,2262.069771724011,None,001,95,2019_Nov_07_1103,ACPT_experiment_5_30_19,3.1.0,59.955008840755866,
,,,C,G,y,b,R,D,g,R,i,,,,,6,14,134,14,2,0,2,0,,,,,1,6,42,3,,,,,,down,0.7505967703764327,2264.0045586374436,None,001,95,2019_Nov_07_1103,ACPT_experiment_5_30_19,3.1.0,59.955008840755866,
,,,C,G,y,b,R,D,d,R,c ,,,,,6,14,134,14,2,0,2,0,,,,,1,7,43,1,,,,,,up,0.8173064616617012,2266.0227738684,None,001,95,2019_Nov_07_1103,ACPT_experiment_5_30_19,3.1.0,59.955008840755866,
,,,C,G,y,b,L,U,d,R,u,,,,,6,14,134,14,2,0,2,0,,,,,1,8,44,21,,,,,,up,0.5337382034467737,2268.124398701775,None,001,95,2019_Nov_07_1103,ACPT_experiment_5_30_19,3.1.0,59.955008840755866,
,,,C,G,y,b,L,D,y,L,y,,,,,6,14,134,14,2,0,2,0,,,,,1,9,45,32,,,,,,down,0.6004684209765401,2269.942463125205,None,001,95,2019_Nov_07_1103,ACPT_experiment_5_30_19,3.1.0,59.955008840755866,
,,,C,G,y,b,L,G,y,R,y,,,,,6,14,134,14,2,0,2,0,,,,,1,10,46,35,,,,,,down,0.7836917175395683,2271.8441559970443,None,001,95,2019_Nov_07_1103,ACPT_experiment_5_30_19,3.1.0,59.955008840755866,
,,,C,G,y,b,L,D,g,R,i,,,,,6,14,134,14,2,0,2,0,,,,,1,11,47,15,,,,,,up,0.6838632324247556,2273.9121621621625,None,001,95,2019_Nov_07_1103,ACPT_experiment_5_30_19,3.1.0,59.955008840755866,
,,,C,G,y,b,R,G,g,R,c ,,,,,6,14,134,14,2,0,2,0,,,,,1,12,48,7,,,,,,down,1.934808647103182,2275.8803377291697,None,001,95,2019_Nov_07_1103,ACPT_experiment_5_30_19,3.1.0,59.955008840755866,
,,,C,G,y,b,R,G,g,L,c ,,,,,6,14,134,14,2,0,2,0,,,,,1,13,49,6,,,,,,up,1.0341342392248407,2279.0827874760926,None,001,95,2019_Nov_07_1103,ACPT_experiment_5_30_19,3.1.0,59.955008840755866,
,,,C,G,y,b,L,U,y,L,u,,,,,6,14,134,14,2,0,2,0,,,,,1,14,50,24,,,,,,down,0.6338066645093932,2281.4179095106547,None,001,95,2019_Nov_07_1103,ACPT_experiment_5_30_19,3.1.0,59.955008840755866,
,,,C,G,y,b,L,U,d,L,u,,,,,6,14,134,14,2,0,2,0,,,,,1,15,51,20,,,,,,up,0.5670951620845699,2283.352720270753,None,001,95,2019_Nov_07_1103,ACPT_experiment_5_30_19,3.1.0,59.955008840755866,
,,,C,G,y,b,L,U,g,R,u,,,,,6,14,134,14,2,0,2,0,,,,,1,16,52,23,,,,,,up,0.6671947143713624,2285.1874556270886,None,001,95,2019_Nov_07_1103,ACPT_experiment_5_30_19,3.1.0,59.955008840755866,
,,,C,G,y,b,L,G,g,L,c ,,,,,6,14,134,14,2,0,2,0,,,,,1,17,53,18,,,,,,down,0.9340428370651352,2287.138952111064,None,001,95,2019_Nov_07_1103,ACPT_experiment_5_30_19,3.1.0,59.955008840755866,
,,,C,G,y,b,R,G,y,L,y,,,,,6,14,134,14,2,0,2,0,,,,,1,18,54,28,,,,,,down,0.7005293356260154,2289.3573199606863,None,001,95,2019_Nov_07_1103,ACPT_experiment_5_30_19,3.1.0,59.955008840755866,
,,,C,G,y,b,L,G,g,R,c ,,,,,6,14,134,14,2,0,2,0,,,,,1,19,55,19,,,,,,down,0.6004494040143982,2291.342170988447,None,001,95,2019_Nov_07_1103,ACPT_experiment_5_30_19,3.1.0,59.955008840755866,
,,,C,G,y,b,R,U,g,L,u,,,,,6,14,134,14,2,0,2,0,,,,,1,20,56,10,,,,,,down,1.4511076927537943,2293.2269438957364,None,001,95,2019_Nov_07_1103,ACPT_experiment_5_30_19,3.1.0,59.955008840755866,
,,,C,G,y,b,L,U,g,L,u,,,,,6,14,134,14,2,0,2,0,,,,,1,21,57,22,,,,,,up,3.4192923154569144,2295.9623609045075,None,001,95,2019_Nov_07_1103,ACPT_experiment_5_30_19,3.1.0,59.955008840755866,
,,,C,G,y,b,R,D,y,R,y,,,,,6,14,134,14,2,0,2,0,,,,,1,22,58,27,,,,,,down,0.5003682649767143,2300.6826506747093,None,001,95,2019_Nov_07_1103,ACPT_experiment_5_30_19,3.1.0,59.955008840755866,
,,,C,G,y,b,L,G,d,R,i,,,,,6,14,134,14,2,0,2,0,,,,,1,23,59,17,,,,,,up,0.6004454798794541,2302.4840272612673,None,001,95,2019_Nov_07_1103,ACPT_experiment_5_30_19,3.1.0,59.955008840755866,
,,,C,G,y,b,R,G,d,L,i,,,,,6,14,134,14,2,0,2,0,,,,,1,24,60,4,,,,,,up,0.5837833008131383,2304.368801375983,None,001,95,2019_Nov_07_1103,ACPT_experiment_5_30_19,3.1.0,59.955008840755866,
,,,C,G,y,b,R,U,y,L,u,,,,,6,14,134,14,2,0,2,0,,,,,1,25,61,30,,,,,,down,0.5337375997332856,2306.236900029944,None,001,95,2019_Nov_07_1103,ACPT_experiment_5_30_19,3.1.0,59.955008840755866,
,,,C,G,y,b,R,D,d,L,c,,,,,6,14,134,14,2,0,2,0,,,,,1,26,62,0,,,,,,up,0.5337430331510404,2308.054952680969,None,001,95,2019_Nov_07_1103,ACPT_experiment_5_30_19,3.1.0,59.955008840755866,
,,,C,G,y,b,R,U,y,R,u,,,,,6,14,134,14,2,0,2,0,,,,,1,27,63,31,,,,,,down,0.6338510374202997,2309.8896913577264,None,001,95,2019_Nov_07_1103,ACPT_experiment_5_30_19,3.1.0,59.955008840755866,
,,,C,G,y,b,L,U,y,R,u,,,,,6,14,134,14,2,0,2,0,,,,,1,28,64,25,,,,,,down,0.6671509451734892,2311.8412014252463,None,001,95,2019_Nov_07_1103,ACPT_experiment_5_30_19,3.1.0,59.955008840755866,
,,,C,G,y,b,L,D,d,R,c ,,,,,6,14,134,14,2,0,2,0,,,,,1,29,65,13,,,,,,up,0.8506398754902875,2313.7926921739463,None,001,95,2019_Nov_07_1103,ACPT_experiment_5_30_19,3.1.0,59.955008840755866,
,,,C,G,y,b,L,D,y,R,y,,,,,6,14,134,14,2,0,2,0,,,,,1,30,66,33,,,,,,down,0.567095765798058,2315.910970734405,None,001,95,2019_Nov_07_1103,ACPT_experiment_5_30_19,3.1.0,59.955008840755866,
,,,C,G,y,b,L,G,d,L,i,,,,,6,14,134,14,2,0,2,0,,,,,1,31,67,16,,,,,,up,0.5337469572859845,2317.762378532929,None,001,95,2019_Nov_07_1103,ACPT_experiment_5_30_19,3.1.0,59.955008840755866,
,,,C,G,y,b,R,D,g,L,i,,,,,6,14,134,14,2,0,2,0,,,,,1,32,68,2,,,,,,up,1.818063216003793,2319.580439937793,None,001,95,2019_Nov_07_1103,ACPT_experiment_5_30_19,3.1.0,59.955008840755866,
,,,C,G,y,b,L,G,y,L,y,,,,,6,14,134,14,2,0,2,0,,,,,1,33,69,34,,,,,,down,2.00153282750216,2322.682812167958,None,001,95,2019_Nov_07_1103,ACPT_experiment_5_30_19,3.1.0,59.955008840755866,
,,,C,G,y,b,R,U,g,R,u,,,,,6,14,134,14,2,0,2,0,,,,,1,34,70,11,,,,,,down,0.5504667909508498,2325.968643746499,None,001,95,2019_Nov_07_1103,ACPT_experiment_5_30_19,3.1.0,59.955008840755866,
,,,C,G,y,b,L,D,g,L,i,,,,,6,14,134,14,2,0,2,0,,,,,1,35,71,14,,,,,,down,0.700561030562767,2327.803376084269,None,001,95,2019_Nov_07_1103,ACPT_experiment_5_30_19,3.1.0,59.955008840755866,
,,,C,G,y,b,,,,,,,,,,6,14,134,14,3,0,3,0,0,0,0,0,,,,,,,,,,,,,,001,95,2019_Nov_07_1103,ACPT_experiment_5_30_19,3.1.0,59.955008840755866,
,,,C,G,y,b,L,G,y,L,y,,,,,6,14,134,14,3,0,3,0,,,,,0,0,0,34,,,,,,down,0.5504121549179217,2336.193152565539,None,001,95,2019_Nov_07_1103,ACPT_experiment_5_30_19,3.1.0,59.955008840755866,
,,,C,G,y,b,R,D,y,L,y,,,,,6,14,134,14,3,0,3,0,,,,,0,1,1,26,,,,,,down,0.5504021936517347,2338.0445823995906,None,001,95,2019_Nov_07_1103,ACPT_experiment_5_30_19,3.1.0,59.955008840755866,
,,,C,G,y,b,R,U,y,R,u,,,,,6,14,134,14,3,0,3,0,,,,,0,2,2,31,,,,,,down,0.7005368820396143,2339.879305379808,None,001,95,2019_Nov_07_1103,ACPT_experiment_5_30_19,3.1.0,59.955008840755866,
,,,C,G,y,b,L,G,y,R,y,,,,,6,14,134,14,3,0,3,0,,,,,0,3,3,35,,,,,,down,0.5504242291790433,2341.864152181578,None,001,95,2019_Nov_07_1103,ACPT_experiment_5_30_19,3.1.0,59.955008840755866,
,,,C,G,y,b,L,D,y,R,y,,,,,6,14,134,14,3,0,3,0,,,,,0,4,4,33,,,,,,down,0.5004014691962766,2343.698900215888,None,001,95,2019_Nov_07_1103,ACPT_experiment_5_30_19,3.1.0,59.955008840755866,
,,,C,G,y,b,R,G,d,R,i,,,,,6,14,134,14,3,0,3,0,,,,,0,5,5,5,,,,,,up,0.5504444535672519,2345.483601945405,None,001,95,2019_Nov_07_1103,ACPT_experiment_5_30_19,3.1.0,59.955008840755866,
,,,C,G,y,b,L,U,d,L,u,,,,,6,14,134,14,3,0,3,0,,,,,0,6,6,20,,,,,,up,0.6838532711590233,2347.3016539927166,None,001,95,2019_Nov_07_1103,ACPT_experiment_5_30_19,3.1.0,59.955008840755866,
,,,C,G,y,b,L,U,y,L,u,,,,,6,14,134,14,3,0,3,0,,,,,0,7,7,24,,,,,,down,0.6805440179277866,2349.289816084848,None,001,95,2019_Nov_07_1103,ACPT_experiment_5_30_19,3.1.0,59.955008840755866,
,,,C,G,y,b,R,G,g,R,c ,,,,,6,14,134,14,3,0,3,0,,,,,0,8,8,7,,,,,,down,0.6338528485598545,2351.254676059637,None,001,95,2019_Nov_07_1103,ACPT_experiment_5_30_19,3.1.0,59.955008840755866,
,,,C,G,y,b,L,D,g,R,i,,,,,6,14,134,14,3,0,3,0,,,,,0,9,9,15,,,,,,down,0.5504363034406197,2353.15611657941,None,001,95,2019_Nov_07_1103,ACPT_experiment_5_30_19,3.1.0,59.955008840755866,
,,,C,G,y,b,R,D,y,R,y,,,,,6,14,134,14,3,0,3,0,,,,,0,10,10,27,,,,,,down,0.5670900305240139,2354.9908778954077,None,001,95,2019_Nov_07_1103,ACPT_experiment_5_30_19,3.1.0,59.955008840755866,
,,,C,G,y,b,L,U,g,L,u,,,,,6,14,134,14,3,0,3,0,,,,,0,11,11,22,,,,,,down,0.600479589668339,2356.8422609416957,None,001,95,2019_Nov_07_1103,ACPT_experiment_5_30_19,3.1.0,59.955008840755866,
,,,C,G,y,b,L,D,d,R,c ,,,,,6,14,134,14,3,0,3,0,,,,,0,12,12,13,,,,,,up,0.6004542337191197,2358.7270643364955,None,001,95,2019_Nov_07_1103,ACPT_experiment_5_30_19,3.1.0,59.955008840755866,
,,,C,G,y,b,R,U,d,R,u,,,,,6,14,134,14,3,0,3,0,,,,,0,13,13,9,,,,,,up,0.4670212676041956,2360.6118390549236,None,001,95,2019_Nov_07_1103,ACPT_experiment_5_30_19,3.1.0,59.955008840755866,
,,,C,G,y,b,L,G,g,L,c ,,,,,6,14,134,14,3,0,3,0,,,,,0,14,14,18,,,,,,up,0.6669420604484912,2362.380126127736,None,001,95,2019_Nov_07_1103,ACPT_experiment_5_30_19,3.1.0,59.955008840755866,
,,,C,G,y,b,L,U,d,R,u,,,,,6,14,134,14,3,0,3,0,,,,,0,15,15,21,,,,,,up,0.4503286010276497,2364.331365128084,None,001,95,2019_Nov_07_1103,ACPT_experiment_5_30_19,3.1.0,59.955008840755866,
,,,C,G,y,b,L,D,d,L,c ,,,,,6,14,134,14,3,0,3,0,,,,,0,16,16,12,,,,,,up,0.6171345241773452,2366.0660124026817,None,001,95,2019_Nov_07_1103,ACPT_experiment_5_30_19,3.1.0,59.955008840755866,
,,,C,G,y,b,R,D,d,R,c ,,,,,6,14,134,14,3,0,3,0,,,,,0,17,17,1,,,,,,up,0.7339204040531513,2367.9674429611887,None,001,95,2019_Nov_07_1103,ACPT_experiment_5_30_19,3.1.0,59.955008840755866,
,,,C,G,y,b,R,D,g,L,i,,,,,6,14,134,14,3,0,3,0,,,,,0,18,18,2,,,,,,down,0.6171411650216214,2369.9856769072503,None,001,95,2019_Nov_07_1103,ACPT_experiment_5_30_19,3.1.0,59.955008840755866,
,,,C,G,y,b,R,U,y,L,u,,,,,6,14,134,14,3,0,3,0,,,,,0,19,19,30,,,,,,down,0.7338917276820212,2371.8871316142804,None,001,95,2019_Nov_07_1103,ACPT_experiment_5_30_19,3.1.0,59.955008840755866,
,,,C,G,y,b,L,G,d,L,i,,,,,6,14,134,14,3,0,3,0,,,,,0,20,20,16,,,,,,up,0.6504739751367197,2373.9053432229584,None,001,95,2019_Nov_07_1103,ACPT_experiment_5_30_19,3.1.0,59.955008840755866,
,,,C,G,y,b,R,G,d,L,i,,,,,6,14,134,14,3,0,3,0,,,,,0,21,21,4,,,,,,up,0.7338862942642663,2375.840160020188,None,001,95,2019_Nov_07_1103,ACPT_experiment_5_30_19,3.1.0,59.955008840755866,
,,,C,G,y,b,L,U,y,R,u,,,,,6,14,134,14,3,0,3,0,,,,,0,22,22,25,,,,,,down,0.5003718872553691,2377.8750504100417,None,001,95,2019_Nov_07_1103,ACPT_experiment_5_30_19,3.1.0,59.955008840755866,
,,,C,G,y,b,R,U,g,L,u,,,,,6,14,134,14,3,0,3,0,,,,,0,23,23,10,,,,,,down,0.6671729807007978,2379.676425185461,None,001,95,2019_Nov_07_1103,ACPT_experiment_5_30_19,3.1.0,59.955008840755866,
,,,C,G,y,b,R,U,g,R,u,,,,,6,14,134,14,3,0,3,0,,,,,0,24,24,11,,,,,,down,0.9671365768017495,2381.6281873031894,None,001,95,2019_Nov_07_1103,ACPT_experiment_5_30_19,3.1.0,59.955008840755866,
,,,C,G,y,b,L,G,g,R,c ,,,,,6,14,134,14,3,0,3,0,,,,,0,25,25,19,,,,,,down,1.184251118076645,2383.8796470814095,None,001,95,2019_Nov_07_1103,ACPT_experiment_5_30_19,3.1.0,59.955008840755866,
,,,C,G,y,b,R,D,d,L,c,,,,,6,14,134,14,3,0,3,0,,,,,0,26,26,0,,,,,,up,1.3844272815522345,2386.348202685799,None,001,95,2019_Nov_07_1103,ACPT_experiment_5_30_19,3.1.0,59.955008840755866,
,,,C,G,y,b,R,U,d,L,u,,,,,6,14,134,14,3,0,3,0,,,,,0,27,27,8,,,,,,down,0.6338142109225373,2389.0002263924034,None,001,95,2019_Nov_07_1103,ACPT_experiment_5_30_19,3.1.0,59.955008840755866,
,,,C,G,y,b,L,D,g,L,i,,,,,6,14,134,14,3,0,3,0,,,,,0,28,28,14,,,,,,down,0.5670948602287353,2390.918365314027,None,001,95,2019_Nov_07_1103,ACPT_experiment_5_30_19,3.1.0,59.955008840755866,
,,,C,G,y,b,L,G,d,R,i,,,,,6,14,134,14,3,0,3,0,,,,,0,29,29,17,,,,,,down,1.768041361590349,2392.7697737162644,None,001,95,2019_Nov_07_1103,ACPT_experiment_5_30_19,3.1.0,59.955008840755866,
,,,C,G,y,b,R,D,g,R,i,,,,,6,14,134,14,3,0,3,0,,,,,0,30,30,3,,,,,,up,2.051554380059315,2395.8221252994417,None,001,95,2019_Nov_07_1103,ACPT_experiment_5_30_19,3.1.0,59.955008840755866,
,,,C,G,y,b,L,U,g,R,u,,,,,6,14,134,14,3,0,3,0,,,,,0,31,31,23,,,,,,down,0.5837718302645953,2399.158003484632,None,001,95,2019_Nov_07_1103,ACPT_experiment_5_30_19,3.1.0,59.955008840755866,
,,,C,G,y,b,R,G,y,R,y,,,,,6,14,134,14,3,0,3,0,,,,,0,32,32,29,,,,,,down,0.7839268637831083,2401.026095799606,None,001,95,2019_Nov_07_1103,ACPT_experiment_5_30_19,3.1.0,59.955008840755866,
,,,C,G,y,b,L,D,y,L,y,,,,,6,14,134,14,3,0,3,0,,,,,0,33,33,32,,,,,,down,0.6671741881264097,2403.0943464685197,None,001,95,2019_Nov_07_1103,ACPT_experiment_5_30_19,3.1.0,59.955008840755866,
,,,C,G,y,b,R,G,y,L,y,,,,,6,14,134,14,3,0,3,0,,,,,0,34,34,28,,,,,,down,0.5170660631147257,2405.0458287652373,None,001,95,2019_Nov_07_1103,ACPT_experiment_5_30_19,3.1.0,59.955008840755866,
,,,C,G,y,b,R,G,g,L,c ,,,,,6,14,134,14,3,0,3,0,,,,,0,35,35,6,,,,,,up,0.5337369960202523,2406.847216218631,None,001,95,2019_Nov_07_1103,ACPT_experiment_5_30_19,3.1.0,59.955008840755866,
,,,C,G,y,b,L,D,g,R,i,,,,,6,14,134,14,3,0,3,0,,,,,1,0,36,15,,,,,,down,0.5670743339837827,2408.6486163499994,None,001,95,2019_Nov_07_1103,ACPT_experiment_5_30_19,3.1.0,59.955008840755866,
,,,C,G,y,b,R,U,y,L,u,,,,,6,14,134,14,3,0,3,0,,,,,1,1,37,30,,,,,,down,0.46682415528448473,2410.550211420319,None,001,95,2019_Nov_07_1103,ACPT_experiment_5_30_19,3.1.0,59.955008840755866,
,,,C,G,y,b,L,D,d,R,c ,,,,,6,14,134,14,3,0,3,0,,,,,1,2,38,13,,,,,,up,0.5504094382085896,2412.3347513547324,None,001,95,2019_Nov_07_1103,ACPT_experiment_5_30_19,3.1.0,59.955008840755866,
,,,C,G,y,b,L,D,d,L,c ,,,,,6,14,134,14,3,0,3,0,,,,,1,3,39,12,,,,,,down,0.5504227198966873,2414.1694776553713,None,001,95,2019_Nov_07_1103,ACPT_experiment_5_30_19,3.1.0,59.955008840755866,
,,,C,G,y,b,R,D,d,R,c ,,,,,6,14,134,14,3,0,3,0,,,,,1,4,40,1,,,,,,up,0.5170612334100042,2416.0042250859688,None,001,95,2019_Nov_07_1103,ACPT_experiment_5_30_19,3.1.0,59.955008840755866,
,,,C,G,y,b,R,G,y,R,y,,,,,6,14,134,14,3,0,3,0,,,,,1,5,41,29,,,,,,down,0.5634807318933781,2417.8425371404282,None,001,95,2019_Nov_07_1103,ACPT_experiment_5_30_19,3.1.0,59.955008840755866,
,,,C,G,y,b,L,D,y,L,y,,,,,6,14,134,14,3,0,3,0,,,,,1,6,42,32,,,,,,down,0.5837814896740383,2419.707057586983,None,001,95,2019_Nov_07_1103,ACPT_experiment_5_30_19,3.1.0,59.955008840755866,
,,,C,G,y,b,L,G,y,R,y,,,,,6,14,134,14,3,0,3,0,,,,,1,7,43,35,,,,,,down,0.43366310153987797,2421.5751489963877,None,001,95,2019_Nov_07_1103,ACPT_experiment_5_30_19,3.1.0,59.955008840755866,
,,,C,G,y,b,R,D,d,L,c,,,,,6,14,134,14,3,0,3,0,,,,,1,8,44,0,,,,,,up,0.4503409771459701,2423.293131073354,None,001,95,2019_Nov_07_1103,ACPT_experiment_5_30_19,3.1.0,59.955008840755866,
,,,C,G,y,b,L,U,g,R,u,,,,,6,14,134,14,3,0,3,0,,,,,1,9,45,23,,,,,,up,0.4000595261095441,2425.044717933176,None,001,95,2019_Nov_07_1103,ACPT_experiment_5_30_19,3.1.0,59.955008840755866,
,,,C,G,y,b,R,G,y,L,y,,,,,6,14,134,14,3,0,3,0,,,,,1,10,46,28,,,,,,down,0.6338193424840028,2426.729089190155,None,001,95,2019_Nov_07_1103,ACPT_experiment_5_30_19,3.1.0,59.955008840755866,
,,,C,G,y,b,L,U,g,L,u,,,,,6,14,134,14,3,0,3,0,,,,,1,11,47,22,,,,,,up,0.6671747918398978,2428.6472284136353,None,001,95,2019_Nov_07_1103,ACPT_experiment_5_30_19,3.1.0,59.955008840755866,
,,,C,G,y,b,L,G,d,R,i,,,,,6,14,134,14,3,0,3,0,,,,,1,12,48,17,,,,,,up,0.8840113232427029,2430.598719766049,None,001,95,2019_Nov_07_1103,ACPT_experiment_5_30_19,3.1.0,59.955008840755866,
,,,C,G,y,b,L,D,g,L,i,,,,,6,14,134,14,3,0,3,0,,,,,1,13,49,14,,,,,,down,0.5671060289200796,2432.767048857292,None,001,95,2019_Nov_07_1103,ACPT_experiment_5_30_19,3.1.0,59.955008840755866,
,,,C,G,y,b,R,U,g,L,u,,,,,6,14,134,14,3,0,3,0,,,,,1,14,50,10,,,,,,down,0.6671784141180979,2434.6184651077992,None,001,95,2019_Nov_07_1103,ACPT_experiment_5_30_19,3.1.0,59.955008840755866,
,,,C,G,y,b,L,G,y,L,y,,,,,6,14,134,14,3,0,3,0,,,,,1,15,51,34,,,,,,down,0.41698522593378584,2436.569958573209,None,001,95,2019_Nov_07_1103,ACPT_experiment_5_30_19,3.1.0,59.955008840755866,
,,,C,G,y,b,R,D,g,R,i,,,,,6,14,134,14,3,0,3,0,,,,,1,16,52,3,,,,,,up,0.5334861532369359,2438.288209906207,None,001,95,2019_Nov_07_1103,ACPT_experiment_5_30_19,3.1.0,59.955008840755866,
,,,C,G,y,b,R,U,d,L,u,,,,,6,14,134,14,3,0,3,0,,,,,1,17,53,8,,,,,,up,0.48369914321028773,2440.105999942043,None,001,95,2019_Nov_07_1103,ACPT_experiment_5_30_19,3.1.0,59.955008840755866,
,,,C,G,y,b,R,D,g,L,i,,,,,6,14,134,14,3,0,3,0,,,,,1,18,54,2,,,,,,down,1.3843886439158268,2441.8740198718197,None,001,95,2019_Nov_07_1103,ACPT_experiment_5_30_19,3.1.0,59.955008840755866,
,,,C,G,y,b,R,G,g,L,c ,,,,,6,14,134,14,3,0,3,0,,,,,1,19,55,6,,,,,,down,0.4503424864283261,2444.5427238688835,None,001,95,2019_Nov_07_1103,ACPT_experiment_5_30_19,3.1.0,59.955008840755866,
,,,C,G,y,b,R,G,d,L,i,,,,,6,14,134,14,3,0,3,0,,,,,1,20,56,4,,,,,,up,0.7339185929140513,2446.2606857214614,None,001,95,2019_Nov_07_1103,ACPT_experiment_5_30_19,3.1.0,59.955008840755866,
,,,C,G,y,b,L,U,y,R,u,,,,,6,14,134,14,3,0,3,0,,,,,1,21,57,25,,,,,,down,0.6338404724419888,2448.2788931041478,None,001,95,2019_Nov_07_1103,ACPT_experiment_5_30_19,3.1.0,59.955008840755866,
,,,C,G,y,b,L,D,y,R,y,,,,,6,14,134,14,3,0,3,0,,,,,1,22,58,33,,,,,,down,0.6171324111819558,2450.1970528538723,None,001,95,2019_Nov_07_1103,ACPT_experiment_5_30_19,3.1.0,59.955008840755866,
,,,C,G,y,b,R,U,y,R,u,,,,,6,14,134,14,3,0,3,0,,,,,1,23,59,31,,,,,,down,0.4670230787437504,2452.098508164616,None,001,95,2019_Nov_07_1103,ACPT_experiment_5_30_19,3.1.0,59.955008840755866,
,,,C,G,y,b,R,U,d,R,u,,,,,6,14,134,14,3,0,3,0,,,,,1,24,60,9,,,,,,up,0.5837760562562835,2453.8498481057895,None,001,95,2019_Nov_07_1103,ACPT_experiment_5_30_19,3.1.0,59.955008840755866,
,,,C,G,y,b,R,D,y,L,y,,,,,6,14,134,14,3,0,3,0,,,,,1,25,61,26,,,,,,down,0.7171540844810806,2455.7347770729093,None,001,95,2019_Nov_07_1103,ACPT_experiment_5_30_19,3.1.0,59.955008840755866,
,,,C,G,y,b,R,U,g,R,u,,,,,6,14,134,14,3,0,3,0,,,,,1,26,62,11,,,,,,up,0.6335576328651769,2457.7697568122985,None,001,95,2019_Nov_07_1103,ACPT_experiment_5_30_19,3.1.0,59.955008840755866,
,,,C,G,y,b,R,D,y,R,y,,,,,6,14,134,14,3,0,3,0,,,,,1,27,63,27,,,,,,down,0.5003761132470572,2459.687648815274,None,001,95,2019_Nov_07_1103,ACPT_experiment_5_30_19,3.1.0,59.955008840755866,
,,,C,G,y,b,R,G,g,R,c ,,,,,6,14,134,14,3,0,3,0,,,,,1,28,64,7,,,,,,down,1.217593285744897,2461.4723484317947,None,001,95,2019_Nov_07_1103,ACPT_experiment_5_30_19,3.1.0,59.955008840755866,
,,,C,G,y,b,L,G,g,R,c ,,,,,6,14,134,14,3,0,3,0,,,,,1,29,65,19,,,,,,up,1.000762187759392,2463.9742634096747,None,001,95,2019_Nov_07_1103,ACPT_experiment_5_30_19,3.1.0,59.955008840755866,
,,,C,G,y,b,L,G,g,L,c ,,,,,6,14,134,14,3,0,3,0,,,,,1,30,66,18,,,,,,down,0.9507454649074134,2466.2426431524445,None,001,95,2019_Nov_07_1103,ACPT_experiment_5_30_19,3.1.0,59.955008840755866,
,,,C,G,y,b,L,G,d,L,i,,,,,6,14,134,14,3,0,3,0,,,,,1,31,67,16,,,,,,up,1.8014152241948977,2468.461000437088,None,001,95,2019_Nov_07_1103,ACPT_experiment_5_30_19,3.1.0,59.955008840755866,
,,,C,G,y,b,R,G,d,R,i,,,,,6,14,134,14,3,0,3,0,,,,,1,32,68,5,,,,,,up,0.5671024066418795,2471.5300380459985,None,001,95,2019_Nov_07_1103,ACPT_experiment_5_30_19,3.1.0,59.955008840755866,
,,,C,G,y,b,L,U,y,L,u,,,,,6,14,134,14,3,0,3,0,,,,,1,33,69,24,,,,,,down,0.6838765141123986,2473.381434373974,None,001,95,2019_Nov_07_1103,ACPT_experiment_5_30_19,3.1.0,59.955008840755866,
,,,C,G,y,b,L,U,d,L,u,,,,,6,14,134,14,3,0,3,0,,,,,1,34,70,20,,,,,,up,2.2517251101171496,2475.349632278365,None,001,95,2019_Nov_07_1103,ACPT_experiment_5_30_19,3.1.0,59.955008840755866,
,,,C,G,y,b,L,U,d,R,u,,,,,6,14,134,14,3,0,3,0,,,,,1,35,71,21,,,,,,up,0.4670182490390289,2478.868993658598,None,001,95,2019_Nov_07_1103,ACPT_experiment_5_30_19,3.1.0,59.955008840755866,
,,,C,G,y,b,,,,,,,,,,6,14,134,14,4,0,4,0,0,0,0,0,,,,,,,,,,,,,,001,95,2019_Nov_07_1103,ACPT_experiment_5_30_19,3.1.0,59.955008840755866,
,,,C,G,y,b,L,G,d,R,i,,,,,6,14,134,14,4,0,4,0,,,,,0,0,0,17,,,,,,up,0.5502171555936002,2483.3559253834783,None,001,95,2019_Nov_07_1103,ACPT_experiment_5_30_19,3.1.0,59.955008840755866,
,,,C,G,y,b,R,U,d,L,u,,,,,6,14,134,14,4,0,4,0,,,,,0,1,1,8,,,,,,up,0.33357773651050593,2485.190495624288,None,001,95,2019_Nov_07_1103,ACPT_experiment_5_30_19,3.1.0,59.955008840755866,
,,,C,G,y,b,R,U,y,L,u,,,,,6,14,134,14,4,0,4,0,,,,,0,2,2,30,,,,,,down,0.7172105316540183,2486.825077154531,None,001,95,2019_Nov_07_1103,ACPT_experiment_5_30_19,3.1.0,59.955008840755866,
,,,C,G,y,b,R,D,g,R,i,,,,,6,14,134,14,4,0,4,0,,,,,0,3,3,3,,,,,,up,0.46702851216105046,2488.843292687344,None,001,95,2019_Nov_07_1103,ACPT_experiment_5_30_19,3.1.0,59.955008840755866,
,,,C,G,y,b,L,U,d,R,u,,,,,6,14,134,14,4,0,4,0,,,,,0,4,4,21,,,,,,up,0.43344244441004776,2490.6114958440394,None,001,95,2019_Nov_07_1103,ACPT_experiment_5_30_19,3.1.0,59.955008840755866,
,,,C,G,y,b,L,D,g,L,i,,,,,6,14,134,14,4,0,4,0,,,,,0,5,5,14,,,,,,down,0.5504356997275863,2492.3292726585596,None,001,95,2019_Nov_07_1103,ACPT_experiment_5_30_19,3.1.0,59.955008840755866,
,,,C,G,y,b,R,U,g,R,u,,,,,6,14,134,14,4,0,4,0,,,,,0,6,6,11,,,,,,down,0.7172120409363743,2494.1640282392827,None,001,95,2019_Nov_07_1103,ACPT_experiment_5_30_19,3.1.0,59.955008840755866,
,,,C,G,y,b,L,G,y,L,y,,,,,6,14,134,14,4,0,4,0,,,,,0,7,7,34,,,,,,down,0.7672462714681387,2496.1822416591003,None,001,95,2019_Nov_07_1103,ACPT_experiment_5_30_19,3.1.0,59.955008840755866,
,,,C,G,y,b,R,U,g,L,u,,,,,6,14,134,14,4,0,4,0,,,,,0,8,8,10,,,,,,down,0.6838508563068899,2498.2504938372967,None,001,95,2019_Nov_07_1103,ACPT_experiment_5_30_19,3.1.0,59.955008840755866,
,,,C,G,y,b,R,D,y,L,y,,,,,6,14,134,14,4,0,4,0,,,,,0,9,9,26,,,,,,down,0.45032618617551634,2500.2186712154435,None,001,95,2019_Nov_07_1103,ACPT_experiment_5_30_19,3.1.0,59.955008840755866,
,,,C,G,y,b,R,G,g,R,c ,,,,,6,14,134,14,4,0,4,0,,,,,0,10,10,7,,,,,,down,0.6338459058592889,2501.953318490041,None,001,95,2019_Nov_07_1103,ACPT_experiment_5_30_19,3.1.0,59.955008840755866,
,,,C,G,y,b,L,D,y,R,y,,,,,6,14,134,14,4,0,4,0,,,,,0,11,11,33,,,,,,up,0.5001128943454205,2503.888398808029,None,001,95,2019_Nov_07_1103,ACPT_experiment_5_30_19,3.1.0,59.955008840755866,
,,,C,G,y,b,L,D,d,R,c ,,,,,6,14,134,14,4,0,4,0,,,,,0,12,12,13,,,,,,up,0.7672837016789344,2505.6561313703805,None,001,95,2019_Nov_07_1103,ACPT_experiment_5_30_19,3.1.0,59.955008840755866,
,,,C,G,y,b,R,D,d,R,c ,,,,,6,14,134,14,4,0,4,0,,,,,0,13,13,1,,,,,,up,0.48371755645894154,2507.7077002395536,None,001,95,2019_Nov_07_1103,ACPT_experiment_5_30_19,3.1.0,59.955008840755866,
,,,C,G,y,b,R,G,d,L,i,,,,,6,14,134,14,4,0,4,0,,,,,0,14,14,4,,,,,,up,0.6504872568243627,2509.4757464308486,None,001,95,2019_Nov_07_1103,ACPT_experiment_5_30_19,3.1.0,59.955008840755866,
,,,C,G,y,b,R,U,d,R,u,,,,,6,14,134,14,4,0,4,0,,,,,0,15,15,9,,,,,,up,1.2342771984817773,2511.4105590020863,None,001,95,2019_Nov_07_1103,ACPT_experiment_5_30_19,3.1.0,59.955008840755866,
,,,C,G,y,b,R,G,g,L,c ,,,,,6,14,134,14,4,0,4,0,,,,,0,16,16,6,,,,,,down,0.9173809598555636,2513.9291346497494,None,001,95,2019_Nov_07_1103,ACPT_experiment_5_30_19,3.1.0,59.955008840755866,
,,,C,G,y,b,L,G,y,R,y,,,,,6,14,134,14,4,0,4,0,,,,,0,17,17,35,,,,,,down,0.6504978218031283,2516.130837603597,None,001,95,2019_Nov_07_1103,ACPT_experiment_5_30_19,3.1.0,59.955008840755866,
,,,C,G,y,b,R,D,d,L,c,,,,,6,14,134,14,4,0,4,0,,,,,0,18,18,0,,,,,,up,0.7505735274230574,2518.0656513822614,None,001,95,2019_Nov_07_1103,ACPT_experiment_5_30_19,3.1.0,59.955008840755866,
,,,C,G,y,b,L,D,g,R,i,,,,,6,14,134,14,4,0,4,0,,,,,0,19,19,15,,,,,,down,0.5837796785344835,2520.1005390554064,None,001,95,2019_Nov_07_1103,ACPT_experiment_5_30_19,3.1.0,59.955008840755866,
,,,C,G,y,b,L,U,y,R,u,,,,,6,14,134,14,4,0,4,0,,,,,0,20,20,25,,,,,,down,0.8006068523850445,2521.9686392186504,None,001,95,2019_Nov_07_1103,ACPT_experiment_5_30_19,3.1.0,59.955008840755866,
,,,C,G,y,b,L,G,g,R,c ,,,,,6,14,134,14,4,0,4,0,,,,,0,21,21,19,,,,,,up,0.6004554411451863,2524.0535665557445,None,001,95,2019_Nov_07_1103,ACPT_experiment_5_30_19,3.1.0,59.955008840755866,
,,,C,G,y,b,R,D,g,L,i,,,,,6,14,134,14,4,0,4,0,,,,,0,22,22,2,,,,,,down,0.8673192603791904,2525.9383494242993,None,001,95,2019_Nov_07_1103,ACPT_experiment_5_30_19,3.1.0,59.955008840755866,
,,,C,G,y,b,L,U,g,L,u,,,,,6,14,134,14,4,0,4,0,,,,,0,23,23,22,,,,,,down,0.7338935388211212,2528.089986754535,None,001,95,2019_Nov_07_1103,ACPT_experiment_5_30_19,3.1.0,59.955008840755866,
,,,C,G,y,b,R,U,y,R,u,,,,,6,14,134,14,4,0,4,0,,,,,0,24,24,31,,,,,,down,0.5170633464053935,2530.1081974576437,None,001,95,2019_Nov_07_1103,ACPT_experiment_5_30_19,3.1.0,59.955008840755866,
,,,C,G,y,b,R,G,y,R,y,,,,,6,14,134,14,4,0,4,0,,,,,0,25,25,29,,,,,,down,0.767278871974213,2531.909562271797,None,001,95,2019_Nov_07_1103,ACPT_experiment_5_30_19,3.1.0,59.955008840755866,
,,,C,G,y,b,L,G,g,L,c ,,,,,6,14,134,14,4,0,4,0,,,,,0,26,26,18,,,,,,down,0.9173673763111765,2533.961142611518,None,001,95,2019_Nov_07_1103,ACPT_experiment_5_30_19,3.1.0,59.955008840755866,
,,,C,G,y,b,R,D,y,R,y,,,,,6,14,134,14,4,0,4,0,,,,,0,27,27,27,,,,,,down,0.5501453137376302,2536.179781226455,None,001,95,2019_Nov_07_1103,ACPT_experiment_5_30_19,3.1.0,59.955008840755866,
,,,C,G,y,b,L,U,d,L,u,,,,,6,14,134,14,4,0,4,0,,,,,0,28,28,20,,,,,,up,0.517064553831915,2538.0142427989103,None,001,95,2019_Nov_07_1103,ACPT_experiment_5_30_19,3.1.0,59.955008840755866,
,,,C,G,y,b,L,G,d,L,i,,,,,6,14,134,14,4,0,4,0,,,,,0,29,29,16,,,,,,up,0.5670987843632247,2539.815620894751,None,001,95,2019_Nov_07_1103,ACPT_experiment_5_30_19,3.1.0,59.955008840755866,
,,,C,G,y,b,L,U,y,L,u,,,,,6,14,134,14,4,0,4,0,,,,,0,30,30,24,,,,,,down,0.5170639501188816,2541.700398631745,None,001,95,2019_Nov_07_1103,ACPT_experiment_5_30_19,3.1.0,59.955008840755866,
,,,C,G,y,b,R,G,y,L,y,,,,,6,14,134,14,4,0,4,0,,,,,0,31,31,28,,,,,,down,0.4169616811236665,2543.5351511939034,None,001,95,2019_Nov_07_1103,ACPT_experiment_5_30_19,3.1.0,59.955008840755866,
,,,C,G,y,b,L,D,y,L,y,,,,,6,14,134,14,4,0,4,0,,,,,0,32,32,32,,,,,,down,0.6004569504279971,2545.2531139520506,None,001,95,2019_Nov_07_1103,ACPT_experiment_5_30_19,3.1.0,59.955008840755866,
,,,C,G,y,b,L,D,d,L,c ,,,,,6,14,134,14,4,0,4,0,,,,,0,33,33,12,,,,,,down,0.3335810569324167,2547.154574394355,None,001,95,2019_Nov_07_1103,ACPT_experiment_5_30_19,3.1.0,59.955008840755866,
,,,C,G,y,b,R,G,d,R,i,,,,,6,14,134,14,4,0,4,0,,,,,0,34,34,5,,,,,,up,0.7839386361879406,2548.7724741248576,None,001,95,2019_Nov_07_1103,ACPT_experiment_5_30_19,3.1.0,59.955008840755866,
,,,C,G,y,b,L,U,g,R,u,,,,,6,14,134,14,4,0,4,0,,,,,0,35,35,23,,,,,,down,0.6638534643470848,2550.8607276191487,None,001,95,2019_Nov_07_1103,ACPT_experiment_5_30_19,3.1.0,59.955008840755866,
,,,C,G,y,b,R,G,d,R,i,,,,,6,14,134,14,4,0,4,0,,,,,1,0,36,5,,,,,,up,0.7338941425341545,2552.8089000589225,None,001,95,2019_Nov_07_1103,ACPT_experiment_5_30_19,3.1.0,59.955008840755866,
,,,C,G,y,b,L,U,g,L,u,,,,,6,14,134,14,4,0,4,0,,,,,1,1,37,22,,,,,,down,0.6171293926163344,2554.827112271313,None,001,95,2019_Nov_07_1103,ACPT_experiment_5_30_19,3.1.0,59.955008840755866,
,,,C,G,y,b,R,G,g,R,c ,,,,,6,14,134,14,4,0,4,0,,,,,1,2,38,7,,,,,,down,0.5504209087571326,2556.7285654690613,None,001,95,2019_Nov_07_1103,ACPT_experiment_5_30_19,3.1.0,59.955008840755866,
,,,C,G,y,b,R,D,g,R,i,,,,,6,14,134,14,4,0,4,0,,,,,1,3,39,3,,,,,,up,0.6838511581631792,2558.5633041458186,None,001,95,2019_Nov_07_1103,ACPT_experiment_5_30_19,3.1.0,59.955008840755866,
,,,C,G,y,b,R,G,y,R,y,,,,,6,14,134,14,4,0,4,0,,,,,1,4,40,29,,,,,,down,0.7672471770374614,2560.5314733738387,None,001,95,2019_Nov_07_1103,ACPT_experiment_5_30_19,3.1.0,59.955008840755866,
,,,C,G,y,b,L,G,g,R,c ,,,,,6,14,134,14,4,0,4,0,,,,,1,5,41,19,,,,,,down,0.8506534590342198,2562.5830449597206,None,001,95,2019_Nov_07_1103,ACPT_experiment_5_30_19,3.1.0,59.955008840755866,
,,,C,G,y,b,R,U,g,L,u,,,,,6,14,134,14,4,0,4,0,,,,,1,6,42,10,,,,,,up,0.7839316934878298,2564.7180134700466,None,001,95,2019_Nov_07_1103,ACPT_experiment_5_30_19,3.1.0,59.955008840755866,
,,,C,G,y,b,L,G,g,L,c ,,,,,6,14,134,14,4,0,4,0,,,,,1,7,43,18,,,,,,down,0.7339137632093298,2566.7862611203946,None,001,95,2019_Nov_07_1103,ACPT_experiment_5_30_19,3.1.0,59.955008840755866,
,,,C,G,y,b,L,G,y,L,y,,,,,6,14,134,14,4,0,4,0,,,,,1,8,44,34,,,,,,down,0.4837024636321985,2568.8044739364987,None,001,95,2019_Nov_07_1103,ACPT_experiment_5_30_19,3.1.0,59.955008840755866,
,,,C,G,y,b,L,D,g,L,i,,,,,6,14,134,14,4,0,4,0,,,,,1,9,45,14,,,,,,down,0.4837045766284973,2570.5724947718445,None,001,95,2019_Nov_07_1103,ACPT_experiment_5_30_19,3.1.0,59.955008840755866,
,,,C,G,y,b,R,D,d,L,c,,,,,6,14,134,14,4,0,4,0,,,,,1,10,46,0,,,,,,up,0.7839283730654643,2572.3405113811987,None,001,95,2019_Nov_07_1103,ACPT_experiment_5_30_19,3.1.0,59.955008840755866,
,,,C,G,y,b,R,U,g,R,u,,,,,6,14,134,14,4,0,4,0,,,,,1,11,47,11,,,,,,down,0.8673397866236883,2574.408754503699,None,001,95,2019_Nov_07_1103,ACPT_experiment_5_30_19,3.1.0,59.955008840755866,
,,,C,G,y,b,L,G,d,R,i,,,,,6,14,134,14,4,0,4,0,,,,,1,12,48,17,,,,,,up,0.6171318074684677,2576.5604087379015,None,001,95,2019_Nov_07_1103,ACPT_experiment_5_30_19,3.1.0,59.955008840755866,
,,,C,G,y,b,R,D,y,L,y,,,,,6,14,134,14,4,0,4,0,,,,,1,13,49,26,,,,,,down,0.6338066645093932,2578.4952231202788,None,001,95,2019_Nov_07_1103,ACPT_experiment_5_30_19,3.1.0,59.955008840755866,
,,,C,G,y,b,R,G,d,L,i,,,,,6,14,134,14,4,0,4,0,,,,,1,14,50,4,,,,,,up,0.8840146436646137,2580.430031163669,None,001,95,2019_Nov_07_1103,ACPT_experiment_5_30_19,3.1.0,59.955008840755866,
,,,C,G,y,b,L,U,y,L,u,,,,,6,14,134,14,4,0,4,0,,,,,1,15,51,24,,,,,,down,0.7672323860670076,2582.6150517140622,None,001,95,2019_Nov_07_1103,ACPT_experiment_5_30_19,3.1.0,59.955008840755866,
,,,C,G,y,b,L,D,y,R,y,,,,,6,14,134,14,4,0,4,0,,,,,1,16,52,33,,,,,,down,0.5003773206731239,2584.683286988293,None,001,95,2019_Nov_07_1103,ACPT_experiment_5_30_19,3.1.0,59.955008840755866,
,,,C,G,y,b,R,U,y,L,u,,,,,6,14,134,14,4,0,4,0,,,,,1,17,53,30,,,,,,down,0.3836213245945146,2586.4679881140974,None,001,95,2019_Nov_07_1103,ACPT_experiment_5_30_19,3.1.0,59.955008840755866,
,,,C,G,y,b,R,G,y,L,y,,,,,6,14,134,14,4,0,4,0,,,,,1,18,54,28,,,,,,down,0.43339897706846386,2588.1361931423025,None,001,95,2019_Nov_07_1103,ACPT_experiment_5_30_19,3.1.0,59.955008840755866,
,,,C,G,y,b,L,G,d,L,i,,,,,6,14,134,14,4,0,4,0,,,,,1,19,55,16,,,,,,up,0.5837769618260609,2589.8539101892275,None,001,95,2019_Nov_07_1103,ACPT_experiment_5_30_19,3.1.0,59.955008840755866,
,,,C,G,y,b,R,D,y,R,y,,,,,6,14,134,14,4,0,4,0,,,,,1,20,56,27,,,,,,down,1.4177486211196992,2591.7220118617543,None,001,95,2019_Nov_07_1103,ACPT_experiment_5_30_19,3.1.0,59.955008840755866,
,,,C,G,y,b,R,D,d,R,c ,,,,,6,14,134,14,4,0,4,0,,,,,1,21,57,1,,,,,,up,0.6002193893323238,2594.424311585978,None,001,95,2019_Nov_07_1103,ACPT_experiment_5_30_19,3.1.0,59.955008840755866,
,,,C,G,y,b,R,U,y,R,u,,,,,6,14,134,14,4,0,4,0,,,,,1,22,58,31,,,,,,down,0.46702579545217304,2596.30885055445,None,001,95,2019_Nov_07_1103,ACPT_experiment_5_30_19,3.1.0,59.955008840755866,
,,,C,G,y,b,R,U,d,L,u,,,,,6,14,134,14,4,0,4,0,,,,,1,23,59,8,,,,,,up,1.5011693922301674,2598.0434893770644,None,001,95,2019_Nov_07_1103,ACPT_experiment_5_30_19,3.1.0,59.955008840755866,
,,,C,G,y,b,R,U,d,R,u,,,,,6,14,134,14,4,0,4,0,,,,,1,24,60,9,,,,,,up,0.6168758331241406,2600.829234926492,None,001,95,2019_Nov_07_1103,ACPT_experiment_5_30_19,3.1.0,59.955008840755866,
,,,C,G,y,b,L,G,y,R,y,,,,,6,14,134,14,4,0,4,0,,,,,1,25,61,35,,,,,,down,0.5170847782201236,2602.7471115347835,None,001,95,2019_Nov_07_1103,ACPT_experiment_5_30_19,3.1.0,59.955008840755866,
,,,C,G,y,b,L,D,y,L,y,,,,,6,14,134,14,4,0,4,0,,,,,1,26,62,32,,,,,,down,0.6171272796204903,2604.565171430365,None,001,95,2019_Nov_07_1103,ACPT_experiment_5_30_19,3.1.0,59.955008840755866,
,,,C,G,y,b,R,D,g,L,i,,,,,6,14,134,14,4,0,4,0,,,,,1,27,63,2,,,,,,up,0.6336303802909242,2606.4667855176476,None,001,95,2019_Nov_07_1103,ACPT_experiment_5_30_19,3.1.0,59.955008840755866,
,,,C,G,y,b,L,D,d,R,c ,,,,,6,14,134,14,4,0,4,0,,,,,1,28,64,13,,,,,,up,0.55042362546601,2608.38475449404,None,001,95,2019_Nov_07_1103,ACPT_experiment_5_30_19,3.1.0,59.955008840755866,
,,,C,G,y,b,L,D,g,R,i,,,,,6,14,134,14,4,0,4,0,,,,,1,29,65,15,,,,,,up,0.5837724339776287,2610.219497094933,None,001,95,2019_Nov_07_1103,ACPT_experiment_5_30_19,3.1.0,59.955008840755866,
,,,C,G,y,b,L,U,d,L,u,,,,,6,14,134,14,4,0,4,0,,,,,1,30,66,20,,,,,,up,0.8006228507815649,2612.0875906173333,None,001,95,2019_Nov_07_1103,ACPT_experiment_5_30_19,3.1.0,59.955008840755866,
,,,C,G,y,b,L,D,d,L,c ,,,,,6,14,134,14,4,0,4,0,,,,,1,31,67,12,,,,,,up,0.5803204026042295,2614.1926303537275,None,001,95,2019_Nov_07_1103,ACPT_experiment_5_30_19,3.1.0,59.955008840755866,
,,,C,G,y,b,L,U,y,R,u,,,,,6,14,134,14,4,0,4,0,,,,,1,32,68,25,,,,,,down,0.5837775655390942,2616.0572917672853,None,001,95,2019_Nov_07_1103,ACPT_experiment_5_30_19,3.1.0,59.955008840755866,
,,,C,G,y,b,L,U,d,R,u,,,,,6,14,134,14,4,0,4,0,,,,,1,33,69,21,,,,,,up,1.0007697341729909,2617.908709527075,None,001,95,2019_Nov_07_1103,ACPT_experiment_5_30_19,3.1.0,59.955008840755866,
,,,C,G,y,b,L,U,g,R,u,,,,,6,14,134,14,4,0,4,0,,,,,1,34,70,23,,,,,,up,0.7839537290151384,2620.1770913828414,None,001,95,2019_Nov_07_1103,ACPT_experiment_5_30_19,3.1.0,59.955008840755866,
,,,C,G,y,b,R,G,g,L,c ,,,,,6,14,134,14,4,0,4,0,,,,,1,35,71,6,,,,,,down,1.0841938257053698,2622.2453631817125,None,001,95,2019_Nov_07_1103,ACPT_experiment_5_30_19,3.1.0,59.955008840755866,
,,,C,G,y,b,,,,,,,,,,6,14,134,14,5,0,5,0,0,0,0,0,,,,,,,,,,,,,,001,95,2019_Nov_07_1103,ACPT_experiment_5_30_19,3.1.0,59.955008840755866,
,,,C,G,y,b,L,G,y,L,y,,,,,6,14,134,14,5,0,5,0,,,,,0,0,0,34,,,,,,down,0.6171390520257773,2626.1316658979385,None,001,95,2019_Nov_07_1103,ACPT_experiment_5_30_19,3.1.0,59.955008840755866,
,,,C,G,y,b,L,G,d,R,i,,,,,6,14,134,14,5,0,5,0,,,,,0,1,1,17,,,,,,up,0.4837226880204071,2628.0164206938352,None,001,95,2019_Nov_07_1103,ACPT_experiment_5_30_19,3.1.0,59.955008840755866,
,,,C,G,y,b,R,D,d,R,c ,,,,,6,14,134,14,5,0,5,0,,,,,0,2,2,1,,,,,,up,0.5337375997337404,2629.784464470278,None,001,95,2019_Nov_07_1103,ACPT_experiment_5_30_19,3.1.0,59.955008840755866,
,,,C,G,y,b,L,D,g,L,i,,,,,6,14,134,14,5,0,5,0,,,,,0,3,3,14,,,,,,up,0.7172108335103076,2631.60252527143,None,001,95,2019_Nov_07_1103,ACPT_experiment_5_30_19,3.1.0,59.955008840755866,
,,,C,G,y,b,R,G,g,R,c ,,,,,6,14,134,14,5,0,5,0,,,,,0,4,4,7,,,,,,up,0.8506540627477079,2633.604053269227,None,001,95,2019_Nov_07_1103,ACPT_experiment_5_30_19,3.1.0,59.955008840755866,
,,,C,G,y,b,L,D,d,L,c ,,,,,6,14,134,14,5,0,5,0,,,,,0,5,5,12,,,,,,up,1.5678688203929596,2635.739017553561,None,001,95,2019_Nov_07_1103,ACPT_experiment_5_30_19,3.1.0,59.955008840755866,
,,,C,G,y,b,L,G,g,R,c ,,,,,6,14,134,14,5,0,5,0,,,,,0,6,6,19,,,,,,down,0.7839332027701857,2638.5911987085374,None,001,95,2019_Nov_07_1103,ACPT_experiment_5_30_19,3.1.0,59.955008840755866,
,,,C,G,y,b,L,G,d,L,i,,,,,6,14,134,14,5,0,5,0,,,,,0,7,7,16,,,,,,up,0.7837418257249738,2640.6596060409947,None,001,95,2019_Nov_07_1103,ACPT_experiment_5_30_19,3.1.0,59.955008840755866,
,,,C,G,y,b,R,U,y,L,u,,,,,6,14,134,14,5,0,5,0,,,,,0,8,8,30,,,,,,down,0.5337379015895749,2642.761055193864,None,001,95,2019_Nov_07_1103,ACPT_experiment_5_30_19,3.1.0,59.955008840755866,
,,,C,G,y,b,R,D,g,R,i,,,,,6,14,134,14,5,0,5,0,,,,,0,9,9,3,,,,,,up,0.5503946472385906,2644.5958089634487,None,001,95,2019_Nov_07_1103,ACPT_experiment_5_30_19,3.1.0,59.955008840755866,
,,,C,G,y,b,L,U,y,R,u,,,,,6,14,134,14,5,0,5,0,,,,,0,10,10,25,,,,,,down,0.6671766029789978,2646.430531038097,None,001,95,2019_Nov_07_1103,ACPT_experiment_5_30_19,3.1.0,59.955008840755866,
,,,C,G,y,b,R,U,d,R,u,,,,,6,14,134,14,5,0,5,0,,,,,0,11,11,9,,,,,,up,0.5170606296969709,2648.382021786798,None,001,95,2019_Nov_07_1103,ACPT_experiment_5_30_19,3.1.0,59.955008840755866,
,,,C,G,y,b,R,G,d,L,i,,,,,6,14,134,14,5,0,5,0,,,,,0,12,12,4,,,,,,up,0.5837836026698824,2650.1833986752117,None,001,95,2019_Nov_07_1103,ACPT_experiment_5_30_19,3.1.0,59.955008840755866,
,,,C,G,y,b,R,U,y,R,u,,,,,6,14,134,14,5,0,5,0,,,,,0,13,13,31,,,,,,down,0.7334603746885477,2652.068588748237,None,001,95,2019_Nov_07_1103,ACPT_experiment_5_30_19,3.1.0,59.955008840755866,
,,,C,G,y,b,L,U,y,L,u,,,,,6,14,134,14,5,0,5,0,,,,,0,14,14,24,,,,,,down,0.7839313916310857,2654.086392850588,None,001,95,2019_Nov_07_1103,ACPT_experiment_5_30_19,3.1.0,59.955008840755866,
,,,C,G,y,b,R,G,y,R,y,,,,,6,14,134,14,5,0,5,0,,,,,0,15,15,29,,,,,,down,0.6671720751305656,2656.1546408027934,None,001,95,2019_Nov_07_1103,ACPT_experiment_5_30_19,3.1.0,59.955008840755866,
,,,C,G,y,b,L,D,y,L,y,,,,,6,14,134,14,5,0,5,0,,,,,0,16,16,32,,,,,,down,0.5170612334100042,2658.1061300422116,None,001,95,2019_Nov_07_1103,ACPT_experiment_5_30_19,3.1.0,59.955008840755866,
,,,C,G,y,b,L,G,y,R,y,,,,,6,14,134,14,5,0,5,0,,,,,0,17,17,35,,,,,,down,0.26667063104923727,2659.924351129185,None,001,95,2019_Nov_07_1103,ACPT_experiment_5_30_19,3.1.0,59.955008840755866,
,,,C,G,y,b,R,D,y,L,y,,,,,6,14,134,14,5,0,5,0,,,,,0,18,18,26,,,,,,down,0.3502664789521077,2661.4753748454496,None,001,95,2019_Nov_07_1103,ACPT_experiment_5_30_19,3.1.0,59.955008840755866,
,,,C,G,y,b,L,U,d,L,u,,,,,6,14,134,14,5,0,5,0,,,,,0,19,19,20,,,,,,up,0.5670879175281698,2663.1266451181345,None,001,95,2019_Nov_07_1103,ACPT_experiment_5_30_19,3.1.0,59.955008840755866,
,,,C,G,y,b,L,U,g,L,u,,,,,6,14,134,14,5,0,5,0,,,,,0,20,20,22,,,,,,up,0.3833656521069315,2664.9783242856865,None,001,95,2019_Nov_07_1103,ACPT_experiment_5_30_19,3.1.0,59.955008840755866,
,,,C,G,y,b,L,U,d,R,u,,,,,6,14,134,14,5,0,5,0,,,,,0,21,21,21,,,,,,up,0.5504338885884863,2666.629304172382,None,001,95,2019_Nov_07_1103,ACPT_experiment_5_30_19,3.1.0,59.955008840755866,
,,,C,G,y,b,L,D,y,R,y,,,,,6,14,134,14,5,0,5,0,,,,,0,22,22,33,,,,,,down,0.6504911809593068,2668.4640618661015,None,001,95,2019_Nov_07_1103,ACPT_experiment_5_30_19,3.1.0,59.955008840755866,
,,,C,G,y,b,R,D,g,L,i,,,,,6,14,134,14,5,0,5,0,,,,,0,23,23,2,,,,,,down,0.7005314486214047,2670.398875946622,None,001,95,2019_Nov_07_1103,ACPT_experiment_5_30_19,3.1.0,59.955008840755866,
,,,C,G,y,b,R,U,g,L,u,,,,,6,14,134,14,5,0,5,0,,,,,0,24,24,10,,,,,,down,0.5670725228446827,2672.3837363319362,None,001,95,2019_Nov_07_1103,ACPT_experiment_5_30_19,3.1.0,59.955008840755866,
,,,C,G,y,b,L,U,g,R,u,,,,,6,14,134,14,5,0,5,0,,,,,0,25,25,23,,,,,,up,0.5671199143212107,2674.235114850376,None,001,95,2019_Nov_07_1103,ACPT_experiment_5_30_19,3.1.0,59.955008840755866,
,,,C,G,y,b,L,G,g,L,c ,,,,,6,14,134,14,5,0,5,0,,,,,0,26,26,18,,,,,,down,0.6671696602784323,2676.0865597772536,None,001,95,2019_Nov_07_1103,ACPT_experiment_5_30_19,3.1.0,59.955008840755866,
,,,C,G,y,b,L,D,d,R,c ,,,,,6,14,134,14,5,0,5,0,,,,,0,27,27,13,,,,,,up,0.883742067210278,2678.054995242741,None,001,95,2019_Nov_07_1103,ACPT_experiment_5_30_19,3.1.0,59.955008840755866,
,,,C,G,y,b,R,D,d,L,c,,,,,6,14,134,14,5,0,5,0,,,,,0,28,28,0,,,,,,down,0.5003749058205358,2680.2230577946602,None,001,95,2019_Nov_07_1103,ACPT_experiment_5_30_19,3.1.0,59.955008840755866,
,,,C,G,y,b,R,G,g,L,c ,,,,,6,14,134,14,5,0,5,0,,,,,0,29,29,6,,,,,,down,0.7005450321657918,2682.0077504684814,None,001,95,2019_Nov_07_1103,ACPT_experiment_5_30_19,3.1.0,59.955008840755866,
,,,C,G,y,b,R,U,d,L,u,,,,,6,14,134,14,5,0,5,0,,,,,0,30,30,8,,,,,,up,0.667172980700343,2683.99260692966,None,001,95,2019_Nov_07_1103,ACPT_experiment_5_30_19,3.1.0,59.955008840755866,
,,,C,G,y,b,R,G,y,L,y,,,,,6,14,134,14,5,0,5,0,,,,,0,31,31,28,,,,,,down,0.6838514600199233,2685.9440979802175,None,001,95,2019_Nov_07_1103,ACPT_experiment_5_30_19,3.1.0,59.955008840755866,
,,,C,G,y,b,R,D,y,R,y,,,,,6,14,134,14,5,0,5,0,,,,,0,32,32,27,,,,,,down,0.600453026293053,2687.895589332631,None,001,95,2019_Nov_07_1103,ACPT_experiment_5_30_19,3.1.0,59.955008840755866,
,,,C,G,y,b,L,D,g,R,i,,,,,6,14,134,14,5,0,5,0,,,,,0,33,33,15,,,,,,up,0.6171378445997107,2689.7803685789077,None,001,95,2019_Nov_07_1103,ACPT_experiment_5_30_19,3.1.0,59.955008840755866,
,,,C,G,y,b,R,U,g,R,u,,,,,6,14,134,14,5,0,5,0,,,,,0,34,34,11,,,,,,up,1.0841971461277353,2691.6651221673783,None,001,95,2019_Nov_07_1103,ACPT_experiment_5_30_19,3.1.0,59.955008840755866,
,,,C,G,y,b,R,G,d,R,i,,,,,6,14,134,14,5,0,5,0,,,,,0,35,35,5,,,,,,down,0.5337424294380071,2694.0336234979623,None,001,95,2019_Nov_07_1103,ACPT_experiment_5_30_19,3.1.0,59.955008840755866,
,,,C,G,y,b,R,G,g,R,c ,,,,,6,14,134,14,5,0,5,0,,,,,1,0,36,7,,,,,,down,0.5337460517166619,2695.8349976696672,None,001,95,2019_Nov_07_1103,ACPT_experiment_5_30_19,3.1.0,59.955008840755866,
,,,C,G,y,b,R,G,g,L,c ,,,,,6,14,134,14,5,0,5,0,,,,,1,1,37,6,,,,,,down,0.5337689928137479,2697.6363531262677,None,001,95,2019_Nov_07_1103,ACPT_experiment_5_30_19,3.1.0,59.955008840755866,
,,,C,G,y,b,R,D,y,L,y,,,,,6,14,134,14,5,0,5,0,,,,,1,2,38,26,,,,,,down,0.6171426743039774,2699.4544341518076,None,001,95,2019_Nov_07_1103,ACPT_experiment_5_30_19,3.1.0,59.955008840755866,
,,,C,G,y,b,L,U,g,R,u,,,,,6,14,134,14,5,0,5,0,,,,,1,3,39,23,,,,,,down,0.533736694163963,2701.3558930848285,None,001,95,2019_Nov_07_1103,ACPT_experiment_5_30_19,3.1.0,59.955008840755866,
,,,C,G,y,b,L,G,d,R,i,,,,,6,14,134,14,5,0,5,0,,,,,1,4,40,17,,,,,,up,0.7169524443133923,2703.190895282344,None,001,95,2019_Nov_07_1103,ACPT_experiment_5_30_19,3.1.0,59.955008840755866,
,,,C,G,y,b,R,D,d,L,c,,,,,6,14,134,14,5,0,5,0,,,,,1,5,41,0,,,,,,up,0.8172853317037152,2705.1921639853754,None,001,95,2019_Nov_07_1103,ACPT_experiment_5_30_19,3.1.0,59.955008840755866,
,,,C,G,y,b,R,G,d,R,i,,,,,6,14,134,14,5,0,5,0,,,,,1,6,42,5,,,,,,up,0.5170524795703386,2707.2937685943625,None,001,95,2019_Nov_07_1103,ACPT_experiment_5_30_19,3.1.0,59.955008840755866,
,,,C,G,y,b,R,U,g,L,u,,,,,6,14,134,14,5,0,5,0,,,,,1,7,43,10,,,,,,down,1.3009905120452459,2709.0951478976294,None,001,95,2019_Nov_07_1103,ACPT_experiment_5_30_19,3.1.0,59.955008840755866,
,,,C,G,y,b,R,U,d,L,u,,,,,6,14,134,14,5,0,5,0,,,,,1,8,44,8,,,,,,up,1.617929312443266,2711.663753549833,None,001,95,2019_Nov_07_1103,ACPT_experiment_5_30_19,3.1.0,59.955008840755866,
,,,C,G,y,b,L,G,g,R,c ,,,,,6,14,134,14,5,0,5,0,,,,,1,9,45,19,,,,,,down,1.7846959942430658,2714.56600032842,None,001,95,2019_Nov_07_1103,ACPT_experiment_5_30_19,3.1.0,59.955008840755866,
,,,C,G,y,b,L,U,d,L,u,,,,,6,14,134,14,5,0,5,0,,,,,1,10,46,20,,,,,,up,0.8006077579543671,2717.6350149962327,None,001,95,2019_Nov_07_1103,ACPT_experiment_5_30_19,3.1.0,59.955008840755866,
