facing_vig,person_vig,text_vig,facing_train,person_train,food_train,correct_key_train,facing_exp,person_exp,food_exp,showL_R,consistent,vig_random.thisRepN,vig_random.thisTrialN,vig_random.thisN,vig_random.thisIndex,trainTrials.thisRepN,trainTrials.thisTrialN,trainTrials.thisN,trainTrials.thisIndex,expBlock.thisRepN,expBlock.thisTrialN,expBlock.thisN,expBlock.thisIndex,breakLoop.thisRepN,breakLoop.thisTrialN,breakLoop.thisN,breakLoop.thisIndex,expTrials.thisRepN,expTrials.thisTrialN,expTrials.thisN,expTrials.thisIndex,train_resp.keys,train_resp.corr,train_resp.rt,train_resp.started,train_resp.stopped,exp_resp.keys,exp_resp.rt,exp_resp.started,exp_resp.stopped,session,participant,date,expName,psychopyVersion,frameRate,
C,G,"cannot eat dairy products because she is lactose intolerant. She enjoys eating wheat products. She thinks eating insects, like crickets, is disgusting.",,,,,,,,,,0,0,0,0,,,,,,,,,,,,,,,,,,,,,,,,,,001,96,2019_Nov_07_1201,ACPT_experiment_5_30_19,3.1.0,59.95251331958986,
C,U,"did not report her food preferences, so her food preferences are unknown.",,,,,,,,,,0,1,1,2,,,,,,,,,,,,,,,,,,,,,,,,,,001,96,2019_Nov_07_1201,ACPT_experiment_5_30_19,3.1.0,59.95251331958986,
C,D,"is allergic to gluten, meaning she can’t eat wheat products. She enjoys eating dairy products. She thinks eating insects, like crickets, is disgusting.",,,,,,,,,,0,2,2,1,,,,,,,,,,,,,,,,,,,,,,,,,,001,96,2019_Nov_07_1201,ACPT_experiment_5_30_19,3.1.0,59.95251331958986,
,,,C,U,d,n,,,,,,,,,,0,0,0,15,,,,,,,,,,,,,n,1,4.469995761934115,436.99322030214626,None,,,,,001,96,2019_Nov_07_1201,ACPT_experiment_5_30_19,3.1.0,59.95251331958986,
,,,C,D,g,b,,,,,,,,,,0,1,1,10,,,,,,,,,,,,,b,1,3.869647781716594,444.7491895151943,None,,,,,001,96,2019_Nov_07_1201,ACPT_experiment_5_30_19,3.1.0,59.95251331958986,
,,,C,D,d,v,,,,,,,,,,0,2,2,9,,,,,,,,,,,,,b,0,2.101625135232098,451.90466525317333,None,,,,,001,96,2019_Nov_07_1201,ACPT_experiment_5_30_19,3.1.0,59.95251331958986,
,,,C,U,d,n,,,,,,,,,,0,3,3,6,,,,,,,,,,,,,n,1,1.234185434093888,457.2921068741189,None,,,,,001,96,2019_Nov_07_1201,ACPT_experiment_5_30_19,3.1.0,59.95251331958986,
,,,C,G,g,v,,,,,,,,,,0,4,4,19,,,,,,,,,,,,,v,1,3.2856157511159836,461.8291854220197,None,,,,,001,96,2019_Nov_07_1201,ACPT_experiment_5_30_19,3.1.0,59.95251331958986,
,,,C,G,g,v,,,,,,,,,,0,5,5,13,,,,,,,,,,,,,v,1,3.0523512813206253,468.3839536686437,None,,,,,001,96,2019_Nov_07_1201,ACPT_experiment_5_30_19,3.1.0,59.95251331958986,
,,,C,G,d,b,,,,,,,,,,0,6,6,12,,,,,,,,,,,,,b,1,1.2509638279279898,474.70546619931247,None,,,,,001,96,2019_Nov_07_1201,ACPT_experiment_5_30_19,3.1.0,59.95251331958986,
,,,C,G,g,v,,,,,,,,,,0,7,7,4,,,,,,,,,,,,,v,1,2.0846677404715592,479.24255018063104,None,,,,,001,96,2019_Nov_07_1201,ACPT_experiment_5_30_19,3.1.0,59.95251331958986,
,,,C,D,y,b,,,,,,,,,,0,8,8,11,,,,,,,,,,,,,n,0,1.1675735443268422,484.6130564423429,None,,,,,001,96,2019_Nov_07_1201,ACPT_experiment_5_30_19,3.1.0,59.95251331958986,
,,,C,U,g,n,,,,,,,,,,0,9,9,7,,,,,,,,,,,,,n,1,1.78470535179531,489.0664709227631,None,,,,,001,96,2019_Nov_07_1201,ACPT_experiment_5_30_19,3.1.0,59.95251331958986,
,,,C,U,y,n,,,,,,,,,,0,10,10,8,,,,,,,,,,,,,n,1,1.8514349656124978,494.1203357127679,None,,,,,001,96,2019_Nov_07_1201,ACPT_experiment_5_30_19,3.1.0,59.95251331958986,
,,,C,G,y,b,,,,,,,,,,0,11,11,14,,,,,,,,,,,,,n,0,1.0841941275621139,499.257586862238,None,,,,,001,96,2019_Nov_07_1201,ACPT_experiment_5_30_19,3.1.0,59.95251331958986,
,,,C,D,g,b,,,,,,,,,,0,12,12,1,,,,,,,,,,,,,b,1,2.618443072271475,503.6445506442824,None,,,,,001,96,2019_Nov_07_1201,ACPT_experiment_5_30_19,3.1.0,59.95251331958986,
,,,C,D,y,b,,,,,,,,,,0,13,13,2,,,,,,,,,,,,,b,1,1.7680256650501178,509.5488301247997,None,,,,,001,96,2019_Nov_07_1201,ACPT_experiment_5_30_19,3.1.0,59.95251331958986,
,,,C,G,d,b,,,,,,,,,,0,14,14,3,,,,,,,,,,,,,b,1,1.5178321750090618,514.6026979333692,None,,,,,001,96,2019_Nov_07_1201,ACPT_experiment_5_30_19,3.1.0,59.95251331958986,
,,,C,G,y,b,,,,,,,,,,0,15,15,5,,,,,,,,,,,,,b,1,1.5678721408148704,519.406379496455,None,,,,,001,96,2019_Nov_07_1201,ACPT_experiment_5_30_19,3.1.0,59.95251331958986,
,,,C,D,d,v,,,,,,,,,,0,16,16,18,,,,,,,,,,,,,v,1,2.1850293042325575,524.2600958937855,None,,,,,001,96,2019_Nov_07_1201,ACPT_experiment_5_30_19,3.1.0,59.95251331958986,
,,,C,U,y,n,,,,,,,,,,0,17,17,17,,,,,,,,,,,,,n,1,0.43369328719381883,529.7309302131835,None,,,,,001,96,2019_Nov_07_1201,ACPT_experiment_5_30_19,3.1.0,59.95251331958986,
,,,C,U,g,n,,,,,,,,,,0,18,18,16,,,,,,,,,,,,,n,1,0.5668606195540633,533.4673946641424,None,,,,,001,96,2019_Nov_07_1201,ACPT_experiment_5_30_19,3.1.0,59.95251331958986,
,,,C,D,d,v,,,,,,,,,,0,19,19,0,,,,,,,,,,,,,b,0,1.6512974397737707,537.3201001439256,None,,,,,001,96,2019_Nov_07_1201,ACPT_experiment_5_30_19,3.1.0,59.95251331958986,
,,,C,U,d,n,,,,,,,,,,1,0,20,6,,,,,,,,,,,,,n,1,1.2843304459747742,542.2572152768389,None,,,,,001,96,2019_Nov_07_1201,ACPT_experiment_5_30_19,3.1.0,59.95251331958986,
,,,C,D,y,b,,,,,,,,,,1,1,21,11,,,,,,,,,,,,,n,0,0.9338134260960942,546.8443042086046,None,,,,,001,96,2019_Nov_07_1201,ACPT_experiment_5_30_19,3.1.0,59.95251331958986,
,,,C,D,d,v,,,,,,,,,,1,2,22,0,,,,,,,,,,,,,v,1,1.017496208681223,551.047260772656,None,,,,,001,96,2019_Nov_07_1201,ACPT_experiment_5_30_19,3.1.0,59.95251331958986,
,,,C,G,d,b,,,,,,,,,,1,3,23,12,,,,,,,,,,,,,b,1,1.2343073841357182,555.350597313718,None,,,,,001,96,2019_Nov_07_1201,ACPT_experiment_5_30_19,3.1.0,59.95251331958986,
,,,C,G,g,v,,,,,,,,,,1,4,24,4,,,,,,,,,,,,,v,1,1.734673234260299,559.8540327429828,None,,,,,001,96,2019_Nov_07_1201,ACPT_experiment_5_30_19,3.1.0,59.95251331958986,
,,,C,D,d,v,,,,,,,,,,1,5,25,9,,,,,,,,,,,,,v,1,2.2850893133118007,564.874547517049,None,,,,,001,96,2019_Nov_07_1201,ACPT_experiment_5_30_19,3.1.0,59.95251331958986,
,,,C,D,d,v,,,,,,,,,,1,6,26,18,,,,,,,,,,,,,v,1,1.634597830497114,570.428801701988,None,,,,,001,96,2019_Nov_07_1201,ACPT_experiment_5_30_19,3.1.0,59.95251331958986,
,,,C,U,d,n,,,,,,,,,,1,7,27,15,,,,,,,,,,,,,n,1,0.9174183900659045,575.3492314128816,None,,,,,001,96,2019_Nov_07_1201,ACPT_experiment_5_30_19,3.1.0,59.95251331958986,
,,,C,U,y,n,,,,,,,,,,1,8,28,17,,,,,,,,,,,,,n,1,0.9671459343553579,579.5527355446939,None,,,,,001,96,2019_Nov_07_1201,ACPT_experiment_5_30_19,3.1.0,59.95251331958986,
,,,C,G,y,b,,,,,,,,,,1,9,29,14,,,,,,,,,,,,,b,1,1.3176804619124596,583.8057157742987,None,,,,,001,96,2019_Nov_07_1201,ACPT_experiment_5_30_19,3.1.0,59.95251331958986,
,,,C,U,g,n,,,,,,,,,,1,10,30,7,,,,,,,,,,,,,n,1,1.2510051822737296,588.4092305314607,None,,,,,001,96,2019_Nov_07_1201,ACPT_experiment_5_30_19,3.1.0,59.95251331958986,
,,,C,G,g,v,,,,,,,,,,1,11,31,13,,,,,,,,,,,,,v,1,1.5678802909415026,592.946045558604,None,,,,,001,96,2019_Nov_07_1201,ACPT_experiment_5_30_19,3.1.0,59.95251331958986,
,,,C,U,y,n,,,,,,,,,,1,12,32,8,,,,,,,,,,,,,n,1,1.150899592856149,597.7997556169466,None,,,,,001,96,2019_Nov_07_1201,ACPT_experiment_5_30_19,3.1.0,59.95251331958986,
,,,C,D,y,b,,,,,,,,,,1,13,33,2,,,,,,,,,,,,,b,1,0.7973271810951701,602.2564911230029,None,,,,,001,96,2019_Nov_07_1201,ACPT_experiment_5_30_19,3.1.0,59.95251331958986,
,,,C,G,d,b,,,,,,,,,,1,14,34,3,,,,,,,,,,,,,b,1,1.501160940247246,606.3396414306553,None,,,,,001,96,2019_Nov_07_1201,ACPT_experiment_5_30_19,3.1.0,59.95251331958986,
,,,C,G,g,v,,,,,,,,,,1,15,35,19,,,,,,,,,,,,,v,1,0.833985846550604,611.1099584886888,None,,,,,001,96,2019_Nov_07_1201,ACPT_experiment_5_30_19,3.1.0,59.95251331958986,
,,,C,D,g,b,,,,,,,,,,1,16,36,1,,,,,,,,,,,,,b,1,0.7503232883527744,615.2467176120008,None,,,,,001,96,2019_Nov_07_1201,ACPT_experiment_5_30_19,3.1.0,59.95251331958986,
,,,C,D,g,b,,,,,,,,,,1,17,37,10,,,,,,,,,,,,,b,1,0.8508203857008994,619.2660563529935,None,,,,,001,96,2019_Nov_07_1201,ACPT_experiment_5_30_19,3.1.0,59.95251331958986,
,,,C,G,y,b,,,,,,,,,,1,18,38,5,,,,,,,,,,,,,b,1,1.0672497126324743,623.4196313003495,None,,,,,001,96,2019_Nov_07_1201,ACPT_experiment_5_30_19,3.1.0,59.95251331958986,
,,,C,U,g,n,,,,,,,,,,1,19,39,16,,,,,,,,,,,,,n,1,1.2176050581492746,627.7727204397934,None,,,,,001,96,2019_Nov_07_1201,ACPT_experiment_5_30_19,3.1.0,59.95251331958986,
,,,C,G,y,b,,,,,,,,,,2,0,40,5,,,,,,,,,,,,,n,0,1.1671669435700096,632.2932264600195,None,,,,,001,96,2019_Nov_07_1201,ACPT_experiment_5_30_19,3.1.0,59.95251331958986,
,,,C,U,g,n,,,,,,,,,,2,1,41,7,,,,,,,,,,,,,n,1,1.2508784025267232,636.7463402913281,None,,,,,001,96,2019_Nov_07_1201,ACPT_experiment_5_30_19,3.1.0,59.95251331958986,
,,,C,D,y,b,,,,,,,,,,2,2,42,2,,,,,,,,,,,,,b,1,1.1506116217178715,641.3000251748354,None,,,,,001,96,2019_Nov_07_1201,ACPT_experiment_5_30_19,3.1.0,59.95251331958986,
,,,C,D,g,b,,,,,,,,,,2,3,43,1,,,,,,,,,,,,,b,1,2.818832950176329,645.719801064467,None,,,,,001,96,2019_Nov_07_1201,ACPT_experiment_5_30_19,3.1.0,59.95251331958986,
,,,C,D,d,v,,,,,,,,,,2,4,44,9,,,,,,,,,,,,,v,1,0.9007030842494714,651.8077940565654,None,,,,,001,96,2019_Nov_07_1201,ACPT_experiment_5_30_19,3.1.0,59.95251331958986,
,,,C,G,g,v,,,,,,,,,,2,5,45,4,,,,,,,,,,,,,v,1,2.268153350366447,656.0112625693064,None,,,,,001,96,2019_Nov_07_1201,ACPT_experiment_5_30_19,3.1.0,59.95251331958986,
,,,C,G,d,b,,,,,,,,,,2,6,46,12,,,,,,,,,,,,,b,1,0.9507270516578501,661.5485916581347,None,,,,,001,96,2019_Nov_07_1201,ACPT_experiment_5_30_19,3.1.0,59.95251331958986,
,,,C,D,d,v,,,,,,,,,,2,7,47,18,,,,,,,,,,,,,v,1,2.6350871399454263,665.8021146257943,None,,,,,001,96,2019_Nov_07_1201,ACPT_experiment_5_30_19,3.1.0,59.95251331958986,
,,,C,D,d,v,,,,,,,,,,2,8,48,0,,,,,,,,,,,,,v,1,0.6838656472773437,671.7230433055465,None,,,,,001,96,2019_Nov_07_1201,ACPT_experiment_5_30_19,3.1.0,59.95251331958986,
,,,C,U,y,n,,,,,,,,,,2,9,49,8,,,,,,,,,,,,,n,1,1.3343758451983376,675.726113790256,None,,,,,001,96,2019_Nov_07_1201,ACPT_experiment_5_30_19,3.1.0,59.95251331958986,
,,,C,G,y,b,,,,,,,,,,2,10,50,14,,,,,,,,,,,,,b,1,1.0174530431968378,680.3463145731512,None,,,,,001,96,2019_Nov_07_1201,ACPT_experiment_5_30_19,3.1.0,59.95251331958986,
,,,C,U,d,n,,,,,,,,,,2,11,51,6,,,,,,,,,,,,,n,1,1.0503738191364391,684.683358528293,None,,,,,001,96,2019_Nov_07_1201,ACPT_experiment_5_30_19,3.1.0,59.95251331958986,
,,,C,G,g,v,,,,,,,,,,2,12,52,13,,,,,,,,,,,,,v,1,1.4511191633018825,689.0196221842825,None,,,,,001,96,2019_Nov_07_1201,ACPT_experiment_5_30_19,3.1.0,59.95251331958986,
,,,C,G,d,b,,,,,,,,,,2,13,53,3,,,,,,,,,,,,,b,1,1.1008535899190974,693.7399032006451,None,,,,,001,96,2019_Nov_07_1201,ACPT_experiment_5_30_19,3.1.0,59.95251331958986,
,,,C,D,y,b,,,,,,,,,,2,14,54,11,,,,,,,,,,,,,b,1,0.9504928109845423,698.1435264450474,None,,,,,001,96,2019_Nov_07_1201,ACPT_experiment_5_30_19,3.1.0,59.95251331958986,
,,,C,U,g,n,,,,,,,,,,2,15,55,16,,,,,,,,,,,,,n,1,1.1342063225665697,702.3798550605643,None,,,,,001,96,2019_Nov_07_1201,ACPT_experiment_5_30_19,3.1.0,59.95251331958986,
,,,C,U,y,n,,,,,,,,,,2,16,56,17,,,,,,,,,,,,,n,1,1.000533078647095,706.8168240949135,None,,,,,001,96,2019_Nov_07_1201,ACPT_experiment_5_30_19,3.1.0,59.95251331958986,
,,,C,G,g,v,,,,,,,,,,2,17,57,19,,,,,,,,,,,,,v,1,1.8180683475648038,711.1031990152233,None,,,,,001,96,2019_Nov_07_1201,ACPT_experiment_5_30_19,3.1.0,59.95251331958986,
,,,C,D,g,b,,,,,,,,,,2,18,58,10,,,,,,,,,,,,,b,1,1.2509574889400028,716.2071143360126,None,,,,,001,96,2019_Nov_07_1201,ACPT_experiment_5_30_19,3.1.0,59.95251331958986,
,,,C,U,d,n,,,,,,,,,,2,19,59,15,,,,,,,,,,,,,n,1,0.9674182089529495,720.7439103461929,None,,,,,001,96,2019_Nov_07_1201,ACPT_experiment_5_30_19,3.1.0,59.95251331958986,
,,,C,G,g,v,,,,,,,,,,3,0,60,19,,,,,,,,,,,,,v,1,1.3176747266388702,724.9971746228002,None,,,,,001,96,2019_Nov_07_1201,ACPT_experiment_5_30_19,3.1.0,59.95251331958986,
,,,C,D,d,v,,,,,,,,,,3,1,61,18,,,,,,,,,,,,,v,1,1.050556140486151,729.6176298707569,None,,,,,001,96,2019_Nov_07_1201,ACPT_experiment_5_30_19,3.1.0,59.95251331958986,
,,,C,U,g,n,,,,,,,,,,3,2,62,16,,,,,,,,,,,,,n,1,0.9507388240635919,733.9540284566201,None,,,,,001,96,2019_Nov_07_1201,ACPT_experiment_5_30_19,3.1.0,59.95251331958986,
,,,C,G,g,v,,,,,,,,,,3,3,63,13,,,,,,,,,,,,,v,1,1.1475544186960178,738.2106170792849,None,,,,,001,96,2019_Nov_07_1201,ACPT_experiment_5_30_19,3.1.0,59.95251331958986,
,,,C,G,d,b,,,,,,,,,,3,4,64,12,,,,,,,,,,,,,b,1,1.1342147745490365,742.6273330491858,None,,,,,001,96,2019_Nov_07_1201,ACPT_experiment_5_30_19,3.1.0,59.95251331958986,
,,,C,U,d,n,,,,,,,,,,3,5,65,15,,,,,,,,,,,,,n,1,1.0341285039503418,747.0473854394068,None,,,,,001,96,2019_Nov_07_1201,ACPT_experiment_5_30_19,3.1.0,59.95251331958986,
,,,C,G,d,b,,,,,,,,,,3,6,66,3,,,,,,,,,,,,,v,0,1.0508063795568887,751.3673621240077,None,,,,,001,96,2019_Nov_07_1201,ACPT_experiment_5_30_19,3.1.0,59.95251331958986,
,,,C,G,y,b,,,,,,,,,,3,7,67,14,,,,,,,,,,,,,b,1,1.0307963096229287,755.7240201133054,None,,,,,001,96,2019_Nov_07_1201,ACPT_experiment_5_30_19,3.1.0,59.95251331958986,
,,,C,U,y,n,,,,,,,,,,3,8,68,8,,,,,,,,,,,,,n,1,0.8673346550631322,760.0406664147167,None,,,,,001,96,2019_Nov_07_1201,ACPT_experiment_5_30_19,3.1.0,59.95251331958986,
,,,C,U,d,n,,,,,,,,,,3,9,69,6,,,,,,,,,,,,,n,1,0.45010432161961944,764.2107725354017,None,,,,,001,96,2019_Nov_07_1201,ACPT_experiment_5_30_19,3.1.0,59.95251331958986,
,,,C,D,g,b,,,,,,,,,,3,10,70,1,,,,,,,,,,,,,v,0,1.4344494378219679,767.9467165856886,None,,,,,001,96,2019_Nov_07_1201,ACPT_experiment_5_30_19,3.1.0,59.95251331958986,
,,,C,D,d,v,,,,,,,,,,3,11,71,0,,,,,,,,,,,,,v,1,0.983821696965606,772.6672722915018,None,,,,,001,96,2019_Nov_07_1201,ACPT_experiment_5_30_19,3.1.0,59.95251331958986,
,,,C,D,d,v,,,,,,,,,,3,12,72,9,,,,,,,,,,,,,v,1,1.0508118129746435,776.920251011823,None,,,,,001,96,2019_Nov_07_1201,ACPT_experiment_5_30_19,3.1.0,59.95251331958986,
,,,C,G,y,b,,,,,,,,,,3,13,73,5,,,,,,,,,,,,,b,1,0.9004398653478347,781.2738493832467,None,,,,,001,96,2019_Nov_07_1201,ACPT_experiment_5_30_19,3.1.0,59.95251331958986,
,,,C,U,y,n,,,,,,,,,,3,14,74,17,,,,,,,,,,,,,n,1,1.000811994088508,785.460128675405,None,,,,,001,96,2019_Nov_07_1201,ACPT_experiment_5_30_19,3.1.0,59.95251331958986,
,,,C,G,g,v,,,,,,,,,,3,15,75,4,,,,,,,,,,,,,v,1,1.5009097956071855,789.7636686677743,None,,,,,001,96,2019_Nov_07_1201,ACPT_experiment_5_30_19,3.1.0,59.95251331958986,
,,,C,U,g,n,,,,,,,,,,3,16,76,7,,,,,,,,,,,,,n,1,0.984100008693531,794.5504215124702,None,,,,,001,96,2019_Nov_07_1201,ACPT_experiment_5_30_19,3.1.0,59.95251331958986,
,,,C,D,y,b,,,,,,,,,,3,17,77,11,,,,,,,,,,,,,b,1,1.100402314395069,798.837455083747,None,,,,,001,96,2019_Nov_07_1201,ACPT_experiment_5_30_19,3.1.0,59.95251331958986,
,,,C,D,y,b,,,,,,,,,,3,18,78,2,,,,,,,,,,,,,b,1,1.0341623118829375,803.2070183456335,None,,,,,001,96,2019_Nov_07_1201,ACPT_experiment_5_30_19,3.1.0,59.95251331958986,
,,,C,D,g,b,,,,,,,,,,3,19,79,10,,,,,,,,,,,,,b,1,1.017189824295201,807.527285416224,None,,,,,001,96,2019_Nov_07_1201,ACPT_experiment_5_30_19,3.1.0,59.95251331958986,
,,,C,D,y,b,,,,,,,,,,4,0,80,2,,,,,,,,,,,,,b,1,0.6338341334540019,811.8303191951782,None,,,,,001,96,2019_Nov_07_1201,ACPT_experiment_5_30_19,3.1.0,59.95251331958986,
,,,C,D,d,v,,,,,,,,,,4,1,81,18,,,,,,,,,,,,,v,1,0.8837801011341071,815.7668994383057,None,,,,,001,96,2019_Nov_07_1201,ACPT_experiment_5_30_19,3.1.0,59.95251331958986,
,,,C,U,d,n,,,,,,,,,,4,2,82,6,,,,,,,,,,,,,n,1,0.4837115193286081,819.9365189662503,None,,,,,001,96,2019_Nov_07_1201,ACPT_experiment_5_30_19,3.1.0,59.95251331958986,
,,,C,U,y,n,,,,,,,,,,4,3,83,8,,,,,,,,,,,,,n,1,1.1175109392806917,823.7227649938177,None,,,,,001,96,2019_Nov_07_1201,ACPT_experiment_5_30_19,3.1.0,59.95251331958986,
,,,C,G,g,v,,,,,,,,,,4,4,84,19,,,,,,,,,,,,,v,1,1.250965940923379,828.1261226044662,None,,,,,001,96,2019_Nov_07_1201,ACPT_experiment_5_30_19,3.1.0,59.95251331958986,
,,,C,U,y,n,,,,,,,,,,4,5,85,17,,,,,,,,,,,,,n,1,0.9002554310027335,832.6800199949776,None,,,,,001,96,2019_Nov_07_1201,ACPT_experiment_5_30_19,3.1.0,59.95251331958986,
,,,C,D,d,v,,,,,,,,,,4,6,86,0,,,,,,,,,,,,,v,1,4.553551161060568,836.8661178713564,None,,,,,001,96,2019_Nov_07_1201,ACPT_experiment_5_30_19,3.1.0,59.95251331958986,
,,,C,G,d,b,,,,,,,,,,4,7,87,3,,,,,,,,,,,,,b,1,0.7172114372242504,844.7054846125611,None,,,,,001,96,2019_Nov_07_1201,ACPT_experiment_5_30_19,3.1.0,59.95251331958986,
,,,C,G,y,b,,,,,,,,,,4,8,88,14,,,,,,,,,,,,,b,1,1.0672213381176334,848.7088128827545,None,,,,,001,96,2019_Nov_07_1201,ACPT_experiment_5_30_19,3.1.0,59.95251331958986,
,,,C,D,g,b,,,,,,,,,,4,9,89,1,,,,,,,,,,,,,b,1,1.5178533049675025,853.0618588567122,None,,,,,001,96,2019_Nov_07_1201,ACPT_experiment_5_30_19,3.1.0,59.95251331958986,
,,,C,U,d,n,,,,,,,,,,4,10,90,15,,,,,,,,,,,,,n,1,1.0007736583074802,857.8655479662111,None,,,,,001,96,2019_Nov_07_1201,ACPT_experiment_5_30_19,3.1.0,59.95251331958986,
,,,C,D,d,v,,,,,,,,,,4,11,91,9,,,,,,,,,,,,,v,1,1.284115825976187,862.169024266851,None,,,,,001,96,2019_Nov_07_1201,ACPT_experiment_5_30_19,3.1.0,59.95251331958986,
,,,C,G,g,v,,,,,,,,,,4,12,92,4,,,,,,,,,,,,,v,1,1.601236344010431,866.739010007148,None,,,,,001,96,2019_Nov_07_1201,ACPT_experiment_5_30_19,3.1.0,59.95251331958986,
,,,C,G,d,b,,,,,,,,,,4,13,93,12,,,,,,,,,,,,,v,0,0.9841114792425287,871.6094051856535,None,,,,,001,96,2019_Nov_07_1201,ACPT_experiment_5_30_19,3.1.0,59.95251331958986,
,,,C,D,g,b,,,,,,,,,,4,14,94,10,,,,,,,,,,,,,b,1,1.1840063124236622,875.8962624727119,None,,,,,001,96,2019_Nov_07_1201,ACPT_experiment_5_30_19,3.1.0,59.95251331958986,
,,,C,G,g,v,,,,,,,,,,4,15,95,13,,,,,,,,,,,,,v,1,1.2509792226110221,880.3661109286559,None,,,,,001,96,2019_Nov_07_1201,ACPT_experiment_5_30_19,3.1.0,59.95251331958986,
,,,C,U,g,n,,,,,,,,,,4,16,96,16,,,,,,,,,,,,,n,1,0.6838553841544126,884.9029181075284,None,,,,,001,96,2019_Nov_07_1201,ACPT_experiment_5_30_19,3.1.0,59.95251331958986,
,,,C,D,y,b,,,,,,,,,,4,17,97,11,,,,,,,,,,,,,b,1,0.834002146802959,888.872617144486,None,,,,,001,96,2019_Nov_07_1201,ACPT_experiment_5_30_19,3.1.0,59.95251331958986,
,,,C,G,y,b,,,,,,,,,,4,18,98,5,,,,,,,,,,,,,b,1,0.6338130034964706,892.9924523791124,None,,,,,001,96,2019_Nov_07_1201,ACPT_experiment_5_30_19,3.1.0,59.95251331958986,
,,,C,U,g,n,,,,,,,,,,4,19,99,7,,,,,,,,,,,,,n,1,1.1008907182740586,896.9120800571836,None,,,,,001,96,2019_Nov_07_1201,ACPT_experiment_5_30_19,3.1.0,59.95251331958986,
,,,C,D,y,b,,,,,,,,,,5,0,100,11,,,,,,,,,,,,,b,1,0.8004785633565916,901.3156444395609,None,,,,,001,96,2019_Nov_07_1201,ACPT_experiment_5_30_19,3.1.0,59.95251331958986,
,,,C,U,g,n,,,,,,,,,,5,1,101,7,,,,,,,,,,,,,n,1,0.4336670256752768,905.4019373756355,None,,,,,001,96,2019_Nov_07_1201,ACPT_experiment_5_30_19,3.1.0,59.95251331958986,
,,,C,D,d,v,,,,,,,,,,5,2,102,9,,,,,,,,,,,,,v,1,1.0005345879299057,909.1383716409409,None,,,,,001,96,2019_Nov_07_1201,ACPT_experiment_5_30_19,3.1.0,59.95251331958986,
,,,C,G,d,b,,,,,,,,,,5,3,103,3,,,,,,,,,,,,,b,1,0.7506145799125079,913.4247163755963,None,,,,,001,96,2019_Nov_07_1201,ACPT_experiment_5_30_19,3.1.0,59.95251331958986,
,,,C,U,y,n,,,,,,,,,,5,4,104,17,,,,,,,,,,,,,n,1,0.9671676680254677,917.4780978932831,None,,,,,001,96,2019_Nov_07_1201,ACPT_experiment_5_30_19,3.1.0,59.95251331958986,
,,,C,G,g,v,,,,,,,,,,5,5,105,4,,,,,,,,,,,,,v,1,0.7005513711528693,921.7310944231403,None,,,,,001,96,2019_Nov_07_1201,ACPT_experiment_5_30_19,3.1.0,59.95251331958986,
,,,C,D,d,v,,,,,,,,,,5,6,106,0,,,,,,,,,,,,,v,1,0.7002691352900001,925.7344398991563,None,,,,,001,96,2019_Nov_07_1201,ACPT_experiment_5_30_19,3.1.0,59.95251331958986,
,,,C,D,g,b,,,,,,,,,,5,7,107,1,,,,,,,,,,,,,v,0,0.7005465414486025,929.703870887507,None,,,,,001,96,2019_Nov_07_1201,ACPT_experiment_5_30_19,3.1.0,59.95251331958986,
,,,C,G,y,b,,,,,,,,,,5,8,108,5,,,,,,,,,,,,,b,1,1.0172133691048657,933.7071744054638,None,,,,,001,96,2019_Nov_07_1201,ACPT_experiment_5_30_19,3.1.0,59.95251331958986,
,,,C,U,y,n,,,,,,,,,,5,9,109,8,,,,,,,,,,,,,n,1,0.9173803561425302,938.0102272013792,None,,,,,001,96,2019_Nov_07_1201,ACPT_experiment_5_30_19,3.1.0,59.95251331958986,
,,,C,U,d,n,,,,,,,,,,5,10,110,15,,,,,,,,,,,,,n,1,0.8840064935375267,942.213457549311,None,,,,,001,96,2019_Nov_07_1201,ACPT_experiment_5_30_19,3.1.0,59.95251331958986,
,,,C,G,g,v,,,,,,,,,,5,11,111,19,,,,,,,,,,,,,v,1,1.1342525066165763,946.38327901928,None,,,,,001,96,2019_Nov_07_1201,ACPT_experiment_5_30_19,3.1.0,59.95251331958986,
,,,C,U,g,n,,,,,,,,,,5,12,112,16,,,,,,,,,,,,,n,1,1.0672521274855171,950.8202731077217,None,,,,,001,96,2019_Nov_07_1201,ACPT_experiment_5_30_19,3.1.0,59.95251331958986,
,,,C,D,y,b,,,,,,,,,,5,13,113,2,,,,,,,,,,,,,b,1,1.0342202683386859,955.1733384004983,None,,,,,001,96,2019_Nov_07_1201,ACPT_experiment_5_30_19,3.1.0,59.95251331958986,
,,,C,D,g,b,,,,,,,,,,5,14,114,10,,,,,,,,,,,,,v,0,1.0141181321596378,959.5133526239788,None,,,,,001,96,2019_Nov_07_1201,ACPT_experiment_5_30_19,3.1.0,59.95251331958986,
,,,C,U,d,n,,,,,,,,,,5,15,115,6,,,,,,,,,,,,,n,1,1.0841760161692946,963.8133047495312,None,,,,,001,96,2019_Nov_07_1201,ACPT_experiment_5_30_19,3.1.0,59.95251331958986,
,,,C,D,d,v,,,,,,,,,,5,16,116,18,,,,,,,,,,,,,v,1,0.7503299291965959,968.2002546461763,None,,,,,001,96,2019_Nov_07_1201,ACPT_experiment_5_30_19,3.1.0,59.95251331958986,
,,,C,G,y,b,,,,,,,,,,5,17,117,14,,,,,,,,,,,,,b,1,0.8506604017347854,972.2364230966132,None,,,,,001,96,2019_Nov_07_1201,ACPT_experiment_5_30_19,3.1.0,59.95251331958986,
,,,C,G,d,b,,,,,,,,,,5,18,118,12,,,,,,,,,,,,,b,1,1.2976691845533423,976.3929363155148,None,,,,,001,96,2019_Nov_07_1201,ACPT_experiment_5_30_19,3.1.0,59.95251331958986,
,,,C,G,g,v,,,,,,,,,,5,19,119,13,0,0,0,0,0,0,0,0,,,,,v,1,0.9173800542857862,980.9597655419893,None,,,,,001,96,2019_Nov_07_1201,ACPT_experiment_5_30_19,3.1.0,59.95251331958986,
,,,C,G,g,v,L,D,g,R,i,,,,,5,19,119,13,0,0,0,0,,,,,0,0,0,15,,,,,,up,1.3009956436062566,1019.989635453896,None,001,96,2019_Nov_07_1201,ACPT_experiment_5_30_19,3.1.0,59.95251331958986,
,,,C,G,g,v,R,U,y,R,u,,,,,5,19,119,13,0,0,0,0,,,,,0,1,1,31,,,,,,down,0.9840809917313891,1022.5749497710722,None,001,96,2019_Nov_07_1201,ACPT_experiment_5_30_19,3.1.0,59.95251331958986,
,,,C,G,g,v,L,D,d,R,c ,,,,,5,19,119,13,0,0,0,0,,,,,0,2,2,13,,,,,,up,1.0841594140601956,1024.8433542660778,None,001,96,2019_Nov_07_1201,ACPT_experiment_5_30_19,3.1.0,59.95251331958986,
,,,C,G,g,v,L,G,g,R,c ,,,,,5,19,119,13,0,0,0,0,,,,,0,3,3,19,,,,,,down,2.0515915084133667,1027.2118248072948,None,001,96,2019_Nov_07_1201,ACPT_experiment_5_30_19,3.1.0,59.95251331958986,
,,,C,G,g,v,L,D,g,L,i,,,,,5,19,119,13,0,0,0,0,,,,,0,4,4,14,,,,,,up,0.8840031731151612,1030.547719594595,None,001,96,2019_Nov_07_1201,ACPT_experiment_5_30_19,3.1.0,59.95251331958986,
,,,C,G,g,v,L,D,y,R,y,,,,,5,19,119,13,0,0,0,0,,,,,0,5,5,33,,,,,,down,0.7839310897752512,1032.716044157989,None,001,96,2019_Nov_07_1201,ACPT_experiment_5_30_19,3.1.0,59.95251331958986,
,,,C,G,g,v,R,U,g,L,u,,,,,5,19,119,13,0,0,0,0,,,,,0,6,6,10,,,,,,up,0.8339731685764491,1034.7842912046253,None,001,96,2019_Nov_07_1201,ACPT_experiment_5_30_19,3.1.0,59.95251331958986,
,,,C,G,g,v,R,U,d,R,u,,,,,5,19,119,13,0,0,0,0,,,,,0,7,7,9,,,,,,up,0.9006662577512543,1036.8859223769878,None,001,96,2019_Nov_07_1201,ACPT_experiment_5_30_19,3.1.0,59.95251331958986,
,,,C,G,g,v,R,G,d,L,i,,,,,5,19,119,13,0,0,0,0,,,,,0,8,8,4,,,,,,up,0.7339083297920297,1039.0542025674713,None,001,96,2019_Nov_07_1201,ACPT_experiment_5_30_19,3.1.0,59.95251331958986,
,,,C,G,g,v,R,U,g,R,u,,,,,5,19,119,13,0,0,0,0,,,,,0,9,9,11,,,,,,down,1.0174409689352615,1041.0724434562335,None,001,96,2019_Nov_07_1201,ACPT_experiment_5_30_19,3.1.0,59.95251331958986,
,,,C,G,g,v,R,U,y,L,u,,,,,5,19,119,13,0,0,0,0,,,,,0,10,10,30,,,,,,down,0.7839332027706405,1043.374202796882,None,001,96,2019_Nov_07_1201,ACPT_experiment_5_30_19,3.1.0,59.95251331958986,
,,,C,G,g,v,L,G,y,L,y,,,,,5,19,119,13,0,0,0,0,,,,,0,11,11,34,,,,,,down,0.7672462714681387,1045.4424519565137,None,001,96,2019_Nov_07_1201,ACPT_experiment_5_30_19,3.1.0,59.95251331958986,
,,,C,G,g,v,R,D,y,L,y,,,,,5,19,119,13,0,0,0,0,,,,,0,12,12,26,,,,,,down,0.73387784228089,1047.494021731256,None,001,96,2019_Nov_07_1201,ACPT_experiment_5_30_19,3.1.0,59.95251331958986,
,,,C,G,g,v,R,D,y,R,y,,,,,5,19,119,13,0,0,0,0,,,,,0,13,13,27,,,,,,down,0.7672489881761066,1049.5122354529294,None,001,96,2019_Nov_07_1201,ACPT_experiment_5_30_19,3.1.0,59.95251331958986,
,,,C,G,g,v,R,G,g,R,c ,,,,,5,19,119,13,0,0,0,0,,,,,0,14,14,7,,,,,,up,0.7672507993165709,1051.563799794255,None,001,96,2019_Nov_07_1201,ACPT_experiment_5_30_19,3.1.0,59.95251331958986,
,,,C,G,g,v,L,U,g,L,u,,,,,5,19,119,13,0,0,0,0,,,,,0,15,15,22,,,,,,up,0.9674055309769756,1053.6153701727108,None,001,96,2019_Nov_07_1201,ACPT_experiment_5_30_19,3.1.0,59.95251331958986,
,,,C,G,g,v,L,U,g,R,u,,,,,5,19,119,13,0,0,0,0,,,,,0,16,16,23,,,,,,up,1.1509174023922242,1055.8670919624055,None,001,96,2019_Nov_07_1201,ACPT_experiment_5_30_19,3.1.0,59.95251331958986,
,,,C,G,g,v,L,U,d,L,u,,,,,5,19,119,13,0,0,0,0,,,,,0,17,17,20,,,,,,up,0.8339885632594815,1058.285591300736,None,001,96,2019_Nov_07_1201,ACPT_experiment_5_30_19,3.1.0,59.95251331958986,
,,,C,G,g,v,R,G,d,R,i,,,,,5,19,119,13,0,0,0,0,,,,,0,18,18,5,,,,,,up,0.6338350390233245,1060.387220661959,None,001,96,2019_Nov_07_1201,ACPT_experiment_5_30_19,3.1.0,59.95251331958986,
,,,C,G,g,v,L,U,d,R,u,,,,,5,19,119,13,0,0,0,0,,,,,0,19,19,21,,,,,,up,0.7172047963795194,1062.3053586780134,None,001,96,2019_Nov_07_1201,ACPT_experiment_5_30_19,3.1.0,59.95251331958986,
,,,C,G,g,v,L,G,y,R,y,,,,,5,19,119,13,0,0,0,0,,,,,0,20,20,35,,,,,,down,0.5837742451176382,1064.3235633439908,None,001,96,2019_Nov_07_1201,ACPT_experiment_5_30_19,3.1.0,59.95251331958986,
,,,C,G,g,v,R,G,g,L,c ,,,,,5,19,119,13,0,0,0,0,,,,,0,21,21,6,,,,,,up,0.9173652633153324,1066.208341684698,None,001,96,2019_Nov_07_1201,ACPT_experiment_5_30_19,3.1.0,59.95251331958986,
,,,C,G,g,v,R,D,d,R,c ,,,,,5,19,119,13,0,0,0,0,,,,,0,22,22,1,,,,,,up,0.8172853317037152,1068.410029847575,None,001,96,2019_Nov_07_1201,ACPT_experiment_5_30_19,3.1.0,59.95251331958986,
,,,C,G,g,v,R,D,g,R,i,,,,,5,19,119,13,0,0,0,0,,,,,0,23,23,3,,,,,,up,0.7839347120534512,1070.5116287212877,None,001,96,2019_Nov_07_1201,ACPT_experiment_5_30_19,3.1.0,59.95251331958986,
,,,C,G,g,v,R,G,y,L,y,,,,,5,19,119,13,0,0,0,0,,,,,0,24,24,28,,,,,,down,0.8339698481540836,1072.5798799939148,None,001,96,2019_Nov_07_1201,ACPT_experiment_5_30_19,3.1.0,59.95251331958986,
,,,C,G,g,v,L,D,y,L,y,,,,,5,19,119,13,0,0,0,0,,,,,0,25,25,32,,,,,,down,0.7505904313893552,1074.6981513098162,None,001,96,2019_Nov_07_1201,ACPT_experiment_5_30_19,3.1.0,59.95251331958986,
,,,C,G,g,v,R,G,y,R,y,,,,,5,19,119,13,0,0,0,0,,,,,0,26,26,29,,,,,,down,0.5670900305231044,1076.7330628296277,None,001,96,2019_Nov_07_1201,ACPT_experiment_5_30_19,3.1.0,59.95251331958986,
,,,C,G,g,v,L,D,d,L,c ,,,,,5,19,119,13,0,0,0,0,,,,,0,27,27,12,,,,,,up,0.767268005139158,1078.5844537241856,None,001,96,2019_Nov_07_1201,ACPT_experiment_5_30_19,3.1.0,59.95251331958986,
,,,C,G,g,v,R,U,d,L,u,,,,,5,19,119,13,0,0,0,0,,,,,0,28,28,8,,,,,,up,0.6834188996008379,1080.6531272941102,None,001,96,2019_Nov_07_1201,ACPT_experiment_5_30_19,3.1.0,59.95251331958986,
,,,C,G,g,v,L,U,y,L,u,,,,,5,19,119,13,0,0,0,0,,,,,0,29,29,24,,,,,,down,0.783809139733421,1082.6376637873582,None,001,96,2019_Nov_07_1201,ACPT_experiment_5_30_19,3.1.0,59.95251331958986,
,,,C,G,g,v,L,U,y,R,u,,,,,5,19,119,13,0,0,0,0,,,,,0,30,30,25,,,,,,down,0.6171233554850915,1084.722513245465,None,001,96,2019_Nov_07_1201,ACPT_experiment_5_30_19,3.1.0,59.95251331958986,
,,,C,G,g,v,R,D,g,L,i,,,,,5,19,119,13,0,0,0,0,,,,,0,31,31,2,,,,,,down,0.7338902183992104,1086.6239628209341,None,001,96,2019_Nov_07_1201,ACPT_experiment_5_30_19,3.1.0,59.95251331958986,
,,,C,G,g,v,L,G,g,L,c ,,,,,5,19,119,13,0,0,0,0,,,,,0,32,32,18,,,,,,up,0.650487860537396,1088.6421765426076,None,001,96,2019_Nov_07_1201,ACPT_experiment_5_30_19,3.1.0,59.95251331958986,
,,,C,G,g,v,R,D,d,L,c,,,,,5,19,119,13,0,0,0,0,,,,,0,33,33,0,,,,,,down,0.8506441014815209,1090.5769897175587,None,001,96,2019_Nov_07_1201,ACPT_experiment_5_30_19,3.1.0,59.95251331958986,
,,,C,G,g,v,L,G,d,R,i,,,,,5,19,119,13,0,0,0,0,,,,,0,34,34,17,,,,,,down,0.7172268319063733,1092.6952571093252,None,001,96,2019_Nov_07_1201,ACPT_experiment_5_30_19,3.1.0,59.95251331958986,
,,,C,G,g,v,L,G,d,L,i,,,,,5,19,119,13,0,0,0,0,,,,,0,35,35,16,,,,,,up,0.5837525114466189,1094.6801491895758,None,001,96,2019_Nov_07_1201,ACPT_experiment_5_30_19,3.1.0,59.95251331958986,
,,,C,G,g,v,L,D,y,L,y,,,,,5,19,119,13,0,0,0,0,,,,,1,0,36,32,,,,,,down,0.600448196587422,1096.548227317292,None,001,96,2019_Nov_07_1201,ACPT_experiment_5_30_19,3.1.0,59.95251331958986,
,,,C,G,g,v,R,G,g,L,c ,,,,,5,19,119,13,0,0,0,0,,,,,1,1,37,6,,,,,,up,0.6338075700787158,1098.4330026394337,None,001,96,2019_Nov_07_1201,ACPT_experiment_5_30_19,3.1.0,59.95251331958986,
,,,C,G,g,v,R,D,g,L,i,,,,,5,19,119,13,0,0,0,0,,,,,1,2,38,2,,,,,,down,0.6335639718527091,1100.368057903329,None,001,96,2019_Nov_07_1201,ACPT_experiment_5_30_19,3.1.0,59.95251331958986,
,,,C,G,g,v,L,U,g,R,u,,,,,5,19,119,13,0,0,0,0,,,,,1,3,39,23,,,,,,up,0.6671518507428118,1102.2859520192997,None,001,96,2019_Nov_07_1201,ACPT_experiment_5_30_19,3.1.0,59.95251331958986,
,,,C,G,g,v,L,U,y,R,u,,,,,5,19,119,13,0,0,0,0,,,,,1,4,40,25,,,,,,down,0.7172331708943602,1104.2207389327323,None,001,96,2019_Nov_07_1201,ACPT_experiment_5_30_19,3.1.0,59.95251331958986,
,,,C,G,g,v,R,U,y,L,u,,,,,5,19,119,13,0,0,0,0,,,,,1,5,41,30,,,,,,down,0.4668860358751772,1106.2391274293414,None,001,96,2019_Nov_07_1201,ACPT_experiment_5_30_19,3.1.0,59.95251331958986,
,,,C,G,g,v,L,D,y,R,y,,,,,5,19,119,13,0,0,0,0,,,,,1,6,42,33,,,,,,down,0.4836918986529781,1108.0069976382747,None,001,96,2019_Nov_07_1201,ACPT_experiment_5_30_19,3.1.0,59.95251331958986,
,,,C,G,g,v,L,G,y,R,y,,,,,5,19,119,13,0,0,0,0,,,,,1,7,43,35,,,,,,down,0.6504896716769508,1109.7750160587675,None,001,96,2019_Nov_07_1201,ACPT_experiment_5_30_19,3.1.0,59.95251331958986,
,,,C,G,g,v,L,D,g,L,i,,,,,5,19,119,13,0,0,0,0,,,,,1,8,44,14,,,,,,down,1.0175070755167326,1111.7098032740569,None,001,96,2019_Nov_07_1201,ACPT_experiment_5_30_19,3.1.0,59.95251331958986,
,,,C,G,g,v,L,G,y,L,y,,,,,5,19,119,13,0,0,0,0,,,,,1,9,45,34,,,,,,down,0.683664610822234,1114.0451040076887,None,001,96,2019_Nov_07_1201,ACPT_experiment_5_30_19,3.1.0,59.95251331958986,
,,,C,G,g,v,L,D,d,R,c ,,,,,5,19,119,13,0,0,0,0,,,,,1,10,46,13,,,,,,up,0.6838499507375673,1116.0297968626237,None,001,96,2019_Nov_07_1201,ACPT_experiment_5_30_19,3.1.0,59.95251331958986,
,,,C,G,g,v,R,D,g,R,i,,,,,5,19,119,13,0,0,0,0,,,,,1,11,47,3,,,,,,up,1.1175224098296894,1117.9979757500532,None,001,96,2019_Nov_07_1201,ACPT_experiment_5_30_19,3.1.0,59.95251331958986,
,,,C,G,g,v,R,D,d,R,c ,,,,,5,19,119,13,0,0,0,0,,,,,1,12,48,1,,,,,,down,0.6835791854218769,1120.4000851839155,None,001,96,2019_Nov_07_1201,ACPT_experiment_5_30_19,3.1.0,59.95251331958986,
,,,C,G,g,v,L,G,d,R,i,,,,,5,19,119,13,0,0,0,0,,,,,1,13,49,17,,,,,,up,0.8172868409865259,1122.36798364662,None,001,96,2019_Nov_07_1201,ACPT_experiment_5_30_19,3.1.0,59.95251331958986,
,,,C,G,g,v,R,D,y,R,y,,,,,5,19,119,13,0,0,0,0,,,,,1,14,50,27,,,,,,down,0.6670537473673903,1124.469595802021,None,001,96,2019_Nov_07_1201,ACPT_experiment_5_30_19,3.1.0,59.95251331958986,
,,,C,G,g,v,R,D,d,L,c,,,,,5,19,119,13,0,0,0,0,,,,,1,15,51,0,,,,,,down,0.6505002366548069,1126.4210862488653,None,001,96,2019_Nov_07_1201,ACPT_experiment_5_30_19,3.1.0,59.95251331958986,
,,,C,G,g,v,R,G,y,L,y,,,,,5,19,119,13,0,0,0,0,,,,,1,16,52,28,,,,,,down,0.7505324749336069,1128.355934741031,None,001,96,2019_Nov_07_1201,ACPT_experiment_5_30_19,3.1.0,59.95251331958986,
,,,C,G,g,v,L,U,g,L,u,,,,,5,19,119,13,0,0,0,0,,,,,1,17,53,22,,,,,,up,0.7338890109731437,1130.3907919266658,None,001,96,2019_Nov_07_1201,ACPT_experiment_5_30_19,3.1.0,59.95251331958986,
,,,C,G,g,v,R,U,y,R,u,,,,,5,19,119,13,0,0,0,0,,,,,1,18,54,31,,,,,,down,0.7839208266523201,1132.4090029316312,None,001,96,2019_Nov_07_1201,ACPT_experiment_5_30_19,3.1.0,59.95251331958986,
,,,C,G,g,v,R,U,g,R,u,,,,,5,19,119,13,0,0,0,0,,,,,1,19,55,11,,,,,,down,0.8840070972510148,1134.4772499782666,None,001,96,2019_Nov_07_1201,ACPT_experiment_5_30_19,3.1.0,59.95251331958986,
,,,C,G,g,v,R,G,y,R,y,,,,,5,19,119,13,0,0,0,0,,,,,1,20,56,29,,,,,,down,0.7839325990571524,1136.6455733342345,None,001,96,2019_Nov_07_1201,ACPT_experiment_5_30_19,3.1.0,59.95251331958986,
,,,C,G,g,v,R,G,d,L,i,,,,,5,19,119,13,0,0,0,0,,,,,1,21,57,4,,,,,,down,0.600468119119796,1138.6971331477116,None,001,96,2019_Nov_07_1201,ACPT_experiment_5_30_19,3.1.0,59.95251331958986,
,,,C,G,g,v,R,U,g,L,u,,,,,5,19,119,13,0,0,0,0,,,,,1,22,58,10,,,,,,down,0.7505819794059789,1140.5819078661398,None,001,96,2019_Nov_07_1201,ACPT_experiment_5_30_19,3.1.0,59.95251331958986,
,,,C,G,g,v,L,U,d,L,u,,,,,5,19,119,13,0,0,0,0,,,,,1,23,59,20,,,,,,down,0.5504236254664647,1142.6168051986942,None,001,96,2019_Nov_07_1201,ACPT_experiment_5_30_19,3.1.0,59.95251331958986,
,,,C,G,g,v,L,G,d,L,i,,,,,5,19,119,13,0,0,0,0,,,,,1,24,60,16,,,,,,up,0.6004506114413743,1144.4515490070125,None,001,96,2019_Nov_07_1201,ACPT_experiment_5_30_19,3.1.0,59.95251331958986,
,,,C,G,g,v,L,U,d,R,u,,,,,5,19,119,13,0,0,0,0,,,,,1,25,61,21,,,,,,up,1.3174927071459024,1146.3364737481406,None,001,96,2019_Nov_07_1201,ACPT_experiment_5_30_19,3.1.0,59.95251331958986,
,,,C,G,g,v,R,U,d,L,u,,,,,5,19,119,13,0,0,0,0,,,,,1,26,62,8,,,,,,up,0.5670794655443387,1148.9383270869157,None,001,96,2019_Nov_07_1201,ACPT_experiment_5_30_19,3.1.0,59.95251331958986,
,,,C,G,g,v,R,D,y,L,y,,,,,5,19,119,13,0,0,0,0,,,,,1,27,63,26,,,,,,down,0.7672514030291495,1150.7897309613045,None,001,96,2019_Nov_07_1201,ACPT_experiment_5_30_19,3.1.0,59.95251331958986,
,,,C,G,g,v,R,G,g,R,c ,,,,,5,19,119,13,0,0,0,0,,,,,1,28,64,7,,,,,,up,1.2175872486141088,1152.841301641617,None,001,96,2019_Nov_07_1201,ACPT_experiment_5_30_19,3.1.0,59.95251331958986,
,,,C,G,g,v,R,G,d,R,i,,,,,5,19,119,13,0,0,0,0,,,,,1,29,65,5,,,,,,up,0.8006255674908971,1155.3432172232096,None,001,96,2019_Nov_07_1201,ACPT_experiment_5_30_19,3.1.0,59.95251331958986,
,,,C,G,g,v,L,G,g,R,c ,,,,,5,19,119,13,0,0,0,0,,,,,1,30,66,19,,,,,,up,0.833966225874974,1157.4281466732991,None,001,96,2019_Nov_07_1201,ACPT_experiment_5_30_19,3.1.0,59.95251331958986,
,,,C,G,g,v,R,U,d,R,u,,,,,5,19,119,13,0,0,0,0,,,,,1,31,67,9,,,,,,down,0.9507053179877403,1159.5464527027025,None,001,96,2019_Nov_07_1201,ACPT_experiment_5_30_19,3.1.0,59.95251331958986,
,,,C,G,g,v,L,D,d,L,c ,,,,,5,19,119,13,0,0,0,0,,,,,1,32,68,12,,,,,,down,0.4002970872052174,1161.7647991205113,None,001,96,2019_Nov_07_1201,ACPT_experiment_5_30_19,3.1.0,59.95251331958986,
,,,C,G,g,v,L,U,y,L,u,,,,,5,19,119,13,0,0,0,0,,,,,1,33,69,24,,,,,,down,0.6838116149565394,1163.46613652609,None,001,96,2019_Nov_07_1201,ACPT_experiment_5_30_19,3.1.0,59.95251331958986,
,,,C,G,g,v,L,D,g,R,i,,,,,5,19,119,13,0,0,0,0,,,,,1,34,70,15,,,,,,up,0.8673080916869367,1165.4676439976429,None,001,96,2019_Nov_07_1201,ACPT_experiment_5_30_19,3.1.0,59.95251331958986,
,,,C,G,g,v,L,G,g,L,c ,,,,,5,19,119,13,0,0,0,0,,,,,1,35,71,18,,,,,,up,0.4003179153069141,1167.6025756814715,None,001,96,2019_Nov_07_1201,ACPT_experiment_5_30_19,3.1.0,59.95251331958986,
,,,C,G,g,v,,,,,,,,,,5,19,119,13,1,0,1,0,0,0,0,0,,,,,,,,,,,,,,001,96,2019_Nov_07_1201,ACPT_experiment_5_30_19,3.1.0,59.95251331958986,
,,,C,G,g,v,R,D,y,R,y,,,,,5,19,119,13,1,0,1,0,,,,,0,0,0,27,,,,,,down,0.6502515068677894,1173.790906994378,None,001,96,2019_Nov_07_1201,ACPT_experiment_5_30_19,3.1.0,59.95251331958986,
,,,C,G,g,v,R,U,g,L,u,,,,,5,19,119,13,1,0,1,0,,,,,0,1,1,10,,,,,,up,0.5170506684307838,1175.7254829100902,None,001,96,2019_Nov_07_1201,ACPT_experiment_5_30_19,3.1.0,59.95251331958986,
,,,C,G,g,v,L,G,g,R,c ,,,,,5,19,119,13,1,0,1,0,,,,,0,2,2,19,,,,,,up,0.433661592257522,1177.5101767913375,None,001,96,2019_Nov_07_1201,ACPT_experiment_5_30_19,3.1.0,59.95251331958986,
,,,C,G,g,v,R,U,y,L,u,,,,,5,19,119,13,1,0,1,0,,,,,0,3,3,30,,,,,,down,0.4836813336742125,1179.2448454977493,None,001,96,2019_Nov_07_1201,ACPT_experiment_5_30_19,3.1.0,59.95251331958986,
,,,C,G,g,v,R,G,g,L,c ,,,,,5,19,119,13,1,0,1,0,,,,,0,4,4,6,,,,,,up,0.6671557748777559,1181.0462311400033,None,001,96,2019_Nov_07_1201,ACPT_experiment_5_30_19,3.1.0,59.95251331958986,
,,,C,G,g,v,R,D,g,L,i,,,,,5,19,119,13,1,0,1,0,,,,,0,5,5,2,,,,,,down,0.9674013049861969,1182.9977125311516,None,001,96,2019_Nov_07_1201,ACPT_experiment_5_30_19,3.1.0,59.95251331958986,
,,,C,G,g,v,R,U,y,R,u,,,,,5,19,119,13,1,0,1,0,,,,,0,6,6,31,,,,,,down,0.6171245629120676,1185.266114611305,None,001,96,2019_Nov_07_1201,ACPT_experiment_5_30_19,3.1.0,59.95251331958986,
,,,C,G,g,v,L,G,y,R,y,,,,,5,19,119,13,1,0,1,0,,,,,0,7,7,35,,,,,,down,0.7005229966380284,1187.1842523255027,None,001,96,2019_Nov_07_1201,ACPT_experiment_5_30_19,3.1.0,59.95251331958986,
,,,C,G,g,v,L,U,g,L,u,,,,,5,19,119,13,1,0,1,0,,,,,0,8,8,22,,,,,,up,0.8006059468152671,1189.1691030514075,None,001,96,2019_Nov_07_1201,ACPT_experiment_5_30_19,3.1.0,59.95251331958986,
,,,C,G,g,v,L,G,y,L,y,,,,,5,19,119,13,1,0,1,0,,,,,0,9,9,34,,,,,,down,0.5504411331457959,1191.2540047306957,None,001,96,2019_Nov_07_1201,ACPT_experiment_5_30_19,3.1.0,59.95251331958986,
,,,C,G,g,v,L,G,g,L,c ,,,,,5,19,119,13,1,0,1,0,,,,,0,10,10,18,,,,,,down,0.733883879412133,1193.0887678578329,None,001,96,2019_Nov_07_1201,ACPT_experiment_5_30_19,3.1.0,59.95251331958986,
,,,C,G,g,v,L,U,y,R,u,,,,,5,19,119,13,1,0,1,0,,,,,0,11,11,25,,,,,,down,0.6669749628117643,1195.1571757940037,None,001,96,2019_Nov_07_1201,ACPT_experiment_5_30_19,3.1.0,59.95251331958986,
,,,C,G,g,v,R,G,y,R,y,,,,,5,19,119,13,1,0,1,0,,,,,0,12,12,29,,,,,,down,0.6671675472825882,1197.1418701582215,None,001,96,2019_Nov_07_1201,ACPT_experiment_5_30_19,3.1.0,59.95251331958986,
,,,C,G,g,v,R,D,g,R,i,,,,,5,19,119,13,1,0,1,0,,,,,0,13,13,3,,,,,,up,1.0341242779595632,1199.0933518512256,None,001,96,2019_Nov_07_1201,ACPT_experiment_5_30_19,3.1.0,59.95251331958986,
,,,C,G,g,v,R,G,g,R,c ,,,,,5,19,119,13,1,0,1,0,,,,,0,14,14,7,,,,,,up,0.8006074560980778,1201.4118029528818,None,001,96,2019_Nov_07_1201,ACPT_experiment_5_30_19,3.1.0,59.95251331958986,
,,,C,G,g,v,L,D,y,L,y,,,,,5,19,119,13,1,0,1,0,,,,,0,15,15,32,,,,,,down,0.6504960106640283,1203.4967290825498,None,001,96,2019_Nov_07_1201,ACPT_experiment_5_30_19,3.1.0,59.95251331958986,
,,,C,G,g,v,L,D,d,L,c ,,,,,5,19,119,13,1,0,1,0,,,,,0,16,16,12,,,,,,up,0.6338084756480384,1205.4315467853485,None,001,96,2019_Nov_07_1201,ACPT_experiment_5_30_19,3.1.0,59.95251331958986,
,,,C,G,g,v,L,D,y,R,y,,,,,5,19,119,13,1,0,1,0,,,,,0,17,17,33,,,,,,down,0.8006107765204433,1207.3663596584438,None,001,96,2019_Nov_07_1201,ACPT_experiment_5_30_19,3.1.0,59.95251331958986,
,,,C,G,g,v,L,G,d,L,i,,,,,5,19,119,13,1,0,1,0,,,,,0,18,18,16,,,,,,up,0.6504926902425723,1209.4846457653148,None,001,96,2019_Nov_07_1201,ACPT_experiment_5_30_19,3.1.0,59.95251331958986,
,,,C,G,g,v,R,U,d,R,u,,,,,5,19,119,13,1,0,1,0,,,,,0,19,19,9,,,,,,up,0.6171508244306096,1211.4194402251605,None,001,96,2019_Nov_07_1201,ACPT_experiment_5_30_19,3.1.0,59.95251331958986,
,,,C,G,g,v,R,U,d,L,u,,,,,5,19,119,13,1,0,1,0,,,,,0,20,20,8,,,,,,up,0.4171708677040442,1213.304083635995,None,001,96,2019_Nov_07_1201,ACPT_experiment_5_30_19,3.1.0,59.95251331958986,
,,,C,G,g,v,R,D,d,R,c ,,,,,5,19,119,13,1,0,1,0,,,,,0,21,21,1,,,,,,up,0.38335720012401,1215.005800173387,None,001,96,2019_Nov_07_1201,ACPT_experiment_5_30_19,3.1.0,59.95251331958986,
,,,C,G,g,v,L,D,d,R,c ,,,,,5,19,119,13,1,0,1,0,,,,,0,22,22,13,,,,,,up,0.6671750936966419,1216.6734817823544,None,001,96,2019_Nov_07_1201,ACPT_experiment_5_30_19,3.1.0,59.95251331958986,
,,,C,G,g,v,L,U,d,L,u,,,,,5,19,119,13,1,0,1,0,,,,,0,23,23,20,,,,,,up,0.6504821252628972,1218.624977058903,None,001,96,2019_Nov_07_1201,ACPT_experiment_5_30_19,3.1.0,59.95251331958986,
,,,C,G,g,v,L,D,g,L,i,,,,,5,19,119,13,1,0,1,0,,,,,0,24,24,14,,,,,,up,0.7005438247397251,1220.55976970761,None,001,96,2019_Nov_07_1201,ACPT_experiment_5_30_19,3.1.0,59.95251331958986,
,,,C,G,g,v,L,U,g,R,u,,,,,5,19,119,13,1,0,1,0,,,,,0,25,25,23,,,,,,up,0.8006065505287552,1222.5446400541896,None,001,96,2019_Nov_07_1201,ACPT_experiment_5_30_19,3.1.0,59.95251331958986,
,,,C,G,g,v,R,G,d,R,i,,,,,5,19,119,13,1,0,1,0,,,,,0,26,26,5,,,,,,up,0.7005568045706241,1224.629573428414,None,001,96,2019_Nov_07_1201,ACPT_experiment_5_30_19,3.1.0,59.95251331958986,
,,,C,G,g,v,R,G,d,L,i,,,,,5,19,119,13,1,0,1,0,,,,,0,27,27,4,,,,,,up,0.5504145697696003,1226.6144205320406,None,001,96,2019_Nov_07_1201,ACPT_experiment_5_30_19,3.1.0,59.95251331958986,
,,,C,G,g,v,R,G,y,L,y,,,,,5,19,119,13,1,0,1,0,,,,,0,28,28,28,,,,,,down,0.6505355538702133,1228.4491341547055,None,001,96,2019_Nov_07_1201,ACPT_experiment_5_30_19,3.1.0,59.95251331958986,
,,,C,G,g,v,L,U,y,L,u,,,,,5,19,119,13,1,0,1,0,,,,,0,29,29,24,,,,,,down,0.5004002617706647,1230.3839497445088,None,001,96,2019_Nov_07_1201,ACPT_experiment_5_30_19,3.1.0,59.95251331958986,
,,,C,G,g,v,R,U,g,R,u,,,,,5,19,119,13,1,0,1,0,,,,,0,30,30,11,,,,,,up,0.7172078149451409,1232.168671698414,None,001,96,2019_Nov_07_1201,ACPT_experiment_5_30_19,3.1.0,59.95251331958986,
,,,C,G,g,v,R,D,d,L,c,,,,,5,19,119,13,1,0,1,0,,,,,0,31,31,0,,,,,,up,0.5668246986260783,1234.1871528649808,None,001,96,2019_Nov_07_1201,ACPT_experiment_5_30_19,3.1.0,59.95251331958986,
,,,C,G,g,v,L,U,d,R,u,,,,,5,19,119,13,1,0,1,0,,,,,0,32,32,21,,,,,,up,0.4336229546206596,1236.0216536787857,None,001,96,2019_Nov_07_1201,ACPT_experiment_5_30_19,3.1.0,59.95251331958986,
,,,C,G,g,v,L,D,g,R,i,,,,,5,19,119,13,1,0,1,0,,,,,0,33,33,15,,,,,,up,0.7339119520702297,1237.7395732714485,None,001,96,2019_Nov_07_1201,ACPT_experiment_5_30_19,3.1.0,59.95251331958986,
,,,C,G,g,v,L,G,d,R,i,,,,,5,19,119,13,1,0,1,0,,,,,0,34,34,17,,,,,,up,0.5837748488302168,1239.7578054063715,None,001,96,2019_Nov_07_1201,ACPT_experiment_5_30_19,3.1.0,59.95251331958986,
,,,C,G,g,v,R,D,y,L,y,,,,,5,19,119,13,1,0,1,0,,,,,0,35,35,26,,,,,,down,0.7338959536727998,1241.62590345662,None,001,96,2019_Nov_07_1201,ACPT_experiment_5_30_19,3.1.0,59.95251331958986,
,,,C,G,g,v,R,G,y,L,y,,,,,5,19,119,13,1,0,1,0,,,,,1,0,36,28,,,,,,down,0.5337650686778943,1243.6440906149182,None,001,96,2019_Nov_07_1201,ACPT_experiment_5_30_19,3.1.0,59.95251331958986,
,,,C,G,g,v,R,U,d,L,u,,,,,5,19,119,13,1,0,1,0,,,,,1,1,37,8,,,,,,up,0.7005344671870262,1245.4621740553102,None,001,96,2019_Nov_07_1201,ACPT_experiment_5_30_19,3.1.0,59.95251331958986,
,,,C,G,g,v,R,U,y,L,u,,,,,5,19,119,13,1,0,1,0,,,,,1,2,38,30,,,,,,down,0.6169313747277556,1247.4639453494774,None,001,96,2019_Nov_07_1201,ACPT_experiment_5_30_19,3.1.0,59.95251331958986,
,,,C,G,g,v,L,G,y,R,y,,,,,5,19,119,13,1,0,1,0,,,,,1,3,39,35,,,,,,down,0.6338114942136599,1249.3651627972686,None,001,96,2019_Nov_07_1201,ACPT_experiment_5_30_19,3.1.0,59.95251331958986,
,,,C,G,g,v,L,G,g,L,c ,,,,,5,19,119,13,1,0,1,0,,,,,1,4,40,18,,,,,,up,0.6004814008074391,1251.266592752062,None,001,96,2019_Nov_07_1201,ACPT_experiment_5_30_19,3.1.0,59.95251331958986,
,,,C,G,g,v,L,D,g,R,i,,,,,5,19,119,13,1,0,1,0,,,,,1,5,41,15,,,,,,up,0.6338018348042169,1253.1513955431483,None,001,96,2019_Nov_07_1201,ACPT_experiment_5_30_19,3.1.0,59.95251331958986,
,,,C,G,g,v,R,G,d,L,i,,,,,5,19,119,13,1,0,1,0,,,,,1,6,42,4,,,,,,up,0.6001753182772518,1255.0864806908412,None,001,96,2019_Nov_07_1201,ACPT_experiment_5_30_19,3.1.0,59.95251331958986,
,,,C,G,g,v,L,D,y,L,y,,,,,5,19,119,13,1,0,1,0,,,,,1,7,43,32,,,,,,down,0.8339710555801503,1256.9709798142494,None,001,96,2019_Nov_07_1201,ACPT_experiment_5_30_19,3.1.0,59.95251331958986,
,,,C,G,g,v,R,G,d,R,i,,,,,5,19,119,13,1,0,1,0,,,,,1,8,44,5,,,,,,down,0.6838469321710363,1259.0892704489697,None,001,96,2019_Nov_07_1201,ACPT_experiment_5_30_19,3.1.0,59.95251331958986,
,,,C,G,g,v,L,D,d,R,c ,,,,,5,19,119,13,1,0,1,0,,,,,1,9,45,13,,,,,,down,0.5003712835423357,1261.0407627069526,None,001,96,2019_Nov_07_1201,ACPT_experiment_5_30_19,3.1.0,59.95251331958986,
,,,C,G,g,v,R,G,g,R,c ,,,,,5,19,119,13,1,0,1,0,,,,,1,10,46,7,,,,,,up,0.6671947143713624,1262.8254417972294,None,001,96,2019_Nov_07_1201,ACPT_experiment_5_30_19,3.1.0,59.95251331958986,
,,,C,G,g,v,L,G,y,L,y,,,,,5,19,119,13,1,0,1,0,,,,,1,11,47,34,,,,,,down,0.5670882193844591,1264.776957298167,None,001,96,2019_Nov_07_1201,ACPT_experiment_5_30_19,3.1.0,59.95251331958986,
,,,C,G,g,v,R,U,g,R,u,,,,,5,19,119,13,1,0,1,0,,,,,1,12,48,11,,,,,,up,0.6671784141180979,1266.6283687189689,None,001,96,2019_Nov_07_1201,ACPT_experiment_5_30_19,3.1.0,59.95251331958986,
,,,C,G,g,v,L,D,g,L,i,,,,,5,19,119,13,1,0,1,0,,,,,1,13,49,14,,,,,,up,0.5170609315528054,1268.5798652029443,None,001,96,2019_Nov_07_1201,ACPT_experiment_5_30_19,3.1.0,59.95251331958986,
,,,C,G,g,v,R,D,y,L,y,,,,,5,19,119,13,1,0,1,0,,,,,1,14,50,26,,,,,,down,0.6004475928757529,1270.381246015494,None,001,96,2019_Nov_07_1201,ACPT_experiment_5_30_19,3.1.0,59.95251331958986,
,,,C,G,g,v,R,D,d,R,c ,,,,,5,19,119,13,1,0,1,0,,,,,1,15,51,1,,,,,,up,0.633812097927148,1272.2660174134999,None,001,96,2019_Nov_07_1201,ACPT_experiment_5_30_19,3.1.0,59.95251331958986,
,,,C,G,g,v,L,U,d,R,u,,,,,5,19,119,13,1,0,1,0,,,,,1,16,52,21,,,,,,up,0.7338715032938126,1274.2008520202653,None,001,96,2019_Nov_07_1201,ACPT_experiment_5_30_19,3.1.0,59.95251331958986,
,,,C,G,g,v,L,G,d,L,i,,,,,5,19,119,13,1,0,1,0,,,,,1,17,53,16,,,,,,up,0.9340962656724514,1276.2190301228675,None,001,96,2019_Nov_07_1201,ACPT_experiment_5_30_19,3.1.0,59.95251331958986,
,,,C,G,g,v,R,D,y,R,y,,,,,5,19,119,13,1,0,1,0,,,,,1,18,54,27,,,,,,down,0.7839226377918749,1278.4540846019354,None,001,96,2019_Nov_07_1201,ACPT_experiment_5_30_19,3.1.0,59.95251331958986,
,,,C,G,g,v,L,U,g,L,u,,,,,5,19,119,13,1,0,1,0,,,,,1,19,55,22,,,,,,up,0.6504863512554948,1280.555706416746,None,001,96,2019_Nov_07_1201,ACPT_experiment_5_30_19,3.1.0,59.95251331958986,
,,,C,G,g,v,L,G,d,R,i,,,,,5,19,119,13,1,0,1,0,,,,,1,20,56,17,,,,,,up,0.7172159650717731,1282.4905072155789,None,001,96,2019_Nov_07_1201,ACPT_experiment_5_30_19,3.1.0,59.95251331958986,
,,,C,G,g,v,R,U,y,R,u,,,,,5,19,119,13,1,0,1,0,,,,,1,21,57,31,,,,,,down,0.8006086635241445,1284.5087218428225,None,001,96,2019_Nov_07_1201,ACPT_experiment_5_30_19,3.1.0,59.95251331958986,
,,,C,G,g,v,L,U,d,L,u,,,,,5,19,119,13,1,0,1,0,,,,,1,22,58,20,,,,,,up,0.5337563148386835,1286.6103288666618,None,001,96,2019_Nov_07_1201,ACPT_experiment_5_30_19,3.1.0,59.95251331958986,
,,,C,G,g,v,R,U,d,R,u,,,,,5,19,119,13,1,0,1,0,,,,,1,23,59,9,,,,,,up,0.8673195622350249,1288.4283890641,None,001,96,2019_Nov_07_1201,ACPT_experiment_5_30_19,3.1.0,59.95251331958986,
,,,C,G,g,v,R,D,g,L,i,,,,,5,19,119,13,1,0,1,0,,,,,1,24,60,2,,,,,,down,0.8840040786853933,1290.5800330351794,None,001,96,2019_Nov_07_1201,ACPT_experiment_5_30_19,3.1.0,59.95251331958986,
,,,C,G,g,v,L,D,y,R,y,,,,,5,19,119,13,1,0,1,0,,,,,1,25,61,33,,,,,,down,0.733900179664488,1292.7483488447351,None,001,96,2019_Nov_07_1201,ACPT_experiment_5_30_19,3.1.0,59.95251331958986,
,,,C,G,g,v,R,U,g,L,u,,,,,5,19,119,13,1,0,1,0,,,,,1,26,62,10,,,,,,up,0.517051574001016,1294.7665689053956,None,001,96,2019_Nov_07_1201,ACPT_experiment_5_30_19,3.1.0,59.95251331958986,
,,,C,G,g,v,R,D,d,L,c,,,,,5,19,119,13,1,0,1,0,,,,,1,27,63,0,,,,,,up,0.5170603278402268,1296.5679460956671,None,001,96,2019_Nov_07_1201,ACPT_experiment_5_30_19,3.1.0,59.95251331958986,
,,,C,G,g,v,L,U,g,R,u,,,,,5,19,119,13,1,0,1,0,,,,,1,28,64,23,,,,,,up,0.9006807468658735,1298.3693238896512,None,001,96,2019_Nov_07_1201,ACPT_experiment_5_30_19,3.1.0,59.95251331958986,
,,,C,G,g,v,L,D,d,L,c ,,,,,5,19,119,13,1,0,1,0,,,,,1,29,65,12,,,,,,down,0.7002634000155012,1300.571277686282,None,001,96,2019_Nov_07_1201,ACPT_experiment_5_30_19,3.1.0,59.95251331958986,
,,,C,G,g,v,L,G,g,R,c ,,,,,5,19,119,13,1,0,1,0,,,,,1,30,66,19,,,,,,up,0.6838692695555437,1302.5558404410485,None,001,96,2019_Nov_07_1201,ACPT_experiment_5_30_19,3.1.0,59.95251331958986,
,,,C,G,g,v,R,D,g,R,i,,,,,5,19,119,13,1,0,1,0,,,,,1,31,67,3,,,,,,down,0.583769717269206,1304.524036232444,None,001,96,2019_Nov_07_1201,ACPT_experiment_5_30_19,3.1.0,59.95251331958986,
,,,C,G,g,v,R,G,y,R,y,,,,,5,19,119,13,1,0,1,0,,,,,1,32,68,29,,,,,,down,0.683845121032391,1306.3921300567008,None,001,96,2019_Nov_07_1201,ACPT_experiment_5_30_19,3.1.0,59.95251331958986,
,,,C,G,g,v,L,U,y,L,u,,,,,5,19,119,13,1,0,1,0,,,,,1,33,69,24,,,,,,down,0.7672501956030828,1308.360301699573,None,001,96,2019_Nov_07_1201,ACPT_experiment_5_30_19,3.1.0,59.95251331958986,
,,,C,G,g,v,L,U,y,R,u,,,,,5,19,119,13,1,0,1,0,,,,,1,34,70,25,,,,,,down,0.6838457247449696,1310.4285553870523,None,001,96,2019_Nov_07_1201,ACPT_experiment_5_30_19,3.1.0,59.95251331958986,
,,,C,G,g,v,R,G,g,L,c ,,,,,5,19,119,13,1,0,1,0,,,,,1,35,71,6,,,,,,up,0.5504133623435337,1312.4134027925356,None,001,96,2019_Nov_07_1201,ACPT_experiment_5_30_19,3.1.0,59.95251331958986,
,,,C,G,g,v,,,,,,,,,,5,19,119,13,2,0,2,0,0,0,0,0,,,,,,,,,,,,,,001,96,2019_Nov_07_1201,ACPT_experiment_5_30_19,3.1.0,59.95251331958986,
,,,C,G,g,v,L,G,g,L,c ,,,,,5,19,119,13,2,0,2,0,,,,,0,0,0,18,,,,,,up,0.6671714714175323,1316.3997824218068,None,001,96,2019_Nov_07_1201,ACPT_experiment_5_30_19,3.1.0,59.95251331958986,
,,,C,G,g,v,L,U,y,L,u,,,,,5,19,119,13,2,0,2,0,,,,,0,1,1,24,,,,,,down,0.8339698481540836,1318.3512822262037,None,001,96,2019_Nov_07_1201,ACPT_experiment_5_30_19,3.1.0,59.95251331958986,
,,,C,G,g,v,L,U,g,R,u,,,,,5,19,119,13,2,0,2,0,,,,,0,2,2,23,,,,,,up,0.7338844831247116,1320.4695701442151,None,001,96,2019_Nov_07_1201,ACPT_experiment_5_30_19,3.1.0,59.95251331958986,
,,,C,G,g,v,L,U,g,L,u,,,,,5,19,119,13,2,0,2,0,,,,,0,3,3,22,,,,,,up,0.5671138771904225,1322.4710800306202,None,001,96,2019_Nov_07_1201,ACPT_experiment_5_30_19,3.1.0,59.95251331958986,
,,,C,G,g,v,L,D,g,L,i,,,,,5,19,119,13,2,0,2,0,,,,,0,4,4,14,,,,,,down,0.7505931480973231,1324.3224896402835,None,001,96,2019_Nov_07_1201,ACPT_experiment_5_30_19,3.1.0,59.95251331958986,
,,,C,G,g,v,R,G,g,R,c ,,,,,5,19,119,13,2,0,2,0,,,,,0,5,5,7,,,,,,up,0.8006186247903315,1326.3573939155385,None,001,96,2019_Nov_07_1201,ACPT_experiment_5_30_19,3.1.0,59.95251331958986,
,,,C,G,g,v,R,G,d,R,i,,,,,5,19,119,13,2,0,2,0,,,,,0,6,6,5,,,,,,down,0.7672758534090462,1328.425633113904,None,001,96,2019_Nov_07_1201,ACPT_experiment_5_30_19,3.1.0,59.95251331958986,
,,,C,G,g,v,L,G,y,L,y,,,,,5,19,119,13,2,0,2,0,,,,,0,7,7,34,,,,,,down,0.7172114372233409,1330.477226433456,None,001,96,2019_Nov_07_1201,ACPT_experiment_5_30_19,3.1.0,59.95251331958986,
,,,C,G,g,v,R,G,y,L,y,,,,,5,19,119,13,2,0,2,0,,,,,0,8,8,28,,,,,,down,0.6338166257746707,1332.4787601665284,None,001,96,2019_Nov_07_1201,ACPT_experiment_5_30_19,3.1.0,59.95251331958986,
,,,C,G,g,v,L,D,y,R,y,,,,,5,19,119,13,2,0,2,0,,,,,0,9,9,33,,,,,,down,0.6671756974092204,1334.3968888250292,None,001,96,2019_Nov_07_1201,ACPT_experiment_5_30_19,3.1.0,59.95251331958986,
,,,C,G,g,v,R,D,d,L,c,,,,,5,19,119,13,2,0,2,0,,,,,0,10,10,0,,,,,,up,0.6338522448468211,1336.3483825922958,None,001,96,2019_Nov_07_1201,ACPT_experiment_5_30_19,3.1.0,59.95251331958986,
,,,C,G,g,v,R,G,g,L,c ,,,,,5,19,119,13,2,0,2,0,,,,,0,11,11,6,,,,,,up,0.6171348260340892,1338.2665215139195,None,001,96,2019_Nov_07_1201,ACPT_experiment_5_30_19,3.1.0,59.95251331958986,
,,,C,G,g,v,R,D,g,L,i,,,,,5,19,119,13,2,0,2,0,,,,,0,12,12,2,,,,,,up,0.7172129465061516,1340.1679701838184,None,001,96,2019_Nov_07_1201,ACPT_experiment_5_30_19,3.1.0,59.95251331958986,
,,,C,G,g,v,L,G,y,R,y,,,,,5,19,119,13,2,0,2,0,,,,,0,13,13,35,,,,,,down,0.8339541516133977,1342.1695069354555,None,001,96,2019_Nov_07_1201,ACPT_experiment_5_30_19,3.1.0,59.95251331958986,
,,,C,G,g,v,R,U,y,L,u,,,,,5,19,119,13,2,0,2,0,,,,,0,14,14,30,,,,,,down,0.4837269140116405,1344.271087999633,None,001,96,2019_Nov_07_1201,ACPT_experiment_5_30_19,3.1.0,59.95251331958986,
,,,C,G,g,v,R,G,d,L,i,,,,,5,19,119,13,2,0,2,0,,,,,0,15,15,4,,,,,,up,0.6505219703258263,1346.0391281537968,None,001,96,2019_Nov_07_1201,ACPT_experiment_5_30_19,3.1.0,59.95251331958986,
,,,C,G,g,v,L,D,d,R,c ,,,,,5,19,119,13,2,0,2,0,,,,,0,16,16,13,,,,,,down,0.6671759992659645,1347.973939819466,None,001,96,2019_Nov_07_1201,ACPT_experiment_5_30_19,3.1.0,59.95251331958986,
,,,C,G,g,v,L,G,d,R,i,,,,,5,19,119,13,2,0,2,0,,,,,0,17,17,17,,,,,,down,0.4803639303172531,1349.9454475808006,None,001,96,2019_Nov_07_1201,ACPT_experiment_5_30_19,3.1.0,59.95251331958986,
,,,C,G,g,v,R,D,g,R,i,,,,,5,19,119,13,2,0,2,0,,,,,0,18,18,3,,,,,,up,0.683855082298578,1351.710131392114,None,001,96,2019_Nov_07_1201,ACPT_experiment_5_30_19,3.1.0,59.95251331958986,
,,,C,G,g,v,L,G,d,L,i,,,,,5,19,119,13,2,0,2,0,,,,,0,19,19,16,,,,,,up,0.7172298504719947,1353.6782843198807,None,001,96,2019_Nov_07_1201,ACPT_experiment_5_30_19,3.1.0,59.95251331958986,
,,,C,G,g,v,L,U,y,R,u,,,,,5,19,119,13,2,0,2,0,,,,,0,20,20,25,,,,,,down,0.7505569253125941,1355.7132039898188,None,001,96,2019_Nov_07_1201,ACPT_experiment_5_30_19,3.1.0,59.95251331958986,
,,,C,G,g,v,R,U,g,L,u,,,,,5,19,119,13,2,0,2,0,,,,,0,21,21,10,,,,,,up,0.7005465414486025,1357.7647484086128,None,001,96,2019_Nov_07_1201,ACPT_experiment_5_30_19,3.1.0,59.95251331958986,
,,,C,G,g,v,L,D,d,L,c ,,,,,5,19,119,13,2,0,2,0,,,,,0,22,22,12,,,,,,up,0.6171345241782547,1359.7496163403393,None,001,96,2019_Nov_07_1201,ACPT_experiment_5_30_19,3.1.0,59.95251331958986,
,,,C,G,g,v,L,D,y,L,y,,,,,5,19,119,13,2,0,2,0,,,,,0,23,23,32,,,,,,down,0.5670900305240139,1361.6510785937835,None,001,96,2019_Nov_07_1201,ACPT_experiment_5_30_19,3.1.0,59.95251331958986,
,,,C,G,g,v,R,U,d,R,u,,,,,5,19,119,13,2,0,2,0,,,,,0,24,24,9,,,,,,up,0.700553182292424,1363.5024697901981,None,001,96,2019_Nov_07_1201,ACPT_experiment_5_30_19,3.1.0,59.95251331958986,
,,,C,G,g,v,R,D,y,L,y,,,,,5,19,119,13,2,0,2,0,,,,,0,25,25,26,,,,,,down,0.5668844662213814,1365.5041955040278,None,001,96,2019_Nov_07_1201,ACPT_experiment_5_30_19,3.1.0,59.95251331958986,
,,,C,G,g,v,R,U,g,R,u,,,,,5,19,119,13,2,0,2,0,,,,,0,26,26,11,,,,,,up,0.5670900305240139,1367.3721205904794,None,001,96,2019_Nov_07_1201,ACPT_experiment_5_30_19,3.1.0,59.95251331958986,
,,,C,G,g,v,L,U,d,R,u,,,,,5,19,119,13,2,0,2,0,,,,,0,27,27,21,,,,,,up,0.7002597777363917,1369.2404885004735,None,001,96,2019_Nov_07_1201,ACPT_experiment_5_30_19,3.1.0,59.95251331958986,
,,,C,G,g,v,R,U,d,L,u,,,,,5,19,119,13,2,0,2,0,,,,,0,28,28,8,,,,,,down,0.6004599689940733,1371.2250663480672,None,001,96,2019_Nov_07_1201,ACPT_experiment_5_30_19,3.1.0,59.95251331958986,
,,,C,G,g,v,R,G,y,R,y,,,,,5,19,119,13,2,0,2,0,,,,,0,29,29,29,,,,,,down,0.8673482386066098,1373.1098217476774,None,001,96,2019_Nov_07_1201,ACPT_experiment_5_30_19,3.1.0,59.95251331958986,
,,,C,G,g,v,R,D,d,R,c ,,,,,5,19,119,13,2,0,2,0,,,,,0,30,30,1,,,,,,up,0.5837775655390942,1375.2614883579972,None,001,96,2019_Nov_07_1201,ACPT_experiment_5_30_19,3.1.0,59.95251331958986,
,,,C,G,g,v,L,U,d,L,u,,,,,5,19,119,13,2,0,2,0,,,,,0,31,31,20,,,,,,up,0.7172159650717731,1377.129584898963,None,001,96,2019_Nov_07_1201,ACPT_experiment_5_30_19,3.1.0,59.95251331958986,
,,,C,G,g,v,R,D,y,R,y,,,,,5,19,119,13,2,0,2,0,,,,,0,32,32,27,,,,,,down,0.6004569504284518,1379.1311177264652,None,001,96,2019_Nov_07_1201,ACPT_experiment_5_30_19,3.1.0,59.95251331958986,
,,,C,G,g,v,L,D,g,R,i,,,,,5,19,119,13,2,0,2,0,,,,,0,33,33,15,,,,,,up,0.5504193994747766,1381.015890331897,None,001,96,2019_Nov_07_1201,ACPT_experiment_5_30_19,3.1.0,59.95251331958986,
,,,C,G,g,v,L,G,g,R,c ,,,,,5,19,119,13,2,0,2,0,,,,,0,34,34,19,,,,,,up,0.5671543259668397,1382.8506250845203,None,001,96,2019_Nov_07_1201,ACPT_experiment_5_30_19,3.1.0,59.95251331958986,
,,,C,G,g,v,R,U,y,R,u,,,,,5,19,119,13,2,0,2,0,,,,,0,35,35,31,,,,,,down,0.5670918416626591,1384.7020473721577,None,001,96,2019_Nov_07_1201,ACPT_experiment_5_30_19,3.1.0,59.95251331958986,
,,,C,G,g,v,L,G,g,R,c ,,,,,5,19,119,13,2,0,2,0,,,,,1,0,36,19,,,,,,up,0.7672465733239733,1386.553463320808,None,001,96,2019_Nov_07_1201,ACPT_experiment_5_30_19,3.1.0,59.95251331958986,
,,,C,G,g,v,L,U,g,R,u,,,,,5,19,119,13,2,0,2,0,,,,,1,1,37,23,,,,,,up,0.6168848888200955,1388.6219627195105,None,001,96,2019_Nov_07_1201,ACPT_experiment_5_30_19,3.1.0,59.95251331958986,
,,,C,G,g,v,L,D,d,L,c ,,,,,5,19,119,13,2,0,2,0,,,,,1,2,38,12,,,,,,down,0.600501021483069,1390.5231671874699,None,001,96,2019_Nov_07_1201,ACPT_experiment_5_30_19,3.1.0,59.95251331958986,
,,,C,G,g,v,L,D,y,R,y,,,,,5,19,119,13,2,0,2,0,,,,,1,3,39,33,,,,,,down,0.6838571952939674,1392.407944622607,None,001,96,2019_Nov_07_1201,ACPT_experiment_5_30_19,3.1.0,59.95251331958986,
,,,C,G,g,v,R,U,y,R,u,,,,,5,19,119,13,2,0,2,0,,,,,1,4,40,31,,,,,,down,0.6171278833344331,1394.3927971596504,None,001,96,2019_Nov_07_1201,ACPT_experiment_5_30_19,3.1.0,59.95251331958986,
,,,C,G,g,v,L,D,d,R,c ,,,,,5,19,119,13,2,0,2,0,,,,,1,5,41,13,,,,,,down,0.7839307879175976,1396.2942518666805,None,001,96,2019_Nov_07_1201,ACPT_experiment_5_30_19,3.1.0,59.95251331958986,
,,,C,G,g,v,L,D,y,L,y,,,,,5,19,119,13,2,0,2,0,,,,,1,6,42,32,,,,,,down,0.6505274037435811,1398.3624687276624,None,001,96,2019_Nov_07_1201,ACPT_experiment_5_30_19,3.1.0,59.95251331958986,
,,,C,G,g,v,L,D,g,L,i,,,,,5,19,119,13,2,0,2,0,,,,,1,7,43,14,,,,,,up,0.6338039478005157,1400.2973126919806,None,001,96,2019_Nov_07_1201,ACPT_experiment_5_30_19,3.1.0,59.95251331958986,
,,,C,G,g,v,R,G,g,R,c ,,,,,5,19,119,13,2,0,2,0,,,,,1,8,44,7,,,,,,up,0.6672230888862032,1402.2154150889628,None,001,96,2019_Nov_07_1201,ACPT_experiment_5_30_19,3.1.0,59.95251331958986,
,,,C,G,g,v,R,D,g,L,i,,,,,5,19,119,13,2,0,2,0,,,,,1,9,45,2,,,,,,up,0.48369340793669835,1404.1669420604485,None,001,96,2019_Nov_07_1201,ACPT_experiment_5_30_19,3.1.0,59.95251331958986,
,,,C,G,g,v,L,G,d,L,i,,,,,5,19,119,13,2,0,2,0,,,,,1,10,46,16,,,,,,up,0.7005519748663573,1405.9349354268497,None,001,96,2019_Nov_07_1201,ACPT_experiment_5_30_19,3.1.0,59.95251331958986,
,,,C,G,g,v,R,D,g,R,i,,,,,5,19,119,13,2,0,2,0,,,,,1,11,47,3,,,,,,up,0.6001777331302947,1407.9367625644763,None,001,96,2019_Nov_07_1201,ACPT_experiment_5_30_19,3.1.0,59.95251331958986,
,,,C,G,g,v,L,U,d,L,u,,,,,5,19,119,13,2,0,2,0,,,,,1,12,48,20,,,,,,up,0.5837983936407909,1409.8212414634972,None,001,96,2019_Nov_07_1201,ACPT_experiment_5_30_19,3.1.0,59.95251331958986,
,,,C,G,g,v,R,U,d,L,u,,,,,5,19,119,13,2,0,2,0,,,,,1,13,49,8,,,,,,up,0.46701794718319434,1411.6893627566988,None,001,96,2019_Nov_07_1201,ACPT_experiment_5_30_19,3.1.0,59.95251331958986,
,,,C,G,g,v,R,G,d,R,i,,,,,5,19,119,13,2,0,2,0,,,,,1,14,50,5,,,,,,up,0.6838737974039759,1413.440680058633,None,001,96,2019_Nov_07_1201,ACPT_experiment_5_30_19,3.1.0,59.95251331958986,
,,,C,G,g,v,L,U,y,R,u,,,,,5,19,119,13,2,0,2,0,,,,,1,15,51,25,,,,,,down,0.8172901614088914,1415.4088728314628,None,001,96,2019_Nov_07_1201,ACPT_experiment_5_30_19,3.1.0,59.95251331958986,
,,,C,G,g,v,R,U,y,L,u,,,,,5,19,119,13,2,0,2,0,,,,,1,16,52,30,,,,,,down,0.5671519111137968,1417.5104578197752,None,001,96,2019_Nov_07_1201,ACPT_experiment_5_30_19,3.1.0,59.95251331958986,
,,,C,G,g,v,L,G,y,L,y,,,,,5,19,119,13,2,0,2,0,,,,,1,17,53,34,,,,,,down,0.6004506114404649,1419.3618997280873,None,001,96,2019_Nov_07_1201,ACPT_experiment_5_30_19,3.1.0,59.95251331958986,
,,,C,G,g,v,L,U,y,L,u,,,,,5,19,119,13,2,0,2,0,,,,,1,18,54,24,,,,,,down,0.6336524158186876,1421.2801883705542,None,001,96,2019_Nov_07_1201,ACPT_experiment_5_30_19,3.1.0,59.95251331958986,
,,,C,G,g,v,R,G,d,L,i,,,,,5,19,119,13,2,0,2,0,,,,,1,19,55,4,,,,,,up,0.550402495508024,1423.2148524283757,None,001,96,2019_Nov_07_1201,ACPT_experiment_5_30_19,3.1.0,59.95251331958986,
,,,C,G,g,v,L,U,d,R,u,,,,,5,19,119,13,2,0,2,0,,,,,1,20,56,21,,,,,,up,0.5671015010721021,1425.0495802382975,None,001,96,2019_Nov_07_1201,ACPT_experiment_5_30_19,3.1.0,59.95251331958986,
,,,C,G,g,v,L,D,g,R,i,,,,,5,19,119,13,2,0,2,0,,,,,1,21,57,15,,,,,,up,0.7338965573862879,1426.9009961869479,None,001,96,2019_Nov_07_1201,ACPT_experiment_5_30_19,3.1.0,59.95251331958986,
,,,C,G,g,v,R,U,g,R,u,,,,,5,19,119,13,2,0,2,0,,,,,1,22,58,11,,,,,,up,0.8839998526937052,1428.9025350515813,None,001,96,2019_Nov_07_1201,ACPT_experiment_5_30_19,3.1.0,59.95251331958986,
,,,C,G,g,v,R,D,y,R,y,,,,,5,19,119,13,2,0,2,0,,,,,1,23,59,27,,,,,,down,0.7172072112325623,1431.0708596149761,None,001,96,2019_Nov_07_1201,ACPT_experiment_5_30_19,3.1.0,59.95251331958986,
,,,C,G,g,v,R,U,g,L,u,,,,,5,19,119,13,2,0,2,0,,,,,1,24,60,10,,,,,,up,0.6338099849308492,1433.0723888202,None,001,96,2019_Nov_07_1201,ACPT_experiment_5_30_19,3.1.0,59.95251331958986,
,,,C,G,g,v,R,G,y,L,y,,,,,5,19,119,13,2,0,2,0,,,,,1,25,61,28,,,,,,down,0.6171324111819558,1434.9905253269708,None,001,96,2019_Nov_07_1201,ACPT_experiment_5_30_19,3.1.0,59.95251331958986,
,,,C,G,g,v,R,U,d,R,u,,,,,5,19,119,13,2,0,2,0,,,,,1,26,62,9,,,,,,up,0.8339650184498169,1436.891978524718,None,001,96,2019_Nov_07_1201,ACPT_experiment_5_30_19,3.1.0,59.95251331958986,
,,,C,G,g,v,R,G,g,L,c ,,,,,5,19,119,13,2,0,2,0,,,,,1,27,63,6,,,,,,up,0.5837751506869608,1439.0102652353035,None,001,96,2019_Nov_07_1201,ACPT_experiment_5_30_19,3.1.0,59.95251331958986,
,,,C,G,g,v,R,D,y,L,y,,,,,5,19,119,13,2,0,2,0,,,,,1,28,64,26,,,,,,down,0.5837645857072857,1440.8950435760098,None,001,96,2019_Nov_07_1201,ACPT_experiment_5_30_19,3.1.0,59.95251331958986,
,,,C,G,g,v,R,D,d,L,c,,,,,5,19,119,13,2,0,2,0,,,,,1,29,65,0,,,,,,up,0.7505877146804778,1442.7798149740165,None,001,96,2019_Nov_07_1201,ACPT_experiment_5_30_19,3.1.0,59.95251331958986,
,,,C,G,g,v,L,G,g,L,c ,,,,,5,19,119,13,2,0,2,0,,,,,1,30,66,18,,,,,,up,0.5170545925657279,1444.8147056657263,None,001,96,2019_Nov_07_1201,ACPT_experiment_5_30_19,3.1.0,59.95251331958986,
,,,C,G,g,v,L,G,y,R,y,,,,,5,19,119,13,2,0,2,0,,,,,1,31,67,35,,,,,,down,0.6168592310141321,1446.6330339117712,None,001,96,2019_Nov_07_1201,ACPT_experiment_5_30_19,3.1.0,59.95251331958986,
,,,C,G,g,v,L,G,d,R,i,,,,,5,19,119,13,2,0,2,0,,,,,1,32,68,17,,,,,,down,0.6338335297414233,1448.5342305314607,None,001,96,2019_Nov_07_1201,ACPT_experiment_5_30_19,3.1.0,59.95251331958986,
,,,C,G,g,v,R,G,y,R,y,,,,,5,19,119,13,2,0,2,0,,,,,1,33,69,29,,,,,,down,0.5003733965377251,1450.4690310284377,None,001,96,2019_Nov_07_1201,ACPT_experiment_5_30_19,3.1.0,59.95251331958986,
,,,C,G,g,v,L,U,g,L,u,,,,,5,19,119,13,2,0,2,0,,,,,1,34,70,22,,,,,,up,0.5004198824444757,1452.2704094261344,None,001,96,2019_Nov_07_1201,ACPT_experiment_5_30_19,3.1.0,59.95251331958986,
,,,C,G,g,v,R,D,d,R,c ,,,,,5,19,119,13,2,0,2,0,,,,,1,35,71,1,,,,,,down,0.7505898276758671,1454.0550876108418,None,001,96,2019_Nov_07_1201,ACPT_experiment_5_30_19,3.1.0,59.95251331958986,
,,,C,G,g,v,,,,,,,,,,5,19,119,13,3,0,3,0,0,0,0,0,,,,,,,,,,,,,,001,96,2019_Nov_07_1201,ACPT_experiment_5_30_19,3.1.0,59.95251331958986,
,,,C,G,g,v,L,G,d,L,i,,,,,5,19,119,13,3,0,3,0,,,,,0,0,0,16,,,,,,up,0.5637584399091793,1459.9796433987594,None,001,96,2019_Nov_07_1201,ACPT_experiment_5_30_19,3.1.0,59.95251331958986,
,,,C,G,g,v,L,U,d,L,u,,,,,5,19,119,13,3,0,3,0,,,,,0,1,1,20,,,,,,up,0.5504363034406197,1461.8110175825395,None,001,96,2019_Nov_07_1201,ACPT_experiment_5_30_19,3.1.0,59.95251331958986,
,,,C,G,g,v,R,U,y,L,u,,,,,5,19,119,13,3,0,3,0,,,,,0,2,2,30,,,,,,down,0.5337388071602618,1463.662456472287,None,001,96,2019_Nov_07_1201,ACPT_experiment_5_30_19,3.1.0,59.95251331958986,
,,,C,G,g,v,R,G,g,R,c ,,,,,5,19,119,13,3,0,3,0,,,,,0,3,3,7,,,,,,up,0.7338992740960748,1465.4972014880323,None,001,96,2019_Nov_07_1201,ACPT_experiment_5_30_19,3.1.0,59.95251331958986,
,,,C,G,g,v,L,U,d,R,u,,,,,5,19,119,13,3,0,3,0,,,,,0,4,4,21,,,,,,up,0.8006098709502112,1467.5154055502962,None,001,96,2019_Nov_07_1201,ACPT_experiment_5_30_19,3.1.0,59.95251331958986,
,,,C,G,g,v,R,U,d,L,u,,,,,5,19,119,13,3,0,3,0,,,,,0,5,5,8,,,,,,up,0.583769717269206,1469.600335905956,None,001,96,2019_Nov_07_1201,ACPT_experiment_5_30_19,3.1.0,59.95251331958986,
,,,C,G,g,v,L,D,d,L,c ,,,,,5,19,119,13,3,0,3,0,,,,,0,6,6,12,,,,,,down,0.6004708358286734,1471.4684276172175,None,001,96,2019_Nov_07_1201,ACPT_experiment_5_30_19,3.1.0,59.95251331958986,
,,,C,G,g,v,R,U,g,R,u,,,,,5,19,119,13,3,0,3,0,,,,,0,7,7,11,,,,,,up,0.6335343899118016,1473.3701708990975,None,001,96,2019_Nov_07_1201,ACPT_experiment_5_30_19,3.1.0,59.95251331958986,
,,,C,G,g,v,L,U,g,L,u,,,,,5,19,119,13,3,0,3,0,,,,,0,8,8,22,,,,,,up,0.5337330718857629,1475.2880218495839,None,001,96,2019_Nov_07_1201,ACPT_experiment_5_30_19,3.1.0,59.95251331958986,
,,,C,G,g,v,L,D,d,R,c ,,,,,5,19,119,13,3,0,3,0,,,,,0,9,9,13,,,,,,up,0.5670858045323257,1477.1060802358825,None,001,96,2019_Nov_07_1201,ACPT_experiment_5_30_19,3.1.0,59.95251331958986,
,,,C,G,g,v,R,U,g,L,u,,,,,5,19,119,13,3,0,3,0,,,,,0,10,10,10,,,,,,up,0.5337566166954275,1478.9574744508627,None,001,96,2019_Nov_07_1201,ACPT_experiment_5_30_19,3.1.0,59.95251331958986,
,,,C,G,g,v,L,U,g,R,u,,,,,5,19,119,13,3,0,3,0,,,,,0,11,11,23,,,,,,up,0.5337360904504749,1480.7755533634063,None,001,96,2019_Nov_07_1201,ACPT_experiment_5_30_19,3.1.0,59.95251331958986,
,,,C,G,g,v,L,D,g,L,i,,,,,5,19,119,13,3,0,3,0,,,,,0,12,12,14,,,,,,up,0.6671919976624849,1482.5935869974692,None,001,96,2019_Nov_07_1201,ACPT_experiment_5_30_19,3.1.0,59.95251331958986,
,,,C,G,g,v,R,G,y,R,y,,,,,5,19,119,13,3,0,3,0,,,,,0,13,13,29,,,,,,down,0.5837688116989739,1484.5451070262543,None,001,96,2019_Nov_07_1201,ACPT_experiment_5_30_19,3.1.0,59.95251331958986,
,,,C,G,g,v,L,G,d,R,i,,,,,5,19,119,13,3,0,3,0,,,,,0,14,14,17,,,,,,up,0.7003310158797831,1486.430047765779,None,001,96,2019_Nov_07_1201,ACPT_experiment_5_30_19,3.1.0,59.95251331958986,
,,,C,G,g,v,L,D,y,R,y,,,,,5,19,119,13,3,0,3,0,,,,,0,15,15,33,,,,,,down,0.6338350390233245,1488.4147095294902,None,001,96,2019_Nov_07_1201,ACPT_experiment_5_30_19,3.1.0,59.95251331958986,
,,,C,G,g,v,L,G,y,R,y,,,,,5,19,119,13,3,0,3,0,,,,,0,16,16,35,,,,,,down,0.7338926332513438,1490.332870184785,None,001,96,2019_Nov_07_1201,ACPT_experiment_5_30_19,3.1.0,59.95251331958986,
,,,C,G,g,v,L,G,g,R,c ,,,,,5,19,119,13,3,0,3,0,,,,,0,17,17,19,,,,,,up,0.5837977899273028,1492.3343722229201,None,001,96,2019_Nov_07_1201,ACPT_experiment_5_30_19,3.1.0,59.95251331958986,
,,,C,G,g,v,R,D,d,L,c,,,,,5,19,119,13,3,0,3,0,,,,,0,18,18,0,,,,,,up,0.6337918735389394,1494.2025067978093,None,001,96,2019_Nov_07_1201,ACPT_experiment_5_30_19,3.1.0,59.95251331958986,
,,,C,G,g,v,R,D,g,R,i,,,,,5,19,119,13,3,0,3,0,,,,,0,19,19,3,,,,,,down,0.9674112662523839,1496.120623985762,None,001,96,2019_Nov_07_1201,ACPT_experiment_5_30_19,3.1.0,59.95251331958986,
,,,C,G,g,v,R,D,d,R,c ,,,,,5,19,119,13,3,0,3,0,,,,,0,20,20,1,,,,,,up,0.5837941676491027,1498.3556519014546,None,001,96,2019_Nov_07_1201,ACPT_experiment_5_30_19,3.1.0,59.95251331958986,
,,,C,G,g,v,R,U,y,R,u,,,,,5,19,119,13,3,0,3,0,,,,,0,21,21,31,,,,,,down,0.9006952359786737,1500.2237520646986,None,001,96,2019_Nov_07_1201,ACPT_experiment_5_30_19,3.1.0,59.95251331958986,
,,,C,G,g,v,L,U,y,R,u,,,,,5,19,119,13,3,0,3,0,,,,,0,22,22,25,,,,,,down,0.45033403444540454,1502.4087747280873,None,001,96,2019_Nov_07_1201,ACPT_experiment_5_30_19,3.1.0,59.95251331958986,
,,,C,G,g,v,R,U,d,R,u,,,,,5,19,119,13,3,0,3,0,,,,,0,23,23,9,,,,,,up,0.5837766599688621,1504.1434277379594,None,001,96,2019_Nov_07_1201,ACPT_experiment_5_30_19,3.1.0,59.95251331958986,
,,,C,G,g,v,L,D,y,L,y,,,,,5,19,119,13,3,0,3,0,,,,,0,24,24,32,,,,,,down,0.750572319996536,1506.0115260900648,None,001,96,2019_Nov_07_1201,ACPT_experiment_5_30_19,3.1.0,59.95251331958986,
,,,C,G,g,v,R,D,y,R,y,,,,,5,19,119,13,3,0,3,0,,,,,0,25,25,27,,,,,,down,0.5670957657985127,1508.046417385488,None,001,96,2019_Nov_07_1201,ACPT_experiment_5_30_19,3.1.0,59.95251331958986,
,,,C,G,g,v,R,G,d,L,i,,,,,5,19,119,13,3,0,3,0,,,,,0,26,26,4,,,,,,down,0.5170751188106806,1509.8978499362483,None,001,96,2019_Nov_07_1201,ACPT_experiment_5_30_19,3.1.0,59.95251331958986,
,,,C,G,g,v,R,G,d,R,i,,,,,5,19,119,13,3,0,3,0,,,,,0,27,27,5,,,,,,up,0.6975509171606973,1511.7188710444716,None,001,96,2019_Nov_07_1201,ACPT_experiment_5_30_19,3.1.0,59.95251331958986,
,,,C,G,g,v,L,G,y,L,y,,,,,5,19,119,13,3,0,3,0,,,,,0,28,28,34,,,,,,down,0.5670861063881603,1513.7007499927558,None,001,96,2019_Nov_07_1201,ACPT_experiment_5_30_19,3.1.0,59.95251331958986,
,,,C,G,g,v,R,G,y,L,y,,,,,5,19,119,13,3,0,3,0,,,,,0,29,29,28,,,,,,down,0.6838514600194685,1515.5521593005624,None,001,96,2019_Nov_07_1201,ACPT_experiment_5_30_19,3.1.0,59.95251331958986,
,,,C,G,g,v,L,G,g,L,c ,,,,,5,19,119,13,3,0,3,0,,,,,0,30,30,18,,,,,,up,0.7505635661573251,1517.520334263857,None,001,96,2019_Nov_07_1201,ACPT_experiment_5_30_19,3.1.0,59.95251331958986,
,,,C,G,g,v,L,U,y,L,u,,,,,5,19,119,13,3,0,3,0,,,,,0,31,31,24,,,,,,down,0.6671663398565215,1519.5552273704188,None,001,96,2019_Nov_07_1201,ACPT_experiment_5_30_19,3.1.0,59.95251331958986,
,,,C,G,g,v,R,D,y,L,y,,,,,5,19,119,13,3,0,3,0,,,,,0,32,32,26,,,,,,down,0.5337182809153092,1521.5234074652744,None,001,96,2019_Nov_07_1201,ACPT_experiment_5_30_19,3.1.0,59.95251331958986,
,,,C,G,g,v,L,D,g,R,i,,,,,5,19,119,13,3,0,3,0,,,,,0,33,33,15,,,,,,up,0.5838029214883136,1523.3581062969688,None,001,96,2019_Nov_07_1201,ACPT_experiment_5_30_19,3.1.0,59.95251331958986,
,,,C,G,g,v,R,D,g,L,i,,,,,5,19,119,13,3,0,3,0,,,,,0,34,34,2,,,,,,up,0.5504046085043228,1525.209563599965,None,001,96,2019_Nov_07_1201,ACPT_experiment_5_30_19,3.1.0,59.95251331958986,
,,,C,G,g,v,R,G,g,L,c ,,,,,5,19,119,13,3,0,3,0,,,,,0,35,35,6,,,,,,up,0.6338401705852448,1527.0442612242332,None,001,96,2019_Nov_07_1201,ACPT_experiment_5_30_19,3.1.0,59.95251331958986,
,,,C,G,g,v,L,D,y,L,y,,,,,5,19,119,13,3,0,3,0,,,,,1,0,36,32,,,,,,down,0.6171592764130764,1528.9623938068698,None,001,96,2019_Nov_07_1201,ACPT_experiment_5_30_19,3.1.0,59.95251331958986,
,,,C,G,g,v,R,U,g,L,u,,,,,5,19,119,13,3,0,3,0,,,,,1,1,37,10,,,,,,up,0.7336212642230748,1530.8808252274794,None,001,96,2019_Nov_07_1201,ACPT_experiment_5_30_19,3.1.0,59.95251331958986,
,,,C,G,g,v,R,D,y,R,y,,,,,5,19,119,13,3,0,3,0,,,,,1,2,38,27,,,,,,down,0.667166339857431,1532.898768183838,None,001,96,2019_Nov_07_1201,ACPT_experiment_5_30_19,3.1.0,59.95251331958986,
,,,C,G,g,v,L,G,d,R,i,,,,,5,19,119,13,3,0,3,0,,,,,1,3,39,17,,,,,,down,0.7338739181459459,1534.8502740253653,None,001,96,2019_Nov_07_1201,ACPT_experiment_5_30_19,3.1.0,59.95251331958986,
,,,C,G,g,v,R,D,d,L,c,,,,,5,19,119,13,3,0,3,0,,,,,1,4,40,0,,,,,,up,0.617136637173644,1536.8684684282207,None,001,96,2019_Nov_07_1201,ACPT_experiment_5_30_19,3.1.0,59.95251331958986,
,,,C,G,g,v,L,G,d,L,i,,,,,5,19,119,13,3,0,3,0,,,,,1,5,41,16,,,,,,up,0.6671509451734892,1538.7699400392175,None,001,96,2019_Nov_07_1201,ACPT_experiment_5_30_19,3.1.0,59.95251331958986,
,,,C,G,g,v,L,G,g,R,c ,,,,,5,19,119,13,3,0,3,0,,,,,1,6,42,19,,,,,,up,0.7839516160192943,1540.7047197080929,None,001,96,2019_Nov_07_1201,ACPT_experiment_5_30_19,3.1.0,59.95251331958986,
,,,C,G,g,v,R,G,d,R,i,,,,,5,19,119,13,3,0,3,0,,,,,1,7,43,5,,,,,,down,0.7505665847220371,1542.77298758283,None,001,96,2019_Nov_07_1201,ACPT_experiment_5_30_19,3.1.0,59.95251331958986,
,,,C,G,g,v,R,U,g,R,u,,,,,5,19,119,13,3,0,3,0,,,,,1,8,44,11,,,,,,up,0.6504929920984068,1544.8078782745397,None,001,96,2019_Nov_07_1201,ACPT_experiment_5_30_19,3.1.0,59.95251331958986,
,,,C,G,g,v,R,D,d,R,c ,,,,,5,19,119,13,3,0,3,0,,,,,1,9,45,1,,,,,,up,0.6338145127792814,1546.7426908457783,None,001,96,2019_Nov_07_1201,ACPT_experiment_5_30_19,3.1.0,59.95251331958986,
,,,C,G,g,v,R,G,d,L,i,,,,,5,19,119,13,3,0,3,0,,,,,1,10,46,4,,,,,,up,0.5671030103549128,1548.644142232386,None,001,96,2019_Nov_07_1201,ACPT_experiment_5_30_19,3.1.0,59.95251331958986,
,,,C,G,g,v,R,U,d,R,u,,,,,5,19,119,13,3,0,3,0,,,,,1,11,47,9,,,,,,up,0.6004560448582197,1550.4955615014587,None,001,96,2019_Nov_07_1201,ACPT_experiment_5_30_19,3.1.0,59.95251331958986,
,,,C,G,g,v,L,U,d,L,u,,,,,5,19,119,13,3,0,3,0,,,,,1,12,48,20,,,,,,up,0.7338914258252771,1552.3803504071439,None,001,96,2019_Nov_07_1201,ACPT_experiment_5_30_19,3.1.0,59.95251331958986,
,,,C,G,g,v,R,U,d,L,u,,,,,5,19,119,13,3,0,3,0,,,,,1,13,49,8,,,,,,up,0.6004807970948605,1554.3985248874678,None,001,96,2019_Nov_07_1201,ACPT_experiment_5_30_19,3.1.0,59.95251331958986,
,,,C,G,g,v,R,D,y,L,y,,,,,5,19,119,13,3,0,3,0,,,,,1,14,50,26,,,,,,down,0.6337954958171395,1556.3000194395609,None,001,96,2019_Nov_07_1201,ACPT_experiment_5_30_19,3.1.0,59.95251331958986,
,,,C,G,g,v,L,D,g,R,i,,,,,5,19,119,13,3,0,3,0,,,,,1,15,51,15,,,,,,up,0.7172066075190742,1558.2181393442224,None,001,96,2019_Nov_07_1201,ACPT_experiment_5_30_19,3.1.0,59.95251331958986,
,,,C,G,g,v,L,G,y,R,y,,,,,5,19,119,13,3,0,3,0,,,,,1,16,52,35,,,,,,down,0.6669843203644632,1560.2365009756004,None,001,96,2019_Nov_07_1201,ACPT_experiment_5_30_19,3.1.0,59.95251331958986,
,,,C,G,g,v,R,G,y,R,y,,,,,5,19,119,13,3,0,3,0,,,,,1,17,53,29,,,,,,down,0.5671174994686226,1562.2045201809206,None,001,96,2019_Nov_07_1201,ACPT_experiment_5_30_19,3.1.0,59.95251331958986,
,,,C,G,g,v,L,G,g,L,c ,,,,,5,19,119,13,3,0,3,0,,,,,1,18,54,18,,,,,,up,0.8506465163336543,1564.0559379407105,None,001,96,2019_Nov_07_1201,ACPT_experiment_5_30_19,3.1.0,59.95251331958986,
,,,C,G,g,v,R,D,g,L,i,,,,,5,19,119,13,3,0,3,0,,,,,1,19,55,2,,,,,,up,0.8339683388712729,1566.1909025269015,None,001,96,2019_Nov_07_1201,ACPT_experiment_5_30_19,3.1.0,59.95251331958986,
,,,C,G,g,v,L,D,g,L,i,,,,,5,19,119,13,3,0,3,0,,,,,1,20,56,14,,,,,,up,0.7505714144272133,1568.3091907467688,None,001,96,2019_Nov_07_1201,ACPT_experiment_5_30_19,3.1.0,59.95251331958986,
,,,C,G,g,v,L,U,d,R,u,,,,,5,19,119,13,3,0,3,0,,,,,1,21,57,21,,,,,,down,0.7005275244864606,1570.3440811366227,None,001,96,2019_Nov_07_1201,ACPT_experiment_5_30_19,3.1.0,59.95251331958986,
,,,C,G,g,v,L,D,d,L,c ,,,,,5,19,119,13,3,0,3,0,,,,,1,22,58,12,,,,,,down,0.5003999599139206,1572.3122277254024,None,001,96,2019_Nov_07_1201,ACPT_experiment_5_30_19,3.1.0,59.95251331958986,
,,,C,G,g,v,R,G,y,L,y,,,,,5,19,119,13,3,0,3,0,,,,,1,23,59,28,,,,,,down,0.6504791066972757,1574.1136411384578,None,001,96,2019_Nov_07_1201,ACPT_experiment_5_30_19,3.1.0,59.95251331958986,
,,,C,G,g,v,L,U,g,R,u,,,,,5,19,119,13,3,0,3,0,,,,,1,24,60,23,,,,,,up,0.6171278833344331,1576.0651267555977,None,001,96,2019_Nov_07_1201,ACPT_experiment_5_30_19,3.1.0,59.95251331958986,
,,,C,G,g,v,L,U,y,R,u,,,,,5,19,119,13,3,0,3,0,,,,,1,25,61,25,,,,,,down,0.6171580689879193,1577.9498797403548,None,001,96,2019_Nov_07_1201,ACPT_experiment_5_30_19,3.1.0,59.95251331958986,
,,,C,G,g,v,L,U,g,L,u,,,,,5,19,119,13,3,0,3,0,,,,,1,26,62,22,,,,,,down,0.8506709667144605,1579.8346538550704,None,001,96,2019_Nov_07_1201,ACPT_experiment_5_30_19,3.1.0,59.95251331958986,
,,,C,G,g,v,L,U,y,L,u,,,,,5,19,119,13,3,0,3,0,,,,,1,27,63,24,,,,,,down,0.5971407544966496,1581.9896402836002,None,001,96,2019_Nov_07_1201,ACPT_experiment_5_30_19,3.1.0,59.95251331958986,
,,,C,G,g,v,R,G,g,R,c ,,,,,5,19,119,13,3,0,3,0,,,,,1,28,64,7,,,,,,up,0.7172201910634612,1583.8710939763923,None,001,96,2019_Nov_07_1201,ACPT_experiment_5_30_19,3.1.0,59.95251331958986,
,,,C,G,g,v,R,U,y,R,u,,,,,5,19,119,13,3,0,3,0,,,,,1,29,65,31,,,,,,down,0.7839353157660298,1585.8726283131773,None,001,96,2019_Nov_07_1201,ACPT_experiment_5_30_19,3.1.0,59.95251331958986,
,,,C,G,g,v,R,U,y,L,u,,,,,5,19,119,13,3,0,3,0,,,,,1,30,66,30,,,,,,down,0.7172044945236848,1587.9408829062268,None,001,96,2019_Nov_07_1201,ACPT_experiment_5_30_19,3.1.0,59.95251331958986,
,,,C,G,g,v,L,D,y,R,y,,,,,5,19,119,13,3,0,3,0,,,,,1,31,67,33,,,,,,down,0.5504160790533206,1589.9424096965977,None,001,96,2019_Nov_07_1201,ACPT_experiment_5_30_19,3.1.0,59.95251331958986,
,,,C,G,g,v,R,D,g,R,i,,,,,5,19,119,13,3,0,3,0,,,,,1,32,68,3,,,,,,up,0.8006186247903315,1591.7771450529335,None,001,96,2019_Nov_07_1201,ACPT_experiment_5_30_19,3.1.0,59.95251331958986,
,,,C,G,g,v,R,G,g,L,c ,,,,,5,19,119,13,3,0,3,0,,,,,1,33,69,6,,,,,,up,0.650483936402452,1593.8620877847115,None,001,96,2019_Nov_07_1201,ACPT_experiment_5_30_19,3.1.0,59.95251331958986,
,,,C,G,g,v,L,G,y,L,y,,,,,5,19,119,13,3,0,3,0,,,,,1,34,70,34,,,,,,down,0.5670936528013044,1595.7968873761183,None,001,96,2019_Nov_07_1201,ACPT_experiment_5_30_19,3.1.0,59.95251331958986,
,,,C,G,g,v,L,D,d,R,c ,,,,,5,19,119,13,3,0,3,0,,,,,1,35,71,13,,,,,,up,0.800605343101779,1597.6483075507604,None,001,96,2019_Nov_07_1201,ACPT_experiment_5_30_19,3.1.0,59.95251331958986,
,,,C,G,g,v,,,,,,,,,,5,19,119,13,4,0,4,0,0,0,0,0,,,,,,,,,,,,,,001,96,2019_Nov_07_1201,ACPT_experiment_5_30_19,3.1.0,59.95251331958986,
,,,C,G,g,v,R,U,g,R,u,,,,,5,19,119,13,4,0,4,0,,,,,0,0,0,11,,,,,,up,0.7806046307214274,1603.5561492402876,None,001,96,2019_Nov_07_1201,ACPT_experiment_5_30_19,3.1.0,59.95251331958986,
,,,C,G,g,v,L,U,d,R,u,,,,,5,19,119,13,4,0,4,0,,,,,0,1,1,21,,,,,,up,0.6838330467708147,1605.6210858262657,None,001,96,2019_Nov_07_1201,ACPT_experiment_5_30_19,3.1.0,59.95251331958986,
,,,C,G,g,v,R,D,d,R,c ,,,,,5,19,119,13,4,0,4,0,,,,,0,2,2,1,,,,,,up,0.48371966945524036,1607.589223963062,None,001,96,2019_Nov_07_1201,ACPT_experiment_5_30_19,3.1.0,59.95251331958986,
,,,C,G,g,v,R,G,d,R,i,,,,,5,19,119,13,4,0,4,0,,,,,0,3,3,5,,,,,,up,0.5003733965386346,1609.3572668339357,None,001,96,2019_Nov_07_1201,ACPT_experiment_5_30_19,3.1.0,59.95251331958986,
,,,C,G,g,v,R,D,g,L,i,,,,,5,19,119,13,4,0,4,0,,,,,0,4,4,2,,,,,,up,0.550422116183654,1611.1419655448872,None,001,96,2019_Nov_07_1201,ACPT_experiment_5_30_19,3.1.0,59.95251331958986,
,,,C,G,g,v,R,G,y,R,y,,,,,5,19,119,13,4,0,4,0,,,,,0,5,5,29,,,,,,down,0.7005251096343272,1612.9933817953943,None,001,96,2019_Nov_07_1201,ACPT_experiment_5_30_19,3.1.0,59.95251331958986,
,,,C,G,g,v,L,G,y,L,y,,,,,5,19,119,13,4,0,4,0,,,,,0,6,6,34,,,,,,down,0.48371574531938677,1614.9949146228964,None,001,96,2019_Nov_07_1201,ACPT_experiment_5_30_19,3.1.0,59.95251331958986,
,,,C,G,g,v,R,G,g,L,c ,,,,,5,19,119,13,4,0,4,0,,,,,0,7,7,6,,,,,,up,0.5166304841295641,1616.7800120863358,None,001,96,2019_Nov_07_1201,ACPT_experiment_5_30_19,3.1.0,59.95251331958986,
,,,C,G,g,v,L,U,g,R,u,,,,,5,19,119,13,4,0,4,0,,,,,0,8,8,23,,,,,,up,0.5670957657985127,1618.5809896185501,None,001,96,2019_Nov_07_1201,ACPT_experiment_5_30_19,3.1.0,59.95251331958986,
,,,C,G,g,v,L,G,g,L,c ,,,,,5,19,119,13,4,0,4,0,,,,,0,9,9,18,,,,,,up,0.5670918416635686,1620.4324076801968,None,001,96,2019_Nov_07_1201,ACPT_experiment_5_30_19,3.1.0,59.95251331958986,
,,,C,G,g,v,L,D,d,R,c ,,,,,5,19,119,13,4,0,4,0,,,,,0,10,10,13,,,,,,down,0.6171339204638571,1622.2838230251336,None,001,96,2019_Nov_07_1201,ACPT_experiment_5_30_19,3.1.0,59.95251331958986,
,,,C,G,g,v,L,G,y,R,y,,,,,5,19,119,13,4,0,4,0,,,,,0,11,11,35,,,,,,down,1.08414884908143,1624.1852840711517,None,001,96,2019_Nov_07_1201,ACPT_experiment_5_30_19,3.1.0,59.95251331958986,
,,,C,G,g,v,R,D,y,L,y,,,,,5,19,119,13,4,0,4,0,,,,,0,12,12,26,,,,,,down,0.5504184939045444,1626.5537549142246,None,001,96,2019_Nov_07_1201,ACPT_experiment_5_30_19,3.1.0,59.95251331958986,
,,,C,G,g,v,L,U,d,L,u,,,,,5,19,119,13,4,0,4,0,,,,,0,13,13,20,,,,,,up,0.517055196279216,1628.3884926854125,None,001,96,2019_Nov_07_1201,ACPT_experiment_5_30_19,3.1.0,59.95251331958986,
,,,C,G,g,v,R,D,y,R,y,,,,,5,19,119,13,4,0,4,0,,,,,0,14,14,27,,,,,,down,0.433654951412791,1630.1898716868227,None,001,96,2019_Nov_07_1201,ACPT_experiment_5_30_19,3.1.0,59.95251331958986,
,,,C,G,g,v,L,D,y,R,y,,,,,5,19,119,13,4,0,4,0,,,,,0,15,15,33,,,,,,down,0.5336198756831436,1631.9413254279116,None,001,96,2019_Nov_07_1201,ACPT_experiment_5_30_19,3.1.0,59.95251331958986,
,,,C,G,g,v,R,U,d,L,u,,,,,5,19,119,13,4,0,4,0,,,,,0,16,16,8,,,,,,up,0.46700828777284187,1633.7759527196067,None,001,96,2019_Nov_07_1201,ACPT_experiment_5_30_19,3.1.0,59.95251331958986,
,,,C,G,g,v,R,D,g,R,i,,,,,5,19,119,13,4,0,4,0,,,,,0,17,17,3,,,,,,up,0.48025163968486595,1635.547303032572,None,001,96,2019_Nov_07_1201,ACPT_experiment_5_30_19,3.1.0,59.95251331958986,
,,,C,G,g,v,R,U,y,R,u,,,,,5,19,119,13,4,0,4,0,,,,,0,18,18,31,,,,,,down,0.6671805271143967,1637.3119955977245,None,001,96,2019_Nov_07_1201,ACPT_experiment_5_30_19,3.1.0,59.95251331958986,
,,,C,G,g,v,L,G,g,R,c ,,,,,5,19,119,13,4,0,4,0,,,,,0,19,19,19,,,,,,up,0.6838870790916189,1639.2634791018681,None,001,96,2019_Nov_07_1201,ACPT_experiment_5_30_19,3.1.0,59.95251331958986,
,,,C,G,g,v,L,D,y,L,y,,,,,5,19,119,13,4,0,4,0,,,,,0,20,20,32,,,,,,down,0.5838660095050727,1641.2317077956259,None,001,96,2019_Nov_07_1201,ACPT_experiment_5_30_19,3.1.0,59.95251331958986,
,,,C,G,g,v,L,D,g,R,i,,,,,5,19,119,13,4,0,4,0,,,,,0,21,21,15,,,,,,up,0.5837715284087608,1643.0997518135546,None,001,96,2019_Nov_07_1201,ACPT_experiment_5_30_19,3.1.0,59.95251331958986,
,,,C,G,g,v,L,G,d,R,i,,,,,5,19,119,13,4,0,4,0,,,,,0,22,22,17,,,,,,up,0.6171324111819558,1644.9678453359547,None,001,96,2019_Nov_07_1201,ACPT_experiment_5_30_19,3.1.0,59.95251331958986,
,,,C,G,g,v,R,G,g,R,c ,,,,,5,19,119,13,4,0,4,0,,,,,0,23,23,7,,,,,,up,0.5170633464058483,1646.8692734796086,None,001,96,2019_Nov_07_1201,ACPT_experiment_5_30_19,3.1.0,59.95251331958986,
,,,C,G,g,v,R,G,y,L,y,,,,,5,19,119,13,4,0,4,0,,,,,0,24,24,28,,,,,,down,0.600048840387899,1648.7044036642974,None,001,96,2019_Nov_07_1201,ACPT_experiment_5_30_19,3.1.0,59.95251331958986,
,,,C,G,g,v,L,D,d,L,c ,,,,,5,19,119,13,4,0,4,0,,,,,0,25,25,12,,,,,,up,0.5670876156718805,1650.6054955397676,None,001,96,2019_Nov_07_1201,ACPT_experiment_5_30_19,3.1.0,59.95251331958986,
,,,C,G,g,v,L,U,g,L,u,,,,,5,19,119,13,4,0,4,0,,,,,0,26,26,22,,,,,,down,0.8006125876590886,1652.4569069605704,None,001,96,2019_Nov_07_1201,ACPT_experiment_5_30_19,3.1.0,59.95251331958986,
,,,C,G,g,v,L,U,y,L,u,,,,,5,19,119,13,4,0,4,0,,,,,0,27,27,24,,,,,,down,0.6171360334601559,1654.5418358069473,None,001,96,2019_Nov_07_1201,ACPT_experiment_5_30_19,3.1.0,59.95251331958986,
,,,C,G,g,v,L,D,g,L,i,,,,,5,19,119,13,4,0,4,0,,,,,0,28,28,14,,,,,,down,0.7005196762165724,1656.4432953436817,None,001,96,2019_Nov_07_1201,ACPT_experiment_5_30_19,3.1.0,59.95251331958986,
,,,C,G,g,v,R,U,g,L,u,,,,,5,19,119,13,4,0,4,0,,,,,0,29,29,10,,,,,,up,0.8006207377857208,1658.4281466732991,None,001,96,2019_Nov_07_1201,ACPT_experiment_5_30_19,3.1.0,59.95251331958986,
,,,C,G,g,v,R,D,d,L,c,,,,,5,19,119,13,4,0,4,0,,,,,0,30,30,0,,,,,,up,0.6004497058711422,1660.5130740103932,None,001,96,2019_Nov_07_1201,ACPT_experiment_5_30_19,3.1.0,59.95251331958986,
,,,C,G,g,v,R,U,y,L,u,,,,,5,19,119,13,4,0,4,0,,,,,0,31,31,30,,,,,,down,0.6503686272044433,1662.3979447192014,None,001,96,2019_Nov_07_1201,ACPT_experiment_5_30_19,3.1.0,59.95251331958986,
,,,C,G,g,v,L,G,d,L,i,,,,,5,19,119,13,4,0,4,0,,,,,0,32,32,16,,,,,,down,0.583772735833918,1664.3326670353345,None,001,96,2019_Nov_07_1201,ACPT_experiment_5_30_19,3.1.0,59.95251331958986,
,,,C,G,g,v,R,G,d,L,i,,,,,5,19,119,13,4,0,4,0,,,,,0,33,33,4,,,,,,up,0.7672511011724055,1666.200752407608,None,001,96,2019_Nov_07_1201,ACPT_experiment_5_30_19,3.1.0,59.95251331958986,
,,,C,G,g,v,R,U,d,R,u,,,,,5,19,119,13,4,0,4,0,,,,,0,34,34,9,,,,,,up,0.567084597106259,1668.2690124340743,None,001,96,2019_Nov_07_1201,ACPT_experiment_5_30_19,3.1.0,59.95251331958986,
,,,C,G,g,v,L,U,y,R,u,,,,,5,19,119,13,4,0,4,0,,,,,0,35,35,25,,,,,,down,0.6171312037558891,1670.1204247604464,None,001,96,2019_Nov_07_1201,ACPT_experiment_5_30_19,3.1.0,59.95251331958986,
,,,C,G,g,v,L,G,g,L,c ,,,,,5,19,119,13,4,0,4,0,,,,,1,0,36,18,,,,,,up,0.5671171976118785,1672.0218764489118,None,001,96,2019_Nov_07_1201,ACPT_experiment_5_30_19,3.1.0,59.95251331958986,
,,,C,G,g,v,L,G,y,R,y,,,,,5,19,119,13,4,0,4,0,,,,,1,1,37,35,,,,,,down,0.5670981806497366,1673.8732948124143,None,001,96,2019_Nov_07_1201,ACPT_experiment_5_30_19,3.1.0,59.95251331958986,
,,,C,G,g,v,L,U,d,L,u,,,,,5,19,119,13,4,0,4,0,,,,,1,2,38,20,,,,,,up,0.5170557999917946,1675.724712874061,None,001,96,2019_Nov_07_1201,ACPT_experiment_5_30_19,3.1.0,59.95251331958986,
,,,C,G,g,v,L,U,g,L,u,,,,,5,19,119,13,4,0,4,0,,,,,1,3,39,22,,,,,,up,0.5170570074178613,1677.5260912717577,None,001,96,2019_Nov_07_1201,ACPT_experiment_5_30_19,3.1.0,59.95251331958986,
,,,C,G,g,v,R,D,y,L,y,,,,,5,19,119,13,4,0,4,0,,,,,1,4,40,26,,,,,,down,0.5504118530607229,1679.3274708768813,None,001,96,2019_Nov_07_1201,ACPT_experiment_5_30_19,3.1.0,59.95251331958986,
,,,C,G,g,v,R,D,d,L,c,,,,,5,19,119,13,4,0,4,0,,,,,1,5,41,0,,,,,,up,0.6805186619785673,1681.1822205291428,None,001,96,2019_Nov_07_1201,ACPT_experiment_5_30_19,3.1.0,59.95251331958986,
,,,C,G,g,v,L,D,y,L,y,,,,,5,19,119,13,4,0,4,0,,,,,1,6,42,32,,,,,,down,0.6671687547086549,1683.1470560535518,None,001,96,2019_Nov_07_1201,ACPT_experiment_5_30_19,3.1.0,59.95251331958986,
,,,C,G,g,v,L,U,d,R,u,,,,,5,19,119,13,4,0,4,0,,,,,1,7,43,21,,,,,,up,0.8004960710350133,1685.0986316239396,None,001,96,2019_Nov_07_1201,ACPT_experiment_5_30_19,3.1.0,59.95251331958986,
,,,C,G,g,v,L,D,d,L,c ,,,,,5,19,119,13,4,0,4,0,,,,,1,8,44,12,,,,,,down,0.7672438566160054,1687.1834804783339,None,001,96,2019_Nov_07_1201,ACPT_experiment_5_30_19,3.1.0,59.95251331958986,
,,,C,G,g,v,L,G,d,L,i,,,,,5,19,119,13,4,0,4,0,,,,,1,9,45,16,,,,,,down,0.4336839296402104,1689.2183409843901,None,001,96,2019_Nov_07_1201,ACPT_experiment_5_30_19,3.1.0,59.95251331958986,
,,,C,G,g,v,R,G,g,L,c ,,,,,5,19,119,13,4,0,4,0,,,,,1,10,46,6,,,,,,down,0.7505852998283444,1690.936332418909,None,001,96,2019_Nov_07_1201,ACPT_experiment_5_30_19,3.1.0,59.95251331958986,
,,,C,G,g,v,R,U,d,L,u,,,,,5,19,119,13,4,0,4,0,,,,,1,11,47,8,,,,,,up,0.6004497058702327,1692.9712397127296,None,001,96,2019_Nov_07_1201,ACPT_experiment_5_30_19,3.1.0,59.95251331958986,
,,,C,G,g,v,R,D,g,R,i,,,,,5,19,119,13,4,0,4,0,,,,,1,12,48,3,,,,,,up,0.8673313346407667,1694.8560135255875,None,001,96,2019_Nov_07_1201,ACPT_experiment_5_30_19,3.1.0,59.95251331958986,
,,,C,G,g,v,L,G,d,R,i,,,,,5,19,119,13,4,0,4,0,,,,,1,13,49,17,,,,,,up,0.6171339204638571,1697.0076620245154,None,001,96,2019_Nov_07_1201,ACPT_experiment_5_30_19,3.1.0,59.95251331958986,
,,,C,G,g,v,R,U,g,R,u,,,,,5,19,119,13,4,0,4,0,,,,,1,14,50,11,,,,,,up,0.6338543578422104,1698.9091034498579,None,001,96,2019_Nov_07_1201,ACPT_experiment_5_30_19,3.1.0,59.95251331958986,
,,,C,G,g,v,R,G,d,R,i,,,,,5,19,119,13,4,0,4,0,,,,,1,15,51,5,,,,,,up,0.5670984825073901,1700.827248106756,None,001,96,2019_Nov_07_1201,ACPT_experiment_5_30_19,3.1.0,59.95251331958986,
,,,C,G,g,v,L,G,y,L,y,,,,,5,19,119,13,4,0,4,0,,,,,1,16,52,34,,,,,,down,0.5670948602282806,1702.6786664702586,None,001,96,2019_Nov_07_1201,ACPT_experiment_5_30_19,3.1.0,59.95251331958986,
,,,C,G,g,v,L,U,y,L,u,,,,,5,19,119,13,4,0,4,0,,,,,1,17,53,24,,,,,,down,0.6671723769868549,1704.5300857393313,None,001,96,2019_Nov_07_1201,ACPT_experiment_5_30_19,3.1.0,59.95251331958986,
,,,C,G,g,v,R,G,g,R,c ,,,,,5,19,119,13,4,0,4,0,,,,,1,18,54,7,,,,,,up,0.6167532793697319,1706.4986090450711,None,001,96,2019_Nov_07_1201,ACPT_experiment_5_30_19,3.1.0,59.95251331958986,
,,,C,G,g,v,R,D,y,R,y,,,,,5,19,119,13,4,0,4,0,,,,,1,19,55,27,,,,,,down,0.6838632324252103,1708.3997145040858,None,001,96,2019_Nov_07_1201,ACPT_experiment_5_30_19,3.1.0,59.95251331958986,
,,,C,G,g,v,R,U,d,R,u,,,,,5,19,119,13,4,0,4,0,,,,,1,20,56,9,,,,,,up,0.9674064365472077,1710.3678831283933,None,001,96,2019_Nov_07_1201,ACPT_experiment_5_30_19,3.1.0,59.95251331958986,
,,,C,G,g,v,R,G,y,R,y,,,,,5,19,119,13,4,0,4,0,,,,,1,21,57,29,,,,,,down,0.66718294196653,1712.636287321542,None,001,96,2019_Nov_07_1201,ACPT_experiment_5_30_19,3.1.0,59.95251331958986,
,,,C,G,g,v,L,D,g,L,i,,,,,5,19,119,13,4,0,4,0,,,,,1,22,58,14,,,,,,down,0.8506428940554542,1714.604460775554,None,001,96,2019_Nov_07_1201,ACPT_experiment_5_30_19,3.1.0,59.95251331958986,
,,,C,G,g,v,L,U,y,R,u,,,,,5,19,119,13,4,0,4,0,,,,,1,23,59,25,,,,,,down,0.867320165948513,1716.7394250598882,None,001,96,2019_Nov_07_1201,ACPT_experiment_5_30_19,3.1.0,59.95251331958986,
,,,C,G,g,v,R,G,d,L,i,,,,,5,19,119,13,4,0,4,0,,,,,1,24,60,4,,,,,,up,0.7672574401594829,1718.8910717476774,None,001,96,2019_Nov_07_1201,ACPT_experiment_5_30_19,3.1.0,59.95251331958986,
,,,C,G,g,v,L,G,g,R,c ,,,,,5,19,119,13,4,0,4,0,,,,,1,25,61,19,,,,,,down,0.733923724475062,1720.9426222036009,None,001,96,2019_Nov_07_1201,ACPT_experiment_5_30_19,3.1.0,59.95251331958986,
,,,C,G,g,v,L,U,g,R,u,,,,,5,19,119,13,4,0,4,0,,,,,1,26,62,23,,,,,,up,0.8506468181903983,1722.9608543385239,None,001,96,2019_Nov_07_1201,ACPT_experiment_5_30_19,3.1.0,59.95251331958986,
,,,C,G,g,v,L,D,d,R,c ,,,,,5,19,119,13,4,0,4,0,,,,,1,27,63,13,,,,,,up,0.6338012310916383,1725.0958322064025,None,001,96,2019_Nov_07_1201,ACPT_experiment_5_30_19,3.1.0,59.95251331958986,
,,,C,G,g,v,R,U,y,R,u,,,,,5,19,119,13,4,0,4,0,,,,,1,28,64,31,,,,,,down,0.6004542337186649,1727.0139563370558,None,001,96,2019_Nov_07_1201,ACPT_experiment_5_30_19,3.1.0,59.95251331958986,
,,,C,G,g,v,R,U,g,L,u,,,,,5,19,119,13,4,0,4,0,,,,,1,29,65,10,,,,,,up,0.6338139090657933,1728.8987337721928,None,001,96,2019_Nov_07_1201,ACPT_experiment_5_30_19,3.1.0,59.95251331958986,
,,,C,G,g,v,R,G,y,L,y,,,,,5,19,119,13,4,0,4,0,,,,,1,30,66,28,,,,,,down,0.6171251666246462,1730.816866958542,None,001,96,2019_Nov_07_1201,ACPT_experiment_5_30_19,3.1.0,59.95251331958986,
,,,C,G,g,v,R,D,d,R,c ,,,,,5,19,119,13,4,0,4,0,,,,,1,31,67,1,,,,,,up,0.7472395219556347,1732.7383284150847,None,001,96,2019_Nov_07_1201,ACPT_experiment_5_30_19,3.1.0,59.95251331958986,
,,,C,G,g,v,L,D,g,R,i,,,,,5,19,119,13,4,0,4,0,,,,,1,32,68,15,,,,,,up,0.5337394108728404,1734.769889629175,None,001,96,2019_Nov_07_1201,ACPT_experiment_5_30_19,3.1.0,59.95251331958986,
,,,C,G,g,v,R,U,y,L,u,,,,,5,19,119,13,4,0,4,0,,,,,1,33,69,30,,,,,,down,0.5670918416635686,1736.587944695052,None,001,96,2019_Nov_07_1201,ACPT_experiment_5_30_19,3.1.0,59.95251331958986,
,,,C,G,g,v,R,D,g,L,i,,,,,5,19,119,13,4,0,4,0,,,,,1,34,70,2,,,,,,up,1.00076279147288,1738.439361247416,None,001,96,2019_Nov_07_1201,ACPT_experiment_5_30_19,3.1.0,59.95251331958986,
,,,C,G,g,v,L,D,y,R,y,,,,,5,19,119,13,4,0,4,0,,,,,1,35,71,33,,,,,,down,0.8172071508606678,1740.7244170546528,None,001,96,2019_Nov_07_1201,ACPT_experiment_5_30_19,3.1.0,59.95251331958986,
,,,C,G,g,v,,,,,,,,,,5,19,119,13,5,0,5,0,0,0,0,0,,,,,,,,,,,,,,001,96,2019_Nov_07_1201,ACPT_experiment_5_30_19,3.1.0,59.95251331958986,
,,,C,G,g,v,R,D,y,R,y,,,,,5,19,119,13,5,0,5,0,,,,,0,0,0,27,,,,,,down,0.6338238703319803,1744.1937707677298,None,001,96,2019_Nov_07_1201,ACPT_experiment_5_30_19,3.1.0,59.95251331958986,
,,,C,G,g,v,R,D,g,R,i,,,,,5,19,119,13,5,0,5,0,,,,,0,1,1,3,,,,,,down,0.6471789091629034,1746.1319104017348,None,001,96,2019_Nov_07_1201,ACPT_experiment_5_30_19,3.1.0,59.95251331958986,
,,,C,G,g,v,L,U,g,L,u,,,,,5,19,119,13,5,0,5,0,,,,,0,2,2,22,,,,,,up,0.6338338315981673,1748.0633913823585,None,001,96,2019_Nov_07_1201,ACPT_experiment_5_30_19,3.1.0,59.95251331958986,
,,,C,G,g,v,L,U,y,L,u,,,,,5,19,119,13,5,0,5,0,,,,,0,3,3,24,,,,,,down,0.5503952509516239,1749.9815505283696,None,001,96,2019_Nov_07_1201,ACPT_experiment_5_30_19,3.1.0,59.95251331958986,
,,,C,G,g,v,L,G,y,L,y,,,,,5,19,119,13,5,0,5,0,,,,,0,4,4,34,,,,,,down,0.48369280422321026,1751.8162695844521,None,001,96,2019_Nov_07_1201,ACPT_experiment_5_30_19,3.1.0,59.95251331958986,
,,,C,G,g,v,R,U,g,R,u,,,,,5,19,119,13,5,0,5,0,,,,,0,5,5,11,,,,,,up,0.6171357316034118,1753.5842976643553,None,001,96,2019_Nov_07_1201,ACPT_experiment_5_30_19,3.1.0,59.95251331958986,
,,,C,G,g,v,L,D,g,R,i,,,,,5,19,119,13,5,0,5,0,,,,,0,6,6,15,,,,,,up,0.5838587649477631,1755.4857351655628,None,001,96,2019_Nov_07_1201,ACPT_experiment_5_30_19,3.1.0,59.95251331958986,
,,,C,G,g,v,L,D,y,R,y,,,,,5,19,119,13,5,0,5,0,,,,,0,7,7,33,,,,,,down,0.5837682079863953,1757.3538356306626,None,001,96,2019_Nov_07_1201,ACPT_experiment_5_30_19,3.1.0,59.95251331958986,
,,,C,G,g,v,R,U,d,L,u,,,,,5,19,119,13,5,0,5,0,,,,,0,8,8,8,,,,,,down,0.6835849206963758,1759.2388796051237,None,001,96,2019_Nov_07_1201,ACPT_experiment_5_30_19,3.1.0,59.95251331958986,
,,,C,G,g,v,R,D,d,L,c,,,,,5,19,119,13,5,0,5,0,,,,,0,9,9,0,,,,,,up,0.633812399783892,1761.2067813882504,None,001,96,2019_Nov_07_1201,ACPT_experiment_5_30_19,3.1.0,59.95251331958986,
,,,C,G,g,v,R,D,g,L,i,,,,,5,19,119,13,5,0,5,0,,,,,0,10,10,2,,,,,,up,0.6505101979219035,1763.108216172749,None,001,96,2019_Nov_07_1201,ACPT_experiment_5_30_19,3.1.0,59.95251331958986,
,,,C,G,g,v,L,D,d,L,c ,,,,,5,19,119,13,5,0,5,0,,,,,0,11,11,12,,,,,,down,0.6004539318619209,1765.04305379808,None,001,96,2019_Nov_07_1201,ACPT_experiment_5_30_19,3.1.0,59.95251331958986,
,,,C,G,g,v,L,U,y,R,u,,,,,5,19,119,13,5,0,5,0,,,,,0,12,12,25,,,,,,down,0.7672725329866807,1766.927801953133,None,001,96,2019_Nov_07_1201,ACPT_experiment_5_30_19,3.1.0,59.95251331958986,
,,,C,G,g,v,R,G,d,R,i,,,,,5,19,119,13,5,0,5,0,,,,,0,13,13,5,,,,,,up,0.7005024703930758,1768.9794212323477,None,001,96,2019_Nov_07_1201,ACPT_experiment_5_30_19,3.1.0,59.95251331958986,
,,,C,G,g,v,L,G,g,L,c ,,,,,5,19,119,13,5,0,5,0,,,,,0,14,14,18,,,,,,up,0.567084295249515,1770.964253545003,None,001,96,2019_Nov_07_1201,ACPT_experiment_5_30_19,3.1.0,59.95251331958986,
,,,C,G,g,v,R,G,y,L,y,,,,,5,19,119,13,5,0,5,0,,,,,0,15,15,28,,,,,,down,0.7338859924075223,1772.8323488785427,None,001,96,2019_Nov_07_1201,ACPT_experiment_5_30_19,3.1.0,59.95251331958986,
,,,C,G,g,v,R,U,g,L,u,,,,,5,19,119,13,5,0,5,0,,,,,0,16,16,10,,,,,,up,0.6004497058711422,1774.8672359479742,None,001,96,2019_Nov_07_1201,ACPT_experiment_5_30_19,3.1.0,59.95251331958986,
,,,C,G,g,v,L,U,d,L,u,,,,,5,19,119,13,5,0,5,0,,,,,0,17,17,20,,,,,,up,0.6338332278855887,1776.751988027162,None,001,96,2019_Nov_07_1201,ACPT_experiment_5_30_19,3.1.0,59.95251331958986,
,,,C,G,g,v,L,U,g,R,u,,,,,5,19,119,13,5,0,5,0,,,,,0,18,18,23,,,,,,down,1.0007812047215339,1778.6534469601838,None,001,96,2019_Nov_07_1201,ACPT_experiment_5_30_19,3.1.0,59.95251331958986,
,,,C,G,g,v,R,G,d,L,i,,,,,5,19,119,13,5,0,5,0,,,,,0,19,19,4,,,,,,down,0.767248384463528,1780.938551064467,None,001,96,2019_Nov_07_1201,ACPT_experiment_5_30_19,3.1.0,59.95251331958986,
,,,C,G,g,v,R,D,d,R,c ,,,,,5,19,119,13,5,0,5,0,,,,,0,20,20,1,,,,,,up,0.850622065954667,1782.9901347246105,None,001,96,2019_Nov_07_1201,ACPT_experiment_5_30_19,3.1.0,59.95251331958986,
,,,C,G,g,v,L,D,d,R,c ,,,,,5,19,119,13,5,0,5,0,,,,,0,21,21,13,,,,,,up,0.5337273366103545,1785.1250869346832,None,001,96,2019_Nov_07_1201,ACPT_experiment_5_30_19,3.1.0,59.95251331958986,
,,,C,G,g,v,L,G,d,R,i,,,,,5,19,119,13,5,0,5,0,,,,,0,22,22,17,,,,,,up,0.6338066645093932,1786.9431416987036,None,001,96,2019_Nov_07_1201,ACPT_experiment_5_30_19,3.1.0,59.95251331958986,
,,,C,G,g,v,L,D,g,L,i,,,,,5,19,119,13,5,0,5,0,,,,,0,23,23,14,,,,,,up,0.8339426810653094,1788.8612760924789,None,001,96,2019_Nov_07_1201,ACPT_experiment_5_30_19,3.1.0,59.95251331958986,
,,,C,G,g,v,R,G,g,R,c ,,,,,5,19,119,13,5,0,5,0,,,,,0,24,24,7,,,,,,up,0.6338211536231029,1790.9795576715032,None,001,96,2019_Nov_07_1201,ACPT_experiment_5_30_19,3.1.0,59.95251331958986,
,,,C,G,g,v,R,G,y,R,y,,,,,5,19,119,13,5,0,5,0,,,,,0,25,25,29,,,,,,down,0.8006083616674005,1792.881017811951,None,001,96,2019_Nov_07_1201,ACPT_experiment_5_30_19,3.1.0,59.95251331958986,
,,,C,G,g,v,L,G,y,R,y,,,,,5,19,119,13,5,0,5,0,,,,,0,26,26,35,,,,,,down,0.7005329579042154,1794.9659457527578,None,001,96,2019_Nov_07_1201,ACPT_experiment_5_30_19,3.1.0,59.95251331958986,
,,,C,G,g,v,L,D,y,L,y,,,,,5,19,119,13,5,0,5,0,,,,,0,27,27,32,,,,,,down,0.4837244991595071,1796.9507711227134,None,001,96,2019_Nov_07_1201,ACPT_experiment_5_30_19,3.1.0,59.95251331958986,
,,,C,G,g,v,R,U,d,R,u,,,,,5,19,119,13,5,0,5,0,,,,,0,28,28,9,,,,,,up,0.43366189411335654,1798.7188200307173,None,001,96,2019_Nov_07_1201,ACPT_experiment_5_30_19,3.1.0,59.95251331958986,
,,,C,G,g,v,R,G,g,L,c ,,,,,5,19,119,13,5,0,5,0,,,,,0,29,29,6,,,,,,down,0.5671500999751515,1800.4367779591603,None,001,96,2019_Nov_07_1201,ACPT_experiment_5_30_19,3.1.0,59.95251331958986,
,,,C,G,g,v,L,G,g,R,c ,,,,,5,19,119,13,5,0,5,0,,,,,0,30,30,19,,,,,,up,0.7002389496356045,1802.3051863179298,None,001,96,2019_Nov_07_1201,ACPT_experiment_5_30_19,3.1.0,59.95251331958986,
,,,C,G,g,v,R,D,y,L,y,,,,,5,19,119,13,5,0,5,0,,,,,0,31,31,26,,,,,,down,0.6004478947315874,1804.2897478652703,None,001,96,2019_Nov_07_1201,ACPT_experiment_5_30_19,3.1.0,59.95251331958986,
,,,C,G,g,v,R,U,y,L,u,,,,,5,19,119,13,5,0,5,0,,,,,0,32,32,30,,,,,,down,0.6504836345466174,1806.191203176014,None,001,96,2019_Nov_07_1201,ACPT_experiment_5_30_19,3.1.0,59.95251331958986,
,,,C,G,g,v,L,U,d,R,u,,,,,5,19,119,13,5,0,5,0,,,,,0,33,33,21,,,,,,up,0.6338154183495135,1808.1426915098627,None,001,96,2019_Nov_07_1201,ACPT_experiment_5_30_19,3.1.0,59.95251331958986,
,,,C,G,g,v,R,U,y,R,u,,,,,5,19,119,13,5,0,5,0,,,,,0,34,34,31,,,,,,down,0.6671865642447301,1810.0608331481944,None,001,96,2019_Nov_07_1201,ACPT_experiment_5_30_19,3.1.0,59.95251331958986,
,,,C,G,g,v,L,G,d,L,i,,,,,5,19,119,13,5,0,5,0,,,,,0,35,35,16,,,,,,up,0.6671723769877644,1812.012320576474,None,001,96,2019_Nov_07_1201,ACPT_experiment_5_30_19,3.1.0,59.95251331958986,
,,,C,G,g,v,L,D,y,R,y,,,,,5,19,119,13,5,0,5,0,,,,,1,0,36,33,,,,,,down,0.5670990862199687,1813.963809815892,None,001,96,2019_Nov_07_1201,ACPT_experiment_5_30_19,3.1.0,59.95251331958986,
,,,C,G,g,v,R,G,d,R,i,,,,,5,19,119,13,5,0,5,0,,,,,1,1,37,5,,,,,,down,0.567097878793902,1815.8152284812513,None,001,96,2019_Nov_07_1201,ACPT_experiment_5_30_19,3.1.0,59.95251331958986,
,,,C,G,g,v,L,G,d,R,i,,,,,5,19,119,13,5,0,5,0,,,,,1,2,38,17,,,,,,up,0.5671244421691881,1817.666651674459,None,001,96,2019_Nov_07_1201,ACPT_experiment_5_30_19,3.1.0,59.95251331958986,
,,,C,G,g,v,R,D,y,L,y,,,,,5,19,119,13,5,0,5,0,,,,,1,3,39,26,,,,,,down,0.75042531586314,1819.5515613227599,None,001,96,2019_Nov_07_1201,ACPT_experiment_5_30_19,3.1.0,59.95251331958986,
,,,C,G,g,v,R,D,g,R,i,,,,,5,19,119,13,5,0,5,0,,,,,1,4,40,3,,,,,,up,0.6303627832621714,1821.623117018913,None,001,96,2019_Nov_07_1201,ACPT_experiment_5_30_19,3.1.0,59.95251331958986,
,,,C,G,g,v,R,G,d,L,i,,,,,5,19,119,13,5,0,5,0,,,,,1,5,41,4,,,,,,down,0.7672486863202721,1823.5378054184457,None,001,96,2019_Nov_07_1201,ACPT_experiment_5_30_19,3.1.0,59.95251331958986,
,,,C,G,g,v,R,D,y,R,y,,,,,5,19,119,13,5,0,5,0,,,,,1,6,42,27,,,,,,down,0.7172262281947042,1825.5893604022176,None,001,96,2019_Nov_07_1201,ACPT_experiment_5_30_19,3.1.0,59.95251331958986,
,,,C,G,g,v,R,G,g,L,c ,,,,,5,19,119,13,5,0,5,0,,,,,1,7,43,6,,,,,,up,0.6338353408800685,1827.590886588876,None,001,96,2019_Nov_07_1201,ACPT_experiment_5_30_19,3.1.0,59.95251331958986,
,,,C,G,g,v,L,G,y,R,y,,,,,5,19,119,13,5,0,5,0,,,,,1,8,44,35,,,,,,down,0.7005365801824155,1829.5090387921873,None,001,96,2019_Nov_07_1201,ACPT_experiment_5_30_19,3.1.0,59.95251331958986,
,,,C,G,g,v,L,U,d,R,u,,,,,5,19,119,13,5,0,5,0,,,,,1,9,45,21,,,,,,up,0.7505720181407014,1831.4938958570792,None,001,96,2019_Nov_07_1201,ACPT_experiment_5_30_19,3.1.0,59.95251331958986,
,,,C,G,g,v,R,D,d,L,c,,,,,5,19,119,13,5,0,5,0,,,,,1,10,46,0,,,,,,up,0.6337894586858965,1833.528801641617,None,001,96,2019_Nov_07_1201,ACPT_experiment_5_30_19,3.1.0,59.95251331958986,
,,,C,G,g,v,R,D,d,R,c ,,,,,5,19,119,13,5,0,5,0,,,,,1,11,47,1,,,,,,up,0.6171287889037558,1835.446922451848,None,001,96,2019_Nov_07_1201,ACPT_experiment_5_30_19,3.1.0,59.95251331958986,
,,,C,G,g,v,R,U,y,R,u,,,,,5,19,119,13,5,0,5,0,,,,,1,12,48,31,,,,,,down,0.6338127016397266,1837.3483738384557,None,001,96,2019_Nov_07_1201,ACPT_experiment_5_30_19,3.1.0,59.95251331958986,
,,,C,G,g,v,L,G,y,L,y,,,,,5,19,119,13,5,0,5,0,,,,,1,13,49,34,,,,,,down,0.6171544467088097,1839.2665052136663,None,001,96,2019_Nov_07_1201,ACPT_experiment_5_30_19,3.1.0,59.95251331958986,
,,,C,G,g,v,L,D,d,R,c ,,,,,5,19,119,13,5,0,5,0,,,,,1,14,50,13,,,,,,up,0.4834274723261842,1841.1849161080308,None,001,96,2019_Nov_07_1201,ACPT_experiment_5_30_19,3.1.0,59.95251331958986,
,,,C,G,g,v,R,U,d,L,u,,,,,5,19,119,13,5,0,5,0,,,,,1,15,51,8,,,,,,up,0.6504830308331293,1842.9526664799178,None,001,96,2019_Nov_07_1201,ACPT_experiment_5_30_19,3.1.0,59.95251331958986,
,,,C,G,g,v,L,U,y,L,u,,,,,5,19,119,13,5,0,5,0,,,,,1,16,52,24,,,,,,down,0.5837962806444921,1844.8874530914936,None,001,96,2019_Nov_07_1201,ACPT_experiment_5_30_19,3.1.0,59.95251331958986,
,,,C,G,g,v,L,D,g,L,i,,,,,5,19,119,13,5,0,5,0,,,,,1,17,53,14,,,,,,up,0.7172416228777365,1846.7555469157505,None,001,96,2019_Nov_07_1201,ACPT_experiment_5_30_19,3.1.0,59.95251331958986,
,,,C,G,g,v,R,D,g,L,i,,,,,5,19,119,13,5,0,5,0,,,,,1,18,54,2,,,,,,down,0.8339994300949911,1848.757102382493,None,001,96,2019_Nov_07_1201,ACPT_experiment_5_30_19,3.1.0,59.95251331958986,
,,,C,G,g,v,L,U,g,R,u,,,,,5,19,119,13,5,0,5,0,,,,,1,19,55,23,,,,,,up,0.7339116502134857,1850.8753899986477,None,001,96,2019_Nov_07_1201,ACPT_experiment_5_30_19,3.1.0,59.95251331958986,
,,,C,G,g,v,R,U,g,R,u,,,,,5,19,119,13,5,0,5,0,,,,,1,20,56,11,,,,,,up,0.6671735844129216,1852.8935988906169,None,001,96,2019_Nov_07_1201,ACPT_experiment_5_30_19,3.1.0,59.95251331958986,
,,,C,G,g,v,L,D,g,R,i,,,,,5,19,119,13,5,0,5,0,,,,,1,21,57,15,,,,,,up,0.6338365483061352,1854.8450941671663,None,001,96,2019_Nov_07_1201,ACPT_experiment_5_30_19,3.1.0,59.95251331958986,
,,,C,G,g,v,R,U,g,L,u,,,,,5,19,119,13,5,0,5,0,,,,,1,22,58,10,,,,,,down,1.0007543394895038,1856.7632315795063,None,001,96,2019_Nov_07_1201,ACPT_experiment_5_30_19,3.1.0,59.95251331958986,
,,,C,G,g,v,L,U,y,R,u,,,,,5,19,119,13,5,0,5,0,,,,,1,23,59,25,,,,,,down,0.783939541757718,1859.0482970461526,None,001,96,2019_Nov_07_1201,ACPT_experiment_5_30_19,3.1.0,59.95251331958986,
,,,C,G,g,v,R,G,y,R,y,,,,,5,19,119,13,5,0,5,0,,,,,1,24,60,29,,,,,,down,0.6171345241782547,1861.1165585819026,None,001,96,2019_Nov_07_1201,ACPT_experiment_5_30_19,3.1.0,59.95251331958986,
,,,C,G,g,v,L,D,d,L,c ,,,,,5,19,119,13,5,0,5,0,,,,,1,25,61,12,,,,,,up,0.5337608426871157,1863.0179900459789,None,001,96,2019_Nov_07_1201,ACPT_experiment_5_30_19,3.1.0,59.95251331958986,
,,,C,G,g,v,L,U,d,L,u,,,,,5,19,119,13,5,0,5,0,,,,,1,26,62,20,,,,,,up,0.5670885212412031,1864.8527528712593,None,001,96,2019_Nov_07_1201,ACPT_experiment_5_30_19,3.1.0,59.95251331958986,
,,,C,G,g,v,L,G,g,L,c ,,,,,5,19,119,13,5,0,5,0,,,,,1,27,63,18,,,,,,up,0.6338205499096148,1866.7041624809226,None,001,96,2019_Nov_07_1201,ACPT_experiment_5_30_19,3.1.0,59.95251331958986,
