facing_vig,person_vig,text_vig,facing_train,person_train,food_train,correct_key_train,facing_exp,person_exp,food_exp,showL_R,consistent,vig_random.thisRepN,vig_random.thisTrialN,vig_random.thisN,vig_random.thisIndex,trainTrials.thisRepN,trainTrials.thisTrialN,trainTrials.thisN,trainTrials.thisIndex,expBlock.thisRepN,expBlock.thisTrialN,expBlock.thisN,expBlock.thisIndex,breakLoop.thisRepN,breakLoop.thisTrialN,breakLoop.thisN,breakLoop.thisIndex,expTrials.thisRepN,expTrials.thisTrialN,expTrials.thisN,expTrials.thisIndex,train_resp.keys,train_resp.corr,train_resp.rt,train_resp.started,train_resp.stopped,exp_resp.keys,exp_resp.rt,exp_resp.started,exp_resp.stopped,session,participant,date,expName,psychopyVersion,frameRate,
C,D,"is allergic to gluten, meaning she can’t eat wheat products. She enjoys eating dairy products. She thinks eating insects, like crickets, is disgusting.",,,,,,,,,,0,0,0,1,,,,,,,,,,,,,,,,,,,,,,,,,,001,97,2019_Nov_07_1302,ACPT_experiment_5_30_19,3.1.0,59.95446631799169,
C,G,"cannot eat dairy products because she is lactose intolerant. She enjoys eating wheat products. She thinks eating insects, like crickets, is disgusting.",,,,,,,,,,0,1,1,0,,,,,,,,,,,,,,,,,,,,,,,,,,001,97,2019_Nov_07_1302,ACPT_experiment_5_30_19,3.1.0,59.95446631799169,
C,U,"did not report her food preferences, so her food preferences are unknown.",,,,,,,,,,0,2,2,2,,,,,,,,,,,,,,,,,,,,,,,,,,001,97,2019_Nov_07_1302,ACPT_experiment_5_30_19,3.1.0,59.95446631799169,
,,,C,D,g,b,,,,,,,,,,0,0,0,10,,,,,,,,,,,,,b,1,1.417764921372509,1540.0712604804594,None,,,,,001,97,2019_Nov_07_1302,ACPT_experiment_5_30_19,3.1.0,59.95446631799169,
,,,C,G,g,v,,,,,,,,,,0,1,1,13,,,,,,,,,,,,,v,1,1.1342268488115224,1544.7748557729465,None,,,,,001,97,2019_Nov_07_1302,ACPT_experiment_5_30_19,3.1.0,59.95446631799169,
,,,C,G,g,v,,,,,,,,,,0,2,2,19,,,,,,,,,,,,,b,0,3.032338796534532,1549.2149173275302,None,,,,,001,97,2019_Nov_07_1302,ACPT_experiment_5_30_19,3.1.0,59.95446631799169,
,,,C,G,d,b,,,,,,,,,,0,3,3,3,,,,,,,,,,,,,v,0,1.5345182007422409,1555.5164134492788,None,,,,,001,97,2019_Nov_07_1302,ACPT_experiment_5_30_19,3.1.0,59.95446631799169,
,,,C,G,y,b,,,,,,,,,,0,4,4,14,,,,,,,,,,,,,b,1,1.7680292873283179,1560.3200956160763,None,,,,,001,97,2019_Nov_07_1302,ACPT_experiment_5_30_19,3.1.0,59.95446631799169,
,,,C,D,y,b,,,,,,,,,,0,5,5,2,,,,,,,,,,,,,b,1,1.5845590721164626,1565.3739640283602,None,,,,,001,97,2019_Nov_07_1302,ACPT_experiment_5_30_19,3.1.0,59.95446631799169,
,,,C,U,d,n,,,,,,,,,,0,6,6,15,,,,,,,,,,,,,n,1,0.6838786271073332,1570.2443604142918,None,,,,,001,97,2019_Nov_07_1302,ACPT_experiment_5_30_19,3.1.0,59.95446631799169,
,,,C,D,d,v,,,,,,,,,,0,7,7,0,,,,,,,,,,,,,b,0,2.0515821508597583,1574.2140666958057,None,,,,,001,97,2019_Nov_07_1302,ACPT_experiment_5_30_19,3.1.0,59.95446631799169,
,,,C,G,g,v,,,,,,,,,,0,8,8,4,,,,,,,,,,,,,v,1,1.4344497396778024,1579.551485556769,None,,,,,001,97,2019_Nov_07_1302,ACPT_experiment_5_30_19,3.1.0,59.95446631799169,
,,,C,U,d,n,,,,,,,,,,0,9,9,6,,,,,,,,,,,,,n,1,0.6004587615680066,1584.2884604471346,None,,,,,001,97,2019_Nov_07_1302,ACPT_experiment_5_30_19,3.1.0,59.95446631799169,
,,,C,U,g,n,,,,,,,,,,0,10,10,7,,,,,,,,,,,,,n,1,0.6171514281431882,1588.174758937368,None,,,,,001,97,2019_Nov_07_1302,ACPT_experiment_5_30_19,3.1.0,59.95446631799169,
,,,C,D,y,b,,,,,,,,,,0,11,11,11,,,,,,,,,,,,,b,1,1.0505869298540347,1592.094669153159,None,,,,,001,97,2019_Nov_07_1302,ACPT_experiment_5_30_19,3.1.0,59.95446631799169,
,,,C,D,d,v,,,,,,,,,,0,12,12,9,,,,,,,,,,,,,v,1,2.468595751310204,1596.4143774872973,None,,,,,001,97,2019_Nov_07_1302,ACPT_experiment_5_30_19,3.1.0,59.95446631799169,
,,,C,D,d,v,,,,,,,,,,0,13,13,18,,,,,,,,,,,,,v,1,1.5512054339014867,1602.152123922975,None,,,,,001,97,2019_Nov_07_1302,ACPT_experiment_5_30_19,3.1.0,59.95446631799169,
,,,C,U,y,n,,,,,,,,,,0,14,14,8,,,,,,,,,,,,,n,1,0.750605222359809,1606.989143125882,None,,,,,001,97,2019_Nov_07_1302,ACPT_experiment_5_30_19,3.1.0,59.95446631799169,
,,,C,G,y,b,,,,,,,,,,0,15,15,5,,,,,,,,,,,,,b,1,1.71798720852712,1611.0255977363176,None,,,,,001,97,2019_Nov_07_1302,ACPT_experiment_5_30_19,3.1.0,59.95446631799169,
,,,C,D,g,b,,,,,,,,,,0,16,16,1,,,,,,,,,,,,,b,1,2.0349054826801876,1616.0294186363808,None,,,,,001,97,2019_Nov_07_1302,ACPT_experiment_5_30_19,3.1.0,59.95446631799169,
,,,C,G,d,b,,,,,,,,,,0,17,17,12,,,,,,,,,,,,,b,1,1.434444004404213,1621.3501605273068,None,,,,,001,97,2019_Nov_07_1302,ACPT_experiment_5_30_19,3.1.0,59.95446631799169,
,,,C,U,g,n,,,,,,,,,,0,18,18,16,,,,,,,,,,,,,n,1,0.9338167465175502,1626.0873633193587,None,,,,,001,97,2019_Nov_07_1302,ACPT_experiment_5_30_19,3.1.0,59.95446631799169,
,,,C,U,y,n,,,,,,,,,,0,19,19,17,,,,,,,,,,,,,n,1,0.6004898527917248,1630.3403589436475,None,,,,,001,97,2019_Nov_07_1302,ACPT_experiment_5_30_19,3.1.0,59.95446631799169,
,,,C,D,g,b,,,,,,,,,,1,0,20,10,,,,,,,,,,,,,b,1,2.168354749048376,1634.2266707155686,None,,,,,001,97,2019_Nov_07_1302,ACPT_experiment_5_30_19,3.1.0,59.95446631799169,
,,,C,D,y,b,,,,,,,,,,1,1,21,11,,,,,,,,,,,,,n,0,0.7505843942581123,1639.664189430674,None,,,,,001,97,2019_Nov_07_1302,ACPT_experiment_5_30_19,3.1.0,59.95446631799169,
,,,C,G,g,v,,,,,,,,,,1,2,22,4,,,,,,,,,,,,,v,1,1.5342130237804668,1643.717581211482,None,,,,,001,97,2019_Nov_07_1302,ACPT_experiment_5_30_19,3.1.0,59.95446631799169,
,,,C,G,d,b,,,,,,,,,,1,3,23,3,,,,,,,,,,,,,b,1,1.9014637627260527,1648.5209627291697,None,,,,,001,97,2019_Nov_07_1302,ACPT_experiment_5_30_19,3.1.0,59.95446631799169,
,,,C,U,g,n,,,,,,,,,,1,4,24,7,,,,,,,,,,,,,n,1,0.7172162669285171,1653.708272861406,None,,,,,001,97,2019_Nov_07_1302,ACPT_experiment_5_30_19,3.1.0,59.95446631799169,
,,,C,U,y,n,,,,,,,,,,1,5,25,17,,,,,,,,,,,,,n,1,1.000527343372596,1657.7282666310875,None,,,,,001,97,2019_Nov_07_1302,ACPT_experiment_5_30_19,3.1.0,59.95446631799169,
,,,C,G,d,b,,,,,,,,,,1,6,26,12,,,,,,,,,,,,,b,1,1.5011603365346673,1662.0146297789925,None,,,,,001,97,2019_Nov_07_1302,ACPT_experiment_5_30_19,3.1.0,59.95446631799169,
,,,C,G,g,v,,,,,,,,,,1,7,27,13,,,,,,,,,,,,,v,1,1.134223830245901,1666.7849462333124,None,,,,,001,97,2019_Nov_07_1302,ACPT_experiment_5_30_19,3.1.0,59.95446631799169,
,,,C,D,y,b,,,,,,,,,,1,8,28,2,,,,,,,,,,,,,n,0,0.9173631503199431,1671.221691893823,None,,,,,001,97,2019_Nov_07_1302,ACPT_experiment_5_30_19,3.1.0,59.95446631799169,
,,,C,U,g,n,,,,,,,,,,1,9,29,16,,,,,,,,,,,,,n,1,0.8173052542351797,1675.4248983950893,None,,,,,001,97,2019_Nov_07_1302,ACPT_experiment_5_30_19,3.1.0,59.95446631799169,
,,,C,D,d,v,,,,,,,,,,1,10,30,18,,,,,,,,,,,,,b,0,1.5678902522067801,1679.5280370390046,None,,,,,001,97,2019_Nov_07_1302,ACPT_experiment_5_30_19,3.1.0,59.95446631799169,
,,,C,D,d,v,,,,,,,,,,1,11,31,0,,,,,,,,,,,,,v,1,1.434447324827488,1684.365075258871,None,,,,,001,97,2019_Nov_07_1302,ACPT_experiment_5_30_19,3.1.0,59.95446631799169,
,,,C,G,y,b,,,,,,,,,,1,12,32,5,,,,,,,,,,,,,b,1,1.000375811388949,1689.102411169657,None,,,,,001,97,2019_Nov_07_1302,ACPT_experiment_5_30_19,3.1.0,59.95446631799169,
,,,C,U,y,n,,,,,,,,,,1,13,33,8,,,,,,,,,,,,,n,1,0.650523781465381,1693.3886487452419,None,,,,,001,97,2019_Nov_07_1302,ACPT_experiment_5_30_19,3.1.0,59.95446631799169,
,,,C,D,d,v,,,,,,,,,,1,14,34,9,,,,,,,,,,,,,v,1,2.0182248903656728,1697.3249944458403,None,,,,,001,97,2019_Nov_07_1302,ACPT_experiment_5_30_19,3.1.0,59.95446631799169,
,,,C,U,d,n,,,,,,,,,,1,15,35,15,,,,,,,,,,,,,n,1,0.6337819122745714,1702.6290759688382,None,,,,,001,97,2019_Nov_07_1302,ACPT_experiment_5_30_19,3.1.0,59.95446631799169,
,,,C,G,y,b,,,,,,,,,,1,16,36,14,,,,,,,,,,,,,b,1,1.8678647151446057,1706.5656531934,None,,,,,001,97,2019_Nov_07_1302,ACPT_experiment_5_30_19,3.1.0,59.95446631799169,
,,,C,G,g,v,,,,,,,,,,1,17,37,19,,,,,,,,,,,,,v,1,1.7513571469953604,1711.702671309622,None,,,,,001,97,2019_Nov_07_1302,ACPT_experiment_5_30_19,3.1.0,59.95446631799169,
,,,C,D,g,b,,,,,,,,,,1,18,38,1,,,,,,,,,,,,,b,1,1.7013205016137363,1716.7398645630074,None,,,,,001,97,2019_Nov_07_1302,ACPT_experiment_5_30_19,3.1.0,59.95446631799169,
,,,C,U,d,n,,,,,,,,,,1,19,39,6,,,,,,,,,,,,,n,1,0.9173836765639862,1721.7269888723604,None,,,,,001,97,2019_Nov_07_1302,ACPT_experiment_5_30_19,3.1.0,59.95446631799169,
,,,C,U,d,n,,,,,,,,,,2,0,40,15,,,,,,,,,,,,,n,1,0.5501682548347162,1725.9305017580118,None,,,,,001,97,2019_Nov_07_1302,ACPT_experiment_5_30_19,3.1.0,59.95446631799169,
,,,C,D,g,b,,,,,,,,,,2,1,41,1,,,,,,,,,,,,,b,1,1.5845494127079292,1729.766501893244,None,,,,,001,97,2019_Nov_07_1302,ACPT_experiment_5_30_19,3.1.0,59.95446631799169,
,,,C,G,y,b,,,,,,,,,,2,2,42,5,,,,,,,,,,,,,b,1,1.2176264899644593,1734.6368985810332,None,,,,,001,97,2019_Nov_07_1302,ACPT_experiment_5_30_19,3.1.0,59.95446631799169,
,,,C,G,g,v,,,,,,,,,,2,3,43,13,,,,,,,,,,,,,v,1,1.0975292438615725,1739.160350419219,None,,,,,001,97,2019_Nov_07_1302,ACPT_experiment_5_30_19,3.1.0,59.95446631799169,
,,,C,D,d,v,,,,,,,,,,2,4,44,9,,,,,,,,,,,,,v,1,3.202467858316595,1743.543710336051,None,,,,,001,97,2019_Nov_07_1302,ACPT_experiment_5_30_19,3.1.0,59.95446631799169,
,,,C,U,g,n,,,,,,,,,,2,5,45,7,,,,,,,,,,,,,n,1,1.0007990142585186,1750.0319880392362,None,,,,,001,97,2019_Nov_07_1302,ACPT_experiment_5_30_19,3.1.0,59.95446631799169,
,,,C,D,g,b,,,,,,,,,,2,6,46,10,,,,,,,,,,,,,b,1,2.201693898152371,1754.3186370452822,None,,,,,001,97,2019_Nov_07_1302,ACPT_experiment_5_30_19,3.1.0,59.95446631799169,
,,,C,D,y,b,,,,,,,,,,2,7,47,2,,,,,,,,,,,,,b,1,0.9173906192645518,1759.7894707609685,None,,,,,001,97,2019_Nov_07_1302,ACPT_experiment_5_30_19,3.1.0,59.95446631799169,
,,,C,G,d,b,,,,,,,,,,2,8,48,12,,,,,,,,,,,,,v,0,1.3174368636864529,1764.0096307328586,None,,,,,001,97,2019_Nov_07_1302,ACPT_experiment_5_30_19,3.1.0,59.95446631799169,
,,,C,U,d,n,,,,,,,,,,2,9,49,6,,,,,,,,,,,,,n,1,1.117535389661498,1768.6129021936522,None,,,,,001,97,2019_Nov_07_1302,ACPT_experiment_5_30_19,3.1.0,59.95446631799169,
,,,C,D,y,b,,,,,,,,,,2,10,50,11,,,,,,,,,,,,,b,1,1.384158629232843,1773.0498691150042,None,,,,,001,97,2019_Nov_07_1302,ACPT_experiment_5_30_19,3.1.0,59.95446631799169,
,,,C,G,d,b,,,,,,,,,,2,11,51,3,,,,,,,,,,,,,b,1,1.3010279422560416,1777.7198520782222,None,,,,,001,97,2019_Nov_07_1302,ACPT_experiment_5_30_19,3.1.0,59.95446631799169,
,,,C,G,g,v,,,,,,,,,,2,12,52,4,,,,,,,,,,,,,v,1,0.9671389916529733,1782.3236698993478,None,,,,,001,97,2019_Nov_07_1302,ACPT_experiment_5_30_19,3.1.0,59.95446631799169,
,,,C,D,d,v,,,,,,,,,,2,13,53,18,,,,,,,,,,,,,v,1,1.3176871027571906,1786.5766480159564,None,,,,,001,97,2019_Nov_07_1302,ACPT_experiment_5_30_19,3.1.0,59.95446631799169,
,,,C,D,d,v,,,,,,,,,,2,14,54,0,,,,,,,,,,,,,v,1,1.01759763247901,1791.1633560047721,None,,,,,001,97,2019_Nov_07_1302,ACPT_experiment_5_30_19,3.1.0,59.95446631799169,
,,,C,U,g,n,,,,,,,,,,2,15,55,16,,,,,,,,,,,,,n,1,0.9841066495373525,1795.4667864232179,None,,,,,001,97,2019_Nov_07_1302,ACPT_experiment_5_30_19,3.1.0,59.95446631799169,
,,,C,G,y,b,,,,,,,,,,2,16,56,14,,,,,,,,,,,,,b,1,0.8003801581253356,1799.7536488418373,None,,,,,001,97,2019_Nov_07_1302,ACPT_experiment_5_30_19,3.1.0,59.95446631799169,
,,,C,U,y,n,,,,,,,,,,2,17,57,17,,,,,,,,,,,,,n,1,0.7505889221065445,1803.8398672193453,None,,,,,001,97,2019_Nov_07_1302,ACPT_experiment_5_30_19,3.1.0,59.95446631799169,
,,,C,U,y,n,,,,,,,,,,2,18,58,8,,,,,,,,,,,,,n,1,0.6004635912704543,1807.8762988886847,None,,,,,001,97,2019_Nov_07_1302,ACPT_experiment_5_30_19,3.1.0,59.95446631799169,
,,,C,G,g,v,,,,,,,,,,2,19,59,19,,,,,,,,,,,,,v,1,1.5678878373564658,1811.7625964733488,None,,,,,001,97,2019_Nov_07_1302,ACPT_experiment_5_30_19,3.1.0,59.95446631799169,
,,,C,G,d,b,,,,,,,,,,3,0,60,12,,,,,,,,,,,,,b,1,1.1842541366422665,1816.599631070938,None,,,,,001,97,2019_Nov_07_1302,ACPT_experiment_5_30_19,3.1.0,59.95446631799169,
,,,C,U,y,n,,,,,,,,,,3,1,61,8,,,,,,,,,,,,,n,1,1.000448256960226,1821.1034042776682,None,,,,,001,97,2019_Nov_07_1302,ACPT_experiment_5_30_19,3.1.0,59.95446631799169,
,,,C,G,d,b,,,,,,,,,,3,2,62,3,,,,,,,,,,,,,b,1,1.3176877064688597,1825.3896916595822,None,,,,,001,97,2019_Nov_07_1302,ACPT_experiment_5_30_19,3.1.0,59.95446631799169,
,,,C,G,g,v,,,,,,,,,,3,3,63,19,,,,,,,,,,,,,v,1,0.8170329796375881,1829.9934889544656,None,,,,,001,97,2019_Nov_07_1302,ACPT_experiment_5_30_19,3.1.0,59.95446631799169,
,,,C,D,g,b,,,,,,,,,,3,4,64,10,,,,,,,,,,,,,b,1,1.0174774935767346,1834.0963369105339,None,,,,,001,97,2019_Nov_07_1302,ACPT_experiment_5_30_19,3.1.0,59.95446631799169,
,,,C,U,g,n,,,,,,,,,,3,5,65,7,,,,,,,,,,,,,n,1,0.9004208483856928,1838.4166073015476,None,,,,,001,97,2019_Nov_07_1302,ACPT_experiment_5_30_19,3.1.0,59.95446631799169,
,,,C,D,d,v,,,,,,,,,,3,6,66,0,,,,,,,,,,,,,v,1,1.734695571643897,1842.6028663693178,None,,,,,001,97,2019_Nov_07_1302,ACPT_experiment_5_30_19,3.1.0,59.95446631799169,
,,,C,D,d,v,,,,,,,,,,3,7,67,9,,,,,,,,,,,,,v,1,1.1175435397872207,1847.6066966269336,None,,,,,001,97,2019_Nov_07_1302,ACPT_experiment_5_30_19,3.1.0,59.95446631799169,
,,,C,D,y,b,,,,,,,,,,3,8,68,11,,,,,,,,,,,,,b,1,1.0839345309395867,1852.0269871819637,None,,,,,001,97,2019_Nov_07_1302,ACPT_experiment_5_30_19,3.1.0,59.95446631799169,
,,,C,G,g,v,,,,,,,,,,3,9,69,13,,,,,,,,,,,,,v,1,1.1175329748093645,1856.3967599322878,None,,,,,001,97,2019_Nov_07_1302,ACPT_experiment_5_30_19,3.1.0,59.95446631799169,
,,,C,G,g,v,,,,,,,,,,3,10,70,4,,,,,,,,,,,,,v,1,1.2142743731037626,1860.8201393852742,None,,,,,001,97,2019_Nov_07_1302,ACPT_experiment_5_30_19,3.1.0,59.95446631799169,
,,,C,D,y,b,,,,,,,,,,3,11,71,2,,,,,,,,,,,,,b,1,0.9507367110672931,1865.3202565056126,None,,,,,001,97,2019_Nov_07_1302,ACPT_experiment_5_30_19,3.1.0,59.95446631799169,
,,,C,U,d,n,,,,,,,,,,3,12,72,6,,,,,,,,,,,,,n,1,0.9173800542866957,1869.5568326434895,None,,,,,001,97,2019_Nov_07_1302,ACPT_experiment_5_30_19,3.1.0,59.95446631799169,
,,,C,U,g,n,,,,,,,,,,3,13,73,16,,,,,,,,,,,,,n,1,0.6505056700734713,1873.7433673062806,None,,,,,001,97,2019_Nov_07_1302,ACPT_experiment_5_30_19,3.1.0,59.95446631799169,
,,,C,G,y,b,,,,,,,,,,3,14,74,14,,,,,,,,,,,,,b,1,0.833766698704494,1877.6966332732845,None,,,,,001,97,2019_Nov_07_1302,ACPT_experiment_5_30_19,3.1.0,59.95446631799169,
,,,C,G,y,b,,,,,,,,,,3,15,75,5,,,,,,,,,,,,,b,1,0.7339520989899029,1881.7995138298593,None,,,,,001,97,2019_Nov_07_1302,ACPT_experiment_5_30_19,3.1.0,59.95446631799169,
,,,C,D,d,v,,,,,,,,,,3,16,76,18,,,,,,,,,,,,,v,1,1.5178282508750272,1885.8192878479804,None,,,,,001,97,2019_Nov_07_1302,ACPT_experiment_5_30_19,3.1.0,59.95446631799169,
,,,C,D,g,b,,,,,,,,,,3,17,77,1,,,,,,,,,,,,,b,1,1.4677985481921496,1890.6062791593413,None,,,,,001,97,2019_Nov_07_1302,ACPT_experiment_5_30_19,3.1.0,59.95446631799169,
,,,C,U,d,n,,,,,,,,,,3,18,78,15,,,,,,,,,,,,,n,1,0.4336727609479567,1895.3599101916425,None,,,,,001,97,2019_Nov_07_1302,ACPT_experiment_5_30_19,3.1.0,59.95446631799169,
,,,C,U,y,n,,,,,,,,,,3,19,79,17,,,,,,,,,,,,,n,1,0.5168013349302782,1899.0796895224394,None,,,,,001,97,2019_Nov_07_1302,ACPT_experiment_5_30_19,3.1.0,59.95446631799169,
,,,C,D,d,v,,,,,,,,,,4,0,80,0,,,,,,,,,,,,,v,1,1.918157938585864,1902.8823372268798,None,,,,,001,97,2019_Nov_07_1302,ACPT_experiment_5_30_19,3.1.0,59.95446631799169,
,,,C,D,d,v,,,,,,,,,,4,1,81,18,,,,,,,,,,,,,v,1,1.4344545693838882,1908.0863188957355,None,,,,,001,97,2019_Nov_07_1302,ACPT_experiment_5_30_19,3.1.0,59.95446631799169,
,,,C,U,y,n,,,,,,,,,,4,2,82,8,,,,,,,,,,,,,n,1,0.7672613642935175,1912.8066035343782,None,,,,,001,97,2019_Nov_07_1302,ACPT_experiment_5_30_19,3.1.0,59.95446631799169,
,,,C,D,d,v,,,,,,,,,,4,3,83,9,,,,,,,,,,,,,v,1,0.8502453489945765,1916.8767725015932,None,,,,,001,97,2019_Nov_07_1302,ACPT_experiment_5_30_19,3.1.0,59.95446631799169,
,,,C,U,y,n,,,,,,,,,,4,4,84,17,,,,,,,,,,,,,n,1,0.6837443009480921,1921.0128784073568,None,,,,,001,97,2019_Nov_07_1302,ACPT_experiment_5_30_19,3.1.0,59.95446631799169,
,,,C,G,d,b,,,,,,,,,,4,5,85,3,,,,,,,,,,,,,b,1,1.0504864116264798,1925.0162933103766,None,,,,,001,97,2019_Nov_07_1302,ACPT_experiment_5_30_19,3.1.0,59.95446631799169,
,,,C,G,y,b,,,,,,,,,,4,6,86,14,,,,,,,,,,,,,b,1,1.1008439305114734,1929.3359125968345,None,,,,,001,97,2019_Nov_07_1302,ACPT_experiment_5_30_19,3.1.0,59.95446631799169,
,,,C,G,d,b,,,,,,,,,,4,7,87,12,,,,,,,,,,,,,b,1,1.0974075956764864,1933.7427198240057,None,,,,,001,97,2019_Nov_07_1302,ACPT_experiment_5_30_19,3.1.0,59.95446631799169,
,,,C,G,g,v,,,,,,,,,,4,8,88,13,,,,,,,,,,,,,v,1,0.9340678911576106,1938.1092938005913,None,,,,,001,97,2019_Nov_07_1302,ACPT_experiment_5_30_19,3.1.0,59.95446631799169,
,,,C,D,g,b,,,,,,,,,,4,9,89,1,,,,,,,,,,,,,b,1,1.034139068930017,1942.3291917610059,None,,,,,001,97,2019_Nov_07_1302,ACPT_experiment_5_30_19,3.1.0,59.95446631799169,
,,,C,G,g,v,,,,,,,,,,4,10,90,19,,,,,,,,,,,,,v,1,1.134220509824445,1946.6491633140467,None,,,,,001,97,2019_Nov_07_1302,ACPT_experiment_5_30_19,3.1.0,59.95446631799169,
,,,C,U,d,n,,,,,,,,,,4,11,91,15,,,,,,,,,,,,,n,1,0.7672462714690482,1951.085909276413,None,,,,,001,97,2019_Nov_07_1302,ACPT_experiment_5_30_19,3.1.0,59.95446631799169,
,,,C,D,y,b,,,,,,,,,,4,12,92,11,,,,,,,,,,,,,b,1,0.934080267275931,1955.1389744484477,None,,,,,001,97,2019_Nov_07_1302,ACPT_experiment_5_30_19,3.1.0,59.95446631799169,
,,,C,U,d,n,,,,,,,,,,4,13,93,6,,,,,,,,,,,,,n,1,0.7172262281947042,1959.3588914258253,None,,,,,001,97,2019_Nov_07_1302,ACPT_experiment_5_30_19,3.1.0,59.95446631799169,
,,,C,D,g,b,,,,,,,,,,4,14,94,10,,,,,,,,,,,,,b,1,1.2843144475791632,1963.3619863609147,None,,,,,001,97,2019_Nov_07_1302,ACPT_experiment_5_30_19,3.1.0,59.95446631799169,
,,,C,U,g,n,,,,,,,,,,4,15,95,16,,,,,,,,,,,,,n,1,0.6338214554798469,1967.9321142756398,None,,,,,001,97,2019_Nov_07_1302,ACPT_experiment_5_30_19,3.1.0,59.95446631799169,
,,,C,G,y,b,,,,,,,,,,4,16,96,5,,,,,,,,,,,,,b,1,1.2174106625388958,1971.8519493291533,None,,,,,001,97,2019_Nov_07_1302,ACPT_experiment_5_30_19,3.1.0,59.95446631799169,
,,,C,D,y,b,,,,,,,,,,4,17,97,2,,,,,,,,,,,,,b,1,0.8973579100893403,1976.391932642524,None,,,,,001,97,2019_Nov_07_1302,ACPT_experiment_5_30_19,3.1.0,59.95446631799169,
,,,C,U,g,n,,,,,,,,,,4,18,98,7,,,,,,,,,,,,,n,1,0.5504263421753421,1980.5751336017038,None,,,,,001,97,2019_Nov_07_1302,ACPT_experiment_5_30_19,3.1.0,59.95446631799169,
,,,C,G,g,v,,,,,,,,,,4,19,99,4,,,,,,,,,,,,,v,1,2.168361993604776,1984.4113812592968,None,,,,,001,97,2019_Nov_07_1302,ACPT_experiment_5_30_19,3.1.0,59.95446631799169,
,,,C,G,y,b,,,,,,,,,,5,0,100,5,,,,,,,,,,,,,b,1,0.8673370699161751,1989.865570001739,None,,,,,001,97,2019_Nov_07_1302,ACPT_experiment_5_30_19,3.1.0,59.95446631799169,
,,,C,D,g,b,,,,,,,,,,5,1,101,10,,,,,,,,,,,,,b,1,1.4509220509826264,1994.0523268309407,None,,,,,001,97,2019_Nov_07_1302,ACPT_experiment_5_30_19,3.1.0,59.95446631799169,
,,,C,D,y,b,,,,,,,,,,5,2,102,11,,,,,,,,,,,,,b,1,0.7839419566098513,1998.772389001313,None,,,,,001,97,2019_Nov_07_1302,ACPT_experiment_5_30_19,3.1.0,59.95446631799169,
,,,C,G,d,b,,,,,,,,,,5,3,103,3,,,,,,,,,,,,,b,1,1.1842619849121547,2002.842158008616,None,,,,,001,97,2019_Nov_07_1302,ACPT_experiment_5_30_19,3.1.0,59.95446631799169,
,,,C,U,d,n,,,,,,,,,,5,4,104,15,,,,,,,,,,,,,n,1,0.6338504337072663,2007.3122567036298,None,,,,,001,97,2019_Nov_07_1302,ACPT_experiment_5_30_19,3.1.0,59.95446631799169,
,,,C,U,y,n,,,,,,,,,,5,5,105,17,,,,,,,,,,,,,n,1,1.0503819692639809,2011.2490044771366,None,,,,,001,97,2019_Nov_07_1302,ACPT_experiment_5_30_19,3.1.0,59.95446631799169,
,,,C,G,g,v,,,,,,,,,,5,6,106,13,,,,,,,,,,,,,v,1,1.300995039893678,2015.5852639071345,None,,,,,001,97,2019_Nov_07_1302,ACPT_experiment_5_30_19,3.1.0,59.95446631799169,
,,,C,U,y,n,,,,,,,,,,5,7,107,8,,,,,,,,,,,,,n,1,0.7835365632781759,2020.1891771149276,None,,,,,001,97,2019_Nov_07_1302,ACPT_experiment_5_30_19,3.1.0,59.95446631799169,
,,,C,D,y,b,,,,,,,,,,5,8,108,2,,,,,,,,,,,,,b,1,0.6671868660996552,2024.2585594440043,None,,,,,001,97,2019_Nov_07_1302,ACPT_experiment_5_30_19,3.1.0,59.95446631799169,
,,,C,D,d,v,,,,,,,,,,5,9,109,9,,,,,,,,,,,,,v,1,1.167562073778754,2028.1949120873014,None,,,,,001,97,2019_Nov_07_1302,ACPT_experiment_5_30_19,3.1.0,59.95446631799169,
,,,C,D,d,v,,,,,,,,,,5,10,110,18,,,,,,,,,,,,,v,1,1.634593604505426,2032.631634504858,None,,,,,001,97,2019_Nov_07_1302,ACPT_experiment_5_30_19,3.1.0,59.95446631799169,
,,,C,D,d,v,,,,,,,,,,5,11,111,0,,,,,,,,,,,,,v,1,0.8840750149720407,2037.5520415765113,None,,,,,001,97,2019_Nov_07_1302,ACPT_experiment_5_30_19,3.1.0,59.95446631799169,
,,,C,D,g,b,,,,,,,,,,5,12,112,1,,,,,,,,,,,,,b,1,0.9173815635695064,2041.7219231159324,None,,,,,001,97,2019_Nov_07_1302,ACPT_experiment_5_30_19,3.1.0,59.95446631799169,
,,,C,G,g,v,,,,,,,,,,5,13,113,4,,,,,,,,,,,,,v,1,1.6847202031385677,2045.9084363469083,None,,,,,001,97,2019_Nov_07_1302,ACPT_experiment_5_30_19,3.1.0,59.95446631799169,
,,,C,U,g,n,,,,,,,,,,5,14,114,16,,,,,,,,,,,,,n,1,0.6171680302541063,2050.8789271535643,None,,,,,001,97,2019_Nov_07_1302,ACPT_experiment_5_30_19,3.1.0,59.95446631799169,
,,,C,G,d,b,,,,,,,,,,5,15,115,12,,,,,,,,,,,,,b,1,1.434198595039561,2054.7988409916343,None,,,,,001,97,2019_Nov_07_1302,ACPT_experiment_5_30_19,3.1.0,59.95446631799169,
,,,C,U,g,n,,,,,,,,,,5,16,116,7,,,,,,,,,,,,,n,1,0.9173848839909624,2059.5188762967755,None,,,,,001,97,2019_Nov_07_1302,ACPT_experiment_5_30_19,3.1.0,59.95446631799169,
,,,C,G,y,b,,,,,,,,,,5,17,117,14,,,,,,,,,,,,,b,1,0.8669522028267238,2063.7391745189616,None,,,,,001,97,2019_Nov_07_1302,ACPT_experiment_5_30_19,3.1.0,59.95446631799169,
,,,C,G,g,v,,,,,,,,,,5,18,118,19,,,,,,,,,,,,,v,1,1.250998239571345,2067.875248729788,None,,,,,001,97,2019_Nov_07_1302,ACPT_experiment_5_30_19,3.1.0,59.95446631799169,
,,,C,U,d,n,,,,,,,,,,5,19,119,6,0,0,0,0,0,0,0,0,,,,,n,1,0.8506486293299531,2072.42876578106,None,,,,,001,97,2019_Nov_07_1302,ACPT_experiment_5_30_19,3.1.0,59.95446631799169,
,,,C,U,d,n,R,D,g,L,i,,,,,5,19,119,6,0,0,0,0,,,,,0,0,0,2,,,,,,up,0.8840291327778687,2140.180602578095,None,001,97,2019_Nov_07_1302,ACPT_experiment_5_30_19,3.1.0,59.95446631799169,
,,,C,U,d,n,R,U,g,L,u,,,,,5,19,119,6,0,0,0,0,,,,,0,1,1,10,,,,,,up,0.7505708107146347,2142.348928650774,None,001,97,2019_Nov_07_1302,ACPT_experiment_5_30_19,3.1.0,59.95446631799169,
,,,C,U,d,n,R,U,g,R,u,,,,,5,19,119,6,0,0,0,0,,,,,0,2,2,11,,,,,,up,1.4845044964549743,2144.3671161109287,None,001,97,2019_Nov_07_1302,ACPT_experiment_5_30_19,3.1.0,59.95446631799169,
,,,C,U,d,n,L,U,d,R,u,,,,,5,19,119,6,0,0,0,0,,,,,0,3,3,21,,,,,,down,0.9340929452500859,2147.135923584414,None,001,97,2019_Nov_07_1302,ACPT_experiment_5_30_19,3.1.0,59.95446631799169,
,,,C,U,d,n,R,U,y,R,u,,,,,5,19,119,6,0,0,0,0,,,,,0,4,4,31,,,,,,down,0.66719894036396,2149.3542678892263,None,001,97,2019_Nov_07_1302,ACPT_experiment_5_30_19,3.1.0,59.95446631799169,
,,,C,U,d,n,L,G,g,R,c ,,,,,5,19,119,6,0,0,0,0,,,,,0,5,5,19,,,,,,up,1.0007646026115253,2151.3057830883063,None,001,97,2019_Nov_07_1302,ACPT_experiment_5_30_19,3.1.0,59.95446631799169,
,,,C,U,d,n,R,G,y,R,y,,,,,5,19,119,6,0,0,0,0,,,,,0,6,6,29,,,,,,down,0.6671123075357173,2153.6075979705583,None,001,97,2019_Nov_07_1302,ACPT_experiment_5_30_19,3.1.0,59.95446631799169,
,,,C,U,d,n,L,U,y,R,u,,,,,5,19,119,6,0,0,0,0,,,,,0,7,7,25,,,,,,down,0.650487256823908,2155.5757246368066,None,001,97,2019_Nov_07_1302,ACPT_experiment_5_30_19,3.1.0,59.95446631799169,
,,,C,U,d,n,L,D,y,L,y,,,,,5,19,119,6,0,0,0,0,,,,,0,8,8,32,,,,,,down,0.6671744899831538,2157.510533887622,None,001,97,2019_Nov_07_1302,ACPT_experiment_5_30_19,3.1.0,59.95446631799169,
,,,C,U,d,n,R,U,d,L,u,,,,,5,19,119,6,0,0,0,0,,,,,0,9,9,8,,,,,,up,1.3677325019798445,2159.4620047137905,None,001,97,2019_Nov_07_1302,ACPT_experiment_5_30_19,3.1.0,59.95446631799169,
,,,C,U,d,n,L,G,y,L,y,,,,,5,19,119,6,0,0,0,0,,,,,0,10,10,34,,,,,,down,0.7505840924022777,2162.1307162572684,None,001,97,2019_Nov_07_1302,ACPT_experiment_5_30_19,3.1.0,59.95446631799169,
,,,C,U,d,n,R,D,d,R,c ,,,,,5,19,119,6,0,0,0,0,,,,,0,11,11,1,,,,,,up,0.7672408380512934,2164.198991376563,None,001,97,2019_Nov_07_1302,ACPT_experiment_5_30_19,3.1.0,59.95446631799169,
,,,C,U,d,n,L,U,g,L,u,,,,,5,19,119,6,0,0,0,0,,,,,0,12,12,22,,,,,,up,0.8006319064770651,2166.2505324749327,None,001,97,2019_Nov_07_1302,ACPT_experiment_5_30_19,3.1.0,59.95446631799169,
,,,C,U,d,n,R,U,d,R,u,,,,,5,19,119,6,0,0,0,0,,,,,0,13,13,9,,,,,,up,0.8506757964169083,2168.3354637361626,None,001,97,2019_Nov_07_1302,ACPT_experiment_5_30_19,3.1.0,59.95446631799169,
,,,C,U,d,n,L,G,d,L,i,,,,,5,19,119,6,0,0,0,0,,,,,0,14,14,16,,,,,,up,0.9006946322660951,2170.470442207754,None,001,97,2019_Nov_07_1302,ACPT_experiment_5_30_19,3.1.0,59.95446631799169,
,,,C,U,d,n,L,G,g,L,c ,,,,,5,19,119,6,0,0,0,0,,,,,0,15,15,18,,,,,,up,0.7005495600133145,2172.6554573247304,None,001,97,2019_Nov_07_1302,ACPT_experiment_5_30_19,3.1.0,59.95446631799169,
,,,C,U,d,n,L,D,g,R,i,,,,,5,19,119,6,0,0,0,0,,,,,0,16,16,15,,,,,,up,0.6504948032379616,2174.6403056357813,None,001,97,2019_Nov_07_1302,ACPT_experiment_5_30_19,3.1.0,59.95446631799169,
,,,C,U,d,n,L,D,g,L,i,,,,,5,19,119,6,0,0,0,0,,,,,0,17,17,14,,,,,,up,0.783926863781744,2176.5751251497204,None,001,97,2019_Nov_07_1302,ACPT_experiment_5_30_19,3.1.0,59.95446631799169,
,,,C,U,d,n,L,U,d,L,u,,,,,5,19,119,6,0,0,0,0,,,,,0,18,18,20,,,,,,up,0.8339665277308086,2178.643379440913,None,001,97,2019_Nov_07_1302,ACPT_experiment_5_30_19,3.1.0,59.95446631799169,
,,,C,U,d,n,R,G,d,L,i,,,,,5,19,119,6,0,0,0,0,,,,,0,19,19,4,,,,,,up,0.7505982796592434,2180.7449541661026,None,001,97,2019_Nov_07_1302,ACPT_experiment_5_30_19,3.1.0,59.95446631799169,
,,,C,U,d,n,L,G,y,R,y,,,,,5,19,119,6,0,0,0,0,,,,,0,20,20,35,,,,,,down,0.7505623587312584,2182.7798726286146,None,001,97,2019_Nov_07_1302,ACPT_experiment_5_30_19,3.1.0,59.95446631799169,
,,,C,U,d,n,L,D,y,R,y,,,,,5,19,119,6,0,0,0,0,,,,,0,21,21,33,,,,,,down,0.5504139660552028,2184.814759999903,None,001,97,2019_Nov_07_1302,ACPT_experiment_5_30_19,3.1.0,59.95446631799169,
,,,C,U,d,n,R,D,y,L,y,,,,,5,19,119,6,0,0,0,0,,,,,0,22,22,26,,,,,,down,0.7672341972065624,2186.6661898339553,None,001,97,2019_Nov_07_1302,ACPT_experiment_5_30_19,3.1.0,59.95446631799169,
,,,C,U,d,n,R,G,y,L,y,,,,,5,19,119,6,0,0,0,0,,,,,0,23,23,28,,,,,,down,0.5837612652867392,2188.71776021241,None,001,97,2019_Nov_07_1302,ACPT_experiment_5_30_19,3.1.0,59.95446631799169,
,,,C,U,d,n,R,G,d,R,i,,,,,5,19,119,6,0,0,0,0,,,,,0,24,24,5,,,,,,up,0.6671992422197945,2190.585841358692,None,001,97,2019_Nov_07_1302,ACPT_experiment_5_30_19,3.1.0,59.95446631799169,
,,,C,U,d,n,R,U,y,L,u,,,,,5,19,119,6,0,0,0,0,,,,,0,25,25,30,,,,,,down,0.6838885883735202,2192.537310373722,None,001,97,2019_Nov_07_1302,ACPT_experiment_5_30_19,3.1.0,59.95446631799169,
,,,C,U,d,n,R,G,g,R,c ,,,,,5,19,119,6,0,0,0,0,,,,,0,26,26,7,,,,,,up,0.6505020477943617,2194.505511900392,None,001,97,2019_Nov_07_1302,ACPT_experiment_5_30_19,3.1.0,59.95446631799169,
,,,C,U,d,n,L,D,d,L,c ,,,,,5,19,119,6,0,0,0,0,,,,,0,27,27,12,,,,,,down,0.8673310327849322,2196.4403208493513,None,001,97,2019_Nov_07_1302,ACPT_experiment_5_30_19,3.1.0,59.95446631799169,
,,,C,U,d,n,R,D,y,R,y,,,,,5,19,119,6,0,0,0,0,,,,,0,28,28,27,,,,,,down,0.7672737404136569,2198.5919470108947,None,001,97,2019_Nov_07_1302,ACPT_experiment_5_30_19,3.1.0,59.95446631799169,
,,,C,U,d,n,L,U,g,R,u,,,,,5,19,119,6,0,0,0,0,,,,,0,29,29,23,,,,,,up,1.0674691623353283,2200.643551499141,None,001,97,2019_Nov_07_1302,ACPT_experiment_5_30_19,3.1.0,59.95446631799169,
,,,C,U,d,n,R,D,g,R,i,,,,,5,19,119,6,0,0,0,0,,,,,0,30,30,3,,,,,,up,0.7839540308705182,2202.9953166958057,None,001,97,2019_Nov_07_1302,ACPT_experiment_5_30_19,3.1.0,59.95446631799169,
,,,C,U,d,n,L,U,y,L,u,,,,,5,19,119,6,0,0,0,0,,,,,0,31,31,24,,,,,,down,0.817273861155627,2205.0636044930743,None,001,97,2019_Nov_07_1302,ACPT_experiment_5_30_19,3.1.0,59.95446631799169,
,,,C,U,d,n,R,G,g,L,c ,,,,,5,19,119,6,0,0,0,0,,,,,0,32,32,6,,,,,,up,0.6838810419594665,2207.1651964240864,None,001,97,2019_Nov_07_1302,ACPT_experiment_5_30_19,3.1.0,59.95446631799169,
,,,C,U,d,n,L,G,d,R,i,,,,,5,19,119,6,0,0,0,0,,,,,0,33,33,17,,,,,,down,1.2509759021886566,2209.133347238858,None,001,97,2019_Nov_07_1302,ACPT_experiment_5_30_19,3.1.0,59.95446631799169,
,,,C,U,d,n,R,D,d,L,c,,,,,5,19,119,6,0,0,0,0,,,,,0,34,34,0,,,,,,up,0.8005923632717895,2211.668658718583,None,001,97,2019_Nov_07_1302,ACPT_experiment_5_30_19,3.1.0,59.95446631799169,
,,,C,U,d,n,L,D,d,R,c ,,,,,5,19,119,6,0,0,0,0,,,,,0,35,35,13,,,,,,up,1.217584833761066,2213.7535824333972,None,001,97,2019_Nov_07_1302,ACPT_experiment_5_30_19,3.1.0,59.95446631799169,
,,,C,U,d,n,L,U,d,L,u,,,,,5,19,119,6,0,0,0,0,,,,,1,0,36,20,,,,,,up,0.5337514851344167,2216.2387962927187,None,001,97,2019_Nov_07_1302,ACPT_experiment_5_30_19,3.1.0,59.95446631799169,
,,,C,U,d,n,L,G,d,L,i,,,,,5,19,119,6,0,0,0,0,,,,,1,1,37,16,,,,,,up,0.48370457662713306,2218.040180425691,None,001,97,2019_Nov_07_1302,ACPT_experiment_5_30_19,3.1.0,59.95446631799169,
,,,C,U,d,n,R,G,g,R,c ,,,,,5,19,119,6,0,0,0,0,,,,,1,2,38,7,,,,,,up,0.7172159650726826,2219.8082003554664,None,001,97,2019_Nov_07_1302,ACPT_experiment_5_30_19,3.1.0,59.95446631799169,
,,,C,U,d,n,R,D,y,R,y,,,,,5,19,119,6,0,0,0,0,,,,,1,3,39,27,,,,,,down,0.5504027973656775,2221.8097461627985,None,001,97,2019_Nov_07_1302,ACPT_experiment_5_30_19,3.1.0,59.95446631799169,
,,,C,U,d,n,R,U,d,L,u,,,,,5,19,119,6,0,0,0,0,,,,,1,4,40,8,,,,,,up,0.666904328380042,2223.661419293221,None,001,97,2019_Nov_07_1302,ACPT_experiment_5_30_19,3.1.0,59.95446631799169,
,,,C,U,d,n,L,G,d,R,i,,,,,5,19,119,6,0,0,0,0,,,,,1,5,41,17,,,,,,up,0.7839410510405287,2225.5959577787216,None,001,97,2019_Nov_07_1302,ACPT_experiment_5_30_19,3.1.0,59.95446631799169,
,,,C,U,d,n,R,U,g,R,u,,,,,5,19,119,6,0,0,0,0,,,,,1,6,42,11,,,,,,up,0.6838638361386984,2227.664217805188,None,001,97,2019_Nov_07_1302,ACPT_experiment_5_30_19,3.1.0,59.95446631799169,
,,,C,U,d,n,L,D,y,L,y,,,,,5,19,119,6,0,0,0,0,,,,,1,7,43,32,,,,,,down,0.6338105886443373,2229.632386731353,None,001,97,2019_Nov_07_1302,ACPT_experiment_5_30_19,3.1.0,59.95446631799169,
,,,C,U,d,n,R,U,y,L,u,,,,,5,19,119,6,0,0,0,0,,,,,1,8,44,30,,,,,,down,0.5671446665564872,2231.55049999517,None,001,97,2019_Nov_07_1302,ACPT_experiment_5_30_19,3.1.0,59.95446631799169,
,,,C,U,d,n,L,D,d,R,c ,,,,,5,19,119,6,0,0,0,0,,,,,1,9,45,13,,,,,,up,0.7505705088588002,2233.4019376774922,None,001,97,2019_Nov_07_1302,ACPT_experiment_5_30_19,3.1.0,59.95446631799169,
,,,C,U,d,n,L,U,g,L,u,,,,,5,19,119,6,0,0,0,0,,,,,1,10,46,22,,,,,,up,0.717248263721558,2235.4368304821983,None,001,97,2019_Nov_07_1302,ACPT_experiment_5_30_19,3.1.0,59.95446631799169,
,,,C,U,d,n,R,G,y,R,y,,,,,5,19,119,6,0,0,0,0,,,,,1,11,47,29,,,,,,down,0.5504145697686909,2237.4550408834493,None,001,97,2019_Nov_07_1302,ACPT_experiment_5_30_19,3.1.0,59.95446631799169,
,,,C,U,d,n,L,G,g,R,c ,,,,,5,19,119,6,0,0,0,0,,,,,1,12,48,19,,,,,,up,0.6505098960642499,2239.306461359947,None,001,97,2019_Nov_07_1302,ACPT_experiment_5_30_19,3.1.0,59.95446631799169,
,,,C,U,d,n,R,D,g,L,i,,,,,5,19,119,6,0,0,0,0,,,,,1,13,49,2,,,,,,up,0.9507210145275167,2241.2245969611504,None,001,97,2019_Nov_07_1302,ACPT_experiment_5_30_19,3.1.0,59.95446631799169,
,,,C,U,d,n,R,D,y,L,y,,,,,5,19,119,6,0,0,0,0,,,,,1,14,50,26,,,,,,down,0.5337514851344167,2243.459618537854,None,001,97,2019_Nov_07_1302,ACPT_experiment_5_30_19,3.1.0,59.95446631799169,
,,,C,U,d,n,R,G,d,R,i,,,,,5,19,119,6,0,0,0,0,,,,,1,15,51,5,,,,,,up,0.7005296374809404,2245.2776883947026,None,001,97,2019_Nov_07_1302,ACPT_experiment_5_30_19,3.1.0,59.95446631799169,
,,,C,U,d,n,R,U,y,R,u,,,,,5,19,119,6,0,0,0,0,,,,,1,16,52,31,,,,,,down,0.5170893060676462,2247.262538215038,None,001,97,2019_Nov_07_1302,ACPT_experiment_5_30_19,3.1.0,59.95446631799169,
,,,C,U,d,n,L,U,d,R,u,,,,,5,19,119,6,0,0,0,0,,,,,1,17,53,21,,,,,,down,0.8672634169197408,2249.0806596893526,None,001,97,2019_Nov_07_1302,ACPT_experiment_5_30_19,3.1.0,59.95446631799169,
,,,C,U,d,n,L,D,g,L,i,,,,,5,19,119,6,0,0,0,0,,,,,1,18,54,14,,,,,,up,0.5671184050388547,2251.2322260833025,None,001,97,2019_Nov_07_1302,ACPT_experiment_5_30_19,3.1.0,59.95446631799169,
,,,C,U,d,n,R,G,d,L,i,,,,,5,19,119,6,0,0,0,0,,,,,1,19,55,4,,,,,,up,0.667179017829767,2253.083661350771,None,001,97,2019_Nov_07_1302,ACPT_experiment_5_30_19,3.1.0,59.95446631799169,
,,,C,U,d,n,R,D,g,R,i,,,,,5,19,119,6,0,0,0,0,,,,,1,20,56,3,,,,,,up,0.783933504626475,2255.0351563254644,None,001,97,2019_Nov_07_1302,ACPT_experiment_5_30_19,3.1.0,59.95446631799169,
,,,C,U,d,n,L,D,d,L,c ,,,,,5,19,119,6,0,0,0,0,,,,,1,21,57,12,,,,,,down,0.8173103857971,2257.1033861662763,None,001,97,2019_Nov_07_1302,ACPT_experiment_5_30_19,3.1.0,59.95446631799169,
,,,C,U,d,n,L,G,g,L,c ,,,,,5,19,119,6,0,0,0,0,,,,,1,22,58,18,,,,,,up,0.6671947143713624,2259.204996208682,None,001,97,2019_Nov_07_1302,ACPT_experiment_5_30_19,3.1.0,59.95446631799169,
,,,C,U,d,n,R,D,d,R,c ,,,,,5,19,119,6,0,0,0,0,,,,,1,23,59,1,,,,,,up,0.6004635912722733,2261.1565349525717,None,001,97,2019_Nov_07_1302,ACPT_experiment_5_30_19,3.1.0,59.95446631799169,
,,,C,U,d,n,L,U,y,R,u,,,,,5,19,119,6,0,0,0,0,,,,,1,24,60,25,,,,,,down,0.7505599438791251,2263.041299106022,None,001,97,2019_Nov_07_1302,ACPT_experiment_5_30_19,3.1.0,59.95446631799169,
,,,C,U,d,n,R,D,d,L,c,,,,,5,19,119,6,0,0,0,0,,,,,1,25,61,0,,,,,,up,0.5670987843641342,2265.076172591909,None,001,97,2019_Nov_07_1302,ACPT_experiment_5_30_19,3.1.0,59.95446631799169,
,,,C,U,d,n,L,U,g,R,u,,,,,5,19,119,6,0,0,0,0,,,,,1,26,62,23,,,,,,up,0.6671817345395539,2266.927591860982,None,001,97,2019_Nov_07_1302,ACPT_experiment_5_30_19,3.1.0,59.95446631799169,
,,,C,U,d,n,L,D,y,R,y,,,,,5,19,119,6,0,0,0,0,,,,,1,27,63,33,,,,,,down,0.40030282247971627,2268.8790856282485,None,001,97,2019_Nov_07_1302,ACPT_experiment_5_30_19,3.1.0,59.95446631799169,
,,,C,U,d,n,L,U,y,L,u,,,,,5,19,119,6,0,0,0,0,,,,,1,28,64,24,,,,,,down,0.517064855688659,2270.563705011302,None,001,97,2019_Nov_07_1302,ACPT_experiment_5_30_19,3.1.0,59.95446631799169,
,,,C,U,d,n,R,U,d,R,u,,,,,5,19,119,6,0,0,0,0,,,,,1,29,65,9,,,,,,up,0.6671687547077454,2272.3650939739764,None,001,97,2019_Nov_07_1302,ACPT_experiment_5_30_19,3.1.0,59.95446631799169,
,,,C,U,d,n,L,G,y,L,y,,,,,5,19,119,6,0,0,0,0,,,,,1,30,66,34,,,,,,down,0.5833872650346166,2274.3336435412366,None,001,97,2019_Nov_07_1302,ACPT_experiment_5_30_19,3.1.0,59.95446631799169,
,,,C,U,d,n,L,G,y,R,y,,,,,5,19,119,6,0,0,0,0,,,,,1,31,67,35,,,,,,down,0.5504118530607229,2276.201357629967,None,001,97,2019_Nov_07_1302,ACPT_experiment_5_30_19,3.1.0,59.95446631799169,
,,,C,U,d,n,R,G,g,L,c ,,,,,5,19,119,6,0,0,0,0,,,,,1,32,68,6,,,,,,up,0.7672432529034268,2278.036092684446,None,001,97,2019_Nov_07_1302,ACPT_experiment_5_30_19,3.1.0,59.95446631799169,
,,,C,U,d,n,R,U,g,L,u,,,,,5,19,119,6,0,0,0,0,,,,,1,33,69,10,,,,,,up,0.5504378127243399,2280.0709821687306,None,001,97,2019_Nov_07_1302,ACPT_experiment_5_30_19,3.1.0,59.95446631799169,
,,,C,U,d,n,L,D,g,R,i,,,,,5,19,119,6,0,0,0,0,,,,,1,34,70,15,,,,,,up,0.6838593082884472,2281.9057160157827,None,001,97,2019_Nov_07_1302,ACPT_experiment_5_30_19,3.1.0,59.95446631799169,
,,,C,U,d,n,R,G,y,L,y,,,,,5,19,119,6,0,0,0,0,,,,,1,35,71,28,,,,,,down,0.5671129716192809,2283.8738930920736,None,001,97,2019_Nov_07_1302,ACPT_experiment_5_30_19,3.1.0,59.95446631799169,
,,,C,U,d,n,,,,,,,,,,5,19,119,6,1,0,1,0,0,0,0,0,,,,,,,,,,,,,,001,97,2019_Nov_07_1302,ACPT_experiment_5_30_19,3.1.0,59.95446631799169,
,,,C,U,d,n,R,U,y,R,u,,,,,5,19,119,6,1,0,1,0,,,,,0,0,0,31,,,,,,down,0.4837263102981524,2292.5638477894445,None,001,97,2019_Nov_07_1302,ACPT_experiment_5_30_19,3.1.0,59.95446631799169,
,,,C,U,d,n,L,D,g,L,i,,,,,5,19,119,6,1,0,1,0,,,,,0,1,1,14,,,,,,up,0.8006183229335875,2294.3318954900224,None,001,97,2019_Nov_07_1302,ACPT_experiment_5_30_19,3.1.0,59.95446631799169,
,,,C,U,d,n,L,G,y,R,y,,,,,5,19,119,6,1,0,1,0,,,,,0,2,2,35,,,,,,down,0.6838734955472319,2296.416798980448,None,001,97,2019_Nov_07_1302,ACPT_experiment_5_30_19,3.1.0,59.95446631799169,
,,,C,U,d,n,R,U,d,R,u,,,,,5,19,119,6,1,0,1,0,,,,,0,3,3,9,,,,,,up,0.6505261963175144,2298.384965793617,None,001,97,2019_Nov_07_1302,ACPT_experiment_5_30_19,3.1.0,59.95446631799169,
,,,C,U,d,n,R,G,y,R,y,,,,,5,19,119,6,1,0,1,0,,,,,0,4,4,29,,,,,,down,0.5170751188106806,2300.319793155826,None,001,97,2019_Nov_07_1302,ACPT_experiment_5_30_19,3.1.0,59.95446631799169,
,,,C,U,d,n,L,G,g,L,c ,,,,,5,19,119,6,1,0,1,0,,,,,0,5,5,18,,,,,,up,0.733894142533245,2302.121188155632,None,001,97,2019_Nov_07_1302,ACPT_experiment_5_30_19,3.1.0,59.95446631799169,
,,,C,U,d,n,L,G,d,R,i,,,,,5,19,119,6,1,0,1,0,,,,,0,6,6,17,,,,,,up,0.650520461043925,2304.1226947216164,None,001,97,2019_Nov_07_1302,ACPT_experiment_5_30_19,3.1.0,59.95446631799169,
,,,C,U,d,n,L,U,g,R,u,,,,,5,19,119,6,1,0,1,0,,,,,0,7,7,23,,,,,,up,0.48368676709287683,2306.057547137916,None,001,97,2019_Nov_07_1302,ACPT_experiment_5_30_19,3.1.0,59.95446631799169,
,,,C,U,d,n,L,D,y,L,y,,,,,5,19,119,6,1,0,1,0,,,,,0,8,8,32,,,,,,down,0.5170201809214632,2307.8255903106456,None,001,97,2019_Nov_07_1302,ACPT_experiment_5_30_19,3.1.0,59.95446631799169,
,,,C,U,d,n,R,D,y,L,y,,,,,5,19,119,6,1,0,1,0,,,,,0,9,9,26,,,,,,down,0.567123536598956,2309.6269231280057,None,001,97,2019_Nov_07_1302,ACPT_experiment_5_30_19,3.1.0,59.95446631799169,
,,,C,U,d,n,R,G,g,L,c ,,,,,5,19,119,6,1,0,1,0,,,,,0,10,10,6,,,,,,up,0.6168842851075169,2311.495273832177,None,001,97,2019_Nov_07_1302,ACPT_experiment_5_30_19,3.1.0,59.95446631799169,
,,,C,U,d,n,R,G,g,R,c ,,,,,5,19,119,6,1,0,1,0,,,,,0,11,11,7,,,,,,up,1.0174617970369582,2313.3964846391245,None,001,97,2019_Nov_07_1302,ACPT_experiment_5_30_19,3.1.0,59.95446631799169,
,,,C,U,d,n,L,U,g,L,u,,,,,5,19,119,6,1,0,1,0,,,,,0,12,12,22,,,,,,up,0.7339315727458597,2315.698221038676,None,001,97,2019_Nov_07_1302,ACPT_experiment_5_30_19,3.1.0,59.95446631799169,
,,,C,U,d,n,R,U,d,L,u,,,,,5,19,119,6,1,0,1,0,,,,,0,13,13,8,,,,,,down,0.9507222219526739,2317.7164510606035,None,001,97,2019_Nov_07_1302,ACPT_experiment_5_30_19,3.1.0,59.95446631799169,
,,,C,U,d,n,R,U,y,L,u,,,,,5,19,119,6,1,0,1,0,,,,,0,14,14,30,,,,,,down,0.800605343103598,2319.9515064452407,None,001,97,2019_Nov_07_1302,ACPT_experiment_5_30_19,3.1.0,59.95446631799169,
,,,C,U,d,n,L,G,g,R,c ,,,,,5,19,119,6,1,0,1,0,,,,,0,15,15,19,,,,,,up,0.53374665543015,2322.036425632208,None,001,97,2019_Nov_07_1302,ACPT_experiment_5_30_19,3.1.0,59.95446631799169,
,,,C,U,d,n,L,U,d,R,u,,,,,5,19,119,6,1,0,1,0,,,,,0,16,16,21,,,,,,up,0.8673207696610916,2323.8544906593506,None,001,97,2019_Nov_07_1302,ACPT_experiment_5_30_19,3.1.0,59.95446631799169,
,,,C,U,d,n,L,G,d,L,i,,,,,5,19,119,6,1,0,1,0,,,,,0,17,17,16,,,,,,up,0.8673328439235775,2326.0061288951565,None,001,97,2019_Nov_07_1302,ACPT_experiment_5_30_19,3.1.0,59.95446631799169,
,,,C,U,d,n,R,G,y,L,y,,,,,5,19,119,6,1,0,1,0,,,,,0,18,18,28,,,,,,down,0.5671256495952548,2328.1577683383875,None,001,97,2019_Nov_07_1302,ACPT_experiment_5_30_19,3.1.0,59.95446631799169,
,,,C,U,d,n,R,D,d,R,c ,,,,,5,19,119,6,1,0,1,0,,,,,0,19,19,1,,,,,,up,0.6505135183433595,2330.009186400035,None,001,97,2019_Nov_07_1302,ACPT_experiment_5_30_19,3.1.0,59.95446631799169,
,,,C,U,d,n,L,D,d,R,c ,,,,,5,19,119,6,1,0,1,0,,,,,0,20,20,13,,,,,,up,0.8168663548276527,2331.961114538859,None,001,97,2019_Nov_07_1302,ACPT_experiment_5_30_19,3.1.0,59.95446631799169,
,,,C,U,d,n,L,D,g,R,i,,,,,5,19,119,6,1,0,1,0,,,,,0,21,21,15,,,,,,up,0.5838017140613374,2334.0455927134244,None,001,97,2019_Nov_07_1302,ACPT_experiment_5_30_19,3.1.0,59.95446631799169,
,,,C,U,d,n,L,U,y,L,u,,,,,5,19,119,6,1,0,1,0,,,,,0,22,22,24,,,,,,down,0.5337439387203631,2335.9137055546435,None,001,97,2019_Nov_07_1302,ACPT_experiment_5_30_19,3.1.0,59.95446631799169,
,,,C,U,d,n,R,G,d,L,i,,,,,5,19,119,6,1,0,1,0,,,,,0,23,23,4,,,,,,up,0.7172380005995365,2337.731771487355,None,001,97,2019_Nov_07_1302,ACPT_experiment_5_30_19,3.1.0,59.95446631799169,
,,,C,U,d,n,L,G,y,L,y,,,,,5,19,119,6,1,0,1,0,,,,,0,24,24,34,,,,,,down,0.6006428940563637,2339.733298277728,None,001,97,2019_Nov_07_1302,ACPT_experiment_5_30_19,3.1.0,59.95446631799169,
,,,C,U,d,n,R,U,g,L,u,,,,,5,19,119,6,1,0,1,0,,,,,0,25,25,10,,,,,,up,0.7839796886764816,2341.618050055058,None,001,97,2019_Nov_07_1302,ACPT_experiment_5_30_19,3.1.0,59.95446631799169,
,,,C,U,d,n,L,U,d,L,u,,,,,5,19,119,6,1,0,1,0,,,,,0,26,26,20,,,,,,up,0.6504818234061531,2343.6863345319052,None,001,97,2019_Nov_07_1302,ACPT_experiment_5_30_19,3.1.0,59.95446631799169,
,,,C,U,d,n,R,D,d,L,c,,,,,5,19,119,6,1,0,1,0,,,,,0,27,27,0,,,,,,up,0.6838789289649867,2345.6211371418776,None,001,97,2019_Nov_07_1302,ACPT_experiment_5_30_19,3.1.0,59.95446631799169,
,,,C,U,d,n,L,U,y,R,u,,,,,5,19,119,6,1,0,1,0,,,,,0,28,28,25,,,,,,down,0.7338893128289783,2347.6059902826346,None,001,97,2019_Nov_07_1302,ACPT_experiment_5_30_19,3.1.0,59.95446631799169,
,,,C,U,d,n,R,D,g,L,i,,,,,5,19,119,6,1,0,1,0,,,,,0,29,29,2,,,,,,up,0.6337909679677978,2349.640900293163,None,001,97,2019_Nov_07_1302,ACPT_experiment_5_30_19,3.1.0,59.95446631799169,
,,,C,U,d,n,L,D,y,R,y,,,,,5,19,119,6,1,0,1,0,,,,,0,30,30,33,,,,,,down,0.6004614782759745,2351.5590102365586,None,001,97,2019_Nov_07_1302,ACPT_experiment_5_30_19,3.1.0,59.95446631799169,
,,,C,U,d,n,R,U,g,R,u,,,,,5,19,119,6,1,0,1,0,,,,,0,31,31,11,,,,,,up,0.6171447873002762,2353.4437852568426,None,001,97,2019_Nov_07_1302,ACPT_experiment_5_30_19,3.1.0,59.95446631799169,
,,,C,U,d,n,R,G,d,R,i,,,,,5,19,119,6,1,0,1,0,,,,,0,32,32,5,,,,,,up,0.650491180960671,2355.345246001005,None,001,97,2019_Nov_07_1302,ACPT_experiment_5_30_19,3.1.0,59.95446631799169,
,,,C,U,d,n,R,D,g,R,i,,,,,5,19,119,6,1,0,1,0,,,,,0,33,33,3,,,,,,up,0.633550690165066,2357.2970099298727,None,001,97,2019_Nov_07_1302,ACPT_experiment_5_30_19,3.1.0,59.95446631799169,
,,,C,U,d,n,R,D,y,R,y,,,,,5,19,119,6,1,0,1,0,,,,,0,34,34,27,,,,,,down,0.517058214845747,2359.2148720490495,None,001,97,2019_Nov_07_1302,ACPT_experiment_5_30_19,3.1.0,59.95446631799169,
,,,C,U,d,n,L,D,d,L,c ,,,,,5,19,119,6,1,0,1,0,,,,,0,35,35,12,,,,,,up,0.7338980666681891,2361.0162462207554,None,001,97,2019_Nov_07_1302,ACPT_experiment_5_30_19,3.1.0,59.95446631799169,
,,,C,U,d,n,L,U,y,L,u,,,,,5,19,119,6,1,0,1,0,,,,,1,0,36,24,,,,,,down,0.6671820363972074,2363.0344587350028,None,001,97,2019_Nov_07_1302,ACPT_experiment_5_30_19,3.1.0,59.95446631799169,
,,,C,U,d,n,L,D,y,R,y,,,,,5,19,119,6,1,0,1,0,,,,,1,1,37,33,,,,,,down,0.6505044626464951,2364.985947974421,None,001,97,2019_Nov_07_1302,ACPT_experiment_5_30_19,3.1.0,59.95446631799169,
,,,C,U,d,n,R,D,d,R,c ,,,,,5,19,119,6,1,0,1,0,,,,,1,2,38,1,,,,,,up,0.717251584143014,2366.9207683939294,None,001,97,2019_Nov_07_1302,ACPT_experiment_5_30_19,3.1.0,59.95446631799169,
,,,C,U,d,n,R,U,d,L,u,,,,,5,19,119,6,1,0,1,0,,,,,1,3,39,8,,,,,,up,0.7839304860626726,2368.9223039381413,None,001,97,2019_Nov_07_1302,ACPT_experiment_5_30_19,3.1.0,59.95446631799169,
,,,C,U,d,n,R,U,y,R,u,,,,,5,19,119,6,1,0,1,0,,,,,1,4,40,31,,,,,,down,0.5170404053096718,2370.9905657757463,None,001,97,2019_Nov_07_1302,ACPT_experiment_5_30_19,3.1.0,59.95446631799169,
,,,C,U,d,n,R,D,y,R,y,,,,,5,19,119,6,1,0,1,0,,,,,1,5,41,27,,,,,,down,0.4837178583147761,2372.7919061395205,None,001,97,2019_Nov_07_1302,ACPT_experiment_5_30_19,3.1.0,59.95446631799169,
,,,C,U,d,n,R,D,g,R,i,,,,,5,19,119,6,1,0,1,0,,,,,1,6,42,3,,,,,,up,0.5670960676543473,2374.55994659554,None,001,97,2019_Nov_07_1302,ACPT_experiment_5_30_19,3.1.0,59.95446631799169,
,,,C,U,d,n,R,U,g,L,u,,,,,5,19,119,6,1,0,1,0,,,,,1,7,43,10,,,,,,up,0.6669103655112849,2376.4116227445284,None,001,97,2019_Nov_07_1302,ACPT_experiment_5_30_19,3.1.0,59.95446631799169,
,,,C,U,d,n,R,U,y,L,u,,,,,5,19,119,6,1,0,1,0,,,,,1,8,44,30,,,,,,down,0.5504375108685053,2378.3628375963526,None,001,97,2019_Nov_07_1302,ACPT_experiment_5_30_19,3.1.0,59.95446631799169,
,,,C,U,d,n,R,G,d,R,i,,,,,5,19,119,6,1,0,1,0,,,,,1,9,45,5,,,,,,up,0.6004569504275423,2380.1975934789334,None,001,97,2019_Nov_07_1302,ACPT_experiment_5_30_19,3.1.0,59.95446631799169,
,,,C,U,d,n,R,G,g,R,c ,,,,,5,19,119,6,1,0,1,0,,,,,1,10,46,7,,,,,,up,0.6171453910137643,2382.065680360489,None,001,97,2019_Nov_07_1302,ACPT_experiment_5_30_19,3.1.0,59.95446631799169,
,,,C,U,d,n,L,D,d,L,c ,,,,,5,19,119,6,1,0,1,0,,,,,1,11,47,12,,,,,,up,0.8840158510902256,2383.96714019908,None,001,97,2019_Nov_07_1302,ACPT_experiment_5_30_19,3.1.0,59.95446631799169,
,,,C,U,d,n,R,D,g,L,i,,,,,5,19,119,6,1,0,1,0,,,,,1,12,48,2,,,,,,up,0.7004903961314994,2386.1355187947956,None,001,97,2019_Nov_07_1302,ACPT_experiment_5_30_19,3.1.0,59.95446631799169,
,,,C,U,d,n,L,G,d,L,i,,,,,5,19,119,6,1,0,1,0,,,,,1,13,49,16,,,,,,up,0.5837733395474061,2388.1203281663547,None,001,97,2019_Nov_07_1302,ACPT_experiment_5_30_19,3.1.0,59.95446631799169,
,,,C,U,d,n,L,U,g,L,u,,,,,5,19,119,6,1,0,1,0,,,,,1,14,50,22,,,,,,up,0.6005266792890325,2389.9884159534795,None,001,97,2019_Nov_07_1302,ACPT_experiment_5_30_19,3.1.0,59.95446631799169,
,,,C,U,d,n,L,G,g,R,c ,,,,,5,19,119,6,1,0,1,0,,,,,1,15,51,19,,,,,,up,0.6504902753913484,2391.873198822035,None,001,97,2019_Nov_07_1302,ACPT_experiment_5_30_19,3.1.0,59.95446631799169,
,,,C,U,d,n,L,D,d,R,c ,,,,,5,19,119,6,1,0,1,0,,,,,1,16,52,13,,,,,,up,0.5170609315537149,2393.8080017338634,None,001,97,2019_Nov_07_1302,ACPT_experiment_5_30_19,3.1.0,59.95446631799169,
,,,C,U,d,n,L,G,d,R,i,,,,,5,19,119,6,1,0,1,0,,,,,1,17,53,17,,,,,,up,0.5501459174520278,2395.6263351114685,None,001,97,2019_Nov_07_1302,ACPT_experiment_5_30_19,3.1.0,59.95446631799169,
,,,C,U,d,n,L,U,g,R,u,,,,,5,19,119,6,1,0,1,0,,,,,1,18,54,23,,,,,,up,0.6504667305798648,2397.4608304918565,None,001,97,2019_Nov_07_1302,ACPT_experiment_5_30_19,3.1.0,59.95446631799169,
,,,C,U,d,n,L,G,y,L,y,,,,,5,19,119,6,1,0,1,0,,,,,1,19,55,34,,,,,,down,0.6504966143766069,2399.3956143867235,None,001,97,2019_Nov_07_1302,ACPT_experiment_5_30_19,3.1.0,59.95446631799169,
,,,C,U,d,n,R,G,y,L,y,,,,,5,19,119,6,1,0,1,0,,,,,1,20,56,28,,,,,,down,0.5170675723966269,2401.330426052393,None,001,97,2019_Nov_07_1302,ACPT_experiment_5_30_19,3.1.0,59.95446631799169,
,,,C,U,d,n,L,D,g,L,i,,,,,5,19,119,6,1,0,1,0,,,,,1,21,57,14,,,,,,up,0.6004617801318091,2403.1318032426625,None,001,97,2019_Nov_07_1302,ACPT_experiment_5_30_19,3.1.0,59.95446631799169,
,,,C,U,d,n,R,D,d,L,c,,,,,5,19,119,6,1,0,1,0,,,,,1,22,58,0,,,,,,up,0.6171348260340892,2405.0165843000796,None,001,97,2019_Nov_07_1302,ACPT_experiment_5_30_19,3.1.0,59.95446631799169,
,,,C,U,d,n,L,G,y,R,y,,,,,5,19,119,6,1,0,1,0,,,,,1,23,59,35,,,,,,down,0.5670981806506461,2406.9180381015394,None,001,97,2019_Nov_07_1302,ACPT_experiment_5_30_19,3.1.0,59.95446631799169,
,,,C,U,d,n,L,D,y,L,y,,,,,5,19,119,6,1,0,1,0,,,,,1,24,60,32,,,,,,down,0.499954117805828,2408.7865496952454,None,001,97,2019_Nov_07_1302,ACPT_experiment_5_30_19,3.1.0,59.95446631799169,
,,,C,U,d,n,L,U,d,L,u,,,,,5,19,119,6,1,0,1,0,,,,,1,25,61,20,,,,,,down,0.8840061916798732,2410.570836673878,None,001,97,2019_Nov_07_1302,ACPT_experiment_5_30_19,3.1.0,59.95446631799169,
,,,C,U,d,n,R,D,y,L,y,,,,,5,19,119,6,1,0,1,0,,,,,1,26,62,26,,,,,,down,0.567100897358614,2412.7391479555863,None,001,97,2019_Nov_07_1302,ACPT_experiment_5_30_19,3.1.0,59.95446631799169,
,,,C,U,d,n,R,U,g,R,u,,,,,5,19,119,6,1,0,1,0,,,,,1,27,63,11,,,,,,up,0.6338265870399482,2414.590562394953,None,001,97,2019_Nov_07_1302,ACPT_experiment_5_30_19,3.1.0,59.95446631799169,
,,,C,U,d,n,L,G,g,L,c ,,,,,5,19,119,6,1,0,1,0,,,,,1,28,64,18,,,,,,up,0.6838683639853116,2416.508691959025,None,001,97,2019_Nov_07_1302,ACPT_experiment_5_30_19,3.1.0,59.95446631799169,
,,,C,U,d,n,R,G,g,L,c ,,,,,5,19,119,6,1,0,1,0,,,,,1,29,65,6,,,,,,up,0.6838753066858771,2418.4768633000403,None,001,97,2019_Nov_07_1302,ACPT_experiment_5_30_19,3.1.0,59.95446631799169,
,,,C,U,d,n,R,G,d,L,i,,,,,5,19,119,6,1,0,1,0,,,,,1,30,66,4,,,,,,down,0.5837896398006706,2420.4450645248526,None,001,97,2019_Nov_07_1302,ACPT_experiment_5_30_19,3.1.0,59.95446631799169,
,,,C,U,d,n,L,D,g,R,i,,,,,5,19,119,6,1,0,1,0,,,,,1,31,67,15,,,,,,up,0.6004469891613553,2422.3131556324006,None,001,97,2019_Nov_07_1302,ACPT_experiment_5_30_19,3.1.0,59.95446631799169,
,,,C,U,d,n,L,U,d,R,u,,,,,5,19,119,6,1,0,1,0,,,,,1,32,68,21,,,,,,up,0.583776056257193,2424.1979252192687,None,001,97,2019_Nov_07_1302,ACPT_experiment_5_30_19,3.1.0,59.95446631799169,
,,,C,U,d,n,R,U,d,R,u,,,,,5,19,119,6,1,0,1,0,,,,,1,33,69,9,,,,,,up,0.4670267010224052,2426.049328489944,None,001,97,2019_Nov_07_1302,ACPT_experiment_5_30_19,3.1.0,59.95446631799169,
,,,C,U,d,n,L,U,y,R,u,,,,,5,19,119,6,1,0,1,0,,,,,1,34,70,25,,,,,,down,0.46674838929175166,2427.8176342778625,None,001,97,2019_Nov_07_1302,ACPT_experiment_5_30_19,3.1.0,59.95446631799169,
,,,C,U,d,n,R,G,y,R,y,,,,,5,19,119,6,1,0,1,0,,,,,1,35,71,29,,,,,,down,0.41679233960530837,2429.568862532118,None,001,97,2019_Nov_07_1302,ACPT_experiment_5_30_19,3.1.0,59.95446631799169,
,,,C,U,d,n,,,,,,,,,,5,19,119,6,2,0,2,0,0,0,0,0,,,,,,,,,,,,,,001,97,2019_Nov_07_1302,ACPT_experiment_5_30_19,3.1.0,59.95446631799169,
,,,C,U,d,n,L,U,d,R,u,,,,,5,19,119,6,2,0,2,0,,,,,0,0,0,21,,,,,,up,0.45010039748558484,2470.9506096294645,None,001,97,2019_Nov_07_1302,ACPT_experiment_5_30_19,3.1.0,59.95446631799169,
,,,C,U,d,n,R,G,y,L,y,,,,,5,19,119,6,2,0,2,0,,,,,0,1,1,28,,,,,,down,0.5170585167015815,2472.6850280968065,None,001,97,2019_Nov_07_1302,ACPT_experiment_5_30_19,3.1.0,59.95446631799169,
,,,C,U,d,n,R,U,g,L,u,,,,,5,19,119,6,2,0,2,0,,,,,0,2,2,10,,,,,,up,0.7505955629494565,2474.486379931128,None,001,97,2019_Nov_07_1302,ACPT_experiment_5_30_19,3.1.0,59.95446631799169,
,,,C,U,d,n,R,G,d,R,i,,,,,5,19,119,6,2,0,2,0,,,,,0,3,3,5,,,,,,up,0.6338229647626576,2476.521291752797,None,001,97,2019_Nov_07_1302,ACPT_experiment_5_30_19,3.1.0,59.95446631799169,
,,,C,U,d,n,L,U,y,R,u,,,,,5,19,119,6,2,0,2,0,,,,,0,4,4,25,,,,,,down,0.6171417687328358,2478.439430372564,None,001,97,2019_Nov_07_1302,ACPT_experiment_5_30_19,3.1.0,59.95446631799169,
,,,C,U,d,n,L,D,d,R,c ,,,,,5,19,119,6,2,0,2,0,,,,,0,5,5,13,,,,,,up,0.4670608108117449,2480.340886890732,None,001,97,2019_Nov_07_1302,ACPT_experiment_5_30_19,3.1.0,59.95446631799169,
,,,C,U,d,n,R,G,g,R,c ,,,,,5,19,119,6,2,0,2,0,,,,,0,6,6,7,,,,,,up,0.6004590634238411,2482.0922244170542,None,001,97,2019_Nov_07_1302,ACPT_experiment_5_30_19,3.1.0,59.95446631799169,
,,,C,U,d,n,L,G,y,L,y,,,,,5,19,119,6,2,0,2,0,,,,,0,7,7,34,,,,,,down,0.4833997015230125,2483.993977056489,None,001,97,2019_Nov_07_1302,ACPT_experiment_5_30_19,3.1.0,59.95446631799169,
,,,C,U,d,n,L,D,d,L,c ,,,,,5,19,119,6,2,0,2,0,,,,,0,8,8,12,,,,,,up,0.6838587045767781,2485.7616981482915,None,001,97,2019_Nov_07_1302,ACPT_experiment_5_30_19,3.1.0,59.95446631799169,
,,,C,U,d,n,L,U,g,L,u,,,,,5,19,119,6,2,0,2,0,,,,,0,9,9,22,,,,,,up,0.5003779243852478,2487.729877035721,None,001,97,2019_Nov_07_1302,ACPT_experiment_5_30_19,3.1.0,59.95446631799169,
,,,C,U,d,n,R,G,g,L,c ,,,,,5,19,119,6,2,0,2,0,,,,,0,10,10,6,,,,,,up,0.5003921116440324,2489.514570011397,None,001,97,2019_Nov_07_1302,ACPT_experiment_5_30_19,3.1.0,59.95446631799169,
,,,C,U,d,n,L,U,y,L,u,,,,,5,19,119,6,2,0,2,0,,,,,0,11,11,24,,,,,,down,0.4667677081124566,2491.316205892723,None,001,97,2019_Nov_07_1302,ACPT_experiment_5_30_19,3.1.0,59.95446631799169,
,,,C,U,d,n,R,D,d,L,c,,,,,5,19,119,6,2,0,2,0,,,,,0,12,12,0,,,,,,up,0.6838496488817327,2493.0672922744034,None,001,97,2019_Nov_07_1302,ACPT_experiment_5_30_19,3.1.0,59.95446631799169,
,,,C,U,d,n,R,G,y,R,y,,,,,5,19,119,6,2,0,2,0,,,,,0,13,13,29,,,,,,down,0.6171257703390438,2495.035471161833,None,001,97,2019_Nov_07_1302,ACPT_experiment_5_30_19,3.1.0,59.95446631799169,
,,,C,U,d,n,L,G,g,L,c ,,,,,5,19,119,6,2,0,2,0,,,,,0,14,14,18,,,,,,up,0.6004705339728389,2496.9369162094536,None,001,97,2019_Nov_07_1302,ACPT_experiment_5_30_19,3.1.0,59.95446631799169,
,,,C,U,d,n,R,D,y,L,y,,,,,5,19,119,6,2,0,2,0,,,,,0,15,15,26,,,,,,down,0.5837721321222489,2498.8216984742958,None,001,97,2019_Nov_07_1302,ACPT_experiment_5_30_19,3.1.0,59.95446631799169,
,,,C,U,d,n,L,D,y,R,y,,,,,5,19,119,6,2,0,2,0,,,,,0,16,16,33,,,,,,down,0.6504929920993163,2500.68979169484,None,001,97,2019_Nov_07_1302,ACPT_experiment_5_30_19,3.1.0,59.95446631799169,
,,,C,U,d,n,R,U,d,R,u,,,,,5,19,119,6,2,0,2,0,,,,,0,17,17,9,,,,,,up,0.6004370278969873,2502.6246284146,None,001,97,2019_Nov_07_1302,ACPT_experiment_5_30_19,3.1.0,59.95446631799169,
,,,C,U,d,n,R,D,g,R,i,,,,,5,19,119,6,2,0,2,0,,,,,0,18,18,3,,,,,,up,0.5804764624353993,2504.529382715453,None,001,97,2019_Nov_07_1302,ACPT_experiment_5_30_19,3.1.0,59.95446631799169,
,,,C,U,d,n,L,U,d,L,u,,,,,5,19,119,6,2,0,2,0,,,,,0,19,19,20,,,,,,up,0.633818738771879,2506.3941534010773,None,001,97,2019_Nov_07_1302,ACPT_experiment_5_30_19,3.1.0,59.95446631799169,
,,,C,U,d,n,R,U,g,R,u,,,,,5,19,119,6,2,0,2,0,,,,,0,20,20,11,,,,,,up,0.5003845652299788,2508.3122838707186,None,001,97,2019_Nov_07_1302,ACPT_experiment_5_30_19,3.1.0,59.95446631799169,
,,,C,U,d,n,L,D,g,R,i,,,,,5,19,119,6,2,0,2,0,,,,,0,21,21,15,,,,,,up,0.5004527848086582,2510.0969680925555,None,001,97,2019_Nov_07_1302,ACPT_experiment_5_30_19,3.1.0,59.95446631799169,
,,,C,U,d,n,R,G,d,L,i,,,,,5,19,119,6,2,0,2,0,,,,,0,22,22,4,,,,,,up,0.5334698529841262,2511.8986368762435,None,001,97,2019_Nov_07_1302,ACPT_experiment_5_30_19,3.1.0,59.95446631799169,
,,,C,U,d,n,L,U,g,R,u,,,,,5,19,119,6,2,0,2,0,,,,,0,23,23,23,,,,,,up,0.5837603597155976,2513.7164459290416,None,001,97,2019_Nov_07_1302,ACPT_experiment_5_30_19,3.1.0,59.95446631799169,
,,,C,U,d,n,R,D,d,R,c ,,,,,5,19,119,6,2,0,2,0,,,,,0,24,24,1,,,,,,up,0.5337451461473393,2515.584514699205,None,001,97,2019_Nov_07_1302,ACPT_experiment_5_30_19,3.1.0,59.95446631799169,
,,,C,U,d,n,L,D,y,L,y,,,,,5,19,119,6,2,0,2,0,,,,,0,25,25,32,,,,,,down,0.7672713255597046,2517.4025908950407,None,001,97,2019_Nov_07_1302,ACPT_experiment_5_30_19,3.1.0,59.95446631799169,
,,,C,U,d,n,R,U,d,L,u,,,,,5,19,119,6,2,0,2,0,,,,,0,26,26,8,,,,,,up,1.0841554899252515,2519.4541513122313,None,001,97,2019_Nov_07_1302,ACPT_experiment_5_30_19,3.1.0,59.95446631799169,
,,,C,U,d,n,R,D,g,L,i,,,,,5,19,119,6,2,0,2,0,,,,,0,27,27,2,,,,,,up,0.5504375108666864,2521.822626381296,None,001,97,2019_Nov_07_1302,ACPT_experiment_5_30_19,3.1.0,59.95446631799169,
,,,C,U,d,n,L,D,g,L,i,,,,,5,19,119,6,2,0,2,0,,,,,0,28,28,14,,,,,,up,0.4503310158797831,2523.6573686803313,None,001,97,2019_Nov_07_1302,ACPT_experiment_5_30_19,3.1.0,59.95446631799169,
,,,C,U,d,n,L,G,g,R,c ,,,,,5,19,119,6,2,0,2,0,,,,,0,29,29,19,,,,,,up,0.7005863865124411,2525.375328118056,None,001,97,2019_Nov_07_1302,ACPT_experiment_5_30_19,3.1.0,59.95446631799169,
,,,C,U,d,n,L,G,y,R,y,,,,,5,19,119,6,2,0,2,0,,,,,0,30,30,35,,,,,,down,0.867349144176842,2527.3601740142567,None,001,97,2019_Nov_07_1302,ACPT_experiment_5_30_19,3.1.0,59.95446631799169,
,,,C,U,d,n,L,G,d,L,i,,,,,5,19,119,6,2,0,2,0,,,,,0,31,31,16,,,,,,down,0.5504378127225209,2529.5285037092126,None,001,97,2019_Nov_07_1302,ACPT_experiment_5_30_19,3.1.0,59.95446631799169,
,,,C,U,d,n,R,D,y,R,y,,,,,5,19,119,6,2,0,2,0,,,,,0,32,32,27,,,,,,down,0.6671904883805837,2531.3632417822573,None,001,97,2019_Nov_07_1302,ACPT_experiment_5_30_19,3.1.0,59.95446631799169,
,,,C,U,d,n,R,U,y,R,u,,,,,5,19,119,6,2,0,2,0,,,,,0,33,33,31,,,,,,down,0.617140259451844,2533.3147358513797,None,001,97,2019_Nov_07_1302,ACPT_experiment_5_30_19,3.1.0,59.95446631799169,
,,,C,U,d,n,L,G,d,R,i,,,,,5,19,119,6,2,0,2,0,,,,,0,34,34,17,,,,,,up,0.5670966713678354,2535.216209575372,None,001,97,2019_Nov_07_1302,ACPT_experiment_5_30_19,3.1.0,59.95446631799169,
,,,C,U,d,n,R,U,y,L,u,,,,,5,19,119,6,2,0,2,0,,,,,0,35,35,30,,,,,,down,0.5837244387876126,2537.1177011089003,None,001,97,2019_Nov_07_1302,ACPT_experiment_5_30_19,3.1.0,59.95446631799169,
,,,C,U,d,n,L,D,g,L,i,,,,,5,19,119,6,2,0,2,0,,,,,1,0,36,14,,,,,,up,0.5504121549165575,2539.002444434249,None,001,97,2019_Nov_07_1302,ACPT_experiment_5_30_19,3.1.0,59.95446631799169,
,,,C,U,d,n,L,G,y,L,y,,,,,5,19,119,6,2,0,2,0,,,,,1,1,37,34,,,,,,down,0.517044933156285,2540.8538603828983,None,001,97,2019_Nov_07_1302,ACPT_experiment_5_30_19,3.1.0,59.95446631799169,
,,,C,U,d,n,L,D,y,R,y,,,,,5,19,119,6,2,0,2,0,,,,,1,2,38,33,,,,,,down,0.6338015329474729,2542.655235762031,None,001,97,2019_Nov_07_1302,ACPT_experiment_5_30_19,3.1.0,59.95446631799169,
,,,C,U,d,n,R,D,y,R,y,,,,,5,19,119,6,2,0,2,0,,,,,1,3,39,27,,,,,,down,0.45035576811642386,2544.5900486351256,None,001,97,2019_Nov_07_1302,ACPT_experiment_5_30_19,3.1.0,59.95446631799169,
,,,C,U,d,n,R,G,g,L,c ,,,,,5,19,119,6,2,0,2,0,,,,,1,4,40,6,,,,,,up,0.6672131276209257,2546.324715832254,None,001,97,2019_Nov_07_1302,ACPT_experiment_5_30_19,3.1.0,59.95446631799169,
,,,C,U,d,n,R,G,y,L,y,,,,,5,19,119,6,2,0,2,0,,,,,1,5,41,28,,,,,,down,0.6338217573375005,2548.259516027374,None,001,97,2019_Nov_07_1302,ACPT_experiment_5_30_19,3.1.0,59.95446631799169,
,,,C,U,d,n,L,U,y,R,u,,,,,5,19,119,6,2,0,2,0,,,,,1,6,42,25,,,,,,down,0.6001855813992734,2550.177927827308,None,001,97,2019_Nov_07_1302,ACPT_experiment_5_30_19,3.1.0,59.95446631799169,
,,,C,U,d,n,L,U,d,R,u,,,,,5,19,119,6,2,0,2,0,,,,,1,7,43,21,,,,,,up,0.5837989973533695,2552.045730360005,None,001,97,2019_Nov_07_1302,ACPT_experiment_5_30_19,3.1.0,59.95446631799169,
,,,C,U,d,n,L,D,y,L,y,,,,,5,19,119,6,2,0,2,0,,,,,1,8,44,32,,,,,,down,0.5671011992144486,2553.9138425975107,None,001,97,2019_Nov_07_1302,ACPT_experiment_5_30_19,3.1.0,59.95446631799169,
,,,C,U,d,n,L,G,g,L,c ,,,,,5,19,119,6,2,0,2,0,,,,,1,9,45,18,,,,,,up,0.650513820199194,2555.7652452644743,None,001,97,2019_Nov_07_1302,ACPT_experiment_5_30_19,3.1.0,59.95446631799169,
,,,C,U,d,n,R,G,g,R,c ,,,,,5,19,119,6,2,0,2,0,,,,,1,10,46,7,,,,,,up,1.0341303150889871,2557.700075645249,None,001,97,2019_Nov_07_1302,ACPT_experiment_5_30_19,3.1.0,59.95446631799169,
,,,C,U,d,n,R,G,d,L,i,,,,,5,19,119,6,2,0,2,0,,,,,1,11,47,4,,,,,,up,0.9340745320023416,2560.0018168745046,None,001,97,2019_Nov_07_1302,ACPT_experiment_5_30_19,3.1.0,59.95446631799169,
,,,C,U,d,n,R,U,g,L,u,,,,,5,19,119,6,2,0,2,0,,,,,1,12,48,10,,,,,,up,0.6505008403692045,2562.2201977039585,None,001,97,2019_Nov_07_1302,ACPT_experiment_5_30_19,3.1.0,59.95446631799169,
,,,C,U,d,n,L,U,y,L,u,,,,,5,19,119,6,2,0,2,0,,,,,1,13,49,24,,,,,,down,0.467022173173973,2564.155014199332,None,001,97,2019_Nov_07_1302,ACPT_experiment_5_30_19,3.1.0,59.95446631799169,
,,,C,U,d,n,L,U,g,R,u,,,,,5,19,119,6,2,0,2,0,,,,,1,14,50,23,,,,,,up,0.5337324681731843,2565.906357762784,None,001,97,2019_Nov_07_1302,ACPT_experiment_5_30_19,3.1.0,59.95446631799169,
,,,C,U,d,n,R,G,y,R,y,,,,,5,19,119,6,2,0,2,0,,,,,1,15,51,29,,,,,,down,0.5504187957612885,2567.7244173565086,None,001,97,2019_Nov_07_1302,ACPT_experiment_5_30_19,3.1.0,59.95446631799169,
,,,C,U,d,n,R,D,g,R,i,,,,,5,19,119,6,2,0,2,0,,,,,1,16,52,3,,,,,,up,0.5999984303452948,2569.5762619414436,None,001,97,2019_Nov_07_1302,ACPT_experiment_5_30_19,3.1.0,59.95446631799169,
,,,C,U,d,n,R,D,y,L,y,,,,,5,19,119,6,2,0,2,0,,,,,1,17,53,26,,,,,,down,0.6171879527846613,2571.4606034957396,None,001,97,2019_Nov_07_1302,ACPT_experiment_5_30_19,3.1.0,59.95446631799169,
,,,C,U,d,n,R,U,g,R,u,,,,,5,19,119,6,2,0,2,0,,,,,1,18,54,11,,,,,,up,0.4837323474293953,2573.3620388839518,None,001,97,2019_Nov_07_1302,ACPT_experiment_5_30_19,3.1.0,59.95446631799169,
,,,C,U,d,n,L,D,g,R,i,,,,,5,19,119,6,2,0,2,0,,,,,1,19,55,15,,,,,,up,0.6004792878120497,2575.1134029736495,None,001,97,2019_Nov_07_1302,ACPT_experiment_5_30_19,3.1.0,59.95446631799169,
,,,C,U,d,n,L,U,d,L,u,,,,,5,19,119,6,2,0,2,0,,,,,1,20,56,20,,,,,,up,0.6505065756427939,2576.9981719568023,None,001,97,2019_Nov_07_1302,ACPT_experiment_5_30_19,3.1.0,59.95446631799169,
,,,C,U,d,n,R,D,d,R,c ,,,,,5,19,119,6,2,0,2,0,,,,,1,21,57,1,,,,,,up,0.6004696284035163,2578.932986641037,None,001,97,2019_Nov_07_1302,ACPT_experiment_5_30_19,3.1.0,59.95446631799169,
,,,C,U,d,n,R,U,y,R,u,,,,,5,19,119,6,2,0,2,0,,,,,1,22,58,31,,,,,,down,0.4503488254158583,2580.817754114909,None,001,97,2019_Nov_07_1302,ACPT_experiment_5_30_19,3.1.0,59.95446631799169,
,,,C,U,d,n,L,G,y,R,y,,,,,5,19,119,6,2,0,2,0,,,,,1,23,59,35,,,,,,down,0.3969890414009569,2582.57243409868,None,001,97,2019_Nov_07_1302,ACPT_experiment_5_30_19,3.1.0,59.95446631799169,
,,,C,U,d,n,R,U,d,R,u,,,,,5,19,119,6,2,0,2,0,,,,,1,24,60,9,,,,,,up,0.5003670575515571,2584.25374271922,None,001,97,2019_Nov_07_1302,ACPT_experiment_5_30_19,3.1.0,59.95446631799169,
,,,C,U,d,n,L,D,d,R,c ,,,,,5,19,119,6,2,0,2,0,,,,,1,25,61,13,,,,,,up,0.9507315795071918,2586.0384260354876,None,001,97,2019_Nov_07_1302,ACPT_experiment_5_30_19,3.1.0,59.95446631799169,
,,,C,U,d,n,R,D,g,L,i,,,,,5,19,119,6,2,0,2,0,,,,,1,26,62,2,,,,,,up,0.733884181267058,2588.2734702514335,None,001,97,2019_Nov_07_1302,ACPT_experiment_5_30_19,3.1.0,59.95446631799169,
,,,C,U,d,n,R,G,d,R,i,,,,,5,19,119,6,2,0,2,0,,,,,1,27,63,5,,,,,,up,0.46702851216105046,2590.2916782378343,None,001,97,2019_Nov_07_1302,ACPT_experiment_5_30_19,3.1.0,59.95446631799169,
,,,C,U,d,n,L,U,g,L,u,,,,,5,19,119,6,2,0,2,0,,,,,1,28,64,22,,,,,,up,0.6671808289702312,2592.043019386434,None,001,97,2019_Nov_07_1302,ACPT_experiment_5_30_19,3.1.0,59.95446631799169,
,,,C,U,d,n,R,U,y,L,u,,,,,5,19,119,6,2,0,2,0,,,,,1,29,65,30,,,,,,down,0.583811977185178,2593.994509833279,None,001,97,2019_Nov_07_1302,ACPT_experiment_5_30_19,3.1.0,59.95446631799169,
,,,C,U,d,n,R,U,d,L,u,,,,,5,19,119,6,2,0,2,0,,,,,1,30,66,8,,,,,,up,0.4970436170606263,2595.8826248961614,None,001,97,2019_Nov_07_1302,ACPT_experiment_5_30_19,3.1.0,59.95446631799169,
,,,C,U,d,n,L,G,d,R,i,,,,,5,19,119,6,2,0,2,0,,,,,1,31,67,17,,,,,,down,0.7505680940048478,2597.6639862812244,None,001,97,2019_Nov_07_1302,ACPT_experiment_5_30_19,3.1.0,59.95446631799169,
,,,C,U,d,n,L,G,g,R,c ,,,,,5,19,119,6,2,0,2,0,,,,,1,32,68,19,,,,,,up,0.5837784711075074,2599.698870633947,None,001,97,2019_Nov_07_1302,ACPT_experiment_5_30_19,3.1.0,59.95446631799169,
,,,C,U,d,n,L,D,d,L,c ,,,,,5,19,119,6,2,0,2,0,,,,,1,33,69,12,,,,,,up,0.7505677921490133,2601.5669735139,None,001,97,2019_Nov_07_1302,ACPT_experiment_5_30_19,3.1.0,59.95446631799169,
,,,C,U,d,n,L,G,d,L,i,,,,,5,19,119,6,2,0,2,0,,,,,1,34,70,16,,,,,,up,0.5504387182918435,2603.6018400570865,None,001,97,2019_Nov_07_1302,ACPT_experiment_5_30_19,3.1.0,59.95446631799169,
,,,C,U,d,n,R,D,d,L,c,,,,,5,19,119,6,2,0,2,0,,,,,1,35,71,0,,,,,,up,0.5337611445429502,2605.4365775264178,None,001,97,2019_Nov_07_1302,ACPT_experiment_5_30_19,3.1.0,59.95446631799169,
,,,C,U,d,n,,,,,,,,,,5,19,119,6,3,0,3,0,0,0,0,0,,,,,,,,,,,,,,001,97,2019_Nov_07_1302,ACPT_experiment_5_30_19,3.1.0,59.95446631799169,
,,,C,U,d,n,L,G,d,R,i,,,,,5,19,119,6,3,0,3,0,,,,,0,0,0,17,,,,,,up,0.6305019391274982,2631.126241837799,None,001,97,2019_Nov_07_1302,ACPT_experiment_5_30_19,3.1.0,59.95446631799169,
,,,C,U,d,n,L,U,d,L,u,,,,,5,19,119,6,3,0,3,0,,,,,0,1,1,20,,,,,,up,0.5504242291790433,2633.0410552059384,None,001,97,2019_Nov_07_1302,ACPT_experiment_5_30_19,3.1.0,59.95446631799169,
,,,C,U,d,n,L,U,g,L,u,,,,,5,19,119,6,3,0,3,0,,,,,0,2,2,22,,,,,,up,0.6338190406277135,2634.875789354848,None,001,97,2019_Nov_07_1302,ACPT_experiment_5_30_19,3.1.0,59.95446631799169,
,,,C,U,d,n,L,D,d,L,c ,,,,,5,19,119,6,3,0,3,0,,,,,0,3,3,12,,,,,,up,0.5337686909570039,2636.793926767188,None,001,97,2019_Nov_07_1302,ACPT_experiment_5_30_19,3.1.0,59.95446631799169,
,,,C,U,d,n,R,D,y,R,y,,,,,5,19,119,6,3,0,3,0,,,,,0,4,4,27,,,,,,down,0.7336976339283865,2638.628822409346,None,001,97,2019_Nov_07_1302,ACPT_experiment_5_30_19,3.1.0,59.95446631799169,
,,,C,U,d,n,L,D,g,L,i,,,,,5,19,119,6,3,0,3,0,,,,,0,5,5,14,,,,,,up,0.533753296274881,2640.6635310815636,None,001,97,2019_Nov_07_1302,ACPT_experiment_5_30_19,3.1.0,59.95446631799169,
,,,C,U,d,n,R,U,y,R,u,,,,,5,19,119,6,3,0,3,0,,,,,0,6,6,31,,,,,,down,0.65031761345017,2642.498464153932,None,001,97,2019_Nov_07_1302,ACPT_experiment_5_30_19,3.1.0,59.95446631799169,
,,,C,U,d,n,R,D,d,R,c ,,,,,5,19,119,6,3,0,3,0,,,,,0,7,7,1,,,,,,down,0.783684774840367,2644.483386721693,None,001,97,2019_Nov_07_1302,ACPT_experiment_5_30_19,3.1.0,59.95446631799169,
,,,C,U,d,n,L,D,g,R,i,,,,,5,19,119,6,3,0,3,0,,,,,0,8,8,15,,,,,,up,0.500399054344598,2646.551394396094,None,001,97,2019_Nov_07_1302,ACPT_experiment_5_30_19,3.1.0,59.95446631799169,
,,,C,U,d,n,R,U,y,L,u,,,,,5,19,119,6,3,0,3,0,,,,,0,9,9,30,,,,,,down,0.5337442405780166,2648.336084655062,None,001,97,2019_Nov_07_1302,ACPT_experiment_5_30_19,3.1.0,59.95446631799169,
,,,C,U,d,n,R,G,d,L,i,,,,,5,19,119,6,3,0,3,0,,,,,0,10,10,4,,,,,,up,0.5504390201494971,2650.154127646678,None,001,97,2019_Nov_07_1302,ACPT_experiment_5_30_19,3.1.0,59.95446631799169,
,,,C,U,d,n,R,D,y,L,y,,,,,5,19,119,6,3,0,3,0,,,,,0,11,11,26,,,,,,down,0.5670990862199687,2651.988885642253,None,001,97,2019_Nov_07_1302,ACPT_experiment_5_30_19,3.1.0,59.95446631799169,
,,,C,U,d,n,L,G,y,R,y,,,,,5,19,119,6,3,0,3,0,,,,,0,12,12,35,,,,,,down,0.5837848100945848,2653.8402967612,None,001,97,2019_Nov_07_1302,ACPT_experiment_5_30_19,3.1.0,59.95446631799169,
,,,C,U,d,n,R,U,d,R,u,,,,,5,19,119,6,3,0,3,0,,,,,0,13,13,9,,,,,,up,0.533753296273062,2655.7083896798867,None,001,97,2019_Nov_07_1302,ACPT_experiment_5_30_19,3.1.0,59.95446631799169,
,,,C,U,d,n,R,D,d,L,c,,,,,5,19,119,6,3,0,3,0,,,,,0,14,14,0,,,,,,down,0.4803729860122985,2657.5464693048125,None,001,97,2019_Nov_07_1302,ACPT_experiment_5_30_19,3.1.0,59.95446631799169,
,,,C,U,d,n,L,U,d,R,u,,,,,5,19,119,6,3,0,3,0,,,,,0,15,15,21,,,,,,down,0.583658332207051,2659.3111585495426,None,001,97,2019_Nov_07_1302,ACPT_experiment_5_30_19,3.1.0,59.95446631799169,
,,,C,U,d,n,L,U,y,L,u,,,,,5,19,119,6,3,0,3,0,,,,,0,16,16,24,,,,,,down,0.6504884642490651,2661.1959359846805,None,001,97,2019_Nov_07_1302,ACPT_experiment_5_30_19,3.1.0,59.95446631799169,
,,,C,U,d,n,L,U,g,R,u,,,,,5,19,119,6,3,0,3,0,,,,,0,17,17,23,,,,,,up,0.5004062989009981,2663.1473995662927,None,001,97,2019_Nov_07_1302,ACPT_experiment_5_30_19,3.1.0,59.95446631799169,
,,,C,U,d,n,R,D,g,R,i,,,,,5,19,119,6,3,0,3,0,,,,,0,18,18,3,,,,,,up,0.6504923883840092,2664.932125444333,None,001,97,2019_Nov_07_1302,ACPT_experiment_5_30_19,3.1.0,59.95446631799169,
,,,C,U,d,n,R,U,d,L,u,,,,,5,19,119,6,3,0,3,0,,,,,0,19,19,8,,,,,,up,0.6671799234009086,2666.866934091435,None,001,97,2019_Nov_07_1302,ACPT_experiment_5_30_19,3.1.0,59.95446631799169,
,,,C,U,d,n,L,D,d,R,c ,,,,,5,19,119,6,3,0,3,0,,,,,0,20,20,13,,,,,,up,0.5670948602291901,2668.8184326884057,None,001,97,2019_Nov_07_1302,ACPT_experiment_5_30_19,3.1.0,59.95446631799169,
,,,C,U,d,n,R,U,g,L,u,,,,,5,19,119,6,3,0,3,0,,,,,0,21,21,10,,,,,,up,0.6304853370165802,2670.6898626311267,None,001,97,2019_Nov_07_1302,ACPT_experiment_5_30_19,3.1.0,59.95446631799169,
,,,C,U,d,n,L,G,d,L,i,,,,,5,19,119,6,3,0,3,0,,,,,0,22,22,16,,,,,,up,0.5837691135566274,2672.604673584414,None,001,97,2019_Nov_07_1302,ACPT_experiment_5_30_19,3.1.0,59.95446631799169,
,,,C,U,d,n,L,G,g,L,c ,,,,,5,19,119,6,3,0,3,0,,,,,0,23,23,18,,,,,,up,0.6171731618142076,2674.4560581399837,None,001,97,2019_Nov_07_1302,ACPT_experiment_5_30_19,3.1.0,59.95446631799169,
,,,C,U,d,n,L,U,y,R,u,,,,,5,19,119,6,3,0,3,0,,,,,0,24,24,25,,,,,,down,0.6004801933813724,2676.357508621022,None,001,97,2019_Nov_07_1302,ACPT_experiment_5_30_19,3.1.0,59.95446631799169,
,,,C,U,d,n,R,U,g,R,u,,,,,5,19,119,6,3,0,3,0,,,,,0,25,25,11,,,,,,up,0.6004309907657444,2678.2423304290714,None,001,97,2019_Nov_07_1302,ACPT_experiment_5_30_19,3.1.0,59.95446631799169,
,,,C,U,d,n,L,D,y,L,y,,,,,5,19,119,6,3,0,3,0,,,,,0,26,26,32,,,,,,down,0.7339010852338106,2680.127080697119,None,001,97,2019_Nov_07_1302,ACPT_experiment_5_30_19,3.1.0,59.95446631799169,
,,,C,U,d,n,R,G,y,L,y,,,,,5,19,119,6,3,0,3,0,,,,,0,27,27,28,,,,,,down,0.5670707117060374,2682.14532430259,None,001,97,2019_Nov_07_1302,ACPT_experiment_5_30_19,3.1.0,59.95446631799169,
,,,C,U,d,n,R,D,g,L,i,,,,,5,19,119,6,3,0,3,0,,,,,0,28,28,2,,,,,,up,0.6168688904235751,2684.0136617250737,None,001,97,2019_Nov_07_1302,ACPT_experiment_5_30_19,3.1.0,59.95446631799169,
,,,C,U,d,n,L,G,g,R,c ,,,,,5,19,119,6,3,0,3,0,,,,,0,29,29,19,,,,,,up,0.6838858716655523,2685.898140322237,None,001,97,2019_Nov_07_1302,ACPT_experiment_5_30_19,3.1.0,59.95446631799169,
,,,C,U,d,n,R,G,g,R,c ,,,,,5,19,119,6,3,0,3,0,,,,,0,30,30,7,,,,,,up,0.7672492900346697,2687.866342754476,None,001,97,2019_Nov_07_1302,ACPT_experiment_5_30_19,3.1.0,59.95446631799169,
,,,C,U,d,n,R,G,d,R,i,,,,,5,19,119,6,3,0,3,0,,,,,0,31,31,5,,,,,,up,0.817316422928343,2689.901203562389,None,001,97,2019_Nov_07_1302,ACPT_experiment_5_30_19,3.1.0,59.95446631799169,
,,,C,U,d,n,L,D,y,R,y,,,,,5,19,119,6,3,0,3,0,,,,,0,32,32,33,,,,,,down,0.46702639916475164,2692.0028350366083,None,001,97,2019_Nov_07_1302,ACPT_experiment_5_30_19,3.1.0,59.95446631799169,
,,,C,U,d,n,R,G,y,R,y,,,,,5,19,119,6,3,0,3,0,,,,,0,33,33,29,,,,,,down,0.5170751188106806,2693.754155357108,None,001,97,2019_Nov_07_1302,ACPT_experiment_5_30_19,3.1.0,59.95446631799169,
,,,C,U,d,n,R,G,g,L,c ,,,,,5,19,119,6,3,0,3,0,,,,,0,34,34,6,,,,,,up,0.7505771496998932,2695.555550055058,None,001,97,2019_Nov_07_1302,ACPT_experiment_5_30_19,3.1.0,59.95446631799169,
,,,C,U,d,n,L,G,y,L,y,,,,,5,19,119,6,3,0,3,0,,,,,0,35,35,34,,,,,,down,0.7338929351080878,2697.590445576474,None,001,97,2019_Nov_07_1302,ACPT_experiment_5_30_19,3.1.0,59.95446631799169,
,,,C,U,d,n,R,G,g,L,c ,,,,,5,19,119,6,3,0,3,0,,,,,1,0,36,6,,,,,,up,0.6004400464607897,2699.6086768058267,None,001,97,2019_Nov_07_1302,ACPT_experiment_5_30_19,3.1.0,59.95446631799169,
,,,C,U,d,n,L,D,g,R,i,,,,,5,19,119,6,3,0,3,0,,,,,1,1,37,15,,,,,,up,0.7506034112193447,2701.493429790584,None,001,97,2019_Nov_07_1302,ACPT_experiment_5_30_19,3.1.0,59.95446631799169,
,,,C,U,d,n,L,U,g,R,u,,,,,5,19,119,6,3,0,3,0,,,,,1,2,38,23,,,,,,up,0.48372419730185356,2703.5283041820403,None,001,97,2019_Nov_07_1302,ACPT_experiment_5_30_19,3.1.0,59.95446631799169,
,,,C,U,d,n,L,G,g,R,c ,,,,,5,19,119,6,3,0,3,0,,,,,1,3,39,19,,,,,,up,0.6338259833264601,2705.296338902788,None,001,97,2019_Nov_07_1302,ACPT_experiment_5_30_19,3.1.0,59.95446631799169,
,,,C,U,d,n,R,D,d,L,c,,,,,5,19,119,6,3,0,3,0,,,,,1,4,40,0,,,,,,up,0.7505717162839574,2707.2144760132724,None,001,97,2019_Nov_07_1302,ACPT_experiment_5_30_19,3.1.0,59.95446631799169,
,,,C,U,d,n,R,G,d,R,i,,,,,5,19,119,6,3,0,3,0,,,,,1,5,41,5,,,,,,up,0.6001837702606281,2709.2496353573006,None,001,97,2019_Nov_07_1302,ACPT_experiment_5_30_19,3.1.0,59.95446631799169,
,,,C,U,d,n,R,D,d,R,c ,,,,,5,19,119,6,3,0,3,0,,,,,1,6,42,1,,,,,,down,0.6338332278846792,2711.1341205953086,None,001,97,2019_Nov_07_1302,ACPT_experiment_5_30_19,3.1.0,59.95446631799169,
,,,C,U,d,n,R,U,g,L,u,,,,,5,19,119,6,3,0,3,0,,,,,1,7,43,10,,,,,,up,1.1674301624716463,2713.052288193303,None,001,97,2019_Nov_07_1302,ACPT_experiment_5_30_19,3.1.0,59.95446631799169,
,,,C,U,d,n,R,U,y,L,u,,,,,5,19,119,6,3,0,3,0,,,,,1,8,44,30,,,,,,down,0.6004563467158732,2715.5041535459695,None,001,97,2019_Nov_07_1302,ACPT_experiment_5_30_19,3.1.0,59.95446631799169,
,,,C,U,d,n,L,G,g,L,c ,,,,,5,19,119,6,3,0,3,0,,,,,1,9,45,18,,,,,,up,0.5504130604876991,2717.3889288681094,None,001,97,2019_Nov_07_1302,ACPT_experiment_5_30_19,3.1.0,59.95446631799169,
,,,C,U,d,n,L,U,y,L,u,,,,,5,19,119,6,3,0,3,0,,,,,1,10,46,24,,,,,,down,0.5170666668273043,2719.223673581999,None,001,97,2019_Nov_07_1302,ACPT_experiment_5_30_19,3.1.0,59.95446631799169,
,,,C,U,d,n,R,G,d,L,i,,,,,5,19,119,6,3,0,3,0,,,,,1,11,47,4,,,,,,up,0.600487739793607,2721.0250405091465,None,001,97,2019_Nov_07_1302,ACPT_experiment_5_30_19,3.1.0,59.95446631799169,
,,,C,U,d,n,R,G,g,R,c ,,,,,5,19,119,6,3,0,3,0,,,,,1,12,48,7,,,,,,up,0.8173100839394465,2722.893119240576,None,001,97,2019_Nov_07_1302,ACPT_experiment_5_30_19,3.1.0,59.95446631799169,
,,,C,U,d,n,R,U,y,R,u,,,,,5,19,119,6,3,0,3,0,,,,,1,13,49,31,,,,,,down,0.5670957657985127,2724.994744979522,None,001,97,2019_Nov_07_1302,ACPT_experiment_5_30_19,3.1.0,59.95446631799169,
,,,C,U,d,n,R,U,g,R,u,,,,,5,19,119,6,3,0,3,0,,,,,1,14,50,11,,,,,,up,0.5504595463953592,2726.829462224465,None,001,97,2019_Nov_07_1302,ACPT_experiment_5_30_19,3.1.0,59.95446631799169,
,,,C,U,d,n,R,D,y,L,y,,,,,5,19,119,6,3,0,3,0,,,,,1,15,51,26,,,,,,down,0.5835031779461133,2728.681174294379,None,001,97,2019_Nov_07_1302,ACPT_experiment_5_30_19,3.1.0,59.95446631799169,
,,,C,U,d,n,L,D,y,L,y,,,,,5,19,119,6,3,0,3,0,,,,,1,16,52,32,,,,,,down,0.5003658501245809,2730.5490064090172,None,001,97,2019_Nov_07_1302,ACPT_experiment_5_30_19,3.1.0,59.95446631799169,
,,,C,U,d,n,R,G,y,L,y,,,,,5,19,119,6,3,0,3,0,,,,,1,17,53,28,,,,,,down,0.5170986636203452,2732.333687008577,None,001,97,2019_Nov_07_1302,ACPT_experiment_5_30_19,3.1.0,59.95446631799169,
,,,C,U,d,n,R,U,d,R,u,,,,,5,19,119,6,3,0,3,0,,,,,1,18,54,9,,,,,,up,0.633828700036247,2734.1350705378354,None,001,97,2019_Nov_07_1302,ACPT_experiment_5_30_19,3.1.0,59.95446631799169,
,,,C,U,d,n,L,D,g,L,i,,,,,5,19,119,6,3,0,3,0,,,,,1,19,55,14,,,,,,up,0.5636542994034244,2736.0733019362287,None,001,97,2019_Nov_07_1302,ACPT_experiment_5_30_19,3.1.0,59.95446631799169,
,,,C,U,d,n,R,D,y,R,y,,,,,5,19,119,6,3,0,3,0,,,,,1,20,56,27,,,,,,down,0.46704028456588276,2737.921281851901,None,001,97,2019_Nov_07_1302,ACPT_experiment_5_30_19,3.1.0,59.95446631799169,
,,,C,U,d,n,L,U,d,L,u,,,,,5,19,119,6,3,0,3,0,,,,,1,21,57,20,,,,,,up,0.7505883183948754,2739.672644432316,None,001,97,2019_Nov_07_1302,ACPT_experiment_5_30_19,3.1.0,59.95446631799169,
,,,C,U,d,n,L,G,d,L,i,,,,,5,19,119,6,3,0,3,0,,,,,1,22,58,16,,,,,,up,0.5504163809091551,2741.7075299924654,None,001,97,2019_Nov_07_1302,ACPT_experiment_5_30_19,3.1.0,59.95446631799169,
,,,C,U,d,n,L,G,d,R,i,,,,,5,19,119,6,3,0,3,0,,,,,1,23,59,17,,,,,,down,0.8506148213982669,2743.542299156734,None,001,97,2019_Nov_07_1302,ACPT_experiment_5_30_19,3.1.0,59.95446631799169,
,,,C,U,d,n,L,U,y,R,u,,,,,5,19,119,6,3,0,3,0,,,,,1,24,60,25,,,,,,down,0.5837742451185477,2745.67724321668,None,001,97,2019_Nov_07_1302,ACPT_experiment_5_30_19,3.1.0,59.95446631799169,
,,,C,U,d,n,L,D,y,R,y,,,,,5,19,119,6,3,0,3,0,,,,,1,25,61,33,,,,,,down,0.5668905033508054,2747.562180937639,None,001,97,2019_Nov_07_1302,ACPT_experiment_5_30_19,3.1.0,59.95446631799169,
,,,C,U,d,n,R,D,g,L,i,,,,,5,19,119,6,3,0,3,0,,,,,1,26,62,2,,,,,,up,0.5670812766838935,2749.446798086954,None,001,97,2019_Nov_07_1302,ACPT_experiment_5_30_19,3.1.0,59.95446631799169,
,,,C,U,d,n,L,G,y,L,y,,,,,5,19,119,6,3,0,3,0,,,,,1,27,63,34,,,,,,down,0.6004587615680066,2751.2982267135794,None,001,97,2019_Nov_07_1302,ACPT_experiment_5_30_19,3.1.0,59.95446631799169,
,,,C,U,d,n,L,D,d,L,c ,,,,,5,19,119,6,3,0,3,0,,,,,1,28,64,12,,,,,,down,0.8173103857971,2753.1829537386748,None,001,97,2019_Nov_07_1302,ACPT_experiment_5_30_19,3.1.0,59.95446631799169,
,,,C,U,d,n,L,G,y,R,y,,,,,5,19,119,6,3,0,3,0,,,,,1,29,65,35,,,,,,down,0.6338190406277135,2755.2845830998976,None,001,97,2019_Nov_07_1302,ACPT_experiment_5_30_19,3.1.0,59.95446631799169,
,,,C,U,d,n,R,D,g,R,i,,,,,5,19,119,6,3,0,3,0,,,,,1,30,66,3,,,,,,up,0.5337415238682297,2757.2027180973855,None,001,97,2019_Nov_07_1302,ACPT_experiment_5_30_19,3.1.0,59.95446631799169,
,,,C,U,d,n,L,D,d,R,c ,,,,,5,19,119,6,3,0,3,0,,,,,1,31,67,13,,,,,,up,0.5671027084990783,2759.020774068833,None,001,97,2019_Nov_07_1302,ACPT_experiment_5_30_19,3.1.0,59.95446631799169,
,,,C,U,d,n,R,U,d,L,u,,,,,5,19,119,6,3,0,3,0,,,,,1,32,68,8,,,,,,up,0.867319864091769,2760.872205714024,None,001,97,2019_Nov_07_1302,ACPT_experiment_5_30_19,3.1.0,59.95446631799169,
,,,C,U,d,n,L,U,g,L,u,,,,,5,19,119,6,3,0,3,0,,,,,1,33,69,22,,,,,,up,0.5170576111304399,2763.023836101558,None,001,97,2019_Nov_07_1302,ACPT_experiment_5_30_19,3.1.0,59.95446631799169,
,,,C,U,d,n,L,U,d,R,u,,,,,5,19,119,6,3,0,3,0,,,,,1,34,70,21,,,,,,up,0.5837497947377415,2764.82524377934,None,001,97,2019_Nov_07_1302,ACPT_experiment_5_30_19,3.1.0,59.95446631799169,
,,,C,U,d,n,R,G,y,R,y,,,,,5,19,119,6,3,0,3,0,,,,,1,35,71,29,,,,,,down,0.43366974238415423,2766.693308021657,None,001,97,2019_Nov_07_1302,ACPT_experiment_5_30_19,3.1.0,59.95446631799169,
,,,C,U,d,n,,,,,,,,,,5,19,119,6,4,0,4,0,0,0,0,0,,,,,,,,,,,,,,001,97,2019_Nov_07_1302,ACPT_experiment_5_30_19,3.1.0,59.95446631799169,
,,,C,U,d,n,R,G,d,R,i,,,,,5,19,119,6,4,0,4,0,,,,,0,0,0,5,,,,,,up,0.4803808342821867,2770.7163804261727,None,001,97,2019_Nov_07_1302,ACPT_experiment_5_30_19,3.1.0,59.95446631799169,
,,,C,U,d,n,L,D,g,R,i,,,,,5,19,119,6,4,0,4,0,,,,,0,1,1,15,,,,,,up,0.5337605408294621,2772.481052766938,None,001,97,2019_Nov_07_1302,ACPT_experiment_5_30_19,3.1.0,59.95446631799169,
,,,C,U,d,n,L,G,g,R,c ,,,,,5,19,119,6,4,0,4,0,,,,,0,2,2,19,,,,,,up,0.5170585167015815,2774.299134999903,None,001,97,2019_Nov_07_1302,ACPT_experiment_5_30_19,3.1.0,59.95446631799169,
,,,C,U,d,n,R,U,g,L,u,,,,,5,19,119,6,4,0,4,0,,,,,0,3,3,10,,,,,,up,0.633815418348604,2776.1005124920302,None,001,97,2019_Nov_07_1302,ACPT_experiment_5_30_19,3.1.0,59.95446631799169,
,,,C,U,d,n,L,D,y,L,y,,,,,5,19,119,6,4,0,4,0,,,,,0,4,4,32,,,,,,down,0.49995049552853743,2778.035751586558,None,001,97,2019_Nov_07_1302,ACPT_experiment_5_30_19,3.1.0,59.95446631799169,
,,,C,U,d,n,R,U,y,R,u,,,,,5,19,119,6,4,0,4,0,,,,,0,5,5,31,,,,,,down,0.667202260785416,2779.820005059115,None,001,97,2019_Nov_07_1302,ACPT_experiment_5_30_19,3.1.0,59.95446631799169,
,,,C,U,d,n,L,D,d,R,c ,,,,,5,19,119,6,4,0,4,0,,,,,0,6,6,13,,,,,,up,0.5671048214953771,2781.7715090895035,None,001,97,2019_Nov_07_1302,ACPT_experiment_5_30_19,3.1.0,59.95446631799169,
,,,C,U,d,n,L,G,d,L,i,,,,,5,19,119,6,4,0,4,0,,,,,0,7,7,16,,,,,,down,0.6338395668717567,2783.622918095454,None,001,97,2019_Nov_07_1302,ACPT_experiment_5_30_19,3.1.0,59.95446631799169,
,,,C,U,d,n,R,U,d,R,u,,,,,5,19,119,6,4,0,4,0,,,,,0,8,8,9,,,,,,up,0.46704934026274714,2785.541045244672,None,001,97,2019_Nov_07_1302,ACPT_experiment_5_30_19,3.1.0,59.95446631799169,
,,,C,U,d,n,R,D,g,L,i,,,,,5,19,119,6,4,0,4,0,,,,,0,9,9,2,,,,,,up,0.517051574001016,2787.2924189937785,None,001,97,2019_Nov_07_1302,ACPT_experiment_5_30_19,3.1.0,59.95446631799169,
,,,C,U,d,n,L,G,y,L,y,,,,,5,19,119,6,4,0,4,0,,,,,0,10,10,34,,,,,,down,0.5670963695101818,2789.093785619072,None,001,97,2019_Nov_07_1302,ACPT_experiment_5_30_19,3.1.0,59.95446631799169,
,,,C,U,d,n,R,U,y,L,u,,,,,5,19,119,6,4,0,4,0,,,,,0,11,11,30,,,,,,down,0.4303725634144939,2790.965212241368,None,001,97,2019_Nov_07_1302,ACPT_experiment_5_30_19,3.1.0,59.95446631799169,
,,,C,U,d,n,L,D,g,L,i,,,,,5,19,119,6,4,0,4,0,,,,,0,12,12,14,,,,,,up,0.5504181920496194,2792.6798675574246,None,001,97,2019_Nov_07_1302,ACPT_experiment_5_30_19,3.1.0,59.95446631799169,
,,,C,U,d,n,R,G,y,L,y,,,,,5,19,119,6,4,0,4,0,,,,,0,13,13,28,,,,,,down,0.5337415238682297,2794.514603517473,None,001,97,2019_Nov_07_1302,ACPT_experiment_5_30_19,3.1.0,59.95446631799169,
,,,C,U,d,n,R,U,d,L,u,,,,,5,19,119,6,4,0,4,0,,,,,0,14,14,8,,,,,,up,0.4837166508896189,2796.332642283098,None,001,97,2019_Nov_07_1302,ACPT_experiment_5_30_19,3.1.0,59.95446631799169,
,,,C,U,d,n,L,G,d,R,i,,,,,5,19,119,6,4,0,4,0,,,,,0,15,15,17,,,,,,up,0.5501456155943742,2798.11763228561,None,001,97,2019_Nov_07_1302,ACPT_experiment_5_30_19,3.1.0,59.95446631799169,
,,,C,U,d,n,L,U,d,R,u,,,,,5,19,119,6,4,0,4,0,,,,,0,16,16,21,,,,,,down,0.6338356427368126,2799.9520709169683,None,001,97,2019_Nov_07_1302,ACPT_experiment_5_30_19,3.1.0,59.95446631799169,
,,,C,U,d,n,L,U,g,L,u,,,,,5,19,119,6,4,0,4,0,,,,,0,17,17,22,,,,,,up,0.533710734500346,2801.8702487780847,None,001,97,2019_Nov_07_1302,ACPT_experiment_5_30_19,3.1.0,59.95446631799169,
,,,C,U,d,n,R,D,y,R,y,,,,,5,19,119,6,4,0,4,0,,,,,0,18,18,27,,,,,,down,0.6004723451114842,2803.7049415726487,None,001,97,2019_Nov_07_1302,ACPT_experiment_5_30_19,3.1.0,59.95446631799169,
,,,C,U,d,n,L,U,g,R,u,,,,,5,19,119,6,4,0,4,0,,,,,0,19,19,23,,,,,,up,0.6171734636718611,2805.6063977889607,None,001,97,2019_Nov_07_1302,ACPT_experiment_5_30_19,3.1.0,59.95446631799169,
,,,C,U,d,n,R,U,g,R,u,,,,,5,19,119,6,4,0,4,0,,,,,0,20,20,11,,,,,,up,0.4837015580633306,2807.5078781537977,None,001,97,2019_Nov_07_1302,ACPT_experiment_5_30_19,3.1.0,59.95446631799169,
,,,C,U,d,n,R,G,g,L,c ,,,,,5,19,119,6,4,0,4,0,,,,,0,21,21,6,,,,,,up,0.4837407994127716,2809.2758917445863,None,001,97,2019_Nov_07_1302,ACPT_experiment_5_30_19,3.1.0,59.95446631799169,
,,,C,U,d,n,L,G,g,L,c ,,,,,5,19,119,6,4,0,4,0,,,,,0,22,22,18,,,,,,up,0.5166682161961944,2811.0610112435515,None,001,97,2019_Nov_07_1302,ACPT_experiment_5_30_19,3.1.0,59.95446631799169,
,,,C,U,d,n,L,U,y,R,u,,,,,5,19,119,6,4,0,4,0,,,,,0,23,23,25,,,,,,down,0.6671681509960763,2812.8619712680866,None,001,97,2019_Nov_07_1302,ACPT_experiment_5_30_19,3.1.0,59.95446631799169,
,,,C,U,d,n,R,D,y,L,y,,,,,5,19,119,6,4,0,4,0,,,,,0,24,24,26,,,,,,down,0.7672867202436464,2814.830122082858,None,001,97,2019_Nov_07_1302,ACPT_experiment_5_30_19,3.1.0,59.95446631799169,
,,,C,U,d,n,L,D,d,L,c ,,,,,5,19,119,6,4,0,4,0,,,,,0,25,25,12,,,,,,up,0.6338256814724446,2816.8983975040082,None,001,97,2019_Nov_07_1302,ACPT_experiment_5_30_19,3.1.0,59.95446631799169,
,,,C,U,d,n,L,U,y,L,u,,,,,5,19,119,6,4,0,4,0,,,,,0,26,26,24,,,,,,down,0.5337415238682297,2818.8165231439434,None,001,97,2019_Nov_07_1302,ACPT_experiment_5_30_19,3.1.0,59.95446631799169,
,,,C,U,d,n,R,G,y,R,y,,,,,5,19,119,6,4,0,4,0,,,,,0,27,27,29,,,,,,down,0.5170585167015815,2820.634604471341,None,001,97,2019_Nov_07_1302,ACPT_experiment_5_30_19,3.1.0,59.95446631799169,
,,,C,U,d,n,R,G,g,R,c ,,,,,5,19,119,6,4,0,4,0,,,,,0,28,28,7,,,,,,up,0.5671033122125664,2822.4359611353666,None,001,97,2019_Nov_07_1302,ACPT_experiment_5_30_19,3.1.0,59.95446631799169,
,,,C,U,d,n,R,D,d,R,c ,,,,,5,19,119,6,4,0,4,0,,,,,0,29,29,1,,,,,,up,0.5470905255697289,2824.30738292796,None,001,97,2019_Nov_07_1302,ACPT_experiment_5_30_19,3.1.0,59.95446631799169,
,,,C,U,d,n,L,G,y,R,y,,,,,5,19,119,6,4,0,4,0,,,,,0,30,30,35,,,,,,down,0.5837796785344835,2826.1387969568023,None,001,97,2019_Nov_07_1302,ACPT_experiment_5_30_19,3.1.0,59.95446631799169,
,,,C,U,d,n,R,D,d,L,c,,,,,5,19,119,6,4,0,4,0,,,,,0,31,31,0,,,,,,down,0.7839479937392753,2828.006871462241,None,001,97,2019_Nov_07_1302,ACPT_experiment_5_30_19,3.1.0,59.95446631799169,
,,,C,U,d,n,R,D,g,R,i,,,,,5,19,119,6,4,0,4,0,,,,,0,32,32,3,,,,,,up,0.6505168387648155,2830.075139940691,None,001,97,2019_Nov_07_1302,ACPT_experiment_5_30_19,3.1.0,59.95446631799169,
,,,C,U,d,n,L,U,d,L,u,,,,,5,19,119,6,4,0,4,0,,,,,0,33,33,20,,,,,,up,0.7005447303090477,2832.009948285937,None,001,97,2019_Nov_07_1302,ACPT_experiment_5_30_19,3.1.0,59.95446631799169,
,,,C,U,d,n,R,G,d,L,i,,,,,5,19,119,6,4,0,4,0,,,,,0,34,34,4,,,,,,up,0.5504314737354434,2833.9948032378343,None,001,97,2019_Nov_07_1302,ACPT_experiment_5_30_19,3.1.0,59.95446631799169,
,,,C,U,d,n,L,D,y,R,y,,,,,5,19,119,6,4,0,4,0,,,,,0,35,35,33,,,,,,down,0.7672514030291495,2835.829550366574,None,001,97,2019_Nov_07_1302,ACPT_experiment_5_30_19,3.1.0,59.95446631799169,
,,,C,U,d,n,R,G,g,R,c ,,,,,5,19,119,6,4,0,4,0,,,,,1,0,36,7,,,,,,up,0.600458459710353,2837.8811122930474,None,001,97,2019_Nov_07_1302,ACPT_experiment_5_30_19,3.1.0,59.95446631799169,
,,,C,U,d,n,R,G,g,L,c ,,,,,5,19,119,6,4,0,4,0,,,,,1,1,37,6,,,,,,up,0.5337357885946403,2839.7492082302997,None,001,97,2019_Nov_07_1302,ACPT_experiment_5_30_19,3.1.0,59.95446631799169,
,,,C,U,d,n,L,U,d,L,u,,,,,5,19,119,6,4,0,4,0,,,,,1,2,38,20,,,,,,up,0.4503605978206906,2841.567268427738,None,001,97,2019_Nov_07_1302,ACPT_experiment_5_30_19,3.1.0,59.95446631799169,
,,,C,U,d,n,L,U,y,R,u,,,,,5,19,119,6,4,0,4,0,,,,,1,3,39,25,,,,,,down,0.5304048016932938,2843.3219432799488,None,001,97,2019_Nov_07_1302,ACPT_experiment_5_30_19,3.1.0,59.95446631799169,
,,,C,U,d,n,L,G,g,L,c ,,,,,5,19,119,6,4,0,4,0,,,,,1,4,40,18,,,,,,up,0.500379735525712,2845.1366607180807,None,001,97,2019_Nov_07_1302,ACPT_experiment_5_30_19,3.1.0,59.95446631799169,
,,,C,U,d,n,L,G,y,R,y,,,,,5,19,119,6,4,0,4,0,,,,,1,5,41,35,,,,,,down,0.617133618607113,2846.938044549195,None,001,97,2019_Nov_07_1302,ACPT_experiment_5_30_19,3.1.0,59.95446631799169,
,,,C,U,d,n,R,G,d,R,i,,,,,5,19,119,6,4,0,4,0,,,,,1,6,42,5,,,,,,up,0.6505041607906605,2848.8561931302283,None,001,97,2019_Nov_07_1302,ACPT_experiment_5_30_19,3.1.0,59.95446631799169,
,,,C,U,d,n,R,D,y,L,y,,,,,5,19,119,6,4,0,4,0,,,,,1,7,43,26,,,,,,down,0.5337695965263265,2850.7909848733652,None,001,97,2019_Nov_07_1302,ACPT_experiment_5_30_19,3.1.0,59.95446631799169,
,,,C,U,d,n,R,U,g,L,u,,,,,5,19,119,6,4,0,4,0,,,,,1,8,44,10,,,,,,up,0.7338923313945998,2852.609046881942,None,001,97,2019_Nov_07_1302,ACPT_experiment_5_30_19,3.1.0,59.95446631799169,
,,,C,U,d,n,L,D,y,L,y,,,,,5,19,119,6,4,0,4,0,,,,,1,9,45,32,,,,,,down,0.5170618371230375,2854.627254566485,None,001,97,2019_Nov_07_1302,ACPT_experiment_5_30_19,3.1.0,59.95446631799169,
,,,C,U,d,n,L,G,y,L,y,,,,,5,19,119,6,4,0,4,0,,,,,1,10,46,34,,,,,,down,0.5835910181976942,2856.462143869656,None,001,97,2019_Nov_07_1302,ACPT_experiment_5_30_19,3.1.0,59.95446631799169,
,,,C,U,d,n,R,D,y,R,y,,,,,5,19,119,6,4,0,4,0,,,,,1,11,47,27,,,,,,down,0.5337369960197975,2858.346768867241,None,001,97,2019_Nov_07_1302,ACPT_experiment_5_30_19,3.1.0,59.95446631799169,
,,,C,U,d,n,R,D,g,R,i,,,,,5,19,119,6,4,0,4,0,,,,,1,12,48,3,,,,,,up,0.5671011992162676,2860.1648281591097,None,001,97,2019_Nov_07_1302,ACPT_experiment_5_30_19,3.1.0,59.95446631799169,
,,,C,U,d,n,L,G,g,R,c ,,,,,5,19,119,6,4,0,4,0,,,,,1,13,49,19,,,,,,up,0.60046117642014,2862.016241692907,None,001,97,2019_Nov_07_1302,ACPT_experiment_5_30_19,3.1.0,59.95446631799169,
,,,C,U,d,n,L,D,y,R,y,,,,,5,19,119,6,4,0,4,0,,,,,1,14,50,33,,,,,,down,0.5502370781250647,2863.9178506486296,None,001,97,2019_Nov_07_1302,ACPT_experiment_5_30_19,3.1.0,59.95446631799169,
,,,C,U,d,n,R,D,g,L,i,,,,,5,19,119,6,4,0,4,0,,,,,1,15,51,2,,,,,,up,0.6838505544510554,2865.7691171782935,None,001,97,2019_Nov_07_1302,ACPT_experiment_5_30_19,3.1.0,59.95446631799169,
,,,C,U,d,n,R,G,d,L,i,,,,,5,19,119,6,4,0,4,0,,,,,1,16,52,4,,,,,,up,0.6171266759065475,2867.7372867081704,None,001,97,2019_Nov_07_1302,ACPT_experiment_5_30_19,3.1.0,59.95446631799169,
,,,C,U,d,n,R,U,y,L,u,,,,,5,19,119,6,4,0,4,0,,,,,1,17,53,30,,,,,,down,0.4831721016944357,2869.6558213637145,None,001,97,2019_Nov_07_1302,ACPT_experiment_5_30_19,3.1.0,59.95446631799169,
,,,C,U,d,n,L,D,d,R,c ,,,,,5,19,119,6,4,0,4,0,,,,,1,18,54,13,,,,,,up,0.7505717162839574,2871.4234365038737,None,001,97,2019_Nov_07_1302,ACPT_experiment_5_30_19,3.1.0,59.95446631799169,
,,,C,U,d,n,R,U,d,R,u,,,,,5,19,119,6,4,0,4,0,,,,,1,19,55,9,,,,,,up,0.8006180210777529,2873.441646905125,None,001,97,2019_Nov_07_1302,ACPT_experiment_5_30_19,3.1.0,59.95446631799169,
,,,C,U,d,n,R,G,y,R,y,,,,,5,19,119,6,4,0,4,0,,,,,1,20,56,29,,,,,,down,0.6838562897246447,2875.5265763552143,None,001,97,2019_Nov_07_1302,ACPT_experiment_5_30_19,3.1.0,59.95446631799169,
,,,C,U,d,n,R,D,d,L,c,,,,,5,19,119,6,4,0,4,0,,,,,1,21,57,0,,,,,,up,0.5504193994747766,2877.494753733361,None,001,97,2019_Nov_07_1302,ACPT_experiment_5_30_19,3.1.0,59.95446631799169,
,,,C,U,d,n,R,U,y,R,u,,,,,5,19,119,6,4,0,4,0,,,,,1,22,58,31,,,,,,down,0.550395854665112,2879.3295035788105,None,001,97,2019_Nov_07_1302,ACPT_experiment_5_30_19,3.1.0,59.95446631799169,
,,,C,U,d,n,L,U,g,L,u,,,,,5,19,119,6,4,0,4,0,,,,,1,23,59,22,,,,,,up,0.5837814896731288,2881.164225049746,None,001,97,2019_Nov_07_1302,ACPT_experiment_5_30_19,3.1.0,59.95446631799169,
,,,C,U,d,n,L,G,d,R,i,,,,,5,19,119,6,4,0,4,0,,,,,1,24,60,17,,,,,,up,0.6336014020635048,2883.049221029016,None,001,97,2019_Nov_07_1302,ACPT_experiment_5_30_19,3.1.0,59.95446631799169,
,,,C,U,d,n,L,D,g,R,i,,,,,5,19,119,6,4,0,4,0,,,,,1,25,61,15,,,,,,up,0.5170730058162007,2884.9671290303886,None,001,97,2019_Nov_07_1302,ACPT_experiment_5_30_19,3.1.0,59.95446631799169,
,,,C,U,d,n,R,D,d,R,c ,,,,,5,19,119,6,4,0,4,0,,,,,1,26,62,1,,,,,,up,0.6004560448582197,2886.768516785638,None,001,97,2019_Nov_07_1302,ACPT_experiment_5_30_19,3.1.0,59.95446631799169,
,,,C,U,d,n,R,U,d,L,u,,,,,5,19,119,6,4,0,4,0,,,,,1,27,63,8,,,,,,up,0.5837769618265156,2888.6532821465134,None,001,97,2019_Nov_07_1302,ACPT_experiment_5_30_19,3.1.0,59.95446631799169,
,,,C,U,d,n,L,G,d,L,i,,,,,5,19,119,6,4,0,4,0,,,,,1,28,64,16,,,,,,up,0.5170551962783065,2890.5213850264663,None,001,97,2019_Nov_07_1302,ACPT_experiment_5_30_19,3.1.0,59.95446631799169,
,,,C,U,d,n,L,U,g,R,u,,,,,5,19,119,6,4,0,4,0,,,,,1,29,65,23,,,,,,up,0.6338172294872493,2892.322762216738,None,001,97,2019_Nov_07_1302,ACPT_experiment_5_30_19,3.1.0,59.95446631799169,
,,,C,U,d,n,R,G,y,L,y,,,,,5,19,119,6,4,0,4,0,,,,,1,30,66,28,,,,,,down,0.6671720751292014,2894.240895704943,None,001,97,2019_Nov_07_1302,ACPT_experiment_5_30_19,3.1.0,59.95446631799169,
,,,C,U,d,n,R,U,g,R,u,,,,,5,19,119,6,4,0,4,0,,,,,1,31,67,11,,,,,,up,0.5001038386490109,2896.2093498855356,None,001,97,2019_Nov_07_1302,ACPT_experiment_5_30_19,3.1.0,59.95446631799169,
,,,C,U,d,n,L,U,d,R,u,,,,,5,19,119,6,4,0,4,0,,,,,1,32,68,21,,,,,,up,0.5838107697582018,2897.9937714921853,None,001,97,2019_Nov_07_1302,ACPT_experiment_5_30_19,3.1.0,59.95446631799169,
,,,C,U,d,n,L,D,g,L,i,,,,,5,19,119,6,4,0,4,0,,,,,1,33,69,14,,,,,,up,0.5337668798165396,2899.8618638071584,None,001,97,2019_Nov_07_1302,ACPT_experiment_5_30_19,3.1.0,59.95446631799169,
,,,C,U,d,n,L,U,y,L,u,,,,,5,19,119,6,4,0,4,0,,,,,1,34,70,24,,,,,,down,0.7005408061741036,2901.6965837688113,None,001,97,2019_Nov_07_1302,ACPT_experiment_5_30_19,3.1.0,59.95446631799169,
,,,C,U,d,n,L,D,d,L,c ,,,,,5,19,119,6,4,0,4,0,,,,,1,35,71,12,,,,,,up,0.5504498869850067,2903.698131085428,None,001,97,2019_Nov_07_1302,ACPT_experiment_5_30_19,3.1.0,59.95446631799169,
,,,C,U,d,n,,,,,,,,,,5,19,119,6,5,0,5,0,0,0,0,0,,,,,,,,,,,,,,001,97,2019_Nov_07_1302,ACPT_experiment_5_30_19,3.1.0,59.95446631799169,
,,,C,U,d,n,L,U,g,R,u,,,,,5,19,119,6,5,0,5,0,,,,,0,0,0,23,,,,,,up,0.5304192908060941,2955.1074570035544,None,001,97,2019_Nov_07_1302,ACPT_experiment_5_30_19,3.1.0,59.95446631799169,
,,,C,U,d,n,R,G,y,L,y,,,,,5,19,119,6,5,0,5,0,,,,,0,1,1,28,,,,,,down,0.633818738771879,2956.922189232657,None,001,97,2019_Nov_07_1302,ACPT_experiment_5_30_19,3.1.0,59.95446631799169,
,,,C,U,d,n,L,D,y,L,y,,,,,5,19,119,6,5,0,5,0,,,,,0,2,2,32,,,,,,down,0.6672104109111388,2958.8403209097232,None,001,97,2019_Nov_07_1302,ACPT_experiment_5_30_19,3.1.0,59.95446631799169,
,,,C,U,d,n,R,G,g,L,c ,,,,,5,19,119,6,5,0,5,0,,,,,0,3,3,6,,,,,,up,0.5838273718691198,2960.7918074324316,None,001,97,2019_Nov_07_1302,ACPT_experiment_5_30_19,3.1.0,59.95446631799169,
,,,C,U,d,n,R,U,g,R,u,,,,,5,19,119,6,5,0,5,0,,,,,0,4,4,11,,,,,,up,0.4670176453255408,2962.6599136328077,None,001,97,2019_Nov_07_1302,ACPT_experiment_5_30_19,3.1.0,59.95446631799169,
,,,C,U,d,n,R,U,d,R,u,,,,,5,19,119,6,5,0,5,0,,,,,0,5,5,9,,,,,,down,0.6338359445944661,2964.4112330477365,None,001,97,2019_Nov_07_1302,ACPT_experiment_5_30_19,3.1.0,59.95446631799169,
,,,C,U,d,n,L,D,d,L,c ,,,,,5,19,119,6,5,0,5,0,,,,,0,6,6,12,,,,,,up,0.6338232666203112,2966.3293855529046,None,001,97,2019_Nov_07_1302,ACPT_experiment_5_30_19,3.1.0,59.95446631799169,
,,,C,U,d,n,R,D,g,R,i,,,,,5,19,119,6,5,0,5,0,,,,,0,7,7,3,,,,,,up,0.5804441637847049,2968.2675393741665,None,001,97,2019_Nov_07_1302,ACPT_experiment_5_30_19,3.1.0,59.95446631799169,
,,,C,U,d,n,L,G,g,R,c ,,,,,5,19,119,6,5,0,5,0,,,,,0,8,8,19,,,,,,up,0.4170063558904076,2970.1322798741385,None,001,97,2019_Nov_07_1302,ACPT_experiment_5_30_19,3.1.0,59.95446631799169,
,,,C,U,d,n,R,U,y,L,u,,,,,5,19,119,6,5,0,5,0,,,,,0,9,9,30,,,,,,down,0.5504372090090328,2971.8335819625026,None,001,97,2019_Nov_07_1302,ACPT_experiment_5_30_19,3.1.0,59.95446631799169,
,,,C,U,d,n,L,G,d,R,i,,,,,5,19,119,6,5,0,5,0,,,,,0,10,10,17,,,,,,up,0.6337942883910728,2973.6683571639005,None,001,97,2019_Nov_07_1302,ACPT_experiment_5_30_19,3.1.0,59.95446631799169,
,,,C,U,d,n,R,G,y,R,y,,,,,5,19,119,6,5,0,5,0,,,,,0,11,11,29,,,,,,down,0.5503931379553251,2975.619847007032,None,001,97,2019_Nov_07_1302,ACPT_experiment_5_30_19,3.1.0,59.95446631799169,
,,,C,U,d,n,L,D,g,R,i,,,,,5,19,119,6,5,0,5,0,,,,,0,12,12,15,,,,,,down,0.40031700973668194,2977.471253296273,None,001,97,2019_Nov_07_1302,ACPT_experiment_5_30_19,3.1.0,59.95446631799169,
,,,C,U,d,n,R,D,y,L,y,,,,,5,19,119,6,5,0,5,0,,,,,0,13,13,26,,,,,,down,0.6338178332007374,2979.155872075613,None,001,97,2019_Nov_07_1302,ACPT_experiment_5_30_19,3.1.0,59.95446631799169,
,,,C,U,d,n,R,D,d,R,c ,,,,,5,19,119,6,5,0,5,0,,,,,0,14,14,1,,,,,,up,0.533759937117793,2981.057303841546,None,001,97,2019_Nov_07_1302,ACPT_experiment_5_30_19,3.1.0,59.95446631799169,
,,,C,U,d,n,L,G,y,R,y,,,,,5,19,119,6,5,0,5,0,,,,,0,15,15,35,,,,,,down,0.633363840966922,2982.8924856437025,None,001,97,2019_Nov_07_1302,ACPT_experiment_5_30_19,3.1.0,59.95446631799169,
,,,C,U,d,n,L,D,d,R,c ,,,,,5,19,119,6,5,0,5,0,,,,,0,16,16,13,,,,,,up,0.550415777195667,2984.8101974383244,None,001,97,2019_Nov_07_1302,ACPT_experiment_5_30_19,3.1.0,59.95446631799169,
,,,C,U,d,n,L,U,y,R,u,,,,,5,19,119,6,5,0,5,0,,,,,0,17,17,25,,,,,,down,0.5837742451167287,2986.644935511369,None,001,97,2019_Nov_07_1302,ACPT_experiment_5_30_19,3.1.0,59.95446631799169,
,,,C,U,d,n,L,G,y,L,y,,,,,5,19,119,6,5,0,5,0,,,,,0,18,18,34,,,,,,down,0.7005239022073511,2988.513036882039,None,001,97,2019_Nov_07_1302,ACPT_experiment_5_30_19,3.1.0,59.95446631799169,
,,,C,U,d,n,L,U,d,R,u,,,,,5,19,119,6,5,0,5,0,,,,,0,19,19,21,,,,,,up,0.5504175883361313,2990.4978815708128,None,001,97,2019_Nov_07_1302,ACPT_experiment_5_30_19,3.1.0,59.95446631799169,
,,,C,U,d,n,L,G,d,L,i,,,,,5,19,119,6,5,0,5,0,,,,,0,20,20,16,,,,,,down,0.5504187957612885,2992.3326211531403,None,001,97,2019_Nov_07_1302,ACPT_experiment_5_30_19,3.1.0,59.95446631799169,
,,,C,U,d,n,R,U,y,R,u,,,,,5,19,119,6,5,0,5,0,,,,,0,21,21,31,,,,,,down,0.700448136218256,2994.1673293423864,None,001,97,2019_Nov_07_1302,ACPT_experiment_5_30_19,3.1.0,59.95446631799169,
,,,C,U,d,n,R,G,d,R,i,,,,,5,19,119,6,5,0,5,0,,,,,0,22,22,5,,,,,,up,0.6001650551552302,2996.1691824396767,None,001,97,2019_Nov_07_1302,ACPT_experiment_5_30_19,3.1.0,59.95446631799169,
,,,C,U,d,n,R,D,d,L,c,,,,,5,19,119,6,5,0,5,0,,,,,0,23,23,0,,,,,,up,0.717218379922997,2998.0536655646883,None,001,97,2019_Nov_07_1302,ACPT_experiment_5_30_19,3.1.0,59.95446631799169,
,,,C,U,d,n,R,U,d,L,u,,,,,5,19,119,6,5,0,5,0,,,,,0,24,24,8,,,,,,up,0.6171638042615086,3000.0551679046803,None,001,97,2019_Nov_07_1302,ACPT_experiment_5_30_19,3.1.0,59.95446631799169,
,,,C,U,d,n,L,D,g,L,i,,,,,5,19,119,6,5,0,5,0,,,,,0,25,25,14,,,,,,up,0.5670960676561663,3001.956652495508,None,001,97,2019_Nov_07_1302,ACPT_experiment_5_30_19,3.1.0,59.95446631799169,
,,,C,U,d,n,L,D,y,R,y,,,,,5,19,119,6,5,0,5,0,,,,,0,26,26,33,,,,,,down,0.6671675472825882,3003.808076594285,None,001,97,2019_Nov_07_1302,ACPT_experiment_5_30_19,3.1.0,59.95446631799169,
,,,C,U,d,n,R,U,g,L,u,,,,,5,19,119,6,5,0,5,0,,,,,0,27,27,10,,,,,,up,0.6171242610544141,3005.7595691541246,None,001,97,2019_Nov_07_1302,ACPT_experiment_5_30_19,3.1.0,59.95446631799169,
,,,C,U,d,n,L,U,d,L,u,,,,,5,19,119,6,5,0,5,0,,,,,0,28,28,20,,,,,,up,0.5337454480031738,3007.6610114850373,None,001,97,2019_Nov_07_1302,ACPT_experiment_5_30_19,3.1.0,59.95446631799169,
,,,C,U,d,n,R,G,d,L,i,,,,,5,19,119,6,5,0,5,0,,,,,0,29,29,4,,,,,,up,0.6138026317057665,3009.4990781301312,None,001,97,2019_Nov_07_1302,ACPT_experiment_5_30_19,3.1.0,59.95446631799169,
,,,C,U,d,n,L,G,g,L,c ,,,,,5,19,119,6,5,0,5,0,,,,,0,30,30,18,,,,,,up,0.5504187957612885,3011.3972060762517,None,001,97,2019_Nov_07_1302,ACPT_experiment_5_30_19,3.1.0,59.95446631799169,
,,,C,U,d,n,L,U,y,L,u,,,,,5,19,119,6,5,0,5,0,,,,,0,31,31,24,,,,,,down,0.6004599689931638,3013.2319438474387,None,001,97,2019_Nov_07_1302,ACPT_experiment_5_30_19,3.1.0,59.95446631799169,
,,,C,U,d,n,R,G,g,R,c ,,,,,5,19,119,6,5,0,5,0,,,,,0,32,32,7,,,,,,up,0.6004587615680066,3015.1167152454454,None,001,97,2019_Nov_07_1302,ACPT_experiment_5_30_19,3.1.0,59.95446631799169,
,,,C,U,d,n,L,U,g,L,u,,,,,5,19,119,6,5,0,5,0,,,,,0,33,33,22,,,,,,up,0.7005386931796238,3017.0014914731564,None,001,97,2019_Nov_07_1302,ACPT_experiment_5_30_19,3.1.0,59.95446631799169,
,,,C,U,d,n,R,D,g,L,i,,,,,5,19,119,6,5,0,5,0,,,,,0,34,34,2,,,,,,up,0.6672025626412506,3018.9863482361925,None,001,97,2019_Nov_07_1302,ACPT_experiment_5_30_19,3.1.0,59.95446631799169,
,,,C,U,d,n,R,D,y,R,y,,,,,5,19,119,6,5,0,5,0,,,,,0,35,35,27,,,,,,down,0.7339231207606645,3020.937813930799,None,001,97,2019_Nov_07_1302,ACPT_experiment_5_30_19,3.1.0,59.95446631799169,
,,,C,U,d,n,L,G,y,R,y,,,,,5,19,119,6,5,0,5,0,,,,,1,0,36,35,,,,,,down,0.5504369071531983,3022.9560575362702,None,001,97,2019_Nov_07_1302,ACPT_experiment_5_30_19,3.1.0,59.95446631799169,
,,,C,U,d,n,R,G,g,L,c ,,,,,5,19,119,6,5,0,5,0,,,,,1,1,37,6,,,,,,up,0.5337865004930791,3024.7907820257715,None,001,97,2019_Nov_07_1302,ACPT_experiment_5_30_19,3.1.0,59.95446631799169,
,,,C,U,d,n,L,G,g,R,c ,,,,,5,19,119,6,5,0,5,0,,,,,1,2,38,19,,,,,,up,0.967424547940027,3026.608844638062,None,001,97,2019_Nov_07_1302,ACPT_experiment_5_30_19,3.1.0,59.95446631799169,
,,,C,U,d,n,R,U,g,R,u,,,,,5,19,119,6,5,0,5,0,,,,,1,3,39,11,,,,,,up,0.6502300750526047,3028.8775183890994,None,001,97,2019_Nov_07_1302,ACPT_experiment_5_30_19,3.1.0,59.95446631799169,
,,,C,U,d,n,R,G,y,L,y,,,,,5,19,119,6,5,0,5,0,,,,,1,4,40,28,,,,,,down,0.6838656472773437,3030.8120520448974,None,001,97,2019_Nov_07_1302,ACPT_experiment_5_30_19,3.1.0,59.95446631799169,
,,,C,U,d,n,R,U,d,L,u,,,,,5,19,119,6,5,0,5,0,,,,,1,5,41,8,,,,,,down,0.7172373968860484,3032.7802342527484,None,001,97,2019_Nov_07_1302,ACPT_experiment_5_30_19,3.1.0,59.95446631799169,
,,,C,U,d,n,R,D,g,R,i,,,,,5,19,119,6,5,0,5,0,,,,,1,6,42,3,,,,,,up,0.6671747918389883,3034.781764363541,None,001,97,2019_Nov_07_1302,ACPT_experiment_5_30_19,3.1.0,59.95446631799169,
,,,C,U,d,n,R,G,d,R,i,,,,,5,19,119,6,5,0,5,0,,,,,1,7,43,5,,,,,,up,0.5504227198962326,3036.7332517918203,None,001,97,2019_Nov_07_1302,ACPT_experiment_5_30_19,3.1.0,59.95446631799169,
,,,C,U,d,n,L,U,d,L,u,,,,,5,19,119,6,5,0,5,0,,,,,1,8,44,20,,,,,,up,0.8506507423262519,3038.5679974112772,None,001,97,2019_Nov_07_1302,ACPT_experiment_5_30_19,3.1.0,59.95446631799169,
,,,C,U,d,n,R,G,d,L,i,,,,,5,19,119,6,5,0,5,0,,,,,1,9,45,4,,,,,,up,0.650513820199194,3040.7029665253176,None,001,97,2019_Nov_07_1302,ACPT_experiment_5_30_19,3.1.0,59.95446631799169,
,,,C,U,d,n,L,G,g,L,c ,,,,,5,19,119,6,5,0,5,0,,,,,1,10,46,18,,,,,,up,0.6338072682228812,3042.637780605837,None,001,97,2019_Nov_07_1302,ACPT_experiment_5_30_19,3.1.0,59.95446631799169,
,,,C,U,d,n,R,U,y,L,u,,,,,5,19,119,6,5,0,5,0,,,,,1,11,47,30,,,,,,down,0.6838692695546342,3044.5725687266968,None,001,97,2019_Nov_07_1302,ACPT_experiment_5_30_19,3.1.0,59.95446631799169,
,,,C,U,d,n,R,D,d,R,c ,,,,,5,19,119,6,5,0,5,0,,,,,1,12,48,1,,,,,,up,0.5503988732289145,3046.5574493363983,None,001,97,2019_Nov_07_1302,ACPT_experiment_5_30_19,3.1.0,59.95446631799169,
,,,C,U,d,n,L,D,y,R,y,,,,,5,19,119,6,5,0,5,0,,,,,1,13,49,33,,,,,,down,0.5504169846226432,3048.392178655604,None,001,97,2019_Nov_07_1302,ACPT_experiment_5_30_19,3.1.0,59.95446631799169,
,,,C,U,d,n,R,D,y,R,y,,,,,5,19,119,6,5,0,5,0,,,,,1,14,50,27,,,,,,down,0.4503506365545036,3050.2269040506726,None,001,97,2019_Nov_07_1302,ACPT_experiment_5_30_19,3.1.0,59.95446631799169,
,,,C,U,d,n,L,U,g,L,u,,,,,5,19,119,6,5,0,5,0,,,,,1,15,51,22,,,,,,up,0.6504948032379616,3051.961591472191,None,001,97,2019_Nov_07_1302,ACPT_experiment_5_30_19,3.1.0,59.95446631799169,
,,,C,U,d,n,L,D,y,L,y,,,,,5,19,119,6,5,0,5,0,,,,,1,16,52,32,,,,,,down,0.5667413862229296,3053.913414263083,None,001,97,2019_Nov_07_1302,ACPT_experiment_5_30_19,3.1.0,59.95446631799169,
,,,C,U,d,n,L,U,y,L,u,,,,,5,19,119,6,5,0,5,0,,,,,1,17,53,24,,,,,,down,0.6004608745624864,3055.764485793423,None,001,97,2019_Nov_07_1302,ACPT_experiment_5_30_19,3.1.0,59.95446631799169,
,,,C,U,d,n,R,U,y,R,u,,,,,5,19,119,6,5,0,5,0,,,,,1,18,54,31,,,,,,down,0.6171635024056741,3057.6325557710134,None,001,97,2019_Nov_07_1302,ACPT_experiment_5_30_19,3.1.0,59.95446631799169,
,,,C,U,d,n,L,G,y,L,y,,,,,5,19,119,6,5,0,5,0,,,,,1,19,55,34,,,,,,down,0.6505129146298714,3059.5340590769465,None,001,97,2019_Nov_07_1302,ACPT_experiment_5_30_19,3.1.0,59.95446631799169,
,,,C,U,d,n,L,D,g,L,i,,,,,5,19,119,6,5,0,5,0,,,,,1,20,56,14,,,,,,up,0.6338145127792814,3061.4688490089447,None,001,97,2019_Nov_07_1302,ACPT_experiment_5_30_19,3.1.0,59.95446631799169,
,,,C,U,d,n,R,U,d,R,u,,,,,5,19,119,6,5,0,5,0,,,,,1,21,57,9,,,,,,up,0.5337379015891202,3063.386988534281,None,001,97,2019_Nov_07_1302,ACPT_experiment_5_30_19,3.1.0,59.95446631799169,
,,,C,U,d,n,L,U,d,R,u,,,,,5,19,119,6,5,0,5,0,,,,,1,22,58,21,,,,,,up,0.8339746778583503,3065.2050396760224,None,001,97,2019_Nov_07_1302,ACPT_experiment_5_30_19,3.1.0,59.95446631799169,
,,,C,U,d,n,L,U,g,R,u,,,,,5,19,119,6,5,0,5,0,,,,,1,23,59,23,,,,,,up,0.5838331071427092,3067.306632210748,None,001,97,2019_Nov_07_1302,ACPT_experiment_5_30_19,3.1.0,59.95446631799169,
,,,C,U,d,n,L,D,g,R,i,,,,,5,19,119,6,5,0,5,0,,,,,1,24,60,15,,,,,,up,0.583808656763722,3069.174742637115,None,001,97,2019_Nov_07_1302,ACPT_experiment_5_30_19,3.1.0,59.95446631799169,
,,,C,U,d,n,R,G,g,R,c ,,,,,5,19,119,6,5,0,5,0,,,,,1,25,61,7,,,,,,up,0.5837730376915715,3071.0428434040714,None,001,97,2019_Nov_07_1302,ACPT_experiment_5_30_19,3.1.0,59.95446631799169,
,,,C,U,d,n,R,D,y,L,y,,,,,5,19,119,6,5,0,5,0,,,,,1,26,62,26,,,,,,down,0.5334828328159347,3072.9278740968457,None,001,97,2019_Nov_07_1302,ACPT_experiment_5_30_19,3.1.0,59.95446631799169,
,,,C,U,d,n,L,G,d,L,i,,,,,5,19,119,6,5,0,5,0,,,,,1,27,63,16,,,,,,up,0.6504954069514497,3074.7456710753813,None,001,97,2019_Nov_07_1302,ACPT_experiment_5_30_19,3.1.0,59.95446631799169,
,,,C,U,d,n,R,D,g,L,i,,,,,5,19,119,6,5,0,5,0,,,,,1,28,64,2,,,,,,up,0.5337369960197975,3076.6804881744683,None,001,97,2019_Nov_07_1302,ACPT_experiment_5_30_19,3.1.0,59.95446631799169,
,,,C,U,d,n,L,G,d,R,i,,,,,5,19,119,6,5,0,5,0,,,,,1,29,65,17,,,,,,up,0.6505216684690822,3078.4985459570544,None,001,97,2019_Nov_07_1302,ACPT_experiment_5_30_19,3.1.0,59.95446631799169,
