facing_vig,person_vig,text_vig,facing_train,person_train,food_train,correct_key_train,facing_exp,person_exp,food_exp,showL_R,consistent,vig_random.thisRepN,vig_random.thisTrialN,vig_random.thisN,vig_random.thisIndex,trainTrials.thisRepN,trainTrials.thisTrialN,trainTrials.thisN,trainTrials.thisIndex,expBlock.thisRepN,expBlock.thisTrialN,expBlock.thisN,expBlock.thisIndex,breakLoop.thisRepN,breakLoop.thisTrialN,breakLoop.thisN,breakLoop.thisIndex,expTrials.thisRepN,expTrials.thisTrialN,expTrials.thisN,expTrials.thisIndex,train_resp.keys,train_resp.corr,train_resp.rt,train_resp.started,train_resp.stopped,exp_resp.keys,exp_resp.rt,exp_resp.started,exp_resp.stopped,session,participant,date,expName,psychopyVersion,frameRate,
C,U,"did not report her food preferences, so her food preferences are unknown.",,,,,,,,,,0,0,0,2,,,,,,,,,,,,,,,,,,,,,,,,,,001,98,2019_Nov_08_1100,ACPT_experiment_5_30_19,3.1.0,59.95462919734242,
C,D,"is allergic to gluten, meaning she can’t eat wheat products. She enjoys eating dairy products. She thinks eating insects, like crickets, is disgusting.",,,,,,,,,,0,1,1,1,,,,,,,,,,,,,,,,,,,,,,,,,,001,98,2019_Nov_08_1100,ACPT_experiment_5_30_19,3.1.0,59.95462919734242,
C,G,"cannot eat dairy products because she is lactose intolerant. She enjoys eating wheat products. She thinks eating insects, like crickets, is disgusting.",,,,,,,,,,0,2,2,0,,,,,,,,,,,,,,,,,,,,,,,,,,001,98,2019_Nov_08_1100,ACPT_experiment_5_30_19,3.1.0,59.95462919734242,
,,,C,U,g,n,,,,,,,,,,0,0,0,16,,,,,,,,,,,,,n,1,7.739253710033154,1951.8177588359963,None,,,,,001,98,2019_Nov_08_1100,ACPT_experiment_5_30_19,3.1.0,59.95462919734242,
,,,C,D,g,b,,,,,,,,,,0,1,1,10,,,,,,,,,,,,,b,1,9.207087813752423,1962.8428210107277,None,,,,,001,98,2019_Nov_08_1100,ACPT_experiment_5_30_19,3.1.0,59.95462919734242,
,,,C,G,y,b,,,,,,,,,,0,2,2,5,,,,,,,,,,,,,b,1,3.669481571859251,1975.3357133650543,None,,,,,001,98,2019_Nov_08_1100,ACPT_experiment_5_30_19,3.1.0,59.95462919734242,
,,,C,G,y,b,,,,,,,,,,0,3,3,14,,,,,,,,,,,,,b,1,5.687892657691918,1982.274326175026,None,,,,,001,98,2019_Nov_08_1100,ACPT_experiment_5_30_19,3.1.0,59.95462919734242,
,,,C,U,y,n,,,,,,,,,,0,4,4,8,,,,,,,,,,,,,n,1,1.2009341830771518,1991.2478543340899,None,,,,,001,98,2019_Nov_08_1100,ACPT_experiment_5_30_19,3.1.0,59.95462919734242,
,,,C,U,d,n,,,,,,,,,,0,5,5,6,,,,,,,,,,,,,n,1,1.1506350591530463,1995.7348825373751,None,,,,,001,98,2019_Nov_08_1100,ACPT_experiment_5_30_19,3.1.0,59.95462919734242,
,,,C,D,d,v,,,,,,,,,,0,6,6,9,,,,,,,,,,,,,v,1,5.804446093247407,2000.1713327020525,None,,,,,001,98,2019_Nov_08_1100,ACPT_experiment_5_30_19,3.1.0,59.95462919734242,
,,,C,G,g,v,,,,,,,,,,0,7,7,13,,,,,,,,,,,,,b,0,8.106196162146261,2009.2616056731972,None,,,,,001,98,2019_Nov_08_1100,ACPT_experiment_5_30_19,3.1.0,59.95462919734242,
,,,C,G,d,b,,,,,,,,,,0,8,8,3,,,,,,,,,,,,,b,1,6.05465610936335,2020.6536054703502,None,,,,,001,98,2019_Nov_08_1100,ACPT_experiment_5_30_19,3.1.0,59.95462919734242,
,,,C,D,y,b,,,,,,,,,,0,9,9,2,,,,,,,,,,,,,n,0,1.5178223162538416,2030.0107786639928,None,,,,,001,98,2019_Nov_08_1100,ACPT_experiment_5_30_19,3.1.0,59.95462919734242,
,,,C,D,d,v,,,,,,,,,,0,10,10,18,,,,,,,,,,,,,v,1,2.5185675980219457,2034.8144667975312,None,,,,,001,98,2019_Nov_08_1100,ACPT_experiment_5_30_19,3.1.0,59.95462919734242,
,,,C,U,d,n,,,,,,,,,,0,11,11,15,,,,,,,,,,,,,n,1,1.2509915205710058,2040.6188682161323,None,,,,,001,98,2019_Nov_08_1100,ACPT_experiment_5_30_19,3.1.0,59.95462919734242,
,,,C,G,g,v,,,,,,,,,,0,12,12,4,,,,,,,,,,,,,v,1,5.003582725521483,2045.1725866107067,None,,,,,001,98,2019_Nov_08_1100,ACPT_experiment_5_30_19,3.1.0,59.95462919734242,
,,,C,U,y,n,,,,,,,,,,0,13,13,17,,,,,,,,,,,,,n,1,0.733959160732411,2053.461977800927,None,,,,,001,98,2019_Nov_08_1100,ACPT_experiment_5_30_19,3.1.0,59.95462919734242,
,,,C,D,g,b,,,,,,,,,,0,14,14,1,,,,,,,,,,,,,b,1,4.503092360906976,2057.4988087264073,None,,,,,001,98,2019_Nov_08_1100,ACPT_experiment_5_30_19,3.1.0,59.95462919734242,
,,,C,U,g,n,,,,,,,,,,0,15,15,7,,,,,,,,,,,,,n,1,0.7672272831687224,2065.2877146835604,None,,,,,001,98,2019_Nov_08_1100,ACPT_experiment_5_30_19,3.1.0,59.95462919734242,
,,,C,D,d,v,,,,,,,,,,0,16,16,0,,,,,,,,,,,,,v,1,1.3176859378399968,2069.3407836355564,None,,,,,001,98,2019_Nov_08_1100,ACPT_experiment_5_30_19,3.1.0,59.95462919734242,
,,,C,D,y,b,,,,,,,,,,0,17,17,11,,,,,,,,,,,,,n,0,1.117564954068257,2073.9276183191405,None,,,,,001,98,2019_Nov_08_1100,ACPT_experiment_5_30_19,3.1.0,59.95462919734242,
,,,C,G,g,v,,,,,,,,,,0,18,18,19,,,,,,,,,,,,,v,1,7.171749262944104,2078.3480354173353,None,,,,,001,98,2019_Nov_08_1100,ACPT_experiment_5_30_19,3.1.0,59.95462919734242,
,,,C,G,d,b,,,,,,,,,,0,19,19,12,,,,,,,,,,,,,b,1,5.604290094212502,2088.7889545559237,None,,,,,001,98,2019_Nov_08_1100,ACPT_experiment_5_30_19,3.1.0,59.95462919734242,
,,,C,U,d,n,,,,,,,,,,1,0,20,15,,,,,,,,,,,,,n,1,0.8840206940208191,2097.6790712261773,None,,,,,001,98,2019_Nov_08_1100,ACPT_experiment_5_30_19,3.1.0,59.95462919734242,
,,,C,U,y,n,,,,,,,,,,1,1,21,17,,,,,,,,,,,,,n,1,1.1337915100666578,2101.8659869278363,None,,,,,001,98,2019_Nov_08_1100,ACPT_experiment_5_30_19,3.1.0,59.95462919734242,
,,,C,U,g,n,,,,,,,,,,1,2,22,7,,,,,,,,,,,,,n,1,0.8673416563005958,2106.285636406939,None,,,,,001,98,2019_Nov_08_1100,ACPT_experiment_5_30_19,3.1.0,59.95462919734242,
,,,C,G,d,b,,,,,,,,,,1,3,23,12,,,,,,,,,,,,,b,1,4.90349883981753,2110.4557363302374,None,,,,,001,98,2019_Nov_08_1100,ACPT_experiment_5_30_19,3.1.0,59.95462919734242,
,,,C,G,g,v,,,,,,,,,,1,4,24,4,,,,,,,,,,,,,v,1,1.7179894839505323,2118.6283857269336,None,,,,,001,98,2019_Nov_08_1100,ACPT_experiment_5_30_19,3.1.0,59.95462919734242,
,,,C,G,g,v,,,,,,,,,,1,5,25,13,,,,,,,,,,,,,v,1,1.6512763516266205,2123.615526069618,None,,,,,001,98,2019_Nov_08_1100,ACPT_experiment_5_30_19,3.1.0,59.95462919734242,
,,,C,G,y,b,,,,,,,,,,1,6,26,5,,,,,,,,,,,,,b,1,2.0515949905234265,2128.5359264148206,None,,,,,001,98,2019_Nov_08_1100,ACPT_experiment_5_30_19,3.1.0,59.95462919734242,
,,,C,D,y,b,,,,,,,,,,1,7,27,2,,,,,,,,,,,,,b,1,2.6854065739948965,2133.873350396231,None,,,,,001,98,2019_Nov_08_1100,ACPT_experiment_5_30_19,3.1.0,59.95462919734242,
,,,C,D,d,v,,,,,,,,,,1,8,28,9,,,,,,,,,,,,,v,1,2.218371784217652,2139.8278933398856,None,,,,,001,98,2019_Nov_08_1100,ACPT_experiment_5_30_19,3.1.0,59.95462919734242,
,,,C,G,y,b,,,,,,,,,,1,9,29,14,,,,,,,,,,,,,b,1,1.934845952462183,2145.3320684572545,None,,,,,001,98,2019_Nov_08_1100,ACPT_experiment_5_30_19,3.1.0,59.95462919734242,
,,,C,D,g,b,,,,,,,,,,1,10,30,10,,,,,,,,,,,,,b,1,6.488344596073148,2150.5527150261664,None,,,,,001,98,2019_Nov_08_1100,ACPT_experiment_5_30_19,3.1.0,59.95462919734242,
,,,C,G,g,v,,,,,,,,,,1,11,31,19,,,,,,,,,,,,,v,1,3.402604592251919,2160.3268668795154,None,,,,,001,98,2019_Nov_08_1100,ACPT_experiment_5_30_19,3.1.0,59.95462919734242,
,,,C,D,d,v,,,,,,,,,,1,12,32,0,,,,,,,,,,,,,b,0,1.0341335427810918,2167.0153025756445,None,,,,,001,98,2019_Nov_08_1100,ACPT_experiment_5_30_19,3.1.0,59.95462919734242,
,,,C,D,d,v,,,,,,,,,,1,13,33,18,,,,,,,,,,,,,v,1,3.752863780664029,2171.318593014274,None,,,,,001,98,2019_Nov_08_1100,ACPT_experiment_5_30_19,3.1.0,59.95462919734242,
,,,C,U,d,n,,,,,,,,,,1,14,34,6,,,,,,,,,,,,,n,1,1.4010787115953462,2178.357286087681,None,,,,,001,98,2019_Nov_08_1100,ACPT_experiment_5_30_19,3.1.0,59.95462919734242,
,,,C,U,y,n,,,,,,,,,,1,15,35,8,,,,,,,,,,,,,n,1,0.6836373976293544,2183.0444624417532,None,,,,,001,98,2019_Nov_08_1100,ACPT_experiment_5_30_19,3.1.0,59.95462919734242,
,,,C,G,d,b,,,,,,,,,,1,16,36,3,,,,,,,,,,,,,b,1,2.451881330857759,2187.013894418718,None,,,,,001,98,2019_Nov_08_1100,ACPT_experiment_5_30_19,3.1.0,59.95462919734242,
,,,C,D,g,b,,,,,,,,,,1,17,37,1,,,,,,,,,,,,,b,1,1.6512709182238723,2192.751603834896,None,,,,,001,98,2019_Nov_08_1100,ACPT_experiment_5_30_19,3.1.0,59.95462919734242,
,,,C,D,y,b,,,,,,,,,,1,18,38,11,,,,,,,,,,,,,b,1,1.4511079765070463,2197.6887034421516,None,,,,,001,98,2019_Nov_08_1100,ACPT_experiment_5_30_19,3.1.0,59.95462919734242,
,,,C,U,g,n,,,,,,,,,,1,19,39,16,,,,,,,,,,,,,n,1,1.4344334666225222,2202.425646748516,None,,,,,001,98,2019_Nov_08_1100,ACPT_experiment_5_30_19,3.1.0,59.95462919734242,
,,,C,G,d,b,,,,,,,,,,2,0,40,12,,,,,,,,,,,,,b,1,2.785460575983052,2207.1626057513777,None,,,,,001,98,2019_Nov_08_1100,ACPT_experiment_5_30_19,3.1.0,59.95462919734242,
,,,C,G,y,b,,,,,,,,,,2,1,41,5,,,,,,,,,,,,,b,1,1.5678718054987257,2213.2338907904123,None,,,,,001,98,2019_Nov_08_1100,ACPT_experiment_5_30_19,3.1.0,59.95462919734242,
,,,C,U,d,n,,,,,,,,,,2,2,42,15,,,,,,,,,,,,,n,1,0.8339811660143823,2218.087584040405,None,,,,,001,98,2019_Nov_08_1100,ACPT_experiment_5_30_19,3.1.0,59.95462919734242,
,,,C,D,d,v,,,,,,,,,,2,3,43,9,,,,,,,,,,,,,v,1,1.4342076785451354,2222.2243071732087,None,,,,,001,98,2019_Nov_08_1100,ACPT_experiment_5_30_19,3.1.0,59.95462919734242,
,,,C,G,g,v,,,,,,,,,,2,4,44,4,,,,,,,,,,,,,v,1,1.1675927097016938,2226.944351087179,None,,,,,001,98,2019_Nov_08_1100,ACPT_experiment_5_30_19,3.1.0,59.95462919734242,
,,,C,U,d,n,,,,,,,,,,2,5,45,6,,,,,,,,,,,,,n,1,0.700416349592615,2231.4144228473388,None,,,,,001,98,2019_Nov_08_1100,ACPT_experiment_5_30_19,3.1.0,59.95462919734242,
,,,C,D,d,v,,,,,,,,,,2,6,46,0,,,,,,,,,,,,,v,1,1.2009199958588397,2235.400803721036,None,,,,,001,98,2019_Nov_08_1100,ACPT_experiment_5_30_19,3.1.0,59.95462919734242,
,,,C,D,y,b,,,,,,,,,,2,7,47,11,,,,,,,,,,,,,b,1,1.19758599944862,2239.907572986449,None,,,,,001,98,2019_Nov_08_1100,ACPT_experiment_5_30_19,3.1.0,59.95462919734242,
,,,C,G,g,v,,,,,,,,,,2,8,48,13,,,,,,,,,,,,,v,1,1.0007217370230137,2244.3910338588544,None,,,,,001,98,2019_Nov_08_1100,ACPT_experiment_5_30_19,3.1.0,59.95462919734242,
,,,C,U,y,n,,,,,,,,,,2,9,49,17,,,,,,,,,,,,,n,1,2.218130903354904,2248.694510240606,None,,,,,001,98,2019_Nov_08_1100,ACPT_experiment_5_30_19,3.1.0,59.95462919734242,
,,,C,D,y,b,,,,,,,,,,2,10,50,2,,,,,,,,,,,,,b,1,1.484476013186395,2254.1984607773206,None,,,,,001,98,2019_Nov_08_1100,ACPT_experiment_5_30_19,3.1.0,59.95462919734242,
,,,C,U,g,n,,,,,,,,,,2,11,51,7,,,,,,,,,,,,,n,1,1.284320316006415,2258.9687712147975,None,,,,,001,98,2019_Nov_08_1100,ACPT_experiment_5_30_19,3.1.0,59.95462919734242,
,,,C,G,d,b,,,,,,,,,,2,12,52,3,,,,,,,,,,,,,b,1,2.6351720471943736,2263.5557682967583,None,,,,,001,98,2019_Nov_08_1100,ACPT_experiment_5_30_19,3.1.0,59.95462919734242,
,,,C,U,y,n,,,,,,,,,,2,13,53,8,,,,,,,,,,,,,n,1,0.9674176937555785,2269.476782918347,None,,,,,001,98,2019_Nov_08_1100,ACPT_experiment_5_30_19,3.1.0,59.95462919734242,
,,,C,D,g,b,,,,,,,,,,2,14,54,10,,,,,,,,,,,,,b,1,2.9520167131477137,2273.7469519364195,None,,,,,001,98,2019_Nov_08_1100,ACPT_experiment_5_30_19,3.1.0,59.95462919734242,
,,,C,U,g,n,,,,,,,,,,2,15,55,16,,,,,,,,,,,,,n,1,0.8840131476276838,2279.9848000553,None,,,,,001,98,2019_Nov_08_1100,ACPT_experiment_5_30_19,3.1.0,59.95462919734242,
,,,C,D,d,v,,,,,,,,,,2,16,56,18,,,,,,,,,,,,,v,1,2.8352450359070644,2284.1715983350846,None,,,,,001,98,2019_Nov_08_1100,ACPT_experiment_5_30_19,3.1.0,59.95462919734242,
,,,C,G,g,v,,,,,,,,,,2,17,57,19,,,,,,,,,,,,,v,1,0.9173742416251116,2290.2926593820835,None,,,,,001,98,2019_Nov_08_1100,ACPT_experiment_5_30_19,3.1.0,59.95462919734242,
,,,C,G,y,b,,,,,,,,,,2,18,58,14,,,,,,,,,,,,,b,1,1.0306253756216393,2294.5160196339034,None,,,,,001,98,2019_Nov_08_1100,ACPT_experiment_5_30_19,3.1.0,59.95462919734242,
,,,C,D,g,b,,,,,,,,,,2,19,59,1,,,,,,,,,,,,,b,1,1.3177466108390945,2298.8325056952626,None,,,,,001,98,2019_Nov_08_1100,ACPT_experiment_5_30_19,3.1.0,59.95462919734242,
,,,C,D,y,b,,,,,,,,,,3,0,60,11,,,,,,,,,,,,,b,1,1.217594505742909,2303.419349132663,None,,,,,001,98,2019_Nov_08_1100,ACPT_experiment_5_30_19,3.1.0,59.95462919734242,
,,,C,U,g,n,,,,,,,,,,3,1,61,16,,,,,,,,,,,,,n,1,1.084157978001258,2307.922793155482,None,,,,,001,98,2019_Nov_08_1100,ACPT_experiment_5_30_19,3.1.0,59.95462919734242,
,,,C,D,g,b,,,,,,,,,,3,2,62,10,,,,,,,,,,,,,b,1,1.217347587765289,2312.309724795123,None,,,,,001,98,2019_Nov_08_1100,ACPT_experiment_5_30_19,3.1.0,59.95462919734242,
,,,C,G,g,v,,,,,,,,,,3,3,63,19,,,,,,,,,,,,,v,1,0.9340587127485378,2316.8128829605766,None,,,,,001,98,2019_Nov_08_1100,ACPT_experiment_5_30_19,3.1.0,59.95462919734242,
,,,C,G,y,b,,,,,,,,,,3,4,64,14,,,,,,,,,,,,,b,1,1.4676288418309014,2321.049691488363,None,,,,,001,98,2019_Nov_08_1100,ACPT_experiment_5_30_19,3.1.0,59.95462919734242,
,,,C,G,g,v,,,,,,,,,,3,5,65,4,,,,,,,,,,,,,v,1,1.9014305244349998,2325.803106759425,None,,,,,001,98,2019_Nov_08_1100,ACPT_experiment_5_30_19,3.1.0,59.95462919734242,
,,,C,U,y,n,,,,,,,,,,3,6,66,17,,,,,,,,,,,,,n,1,0.7338954691758772,2330.990363558046,None,,,,,001,98,2019_Nov_08_1100,ACPT_experiment_5_30_19,3.1.0,59.95462919734242,
,,,C,D,g,b,,,,,,,,,,3,7,67,1,,,,,,,,,,,,,b,1,1.1839934364488727,2335.027024538757,None,,,,,001,98,2019_Nov_08_1100,ACPT_experiment_5_30_19,3.1.0,59.95462919734242,
,,,C,D,d,v,,,,,,,,,,3,8,68,18,,,,,,,,,,,,,v,1,0.7505253044137135,2339.496899790844,None,,,,,001,98,2019_Nov_08_1100,ACPT_experiment_5_30_19,3.1.0,59.95462919734242,
,,,C,U,y,n,,,,,,,,,,3,9,69,8,,,,,,,,,,,,,n,1,0.8339579231237622,2343.566634197053,None,,,,,001,98,2019_Nov_08_1100,ACPT_experiment_5_30_19,3.1.0,59.95462919734242,
,,,C,U,d,n,,,,,,,,,,3,10,70,6,,,,,,,,,,,,,n,1,1.1842575602026955,2347.6864346945717,None,,,,,001,98,2019_Nov_08_1100,ACPT_experiment_5_30_19,3.1.0,59.95462919734242,
,,,C,D,d,v,,,,,,,,,,3,11,71,9,,,,,,,,,,,,,v,1,0.7837255093136264,2352.1734324104295,None,,,,,001,98,2019_Nov_08_1100,ACPT_experiment_5_30_19,3.1.0,59.95462919734242,
,,,C,G,y,b,,,,,,,,,,3,12,72,5,,,,,,,,,,,,,b,1,0.9840922036401025,2356.2429558194917,None,,,,,001,98,2019_Nov_08_1100,ACPT_experiment_5_30_19,3.1.0,59.95462919734242,
,,,C,U,d,n,,,,,,,,,,3,13,73,15,,,,,,,,,,,,,n,1,0.7003270002996942,2360.5297948196126,None,,,,,001,98,2019_Nov_08_1100,ACPT_experiment_5_30_19,3.1.0,59.95462919734242,
,,,C,D,d,v,,,,,,,,,,3,14,74,0,,,,,,,,,,,,,v,1,0.6171500533828294,2364.515920625228,None,,,,,001,98,2019_Nov_08_1100,ACPT_experiment_5_30_19,3.1.0,59.95462919734242,
,,,C,D,y,b,,,,,,,,,,3,15,75,2,,,,,,,,,,,,,b,1,0.9006894686463056,2368.4022438746683,None,,,,,001,98,2019_Nov_08_1100,ACPT_experiment_5_30_19,3.1.0,59.95462919734242,
,,,C,G,g,v,,,,,,,,,,3,16,76,13,,,,,,,,,,,,,v,1,3.836296097518698,2372.588723998526,None,,,,,001,98,2019_Nov_08_1100,ACPT_experiment_5_30_19,3.1.0,59.95462919734242,
,,,C,G,d,b,,,,,,,,,,3,17,77,12,,,,,,,,,,,,,b,1,1.984874613662214,2379.6941591824057,None,,,,,001,98,2019_Nov_08_1100,ACPT_experiment_5_30_19,3.1.0,59.95462919734242,
,,,C,U,g,n,,,,,,,,,,3,18,78,7,,,,,,,,,,,,,n,1,2.235049614514992,2384.9648552405624,None,,,,,001,98,2019_Nov_08_1100,ACPT_experiment_5_30_19,3.1.0,59.95462919734242,
,,,C,G,d,b,,,,,,,,,,3,19,79,3,,,,,,,,,,,,,b,1,1.517853407392522,2390.4857326385422,None,,,,,001,98,2019_Nov_08_1100,ACPT_experiment_5_30_19,3.1.0,59.95462919734242,
,,,C,D,y,b,,,,,,,,,,4,0,80,2,,,,,,,,,,,,,b,1,2.268387767478089,2395.2894093015634,None,,,,,001,98,2019_Nov_08_1100,ACPT_experiment_5_30_19,3.1.0,59.95462919734242,
,,,C,U,y,n,,,,,,,,,,4,1,81,8,,,,,,,,,,,,,n,1,0.9173989937944498,2400.8269267978753,None,,,,,001,98,2019_Nov_08_1100,ACPT_experiment_5_30_19,3.1.0,59.95462919734242,
,,,C,D,y,b,,,,,,,,,,4,2,82,11,,,,,,,,,,,,,b,1,1.0505366843744923,2405.0471091126924,None,,,,,001,98,2019_Nov_08_1100,ACPT_experiment_5_30_19,3.1.0,59.95462919734242,
,,,C,G,d,b,,,,,,,,,,4,3,83,12,,,,,,,,,,,,,b,1,1.7180097082832617,2409.383470561974,None,,,,,001,98,2019_Nov_08_1100,ACPT_experiment_5_30_19,3.1.0,59.95462919734242,
,,,C,G,y,b,,,,,,,,,,4,4,84,5,,,,,,,,,,,,,b,1,0.8173018264383245,2414.3872923572244,None,,,,,001,98,2019_Nov_08_1100,ACPT_experiment_5_30_19,3.1.0,59.95462919734242,
,,,C,D,g,b,,,,,,,,,,4,5,85,10,,,,,,,,,,,,,b,1,1.9345667359225445,2418.507351243238,None,,,,,001,98,2019_Nov_08_1100,ACPT_experiment_5_30_19,3.1.0,59.95462919734242,
,,,C,G,y,b,,,,,,,,,,4,6,86,14,,,,,,,,,,,,,b,1,0.750575714318984,2423.7277484793262,None,,,,,001,98,2019_Nov_08_1100,ACPT_experiment_5_30_19,3.1.0,59.95462919734242,
,,,C,U,d,n,,,,,,,,,,4,7,87,6,,,,,,,,,,,,,n,1,0.9004540211858512,2427.781080347653,None,,,,,001,98,2019_Nov_08_1100,ACPT_experiment_5_30_19,3.1.0,59.95462919734242,
,,,C,G,g,v,,,,,,,,,,4,8,88,4,,,,,,,,,,,,,v,1,1.3343450530828704,2431.9673793580796,None,,,,,001,98,2019_Nov_08_1100,ACPT_experiment_5_30_19,3.1.0,59.95462919734242,
,,,C,G,g,v,,,,,,,,,,4,9,89,19,,,,,,,,,,,,,v,1,1.4644693180266586,2436.607564021334,None,,,,,001,98,2019_Nov_08_1100,ACPT_experiment_5_30_19,3.1.0,59.95462919734242,
,,,C,D,g,b,,,,,,,,,,4,10,90,1,,,,,,,,,,,,,b,1,2.1517090617994654,2441.357859915402,None,,,,,001,98,2019_Nov_08_1100,ACPT_experiment_5_30_19,3.1.0,59.95462919734242,
,,,C,G,d,b,,,,,,,,,,4,11,91,3,,,,,,,,,,,,,b,1,1.9515098973961358,2446.7953237115817,None,,,,,001,98,2019_Nov_08_1100,ACPT_experiment_5_30_19,3.1.0,59.95462919734242,
,,,C,U,g,n,,,,,,,,,,4,12,92,16,,,,,,,,,,,,,n,1,0.7172269964057705,2452.0326610905868,None,,,,,001,98,2019_Nov_08_1100,ACPT_experiment_5_30_19,3.1.0,59.95462919734242,
,,,C,D,d,v,,,,,,,,,,4,13,93,18,,,,,,,,,,,,,v,1,0.8001808719463952,2456.052804526387,None,,,,,001,98,2019_Nov_08_1100,ACPT_experiment_5_30_19,3.1.0,59.95462919734242,
,,,C,D,d,v,,,,,,,,,,4,14,94,9,,,,,,,,,,,,,v,1,1.3677230510006666,2460.122166744495,None,,,,,001,98,2019_Nov_08_1100,ACPT_experiment_5_30_19,3.1.0,59.95462919734242,
,,,C,G,g,v,,,,,,,,,,4,15,95,13,,,,,,,,,,,,,v,1,2.034663903278215,2464.7926643627025,None,,,,,001,98,2019_Nov_08_1100,ACPT_experiment_5_30_19,3.1.0,59.95462919734242,
,,,C,D,d,v,,,,,,,,,,4,16,96,0,,,,,,,,,,,,,v,1,1.0174819739308987,2470.1130860189187,None,,,,,001,98,2019_Nov_08_1100,ACPT_experiment_5_30_19,3.1.0,59.95462919734242,
,,,C,U,d,n,,,,,,,,,,4,17,97,15,,,,,,,,,,,,,n,1,0.8336944030820632,2474.4333576528425,None,,,,,001,98,2019_Nov_08_1100,ACPT_experiment_5_30_19,3.1.0,59.95462919734242,
,,,C,U,y,n,,,,,,,,,,4,18,98,17,,,,,,,,,,,,,n,1,1.417755032613968,2478.536209555484,None,,,,,001,98,2019_Nov_08_1100,ACPT_experiment_5_30_19,3.1.0,59.95462919734242,
,,,C,U,g,n,,,,,,,,,,4,19,99,7,,,,,,,,,,,,,n,1,1.0837697915476383,2483.2400640417095,None,,,,,001,98,2019_Nov_08_1100,ACPT_experiment_5_30_19,3.1.0,59.95462919734242,
,,,C,G,d,b,,,,,,,,,,5,0,100,12,,,,,,,,,,,,,b,1,1.3510578986438304,2487.60979775365,None,,,,,001,98,2019_Nov_08_1100,ACPT_experiment_5_30_19,3.1.0,59.95462919734242,
,,,C,D,d,v,,,,,,,,,,5,1,101,9,,,,,,,,,,,,,v,1,0.767139141298685,2492.263430089159,None,,,,,001,98,2019_Nov_08_1100,ACPT_experiment_5_30_19,3.1.0,59.95462919734242,
,,,C,G,y,b,,,,,,,,,,5,2,102,14,,,,,,,,,,,,,b,1,1.8180709548091727,2496.316417841967,None,,,,,001,98,2019_Nov_08_1100,ACPT_experiment_5_30_19,3.1.0,59.95462919734242,
,,,C,G,g,v,,,,,,,,,,5,3,103,4,,,,,,,,,,,,,v,1,1.167593615268288,2501.403619129321,None,,,,,001,98,2019_Nov_08_1100,ACPT_experiment_5_30_19,3.1.0,59.95462919734242,
,,,C,G,g,v,,,,,,,,,,5,4,104,13,,,,,,,,,,,,,v,1,1.4842103801538542,2505.857304651808,None,,,,,001,98,2019_Nov_08_1100,ACPT_experiment_5_30_19,3.1.0,59.95462919734242,
,,,C,U,d,n,,,,,,,,,,5,5,105,15,,,,,,,,,,,,,n,1,1.2509347716959383,2510.6273705861527,None,,,,,001,98,2019_Nov_08_1100,ACPT_experiment_5_30_19,3.1.0,59.95462919734242,
,,,C,D,g,b,,,,,,,,,,5,6,106,10,,,,,,,,,,,,,b,1,1.6679822545061143,2515.16413193389,None,,,,,001,98,2019_Nov_08_1100,ACPT_experiment_5_30_19,3.1.0,59.95462919734242,
,,,C,D,y,b,,,,,,,,,,5,7,107,2,,,,,,,,,,,,,b,1,1.0007733543502582,2520.101231843001,None,,,,,001,98,2019_Nov_08_1100,ACPT_experiment_5_30_19,3.1.0,59.95462919734242,
,,,C,U,y,n,,,,,,,,,,5,8,108,17,,,,,,,,,,,,,n,1,1.2643054707427837,2524.407851448349,None,,,,,001,98,2019_Nov_08_1100,ACPT_experiment_5_30_19,3.1.0,59.95462919734242,
,,,C,D,d,v,,,,,,,,,,5,9,109,0,,,,,,,,,,,,,v,1,1.117528429525919,2528.9579828914216,None,,,,,001,98,2019_Nov_08_1100,ACPT_experiment_5_30_19,3.1.0,59.95462919734242,
,,,C,D,d,v,,,,,,,,,,5,10,110,18,,,,,,,,,,,,,v,1,1.1005725901122787,2533.3616162079616,None,,,,,001,98,2019_Nov_08_1100,ACPT_experiment_5_30_19,3.1.0,59.95462919734242,
,,,C,G,y,b,,,,,,,,,,5,11,111,5,,,,,,,,,,,,,b,1,1.5345085985113656,2537.7480223167972,None,,,,,001,98,2019_Nov_08_1100,ACPT_experiment_5_30_19,3.1.0,59.95462919734242,
,,,C,G,g,v,,,,,,,,,,5,12,112,19,,,,,,,,,,,,,v,1,1.4010793153070153,2542.5683599061954,None,,,,,001,98,2019_Nov_08_1100,ACPT_experiment_5_30_19,3.1.0,59.95462919734242,
,,,C,U,d,n,,,,,,,,,,5,13,113,6,,,,,,,,,,,,,n,1,1.3841485299176384,2547.2721992996344,None,,,,,001,98,2019_Nov_08_1100,ACPT_experiment_5_30_19,3.1.0,59.95462919734242,
,,,C,U,g,n,,,,,,,,,,5,14,114,7,,,,,,,,,,,,,n,1,2.018241744774514,2551.9254757472513,None,,,,,001,98,2019_Nov_08_1100,ACPT_experiment_5_30_19,3.1.0,59.95462919734242,
,,,C,D,y,b,,,,,,,,,,5,15,115,11,,,,,,,,,,,,,b,1,1.4010639206649103,2557.229568216525,None,,,,,001,98,2019_Nov_08_1100,ACPT_experiment_5_30_19,3.1.0,59.95462919734242,
,,,C,D,g,b,,,,,,,,,,5,16,116,1,,,,,,,,,,,,,b,1,2.535026884779654,2561.933376216969,None,,,,,001,98,2019_Nov_08_1100,ACPT_experiment_5_30_19,3.1.0,59.95462919734242,
,,,C,U,g,n,,,,,,,,,,5,17,117,16,,,,,,,,,,,,,n,1,0.8339817697255967,2567.754230583357,None,,,,,001,98,2019_Nov_08_1100,ACPT_experiment_5_30_19,3.1.0,59.95462919734242,
,,,C,G,d,b,,,,,,,,,,5,18,118,3,,,,,,,,,,,,,b,1,1.6677148103394757,2571.890969714514,None,,,,,001,98,2019_Nov_08_1100,ACPT_experiment_5_30_19,3.1.0,59.95462919734242,
,,,C,U,y,n,,,,,,,,,,5,19,119,8,0,0,0,0,0,0,0,0,,,,,n,1,1.5011773882297348,2576.844499026666,None,,,,,001,98,2019_Nov_08_1100,ACPT_experiment_5_30_19,3.1.0,59.95462919734242,
,,,C,U,y,n,R,D,d,R,c ,,,,,5,19,119,8,0,0,0,0,,,,,0,0,0,1,,,,,,up,3.7028601734882614,2685.544049654058,None,001,98,2019_Nov_08_1100,ACPT_experiment_5_30_19,3.1.0,59.95462919734242,
,,,C,U,y,n,L,D,d,R,c ,,,,,5,19,119,8,0,0,0,0,,,,,0,1,1,13,,,,,,down,6.271486920138614,2690.5144813771626,None,001,98,2019_Nov_08_1100,ACPT_experiment_5_30_19,3.1.0,59.95462919734242,
,,,C,U,y,n,L,D,y,L,y,,,,,5,19,119,8,0,0,0,0,,,,,0,2,2,32,,,,,,down,1.284342955185366,2698.0535658065087,None,001,98,2019_Nov_08_1100,ACPT_experiment_5_30_19,3.1.0,59.95462919734242,
,,,C,U,y,n,L,G,g,L,c ,,,,,5,19,119,8,0,0,0,0,,,,,0,3,3,18,,,,,,up,1.0341462207211407,2700.622192251303,None,001,98,2019_Nov_08_1100,ACPT_experiment_5_30_19,3.1.0,59.95462919734242,
,,,C,U,y,n,R,G,g,L,c ,,,,,5,19,119,8,0,0,0,0,,,,,0,4,4,6,,,,,,down,0.6838505077666923,2702.9406488267928,None,001,98,2019_Nov_08_1100,ACPT_experiment_5_30_19,3.1.0,59.95462919734242,
,,,C,U,y,n,L,U,d,L,u,,,,,5,19,119,8,0,0,0,0,,,,,0,5,5,20,,,,,,up,1.584570463840464,2704.9088118023174,None,001,98,2019_Nov_08_1100,ACPT_experiment_5_30_19,3.1.0,59.95462919734242,
,,,C,U,y,n,R,G,y,R,y,,,,,5,19,119,8,0,0,0,0,,,,,0,6,6,29,,,,,,down,0.9173594506951304,2707.7776705854585,None,001,98,2019_Nov_08_1100,ACPT_experiment_5_30_19,3.1.0,59.95462919734242,
,,,C,U,y,n,L,U,g,L,u,,,,,5,19,119,8,0,0,0,0,,,,,0,7,7,22,,,,,,up,0.9006891667904711,2709.9793464280356,None,001,98,2019_Nov_08_1100,ACPT_experiment_5_30_19,3.1.0,59.95462919734242,
,,,C,U,y,n,R,U,y,L,u,,,,,5,19,119,8,0,0,0,0,,,,,0,8,8,30,,,,,,down,0.7171771902121691,2712.164377342589,None,001,98,2019_Nov_08_1100,ACPT_experiment_5_30_19,3.1.0,59.95462919734242,
,,,C,U,y,n,L,G,g,R,c ,,,,,5,19,119,8,0,0,0,0,,,,,0,9,9,19,,,,,,up,1.7680172395835143,2714.1658703209723,None,001,98,2019_Nov_08_1100,ACPT_experiment_5_30_19,3.1.0,59.95462919734242,
,,,C,U,y,n,R,D,y,L,y,,,,,5,19,119,8,0,0,0,0,,,,,0,10,10,26,,,,,,down,1.0507956765809467,2717.2181994246025,None,001,98,2019_Nov_08_1100,ACPT_experiment_5_30_19,3.1.0,59.95462919734242,
,,,C,U,y,n,R,G,y,L,y,,,,,5,19,119,8,0,0,0,0,,,,,0,11,11,28,,,,,,down,1.034151352268509,2719.536609816167,None,001,98,2019_Nov_08_1100,ACPT_experiment_5_30_19,3.1.0,59.95462919734242,
,,,C,U,y,n,R,U,g,L,u,,,,,5,19,119,8,0,0,0,0,,,,,0,12,12,10,,,,,,up,1.334376144221551,2721.8550437524773,None,001,98,2019_Nov_08_1100,ACPT_experiment_5_30_19,3.1.0,59.95462919734242,
,,,C,U,y,n,L,D,y,R,y,,,,,5,19,119,8,0,0,0,0,,,,,0,13,13,33,,,,,,down,0.7839256396546261,2724.4737341755913,None,001,98,2019_Nov_08_1100,ACPT_experiment_5_30_19,3.1.0,59.95462919734242,
,,,C,U,y,n,R,D,d,L,c,,,,,5,19,119,8,0,0,0,0,,,,,0,14,14,0,,,,,,up,1.5011429766777837,2726.541977112696,None,001,98,2019_Nov_08_1100,ACPT_experiment_5_30_19,3.1.0,59.95462919734242,
,,,C,U,y,n,R,U,y,R,u,,,,,5,19,119,8,0,0,0,0,,,,,0,15,15,31,,,,,,down,1.1008569381992857,2729.3274337645544,None,001,98,2019_Nov_08_1100,ACPT_experiment_5_30_19,3.1.0,59.95462919734242,
,,,C,U,y,n,L,D,d,L,c ,,,,,5,19,119,8,0,0,0,0,,,,,0,16,16,12,,,,,,up,0.7172212611471878,2731.7125805313326,None,001,98,2019_Nov_08_1100,ACPT_experiment_5_30_19,3.1.0,59.95462919734242,
,,,C,U,y,n,L,U,y,R,u,,,,,5,19,119,8,0,0,0,0,,,,,0,17,17,25,,,,,,down,2.5686309726306717,2733.714108826835,None,001,98,2019_Nov_08_1100,ACPT_experiment_5_30_19,3.1.0,59.95462919734242,
,,,C,U,y,n,L,G,y,L,y,,,,,5,19,119,8,0,0,0,0,,,,,0,18,18,34,,,,,,down,1.167558298149288,2737.567048041243,None,001,98,2019_Nov_08_1100,ACPT_experiment_5_30_19,3.1.0,59.95462919734242,
,,,C,U,y,n,L,D,g,L,i,,,,,5,19,119,8,0,0,0,0,,,,,0,19,19,14,,,,,,up,0.7839253377992463,2740.0189191090067,None,001,98,2019_Nov_08_1100,ACPT_experiment_5_30_19,3.1.0,59.95462919734242,
,,,C,U,y,n,R,U,g,R,u,,,,,5,19,119,8,0,0,0,0,,,,,0,20,20,11,,,,,,up,1.0341329390694227,2742.0871638572453,None,001,98,2019_Nov_08_1100,ACPT_experiment_5_30_19,3.1.0,59.95462919734242,
,,,C,U,y,n,L,U,d,R,u,,,,,5,19,119,8,0,0,0,0,,,,,0,21,21,21,,,,,,up,0.6671871665434992,2744.405592058297,None,001,98,2019_Nov_08_1100,ACPT_experiment_5_30_19,3.1.0,59.95462919734242,
,,,C,U,y,n,R,D,g,R,i,,,,,5,19,119,8,0,0,0,0,,,,,0,22,22,3,,,,,,up,1.134237954674063,2746.3570593940367,None,001,98,2019_Nov_08_1100,ACPT_experiment_5_30_19,3.1.0,59.95462919734242,
,,,C,U,y,n,R,D,g,L,i,,,,,5,19,119,8,0,0,0,0,,,,,0,23,23,2,,,,,,up,0.8673229412456749,2748.775591705126,None,001,98,2019_Nov_08_1100,ACPT_experiment_5_30_19,3.1.0,59.95462919734242,
,,,C,U,y,n,R,G,d,L,i,,,,,5,19,119,8,0,0,0,0,,,,,0,24,24,4,,,,,,up,0.9507220539712762,2750.92722922712,None,001,98,2019_Nov_08_1100,ACPT_experiment_5_30_19,3.1.0,59.95462919734242,
,,,C,U,y,n,L,G,y,R,y,,,,,5,19,119,8,0,0,0,0,,,,,0,25,25,35,,,,,,down,0.8006200720164998,2753.1622712952417,None,001,98,2019_Nov_08_1100,ACPT_experiment_5_30_19,3.1.0,59.95462919734242,
,,,C,U,y,n,R,U,d,R,u,,,,,5,19,119,8,0,0,0,0,,,,,0,26,26,9,,,,,,up,0.8506242829039365,2755.247207759141,None,001,98,2019_Nov_08_1100,ACPT_experiment_5_30_19,3.1.0,59.95462919734242,
,,,C,U,y,n,L,U,y,L,u,,,,,5,19,119,8,0,0,0,0,,,,,0,27,27,24,,,,,,down,0.6338112816160901,2757.382147830216,None,001,98,2019_Nov_08_1100,ACPT_experiment_5_30_19,3.1.0,59.95462919734242,
,,,C,U,y,n,R,D,y,R,y,,,,,5,19,119,8,0,0,0,0,,,,,0,28,28,27,,,,,,down,0.7839697105900996,2759.3002592035054,None,001,98,2019_Nov_08_1100,ACPT_experiment_5_30_19,3.1.0,59.95462919734242,
,,,C,U,y,n,L,U,g,R,u,,,,,5,19,119,8,0,0,0,0,,,,,0,29,29,23,,,,,,up,0.9340454310968198,2761.368523572366,None,001,98,2019_Nov_08_1100,ACPT_experiment_5_30_19,3.1.0,59.95462919734242,
,,,C,U,y,n,R,U,d,L,u,,,,,5,19,119,8,0,0,0,0,,,,,0,30,30,8,,,,,,up,0.7172357502217892,2763.5868603413205,None,001,98,2019_Nov_08_1100,ACPT_experiment_5_30_19,3.1.0,59.95462919734242,
,,,C,U,y,n,L,D,g,R,i,,,,,5,19,119,8,0,0,0,0,,,,,0,31,31,15,,,,,,up,0.8506478276503913,2765.5884094648673,None,001,98,2019_Nov_08_1100,ACPT_experiment_5_30_19,3.1.0,59.95462919734242,
,,,C,U,y,n,L,G,d,R,i,,,,,5,19,119,8,0,0,0,0,,,,,0,32,32,17,,,,,,up,0.8503861187418806,2767.740324694122,None,001,98,2019_Nov_08_1100,ACPT_experiment_5_30_19,3.1.0,59.95462919734242,
,,,C,U,y,n,R,G,d,R,i,,,,,5,19,119,8,0,0,0,0,,,,,0,33,33,5,,,,,,up,0.8506544684760229,2769.8750090934036,None,001,98,2019_Nov_08_1100,ACPT_experiment_5_30_19,3.1.0,59.95462919734242,
,,,C,U,y,n,L,G,d,L,i,,,,,5,19,119,8,0,0,0,0,,,,,0,34,34,16,,,,,,up,0.6171425069901488,2772.0099576164384,None,001,98,2019_Nov_08_1100,ACPT_experiment_5_30_19,3.1.0,59.95462919734242,
,,,C,U,y,n,R,G,g,R,c ,,,,,5,19,119,8,0,0,0,0,,,,,0,35,35,7,,,,,,up,0.6838722413785945,2773.911402026237,None,001,98,2019_Nov_08_1100,ACPT_experiment_5_30_19,3.1.0,59.95462919734242,
,,,C,U,y,n,L,G,d,R,i,,,,,5,19,119,8,0,0,0,0,,,,,1,0,36,17,,,,,,up,0.8172819039609749,2775.879590055786,None,001,98,2019_Nov_08_1100,ACPT_experiment_5_30_19,3.1.0,59.95462919734242,
,,,C,U,y,n,R,G,g,R,c ,,,,,5,19,119,8,0,0,0,0,,,,,1,1,37,7,,,,,,up,0.5837735647437512,2777.981194992455,None,001,98,2019_Nov_08_1100,ACPT_experiment_5_30_19,3.1.0,59.95462919734242,
,,,C,U,y,n,L,D,g,L,i,,,,,5,19,119,8,0,0,0,0,,,,,1,2,38,14,,,,,,up,0.8339941458102658,2779.832577235068,None,001,98,2019_Nov_08_1100,ACPT_experiment_5_30_19,3.1.0,59.95462919734242,
,,,C,U,y,n,L,U,y,L,u,,,,,5,19,119,8,0,0,0,0,,,,,1,3,39,24,,,,,,down,0.850647525794102,2781.9675625845007,None,001,98,2019_Nov_08_1100,ACPT_experiment_5_30_19,3.1.0,59.95462919734242,
,,,C,U,y,n,R,U,g,R,u,,,,,5,19,119,8,0,0,0,0,,,,,1,4,40,11,,,,,,up,0.6838486966325945,2784.119207351032,None,001,98,2019_Nov_08_1100,ACPT_experiment_5_30_19,3.1.0,59.95462919734242,
,,,C,U,y,n,L,G,y,L,y,,,,,5,19,119,8,0,0,0,0,,,,,1,5,41,34,,,,,,down,0.7839232248088592,2786.087373948825,None,001,98,2019_Nov_08_1100,ACPT_experiment_5_30_19,3.1.0,59.95462919734242,
,,,C,U,y,n,R,U,d,R,u,,,,,5,19,119,8,0,0,0,0,,,,,1,6,42,9,,,,,,up,0.8673039243358289,2788.1556334879942,None,001,98,2019_Nov_08_1100,ACPT_experiment_5_30_19,3.1.0,59.95462919734242,
,,,C,U,y,n,R,G,y,R,y,,,,,5,19,119,8,0,0,0,0,,,,,1,7,43,29,,,,,,down,0.9006891667909258,2790.307253200501,None,001,98,2019_Nov_08_1100,ACPT_experiment_5_30_19,3.1.0,59.95462919734242,
,,,C,U,y,n,L,D,d,L,c ,,,,,5,19,119,8,0,0,0,0,,,,,1,8,44,12,,,,,,up,0.6503925180832084,2792.509014770102,None,001,98,2019_Nov_08_1100,ACPT_experiment_5_30_19,3.1.0,59.95462919734242,
,,,C,U,y,n,L,U,y,R,u,,,,,5,19,119,8,0,0,0,0,,,,,1,9,45,25,,,,,,down,0.800622788718556,2794.4604054344895,None,001,98,2019_Nov_08_1100,ACPT_experiment_5_30_19,3.1.0,59.95462919734242,
,,,C,U,y,n,R,D,d,R,c ,,,,,5,19,119,8,0,0,0,0,,,,,1,10,46,1,,,,,,up,0.8506411868243049,2796.562034519616,None,001,98,2019_Nov_08_1100,ACPT_experiment_5_30_19,3.1.0,59.95462919734242,
,,,C,U,y,n,L,U,g,R,u,,,,,5,19,119,8,0,0,0,0,,,,,1,11,47,23,,,,,,up,0.7505666586471307,2798.6969860612085,None,001,98,2019_Nov_08_1100,ACPT_experiment_5_30_19,3.1.0,59.95462919734242,
,,,C,U,y,n,R,D,y,L,y,,,,,5,19,119,8,0,0,0,0,,,,,1,12,48,26,,,,,,down,0.7672671281234216,2800.7318679043155,None,001,98,2019_Nov_08_1100,ACPT_experiment_5_30_19,3.1.0,59.95462919734242,
,,,C,U,y,n,R,D,g,R,i,,,,,5,19,119,8,0,0,0,0,,,,,1,13,49,3,,,,,,up,0.7672490167806245,2802.7834330111227,None,001,98,2019_Nov_08_1100,ACPT_experiment_5_30_19,3.1.0,59.95462919734242,
,,,C,U,y,n,L,G,d,L,i,,,,,5,19,119,8,0,0,0,0,,,,,1,14,50,16,,,,,,up,1.0674828644055196,2804.8349972123624,None,001,98,2019_Nov_08_1100,ACPT_experiment_5_30_19,3.1.0,59.95462919734242,
,,,C,U,y,n,L,G,g,L,c ,,,,,5,19,119,8,0,0,0,0,,,,,1,15,51,18,,,,,,up,1.5845429949699792,2807.1867889222576,None,001,98,2019_Nov_08_1100,ACPT_experiment_5_30_19,3.1.0,59.95462919734242,
,,,C,U,y,n,L,D,y,R,y,,,,,5,19,119,8,0,0,0,0,,,,,1,16,52,33,,,,,,down,0.6671826387082547,2810.055633216324,None,001,98,2019_Nov_08_1100,ACPT_experiment_5_30_19,3.1.0,59.95462919734242,
,,,C,U,y,n,R,D,d,L,c,,,,,5,19,119,8,0,0,0,0,,,,,1,17,53,0,,,,,,up,0.6505111473807119,2812.007115342994,None,001,98,2019_Nov_08_1100,ACPT_experiment_5_30_19,3.1.0,59.95462919734242,
,,,C,U,y,n,R,U,d,L,u,,,,,5,19,119,8,0,0,0,0,,,,,1,18,54,8,,,,,,up,0.5337449035437203,2813.925259920413,None,001,98,2019_Nov_08_1100,ACPT_experiment_5_30_19,3.1.0,59.95462919734242,
,,,C,U,y,n,R,G,d,R,i,,,,,5,19,119,8,0,0,0,0,,,,,1,19,55,5,,,,,,up,0.900712711536471,2815.7433160842916,None,001,98,2019_Nov_08_1100,ACPT_experiment_5_30_19,3.1.0,59.95462919734242,
,,,C,U,y,n,L,U,d,L,u,,,,,5,19,119,8,0,0,0,0,,,,,1,20,56,20,,,,,,up,0.9840756015760235,2817.9116404922543,None,001,98,2019_Nov_08_1100,ACPT_experiment_5_30_19,3.1.0,59.95462919734242,
,,,C,U,y,n,R,G,d,L,i,,,,,5,19,119,8,0,0,0,0,,,,,1,21,57,4,,,,,,up,0.6838604690051397,2820.1800264485983,None,001,98,2019_Nov_08_1100,ACPT_experiment_5_30_19,3.1.0,59.95462919734242,
,,,C,U,y,n,L,U,g,L,u,,,,,5,19,119,8,0,0,0,0,,,,,1,22,58,22,,,,,,up,0.5170601305649143,2822.148200592784,None,001,98,2019_Nov_08_1100,ACPT_experiment_5_30_19,3.1.0,59.95462919734242,
,,,C,U,y,n,R,G,y,L,y,,,,,5,19,119,8,0,0,0,0,,,,,1,23,59,28,,,,,,down,0.6171331494629158,2823.949571379973,None,001,98,2019_Nov_08_1100,ACPT_experiment_5_30_19,3.1.0,59.95462919734242,
,,,C,U,y,n,R,D,y,R,y,,,,,5,19,119,8,0,0,0,0,,,,,1,24,60,27,,,,,,down,0.9340499589325191,2825.851023034308,None,001,98,2019_Nov_08_1100,ACPT_experiment_5_30_19,3.1.0,59.95462919734242,
,,,C,U,y,n,R,U,g,L,u,,,,,5,19,119,8,0,0,0,0,,,,,1,25,61,10,,,,,,up,0.7305847156567324,2828.0893858171885,None,001,98,2019_Nov_08_1100,ACPT_experiment_5_30_19,3.1.0,59.95462919734242,
,,,C,U,y,n,L,D,d,R,c ,,,,,5,19,119,8,0,0,0,0,,,,,1,26,62,13,,,,,,up,0.7005515809541976,2830.104241042658,None,001,98,2019_Nov_08_1100,ACPT_experiment_5_30_19,3.1.0,59.95462919734242,
,,,C,U,y,n,R,U,y,L,u,,,,,5,19,119,8,0,0,0,0,,,,,1,27,63,30,,,,,,down,0.9507670304733438,2832.08908184848,None,001,98,2019_Nov_08_1100,ACPT_experiment_5_30_19,3.1.0,59.95462919734242,
,,,C,U,y,n,R,G,g,L,c ,,,,,5,19,119,8,0,0,0,0,,,,,1,28,64,6,,,,,,up,0.5671195810482459,2834.324123011035,None,001,98,2019_Nov_08_1100,ACPT_experiment_5_30_19,3.1.0,59.95462919734242,
,,,C,U,y,n,L,U,d,R,u,,,,,5,19,119,8,0,0,0,0,,,,,1,29,65,21,,,,,,up,0.6338049426458383,2836.1755668322144,None,001,98,2019_Nov_08_1100,ACPT_experiment_5_30_19,3.1.0,59.95462919734242,
,,,C,U,y,n,R,D,g,L,i,,,,,5,19,119,8,0,0,0,0,,,,,1,30,66,2,,,,,,up,0.533737357150585,2838.0936881667426,None,001,98,2019_Nov_08_1100,ACPT_experiment_5_30_19,3.1.0,59.95462919734242,
,,,C,U,y,n,R,U,y,R,u,,,,,5,19,119,8,0,0,0,0,,,,,1,31,67,31,,,,,,down,0.500378074287255,2839.91174161392,None,001,98,2019_Nov_08_1100,ACPT_experiment_5_30_19,3.1.0,59.95462919734242,
,,,C,U,y,n,L,D,y,L,y,,,,,5,19,119,8,0,0,0,0,,,,,1,32,68,32,,,,,,down,0.633801320377188,2841.7297935518186,None,001,98,2019_Nov_08_1100,ACPT_experiment_5_30_19,3.1.0,59.95462919734242,
,,,C,U,y,n,L,G,y,R,y,,,,,5,19,119,8,0,0,0,0,,,,,1,33,69,35,,,,,,down,0.7338824893799938,2843.66460358345,None,001,98,2019_Nov_08_1100,ACPT_experiment_5_30_19,3.1.0,59.95462919734242,
,,,C,U,y,n,L,D,g,R,i,,,,,5,19,119,8,0,0,0,0,,,,,1,34,70,15,,,,,,up,0.7672478093572863,2845.682808501827,None,001,98,2019_Nov_08_1100,ACPT_experiment_5_30_19,3.1.0,59.95462919734242,
,,,C,U,y,n,L,G,g,R,c ,,,,,5,19,119,8,0,0,0,0,,,,,1,35,71,19,,,,,,up,0.7672429796662072,2847.7343711937883,None,001,98,2019_Nov_08_1100,ACPT_experiment_5_30_19,3.1.0,59.95462919734242,
,,,C,U,y,n,,,,,,,,,,5,19,119,8,1,0,1,0,0,0,0,0,,,,,,,,,,,,,,001,98,2019_Nov_08_1100,ACPT_experiment_5_30_19,3.1.0,59.95462919734242,
,,,C,U,y,n,L,D,g,L,i,,,,,5,19,119,8,1,0,1,0,,,,,0,0,0,14,,,,,,up,0.7670005895242866,2893.552880744956,None,001,98,2019_Nov_08_1100,ACPT_experiment_5_30_19,3.1.0,59.95462919734242,
,,,C,U,y,n,L,G,d,L,i,,,,,5,19,119,8,1,0,1,0,,,,,0,1,1,16,,,,,,up,0.517083373454625,2895.6041986319296,None,001,98,2019_Nov_08_1100,ACPT_experiment_5_30_19,3.1.0,59.95462919734242,
,,,C,U,y,n,R,D,d,L,c,,,,,5,19,119,8,1,0,1,0,,,,,0,2,2,0,,,,,,up,0.45037325968860387,2897.405579078501,None,001,98,2019_Nov_08_1100,ACPT_experiment_5_30_19,3.1.0,59.95462919734242,
,,,C,U,y,n,L,G,g,L,c ,,,,,5,19,119,8,1,0,1,0,,,,,0,3,3,18,,,,,,up,0.4503388481366528,2899.1402445816143,None,001,98,2019_Nov_08_1100,ACPT_experiment_5_30_19,3.1.0,59.95462919734242,
,,,C,U,y,n,L,G,y,L,y,,,,,5,19,119,8,1,0,1,0,,,,,0,4,4,34,,,,,,down,0.6168620830276268,2900.908520209693,None,001,98,2019_Nov_08_1100,ACPT_experiment_5_30_19,3.1.0,59.95462919734242,
,,,C,U,y,n,L,U,d,L,u,,,,,5,19,119,8,1,0,1,0,,,,,0,5,5,20,,,,,,up,0.6671687533448676,2902.826377118612,None,001,98,2019_Nov_08_1100,ACPT_experiment_5_30_19,3.1.0,59.95462919734242,
,,,C,U,y,n,L,D,y,R,y,,,,,5,19,119,8,1,0,1,0,,,,,0,6,6,33,,,,,,down,0.583813711554285,2904.7778462654865,None,001,98,2019_Nov_08_1100,ACPT_experiment_5_30_19,3.1.0,59.95462919734242,
,,,C,U,y,n,R,G,d,L,i,,,,,5,19,119,8,1,0,1,0,,,,,0,7,7,4,,,,,,up,0.6505171844951292,2906.6459341091227,None,001,98,2019_Nov_08_1100,ACPT_experiment_5_30_19,3.1.0,59.95462919734242,
,,,C,U,y,n,R,D,y,L,y,,,,,5,19,119,8,1,0,1,0,,,,,0,8,8,26,,,,,,down,0.6504924323262458,2908.5807622520974,None,001,98,2019_Nov_08_1100,ACPT_experiment_5_30_19,3.1.0,59.95462919734242,
,,,C,U,y,n,L,U,y,R,u,,,,,5,19,119,8,1,0,1,0,,,,,0,9,9,25,,,,,,down,0.6171219808015849,2910.515576509709,None,001,98,2019_Nov_08_1100,ACPT_experiment_5_30_19,3.1.0,59.95462919734242,
,,,C,U,y,n,R,U,y,L,u,,,,,5,19,119,8,1,0,1,0,,,,,0,10,10,30,,,,,,down,0.6671624143750705,2912.417026654766,None,001,98,2019_Nov_08_1100,ACPT_experiment_5_30_19,3.1.0,59.95462919734242,
,,,C,U,y,n,R,U,d,R,u,,,,,5,19,119,8,1,0,1,0,,,,,0,11,11,9,,,,,,up,0.733888526494411,2914.3685087814356,None,001,98,2019_Nov_08_1100,ACPT_experiment_5_30_19,3.1.0,59.95462919734242,
,,,C,U,y,n,R,G,g,R,c ,,,,,5,19,119,8,1,0,1,0,,,,,0,12,12,7,,,,,,up,0.633812187183139,2916.386717623937,None,001,98,2019_Nov_08_1100,ACPT_experiment_5_30_19,3.1.0,59.95462919734242,
,,,C,U,y,n,R,D,y,R,y,,,,,5,19,119,8,1,0,1,0,,,,,0,13,13,27,,,,,,down,0.7005265269299343,2918.3048567679525,None,001,98,2019_Nov_08_1100,ACPT_experiment_5_30_19,3.1.0,59.95462919734242,
,,,C,U,y,n,L,U,g,L,u,,,,,5,19,119,8,1,0,1,0,,,,,0,14,14,22,,,,,,up,0.6004797694790796,2920.289690329237,None,001,98,2019_Nov_08_1100,ACPT_experiment_5_30_19,3.1.0,59.95462919734242,
,,,C,U,y,n,L,U,y,L,u,,,,,5,19,119,8,1,0,1,0,,,,,0,15,15,24,,,,,,down,0.950758276657325,2922.174460229151,None,001,98,2019_Nov_08_1100,ACPT_experiment_5_30_19,3.1.0,59.95462919734242,
,,,C,U,y,n,L,G,y,R,y,,,,,5,19,119,8,1,0,1,0,,,,,0,16,16,35,,,,,,down,1.1509046163096173,2924.4094730172683,None,001,98,2019_Nov_08_1100,ACPT_experiment_5_30_19,3.1.0,59.95462919734242,
,,,C,U,y,n,R,U,g,R,u,,,,,5,19,119,8,1,0,1,0,,,,,0,17,17,11,,,,,,up,0.700531658476848,2926.8446864790676,None,001,98,2019_Nov_08_1100,ACPT_experiment_5_30_19,3.1.0,59.95462919734242,
,,,C,U,y,n,L,D,d,R,c ,,,,,5,19,119,8,1,0,1,0,,,,,0,18,18,13,,,,,,up,0.7505793365871796,2928.8295194366406,None,001,98,2019_Nov_08_1100,ACPT_experiment_5_30_19,3.1.0,59.95462919734242,
,,,C,U,y,n,L,D,d,L,c ,,,,,5,19,119,8,1,0,1,0,,,,,0,19,19,12,,,,,,up,0.8673280727930432,2930.864421202225,None,001,98,2019_Nov_08_1100,ACPT_experiment_5_30_19,3.1.0,59.95462919734242,
,,,C,U,y,n,L,U,g,R,u,,,,,5,19,119,8,1,0,1,0,,,,,0,20,20,23,,,,,,up,0.800611016345556,2933.0160572149402,None,001,98,2019_Nov_08_1100,ACPT_experiment_5_30_19,3.1.0,59.95462919734242,
,,,C,U,y,n,L,D,g,R,i,,,,,5,19,119,8,1,0,1,0,,,,,0,21,21,15,,,,,,up,0.9173676007990252,2935.1009828120336,None,001,98,2019_Nov_08_1100,ACPT_experiment_5_30_19,3.1.0,59.95462919734242,
,,,C,U,y,n,L,G,d,R,i,,,,,5,19,119,8,1,0,1,0,,,,,0,22,22,17,,,,,,up,0.8006300332558567,2937.302666201004,None,001,98,2019_Nov_08_1100,ACPT_experiment_5_30_19,3.1.0,59.95462919734242,
,,,C,U,y,n,R,D,g,L,i,,,,,5,19,119,8,1,0,1,0,,,,,0,23,23,2,,,,,,up,0.9507211484042273,2939.3875881758286,None,001,98,2019_Nov_08_1100,ACPT_experiment_5_30_19,3.1.0,59.95462919734242,
,,,C,U,y,n,R,U,y,R,u,,,,,5,19,119,8,1,0,1,0,,,,,0,24,24,31,,,,,,down,0.7839525048138967,2941.622597945389,None,001,98,2019_Nov_08_1100,ACPT_experiment_5_30_19,3.1.0,59.95462919734242,
,,,C,U,y,n,R,U,d,L,u,,,,,5,19,119,8,1,0,1,0,,,,,0,25,25,8,,,,,,up,0.6971907193856168,2943.7108859133295,None,001,98,2019_Nov_08_1100,ACPT_experiment_5_30_19,3.1.0,59.95462919734242,
,,,C,U,y,n,L,D,y,L,y,,,,,5,19,119,8,1,0,1,0,,,,,0,26,26,32,,,,,,down,0.9507184317026258,2945.7090711567503,None,001,98,2019_Nov_08_1100,ACPT_experiment_5_30_19,3.1.0,59.95462919734242,
,,,C,U,y,n,R,U,g,L,u,,,,,5,19,119,8,1,0,1,0,,,,,0,27,27,10,,,,,,up,0.7839150747045096,2947.9608097702244,None,001,98,2019_Nov_08_1100,ACPT_experiment_5_30_19,3.1.0,59.95462919734242,
,,,C,U,y,n,R,G,g,L,c ,,,,,5,19,119,8,1,0,1,0,,,,,0,28,28,6,,,,,,up,0.6338143001730714,2950.0290339922744,None,001,98,2019_Nov_08_1100,ACPT_experiment_5_30_19,3.1.0,59.95462919734242,
,,,C,U,y,n,L,G,g,R,c ,,,,,5,19,119,8,1,0,1,0,,,,,0,29,29,19,,,,,,up,0.6338100741932067,2951.93048142063,None,001,98,2019_Nov_08_1100,ACPT_experiment_5_30_19,3.1.0,59.95462919734242,
,,,C,U,y,n,L,U,d,R,u,,,,,5,19,119,8,1,0,1,0,,,,,0,30,30,21,,,,,,up,0.5837753758783037,2953.848602755158,None,001,98,2019_Nov_08_1100,ACPT_experiment_5_30_19,3.1.0,59.95462919734242,
,,,C,U,y,n,R,D,d,R,c ,,,,,5,19,119,8,1,0,1,0,,,,,0,31,31,1,,,,,,up,0.5670945270239827,2955.700024239014,None,001,98,2019_Nov_08_1100,ACPT_experiment_5_30_19,3.1.0,59.95462919734242,
,,,C,U,y,n,R,G,y,L,y,,,,,5,19,119,8,1,0,1,0,,,,,0,32,32,28,,,,,,down,0.6504933378932947,2957.551434554209,None,001,98,2019_Nov_08_1100,ACPT_experiment_5_30_19,3.1.0,59.95462919734242,
,,,C,U,y,n,R,G,y,R,y,,,,,5,19,119,8,1,0,1,0,,,,,0,33,33,29,,,,,,down,0.8840025826771125,2959.486242774706,None,001,98,2019_Nov_08_1100,ACPT_experiment_5_30_19,3.1.0,59.95462919734242,
,,,C,U,y,n,R,G,d,R,i,,,,,5,19,119,8,1,0,1,0,,,,,0,34,34,5,,,,,,up,0.700533167755566,2961.6545584288533,None,001,98,2019_Nov_08_1100,ACPT_experiment_5_30_19,3.1.0,59.95462919734242,
,,,C,U,y,n,R,D,g,R,i,,,,,5,19,119,8,1,0,1,0,,,,,0,35,35,3,,,,,,up,0.7838082177804608,2963.6394107051924,None,001,98,2019_Nov_08_1100,ACPT_experiment_5_30_19,3.1.0,59.95462919734242,
,,,C,U,y,n,L,D,d,L,c ,,,,,5,19,119,8,1,0,1,0,,,,,1,0,36,12,,,,,,up,0.6671512457132849,2965.7076720554956,None,001,98,2019_Nov_08_1100,ACPT_experiment_5_30_19,3.1.0,59.95462919734242,
,,,C,U,y,n,R,U,g,R,u,,,,,5,19,119,8,1,0,1,0,,,,,1,1,37,11,,,,,,up,0.6504942434603436,2967.6591366745342,None,001,98,2019_Nov_08_1100,ACPT_experiment_5_30_19,3.1.0,59.95462919734242,
,,,C,U,y,n,L,G,d,L,i,,,,,5,19,119,8,1,0,1,0,,,,,1,2,38,16,,,,,,up,0.9640710194062194,2969.613958231017,None,001,98,2019_Nov_08_1100,ACPT_experiment_5_30_19,3.1.0,59.95462919734242,
,,,C,U,y,n,R,G,y,R,y,,,,,5,19,119,8,1,0,1,0,,,,,1,3,39,29,,,,,,down,0.5837913742311684,2971.8623516794196,None,001,98,2019_Nov_08_1100,ACPT_experiment_5_30_19,3.1.0,59.95462919734242,
,,,C,U,y,n,R,G,y,L,y,,,,,5,19,119,8,1,0,1,0,,,,,1,4,40,28,,,,,,down,0.7507215106311378,2973.713605633352,None,001,98,2019_Nov_08_1100,ACPT_experiment_5_30_19,3.1.0,59.95462919734242,
,,,C,U,y,n,L,G,d,R,i,,,,,5,19,119,8,1,0,1,0,,,,,1,5,41,17,,,,,,up,0.6838354149804218,2975.7486571193726,None,001,98,2019_Nov_08_1100,ACPT_experiment_5_30_19,3.1.0,59.95462919734242,
,,,C,U,y,n,R,U,g,L,u,,,,,5,19,119,8,1,0,1,0,,,,,1,6,42,10,,,,,,up,0.6171518645178367,2977.7167823629325,None,001,98,2019_Nov_08_1100,ACPT_experiment_5_30_19,3.1.0,59.95462919734242,
,,,C,U,y,n,L,D,g,R,i,,,,,5,19,119,8,1,0,1,0,,,,,1,7,43,15,,,,,,up,0.6504860933564487,2979.6182572601583,None,001,98,2019_Nov_08_1100,ACPT_experiment_5_30_19,3.1.0,59.95462919734242,
,,,C,U,y,n,L,U,d,R,u,,,,,5,19,119,8,1,0,1,0,,,,,1,8,44,21,,,,,,up,0.9007296154568394,2981.553061858387,None,001,98,2019_Nov_08_1100,ACPT_experiment_5_30_19,3.1.0,59.95462919734242,
,,,C,U,y,n,R,D,d,R,c ,,,,,5,19,119,8,1,0,1,0,,,,,1,9,45,1,,,,,,up,0.5670933196006445,2983.738064096647,None,001,98,2019_Nov_08_1100,ACPT_experiment_5_30_19,3.1.0,59.95462919734242,
,,,C,U,y,n,R,D,g,R,i,,,,,5,19,119,8,1,0,1,0,,,,,1,10,46,3,,,,,,up,0.6338302985263908,2985.572792959276,None,001,98,2019_Nov_08_1100,ACPT_experiment_5_30_19,3.1.0,59.95462919734242,
,,,C,U,y,n,L,D,g,L,i,,,,,5,19,119,8,1,0,1,0,,,,,1,11,47,14,,,,,,up,1.250951373760472,2987.49092516061,None,001,98,2019_Nov_08_1100,ACPT_experiment_5_30_19,3.1.0,59.95462919734242,
,,,C,U,y,n,L,U,g,R,u,,,,,5,19,119,8,1,0,1,0,,,,,1,12,48,23,,,,,,up,0.9840876758044033,2990.0261868891384,None,001,98,2019_Nov_08_1100,ACPT_experiment_5_30_19,3.1.0,59.95462919734242,
,,,C,U,y,n,L,D,y,L,y,,,,,5,19,119,8,1,0,1,0,,,,,1,13,49,32,,,,,,down,1.0007389427987619,2992.2946090681685,None,001,98,2019_Nov_08_1100,ACPT_experiment_5_30_19,3.1.0,59.95462919734242,
,,,C,U,y,n,R,U,y,R,u,,,,,5,19,119,8,1,0,1,0,,,,,1,14,50,31,,,,,,down,0.6671687533448676,2994.579664704705,None,001,98,2019_Nov_08_1100,ACPT_experiment_5_30_19,3.1.0,59.95462919734242,
,,,C,U,y,n,L,U,g,L,u,,,,,5,19,119,8,1,0,1,0,,,,,1,15,51,22,,,,,,up,0.7173196661115071,2996.531147435087,None,001,98,2019_Nov_08_1100,ACPT_experiment_5_30_19,3.1.0,59.95462919734242,
,,,C,U,y,n,R,U,y,L,u,,,,,5,19,119,8,1,0,1,0,,,,,1,16,52,30,,,,,,down,0.800489670346451,2998.5326739194547,None,001,98,2019_Nov_08_1100,ACPT_experiment_5_30_19,3.1.0,59.95462919734242,
,,,C,U,y,n,L,U,y,R,u,,,,,5,19,119,8,1,0,1,0,,,,,1,17,53,25,,,,,,down,0.7839023967649155,3000.61762758913,None,001,98,2019_Nov_08_1100,ACPT_experiment_5_30_19,3.1.0,59.95462919734242,
,,,C,U,y,n,L,U,y,L,u,,,,,5,19,119,8,1,0,1,0,,,,,1,18,54,24,,,,,,down,0.7472486605906852,3002.705844319121,None,001,98,2019_Nov_08_1100,ACPT_experiment_5_30_19,3.1.0,59.95462919734242,
,,,C,U,y,n,R,G,d,R,i,,,,,5,19,119,8,1,0,1,0,,,,,1,19,55,5,,,,,,up,0.9674370125217138,3004.7374051456136,None,001,98,2019_Nov_08_1100,ACPT_experiment_5_30_19,3.1.0,59.95462919734242,
,,,C,U,y,n,L,G,y,L,y,,,,,5,19,119,8,1,0,1,0,,,,,1,20,56,34,,,,,,down,0.9004772640764713,3007.005978252503,None,001,98,2019_Nov_08_1100,ACPT_experiment_5_30_19,3.1.0,59.95462919734242,
,,,C,U,y,n,R,D,d,L,c,,,,,5,19,119,8,1,0,1,0,,,,,1,21,57,0,,,,,,up,0.6835097126604524,3009.2410598637243,None,001,98,2019_Nov_08_1100,ACPT_experiment_5_30_19,3.1.0,59.95462919734242,
,,,C,U,y,n,L,U,d,L,u,,,,,5,19,119,8,1,0,1,0,,,,,1,22,58,20,,,,,,up,0.6671925999467021,3011.2089834676644,None,001,98,2019_Nov_08_1100,ACPT_experiment_5_30_19,3.1.0,59.95462919734242,
,,,C,U,y,n,R,D,g,L,i,,,,,5,19,119,8,1,0,1,0,,,,,1,23,59,2,,,,,,up,0.7172043572272742,3013.160502722588,None,001,98,2019_Nov_08_1100,ACPT_experiment_5_30_19,3.1.0,59.95462919734242,
,,,C,U,y,n,R,D,y,R,y,,,,,5,19,119,8,1,0,1,0,,,,,1,24,60,27,,,,,,down,0.6838689209653239,3015.1453202855196,None,001,98,2019_Nov_08_1100,ACPT_experiment_5_30_19,3.1.0,59.95462919734242,
,,,C,U,y,n,R,U,d,L,u,,,,,5,19,119,8,1,0,1,0,,,,,1,25,61,8,,,,,,up,0.5837539441222361,3017.1135279356904,None,001,98,2019_Nov_08_1100,ACPT_experiment_5_30_19,3.1.0,59.95462919734242,
,,,C,U,y,n,L,G,g,R,c ,,,,,5,19,119,8,1,0,1,0,,,,,1,26,62,19,,,,,,up,0.6671681496331985,3018.9815976679834,None,001,98,2019_Nov_08_1100,ACPT_experiment_5_30_19,3.1.0,59.95462919734242,
,,,C,U,y,n,R,G,d,L,i,,,,,5,19,119,8,1,0,1,0,,,,,1,27,63,4,,,,,,up,0.6338109797602556,3020.933084624345,None,001,98,2019_Nov_08_1100,ACPT_experiment_5_30_19,3.1.0,59.95462919734242,
,,,C,U,y,n,L,D,y,R,y,,,,,5,19,119,8,1,0,1,0,,,,,1,28,64,33,,,,,,down,0.7505672623587998,3022.8512141089777,None,001,98,2019_Nov_08_1100,ACPT_experiment_5_30_19,3.1.0,59.95462919734242,
,,,C,U,y,n,L,D,d,R,c ,,,,,5,19,119,8,1,0,1,0,,,,,1,29,65,13,,,,,,up,0.5837992224796835,3024.8860980650747,None,001,98,2019_Nov_08_1100,ACPT_experiment_5_30_19,3.1.0,59.95462919734242,
,,,C,U,y,n,R,U,d,R,u,,,,,5,19,119,8,1,0,1,0,,,,,1,30,66,9,,,,,,up,0.5670939233123136,3026.754187116134,None,001,98,2019_Nov_08_1100,ACPT_experiment_5_30_19,3.1.0,59.95462919734242,
,,,C,U,y,n,R,G,g,R,c ,,,,,5,19,119,8,1,0,1,0,,,,,1,31,67,7,,,,,,up,0.46699856709074083,3028.622295787815,None,001,98,2019_Nov_08_1100,ACPT_experiment_5_30_19,3.1.0,59.95462919734242,
,,,C,U,y,n,L,G,g,L,c ,,,,,5,19,119,8,1,0,1,0,,,,,1,32,68,18,,,,,,up,1.5345019576852792,3030.3736155764796,None,001,98,2019_Nov_08_1100,ACPT_experiment_5_30_19,3.1.0,59.95462919734242,
,,,C,U,y,n,R,G,g,L,c ,,,,,5,19,119,8,1,0,1,0,,,,,1,33,69,6,,,,,,up,0.8172743575682944,3033.1924414724404,None,001,98,2019_Nov_08_1100,ACPT_experiment_5_30_19,3.1.0,59.95462919734242,
,,,C,U,y,n,R,D,y,L,y,,,,,5,19,119,8,1,0,1,0,,,,,1,34,70,26,,,,,,down,0.7839476751223629,3035.2940346367363,None,001,98,2019_Nov_08_1100,ACPT_experiment_5_30_19,3.1.0,59.95462919734242,
,,,C,U,y,n,L,G,y,R,y,,,,,5,19,119,8,1,0,1,0,,,,,1,35,71,35,,,,,,down,0.8339654695173522,3037.362276668274,None,001,98,2019_Nov_08_1100,ACPT_experiment_5_30_19,3.1.0,59.95462919734242,
,,,C,U,y,n,,,,,,,,,,5,19,119,8,2,0,2,0,0,0,0,0,,,,,,,,,,,,,,001,98,2019_Nov_08_1100,ACPT_experiment_5_30_19,3.1.0,59.95462919734242,
,,,C,U,y,n,L,D,y,R,y,,,,,5,19,119,8,2,0,2,0,,,,,0,0,0,33,,,,,,down,1.033918621509656,3121.059661480886,None,001,98,2019_Nov_08_1100,ACPT_experiment_5_30_19,3.1.0,59.95462919734242,
,,,C,U,y,n,L,G,d,L,i,,,,,5,19,119,8,2,0,2,0,,,,,0,1,1,16,,,,,,up,0.6171340550299647,3123.377861177159,None,001,98,2019_Nov_08_1100,ACPT_experiment_5_30_19,3.1.0,59.95462919734242,
,,,C,U,y,n,L,D,g,R,i,,,,,5,19,119,8,2,0,2,0,,,,,0,2,2,15,,,,,,up,0.7338927524742758,3125.2793080018027,None,001,98,2019_Nov_08_1100,ACPT_experiment_5_30_19,3.1.0,59.95462919734242,
,,,C,U,y,n,R,U,d,L,u,,,,,5,19,119,8,2,0,2,0,,,,,0,3,3,8,,,,,,up,0.5504166967261881,3127.2975162405924,None,001,98,2019_Nov_08_1100,ACPT_experiment_5_30_19,3.1.0,59.95462919734242,
,,,C,U,y,n,L,G,y,L,y,,,,,5,19,119,8,2,0,2,0,,,,,0,4,4,34,,,,,,down,0.733542901697092,3129.14924290058,None,001,98,2019_Nov_08_1100,ACPT_experiment_5_30_19,3.1.0,59.95462919734242,
,,,C,U,y,n,R,D,d,R,c ,,,,,5,19,119,8,2,0,2,0,,,,,0,5,5,1,,,,,,up,0.5837590756696045,3131.167153811487,None,001,98,2019_Nov_08_1100,ACPT_experiment_5_30_19,3.1.0,59.95462919734242,
,,,C,U,y,n,L,G,g,R,c ,,,,,5,19,119,8,2,0,2,0,,,,,0,6,6,19,,,,,,up,0.9507175261355769,3133.0352220345017,None,001,98,2019_Nov_08_1100,ACPT_experiment_5_30_19,3.1.0,59.95462919734242,
,,,C,U,y,n,R,G,d,R,i,,,,,5,19,119,8,2,0,2,0,,,,,0,7,7,5,,,,,,up,0.5837729610325368,3135.270263800768,None,001,98,2019_Nov_08_1100,ACPT_experiment_5_30_19,3.1.0,59.95462919734242,
,,,C,U,y,n,R,G,y,R,y,,,,,5,19,119,8,2,0,2,0,,,,,0,8,8,29,,,,,,down,0.5170806567534783,3137.121649967505,None,001,98,2019_Nov_08_1100,ACPT_experiment_5_30_19,3.1.0,59.95462919734242,
,,,C,U,y,n,R,G,g,R,c ,,,,,5,19,119,8,2,0,2,0,,,,,0,9,9,7,,,,,,up,0.6171497515274496,3138.9063456410977,None,001,98,2019_Nov_08_1100,ACPT_experiment_5_30_19,3.1.0,59.95462919734242,
,,,C,U,y,n,L,G,d,R,i,,,,,5,19,119,8,2,0,2,0,,,,,0,10,10,17,,,,,,up,0.4670290545186617,3140.807813897498,None,001,98,2019_Nov_08_1100,ACPT_experiment_5_30_19,3.1.0,59.95462919734242,
,,,C,U,y,n,R,U,y,R,u,,,,,5,19,119,8,2,0,2,0,,,,,0,11,11,31,,,,,,down,0.6335637599268011,3142.5760834884622,None,001,98,2019_Nov_08_1100,ACPT_experiment_5_30_19,3.1.0,59.95462919734242,
,,,C,U,y,n,R,G,y,L,y,,,,,5,19,119,8,2,0,2,0,,,,,0,12,12,28,,,,,,down,0.6671808275737021,3144.493956395734,None,001,98,2019_Nov_08_1100,ACPT_experiment_5_30_19,3.1.0,59.95462919734242,
,,,C,U,y,n,R,U,g,L,u,,,,,5,19,119,8,2,0,2,0,,,,,0,13,13,10,,,,,,up,0.6337820016110527,3146.445471122822,None,001,98,2019_Nov_08_1100,ACPT_experiment_5_30_19,3.1.0,59.95462919734242,
,,,C,U,y,n,R,D,g,R,i,,,,,5,19,119,8,2,0,2,0,,,,,0,14,14,3,,,,,,up,0.6171328476070812,3148.3635782701313,None,001,98,2019_Nov_08_1100,ACPT_experiment_5_30_19,3.1.0,59.95462919734242,
,,,C,U,y,n,L,U,y,L,u,,,,,5,19,119,8,2,0,2,0,,,,,0,15,15,24,,,,,,down,0.5003777724318752,3150.2650263021983,None,001,98,2019_Nov_08_1100,ACPT_experiment_5_30_19,3.1.0,59.95462919734242,
,,,C,U,y,n,L,D,d,L,c ,,,,,5,19,119,8,2,0,2,0,,,,,0,16,16,12,,,,,,up,1.0174348844393535,3152.049721372079,None,001,98,2019_Nov_08_1100,ACPT_experiment_5_30_19,3.1.0,59.95462919734242,
,,,C,U,y,n,R,U,d,R,u,,,,,5,19,119,8,2,0,2,0,,,,,0,17,17,9,,,,,,up,0.934052373778286,3154.3514877411867,None,001,98,2019_Nov_08_1100,ACPT_experiment_5_30_19,3.1.0,59.95462919734242,
,,,C,U,y,n,L,D,y,L,y,,,,,5,19,119,8,2,0,2,0,,,,,0,18,18,32,,,,,,down,0.5337464128219835,3156.5698305472556,None,001,98,2019_Nov_08_1100,ACPT_experiment_5_30_19,3.1.0,59.95462919734242,
,,,C,U,y,n,R,G,d,L,i,,,,,5,19,119,8,2,0,2,0,,,,,0,19,19,4,,,,,,up,0.6171349605970136,3158.3878864092785,None,001,98,2019_Nov_08_1100,ACPT_experiment_5_30_19,3.1.0,59.95462919734242,
,,,C,U,y,n,R,D,g,L,i,,,,,5,19,119,8,2,0,2,0,,,,,0,20,20,2,,,,,,up,0.850643601669617,3160.289336856191,None,001,98,2019_Nov_08_1100,ACPT_experiment_5_30_19,3.1.0,59.95462919734242,
,,,C,U,y,n,R,U,y,L,u,,,,,5,19,119,8,2,0,2,0,,,,,0,21,21,30,,,,,,down,0.6504833766543925,3162.4409770948864,None,001,98,2019_Nov_08_1100,ACPT_experiment_5_30_19,3.1.0,59.95462919734242,
,,,C,U,y,n,L,U,g,L,u,,,,,5,19,119,8,2,0,2,0,,,,,0,22,22,22,,,,,,up,1.0341223741193062,3164.392462843825,None,001,98,2019_Nov_08_1100,ACPT_experiment_5_30_19,3.1.0,59.95462919734242,
,,,C,U,y,n,R,D,d,L,c,,,,,5,19,119,8,2,0,2,0,,,,,0,23,23,0,,,,,,up,0.767228188736226,3166.710918513747,None,001,98,2019_Nov_08_1100,ACPT_experiment_5_30_19,3.1.0,59.95462919734242,
,,,C,U,y,n,L,G,g,L,c ,,,,,5,19,119,8,2,0,2,0,,,,,0,24,24,18,,,,,,up,0.5337397719958972,3168.762461585087,None,001,98,2019_Nov_08_1100,ACPT_experiment_5_30_19,3.1.0,59.95462919734242,
,,,C,U,y,n,R,U,g,R,u,,,,,5,19,119,8,2,0,2,0,,,,,0,25,25,11,,,,,,up,0.6171343568857992,3170.580512919274,None,001,98,2019_Nov_08_1100,ACPT_experiment_5_30_19,3.1.0,59.95462919734242,
,,,C,U,y,n,L,G,y,R,y,,,,,5,19,119,8,2,0,2,0,,,,,0,26,26,35,,,,,,down,0.683853224467839,3172.4819603476294,None,001,98,2019_Nov_08_1100,ACPT_experiment_5_30_19,3.1.0,59.95462919734242,
,,,C,U,y,n,L,U,y,R,u,,,,,5,19,119,8,2,0,2,0,,,,,0,27,27,25,,,,,,down,0.6502455143486259,3174.4670583345232,None,001,98,2019_Nov_08_1100,ACPT_experiment_5_30_19,3.1.0,59.95462919734242,
,,,C,U,y,n,L,D,g,L,i,,,,,5,19,119,8,2,0,2,0,,,,,0,28,28,14,,,,,,up,0.8840149587622363,3176.401619335187,None,001,98,2019_Nov_08_1100,ACPT_experiment_5_30_19,3.1.0,59.95462919734242,
,,,C,U,y,n,L,D,d,R,c ,,,,,5,19,119,8,2,0,2,0,,,,,0,29,29,13,,,,,,up,0.633813696461857,3178.5699386116025,None,001,98,2019_Nov_08_1100,ACPT_experiment_5_30_19,3.1.0,59.95462919734242,
,,,C,U,y,n,R,D,y,L,y,,,,,5,19,119,8,2,0,2,0,,,,,0,30,30,26,,,,,,down,0.4670408268916617,3180.4880412310763,None,001,98,2019_Nov_08_1100,ACPT_experiment_5_30_19,3.1.0,59.95462919734242,
,,,C,U,y,n,L,U,d,L,u,,,,,5,19,119,8,2,0,2,0,,,,,0,31,31,20,,,,,,up,0.7172076776396352,3182.239405392532,None,001,98,2019_Nov_08_1100,ACPT_experiment_5_30_19,3.1.0,59.95462919734242,
,,,C,U,y,n,L,U,d,R,u,,,,,5,19,119,8,2,0,2,0,,,,,0,32,32,21,,,,,,up,0.433813756832933,3184.2407734026474,None,001,98,2019_Nov_08_1100,ACPT_experiment_5_30_19,3.1.0,59.95462919734242,
,,,C,U,y,n,R,G,g,L,c ,,,,,5,19,119,8,2,0,2,0,,,,,0,33,33,6,,,,,,up,0.5337482239565361,3185.9589035513627,None,001,98,2019_Nov_08_1100,ACPT_experiment_5_30_19,3.1.0,59.95462919734242,
,,,C,U,y,n,L,U,g,R,u,,,,,5,19,119,8,2,0,2,0,,,,,0,34,34,23,,,,,,up,0.7169372149164701,3187.7772268575523,None,001,98,2019_Nov_08_1100,ACPT_experiment_5_30_19,3.1.0,59.95462919734242,
,,,C,U,y,n,R,D,y,R,y,,,,,5,19,119,8,2,0,2,0,,,,,0,35,35,27,,,,,,down,0.7005219990937803,3189.7951646336182,None,001,98,2019_Nov_08_1100,ACPT_experiment_5_30_19,3.1.0,59.95462919734242,
,,,C,U,y,n,R,G,g,L,c ,,,,,5,19,119,8,2,0,2,0,,,,,1,0,36,6,,,,,,up,0.9007000335964221,3191.796691117986,None,001,98,2019_Nov_08_1100,ACPT_experiment_5_30_19,3.1.0,59.95462919734242,
,,,C,U,y,n,L,U,g,R,u,,,,,5,19,119,8,2,0,2,0,,,,,1,1,37,23,,,,,,up,0.9340472422313724,3193.981683998719,None,001,98,2019_Nov_08_1100,ACPT_experiment_5_30_19,3.1.0,59.95462919734242,
,,,C,U,y,n,L,D,d,L,c ,,,,,5,19,119,8,2,0,2,0,,,,,1,2,38,12,,,,,,up,0.6838514133337412,3196.2000464254097,None,001,98,2019_Nov_08_1100,ACPT_experiment_5_30_19,3.1.0,59.95462919734242,
,,,C,U,y,n,L,D,d,R,c ,,,,,5,19,119,8,2,0,2,0,,,,,1,3,39,13,,,,,,up,0.6337029154128686,3198.151533381771,None,001,98,2019_Nov_08_1100,ACPT_experiment_5_30_19,3.1.0,59.95462919734242,
,,,C,U,y,n,L,D,y,R,y,,,,,5,19,119,8,2,0,2,0,,,,,1,4,40,33,,,,,,down,0.900703354009238,3200.0696631682595,None,001,98,2019_Nov_08_1100,ACPT_experiment_5_30_19,3.1.0,59.95462919734242,
,,,C,U,y,n,R,G,y,L,y,,,,,5,19,119,8,2,0,2,0,,,,,1,5,41,28,,,,,,down,0.767245696367354,3202.2546632935296,None,001,98,2019_Nov_08_1100,ACPT_experiment_5_30_19,3.1.0,59.95462919734242,
,,,C,U,y,n,L,G,y,R,y,,,,,5,19,119,8,2,0,2,0,,,,,1,6,42,35,,,,,,down,0.9839566704226854,3204.32299678735,None,001,98,2019_Nov_08_1100,ACPT_experiment_5_30_19,3.1.0,59.95462919734242,
,,,C,U,y,n,R,D,d,L,c,,,,,5,19,119,8,2,0,2,0,,,,,1,7,43,0,,,,,,up,0.767277089361869,3206.6246544883984,None,001,98,2019_Nov_08_1100,ACPT_experiment_5_30_19,3.1.0,59.95462919734242,
,,,C,U,y,n,R,G,d,R,i,,,,,5,19,119,8,2,0,2,0,,,,,1,8,44,5,,,,,,up,0.6171648443132653,3208.676218991494,None,001,98,2019_Nov_08_1100,ACPT_experiment_5_30_19,3.1.0,59.95462919734242,
,,,C,U,y,n,R,D,g,R,i,,,,,5,19,119,8,2,0,2,0,,,,,1,9,45,3,,,,,,up,1.234278373154666,3210.5776751736653,None,001,98,2019_Nov_08_1100,ACPT_experiment_5_30_19,3.1.0,59.95462919734242,
,,,C,U,y,n,L,D,y,L,y,,,,,5,19,119,8,2,0,2,0,,,,,1,10,46,32,,,,,,down,0.7672411685316547,3213.096271447981,None,001,98,2019_Nov_08_1100,ACPT_experiment_5_30_19,3.1.0,59.95462919734242,
,,,C,U,y,n,R,D,d,R,c ,,,,,5,19,119,8,2,0,2,0,,,,,1,11,47,1,,,,,,up,1.4344503705428906,3215.1478244805594,None,001,98,2019_Nov_08_1100,ACPT_experiment_5_30_19,3.1.0,59.95462919734242,
,,,C,U,y,n,L,U,d,R,u,,,,,5,19,119,8,2,0,2,0,,,,,1,12,48,21,,,,,,up,0.6838357168367111,3217.849905262583,None,001,98,2019_Nov_08_1100,ACPT_experiment_5_30_19,3.1.0,59.95462919734242,
,,,C,U,y,n,R,U,g,R,u,,,,,5,19,119,8,2,0,2,0,,,,,1,13,49,11,,,,,,up,1.00076792094751,3219.8180486174856,None,001,98,2019_Nov_08_1100,ACPT_experiment_5_30_19,3.1.0,59.95462919734242,
,,,C,U,y,n,R,U,d,L,u,,,,,5,19,119,8,2,0,2,0,,,,,1,14,50,8,,,,,,up,0.8506680519831207,3222.0864282348593,None,001,98,2019_Nov_08_1100,ACPT_experiment_5_30_19,3.1.0,59.95462919734242,
,,,C,U,y,n,L,G,g,R,c ,,,,,5,19,119,8,2,0,2,0,,,,,1,15,51,19,,,,,,up,4.820368076825616,3224.2213800783074,None,001,98,2019_Nov_08_1100,ACPT_experiment_5_30_19,3.1.0,59.95462919734242,
,,,C,U,y,n,R,U,y,R,u,,,,,5,19,119,8,2,0,2,0,,,,,1,16,52,31,,,,,,down,0.8840080160803154,3230.32605790619,None,001,98,2019_Nov_08_1100,ACPT_experiment_5_30_19,3.1.0,59.95462919734242,
,,,C,U,y,n,R,U,g,L,u,,,,,5,19,119,8,2,0,2,0,,,,,1,17,53,10,,,,,,up,1.7346467880588534,3232.494384427143,None,001,98,2019_Nov_08_1100,ACPT_experiment_5_30_19,3.1.0,59.95462919734242,
,,,C,U,y,n,L,G,d,R,i,,,,,5,19,119,8,2,0,2,0,,,,,1,18,54,17,,,,,,up,3.936360060745301,3235.5133237604823,None,001,98,2019_Nov_08_1100,ACPT_experiment_5_30_19,3.1.0,59.95462919734242,
,,,C,U,y,n,L,U,y,R,u,,,,,5,19,119,8,2,0,2,0,,,,,1,19,55,25,,,,,,down,1.0006438582472583,3240.73399387414,None,001,98,2019_Nov_08_1100,ACPT_experiment_5_30_19,3.1.0,59.95462919734242,
,,,C,U,y,n,R,U,d,R,u,,,,,5,19,119,8,2,0,2,0,,,,,1,20,56,9,,,,,,up,0.8005926031464696,3243.0190866389303,None,001,98,2019_Nov_08_1100,ACPT_experiment_5_30_19,3.1.0,59.95462919734242,
,,,C,U,y,n,R,G,d,L,i,,,,,5,19,119,8,2,0,2,0,,,,,1,21,57,4,,,,,,up,0.8506689575506243,3245.1039705799344,None,001,98,2019_Nov_08_1100,ACPT_experiment_5_30_19,3.1.0,59.95462919734242,
,,,C,U,y,n,L,U,y,L,u,,,,,5,19,119,8,2,0,2,0,,,,,1,22,58,24,,,,,,down,0.7172544652762554,3247.2389308753422,None,001,98,2019_Nov_08_1100,ACPT_experiment_5_30_19,3.1.0,59.95462919734242,
,,,C,U,y,n,L,G,d,L,i,,,,,5,19,119,8,2,0,2,0,,,,,1,23,59,16,,,,,,up,0.7172173370227028,3249.240483621158,None,001,98,2019_Nov_08_1100,ACPT_experiment_5_30_19,3.1.0,59.95462919734242,
,,,C,U,y,n,R,D,y,L,y,,,,,5,19,119,8,2,0,2,0,,,,,1,24,60,26,,,,,,down,0.8172852243737907,3251.2586834079875,None,001,98,2019_Nov_08_1100,ACPT_experiment_5_30_19,3.1.0,59.95462919734242,
,,,C,U,y,n,L,G,y,L,y,,,,,5,19,119,8,2,0,2,0,,,,,1,25,61,34,,,,,,down,0.7338815838129449,3253.3769697972225,None,001,98,2019_Nov_08_1100,ACPT_experiment_5_30_19,3.1.0,59.95462919734242,
,,,C,U,y,n,L,U,d,L,u,,,,,5,19,119,8,2,0,2,0,,,,,1,26,62,20,,,,,,up,0.7005271306411487,3255.3951713951865,None,001,98,2019_Nov_08_1100,ACPT_experiment_5_30_19,3.1.0,59.95462919734242,
,,,C,U,y,n,L,D,g,L,i,,,,,5,19,119,8,2,0,2,0,,,,,1,27,63,14,,,,,,up,0.6338112816160901,3257.380017634411,None,001,98,2019_Nov_08_1100,ACPT_experiment_5_30_19,3.1.0,59.95462919734242,
,,,C,U,y,n,L,G,g,L,c ,,,,,5,19,119,8,2,0,2,0,,,,,1,28,64,18,,,,,,up,0.5337744854036828,3259.281447555135,None,001,98,2019_Nov_08_1100,ACPT_experiment_5_30_19,3.1.0,59.95462919734242,
,,,C,U,y,n,R,D,y,R,y,,,,,5,19,119,8,2,0,2,0,,,,,1,29,65,27,,,,,,down,0.7005216972379458,3261.0995284711826,None,001,98,2019_Nov_08_1100,ACPT_experiment_5_30_19,3.1.0,59.95462919734242,
,,,C,U,y,n,L,D,g,R,i,,,,,5,19,119,8,2,0,2,0,,,,,1,30,66,15,,,,,,up,1.0174369974292858,3263.0843692770045,None,001,98,2019_Nov_08_1100,ACPT_experiment_5_30_19,3.1.0,59.95462919734242,
,,,C,U,y,n,R,G,y,R,y,,,,,5,19,119,8,2,0,2,0,,,,,1,31,67,29,,,,,,down,0.6504830747990127,3265.386130212709,None,001,98,2019_Nov_08_1100,ACPT_experiment_5_30_19,3.1.0,59.95462919734242,
,,,C,U,y,n,R,G,g,R,c ,,,,,5,19,119,8,2,0,2,0,,,,,1,32,68,7,,,,,,up,0.7172058665055374,3267.3209323960914,None,001,98,2019_Nov_08_1100,ACPT_experiment_5_30_19,3.1.0,59.95462919734242,
,,,C,U,y,n,R,U,y,L,u,,,,,5,19,119,8,2,0,2,0,,,,,1,33,69,30,,,,,,down,0.7672432815220418,3269.339132182921,None,001,98,2019_Nov_08_1100,ACPT_experiment_5_30_19,3.1.0,59.95462919734242,
,,,C,U,y,n,L,U,g,L,u,,,,,5,19,119,8,2,0,2,0,,,,,1,34,70,22,,,,,,up,0.7338861116486441,3271.4073817608514,None,001,98,2019_Nov_08_1100,ACPT_experiment_5_30_19,3.1.0,59.95462919734242,
,,,C,U,y,n,R,D,g,L,i,,,,,5,19,119,8,2,0,2,0,,,,,1,35,71,2,,,,,,up,0.4670251303941768,3273.4089043210947,None,001,98,2019_Nov_08_1100,ACPT_experiment_5_30_19,3.1.0,59.95462919734242,
,,,C,U,y,n,,,,,,,,,,5,19,119,8,3,0,3,0,0,0,0,0,,,,,,,,,,,,,,001,98,2019_Nov_08_1100,ACPT_experiment_5_30_19,3.1.0,59.95462919734242,
,,,C,U,y,n,L,D,g,R,i,,,,,5,19,119,8,3,0,3,0,,,,,0,0,0,15,,,,,,up,0.6805358301230626,3383.396081490177,None,001,98,2019_Nov_08_1100,ACPT_experiment_5_30_19,3.1.0,59.95462919734242,
,,,C,U,y,n,L,G,g,R,c ,,,,,5,19,119,8,3,0,3,0,,,,,0,1,1,19,,,,,,up,0.5504852179742556,3385.344247429925,None,001,98,2019_Nov_08_1100,ACPT_experiment_5_30_19,3.1.0,59.95462919734242,
,,,C,U,y,n,L,U,y,R,u,,,,,5,19,119,8,3,0,3,0,,,,,0,2,2,25,,,,,,down,0.7172103943412367,3387.178981725957,None,001,98,2019_Nov_08_1100,ACPT_experiment_5_30_19,3.1.0,59.95462919734242,
,,,C,U,y,n,L,D,d,R,c ,,,,,5,19,119,8,3,0,3,0,,,,,0,3,3,13,,,,,,up,1.3510310334845599,3389.1805051917677,None,001,98,2019_Nov_08_1100,ACPT_experiment_5_30_19,3.1.0,59.95462919734242,
,,,C,U,y,n,R,G,d,R,i,,,,,5,19,119,8,3,0,3,0,,,,,0,4,4,5,,,,,,up,0.5337328293148857,3391.815849900433,None,001,98,2019_Nov_08_1100,ACPT_experiment_5_30_19,3.1.0,59.95462919734242,
,,,C,U,y,n,R,D,g,L,i,,,,,5,19,119,8,3,0,3,0,,,,,0,5,5,2,,,,,,up,0.817312391388441,3393.633881312143,None,001,98,2019_Nov_08_1100,ACPT_experiment_5_30_19,3.1.0,59.95462919734242,
,,,C,U,y,n,R,U,g,R,u,,,,,5,19,119,8,3,0,3,0,,,,,0,6,6,11,,,,,,up,0.5504200171394587,3395.7355040582993,None,001,98,2019_Nov_08_1100,ACPT_experiment_5_30_19,3.1.0,59.95462919734242,
,,,C,U,y,n,R,G,g,L,c ,,,,,5,19,119,8,3,0,3,0,,,,,0,7,7,6,,,,,,up,0.6338088667698685,3397.5702419766,None,001,98,2019_Nov_08_1100,ACPT_experiment_5_30_19,3.1.0,59.95462919734242,
,,,C,U,y,n,L,D,y,L,y,,,,,5,19,119,8,3,0,3,0,,,,,0,8,8,32,,,,,,down,0.6504903193358587,3399.4883726686553,None,001,98,2019_Nov_08_1100,ACPT_experiment_5_30_19,3.1.0,59.95462919734242,
,,,C,U,y,n,R,G,d,L,i,,,,,5,19,119,8,3,0,3,0,,,,,0,9,9,4,,,,,,up,0.6338061500687218,3401.423183002142,None,001,98,2019_Nov_08_1100,ACPT_experiment_5_30_19,3.1.0,59.95462919734242,
,,,C,U,y,n,L,G,y,L,y,,,,,5,19,119,8,3,0,3,0,,,,,0,10,10,34,,,,,,down,0.5837705461867699,3403.341306449661,None,001,98,2019_Nov_08_1100,ACPT_experiment_5_30_19,3.1.0,59.95462919734242,
,,,C,U,y,n,R,D,y,L,y,,,,,5,19,119,8,3,0,3,0,,,,,0,11,11,26,,,,,,down,0.46700913204085737,3405.2094009341226,None,001,98,2019_Nov_08_1100,ACPT_experiment_5_30_19,3.1.0,59.95462919734242,
,,,C,U,y,n,L,U,d,R,u,,,,,5,19,119,8,3,0,3,0,,,,,0,12,12,21,,,,,,up,0.667174488603905,3406.960731287738,None,001,98,2019_Nov_08_1100,ACPT_experiment_5_30_19,3.1.0,59.95462919734242,
,,,C,U,y,n,L,U,g,L,u,,,,,5,19,119,8,3,0,3,0,,,,,0,13,13,22,,,,,,up,0.5001048948620337,3408.912496856927,None,001,98,2019_Nov_08_1100,ACPT_experiment_5_30_19,3.1.0,59.95462919734242,
,,,C,U,y,n,R,U,g,L,u,,,,,5,19,119,8,3,0,3,0,,,,,0,14,14,10,,,,,,up,0.46703961946877826,3410.6802285410017,None,001,98,2019_Nov_08_1100,ACPT_experiment_5_30_19,3.1.0,59.95462919734242,
,,,C,U,y,n,R,U,y,L,u,,,,,5,19,119,8,3,0,3,0,,,,,0,15,15,30,,,,,,down,0.48370114955741883,3412.4315709688453,None,001,98,2019_Nov_08_1100,ACPT_experiment_5_30_19,3.1.0,59.95462919734242,
,,,C,U,y,n,L,G,d,R,i,,,,,5,19,119,8,3,0,3,0,,,,,0,16,16,17,,,,,,up,0.7339150897973923,3414.199584284305,None,001,98,2019_Nov_08_1100,ACPT_experiment_5_30_19,3.1.0,59.95462919734242,
,,,C,U,y,n,L,G,g,L,c ,,,,,5,19,119,8,3,0,3,0,,,,,0,17,17,18,,,,,,up,0.5668258754340059,3416.2180581561265,None,001,98,2019_Nov_08_1100,ACPT_experiment_5_30_19,3.1.0,59.95462919734242,
,,,C,U,y,n,R,D,d,L,c,,,,,5,19,119,8,3,0,3,0,,,,,0,18,18,0,,,,,,up,0.5837723573213225,3418.069198612309,None,001,98,2019_Nov_08_1100,ACPT_experiment_5_30_19,3.1.0,59.95462919734242,
,,,C,U,y,n,L,D,g,L,i,,,,,5,19,119,8,3,0,3,0,,,,,0,19,19,14,,,,,,up,0.6004550173097414,3419.9372903800695,None,001,98,2019_Nov_08_1100,ACPT_experiment_5_30_19,3.1.0,59.95462919734242,
,,,C,U,y,n,R,D,g,R,i,,,,,5,19,119,8,3,0,3,0,,,,,0,20,20,3,,,,,,up,0.6338167150188383,3421.805381242263,None,001,98,2019_Nov_08_1100,ACPT_experiment_5_30_19,3.1.0,59.95462919734242,
,,,C,U,y,n,R,D,d,R,c ,,,,,5,19,119,8,3,0,3,0,,,,,0,21,21,1,,,,,,up,0.7839422417191599,3423.706811162987,None,001,98,2019_Nov_08_1100,ACPT_experiment_5_30_19,3.1.0,59.95462919734242,
,,,C,U,y,n,L,G,d,L,i,,,,,5,19,119,8,3,0,3,0,,,,,0,22,22,16,,,,,,up,0.6672031648968186,3425.7583741568037,None,001,98,2019_Nov_08_1100,ACPT_experiment_5_30_19,3.1.0,59.95462919734242,
,,,C,U,y,n,R,U,d,L,u,,,,,5,19,119,8,3,0,3,0,,,,,0,23,23,8,,,,,,up,0.5337572796279346,3427.7098825449216,None,001,98,2019_Nov_08_1100,ACPT_experiment_5_30_19,3.1.0,59.95462919734242,
,,,C,U,y,n,L,U,y,L,u,,,,,5,19,119,8,3,0,3,0,,,,,0,24,24,24,,,,,,down,0.6638416996170236,3429.5479460076713,None,001,98,2019_Nov_08_1100,ACPT_experiment_5_30_19,3.1.0,59.95462919734242,
,,,C,U,y,n,R,G,g,R,c ,,,,,5,19,119,8,3,0,3,0,,,,,0,25,25,7,,,,,,up,0.5337412812750699,3431.4960998731904,None,001,98,2019_Nov_08_1100,ACPT_experiment_5_30_19,3.1.0,59.95462919734242,
,,,C,U,y,n,L,U,g,R,u,,,,,5,19,119,8,3,0,3,0,,,,,0,26,26,23,,,,,,up,0.8172873373641778,3433.314156037069,None,001,98,2019_Nov_08_1100,ACPT_experiment_5_30_19,3.1.0,59.95462919734242,
,,,C,U,y,n,R,D,y,R,y,,,,,5,19,119,8,3,0,3,0,,,,,0,27,27,27,,,,,,down,0.8840065068015974,3435.415760068171,None,001,98,2019_Nov_08_1100,ACPT_experiment_5_30_19,3.1.0,59.95462919734242,
,,,C,U,y,n,R,U,d,R,u,,,,,5,19,119,8,3,0,3,0,,,,,0,28,28,9,,,,,,up,1.1341857336346948,3437.5840826649996,None,001,98,2019_Nov_08_1100,ACPT_experiment_5_30_19,3.1.0,59.95462919734242,
,,,C,U,y,n,R,G,y,L,y,,,,,5,19,119,8,3,0,3,0,,,,,0,29,29,28,,,,,,down,0.767261996576508,3440.0025796589694,None,001,98,2019_Nov_08_1100,ACPT_experiment_5_30_19,3.1.0,59.95462919734242,
,,,C,U,y,n,L,D,d,L,c ,,,,,5,19,119,8,3,0,3,0,,,,,0,30,30,12,,,,,,up,0.7505470380256156,3442.0875278952417,None,001,98,2019_Nov_08_1100,ACPT_experiment_5_30_19,3.1.0,59.95462919734242,
,,,C,U,y,n,L,U,d,L,u,,,,,5,19,119,8,3,0,3,0,,,,,0,31,31,20,,,,,,up,0.5838094855744203,3444.1223744212293,None,001,98,2019_Nov_08_1100,ACPT_experiment_5_30_19,3.1.0,59.95462919734242,
,,,C,U,y,n,L,G,y,R,y,,,,,5,19,119,8,3,0,3,0,,,,,0,32,32,35,,,,,,down,0.7838975670729269,3445.9905051283777,None,001,98,2019_Nov_08_1100,ACPT_experiment_5_30_19,3.1.0,59.95462919734242,
,,,C,U,y,n,R,G,y,R,y,,,,,5,19,119,8,3,0,3,0,,,,,0,33,33,29,,,,,,down,0.900684337099392,3448.0587275392936,None,001,98,2019_Nov_08_1100,ACPT_experiment_5_30_19,3.1.0,59.95462919734242,
,,,C,U,y,n,L,D,y,R,y,,,,,5,19,119,8,3,0,3,0,,,,,0,34,34,33,,,,,,down,1.2009085253412195,3450.260409418985,None,001,98,2019_Nov_08_1100,ACPT_experiment_5_30_19,3.1.0,59.95462919734242,
,,,C,U,y,n,R,U,y,R,u,,,,,5,19,119,8,3,0,3,0,,,,,0,35,35,31,,,,,,down,0.717145797217654,3452.745688066527,None,001,98,2019_Nov_08_1100,ACPT_experiment_5_30_19,3.1.0,59.95462919734242,
,,,C,U,y,n,L,G,g,R,c ,,,,,5,19,119,8,3,0,3,0,,,,,1,0,36,19,,,,,,up,0.6003973628676249,3454.763886947789,None,001,98,2019_Nov_08_1100,ACPT_experiment_5_30_19,3.1.0,59.95462919734242,
,,,C,U,y,n,L,D,d,R,c ,,,,,5,19,119,8,3,0,3,0,,,,,1,1,37,13,,,,,,up,0.6171262067814496,3456.6486151916138,None,001,98,2019_Nov_08_1100,ACPT_experiment_5_30_19,3.1.0,59.95462919734242,
,,,C,U,y,n,R,U,g,L,u,,,,,5,19,119,8,3,0,3,0,,,,,1,2,38,10,,,,,,up,1.0674970516242865,3458.5500396789344,None,001,98,2019_Nov_08_1100,ACPT_experiment_5_30_19,3.1.0,59.95462919734242,
,,,C,U,y,n,L,D,y,R,y,,,,,5,19,119,8,3,0,3,0,,,,,1,3,39,33,,,,,,down,0.750574808751935,3460.9018534242964,None,001,98,2019_Nov_08_1100,ACPT_experiment_5_30_19,3.1.0,59.95462919734242,
,,,C,U,y,n,R,G,d,L,i,,,,,5,19,119,8,3,0,3,0,,,,,1,4,40,4,,,,,,up,1.3009927129010066,3462.9367370785376,None,001,98,2019_Nov_08_1100,ACPT_experiment_5_30_19,3.1.0,59.95462919734242,
,,,C,U,y,n,L,G,d,L,i,,,,,5,19,119,8,3,0,3,0,,,,,1,5,41,16,,,,,,up,0.6171431107018179,3465.522038033217,None,001,98,2019_Nov_08_1100,ACPT_experiment_5_30_19,3.1.0,59.95462919734242,
,,,C,U,y,n,R,D,d,R,c ,,,,,5,19,119,8,3,0,3,0,,,,,1,6,42,1,,,,,,up,0.7005401104370321,3467.423492404254,None,001,98,2019_Nov_08_1100,ACPT_experiment_5_30_19,3.1.0,59.95462919734242,
,,,C,U,y,n,L,G,y,R,y,,,,,5,19,119,8,3,0,3,0,,,,,1,7,43,35,,,,,,down,0.750571790194499,3469.4083422657473,None,001,98,2019_Nov_08_1100,ACPT_experiment_5_30_19,3.1.0,59.95462919734242,
,,,C,U,y,n,R,G,y,R,y,,,,,5,19,119,8,3,0,3,0,,,,,1,8,44,29,,,,,,down,0.9006831296760538,3471.44322229772,None,001,98,2019_Nov_08_1100,ACPT_experiment_5_30_19,3.1.0,59.95462919734242,
,,,C,U,y,n,L,G,y,L,y,,,,,5,19,119,8,3,0,3,0,,,,,1,9,45,34,,,,,,down,0.8006052810865185,3473.628223328557,None,001,98,2019_Nov_08_1100,ACPT_experiment_5_30_19,3.1.0,59.95462919734242,
,,,C,U,y,n,L,U,y,L,u,,,,,5,19,119,8,3,0,3,0,,,,,1,10,46,24,,,,,,down,0.6838791840596059,3475.713118136367,None,001,98,2019_Nov_08_1100,ACPT_experiment_5_30_19,3.1.0,59.95462919734242,
,,,C,U,y,n,L,G,d,R,i,,,,,5,19,119,8,3,0,3,0,,,,,1,11,47,17,,,,,,up,0.7672915784364704,3477.6813134104536,None,001,98,2019_Nov_08_1100,ACPT_experiment_5_30_19,3.1.0,59.95462919734242,
,,,C,U,y,n,R,D,d,L,c,,,,,5,19,119,8,3,0,3,0,,,,,1,12,48,0,,,,,,up,0.667198033349905,3479.7328742912805,None,001,98,2019_Nov_08_1100,ACPT_experiment_5_30_19,3.1.0,59.95462919734242,
,,,C,U,y,n,L,U,d,L,u,,,,,5,19,119,8,3,0,3,0,,,,,1,13,49,20,,,,,,up,0.4834391387935284,3481.684639256759,None,001,98,2019_Nov_08_1100,ACPT_experiment_5_30_19,3.1.0,59.95462919734242,
,,,C,U,y,n,R,D,y,L,y,,,,,5,19,119,8,3,0,3,0,,,,,1,14,50,26,,,,,,down,0.5670906028994978,3483.4523564517585,None,001,98,2019_Nov_08_1100,ACPT_experiment_5_30_19,3.1.0,59.95462919734242,
,,,C,U,y,n,R,D,g,L,i,,,,,5,19,119,8,3,0,3,0,,,,,1,15,51,2,,,,,,up,0.8840040919558305,3485.3037869912864,None,001,98,2019_Nov_08_1100,ACPT_experiment_5_30_19,3.1.0,59.95462919734242,
,,,C,U,y,n,R,G,g,L,c ,,,,,5,19,119,8,3,0,3,0,,,,,1,16,52,6,,,,,,up,0.533772674269585,3487.472108682548,None,001,98,2019_Nov_08_1100,ACPT_experiment_5_30_19,3.1.0,59.95462919734242,
,,,C,U,y,n,R,U,y,L,u,,,,,5,19,119,8,3,0,3,0,,,,,1,17,53,30,,,,,,down,1.1175507668494902,3489.2901304348748,None,001,98,2019_Nov_08_1100,ACPT_experiment_5_30_19,3.1.0,59.95462919734242,
,,,C,U,y,n,R,D,y,R,y,,,,,5,19,119,8,3,0,3,0,,,,,1,18,54,27,,,,,,down,2.218348843183321,3491.7086736127694,None,001,98,2019_Nov_08_1100,ACPT_experiment_5_30_19,3.1.0,59.95462919734242,
,,,C,U,y,n,R,G,y,L,y,,,,,5,19,119,8,3,0,3,0,,,,,1,19,55,28,,,,,,down,0.7505240969912848,3495.2280646731915,None,001,98,2019_Nov_08_1100,ACPT_experiment_5_30_19,3.1.0,59.95462919734242,
,,,C,U,y,n,R,G,g,R,c ,,,,,5,19,119,8,3,0,3,0,,,,,1,20,56,7,,,,,,up,0.6505253345994788,3497.2629075769105,None,001,98,2019_Nov_08_1100,ACPT_experiment_5_30_19,3.1.0,59.95462919734242,
,,,C,U,y,n,R,U,y,R,u,,,,,5,19,119,8,3,0,3,0,,,,,1,21,57,31,,,,,,down,0.8840062049462176,3499.197712476995,None,001,98,2019_Nov_08_1100,ACPT_experiment_5_30_19,3.1.0,59.95462919734242,
,,,C,U,y,n,L,U,g,L,u,,,,,5,19,119,8,3,0,3,0,,,,,1,22,58,22,,,,,,up,0.5670924140335956,3501.366034771968,None,001,98,2019_Nov_08_1100,ACPT_experiment_5_30_19,3.1.0,59.95462919734242,
,,,C,U,y,n,R,U,g,R,u,,,,,5,19,119,8,3,0,3,0,,,,,1,23,59,11,,,,,,up,0.6838499040550232,3503.2174447853067,None,001,98,2019_Nov_08_1100,ACPT_experiment_5_30_19,3.1.0,59.95462919734242,
,,,C,U,y,n,R,U,d,R,u,,,,,5,19,119,8,3,0,3,0,,,,,1,24,60,9,,,,,,up,0.6004812787577976,3505.1855872346423,None,001,98,2019_Nov_08_1100,ACPT_experiment_5_30_19,3.1.0,59.95462919734242,
,,,C,U,y,n,L,U,y,R,u,,,,,5,19,119,8,3,0,3,0,,,,,1,25,61,25,,,,,,down,1.1341878466246271,3507.0870693764055,None,001,98,2019_Nov_08_1100,ACPT_experiment_5_30_19,3.1.0,59.95462919734242,
,,,C,U,y,n,L,G,g,L,c ,,,,,5,19,119,8,3,0,3,0,,,,,1,26,62,18,,,,,,up,1.6679348631582798,3509.5055712000667,None,001,98,2019_Nov_08_1100,ACPT_experiment_5_30_19,3.1.0,59.95462919734242,
,,,C,U,y,n,L,U,d,R,u,,,,,5,19,119,8,3,0,3,0,,,,,1,27,63,21,,,,,,up,0.7672463000790231,3512.4578236625302,None,001,98,2019_Nov_08_1100,ACPT_experiment_5_30_19,3.1.0,59.95462919734242,
,,,C,U,y,n,L,D,g,L,i,,,,,5,19,119,8,3,0,3,0,,,,,1,28,64,14,,,,,,up,0.5670978474367985,3514.509382732223,None,001,98,2019_Nov_08_1100,ACPT_experiment_5_30_19,3.1.0,59.95462919734242,
,,,C,U,y,n,R,U,d,L,u,,,,,5,19,119,8,3,0,3,0,,,,,1,29,65,8,,,,,,up,0.9006891667904711,3516.3607960659747,None,001,98,2019_Nov_08_1100,ACPT_experiment_5_30_19,3.1.0,59.95462919734242,
,,,C,U,y,n,R,D,g,R,i,,,,,5,19,119,8,3,0,3,0,,,,,1,30,66,3,,,,,,up,1.0674795439927038,3518.545796191245,None,001,98,2019_Nov_08_1100,ACPT_experiment_5_30_19,3.1.0,59.95462919734242,
,,,C,U,y,n,L,U,g,R,u,,,,,5,19,119,8,3,0,3,0,,,,,1,31,67,23,,,,,,up,0.817305146851595,3520.897566469384,None,001,98,2019_Nov_08_1100,ACPT_experiment_5_30_19,3.1.0,59.95462919734242,
,,,C,U,y,n,L,D,y,L,y,,,,,5,19,119,8,3,0,3,0,,,,,1,32,68,32,,,,,,down,0.7338921487626067,3522.9991889136845,None,001,98,2019_Nov_08_1100,ACPT_experiment_5_30_19,3.1.0,59.95462919734242,
,,,C,U,y,n,L,D,g,R,i,,,,,5,19,119,8,3,0,3,0,,,,,1,33,69,15,,,,,,up,0.6338354300733045,3525.0006975885653,None,001,98,2019_Nov_08_1100,ACPT_experiment_5_30_19,3.1.0,59.95462919734242,
,,,C,U,y,n,L,D,d,L,c ,,,,,5,19,119,8,3,0,3,0,,,,,1,34,70,12,,,,,,up,0.8172831113838583,3526.9188457882524,None,001,98,2019_Nov_08_1100,ACPT_experiment_5_30_19,3.1.0,59.95462919734242,
,,,C,U,y,n,R,G,d,R,i,,,,,5,19,119,8,3,0,3,0,,,,,1,35,71,5,,,,,,up,0.817165689509693,3529.020451026777,None,001,98,2019_Nov_08_1100,ACPT_experiment_5_30_19,3.1.0,59.95462919734242,
,,,C,U,y,n,,,,,,,,,,5,19,119,8,4,0,4,0,0,0,0,0,,,,,,,,,,,,,,001,98,2019_Nov_08_1100,ACPT_experiment_5_30_19,3.1.0,59.95462919734242,
,,,C,U,y,n,L,U,d,R,u,,,,,5,19,119,8,4,0,4,0,,,,,0,0,0,21,,,,,,up,0.7335984431492761,3685.139770064425,None,001,98,2019_Nov_08_1100,ACPT_experiment_5_30_19,3.1.0,59.95462919734242,
,,,C,U,y,n,R,D,y,R,y,,,,,5,19,119,8,4,0,4,0,,,,,0,1,1,27,,,,,,down,0.700532262188517,3687.157685503168,None,001,98,2019_Nov_08_1100,ACPT_experiment_5_30_19,3.1.0,59.95462919734242,
,,,C,U,y,n,R,G,d,R,i,,,,,5,19,119,8,4,0,4,0,,,,,0,2,2,5,,,,,,up,0.5837750740224692,3689.1425362702284,None,001,98,2019_Nov_08_1100,ACPT_experiment_5_30_19,3.1.0,59.95462919734242,
,,,C,U,y,n,L,D,g,L,i,,,,,5,19,119,8,4,0,4,0,,,,,0,3,3,14,,,,,,up,0.9507344300559453,3691.0106223027306,None,001,98,2019_Nov_08_1100,ACPT_experiment_5_30_19,3.1.0,59.95462919734242,
,,,C,U,y,n,L,G,y,R,y,,,,,5,19,119,8,4,0,4,0,,,,,0,4,4,35,,,,,,down,0.6338109797602556,3693.245663767141,None,001,98,2019_Nov_08_1100,ACPT_experiment_5_30_19,3.1.0,59.95462919734242,
,,,C,U,y,n,R,U,y,R,u,,,,,5,19,119,8,4,0,4,0,,,,,0,5,5,31,,,,,,down,0.48368998089517845,3695.163789931361,None,001,98,2019_Nov_08_1100,ACPT_experiment_5_30_19,3.1.0,59.95462919734242,
,,,C,U,y,n,R,D,g,L,i,,,,,5,19,119,8,4,0,4,0,,,,,0,6,6,2,,,,,,up,0.7172109980529058,3696.931807170945,None,001,98,2019_Nov_08_1100,ACPT_experiment_5_30_19,3.1.0,59.95462919734242,
,,,C,U,y,n,R,D,y,L,y,,,,,5,19,119,8,4,0,4,0,,,,,0,7,7,26,,,,,,down,0.7839494862564607,3698.916629563568,None,001,98,2019_Nov_08_1100,ACPT_experiment_5_30_19,3.1.0,59.95462919734242,
,,,C,U,y,n,L,D,y,R,y,,,,,5,19,119,8,4,0,4,0,,,,,0,8,8,33,,,,,,down,0.8505328206215381,3700.984894234284,None,001,98,2019_Nov_08_1100,ACPT_experiment_5_30_19,3.1.0,59.95462919734242,
,,,C,U,y,n,R,U,y,L,u,,,,,5,19,119,8,4,0,4,0,,,,,0,9,9,30,,,,,,down,0.5837717536096534,3703.1198581519607,None,001,98,2019_Nov_08_1100,ACPT_experiment_5_30_19,3.1.0,59.95462919734242,
,,,C,U,y,n,L,D,g,R,i,,,,,5,19,119,8,4,0,4,0,,,,,0,10,10,15,,,,,,up,0.6504930360374601,3704.9879459955973,None,001,98,2019_Nov_08_1100,ACPT_experiment_5_30_19,3.1.0,59.95462919734242,
,,,C,U,y,n,R,U,g,L,u,,,,,5,19,119,8,4,0,4,0,,,,,0,11,11,10,,,,,,up,0.6671922980913223,3706.9227348973286,None,001,98,2019_Nov_08_1100,ACPT_experiment_5_30_19,3.1.0,59.95462919734242,
,,,C,U,y,n,R,U,d,L,u,,,,,5,19,119,8,4,0,4,0,,,,,0,12,12,8,,,,,,up,0.4503346221567881,3708.874242078023,None,001,98,2019_Nov_08_1100,ACPT_experiment_5_30_19,3.1.0,59.95462919734242,
,,,C,U,y,n,R,G,g,R,c ,,,,,5,19,119,8,4,0,4,0,,,,,0,13,13,7,,,,,,up,0.6671675459219841,3710.608900940311,None,001,98,2019_Nov_08_1100,ACPT_experiment_5_30_19,3.1.0,59.95462919734242,
,,,C,U,y,n,L,U,g,L,u,,,,,5,19,119,8,4,0,4,0,,,,,0,14,14,22,,,,,,up,0.5004019208890895,3712.560387292961,None,001,98,2019_Nov_08_1100,ACPT_experiment_5_30_19,3.1.0,59.95462919734242,
,,,C,U,y,n,R,G,y,R,y,,,,,5,19,119,8,4,0,4,0,,,,,0,15,15,29,,,,,,down,0.7338888283502456,3714.3450811554194,None,001,98,2019_Nov_08_1100,ACPT_experiment_5_30_19,3.1.0,59.95462919734242,
,,,C,U,y,n,L,D,d,R,c ,,,,,5,19,119,8,4,0,4,0,,,,,0,16,16,13,,,,,,up,0.6335489689968199,3716.3802422150657,None,001,98,2019_Nov_08_1100,ACPT_experiment_5_30_19,3.1.0,59.95462919734242,
,,,C,U,y,n,L,U,y,R,u,,,,,5,19,119,8,4,0,4,0,,,,,0,17,17,25,,,,,,down,0.6338218465657519,3718.2980936905815,None,001,98,2019_Nov_08_1100,ACPT_experiment_5_30_19,3.1.0,59.95462919734242,
,,,C,U,y,n,L,D,d,L,c ,,,,,5,19,119,8,4,0,4,0,,,,,0,18,18,12,,,,,,up,1.4845037839122597,3720.2162228733587,None,001,98,2019_Nov_08_1100,ACPT_experiment_5_30_19,3.1.0,59.95462919734242,
,,,C,U,y,n,L,G,d,L,i,,,,,5,19,119,8,4,0,4,0,,,,,0,19,19,16,,,,,,up,1.0174976704288383,3722.9682915660605,None,001,98,2019_Nov_08_1100,ACPT_experiment_5_30_19,3.1.0,59.95462919734242,
,,,C,U,y,n,L,D,y,L,y,,,,,5,19,119,8,4,0,4,0,,,,,0,20,20,32,,,,,,down,0.8506816354906732,3725.2700760465113,None,001,98,2019_Nov_08_1100,ACPT_experiment_5_30_19,3.1.0,59.95462919734242,
,,,C,U,y,n,L,U,d,L,u,,,,,5,19,119,8,4,0,4,0,,,,,0,21,21,20,,,,,,up,0.5670957344468661,3727.4050342289293,None,001,98,2019_Nov_08_1100,ACPT_experiment_5_30_19,3.1.0,59.95462919734242,
,,,C,U,y,n,R,D,g,R,i,,,,,5,19,119,8,4,0,4,0,,,,,0,22,22,3,,,,,,up,0.6171503552386639,3729.2731422968986,None,001,98,2019_Nov_08_1100,ACPT_experiment_5_30_19,3.1.0,59.95462919734242,
,,,C,U,y,n,L,G,d,R,i,,,,,5,19,119,8,4,0,4,0,,,,,0,23,23,17,,,,,,up,0.6670594815750519,3731.174576745458,None,001,98,2019_Nov_08_1100,ACPT_experiment_5_30_19,3.1.0,59.95462919734242,
,,,C,U,y,n,L,G,g,R,c ,,,,,5,19,119,8,4,0,4,0,,,,,0,24,24,19,,,,,,up,0.6838737506568577,3733.109362628632,None,001,98,2019_Nov_08_1100,ACPT_experiment_5_30_19,3.1.0,59.95462919734242,
,,,C,U,y,n,L,G,g,L,c ,,,,,5,19,119,8,4,0,4,0,,,,,0,25,25,18,,,,,,up,0.8673495045491109,3735.060848981282,None,001,98,2019_Nov_08_1100,ACPT_experiment_5_30_19,3.1.0,59.95462919734242,
,,,C,U,y,n,R,G,d,L,i,,,,,5,19,119,8,4,0,4,0,,,,,0,26,26,4,,,,,,up,0.8172858280854598,3737.212511557301,None,001,98,2019_Nov_08_1100,ACPT_experiment_5_30_19,3.1.0,59.95462919734242,
,,,C,U,y,n,R,G,g,L,c ,,,,,5,19,119,8,4,0,4,0,,,,,0,27,27,6,,,,,,up,0.5003717353170032,3739.297439267384,None,001,98,2019_Nov_08_1100,ACPT_experiment_5_30_19,3.1.0,59.95462919734242,
,,,C,U,y,n,R,G,y,L,y,,,,,5,19,119,8,4,0,4,0,,,,,0,28,28,28,,,,,,down,0.7172158277439848,3741.0821358465437,None,001,98,2019_Nov_08_1100,ACPT_experiment_5_30_19,3.1.0,59.95462919734242,
,,,C,U,y,n,R,U,g,R,u,,,,,5,19,119,8,4,0,4,0,,,,,0,29,29,11,,,,,,up,0.5671005641379452,3743.083650256683,None,001,98,2019_Nov_08_1100,ACPT_experiment_5_30_19,3.1.0,59.95462919734242,
,,,C,U,y,n,L,U,y,L,u,,,,,5,19,119,8,4,0,4,0,,,,,0,30,30,24,,,,,,down,0.7505956367963336,3744.935061477445,None,001,98,2019_Nov_08_1100,ACPT_experiment_5_30_19,3.1.0,59.95462919734242,
,,,C,U,y,n,R,U,d,R,u,,,,,5,19,119,8,4,0,4,0,,,,,0,31,31,9,,,,,,up,0.7338918469072269,3746.969947546532,None,001,98,2019_Nov_08_1100,ACPT_experiment_5_30_19,3.1.0,59.95462919734242,
,,,C,U,y,n,L,G,y,L,y,,,,,5,19,119,8,4,0,4,0,,,,,0,32,32,34,,,,,,down,0.7172097906300223,3748.98815518161,None,001,98,2019_Nov_08_1100,ACPT_experiment_5_30_19,3.1.0,59.95462919734242,
,,,C,U,y,n,R,D,d,L,c,,,,,5,19,119,8,4,0,4,0,,,,,0,33,33,0,,,,,,up,0.6171237919356827,3750.9896831752567,None,001,98,2019_Nov_08_1100,ACPT_experiment_5_30_19,3.1.0,59.95462919734242,
,,,C,U,y,n,R,D,d,R,c ,,,,,5,19,119,8,4,0,4,0,,,,,0,34,34,1,,,,,,up,0.8841589439398376,3752.8909772609068,None,001,98,2019_Nov_08_1100,ACPT_experiment_5_30_19,3.1.0,59.95462919734242,
,,,C,U,y,n,L,U,g,R,u,,,,,5,19,119,8,4,0,4,0,,,,,0,35,35,23,,,,,,up,0.6338366374961879,3755.0594263352814,None,001,98,2019_Nov_08_1100,ACPT_experiment_5_30_19,3.1.0,59.95462919734242,
,,,C,U,y,n,R,G,g,R,c ,,,,,5,19,119,8,4,0,4,0,,,,,1,0,36,7,,,,,,up,0.567121694038633,3756.9775790628046,None,001,98,2019_Nov_08_1100,ACPT_experiment_5_30_19,3.1.0,59.95462919734242,
,,,C,U,y,n,L,D,g,L,i,,,,,5,19,119,8,4,0,4,0,,,,,1,1,37,14,,,,,,up,0.917364582242044,3758.828992698412,None,001,98,2019_Nov_08_1100,ACPT_experiment_5_30_19,3.1.0,59.95462919734242,
,,,C,U,y,n,L,G,y,R,y,,,,,5,19,119,8,4,0,4,0,,,,,1,2,38,35,,,,,,down,1.31740128789761,3761.0476165321547,None,001,98,2019_Nov_08_1100,ACPT_experiment_5_30_19,3.1.0,59.95462919734242,
,,,C,U,y,n,L,G,g,R,c ,,,,,5,19,119,8,4,0,4,0,,,,,1,3,39,19,,,,,,up,0.8673253560914418,3763.6493342119347,None,001,98,2019_Nov_08_1100,ACPT_experiment_5_30_19,3.1.0,59.95462919734242,
,,,C,U,y,n,L,G,d,R,i,,,,,5,19,119,8,4,0,4,0,,,,,1,4,40,17,,,,,,up,0.5671093179539639,3765.784273679298,None,001,98,2019_Nov_08_1100,ACPT_experiment_5_30_19,3.1.0,59.95462919734242,
,,,C,U,y,n,L,U,g,R,u,,,,,5,19,119,8,4,0,4,0,,,,,1,5,41,23,,,,,,up,0.533735847871867,3767.635705426249,None,001,98,2019_Nov_08_1100,ACPT_experiment_5_30_19,3.1.0,59.95462919734242,
,,,C,U,y,n,L,G,y,L,y,,,,,5,19,119,8,4,0,4,0,,,,,1,6,42,34,,,,,,down,0.8839745100954133,3769.4871534734084,None,001,98,2019_Nov_08_1100,ACPT_experiment_5_30_19,3.1.0,59.95462919734242,
,,,C,U,y,n,R,D,d,R,c ,,,,,5,19,119,8,4,0,4,0,,,,,1,7,43,1,,,,,,up,0.8673018113458966,3771.6721391096044,None,001,98,2019_Nov_08_1100,ACPT_experiment_5_30_19,3.1.0,59.95462919734242,
,,,C,U,y,n,L,U,d,R,u,,,,,5,19,119,8,4,0,4,0,,,,,1,8,44,21,,,,,,up,0.6671753941704992,3773.8237512757178,None,001,98,2019_Nov_08_1100,ACPT_experiment_5_30_19,3.1.0,59.95462919734242,
,,,C,U,y,n,R,U,g,R,u,,,,,5,19,119,8,4,0,4,0,,,,,1,9,45,11,,,,,,up,0.4670193951355941,3775.775238533935,None,001,98,2019_Nov_08_1100,ACPT_experiment_5_30_19,3.1.0,59.95462919734242,
,,,C,U,y,n,R,U,d,L,u,,,,,5,19,119,8,4,0,4,0,,,,,1,10,46,8,,,,,,up,0.7503130998438792,3777.526846594811,None,001,98,2019_Nov_08_1100,ACPT_experiment_5_30_19,3.1.0,59.95462919734242,
,,,C,U,y,n,L,D,y,L,y,,,,,5,19,119,8,4,0,4,0,,,,,1,11,47,32,,,,,,down,0.8505741748549553,3779.5782040248837,None,001,98,2019_Nov_08_1100,ACPT_experiment_5_30_19,3.1.0,59.95462919734242,
,,,C,U,y,n,R,U,y,R,u,,,,,5,19,119,8,4,0,4,0,,,,,1,12,48,31,,,,,,down,0.8673751622854979,3781.7297841942914,None,001,98,2019_Nov_08_1100,ACPT_experiment_5_30_19,3.1.0,59.95462919734242,
,,,C,U,y,n,L,G,g,L,c ,,,,,5,19,119,8,4,0,4,0,,,,,1,13,49,18,,,,,,up,0.7305327964727439,3783.9014525599027,None,001,98,2019_Nov_08_1100,ACPT_experiment_5_30_19,3.1.0,59.95462919734242,
,,,C,U,y,n,L,U,d,L,u,,,,,5,19,119,8,4,0,4,0,,,,,1,14,50,20,,,,,,up,0.6170788154336151,3785.9163624212574,None,001,98,2019_Nov_08_1100,ACPT_experiment_5_30_19,3.1.0,59.95462919734242,
,,,C,U,y,n,R,G,d,R,i,,,,,5,19,119,8,4,0,4,0,,,,,1,15,51,5,,,,,,up,0.8341296790276829,3787.8177606471304,None,001,98,2019_Nov_08_1100,ACPT_experiment_5_30_19,3.1.0,59.95462919734242,
,,,C,U,y,n,L,U,y,L,u,,,,,5,19,119,8,4,0,4,0,,,,,1,16,52,24,,,,,,down,0.6504380982964904,3789.936083862763,None,001,98,2019_Nov_08_1100,ACPT_experiment_5_30_19,3.1.0,59.95462919734242,
,,,C,U,y,n,L,D,d,R,c ,,,,,5,19,119,8,4,0,4,0,,,,,1,17,53,13,,,,,,up,0.6504966583065652,3791.870844993768,None,001,98,2019_Nov_08_1100,ACPT_experiment_5_30_19,3.1.0,59.95462919734242,
,,,C,U,y,n,R,U,y,L,u,,,,,5,19,119,8,4,0,4,0,,,,,1,18,54,30,,,,,,down,0.78374995962713,3793.822494650362,None,001,98,2019_Nov_08_1100,ACPT_experiment_5_30_19,3.1.0,59.95462919734242,
,,,C,U,y,n,R,D,y,L,y,,,,,5,19,119,8,4,0,4,0,,,,,1,19,55,26,,,,,,down,0.6004372078227789,3795.9072925624864,None,001,98,2019_Nov_08_1100,ACPT_experiment_5_30_19,3.1.0,59.95462919734242,
,,,C,U,y,n,R,G,d,L,i,,,,,5,19,119,8,4,0,4,0,,,,,1,20,56,4,,,,,,up,0.6338094704815376,3797.7920298619824,None,001,98,2019_Nov_08_1100,ACPT_experiment_5_30_19,3.1.0,59.95462919734242,
,,,C,U,y,n,R,G,y,R,y,,,,,5,19,119,8,4,0,4,0,,,,,1,21,57,29,,,,,,down,0.7338849042257607,3799.7101656855853,None,001,98,2019_Nov_08_1100,ACPT_experiment_5_30_19,3.1.0,59.95462919734242,
,,,C,U,y,n,L,G,d,L,i,,,,,5,19,119,8,4,0,4,0,,,,,1,22,58,16,,,,,,up,0.6004513950415458,3801.728361246435,None,001,98,2019_Nov_08_1100,ACPT_experiment_5_30_19,3.1.0,59.95462919734242,
,,,C,U,y,n,L,D,g,R,i,,,,,5,19,119,8,4,0,4,0,,,,,1,23,59,15,,,,,,up,0.633810677904421,3803.6131365797514,None,001,98,2019_Nov_08_1100,ACPT_experiment_5_30_19,3.1.0,59.95462919734242,
,,,C,U,y,n,L,D,d,L,c ,,,,,5,19,119,8,4,0,4,0,,,,,1,24,60,12,,,,,,up,0.5837714517538188,3805.5312573105684,None,001,98,2019_Nov_08_1100,ACPT_experiment_5_30_19,3.1.0,59.95462919734242,
,,,C,U,y,n,R,G,y,L,y,,,,,5,19,119,8,4,0,4,0,,,,,1,25,61,28,,,,,,down,0.6505066195450127,3807.399330363274,None,001,98,2019_Nov_08_1100,ACPT_experiment_5_30_19,3.1.0,59.95462919734242,
,,,C,U,y,n,R,D,g,L,i,,,,,5,19,119,8,4,0,4,0,,,,,1,26,62,2,,,,,,up,0.5670809435164301,3809.334174504602,None,001,98,2019_Nov_08_1100,ACPT_experiment_5_30_19,3.1.0,59.95462919734242,
,,,C,U,y,n,L,U,y,R,u,,,,,5,19,119,8,4,0,4,0,,,,,1,27,63,25,,,,,,down,1.6846211454158038,3811.1855833105183,None,001,98,2019_Nov_08_1100,ACPT_experiment_5_30_19,3.1.0,59.95462919734242,
,,,C,U,y,n,R,D,d,L,c,,,,,5,19,119,8,4,0,4,0,,,,,1,28,64,0,,,,,,up,0.5170691862363128,3814.1545042457515,None,001,98,2019_Nov_08_1100,ACPT_experiment_5_30_19,3.1.0,59.95462919734242,
,,,C,U,y,n,L,D,y,R,y,,,,,5,19,119,8,4,0,4,0,,,,,1,29,65,33,,,,,,down,0.700531658476848,3815.9558735236615,None,001,98,2019_Nov_08_1100,ACPT_experiment_5_30_19,3.1.0,59.95462919734242,
,,,C,U,y,n,R,U,g,L,u,,,,,5,19,119,8,4,0,4,0,,,,,1,30,66,10,,,,,,up,0.5837726591767023,3817.940717649896,None,001,98,2019_Nov_08_1100,ACPT_experiment_5_30_19,3.1.0,59.95462919734242,
,,,C,U,y,n,R,U,d,R,u,,,,,5,19,119,8,4,0,4,0,,,,,1,31,67,9,,,,,,up,0.6004812787573428,3819.792111061171,None,001,98,2019_Nov_08_1100,ACPT_experiment_5_30_19,3.1.0,59.95462919734242,
,,,C,U,y,n,L,U,g,L,u,,,,,5,19,119,8,4,0,4,0,,,,,1,32,68,22,,,,,,up,0.6004538098868579,3821.6768990724277,None,001,98,2019_Nov_08_1100,ACPT_experiment_5_30_19,3.1.0,59.95462919734242,
,,,C,U,y,n,R,D,g,R,i,,,,,5,19,119,8,4,0,4,0,,,,,1,33,69,3,,,,,,up,0.6004562247330796,3823.5616698779086,None,001,98,2019_Nov_08_1100,ACPT_experiment_5_30_19,3.1.0,59.95462919734242,
,,,C,U,y,n,R,D,y,R,y,,,,,5,19,119,8,4,0,4,0,,,,,1,34,70,27,,,,,,down,0.713885453603325,3825.4664461711263,None,001,98,2019_Nov_08_1100,ACPT_experiment_5_30_19,3.1.0,59.95462919734242,
,,,C,U,y,n,R,G,g,L,c ,,,,,5,19,119,8,4,0,4,0,,,,,1,35,71,6,,,,,,up,0.6671750923146647,3827.4646465073333,None,001,98,2019_Nov_08_1100,ACPT_experiment_5_30_19,3.1.0,59.95462919734242,
,,,C,U,y,n,,,,,,,,,,5,19,119,8,5,0,5,0,0,0,0,0,,,,,,,,,,,,,,001,98,2019_Nov_08_1100,ACPT_experiment_5_30_19,3.1.0,59.95462919734242,
,,,C,U,y,n,R,D,g,L,i,,,,,5,19,119,8,5,0,5,0,,,,,0,0,0,2,,,,,,up,0.683570083804625,3993.174604516184,None,001,98,2019_Nov_08_1100,ACPT_experiment_5_30_19,3.1.0,59.95462919734242,
,,,C,U,y,n,R,G,d,R,i,,,,,5,19,119,8,5,0,5,0,,,,,0,1,1,5,,,,,,up,0.6171545812194381,3995.142493104861,None,001,98,2019_Nov_08_1100,ACPT_experiment_5_30_19,3.1.0,59.95462919734242,
,,,C,U,y,n,R,D,y,R,y,,,,,5,19,119,8,5,0,5,0,,,,,0,2,2,27,,,,,,down,0.850681937346053,3997.043918799605,None,001,98,2019_Nov_08_1100,ACPT_experiment_5_30_19,3.1.0,59.95462919734242,
,,,C,U,y,n,R,U,g,R,u,,,,,5,19,119,8,5,0,5,0,,,,,0,3,3,11,,,,,,up,0.5504169985815679,3999.1789014323354,None,001,98,2019_Nov_08_1100,ACPT_experiment_5_30_19,3.1.0,59.95462919734242,
,,,C,U,y,n,L,U,g,L,u,,,,,5,19,119,8,5,0,5,0,,,,,0,4,4,22,,,,,,up,0.6505008842859752,4001.0136339172327,None,001,98,2019_Nov_08_1100,ACPT_experiment_5_30_19,3.1.0,59.95462919734242,
,,,C,U,y,n,R,D,g,R,i,,,,,5,19,119,8,5,0,5,0,,,,,0,5,5,3,,,,,,up,0.7172079794954698,4002.9484439488647,None,001,98,2019_Nov_08_1100,ACPT_experiment_5_30_19,3.1.0,59.95462919734242,
,,,C,U,y,n,R,D,d,L,c,,,,,5,19,119,8,5,0,5,0,,,,,0,6,6,0,,,,,,down,0.48374401306955406,4004.9332717748907,None,001,98,2019_Nov_08_1100,ACPT_experiment_5_30_19,3.1.0,59.95462919734242,
,,,C,U,y,n,R,G,y,L,y,,,,,5,19,119,8,5,0,5,0,,,,,0,7,7,28,,,,,,down,0.750582053288781,4006.7012995794244,None,001,98,2019_Nov_08_1100,ACPT_experiment_5_30_19,3.1.0,59.95462919734242,
,,,C,U,y,n,L,U,y,L,u,,,,,5,19,119,8,5,0,5,0,,,,,0,8,8,24,,,,,,down,0.7005223009491601,4008.752871930769,None,001,98,2019_Nov_08_1100,ACPT_experiment_5_30_19,3.1.0,59.95462919734242,
,,,C,U,y,n,L,D,y,R,y,,,,,5,19,119,8,5,0,5,0,,,,,0,9,9,33,,,,,,down,0.8339588286917206,4010.75439962256,None,001,98,2019_Nov_08_1100,ACPT_experiment_5_30_19,3.1.0,59.95462919734242,
,,,C,U,y,n,R,G,g,L,c ,,,,,5,19,119,8,5,0,5,0,,,,,0,10,10,6,,,,,,up,0.5337325274585965,4012.872679370969,None,001,98,2019_Nov_08_1100,ACPT_experiment_5_30_19,3.1.0,59.95462919734242,
,,,C,U,y,n,L,U,d,L,u,,,,,5,19,119,8,5,0,5,0,,,,,0,11,11,20,,,,,,up,0.8006079977876652,4014.6907291958773,None,001,98,2019_Nov_08_1100,ACPT_experiment_5_30_19,3.1.0,59.95462919734242,
,,,C,U,y,n,L,D,y,L,y,,,,,5,19,119,8,5,0,5,0,,,,,0,12,12,32,,,,,,down,0.8173356342786064,4016.792334434402,None,001,98,2019_Nov_08_1100,ACPT_experiment_5_30_19,3.1.0,59.95462919734242,
,,,C,U,y,n,R,U,y,L,u,,,,,5,19,119,8,5,0,5,0,,,,,0,13,13,30,,,,,,down,0.8172662074639447,4018.893951143445,None,001,98,2019_Nov_08_1100,ACPT_experiment_5_30_19,3.1.0,59.95462919734242,
,,,C,U,y,n,L,D,g,L,i,,,,,5,19,119,8,5,0,5,0,,,,,0,14,14,14,,,,,,up,0.5337750891148971,4021.0121901413318,None,001,98,2019_Nov_08_1100,ACPT_experiment_5_30_19,3.1.0,59.95462919734242,
,,,C,U,y,n,L,U,g,R,u,,,,,5,19,119,8,5,0,5,0,,,,,0,15,15,23,,,,,,up,0.7839226210980996,4022.830270151813,None,001,98,2019_Nov_08_1100,ACPT_experiment_5_30_19,3.1.0,59.95462919734242,
,,,C,U,y,n,R,U,g,L,u,,,,,5,19,119,8,5,0,5,0,,,,,0,16,16,10,,,,,,up,0.4834430629180133,4024.9154656079177,None,001,98,2019_Nov_08_1100,ACPT_experiment_5_30_19,3.1.0,59.95462919734242,
,,,C,U,y,n,L,D,g,R,i,,,,,5,19,119,8,5,0,5,0,,,,,0,17,17,15,,,,,,up,0.6838345094138276,4026.6665439120084,None,001,98,2019_Nov_08_1100,ACPT_experiment_5_30_19,3.1.0,59.95462919734242,
,,,C,U,y,n,R,U,d,R,u,,,,,5,19,119,8,5,0,5,0,,,,,0,18,18,9,,,,,,up,0.7505711864832847,4028.6346930021696,None,001,98,2019_Nov_08_1100,ACPT_experiment_5_30_19,3.1.0,59.95462919734242,
,,,C,U,y,n,R,D,y,L,y,,,,,5,19,119,8,5,0,5,0,,,,,0,19,19,26,,,,,,down,0.5836078459542478,4030.686389114358,None,001,98,2019_Nov_08_1100,ACPT_experiment_5_30_19,3.1.0,59.95462919734242,
,,,C,U,y,n,R,U,d,L,u,,,,,5,19,119,8,5,0,5,0,,,,,0,20,20,8,,,,,,up,0.6671723756135179,4032.5710237829103,None,001,98,2019_Nov_08_1100,ACPT_experiment_5_30_19,3.1.0,59.95462919734242,
,,,C,U,y,n,L,G,y,L,y,,,,,5,19,119,8,5,0,5,0,,,,,0,21,21,34,,,,,,down,0.7672647132785642,4034.522503192879,None,001,98,2019_Nov_08_1100,ACPT_experiment_5_30_19,3.1.0,59.95462919734242,
,,,C,U,y,n,L,D,d,R,c ,,,,,5,19,119,8,5,0,5,0,,,,,0,22,22,13,,,,,,up,0.9006752814275387,4036.574084599895,None,001,98,2019_Nov_08_1100,ACPT_experiment_5_30_19,3.1.0,59.95462919734242,
,,,C,U,y,n,R,G,d,L,i,,,,,5,19,119,8,5,0,5,0,,,,,0,23,23,4,,,,,,up,0.667175394170954,4038.742397537341,None,001,98,2019_Nov_08_1100,ACPT_experiment_5_30_19,3.1.0,59.95462919734242,
,,,C,U,y,n,L,D,d,L,c ,,,,,5,19,119,8,5,0,5,0,,,,,0,24,24,12,,,,,,up,1.2174770838691984,4040.693879965866,None,001,98,2019_Nov_08_1100,ACPT_experiment_5_30_19,3.1.0,59.95462919734242,
,,,C,U,y,n,L,G,g,R,c ,,,,,5,19,119,8,5,0,5,0,,,,,0,25,25,19,,,,,,up,0.867206726794393,4043.195770941014,None,001,98,2019_Nov_08_1100,ACPT_experiment_5_30_19,3.1.0,59.95462919734242,
,,,C,U,y,n,R,G,g,R,c ,,,,,5,19,119,8,5,0,5,0,,,,,0,26,26,7,,,,,,up,0.9674026009697627,4045.347456156212,None,001,98,2019_Nov_08_1100,ACPT_experiment_5_30_19,3.1.0,59.95462919734242,
,,,C,U,y,n,R,D,d,R,c ,,,,,5,19,119,8,5,0,5,0,,,,,0,27,27,1,,,,,,up,0.8006058847977329,4047.599150095039,None,001,98,2019_Nov_08_1100,ACPT_experiment_5_30_19,3.1.0,59.95462919734242,
,,,C,U,y,n,L,G,d,L,i,,,,,5,19,119,8,5,0,5,0,,,,,0,28,28,16,,,,,,up,0.8339932402423074,4049.684047317695,None,001,98,2019_Nov_08_1100,ACPT_experiment_5_30_19,3.1.0,59.95462919734242,
,,,C,U,y,n,L,G,y,R,y,,,,,5,19,119,8,5,0,5,0,,,,,0,29,29,35,,,,,,down,0.8173072598419822,4051.785651650653,None,001,98,2019_Nov_08_1100,ACPT_experiment_5_30_19,3.1.0,59.95462919734242,
,,,C,U,y,n,L,U,d,R,u,,,,,5,19,119,8,5,0,5,0,,,,,0,30,30,21,,,,,,up,0.6338133946064772,4053.8872759060882,None,001,98,2019_Nov_08_1100,ACPT_experiment_5_30_19,3.1.0,59.95462919734242,
,,,C,U,y,n,L,U,y,R,u,,,,,5,19,119,8,5,0,5,0,,,,,0,31,31,25,,,,,,down,0.7672710522483612,4055.7887052231004,None,001,98,2019_Nov_08_1100,ACPT_experiment_5_30_19,3.1.0,59.95462919734242,
,,,C,U,y,n,R,U,y,R,u,,,,,5,19,119,8,5,0,5,0,,,,,0,32,32,31,,,,,,down,1.1008364120098122,4057.8402899505286,None,001,98,2019_Nov_08_1100,ACPT_experiment_5_30_19,3.1.0,59.95462919734242,
,,,C,U,y,n,R,G,y,R,y,,,,,5,19,119,8,5,0,5,0,,,,,0,33,33,29,,,,,,down,0.7839283563571371,4060.2254509045256,None,001,98,2019_Nov_08_1100,ACPT_experiment_5_30_19,3.1.0,59.95462919734242,
,,,C,U,y,n,L,G,g,L,c ,,,,,5,19,119,8,5,0,5,0,,,,,0,34,34,18,,,,,,up,0.5837732628879166,4062.2936868989486,None,001,98,2019_Nov_08_1100,ACPT_experiment_5_30_19,3.1.0,59.95462919734242,
,,,C,U,y,n,L,G,d,R,i,,,,,5,19,119,8,5,0,5,0,,,,,0,35,35,17,,,,,,up,0.8006291276888078,4064.1450775935214,None,001,98,2019_Nov_08_1100,ACPT_experiment_5_30_19,3.1.0,59.95462919734242,
,,,C,U,y,n,L,G,g,L,c ,,,,,5,19,119,8,5,0,5,0,,,,,1,0,36,18,,,,,,up,0.6003623476044595,4066.2133172102135,None,001,98,2019_Nov_08_1100,ACPT_experiment_5_30_19,3.1.0,59.95462919734242,
,,,C,U,y,n,R,D,y,R,y,,,,,5,19,119,8,5,0,5,0,,,,,1,1,37,27,,,,,,down,0.6838529226124592,4068.098108541883,None,001,98,2019_Nov_08_1100,ACPT_experiment_5_30_19,3.1.0,59.95462919734242,
,,,C,U,y,n,R,G,y,L,y,,,,,5,19,119,8,5,0,5,0,,,,,1,2,38,28,,,,,,down,0.9005859321350727,4070.0830181708084,None,001,98,2019_Nov_08_1100,ACPT_experiment_5_30_19,3.1.0,59.95462919734242,
,,,C,U,y,n,L,D,g,R,i,,,,,5,19,119,8,5,0,5,0,,,,,1,3,39,15,,,,,,up,0.8339690917855478,4072.2846330385314,None,001,98,2019_Nov_08_1100,ACPT_experiment_5_30_19,3.1.0,59.95462919734242,
,,,C,U,y,n,L,G,d,R,i,,,,,5,19,119,8,5,0,5,0,,,,,1,4,40,17,,,,,,up,1.0007745617731416,4074.4029167110643,None,001,98,2019_Nov_08_1100,ACPT_experiment_5_30_19,3.1.0,59.95462919734242,
,,,C,U,y,n,R,G,g,R,c ,,,,,5,19,119,8,5,0,5,0,,,,,1,5,41,7,,,,,,up,0.5837919779423828,4076.6879910626562,None,001,98,2019_Nov_08_1100,ACPT_experiment_5_30_19,3.1.0,59.95462919734242,
,,,C,U,y,n,L,D,y,R,y,,,,,5,19,119,8,5,0,5,0,,,,,1,6,42,33,,,,,,down,0.6338076593474398,4078.556085547118,None,001,98,2019_Nov_08_1100,ACPT_experiment_5_30_19,3.1.0,59.95462919734242,
,,,C,U,y,n,L,U,d,R,u,,,,,5,19,119,8,5,0,5,0,,,,,1,7,43,21,,,,,,up,0.9674019972580936,4080.474212918761,None,001,98,2019_Nov_08_1100,ACPT_experiment_5_30_19,3.1.0,59.95462919734242,
,,,C,U,y,n,L,U,g,R,u,,,,,5,19,119,8,5,0,5,0,,,,,1,8,44,23,,,,,,up,1.2342910510951697,4082.7092260087343,None,001,98,2019_Nov_08_1100,ACPT_experiment_5_30_19,3.1.0,59.95462919734242,
,,,C,U,y,n,L,D,g,L,i,,,,,5,19,119,8,5,0,5,0,,,,,1,9,45,14,,,,,,up,1.0007642986793144,4085.227833451711,None,001,98,2019_Nov_08_1100,ACPT_experiment_5_30_19,3.1.0,59.95462919734242,
,,,C,U,y,n,R,G,d,R,i,,,,,5,19,119,8,5,0,5,0,,,,,1,10,46,5,,,,,,up,0.76724871492479,4087.5129123311385,None,001,98,2019_Nov_08_1100,ACPT_experiment_5_30_19,3.1.0,59.95462919734242,
,,,C,U,y,n,L,U,g,L,u,,,,,5,19,119,8,5,0,5,0,,,,,1,11,47,22,,,,,,up,0.8840074123691011,4089.5644744193883,None,001,98,2019_Nov_08_1100,ACPT_experiment_5_30_19,3.1.0,59.95462919734242,
,,,C,U,y,n,L,U,y,R,u,,,,,5,19,119,8,5,0,5,0,,,,,1,12,48,25,,,,,,down,0.9173929566795778,4091.716087491069,None,001,98,2019_Nov_08_1100,ACPT_experiment_5_30_19,3.1.0,59.95462919734242,
,,,C,U,y,n,R,U,d,L,u,,,,,5,19,119,8,5,0,5,0,,,,,1,13,49,8,,,,,,up,1.1175069977698513,4093.917795028497,None,001,98,2019_Nov_08_1100,ACPT_experiment_5_30_19,3.1.0,59.95462919734242,
,,,C,U,y,n,R,U,y,L,u,,,,,5,19,119,8,5,0,5,0,,,,,1,14,50,30,,,,,,down,0.967368793129026,4096.319647698154,None,001,98,2019_Nov_08_1100,ACPT_experiment_5_30_19,3.1.0,59.95462919734242,
,,,C,U,y,n,L,D,y,L,y,,,,,5,19,119,8,5,0,5,0,,,,,1,15,51,32,,,,,,down,2.985601784087521,4098.571348881518,None,001,98,2019_Nov_08_1100,ACPT_experiment_5_30_19,3.1.0,59.95462919734242,
,,,C,U,y,n,R,G,y,R,y,,,,,5,19,119,8,5,0,5,0,,,,,1,16,52,29,,,,,,down,1.217567036872424,4102.841294224504,None,001,98,2019_Nov_08_1100,ACPT_experiment_5_30_19,3.1.0,59.95462919734242,
,,,C,U,y,n,R,U,g,R,u,,,,,5,19,119,8,5,0,5,0,,,,,1,17,53,11,,,,,,up,0.6004538098868579,4105.34316980501,None,001,98,2019_Nov_08_1100,ACPT_experiment_5_30_19,3.1.0,59.95462919734242,
,,,C,U,y,n,L,G,y,L,y,,,,,5,19,119,8,5,0,5,0,,,,,1,18,54,34,,,,,,down,1.2343007104773278,4107.2279137453315,None,001,98,2019_Nov_08_1100,ACPT_experiment_5_30_19,3.1.0,59.95462919734242,
,,,C,U,y,n,R,D,g,L,i,,,,,5,19,119,8,5,0,5,0,,,,,1,19,55,2,,,,,,up,0.6171527700844308,4109.746528734702,None,001,98,2019_Nov_08_1100,ACPT_experiment_5_30_19,3.1.0,59.95462919734242,
,,,C,U,y,n,R,D,d,R,c ,,,,,5,19,119,8,5,0,5,0,,,,,1,20,56,1,,,,,,up,0.5004067505806233,4111.631274486158,None,001,98,2019_Nov_08_1100,ACPT_experiment_5_30_19,3.1.0,59.95462919734242,
,,,C,U,y,n,L,U,y,L,u,,,,,5,19,119,8,5,0,5,0,,,,,1,21,57,24,,,,,,down,0.5837717536096534,4113.415990384084,None,001,98,2019_Nov_08_1100,ACPT_experiment_5_30_19,3.1.0,59.95462919734242,
,,,C,U,y,n,R,G,d,L,i,,,,,5,19,119,8,5,0,5,0,,,,,1,22,58,4,,,,,,up,0.6338194317204398,4115.284078529576,None,001,98,2019_Nov_08_1100,ACPT_experiment_5_30_19,3.1.0,59.95462919734242,
,,,C,U,y,n,R,D,d,L,c,,,,,5,19,119,8,5,0,5,0,,,,,1,23,59,0,,,,,,up,0.6171132269855661,4117.202231558955,None,001,98,2019_Nov_08_1100,ACPT_experiment_5_30_19,3.1.0,59.95462919734242,
,,,C,U,y,n,R,U,y,R,u,,,,,5,19,119,8,5,0,5,0,,,,,1,24,60,31,,,,,,down,0.6669806972322476,4119.120493256392,None,001,98,2019_Nov_08_1100,ACPT_experiment_5_30_19,3.1.0,59.95462919734242,
,,,C,U,y,n,R,U,g,L,u,,,,,5,19,119,8,5,0,5,0,,,,,1,25,61,10,,,,,,up,0.5671162606358848,4121.088506209625,None,001,98,2019_Nov_08_1100,ACPT_experiment_5_30_19,3.1.0,59.95462919734242,
,,,C,U,y,n,L,D,d,R,c ,,,,,5,19,119,8,5,0,5,0,,,,,1,26,62,13,,,,,,up,0.6004489801962336,4122.939917430386,None,001,98,2019_Nov_08_1100,ACPT_experiment_5_30_19,3.1.0,59.95462919734242,
,,,C,U,y,n,R,U,d,R,u,,,,,5,19,119,8,5,0,5,0,,,,,1,27,63,9,,,,,,up,0.6838532244682938,4124.824686122877,None,001,98,2019_Nov_08_1100,ACPT_experiment_5_30_19,3.1.0,59.95462919734242,
,,,C,U,y,n,L,D,d,L,c ,,,,,5,19,119,8,5,0,5,0,,,,,1,28,64,12,,,,,,up,0.5304160386813237,4126.812864547377,None,001,98,2019_Nov_08_1100,ACPT_experiment_5_30_19,3.1.0,59.95462919734242,
,,,C,U,y,n,L,G,d,L,i,,,,,5,19,119,8,5,0,5,0,,,,,1,29,65,16,,,,,,up,0.6338363356408081,4128.610885943514,None,001,98,2019_Nov_08_1100,ACPT_experiment_5_30_19,3.1.0,59.95462919734242,
,,,C,U,y,n,L,G,g,R,c ,,,,,5,19,119,8,5,0,5,0,,,,,1,30,66,19,,,,,,up,0.7672662225568274,4130.5123388052725,None,001,98,2019_Nov_08_1100,ACPT_experiment_5_30_19,3.1.0,59.95462919734242,
