facing_vig,person_vig,text_vig,facing_train,person_train,food_train,correct_key_train,facing_exp,person_exp,food_exp,showL_R,consistent,vig_random.thisRepN,vig_random.thisTrialN,vig_random.thisN,vig_random.thisIndex,trainTrials.thisRepN,trainTrials.thisTrialN,trainTrials.thisN,trainTrials.thisIndex,expBlock.thisRepN,expBlock.thisTrialN,expBlock.thisN,expBlock.thisIndex,breakLoop.thisRepN,breakLoop.thisTrialN,breakLoop.thisN,breakLoop.thisIndex,expTrials.thisRepN,expTrials.thisTrialN,expTrials.thisN,expTrials.thisIndex,train_resp.keys,train_resp.corr,train_resp.rt,train_resp.started,train_resp.stopped,exp_resp.keys,exp_resp.rt,exp_resp.started,exp_resp.stopped,session,participant,date,expName,psychopyVersion,frameRate,
C,G,"cannot eat dairy products because she is lactose intolerant. She enjoys eating wheat products. She thinks eating insects, like crickets, is disgusting.",,,,,,,,,,0,0,0,0,,,,,,,,,,,,,,,,,,,,,,,,,,001,9,2019_Jun_06_1050,ACPT_experiment_5_30_19,3.1.0,59.94575081201383,
C,D,"is allergic to gluten, meaning she can’t eat wheat products. She enjoys eating dairy products. She thinks eating insects, like crickets, is disgusting.",,,,,,,,,,0,1,1,1,,,,,,,,,,,,,,,,,,,,,,,,,,001,9,2019_Jun_06_1050,ACPT_experiment_5_30_19,3.1.0,59.94575081201383,
C,U,"did not report her food preferences, so her food preferences are unknown.",,,,,,,,,,0,2,2,2,,,,,,,,,,,,,,,,,,,,,,,,,,001,9,2019_Jun_06_1050,ACPT_experiment_5_30_19,3.1.0,59.94575081201383,
,,,C,G,y,b,,,,,,,,,,0,0,0,14,,,,,,,,,,,,,b,1,6.154779383798541,1716.4215104871632,None,,,,,001,9,2019_Jun_06_1050,ACPT_experiment_5_30_19,3.1.0,59.94575081201383,
,,,C,U,g,n,,,,,,,,,,0,1,1,7,,,,,,,,,,,,,b,0,3.1024202399653404,1725.8621062710472,None,,,,,001,9,2019_Jun_06_1050,ACPT_experiment_5_30_19,3.1.0,59.94575081201383,
,,,C,G,d,b,,,,,,,,,,0,2,2,3,,,,,,,,,,,,,b,1,4.286664320221007,1732.2503685690585,None,,,,,001,9,2019_Jun_06_1050,ACPT_experiment_5_30_19,3.1.0,59.94575081201383,
,,,C,G,g,v,,,,,,,,,,0,3,3,19,,,,,,,,,,,,,v,1,1.5512105727702874,1739.8061984803244,None,,,,,001,9,2019_Jun_06_1050,ACPT_experiment_5_30_19,3.1.0,59.94575081201383,
,,,C,U,d,n,,,,,,,,,,0,4,4,6,,,,,,,,,,,,,n,1,1.717981883668699,1744.6432969936116,None,,,,,001,9,2019_Jun_06_1050,ACPT_experiment_5_30_19,3.1.0,59.94575081201383,
,,,C,D,y,b,,,,,,,,,,0,5,5,2,,,,,,,,,,,,,b,1,3.0857386413717904,1749.6471284817853,None,,,,,001,9,2019_Jun_06_1050,ACPT_experiment_5_30_19,3.1.0,59.94575081201383,
,,,C,D,g,b,,,,,,,,,,0,6,6,1,,,,,,,,,,,,,b,1,2.968971375375304,1756.0020327142017,None,,,,,001,9,2019_Jun_06_1050,ACPT_experiment_5_30_19,3.1.0,59.94575081201383,
,,,C,G,g,v,,,,,,,,,,0,7,7,13,,,,,,,,,,,,,v,1,2.135042374876548,1762.256856712666,None,,,,,001,9,2019_Jun_06_1050,ACPT_experiment_5_30_19,3.1.0,59.94575081201383,
,,,C,G,y,b,,,,,,,,,,0,8,8,5,,,,,,,,,,,,,n,0,0.8172999252599311,1767.677710356036,None,,,,,001,9,2019_Jun_06_1050,ACPT_experiment_5_30_19,3.1.0,59.94575081201383,
,,,C,D,y,b,,,,,,,,,,0,9,9,11,,,,,,,,,,,,,b,1,1.550848342737254,1771.8145825962958,None,,,,,001,9,2019_Jun_06_1050,ACPT_experiment_5_30_19,3.1.0,59.94575081201383,
,,,C,U,y,n,,,,,,,,,,0,10,10,8,,,,,,,,,,,,,n,1,1.100862650823501,1776.6512944290228,None,,,,,001,9,2019_Jun_06_1050,ACPT_experiment_5_30_19,3.1.0,59.94575081201383,
,,,C,D,d,v,,,,,,,,,,0,11,11,0,,,,,,,,,,,,,b,0,4.953821406104453,1781.0547103186054,None,,,,,001,9,2019_Jun_06_1050,ACPT_experiment_5_30_19,3.1.0,59.94575081201383,
,,,C,D,g,b,,,,,,,,,,0,12,12,10,,,,,,,,,,,,,b,1,4.787042548747195,1789.2943882719576,None,,,,,001,9,2019_Jun_06_1050,ACPT_experiment_5_30_19,3.1.0,59.94575081201383,
,,,C,G,d,b,,,,,,,,,,0,13,13,12,,,,,,,,,,,,,b,1,2.551981519023684,1797.3672807270682,None,,,,,001,9,2019_Jun_06_1050,ACPT_experiment_5_30_19,3.1.0,59.94575081201383,
,,,C,U,d,n,,,,,,,,,,0,14,14,15,,,,,,,,,,,,,n,1,1.2342921964782363,1803.2051257360815,None,,,,,001,9,2019_Jun_06_1050,ACPT_experiment_5_30_19,3.1.0,59.94575081201383,
,,,C,G,g,v,,,,,,,,,,0,15,15,4,,,,,,,,,,,,,v,1,3.268958818067631,1807.7588734283745,None,,,,,001,9,2019_Jun_06_1050,ACPT_experiment_5_30_19,3.1.0,59.94575081201383,
,,,C,U,g,n,,,,,,,,,,0,16,16,16,,,,,,,,,,,,,n,1,1.1509023150119901,1814.313687586256,None,,,,,001,9,2019_Jun_06_1050,ACPT_experiment_5_30_19,3.1.0,59.94575081201383,
,,,C,D,d,v,,,,,,,,,,0,17,17,18,,,,,,,,,,,,,v,1,3.435721676931962,1818.767405454943,None,,,,,001,9,2019_Jun_06_1050,ACPT_experiment_5_30_19,3.1.0,59.94575081201383,
,,,C,D,d,v,,,,,,,,,,0,18,18,9,,,,,,,,,,,,,b,0,9.323884663542685,1825.4889842828388,None,,,,,001,9,2019_Jun_06_1050,ACPT_experiment_5_30_19,3.1.0,59.94575081201383,
,,,C,U,y,n,,,,,,,,,,0,19,19,17,,,,,,,,,,,,,n,1,0.8673374764398432,1838.0987206638952,None,,,,,001,9,2019_Jun_06_1050,ACPT_experiment_5_30_19,3.1.0,59.94575081201383,
,,,C,U,y,n,,,,,,,,,,1,0,20,17,,,,,,,,,,,,,n,1,1.5979249652559702,1842.2719230671707,None,,,,,001,9,2019_Jun_06_1050,ACPT_experiment_5_30_19,3.1.0,59.94575081201383,
,,,C,U,g,n,,,,,,,,,,1,1,21,7,,,,,,,,,,,,,n,1,1.150927972972795,1847.139019962497,None,,,,,001,9,2019_Jun_06_1050,ACPT_experiment_5_30_19,3.1.0,59.94575081201383,
,,,C,D,d,v,,,,,,,,,,1,2,22,0,,,,,,,,,,,,,v,1,4.36961620520583,1851.5928999291236,None,,,,,001,9,2019_Jun_06_1050,ACPT_experiment_5_30_19,3.1.0,59.94575081201383,
,,,C,D,d,v,,,,,,,,,,1,3,23,18,,,,,,,,,,,,,v,1,0.8339908814625687,1859.2316895736915,None,,,,,001,9,2019_Jun_06_1050,ACPT_experiment_5_30_19,3.1.0,59.94575081201383,
,,,C,G,y,b,,,,,,,,,,1,4,24,14,,,,,,,,,,,,,b,1,2.5017000662880946,1863.3684612951172,None,,,,,001,9,2019_Jun_06_1050,ACPT_experiment_5_30_19,3.1.0,59.94575081201383,
,,,C,G,y,b,,,,,,,,,,1,5,25,5,,,,,,,,,,,,,b,1,1.5011304595611819,1869.1393695144789,None,,,,,001,9,2019_Jun_06_1050,ACPT_experiment_5_30_19,3.1.0,59.94575081201383,
,,,C,D,y,b,,,,,,,,,,1,6,26,11,,,,,,,,,,,,,b,1,2.2683949466495505,1873.926383386682,None,,,,,001,9,2019_Jun_06_1050,ACPT_experiment_5_30_19,3.1.0,59.94575081201383,
,,,C,G,g,v,,,,,,,,,,1,7,27,13,,,,,,,,,,,,,v,1,1.6846681912525128,1879.480622504386,None,,,,,001,9,2019_Jun_06_1050,ACPT_experiment_5_30_19,3.1.0,59.94575081201383,
,,,C,D,g,b,,,,,,,,,,1,8,28,10,,,,,,,,,,,,,b,1,1.4678007686525234,1884.4511520726198,None,,,,,001,9,2019_Jun_06_1050,ACPT_experiment_5_30_19,3.1.0,59.94575081201383,
,,,C,U,d,n,,,,,,,,,,1,9,29,6,,,,,,,,,,,,,n,1,1.2843167677488054,1889.2048271981628,None,,,,,001,9,2019_Jun_06_1050,ACPT_experiment_5_30_19,3.1.0,59.94575081201383,
,,,C,U,g,n,,,,,,,,,,1,10,30,16,,,,,,,,,,,,,n,1,0.7003080766430685,1893.7752758079844,None,,,,,001,9,2019_Jun_06_1050,ACPT_experiment_5_30_19,3.1.0,59.94575081201383,
,,,C,G,g,v,,,,,,,,,,1,11,31,19,,,,,,,,,,,,,v,1,2.168353048708923,1897.7614162832058,None,,,,,001,9,2019_Jun_06_1050,ACPT_experiment_5_30_19,3.1.0,59.94575081201383,
,,,C,D,y,b,,,,,,,,,,1,12,32,2,,,,,,,,,,,,,b,1,1.8514392002925888,1903.215623766154,None,,,,,001,9,2019_Jun_06_1050,ACPT_experiment_5_30_19,3.1.0,59.94575081201383,
,,,C,D,g,b,,,,,,,,,,1,13,33,1,,,,,,,,,,,,,b,1,2.8188735128946973,1908.3362207091739,None,,,,,001,9,2019_Jun_06_1050,ACPT_experiment_5_30_19,3.1.0,59.94575081201383,
,,,C,U,y,n,,,,,,,,,,1,14,34,8,,,,,,,,,,,,,n,1,1.6345892854769772,1914.440965560376,None,,,,,001,9,2019_Jun_06_1050,ACPT_experiment_5_30_19,3.1.0,59.94575081201383,
,,,C,G,d,b,,,,,,,,,,1,15,35,12,,,,,,,,,,,,,b,1,1.9181918563440377,1919.3614147135424,None,,,,,001,9,2019_Jun_06_1050,ACPT_experiment_5_30_19,3.1.0,59.94575081201383,
,,,C,U,d,n,,,,,,,,,,1,16,36,15,,,,,,,,,,,,,n,1,1.050820873626435,1924.565425384839,None,,,,,001,9,2019_Jun_06_1050,ACPT_experiment_5_30_19,3.1.0,59.94575081201383,
,,,C,D,d,v,,,,,,,,,,1,17,37,9,,,,,,,,,,,,,v,1,2.268177306771122,1928.9190358523213,None,,,,,001,9,2019_Jun_06_1050,ACPT_experiment_5_30_19,3.1.0,59.94575081201383,
,,,C,G,d,b,,,,,,,,,,1,18,38,3,,,,,,,,,,,,,b,1,1.6844997542875717,1934.4730854029747,None,,,,,001,9,2019_Jun_06_1050,ACPT_experiment_5_30_19,3.1.0,59.94575081201383,
,,,C,G,g,v,,,,,,,,,,1,19,39,4,,,,,,,,,,,,,v,1,1.7346818956220886,1939.4435727110383,None,,,,,001,9,2019_Jun_06_1050,ACPT_experiment_5_30_19,3.1.0,59.94575081201383,
,,,C,G,y,b,,,,,,,,,,2,0,40,5,,,,,,,,,,,,,b,1,1.9348402505179365,1944.4474256311557,None,,,,,001,9,2019_Jun_06_1050,ACPT_experiment_5_30_19,3.1.0,59.94575081201383,
,,,C,G,y,b,,,,,,,,,,2,1,41,14,,,,,,,,,,,,,b,1,1.1008828753333546,1949.6514215113928,None,,,,,001,9,2019_Jun_06_1050,ACPT_experiment_5_30_19,3.1.0,59.94575081201383,
,,,C,U,g,n,,,,,,,,,,2,2,42,7,,,,,,,,,,,,,n,1,1.3174448172726443,1954.0550897545652,None,,,,,001,9,2019_Jun_06_1050,ACPT_experiment_5_30_19,3.1.0,59.94575081201383,
,,,C,D,g,b,,,,,,,,,,2,3,43,1,,,,,,,,,,,,,b,1,2.485260859958089,1958.658397458111,None,,,,,001,9,2019_Jun_06_1050,ACPT_experiment_5_30_19,3.1.0,59.94575081201383,
,,,C,G,d,b,,,,,,,,,,2,4,44,3,,,,,,,,,,,,,v,0,1.234289479752988,1964.4295239210676,None,,,,,001,9,2019_Jun_06_1050,ACPT_experiment_5_30_19,3.1.0,59.94575081201383,
,,,C,U,g,n,,,,,,,,,,2,5,45,16,,,,,,,,,,,,,n,1,1.61793575971069,1968.9496666276261,None,,,,,001,9,2019_Jun_06_1050,ACPT_experiment_5_30_19,3.1.0,59.94575081201383,
,,,C,D,d,v,,,,,,,,,,2,6,46,18,,,,,,,,,,,,,v,1,4.286703259949263,1973.8534625568852,None,,,,,001,9,2019_Jun_06_1050,ACPT_experiment_5_30_19,3.1.0,59.94575081201383,
,,,C,G,g,v,,,,,,,,,,2,7,47,4,,,,,,,,,,,,,v,1,2.885579380900708,1981.4259565589598,None,,,,,001,9,2019_Jun_06_1050,ACPT_experiment_5_30_19,3.1.0,59.94575081201383,
,,,C,U,d,n,,,,,,,,,,2,8,48,6,,,,,,,,,,,,,n,1,0.8840236029086554,1987.597386751799,None,,,,,001,9,2019_Jun_06_1050,ACPT_experiment_5_30_19,3.1.0,59.94575081201383,
,,,C,D,d,v,,,,,,,,,,2,9,49,9,,,,,,,,,,,,,b,0,5.300773481863416,1991.7872795075602,None,,,,,001,9,2019_Jun_06_1050,ACPT_experiment_5_30_19,3.1.0,59.94575081201383,
,,,C,G,g,v,,,,,,,,,,2,10,50,13,,,,,,,,,,,,,v,1,3.7362162416698084,2000.3739155738388,None,,,,,001,9,2019_Jun_06_1050,ACPT_experiment_5_30_19,3.1.0,59.94575081201383,
,,,C,G,g,v,,,,,,,,,,2,11,51,19,,,,,,,,,,,,,b,0,1.4010903727712503,2007.3793046511544,None,,,,,001,9,2019_Jun_06_1050,ACPT_experiment_5_30_19,3.1.0,59.94575081201383,
,,,C,U,y,n,,,,,,,,,,2,12,52,17,,,,,,,,,,,,,n,1,1.1173006497197093,2012.0831713360133,None,,,,,001,9,2019_Jun_06_1050,ACPT_experiment_5_30_19,3.1.0,59.94575081201383,
,,,C,D,d,v,,,,,,,,,,2,13,53,0,,,,,,,,,,,,,v,1,2.735452540017377,2016.4863312497057,None,,,,,001,9,2019_Jun_06_1050,ACPT_experiment_5_30_19,3.1.0,59.94575081201383,
,,,C,D,y,b,,,,,,,,,,2,14,54,2,,,,,,,,,,,,,b,1,1.7013280560440762,2022.5076397332539,None,,,,,001,9,2019_Jun_06_1050,ACPT_experiment_5_30_19,3.1.0,59.94575081201383,
,,,C,U,y,n,,,,,,,,,,2,15,55,8,,,,,,,,,,,,,n,1,0.9841050442946653,2027.494817091945,None,,,,,001,9,2019_Jun_06_1050,ACPT_experiment_5_30_19,3.1.0,59.94575081201383,
,,,C,D,g,b,,,,,,,,,,2,16,56,10,,,,,,,,,,,,,b,1,4.336418124541979,2031.7817388973479,None,,,,,001,9,2019_Jun_06_1050,ACPT_experiment_5_30_19,3.1.0,59.94575081201383,
,,,C,U,d,n,,,,,,,,,,2,17,57,15,,,,,,,,,,,,,n,1,1.0842070120488643,2039.4040024003777,None,,,,,001,9,2019_Jun_06_1050,ACPT_experiment_5_30_19,3.1.0,59.94575081201383,
,,,C,D,y,b,,,,,,,,,,2,18,58,11,,,,,,,,,,,,,n,0,2.2849032785438794,2043.7909597646956,None,,,,,001,9,2019_Jun_06_1050,ACPT_experiment_5_30_19,3.1.0,59.94575081201383,
,,,C,G,d,b,,,,,,,,,,2,19,59,12,,,,,,,,,,,,,b,1,6.454997446278412,2049.3616767265994,None,,,,,001,9,2019_Jun_06_1050,ACPT_experiment_5_30_19,3.1.0,59.94575081201383,
,,,C,U,g,n,,,,,,,,,,3,0,60,16,,,,,,,,,,,,,n,1,1.2843300495169387,2059.1025273996834,None,,,,,001,9,2019_Jun_06_1050,ACPT_experiment_5_30_19,3.1.0,59.94575081201383,
,,,C,D,g,b,,,,,,,,,,3,1,61,1,,,,,,,,,,,,,b,1,3.1687228252012574,2063.689770201267,None,,,,,001,9,2019_Jun_06_1050,ACPT_experiment_5_30_19,3.1.0,59.94575081201383,
,,,C,D,g,b,,,,,,,,,,3,2,62,10,,,,,,,,,,,,,b,1,1.3510579531830444,2070.1277111408676,None,,,,,001,9,2019_Jun_06_1050,ACPT_experiment_5_30_19,3.1.0,59.94575081201383,
,,,C,G,d,b,,,,,,,,,,3,3,63,12,,,,,,,,,,,,,b,1,5.2373817168013375,2074.764603303779,None,,,,,001,9,2019_Jun_06_1050,ACPT_experiment_5_30_19,3.1.0,59.94575081201383,
,,,C,U,y,n,,,,,,,,,,3,4,64,8,,,,,,,,,,,,,n,1,1.050818458759295,2083.2878451901283,None,,,,,001,9,2019_Jun_06_1050,ACPT_experiment_5_30_19,3.1.0,59.94575081201383,
,,,C,G,g,v,,,,,,,,,,3,5,65,19,,,,,,,,,,,,,v,1,2.9186760371553646,2087.64145203531,None,,,,,001,9,2019_Jun_06_1050,ACPT_experiment_5_30_19,3.1.0,59.94575081201383,
,,,C,G,y,b,,,,,,,,,,3,6,66,5,,,,,,,,,,,,,b,1,1.2343160432887998,2093.8292861170507,None,,,,,001,9,2019_Jun_06_1050,ACPT_experiment_5_30_19,3.1.0,59.94575081201383,
,,,C,G,d,b,,,,,,,,,,3,7,67,3,,,,,,,,,,,,,b,1,1.8981520834868206,2098.3694640685917,None,,,,,001,9,2019_Jun_06_1050,ACPT_experiment_5_30_19,3.1.0,59.94575081201383,
,,,C,G,y,b,,,,,,,,,,3,8,68,14,,,,,,,,,,,,,b,1,1.2176667435401214,2103.553466058442,None,,,,,001,9,2019_Jun_06_1050,ACPT_experiment_5_30_19,3.1.0,59.94575081201383,
,,,C,D,d,v,,,,,,,,,,3,9,69,18,,,,,,,,,,,,,v,1,3.365951946563655,2108.093633746799,None,,,,,001,9,2019_Jun_06_1050,ACPT_experiment_5_30_19,3.1.0,59.94575081201383,
,,,C,U,d,n,,,,,,,,,,3,10,70,15,,,,,,,,,,,,,n,1,1.0341404824662277,2114.7454343922923,None,,,,,001,9,2019_Jun_06_1050,ACPT_experiment_5_30_19,3.1.0,59.94575081201383,
,,,C,U,d,n,,,,,,,,,,3,11,71,6,,,,,,,,,,,,,n,1,1.250726271216081,2119.0823828819744,None,,,,,001,9,2019_Jun_06_1050,ACPT_experiment_5_30_19,3.1.0,59.94575081201383,
,,,C,U,y,n,,,,,,,,,,3,12,72,17,,,,,,,,,,,,,n,1,1.017455563430758,2123.6189445703526,None,,,,,001,9,2019_Jun_06_1050,ACPT_experiment_5_30_19,3.1.0,59.94575081201383,
,,,C,D,y,b,,,,,,,,,,3,13,73,2,,,,,,,,,,,,,b,1,1.1338059630306816,2127.9393482032783,None,,,,,001,9,2019_Jun_06_1050,ACPT_experiment_5_30_19,3.1.0,59.94575081201383,
,,,C,G,g,v,,,,,,,,,,3,14,74,4,,,,,,,,,,,,,v,1,1.818107094516563,2132.3590239953246,None,,,,,001,9,2019_Jun_06_1050,ACPT_experiment_5_30_19,3.1.0,59.94575081201383,
,,,C,U,g,n,,,,,,,,,,3,15,75,7,,,,,,,,,,,,,n,1,1.8347636388662067,2137.462947791785,None,,,,,001,9,2019_Jun_06_1050,ACPT_experiment_5_30_19,3.1.0,59.94575081201383,
,,,C,D,d,v,,,,,,,,,,3,16,76,0,,,,,,,,,,,,,v,1,3.936380935591842,2142.583564657457,None,,,,,001,9,2019_Jun_06_1050,ACPT_experiment_5_30_19,3.1.0,59.94575081201383,
,,,C,D,d,v,,,,,,,,,,3,17,77,9,,,,,,,,,,,,,v,1,3.4359912364484444,2149.7891202398446,None,,,,,001,9,2019_Jun_06_1050,ACPT_experiment_5_30_19,3.1.0,59.94575081201383,
,,,C,G,g,v,,,,,,,,,,3,18,78,13,,,,,,,,,,,,,v,1,1.6012656317352594,2156.5109701365486,None,,,,,001,9,2019_Jun_06_1050,ACPT_experiment_5_30_19,3.1.0,59.94575081201383,
,,,C,D,y,b,,,,,,,,,,3,19,79,11,,,,,,,,,,,,,b,1,1.084171392762073,2161.3980802411966,None,,,,,001,9,2019_Jun_06_1050,ACPT_experiment_5_30_19,3.1.0,59.94575081201383,
,,,C,D,y,b,,,,,,,,,,4,0,80,11,,,,,,,,,,,,,b,1,0.9307286377857054,2165.788120183095,None,,,,,001,9,2019_Jun_06_1050,ACPT_experiment_5_30_19,3.1.0,59.94575081201383,
,,,C,G,d,b,,,,,,,,,,4,1,81,3,,,,,,,,,,,,,b,1,1.5345217295762268,2170.004709292287,None,,,,,001,9,2019_Jun_06_1050,ACPT_experiment_5_30_19,3.1.0,59.94575081201383,
,,,C,U,g,n,,,,,,,,,,4,2,82,7,,,,,,,,,,,,,n,1,1.150957856950754,2174.825090587694,None,,,,,001,9,2019_Jun_06_1050,ACPT_experiment_5_30_19,3.1.0,59.94575081201383,
,,,C,U,d,n,,,,,,,,,,4,3,83,15,,,,,,,,,,,,,n,1,1.0174416779459534,2179.2451853591447,None,,,,,001,9,2019_Jun_06_1050,ACPT_experiment_5_30_19,3.1.0,59.94575081201383,
,,,C,G,d,b,,,,,,,,,,4,4,84,12,,,,,,,,,,,,,b,1,2.3685129128966764,2183.531797759728,None,,,,,001,9,2019_Jun_06_1050,ACPT_experiment_5_30_19,3.1.0,59.94575081201383,
,,,C,D,d,v,,,,,,,,,,4,5,85,9,,,,,,,,,,,,,v,1,1.4010900709126872,2189.1861626919967,None,,,,,001,9,2019_Jun_06_1050,ACPT_experiment_5_30_19,3.1.0,59.94575081201383,
,,,C,D,g,b,,,,,,,,,,4,6,86,1,,,,,,,,,,,,,b,1,1.7010572890944786,2193.8733743417974,None,,,,,001,9,2019_Jun_06_1050,ACPT_experiment_5_30_19,3.1.0,59.94575081201383,
,,,C,U,d,n,,,,,,,,,,4,7,87,6,,,,,,,,,,,,,n,1,0.8173292055212187,2198.8602878762813,None,,,,,001,9,2019_Jun_06_1050,ACPT_experiment_5_30_19,3.1.0,59.94575081201383,
,,,C,G,g,v,,,,,,,,,,4,8,88,4,,,,,,,,,,,,,v,1,3.0354040615648046,2202.9804166369836,None,,,,,001,9,2019_Jun_06_1050,ACPT_experiment_5_30_19,3.1.0,59.94575081201383,
,,,C,U,g,n,,,,,,,,,,4,9,89,16,,,,,,,,,,,,,n,1,1.2009585814103048,2209.3016693974782,None,,,,,001,9,2019_Jun_06_1050,ACPT_experiment_5_30_19,3.1.0,59.94575081201383,
,,,C,G,g,v,,,,,,,,,,4,10,90,19,,,,,,,,,,,,,v,1,2.4349392600606734,2213.80542210062,None,,,,,001,9,2019_Jun_06_1050,ACPT_experiment_5_30_19,3.1.0,59.94575081201383,
,,,C,G,g,v,,,,,,,,,,4,11,91,13,,,,,,,,,,,,,v,1,1.2342949132039394,2219.5095387242013,None,,,,,001,9,2019_Jun_06_1050,ACPT_experiment_5_30_19,3.1.0,59.94575081201383,
,,,C,D,g,b,,,,,,,,,,4,12,92,10,,,,,,,,,,,,,b,1,2.368251503556621,2224.0466232312606,None,,,,,001,9,2019_Jun_06_1050,ACPT_experiment_5_30_19,3.1.0,59.94575081201383,
,,,C,G,y,b,,,,,,,,,,4,13,93,5,,,,,,,,,,,,,b,1,1.284336992259341,2229.700730678348,None,,,,,001,9,2019_Jun_06_1050,ACPT_experiment_5_30_19,3.1.0,59.94575081201383,
,,,C,D,d,v,,,,,,,,,,4,14,94,0,,,,,,,,,,,,,v,1,2.0511713311834683,2234.2879976286004,None,,,,,001,9,2019_Jun_06_1050,ACPT_experiment_5_30_19,3.1.0,59.94575081201383,
,,,C,D,y,b,,,,,,,,,,4,15,95,2,,,,,,,,,,,,,b,1,0.9340659838226202,2239.6083704719736,None,,,,,001,9,2019_Jun_06_1050,ACPT_experiment_5_30_19,3.1.0,59.94575081201383,
,,,C,G,y,b,,,,,,,,,,4,16,96,14,,,,,,,,,,,,,b,1,1.2674111902520053,2243.845210956734,None,,,,,001,9,2019_Jun_06_1050,ACPT_experiment_5_30_19,3.1.0,59.94575081201383,
,,,C,U,y,n,,,,,,,,,,4,17,97,17,,,,,,,,,,,,,n,1,1.4344520606664446,2248.3984756756495,None,,,,,001,9,2019_Jun_06_1050,ACPT_experiment_5_30_19,3.1.0,59.94575081201383,
,,,C,D,d,v,,,,,,,,,,4,18,98,18,,,,,,,,,,,,,v,1,2.301501262371403,2253.1357432899904,None,,,,,001,9,2019_Jun_06_1050,ACPT_experiment_5_30_19,3.1.0,59.94575081201383,
,,,C,U,y,n,,,,,,,,,,4,19,99,8,,,,,,,,,,,,,n,1,1.150900202003868,2258.723104118193,None,,,,,001,9,2019_Jun_06_1050,ACPT_experiment_5_30_19,3.1.0,59.94575081201383,
,,,C,D,y,b,,,,,,,,,,5,0,100,11,,,,,,,,,,,,,b,1,1.0839256800568364,2263.1934604197277,None,,,,,001,9,2019_Jun_06_1050,ACPT_experiment_5_30_19,3.1.0,59.94575081201383,
,,,C,G,d,b,,,,,,,,,,5,1,101,3,,,,,,,,,,,,,b,1,1.5512132894955357,2267.5632450618987,None,,,,,001,9,2019_Jun_06_1050,ACPT_experiment_5_30_19,3.1.0,59.94575081201383,
,,,C,D,d,v,,,,,,,,,,5,2,102,0,,,,,,,,,,,,,v,1,1.284211419181247,2272.400307654041,None,,,,,001,9,2019_Jun_06_1050,ACPT_experiment_5_30_19,3.1.0,59.94575081201383,
,,,C,D,g,b,,,,,,,,,,5,3,103,1,,,,,,,,,,,,,b,1,1.5843099457497374,2276.987429108564,None,,,,,001,9,2019_Jun_06_1050,ACPT_experiment_5_30_19,3.1.0,59.94575081201383,
,,,C,U,d,n,,,,,,,,,,5,4,104,15,,,,,,,,,,,,,n,1,0.8506335403276353,2281.8576408803156,None,,,,,001,9,2019_Jun_06_1050,ACPT_experiment_5_30_19,3.1.0,59.94575081201383,
,,,C,G,y,b,,,,,,,,,,5,5,105,5,,,,,,,,,,,,,b,1,0.8170370066277428,2286.0110785037,None,,,,,001,9,2019_Jun_06_1050,ACPT_experiment_5_30_19,3.1.0,59.94575081201383,
,,,C,D,d,v,,,,,,,,,,5,6,106,18,,,,,,,,,,,,,v,1,1.6178941032571856,2290.113986244918,None,,,,,001,9,2019_Jun_06_1050,ACPT_experiment_5_30_19,3.1.0,59.94575081201383,
,,,C,G,g,v,,,,,,,,,,5,7,107,4,,,,,,,,,,,,,v,1,3.2191588294172107,2295.01774474374,None,,,,,001,9,2019_Jun_06_1050,ACPT_experiment_5_30_19,3.1.0,59.94575081201383,
,,,C,D,y,b,,,,,,,,,,5,8,108,2,,,,,,,,,,,,,b,1,1.3510802907017023,2301.5227347643026,None,,,,,001,9,2019_Jun_06_1050,ACPT_experiment_5_30_19,3.1.0,59.94575081201383,
,,,C,D,d,v,,,,,,,,,,5,9,109,9,,,,,,,,,,,,,v,1,1.5311982690236619,2306.1796784725484,None,,,,,001,9,2019_Jun_06_1050,ACPT_experiment_5_30_19,3.1.0,59.94575081201383,
,,,C,G,d,b,,,,,,,,,,5,10,110,12,,,,,,,,,,,,,b,1,1.2343006485125443,2310.9967296665186,None,,,,,001,9,2019_Jun_06_1050,ACPT_experiment_5_30_19,3.1.0,59.94575081201383,
,,,C,U,y,n,,,,,,,,,,5,11,111,17,,,,,,,,,,,,,n,1,0.9173849889457415,2315.5168838436953,None,,,,,001,9,2019_Jun_06_1050,ACPT_experiment_5_30_19,3.1.0,59.94575081201383,
,,,C,D,g,b,,,,,,,,,,5,12,112,10,,,,,,,,,,,,,b,1,2.068274022190053,2319.7201211538713,None,,,,,001,9,2019_Jun_06_1050,ACPT_experiment_5_30_19,3.1.0,59.94575081201383,
,,,C,U,d,n,,,,,,,,,,5,13,113,6,,,,,,,,,,,,,n,1,0.8840214899000784,2325.074249006584,None,,,,,001,9,2019_Jun_06_1050,ACPT_experiment_5_30_19,3.1.0,59.94575081201383,
,,,C,U,g,n,,,,,,,,,,5,14,114,7,,,,,,,,,,,,,n,1,0.7839397466564151,2329.227459632481,None,,,,,001,9,2019_Jun_06_1050,ACPT_experiment_5_30_19,3.1.0,59.94575081201383,
,,,C,U,y,n,,,,,,,,,,5,15,115,8,,,,,,,,,,,,,n,1,0.6004648015041312,2333.29725502081,None,,,,,001,9,2019_Jun_06_1050,ACPT_experiment_5_30_19,3.1.0,59.94575081201383,
,,,C,G,g,v,,,,,,,,,,5,16,116,19,,,,,,,,,,,,,v,1,2.20156199627354,2337.217085364337,None,,,,,001,9,2019_Jun_06_1050,ACPT_experiment_5_30_19,3.1.0,59.94575081201383,
,,,C,G,g,v,,,,,,,,,,5,17,117,13,,,,,,,,,,,,,v,1,2.2350954415765045,2342.6878038959044,None,,,,,001,9,2019_Jun_06_1050,ACPT_experiment_5_30_19,3.1.0,59.94575081201383,
,,,C,G,y,b,,,,,,,,,,5,18,118,14,,,,,,,,,,,,,b,1,1.1175623609187824,2348.192045911449,None,,,,,001,9,2019_Jun_06_1050,ACPT_experiment_5_30_19,3.1.0,59.94575081201383,
,,,C,U,g,n,,,,,,,,,,5,19,119,16,0,0,0,0,0,0,0,0,,,,,n,1,1.0007872466053414,2352.595452745281,None,,,,,001,9,2019_Jun_06_1050,ACPT_experiment_5_30_19,3.1.0,59.94575081201383,
,,,C,U,g,n,R,D,d,R,c ,,,,,5,19,119,16,0,0,0,0,,,,,0,0,0,1,,,,,,up,1.3510558401744674,2678.2965202975597,None,001,9,2019_Jun_06_1050,ACPT_experiment_5_30_19,3.1.0,59.94575081201383,
,,,C,U,g,n,R,U,g,L,u,,,,,5,19,119,16,0,0,0,0,,,,,0,1,1,10,,,,,,up,0.8840353753848831,2680.93186030478,None,001,9,2019_Jun_06_1050,ACPT_experiment_5_30_19,3.1.0,59.94575081201383,
,,,C,U,g,n,L,G,y,R,y,,,,,5,19,119,16,0,0,0,0,,,,,0,2,2,35,,,,,,down,0.6671773103939813,2683.1002227110985,None,001,9,2019_Jun_06_1050,ACPT_experiment_5_30_19,3.1.0,59.94575081201383,
,,,C,U,g,n,R,U,y,R,u,,,,,5,19,119,16,0,0,0,0,,,,,0,3,3,31,,,,,,down,0.5504248354573065,2685.051728561717,None,001,9,2019_Jun_06_1050,ACPT_experiment_5_30_19,3.1.0,59.94575081201383,
,,,C,U,g,n,R,G,g,R,c ,,,,,5,19,119,16,0,0,0,0,,,,,0,4,4,7,,,,,,down,1.9848590864799007,2686.8864774095236,None,001,9,2019_Jun_06_1050,ACPT_experiment_5_30_19,3.1.0,59.94575081201383,
,,,C,U,g,n,L,D,g,R,i,,,,,5,19,119,16,0,0,0,0,,,,,0,5,5,15,,,,,,up,0.7172178801574773,2690.155662017645,None,001,9,2019_Jun_06_1050,ACPT_experiment_5_30_19,3.1.0,59.94575081201383,
,,,C,U,g,n,L,U,y,R,u,,,,,5,19,119,16,0,0,0,0,,,,,0,6,6,25,,,,,,down,1.6179131203343786,2692.1572048157273,None,001,9,2019_Jun_06_1050,ACPT_experiment_5_30_19,3.1.0,59.94575081201383,
,,,C,U,g,n,R,U,d,L,u,,,,,5,19,119,16,0,0,0,0,,,,,0,7,7,8,,,,,,up,1.3009992719175898,2695.059441948411,None,001,9,2019_Jun_06_1050,ACPT_experiment_5_30_19,3.1.0,59.94575081201383,
,,,C,U,g,n,L,D,y,L,y,,,,,5,19,119,16,0,0,0,0,,,,,0,8,8,32,,,,,,down,0.8673302318393326,2697.6447661382535,None,001,9,2019_Jun_06_1050,ACPT_experiment_5_30_19,3.1.0,59.94575081201383,
,,,C,U,g,n,L,G,g,R,c ,,,,,5,19,119,16,0,0,0,0,,,,,0,9,9,19,,,,,,up,0.934049683471585,2699.79642823076,None,001,9,2019_Jun_06_1050,ACPT_experiment_5_30_19,3.1.0,59.94575081201383,
,,,C,U,g,n,L,G,g,L,c ,,,,,5,19,119,16,0,0,0,0,,,,,0,10,10,18,,,,,,up,0.950730980206572,2702.014800417289,None,001,9,2019_Jun_06_1050,ACPT_experiment_5_30_19,3.1.0,59.94575081201383,
,,,C,U,g,n,R,D,g,L,i,,,,,5,19,119,16,0,0,0,0,,,,,0,11,11,2,,,,,,down,0.9674140880920277,2704.2498566172785,None,001,9,2019_Jun_06_1050,ACPT_experiment_5_30_19,3.1.0,59.94575081201383,
,,,C,U,g,n,R,U,d,R,u,,,,,5,19,119,16,0,0,0,0,,,,,0,12,12,9,,,,,,up,0.934034892411546,2706.5016070939128,None,001,9,2019_Jun_06_1050,ACPT_experiment_5_30_19,3.1.0,59.94575081201383,
,,,C,U,g,n,L,U,y,L,u,,,,,5,19,119,16,0,0,0,0,,,,,0,13,13,24,,,,,,down,0.7505777569026577,2708.719965998674,None,001,9,2019_Jun_06_1050,ACPT_experiment_5_30_19,3.1.0,59.94575081201383,
,,,C,U,g,n,L,U,d,L,u,,,,,5,19,119,16,0,0,0,0,,,,,0,14,14,20,,,,,,up,0.7672551294790537,2710.75487078651,None,001,9,2019_Jun_06_1050,ACPT_experiment_5_30_19,3.1.0,59.94575081201383,
,,,C,U,g,n,R,G,d,L,i,,,,,5,19,119,16,0,0,0,0,,,,,0,15,15,4,,,,,,up,1.7013313764859959,2712.8064490227634,None,001,9,2019_Jun_06_1050,ACPT_experiment_5_30_19,3.1.0,59.94575081201383,
,,,C,U,g,n,L,D,d,R,c ,,,,,5,19,119,16,0,0,0,0,,,,,0,16,16,13,,,,,,up,0.8339588844764876,2715.792098374432,None,001,9,2019_Jun_06_1050,ACPT_experiment_5_30_19,3.1.0,59.94575081201383,
,,,C,U,g,n,R,G,g,L,c ,,,,,5,19,119,16,0,0,0,0,,,,,0,17,17,6,,,,,,up,0.6838598145623109,2717.910378856391,None,001,9,2019_Jun_06_1050,ACPT_experiment_5_30_19,3.1.0,59.94575081201383,
,,,C,U,g,n,L,G,d,R,i,,,,,5,19,119,16,0,0,0,0,,,,,0,18,18,17,,,,,,up,0.6004693293793935,2719.8785638907366,None,001,9,2019_Jun_06_1050,ACPT_experiment_5_30_19,3.1.0,59.94575081201383,
,,,C,U,g,n,R,G,d,R,i,,,,,5,19,119,16,0,0,0,0,,,,,0,19,19,5,,,,,,up,0.6004865353061177,2721.7633554213157,None,001,9,2019_Jun_06_1050,ACPT_experiment_5_30_19,3.1.0,59.94575081201383,
,,,C,U,g,n,R,D,d,L,c,,,,,5,19,119,16,0,0,0,0,,,,,0,20,20,0,,,,,,up,0.7005386964306126,2723.6314599198504,None,001,9,2019_Jun_06_1050,ACPT_experiment_5_30_19,3.1.0,59.94575081201383,
,,,C,U,g,n,L,D,d,L,c ,,,,,5,19,119,16,0,0,0,0,,,,,0,21,21,12,,,,,,up,0.7839186165710998,2725.6163392308404,None,001,9,2019_Jun_06_1050,ACPT_experiment_5_30_19,3.1.0,59.94575081201383,
,,,C,U,g,n,R,U,y,L,u,,,,,5,19,119,16,0,0,0,0,,,,,0,22,22,30,,,,,,down,0.750582586636483,2727.6845782374608,None,001,9,2019_Jun_06_1050,ACPT_experiment_5_30_19,3.1.0,59.94575081201383,
,,,C,U,g,n,R,D,y,R,y,,,,,5,19,119,16,0,0,0,0,,,,,0,23,23,27,,,,,,down,0.5504224205901664,2729.7028035397116,None,001,9,2019_Jun_06_1050,ACPT_experiment_5_30_19,3.1.0,59.94575081201383,
,,,C,U,g,n,L,U,g,L,u,,,,,5,19,119,16,0,0,0,0,,,,,0,24,24,22,,,,,,up,0.9006846751340163,2731.5375526893768,None,001,9,2019_Jun_06_1050,ACPT_experiment_5_30_19,3.1.0,59.94575081201383,
,,,C,U,g,n,R,D,y,L,y,,,,,5,19,119,16,0,0,0,0,,,,,0,25,25,26,,,,,,down,0.7005640525330818,2733.722542661642,None,001,9,2019_Jun_06_1050,ACPT_experiment_5_30_19,3.1.0,59.94575081201383,
,,,C,U,g,n,L,G,y,L,y,,,,,5,19,119,16,0,0,0,0,,,,,0,26,26,34,,,,,,down,0.8673226853802589,2735.7241183622855,None,001,9,2019_Jun_06_1050,ACPT_experiment_5_30_19,3.1.0,59.94575081201383,
,,,C,U,g,n,L,D,g,L,i,,,,,5,19,119,16,0,0,0,0,,,,,0,27,27,14,,,,,,up,0.7005350741305847,2737.8924520920596,None,001,9,2019_Jun_06_1050,ACPT_experiment_5_30_19,3.1.0,59.94575081201383,
,,,C,U,g,n,L,G,d,L,i,,,,,5,19,119,16,0,0,0,0,,,,,0,28,28,16,,,,,,up,0.7172196913074913,2739.8773138952647,None,001,9,2019_Jun_06_1050,ACPT_experiment_5_30_19,3.1.0,59.94575081201383,
,,,C,U,g,n,R,G,y,L,y,,,,,5,19,119,16,0,0,0,0,,,,,0,29,29,28,,,,,,down,0.6671803289773379,2741.8788539766215,None,001,9,2019_Jun_06_1050,ACPT_experiment_5_30_19,3.1.0,59.94575081201383,
,,,C,U,g,n,L,U,d,R,u,,,,,5,19,119,16,0,0,0,0,,,,,0,30,30,21,,,,,,up,1.30101225182716,2743.830356506798,None,001,9,2019_Jun_06_1050,ACPT_experiment_5_30_19,3.1.0,59.94575081201383,
,,,C,U,g,n,L,D,y,R,y,,,,,5,19,119,16,0,0,0,0,,,,,0,31,31,33,,,,,,down,0.8172920769425218,2746.4323668231095,None,001,9,2019_Jun_06_1050,ACPT_experiment_5_30_19,3.1.0,59.94575081201383,
,,,C,U,g,n,L,U,g,R,u,,,,,5,19,119,16,0,0,0,0,,,,,0,32,32,23,,,,,,up,0.7672789762896173,2748.5506614924116,None,001,9,2019_Jun_06_1050,ACPT_experiment_5_30_19,3.1.0,59.94575081201383,
,,,C,U,g,n,R,U,g,R,u,,,,,5,19,119,16,0,0,0,0,,,,,0,33,33,11,,,,,,up,0.9340499853296933,2750.585567487681,None,001,9,2019_Jun_06_1050,ACPT_experiment_5_30_19,3.1.0,59.94575081201383,
,,,C,U,g,n,R,D,g,R,i,,,,,5,19,119,16,0,0,0,0,,,,,0,34,34,3,,,,,,up,2.5186131902446505,2752.8039417872187,None,001,9,2019_Jun_06_1050,ACPT_experiment_5_30_19,3.1.0,59.94575081201383,
,,,C,U,g,n,R,G,y,R,y,,,,,5,19,119,16,0,0,0,0,,,,,0,35,35,29,,,,,,down,0.717212748565089,2756.606885932555,None,001,9,2019_Jun_06_1050,ACPT_experiment_5_30_19,3.1.0,59.94575081201383,
,,,C,U,g,n,L,D,g,L,i,,,,,5,19,119,16,0,0,0,0,,,,,1,0,36,14,,,,,,up,0.9173671793028007,2758.6084187693114,None,001,9,2019_Jun_06_1050,ACPT_experiment_5_30_19,3.1.0,59.94575081201383,
,,,C,U,g,n,L,U,g,L,u,,,,,5,19,119,16,0,0,0,0,,,,,1,1,37,22,,,,,,down,1.1509038243038958,2760.8101147906973,None,001,9,2019_Jun_06_1050,ACPT_experiment_5_30_19,3.1.0,59.94575081201383,
,,,C,U,g,n,R,G,y,L,y,,,,,5,19,119,16,0,0,0,0,,,,,1,2,38,28,,,,,,down,0.6671773103939813,2763.245321195407,None,001,9,2019_Jun_06_1050,ACPT_experiment_5_30_19,3.1.0,59.94575081201383,
,,,C,U,g,n,L,U,y,L,u,,,,,5,19,119,16,0,0,0,0,,,,,1,3,39,24,,,,,,down,0.6505147288767148,2765.213504720461,None,001,9,2019_Jun_06_1050,ACPT_experiment_5_30_19,3.1.0,59.94575081201383,
,,,C,U,g,n,R,U,y,L,u,,,,,5,19,119,16,0,0,0,0,,,,,1,4,40,30,,,,,,down,0.5837723360091331,2767.165013589663,None,001,9,2019_Jun_06_1050,ACPT_experiment_5_30_19,3.1.0,59.94575081201383,
,,,C,U,g,n,R,G,y,R,y,,,,,5,19,119,16,0,0,0,0,,,,,1,5,41,29,,,,,,down,0.8006141006494545,2769.0331135603224,None,001,9,2019_Jun_06_1050,ACPT_experiment_5_30_19,3.1.0,59.94575081201383,
,,,C,U,g,n,R,G,g,L,c ,,,,,5,19,119,16,0,0,0,0,,,,,1,6,42,6,,,,,,up,0.8673610213922984,2771.101351963226,None,001,9,2019_Jun_06_1050,ACPT_experiment_5_30_19,3.1.0,59.94575081201383,
,,,C,U,g,n,R,D,y,L,y,,,,,5,19,119,16,0,0,0,0,,,,,1,7,43,26,,,,,,down,0.7670957482646372,2773.26986439315,None,001,9,2019_Jun_06_1050,ACPT_experiment_5_30_19,3.1.0,59.94575081201383,
,,,C,U,g,n,L,G,d,R,i,,,,,5,19,119,16,0,0,0,0,,,,,1,8,44,17,,,,,,up,0.7171629419358396,2775.354696553864,None,001,9,2019_Jun_06_1050,ACPT_experiment_5_30_19,3.1.0,59.94575081201383,
,,,C,U,g,n,R,U,d,R,u,,,,,5,19,119,16,0,0,0,0,,,,,1,9,45,9,,,,,,up,0.7839442745316774,2777.3561964880587,None,001,9,2019_Jun_06_1050,ACPT_experiment_5_30_19,3.1.0,59.94575081201383,
,,,C,U,g,n,L,G,y,L,y,,,,,5,19,119,16,0,0,0,0,,,,,1,10,46,34,,,,,,down,0.7005411112977526,2779.424453606181,None,001,9,2019_Jun_06_1050,ACPT_experiment_5_30_19,3.1.0,59.94575081201383,
,,,C,U,g,n,R,U,g,R,u,,,,,5,19,119,16,0,0,0,0,,,,,1,11,47,11,,,,,,up,2.3684745768850917,2781.4093302004458,None,001,9,2019_Jun_06_1050,ACPT_experiment_5_30_19,3.1.0,59.94575081201383,
,,,C,U,g,n,R,D,d,R,c ,,,,,5,19,119,16,0,0,0,0,,,,,1,12,48,1,,,,,,up,0.8506543685548422,2785.062131808264,None,001,9,2019_Jun_06_1050,ACPT_experiment_5_30_19,3.1.0,59.94575081201383,
,,,C,U,g,n,L,D,g,R,i,,,,,5,19,119,16,0,0,0,0,,,,,1,13,49,15,,,,,,up,0.5837807880438959,2787.197112905894,None,001,9,2019_Jun_06_1050,ACPT_experiment_5_30_19,3.1.0,59.94575081201383,
,,,C,U,g,n,L,D,y,L,y,,,,,5,19,119,16,0,0,0,0,,,,,1,14,50,32,,,,,,down,0.7005393001477387,2789.065219819295,None,001,9,2019_Jun_06_1050,ACPT_experiment_5_30_19,3.1.0,59.94575081201383,
,,,C,U,g,n,L,U,d,R,u,,,,,5,19,119,16,0,0,0,0,,,,,1,15,51,21,,,,,,up,0.6504966173752109,2791.050086452234,None,001,9,2019_Jun_06_1050,ACPT_experiment_5_30_19,3.1.0,59.94575081201383,
,,,C,U,g,n,L,G,y,R,y,,,,,5,19,119,16,0,0,0,0,,,,,1,16,52,35,,,,,,down,0.6338361488669761,2792.984885951874,None,001,9,2019_Jun_06_1050,ACPT_experiment_5_30_19,3.1.0,59.94575081201383,
,,,C,U,g,n,R,G,d,L,i,,,,,5,19,119,16,0,0,0,0,,,,,1,17,53,4,,,,,,up,0.967410465791545,2794.903050640966,None,001,9,2019_Jun_06_1050,ACPT_experiment_5_30_19,3.1.0,59.94575081201383,
,,,C,U,g,n,L,U,g,R,u,,,,,5,19,119,16,0,0,0,0,,,,,1,18,54,23,,,,,,up,0.8005971965812932,2797.154804438042,None,001,9,2019_Jun_06_1050,ACPT_experiment_5_30_19,3.1.0,59.94575081201383,
,,,C,U,g,n,R,D,y,R,y,,,,,5,19,119,16,0,0,0,0,,,,,1,19,55,27,,,,,,down,0.6338156224983322,2799.239724741398,None,001,9,2019_Jun_06_1050,ACPT_experiment_5_30_19,3.1.0,59.94575081201383,
,,,C,U,g,n,R,U,d,L,u,,,,,5,19,119,16,0,0,0,0,,,,,1,20,56,8,,,,,,up,0.7839768752346572,2801.157877054297,None,001,9,2019_Jun_06_1050,ACPT_experiment_5_30_19,3.1.0,59.94575081201383,
,,,C,U,g,n,L,G,g,L,c ,,,,,5,19,119,16,0,0,0,0,,,,,1,21,57,18,,,,,,up,1.784675979198255,2803.2261513783455,None,001,9,2019_Jun_06_1050,ACPT_experiment_5_30_19,3.1.0,59.94575081201383,
,,,C,U,g,n,L,G,d,L,i,,,,,5,19,119,16,0,0,0,0,,,,,1,22,58,16,,,,,,up,0.6337887571039573,2806.2951815557294,None,001,9,2019_Jun_06_1050,ACPT_experiment_5_30_19,3.1.0,59.94575081201383,
,,,C,U,g,n,R,U,g,L,u,,,,,5,19,119,16,0,0,0,0,,,,,1,23,59,10,,,,,,up,0.5504184964311207,2808.2133145496937,None,001,9,2019_Jun_06_1050,ACPT_experiment_5_30_19,3.1.0,59.94575081201383,
,,,C,U,g,n,R,D,g,R,i,,,,,5,19,119,16,0,0,0,0,,,,,1,24,60,3,,,,,,up,0.8006156099409054,2810.048055851041,None,001,9,2019_Jun_06_1050,ACPT_experiment_5_30_19,3.1.0,59.94575081201383,
,,,C,U,g,n,L,G,g,R,c ,,,,,5,19,119,16,0,0,0,0,,,,,1,25,61,19,,,,,,up,0.717221804316523,2812.1329966807652,None,001,9,2019_Jun_06_1050,ACPT_experiment_5_30_19,3.1.0,59.94575081201383,
,,,C,U,g,n,L,D,y,R,y,,,,,5,19,119,16,0,0,0,0,,,,,1,26,62,33,,,,,,down,0.5838082571544874,2814.134540082564,None,001,9,2019_Jun_06_1050,ACPT_experiment_5_30_19,3.1.0,59.94575081201383,
,,,C,U,g,n,R,U,y,R,u,,,,,5,19,119,16,0,0,0,0,,,,,1,27,63,31,,,,,,down,0.5670979820165485,2816.0026442792405,None,001,9,2019_Jun_06_1050,ACPT_experiment_5_30_19,3.1.0,59.94575081201383,
,,,C,U,g,n,L,D,d,R,c ,,,,,5,19,119,16,0,0,0,0,,,,,1,28,64,13,,,,,,up,0.6168608420880446,2817.871023468884,None,001,9,2019_Jun_06_1050,ACPT_experiment_5_30_19,3.1.0,59.94575081201383,
,,,C,U,g,n,L,U,d,L,u,,,,,5,19,119,16,0,0,0,0,,,,,1,29,65,20,,,,,,up,1.4844754245032163,2819.7722194920807,None,001,9,2019_Jun_06_1050,ACPT_experiment_5_30_19,3.1.0,59.94575081201383,
,,,C,U,g,n,L,U,y,R,u,,,,,5,19,119,16,0,0,0,0,,,,,1,30,66,25,,,,,,down,0.5838001069787424,2822.524318615122,None,001,9,2019_Jun_06_1050,ACPT_experiment_5_30_19,3.1.0,59.94575081201383,
,,,C,U,g,n,R,G,d,R,i,,,,,5,19,119,16,0,0,0,0,,,,,1,31,67,5,,,,,,up,1.1673188819650022,2824.4093709513245,None,001,9,2019_Jun_06_1050,ACPT_experiment_5_30_19,3.1.0,59.94575081201383,
,,,C,U,g,n,R,G,g,R,c ,,,,,5,19,119,16,0,0,0,0,,,,,1,32,68,7,,,,,,up,0.8339609974846098,2826.861019580948,None,001,9,2019_Jun_06_1050,ACPT_experiment_5_30_19,3.1.0,59.94575081201383,
,,,C,U,g,n,L,D,d,L,c ,,,,,5,19,119,16,0,0,0,0,,,,,1,33,69,12,,,,,,up,0.984108968453711,2828.9793230041423,None,001,9,2019_Jun_06_1050,ACPT_experiment_5_30_19,3.1.0,59.94575081201383,
,,,C,U,g,n,R,D,d,L,c,,,,,5,19,119,16,0,0,0,0,,,,,1,34,70,0,,,,,,up,0.6171436833719781,2831.247722176809,None,001,9,2019_Jun_06_1050,ACPT_experiment_5_30_19,3.1.0,59.94575081201383,
,,,C,U,g,n,R,D,g,L,i,,,,,5,19,119,16,0,0,0,0,,,,,1,35,71,2,,,,,,up,0.7338937434424224,2833.14919198554,None,001,9,2019_Jun_06_1050,ACPT_experiment_5_30_19,3.1.0,59.94575081201383,
,,,C,U,g,n,,,,,,,,,,5,19,119,16,1,0,1,0,0,0,0,0,,,,,,,,,,,,,,001,9,2019_Jun_06_1050,ACPT_experiment_5_30_19,3.1.0,59.94575081201383,
,,,C,U,g,n,L,D,d,R,c ,,,,,5,19,119,16,1,0,1,0,,,,,0,0,0,13,,,,,,up,1.0338543207399198,2845.6757875182775,None,001,9,2019_Jun_06_1050,ACPT_experiment_5_30_19,3.1.0,59.94575081201383,
,,,C,U,g,n,L,U,g,R,u,,,,,5,19,119,16,1,0,1,0,,,,,0,1,1,23,,,,,,up,0.6004599717698511,2847.993967360659,None,001,9,2019_Jun_06_1050,ACPT_experiment_5_30_19,3.1.0,59.94575081201383,
,,,C,U,g,n,L,U,y,R,u,,,,,5,19,119,16,1,0,1,0,,,,,0,2,2,25,,,,,,down,0.717217578299369,2849.878755570796,None,001,9,2019_Jun_06_1050,ACPT_experiment_5_30_19,3.1.0,59.94575081201383,
,,,C,U,g,n,L,U,g,L,u,,,,,5,19,119,16,1,0,1,0,,,,,0,3,3,22,,,,,,up,0.6838619275708879,2851.8802938410026,None,001,9,2019_Jun_06_1050,ACPT_experiment_5_30_19,3.1.0,59.94575081201383,
,,,C,U,g,n,R,U,d,R,u,,,,,5,19,119,16,1,0,1,0,,,,,0,4,4,9,,,,,,up,0.8340014465052263,2853.8484852143733,None,001,9,2019_Jun_06_1050,ACPT_experiment_5_30_19,3.1.0,59.94575081201383,
,,,C,U,g,n,R,U,g,R,u,,,,,5,19,119,16,1,0,1,0,,,,,0,5,5,11,,,,,,up,0.5504411358083416,2855.950105529683,None,001,9,2019_Jun_06_1050,ACPT_experiment_5_30_19,3.1.0,59.94575081201383,
,,,C,U,g,n,R,D,d,L,c,,,,,5,19,119,16,1,0,1,0,,,,,0,6,6,0,,,,,,up,0.7338928378671881,2857.784846529172,None,001,9,2019_Jun_06_1050,ACPT_experiment_5_30_19,3.1.0,59.94575081201383,
,,,C,U,g,n,R,G,g,R,c ,,,,,5,19,119,16,1,0,1,0,,,,,0,7,7,7,,,,,,up,1.0007724555453024,2859.8030657942554,None,001,9,2019_Jun_06_1050,ACPT_experiment_5_30_19,3.1.0,59.94575081201383,
,,,C,U,g,n,R,D,d,R,c ,,,,,5,19,119,16,1,0,1,0,,,,,0,8,8,1,,,,,,up,0.6338286024074478,2862.0881595454252,None,001,9,2019_Jun_06_1050,ACPT_experiment_5_30_19,3.1.0,59.94575081201383,
,,,C,U,g,n,R,G,y,R,y,,,,,5,19,119,16,1,0,1,0,,,,,0,9,9,29,,,,,,down,0.5838230482140716,2864.0063079341658,None,001,9,2019_Jun_06_1050,ACPT_experiment_5_30_19,3.1.0,59.94575081201383,
,,,C,U,g,n,L,D,d,L,c ,,,,,5,19,119,16,1,0,1,0,,,,,0,10,10,12,,,,,,up,0.6338159243568953,2865.874416055001,None,001,9,2019_Jun_06_1050,ACPT_experiment_5_30_19,3.1.0,59.94575081201383,
,,,C,U,g,n,R,D,y,R,y,,,,,5,19,119,16,1,0,1,0,,,,,0,11,11,27,,,,,,down,1.1508848072271576,2867.809240005168,None,001,9,2019_Jun_06_1050,ACPT_experiment_5_30_19,3.1.0,59.94575081201383,
,,,C,U,g,n,L,D,g,R,i,,,,,5,19,119,16,1,0,1,0,,,,,0,12,12,15,,,,,,up,0.7505837940698257,2870.261129517763,None,001,9,2019_Jun_06_1050,ACPT_experiment_5_30_19,3.1.0,59.94575081201383,
,,,C,U,g,n,L,G,d,R,i,,,,,5,19,119,16,1,0,1,0,,,,,0,13,13,17,,,,,,up,3.786257113292322,2872.2960321925902,None,001,9,2019_Jun_06_1050,ACPT_experiment_5_30_19,3.1.0,59.94575081201383,
,,,C,U,g,n,R,G,d,R,i,,,,,5,19,119,16,1,0,1,0,,,,,0,14,14,5,,,,,,up,0.533741727571396,2877.366603055048,None,001,9,2019_Jun_06_1050,ACPT_experiment_5_30_19,3.1.0,59.94575081201383,
,,,C,U,g,n,R,D,g,R,i,,,,,5,19,119,16,1,0,1,0,,,,,0,15,15,3,,,,,,up,0.5337429350051934,2879.184673624703,None,001,9,2019_Jun_06_1050,ACPT_experiment_5_30_19,3.1.0,59.94575081201383,
,,,C,U,g,n,L,G,y,R,y,,,,,5,19,119,16,1,0,1,0,,,,,0,16,16,35,,,,,,down,0.6338192447988149,2881.0027402701994,None,001,9,2019_Jun_06_1050,ACPT_experiment_5_30_19,3.1.0,59.94575081201383,
,,,C,U,g,n,L,D,y,R,y,,,,,5,19,119,16,1,0,1,0,,,,,0,17,17,33,,,,,,down,0.717217578299369,2882.9208883570814,None,001,9,2019_Jun_06_1050,ACPT_experiment_5_30_19,3.1.0,59.94575081201383,
,,,C,U,g,n,L,U,d,L,u,,,,,5,19,119,16,1,0,1,0,,,,,0,18,18,20,,,,,,up,1.8681051022513202,2884.92242994773,None,001,9,2019_Jun_06_1050,ACPT_experiment_5_30_19,3.1.0,59.94575081201383,
,,,C,U,g,n,L,U,y,L,u,,,,,5,19,119,16,1,0,1,0,,,,,0,19,19,24,,,,,,down,1.0174543559969607,2888.0748521195887,None,001,9,2019_Jun_06_1050,ACPT_experiment_5_30_19,3.1.0,59.94575081201383,
,,,C,U,g,n,R,G,y,L,y,,,,,5,19,119,16,1,0,1,0,,,,,0,20,20,28,,,,,,down,0.8840115285747743,2890.376636826961,None,001,9,2019_Jun_06_1050,ACPT_experiment_5_30_19,3.1.0,59.94575081201383,
,,,C,U,g,n,R,U,y,R,u,,,,,5,19,119,16,1,0,1,0,,,,,0,21,21,31,,,,,,down,5.270730122928853,2892.5282889581417,None,001,9,2019_Jun_06_1050,ACPT_experiment_5_30_19,3.1.0,59.94575081201383,
,,,C,U,g,n,L,G,g,L,c ,,,,,5,19,119,16,1,0,1,0,,,,,0,22,22,18,,,,,,down,1.1342050197836215,2899.083342187845,None,001,9,2019_Jun_06_1050,ACPT_experiment_5_30_19,3.1.0,59.94575081201383,
,,,C,U,g,n,R,D,g,L,i,,,,,5,19,119,16,1,0,1,0,,,,,0,23,23,2,,,,,,down,4.470136548648043,2901.4851666801496,None,001,9,2019_Jun_06_1050,ACPT_experiment_5_30_19,3.1.0,59.94575081201383,
,,,C,U,g,n,L,D,g,L,i,,,,,5,19,119,16,1,0,1,0,,,,,0,24,24,14,,,,,,up,0.9173747257618743,2907.2396275430056,None,001,9,2019_Jun_06_1050,ACPT_experiment_5_30_19,3.1.0,59.94575081201383,
,,,C,U,g,n,R,U,d,L,u,,,,,5,19,119,16,1,0,1,0,,,,,0,25,25,8,,,,,,up,1.7346761603134837,2909.441324168108,None,001,9,2019_Jun_06_1050,ACPT_experiment_5_30_19,3.1.0,59.94575081201383,
,,,C,U,g,n,L,U,d,R,u,,,,,5,19,119,16,1,0,1,0,,,,,0,26,26,21,,,,,,up,1.4511828621725726,2912.4436339882855,None,001,9,2019_Jun_06_1050,ACPT_experiment_5_30_19,3.1.0,59.94575081201383,
,,,C,U,g,n,R,U,g,L,u,,,,,5,19,119,16,1,0,1,0,,,,,0,27,27,10,,,,,,up,4.253278483657141,2915.1790813967104,None,001,9,2019_Jun_06_1050,ACPT_experiment_5_30_19,3.1.0,59.94575081201383,
,,,C,U,g,n,R,D,y,L,y,,,,,5,19,119,16,1,0,1,0,,,,,0,28,28,26,,,,,,down,0.8506453128038629,2920.7333591522847,None,001,9,2019_Jun_06_1050,ACPT_experiment_5_30_19,3.1.0,59.94575081201383,
,,,C,U,g,n,L,G,y,L,y,,,,,5,19,119,16,1,0,1,0,,,,,0,29,29,34,,,,,,down,2.185012611642378,2922.885020339216,None,001,9,2019_Jun_06_1050,ACPT_experiment_5_30_19,3.1.0,59.94575081201383,
,,,C,U,g,n,L,G,d,L,i,,,,,5,19,119,16,1,0,1,0,,,,,0,30,30,16,,,,,,up,0.8840124341495539,2926.3543599817917,None,001,9,2019_Jun_06_1050,ACPT_experiment_5_30_19,3.1.0,59.94575081201383,
,,,C,U,g,n,R,G,g,L,c ,,,,,5,19,119,16,1,0,1,0,,,,,0,31,31,6,,,,,,down,1.1842377412299356,2928.5227018617416,None,001,9,2019_Jun_06_1050,ACPT_experiment_5_30_19,3.1.0,59.94575081201383,
,,,C,U,g,n,L,G,g,R,c ,,,,,5,19,119,16,1,0,1,0,,,,,0,32,32,19,,,,,,up,0.6004569531864945,2930.991268746913,None,001,9,2019_Jun_06_1050,ACPT_experiment_5_30_19,3.1.0,59.94575081201383,
,,,C,U,g,n,R,U,y,L,u,,,,,5,19,119,16,1,0,1,0,,,,,0,33,33,30,,,,,,down,0.7005408094391896,2932.8760521273166,None,001,9,2019_Jun_06_1050,ACPT_experiment_5_30_19,3.1.0,59.94575081201383,
,,,C,U,g,n,L,D,y,L,y,,,,,5,19,119,16,1,0,1,0,,,,,0,34,34,32,,,,,,down,1.1508543195327547,2934.8776181684925,None,001,9,2019_Jun_06_1050,ACPT_experiment_5_30_19,3.1.0,59.94575081201383,
,,,C,U,g,n,R,G,d,L,i,,,,,5,19,119,16,1,0,1,0,,,,,0,35,35,4,,,,,,up,2.3017952724153474,2937.346164829154,None,001,9,2019_Jun_06_1050,ACPT_experiment_5_30_19,3.1.0,59.94575081201383,
,,,C,U,g,n,L,D,g,L,i,,,,,5,19,119,16,1,0,1,0,,,,,1,0,36,14,,,,,,up,0.9007139553950765,2940.9322638894087,None,001,9,2019_Jun_06_1050,ACPT_experiment_5_30_19,3.1.0,59.94575081201383,
,,,C,U,g,n,R,U,d,L,u,,,,,5,19,119,16,1,0,1,0,,,,,1,1,37,8,,,,,,up,0.6171346276214535,2943.1172810289263,None,001,9,2019_Jun_06_1050,ACPT_experiment_5_30_19,3.1.0,59.94575081201383,
,,,C,U,g,n,R,U,g,R,u,,,,,5,19,119,16,1,0,1,0,,,,,1,2,38,11,,,,,,up,0.5837747508762732,2945.0187466116395,None,001,9,2019_Jun_06_1050,ACPT_experiment_5_30_19,3.1.0,59.94575081201383,
,,,C,U,g,n,R,D,d,L,c,,,,,5,19,119,16,1,0,1,0,,,,,1,3,39,0,,,,,,up,0.549989857559467,2946.9039378026882,None,001,9,2019_Jun_06_1050,ACPT_experiment_5_30_19,3.1.0,59.94575081201383,
,,,C,U,g,n,L,G,y,R,y,,,,,5,19,119,16,1,0,1,0,,,,,1,4,40,35,,,,,,down,1.1508769589099757,2948.7549598347264,None,001,9,2019_Jun_06_1050,ACPT_experiment_5_30_19,3.1.0,59.94575081201383,
,,,C,U,g,n,R,U,y,L,u,,,,,5,19,119,16,1,0,1,0,,,,,1,5,41,30,,,,,,down,0.8673269113974129,2951.2068448194464,None,001,9,2019_Jun_06_1050,ACPT_experiment_5_30_19,3.1.0,59.94575081201383,
,,,C,U,g,n,L,D,y,L,y,,,,,5,19,119,16,1,0,1,0,,,,,1,6,42,32,,,,,,down,0.650280788647251,2953.3754212433423,None,001,9,2019_Jun_06_1050,ACPT_experiment_5_30_19,3.1.0,59.94575081201383,
,,,C,U,g,n,R,U,y,R,u,,,,,5,19,119,16,1,0,1,0,,,,,1,7,43,31,,,,,,down,0.5671203195352064,2955.310020610889,None,001,9,2019_Jun_06_1050,ACPT_experiment_5_30_19,3.1.0,59.94575081201383,
,,,C,U,g,n,R,D,y,L,y,,,,,5,19,119,16,1,0,1,0,,,,,1,8,44,26,,,,,,down,0.633806868605916,2957.1781160536725,None,001,9,2019_Jun_06_1050,ACPT_experiment_5_30_19,3.1.0,59.94575081201383,
,,,C,U,g,n,L,U,d,L,u,,,,,5,19,119,16,1,0,1,0,,,,,1,9,45,20,,,,,,up,0.6671911958783312,2959.1129415131313,None,001,9,2019_Jun_06_1050,ACPT_experiment_5_30_19,3.1.0,59.94575081201383,
,,,C,U,g,n,R,D,d,R,c ,,,,,5,19,119,16,1,0,1,0,,,,,1,10,46,1,,,,,,up,0.6671818382692436,2961.064445854458,None,001,9,2019_Jun_06_1050,ACPT_experiment_5_30_19,3.1.0,59.94575081201383,
,,,C,U,g,n,L,U,g,R,u,,,,,5,19,119,16,1,0,1,0,,,,,1,11,47,23,,,,,,up,0.7672684112467323,2963.015951705077,None,001,9,2019_Jun_06_1050,ACPT_experiment_5_30_19,3.1.0,59.94575081201383,
,,,C,U,g,n,L,U,g,L,u,,,,,5,19,119,16,1,0,1,0,,,,,1,12,48,22,,,,,,down,0.7339390221964095,2965.0508278163684,None,001,9,2019_Jun_06_1050,ACPT_experiment_5_30_19,3.1.0,59.94575081201383,
,,,C,U,g,n,R,G,g,L,c ,,,,,5,19,119,16,1,0,1,0,,,,,1,13,49,6,,,,,,up,0.9340086307342972,2967.0690986992317,None,001,9,2019_Jun_06_1050,ACPT_experiment_5_30_19,3.1.0,59.94575081201383,
,,,C,U,g,n,L,G,y,L,y,,,,,5,19,119,16,1,0,1,0,,,,,1,14,50,34,,,,,,down,0.7339000824676987,2969.2874464352335,None,001,9,2019_Jun_06_1050,ACPT_experiment_5_30_19,3.1.0,59.94575081201383,
,,,C,U,g,n,R,D,g,L,i,,,,,5,19,119,16,1,0,1,0,,,,,1,15,51,2,,,,,,down,0.9006991643354922,2971.3056681151843,None,001,9,2019_Jun_06_1050,ACPT_experiment_5_30_19,3.1.0,59.94575081201383,
,,,C,U,g,n,R,G,y,L,y,,,,,5,19,119,16,1,0,1,0,,,,,1,16,52,28,,,,,,down,0.7170473301835045,2973.5075008784074,None,001,9,2019_Jun_06_1050,ACPT_experiment_5_30_19,3.1.0,59.94575081201383,
,,,C,U,g,n,L,G,g,R,c ,,,,,5,19,119,16,1,0,1,0,,,,,1,17,53,19,,,,,,up,0.7672463755866374,2975.5256060410306,None,001,9,2019_Jun_06_1050,ACPT_experiment_5_30_19,3.1.0,59.94575081201383,
,,,C,U,g,n,L,D,g,R,i,,,,,5,19,119,16,1,0,1,0,,,,,1,18,54,15,,,,,,up,1.0341335397238254,2977.57718699401,None,001,9,2019_Jun_06_1050,ACPT_experiment_5_30_19,3.1.0,59.94575081201383,
,,,C,U,g,n,R,D,g,R,i,,,,,5,19,119,16,1,0,1,0,,,,,1,19,55,3,,,,,,up,0.6338104909059439,2979.8956261327235,None,001,9,2019_Jun_06_1050,ACPT_experiment_5_30_19,3.1.0,59.94575081201383,
,,,C,U,g,n,L,D,d,R,c ,,,,,5,19,119,16,1,0,1,0,,,,,1,20,56,13,,,,,,up,0.934049683471585,2981.8137675787216,None,001,9,2019_Jun_06_1050,ACPT_experiment_5_30_19,3.1.0,59.94575081201383,
,,,C,U,g,n,R,G,g,R,c ,,,,,5,19,119,16,1,0,1,0,,,,,1,21,57,7,,,,,,up,1.200925980707325,2984.0321430856925,None,001,9,2019_Jun_06_1050,ACPT_experiment_5_30_19,3.1.0,59.94575081201383,
,,,C,U,g,n,L,G,d,L,i,,,,,5,19,119,16,1,0,1,0,,,,,1,22,58,16,,,,,,up,1.3844009258600636,2986.5173942861834,None,001,9,2019_Jun_06_1050,ACPT_experiment_5_30_19,3.1.0,59.94575081201383,
,,,C,U,g,n,L,U,y,R,u,,,,,5,19,119,16,1,0,1,0,,,,,1,23,59,25,,,,,,down,0.717017446205773,2989.202952054025,None,001,9,2019_Jun_06_1050,ACPT_experiment_5_30_19,3.1.0,59.94575081201383,
,,,C,U,g,n,R,G,d,L,i,,,,,5,19,119,16,1,0,1,0,,,,,1,24,60,4,,,,,,up,0.7005317536882103,2991.2377134591397,None,001,9,2019_Jun_06_1050,ACPT_experiment_5_30_19,3.1.0,59.94575081201383,
,,,C,U,g,n,L,D,d,L,c ,,,,,5,19,119,16,1,0,1,0,,,,,1,25,61,12,,,,,,up,0.7338976676010134,2993.2225574527015,None,001,9,2019_Jun_06_1050,ACPT_experiment_5_30_19,3.1.0,59.94575081201383,
,,,C,U,g,n,L,D,y,R,y,,,,,5,19,119,16,1,0,1,0,,,,,1,26,62,33,,,,,,down,0.7339154772439542,2995.2240842522906,None,001,9,2019_Jun_06_1050,ACPT_experiment_5_30_19,3.1.0,59.94575081201383,
,,,C,U,g,n,L,U,d,R,u,,,,,5,19,119,16,1,0,1,0,,,,,1,27,63,21,,,,,,up,2.0515957440384227,2997.2423237418843,None,001,9,2019_Jun_06_1050,ACPT_experiment_5_30_19,3.1.0,59.94575081201383,
,,,C,U,g,n,R,U,g,L,u,,,,,5,19,119,16,1,0,1,0,,,,,1,28,64,10,,,,,,down,0.9507240374641697,3000.5782323295134,None,001,9,2019_Jun_06_1050,ACPT_experiment_5_30_19,3.1.0,59.94575081201383,
,,,C,U,g,n,R,D,y,R,y,,,,,5,19,119,16,1,0,1,0,,,,,1,29,65,27,,,,,,down,0.8840106229990852,3002.813295472245,None,001,9,2019_Jun_06_1050,ACPT_experiment_5_30_19,3.1.0,59.94575081201383,
,,,C,U,g,n,L,U,y,L,u,,,,,5,19,119,16,1,0,1,0,,,,,1,30,66,24,,,,,,down,0.7005248109462627,3004.9983108006127,None,001,9,2019_Jun_06_1050,ACPT_experiment_5_30_19,3.1.0,59.94575081201383,
,,,C,U,g,n,R,G,y,R,y,,,,,5,19,119,16,1,0,1,0,,,,,1,31,67,29,,,,,,down,0.717215163432229,3006.999843939227,None,001,9,2019_Jun_06_1050,ACPT_experiment_5_30_19,3.1.0,59.94575081201383,
,,,C,U,g,n,L,G,d,R,i,,,,,5,19,119,16,1,0,1,0,,,,,1,32,68,17,,,,,,up,0.7337832632820209,3009.0013876428843,None,001,9,2019_Jun_06_1050,ACPT_experiment_5_30_19,3.1.0,59.94575081201383,
,,,C,U,g,n,L,G,g,L,c ,,,,,5,19,119,16,1,0,1,0,,,,,1,33,69,18,,,,,,up,0.9173756313371086,3011.019605096818,None,001,9,2019_Jun_06_1050,ACPT_experiment_5_30_19,3.1.0,59.94575081201383,
,,,C,U,g,n,R,U,d,R,u,,,,,5,19,119,16,1,0,1,0,,,,,1,34,70,9,,,,,,up,0.9007027866355202,3013.221310173955,None,001,9,2019_Jun_06_1050,ACPT_experiment_5_30_19,3.1.0,59.94575081201383,
,,,C,U,g,n,R,G,d,R,i,,,,,5,19,119,16,1,0,1,0,,,,,1,35,71,5,,,,,,up,0.7003624111480349,3015.4064562069925,None,001,9,2019_Jun_06_1050,ACPT_experiment_5_30_19,3.1.0,59.94575081201383,
,,,C,U,g,n,,,,,,,,,,5,19,119,16,2,0,2,0,0,0,0,0,,,,,,,,,,,,,,001,9,2019_Jun_06_1050,ACPT_experiment_5_30_19,3.1.0,59.94575081201383,
,,,C,U,g,n,R,D,g,R,i,,,,,5,19,119,16,2,0,2,0,,,,,0,0,0,3,,,,,,up,0.7172000705140817,3063.843670875377,None,001,9,2019_Jun_06_1050,ACPT_experiment_5_30_19,3.1.0,59.94575081201383,
,,,C,U,g,n,R,G,d,R,i,,,,,5,19,119,16,2,0,2,0,,,,,0,1,1,5,,,,,,up,0.7839297853302014,3065.8452034102747,None,001,9,2019_Jun_06_1050,ACPT_experiment_5_30_19,3.1.0,59.94575081201383,
,,,C,U,g,n,L,D,d,R,c ,,,,,5,19,119,16,2,0,2,0,,,,,0,2,2,13,,,,,,up,0.6004590661950715,3067.9134629432638,None,001,9,2019_Jun_06_1050,ACPT_experiment_5_30_19,3.1.0,59.94575081201383,
,,,C,U,g,n,L,U,d,L,u,,,,,5,19,119,16,2,0,2,0,,,,,0,3,3,20,,,,,,up,0.6838625312875592,3069.798245418092,None,001,9,2019_Jun_06_1050,ACPT_experiment_5_30_19,3.1.0,59.94575081201383,
,,,C,U,g,n,R,G,d,L,i,,,,,5,19,119,16,2,0,2,0,,,,,0,4,4,4,,,,,,up,0.7005447335982353,3071.76642622642,None,001,9,2019_Jun_06_1050,ACPT_experiment_5_30_19,3.1.0,59.94575081201383,
,,,C,U,g,n,R,G,y,R,y,,,,,5,19,119,16,2,0,2,0,,,,,0,5,5,29,,,,,,down,0.6836762846792226,3073.7514395625226,None,001,9,2019_Jun_06_1050,ACPT_experiment_5_30_19,3.1.0,59.94575081201383,
,,,C,U,g,n,L,G,y,L,y,,,,,5,19,119,16,2,0,2,0,,,,,0,6,6,34,,,,,,down,0.8172944918092071,3075.7361540588477,None,001,9,2019_Jun_06_1050,ACPT_experiment_5_30_19,3.1.0,59.94575081201383,
,,,C,U,g,n,R,D,g,L,i,,,,,5,19,119,16,2,0,2,0,,,,,0,7,7,2,,,,,,up,1.1508799774933323,3077.837783731766,None,001,9,2019_Jun_06_1050,ACPT_experiment_5_30_19,3.1.0,59.94575081201383,
,,,C,U,g,n,R,U,g,L,u,,,,,5,19,119,16,2,0,2,0,,,,,0,8,8,10,,,,,,up,0.6838776242057065,3080.272985910459,None,001,9,2019_Jun_06_1050,ACPT_experiment_5_30_19,3.1.0,59.94575081201383,
,,,C,U,g,n,L,D,y,R,y,,,,,5,19,119,16,2,0,2,0,,,,,0,9,9,33,,,,,,down,0.6836168185818678,3082.258084974336,None,001,9,2019_Jun_06_1050,ACPT_experiment_5_30_19,3.1.0,59.94575081201383,
,,,C,U,g,n,L,D,d,L,c ,,,,,5,19,119,16,2,0,2,0,,,,,0,10,10,12,,,,,,up,0.7505792661941086,3084.226031540576,None,001,9,2019_Jun_06_1050,ACPT_experiment_5_30_19,3.1.0,59.94575081201383,
,,,C,U,g,n,R,G,g,R,c ,,,,,5,19,119,16,2,0,2,0,,,,,0,11,11,7,,,,,,down,0.6839026784496127,3086.2609348191204,None,001,9,2019_Jun_06_1050,ACPT_experiment_5_30_19,3.1.0,59.94575081201383,
,,,C,U,g,n,L,G,d,L,i,,,,,5,19,119,16,2,0,2,0,,,,,0,12,12,16,,,,,,up,0.5838124831711866,3088.2291195516073,None,001,9,2019_Jun_06_1050,ACPT_experiment_5_30_19,3.1.0,59.94575081201383,
,,,C,U,g,n,L,U,y,L,u,,,,,5,19,119,16,2,0,2,0,,,,,0,13,13,24,,,,,,down,0.733892234150062,3090.1305809083037,None,001,9,2019_Jun_06_1050,ACPT_experiment_5_30_19,3.1.0,59.94575081201383,
,,,C,U,g,n,R,D,d,L,c,,,,,5,19,119,16,2,0,2,0,,,,,0,14,14,0,,,,,,up,1.3844024351519693,3092.1655083355167,None,001,9,2019_Jun_06_1050,ACPT_experiment_5_30_19,3.1.0,59.94575081201383,
,,,C,U,g,n,L,U,y,R,u,,,,,5,19,119,16,2,0,2,0,,,,,0,15,15,25,,,,,,down,0.6004602736284141,3094.850885893917,None,001,9,2019_Jun_06_1050,ACPT_experiment_5_30_19,3.1.0,59.94575081201383,
,,,C,U,g,n,L,G,g,L,c ,,,,,5,19,119,16,2,0,2,0,,,,,0,16,16,18,,,,,,down,0.8339815238537085,3096.752352684064,None,001,9,2019_Jun_06_1050,ACPT_experiment_5_30_19,3.1.0,59.94575081201383,
,,,C,U,g,n,L,U,g,R,u,,,,,5,19,119,16,2,0,2,0,,,,,0,17,17,23,,,,,,down,0.5671058303337304,3098.8539742068065,None,001,9,2019_Jun_06_1050,ACPT_experiment_5_30_19,3.1.0,59.94575081201383,
,,,C,U,g,n,L,G,y,R,y,,,,,5,19,119,16,2,0,2,0,,,,,0,18,18,35,,,,,,down,0.6504984285256796,3100.705403747632,None,001,9,2019_Jun_06_1050,ACPT_experiment_5_30_19,3.1.0,59.94575081201383,
,,,C,U,g,n,R,U,y,R,u,,,,,5,19,119,16,2,0,2,0,,,,,0,19,19,31,,,,,,down,0.5838019181287564,3102.640219849481,None,001,9,2019_Jun_06_1050,ACPT_experiment_5_30_19,3.1.0,59.94575081201383,
,,,C,U,g,n,L,D,y,L,y,,,,,5,19,119,16,2,0,2,0,,,,,0,20,20,32,,,,,,down,0.5837883345025148,3104.4916578423404,None,001,9,2019_Jun_06_1050,ACPT_experiment_5_30_19,3.1.0,59.94575081201383,
,,,C,U,g,n,L,D,g,R,i,,,,,5,19,119,16,2,0,2,0,,,,,0,21,21,15,,,,,,down,0.6672032702126671,3106.359759020433,None,001,9,2019_Jun_06_1050,ACPT_experiment_5_30_19,3.1.0,59.94575081201383,
,,,C,U,g,n,L,G,d,R,i,,,,,5,19,119,16,2,0,2,0,,,,,0,22,22,17,,,,,,up,0.6168705015556952,3108.3282151235867,None,001,9,2019_Jun_06_1050,ACPT_experiment_5_30_19,3.1.0,59.94575081201383,
,,,C,U,g,n,R,D,d,R,c ,,,,,5,19,119,16,2,0,2,0,,,,,0,23,23,1,,,,,,up,0.6503728554471309,3110.229540040304,None,001,9,2019_Jun_06_1050,ACPT_experiment_5_30_19,3.1.0,59.94575081201383,
,,,C,U,g,n,R,D,y,L,y,,,,,5,19,119,16,2,0,2,0,,,,,0,24,24,26,,,,,,down,0.8006131950742201,3112.1642384173924,None,001,9,2019_Jun_06_1050,ACPT_experiment_5_30_19,3.1.0,59.94575081201383,
,,,C,U,g,n,R,U,d,L,u,,,,,5,19,119,16,2,0,2,0,,,,,0,25,25,8,,,,,,up,0.6671791215439953,3114.249171700658,None,001,9,2019_Jun_06_1050,ACPT_experiment_5_30_19,3.1.0,59.94575081201383,
,,,C,U,g,n,L,D,g,L,i,,,,,5,19,119,16,2,0,2,0,,,,,0,26,26,14,,,,,,up,0.7172332749337329,3116.200677853135,None,001,9,2019_Jun_06_1050,ACPT_experiment_5_30_19,3.1.0,59.94575081201383,
,,,C,U,g,n,R,U,g,R,u,,,,,5,19,119,16,2,0,2,0,,,,,0,27,27,11,,,,,,up,0.8673302318393326,3118.2022212549336,None,001,9,2019_Jun_06_1050,ACPT_experiment_5_30_19,3.1.0,59.94575081201383,
,,,C,U,g,n,L,U,d,R,u,,,,,5,19,119,16,2,0,2,0,,,,,0,28,28,21,,,,,,up,4.186562352466808,3120.3538779139894,None,001,9,2019_Jun_06_1050,ACPT_experiment_5_30_19,3.1.0,59.94575081201383,
,,,C,U,g,n,R,D,y,R,y,,,,,5,19,119,16,2,0,2,0,,,,,0,29,29,27,,,,,,down,0.6004654052208025,3125.824760958364,None,001,9,2019_Jun_06_1050,ACPT_experiment_5_30_19,3.1.0,59.94575081201383,
,,,C,U,g,n,R,U,d,R,u,,,,,5,19,119,16,2,0,2,0,,,,,0,30,30,9,,,,,,up,0.767259657354316,3127.709549470359,None,001,9,2019_Jun_06_1050,ACPT_experiment_5_30_19,3.1.0,59.94575081201383,
,,,C,U,g,n,R,U,y,L,u,,,,,5,19,119,16,2,0,2,0,,,,,0,31,31,30,,,,,,down,0.7838295683545766,3129.761123782454,None,001,9,2019_Jun_06_1050,ACPT_experiment_5_30_19,3.1.0,59.94575081201383,
,,,C,U,g,n,L,G,g,R,c ,,,,,5,19,119,16,2,0,2,0,,,,,0,32,32,19,,,,,,up,0.8673613232504067,3131.829389956327,None,001,9,2019_Jun_06_1050,ACPT_experiment_5_30_19,3.1.0,59.94575081201383,
,,,C,U,g,n,L,U,g,L,u,,,,,5,19,119,16,2,0,2,0,,,,,0,33,33,22,,,,,,down,0.8005920649889049,3133.9810650287427,None,001,9,2019_Jun_06_1050,ACPT_experiment_5_30_19,3.1.0,59.94575081201383,
,,,C,U,g,n,R,G,g,L,c ,,,,,5,19,119,16,2,0,2,0,,,,,0,34,34,6,,,,,,up,1.2009169249568004,3136.0660028398834,None,001,9,2019_Jun_06_1050,ACPT_experiment_5_30_19,3.1.0,59.94575081201383,
,,,C,U,g,n,R,G,y,L,y,,,,,5,19,119,16,2,0,2,0,,,,,0,35,35,28,,,,,,down,0.6672666604681581,3138.5345374262106,None,001,9,2019_Jun_06_1050,ACPT_experiment_5_30_19,3.1.0,59.94575081201383,
,,,C,U,g,n,R,G,d,R,i,,,,,5,19,119,16,2,0,2,0,,,,,1,0,36,5,,,,,,up,0.7339157791025173,3140.469361980094,None,001,9,2019_Jun_06_1050,ACPT_experiment_5_30_19,3.1.0,59.94575081201383,
,,,C,U,g,n,L,D,y,L,y,,,,,5,19,119,16,2,0,2,0,,,,,1,1,37,32,,,,,,down,0.8171118675013531,3142.521132801982,None,001,9,2019_Jun_06_1050,ACPT_experiment_5_30_19,3.1.0,59.94575081201383,
,,,C,U,g,n,L,G,d,R,i,,,,,5,19,119,16,2,0,2,0,,,,,1,2,38,17,,,,,,up,0.6338298098412452,3144.6559433496377,None,001,9,2019_Jun_06_1050,ACPT_experiment_5_30_19,3.1.0,59.94575081201383,
,,,C,U,g,n,L,D,d,R,c ,,,,,5,19,119,16,2,0,2,0,,,,,1,3,39,13,,,,,,up,0.700535375988693,3146.574085097494,None,001,9,2019_Jun_06_1050,ACPT_experiment_5_30_19,3.1.0,59.94575081201383,
,,,C,U,g,n,L,G,y,L,y,,,,,5,19,119,16,2,0,2,0,,,,,1,4,40,34,,,,,,down,0.6171451926643385,3148.5589444858324,None,001,9,2019_Jun_06_1050,ACPT_experiment_5_30_19,3.1.0,59.94575081201383,
,,,C,U,g,n,L,D,d,L,c ,,,,,5,19,119,16,2,0,2,0,,,,,1,5,41,12,,,,,,up,1.2843062027063752,3150.4771058544825,None,001,9,2019_Jun_06_1050,ACPT_experiment_5_30_19,3.1.0,59.94575081201383,
,,,C,U,g,n,R,U,y,R,u,,,,,5,19,119,16,2,0,2,0,,,,,1,6,42,31,,,,,,down,0.6171331183295479,3153.079098964867,None,001,9,2019_Jun_06_1050,ACPT_experiment_5_30_19,3.1.0,59.94575081201383,
,,,C,U,g,n,L,U,d,L,u,,,,,5,19,119,16,2,0,2,0,,,,,1,7,43,20,,,,,,up,0.7505720215940528,3154.997245542457,None,001,9,2019_Jun_06_1050,ACPT_experiment_5_30_19,3.1.0,59.94575081201383,
,,,C,U,g,n,L,G,g,R,c ,,,,,5,19,119,16,2,0,2,0,,,,,1,8,44,19,,,,,,up,0.7839382373645094,3157.032145198701,None,001,9,2019_Jun_06_1050,ACPT_experiment_5_30_19,3.1.0,59.94575081201383,
,,,C,U,g,n,R,G,g,R,c ,,,,,5,19,119,16,2,0,2,0,,,,,1,9,45,7,,,,,,down,0.7839548395745624,3159.100403826115,None,001,9,2019_Jun_06_1050,ACPT_experiment_5_30_19,3.1.0,59.94575081201383,
,,,C,U,g,n,R,D,g,R,i,,,,,5,19,119,16,2,0,2,0,,,,,1,10,46,3,,,,,,up,0.9507346025065999,3161.168665170254,None,001,9,2019_Jun_06_1050,ACPT_experiment_5_30_19,3.1.0,59.94575081201383,
,,,C,U,g,n,L,G,y,R,y,,,,,5,19,119,16,2,0,2,0,,,,,1,11,47,35,,,,,,down,1.0007706443948337,3163.403723483252,None,001,9,2019_Jun_06_1050,ACPT_experiment_5_30_19,3.1.0,59.94575081201383,
,,,C,U,g,n,R,G,y,L,y,,,,,5,19,119,16,2,0,2,0,,,,,1,12,48,28,,,,,,down,0.8673311374145669,3165.6888163288468,None,001,9,2019_Jun_06_1050,ACPT_experiment_5_30_19,3.1.0,59.94575081201383,
,,,C,U,g,n,R,D,d,R,c ,,,,,5,19,119,16,2,0,2,0,,,,,1,13,49,1,,,,,,up,0.8006207415332938,3167.8404732897607,None,001,9,2019_Jun_06_1050,ACPT_experiment_5_30_19,3.1.0,59.94575081201383,
,,,C,U,g,n,L,U,d,R,u,,,,,5,19,119,16,2,0,2,0,,,,,1,14,50,21,,,,,,up,0.6171536446981918,3169.9087267855825,None,001,9,2019_Jun_06_1050,ACPT_experiment_5_30_19,3.1.0,59.94575081201383,
,,,C,U,g,n,R,D,d,L,c,,,,,5,19,119,16,2,0,2,0,,,,,1,15,51,0,,,,,,up,0.6004590661950715,3171.793523145895,None,001,9,2019_Jun_06_1050,ACPT_experiment_5_30_19,3.1.0,59.94575081201383,
,,,C,U,g,n,L,D,g,L,i,,,,,5,19,119,16,2,0,2,0,,,,,1,16,52,14,,,,,,up,0.7505608528344965,3173.6783192043495,None,001,9,2019_Jun_06_1050,ACPT_experiment_5_30_19,3.1.0,59.94575081201383,
,,,C,U,g,n,L,G,d,L,i,,,,,5,19,119,16,2,0,2,0,,,,,1,17,53,16,,,,,,up,0.6171796045173323,3175.7132125215676,None,001,9,2019_Jun_06_1050,ACPT_experiment_5_30_19,3.1.0,59.94575081201383,
,,,C,U,g,n,L,U,y,L,u,,,,,5,19,119,16,2,0,2,0,,,,,1,18,54,24,,,,,,down,0.6671748955263865,3177.614677500564,None,001,9,2019_Jun_06_1050,ACPT_experiment_5_30_19,3.1.0,59.94575081201383,
,,,C,U,g,n,L,U,g,R,u,,,,,5,19,119,16,2,0,2,0,,,,,1,19,55,23,,,,,,up,0.6671999497707475,3179.566180030741,None,001,9,2019_Jun_06_1050,ACPT_experiment_5_30_19,3.1.0,59.94575081201383,
,,,C,U,g,n,R,G,y,R,y,,,,,5,19,119,16,2,0,2,0,,,,,1,20,56,29,,,,,,down,0.667174593668733,3181.5176858813597,None,001,9,2019_Jun_06_1050,ACPT_experiment_5_30_19,3.1.0,59.94575081201383,
,,,C,U,g,n,R,G,g,L,c ,,,,,5,19,119,16,2,0,2,0,,,,,1,21,57,6,,,,,,up,1.0672154049188975,3183.469457367336,None,001,9,2019_Jun_06_1050,ACPT_experiment_5_30_19,3.1.0,59.94575081201383,
,,,C,U,g,n,L,U,g,L,u,,,,,5,19,119,16,2,0,2,0,,,,,1,22,58,22,,,,,,up,1.4010520367592108,3185.821024555574,None,001,9,2019_Jun_06_1050,ACPT_experiment_5_30_19,3.1.0,59.94575081201383,
,,,C,U,g,n,R,G,d,L,i,,,,,5,19,119,16,2,0,2,0,,,,,1,23,59,4,,,,,,up,0.5003809452514361,3188.5064039251242,None,001,9,2019_Jun_06_1050,ACPT_experiment_5_30_19,3.1.0,59.94575081201383,
,,,C,U,g,n,R,U,g,R,u,,,,,5,19,119,16,2,0,2,0,,,,,1,24,60,11,,,,,,up,0.6171412685052928,3190.2911103920173,None,001,9,2019_Jun_06_1050,ACPT_experiment_5_30_19,3.1.0,59.94575081201383,
,,,C,U,g,n,R,U,g,L,u,,,,,5,19,119,16,2,0,2,0,,,,,1,25,61,10,,,,,,down,0.7839611785998386,3192.1758762646355,None,001,9,2019_Jun_06_1050,ACPT_experiment_5_30_19,3.1.0,59.94575081201383,
,,,C,U,g,n,R,D,y,L,y,,,,,5,19,119,16,2,0,2,0,,,,,1,26,62,26,,,,,,down,0.7839240500215965,3194.260842450462,None,001,9,2019_Jun_06_1050,ACPT_experiment_5_30_19,3.1.0,59.94575081201383,
,,,C,U,g,n,L,U,y,R,u,,,,,5,19,119,16,2,0,2,0,,,,,1,27,63,25,,,,,,down,0.5504239298820721,3196.345780261602,None,001,9,2019_Jun_06_1050,ACPT_experiment_5_30_19,3.1.0,59.94575081201383,
,,,C,U,g,n,R,U,d,R,u,,,,,5,19,119,16,2,0,2,0,,,,,1,28,64,9,,,,,,up,0.8006110820656431,3198.180529109409,None,001,9,2019_Jun_06_1050,ACPT_experiment_5_30_19,3.1.0,59.94575081201383,
,,,C,U,g,n,L,D,g,R,i,,,,,5,19,119,16,2,0,2,0,,,,,1,29,65,15,,,,,,up,0.683847740227975,3200.265473259575,None,001,9,2019_Jun_06_1050,ACPT_experiment_5_30_19,3.1.0,59.94575081201383,
,,,C,U,g,n,R,U,d,L,u,,,,,5,19,119,16,2,0,2,0,,,,,1,30,66,8,,,,,,up,0.7005329611215529,3202.2336489363115,None,001,9,2019_Jun_06_1050,ACPT_experiment_5_30_19,3.1.0,59.94575081201383,
,,,C,U,g,n,R,D,g,L,i,,,,,5,19,119,16,2,0,2,0,,,,,1,31,67,2,,,,,,up,0.6338126039145209,3204.218515267392,None,001,9,2019_Jun_06_1050,ACPT_experiment_5_30_19,3.1.0,59.94575081201383,
,,,C,U,g,n,L,G,g,L,c ,,,,,5,19,119,16,2,0,2,0,,,,,1,32,68,18,,,,,,down,0.7505798699112347,3206.1366494687895,None,001,9,2019_Jun_06_1050,ACPT_experiment_5_30_19,3.1.0,59.94575081201383,
,,,C,U,g,n,L,D,y,R,y,,,,,5,19,119,16,2,0,2,0,,,,,1,33,69,33,,,,,,down,0.7672493941704488,3208.1715593882172,None,001,9,2019_Jun_06_1050,ACPT_experiment_5_30_19,3.1.0,59.94575081201383,
,,,C,U,g,n,R,U,y,L,u,,,,,5,19,119,16,2,0,2,0,,,,,1,34,70,30,,,,,,down,0.8837359318913514,3210.2734489611844,None,001,9,2019_Jun_06_1050,ACPT_experiment_5_30_19,3.1.0,59.94575081201383,
,,,C,U,g,n,R,D,y,R,y,,,,,5,19,119,16,2,0,2,0,,,,,1,35,71,27,,,,,,down,0.517187815064517,3212.4581944281776,None,001,9,2019_Jun_06_1050,ACPT_experiment_5_30_19,3.1.0,59.94575081201383,
,,,C,U,g,n,,,,,,,,,,5,19,119,16,3,0,3,0,0,0,0,0,,,,,,,,,,,,,,001,9,2019_Jun_06_1050,ACPT_experiment_5_30_19,3.1.0,59.94575081201383,
,,,C,U,g,n,R,D,g,R,i,,,,,5,19,119,16,3,0,3,0,,,,,0,0,0,3,,,,,,up,0.7639718160885423,3217.9157356348624,None,001,9,2019_Jun_06_1050,ACPT_experiment_5_30_19,3.1.0,59.94575081201383,
,,,C,U,g,n,R,D,y,L,y,,,,,5,19,119,16,3,0,3,0,,,,,0,1,1,26,,,,,,down,0.8004984888971194,3219.9639807510957,None,001,9,2019_Jun_06_1050,ACPT_experiment_5_30_19,3.1.0,59.94575081201383,
,,,C,U,g,n,L,D,g,R,i,,,,,5,19,119,16,3,0,3,0,,,,,0,2,2,15,,,,,,up,1.200925980707325,3222.0489218826783,None,001,9,2019_Jun_06_1050,ACPT_experiment_5_30_19,3.1.0,59.94575081201383,
,,,C,U,g,n,R,G,y,L,y,,,,,5,19,119,16,3,0,3,0,,,,,0,3,3,28,,,,,,down,0.7339203069777795,3224.5341459159167,None,001,9,2019_Jun_06_1050,ACPT_experiment_5_30_19,3.1.0,59.94575081201383,
,,,C,U,g,n,L,G,y,L,y,,,,,5,19,119,16,3,0,3,0,,,,,0,4,4,34,,,,,,down,1.2843261253583478,3226.5523887259524,None,001,9,2019_Jun_06_1050,ACPT_experiment_5_30_19,3.1.0,59.94575081201383,
,,,C,U,g,n,L,G,g,R,c ,,,,,5,19,119,16,3,0,3,0,,,,,0,5,5,19,,,,,,up,0.5504142704144215,3229.1210376562267,None,001,9,2019_Jun_06_1050,ACPT_experiment_5_30_19,3.1.0,59.94575081201383,
,,,C,U,g,n,R,G,y,R,y,,,,,5,19,119,16,3,0,3,0,,,,,0,6,6,29,,,,,,down,0.5504194020063551,3230.9557859003166,None,001,9,2019_Jun_06_1050,ACPT_experiment_5_30_19,3.1.0,59.94575081201383,
,,,C,U,g,n,R,U,d,R,u,,,,,5,19,119,16,3,0,3,0,,,,,0,7,7,9,,,,,,up,1.2009235658406396,3232.790531125823,None,001,9,2019_Jun_06_1050,ACPT_experiment_5_30_19,3.1.0,59.94575081201383,
,,,C,U,g,n,R,D,g,L,i,,,,,5,19,119,16,3,0,3,0,,,,,0,8,8,2,,,,,,up,0.7005365834224904,3235.27578111888,None,001,9,2019_Jun_06_1050,ACPT_experiment_5_30_19,3.1.0,59.94575081201383,
,,,C,U,g,n,R,U,g,R,u,,,,,5,19,119,16,3,0,3,0,,,,,0,9,9,11,,,,,,down,0.6004599717703059,3237.2606447332355,None,001,9,2019_Jun_06_1050,ACPT_experiment_5_30_19,3.1.0,59.94575081201383,
,,,C,U,g,n,L,G,d,R,i,,,,,5,19,119,16,3,0,3,0,,,,,0,10,10,17,,,,,,up,0.5837723360091331,3239.1454320377975,None,001,9,2019_Jun_06_1050,ACPT_experiment_5_30_19,3.1.0,59.94575081201383,
,,,C,U,g,n,R,U,g,L,u,,,,,5,19,119,16,3,0,3,0,,,,,0,11,11,10,,,,,,up,0.8839873799056477,3241.013581513228,None,001,9,2019_Jun_06_1050,ACPT_experiment_5_30_19,3.1.0,59.94575081201383,
,,,C,U,g,n,L,U,g,L,u,,,,,5,19,119,16,3,0,3,0,,,,,0,12,12,22,,,,,,up,0.6171403629305132,3243.1651910823794,None,001,9,2019_Jun_06_1050,ACPT_experiment_5_30_19,3.1.0,59.94575081201383,
,,,C,U,g,n,R,G,d,R,i,,,,,5,19,119,16,3,0,3,0,,,,,0,13,13,5,,,,,,up,0.6338201503735945,3245.0666590799597,None,001,9,2019_Jun_06_1050,ACPT_experiment_5_30_19,3.1.0,59.94575081201383,
,,,C,U,g,n,L,G,d,L,i,,,,,5,19,119,16,3,0,3,0,,,,,0,14,14,16,,,,,,up,0.8506625187301324,3246.9848029408245,None,001,9,2019_Jun_06_1050,ACPT_experiment_5_30_19,3.1.0,59.94575081201383,
,,,C,U,g,n,R,G,g,R,c ,,,,,5,19,119,16,3,0,3,0,,,,,0,15,15,7,,,,,,up,0.6671718769430299,3249.1197870570377,None,001,9,2019_Jun_06_1050,ACPT_experiment_5_30_19,3.1.0,59.94575081201383,
,,,C,U,g,n,R,U,d,L,u,,,,,5,19,119,16,3,0,3,0,,,,,0,16,16,8,,,,,,up,0.5669150558496767,3251.071439912678,None,001,9,2019_Jun_06_1050,ACPT_experiment_5_30_19,3.1.0,59.94575081201383,
,,,C,U,g,n,L,U,d,R,u,,,,,5,19,119,16,3,0,3,0,,,,,0,17,17,21,,,,,,up,0.517060128977846,3252.922712487156,None,001,9,2019_Jun_06_1050,ACPT_experiment_5_30_19,3.1.0,59.94575081201383,
,,,C,U,g,n,R,D,y,R,y,,,,,5,19,119,16,3,0,3,0,,,,,0,18,18,27,,,,,,down,0.7305678680227174,3254.74411074338,None,001,9,2019_Jun_06_1050,ACPT_experiment_5_30_19,3.1.0,59.94575081201383,
,,,C,U,g,n,L,D,d,L,c ,,,,,5,19,119,16,3,0,3,0,,,,,0,19,19,12,,,,,,up,0.7172049002474523,3256.7590122832203,None,001,9,2019_Jun_06_1050,ACPT_experiment_5_30_19,3.1.0,59.94575081201383,
,,,C,U,g,n,L,D,y,L,y,,,,,5,19,119,16,3,0,3,0,,,,,0,20,20,32,,,,,,down,0.7505856052202944,3258.7605442144013,None,001,9,2019_Jun_06_1050,ACPT_experiment_5_30_19,3.1.0,59.94575081201383,
,,,C,U,g,n,L,U,g,R,u,,,,,5,19,119,16,3,0,3,0,,,,,0,21,21,23,,,,,,up,0.6671748955268413,3260.795446285512,None,001,9,2019_Jun_06_1050,ACPT_experiment_5_30_19,3.1.0,59.94575081201383,
,,,C,U,g,n,R,U,y,L,u,,,,,5,19,119,16,3,0,3,0,,,,,0,22,22,30,,,,,,down,0.8172996234015955,3262.7469500231223,None,001,9,2019_Jun_06_1050,ACPT_experiment_5_30_19,3.1.0,59.94575081201383,
,,,C,U,g,n,L,D,y,R,y,,,,,5,19,119,16,3,0,3,0,,,,,0,23,23,33,,,,,,down,0.6671706695096873,3264.8652510314496,None,001,9,2019_Jun_06_1050,ACPT_experiment_5_30_19,3.1.0,59.94575081201383,
,,,C,U,g,n,R,G,g,L,c ,,,,,5,19,119,16,3,0,3,0,,,,,0,24,24,6,,,,,,up,0.6838423067774784,3266.833446630838,None,001,9,2019_Jun_06_1050,ACPT_experiment_5_30_19,3.1.0,59.94575081201383,
,,,C,U,g,n,R,G,d,L,i,,,,,5,19,119,16,3,0,3,0,,,,,0,25,25,4,,,,,,up,0.5838046348540047,3268.784915654737,None,001,9,2019_Jun_06_1050,ACPT_experiment_5_30_19,3.1.0,59.94575081201383,
,,,C,U,g,n,R,D,d,L,c,,,,,5,19,119,16,3,0,3,0,,,,,0,26,26,0,,,,,,up,0.4670240870896123,3270.6363624014884,None,001,9,2019_Jun_06_1050,ACPT_experiment_5_30_19,3.1.0,59.94575081201383,
,,,C,U,g,n,L,U,y,L,u,,,,,5,19,119,16,3,0,3,0,,,,,0,27,27,24,,,,,,down,0.5837738453014936,3272.4043954199633,None,001,9,2019_Jun_06_1050,ACPT_experiment_5_30_19,3.1.0,59.94575081201383,
,,,C,U,g,n,L,D,d,R,c ,,,,,5,19,119,16,3,0,3,0,,,,,0,28,28,13,,,,,,up,0.7005223960791227,3274.3058700584274,None,001,9,2019_Jun_06_1050,ACPT_experiment_5_30_19,3.1.0,59.94575081201383,
,,,C,U,g,n,R,D,d,R,c ,,,,,5,19,119,16,3,0,3,0,,,,,0,29,29,1,,,,,,up,0.4503624111480349,3276.27402068092,None,001,9,2019_Jun_06_1050,ACPT_experiment_5_30_19,3.1.0,59.94575081201383,
,,,C,U,g,n,L,U,y,R,u,,,,,5,19,119,16,3,0,3,0,,,,,0,30,30,25,,,,,,down,0.5170426211930135,3278.0087294419363,None,001,9,2019_Jun_06_1050,ACPT_experiment_5_30_19,3.1.0,59.94575081201383,
,,,C,U,g,n,L,D,g,L,i,,,,,5,19,119,16,3,0,3,0,,,,,0,31,31,14,,,,,,up,0.6338035481639963,3279.8101166018473,None,001,9,2019_Jun_06_1050,ACPT_experiment_5_30_19,3.1.0,59.94575081201383,
,,,C,U,g,n,R,U,y,R,u,,,,,5,19,119,16,3,0,3,0,,,,,0,32,32,31,,,,,,down,0.6338008314382932,3281.778311899377,None,001,9,2019_Jun_06_1050,ACPT_experiment_5_30_19,3.1.0,59.94575081201383,
,,,C,U,g,n,L,U,d,L,u,,,,,5,19,119,16,3,0,3,0,,,,,0,33,33,20,,,,,,up,3.0356567170124436,3283.7131240770677,None,001,9,2019_Jun_06_1050,ACPT_experiment_5_30_19,3.1.0,59.94575081201383,
,,,C,U,g,n,L,G,g,L,c ,,,,,5,19,119,16,3,0,3,0,,,,,0,34,34,18,,,,,,up,3.119090066082663,3288.0331032971385,None,001,9,2019_Jun_06_1050,ACPT_experiment_5_30_19,3.1.0,59.94575081201383,
,,,C,U,g,n,L,G,y,R,y,,,,,5,19,119,16,3,0,3,0,,,,,0,35,35,35,,,,,,down,1.0174836362584756,3292.419807100433,None,001,9,2019_Jun_06_1050,ACPT_experiment_5_30_19,3.1.0,59.94575081201383,
,,,C,U,g,n,R,G,y,R,y,,,,,5,19,119,16,3,0,3,0,,,,,1,0,36,29,,,,,,down,0.5670961708665345,3294.721594826389,None,001,9,2019_Jun_06_1050,ACPT_experiment_5_30_19,3.1.0,59.94575081201383,
,,,C,U,g,n,R,G,d,R,i,,,,,5,19,119,16,3,0,3,0,,,,,1,1,37,5,,,,,,up,0.5504251373154148,3296.573018330047,None,001,9,2019_Jun_06_1050,ACPT_experiment_5_30_19,3.1.0,59.94575081201383,
,,,C,U,g,n,R,D,g,L,i,,,,,5,19,119,16,3,0,3,0,,,,,1,2,38,2,,,,,,up,0.9674116732253424,3298.4077704982956,None,001,9,2019_Jun_06_1050,ACPT_experiment_5_30_19,3.1.0,59.94575081201383,
,,,C,U,g,n,R,D,d,L,c,,,,,5,19,119,16,3,0,3,0,,,,,1,3,39,0,,,,,,up,1.5011917368083232,3300.6428001347495,None,001,9,2019_Jun_06_1050,ACPT_experiment_5_30_19,3.1.0,59.94575081201383,
,,,C,U,g,n,R,U,g,R,u,,,,,5,19,119,16,3,0,3,0,,,,,1,4,40,11,,,,,,up,1.5145015775119646,3303.4483176226117,None,001,9,2019_Jun_06_1050,ACPT_experiment_5_30_19,3.1.0,59.94575081201383,
,,,C,U,g,n,L,U,y,R,u,,,,,5,19,119,16,3,0,3,0,,,,,1,5,41,25,,,,,,down,0.6172846512267824,3306.2471407976063,None,001,9,2019_Jun_06_1050,ACPT_experiment_5_30_19,3.1.0,59.94575081201383,
,,,C,U,g,n,L,G,g,R,c ,,,,,5,19,119,16,3,0,3,0,,,,,1,6,42,19,,,,,,up,0.6004820074304007,3308.1485831372256,None,001,9,2019_Jun_06_1050,ACPT_experiment_5_30_19,3.1.0,59.94575081201383,
,,,C,U,g,n,R,D,d,R,c ,,,,,5,19,119,16,3,0,3,0,,,,,1,7,43,1,,,,,,up,1.3843997184262662,3310.0333906662977,None,001,9,2019_Jun_06_1050,ACPT_experiment_5_30_19,3.1.0,59.94575081201383,
,,,C,U,g,n,L,U,g,L,u,,,,,5,19,119,16,3,0,3,0,,,,,1,8,44,22,,,,,,up,0.8673504563494134,3312.7021159063656,None,001,9,2019_Jun_06_1050,ACPT_experiment_5_30_19,3.1.0,59.94575081201383,
,,,C,U,g,n,R,U,y,R,u,,,,,5,19,119,16,3,0,3,0,,,,,1,9,45,31,,,,,,down,0.5837732415843675,3314.870452352865,None,001,9,2019_Jun_06_1050,ACPT_experiment_5_30_19,3.1.0,59.94575081201383,
,,,C,U,g,n,L,U,g,R,u,,,,,5,19,119,16,3,0,3,0,,,,,1,10,46,23,,,,,,up,0.63381350949021,3316.7552417704355,None,001,9,2019_Jun_06_1050,ACPT_experiment_5_30_19,3.1.0,59.94575081201383,
,,,C,U,g,n,L,G,y,R,y,,,,,5,19,119,16,3,0,3,0,,,,,1,11,47,35,,,,,,down,0.7005305462548677,3318.690063909452,None,001,9,2019_Jun_06_1050,ACPT_experiment_5_30_19,3.1.0,59.94575081201383,
,,,C,U,g,n,R,G,y,L,y,,,,,5,19,119,16,3,0,3,0,,,,,1,12,48,28,,,,,,down,0.7505662862849931,3320.6916121409845,None,001,9,2019_Jun_06_1050,ACPT_experiment_5_30_19,3.1.0,59.94575081201383,
,,,C,U,g,n,R,U,d,R,u,,,,,5,19,119,16,3,0,3,0,,,,,1,13,49,9,,,,,,up,0.5337450480137704,3322.726512400945,None,001,9,2019_Jun_06_1050,ACPT_experiment_5_30_19,3.1.0,59.94575081201383,
,,,C,U,g,n,L,D,d,L,c ,,,,,5,19,119,16,3,0,3,0,,,,,1,14,50,12,,,,,,up,0.8506516518291392,3324.544577235291,None,001,9,2019_Jun_06_1050,ACPT_experiment_5_30_19,3.1.0,59.94575081201383,
,,,C,U,g,n,L,G,y,L,y,,,,,5,19,119,16,3,0,3,0,,,,,1,15,51,34,,,,,,down,0.6338201503740493,3326.679553805045,None,001,9,2019_Jun_06_1050,ACPT_experiment_5_30_19,3.1.0,59.94575081201383,
,,,C,U,g,n,R,U,y,L,u,,,,,5,19,119,16,3,0,3,0,,,,,1,16,52,30,,,,,,down,0.6171560595648771,3328.597678346975,None,001,9,2019_Jun_06_1050,ACPT_experiment_5_30_19,3.1.0,59.94575081201383,
,,,C,U,g,n,L,U,d,L,u,,,,,5,19,119,16,3,0,3,0,,,,,1,17,53,20,,,,,,up,0.6838694740299616,3330.4991656634907,None,001,9,2019_Jun_06_1050,ACPT_experiment_5_30_19,3.1.0,59.94575081201383,
,,,C,U,g,n,L,D,g,R,i,,,,,5,19,119,16,3,0,3,0,,,,,1,18,54,15,,,,,,up,1.0674885867356352,3332.4673494904023,None,001,9,2019_Jun_06_1050,ACPT_experiment_5_30_19,3.1.0,59.94575081201383,
,,,C,U,g,n,R,U,d,L,u,,,,,5,19,119,16,3,0,3,0,,,,,1,19,55,8,,,,,,up,0.5170574122530525,3334.8191642024963,None,001,9,2019_Jun_06_1050,ACPT_experiment_5_30_19,3.1.0,59.94575081201383,
,,,C,U,g,n,R,U,g,L,u,,,,,5,19,119,16,3,0,3,0,,,,,1,20,56,10,,,,,,up,0.68385589040372,3336.6205498531153,None,001,9,2019_Jun_06_1050,ACPT_experiment_5_30_19,3.1.0,59.94575081201383,
,,,C,U,g,n,L,G,d,L,i,,,,,5,19,119,16,3,0,3,0,,,,,1,21,57,16,,,,,,up,0.43358089743696837,3338.5888082390425,None,001,9,2019_Jun_06_1050,ACPT_experiment_5_30_19,3.1.0,59.94575081201383,
,,,C,U,g,n,L,D,y,L,y,,,,,5,19,119,16,3,0,3,0,,,,,1,22,58,32,,,,,,down,0.7172199931660543,3340.3067200915716,None,001,9,2019_Jun_06_1050,ACPT_experiment_5_30_19,3.1.0,59.94575081201383,
,,,C,U,g,n,L,D,y,R,y,,,,,5,19,119,16,3,0,3,0,,,,,1,23,59,33,,,,,,down,0.7667794007024895,3342.3420658944724,None,001,9,2019_Jun_06_1050,ACPT_experiment_5_30_19,3.1.0,59.94575081201383,
,,,C,U,g,n,L,U,d,R,u,,,,,5,19,119,16,3,0,3,0,,,,,1,24,60,21,,,,,,up,0.617121345853775,3344.4265699351486,None,001,9,2019_Jun_06_1050,ACPT_experiment_5_30_19,3.1.0,59.94575081201383,
,,,C,U,g,n,L,G,d,R,i,,,,,5,19,119,16,3,0,3,0,,,,,1,25,61,17,,,,,,up,0.5337362941213541,3346.3447128904386,None,001,9,2019_Jun_06_1050,ACPT_experiment_5_30_19,3.1.0,59.94575081201383,
,,,C,U,g,n,R,D,y,R,y,,,,,5,19,119,16,3,0,3,0,,,,,1,26,62,27,,,,,,down,0.700529338821525,3348.1794572103695,None,001,9,2019_Jun_06_1050,ACPT_experiment_5_30_19,3.1.0,59.94575081201383,
,,,C,U,g,n,R,G,g,L,c ,,,,,5,19,119,16,3,0,3,0,,,,,1,27,63,6,,,,,,up,0.6338116983397413,3350.1810057437606,None,001,9,2019_Jun_06_1050,ACPT_experiment_5_30_19,3.1.0,59.94575081201383,
,,,C,U,g,n,R,G,g,R,c ,,,,,5,19,119,16,3,0,3,0,,,,,1,28,64,7,,,,,,up,0.4837295324941806,3352.082443555505,None,001,9,2019_Jun_06_1050,ACPT_experiment_5_30_19,3.1.0,59.94575081201383,
,,,C,U,g,n,R,D,g,R,i,,,,,5,19,119,16,3,0,3,0,,,,,1,29,65,3,,,,,,up,0.5004204886963635,3353.850496496632,None,001,9,2019_Jun_06_1050,ACPT_experiment_5_30_19,3.1.0,59.94575081201383,
,,,C,U,g,n,L,D,d,R,c ,,,,,5,19,119,16,3,0,3,0,,,,,1,30,66,13,,,,,,up,0.46675362199857773,3355.6521526123424,None,001,9,2019_Jun_06_1050,ACPT_experiment_5_30_19,3.1.0,59.94575081201383,
,,,C,U,g,n,L,G,g,L,c ,,,,,5,19,119,16,3,0,3,0,,,,,1,31,67,18,,,,,,up,0.6338050574554472,3357.403247452617,None,001,9,2019_Jun_06_1050,ACPT_experiment_5_30_19,3.1.0,59.94575081201383,
,,,C,U,g,n,L,U,y,L,u,,,,,5,19,119,16,3,0,3,0,,,,,1,32,68,24,,,,,,down,0.6839020747329414,3359.321379541006,None,001,9,2019_Jun_06_1050,ACPT_experiment_5_30_19,3.1.0,59.94575081201383,
,,,C,U,g,n,R,D,y,L,y,,,,,5,19,119,16,3,0,3,0,,,,,1,33,69,26,,,,,,down,0.7171934296302425,3361.2895844980035,None,001,9,2019_Jun_06_1050,ACPT_experiment_5_30_19,3.1.0,59.94575081201383,
,,,C,U,g,n,L,D,g,L,i,,,,,5,19,119,16,3,0,3,0,,,,,1,34,70,14,,,,,,down,1.050804271416382,3363.2911058641416,None,001,9,2019_Jun_06_1050,ACPT_experiment_5_30_19,3.1.0,59.94575081201383,
,,,C,U,g,n,R,G,d,L,i,,,,,5,19,119,16,3,0,3,0,,,,,1,35,71,4,,,,,,up,0.5837527152157236,3365.626261013302,None,001,9,2019_Jun_06_1050,ACPT_experiment_5_30_19,3.1.0,59.94575081201383,
,,,C,U,g,n,,,,,,,,,,5,19,119,16,4,0,4,0,0,0,0,0,,,,,,,,,,,,,,001,9,2019_Jun_06_1050,ACPT_experiment_5_30_19,3.1.0,59.94575081201383,
,,,C,U,g,n,L,D,y,R,y,,,,,5,19,119,16,4,0,4,0,,,,,0,0,0,33,,,,,,down,0.7672445644361687,3452.1762940366066,None,001,9,2019_Jun_06_1050,ACPT_experiment_5_30_19,3.1.0,59.94575081201383,
,,,C,U,g,n,L,U,y,L,u,,,,,5,19,119,16,4,0,4,0,,,,,0,1,1,24,,,,,,down,0.7839629897503073,3454.2278614059596,None,001,9,2019_Jun_06_1050,ACPT_experiment_5_30_19,3.1.0,59.94575081201383,
,,,C,U,g,n,L,G,y,R,y,,,,,5,19,119,16,4,0,4,0,,,,,0,2,2,35,,,,,,down,0.6004614810617568,3456.296121542665,None,001,9,2019_Jun_06_1050,ACPT_experiment_5_30_19,3.1.0,59.94575081201383,
,,,C,U,g,n,R,D,d,L,c,,,,,5,19,119,16,4,0,4,0,,,,,0,3,3,0,,,,,,up,0.5837795806100985,3458.1809094509435,None,001,9,2019_Jun_06_1050,ACPT_experiment_5_30_19,3.1.0,59.94575081201383,
,,,C,U,g,n,L,G,y,L,y,,,,,5,19,119,16,4,0,4,0,,,,,0,4,4,34,,,,,,down,0.7839207295796768,3460.0656970573636,None,001,9,2019_Jun_06_1050,ACPT_experiment_5_30_19,3.1.0,59.94575081201383,
,,,C,U,g,n,R,D,g,R,i,,,,,5,19,119,16,4,0,4,0,,,,,0,5,5,3,,,,,,down,0.9173768387699965,3462.150633962929,None,001,9,2019_Jun_06_1050,ACPT_experiment_5_30_19,3.1.0,59.94575081201383,
,,,C,U,g,n,L,D,d,R,c ,,,,,5,19,119,16,4,0,4,0,,,,,0,6,6,13,,,,,,up,0.6838619275708879,3464.352333908474,None,001,9,2019_Jun_06_1050,ACPT_experiment_5_30_19,3.1.0,59.94575081201383,
,,,C,U,g,n,R,U,y,L,u,,,,,5,19,119,16,4,0,4,0,,,,,0,7,7,30,,,,,,down,0.7839312946225618,3466.3205192446776,None,001,9,2019_Jun_06_1050,ACPT_experiment_5_30_19,3.1.0,59.94575081201383,
,,,C,U,g,n,L,D,d,L,c ,,,,,5,19,119,16,4,0,4,0,,,,,0,8,8,12,,,,,,up,0.7672569406290677,3468.388776664658,None,001,9,2019_Jun_06_1050,ACPT_experiment_5_30_19,3.1.0,59.94575081201383,
,,,C,U,g,n,L,D,g,R,i,,,,,5,19,119,16,4,0,4,0,,,,,0,9,9,15,,,,,,down,0.6338590901023053,3470.423667265151,None,001,9,2019_Jun_06_1050,ACPT_experiment_5_30_19,3.1.0,59.94575081201383,
,,,C,U,g,n,R,U,d,R,u,,,,,5,19,119,16,4,0,4,0,,,,,0,10,10,9,,,,,,up,0.6338587882437423,3472.341822898492,None,001,9,2019_Jun_06_1050,ACPT_experiment_5_30_19,3.1.0,59.94575081201383,
,,,C,U,g,n,R,G,d,L,i,,,,,5,19,119,16,4,0,4,0,,,,,0,11,11,4,,,,,,up,0.6004708386708444,3474.259973400241,None,001,9,2019_Jun_06_1050,ACPT_experiment_5_30_19,3.1.0,59.94575081201383,
,,,C,U,g,n,R,U,g,R,u,,,,,5,19,119,16,4,0,4,0,,,,,0,12,12,11,,,,,,up,0.7338991768924643,3476.1447543657773,None,001,9,2019_Jun_06_1050,ACPT_experiment_5_30_19,3.1.0,59.94575081201383,
,,,C,U,g,n,L,G,g,R,c ,,,,,5,19,119,16,4,0,4,0,,,,,0,13,13,19,,,,,,up,0.7672548276204907,3478.162976347586,None,001,9,2019_Jun_06_1050,ACPT_experiment_5_30_19,3.1.0,59.94575081201383,
,,,C,U,g,n,R,G,y,R,y,,,,,5,19,119,16,4,0,4,0,,,,,0,14,14,29,,,,,,down,0.66717429181017,3480.231242823317,None,001,9,2019_Jun_06_1050,ACPT_experiment_5_30_19,3.1.0,59.94575081201383,
,,,C,U,g,n,L,D,g,L,i,,,,,5,19,119,16,4,0,4,0,,,,,0,15,15,14,,,,,,up,0.667163726767285,3482.1994278576626,None,001,9,2019_Jun_06_1050,ACPT_experiment_5_30_19,3.1.0,59.94575081201383,
,,,C,U,g,n,R,G,g,R,c ,,,,,5,19,119,16,4,0,4,0,,,,,0,16,16,7,,,,,,up,0.5837744490177101,3484.1509279729726,None,001,9,2019_Jun_06_1050,ACPT_experiment_5_30_19,3.1.0,59.94575081201383,
,,,C,U,g,n,R,D,y,R,y,,,,,5,19,119,16,4,0,4,0,,,,,0,17,17,27,,,,,,down,0.6338129057730839,3486.0190360938077,None,001,9,2019_Jun_06_1050,ACPT_experiment_5_30_19,3.1.0,59.94575081201383,
,,,C,U,g,n,R,U,g,L,u,,,,,5,19,119,16,4,0,4,0,,,,,0,18,18,10,,,,,,up,0.5837973902530393,3487.9371808602477,None,001,9,2019_Jun_06_1050,ACPT_experiment_5_30_19,3.1.0,59.94575081201383,
,,,C,U,g,n,L,G,g,L,c ,,,,,5,19,119,16,4,0,4,0,,,,,0,19,19,18,,,,,,down,0.8173029438435151,3489.8052844532076,None,001,9,2019_Jun_06_1050,ACPT_experiment_5_30_19,3.1.0,59.94575081201383,
,,,C,U,g,n,R,U,d,L,u,,,,,5,19,119,16,4,0,4,0,,,,,0,20,20,8,,,,,,up,0.5671046229003878,3491.9069141261257,None,001,9,2019_Jun_06_1050,ACPT_experiment_5_30_19,3.1.0,59.94575081201383,
,,,C,U,g,n,R,U,y,R,u,,,,,5,19,119,16,4,0,4,0,,,,,0,21,21,31,,,,,,down,0.6004611792036485,3493.758329479608,None,001,9,2019_Jun_06_1050,ACPT_experiment_5_30_19,3.1.0,59.94575081201383,
,,,C,U,g,n,R,G,d,R,i,,,,,5,19,119,16,4,0,4,0,,,,,0,22,22,5,,,,,,up,0.8001483331986492,3495.6602375866782,None,001,9,2019_Jun_06_1050,ACPT_experiment_5_30_19,3.1.0,59.94575081201383,
,,,C,U,g,n,R,G,y,L,y,,,,,5,19,119,16,4,0,4,0,,,,,0,23,23,28,,,,,,down,0.6338171317902379,3497.7447383069125,None,001,9,2019_Jun_06_1050,ACPT_experiment_5_30_19,3.1.0,59.94575081201383,
,,,C,U,g,n,L,G,d,L,i,,,,,5,19,119,16,4,0,4,0,,,,,0,24,24,16,,,,,,up,0.6838586071289683,3499.662881865919,None,001,9,2019_Jun_06_1050,ACPT_experiment_5_30_19,3.1.0,59.94575081201383,
,,,C,U,g,n,L,U,d,L,u,,,,,5,19,119,16,4,0,4,0,,,,,0,25,25,20,,,,,,up,0.5837801843267698,3501.631066296548,None,001,9,2019_Jun_06_1050,ACPT_experiment_5_30_19,3.1.0,59.94575081201383,
,,,C,U,g,n,R,D,y,L,y,,,,,5,19,119,16,4,0,4,0,,,,,0,26,26,26,,,,,,down,1.0675522788492344,3503.499149966856,None,001,9,2019_Jun_06_1050,ACPT_experiment_5_30_19,3.1.0,59.94575081201383,
,,,C,U,g,n,R,D,d,R,c ,,,,,5,19,119,16,4,0,4,0,,,,,0,27,27,1,,,,,,up,1.0341314267152484,3505.8509972796523,None,001,9,2019_Jun_06_1050,ACPT_experiment_5_30_19,3.1.0,59.94575081201383,
,,,C,U,g,n,L,U,d,R,u,,,,,5,19,119,16,4,0,4,0,,,,,0,28,28,21,,,,,,up,1.0641533537068426,3508.1894511369796,None,001,9,2019_Jun_06_1050,ACPT_experiment_5_30_19,3.1.0,59.94575081201383,
,,,C,U,g,n,L,U,g,L,u,,,,,5,19,119,16,4,0,4,0,,,,,0,29,29,22,,,,,,up,1.1842694363581359,3510.5212275855074,None,001,9,2019_Jun_06_1050,ACPT_experiment_5_30_19,3.1.0,59.94575081201383,
,,,C,U,g,n,L,U,g,R,u,,,,,5,19,119,16,4,0,4,0,,,,,0,30,30,23,,,,,,up,0.6838830576557484,3512.9731161925274,None,001,9,2019_Jun_06_1050,ACPT_experiment_5_30_19,3.1.0,59.94575081201383,
,,,C,U,g,n,L,G,d,R,i,,,,,5,19,119,16,4,0,4,0,,,,,0,31,31,17,,,,,,up,1.0341365583076367,3514.941322356958,None,001,9,2019_Jun_06_1050,ACPT_experiment_5_30_19,3.1.0,59.94575081201383,
,,,C,U,g,n,R,D,g,L,i,,,,,5,19,119,16,4,0,4,0,,,,,0,32,32,2,,,,,,up,0.6838589089875313,3517.2597799090317,None,001,9,2019_Jun_06_1050,ACPT_experiment_5_30_19,3.1.0,59.94575081201383,
,,,C,U,g,n,R,G,g,L,c ,,,,,5,19,119,16,4,0,4,0,,,,,0,33,33,6,,,,,,up,0.700539602005847,3519.2279583024933,None,001,9,2019_Jun_06_1050,ACPT_experiment_5_30_19,3.1.0,59.94575081201383,
,,,C,U,g,n,L,U,y,R,u,,,,,5,19,119,16,4,0,4,0,,,,,0,34,34,25,,,,,,down,0.6004542364617009,3521.229507741459,None,001,9,2019_Jun_06_1050,ACPT_experiment_5_30_19,3.1.0,59.94575081201383,
,,,C,U,g,n,L,D,y,L,y,,,,,5,19,119,16,4,0,4,0,,,,,0,35,35,32,,,,,,down,0.7672524127538054,3523.1142838772616,None,001,9,2019_Jun_06_1050,ACPT_experiment_5_30_19,3.1.0,59.94575081201383,
,,,C,U,g,n,R,U,d,L,u,,,,,5,19,119,16,4,0,4,0,,,,,1,0,36,8,,,,,,up,0.6171291941709569,3525.1825557864436,None,001,9,2019_Jun_06_1050,ACPT_experiment_5_30_19,3.1.0,59.94575081201383,
,,,C,U,g,n,R,G,g,L,c ,,,,,5,19,119,16,4,0,4,0,,,,,1,1,37,6,,,,,,up,0.6838640405794649,3527.084012917123,None,001,9,2019_Jun_06_1050,ACPT_experiment_5_30_19,3.1.0,59.94575081201383,
,,,C,U,g,n,L,G,d,L,i,,,,,5,19,119,16,4,0,4,0,,,,,1,2,38,16,,,,,,up,0.5668465340017974,3529.0691343185185,None,001,9,2019_Jun_06_1050,ACPT_experiment_5_30_19,3.1.0,59.94575081201383,
,,,C,U,g,n,R,D,d,R,c ,,,,,5,19,119,16,4,0,4,0,,,,,1,3,39,1,,,,,,up,2.134984418071326,3530.920305468587,None,001,9,2019_Jun_06_1050,ACPT_experiment_5_30_19,3.1.0,59.94575081201383,
,,,C,U,g,n,R,U,d,R,u,,,,,5,19,119,16,4,0,4,0,,,,,1,4,40,9,,,,,,up,0.5170667698621401,3534.3396036358236,None,001,9,2019_Jun_06_1050,ACPT_experiment_5_30_19,3.1.0,59.94575081201383,
,,,C,U,g,n,L,G,g,L,c ,,,,,5,19,119,16,4,0,4,0,,,,,1,5,41,18,,,,,,up,0.6505044656923928,3536.1409941161764,None,001,9,2019_Jun_06_1050,ACPT_experiment_5_30_19,3.1.0,59.94575081201383,
,,,C,U,g,n,R,U,g,R,u,,,,,5,19,119,16,4,0,4,0,,,,,1,6,42,11,,,,,,up,0.5670895299822405,3538.0758425168706,None,001,9,2019_Jun_06_1050,ACPT_experiment_5_30_19,3.1.0,59.94575081201383,
,,,C,U,g,n,L,D,y,R,y,,,,,5,19,119,16,4,0,4,0,,,,,1,7,43,33,,,,,,down,0.5170414137596708,3539.9606207656816,None,001,9,2019_Jun_06_1050,ACPT_experiment_5_30_19,3.1.0,59.94575081201383,
,,,C,U,g,n,R,G,y,R,y,,,,,5,19,119,16,4,0,4,0,,,,,1,8,44,29,,,,,,down,0.8339609974850646,3541.778678355427,None,001,9,2019_Jun_06_1050,ACPT_experiment_5_30_19,3.1.0,59.94575081201383,
,,,C,U,g,n,L,U,d,R,u,,,,,5,19,119,16,4,0,4,0,,,,,1,9,45,21,,,,,,up,0.65049269321662,3543.8969706098624,None,001,9,2019_Jun_06_1050,ACPT_experiment_5_30_19,3.1.0,59.94575081201383,
,,,C,U,g,n,R,G,d,L,i,,,,,5,19,119,16,4,0,4,0,,,,,1,10,46,4,,,,,,up,0.8006162136575767,3545.8151177911695,None,001,9,2019_Jun_06_1050,ACPT_experiment_5_30_19,3.1.0,59.94575081201383,
,,,C,U,g,n,L,U,g,L,u,,,,,5,19,119,16,4,0,4,0,,,,,1,11,47,22,,,,,,up,0.6335300644891504,3547.917017023604,None,001,9,2019_Jun_06_1050,ACPT_experiment_5_30_19,3.1.0,59.94575081201383,
,,,C,U,g,n,L,D,g,R,i,,,,,5,19,119,16,4,0,4,0,,,,,1,12,48,15,,,,,,down,0.8005890464050935,3549.8349046067206,None,001,9,2019_Jun_06_1050,ACPT_experiment_5_30_19,3.1.0,59.94575081201383,
,,,C,U,g,n,L,G,y,L,y,,,,,5,19,119,16,4,0,4,0,,,,,1,13,49,34,,,,,,down,0.8172926806591931,3551.919824004501,None,001,9,2019_Jun_06_1050,ACPT_experiment_5_30_19,3.1.0,59.94575081201383,
,,,C,U,g,n,R,G,y,L,y,,,,,5,19,119,16,4,0,4,0,,,,,1,14,50,28,,,,,,down,0.8173011326935011,3554.021441603085,None,001,9,2019_Jun_06_1050,ACPT_experiment_5_30_19,3.1.0,59.94575081201383,
,,,C,U,g,n,L,U,d,L,u,,,,,5,19,119,16,4,0,4,0,,,,,1,15,51,20,,,,,,up,0.6004599717703059,3556.1230598053858,None,001,9,2019_Jun_06_1050,ACPT_experiment_5_30_19,3.1.0,59.94575081201383,
,,,C,U,g,n,R,D,d,L,c,,,,,5,19,119,16,4,0,4,0,,,,,1,16,52,0,,,,,,up,0.6838555885456117,3558.007847411806,None,001,9,2019_Jun_06_1050,ACPT_experiment_5_30_19,3.1.0,59.94575081201383,
,,,C,U,g,n,L,G,g,R,c ,,,,,5,19,119,16,4,0,4,0,,,,,1,17,53,19,,,,,,up,0.6171379480633732,3559.9760276164175,None,001,9,2019_Jun_06_1050,ACPT_experiment_5_30_19,3.1.0,59.94575081201383,
,,,C,U,g,n,R,D,y,R,y,,,,,5,19,119,16,4,0,4,0,,,,,1,18,54,27,,,,,,down,0.6171343257633453,3561.877495613998,None,001,9,2019_Jun_06_1050,ACPT_experiment_5_30_19,3.1.0,59.94575081201383,
,,,C,U,g,n,R,U,y,R,u,,,,,5,19,119,16,4,0,4,0,,,,,1,19,55,31,,,,,,down,2.818817065381154,3563.7789823267963,None,001,9,2019_Jun_06_1050,ACPT_experiment_5_30_19,3.1.0,59.94575081201383,
,,,C,U,g,n,L,U,g,R,u,,,,,5,19,119,16,4,0,4,0,,,,,1,20,56,23,,,,,,down,0.6671845549944919,3567.8821200840853,None,001,9,2019_Jun_06_1050,ACPT_experiment_5_30_19,3.1.0,59.94575081201383,
,,,C,U,g,n,L,D,d,L,c ,,,,,5,19,119,16,4,0,4,0,,,,,1,21,57,12,,,,,,up,0.6838812465061892,3569.833628047713,None,001,9,2019_Jun_06_1050,ACPT_experiment_5_30_19,3.1.0,59.94575081201383,
,,,C,U,g,n,L,G,y,R,y,,,,,5,19,119,16,4,0,4,0,,,,,1,22,58,35,,,,,,down,0.7506191114980538,3571.801788631531,None,001,9,2019_Jun_06_1050,ACPT_experiment_5_30_19,3.1.0,59.94575081201383,
,,,C,U,g,n,R,U,y,L,u,,,,,5,19,119,16,4,0,4,0,,,,,1,23,59,30,,,,,,down,0.8337367167227967,3573.8536279752666,None,001,9,2019_Jun_06_1050,ACPT_experiment_5_30_19,3.1.0,59.94575081201383,
,,,C,U,g,n,R,G,d,R,i,,,,,5,19,119,16,4,0,4,0,,,,,1,24,60,5,,,,,,up,0.633813207631647,3575.971713758583,None,001,9,2019_Jun_06_1050,ACPT_experiment_5_30_19,3.1.0,59.94575081201383,
,,,C,U,g,n,L,G,d,R,i,,,,,5,19,119,16,4,0,4,0,,,,,1,25,61,17,,,,,,up,0.5671000950251255,3577.8898325652044,None,001,9,2019_Jun_06_1050,ACPT_experiment_5_30_19,3.1.0,59.94575081201383,
,,,C,U,g,n,L,U,y,L,u,,,,,5,19,119,16,4,0,4,0,,,,,1,26,62,24,,,,,,down,0.6338216596655002,3579.741259389304,None,001,9,2019_Jun_06_1050,ACPT_experiment_5_30_19,3.1.0,59.94575081201383,
,,,C,U,g,n,L,U,y,R,u,,,,,5,19,119,16,4,0,4,0,,,,,1,27,63,25,,,,,,down,0.5672501186304544,3581.6425749484124,None,001,9,2019_Jun_06_1050,ACPT_experiment_5_30_19,3.1.0,59.94575081201383,
,,,C,U,g,n,R,D,g,R,i,,,,,5,19,119,16,4,0,4,0,,,,,1,28,64,3,,,,,,up,0.6671833475611493,3583.4941530035508,None,001,9,2019_Jun_06_1050,ACPT_experiment_5_30_19,3.1.0,59.94575081201383,
,,,C,U,g,n,R,G,g,R,c ,,,,,5,19,119,16,4,0,4,0,,,,,1,29,65,7,,,,,,up,0.5337353885461198,3585.428981481593,None,001,9,2019_Jun_06_1050,ACPT_experiment_5_30_19,3.1.0,59.94575081201383,
,,,C,U,g,n,L,D,y,L,y,,,,,5,19,119,16,4,0,4,0,,,,,1,30,66,32,,,,,,down,0.8170922467079436,3587.2805758370832,None,001,9,2019_Jun_06_1050,ACPT_experiment_5_30_19,3.1.0,59.94575081201383,
,,,C,U,g,n,R,D,g,L,i,,,,,5,19,119,16,4,0,4,0,,,,,1,31,67,2,,,,,,up,0.934049381613022,3589.3987041824284,None,001,9,2019_Jun_06_1050,ACPT_experiment_5_30_19,3.1.0,59.94575081201383,
,,,C,U,g,n,R,U,g,L,u,,,,,5,19,119,16,4,0,4,0,,,,,1,32,68,10,,,,,,up,1.1008448411803329,3591.600403222398,None,001,9,2019_Jun_06_1050,ACPT_experiment_5_30_19,3.1.0,59.94575081201383,
,,,C,U,g,n,L,D,d,R,c ,,,,,5,19,119,16,4,0,4,0,,,,,1,33,69,13,,,,,,up,2.3518089767849233,3593.985572679645,None,001,9,2019_Jun_06_1050,ACPT_experiment_5_30_19,3.1.0,59.94575081201383,
,,,C,U,g,n,R,D,y,L,y,,,,,5,19,119,16,4,0,4,0,,,,,1,34,70,26,,,,,,down,0.750592547962242,3597.6216929907278,None,001,9,2019_Jun_06_1050,ACPT_experiment_5_30_19,3.1.0,59.94575081201383,
,,,C,U,g,n,L,D,g,L,i,,,,,5,19,119,16,4,0,4,0,,,,,1,35,71,14,,,,,,up,0.6671791215439953,3599.6566065324564,None,001,9,2019_Jun_06_1050,ACPT_experiment_5_30_19,3.1.0,59.94575081201383,
,,,C,U,g,n,,,,,,,,,,5,19,119,16,5,0,5,0,0,0,0,0,,,,,,,,,,,,,,001,9,2019_Jun_06_1050,ACPT_experiment_5_30_19,3.1.0,59.94575081201383,
,,,C,U,g,n,R,D,d,R,c ,,,,,5,19,119,16,5,0,5,0,,,,,0,0,0,1,,,,,,up,0.6835839160207797,3755.060000688237,None,001,9,2019_Jun_06_1050,ACPT_experiment_5_30_19,3.1.0,59.94575081201383,
,,,C,U,g,n,R,D,g,L,i,,,,,5,19,119,16,5,0,5,0,,,,,0,1,1,2,,,,,,down,0.7673025212420725,3757.0112086046533,None,001,9,2019_Jun_06_1050,ACPT_experiment_5_30_19,3.1.0,59.94575081201383,
,,,C,U,g,n,L,G,y,L,y,,,,,5,19,119,16,5,0,5,0,,,,,0,2,2,34,,,,,,down,0.9005005415338019,3759.0796450266416,None,001,9,2019_Jun_06_1050,ACPT_experiment_5_30_19,3.1.0,59.94575081201383,
,,,C,U,g,n,L,U,y,L,u,,,,,5,19,119,16,5,0,5,0,,,,,0,3,3,24,,,,,,down,0.7671428381686383,3761.2978738304496,None,001,9,2019_Jun_06_1050,ACPT_experiment_5_30_19,3.1.0,59.94575081201383,
,,,C,U,g,n,R,U,d,R,u,,,,,5,19,119,16,5,0,5,0,,,,,0,4,4,9,,,,,,up,0.7839376336478381,3763.3494469351112,None,001,9,2019_Jun_06_1050,ACPT_experiment_5_30_19,3.1.0,59.94575081201383,
,,,C,U,g,n,L,D,y,R,y,,,,,5,19,119,16,5,0,5,0,,,,,0,5,5,33,,,,,,down,0.633815622498787,3765.4343913871357,None,001,9,2019_Jun_06_1050,ACPT_experiment_5_30_19,3.1.0,59.94575081201383,
,,,C,U,g,n,R,D,y,L,y,,,,,5,19,119,16,5,0,5,0,,,,,0,6,6,26,,,,,,down,0.8506558778467479,3767.369218657744,None,001,9,2019_Jun_06_1050,ACPT_experiment_5_30_19,3.1.0,59.94575081201383,
,,,C,U,g,n,L,D,g,L,i,,,,,5,19,119,16,5,0,5,0,,,,,0,7,7,14,,,,,,up,0.5670517976868723,3769.504245939703,None,001,9,2019_Jun_06_1050,ACPT_experiment_5_30_19,3.1.0,59.94575081201383,
,,,C,U,g,n,R,U,g,R,u,,,,,5,19,119,16,5,0,5,0,,,,,0,8,8,11,,,,,,up,0.46702831310722104,3771.3389401511463,None,001,9,2019_Jun_06_1050,ACPT_experiment_5_30_19,3.1.0,59.94575081201383,
,,,C,U,g,n,R,D,d,L,c,,,,,5,19,119,16,5,0,5,0,,,,,0,9,9,0,,,,,,up,0.6838622294289962,3773.0902912691695,None,001,9,2019_Jun_06_1050,ACPT_experiment_5_30_19,3.1.0,59.94575081201383,
,,,C,U,g,n,R,D,g,R,i,,,,,5,19,119,16,5,0,5,0,,,,,0,10,10,3,,,,,,up,0.6004551420364805,3775.0417977235047,None,001,9,2019_Jun_06_1050,ACPT_experiment_5_30_19,3.1.0,59.94575081201383,
,,,C,U,g,n,R,G,y,L,y,,,,,5,19,119,16,5,0,5,0,,,,,0,11,11,28,,,,,,down,0.5837774676015215,3776.9265883485086,None,001,9,2019_Jun_06_1050,ACPT_experiment_5_30_19,3.1.0,59.94575081201383,
,,,C,U,g,n,L,G,y,R,y,,,,,5,19,119,16,5,0,5,0,,,,,0,12,12,35,,,,,,down,0.6504969192333192,3778.8113668991778,None,001,9,2019_Jun_06_1050,ACPT_experiment_5_30_19,3.1.0,59.94575081201383,
,,,C,U,g,n,R,G,d,L,i,,,,,5,19,119,16,5,0,5,0,,,,,0,13,13,4,,,,,,up,1.1675280698091228,3780.7795778933423,None,001,9,2019_Jun_06_1050,ACPT_experiment_5_30_19,3.1.0,59.94575081201383,
,,,C,U,g,n,L,D,d,R,c ,,,,,5,19,119,16,5,0,5,0,,,,,0,14,14,13,,,,,,up,0.9006916178764186,3783.2314438609856,None,001,9,2019_Jun_06_1050,ACPT_experiment_5_30_19,3.1.0,59.94575081201383,
,,,C,U,g,n,R,U,y,L,u,,,,,5,19,119,16,5,0,5,0,,,,,0,15,15,30,,,,,,down,0.6838549848284856,3785.4164619060784,None,001,9,2019_Jun_06_1050,ACPT_experiment_5_30_19,3.1.0,59.94575081201383,
,,,C,U,g,n,L,G,g,R,c ,,,,,5,19,119,16,5,0,5,0,,,,,0,16,16,19,,,,,,up,0.7839343132054637,3787.3846430162653,None,001,9,2019_Jun_06_1050,ACPT_experiment_5_30_19,3.1.0,59.94575081201383,
,,,C,U,g,n,R,U,d,L,u,,,,,5,19,119,16,5,0,5,0,,,,,0,17,17,8,,,,,,up,0.8673323448479096,3789.4529046622624,None,001,9,2019_Jun_06_1050,ACPT_experiment_5_30_19,3.1.0,59.94575081201383,
,,,C,U,g,n,L,G,d,R,i,,,,,5,19,119,16,5,0,5,0,,,,,0,18,18,17,,,,,,up,0.8506561797048562,3791.604558604593,None,001,9,2019_Jun_06_1050,ACPT_experiment_5_30_19,3.1.0,59.94575081201383,
,,,C,U,g,n,R,G,g,L,c ,,,,,5,19,119,16,5,0,5,0,,,,,0,19,19,6,,,,,,up,0.5670964727246428,3793.739541513373,None,001,9,2019_Jun_06_1050,ACPT_experiment_5_30_19,3.1.0,59.94575081201383,
,,,C,U,g,n,R,G,y,R,y,,,,,5,19,119,16,5,0,5,0,,,,,0,20,20,29,,,,,,down,0.6171397592133872,3795.590967130039,None,001,9,2019_Jun_06_1050,ACPT_experiment_5_30_19,3.1.0,59.94575081201383,
,,,C,U,g,n,L,U,d,R,u,,,,,5,19,119,16,5,0,5,0,,,,,0,21,21,21,,,,,,up,0.6505020508257076,3797.492431505319,None,001,9,2019_Jun_06_1050,ACPT_experiment_5_30_19,3.1.0,59.94575081201383,
,,,C,U,g,n,R,D,y,R,y,,,,,5,19,119,16,5,0,5,0,,,,,0,22,22,27,,,,,,down,0.6505207660443375,3799.4272575684945,None,001,9,2019_Jun_06_1050,ACPT_experiment_5_30_19,3.1.0,59.94575081201383,
,,,C,U,g,n,L,G,d,L,i,,,,,5,19,119,16,5,0,5,0,,,,,0,23,23,16,,,,,,up,0.6004545383198092,3801.36208363167,None,001,9,2019_Jun_06_1050,ACPT_experiment_5_30_19,3.1.0,59.94575081201383,
,,,C,U,g,n,L,U,g,L,u,,,,,5,19,119,16,5,0,5,0,,,,,0,24,24,22,,,,,,up,0.6838740019052238,3803.246865200923,None,001,9,2019_Jun_06_1050,ACPT_experiment_5_30_19,3.1.0,59.94575081201383,
,,,C,U,g,n,L,D,g,R,i,,,,,5,19,119,16,5,0,5,0,,,,,0,25,25,15,,,,,,up,0.6171373443467019,3805.1983701459662,None,001,9,2019_Jun_06_1050,ACPT_experiment_5_30_19,3.1.0,59.94575081201383,
,,,C,U,g,n,L,D,d,L,c ,,,,,5,19,119,16,5,0,5,0,,,,,0,26,26,12,,,,,,up,0.8172993215430324,3807.0998345212465,None,001,9,2019_Jun_06_1050,ACPT_experiment_5_30_19,3.1.0,59.94575081201383,
,,,C,U,g,n,R,U,g,L,u,,,,,5,19,119,16,5,0,5,0,,,,,0,27,27,10,,,,,,up,0.6504923913580569,3809.2014578551393,None,001,9,2019_Jun_06_1050,ACPT_experiment_5_30_19,3.1.0,59.94575081201383,
,,,C,U,g,n,L,G,g,L,c ,,,,,5,19,119,16,5,0,5,0,,,,,0,28,28,18,,,,,,down,0.7806337938886827,3811.1562913923276,None,001,9,2019_Jun_06_1050,ACPT_experiment_5_30_19,3.1.0,59.94575081201383,
,,,C,U,g,n,L,U,g,R,u,,,,,5,19,119,16,5,0,5,0,,,,,0,29,29,23,,,,,,down,0.6504960136585396,3813.2045404327196,None,001,9,2019_Jun_06_1050,ACPT_experiment_5_30_19,3.1.0,59.94575081201383,
,,,C,U,g,n,R,G,g,R,c ,,,,,5,19,119,16,5,0,5,0,,,,,0,30,30,7,,,,,,up,2.2184219931586995,3815.139369816337,None,001,9,2019_Jun_06_1050,ACPT_experiment_5_30_19,3.1.0,59.94575081201383,
,,,C,U,g,n,L,U,y,R,u,,,,,5,19,119,16,5,0,5,0,,,,,0,31,31,25,,,,,,down,0.8172908695091792,3818.6420657133576,None,001,9,2019_Jun_06_1050,ACPT_experiment_5_30_19,3.1.0,59.94575081201383,
,,,C,U,g,n,L,U,d,L,u,,,,,5,19,119,16,5,0,5,0,,,,,0,32,32,20,,,,,,up,0.6338198485154862,3820.7436827082247,None,001,9,2019_Jun_06_1050,ACPT_experiment_5_30_19,3.1.0,59.94575081201383,
,,,C,U,g,n,R,G,d,R,i,,,,,5,19,119,16,5,0,5,0,,,,,0,33,33,5,,,,,,up,3.1190728601563933,3822.6618280783814,None,001,9,2019_Jun_06_1050,ACPT_experiment_5_30_19,3.1.0,59.94575081201383,
,,,C,U,g,n,L,D,y,L,y,,,,,5,19,119,16,5,0,5,0,,,,,0,34,34,32,,,,,,down,0.8506724800563461,3827.065223139737,None,001,9,2019_Jun_06_1050,ACPT_experiment_5_30_19,3.1.0,59.94575081201383,
,,,C,U,g,n,R,U,y,R,u,,,,,5,19,119,16,5,0,5,0,,,,,0,35,35,31,,,,,,down,1.0341235783980665,3829.2002015206413,None,001,9,2019_Jun_06_1050,ACPT_experiment_5_30_19,3.1.0,59.94575081201383,
,,,C,U,g,n,L,G,g,L,c ,,,,,5,19,119,16,5,0,5,0,,,,,1,0,36,18,,,,,,up,0.9173726127532973,3831.518650620681,None,001,9,2019_Jun_06_1050,ACPT_experiment_5_30_19,3.1.0,59.94575081201383,
,,,C,U,g,n,L,U,y,L,u,,,,,5,19,119,16,5,0,5,0,,,,,1,1,37,24,,,,,,down,0.8006116857823145,3833.720349056934,None,001,9,2019_Jun_06_1050,ACPT_experiment_5_30_19,3.1.0,59.94575081201383,
,,,C,U,g,n,R,D,g,L,i,,,,,5,19,119,16,5,0,5,0,,,,,1,2,38,2,,,,,,down,1.4344553811083642,3835.805290188516,None,001,9,2019_Jun_06_1050,ACPT_experiment_5_30_19,3.1.0,59.94575081201383,
,,,C,U,g,n,R,G,d,L,i,,,,,5,19,119,16,5,0,5,0,,,,,1,3,39,4,,,,,,up,0.5837822973353468,3838.5240553946314,None,001,9,2019_Jun_06_1050,ACPT_experiment_5_30_19,3.1.0,59.94575081201383,
,,,C,U,g,n,L,U,d,L,u,,,,,5,19,119,16,5,0,5,0,,,,,1,4,40,20,,,,,,up,0.6004638959288968,3840.392158987591,None,001,9,2019_Jun_06_1050,ACPT_experiment_5_30_19,3.1.0,59.94575081201383,
,,,C,U,g,n,L,D,g,R,i,,,,,5,19,119,16,5,0,5,0,,,,,1,5,41,15,,,,,,up,0.9006943346016669,3842.276946594011,None,001,9,2019_Jun_06_1050,ACPT_experiment_5_30_19,3.1.0,59.94575081201383,
,,,C,U,g,n,R,U,g,L,u,,,,,5,19,119,16,5,0,5,0,,,,,1,6,42,10,,,,,,up,0.7505801717697977,3844.461962224237,None,001,9,2019_Jun_06_1050,ACPT_experiment_5_30_19,3.1.0,59.94575081201383,
,,,C,U,g,n,R,D,d,L,c,,,,,5,19,119,16,5,0,5,0,,,,,1,7,43,0,,,,,,up,0.5671067359089648,3846.496858861897,None,001,9,2019_Jun_06_1050,ACPT_experiment_5_30_19,3.1.0,59.94575081201383,
,,,C,U,g,n,R,G,g,L,c ,,,,,5,19,119,16,5,0,5,0,,,,,1,8,44,6,,,,,,up,0.8339806182784741,3848.348288100864,None,001,9,2019_Jun_06_1050,ACPT_experiment_5_30_19,3.1.0,59.94575081201383,
,,,C,U,g,n,R,D,y,L,y,,,,,5,19,119,16,5,0,5,0,,,,,1,9,45,26,,,,,,down,0.8338791938695067,3850.4833434556504,None,001,9,2019_Jun_06_1050,ACPT_experiment_5_30_19,3.1.0,59.94575081201383,
,,,C,U,g,n,L,U,d,R,u,,,,,5,19,119,16,5,0,5,0,,,,,1,10,46,21,,,,,,up,3.235827448101645,3852.634925857549,None,001,9,2019_Jun_06_1050,ACPT_experiment_5_30_19,3.1.0,59.94575081201383,
,,,C,U,g,n,R,G,g,R,c ,,,,,5,19,119,16,5,0,5,0,,,,,1,11,47,7,,,,,,up,0.7339194014029999,3857.1550531693315,None,001,9,2019_Jun_06_1050,ACPT_experiment_5_30_19,3.1.0,59.94575081201383,
,,,C,U,g,n,R,D,d,R,c ,,,,,5,19,119,16,5,0,5,0,,,,,1,12,48,1,,,,,,up,0.7338979694591217,3859.1733005072424,None,001,9,2019_Jun_06_1050,ACPT_experiment_5_30_19,3.1.0,59.94575081201383,
,,,C,U,g,n,R,U,y,R,u,,,,,5,19,119,16,5,0,5,0,,,,,1,13,49,31,,,,,,down,0.8673371745817349,3861.191519470468,None,001,9,2019_Jun_06_1050,ACPT_experiment_5_30_19,3.1.0,59.94575081201383,
,,,C,U,g,n,R,U,y,L,u,,,,,5,19,119,16,5,0,5,0,,,,,1,14,50,30,,,,,,down,2.1349807957712983,3863.343182468549,None,001,9,2019_Jun_06_1050,ACPT_experiment_5_30_19,3.1.0,59.94575081201383,
,,,C,U,g,n,L,U,y,R,u,,,,,5,19,119,16,5,0,5,0,,,,,1,15,51,25,,,,,,down,0.8006116857823145,3866.7791586120793,None,001,9,2019_Jun_06_1050,ACPT_experiment_5_30_19,3.1.0,59.94575081201383,
,,,C,U,g,n,L,G,g,R,c ,,,,,5,19,119,16,5,0,5,0,,,,,1,16,52,19,,,,,,up,1.3343597523794415,3868.8807831534054,None,001,9,2019_Jun_06_1050,ACPT_experiment_5_30_19,3.1.0,59.94575081201383,
,,,C,U,g,n,L,D,g,L,i,,,,,5,19,119,16,5,0,5,0,,,,,1,17,53,14,,,,,,up,0.9173961577052978,3871.4994406564574,None,001,9,2019_Jun_06_1050,ACPT_experiment_5_30_19,3.1.0,59.94575081201383,
,,,C,U,g,n,R,G,y,L,y,,,,,5,19,119,16,5,0,5,0,,,,,1,18,54,28,,,,,,down,0.7005432243063296,3873.7011599209372,None,001,9,2019_Jun_06_1050,ACPT_experiment_5_30_19,3.1.0,59.94575081201383,
,,,C,U,g,n,R,G,d,R,i,,,,,5,19,119,16,5,0,5,0,,,,,1,19,55,5,,,,,,up,3.1357318193727224,3875.686044061661,None,001,9,2019_Jun_06_1050,ACPT_experiment_5_30_19,3.1.0,59.94575081201383,
,,,C,U,g,n,R,U,g,R,u,,,,,5,19,119,16,5,0,5,0,,,,,1,20,56,11,,,,,,up,0.5837774676015215,3880.1060971766583,None,001,9,2019_Jun_06_1050,ACPT_experiment_5_30_19,3.1.0,59.94575081201383,
,,,C,U,g,n,R,U,d,L,u,,,,,5,19,119,16,5,0,5,0,,,,,1,21,57,8,,,,,,up,0.6338421860341441,3881.9575049836812,None,001,9,2019_Jun_06_1050,ACPT_experiment_5_30_19,3.1.0,59.94575081201383,
,,,C,U,g,n,R,D,g,R,i,,,,,5,19,119,16,5,0,5,0,,,,,1,22,58,3,,,,,,up,0.6171394573552789,3883.875669974632,None,001,9,2019_Jun_06_1050,ACPT_experiment_5_30_19,3.1.0,59.94575081201383,
,,,C,U,g,n,L,G,d,L,i,,,,,5,19,119,16,5,0,5,0,,,,,1,23,59,16,,,,,,up,3.7494412601740805,3885.797151181534,None,001,9,2019_Jun_06_1050,ACPT_experiment_5_30_19,3.1.0,59.94575081201383,
,,,C,U,g,n,R,D,y,R,y,,,,,5,19,119,16,5,0,5,0,,,,,1,24,60,27,,,,,,down,0.6505340478120161,3890.8310302546597,None,001,9,2019_Jun_06_1050,ACPT_experiment_5_30_19,3.1.0,59.94575081201383,
,,,C,U,g,n,L,D,d,L,c ,,,,,5,19,119,16,5,0,5,0,,,,,1,25,61,12,,,,,,up,2.084941131582582,3892.7658566196933,None,001,9,2019_Jun_06_1050,ACPT_experiment_5_30_19,3.1.0,59.94575081201383,
,,,C,U,g,n,L,G,d,R,i,,,,,5,19,119,16,5,0,5,0,,,,,1,26,62,17,,,,,,up,0.43372126157464663,3896.1184157145044,None,001,9,2019_Jun_06_1050,ACPT_experiment_5_30_19,3.1.0,59.94575081201383,
,,,C,U,g,n,L,G,y,L,y,,,,,5,19,119,16,5,0,5,0,,,,,1,27,63,34,,,,,,down,0.5837593561000176,3897.8364389527687,None,001,9,2019_Jun_06_1050,ACPT_experiment_5_30_19,3.1.0,59.94575081201383,
,,,C,U,g,n,L,D,y,L,y,,,,,5,19,119,16,5,0,5,0,,,,,1,28,64,32,,,,,,down,0.6672002516293105,3899.72122082388,None,001,9,2019_Jun_06_1050,ACPT_experiment_5_30_19,3.1.0,59.94575081201383,
,,,C,U,g,n,R,G,y,R,y,,,,,5,19,119,16,5,0,5,0,,,,,1,29,65,29,,,,,,down,0.5003737006509255,3901.689402839642,None,001,9,2019_Jun_06_1050,ACPT_experiment_5_30_19,3.1.0,59.94575081201383,
,,,C,U,g,n,L,U,g,R,u,,,,,5,19,119,16,5,0,5,0,,,,,1,30,66,23,,,,,,up,0.6171433815143246,3903.4741102121097,None,001,9,2019_Jun_06_1050,ACPT_experiment_5_30_19,3.1.0,59.94575081201383,
